posFile,posFileTest,posFileTestNew,stimFile,stimFileNew,cs_neg_s,cs_pos_s,cs_neg_ns,cs_pos_ns,cs_neg_s_new,cs_pos_s_new,cs_neg_ns_new,cs_pos_ns_new,stim,position,position1,stim1,position2,stim2,position3,stim3,position4,stim4,blocks.thisRepN,blocks.thisTrialN,blocks.thisN,blocks.thisIndex,ratingtrials1.thisRepN,ratingtrials1.thisTrialN,ratingtrials1.thisN,ratingtrials1.thisIndex,search_task_trials.thisRepN,search_task_trials.thisTrialN,search_task_trials.thisN,search_task_trials.thisIndex,learning_trials.thisRepN,learning_trials.thisTrialN,learning_trials.thisN,learning_trials.thisIndex,trials.thisRepN,trials.thisTrialN,trials.thisN,trials.thisIndex,ratingtrials2.thisRepN,ratingtrials2.thisTrialN,ratingtrials2.thisN,ratingtrials2.thisIndex,testtrials.thisRepN,testtrials.thisTrialN,testtrials.thisN,testtrials.thisIndex,loop_test.thisRepN,loop_test.thisTrialN,loop_test.thisN,loop_test.thisIndex,testtrials_novelty.thisRepN,testtrials_novelty.thisTrialN,testtrials_novelty.thisN,testtrials_novelty.thisIndex,loop_test_novelty.thisRepN,loop_test_novelty.thisTrialN,loop_test_novelty.thisN,loop_test_novelty.thisIndex,ratingtrials3.thisRepN,ratingtrials3.thisTrialN,ratingtrials3.thisN,ratingtrials3.thisIndex,textStart.started,textStartExp.started,imageRating.started,sliderStim.response,sliderStim.rt,textStartSearch.started,target_positions,distractor_positions,textStartTask.started,image.started,score,outcome,roi.numLooks,roi.timesOn,roi.timesOff,imageFeedback.started,textTestInstr.started,test_image1.started,test_image2.started,test_image3.started,test_image4.started,test_roi1.numLooks,test_roi1.timesOn,test_roi1.timesOff,test_roi2.numLooks,test_roi2.timesOn,test_roi2.timesOff,test_roi3.numLooks,test_roi3.timesOn,test_roi3.timesOff,test_roi4.numLooks,test_roi4.timesOn,test_roi4.timesOff,test_image_feedback1.started,test_image_feedback2.started,test_iamge_feedback3.started,test_iamge_feedback4.started,participant,group,date,expName,psychopyVersion,frameRate,
positions.xlsx,positions_test.xlsx,positions_test_new.xlsx,stimuli.xlsx,stimuli_new.xlsx,stimuli/Social1.png,stimuli/Social2.png,stimuli/Nonsocial1.png,stimuli/Nonsocial2.png,stimuli/Social3.png,stimuli/Social4.png,stimuli/Nonsocial3.png,stimuli/Nonsocial4.png,cs_neg_ns,,,,,,,,,,0,0,0,0,0,0,0,1,,,,,,,,,,,,,,,,,,,,,,,,,,,,,,,,,,,,,12.103363799978979,86.91051869999501,103.70980989999953,5.0,20.071048700017855,,,,,,,,,,,,,,,,,,,,,,,,,,,,,,,,,39,A,2024-05-17_12h14.20.030,attentional_competition_task,2022.2.4,144.06544030759147,
positions.xlsx,positions_test.xlsx,positions_test_new.xlsx,stimuli.xlsx,stimuli_new.xlsx,stimuli/Social1.png,stimuli/Social2.png,stimuli/Nonsocial1.png,stimuli/Nonsocial2.png,stimuli/Social3.png,stimuli/Social4.png,stimuli/Nonsocial3.png,stimuli/Nonsocial4.png,cs_pos_ns,,,,,,,,,,0,0,0,0,0,1,1,3,,,,,,,,,,,,,,,,,,,,,,,,,,,,,,,,,,,,,,,126.07694349999656,5.0,18.059342099993955,,,,,,,,,,,,,,,,,,,,,,,,,,,,,,,,,39,A,2024-05-17_12h14.20.030,attentional_competition_task,2022.2.4,144.06544030759147,
positions.xlsx,positions_test.xlsx,positions_test_new.xlsx,stimuli.xlsx,stimuli_new.xlsx,stimuli/Social1.png,stimuli/Social2.png,stimuli/Nonsocial1.png,stimuli/Nonsocial2.png,stimuli/Social3.png,stimuli/Social4.png,stimuli/Nonsocial3.png,stimuli/Nonsocial4.png,cs_neg_s,,,,,,,,,,0,0,0,0,0,2,2,0,,,,,,,,,,,,,,,,,,,,,,,,,,,,,,,,,,,,,,,144.48597019998124,5.0,6.213992800010601,,,,,,,,,,,,,,,,,,,,,,,,,,,,,,,,,39,A,2024-05-17_12h14.20.030,attentional_competition_task,2022.2.4,144.06544030759147,
positions.xlsx,positions_test.xlsx,positions_test_new.xlsx,stimuli.xlsx,stimuli_new.xlsx,stimuli/Social1.png,stimuli/Social2.png,stimuli/Nonsocial1.png,stimuli/Nonsocial2.png,stimuli/Social3.png,stimuli/Social4.png,stimuli/Nonsocial3.png,stimuli/Nonsocial4.png,cs_pos_s,,,,,,,,,,0,0,0,0,0,3,3,2,,,,,,,,,,,,,,,,,,,,,,,,,,,,,,,,,,,,,,,152.74956629998633,5.0,4.901123599993298,,,,,,,,,,,,,,,,,,,,,,,,,,,,,,,,,39,A,2024-05-17_12h14.20.030,attentional_competition_task,2022.2.4,144.06544030759147,
positions.xlsx,positions_test.xlsx,positions_test_new.xlsx,stimuli.xlsx,stimuli_new.xlsx,stimuli/Social1.png,stimuli/Social2.png,stimuli/Nonsocial1.png,stimuli/Nonsocial2.png,stimuli/Social3.png,stimuli/Social4.png,stimuli/Nonsocial3.png,stimuli/Nonsocial4.png,,,,,,,,,,,0,0,0,0,,,,,0,0,0,0,,,,,,,,,,,,,,,,,,,,,,,,,,,,,,,,,,,,,,159.92283909997786,"[[-0.22499999999999998, 0.19999999999999996], [0.22499999999999998, 0.7], [-0.9, -0.8], [0.6749999999999999, 0.7], [-0.9, -0.30000000000000004], [-0.675, -0.8], [0.6749999999999999, 0.19999999999999996], [0.6749999999999999, -0.30000000000000004], [0.22499999999999998, -0.8], [-0.45, 0.7], [0.0, 0.19999999999999996], [-0.675, 0.7], [0.45000000000000007, 0.19999999999999996], [0.9, 0.7], [0.0, -0.8]]","[[0.6749999999999999, -0.8], [0.45000000000000007, 0.7], [0.22499999999999998, 0.19999999999999996], [-0.22499999999999998, -0.8], [0.0, 0.7], [0.45000000000000007, -0.8], [-0.9, 0.19999999999999996], [-0.9, 0.7], [-0.675, 0.19999999999999996], [-0.22499999999999998, -0.30000000000000004], [0.9, -0.30000000000000004], [-0.45, -0.8], [0.45000000000000007, -0.30000000000000004], [0.22499999999999998, -0.30000000000000004], [-0.22499999999999998, 0.7]]",,,,,,,,,,,,,,,,,,,,,,,,,,,,,,39,A,2024-05-17_12h14.20.030,attentional_competition_task,2022.2.4,144.06544030759147,
positions.xlsx,positions_test.xlsx,positions_test_new.xlsx,stimuli.xlsx,stimuli_new.xlsx,stimuli/Social1.png,stimuli/Social2.png,stimuli/Nonsocial1.png,stimuli/Nonsocial2.png,stimuli/Social3.png,stimuli/Social4.png,stimuli/Nonsocial3.png,stimuli/Nonsocial4.png,,,,,,,,,,,0,0,0,0,,,,,1,0,1,0,,,,,,,,,,,,,,,,,,,,,,,,,,,,,,,,,,,,,,,"[[0.6749999999999999, 0.19999999999999996], [-0.9, 0.19999999999999996], [-0.22499999999999998, -0.8], [0.22499999999999998, -0.8], [-0.45, -0.30000000000000004], [0.6749999999999999, 0.7], [0.9, 0.7], [0.45000000000000007, -0.8], [-0.9, 0.7], [0.45000000000000007, 0.7], [0.0, -0.8], [0.22499999999999998, -0.30000000000000004], [0.9, 0.19999999999999996], [-0.675, 0.19999999999999996], [-0.675, -0.30000000000000004]]","[[-0.22499999999999998, 0.7], [0.22499999999999998, 0.7], [0.22499999999999998, 0.19999999999999996], [0.45000000000000007, 0.19999999999999996], [0.6749999999999999, -0.8], [0.45000000000000007, -0.30000000000000004], [0.0, -0.30000000000000004], [0.9, -0.30000000000000004], [0.9, -0.8], [-0.22499999999999998, 0.19999999999999996], [0.0, 0.19999999999999996], [-0.22499999999999998, -0.30000000000000004], [-0.9, -0.30000000000000004], [-0.45, -0.8], [-0.45, 0.19999999999999996]]",,,,,,,,,,,,,,,,,,,,,,,,,,,,,,39,A,2024-05-17_12h14.20.030,attentional_competition_task,2022.2.4,144.06544030759147,
positions.xlsx,positions_test.xlsx,positions_test_new.xlsx,stimuli.xlsx,stimuli_new.xlsx,stimuli/Social1.png,stimuli/Social2.png,stimuli/Nonsocial1.png,stimuli/Nonsocial2.png,stimuli/Social3.png,stimuli/Social4.png,stimuli/Nonsocial3.png,stimuli/Nonsocial4.png,cs_neg_ns,"(0.7, -0.5)",,,,,,,,,0,0,0,0,,,,,,,,,0,0,0,11,,,,,,,,,,,,,,,,,,,,,,,,,,,,,,,,,,,,,253.63438289999613,298.41734839999117,-3,loss,1,0.9650215999863576,0.9650250999839045,299.40336430000025,,,,,,,,,,,,,,,,,,,,,,39,A,2024-05-17_12h14.20.030,attentional_competition_task,2022.2.4,144.06544030759147,
positions.xlsx,positions_test.xlsx,positions_test_new.xlsx,stimuli.xlsx,stimuli_new.xlsx,stimuli/Social1.png,stimuli/Social2.png,stimuli/Nonsocial1.png,stimuli/Nonsocial2.png,stimuli/Social3.png,stimuli/Social4.png,stimuli/Nonsocial3.png,stimuli/Nonsocial4.png,cs_pos_ns,"(-0.7, 0.5)",,,,,,,,,0,0,0,0,,,,,,,,,0,1,1,12,,,,,,,,,,,,,,,,,,,,,,,,,,,,,,,,,,,,,,306.7502666999935,-3,none,0,,,309.7710447999998,,,,,,,,,,,,,,,,,,,,,,39,A,2024-05-17_12h14.20.030,attentional_competition_task,2022.2.4,144.06544030759147,
positions.xlsx,positions_test.xlsx,positions_test_new.xlsx,stimuli.xlsx,stimuli_new.xlsx,stimuli/Social1.png,stimuli/Social2.png,stimuli/Nonsocial1.png,stimuli/Nonsocial2.png,stimuli/Social3.png,stimuli/Social4.png,stimuli/Nonsocial3.png,stimuli/Nonsocial4.png,cs_pos_s,"(-0.7, 0.5)",,,,,,,,,0,0,0,0,,,,,,,,,0,2,2,4,,,,,,,,,,,,,,,,,,,,,,,,,,,,,,,,,,,,,,317.3749050999759,0,reward,1,0.576315499987686,0.5763193999882787,317.9651471999823,,,,,,,,,,,,,,,,,,,,,,39,A,2024-05-17_12h14.20.030,attentional_competition_task,2022.2.4,144.06544030759147,
positions.xlsx,positions_test.xlsx,positions_test_new.xlsx,stimuli.xlsx,stimuli_new.xlsx,stimuli/Social1.png,stimuli/Social2.png,stimuli/Nonsocial1.png,stimuli/Nonsocial2.png,stimuli/Social3.png,stimuli/Social4.png,stimuli/Nonsocial3.png,stimuli/Nonsocial4.png,cs_pos_ns,"(0.7, 0.5)",,,,,,,,,0,0,0,0,,,,,,,,,0,3,3,14,,,,,,,,,,,,,,,,,,,,,,,,,,,,,,,,,,,,,,324.5135067999945,0,none,0,,,327.5272955999826,,,,,,,,,,,,,,,,,,,,,,39,A,2024-05-17_12h14.20.030,attentional_competition_task,2022.2.4,144.06544030759147,
positions.xlsx,positions_test.xlsx,positions_test_new.xlsx,stimuli.xlsx,stimuli_new.xlsx,stimuli/Social1.png,stimuli/Social2.png,stimuli/Nonsocial1.png,stimuli/Nonsocial2.png,stimuli/Social3.png,stimuli/Social4.png,stimuli/Nonsocial3.png,stimuli/Nonsocial4.png,cs_neg_ns,"(0.7, 0.5)",,,,,,,,,0,0,0,0,,,,,,,,,0,4,4,10,,,,,,,,,,,,,,,,,,,,,,,,,,,,,,,,,,,,,,335.04779539999436,0,none,0,,,338.05462679997436,,,,,,,,,,,,,,,,,,,,,,39,A,2024-05-17_12h14.20.030,attentional_competition_task,2022.2.4,144.06544030759147,
positions.xlsx,positions_test.xlsx,positions_test_new.xlsx,stimuli.xlsx,stimuli_new.xlsx,stimuli/Social1.png,stimuli/Social2.png,stimuli/Nonsocial1.png,stimuli/Nonsocial2.png,stimuli/Social3.png,stimuli/Social4.png,stimuli/Nonsocial3.png,stimuli/Nonsocial4.png,cs_neg_ns,"(-0.7, -0.5)",,,,,,,,,0,0,0,0,,,,,,,,,0,5,5,9,,,,,,,,,,,,,,,,,,,,,,,,,,,,,,,,,,,,,,345.28348659997573,-3,loss,1,0.47932280000532046,0.47932670000591315,345.76954949999345,,,,,,,,,,,,,,,,,,,,,,39,A,2024-05-17_12h14.20.030,attentional_competition_task,2022.2.4,144.06544030759147,
positions.xlsx,positions_test.xlsx,positions_test_new.xlsx,stimuli.xlsx,stimuli_new.xlsx,stimuli/Social1.png,stimuli/Social2.png,stimuli/Nonsocial1.png,stimuli/Nonsocial2.png,stimuli/Social3.png,stimuli/Social4.png,stimuli/Nonsocial3.png,stimuli/Nonsocial4.png,cs_pos_s,"(-0.7, -0.5)",,,,,,,,,0,0,0,0,,,,,,,,,0,6,6,5,,,,,,,,,,,,,,,,,,,,,,,,,,,,,,,,,,,,,,353.0192838999792,0,reward,1,0.4447097000083886,0.4447138000105042,353.4706906999927,,,,,,,,,,,,,,,,,,,,,,39,A,2024-05-17_12h14.20.030,attentional_competition_task,2022.2.4,144.06544030759147,
positions.xlsx,positions_test.xlsx,positions_test_new.xlsx,stimuli.xlsx,stimuli_new.xlsx,stimuli/Social1.png,stimuli/Social2.png,stimuli/Nonsocial1.png,stimuli/Nonsocial2.png,stimuli/Social3.png,stimuli/Social4.png,stimuli/Nonsocial3.png,stimuli/Nonsocial4.png,cs_neg_s,"(-0.7, -0.5)",,,,,,,,,0,0,0,0,,,,,,,,,0,7,7,1,,,,,,,,,,,,,,,,,,,,,,,,,,,,,,,,,,,,,,361.33839599997737,-3,loss,1,0.43762040001456626,0.43762430001515895,361.7828824999742,,,,,,,,,,,,,,,,,,,,,,39,A,2024-05-17_12h14.20.030,attentional_competition_task,2022.2.4,144.06544030759147,
positions.xlsx,positions_test.xlsx,positions_test_new.xlsx,stimuli.xlsx,stimuli_new.xlsx,stimuli/Social1.png,stimuli/Social2.png,stimuli/Nonsocial1.png,stimuli/Nonsocial2.png,stimuli/Social3.png,stimuli/Social4.png,stimuli/Nonsocial3.png,stimuli/Nonsocial4.png,cs_neg_ns,"(-0.7, 0.5)",,,,,,,,,0,0,0,0,,,,,,,,,0,8,8,8,,,,,,,,,,,,,,,,,,,,,,,,,,,,,,,,,,,,,,368.81728839999414,-3,none,0,,,371.8310783999914,,,,,,,,,,,,,,,,,,,,,,39,A,2024-05-17_12h14.20.030,attentional_competition_task,2022.2.4,144.06544030759147,
positions.xlsx,positions_test.xlsx,positions_test_new.xlsx,stimuli.xlsx,stimuli_new.xlsx,stimuli/Social1.png,stimuli/Social2.png,stimuli/Nonsocial1.png,stimuli/Nonsocial2.png,stimuli/Social3.png,stimuli/Social4.png,stimuli/Nonsocial3.png,stimuli/Nonsocial4.png,cs_pos_s,"(0.7, -0.5)",,,,,,,,,0,0,0,0,,,,,,,,,0,9,9,7,,,,,,,,,,,,,,,,,,,,,,,,,,,,,,,,,,,,,,379.4557866999821,0,reward,1,0.5767180999973789,0.5767218999972101,380.0390515999752,,,,,,,,,,,,,,,,,,,,,,39,A,2024-05-17_12h14.20.030,attentional_competition_task,2022.2.4,144.06544030759147,
positions.xlsx,positions_test.xlsx,positions_test_new.xlsx,stimuli.xlsx,stimuli_new.xlsx,stimuli/Social1.png,stimuli/Social2.png,stimuli/Nonsocial1.png,stimuli/Nonsocial2.png,stimuli/Social3.png,stimuli/Social4.png,stimuli/Nonsocial3.png,stimuli/Nonsocial4.png,cs_pos_ns,"(-0.7, -0.5)",,,,,,,,,0,0,0,0,,,,,,,,,0,10,10,13,,,,,,,,,,,,,,,,,,,,,,,,,,,,,,,,,,,,,,387.19154010000057,3,reward,1,1.1044456000090577,1.1044626999937464,388.3026287999819,,,,,,,,,,,,,,,,,,,,,,39,A,2024-05-17_12h14.20.030,attentional_competition_task,2022.2.4,144.06544030759147,
positions.xlsx,positions_test.xlsx,positions_test_new.xlsx,stimuli.xlsx,stimuli_new.xlsx,stimuli/Social1.png,stimuli/Social2.png,stimuli/Nonsocial1.png,stimuli/Nonsocial2.png,stimuli/Social3.png,stimuli/Social4.png,stimuli/Nonsocial3.png,stimuli/Nonsocial4.png,cs_neg_s,"(0.7, -0.5)",,,,,,,,,0,0,0,0,,,,,,,,,0,11,11,3,,,,,,,,,,,,,,,,,,,,,,,,,,,,,,,,,,,,,,396.1217583999969,3,none,0,,,399.1285613999935,,,,,,,,,,,,,,,,,,,,,,39,A,2024-05-17_12h14.20.030,attentional_competition_task,2022.2.4,144.06544030759147,
positions.xlsx,positions_test.xlsx,positions_test_new.xlsx,stimuli.xlsx,stimuli_new.xlsx,stimuli/Social1.png,stimuli/Social2.png,stimuli/Nonsocial1.png,stimuli/Nonsocial2.png,stimuli/Social3.png,stimuli/Social4.png,stimuli/Nonsocial3.png,stimuli/Nonsocial4.png,cs_pos_ns,"(0.7, -0.5)",,,,,,,,,0,0,0,0,,,,,,,,,0,12,12,15,,,,,,,,,,,,,,,,,,,,,,,,,,,,,,,,,,,,,,406.3504939999839,6,reward,1,1.645765699999174,1.6526717999950051,408.01711439999053,,,,,,,,,,,,,,,,,,,,,,39,A,2024-05-17_12h14.20.030,attentional_competition_task,2022.2.4,144.06544030759147,
positions.xlsx,positions_test.xlsx,positions_test_new.xlsx,stimuli.xlsx,stimuli_new.xlsx,stimuli/Social1.png,stimuli/Social2.png,stimuli/Nonsocial1.png,stimuli/Nonsocial2.png,stimuli/Social3.png,stimuli/Social4.png,stimuli/Nonsocial3.png,stimuli/Nonsocial4.png,cs_neg_s,"(-0.7, 0.5)",,,,,,,,,0,0,0,0,,,,,,,,,0,13,13,0,,,,,,,,,,,,,,,,,,,,,,,,,,,,,,,,,,,,,,415.19742099998984,6,none,0,,,418.20420709997416,,,,,,,,,,,,,,,,,,,,,,39,A,2024-05-17_12h14.20.030,attentional_competition_task,2022.2.4,144.06544030759147,
positions.xlsx,positions_test.xlsx,positions_test_new.xlsx,stimuli.xlsx,stimuli_new.xlsx,stimuli/Social1.png,stimuli/Social2.png,stimuli/Nonsocial1.png,stimuli/Nonsocial2.png,stimuli/Social3.png,stimuli/Social4.png,stimuli/Nonsocial3.png,stimuli/Nonsocial4.png,cs_pos_s,"(0.7, 0.5)",,,,,,,,,0,0,0,0,,,,,,,,,0,14,14,6,,,,,,,,,,,,,,,,,,,,,,,,,,,,,,,,,,,,,,425.50251339998795,9,reward,1,0.5625307000009343,0.5625345000007655,426.0719310999848,,,,,,,,,,,,,,,,,,,,,,39,A,2024-05-17_12h14.20.030,attentional_competition_task,2022.2.4,144.06544030759147,
positions.xlsx,positions_test.xlsx,positions_test_new.xlsx,stimuli.xlsx,stimuli_new.xlsx,stimuli/Social1.png,stimuli/Social2.png,stimuli/Nonsocial1.png,stimuli/Nonsocial2.png,stimuli/Social3.png,stimuli/Social4.png,stimuli/Nonsocial3.png,stimuli/Nonsocial4.png,cs_neg_s,"(0.7, 0.5)",,,,,,,,,0,0,0,0,,,,,,,,,0,15,15,2,,,,,,,,,,,,,,,,,,,,,,,,,,,,,,,,,,,,,,433.4675270000007,9,none,0,,,436.47429489999195,,,,,,,,,,,,,,,,,,,,,,39,A,2024-05-17_12h14.20.030,attentional_competition_task,2022.2.4,144.06544030759147,
positions.xlsx,positions_test.xlsx,positions_test_new.xlsx,stimuli.xlsx,stimuli_new.xlsx,stimuli/Social1.png,stimuli/Social2.png,stimuli/Nonsocial1.png,stimuli/Nonsocial2.png,stimuli/Social3.png,stimuli/Social4.png,stimuli/Nonsocial3.png,stimuli/Nonsocial4.png,cs_neg_s,"(-0.7, 0.5)",,,,,,,,,0,0,0,0,,,,,,,,,1,0,16,0,,,,,,,,,,,,,,,,,,,,,,,,,,,,,,,,,,,,,,444.1545865999942,9,none,0,,,447.1613926999853,,,,,,,,,,,,,,,,,,,,,,39,A,2024-05-17_12h14.20.030,attentional_competition_task,2022.2.4,144.06544030759147,
positions.xlsx,positions_test.xlsx,positions_test_new.xlsx,stimuli.xlsx,stimuli_new.xlsx,stimuli/Social1.png,stimuli/Social2.png,stimuli/Nonsocial1.png,stimuli/Nonsocial2.png,stimuli/Social3.png,stimuli/Social4.png,stimuli/Nonsocial3.png,stimuli/Nonsocial4.png,cs_pos_s,"(0.7, 0.5)",,,,,,,,,0,0,0,0,,,,,,,,,1,1,17,6,,,,,,,,,,,,,,,,,,,,,,,,,,,,,,,,,,,,,,454.39717399998335,12,reward,1,0.6325958000088576,0.6325995000079274,455.0360619999992,,,,,,,,,,,,,,,,,,,,,,39,A,2024-05-17_12h14.20.030,attentional_competition_task,2022.2.4,144.06544030759147,
positions.xlsx,positions_test.xlsx,positions_test_new.xlsx,stimuli.xlsx,stimuli_new.xlsx,stimuli/Social1.png,stimuli/Social2.png,stimuli/Nonsocial1.png,stimuli/Nonsocial2.png,stimuli/Social3.png,stimuli/Social4.png,stimuli/Nonsocial3.png,stimuli/Nonsocial4.png,cs_pos_s,"(0.7, -0.5)",,,,,,,,,0,0,0,0,,,,,,,,,1,2,18,7,,,,,,,,,,,,,,,,,,,,,,,,,,,,,,,,,,,,,,462.9385265999881,15,reward,1,0.5279472999973223,0.527951199997915,463.4732182000007,,,,,,,,,,,,,,,,,,,,,,39,A,2024-05-17_12h14.20.030,attentional_competition_task,2022.2.4,144.06544030759147,
positions.xlsx,positions_test.xlsx,positions_test_new.xlsx,stimuli.xlsx,stimuli_new.xlsx,stimuli/Social1.png,stimuli/Social2.png,stimuli/Nonsocial1.png,stimuli/Nonsocial2.png,stimuli/Social3.png,stimuli/Social4.png,stimuli/Nonsocial3.png,stimuli/Nonsocial4.png,cs_pos_ns,"(0.7, -0.5)",,,,,,,,,0,0,0,0,,,,,,,,,1,3,19,15,,,,,,,,,,,,,,,,,,,,,,,,,,,,,,,,,,,,,,470.91045109997503,18,reward,1,0.7503108000091743,0.7503145000082441,471.6673697999795,,,,,,,,,,,,,,,,,,,,,,39,A,2024-05-17_12h14.20.030,attentional_competition_task,2022.2.4,144.06544030759147,
positions.xlsx,positions_test.xlsx,positions_test_new.xlsx,stimuli.xlsx,stimuli_new.xlsx,stimuli/Social1.png,stimuli/Social2.png,stimuli/Nonsocial1.png,stimuli/Nonsocial2.png,stimuli/Social3.png,stimuli/Social4.png,stimuli/Nonsocial3.png,stimuli/Nonsocial4.png,cs_neg_s,"(-0.7, -0.5)",,,,,,,,,0,0,0,0,,,,,,,,,1,4,20,1,,,,,,,,,,,,,,,,,,,,,,,,,,,,,,,,,,,,,,479.2989656999998,18,none,0,,,482.3058498999744,,,,,,,,,,,,,,,,,,,,,,39,A,2024-05-17_12h14.20.030,attentional_competition_task,2022.2.4,144.06544030759147,
positions.xlsx,positions_test.xlsx,positions_test_new.xlsx,stimuli.xlsx,stimuli_new.xlsx,stimuli/Social1.png,stimuli/Social2.png,stimuli/Nonsocial1.png,stimuli/Nonsocial2.png,stimuli/Social3.png,stimuli/Social4.png,stimuli/Nonsocial3.png,stimuli/Nonsocial4.png,cs_pos_s,"(-0.7, 0.5)",,,,,,,,,0,0,0,0,,,,,,,,,1,5,21,4,,,,,,,,,,,,,,,,,,,,,,,,,,,,,,,,,,,,,,490.0346995999862,21,reward,1,0.6809239000140224,0.6879501999937929,490.7291535999975,,,,,,,,,,,,,,,,,,,,,,39,A,2024-05-17_12h14.20.030,attentional_competition_task,2022.2.4,144.06544030759147,
positions.xlsx,positions_test.xlsx,positions_test_new.xlsx,stimuli.xlsx,stimuli_new.xlsx,stimuli/Social1.png,stimuli/Social2.png,stimuli/Nonsocial1.png,stimuli/Nonsocial2.png,stimuli/Social3.png,stimuli/Social4.png,stimuli/Nonsocial3.png,stimuli/Nonsocial4.png,cs_pos_ns,"(0.7, 0.5)",,,,,,,,,0,0,0,0,,,,,,,,,1,6,22,14,,,,,,,,,,,,,,,,,,,,,,,,,,,,,,,,,,,,,,498.29132179997396,24,reward,1,0.5975689000042621,0.5975727000040933,498.8954367999977,,,,,,,,,,,,,,,,,,,,,,39,A,2024-05-17_12h14.20.030,attentional_competition_task,2022.2.4,144.06544030759147,
positions.xlsx,positions_test.xlsx,positions_test_new.xlsx,stimuli.xlsx,stimuli_new.xlsx,stimuli/Social1.png,stimuli/Social2.png,stimuli/Nonsocial1.png,stimuli/Nonsocial2.png,stimuli/Social3.png,stimuli/Social4.png,stimuli/Nonsocial3.png,stimuli/Nonsocial4.png,cs_pos_ns,"(-0.7, 0.5)",,,,,,,,,0,0,0,0,,,,,,,,,1,7,23,12,,,,,,,,,,,,,,,,,,,,,,,,,,,,,,,,,,,,,,506.36736279999604,27,reward,1,0.5142478999914601,0.514251399989007,506.88825079999515,,,,,,,,,,,,,,,,,,,,,,39,A,2024-05-17_12h14.20.030,attentional_competition_task,2022.2.4,144.06544030759147,
positions.xlsx,positions_test.xlsx,positions_test_new.xlsx,stimuli.xlsx,stimuli_new.xlsx,stimuli/Social1.png,stimuli/Social2.png,stimuli/Nonsocial1.png,stimuli/Nonsocial2.png,stimuli/Social3.png,stimuli/Social4.png,stimuli/Nonsocial3.png,stimuli/Nonsocial4.png,cs_neg_s,"(0.7, 0.5)",,,,,,,,,0,0,0,0,,,,,,,,,1,8,24,2,,,,,,,,,,,,,,,,,,,,,,,,,,,,,,,,,,,,,,514.3114776999864,27,none,0,,,517.3252987999876,,,,,,,,,,,,,,,,,,,,,,39,A,2024-05-17_12h14.20.030,attentional_competition_task,2022.2.4,144.06544030759147,
positions.xlsx,positions_test.xlsx,positions_test_new.xlsx,stimuli.xlsx,stimuli_new.xlsx,stimuli/Social1.png,stimuli/Social2.png,stimuli/Nonsocial1.png,stimuli/Nonsocial2.png,stimuli/Social3.png,stimuli/Social4.png,stimuli/Nonsocial3.png,stimuli/Nonsocial4.png,cs_neg_ns,"(-0.7, 0.5)",,,,,,,,,0,0,0,0,,,,,,,,,1,9,25,8,,,,,,,,,,,,,,,,,,,,,,,,,,,,,,,,,,,,,,524.1722054999846,27,none,0,,,527.1790670999908,,,,,,,,,,,,,,,,,,,,,,39,A,2024-05-17_12h14.20.030,attentional_competition_task,2022.2.4,144.06544030759147,
positions.xlsx,positions_test.xlsx,positions_test_new.xlsx,stimuli.xlsx,stimuli_new.xlsx,stimuli/Social1.png,stimuli/Social2.png,stimuli/Nonsocial1.png,stimuli/Nonsocial2.png,stimuli/Social3.png,stimuli/Social4.png,stimuli/Nonsocial3.png,stimuli/Nonsocial4.png,cs_pos_s,"(-0.7, -0.5)",,,,,,,,,0,0,0,0,,,,,,,,,1,10,26,5,,,,,,,,,,,,,,,,,,,,,,,,,,,,,,,,,,,,,,534.6509904999984,30,reward,1,0.49292039999272674,0.4929239999910351,535.1509395999892,,,,,,,,,,,,,,,,,,,,,,39,A,2024-05-17_12h14.20.030,attentional_competition_task,2022.2.4,144.06544030759147,
positions.xlsx,positions_test.xlsx,positions_test_new.xlsx,stimuli.xlsx,stimuli_new.xlsx,stimuli/Social1.png,stimuli/Social2.png,stimuli/Nonsocial1.png,stimuli/Nonsocial2.png,stimuli/Social3.png,stimuli/Social4.png,stimuli/Nonsocial3.png,stimuli/Nonsocial4.png,cs_neg_ns,"(0.7, -0.5)",,,,,,,,,0,0,0,0,,,,,,,,,1,11,27,11,,,,,,,,,,,,,,,,,,,,,,,,,,,,,,,,,,,,,,542.546506499988,27,loss,1,0.39634389997809194,0.3963474999764003,542.9492687999737,,,,,,,,,,,,,,,,,,,,,,39,A,2024-05-17_12h14.20.030,attentional_competition_task,2022.2.4,144.06544030759147,
positions.xlsx,positions_test.xlsx,positions_test_new.xlsx,stimuli.xlsx,stimuli_new.xlsx,stimuli/Social1.png,stimuli/Social2.png,stimuli/Nonsocial1.png,stimuli/Nonsocial2.png,stimuli/Social3.png,stimuli/Social4.png,stimuli/Nonsocial3.png,stimuli/Nonsocial4.png,cs_neg_ns,"(0.7, 0.5)",,,,,,,,,0,0,0,0,,,,,,,,,1,12,28,10,,,,,,,,,,,,,,,,,,,,,,,,,,,,,,,,,,,,,,550.7197829999786,27,none,0,,,553.7335488999961,,,,,,,,,,,,,,,,,,,,,,39,A,2024-05-17_12h14.20.030,attentional_competition_task,2022.2.4,144.06544030759147,
positions.xlsx,positions_test.xlsx,positions_test_new.xlsx,stimuli.xlsx,stimuli_new.xlsx,stimuli/Social1.png,stimuli/Social2.png,stimuli/Nonsocial1.png,stimuli/Nonsocial2.png,stimuli/Social3.png,stimuli/Social4.png,stimuli/Nonsocial3.png,stimuli/Nonsocial4.png,cs_pos_ns,"(-0.7, -0.5)",,,,,,,,,0,0,0,0,,,,,,,,,1,13,29,13,,,,,,,,,,,,,,,,,,,,,,,,,,,,,,,,,,,,,,560.9554981999972,30,reward,1,0.8407513000129256,0.8407548000104725,561.8026557999838,,,,,,,,,,,,,,,,,,,,,,39,A,2024-05-17_12h14.20.030,attentional_competition_task,2022.2.4,144.06544030759147,
positions.xlsx,positions_test.xlsx,positions_test_new.xlsx,stimuli.xlsx,stimuli_new.xlsx,stimuli/Social1.png,stimuli/Social2.png,stimuli/Nonsocial1.png,stimuli/Nonsocial2.png,stimuli/Social3.png,stimuli/Social4.png,stimuli/Nonsocial3.png,stimuli/Nonsocial4.png,cs_neg_ns,"(-0.7, -0.5)",,,,,,,,,0,0,0,0,,,,,,,,,1,14,30,9,,,,,,,,,,,,,,,,,,,,,,,,,,,,,,,,,,,,,,569.2121140999952,30,none,0,,,572.2259070999862,,,,,,,,,,,,,,,,,,,,,,39,A,2024-05-17_12h14.20.030,attentional_competition_task,2022.2.4,144.06544030759147,
positions.xlsx,positions_test.xlsx,positions_test_new.xlsx,stimuli.xlsx,stimuli_new.xlsx,stimuli/Social1.png,stimuli/Social2.png,stimuli/Nonsocial1.png,stimuli/Nonsocial2.png,stimuli/Social3.png,stimuli/Social4.png,stimuli/Nonsocial3.png,stimuli/Nonsocial4.png,cs_neg_s,"(0.7, -0.5)",,,,,,,,,0,0,0,0,,,,,,,,,1,15,31,3,,,,,,,,,,,,,,,,,,,,,,,,,,,,,,,,,,,,,,579.7533569999796,30,none,0,,,582.7601967999944,,,,,,,,,,,,,,,,,,,,,,39,A,2024-05-17_12h14.20.030,attentional_competition_task,2022.2.4,144.06544030759147,
positions.xlsx,positions_test.xlsx,positions_test_new.xlsx,stimuli.xlsx,stimuli_new.xlsx,stimuli/Social1.png,stimuli/Social2.png,stimuli/Nonsocial1.png,stimuli/Nonsocial2.png,stimuli/Social3.png,stimuli/Social4.png,stimuli/Nonsocial3.png,stimuli/Nonsocial4.png,cs_pos_ns,"(0.7, 0.5)",,,,,,,,,0,0,0,0,,,,,,,,,,,,,0,0,0,14,,,,,,,,,,,,,,,,,,,,,,,,,,,,,,,,,,615.439452999999,33,reward,1,0.6319753999996465,0.6319788999971934,616.0783179999853,,,,,,,,,,,,,,,,,,,,,,39,A,2024-05-17_12h14.20.030,attentional_competition_task,2022.2.4,144.06544030759147,
positions.xlsx,positions_test.xlsx,positions_test_new.xlsx,stimuli.xlsx,stimuli_new.xlsx,stimuli/Social1.png,stimuli/Social2.png,stimuli/Nonsocial1.png,stimuli/Nonsocial2.png,stimuli/Social3.png,stimuli/Social4.png,stimuli/Nonsocial3.png,stimuli/Nonsocial4.png,cs_neg_ns,"(0.7, 0.5)",,,,,,,,,0,0,0,0,,,,,,,,,,,,,0,1,1,10,,,,,,,,,,,,,,,,,,,,,,,,,,,,,,,,,,623.126654599997,33,none,0,,,626.1404039999761,,,,,,,,,,,,,,,,,,,,,,39,A,2024-05-17_12h14.20.030,attentional_competition_task,2022.2.4,144.06544030759147,
positions.xlsx,positions_test.xlsx,positions_test_new.xlsx,stimuli.xlsx,stimuli_new.xlsx,stimuli/Social1.png,stimuli/Social2.png,stimuli/Nonsocial1.png,stimuli/Nonsocial2.png,stimuli/Social3.png,stimuli/Social4.png,stimuli/Nonsocial3.png,stimuli/Nonsocial4.png,cs_neg_s,"(-0.7, -0.5)",,,,,,,,,0,0,0,0,,,,,,,,,,,,,0,2,2,1,,,,,,,,,,,,,,,,,,,,,,,,,,,,,,,,,,634.2650858999987,33,none,0,,,637.2718967999972,,,,,,,,,,,,,,,,,,,,,,39,A,2024-05-17_12h14.20.030,attentional_competition_task,2022.2.4,144.06544030759147,
positions.xlsx,positions_test.xlsx,positions_test_new.xlsx,stimuli.xlsx,stimuli_new.xlsx,stimuli/Social1.png,stimuli/Social2.png,stimuli/Nonsocial1.png,stimuli/Nonsocial2.png,stimuli/Social3.png,stimuli/Social4.png,stimuli/Nonsocial3.png,stimuli/Nonsocial4.png,cs_neg_ns,"(0.7, -0.5)",,,,,,,,,0,0,0,0,,,,,,,,,,,,,0,3,3,11,,,,,,,,,,,,,,,,,,,,,,,,,,,,,,,,,,644.7924661999859,33,none,0,,,647.8062019999779,,,,,,,,,,,,,,,,,,,,,,39,A,2024-05-17_12h14.20.030,attentional_competition_task,2022.2.4,144.06544030759147,
positions.xlsx,positions_test.xlsx,positions_test_new.xlsx,stimuli.xlsx,stimuli_new.xlsx,stimuli/Social1.png,stimuli/Social2.png,stimuli/Nonsocial1.png,stimuli/Nonsocial2.png,stimuli/Social3.png,stimuli/Social4.png,stimuli/Nonsocial3.png,stimuli/Nonsocial4.png,cs_pos_ns,"(-0.7, -0.5)",,,,,,,,,0,0,0,0,,,,,,,,,,,,,0,4,4,13,,,,,,,,,,,,,,,,,,,,,,,,,,,,,,,,,,655.1392645999731,36,reward,1,0.5765110999927856,0.5765147999918554,655.7226226999774,,,,,,,,,,,,,,,,,,,,,,39,A,2024-05-17_12h14.20.030,attentional_competition_task,2022.2.4,144.06544030759147,
positions.xlsx,positions_test.xlsx,positions_test_new.xlsx,stimuli.xlsx,stimuli_new.xlsx,stimuli/Social1.png,stimuli/Social2.png,stimuli/Nonsocial1.png,stimuli/Nonsocial2.png,stimuli/Social3.png,stimuli/Social4.png,stimuli/Nonsocial3.png,stimuli/Nonsocial4.png,cs_pos_s,"(0.7, -0.5)",,,,,,,,,0,0,0,0,,,,,,,,,,,,,0,5,5,7,,,,,,,,,,,,,,,,,,,,,,,,,,,,,,,,,,663.2917336999963,39,reward,1,0.7292501000047196,0.7292537000030279,664.027818099974,,,,,,,,,,,,,,,,,,,,,,39,A,2024-05-17_12h14.20.030,attentional_competition_task,2022.2.4,144.06544030759147,
positions.xlsx,positions_test.xlsx,positions_test_new.xlsx,stimuli.xlsx,stimuli_new.xlsx,stimuli/Social1.png,stimuli/Social2.png,stimuli/Nonsocial1.png,stimuli/Nonsocial2.png,stimuli/Social3.png,stimuli/Social4.png,stimuli/Nonsocial3.png,stimuli/Nonsocial4.png,cs_pos_s,"(-0.7, -0.5)",,,,,,,,,0,0,0,0,,,,,,,,,,,,,0,6,6,5,,,,,,,,,,,,,,,,,,,,,,,,,,,,,,,,,,671.8052836999996,42,reward,1,0.5699769000057131,0.5699808000063058,672.3816634999821,,,,,,,,,,,,,,,,,,,,,,39,A,2024-05-17_12h14.20.030,attentional_competition_task,2022.2.4,144.06544030759147,
positions.xlsx,positions_test.xlsx,positions_test_new.xlsx,stimuli.xlsx,stimuli_new.xlsx,stimuli/Social1.png,stimuli/Social2.png,stimuli/Nonsocial1.png,stimuli/Nonsocial2.png,stimuli/Social3.png,stimuli/Social4.png,stimuli/Nonsocial3.png,stimuli/Nonsocial4.png,cs_pos_s,"(0.7, 0.5)",,,,,,,,,0,0,0,0,,,,,,,,,,,,,0,7,7,6,,,,,,,,,,,,,,,,,,,,,,,,,,,,,,,,,,679.3327679999929,45,reward,1,0.5485655999800656,0.5485693999798968,679.8883354999998,,,,,,,,,,,,,,,,,,,,,,39,A,2024-05-17_12h14.20.030,attentional_competition_task,2022.2.4,144.06544030759147,
positions.xlsx,positions_test.xlsx,positions_test_new.xlsx,stimuli.xlsx,stimuli_new.xlsx,stimuli/Social1.png,stimuli/Social2.png,stimuli/Nonsocial1.png,stimuli/Nonsocial2.png,stimuli/Social3.png,stimuli/Social4.png,stimuli/Nonsocial3.png,stimuli/Nonsocial4.png,cs_neg_s,"(0.7, -0.5)",,,,,,,,,0,0,0,0,,,,,,,,,,,,,0,8,8,3,,,,,,,,,,,,,,,,,,,,,,,,,,,,,,,,,,687.2768641999864,45,none,0,,,690.2906728999806,,,,,,,,,,,,,,,,,,,,,,39,A,2024-05-17_12h14.20.030,attentional_competition_task,2022.2.4,144.06544030759147,
positions.xlsx,positions_test.xlsx,positions_test_new.xlsx,stimuli.xlsx,stimuli_new.xlsx,stimuli/Social1.png,stimuli/Social2.png,stimuli/Nonsocial1.png,stimuli/Nonsocial2.png,stimuli/Social3.png,stimuli/Social4.png,stimuli/Nonsocial3.png,stimuli/Nonsocial4.png,cs_pos_ns,"(-0.7, 0.5)",,,,,,,,,0,0,0,0,,,,,,,,,,,,,0,9,9,12,,,,,,,,,,,,,,,,,,,,,,,,,,,,,,,,,,697.6236968999729,48,reward,1,0.5626256999967154,0.5626292999950238,698.1931141999958,,,,,,,,,,,,,,,,,,,,,,39,A,2024-05-17_12h14.20.030,attentional_competition_task,2022.2.4,144.06544030759147,
positions.xlsx,positions_test.xlsx,positions_test_new.xlsx,stimuli.xlsx,stimuli_new.xlsx,stimuli/Social1.png,stimuli/Social2.png,stimuli/Nonsocial1.png,stimuli/Nonsocial2.png,stimuli/Social3.png,stimuli/Social4.png,stimuli/Nonsocial3.png,stimuli/Nonsocial4.png,cs_neg_s,"(0.7, 0.5)",,,,,,,,,0,0,0,0,,,,,,,,,,,,,0,10,10,2,,,,,,,,,,,,,,,,,,,,,,,,,,,,,,,,,,705.3733781999908,48,none,0,,,708.3802206999972,,,,,,,,,,,,,,,,,,,,,,39,A,2024-05-17_12h14.20.030,attentional_competition_task,2022.2.4,144.06544030759147,
positions.xlsx,positions_test.xlsx,positions_test_new.xlsx,stimuli.xlsx,stimuli_new.xlsx,stimuli/Social1.png,stimuli/Social2.png,stimuli/Nonsocial1.png,stimuli/Nonsocial2.png,stimuli/Social3.png,stimuli/Social4.png,stimuli/Nonsocial3.png,stimuli/Nonsocial4.png,cs_neg_ns,"(-0.7, 0.5)",,,,,,,,,0,0,0,0,,,,,,,,,,,,,0,11,11,8,,,,,,,,,,,,,,,,,,,,,,,,,,,,,,,,,,715.3452367999998,45,loss,1,0.5072152999928221,0.507218799990369,715.859125899995,,,,,,,,,,,,,,,,,,,,,,39,A,2024-05-17_12h14.20.030,attentional_competition_task,2022.2.4,144.06544030759147,
positions.xlsx,positions_test.xlsx,positions_test_new.xlsx,stimuli.xlsx,stimuli_new.xlsx,stimuli/Social1.png,stimuli/Social2.png,stimuli/Nonsocial1.png,stimuli/Nonsocial2.png,stimuli/Social3.png,stimuli/Social4.png,stimuli/Nonsocial3.png,stimuli/Nonsocial4.png,cs_pos_ns,"(0.7, -0.5)",,,,,,,,,0,0,0,0,,,,,,,,,,,,,0,12,12,15,,,,,,,,,,,,,,,,,,,,,,,,,,,,,,,,,,723.428242199996,48,reward,1,0.7707800999924075,0.7707839999930002,724.2059561999922,,,,,,,,,,,,,,,,,,,,,,39,A,2024-05-17_12h14.20.030,attentional_competition_task,2022.2.4,144.06544030759147,
positions.xlsx,positions_test.xlsx,positions_test_new.xlsx,stimuli.xlsx,stimuli_new.xlsx,stimuli/Social1.png,stimuli/Social2.png,stimuli/Nonsocial1.png,stimuli/Nonsocial2.png,stimuli/Social3.png,stimuli/Social4.png,stimuli/Nonsocial3.png,stimuli/Nonsocial4.png,cs_neg_s,"(-0.7, 0.5)",,,,,,,,,0,0,0,0,,,,,,,,,,,,,0,13,13,0,,,,,,,,,,,,,,,,,,,,,,,,,,,,,,,,,,731.212604499975,48,none,0,,,734.2264259999793,,,,,,,,,,,,,,,,,,,,,,39,A,2024-05-17_12h14.20.030,attentional_competition_task,2022.2.4,144.06544030759147,
positions.xlsx,positions_test.xlsx,positions_test_new.xlsx,stimuli.xlsx,stimuli_new.xlsx,stimuli/Social1.png,stimuli/Social2.png,stimuli/Nonsocial1.png,stimuli/Nonsocial2.png,stimuli/Social3.png,stimuli/Social4.png,stimuli/Nonsocial3.png,stimuli/Nonsocial4.png,cs_pos_s,"(-0.7, 0.5)",,,,,,,,,0,0,0,0,,,,,,,,,,,,,0,14,14,4,,,,,,,,,,,,,,,,,,,,,,,,,,,,,,,,,,741.7677701999783,51,reward,1,0.6042368999915197,0.6042405999905895,742.3789452999772,,,,,,,,,,,,,,,,,,,,,,39,A,2024-05-17_12h14.20.030,attentional_competition_task,2022.2.4,144.06544030759147,
positions.xlsx,positions_test.xlsx,positions_test_new.xlsx,stimuli.xlsx,stimuli_new.xlsx,stimuli/Social1.png,stimuli/Social2.png,stimuli/Nonsocial1.png,stimuli/Nonsocial2.png,stimuli/Social3.png,stimuli/Social4.png,stimuli/Nonsocial3.png,stimuli/Nonsocial4.png,cs_neg_ns,"(-0.7, -0.5)",,,,,,,,,0,0,0,0,,,,,,,,,,,,,0,15,15,9,,,,,,,,,,,,,,,,,,,,,,,,,,,,,,,,,,749.6424540999869,51,none,0,,,752.6562195000006,,,,,,,,,,,,,,,,,,,,,,39,A,2024-05-17_12h14.20.030,attentional_competition_task,2022.2.4,144.06544030759147,
positions.xlsx,positions_test.xlsx,positions_test_new.xlsx,stimuli.xlsx,stimuli_new.xlsx,stimuli/Social1.png,stimuli/Social2.png,stimuli/Nonsocial1.png,stimuli/Nonsocial2.png,stimuli/Social3.png,stimuli/Social4.png,stimuli/Nonsocial3.png,stimuli/Nonsocial4.png,cs_pos_s,"(-0.7, 0.5)",,,,,,,,,0,0,0,0,,,,,,,,,,,,,1,0,16,4,,,,,,,,,,,,,,,,,,,,,,,,,,,,,,,,,,760.2809500999865,54,reward,1,0.5144658000208437,0.514469600020675,760.8017552999954,,,,,,,,,,,,,,,,,,,,,,39,A,2024-05-17_12h14.20.030,attentional_competition_task,2022.2.4,144.06544030759147,
positions.xlsx,positions_test.xlsx,positions_test_new.xlsx,stimuli.xlsx,stimuli_new.xlsx,stimuli/Social1.png,stimuli/Social2.png,stimuli/Nonsocial1.png,stimuli/Nonsocial2.png,stimuli/Social3.png,stimuli/Social4.png,stimuli/Nonsocial3.png,stimuli/Nonsocial4.png,cs_pos_s,"(-0.7, -0.5)",,,,,,,,,0,0,0,0,,,,,,,,,,,,,1,1,17,5,,,,,,,,,,,,,,,,,,,,,,,,,,,,,,,,,,768.988898599986,57,reward,1,0.50042399999802,0.5004275000246707,769.4958328999928,,,,,,,,,,,,,,,,,,,,,,39,A,2024-05-17_12h14.20.030,attentional_competition_task,2022.2.4,144.06544030759147,
positions.xlsx,positions_test.xlsx,positions_test_new.xlsx,stimuli.xlsx,stimuli_new.xlsx,stimuli/Social1.png,stimuli/Social2.png,stimuli/Nonsocial1.png,stimuli/Nonsocial2.png,stimuli/Social3.png,stimuli/Social4.png,stimuli/Nonsocial3.png,stimuli/Nonsocial4.png,cs_neg_s,"(-0.7, 0.5)",,,,,,,,,0,0,0,0,,,,,,,,,,,,,1,2,18,0,,,,,,,,,,,,,,,,,,,,,,,,,,,,,,,,,,776.3705300999864,57,none,0,,,779.3843797999725,,,,,,,,,,,,,,,,,,,,,,39,A,2024-05-17_12h14.20.030,attentional_competition_task,2022.2.4,144.06544030759147,
positions.xlsx,positions_test.xlsx,positions_test_new.xlsx,stimuli.xlsx,stimuli_new.xlsx,stimuli/Social1.png,stimuli/Social2.png,stimuli/Nonsocial1.png,stimuli/Nonsocial2.png,stimuli/Social3.png,stimuli/Social4.png,stimuli/Nonsocial3.png,stimuli/Nonsocial4.png,cs_neg_ns,"(0.7, -0.5)",,,,,,,,,0,0,0,0,,,,,,,,,,,,,1,3,19,11,,,,,,,,,,,,,,,,,,,,,,,,,,,,,,,,,,786.7729449999752,57,none,0,,,789.7797737999936,,,,,,,,,,,,,,,,,,,,,,39,A,2024-05-17_12h14.20.030,attentional_competition_task,2022.2.4,144.06544030759147,
positions.xlsx,positions_test.xlsx,positions_test_new.xlsx,stimuli.xlsx,stimuli_new.xlsx,stimuli/Social1.png,stimuli/Social2.png,stimuli/Nonsocial1.png,stimuli/Nonsocial2.png,stimuli/Social3.png,stimuli/Social4.png,stimuli/Nonsocial3.png,stimuli/Nonsocial4.png,cs_neg_ns,"(0.7, 0.5)",,,,,,,,,0,0,0,0,,,,,,,,,,,,,1,4,20,10,,,,,,,,,,,,,,,,,,,,,,,,,,,,,,,,,,797.0225426999968,57,none,0,,,800.0363027999992,,,,,,,,,,,,,,,,,,,,,,39,A,2024-05-17_12h14.20.030,attentional_competition_task,2022.2.4,144.06544030759147,
positions.xlsx,positions_test.xlsx,positions_test_new.xlsx,stimuli.xlsx,stimuli_new.xlsx,stimuli/Social1.png,stimuli/Social2.png,stimuli/Nonsocial1.png,stimuli/Nonsocial2.png,stimuli/Social3.png,stimuli/Social4.png,stimuli/Nonsocial3.png,stimuli/Nonsocial4.png,cs_neg_s,"(0.7, -0.5)",,,,,,,,,0,0,0,0,,,,,,,,,,,,,1,5,21,3,,,,,,,,,,,,,,,,,,,,,,,,,,,,,,,,,,807.9804678999935,57,none,0,,,810.987263899995,,,,,,,,,,,,,,,,,,,,,,39,A,2024-05-17_12h14.20.030,attentional_competition_task,2022.2.4,144.06544030759147,
positions.xlsx,positions_test.xlsx,positions_test_new.xlsx,stimuli.xlsx,stimuli_new.xlsx,stimuli/Social1.png,stimuli/Social2.png,stimuli/Nonsocial1.png,stimuli/Nonsocial2.png,stimuli/Social3.png,stimuli/Social4.png,stimuli/Nonsocial3.png,stimuli/Nonsocial4.png,cs_pos_s,"(0.7, 0.5)",,,,,,,,,0,0,0,0,,,,,,,,,,,,,1,6,22,6,,,,,,,,,,,,,,,,,,,,,,,,,,,,,,,,,,818.000850899989,60,reward,1,0.4516220999939833,0.45162589999381453,818.4591906999995,,,,,,,,,,,,,,,,,,,,,,39,A,2024-05-17_12h14.20.030,attentional_competition_task,2022.2.4,144.06544030759147,
positions.xlsx,positions_test.xlsx,positions_test_new.xlsx,stimuli.xlsx,stimuli_new.xlsx,stimuli/Social1.png,stimuli/Social2.png,stimuli/Nonsocial1.png,stimuli/Nonsocial2.png,stimuli/Social3.png,stimuli/Social4.png,stimuli/Nonsocial3.png,stimuli/Nonsocial4.png,cs_neg_s,"(-0.7, -0.5)",,,,,,,,,0,0,0,0,,,,,,,,,,,,,1,7,23,1,,,,,,,,,,,,,,,,,,,,,,,,,,,,,,,,,,826.264412199991,60,none,0,,,829.2782537999738,,,,,,,,,,,,,,,,,,,,,,39,A,2024-05-17_12h14.20.030,attentional_competition_task,2022.2.4,144.06544030759147,
positions.xlsx,positions_test.xlsx,positions_test_new.xlsx,stimuli.xlsx,stimuli_new.xlsx,stimuli/Social1.png,stimuli/Social2.png,stimuli/Nonsocial1.png,stimuli/Nonsocial2.png,stimuli/Social3.png,stimuli/Social4.png,stimuli/Nonsocial3.png,stimuli/Nonsocial4.png,cs_neg_ns,"(-0.7, -0.5)",,,,,,,,,0,0,0,0,,,,,,,,,,,,,1,8,24,9,,,,,,,,,,,,,,,,,,,,,,,,,,,,,,,,,,836.9931557999807,60,none,0,,,839.9999910999904,,,,,,,,,,,,,,,,,,,,,,39,A,2024-05-17_12h14.20.030,attentional_competition_task,2022.2.4,144.06544030759147,
positions.xlsx,positions_test.xlsx,positions_test_new.xlsx,stimuli.xlsx,stimuli_new.xlsx,stimuli/Social1.png,stimuli/Social2.png,stimuli/Nonsocial1.png,stimuli/Nonsocial2.png,stimuli/Social3.png,stimuli/Social4.png,stimuli/Nonsocial3.png,stimuli/Nonsocial4.png,cs_pos_ns,"(0.7, 0.5)",,,,,,,,,0,0,0,0,,,,,,,,,,,,,1,9,25,14,,,,,,,,,,,,,,,,,,,,,,,,,,,,,,,,,,847.9719431999838,63,reward,1,0.6529260999814142,0.652929599978961,848.6316027999856,,,,,,,,,,,,,,,,,,,,,,39,A,2024-05-17_12h14.20.030,attentional_competition_task,2022.2.4,144.06544030759147,
positions.xlsx,positions_test.xlsx,positions_test_new.xlsx,stimuli.xlsx,stimuli_new.xlsx,stimuli/Social1.png,stimuli/Social2.png,stimuli/Nonsocial1.png,stimuli/Nonsocial2.png,stimuli/Social3.png,stimuli/Social4.png,stimuli/Nonsocial3.png,stimuli/Nonsocial4.png,cs_pos_ns,"(-0.7, -0.5)",,,,,,,,,0,0,0,0,,,,,,,,,,,,,1,10,26,13,,,,,,,,,,,,,,,,,,,,,,,,,,,,,,,,,,856.3951816999761,66,reward,1,0.542185199999949,0.5421891000005417,856.9437666999875,,,,,,,,,,,,,,,,,,,,,,39,A,2024-05-17_12h14.20.030,attentional_competition_task,2022.2.4,144.06544030759147,
positions.xlsx,positions_test.xlsx,positions_test_new.xlsx,stimuli.xlsx,stimuli_new.xlsx,stimuli/Social1.png,stimuli/Social2.png,stimuli/Nonsocial1.png,stimuli/Nonsocial2.png,stimuli/Social3.png,stimuli/Social4.png,stimuli/Nonsocial3.png,stimuli/Nonsocial4.png,cs_pos_ns,"(0.7, -0.5)",,,,,,,,,0,0,0,0,,,,,,,,,,,,,1,11,27,15,,,,,,,,,,,,,,,,,,,,,,,,,,,,,,,,,,864.755914599984,69,reward,1,0.5762370999727864,0.5762409999733791,865.3392949999834,,,,,,,,,,,,,,,,,,,,,,39,A,2024-05-17_12h14.20.030,attentional_competition_task,2022.2.4,144.06544030759147,
positions.xlsx,positions_test.xlsx,positions_test_new.xlsx,stimuli.xlsx,stimuli_new.xlsx,stimuli/Social1.png,stimuli/Social2.png,stimuli/Nonsocial1.png,stimuli/Nonsocial2.png,stimuli/Social3.png,stimuli/Social4.png,stimuli/Nonsocial3.png,stimuli/Nonsocial4.png,cs_neg_s,"(0.7, 0.5)",,,,,,,,,0,0,0,0,,,,,,,,,,,,,1,12,28,2,,,,,,,,,,,,,,,,,,,,,,,,,,,,,,,,,,873.207000800001,69,none,0,,,876.2208083999867,,,,,,,,,,,,,,,,,,,,,,39,A,2024-05-17_12h14.20.030,attentional_competition_task,2022.2.4,144.06544030759147,
positions.xlsx,positions_test.xlsx,positions_test_new.xlsx,stimuli.xlsx,stimuli_new.xlsx,stimuli/Social1.png,stimuli/Social2.png,stimuli/Nonsocial1.png,stimuli/Nonsocial2.png,stimuli/Social3.png,stimuli/Social4.png,stimuli/Nonsocial3.png,stimuli/Nonsocial4.png,cs_pos_ns,"(-0.7, 0.5)",,,,,,,,,0,0,0,0,,,,,,,,,,,,,1,13,29,12,,,,,,,,,,,,,,,,,,,,,,,,,,,,,,,,,,883.4566192999773,72,reward,1,0.5351401999942027,0.5351435999909882,883.9982832999958,,,,,,,,,,,,,,,,,,,,,,39,A,2024-05-17_12h14.20.030,attentional_competition_task,2022.2.4,144.06544030759147,
positions.xlsx,positions_test.xlsx,positions_test_new.xlsx,stimuli.xlsx,stimuli_new.xlsx,stimuli/Social1.png,stimuli/Social2.png,stimuli/Nonsocial1.png,stimuli/Nonsocial2.png,stimuli/Social3.png,stimuli/Social4.png,stimuli/Nonsocial3.png,stimuli/Nonsocial4.png,cs_pos_s,"(0.7, -0.5)",,,,,,,,,0,0,0,0,,,,,,,,,,,,,1,14,30,7,,,,,,,,,,,,,,,,,,,,,,,,,,,,,,,,,,891.3313067999843,75,reward,1,0.819729400012875,0.8197332000127062,892.1576440999925,,,,,,,,,,,,,,,,,,,,,,39,A,2024-05-17_12h14.20.030,attentional_competition_task,2022.2.4,144.06544030759147,
positions.xlsx,positions_test.xlsx,positions_test_new.xlsx,stimuli.xlsx,stimuli_new.xlsx,stimuli/Social1.png,stimuli/Social2.png,stimuli/Nonsocial1.png,stimuli/Nonsocial2.png,stimuli/Social3.png,stimuli/Social4.png,stimuli/Nonsocial3.png,stimuli/Nonsocial4.png,cs_neg_ns,"(-0.7, 0.5)",,,,,,,,,0,0,0,0,,,,,,,,,,,,,1,15,31,8,,,,,,,,,,,,,,,,,,,,,,,,,,,,,,,,,,899.948985199997,75,none,0,,,902.9627598999941,,,,,,,,,,,,,,,,,,,,,,39,A,2024-05-17_12h14.20.030,attentional_competition_task,2022.2.4,144.06544030759147,
positions.xlsx,positions_test.xlsx,positions_test_new.xlsx,stimuli.xlsx,stimuli_new.xlsx,stimuli/Social1.png,stimuli/Social2.png,stimuli/Nonsocial1.png,stimuli/Nonsocial2.png,stimuli/Social3.png,stimuli/Social4.png,stimuli/Nonsocial3.png,stimuli/Nonsocial4.png,cs_neg_ns,,,,,,,,,,0,0,0,0,,,,,,,,,,,,,,,,,0,0,0,1,,,,,,,,,,,,,,,,,,,,,,,908.4625761999923,4.0,4.9276333000161685,,,,,,,,,,,,,,,,,,,,,,,,,,,,,,,,,39,A,2024-05-17_12h14.20.030,attentional_competition_task,2022.2.4,144.06544030759147,
positions.xlsx,positions_test.xlsx,positions_test_new.xlsx,stimuli.xlsx,stimuli_new.xlsx,stimuli/Social1.png,stimuli/Social2.png,stimuli/Nonsocial1.png,stimuli/Nonsocial2.png,stimuli/Social3.png,stimuli/Social4.png,stimuli/Nonsocial3.png,stimuli/Nonsocial4.png,cs_pos_s,,,,,,,,,,0,0,0,0,,,,,,,,,,,,,,,,,0,1,1,2,,,,,,,,,,,,,,,,,,,,,,,917.5594200999767,7.0,2.2803502999886405,,,,,,,,,,,,,,,,,,,,,,,,,,,,,,,,,39,A,2024-05-17_12h14.20.030,attentional_competition_task,2022.2.4,144.06544030759147,
positions.xlsx,positions_test.xlsx,positions_test_new.xlsx,stimuli.xlsx,stimuli_new.xlsx,stimuli/Social1.png,stimuli/Social2.png,stimuli/Nonsocial1.png,stimuli/Nonsocial2.png,stimuli/Social3.png,stimuli/Social4.png,stimuli/Nonsocial3.png,stimuli/Nonsocial4.png,cs_pos_ns,,,,,,,,,,0,0,0,0,,,,,,,,,,,,,,,,,0,2,2,3,,,,,,,,,,,,,,,,,,,,,,,922.0384028999833,7.0,1.5361264999955893,,,,,,,,,,,,,,,,,,,,,,,,,,,,,,,,,39,A,2024-05-17_12h14.20.030,attentional_competition_task,2022.2.4,144.06544030759147,
positions.xlsx,positions_test.xlsx,positions_test_new.xlsx,stimuli.xlsx,stimuli_new.xlsx,stimuli/Social1.png,stimuli/Social2.png,stimuli/Nonsocial1.png,stimuli/Nonsocial2.png,stimuli/Social3.png,stimuli/Social4.png,stimuli/Nonsocial3.png,stimuli/Nonsocial4.png,cs_neg_s,,,,,,,,,,0,0,0,0,,,,,,,,,,,,,,,,,0,3,3,0,,,,,,,,,,,,,,,,,,,,,,,923.9896986999956,3.0,3.50914969999576,,,,,,,,,,,,,,,,,,,,,,,,,,,,,,,,,39,A,2024-05-17_12h14.20.030,attentional_competition_task,2022.2.4,144.06544030759147,
positions.xlsx,positions_test.xlsx,positions_test_new.xlsx,stimuli.xlsx,stimuli_new.xlsx,stimuli/Social1.png,stimuli/Social2.png,stimuli/Nonsocial1.png,stimuli/Nonsocial2.png,stimuli/Social3.png,stimuli/Social4.png,stimuli/Nonsocial3.png,stimuli/Nonsocial4.png,,,"(-0.7, -0.5)",cs_neg_ns,"(-0.7, 0.5)",cs_pos_ns,"(0.7, -0.5)",cs_pos_s,"(0.7, 0.5)",cs_neg_s,0,0,0,0,,,,,,,,,,,,,,,,,,,,,0,0,0,16,,,,,,,,,,,,,,,,,,,,,,,,,,,81,reward,,,,,928.2534331999777,938.3502363999723,938.3502363999723,938.3502363999723,938.3502363999723,0,,,1,0.03018159998464398,0.4537326999998186,1,0.5444015999964904,0.5444050999940373,0,,,938.8988632999826,938.8988632999826,938.8988632999826,938.8988632999826,39,A,2024-05-17_12h14.20.030,attentional_competition_task,2022.2.4,144.06544030759147,
positions.xlsx,positions_test.xlsx,positions_test_new.xlsx,stimuli.xlsx,stimuli_new.xlsx,stimuli/Social1.png,stimuli/Social2.png,stimuli/Nonsocial1.png,stimuli/Nonsocial2.png,stimuli/Social3.png,stimuli/Social4.png,stimuli/Nonsocial3.png,stimuli/Nonsocial4.png,,,"(-0.7, -0.5)",cs_pos_ns,"(-0.7, 0.5)",cs_neg_ns,"(0.7, -0.5)",cs_pos_s,"(0.7, 0.5)",cs_neg_s,0,0,0,0,,,,,,,,,,,,,,,,,,,,,0,1,1,20,,,,,,,,,,,,,,,,,,,,,,,,,,,90,reward,,,,,,946.5930205999757,946.5930205999757,946.5930205999757,946.5930205999757,0,,,0,,,0,,,0,,,947.3638184999872,947.3638184999872,947.3638184999872,947.3638184999872,39,A,2024-05-17_12h14.20.030,attentional_competition_task,2022.2.4,144.06544030759147,
positions.xlsx,positions_test.xlsx,positions_test_new.xlsx,stimuli.xlsx,stimuli_new.xlsx,stimuli/Social1.png,stimuli/Social2.png,stimuli/Nonsocial1.png,stimuli/Nonsocial2.png,stimuli/Social3.png,stimuli/Social4.png,stimuli/Nonsocial3.png,stimuli/Nonsocial4.png,,,"(-0.7, -0.5)",cs_neg_s,"(-0.7, 0.5)",cs_pos_s,"(0.7, -0.5)",cs_neg_ns,"(0.7, 0.5)",cs_pos_ns,0,0,0,0,,,,,,,,,,,,,,,,,,,,,0,2,2,0,,,,,,,,,,,,,,,,,,,,,,,,,,,99,reward,,,,,,955.9538120999932,955.9538120999932,955.9538120999932,955.9538120999932,0,,,0,,,0,,,0,,,955.9538120999932,955.9538120999932,955.9538120999932,955.9538120999932,39,A,2024-05-17_12h14.20.030,attentional_competition_task,2022.2.4,144.06544030759147,
positions.xlsx,positions_test.xlsx,positions_test_new.xlsx,stimuli.xlsx,stimuli_new.xlsx,stimuli/Social1.png,stimuli/Social2.png,stimuli/Nonsocial1.png,stimuli/Nonsocial2.png,stimuli/Social3.png,stimuli/Social4.png,stimuli/Nonsocial3.png,stimuli/Nonsocial4.png,,,"(-0.7, -0.5)",cs_neg_ns,"(-0.7, 0.5)",cs_neg_s,"(0.7, -0.5)",cs_pos_s,"(0.7, 0.5)",cs_pos_ns,0,0,0,0,,,,,,,,,,,,,,,,,,,,,0,3,3,14,,,,,,,,,,,,,,,,,,,,,,,,,,,105,reward,,,,,,963.7589554999722,963.7589554999722,963.7589554999722,963.7589554999722,0,,,0,,,1,0.029948599985800683,0.029952399985631928,0,,,963.7589554999722,963.7589554999722,963.7589554999722,963.7589554999722,39,A,2024-05-17_12h14.20.030,attentional_competition_task,2022.2.4,144.06544030759147,
positions.xlsx,positions_test.xlsx,positions_test_new.xlsx,stimuli.xlsx,stimuli_new.xlsx,stimuli/Social1.png,stimuli/Social2.png,stimuli/Nonsocial1.png,stimuli/Nonsocial2.png,stimuli/Social3.png,stimuli/Social4.png,stimuli/Nonsocial3.png,stimuli/Nonsocial4.png,,,"(-0.7, -0.5)",cs_neg_s,"(-0.7, 0.5)",cs_pos_ns,"(0.7, -0.5)",cs_neg_ns,"(0.7, 0.5)",cs_pos_s,0,0,0,0,,,,,,,,,,,,,,,,,,,,,0,4,4,5,,,,,,,,,,,,,,,,,,,,,,,,,,,114,reward,,,,,,972.2864330999728,972.2864330999728,972.2864330999728,972.2864330999728,0,,,0,,,0,,,0,,,973.1961284999852,973.1961284999852,973.1961284999852,973.1961284999852,39,A,2024-05-17_12h14.20.030,attentional_competition_task,2022.2.4,144.06544030759147,
positions.xlsx,positions_test.xlsx,positions_test_new.xlsx,stimuli.xlsx,stimuli_new.xlsx,stimuli/Social1.png,stimuli/Social2.png,stimuli/Nonsocial1.png,stimuli/Nonsocial2.png,stimuli/Social3.png,stimuli/Social4.png,stimuli/Nonsocial3.png,stimuli/Nonsocial4.png,,,"(-0.7, -0.5)",cs_pos_s,"(-0.7, 0.5)",cs_neg_ns,"(0.7, -0.5)",cs_neg_s,"(0.7, 0.5)",cs_pos_ns,0,0,0,0,,,,,,,,,,,,,,,,,,,,,0,5,5,8,,,,,,,,,,,,,,,,,,,,,,,,,,,120,reward,,,,,,981.3485716999858,981.3485716999858,981.3485716999858,981.3485716999858,1,0.23234149999916553,0.2387248000013642,0,,,0,,,1,0.022848799999337643,0.1702878999931272,981.5985602999863,981.5985602999863,981.5985602999863,981.5985602999863,39,A,2024-05-17_12h14.20.030,attentional_competition_task,2022.2.4,144.06544030759147,
positions.xlsx,positions_test.xlsx,positions_test_new.xlsx,stimuli.xlsx,stimuli_new.xlsx,stimuli/Social1.png,stimuli/Social2.png,stimuli/Nonsocial1.png,stimuli/Nonsocial2.png,stimuli/Social3.png,stimuli/Social4.png,stimuli/Nonsocial3.png,stimuli/Nonsocial4.png,,,"(-0.7, -0.5)",cs_pos_s,"(-0.7, 0.5)",cs_neg_s,"(0.7, -0.5)",cs_pos_ns,"(0.7, 0.5)",cs_neg_ns,0,0,0,0,,,,,,,,,,,,,,,,,,,,,0,6,6,7,,,,,,,,,,,,,,,,,,,,,,,,,,,129,reward,,,,,,989.6954938999843,989.6954938999843,989.6954938999843,989.6954938999843,0,,,0,,,0,,,0,,,990.4246035999968,990.4246035999968,990.4246035999968,990.4246035999968,39,A,2024-05-17_12h14.20.030,attentional_competition_task,2022.2.4,144.06544030759147,
positions.xlsx,positions_test.xlsx,positions_test_new.xlsx,stimuli.xlsx,stimuli_new.xlsx,stimuli/Social1.png,stimuli/Social2.png,stimuli/Nonsocial1.png,stimuli/Nonsocial2.png,stimuli/Social3.png,stimuli/Social4.png,stimuli/Nonsocial3.png,stimuli/Nonsocial4.png,,,"(-0.7, -0.5)",cs_pos_ns,"(-0.7, 0.5)",cs_neg_s,"(0.7, -0.5)",cs_neg_ns,"(0.7, 0.5)",cs_pos_s,0,0,0,0,,,,,,,,,,,,,,,,,,,,,0,7,7,23,,,,,,,,,,,,,,,,,,,,,,,,,,,138,reward,,,,,,998.3409475999943,998.3409475999943,998.3409475999943,998.3409475999943,0,,,0,,,0,,,0,,,999.0909319999919,999.0909319999919,999.0909319999919,999.0909319999919,39,A,2024-05-17_12h14.20.030,attentional_competition_task,2022.2.4,144.06544030759147,
positions.xlsx,positions_test.xlsx,positions_test_new.xlsx,stimuli.xlsx,stimuli_new.xlsx,stimuli/Social1.png,stimuli/Social2.png,stimuli/Nonsocial1.png,stimuli/Nonsocial2.png,stimuli/Social3.png,stimuli/Social4.png,stimuli/Nonsocial3.png,stimuli/Nonsocial4.png,,,"(-0.7, -0.5)",cs_neg_s,"(-0.7, 0.5)",cs_neg_ns,"(0.7, -0.5)",cs_pos_s,"(0.7, 0.5)",cs_pos_ns,0,0,0,0,,,,,,,,,,,,,,,,,,,,,0,8,8,2,,,,,,,,,,,,,,,,,,,,,,,,,,,147,reward,,,,,,1005.8545589999994,1005.8545589999994,1005.8545589999994,1005.8545589999994,0,,,0,,,0,,,0,,,1006.708665299986,1006.708665299986,1006.708665299986,1006.708665299986,39,A,2024-05-17_12h14.20.030,attentional_competition_task,2022.2.4,144.06544030759147,
positions.xlsx,positions_test.xlsx,positions_test_new.xlsx,stimuli.xlsx,stimuli_new.xlsx,stimuli/Social1.png,stimuli/Social2.png,stimuli/Nonsocial1.png,stimuli/Nonsocial2.png,stimuli/Social3.png,stimuli/Social4.png,stimuli/Nonsocial3.png,stimuli/Nonsocial4.png,,,"(-0.7, -0.5)",cs_neg_s,"(-0.7, 0.5)",cs_pos_ns,"(0.7, -0.5)",cs_pos_s,"(0.7, 0.5)",cs_neg_ns,0,0,0,0,,,,,,,,,,,,,,,,,,,,,0,9,9,4,,,,,,,,,,,,,,,,,,,,,,,,,,,156,reward,,,,,,1014.1111949999759,1014.1111949999759,1014.1111949999759,1014.1111949999759,0,,,0,,,0,,,0,,,1014.8264026999823,1014.8264026999823,1014.8264026999823,1014.8264026999823,39,A,2024-05-17_12h14.20.030,attentional_competition_task,2022.2.4,144.06544030759147,
positions.xlsx,positions_test.xlsx,positions_test_new.xlsx,stimuli.xlsx,stimuli_new.xlsx,stimuli/Social1.png,stimuli/Social2.png,stimuli/Nonsocial1.png,stimuli/Nonsocial2.png,stimuli/Social3.png,stimuli/Social4.png,stimuli/Nonsocial3.png,stimuli/Nonsocial4.png,,,"(-0.7, -0.5)",cs_neg_ns,"(-0.7, 0.5)",cs_neg_s,"(0.7, -0.5)",cs_pos_ns,"(0.7, 0.5)",cs_pos_s,0,0,0,0,,,,,,,,,,,,,,,,,,,,,0,10,10,15,,,,,,,,,,,,,,,,,,,,,,,,,,,165,reward,,,,,,1022.131636999984,1022.131636999984,1022.131636999984,1022.131636999984,0,,,0,,,0,,,0,,,1023.0274666999758,1023.0274666999758,1023.0274666999758,1023.0274666999758,39,A,2024-05-17_12h14.20.030,attentional_competition_task,2022.2.4,144.06544030759147,
positions.xlsx,positions_test.xlsx,positions_test_new.xlsx,stimuli.xlsx,stimuli_new.xlsx,stimuli/Social1.png,stimuli/Social2.png,stimuli/Nonsocial1.png,stimuli/Nonsocial2.png,stimuli/Social3.png,stimuli/Social4.png,stimuli/Nonsocial3.png,stimuli/Nonsocial4.png,,,"(-0.7, -0.5)",cs_pos_s,"(-0.7, 0.5)",cs_pos_ns,"(0.7, -0.5)",cs_neg_s,"(0.7, 0.5)",cs_neg_ns,0,0,0,0,,,,,,,,,,,,,,,,,,,,,0,11,11,10,,,,,,,,,,,,,,,,,,,,,,,,,,,174,reward,,,,,,1030.013327099994,1030.013327099994,1030.013327099994,1030.013327099994,0,,,0,,,0,,,0,,,1031.0063289999962,1031.0063289999962,1031.0063289999962,1031.0063289999962,39,A,2024-05-17_12h14.20.030,attentional_competition_task,2022.2.4,144.06544030759147,
positions.xlsx,positions_test.xlsx,positions_test_new.xlsx,stimuli.xlsx,stimuli_new.xlsx,stimuli/Social1.png,stimuli/Social2.png,stimuli/Nonsocial1.png,stimuli/Nonsocial2.png,stimuli/Social3.png,stimuli/Social4.png,stimuli/Nonsocial3.png,stimuli/Nonsocial4.png,,,"(-0.7, -0.5)",cs_neg_ns,"(-0.7, 0.5)",cs_pos_ns,"(0.7, -0.5)",cs_neg_s,"(0.7, 0.5)",cs_pos_s,0,0,0,0,,,,,,,,,,,,,,,,,,,,,0,12,12,17,,,,,,,,,,,,,,,,,,,,,,,,,,,183,reward,,,,,,1039.401817099977,1039.401817099977,1039.401817099977,1039.401817099977,0,,,0,,,0,,,0,,,1040.2976365999784,1040.2976365999784,1040.2976365999784,1040.2976365999784,39,A,2024-05-17_12h14.20.030,attentional_competition_task,2022.2.4,144.06544030759147,
positions.xlsx,positions_test.xlsx,positions_test_new.xlsx,stimuli.xlsx,stimuli_new.xlsx,stimuli/Social1.png,stimuli/Social2.png,stimuli/Nonsocial1.png,stimuli/Nonsocial2.png,stimuli/Social3.png,stimuli/Social4.png,stimuli/Nonsocial3.png,stimuli/Nonsocial4.png,,,"(-0.7, -0.5)",cs_pos_ns,"(-0.7, 0.5)",cs_neg_s,"(0.7, -0.5)",cs_pos_s,"(0.7, 0.5)",cs_neg_ns,0,0,0,0,,,,,,,,,,,,,,,,,,,,,0,13,13,22,,,,,,,,,,,,,,,,,,,,,,,,,,,192,reward,,,,,,1047.5820150999934,1047.5820150999934,1047.5820150999934,1047.5820150999934,0,,,0,,,0,,,0,,,1048.5958855999925,1048.5958855999925,1048.5958855999925,1048.5958855999925,39,A,2024-05-17_12h14.20.030,attentional_competition_task,2022.2.4,144.06544030759147,
positions.xlsx,positions_test.xlsx,positions_test_new.xlsx,stimuli.xlsx,stimuli_new.xlsx,stimuli/Social1.png,stimuli/Social2.png,stimuli/Nonsocial1.png,stimuli/Nonsocial2.png,stimuli/Social3.png,stimuli/Social4.png,stimuli/Nonsocial3.png,stimuli/Nonsocial4.png,,,"(-0.7, -0.5)",cs_pos_ns,"(-0.7, 0.5)",cs_pos_s,"(0.7, -0.5)",cs_neg_ns,"(0.7, 0.5)",cs_neg_s,0,0,0,0,,,,,,,,,,,,,,,,,,,,,0,14,14,18,,,,,,,,,,,,,,,,,,,,,,,,,,,201,reward,,,,,,1056.040037299972,1056.040037299972,1056.040037299972,1056.040037299972,0,,,0,,,0,,,0,,,1057.0052736999933,1057.0052736999933,1057.0052736999933,1057.0052736999933,39,A,2024-05-17_12h14.20.030,attentional_competition_task,2022.2.4,144.06544030759147,
positions.xlsx,positions_test.xlsx,positions_test_new.xlsx,stimuli.xlsx,stimuli_new.xlsx,stimuli/Social1.png,stimuli/Social2.png,stimuli/Nonsocial1.png,stimuli/Nonsocial2.png,stimuli/Social3.png,stimuli/Social4.png,stimuli/Nonsocial3.png,stimuli/Nonsocial4.png,,,"(-0.7, -0.5)",cs_neg_s,"(-0.7, 0.5)",cs_pos_s,"(0.7, -0.5)",cs_pos_ns,"(0.7, 0.5)",cs_neg_ns,0,0,0,0,,,,,,,,,,,,,,,,,,,,,0,15,15,1,,,,,,,,,,,,,,,,,,,,,,,,,,,210,reward,,,,,,1065.0257820999832,1065.0257820999832,1065.0257820999832,1065.0257820999832,0,,,0,,,0,,,0,,,1066.03963449999,1066.03963449999,1066.03963449999,1066.03963449999,39,A,2024-05-17_12h14.20.030,attentional_competition_task,2022.2.4,144.06544030759147,
positions.xlsx,positions_test.xlsx,positions_test_new.xlsx,stimuli.xlsx,stimuli_new.xlsx,stimuli/Social1.png,stimuli/Social2.png,stimuli/Nonsocial1.png,stimuli/Nonsocial2.png,stimuli/Social3.png,stimuli/Social4.png,stimuli/Nonsocial3.png,stimuli/Nonsocial4.png,,,"(-0.7, -0.5)",cs_neg_ns,"(-0.7, 0.5)",cs_pos_s,"(0.7, -0.5)",cs_neg_s,"(0.7, 0.5)",cs_pos_ns,0,0,0,0,,,,,,,,,,,,,,,,,,,,,0,16,16,12,,,,,,,,,,,,,,,,,,,,,,,,,,,219,reward,,,,,,1073.8727047999855,1073.8727047999855,1073.8727047999855,1073.8727047999855,0,,,0,,,0,,,0,,,1074.8240088999737,1074.8240088999737,1074.8240088999737,1074.8240088999737,39,A,2024-05-17_12h14.20.030,attentional_competition_task,2022.2.4,144.06544030759147,
positions.xlsx,positions_test.xlsx,positions_test_new.xlsx,stimuli.xlsx,stimuli_new.xlsx,stimuli/Social1.png,stimuli/Social2.png,stimuli/Nonsocial1.png,stimuli/Nonsocial2.png,stimuli/Social3.png,stimuli/Social4.png,stimuli/Nonsocial3.png,stimuli/Nonsocial4.png,,,"(-0.7, -0.5)",cs_neg_s,"(-0.7, 0.5)",cs_neg_ns,"(0.7, -0.5)",cs_pos_ns,"(0.7, 0.5)",cs_pos_s,0,0,0,0,,,,,,,,,,,,,,,,,,,,,0,17,17,3,,,,,,,,,,,,,,,,,,,,,,,,,,,228,reward,,,,,,1082.6917467999738,1082.6917467999738,1082.6917467999738,1082.6917467999738,0,,,0,,,0,,,0,,,1083.6500527999888,1083.6500527999888,1083.6500527999888,1083.6500527999888,39,A,2024-05-17_12h14.20.030,attentional_competition_task,2022.2.4,144.06544030759147,
positions.xlsx,positions_test.xlsx,positions_test_new.xlsx,stimuli.xlsx,stimuli_new.xlsx,stimuli/Social1.png,stimuli/Social2.png,stimuli/Nonsocial1.png,stimuli/Nonsocial2.png,stimuli/Social3.png,stimuli/Social4.png,stimuli/Nonsocial3.png,stimuli/Nonsocial4.png,,,"(-0.7, -0.5)",cs_pos_s,"(-0.7, 0.5)",cs_neg_s,"(0.7, -0.5)",cs_neg_ns,"(0.7, 0.5)",cs_pos_ns,0,0,0,0,,,,,,,,,,,,,,,,,,,,,0,18,18,6,,,,,,,,,,,,,,,,,,,,,,,,,,,231,reward,,,,,,1090.851119799976,1090.851119799976,1090.851119799976,1090.851119799976,0,,,0,,,0,,,1,0.028297799988649786,0.02830169998924248,1090.851119799976,1090.851119799976,1090.851119799976,1090.851119799976,39,A,2024-05-17_12h14.20.030,attentional_competition_task,2022.2.4,144.06544030759147,
positions.xlsx,positions_test.xlsx,positions_test_new.xlsx,stimuli.xlsx,stimuli_new.xlsx,stimuli/Social1.png,stimuli/Social2.png,stimuli/Nonsocial1.png,stimuli/Nonsocial2.png,stimuli/Social3.png,stimuli/Social4.png,stimuli/Nonsocial3.png,stimuli/Nonsocial4.png,,,"(-0.7, -0.5)",cs_pos_s,"(-0.7, 0.5)",cs_pos_ns,"(0.7, -0.5)",cs_neg_ns,"(0.7, 0.5)",cs_neg_s,0,0,0,0,,,,,,,,,,,,,,,,,,,,,0,19,19,11,,,,,,,,,,,,,,,,,,,,,,,,,,,240,reward,,,,,,1098.8508273999905,1098.8508273999905,1098.8508273999905,1098.8508273999905,0,,,0,,,0,,,0,,,1099.8369100999844,1099.8369100999844,1099.8369100999844,1099.8369100999844,39,A,2024-05-17_12h14.20.030,attentional_competition_task,2022.2.4,144.06544030759147,
positions.xlsx,positions_test.xlsx,positions_test_new.xlsx,stimuli.xlsx,stimuli_new.xlsx,stimuli/Social1.png,stimuli/Social2.png,stimuli/Nonsocial1.png,stimuli/Nonsocial2.png,stimuli/Social3.png,stimuli/Social4.png,stimuli/Nonsocial3.png,stimuli/Nonsocial4.png,,,"(-0.7, -0.5)",cs_pos_ns,"(-0.7, 0.5)",cs_neg_ns,"(0.7, -0.5)",cs_neg_s,"(0.7, 0.5)",cs_pos_s,0,0,0,0,,,,,,,,,,,,,,,,,,,,,0,20,20,21,,,,,,,,,,,,,,,,,,,,,,,,,,,249,reward,,,,,,1107.2532607999747,1107.2532607999747,1107.2532607999747,1107.2532607999747,0,,,0,,,0,,,0,,,1108.0935142999806,1108.0935142999806,1108.0935142999806,1108.0935142999806,39,A,2024-05-17_12h14.20.030,attentional_competition_task,2022.2.4,144.06544030759147,
positions.xlsx,positions_test.xlsx,positions_test_new.xlsx,stimuli.xlsx,stimuli_new.xlsx,stimuli/Social1.png,stimuli/Social2.png,stimuli/Nonsocial1.png,stimuli/Nonsocial2.png,stimuli/Social3.png,stimuli/Social4.png,stimuli/Nonsocial3.png,stimuli/Nonsocial4.png,,,"(-0.7, -0.5)",cs_pos_s,"(-0.7, 0.5)",cs_neg_ns,"(0.7, -0.5)",cs_pos_ns,"(0.7, 0.5)",cs_neg_s,0,0,0,0,,,,,,,,,,,,,,,,,,,,,0,21,21,9,,,,,,,,,,,,,,,,,,,,,,,,,,,258,reward,,,,,,1115.989027099975,1115.989027099975,1115.989027099975,1115.989027099975,0,,,0,,,0,,,0,,,1116.8917693999829,1116.8917693999829,1116.8917693999829,1116.8917693999829,39,A,2024-05-17_12h14.20.030,attentional_competition_task,2022.2.4,144.06544030759147,
positions.xlsx,positions_test.xlsx,positions_test_new.xlsx,stimuli.xlsx,stimuli_new.xlsx,stimuli/Social1.png,stimuli/Social2.png,stimuli/Nonsocial1.png,stimuli/Nonsocial2.png,stimuli/Social3.png,stimuli/Social4.png,stimuli/Nonsocial3.png,stimuli/Nonsocial4.png,,,"(-0.7, -0.5)",cs_neg_ns,"(-0.7, 0.5)",cs_pos_s,"(0.7, -0.5)",cs_pos_ns,"(0.7, 0.5)",cs_neg_s,0,0,0,0,,,,,,,,,,,,,,,,,,,,,0,22,22,13,,,,,,,,,,,,,,,,,,,,,,,,,,,267,reward,,,,,,1124.4609567999723,1124.4609567999723,1124.4609567999723,1124.4609567999723,0,,,0,,,0,,,0,,,1125.474769499997,1125.474769499997,1125.474769499997,1125.474769499997,39,A,2024-05-17_12h14.20.030,attentional_competition_task,2022.2.4,144.06544030759147,
positions.xlsx,positions_test.xlsx,positions_test_new.xlsx,stimuli.xlsx,stimuli_new.xlsx,stimuli/Social1.png,stimuli/Social2.png,stimuli/Nonsocial1.png,stimuli/Nonsocial2.png,stimuli/Social3.png,stimuli/Social4.png,stimuli/Nonsocial3.png,stimuli/Nonsocial4.png,,,"(-0.7, -0.5)",cs_pos_ns,"(-0.7, 0.5)",cs_pos_s,"(0.7, -0.5)",cs_neg_s,"(0.7, 0.5)",cs_neg_ns,0,0,0,0,,,,,,,,,,,,,,,,,,,,,0,23,23,19,,,,,,,,,,,,,,,,,,,,,,,,,,,276,reward,,,,,,1133.5925271999731,1133.5925271999731,1133.5925271999731,1133.5925271999731,0,,,0,,,0,,,0,,,1134.648016799998,1134.648016799998,1134.648016799998,1134.648016799998,39,A,2024-05-17_12h14.20.030,attentional_competition_task,2022.2.4,144.06544030759147,
positions.xlsx,positions_test.xlsx,positions_test_new.xlsx,stimuli.xlsx,stimuli_new.xlsx,stimuli/Social1.png,stimuli/Social2.png,stimuli/Nonsocial1.png,stimuli/Nonsocial2.png,stimuli/Social3.png,stimuli/Social4.png,stimuli/Nonsocial3.png,stimuli/Nonsocial4.png,,,"(-0.7, -0.5)",cs_neg_s,"(-0.7, 0.5)",cs_pos_s,"(0.7, -0.5)",cs_pos_ns,"(0.7, 0.5)",cs_neg_ns,0,0,0,0,,,,,,,,,,,,,,,,,,,,,1,0,24,1,,,,,,,,,,,,,,,,,,,,,,,,,,,285,reward,,,,,,1142.0643296999915,1142.0643296999915,1142.0643296999915,1142.0643296999915,0,,,0,,,0,,,0,,,1143.0018520999874,1143.0018520999874,1143.0018520999874,1143.0018520999874,39,A,2024-05-17_12h14.20.030,attentional_competition_task,2022.2.4,144.06544030759147,
positions.xlsx,positions_test.xlsx,positions_test_new.xlsx,stimuli.xlsx,stimuli_new.xlsx,stimuli/Social1.png,stimuli/Social2.png,stimuli/Nonsocial1.png,stimuli/Nonsocial2.png,stimuli/Social3.png,stimuli/Social4.png,stimuli/Nonsocial3.png,stimuli/Nonsocial4.png,,,"(-0.7, -0.5)",cs_pos_s,"(-0.7, 0.5)",cs_neg_ns,"(0.7, -0.5)",cs_neg_s,"(0.7, 0.5)",cs_pos_ns,0,0,0,0,,,,,,,,,,,,,,,,,,,,,1,1,25,8,,,,,,,,,,,,,,,,,,,,,,,,,,,294,reward,,,,,,1151.0362571000005,1151.0362571000005,1151.0362571000005,1151.0362571000005,0,,,0,,,0,,,0,,,1151.9806579999859,1151.9806579999859,1151.9806579999859,1151.9806579999859,39,A,2024-05-17_12h14.20.030,attentional_competition_task,2022.2.4,144.06544030759147,
positions.xlsx,positions_test.xlsx,positions_test_new.xlsx,stimuli.xlsx,stimuli_new.xlsx,stimuli/Social1.png,stimuli/Social2.png,stimuli/Nonsocial1.png,stimuli/Nonsocial2.png,stimuli/Social3.png,stimuli/Social4.png,stimuli/Nonsocial3.png,stimuli/Nonsocial4.png,,,"(-0.7, -0.5)",cs_neg_ns,"(-0.7, 0.5)",cs_pos_ns,"(0.7, -0.5)",cs_neg_s,"(0.7, 0.5)",cs_pos_s,0,0,0,0,,,,,,,,,,,,,,,,,,,,,1,2,26,17,,,,,,,,,,,,,,,,,,,,,,,,,,,303,reward,,,,,,1159.3970594999846,1159.3970594999846,1159.3970594999846,1159.3970594999846,0,,,0,,,0,,,0,,,1160.3900489999796,1160.3900489999796,1160.3900489999796,1160.3900489999796,39,A,2024-05-17_12h14.20.030,attentional_competition_task,2022.2.4,144.06544030759147,
positions.xlsx,positions_test.xlsx,positions_test_new.xlsx,stimuli.xlsx,stimuli_new.xlsx,stimuli/Social1.png,stimuli/Social2.png,stimuli/Nonsocial1.png,stimuli/Nonsocial2.png,stimuli/Social3.png,stimuli/Social4.png,stimuli/Nonsocial3.png,stimuli/Nonsocial4.png,,,"(-0.7, -0.5)",cs_pos_s,"(-0.7, 0.5)",cs_pos_ns,"(0.7, -0.5)",cs_neg_s,"(0.7, 0.5)",cs_neg_ns,0,0,0,0,,,,,,,,,,,,,,,,,,,,,1,3,27,10,,,,,,,,,,,,,,,,,,,,,,,,,,,312,reward,,,,,,1168.1328023999813,1168.1328023999813,1168.1328023999813,1168.1328023999813,0,,,0,,,0,,,0,,,1169.1674742999894,1169.1674742999894,1169.1674742999894,1169.1674742999894,39,A,2024-05-17_12h14.20.030,attentional_competition_task,2022.2.4,144.06544030759147,
positions.xlsx,positions_test.xlsx,positions_test_new.xlsx,stimuli.xlsx,stimuli_new.xlsx,stimuli/Social1.png,stimuli/Social2.png,stimuli/Nonsocial1.png,stimuli/Nonsocial2.png,stimuli/Social3.png,stimuli/Social4.png,stimuli/Nonsocial3.png,stimuli/Nonsocial4.png,,,"(-0.7, -0.5)",cs_pos_s,"(-0.7, 0.5)",cs_neg_ns,"(0.7, -0.5)",cs_pos_ns,"(0.7, 0.5)",cs_neg_s,0,0,0,0,,,,,,,,,,,,,,,,,,,,,1,4,28,9,,,,,,,,,,,,,,,,,,,,,,,,,,,321,reward,,,,,,1176.7088901999814,1176.7088901999814,1176.7088901999814,1176.7088901999814,0,,,0,,,0,,,0,,,1177.7435550999944,1177.7435550999944,1177.7435550999944,1177.7435550999944,39,A,2024-05-17_12h14.20.030,attentional_competition_task,2022.2.4,144.06544030759147,
positions.xlsx,positions_test.xlsx,positions_test_new.xlsx,stimuli.xlsx,stimuli_new.xlsx,stimuli/Social1.png,stimuli/Social2.png,stimuli/Nonsocial1.png,stimuli/Nonsocial2.png,stimuli/Social3.png,stimuli/Social4.png,stimuli/Nonsocial3.png,stimuli/Nonsocial4.png,,,"(-0.7, -0.5)",cs_neg_s,"(-0.7, 0.5)",cs_neg_ns,"(0.7, -0.5)",cs_pos_ns,"(0.7, 0.5)",cs_pos_s,0,0,0,0,,,,,,,,,,,,,,,,,,,,,1,5,29,3,,,,,,,,,,,,,,,,,,,,,,,,,,,330,reward,,,,,,1185.2293292999966,1185.2293292999966,1185.2293292999966,1185.2293292999966,0,,,0,,,0,,,0,,,1186.2154039999878,1186.2154039999878,1186.2154039999878,1186.2154039999878,39,A,2024-05-17_12h14.20.030,attentional_competition_task,2022.2.4,144.06544030759147,
positions.xlsx,positions_test.xlsx,positions_test_new.xlsx,stimuli.xlsx,stimuli_new.xlsx,stimuli/Social1.png,stimuli/Social2.png,stimuli/Nonsocial1.png,stimuli/Nonsocial2.png,stimuli/Social3.png,stimuli/Social4.png,stimuli/Nonsocial3.png,stimuli/Nonsocial4.png,,,"(-0.7, -0.5)",cs_pos_s,"(-0.7, 0.5)",cs_neg_s,"(0.7, -0.5)",cs_neg_ns,"(0.7, 0.5)",cs_pos_ns,0,0,0,0,,,,,,,,,,,,,,,,,,,,,1,6,30,6,,,,,,,,,,,,,,,,,,,,,,,,,,,339,reward,,,,,,1194.5067352999758,1194.5067352999758,1194.5067352999758,1194.5067352999758,0,,,0,,,0,,,0,,,1195.5136476999905,1195.5136476999905,1195.5136476999905,1195.5136476999905,39,A,2024-05-17_12h14.20.030,attentional_competition_task,2022.2.4,144.06544030759147,
positions.xlsx,positions_test.xlsx,positions_test_new.xlsx,stimuli.xlsx,stimuli_new.xlsx,stimuli/Social1.png,stimuli/Social2.png,stimuli/Nonsocial1.png,stimuli/Nonsocial2.png,stimuli/Social3.png,stimuli/Social4.png,stimuli/Nonsocial3.png,stimuli/Nonsocial4.png,,,"(-0.7, -0.5)",cs_neg_ns,"(-0.7, 0.5)",cs_pos_ns,"(0.7, -0.5)",cs_pos_s,"(0.7, 0.5)",cs_neg_s,0,0,0,0,,,,,,,,,,,,,,,,,,,,,1,7,31,16,,,,,,,,,,,,,,,,,,,,,,,,,,,348,reward,,,,,,1204.0132721999835,1204.0132721999835,1204.0132721999835,1204.0132721999835,0,,,0,,,1,0.029496800008928403,0.05830259999493137,0,,,1204.7354933999886,1204.7354933999886,1204.7354933999886,1204.7354933999886,39,A,2024-05-17_12h14.20.030,attentional_competition_task,2022.2.4,144.06544030759147,
positions.xlsx,positions_test.xlsx,positions_test_new.xlsx,stimuli.xlsx,stimuli_new.xlsx,stimuli/Social1.png,stimuli/Social2.png,stimuli/Nonsocial1.png,stimuli/Nonsocial2.png,stimuli/Social3.png,stimuli/Social4.png,stimuli/Nonsocial3.png,stimuli/Nonsocial4.png,,,"(-0.7, -0.5)",cs_pos_s,"(-0.7, 0.5)",cs_neg_s,"(0.7, -0.5)",cs_pos_ns,"(0.7, 0.5)",cs_neg_ns,0,0,0,0,,,,,,,,,,,,,,,,,,,,,1,8,32,7,,,,,,,,,,,,,,,,,,,,,,,,,,,357,reward,,,,,,1212.8115413999767,1212.8115413999767,1212.8115413999767,1212.8115413999767,0,,,0,,,0,,,0,,,1213.7629136999894,1213.7629136999894,1213.7629136999894,1213.7629136999894,39,A,2024-05-17_12h14.20.030,attentional_competition_task,2022.2.4,144.06544030759147,
positions.xlsx,positions_test.xlsx,positions_test_new.xlsx,stimuli.xlsx,stimuli_new.xlsx,stimuli/Social1.png,stimuli/Social2.png,stimuli/Nonsocial1.png,stimuli/Nonsocial2.png,stimuli/Social3.png,stimuli/Social4.png,stimuli/Nonsocial3.png,stimuli/Nonsocial4.png,,,"(-0.7, -0.5)",cs_neg_s,"(-0.7, 0.5)",cs_pos_ns,"(0.7, -0.5)",cs_pos_s,"(0.7, 0.5)",cs_neg_ns,0,0,0,0,,,,,,,,,,,,,,,,,,,,,1,9,33,4,,,,,,,,,,,,,,,,,,,,,,,,,,,366,reward,,,,,,1221.4084327999735,1221.4084327999735,1221.4084327999735,1221.4084327999735,0,,,0,,,0,,,0,,,1222.3945219999878,1222.3945219999878,1222.3945219999878,1222.3945219999878,39,A,2024-05-17_12h14.20.030,attentional_competition_task,2022.2.4,144.06544030759147,
positions.xlsx,positions_test.xlsx,positions_test_new.xlsx,stimuli.xlsx,stimuli_new.xlsx,stimuli/Social1.png,stimuli/Social2.png,stimuli/Nonsocial1.png,stimuli/Nonsocial2.png,stimuli/Social3.png,stimuli/Social4.png,stimuli/Nonsocial3.png,stimuli/Nonsocial4.png,,,"(-0.7, -0.5)",cs_pos_ns,"(-0.7, 0.5)",cs_neg_ns,"(0.7, -0.5)",cs_neg_s,"(0.7, 0.5)",cs_pos_s,0,0,0,0,,,,,,,,,,,,,,,,,,,,,1,10,34,21,,,,,,,,,,,,,,,,,,,,,,,,,,,369,reward,,,,,,1229.76227929999,1229.76227929999,1229.76227929999,1229.76227929999,1,0.029215000016847625,0.3281575000146404,0,,,0,,,0,,,1230.720567499986,1230.720567499986,1230.720567499986,1230.720567499986,39,A,2024-05-17_12h14.20.030,attentional_competition_task,2022.2.4,144.06544030759147,
positions.xlsx,positions_test.xlsx,positions_test_new.xlsx,stimuli.xlsx,stimuli_new.xlsx,stimuli/Social1.png,stimuli/Social2.png,stimuli/Nonsocial1.png,stimuli/Nonsocial2.png,stimuli/Social3.png,stimuli/Social4.png,stimuli/Nonsocial3.png,stimuli/Nonsocial4.png,,,"(-0.7, -0.5)",cs_pos_s,"(-0.7, 0.5)",cs_pos_ns,"(0.7, -0.5)",cs_neg_ns,"(0.7, 0.5)",cs_neg_s,0,0,0,0,,,,,,,,,,,,,,,,,,,,,1,11,35,11,,,,,,,,,,,,,,,,,,,,,,,,,,,378,reward,,,,,,1237.5258525999961,1237.5258525999961,1237.5258525999961,1237.5258525999961,0,,,0,,,0,,,0,,,1238.491091999982,1238.491091999982,1238.491091999982,1238.491091999982,39,A,2024-05-17_12h14.20.030,attentional_competition_task,2022.2.4,144.06544030759147,
positions.xlsx,positions_test.xlsx,positions_test_new.xlsx,stimuli.xlsx,stimuli_new.xlsx,stimuli/Social1.png,stimuli/Social2.png,stimuli/Nonsocial1.png,stimuli/Nonsocial2.png,stimuli/Social3.png,stimuli/Social4.png,stimuli/Nonsocial3.png,stimuli/Nonsocial4.png,,,"(-0.7, -0.5)",cs_pos_ns,"(-0.7, 0.5)",cs_neg_ns,"(0.7, -0.5)",cs_pos_s,"(0.7, 0.5)",cs_neg_s,0,0,0,0,,,,,,,,,,,,,,,,,,,,,1,12,36,20,,,,,,,,,,,,,,,,,,,,,,,,,,,387,reward,,,,,,1246.011657199997,1246.011657199997,1246.011657199997,1246.011657199997,1,0.024650000006658956,0.23274090001359582,0,,,0,,,0,,,1246.9490979999828,1246.9490979999828,1246.9490979999828,1246.9490979999828,39,A,2024-05-17_12h14.20.030,attentional_competition_task,2022.2.4,144.06544030759147,
positions.xlsx,positions_test.xlsx,positions_test_new.xlsx,stimuli.xlsx,stimuli_new.xlsx,stimuli/Social1.png,stimuli/Social2.png,stimuli/Nonsocial1.png,stimuli/Nonsocial2.png,stimuli/Social3.png,stimuli/Social4.png,stimuli/Nonsocial3.png,stimuli/Nonsocial4.png,,,"(-0.7, -0.5)",cs_neg_ns,"(-0.7, 0.5)",cs_pos_s,"(0.7, -0.5)",cs_neg_s,"(0.7, 0.5)",cs_pos_ns,0,0,0,0,,,,,,,,,,,,,,,,,,,,,1,13,37,12,,,,,,,,,,,,,,,,,,,,,,,,,,,396,reward,,,,,,1255.0807179999829,1255.0807179999829,1255.0807179999829,1255.0807179999829,0,,,0,,,0,,,1,0.023727599997073412,0.20490819998667575,1255.7890502999944,1255.7890502999944,1255.7890502999944,1255.7890502999944,39,A,2024-05-17_12h14.20.030,attentional_competition_task,2022.2.4,144.06544030759147,
positions.xlsx,positions_test.xlsx,positions_test_new.xlsx,stimuli.xlsx,stimuli_new.xlsx,stimuli/Social1.png,stimuli/Social2.png,stimuli/Nonsocial1.png,stimuli/Nonsocial2.png,stimuli/Social3.png,stimuli/Social4.png,stimuli/Nonsocial3.png,stimuli/Nonsocial4.png,,,"(-0.7, -0.5)",cs_pos_ns,"(-0.7, 0.5)",cs_neg_s,"(0.7, -0.5)",cs_pos_s,"(0.7, 0.5)",cs_neg_ns,0,0,0,0,,,,,,,,,,,,,,,,,,,,,1,14,38,22,,,,,,,,,,,,,,,,,,,,,,,,,,,402,reward,,,,,,1263.9831330999732,1263.9831330999732,1263.9831330999732,1263.9831330999732,1,0.028903800004627556,0.23162440001033247,0,,,1,0.30838430000585504,0.3083879000041634,0,,,1264.2956214000005,1264.2956214000005,1264.2956214000005,1264.2956214000005,39,A,2024-05-17_12h14.20.030,attentional_competition_task,2022.2.4,144.06544030759147,
positions.xlsx,positions_test.xlsx,positions_test_new.xlsx,stimuli.xlsx,stimuli_new.xlsx,stimuli/Social1.png,stimuli/Social2.png,stimuli/Nonsocial1.png,stimuli/Nonsocial2.png,stimuli/Social3.png,stimuli/Social4.png,stimuli/Nonsocial3.png,stimuli/Nonsocial4.png,,,"(-0.7, -0.5)",cs_neg_s,"(-0.7, 0.5)",cs_neg_ns,"(0.7, -0.5)",cs_pos_s,"(0.7, 0.5)",cs_pos_ns,0,0,0,0,,,,,,,,,,,,,,,,,,,,,1,15,39,2,,,,,,,,,,,,,,,,,,,,,,,,,,,411,reward,,,,,,1272.7397169999895,1272.7397169999895,1272.7397169999895,1272.7397169999895,0,,,0,,,0,,,0,,,1273.6981041999825,1273.6981041999825,1273.6981041999825,1273.6981041999825,39,A,2024-05-17_12h14.20.030,attentional_competition_task,2022.2.4,144.06544030759147,
positions.xlsx,positions_test.xlsx,positions_test_new.xlsx,stimuli.xlsx,stimuli_new.xlsx,stimuli/Social1.png,stimuli/Social2.png,stimuli/Nonsocial1.png,stimuli/Nonsocial2.png,stimuli/Social3.png,stimuli/Social4.png,stimuli/Nonsocial3.png,stimuli/Nonsocial4.png,,,"(-0.7, -0.5)",cs_neg_ns,"(-0.7, 0.5)",cs_neg_s,"(0.7, -0.5)",cs_pos_ns,"(0.7, 0.5)",cs_pos_s,0,0,0,0,,,,,,,,,,,,,,,,,,,,,1,16,40,15,,,,,,,,,,,,,,,,,,,,,,,,,,,420,reward,,,,,,1280.7533031999774,1280.7533031999774,1280.7533031999774,1280.7533031999774,0,,,0,,,0,,,0,,,1281.5727651999914,1281.5727651999914,1281.5727651999914,1281.5727651999914,39,A,2024-05-17_12h14.20.030,attentional_competition_task,2022.2.4,144.06544030759147,
positions.xlsx,positions_test.xlsx,positions_test_new.xlsx,stimuli.xlsx,stimuli_new.xlsx,stimuli/Social1.png,stimuli/Social2.png,stimuli/Nonsocial1.png,stimuli/Nonsocial2.png,stimuli/Social3.png,stimuli/Social4.png,stimuli/Nonsocial3.png,stimuli/Nonsocial4.png,,,"(-0.7, -0.5)",cs_neg_ns,"(-0.7, 0.5)",cs_neg_s,"(0.7, -0.5)",cs_pos_s,"(0.7, 0.5)",cs_pos_ns,0,0,0,0,,,,,,,,,,,,,,,,,,,,,1,17,41,14,,,,,,,,,,,,,,,,,,,,,,,,,,,429,reward,,,,,,1288.8918789999734,1288.8918789999734,1288.8918789999734,1288.8918789999734,0,,,0,,,0,,,0,,,1289.9057233999774,1289.9057233999774,1289.9057233999774,1289.9057233999774,39,A,2024-05-17_12h14.20.030,attentional_competition_task,2022.2.4,144.06544030759147,
positions.xlsx,positions_test.xlsx,positions_test_new.xlsx,stimuli.xlsx,stimuli_new.xlsx,stimuli/Social1.png,stimuli/Social2.png,stimuli/Nonsocial1.png,stimuli/Nonsocial2.png,stimuli/Social3.png,stimuli/Social4.png,stimuli/Nonsocial3.png,stimuli/Nonsocial4.png,,,"(-0.7, -0.5)",cs_pos_ns,"(-0.7, 0.5)",cs_pos_s,"(0.7, -0.5)",cs_neg_ns,"(0.7, 0.5)",cs_neg_s,0,0,0,0,,,,,,,,,,,,,,,,,,,,,1,18,42,18,,,,,,,,,,,,,,,,,,,,,,,,,,,438,reward,,,,,,1297.4193277999875,1297.4193277999875,1297.4193277999875,1297.4193277999875,1,0.20556060000672005,0.2115932000160683,1,0.02530460001435131,0.19880350001039915,0,,,0,,,1298.3290033999947,1298.3290033999947,1298.3290033999947,1298.3290033999947,39,A,2024-05-17_12h14.20.030,attentional_competition_task,2022.2.4,144.06544030759147,
positions.xlsx,positions_test.xlsx,positions_test_new.xlsx,stimuli.xlsx,stimuli_new.xlsx,stimuli/Social1.png,stimuli/Social2.png,stimuli/Nonsocial1.png,stimuli/Nonsocial2.png,stimuli/Social3.png,stimuli/Social4.png,stimuli/Nonsocial3.png,stimuli/Nonsocial4.png,,,"(-0.7, -0.5)",cs_neg_s,"(-0.7, 0.5)",cs_pos_ns,"(0.7, -0.5)",cs_neg_ns,"(0.7, 0.5)",cs_pos_s,0,0,0,0,,,,,,,,,,,,,,,,,,,,,1,19,43,5,,,,,,,,,,,,,,,,,,,,,,,,,,,447,reward,,,,,,1306.2730969999975,1306.2730969999975,1306.2730969999975,1306.2730969999975,0,,,0,,,0,,,0,,,1307.1133732999733,1307.1133732999733,1307.1133732999733,1307.1133732999733,39,A,2024-05-17_12h14.20.030,attentional_competition_task,2022.2.4,144.06544030759147,
positions.xlsx,positions_test.xlsx,positions_test_new.xlsx,stimuli.xlsx,stimuli_new.xlsx,stimuli/Social1.png,stimuli/Social2.png,stimuli/Nonsocial1.png,stimuli/Nonsocial2.png,stimuli/Social3.png,stimuli/Social4.png,stimuli/Nonsocial3.png,stimuli/Nonsocial4.png,,,"(-0.7, -0.5)",cs_neg_s,"(-0.7, 0.5)",cs_pos_s,"(0.7, -0.5)",cs_neg_ns,"(0.7, 0.5)",cs_pos_ns,0,0,0,0,,,,,,,,,,,,,,,,,,,,,1,20,44,0,,,,,,,,,,,,,,,,,,,,,,,,,,,456,reward,,,,,,1314.8699931999727,1314.8699931999727,1314.8699931999727,1314.8699931999727,0,,,0,,,0,,,0,,,1315.7588612999825,1315.7588612999825,1315.7588612999825,1315.7588612999825,39,A,2024-05-17_12h14.20.030,attentional_competition_task,2022.2.4,144.06544030759147,
positions.xlsx,positions_test.xlsx,positions_test_new.xlsx,stimuli.xlsx,stimuli_new.xlsx,stimuli/Social1.png,stimuli/Social2.png,stimuli/Nonsocial1.png,stimuli/Nonsocial2.png,stimuli/Social3.png,stimuli/Social4.png,stimuli/Nonsocial3.png,stimuli/Nonsocial4.png,,,"(-0.7, -0.5)",cs_neg_ns,"(-0.7, 0.5)",cs_pos_s,"(0.7, -0.5)",cs_pos_ns,"(0.7, 0.5)",cs_neg_s,0,0,0,0,,,,,,,,,,,,,,,,,,,,,1,21,45,13,,,,,,,,,,,,,,,,,,,,,,,,,,,465,reward,,,,,,1323.5918463999988,1323.5918463999988,1323.5918463999988,1323.5918463999988,0,,,0,,,0,,,0,,,1324.4807955999859,1324.4807955999859,1324.4807955999859,1324.4807955999859,39,A,2024-05-17_12h14.20.030,attentional_competition_task,2022.2.4,144.06544030759147,
positions.xlsx,positions_test.xlsx,positions_test_new.xlsx,stimuli.xlsx,stimuli_new.xlsx,stimuli/Social1.png,stimuli/Social2.png,stimuli/Nonsocial1.png,stimuli/Nonsocial2.png,stimuli/Social3.png,stimuli/Social4.png,stimuli/Nonsocial3.png,stimuli/Nonsocial4.png,,,"(-0.7, -0.5)",cs_pos_ns,"(-0.7, 0.5)",cs_neg_s,"(0.7, -0.5)",cs_neg_ns,"(0.7, 0.5)",cs_pos_s,0,0,0,0,,,,,,,,,,,,,,,,,,,,,1,22,46,23,,,,,,,,,,,,,,,,,,,,,,,,,,,471,reward,,,,,,1332.570653999981,1332.570653999981,1332.570653999981,1332.570653999981,0,,,0,,,0,,,0,,,1333.112336899998,1333.112336899998,1333.112336899998,1333.112336899998,39,A,2024-05-17_12h14.20.030,attentional_competition_task,2022.2.4,144.06544030759147,
positions.xlsx,positions_test.xlsx,positions_test_new.xlsx,stimuli.xlsx,stimuli_new.xlsx,stimuli/Social1.png,stimuli/Social2.png,stimuli/Nonsocial1.png,stimuli/Nonsocial2.png,stimuli/Social3.png,stimuli/Social4.png,stimuli/Nonsocial3.png,stimuli/Nonsocial4.png,,,"(-0.7, -0.5)",cs_pos_ns,"(-0.7, 0.5)",cs_pos_s,"(0.7, -0.5)",cs_neg_s,"(0.7, 0.5)",cs_neg_ns,0,0,0,0,,,,,,,,,,,,,,,,,,,,,1,23,47,19,,,,,,,,,,,,,,,,,,,,,,,,,,,480,reward,,,,,,1340.8411918999918,1340.8411918999918,1340.8411918999918,1340.8411918999918,0,,,0,,,0,,,0,,,1341.6397772999771,1341.6397772999771,1341.6397772999771,1341.6397772999771,39,A,2024-05-17_12h14.20.030,attentional_competition_task,2022.2.4,144.06544030759147,
positions.xlsx,positions_test.xlsx,positions_test_new.xlsx,stimuli.xlsx,stimuli_new.xlsx,stimuli/Social1.png,stimuli/Social2.png,stimuli/Nonsocial1.png,stimuli/Nonsocial2.png,stimuli/Social3.png,stimuli/Social4.png,stimuli/Nonsocial3.png,stimuli/Nonsocial4.png,,,"(-0.7, -0.5)",cs_neg_ns,"(-0.7, 0.5)",cs_pos_ns,"(0.7, -0.5)",cs_pos_s,"(0.7, 0.5)",cs_neg_s,0,0,0,0,,,,,,,,,,,,,,,,,,,,,,,,,,,,,0,0,0,1,0,0,0,0,,,,,,,,,,,,,,,483,reward,,,,,,1347.861711399979,1347.861711399979,1347.861711399979,1347.861711399979,0,,,1,0.6963026000012178,0.6963061000278685,0,,,0,,,1348.563075699989,1348.563075699989,1348.563075699989,1348.563075699989,39,A,2024-05-17_12h14.20.030,attentional_competition_task,2022.2.4,144.06544030759147,
positions.xlsx,positions_test.xlsx,positions_test_new.xlsx,stimuli.xlsx,stimuli_new.xlsx,stimuli/Social1.png,stimuli/Social2.png,stimuli/Nonsocial1.png,stimuli/Nonsocial2.png,stimuli/Social3.png,stimuli/Social4.png,stimuli/Nonsocial3.png,stimuli/Nonsocial4.png,,,"(-0.7, -0.5)",cs_neg_ns,"(-0.7, 0.5)",cs_pos_ns,"(0.7, -0.5)",cs_pos_s,"(0.7, 0.5)",cs_neg_s,0,0,0,0,,,,,,,,,,,,,,,,,,,,,,,,,,,,,0,0,0,1,1,0,1,0,,,,,,,,,,,,,,,486,reward,,,,,,1349.0908665999887,1349.0908665999887,1349.0908665999887,1349.0908665999887,0,,,0,,,1,0.029054600017843768,0.029058400017675012,0,,,1349.0908665999887,1349.0908665999887,1349.0908665999887,1349.0908665999887,39,A,2024-05-17_12h14.20.030,attentional_competition_task,2022.2.4,144.06544030759147,
positions.xlsx,positions_test.xlsx,positions_test_new.xlsx,stimuli.xlsx,stimuli_new.xlsx,stimuli/Social1.png,stimuli/Social2.png,stimuli/Nonsocial1.png,stimuli/Nonsocial2.png,stimuli/Social3.png,stimuli/Social4.png,stimuli/Nonsocial3.png,stimuli/Nonsocial4.png,,,"(-0.7, -0.5)",cs_neg_ns,"(-0.7, 0.5)",cs_pos_ns,"(0.7, -0.5)",cs_pos_s,"(0.7, 0.5)",cs_neg_s,0,0,0,0,,,,,,,,,,,,,,,,,,,,,,,,,,,,,0,0,0,1,2,0,2,0,,,,,,,,,,,,,,,489,reward,,,,,,1349.5977888999914,1349.5977888999914,1349.5977888999914,1349.5977888999914,0,,,0,,,0,,,0,,,1350.3755406999844,1350.3755406999844,1350.3755406999844,1350.3755406999844,39,A,2024-05-17_12h14.20.030,attentional_competition_task,2022.2.4,144.06544030759147,
positions.xlsx,positions_test.xlsx,positions_test_new.xlsx,stimuli.xlsx,stimuli_new.xlsx,stimuli/Social1.png,stimuli/Social2.png,stimuli/Nonsocial1.png,stimuli/Nonsocial2.png,stimuli/Social3.png,stimuli/Social4.png,stimuli/Nonsocial3.png,stimuli/Nonsocial4.png,,,"(-0.7, -0.5)",cs_neg_ns,"(-0.7, 0.5)",cs_pos_ns,"(0.7, -0.5)",cs_pos_s,"(0.7, 0.5)",cs_neg_s,0,0,0,0,,,,,,,,,,,,,,,,,,,,,,,,,,,,,0,0,0,1,,,,,,,,,,,,,,,,,,,,,,,,,,,,,,,,,,,,,,,,,,,,,,39,A,2024-05-17_12h14.20.030,attentional_competition_task,2022.2.4,144.06544030759147,
positions.xlsx,positions_test.xlsx,positions_test_new.xlsx,stimuli.xlsx,stimuli_new.xlsx,stimuli/Social1.png,stimuli/Social2.png,stimuli/Nonsocial1.png,stimuli/Nonsocial2.png,stimuli/Social3.png,stimuli/Social4.png,stimuli/Nonsocial3.png,stimuli/Nonsocial4.png,,,"(-0.7, -0.5)",cs_neg_ns,"(-0.7, 0.5)",cs_pos_ns,"(0.7, -0.5)",cs_pos_s_new,"(0.7, 0.5)",cs_neg_s,0,0,0,0,,,,,,,,,,,,,,,,,,,,,,,,,,,,,0,1,1,32,0,0,0,0,,,,,,,,,,,,,,,492,reward,,,,,,1356.5280680999858,1356.5280680999858,1356.5280680999858,1356.5280680999858,0,,,1,0.5297761000110768,0.5297798000101466,0,,,0,,,1357.0558070999978,1357.0558070999978,1357.0558070999978,1357.0558070999978,39,A,2024-05-17_12h14.20.030,attentional_competition_task,2022.2.4,144.06544030759147,
positions.xlsx,positions_test.xlsx,positions_test_new.xlsx,stimuli.xlsx,stimuli_new.xlsx,stimuli/Social1.png,stimuli/Social2.png,stimuli/Nonsocial1.png,stimuli/Nonsocial2.png,stimuli/Social3.png,stimuli/Social4.png,stimuli/Nonsocial3.png,stimuli/Nonsocial4.png,,,"(-0.7, -0.5)",cs_neg_ns,"(-0.7, 0.5)",cs_pos_ns,"(0.7, -0.5)",cs_pos_s_new,"(0.7, 0.5)",cs_neg_s,0,0,0,0,,,,,,,,,,,,,,,,,,,,,,,,,,,,,0,1,1,32,1,0,1,0,,,,,,,,,,,,,,,489,loss,,,,,,1357.5835781999922,1357.5835781999922,1357.5835781999922,1357.5835781999922,0,,,0,,,0,,,1,0.027197299990803003,0.027201499993680045,1357.5835781999922,1357.5835781999922,1357.5835781999922,1357.5835781999922,39,A,2024-05-17_12h14.20.030,attentional_competition_task,2022.2.4,144.06544030759147,
positions.xlsx,positions_test.xlsx,positions_test_new.xlsx,stimuli.xlsx,stimuli_new.xlsx,stimuli/Social1.png,stimuli/Social2.png,stimuli/Nonsocial1.png,stimuli/Nonsocial2.png,stimuli/Social3.png,stimuli/Social4.png,stimuli/Nonsocial3.png,stimuli/Nonsocial4.png,,,"(-0.7, -0.5)",cs_neg_ns,"(-0.7, 0.5)",cs_pos_ns,"(0.7, -0.5)",cs_pos_s_new,"(0.7, 0.5)",cs_neg_s,0,0,0,0,,,,,,,,,,,,,,,,,,,,,,,,,,,,,0,1,1,32,2,0,2,0,,,,,,,,,,,,,,,492,reward,,,,,,1358.11829079999,1358.11829079999,1358.11829079999,1358.11829079999,0,,,0,,,1,0.02709699998376891,0.027100599982077256,0,,,1358.11829079999,1358.11829079999,1358.11829079999,1358.11829079999,39,A,2024-05-17_12h14.20.030,attentional_competition_task,2022.2.4,144.06544030759147,
positions.xlsx,positions_test.xlsx,positions_test_new.xlsx,stimuli.xlsx,stimuli_new.xlsx,stimuli/Social1.png,stimuli/Social2.png,stimuli/Nonsocial1.png,stimuli/Nonsocial2.png,stimuli/Social3.png,stimuli/Social4.png,stimuli/Nonsocial3.png,stimuli/Nonsocial4.png,,,"(-0.7, -0.5)",cs_neg_ns,"(-0.7, 0.5)",cs_pos_ns,"(0.7, -0.5)",cs_pos_s_new,"(0.7, 0.5)",cs_neg_s,0,0,0,0,,,,,,,,,,,,,,,,,,,,,,,,,,,,,0,1,1,32,,,,,,,,,,,,,,,,,,,,,,,,,,,,,,,,,,,,,,,,,,,,,,39,A,2024-05-17_12h14.20.030,attentional_competition_task,2022.2.4,144.06544030759147,
positions.xlsx,positions_test.xlsx,positions_test_new.xlsx,stimuli.xlsx,stimuli_new.xlsx,stimuli/Social1.png,stimuli/Social2.png,stimuli/Nonsocial1.png,stimuli/Nonsocial2.png,stimuli/Social3.png,stimuli/Social4.png,stimuli/Nonsocial3.png,stimuli/Nonsocial4.png,,,"(-0.7, -0.5)",cs_pos_ns_new,"(-0.7, 0.5)",cs_pos_s,"(0.7, -0.5)",cs_neg_s,"(0.7, 0.5)",cs_neg_ns,0,0,0,0,,,,,,,,,,,,,,,,,,,,,,,,,,,,,0,2,2,44,0,0,0,0,,,,,,,,,,,,,,,495,reward,,,,,,1364.7082946999872,1364.7082946999872,1364.7082946999872,1364.7082946999872,0,,,1,0.7175989999959711,0.7176027999958023,0,,,0,,,1365.4305077999888,1365.4305077999888,1365.4305077999888,1365.4305077999888,39,A,2024-05-17_12h14.20.030,attentional_competition_task,2022.2.4,144.06544030759147,
positions.xlsx,positions_test.xlsx,positions_test_new.xlsx,stimuli.xlsx,stimuli_new.xlsx,stimuli/Social1.png,stimuli/Social2.png,stimuli/Nonsocial1.png,stimuli/Nonsocial2.png,stimuli/Social3.png,stimuli/Social4.png,stimuli/Nonsocial3.png,stimuli/Nonsocial4.png,,,"(-0.7, -0.5)",cs_pos_ns_new,"(-0.7, 0.5)",cs_pos_s,"(0.7, -0.5)",cs_neg_s,"(0.7, 0.5)",cs_neg_ns,0,0,0,0,,,,,,,,,,,,,,,,,,,,,,,,,,,,,0,2,2,44,1,0,1,0,,,,,,,,,,,,,,,498,reward,,,,,,1365.9582315000007,1365.9582315000007,1365.9582315000007,1365.9582315000007,1,0.027625299990177155,0.0276290999900084,0,,,0,,,0,,,1365.9582315000007,1365.9582315000007,1365.9582315000007,1365.9582315000007,39,A,2024-05-17_12h14.20.030,attentional_competition_task,2022.2.4,144.06544030759147,
positions.xlsx,positions_test.xlsx,positions_test_new.xlsx,stimuli.xlsx,stimuli_new.xlsx,stimuli/Social1.png,stimuli/Social2.png,stimuli/Nonsocial1.png,stimuli/Nonsocial2.png,stimuli/Social3.png,stimuli/Social4.png,stimuli/Nonsocial3.png,stimuli/Nonsocial4.png,,,"(-0.7, -0.5)",cs_pos_ns_new,"(-0.7, 0.5)",cs_pos_s,"(0.7, -0.5)",cs_neg_s,"(0.7, 0.5)",cs_neg_ns,0,0,0,0,,,,,,,,,,,,,,,,,,,,,,,,,,,,,0,2,2,44,2,0,2,0,,,,,,,,,,,,,,,501,reward,,,,,,1366.458219299995,1366.458219299995,1366.458219299995,1366.458219299995,1,0.022675099986372516,0.052594899985706434,0,,,0,,,0,,,1367.222089899995,1367.222089899995,1367.222089899995,1367.222089899995,39,A,2024-05-17_12h14.20.030,attentional_competition_task,2022.2.4,144.06544030759147,
positions.xlsx,positions_test.xlsx,positions_test_new.xlsx,stimuli.xlsx,stimuli_new.xlsx,stimuli/Social1.png,stimuli/Social2.png,stimuli/Nonsocial1.png,stimuli/Nonsocial2.png,stimuli/Social3.png,stimuli/Social4.png,stimuli/Nonsocial3.png,stimuli/Nonsocial4.png,,,"(-0.7, -0.5)",cs_pos_ns_new,"(-0.7, 0.5)",cs_pos_s,"(0.7, -0.5)",cs_neg_s,"(0.7, 0.5)",cs_neg_ns,0,0,0,0,,,,,,,,,,,,,,,,,,,,,,,,,,,,,0,2,2,44,,,,,,,,,,,,,,,,,,,,,,,,,,,,,,,,,,,,,,,,,,,,,,39,A,2024-05-17_12h14.20.030,attentional_competition_task,2022.2.4,144.06544030759147,
positions.xlsx,positions_test.xlsx,positions_test_new.xlsx,stimuli.xlsx,stimuli_new.xlsx,stimuli/Social1.png,stimuli/Social2.png,stimuli/Nonsocial1.png,stimuli/Nonsocial2.png,stimuli/Social3.png,stimuli/Social4.png,stimuli/Nonsocial3.png,stimuli/Nonsocial4.png,,,"(-0.7, -0.5)",cs_neg_s,"(-0.7, 0.5)",cs_pos_ns,"(0.7, -0.5)",cs_neg_ns_new,"(0.7, 0.5)",cs_pos_s,0,0,0,0,,,,,,,,,,,,,,,,,,,,,,,,,,,,,0,3,3,22,0,0,0,0,,,,,,,,,,,,,,,504,reward,,,,,,1373.5343065999914,1373.5343065999914,1373.5343065999914,1373.5343065999914,0,,,0,,,0,,,1,0.8156295999942813,0.8219302999787033,1374.360684299987,1374.360684299987,1374.360684299987,1374.360684299987,39,A,2024-05-17_12h14.20.030,attentional_competition_task,2022.2.4,144.06544030759147,
positions.xlsx,positions_test.xlsx,positions_test_new.xlsx,stimuli.xlsx,stimuli_new.xlsx,stimuli/Social1.png,stimuli/Social2.png,stimuli/Nonsocial1.png,stimuli/Nonsocial2.png,stimuli/Social3.png,stimuli/Social4.png,stimuli/Nonsocial3.png,stimuli/Nonsocial4.png,,,"(-0.7, -0.5)",cs_neg_s,"(-0.7, 0.5)",cs_pos_ns,"(0.7, -0.5)",cs_neg_ns_new,"(0.7, 0.5)",cs_pos_s,0,0,0,0,,,,,,,,,,,,,,,,,,,,,,,,,,,,,0,3,3,22,1,0,1,0,,,,,,,,,,,,,,,501,loss,,,,,,1374.8606593000004,1374.8606593000004,1374.8606593000004,1374.8606593000004,0,,,0,,,1,0.15528550001909025,0.15528940001968294,0,,,1375.013409599982,1375.013409599982,1375.013409599982,1375.013409599982,39,A,2024-05-17_12h14.20.030,attentional_competition_task,2022.2.4,144.06544030759147,
positions.xlsx,positions_test.xlsx,positions_test_new.xlsx,stimuli.xlsx,stimuli_new.xlsx,stimuli/Social1.png,stimuli/Social2.png,stimuli/Nonsocial1.png,stimuli/Nonsocial2.png,stimuli/Social3.png,stimuli/Social4.png,stimuli/Nonsocial3.png,stimuli/Nonsocial4.png,,,"(-0.7, -0.5)",cs_neg_s,"(-0.7, 0.5)",cs_pos_ns,"(0.7, -0.5)",cs_neg_ns_new,"(0.7, 0.5)",cs_pos_s,0,0,0,0,,,,,,,,,,,,,,,,,,,,,,,,,,,,,0,3,3,22,2,0,2,0,,,,,,,,,,,,,,,504,reward,,,,,,1376.0481273999903,1376.0481273999903,1376.0481273999903,1376.0481273999903,0,,,1,0.025315599981695414,0.02531929998076521,0,,,0,,,1376.0481273999903,1376.0481273999903,1376.0481273999903,1376.0481273999903,39,A,2024-05-17_12h14.20.030,attentional_competition_task,2022.2.4,144.06544030759147,
positions.xlsx,positions_test.xlsx,positions_test_new.xlsx,stimuli.xlsx,stimuli_new.xlsx,stimuli/Social1.png,stimuli/Social2.png,stimuli/Nonsocial1.png,stimuli/Nonsocial2.png,stimuli/Social3.png,stimuli/Social4.png,stimuli/Nonsocial3.png,stimuli/Nonsocial4.png,,,"(-0.7, -0.5)",cs_neg_s,"(-0.7, 0.5)",cs_pos_ns,"(0.7, -0.5)",cs_neg_ns_new,"(0.7, 0.5)",cs_pos_s,0,0,0,0,,,,,,,,,,,,,,,,,,,,,,,,,,,,,0,3,3,22,,,,,,,,,,,,,,,,,,,,,,,,,,,,,,,,,,,,,,,,,,,,,,39,A,2024-05-17_12h14.20.030,attentional_competition_task,2022.2.4,144.06544030759147,
positions.xlsx,positions_test.xlsx,positions_test_new.xlsx,stimuli.xlsx,stimuli_new.xlsx,stimuli/Social1.png,stimuli/Social2.png,stimuli/Nonsocial1.png,stimuli/Nonsocial2.png,stimuli/Social3.png,stimuli/Social4.png,stimuli/Nonsocial3.png,stimuli/Nonsocial4.png,,,"(-0.7, -0.5)",cs_pos_ns_new,"(-0.7, 0.5)",cs_neg_ns,"(0.7, -0.5)",cs_neg_s,"(0.7, 0.5)",cs_pos_s,0,0,0,0,,,,,,,,,,,,,,,,,,,,,,,,,,,,,0,4,4,41,0,0,0,0,,,,,,,,,,,,,,,507,reward,,,,,,1381.895107599994,1381.895107599994,1381.895107599994,1381.895107599994,0,,,0,,,0,,,1,0.6201949999958742,0.6201983999926597,1382.5200931,1382.5200931,1382.5200931,1382.5200931,39,A,2024-05-17_12h14.20.030,attentional_competition_task,2022.2.4,144.06544030759147,
positions.xlsx,positions_test.xlsx,positions_test_new.xlsx,stimuli.xlsx,stimuli_new.xlsx,stimuli/Social1.png,stimuli/Social2.png,stimuli/Nonsocial1.png,stimuli/Nonsocial2.png,stimuli/Social3.png,stimuli/Social4.png,stimuli/Nonsocial3.png,stimuli/Nonsocial4.png,,,"(-0.7, -0.5)",cs_pos_ns_new,"(-0.7, 0.5)",cs_neg_ns,"(0.7, -0.5)",cs_neg_s,"(0.7, 0.5)",cs_pos_s,0,0,0,0,,,,,,,,,,,,,,,,,,,,,,,,,,,,,0,4,4,41,1,0,1,0,,,,,,,,,,,,,,,510,reward,,,,,,1383.0200833999843,1383.0200833999843,1383.0200833999843,1383.0200833999843,1,0.15546690000337549,0.15547100000549108,0,,,0,,,1,0.02320339999278076,0.09420259998296387,1383.179813099996,1383.179813099996,1383.179813099996,1383.179813099996,39,A,2024-05-17_12h14.20.030,attentional_competition_task,2022.2.4,144.06544030759147,
positions.xlsx,positions_test.xlsx,positions_test_new.xlsx,stimuli.xlsx,stimuli_new.xlsx,stimuli/Social1.png,stimuli/Social2.png,stimuli/Nonsocial1.png,stimuli/Nonsocial2.png,stimuli/Social3.png,stimuli/Social4.png,stimuli/Nonsocial3.png,stimuli/Nonsocial4.png,,,"(-0.7, -0.5)",cs_pos_ns_new,"(-0.7, 0.5)",cs_neg_ns,"(0.7, -0.5)",cs_neg_s,"(0.7, 0.5)",cs_pos_s,0,0,0,0,,,,,,,,,,,,,,,,,,,,,,,,,,,,,0,4,4,41,2,0,2,0,,,,,,,,,,,,,,,507,loss,,,,,,1383.7144910999923,1383.7144910999923,1383.7144910999923,1383.7144910999923,0,,,1,0.030341099976794794,0.03034469997510314,0,,,0,,,1383.7144910999923,1383.7144910999923,1383.7144910999923,1383.7144910999923,39,A,2024-05-17_12h14.20.030,attentional_competition_task,2022.2.4,144.06544030759147,
positions.xlsx,positions_test.xlsx,positions_test_new.xlsx,stimuli.xlsx,stimuli_new.xlsx,stimuli/Social1.png,stimuli/Social2.png,stimuli/Nonsocial1.png,stimuli/Nonsocial2.png,stimuli/Social3.png,stimuli/Social4.png,stimuli/Nonsocial3.png,stimuli/Nonsocial4.png,,,"(-0.7, -0.5)",cs_pos_ns_new,"(-0.7, 0.5)",cs_neg_ns,"(0.7, -0.5)",cs_neg_s,"(0.7, 0.5)",cs_pos_s,0,0,0,0,,,,,,,,,,,,,,,,,,,,,,,,,,,,,0,4,4,41,,,,,,,,,,,,,,,,,,,,,,,,,,,,,,,,,,,,,,,,,,,,,,39,A,2024-05-17_12h14.20.030,attentional_competition_task,2022.2.4,144.06544030759147,
positions.xlsx,positions_test.xlsx,positions_test_new.xlsx,stimuli.xlsx,stimuli_new.xlsx,stimuli/Social1.png,stimuli/Social2.png,stimuli/Nonsocial1.png,stimuli/Nonsocial2.png,stimuli/Social3.png,stimuli/Social4.png,stimuli/Nonsocial3.png,stimuli/Nonsocial4.png,,,"(-0.7, -0.5)",cs_neg_ns,"(-0.7, 0.5)",cs_neg_s,"(0.7, -0.5)",cs_pos_s,"(0.7, 0.5)",cs_pos_ns,0,0,0,0,,,,,,,,,,,,,,,,,,,,,,,,,,,,,0,5,5,6,0,0,0,0,,,,,,,,,,,,,,,510,reward,,,,,,1390.5961557999835,1390.5961557999835,1390.5961557999835,1390.5961557999835,0,,,0,,,0,,,1,0.6968263000017032,0.6968301000015344,1391.297534399986,1391.297534399986,1391.297534399986,1391.297534399986,39,A,2024-05-17_12h14.20.030,attentional_competition_task,2022.2.4,144.06544030759147,
positions.xlsx,positions_test.xlsx,positions_test_new.xlsx,stimuli.xlsx,stimuli_new.xlsx,stimuli/Social1.png,stimuli/Social2.png,stimuli/Nonsocial1.png,stimuli/Nonsocial2.png,stimuli/Social3.png,stimuli/Social4.png,stimuli/Nonsocial3.png,stimuli/Nonsocial4.png,,,"(-0.7, -0.5)",cs_neg_ns,"(-0.7, 0.5)",cs_neg_s,"(0.7, -0.5)",cs_pos_s,"(0.7, 0.5)",cs_pos_ns,0,0,0,0,,,,,,,,,,,,,,,,,,,,,,,,,,,,,0,5,5,6,1,0,1,0,,,,,,,,,,,,,,,513,reward,,,,,,1391.8252703999751,1391.8252703999751,1391.8252703999751,1391.8252703999751,0,,,0,,,1,0.030509599979268387,0.030513199977576733,0,,,1391.8252703999751,1391.8252703999751,1391.8252703999751,1391.8252703999751,39,A,2024-05-17_12h14.20.030,attentional_competition_task,2022.2.4,144.06544030759147,
positions.xlsx,positions_test.xlsx,positions_test_new.xlsx,stimuli.xlsx,stimuli_new.xlsx,stimuli/Social1.png,stimuli/Social2.png,stimuli/Nonsocial1.png,stimuli/Nonsocial2.png,stimuli/Social3.png,stimuli/Social4.png,stimuli/Nonsocial3.png,stimuli/Nonsocial4.png,,,"(-0.7, -0.5)",cs_neg_ns,"(-0.7, 0.5)",cs_neg_s,"(0.7, -0.5)",cs_pos_s,"(0.7, 0.5)",cs_pos_ns,0,0,0,0,,,,,,,,,,,,,,,,,,,,,,,,,,,,,0,5,5,6,2,0,2,0,,,,,,,,,,,,,,,516,reward,,,,,,1392.3252324999776,1392.3252324999776,1392.3252324999776,1392.3252324999776,0,,,0,,,0,,,0,,,1393.1099537999835,1393.1099537999835,1393.1099537999835,1393.1099537999835,39,A,2024-05-17_12h14.20.030,attentional_competition_task,2022.2.4,144.06544030759147,
positions.xlsx,positions_test.xlsx,positions_test_new.xlsx,stimuli.xlsx,stimuli_new.xlsx,stimuli/Social1.png,stimuli/Social2.png,stimuli/Nonsocial1.png,stimuli/Nonsocial2.png,stimuli/Social3.png,stimuli/Social4.png,stimuli/Nonsocial3.png,stimuli/Nonsocial4.png,,,"(-0.7, -0.5)",cs_neg_ns,"(-0.7, 0.5)",cs_neg_s,"(0.7, -0.5)",cs_pos_s,"(0.7, 0.5)",cs_pos_ns,0,0,0,0,,,,,,,,,,,,,,,,,,,,,,,,,,,,,0,5,5,6,,,,,,,,,,,,,,,,,,,,,,,,,,,,,,,,,,,,,,,,,,,,,,39,A,2024-05-17_12h14.20.030,attentional_competition_task,2022.2.4,144.06544030759147,
positions.xlsx,positions_test.xlsx,positions_test_new.xlsx,stimuli.xlsx,stimuli_new.xlsx,stimuli/Social1.png,stimuli/Social2.png,stimuli/Nonsocial1.png,stimuli/Nonsocial2.png,stimuli/Social3.png,stimuli/Social4.png,stimuli/Nonsocial3.png,stimuli/Nonsocial4.png,,,"(-0.7, -0.5)",cs_neg_s,"(-0.7, 0.5)",cs_neg_ns,"(0.7, -0.5)",cs_pos_ns_new,"(0.7, 0.5)",cs_pos_s,0,0,0,0,,,,,,,,,,,,,,,,,,,,,,,,,,,,,0,6,6,40,0,0,0,0,,,,,,,,,,,,,,,519,reward,,,,,,1398.8596656999725,1398.8596656999725,1398.8596656999725,1398.8596656999725,0,,,0,,,1,0.5034506999945734,0.5034550999989733,0,,,1399.3666217999998,1399.3666217999998,1399.3666217999998,1399.3666217999998,39,A,2024-05-17_12h14.20.030,attentional_competition_task,2022.2.4,144.06544030759147,
positions.xlsx,positions_test.xlsx,positions_test_new.xlsx,stimuli.xlsx,stimuli_new.xlsx,stimuli/Social1.png,stimuli/Social2.png,stimuli/Nonsocial1.png,stimuli/Nonsocial2.png,stimuli/Social3.png,stimuli/Social4.png,stimuli/Nonsocial3.png,stimuli/Nonsocial4.png,,,"(-0.7, -0.5)",cs_neg_s,"(-0.7, 0.5)",cs_neg_ns,"(0.7, -0.5)",cs_pos_ns_new,"(0.7, 0.5)",cs_pos_s,0,0,0,0,,,,,,,,,,,,,,,,,,,,,,,,,,,,,0,6,6,40,1,0,1,0,,,,,,,,,,,,,,,522,reward,,,,,,1399.9013457999972,1399.9013457999972,1399.9013457999972,1399.9013457999972,0,,,0,,,0,,,1,0.02992230001837015,0.029926100018201396,1399.9013457999972,1399.9013457999972,1399.9013457999972,1399.9013457999972,39,A,2024-05-17_12h14.20.030,attentional_competition_task,2022.2.4,144.06544030759147,
positions.xlsx,positions_test.xlsx,positions_test_new.xlsx,stimuli.xlsx,stimuli_new.xlsx,stimuli/Social1.png,stimuli/Social2.png,stimuli/Nonsocial1.png,stimuli/Nonsocial2.png,stimuli/Social3.png,stimuli/Social4.png,stimuli/Nonsocial3.png,stimuli/Nonsocial4.png,,,"(-0.7, -0.5)",cs_neg_s,"(-0.7, 0.5)",cs_neg_ns,"(0.7, -0.5)",cs_pos_ns_new,"(0.7, 0.5)",cs_pos_s,0,0,0,0,,,,,,,,,,,,,,,,,,,,,,,,,,,,,0,6,6,40,2,0,2,0,,,,,,,,,,,,,,,525,reward,,,,,,1400.4082685999747,1400.4082685999747,1400.4082685999747,1400.4082685999747,0,,,0,,,0,,,0,,,1401.3735129999986,1401.3735129999986,1401.3735129999986,1401.3735129999986,39,A,2024-05-17_12h14.20.030,attentional_competition_task,2022.2.4,144.06544030759147,
positions.xlsx,positions_test.xlsx,positions_test_new.xlsx,stimuli.xlsx,stimuli_new.xlsx,stimuli/Social1.png,stimuli/Social2.png,stimuli/Nonsocial1.png,stimuli/Nonsocial2.png,stimuli/Social3.png,stimuli/Social4.png,stimuli/Nonsocial3.png,stimuli/Nonsocial4.png,,,"(-0.7, -0.5)",cs_neg_s,"(-0.7, 0.5)",cs_neg_ns,"(0.7, -0.5)",cs_pos_ns_new,"(0.7, 0.5)",cs_pos_s,0,0,0,0,,,,,,,,,,,,,,,,,,,,,,,,,,,,,0,6,6,40,,,,,,,,,,,,,,,,,,,,,,,,,,,,,,,,,,,,,,,,,,,,,,39,A,2024-05-17_12h14.20.030,attentional_competition_task,2022.2.4,144.06544030759147,
positions.xlsx,positions_test.xlsx,positions_test_new.xlsx,stimuli.xlsx,stimuli_new.xlsx,stimuli/Social1.png,stimuli/Social2.png,stimuli/Nonsocial1.png,stimuli/Nonsocial2.png,stimuli/Social3.png,stimuli/Social4.png,stimuli/Nonsocial3.png,stimuli/Nonsocial4.png,,,"(-0.7, -0.5)",cs_neg_s,"(-0.7, 0.5)",cs_pos_s,"(0.7, -0.5)",cs_neg_ns,"(0.7, 0.5)",cs_pos_ns,0,0,0,0,,,,,,,,,,,,,,,,,,,,,,,,,,,,,0,7,7,7,0,0,0,0,,,,,,,,,,,,,,,528,reward,,,,,,1407.7274355999834,1407.7274355999834,1407.7274355999834,1407.7274355999834,0,,,1,0.5442072000005282,0.5442104999965522,0,,,0,,,1408.2829859999765,1408.2829859999765,1408.2829859999765,1408.2829859999765,39,A,2024-05-17_12h14.20.030,attentional_competition_task,2022.2.4,144.06544030759147,
positions.xlsx,positions_test.xlsx,positions_test_new.xlsx,stimuli.xlsx,stimuli_new.xlsx,stimuli/Social1.png,stimuli/Social2.png,stimuli/Nonsocial1.png,stimuli/Nonsocial2.png,stimuli/Social3.png,stimuli/Social4.png,stimuli/Nonsocial3.png,stimuli/Nonsocial4.png,,,"(-0.7, -0.5)",cs_neg_s,"(-0.7, 0.5)",cs_pos_s,"(0.7, -0.5)",cs_neg_ns,"(0.7, 0.5)",cs_pos_ns,0,0,0,0,,,,,,,,,,,,,,,,,,,,,,,,,,,,,0,7,7,7,1,0,1,0,,,,,,,,,,,,,,,531,reward,,,,,,1408.8107021999895,1408.8107021999895,1408.8107021999895,1408.8107021999895,0,,,0,,,0,,,1,0.02798740001162514,0.027991200011456385,1408.8107021999895,1408.8107021999895,1408.8107021999895,1408.8107021999895,39,A,2024-05-17_12h14.20.030,attentional_competition_task,2022.2.4,144.06544030759147,
positions.xlsx,positions_test.xlsx,positions_test_new.xlsx,stimuli.xlsx,stimuli_new.xlsx,stimuli/Social1.png,stimuli/Social2.png,stimuli/Nonsocial1.png,stimuli/Nonsocial2.png,stimuli/Social3.png,stimuli/Social4.png,stimuli/Nonsocial3.png,stimuli/Nonsocial4.png,,,"(-0.7, -0.5)",cs_neg_s,"(-0.7, 0.5)",cs_pos_s,"(0.7, -0.5)",cs_neg_ns,"(0.7, 0.5)",cs_pos_ns,0,0,0,0,,,,,,,,,,,,,,,,,,,,,,,,,,,,,0,7,7,7,2,0,2,0,,,,,,,,,,,,,,,534,reward,,,,,,1409.310692799976,1409.310692799976,1409.310692799976,1409.310692799976,0,,,0,,,0,,,0,,,1410.2481623999774,1410.2481623999774,1410.2481623999774,1410.2481623999774,39,A,2024-05-17_12h14.20.030,attentional_competition_task,2022.2.4,144.06544030759147,
positions.xlsx,positions_test.xlsx,positions_test_new.xlsx,stimuli.xlsx,stimuli_new.xlsx,stimuli/Social1.png,stimuli/Social2.png,stimuli/Nonsocial1.png,stimuli/Nonsocial2.png,stimuli/Social3.png,stimuli/Social4.png,stimuli/Nonsocial3.png,stimuli/Nonsocial4.png,,,"(-0.7, -0.5)",cs_neg_s,"(-0.7, 0.5)",cs_pos_s,"(0.7, -0.5)",cs_neg_ns,"(0.7, 0.5)",cs_pos_ns,0,0,0,0,,,,,,,,,,,,,,,,,,,,,,,,,,,,,0,7,7,7,,,,,,,,,,,,,,,,,,,,,,,,,,,,,,,,,,,,,,,,,,,,,,39,A,2024-05-17_12h14.20.030,attentional_competition_task,2022.2.4,144.06544030759147,
positions.xlsx,positions_test.xlsx,positions_test_new.xlsx,stimuli.xlsx,stimuli_new.xlsx,stimuli/Social1.png,stimuli/Social2.png,stimuli/Nonsocial1.png,stimuli/Nonsocial2.png,stimuli/Social3.png,stimuli/Social4.png,stimuli/Nonsocial3.png,stimuli/Nonsocial4.png,,,"(-0.7, -0.5)",cs_neg_ns,"(-0.7, 0.5)",cs_pos_s_new,"(0.7, -0.5)",cs_pos_ns,"(0.7, 0.5)",cs_neg_s,0,0,0,0,,,,,,,,,,,,,,,,,,,,,,,,,,,,,0,8,8,35,0,0,0,0,,,,,,,,,,,,,,,537,reward,,,,,,1416.275675199984,1416.275675199984,1416.275675199984,1416.275675199984,0,,,0,,,1,0.6759975999884773,0.6760009999852628,0,,,1416.9562734999927,1416.9562734999927,1416.9562734999927,1416.9562734999927,39,A,2024-05-17_12h14.20.030,attentional_competition_task,2022.2.4,144.06544030759147,
positions.xlsx,positions_test.xlsx,positions_test_new.xlsx,stimuli.xlsx,stimuli_new.xlsx,stimuli/Social1.png,stimuli/Social2.png,stimuli/Nonsocial1.png,stimuli/Nonsocial2.png,stimuli/Social3.png,stimuli/Social4.png,stimuli/Nonsocial3.png,stimuli/Nonsocial4.png,,,"(-0.7, -0.5)",cs_neg_ns,"(-0.7, 0.5)",cs_pos_s_new,"(0.7, -0.5)",cs_pos_ns,"(0.7, 0.5)",cs_neg_s,0,0,0,0,,,,,,,,,,,,,,,,,,,,,,,,,,,,,0,8,8,35,1,0,1,0,,,,,,,,,,,,,,,540,reward,,,,,,1417.4909469999839,1417.4909469999839,1417.4909469999839,1417.4909469999839,0,,,1,0.028699399990728125,0.0287032000196632,0,,,0,,,1417.4909469999839,1417.4909469999839,1417.4909469999839,1417.4909469999839,39,A,2024-05-17_12h14.20.030,attentional_competition_task,2022.2.4,144.06544030759147,
