posFile,posFileTest,posFileTestNew,stimFile,stimFileNew,cs_neg_s,cs_pos_s,cs_neg_ns,cs_pos_ns,cs_neg_s_new,cs_pos_s_new,cs_neg_ns_new,cs_pos_ns_new,stim,position,position1,stim1,position2,stim2,position3,stim3,position4,stim4,blocks.thisRepN,blocks.thisTrialN,blocks.thisN,blocks.thisIndex,ratingtrials1.thisRepN,ratingtrials1.thisTrialN,ratingtrials1.thisN,ratingtrials1.thisIndex,search_task_trials.thisRepN,search_task_trials.thisTrialN,search_task_trials.thisN,search_task_trials.thisIndex,learning_trials.thisRepN,learning_trials.thisTrialN,learning_trials.thisN,learning_trials.thisIndex,trials.thisRepN,trials.thisTrialN,trials.thisN,trials.thisIndex,ratingtrials2.thisRepN,ratingtrials2.thisTrialN,ratingtrials2.thisN,ratingtrials2.thisIndex,testtrials.thisRepN,testtrials.thisTrialN,testtrials.thisN,testtrials.thisIndex,loop_test.thisRepN,loop_test.thisTrialN,loop_test.thisN,loop_test.thisIndex,testtrials_novelty.thisRepN,testtrials_novelty.thisTrialN,testtrials_novelty.thisN,testtrials_novelty.thisIndex,loop_test_novelty.thisRepN,loop_test_novelty.thisTrialN,loop_test_novelty.thisN,loop_test_novelty.thisIndex,ratingtrials3.thisRepN,ratingtrials3.thisTrialN,ratingtrials3.thisN,ratingtrials3.thisIndex,textStart.started,textStartExp.started,imageRating.started,sliderStim.response,sliderStim.rt,textStartSearch.started,target_positions,distractor_positions,textStartTask.started,image.started,score,outcome,roi.numLooks,roi.timesOn,roi.timesOff,imageFeedback.started,textTestInstr.started,test_image1.started,test_image2.started,test_image3.started,test_image4.started,test_roi1.numLooks,test_roi1.timesOn,test_roi1.timesOff,test_roi2.numLooks,test_roi2.timesOn,test_roi2.timesOff,test_roi3.numLooks,test_roi3.timesOn,test_roi3.timesOff,test_roi4.numLooks,test_roi4.timesOn,test_roi4.timesOff,test_image_feedback1.started,test_image_feedback2.started,test_iamge_feedback3.started,test_iamge_feedback4.started,participant,group,date,expName,psychopyVersion,frameRate,
positions.xlsx,positions_test.xlsx,positions_test_new.xlsx,stimuli.xlsx,stimuli_new.xlsx,stimuli/Social4.png,stimuli/Social3.png,stimuli/Nonsocial4.png,stimuli/Nonsocial3.png,stimuli/Social2.png,stimuli/Social1.png,stimuli/Nonsocial2.png,stimuli/Nonsocial1.png,cs_neg_s,,,,,,,,,,0,0,0,0,0,0,0,0,,,,,,,,,,,,,,,,,,,,,,,,,,,,,,,,,,,,,13.671800200012513,97.4174804999493,105.68102299992461,5.0,13.74838110001292,,,,,,,,,,,,,,,,,,,,,,,,,,,,,,,,,48,D,2024-05-22_13h14.55.523,attentional_competition_task,2022.2.4,143.96132612257347,
positions.xlsx,positions_test.xlsx,positions_test_new.xlsx,stimuli.xlsx,stimuli_new.xlsx,stimuli/Social4.png,stimuli/Social3.png,stimuli/Nonsocial4.png,stimuli/Nonsocial3.png,stimuli/Social2.png,stimuli/Social1.png,stimuli/Nonsocial2.png,stimuli/Nonsocial1.png,cs_neg_ns,,,,,,,,,,0,0,0,0,0,1,1,1,,,,,,,,,,,,,,,,,,,,,,,,,,,,,,,,,,,,,,,120.85400129994377,6.0,3.8513390000443906,,,,,,,,,,,,,,,,,,,,,,,,,,,,,,,,,48,D,2024-05-22_13h14.55.523,attentional_competition_task,2022.2.4,143.96132612257347,
positions.xlsx,positions_test.xlsx,positions_test_new.xlsx,stimuli.xlsx,stimuli_new.xlsx,stimuli/Social4.png,stimuli/Social3.png,stimuli/Nonsocial4.png,stimuli/Nonsocial3.png,stimuli/Social2.png,stimuli/Social1.png,stimuli/Nonsocial2.png,stimuli/Nonsocial1.png,cs_pos_ns,,,,,,,,,,0,0,0,0,0,2,2,3,,,,,,,,,,,,,,,,,,,,,,,,,,,,,,,,,,,,,,,125.10382820002269,6.0,1.6945762999821454,,,,,,,,,,,,,,,,,,,,,,,,,,,,,,,,,48,D,2024-05-22_13h14.55.523,attentional_competition_task,2022.2.4,143.96132612257347,
positions.xlsx,positions_test.xlsx,positions_test_new.xlsx,stimuli.xlsx,stimuli_new.xlsx,stimuli/Social4.png,stimuli/Social3.png,stimuli/Nonsocial4.png,stimuli/Nonsocial3.png,stimuli/Social2.png,stimuli/Social1.png,stimuli/Nonsocial2.png,stimuli/Nonsocial1.png,cs_pos_s,,,,,,,,,,0,0,0,0,0,3,3,2,,,,,,,,,,,,,,,,,,,,,,,,,,,,,,,,,,,,,,,127.04824039991945,5.0,3.349597500055097,,,,,,,,,,,,,,,,,,,,,,,,,,,,,,,,,48,D,2024-05-22_13h14.55.523,attentional_competition_task,2022.2.4,143.96132612257347,
positions.xlsx,positions_test.xlsx,positions_test_new.xlsx,stimuli.xlsx,stimuli_new.xlsx,stimuli/Social4.png,stimuli/Social3.png,stimuli/Nonsocial4.png,stimuli/Nonsocial3.png,stimuli/Social2.png,stimuli/Social1.png,stimuli/Nonsocial2.png,stimuli/Nonsocial1.png,,,,,,,,,,,0,0,0,0,,,,,0,0,0,0,,,,,,,,,,,,,,,,,,,,,,,,,,,,,,,,,,,,,,130.60362029995304,"[[0.22499999999999998, -0.8], [0.22499999999999998, 0.19999999999999996], [-0.9, 0.7], [0.45000000000000007, 0.19999999999999996], [0.22499999999999998, -0.30000000000000004], [-0.45, 0.19999999999999996], [0.0, 0.19999999999999996], [-0.675, -0.30000000000000004], [-0.22499999999999998, 0.7], [0.9, -0.30000000000000004], [0.6749999999999999, 0.19999999999999996], [0.6749999999999999, -0.30000000000000004], [-0.45, -0.8], [0.0, 0.7], [-0.45, -0.30000000000000004]]","[[-0.22499999999999998, -0.8], [-0.675, -0.8], [-0.9, -0.8], [0.6749999999999999, -0.8], [0.9, 0.19999999999999996], [0.0, -0.30000000000000004], [-0.675, 0.7], [-0.22499999999999998, -0.30000000000000004], [0.0, -0.8], [-0.45, 0.7], [0.45000000000000007, -0.8], [0.22499999999999998, 0.7], [0.45000000000000007, -0.30000000000000004], [0.9, -0.8], [0.6749999999999999, 0.7]]",,,,,,,,,,,,,,,,,,,,,,,,,,,,,,48,D,2024-05-22_13h14.55.523,attentional_competition_task,2022.2.4,143.96132612257347,
positions.xlsx,positions_test.xlsx,positions_test_new.xlsx,stimuli.xlsx,stimuli_new.xlsx,stimuli/Social4.png,stimuli/Social3.png,stimuli/Nonsocial4.png,stimuli/Nonsocial3.png,stimuli/Social2.png,stimuli/Social1.png,stimuli/Nonsocial2.png,stimuli/Nonsocial1.png,,,,,,,,,,,0,0,0,0,,,,,1,0,1,0,,,,,,,,,,,,,,,,,,,,,,,,,,,,,,,,,,,,,,,"[[0.0, -0.30000000000000004], [0.45000000000000007, 0.19999999999999996], [0.9, -0.8], [-0.675, -0.30000000000000004], [-0.9, -0.30000000000000004], [0.45000000000000007, -0.8], [0.6749999999999999, -0.8], [-0.9, 0.7], [0.45000000000000007, 0.7], [0.6749999999999999, 0.7], [-0.45, -0.30000000000000004], [0.22499999999999998, -0.8], [0.22499999999999998, 0.7], [-0.22499999999999998, 0.7], [-0.9, 0.19999999999999996]]","[[0.6749999999999999, 0.19999999999999996], [0.45000000000000007, -0.30000000000000004], [0.22499999999999998, 0.19999999999999996], [-0.22499999999999998, -0.8], [0.22499999999999998, -0.30000000000000004], [0.9, 0.7], [0.9, 0.19999999999999996], [-0.45, 0.19999999999999996], [0.9, -0.30000000000000004], [0.0, -0.8], [-0.675, 0.19999999999999996], [-0.675, 0.7], [-0.22499999999999998, -0.30000000000000004], [-0.9, -0.8], [0.0, 0.7]]",,,,,,,,,,,,,,,,,,,,,,,,,,,,,,48,D,2024-05-22_13h14.55.523,attentional_competition_task,2022.2.4,143.96132612257347,
positions.xlsx,positions_test.xlsx,positions_test_new.xlsx,stimuli.xlsx,stimuli_new.xlsx,stimuli/Social4.png,stimuli/Social3.png,stimuli/Nonsocial4.png,stimuli/Nonsocial3.png,stimuli/Social2.png,stimuli/Social1.png,stimuli/Nonsocial2.png,stimuli/Nonsocial1.png,cs_pos_s,"(-0.7, -0.5)",,,,,,,,,0,0,0,0,,,,,,,,,0,0,0,5,,,,,,,,,,,,,,,,,,,,,,,,,,,,,,,,,,,,,211.33643289993051,240.42547549994197,3,reward,1,0.29224629991222173,0.29224999994039536,240.73104919993784,,,,,,,,,,,,,,,,,,,,,,48,D,2024-05-22_13h14.55.523,attentional_competition_task,2022.2.4,143.96132612257347,
positions.xlsx,positions_test.xlsx,positions_test_new.xlsx,stimuli.xlsx,stimuli_new.xlsx,stimuli/Social4.png,stimuli/Social3.png,stimuli/Nonsocial4.png,stimuli/Nonsocial3.png,stimuli/Social2.png,stimuli/Social1.png,stimuli/Nonsocial2.png,stimuli/Nonsocial1.png,cs_neg_s,"(-0.7, -0.5)",,,,,,,,,0,0,0,0,,,,,,,,,0,1,1,1,,,,,,,,,,,,,,,,,,,,,,,,,,,,,,,,,,,,,,248.47378320002463,0,loss,1,0.2780265000183135,0.27803020004648715,248.76542850001715,,,,,,,,,,,,,,,,,,,,,,48,D,2024-05-22_13h14.55.523,attentional_competition_task,2022.2.4,143.96132612257347,
positions.xlsx,positions_test.xlsx,positions_test_new.xlsx,stimuli.xlsx,stimuli_new.xlsx,stimuli/Social4.png,stimuli/Social3.png,stimuli/Nonsocial4.png,stimuli/Nonsocial3.png,stimuli/Social2.png,stimuli/Social1.png,stimuli/Nonsocial2.png,stimuli/Nonsocial1.png,cs_pos_s,"(0.7, 0.5)",,,,,,,,,0,0,0,0,,,,,,,,,0,2,2,6,,,,,,,,,,,,,,,,,,,,,,,,,,,,,,,,,,,,,,256.3832085999893,3,reward,1,0.3059149000328034,0.3059185000602156,256.6956960000098,,,,,,,,,,,,,,,,,,,,,,48,D,2024-05-22_13h14.55.523,attentional_competition_task,2022.2.4,143.96132612257347,
positions.xlsx,positions_test.xlsx,positions_test_new.xlsx,stimuli.xlsx,stimuli_new.xlsx,stimuli/Social4.png,stimuli/Social3.png,stimuli/Nonsocial4.png,stimuli/Nonsocial3.png,stimuli/Social2.png,stimuli/Social1.png,stimuli/Nonsocial2.png,stimuli/Nonsocial1.png,cs_neg_ns,"(-0.7, 0.5)",,,,,,,,,0,0,0,0,,,,,,,,,0,3,3,8,,,,,,,,,,,,,,,,,,,,,,,,,,,,,,,,,,,,,,264.73700740002096,0,loss,1,0.5554808999877423,0.5554847000166774,265.29952889995184,,,,,,,,,,,,,,,,,,,,,,48,D,2024-05-22_13h14.55.523,attentional_competition_task,2022.2.4,143.96132612257347,
positions.xlsx,positions_test.xlsx,positions_test_new.xlsx,stimuli.xlsx,stimuli_new.xlsx,stimuli/Social4.png,stimuli/Social3.png,stimuli/Nonsocial4.png,stimuli/Nonsocial3.png,stimuli/Social2.png,stimuli/Social1.png,stimuli/Nonsocial2.png,stimuli/Nonsocial1.png,cs_neg_ns,"(0.7, 0.5)",,,,,,,,,0,0,0,0,,,,,,,,,0,4,4,10,,,,,,,,,,,,,,,,,,,,,,,,,,,,,,,,,,,,,,272.3686676999787,-3,loss,1,0.47223200008738786,0.4722360000014305,272.84779059991706,,,,,,,,,,,,,,,,,,,,,,48,D,2024-05-22_13h14.55.523,attentional_competition_task,2022.2.4,143.96132612257347,
positions.xlsx,positions_test.xlsx,positions_test_new.xlsx,stimuli.xlsx,stimuli_new.xlsx,stimuli/Social4.png,stimuli/Social3.png,stimuli/Nonsocial4.png,stimuli/Nonsocial3.png,stimuli/Social2.png,stimuli/Social1.png,stimuli/Nonsocial2.png,stimuli/Nonsocial1.png,cs_pos_s,"(0.7, -0.5)",,,,,,,,,0,0,0,0,,,,,,,,,0,5,5,7,,,,,,,,,,,,,,,,,,,,,,,,,,,,,,,,,,,,,,280.86830199998803,0,reward,1,0.4652664000168443,0.4652833000291139,281.34052249998786,,,,,,,,,,,,,,,,,,,,,,48,D,2024-05-22_13h14.55.523,attentional_competition_task,2022.2.4,143.96132612257347,
positions.xlsx,positions_test.xlsx,positions_test_new.xlsx,stimuli.xlsx,stimuli_new.xlsx,stimuli/Social4.png,stimuli/Social3.png,stimuli/Nonsocial4.png,stimuli/Nonsocial3.png,stimuli/Social2.png,stimuli/Social1.png,stimuli/Nonsocial2.png,stimuli/Nonsocial1.png,cs_pos_ns,"(-0.7, 0.5)",,,,,,,,,0,0,0,0,,,,,,,,,0,6,6,12,,,,,,,,,,,,,,,,,,,,,,,,,,,,,,,,,,,,,,289.30550469993614,3,reward,1,1.465504299965687,1.4655077999923378,290.77761599991936,,,,,,,,,,,,,,,,,,,,,,48,D,2024-05-22_13h14.55.523,attentional_competition_task,2022.2.4,143.96132612257347,
positions.xlsx,positions_test.xlsx,positions_test_new.xlsx,stimuli.xlsx,stimuli_new.xlsx,stimuli/Social4.png,stimuli/Social3.png,stimuli/Nonsocial4.png,stimuli/Nonsocial3.png,stimuli/Social2.png,stimuli/Social1.png,stimuli/Nonsocial2.png,stimuli/Nonsocial1.png,cs_neg_s,"(0.7, 0.5)",,,,,,,,,0,0,0,0,,,,,,,,,0,7,7,2,,,,,,,,,,,,,,,,,,,,,,,,,,,,,,,,,,,,,,297.3815656999359,3,none,0,,,300.395302799996,,,,,,,,,,,,,,,,,,,,,,48,D,2024-05-22_13h14.55.523,attentional_competition_task,2022.2.4,143.96132612257347,
positions.xlsx,positions_test.xlsx,positions_test_new.xlsx,stimuli.xlsx,stimuli_new.xlsx,stimuli/Social4.png,stimuli/Social3.png,stimuli/Nonsocial4.png,stimuli/Nonsocial3.png,stimuli/Social2.png,stimuli/Social1.png,stimuli/Nonsocial2.png,stimuli/Nonsocial1.png,cs_pos_s,"(-0.7, 0.5)",,,,,,,,,0,0,0,0,,,,,,,,,0,8,8,4,,,,,,,,,,,,,,,,,,,,,,,,,,,,,,,,,,,,,,308.3811532999389,6,reward,1,1.0559404999949038,1.0559440000215545,309.4435544000007,,,,,,,,,,,,,,,,,,,,,,48,D,2024-05-22_13h14.55.523,attentional_competition_task,2022.2.4,143.96132612257347,
positions.xlsx,positions_test.xlsx,positions_test_new.xlsx,stimuli.xlsx,stimuli_new.xlsx,stimuli/Social4.png,stimuli/Social3.png,stimuli/Nonsocial4.png,stimuli/Nonsocial3.png,stimuli/Social2.png,stimuli/Social1.png,stimuli/Nonsocial2.png,stimuli/Nonsocial1.png,cs_pos_ns,"(-0.7, -0.5)",,,,,,,,,0,0,0,0,,,,,,,,,0,9,9,13,,,,,,,,,,,,,,,,,,,,,,,,,,,,,,,,,,,,,,317.40154230000917,9,reward,1,1.1809348000679165,1.180938700097613,318.5890191999497,,,,,,,,,,,,,,,,,,,,,,48,D,2024-05-22_13h14.55.523,attentional_competition_task,2022.2.4,143.96132612257347,
positions.xlsx,positions_test.xlsx,positions_test_new.xlsx,stimuli.xlsx,stimuli_new.xlsx,stimuli/Social4.png,stimuli/Social3.png,stimuli/Nonsocial4.png,stimuli/Nonsocial3.png,stimuli/Social2.png,stimuli/Social1.png,stimuli/Nonsocial2.png,stimuli/Nonsocial1.png,cs_pos_ns,"(0.7, 0.5)",,,,,,,,,0,0,0,0,,,,,,,,,0,10,10,14,,,,,,,,,,,,,,,,,,,,,,,,,,,,,,,,,,,,,,326.1026001999853,12,reward,1,1.2222647999878973,1.2222684000153095,327.33166399993934,,,,,,,,,,,,,,,,,,,,,,48,D,2024-05-22_13h14.55.523,attentional_competition_task,2022.2.4,143.96132612257347,
positions.xlsx,positions_test.xlsx,positions_test_new.xlsx,stimuli.xlsx,stimuli_new.xlsx,stimuli/Social4.png,stimuli/Social3.png,stimuli/Nonsocial4.png,stimuli/Nonsocial3.png,stimuli/Social2.png,stimuli/Social1.png,stimuli/Nonsocial2.png,stimuli/Nonsocial1.png,cs_neg_ns,"(0.7, -0.5)",,,,,,,,,0,0,0,0,,,,,,,,,0,11,11,11,,,,,,,,,,,,,,,,,,,,,,,,,,,,,,,,,,,,,,334.94251680001616,12,none,0,,,337.9563003999647,,,,,,,,,,,,,,,,,,,,,,48,D,2024-05-22_13h14.55.523,attentional_competition_task,2022.2.4,143.96132612257347,
positions.xlsx,positions_test.xlsx,positions_test_new.xlsx,stimuli.xlsx,stimuli_new.xlsx,stimuli/Social4.png,stimuli/Social3.png,stimuli/Nonsocial4.png,stimuli/Nonsocial3.png,stimuli/Social2.png,stimuli/Social1.png,stimuli/Nonsocial2.png,stimuli/Nonsocial1.png,cs_neg_s,"(-0.7, 0.5)",,,,,,,,,0,0,0,0,,,,,,,,,0,12,12,0,,,,,,,,,,,,,,,,,,,,,,,,,,,,,,,,,,,,,,345.40735509991646,12,none,0,,,348.4142033000244,,,,,,,,,,,,,,,,,,,,,,48,D,2024-05-22_13h14.55.523,attentional_competition_task,2022.2.4,143.96132612257347,
positions.xlsx,positions_test.xlsx,positions_test_new.xlsx,stimuli.xlsx,stimuli_new.xlsx,stimuli/Social4.png,stimuli/Social3.png,stimuli/Nonsocial4.png,stimuli/Nonsocial3.png,stimuli/Social2.png,stimuli/Social1.png,stimuli/Nonsocial2.png,stimuli/Nonsocial1.png,cs_neg_s,"(0.7, -0.5)",,,,,,,,,0,0,0,0,,,,,,,,,0,13,13,3,,,,,,,,,,,,,,,,,,,,,,,,,,,,,,,,,,,,,,356.2472040000139,12,none,0,,,359.25403569999617,,,,,,,,,,,,,,,,,,,,,,48,D,2024-05-22_13h14.55.523,attentional_competition_task,2022.2.4,143.96132612257347,
positions.xlsx,positions_test.xlsx,positions_test_new.xlsx,stimuli.xlsx,stimuli_new.xlsx,stimuli/Social4.png,stimuli/Social3.png,stimuli/Nonsocial4.png,stimuli/Nonsocial3.png,stimuli/Social2.png,stimuli/Social1.png,stimuli/Nonsocial2.png,stimuli/Nonsocial1.png,cs_neg_ns,"(-0.7, -0.5)",,,,,,,,,0,0,0,0,,,,,,,,,0,14,14,9,,,,,,,,,,,,,,,,,,,,,,,,,,,,,,,,,,,,,,366.8995557000162,12,none,0,,,369.9133128999965,,,,,,,,,,,,,,,,,,,,,,48,D,2024-05-22_13h14.55.523,attentional_competition_task,2022.2.4,143.96132612257347,
positions.xlsx,positions_test.xlsx,positions_test_new.xlsx,stimuli.xlsx,stimuli_new.xlsx,stimuli/Social4.png,stimuli/Social3.png,stimuli/Nonsocial4.png,stimuli/Nonsocial3.png,stimuli/Social2.png,stimuli/Social1.png,stimuli/Nonsocial2.png,stimuli/Nonsocial1.png,cs_pos_ns,"(0.7, -0.5)",,,,,,,,,0,0,0,0,,,,,,,,,0,15,15,15,,,,,,,,,,,,,,,,,,,,,,,,,,,,,,,,,,,,,,377.0588947000215,15,reward,1,1.8055039999308065,1.8055074999574572,378.8712725000223,,,,,,,,,,,,,,,,,,,,,,48,D,2024-05-22_13h14.55.523,attentional_competition_task,2022.2.4,143.96132612257347,
positions.xlsx,positions_test.xlsx,positions_test_new.xlsx,stimuli.xlsx,stimuli_new.xlsx,stimuli/Social4.png,stimuli/Social3.png,stimuli/Nonsocial4.png,stimuli/Nonsocial3.png,stimuli/Social2.png,stimuli/Social1.png,stimuli/Nonsocial2.png,stimuli/Nonsocial1.png,cs_neg_s,"(-0.7, 0.5)",,,,,,,,,0,0,0,0,,,,,,,,,1,0,16,0,,,,,,,,,,,,,,,,,,,,,,,,,,,,,,,,,,,,,,385.72518930002116,15,none,0,,,388.7389688999392,,,,,,,,,,,,,,,,,,,,,,48,D,2024-05-22_13h14.55.523,attentional_competition_task,2022.2.4,143.96132612257347,
positions.xlsx,positions_test.xlsx,positions_test_new.xlsx,stimuli.xlsx,stimuli_new.xlsx,stimuli/Social4.png,stimuli/Social3.png,stimuli/Nonsocial4.png,stimuli/Nonsocial3.png,stimuli/Social2.png,stimuli/Social1.png,stimuli/Nonsocial2.png,stimuli/Nonsocial1.png,cs_pos_ns,"(0.7, -0.5)",,,,,,,,,0,0,0,0,,,,,,,,,1,1,17,15,,,,,,,,,,,,,,,,,,,,,,,,,,,,,,,,,,,,,,396.64835819997825,18,reward,1,1.257355900015682,1.2573595000430942,397.9121729999315,,,,,,,,,,,,,,,,,,,,,,48,D,2024-05-22_13h14.55.523,attentional_competition_task,2022.2.4,143.96132612257347,
positions.xlsx,positions_test.xlsx,positions_test_new.xlsx,stimuli.xlsx,stimuli_new.xlsx,stimuli/Social4.png,stimuli/Social3.png,stimuli/Nonsocial4.png,stimuli/Nonsocial3.png,stimuli/Social2.png,stimuli/Social1.png,stimuli/Nonsocial2.png,stimuli/Nonsocial1.png,cs_pos_s,"(0.7, 0.5)",,,,,,,,,0,0,0,0,,,,,,,,,1,2,18,6,,,,,,,,,,,,,,,,,,,,,,,,,,,,,,,,,,,,,,405.4257783999201,21,reward,1,0.7212880000006407,0.721291699912399,406.154931499972,,,,,,,,,,,,,,,,,,,,,,48,D,2024-05-22_13h14.55.523,attentional_competition_task,2022.2.4,143.96132612257347,
positions.xlsx,positions_test.xlsx,positions_test_new.xlsx,stimuli.xlsx,stimuli_new.xlsx,stimuli/Social4.png,stimuli/Social3.png,stimuli/Nonsocial4.png,stimuli/Nonsocial3.png,stimuli/Social2.png,stimuli/Social1.png,stimuli/Nonsocial2.png,stimuli/Nonsocial1.png,cs_pos_ns,"(0.7, 0.5)",,,,,,,,,0,0,0,0,,,,,,,,,1,3,19,14,,,,,,,,,,,,,,,,,,,,,,,,,,,,,,,,,,,,,,413.6476423999993,24,reward,1,0.8891030999366194,0.8959501000354066,414.55043209996074,,,,,,,,,,,,,,,,,,,,,,48,D,2024-05-22_13h14.55.523,attentional_competition_task,2022.2.4,143.96132612257347,
positions.xlsx,positions_test.xlsx,positions_test_new.xlsx,stimuli.xlsx,stimuli_new.xlsx,stimuli/Social4.png,stimuli/Social3.png,stimuli/Nonsocial4.png,stimuli/Nonsocial3.png,stimuli/Social2.png,stimuli/Social1.png,stimuli/Nonsocial2.png,stimuli/Nonsocial1.png,cs_neg_ns,"(0.7, -0.5)",,,,,,,,,0,0,0,0,,,,,,,,,1,4,20,11,,,,,,,,,,,,,,,,,,,,,,,,,,,,,,,,,,,,,,422.72367139998823,24,none,0,,,425.73754479992203,,,,,,,,,,,,,,,,,,,,,,48,D,2024-05-22_13h14.55.523,attentional_competition_task,2022.2.4,143.96132612257347,
positions.xlsx,positions_test.xlsx,positions_test_new.xlsx,stimuli.xlsx,stimuli_new.xlsx,stimuli/Social4.png,stimuli/Social3.png,stimuli/Nonsocial4.png,stimuli/Nonsocial3.png,stimuli/Social2.png,stimuli/Social1.png,stimuli/Nonsocial2.png,stimuli/Nonsocial1.png,cs_pos_ns,"(-0.7, 0.5)",,,,,,,,,0,0,0,0,,,,,,,,,1,5,21,12,,,,,,,,,,,,,,,,,,,,,,,,,,,,,,,,,,,,,,432.5496612000279,27,reward,1,1.1051912000402808,1.1051951000699773,433.6607514999341,,,,,,,,,,,,,,,,,,,,,,48,D,2024-05-22_13h14.55.523,attentional_competition_task,2022.2.4,143.96132612257347,
positions.xlsx,positions_test.xlsx,positions_test_new.xlsx,stimuli.xlsx,stimuli_new.xlsx,stimuli/Social4.png,stimuli/Social3.png,stimuli/Nonsocial4.png,stimuli/Nonsocial3.png,stimuli/Social2.png,stimuli/Social1.png,stimuli/Nonsocial2.png,stimuli/Nonsocial1.png,cs_pos_s,"(-0.7, -0.5)",,,,,,,,,0,0,0,0,,,,,,,,,1,6,22,5,,,,,,,,,,,,,,,,,,,,,,,,,,,,,,,,,,,,,,441.17433539999183,30,reward,1,0.6671872000442818,0.6671908999560401,441.8479301999323,,,,,,,,,,,,,,,,,,,,,,48,D,2024-05-22_13h14.55.523,attentional_competition_task,2022.2.4,143.96132612257347,
positions.xlsx,positions_test.xlsx,positions_test_new.xlsx,stimuli.xlsx,stimuli_new.xlsx,stimuli/Social4.png,stimuli/Social3.png,stimuli/Nonsocial4.png,stimuli/Nonsocial3.png,stimuli/Social2.png,stimuli/Social1.png,stimuli/Nonsocial2.png,stimuli/Nonsocial1.png,cs_neg_s,"(0.7, -0.5)",,,,,,,,,0,0,0,0,,,,,,,,,1,7,23,3,,,,,,,,,,,,,,,,,,,,,,,,,,,,,,,,,,,,,,449.59761339996476,30,none,0,,,452.6113812000258,,,,,,,,,,,,,,,,,,,,,,48,D,2024-05-22_13h14.55.523,attentional_competition_task,2022.2.4,143.96132612257347,
positions.xlsx,positions_test.xlsx,positions_test_new.xlsx,stimuli.xlsx,stimuli_new.xlsx,stimuli/Social4.png,stimuli/Social3.png,stimuli/Nonsocial4.png,stimuli/Nonsocial3.png,stimuli/Social2.png,stimuli/Social1.png,stimuli/Nonsocial2.png,stimuli/Nonsocial1.png,cs_neg_s,"(0.7, 0.5)",,,,,,,,,0,0,0,0,,,,,,,,,1,8,24,2,,,,,,,,,,,,,,,,,,,,,,,,,,,,,,,,,,,,,,460.2569071999751,30,none,0,,,463.26371109997854,,,,,,,,,,,,,,,,,,,,,,48,D,2024-05-22_13h14.55.523,attentional_competition_task,2022.2.4,143.96132612257347,
positions.xlsx,positions_test.xlsx,positions_test_new.xlsx,stimuli.xlsx,stimuli_new.xlsx,stimuli/Social4.png,stimuli/Social3.png,stimuli/Nonsocial4.png,stimuli/Nonsocial3.png,stimuli/Social2.png,stimuli/Social1.png,stimuli/Nonsocial2.png,stimuli/Nonsocial1.png,cs_neg_ns,"(-0.7, 0.5)",,,,,,,,,0,0,0,0,,,,,,,,,1,9,25,8,,,,,,,,,,,,,,,,,,,,,,,,,,,,,,,,,,,,,,470.29121629998554,30,none,0,,,473.30496580002364,,,,,,,,,,,,,,,,,,,,,,48,D,2024-05-22_13h14.55.523,attentional_competition_task,2022.2.4,143.96132612257347,
positions.xlsx,positions_test.xlsx,positions_test_new.xlsx,stimuli.xlsx,stimuli_new.xlsx,stimuli/Social4.png,stimuli/Social3.png,stimuli/Nonsocial4.png,stimuli/Nonsocial3.png,stimuli/Social2.png,stimuli/Social1.png,stimuli/Nonsocial2.png,stimuli/Nonsocial1.png,cs_neg_ns,"(-0.7, -0.5)",,,,,,,,,0,0,0,0,,,,,,,,,1,10,26,9,,,,,,,,,,,,,,,,,,,,,,,,,,,,,,,,,,,,,,480.3741523999488,30,none,0,,,483.3809586999705,,,,,,,,,,,,,,,,,,,,,,48,D,2024-05-22_13h14.55.523,attentional_competition_task,2022.2.4,143.96132612257347,
positions.xlsx,positions_test.xlsx,positions_test_new.xlsx,stimuli.xlsx,stimuli_new.xlsx,stimuli/Social4.png,stimuli/Social3.png,stimuli/Nonsocial4.png,stimuli/Nonsocial3.png,stimuli/Social2.png,stimuli/Social1.png,stimuli/Nonsocial2.png,stimuli/Nonsocial1.png,cs_pos_s,"(-0.7, 0.5)",,,,,,,,,0,0,0,0,,,,,,,,,1,11,27,4,,,,,,,,,,,,,,,,,,,,,,,,,,,,,,,,,,,,,,491.07507449993864,33,reward,1,0.47955769998952746,0.48653080000076443,491.56818199995905,,,,,,,,,,,,,,,,,,,,,,48,D,2024-05-22_13h14.55.523,attentional_competition_task,2022.2.4,143.96132612257347,
positions.xlsx,positions_test.xlsx,positions_test_new.xlsx,stimuli.xlsx,stimuli_new.xlsx,stimuli/Social4.png,stimuli/Social3.png,stimuli/Nonsocial4.png,stimuli/Nonsocial3.png,stimuli/Social2.png,stimuli/Social1.png,stimuli/Nonsocial2.png,stimuli/Nonsocial1.png,cs_neg_s,"(-0.7, -0.5)",,,,,,,,,0,0,0,0,,,,,,,,,1,12,28,1,,,,,,,,,,,,,,,,,,,,,,,,,,,,,,,,,,,,,,499.01225229992997,33,none,0,,,502.02605570002925,,,,,,,,,,,,,,,,,,,,,,48,D,2024-05-22_13h14.55.523,attentional_competition_task,2022.2.4,143.96132612257347,
positions.xlsx,positions_test.xlsx,positions_test_new.xlsx,stimuli.xlsx,stimuli_new.xlsx,stimuli/Social4.png,stimuli/Social3.png,stimuli/Nonsocial4.png,stimuli/Nonsocial3.png,stimuli/Social2.png,stimuli/Social1.png,stimuli/Nonsocial2.png,stimuli/Nonsocial1.png,cs_pos_ns,"(-0.7, -0.5)",,,,,,,,,0,0,0,0,,,,,,,,,1,13,29,13,,,,,,,,,,,,,,,,,,,,,,,,,,,,,,,,,,,,,,509.9770931999665,36,reward,1,1.1181830000132322,1.1181866000406444,511.1021439000033,,,,,,,,,,,,,,,,,,,,,,48,D,2024-05-22_13h14.55.523,attentional_competition_task,2022.2.4,143.96132612257347,
positions.xlsx,positions_test.xlsx,positions_test_new.xlsx,stimuli.xlsx,stimuli_new.xlsx,stimuli/Social4.png,stimuli/Social3.png,stimuli/Nonsocial4.png,stimuli/Nonsocial3.png,stimuli/Social2.png,stimuli/Social1.png,stimuli/Nonsocial2.png,stimuli/Nonsocial1.png,cs_neg_ns,"(0.7, 0.5)",,,,,,,,,0,0,0,0,,,,,,,,,1,14,30,10,,,,,,,,,,,,,,,,,,,,,,,,,,,,,,,,,,,,,,518.7337278999621,36,none,0,,,521.7475283999229,,,,,,,,,,,,,,,,,,,,,,48,D,2024-05-22_13h14.55.523,attentional_competition_task,2022.2.4,143.96132612257347,
positions.xlsx,positions_test.xlsx,positions_test_new.xlsx,stimuli.xlsx,stimuli_new.xlsx,stimuli/Social4.png,stimuli/Social3.png,stimuli/Nonsocial4.png,stimuli/Nonsocial3.png,stimuli/Social2.png,stimuli/Social1.png,stimuli/Nonsocial2.png,stimuli/Nonsocial1.png,cs_pos_s,"(0.7, -0.5)",,,,,,,,,0,0,0,0,,,,,,,,,1,15,31,7,,,,,,,,,,,,,,,,,,,,,,,,,,,,,,,,,,,,,,529.518036799971,39,reward,1,0.5970531000057235,0.5970566000323743,530.1221743000206,,,,,,,,,,,,,,,,,,,,,,48,D,2024-05-22_13h14.55.523,attentional_competition_task,2022.2.4,143.96132612257347,
positions.xlsx,positions_test.xlsx,positions_test_new.xlsx,stimuli.xlsx,stimuli_new.xlsx,stimuli/Social4.png,stimuli/Social3.png,stimuli/Nonsocial4.png,stimuli/Nonsocial3.png,stimuli/Social2.png,stimuli/Social1.png,stimuli/Nonsocial2.png,stimuli/Nonsocial1.png,cs_pos_s,"(-0.7, -0.5)",,,,,,,,,0,0,0,0,,,,,,,,,,,,,0,0,0,5,,,,,,,,,,,,,,,,,,,,,,,,,,,,,,,,,,546.3645437000087,42,reward,1,0.6322744999779388,0.6322783000068739,547.0033871999476,,,,,,,,,,,,,,,,,,,,,,48,D,2024-05-22_13h14.55.523,attentional_competition_task,2022.2.4,143.96132612257347,
positions.xlsx,positions_test.xlsx,positions_test_new.xlsx,stimuli.xlsx,stimuli_new.xlsx,stimuli/Social4.png,stimuli/Social3.png,stimuli/Nonsocial4.png,stimuli/Nonsocial3.png,stimuli/Social2.png,stimuli/Social1.png,stimuli/Nonsocial2.png,stimuli/Nonsocial1.png,cs_pos_s,"(0.7, -0.5)",,,,,,,,,0,0,0,0,,,,,,,,,,,,,0,1,1,7,,,,,,,,,,,,,,,,,,,,,,,,,,,,,,,,,,555.1697796999943,45,reward,1,0.6806575000518933,0.6806609999621287,555.8572278999491,,,,,,,,,,,,,,,,,,,,,,48,D,2024-05-22_13h14.55.523,attentional_competition_task,2022.2.4,143.96132612257347,
positions.xlsx,positions_test.xlsx,positions_test_new.xlsx,stimuli.xlsx,stimuli_new.xlsx,stimuli/Social4.png,stimuli/Social3.png,stimuli/Nonsocial4.png,stimuli/Nonsocial3.png,stimuli/Social2.png,stimuli/Social1.png,stimuli/Nonsocial2.png,stimuli/Nonsocial1.png,cs_neg_s,"(0.7, 0.5)",,,,,,,,,0,0,0,0,,,,,,,,,,,,,0,2,2,2,,,,,,,,,,,,,,,,,,,,,,,,,,,,,,,,,,563.2457852999214,42,loss,1,1.6943382000317797,1.6943418000591919,564.9471455999883,,,,,,,,,,,,,,,,,,,,,,48,D,2024-05-22_13h14.55.523,attentional_competition_task,2022.2.4,143.96132612257347,
positions.xlsx,positions_test.xlsx,positions_test_new.xlsx,stimuli.xlsx,stimuli_new.xlsx,stimuli/Social4.png,stimuli/Social3.png,stimuli/Nonsocial4.png,stimuli/Nonsocial3.png,stimuli/Social2.png,stimuli/Social1.png,stimuli/Nonsocial2.png,stimuli/Nonsocial1.png,cs_pos_ns,"(-0.7, -0.5)",,,,,,,,,0,0,0,0,,,,,,,,,,,,,0,3,3,13,,,,,,,,,,,,,,,,,,,,,,,,,,,,,,,,,,572.1065736999735,45,reward,1,0.7020361999748275,0.7092200999613851,572.8218506999547,,,,,,,,,,,,,,,,,,,,,,48,D,2024-05-22_13h14.55.523,attentional_competition_task,2022.2.4,143.96132612257347,
positions.xlsx,positions_test.xlsx,positions_test_new.xlsx,stimuli.xlsx,stimuli_new.xlsx,stimuli/Social4.png,stimuli/Social3.png,stimuli/Nonsocial4.png,stimuli/Nonsocial3.png,stimuli/Social2.png,stimuli/Social1.png,stimuli/Nonsocial2.png,stimuli/Nonsocial1.png,cs_pos_s,"(-0.7, 0.5)",,,,,,,,,0,0,0,0,,,,,,,,,,,,,0,4,4,4,,,,,,,,,,,,,,,,,,,,,,,,,,,,,,,,,,579.7034883999731,48,reward,1,0.6114979999838397,0.6115016000112519,580.3215499999933,,,,,,,,,,,,,,,,,,,,,,48,D,2024-05-22_13h14.55.523,attentional_competition_task,2022.2.4,143.96132612257347,
positions.xlsx,positions_test.xlsx,positions_test_new.xlsx,stimuli.xlsx,stimuli_new.xlsx,stimuli/Social4.png,stimuli/Social3.png,stimuli/Nonsocial4.png,stimuli/Nonsocial3.png,stimuli/Social2.png,stimuli/Social1.png,stimuli/Nonsocial2.png,stimuli/Nonsocial1.png,cs_pos_ns,"(-0.7, 0.5)",,,,,,,,,0,0,0,0,,,,,,,,,,,,,0,5,5,12,,,,,,,,,,,,,,,,,,,,,,,,,,,,,,,,,,587.7448680999223,51,reward,1,0.5837014999706298,0.5837052999995649,588.335079499986,,,,,,,,,,,,,,,,,,,,,,48,D,2024-05-22_13h14.55.523,attentional_competition_task,2022.2.4,143.96132612257347,
positions.xlsx,positions_test.xlsx,positions_test_new.xlsx,stimuli.xlsx,stimuli_new.xlsx,stimuli/Social4.png,stimuli/Social3.png,stimuli/Nonsocial4.png,stimuli/Nonsocial3.png,stimuli/Social2.png,stimuli/Social1.png,stimuli/Nonsocial2.png,stimuli/Nonsocial1.png,cs_pos_ns,"(0.7, -0.5)",,,,,,,,,0,0,0,0,,,,,,,,,,,,,0,6,6,15,,,,,,,,,,,,,,,,,,,,,,,,,,,,,,,,,,595.8833883999614,54,reward,1,0.6185995999258012,0.6186033999547362,596.5083822000306,,,,,,,,,,,,,,,,,,,,,,48,D,2024-05-22_13h14.55.523,attentional_competition_task,2022.2.4,143.96132612257347,
positions.xlsx,positions_test.xlsx,positions_test_new.xlsx,stimuli.xlsx,stimuli_new.xlsx,stimuli/Social4.png,stimuli/Social3.png,stimuli/Nonsocial4.png,stimuli/Nonsocial3.png,stimuli/Social2.png,stimuli/Social1.png,stimuli/Nonsocial2.png,stimuli/Nonsocial1.png,cs_neg_ns,"(-0.7, 0.5)",,,,,,,,,0,0,0,0,,,,,,,,,,,,,0,7,7,8,,,,,,,,,,,,,,,,,,,,,,,,,,,,,,,,,,603.9802985999268,51,loss,1,0.4655075999908149,0.46551150002051145,604.4524819999933,,,,,,,,,,,,,,,,,,,,,,48,D,2024-05-22_13h14.55.523,attentional_competition_task,2022.2.4,143.96132612257347,
positions.xlsx,positions_test.xlsx,positions_test_new.xlsx,stimuli.xlsx,stimuli_new.xlsx,stimuli/Social4.png,stimuli/Social3.png,stimuli/Nonsocial4.png,stimuli/Nonsocial3.png,stimuli/Social2.png,stimuli/Social1.png,stimuli/Nonsocial2.png,stimuli/Nonsocial1.png,cs_neg_ns,"(-0.7, -0.5)",,,,,,,,,0,0,0,0,,,,,,,,,,,,,0,8,8,9,,,,,,,,,,,,,,,,,,,,,,,,,,,,,,,,,,612.250797900022,51,none,0,,,615.2645444999216,,,,,,,,,,,,,,,,,,,,,,48,D,2024-05-22_13h14.55.523,attentional_competition_task,2022.2.4,143.96132612257347,
positions.xlsx,positions_test.xlsx,positions_test_new.xlsx,stimuli.xlsx,stimuli_new.xlsx,stimuli/Social4.png,stimuli/Social3.png,stimuli/Nonsocial4.png,stimuli/Nonsocial3.png,stimuli/Social2.png,stimuli/Social1.png,stimuli/Nonsocial2.png,stimuli/Nonsocial1.png,cs_neg_ns,"(0.7, -0.5)",,,,,,,,,0,0,0,0,,,,,,,,,,,,,0,9,9,11,,,,,,,,,,,,,,,,,,,,,,,,,,,,,,,,,,622.8892665000167,51,none,0,,,625.903002899955,,,,,,,,,,,,,,,,,,,,,,48,D,2024-05-22_13h14.55.523,attentional_competition_task,2022.2.4,143.96132612257347,
positions.xlsx,positions_test.xlsx,positions_test_new.xlsx,stimuli.xlsx,stimuli_new.xlsx,stimuli/Social4.png,stimuli/Social3.png,stimuli/Nonsocial4.png,stimuli/Nonsocial3.png,stimuli/Social2.png,stimuli/Social1.png,stimuli/Nonsocial2.png,stimuli/Nonsocial1.png,cs_neg_s,"(-0.7, 0.5)",,,,,,,,,0,0,0,0,,,,,,,,,,,,,0,10,10,0,,,,,,,,,,,,,,,,,,,,,,,,,,,,,,,,,,633.0208092000103,51,none,0,,,636.0345701000188,,,,,,,,,,,,,,,,,,,,,,48,D,2024-05-22_13h14.55.523,attentional_competition_task,2022.2.4,143.96132612257347,
positions.xlsx,positions_test.xlsx,positions_test_new.xlsx,stimuli.xlsx,stimuli_new.xlsx,stimuli/Social4.png,stimuli/Social3.png,stimuli/Nonsocial4.png,stimuli/Nonsocial3.png,stimuli/Social2.png,stimuli/Social1.png,stimuli/Nonsocial2.png,stimuli/Nonsocial1.png,cs_neg_s,"(0.7, -0.5)",,,,,,,,,0,0,0,0,,,,,,,,,,,,,0,11,11,3,,,,,,,,,,,,,,,,,,,,,,,,,,,,,,,,,,643.943966699997,51,none,0,,,646.9577676999616,,,,,,,,,,,,,,,,,,,,,,48,D,2024-05-22_13h14.55.523,attentional_competition_task,2022.2.4,143.96132612257347,
positions.xlsx,positions_test.xlsx,positions_test_new.xlsx,stimuli.xlsx,stimuli_new.xlsx,stimuli/Social4.png,stimuli/Social3.png,stimuli/Nonsocial4.png,stimuli/Nonsocial3.png,stimuli/Social2.png,stimuli/Social1.png,stimuli/Nonsocial2.png,stimuli/Nonsocial1.png,cs_pos_s,"(0.7, 0.5)",,,,,,,,,0,0,0,0,,,,,,,,,,,,,0,12,12,6,,,,,,,,,,,,,,,,,,,,,,,,,,,,,,,,,,653.638033199939,54,reward,1,0.5832636000122875,0.5832671000389382,654.2282779000234,,,,,,,,,,,,,,,,,,,,,,48,D,2024-05-22_13h14.55.523,attentional_competition_task,2022.2.4,143.96132612257347,
positions.xlsx,positions_test.xlsx,positions_test_new.xlsx,stimuli.xlsx,stimuli_new.xlsx,stimuli/Social4.png,stimuli/Social3.png,stimuli/Nonsocial4.png,stimuli/Nonsocial3.png,stimuli/Social2.png,stimuli/Social1.png,stimuli/Nonsocial2.png,stimuli/Nonsocial1.png,cs_pos_ns,"(0.7, 0.5)",,,,,,,,,0,0,0,0,,,,,,,,,,,,,0,13,13,14,,,,,,,,,,,,,,,,,,,,,,,,,,,,,,,,,,661.1446875999682,57,reward,1,1.0831581000238657,1.0901086000958458,662.2418497999897,,,,,,,,,,,,,,,,,,,,,,48,D,2024-05-22_13h14.55.523,attentional_competition_task,2022.2.4,143.96132612257347,
positions.xlsx,positions_test.xlsx,positions_test_new.xlsx,stimuli.xlsx,stimuli_new.xlsx,stimuli/Social4.png,stimuli/Social3.png,stimuli/Nonsocial4.png,stimuli/Nonsocial3.png,stimuli/Social2.png,stimuli/Social1.png,stimuli/Nonsocial2.png,stimuli/Nonsocial1.png,cs_neg_ns,"(0.7, 0.5)",,,,,,,,,0,0,0,0,,,,,,,,,,,,,0,14,14,10,,,,,,,,,,,,,,,,,,,,,,,,,,,,,,,,,,670.0748435999267,57,none,0,,,673.0886538999621,,,,,,,,,,,,,,,,,,,,,,48,D,2024-05-22_13h14.55.523,attentional_competition_task,2022.2.4,143.96132612257347,
positions.xlsx,positions_test.xlsx,positions_test_new.xlsx,stimuli.xlsx,stimuli_new.xlsx,stimuli/Social4.png,stimuli/Social3.png,stimuli/Nonsocial4.png,stimuli/Nonsocial3.png,stimuli/Social2.png,stimuli/Social1.png,stimuli/Nonsocial2.png,stimuli/Nonsocial1.png,cs_neg_s,"(-0.7, -0.5)",,,,,,,,,0,0,0,0,,,,,,,,,,,,,0,15,15,1,,,,,,,,,,,,,,,,,,,,,,,,,,,,,,,,,,680.5258648999734,57,none,0,,,683.5327066999162,,,,,,,,,,,,,,,,,,,,,,48,D,2024-05-22_13h14.55.523,attentional_competition_task,2022.2.4,143.96132612257347,
positions.xlsx,positions_test.xlsx,positions_test_new.xlsx,stimuli.xlsx,stimuli_new.xlsx,stimuli/Social4.png,stimuli/Social3.png,stimuli/Nonsocial4.png,stimuli/Nonsocial3.png,stimuli/Social2.png,stimuli/Social1.png,stimuli/Nonsocial2.png,stimuli/Nonsocial1.png,cs_pos_s,"(0.7, -0.5)",,,,,,,,,0,0,0,0,,,,,,,,,,,,,1,0,16,7,,,,,,,,,,,,,,,,,,,,,,,,,,,,,,,,,,691.2337519000284,60,reward,1,0.6319905000273138,0.6319939999375492,691.8726092999568,,,,,,,,,,,,,,,,,,,,,,48,D,2024-05-22_13h14.55.523,attentional_competition_task,2022.2.4,143.96132612257347,
positions.xlsx,positions_test.xlsx,positions_test_new.xlsx,stimuli.xlsx,stimuli_new.xlsx,stimuli/Social4.png,stimuli/Social3.png,stimuli/Nonsocial4.png,stimuli/Nonsocial3.png,stimuli/Social2.png,stimuli/Social1.png,stimuli/Nonsocial2.png,stimuli/Nonsocial1.png,cs_neg_ns,"(-0.7, -0.5)",,,,,,,,,0,0,0,0,,,,,,,,,,,,,1,1,17,9,,,,,,,,,,,,,,,,,,,,,,,,,,,,,,,,,,699.6222952000098,60,none,0,,,702.6360981999896,,,,,,,,,,,,,,,,,,,,,,48,D,2024-05-22_13h14.55.523,attentional_competition_task,2022.2.4,143.96132612257347,
positions.xlsx,positions_test.xlsx,positions_test_new.xlsx,stimuli.xlsx,stimuli_new.xlsx,stimuli/Social4.png,stimuli/Social3.png,stimuli/Nonsocial4.png,stimuli/Nonsocial3.png,stimuli/Social2.png,stimuli/Social1.png,stimuli/Nonsocial2.png,stimuli/Nonsocial1.png,cs_neg_s,"(-0.7, -0.5)",,,,,,,,,0,0,0,0,,,,,,,,,,,,,1,2,18,1,,,,,,,,,,,,,,,,,,,,,,,,,,,,,,,,,,710.8232090999372,60,none,0,,,713.8370205999818,,,,,,,,,,,,,,,,,,,,,,48,D,2024-05-22_13h14.55.523,attentional_competition_task,2022.2.4,143.96132612257347,
positions.xlsx,positions_test.xlsx,positions_test_new.xlsx,stimuli.xlsx,stimuli_new.xlsx,stimuli/Social4.png,stimuli/Social3.png,stimuli/Nonsocial4.png,stimuli/Nonsocial3.png,stimuli/Social2.png,stimuli/Social1.png,stimuli/Nonsocial2.png,stimuli/Nonsocial1.png,cs_neg_s,"(0.7, 0.5)",,,,,,,,,0,0,0,0,,,,,,,,,,,,,1,3,19,2,,,,,,,,,,,,,,,,,,,,,,,,,,,,,,,,,,721.5172497999156,60,none,0,,,724.5240688999183,,,,,,,,,,,,,,,,,,,,,,48,D,2024-05-22_13h14.55.523,attentional_competition_task,2022.2.4,143.96132612257347,
positions.xlsx,positions_test.xlsx,positions_test_new.xlsx,stimuli.xlsx,stimuli_new.xlsx,stimuli/Social4.png,stimuli/Social3.png,stimuli/Nonsocial4.png,stimuli/Nonsocial3.png,stimuli/Social2.png,stimuli/Social1.png,stimuli/Nonsocial2.png,stimuli/Nonsocial1.png,cs_neg_ns,"(-0.7, 0.5)",,,,,,,,,0,0,0,0,,,,,,,,,,,,,1,4,20,8,,,,,,,,,,,,,,,,,,,,,,,,,,,,,,,,,,731.3224486999679,60,none,0,,,734.3292121000122,,,,,,,,,,,,,,,,,,,,,,48,D,2024-05-22_13h14.55.523,attentional_competition_task,2022.2.4,143.96132612257347,
positions.xlsx,positions_test.xlsx,positions_test_new.xlsx,stimuli.xlsx,stimuli_new.xlsx,stimuli/Social4.png,stimuli/Social3.png,stimuli/Nonsocial4.png,stimuli/Nonsocial3.png,stimuli/Social2.png,stimuli/Social1.png,stimuli/Nonsocial2.png,stimuli/Nonsocial1.png,cs_pos_s,"(0.7, 0.5)",,,,,,,,,0,0,0,0,,,,,,,,,,,,,1,5,21,6,,,,,,,,,,,,,,,,,,,,,,,,,,,,,,,,,,741.6206361999502,63,reward,1,0.6602357999654487,0.660239199991338,742.2872274999972,,,,,,,,,,,,,,,,,,,,,,48,D,2024-05-22_13h14.55.523,attentional_competition_task,2022.2.4,143.96132612257347,
positions.xlsx,positions_test.xlsx,positions_test_new.xlsx,stimuli.xlsx,stimuli_new.xlsx,stimuli/Social4.png,stimuli/Social3.png,stimuli/Nonsocial4.png,stimuli/Nonsocial3.png,stimuli/Social2.png,stimuli/Social1.png,stimuli/Nonsocial2.png,stimuli/Nonsocial1.png,cs_neg_ns,"(0.7, 0.5)",,,,,,,,,0,0,0,0,,,,,,,,,,,,,1,6,22,10,,,,,,,,,,,,,,,,,,,,,,,,,,,,,,,,,,748.9467009999789,63,none,0,,,751.960447599995,,,,,,,,,,,,,,,,,,,,,,48,D,2024-05-22_13h14.55.523,attentional_competition_task,2022.2.4,143.96132612257347,
positions.xlsx,positions_test.xlsx,positions_test_new.xlsx,stimuli.xlsx,stimuli_new.xlsx,stimuli/Social4.png,stimuli/Social3.png,stimuli/Nonsocial4.png,stimuli/Nonsocial3.png,stimuli/Social2.png,stimuli/Social1.png,stimuli/Nonsocial2.png,stimuli/Nonsocial1.png,cs_pos_ns,"(0.7, 0.5)",,,,,,,,,0,0,0,0,,,,,,,,,,,,,1,7,23,14,,,,,,,,,,,,,,,,,,,,,,,,,,,,,,,,,,759.4324107000139,66,reward,1,0.8754147000145167,0.8754192000487819,760.3143103999319,,,,,,,,,,,,,,,,,,,,,,48,D,2024-05-22_13h14.55.523,attentional_competition_task,2022.2.4,143.96132612257347,
positions.xlsx,positions_test.xlsx,positions_test_new.xlsx,stimuli.xlsx,stimuli_new.xlsx,stimuli/Social4.png,stimuli/Social3.png,stimuli/Nonsocial4.png,stimuli/Nonsocial3.png,stimuli/Social2.png,stimuli/Social1.png,stimuli/Nonsocial2.png,stimuli/Nonsocial1.png,cs_pos_s,"(-0.7, 0.5)",,,,,,,,,0,0,0,0,,,,,,,,,,,,,1,8,24,4,,,,,,,,,,,,,,,,,,,,,,,,,,,,,,,,,,767.918138399953,69,reward,1,0.5078177000395954,0.5078212000662461,768.4320290000178,,,,,,,,,,,,,,,,,,,,,,48,D,2024-05-22_13h14.55.523,attentional_competition_task,2022.2.4,143.96132612257347,
positions.xlsx,positions_test.xlsx,positions_test_new.xlsx,stimuli.xlsx,stimuli_new.xlsx,stimuli/Social4.png,stimuli/Social3.png,stimuli/Nonsocial4.png,stimuli/Nonsocial3.png,stimuli/Social2.png,stimuli/Social1.png,stimuli/Nonsocial2.png,stimuli/Nonsocial1.png,cs_pos_ns,"(-0.7, -0.5)",,,,,,,,,0,0,0,0,,,,,,,,,,,,,1,9,25,13,,,,,,,,,,,,,,,,,,,,,,,,,,,,,,,,,,775.9456218000269,72,reward,1,0.7988553999457508,0.7988591999746859,776.7511726999655,,,,,,,,,,,,,,,,,,,,,,48,D,2024-05-22_13h14.55.523,attentional_competition_task,2022.2.4,143.96132612257347,
positions.xlsx,positions_test.xlsx,positions_test_new.xlsx,stimuli.xlsx,stimuli_new.xlsx,stimuli/Social4.png,stimuli/Social3.png,stimuli/Nonsocial4.png,stimuli/Nonsocial3.png,stimuli/Social2.png,stimuli/Social1.png,stimuli/Nonsocial2.png,stimuli/Nonsocial1.png,cs_neg_ns,"(0.7, -0.5)",,,,,,,,,0,0,0,0,,,,,,,,,,,,,1,10,26,11,,,,,,,,,,,,,,,,,,,,,,,,,,,,,,,,,,784.4522017999552,72,none,0,,,787.465969700017,,,,,,,,,,,,,,,,,,,,,,48,D,2024-05-22_13h14.55.523,attentional_competition_task,2022.2.4,143.96132612257347,
positions.xlsx,positions_test.xlsx,positions_test_new.xlsx,stimuli.xlsx,stimuli_new.xlsx,stimuli/Social4.png,stimuli/Social3.png,stimuli/Nonsocial4.png,stimuli/Nonsocial3.png,stimuli/Social2.png,stimuli/Social1.png,stimuli/Nonsocial2.png,stimuli/Nonsocial1.png,cs_pos_ns,"(-0.7, 0.5)",,,,,,,,,0,0,0,0,,,,,,,,,,,,,1,11,27,12,,,,,,,,,,,,,,,,,,,,,,,,,,,,,,,,,,794.7295749000041,75,reward,1,0.979256400023587,0.9792599999345839,795.7157025999622,,,,,,,,,,,,,,,,,,,,,,48,D,2024-05-22_13h14.55.523,attentional_competition_task,2022.2.4,143.96132612257347,
positions.xlsx,positions_test.xlsx,positions_test_new.xlsx,stimuli.xlsx,stimuli_new.xlsx,stimuli/Social4.png,stimuli/Social3.png,stimuli/Nonsocial4.png,stimuli/Nonsocial3.png,stimuli/Social2.png,stimuli/Social1.png,stimuli/Nonsocial2.png,stimuli/Nonsocial1.png,cs_neg_s,"(0.7, -0.5)",,,,,,,,,0,0,0,0,,,,,,,,,,,,,1,12,28,3,,,,,,,,,,,,,,,,,,,,,,,,,,,,,,,,,,803.5347682000138,75,none,0,,,806.5485674999654,,,,,,,,,,,,,,,,,,,,,,48,D,2024-05-22_13h14.55.523,attentional_competition_task,2022.2.4,143.96132612257347,
positions.xlsx,positions_test.xlsx,positions_test_new.xlsx,stimuli.xlsx,stimuli_new.xlsx,stimuli/Social4.png,stimuli/Social3.png,stimuli/Nonsocial4.png,stimuli/Nonsocial3.png,stimuli/Social2.png,stimuli/Social1.png,stimuli/Nonsocial2.png,stimuli/Nonsocial1.png,cs_neg_s,"(-0.7, 0.5)",,,,,,,,,0,0,0,0,,,,,,,,,,,,,1,13,29,0,,,,,,,,,,,,,,,,,,,,,,,,,,,,,,,,,,813.9440707999747,75,none,0,,,816.9509058999829,,,,,,,,,,,,,,,,,,,,,,48,D,2024-05-22_13h14.55.523,attentional_competition_task,2022.2.4,143.96132612257347,
positions.xlsx,positions_test.xlsx,positions_test_new.xlsx,stimuli.xlsx,stimuli_new.xlsx,stimuli/Social4.png,stimuli/Social3.png,stimuli/Nonsocial4.png,stimuli/Nonsocial3.png,stimuli/Social2.png,stimuli/Social1.png,stimuli/Nonsocial2.png,stimuli/Nonsocial1.png,cs_pos_s,"(-0.7, -0.5)",,,,,,,,,0,0,0,0,,,,,,,,,,,,,1,14,30,5,,,,,,,,,,,,,,,,,,,,,,,,,,,,,,,,,,824.2353488999652,78,reward,1,0.6876763000618666,0.6876802000915632,824.9297956000082,,,,,,,,,,,,,,,,,,,,,,48,D,2024-05-22_13h14.55.523,attentional_competition_task,2022.2.4,143.96132612257347,
positions.xlsx,positions_test.xlsx,positions_test_new.xlsx,stimuli.xlsx,stimuli_new.xlsx,stimuli/Social4.png,stimuli/Social3.png,stimuli/Nonsocial4.png,stimuli/Nonsocial3.png,stimuli/Social2.png,stimuli/Social1.png,stimuli/Nonsocial2.png,stimuli/Nonsocial1.png,cs_pos_ns,"(0.7, -0.5)",,,,,,,,,0,0,0,0,,,,,,,,,,,,,1,15,31,15,,,,,,,,,,,,,,,,,,,,,,,,,,,,,,,,,,831.6378403999843,81,reward,1,0.35434870002791286,0.35435250005684793,831.9989712999668,,,,,,,,,,,,,,,,,,,,,,48,D,2024-05-22_13h14.55.523,attentional_competition_task,2022.2.4,143.96132612257347,
positions.xlsx,positions_test.xlsx,positions_test_new.xlsx,stimuli.xlsx,stimuli_new.xlsx,stimuli/Social4.png,stimuli/Social3.png,stimuli/Nonsocial4.png,stimuli/Nonsocial3.png,stimuli/Social2.png,stimuli/Social1.png,stimuli/Nonsocial2.png,stimuli/Nonsocial1.png,cs_neg_s,,,,,,,,,,0,0,0,0,,,,,,,,,,,,,,,,,0,0,0,0,,,,,,,,,,,,,,,,,,,,,,,837.2695550000062,5.0,8.469985499978065,,,,,,,,,,,,,,,,,,,,,,,,,,,,,,,,,48,D,2024-05-22_13h14.55.523,attentional_competition_task,2022.2.4,143.96132612257347,
positions.xlsx,positions_test.xlsx,positions_test_new.xlsx,stimuli.xlsx,stimuli_new.xlsx,stimuli/Social4.png,stimuli/Social3.png,stimuli/Nonsocial4.png,stimuli/Nonsocial3.png,stimuli/Social2.png,stimuli/Social1.png,stimuli/Nonsocial2.png,stimuli/Nonsocial1.png,cs_pos_ns,,,,,,,,,,0,0,0,0,,,,,,,,,,,,,,,,,0,1,1,3,,,,,,,,,,,,,,,,,,,,,,,847.0191658999538,7.0,2.6404637000523508,,,,,,,,,,,,,,,,,,,,,,,,,,,,,,,,,48,D,2024-05-22_13h14.55.523,attentional_competition_task,2022.2.4,143.96132612257347,
positions.xlsx,positions_test.xlsx,positions_test_new.xlsx,stimuli.xlsx,stimuli_new.xlsx,stimuli/Social4.png,stimuli/Social3.png,stimuli/Nonsocial4.png,stimuli/Nonsocial3.png,stimuli/Social2.png,stimuli/Social1.png,stimuli/Nonsocial2.png,stimuli/Nonsocial1.png,cs_pos_s,,,,,,,,,,0,0,0,0,,,,,,,,,,,,,,,,,0,2,2,2,,,,,,,,,,,,,,,,,,,,,,,849.8176928999601,6.0,1.4819420999847353,,,,,,,,,,,,,,,,,,,,,,,,,,,,,,,,,48,D,2024-05-22_13h14.55.523,attentional_competition_task,2022.2.4,143.96132612257347,
positions.xlsx,positions_test.xlsx,positions_test_new.xlsx,stimuli.xlsx,stimuli_new.xlsx,stimuli/Social4.png,stimuli/Social3.png,stimuli/Nonsocial4.png,stimuli/Nonsocial3.png,stimuli/Social2.png,stimuli/Social1.png,stimuli/Nonsocial2.png,stimuli/Nonsocial1.png,cs_neg_ns,,,,,,,,,,0,0,0,0,,,,,,,,,,,,,,,,,0,3,3,1,,,,,,,,,,,,,,,,,,,,,,,851.4842588999309,5.0,3.334595900028944,,,,,,,,,,,,,,,,,,,,,,,,,,,,,,,,,48,D,2024-05-22_13h14.55.523,attentional_competition_task,2022.2.4,143.96132612257347,
positions.xlsx,positions_test.xlsx,positions_test_new.xlsx,stimuli.xlsx,stimuli_new.xlsx,stimuli/Social4.png,stimuli/Social3.png,stimuli/Nonsocial4.png,stimuli/Nonsocial3.png,stimuli/Social2.png,stimuli/Social1.png,stimuli/Nonsocial2.png,stimuli/Nonsocial1.png,,,"(-0.7, -0.5)",cs_neg_ns,"(-0.7, 0.5)",cs_pos_s,"(0.7, -0.5)",cs_pos_ns,"(0.7, 0.5)",cs_neg_s,0,0,0,0,,,,,,,,,,,,,,,,,,,,,0,0,0,13,,,,,,,,,,,,,,,,,,,,,,,,,,,78,loss,,,,,856.9493394999299,862.9213382999878,862.9213382999878,862.9213382999878,862.9213382999878,1,0.022897799964994192,0.02290129999164492,0,,,0,,,0,,,862.9213382999878,862.9213382999878,862.9213382999878,862.9213382999878,48,D,2024-05-22_13h14.55.523,attentional_competition_task,2022.2.4,143.96132612257347,
positions.xlsx,positions_test.xlsx,positions_test_new.xlsx,stimuli.xlsx,stimuli_new.xlsx,stimuli/Social4.png,stimuli/Social3.png,stimuli/Nonsocial4.png,stimuli/Nonsocial3.png,stimuli/Social2.png,stimuli/Social1.png,stimuli/Nonsocial2.png,stimuli/Nonsocial1.png,,,"(-0.7, -0.5)",cs_neg_s,"(-0.7, 0.5)",cs_pos_ns,"(0.7, -0.5)",cs_pos_s,"(0.7, 0.5)",cs_neg_ns,0,0,0,0,,,,,,,,,,,,,,,,,,,,,0,1,1,4,,,,,,,,,,,,,,,,,,,,,,,,,,,81,reward,,,,,,872.2265224999283,872.2265224999283,872.2265224999283,872.2265224999283,0,,,1,0.023731500026769936,0.02373539994005114,0,,,0,,,872.2265224999283,872.2265224999283,872.2265224999283,872.2265224999283,48,D,2024-05-22_13h14.55.523,attentional_competition_task,2022.2.4,143.96132612257347,
positions.xlsx,positions_test.xlsx,positions_test_new.xlsx,stimuli.xlsx,stimuli_new.xlsx,stimuli/Social4.png,stimuli/Social3.png,stimuli/Nonsocial4.png,stimuli/Nonsocial3.png,stimuli/Social2.png,stimuli/Social1.png,stimuli/Nonsocial2.png,stimuli/Nonsocial1.png,,,"(-0.7, -0.5)",cs_neg_ns,"(-0.7, 0.5)",cs_pos_ns,"(0.7, -0.5)",cs_neg_s,"(0.7, 0.5)",cs_pos_s,0,0,0,0,,,,,,,,,,,,,,,,,,,,,0,2,2,17,,,,,,,,,,,,,,,,,,,,,,,,,,,90,reward,,,,,,880.8025627000025,880.8025627000025,880.8025627000025,880.8025627000025,0,,,0,,,0,,,0,,,881.3650350000244,881.3650350000244,881.3650350000244,881.3650350000244,48,D,2024-05-22_13h14.55.523,attentional_competition_task,2022.2.4,143.96132612257347,
positions.xlsx,positions_test.xlsx,positions_test_new.xlsx,stimuli.xlsx,stimuli_new.xlsx,stimuli/Social4.png,stimuli/Social3.png,stimuli/Nonsocial4.png,stimuli/Nonsocial3.png,stimuli/Social2.png,stimuli/Social1.png,stimuli/Nonsocial2.png,stimuli/Nonsocial1.png,,,"(-0.7, -0.5)",cs_neg_s,"(-0.7, 0.5)",cs_pos_s,"(0.7, -0.5)",cs_neg_ns,"(0.7, 0.5)",cs_pos_ns,0,0,0,0,,,,,,,,,,,,,,,,,,,,,0,3,3,0,,,,,,,,,,,,,,,,,,,,,,,,,,,96,reward,,,,,,889.086943399976,889.086943399976,889.086943399976,889.086943399976,0,,,0,,,0,,,0,,,890.3091208999977,890.3091208999977,890.3091208999977,890.3091208999977,48,D,2024-05-22_13h14.55.523,attentional_competition_task,2022.2.4,143.96132612257347,
positions.xlsx,positions_test.xlsx,positions_test_new.xlsx,stimuli.xlsx,stimuli_new.xlsx,stimuli/Social4.png,stimuli/Social3.png,stimuli/Nonsocial4.png,stimuli/Nonsocial3.png,stimuli/Social2.png,stimuli/Social1.png,stimuli/Nonsocial2.png,stimuli/Nonsocial1.png,,,"(-0.7, -0.5)",cs_pos_s,"(-0.7, 0.5)",cs_pos_ns,"(0.7, -0.5)",cs_neg_ns,"(0.7, 0.5)",cs_neg_s,0,0,0,0,,,,,,,,,,,,,,,,,,,,,0,4,4,11,,,,,,,,,,,,,,,,,,,,,,,,,,,105,reward,,,,,,898.1768759000115,898.1768759000115,898.1768759000115,898.1768759000115,0,,,0,,,0,,,0,,,898.73936519993,898.73936519993,898.73936519993,898.73936519993,48,D,2024-05-22_13h14.55.523,attentional_competition_task,2022.2.4,143.96132612257347,
positions.xlsx,positions_test.xlsx,positions_test_new.xlsx,stimuli.xlsx,stimuli_new.xlsx,stimuli/Social4.png,stimuli/Social3.png,stimuli/Nonsocial4.png,stimuli/Nonsocial3.png,stimuli/Social2.png,stimuli/Social1.png,stimuli/Nonsocial2.png,stimuli/Nonsocial1.png,,,"(-0.7, -0.5)",cs_neg_s,"(-0.7, 0.5)",cs_pos_s,"(0.7, -0.5)",cs_pos_ns,"(0.7, 0.5)",cs_neg_ns,0,0,0,0,,,,,,,,,,,,,,,,,,,,,0,5,5,1,,,,,,,,,,,,,,,,,,,,,,,,,,,114,reward,,,,,,906.891799999983,906.891799999983,906.891799999983,906.891799999983,0,,,0,,,0,,,0,,,907.5306782999542,907.5306782999542,907.5306782999542,907.5306782999542,48,D,2024-05-22_13h14.55.523,attentional_competition_task,2022.2.4,143.96132612257347,
positions.xlsx,positions_test.xlsx,positions_test_new.xlsx,stimuli.xlsx,stimuli_new.xlsx,stimuli/Social4.png,stimuli/Social3.png,stimuli/Nonsocial4.png,stimuli/Nonsocial3.png,stimuli/Social2.png,stimuli/Social1.png,stimuli/Nonsocial2.png,stimuli/Nonsocial1.png,,,"(-0.7, -0.5)",cs_neg_ns,"(-0.7, 0.5)",cs_pos_s,"(0.7, -0.5)",cs_neg_s,"(0.7, 0.5)",cs_pos_ns,0,0,0,0,,,,,,,,,,,,,,,,,,,,,0,6,6,12,,,,,,,,,,,,,,,,,,,,,,,,,,,123,reward,,,,,,915.6414338999894,915.6414338999894,915.6414338999894,915.6414338999894,0,,,0,,,0,,,0,,,916.433075799956,916.433075799956,916.433075799956,916.433075799956,48,D,2024-05-22_13h14.55.523,attentional_competition_task,2022.2.4,143.96132612257347,
positions.xlsx,positions_test.xlsx,positions_test_new.xlsx,stimuli.xlsx,stimuli_new.xlsx,stimuli/Social4.png,stimuli/Social3.png,stimuli/Nonsocial4.png,stimuli/Nonsocial3.png,stimuli/Social2.png,stimuli/Social1.png,stimuli/Nonsocial2.png,stimuli/Nonsocial1.png,,,"(-0.7, -0.5)",cs_pos_s,"(-0.7, 0.5)",cs_neg_s,"(0.7, -0.5)",cs_pos_ns,"(0.7, 0.5)",cs_neg_ns,0,0,0,0,,,,,,,,,,,,,,,,,,,,,0,7,7,7,,,,,,,,,,,,,,,,,,,,,,,,,,,129,reward,,,,,,924.953566399985,924.953566399985,924.953566399985,924.953566399985,0,,,0,,,1,0.21664090000558645,0.21664479991886765,0,,,925.1757769000251,925.1757769000251,925.1757769000251,925.1757769000251,48,D,2024-05-22_13h14.55.523,attentional_competition_task,2022.2.4,143.96132612257347,
positions.xlsx,positions_test.xlsx,positions_test_new.xlsx,stimuli.xlsx,stimuli_new.xlsx,stimuli/Social4.png,stimuli/Social3.png,stimuli/Nonsocial4.png,stimuli/Nonsocial3.png,stimuli/Social2.png,stimuli/Social1.png,stimuli/Nonsocial2.png,stimuli/Nonsocial1.png,,,"(-0.7, -0.5)",cs_neg_ns,"(-0.7, 0.5)",cs_neg_s,"(0.7, -0.5)",cs_pos_ns,"(0.7, 0.5)",cs_pos_s,0,0,0,0,,,,,,,,,,,,,,,,,,,,,0,8,8,15,,,,,,,,,,,,,,,,,,,,,,,,,,,135,reward,,,,,,932.7796614000108,932.7796614000108,932.7796614000108,932.7796614000108,0,,,0,,,1,0.33619659999385476,0.33620000001974404,0,,,933.1129585999297,933.1129585999297,933.1129585999297,933.1129585999297,48,D,2024-05-22_13h14.55.523,attentional_competition_task,2022.2.4,143.96132612257347,
positions.xlsx,positions_test.xlsx,positions_test_new.xlsx,stimuli.xlsx,stimuli_new.xlsx,stimuli/Social4.png,stimuli/Social3.png,stimuli/Nonsocial4.png,stimuli/Nonsocial3.png,stimuli/Social2.png,stimuli/Social1.png,stimuli/Nonsocial2.png,stimuli/Nonsocial1.png,,,"(-0.7, -0.5)",cs_pos_ns,"(-0.7, 0.5)",cs_pos_s,"(0.7, -0.5)",cs_neg_ns,"(0.7, 0.5)",cs_neg_s,0,0,0,0,,,,,,,,,,,,,,,,,,,,,0,9,9,18,,,,,,,,,,,,,,,,,,,,,,,,,,,144,reward,,,,,,941.0848381000105,941.0848381000105,941.0848381000105,941.0848381000105,0,,,0,,,0,,,0,,,941.9112300999695,941.9112300999695,941.9112300999695,941.9112300999695,48,D,2024-05-22_13h14.55.523,attentional_competition_task,2022.2.4,143.96132612257347,
positions.xlsx,positions_test.xlsx,positions_test_new.xlsx,stimuli.xlsx,stimuli_new.xlsx,stimuli/Social4.png,stimuli/Social3.png,stimuli/Nonsocial4.png,stimuli/Nonsocial3.png,stimuli/Social2.png,stimuli/Social1.png,stimuli/Nonsocial2.png,stimuli/Nonsocial1.png,,,"(-0.7, -0.5)",cs_neg_s,"(-0.7, 0.5)",cs_neg_ns,"(0.7, -0.5)",cs_pos_ns,"(0.7, 0.5)",cs_pos_s,0,0,0,0,,,,,,,,,,,,,,,,,,,,,0,10,10,3,,,,,,,,,,,,,,,,,,,,,,,,,,,150,reward,,,,,,949.1678875000216,949.1678875000216,949.1678875000216,949.1678875000216,0,,,0,,,1,0.22524389997124672,0.22524739999789745,0,,,949.3831613999791,949.3831613999791,949.3831613999791,949.3831613999791,48,D,2024-05-22_13h14.55.523,attentional_competition_task,2022.2.4,143.96132612257347,
positions.xlsx,positions_test.xlsx,positions_test_new.xlsx,stimuli.xlsx,stimuli_new.xlsx,stimuli/Social4.png,stimuli/Social3.png,stimuli/Nonsocial4.png,stimuli/Nonsocial3.png,stimuli/Social2.png,stimuli/Social1.png,stimuli/Nonsocial2.png,stimuli/Nonsocial1.png,,,"(-0.7, -0.5)",cs_pos_ns,"(-0.7, 0.5)",cs_neg_ns,"(0.7, -0.5)",cs_pos_s,"(0.7, 0.5)",cs_neg_s,0,0,0,0,,,,,,,,,,,,,,,,,,,,,0,11,11,20,,,,,,,,,,,,,,,,,,,,,,,,,,,159,reward,,,,,,958.8688577000285,958.8688577000285,958.8688577000285,958.8688577000285,0,,,0,,,0,,,0,,,959.5216347000096,959.5216347000096,959.5216347000096,959.5216347000096,48,D,2024-05-22_13h14.55.523,attentional_competition_task,2022.2.4,143.96132612257347,
positions.xlsx,positions_test.xlsx,positions_test_new.xlsx,stimuli.xlsx,stimuli_new.xlsx,stimuli/Social4.png,stimuli/Social3.png,stimuli/Nonsocial4.png,stimuli/Nonsocial3.png,stimuli/Social2.png,stimuli/Social1.png,stimuli/Nonsocial2.png,stimuli/Nonsocial1.png,,,"(-0.7, -0.5)",cs_pos_ns,"(-0.7, 0.5)",cs_neg_ns,"(0.7, -0.5)",cs_neg_s,"(0.7, 0.5)",cs_pos_s,0,0,0,0,,,,,,,,,,,,,,,,,,,,,0,12,12,21,,,,,,,,,,,,,,,,,,,,,,,,,,,165,reward,,,,,,967.278277699952,967.278277699952,967.278277699952,967.278277699952,1,0.2084560999646783,0.20845969999209046,0,,,0,,,1,0.02768229995854199,0.15479629999026656,967.4866447999375,967.4866447999375,967.4866447999375,967.4866447999375,48,D,2024-05-22_13h14.55.523,attentional_competition_task,2022.2.4,143.96132612257347,
positions.xlsx,positions_test.xlsx,positions_test_new.xlsx,stimuli.xlsx,stimuli_new.xlsx,stimuli/Social4.png,stimuli/Social3.png,stimuli/Nonsocial4.png,stimuli/Nonsocial3.png,stimuli/Social2.png,stimuli/Social1.png,stimuli/Nonsocial2.png,stimuli/Nonsocial1.png,,,"(-0.7, -0.5)",cs_pos_ns,"(-0.7, 0.5)",cs_neg_s,"(0.7, -0.5)",cs_pos_s,"(0.7, 0.5)",cs_neg_ns,0,0,0,0,,,,,,,,,,,,,,,,,,,,,0,13,13,22,,,,,,,,,,,,,,,,,,,,,,,,,,,174,reward,,,,,,976.7639916000189,976.7639916000189,976.7639916000189,976.7639916000189,0,,,0,,,0,,,0,,,977.3264674999518,977.3264674999518,977.3264674999518,977.3264674999518,48,D,2024-05-22_13h14.55.523,attentional_competition_task,2022.2.4,143.96132612257347,
positions.xlsx,positions_test.xlsx,positions_test_new.xlsx,stimuli.xlsx,stimuli_new.xlsx,stimuli/Social4.png,stimuli/Social3.png,stimuli/Nonsocial4.png,stimuli/Nonsocial3.png,stimuli/Social2.png,stimuli/Social1.png,stimuli/Nonsocial2.png,stimuli/Nonsocial1.png,,,"(-0.7, -0.5)",cs_neg_s,"(-0.7, 0.5)",cs_pos_ns,"(0.7, -0.5)",cs_neg_ns,"(0.7, 0.5)",cs_pos_s,0,0,0,0,,,,,,,,,,,,,,,,,,,,,0,14,14,5,,,,,,,,,,,,,,,,,,,,,,,,,,,183,reward,,,,,,985.4372533999849,985.4372533999849,985.4372533999849,985.4372533999849,0,,,1,0.02493710000999272,0.07274410000536591,0,,,0,,,986.18029509997,986.18029509997,986.18029509997,986.18029509997,48,D,2024-05-22_13h14.55.523,attentional_competition_task,2022.2.4,143.96132612257347,
positions.xlsx,positions_test.xlsx,positions_test_new.xlsx,stimuli.xlsx,stimuli_new.xlsx,stimuli/Social4.png,stimuli/Social3.png,stimuli/Nonsocial4.png,stimuli/Nonsocial3.png,stimuli/Social2.png,stimuli/Social1.png,stimuli/Nonsocial2.png,stimuli/Nonsocial1.png,,,"(-0.7, -0.5)",cs_pos_ns,"(-0.7, 0.5)",cs_neg_s,"(0.7, -0.5)",cs_neg_ns,"(0.7, 0.5)",cs_pos_s,0,0,0,0,,,,,,,,,,,,,,,,,,,,,0,15,15,23,,,,,,,,,,,,,,,,,,,,,,,,,,,186,reward,,,,,,993.7702592000132,993.7702592000132,993.7702592000132,993.7702592000132,1,0.022780200000852346,0.022783500025980175,0,,,0,,,0,,,993.7702592000132,993.7702592000132,993.7702592000132,993.7702592000132,48,D,2024-05-22_13h14.55.523,attentional_competition_task,2022.2.4,143.96132612257347,
positions.xlsx,positions_test.xlsx,positions_test_new.xlsx,stimuli.xlsx,stimuli_new.xlsx,stimuli/Social4.png,stimuli/Social3.png,stimuli/Nonsocial4.png,stimuli/Nonsocial3.png,stimuli/Social2.png,stimuli/Social1.png,stimuli/Nonsocial2.png,stimuli/Nonsocial1.png,,,"(-0.7, -0.5)",cs_neg_ns,"(-0.7, 0.5)",cs_pos_ns,"(0.7, -0.5)",cs_pos_s,"(0.7, 0.5)",cs_neg_s,0,0,0,0,,,,,,,,,,,,,,,,,,,,,0,16,16,16,,,,,,,,,,,,,,,,,,,,,,,,,,,192,reward,,,,,,1002.8393656000262,1002.8393656000262,1002.8393656000262,1002.8393656000262,0,,,0,,,1,0.025460299919359386,0.02546419994905591,0,,,1002.8393656000262,1002.8393656000262,1002.8393656000262,1002.8393656000262,48,D,2024-05-22_13h14.55.523,attentional_competition_task,2022.2.4,143.96132612257347,
positions.xlsx,positions_test.xlsx,positions_test_new.xlsx,stimuli.xlsx,stimuli_new.xlsx,stimuli/Social4.png,stimuli/Social3.png,stimuli/Nonsocial4.png,stimuli/Nonsocial3.png,stimuli/Social2.png,stimuli/Social1.png,stimuli/Nonsocial2.png,stimuli/Nonsocial1.png,,,"(-0.7, -0.5)",cs_pos_ns,"(-0.7, 0.5)",cs_pos_s,"(0.7, -0.5)",cs_neg_s,"(0.7, 0.5)",cs_neg_ns,0,0,0,0,,,,,,,,,,,,,,,,,,,,,0,17,17,19,,,,,,,,,,,,,,,,,,,,,,,,,,,201,reward,,,,,,1010.8181913000299,1010.8181913000299,1010.8181913000299,1010.8181913000299,0,,,0,,,0,,,0,,,1011.6654174999567,1011.6654174999567,1011.6654174999567,1011.6654174999567,48,D,2024-05-22_13h14.55.523,attentional_competition_task,2022.2.4,143.96132612257347,
positions.xlsx,positions_test.xlsx,positions_test_new.xlsx,stimuli.xlsx,stimuli_new.xlsx,stimuli/Social4.png,stimuli/Social3.png,stimuli/Nonsocial4.png,stimuli/Nonsocial3.png,stimuli/Social2.png,stimuli/Social1.png,stimuli/Nonsocial2.png,stimuli/Nonsocial1.png,,,"(-0.7, -0.5)",cs_neg_ns,"(-0.7, 0.5)",cs_neg_s,"(0.7, -0.5)",cs_pos_s,"(0.7, 0.5)",cs_pos_ns,0,0,0,0,,,,,,,,,,,,,,,,,,,,,0,18,18,14,,,,,,,,,,,,,,,,,,,,,,,,,,,210,reward,,,,,,1019.4706264999695,1019.4706264999695,1019.4706264999695,1019.4706264999695,0,,,0,,,0,,,0,,,1020.2275404999964,1020.2275404999964,1020.2275404999964,1020.2275404999964,48,D,2024-05-22_13h14.55.523,attentional_competition_task,2022.2.4,143.96132612257347,
positions.xlsx,positions_test.xlsx,positions_test_new.xlsx,stimuli.xlsx,stimuli_new.xlsx,stimuli/Social4.png,stimuli/Social3.png,stimuli/Nonsocial4.png,stimuli/Nonsocial3.png,stimuli/Social2.png,stimuli/Social1.png,stimuli/Nonsocial2.png,stimuli/Nonsocial1.png,,,"(-0.7, -0.5)",cs_pos_s,"(-0.7, 0.5)",cs_neg_s,"(0.7, -0.5)",cs_neg_ns,"(0.7, 0.5)",cs_pos_ns,0,0,0,0,,,,,,,,,,,,,,,,,,,,,0,19,19,6,,,,,,,,,,,,,,,,,,,,,,,,,,,216,reward,,,,,,1027.6091955000302,1027.6091955000302,1027.6091955000302,1027.6091955000302,1,0.0297626000829041,0.2107155000558123,0,,,0,,,1,0.28089680010452867,0.28090050001628697,1027.8869264000095,1027.8869264000095,1027.8869264000095,1027.8869264000095,48,D,2024-05-22_13h14.55.523,attentional_competition_task,2022.2.4,143.96132612257347,
positions.xlsx,positions_test.xlsx,positions_test_new.xlsx,stimuli.xlsx,stimuli_new.xlsx,stimuli/Social4.png,stimuli/Social3.png,stimuli/Nonsocial4.png,stimuli/Nonsocial3.png,stimuli/Social2.png,stimuli/Social1.png,stimuli/Nonsocial2.png,stimuli/Nonsocial1.png,,,"(-0.7, -0.5)",cs_pos_s,"(-0.7, 0.5)",cs_pos_ns,"(0.7, -0.5)",cs_neg_s,"(0.7, 0.5)",cs_neg_ns,0,0,0,0,,,,,,,,,,,,,,,,,,,,,0,20,20,10,,,,,,,,,,,,,,,,,,,,,,,,,,,225,reward,,,,,,1036.949113599956,1036.949113599956,1036.949113599956,1036.949113599956,0,,,0,,,0,,,0,,,1037.8935053999303,1037.8935053999303,1037.8935053999303,1037.8935053999303,48,D,2024-05-22_13h14.55.523,attentional_competition_task,2022.2.4,143.96132612257347,
positions.xlsx,positions_test.xlsx,positions_test_new.xlsx,stimuli.xlsx,stimuli_new.xlsx,stimuli/Social4.png,stimuli/Social3.png,stimuli/Nonsocial4.png,stimuli/Nonsocial3.png,stimuli/Social2.png,stimuli/Social1.png,stimuli/Nonsocial2.png,stimuli/Nonsocial1.png,,,"(-0.7, -0.5)",cs_pos_s,"(-0.7, 0.5)",cs_neg_ns,"(0.7, -0.5)",cs_pos_ns,"(0.7, 0.5)",cs_neg_s,0,0,0,0,,,,,,,,,,,,,,,,,,,,,0,21,21,9,,,,,,,,,,,,,,,,,,,,,,,,,,,234,reward,,,,,,1045.143201699946,1045.143201699946,1045.143201699946,1045.143201699946,0,,,0,,,0,,,0,,,1045.976540899952,1045.976540899952,1045.976540899952,1045.976540899952,48,D,2024-05-22_13h14.55.523,attentional_competition_task,2022.2.4,143.96132612257347,
positions.xlsx,positions_test.xlsx,positions_test_new.xlsx,stimuli.xlsx,stimuli_new.xlsx,stimuli/Social4.png,stimuli/Social3.png,stimuli/Nonsocial4.png,stimuli/Nonsocial3.png,stimuli/Social2.png,stimuli/Social1.png,stimuli/Nonsocial2.png,stimuli/Nonsocial1.png,,,"(-0.7, -0.5)",cs_neg_s,"(-0.7, 0.5)",cs_neg_ns,"(0.7, -0.5)",cs_pos_s,"(0.7, 0.5)",cs_pos_ns,0,0,0,0,,,,,,,,,,,,,,,,,,,,,0,22,22,2,,,,,,,,,,,,,,,,,,,,,,,,,,,243,reward,,,,,,1053.33038509998,1053.33038509998,1053.33038509998,1053.33038509998,0,,,0,,,0,,,0,,,1054.0664705999661,1054.0664705999661,1054.0664705999661,1054.0664705999661,48,D,2024-05-22_13h14.55.523,attentional_competition_task,2022.2.4,143.96132612257347,
positions.xlsx,positions_test.xlsx,positions_test_new.xlsx,stimuli.xlsx,stimuli_new.xlsx,stimuli/Social4.png,stimuli/Social3.png,stimuli/Nonsocial4.png,stimuli/Nonsocial3.png,stimuli/Social2.png,stimuli/Social1.png,stimuli/Nonsocial2.png,stimuli/Nonsocial1.png,,,"(-0.7, -0.5)",cs_pos_s,"(-0.7, 0.5)",cs_neg_ns,"(0.7, -0.5)",cs_neg_s,"(0.7, 0.5)",cs_pos_ns,0,0,0,0,,,,,,,,,,,,,,,,,,,,,0,23,23,8,,,,,,,,,,,,,,,,,,,,,,,,,,,252,reward,,,,,,1061.350945299957,1061.350945299957,1061.350945299957,1061.350945299957,0,,,0,,,0,,,0,,,1062.1078129999805,1062.1078129999805,1062.1078129999805,1062.1078129999805,48,D,2024-05-22_13h14.55.523,attentional_competition_task,2022.2.4,143.96132612257347,
positions.xlsx,positions_test.xlsx,positions_test_new.xlsx,stimuli.xlsx,stimuli_new.xlsx,stimuli/Social4.png,stimuli/Social3.png,stimuli/Nonsocial4.png,stimuli/Nonsocial3.png,stimuli/Social2.png,stimuli/Social1.png,stimuli/Nonsocial2.png,stimuli/Nonsocial1.png,,,"(-0.7, -0.5)",cs_neg_s,"(-0.7, 0.5)",cs_pos_s,"(0.7, -0.5)",cs_pos_ns,"(0.7, 0.5)",cs_neg_ns,0,0,0,0,,,,,,,,,,,,,,,,,,,,,1,0,24,1,,,,,,,,,,,,,,,,,,,,,,,,,,,261,reward,,,,,,1069.7949960000115,1069.7949960000115,1069.7949960000115,1069.7949960000115,0,,,0,,,0,,,0,,,1070.4755360999843,1070.4755360999843,1070.4755360999843,1070.4755360999843,48,D,2024-05-22_13h14.55.523,attentional_competition_task,2022.2.4,143.96132612257347,
positions.xlsx,positions_test.xlsx,positions_test_new.xlsx,stimuli.xlsx,stimuli_new.xlsx,stimuli/Social4.png,stimuli/Social3.png,stimuli/Nonsocial4.png,stimuli/Nonsocial3.png,stimuli/Social2.png,stimuli/Social1.png,stimuli/Nonsocial2.png,stimuli/Nonsocial1.png,,,"(-0.7, -0.5)",cs_neg_ns,"(-0.7, 0.5)",cs_neg_s,"(0.7, -0.5)",cs_pos_ns,"(0.7, 0.5)",cs_pos_s,0,0,0,0,,,,,,,,,,,,,,,,,,,,,1,1,25,15,,,,,,,,,,,,,,,,,,,,,,,,,,,270,reward,,,,,,1078.6210359999677,1078.6210359999677,1078.6210359999677,1078.6210359999677,0,,,0,,,0,,,1,0.024840799975208938,0.0948171999771148,1079.2182535999455,1079.2182535999455,1079.2182535999455,1079.2182535999455,48,D,2024-05-22_13h14.55.523,attentional_competition_task,2022.2.4,143.96132612257347,
positions.xlsx,positions_test.xlsx,positions_test_new.xlsx,stimuli.xlsx,stimuli_new.xlsx,stimuli/Social4.png,stimuli/Social3.png,stimuli/Nonsocial4.png,stimuli/Nonsocial3.png,stimuli/Social2.png,stimuli/Social1.png,stimuli/Nonsocial2.png,stimuli/Nonsocial1.png,,,"(-0.7, -0.5)",cs_neg_s,"(-0.7, 0.5)",cs_pos_ns,"(0.7, -0.5)",cs_pos_s,"(0.7, 0.5)",cs_neg_ns,0,0,0,0,,,,,,,,,,,,,,,,,,,,,1,2,26,4,,,,,,,,,,,,,,,,,,,,,,,,,,,279,reward,,,,,,1086.822134600021,1086.822134600021,1086.822134600021,1086.822134600021,0,,,1,0.02155609999317676,0.23195749998558313,0,,,0,,,1087.7942903999938,1087.7942903999938,1087.7942903999938,1087.7942903999938,48,D,2024-05-22_13h14.55.523,attentional_competition_task,2022.2.4,143.96132612257347,
positions.xlsx,positions_test.xlsx,positions_test_new.xlsx,stimuli.xlsx,stimuli_new.xlsx,stimuli/Social4.png,stimuli/Social3.png,stimuli/Nonsocial4.png,stimuli/Nonsocial3.png,stimuli/Social2.png,stimuli/Social1.png,stimuli/Nonsocial2.png,stimuli/Nonsocial1.png,,,"(-0.7, -0.5)",cs_pos_ns,"(-0.7, 0.5)",cs_pos_s,"(0.7, -0.5)",cs_neg_ns,"(0.7, 0.5)",cs_neg_s,0,0,0,0,,,,,,,,,,,,,,,,,,,,,1,3,27,18,,,,,,,,,,,,,,,,,,,,,,,,,,,288,reward,,,,,,1095.34260730003,1095.34260730003,1095.34260730003,1095.34260730003,0,,,1,0.02301240002270788,0.24056669999845326,0,,,0,,,1096.092551299953,1096.092551299953,1096.092551299953,1096.092551299953,48,D,2024-05-22_13h14.55.523,attentional_competition_task,2022.2.4,143.96132612257347,
positions.xlsx,positions_test.xlsx,positions_test_new.xlsx,stimuli.xlsx,stimuli_new.xlsx,stimuli/Social4.png,stimuli/Social3.png,stimuli/Nonsocial4.png,stimuli/Nonsocial3.png,stimuli/Social2.png,stimuli/Social1.png,stimuli/Nonsocial2.png,stimuli/Nonsocial1.png,,,"(-0.7, -0.5)",cs_pos_s,"(-0.7, 0.5)",cs_neg_s,"(0.7, -0.5)",cs_pos_ns,"(0.7, 0.5)",cs_neg_ns,0,0,0,0,,,,,,,,,,,,,,,,,,,,,1,4,28,7,,,,,,,,,,,,,,,,,,,,,,,,,,,294,reward,,,,,,1103.9741940000094,1103.9741940000094,1103.9741940000094,1103.9741940000094,0,,,0,,,1,0.029680100036785007,0.029683800064958632,0,,,1103.9741940000094,1103.9741940000094,1103.9741940000094,1103.9741940000094,48,D,2024-05-22_13h14.55.523,attentional_competition_task,2022.2.4,143.96132612257347,
positions.xlsx,positions_test.xlsx,positions_test_new.xlsx,stimuli.xlsx,stimuli_new.xlsx,stimuli/Social4.png,stimuli/Social3.png,stimuli/Nonsocial4.png,stimuli/Nonsocial3.png,stimuli/Social2.png,stimuli/Social1.png,stimuli/Nonsocial2.png,stimuli/Nonsocial1.png,,,"(-0.7, -0.5)",cs_neg_s,"(-0.7, 0.5)",cs_pos_s,"(0.7, -0.5)",cs_neg_ns,"(0.7, 0.5)",cs_pos_ns,0,0,0,0,,,,,,,,,,,,,,,,,,,,,1,5,29,0,,,,,,,,,,,,,,,,,,,,,,,,,,,303,reward,,,,,,1112.7446472999873,1112.7446472999873,1112.7446472999873,1112.7446472999873,0,,,0,,,0,,,1,0.032153100008144975,0.1973732999758795,1113.4391634999774,1113.4391634999774,1113.4391634999774,1113.4391634999774,48,D,2024-05-22_13h14.55.523,attentional_competition_task,2022.2.4,143.96132612257347,
positions.xlsx,positions_test.xlsx,positions_test_new.xlsx,stimuli.xlsx,stimuli_new.xlsx,stimuli/Social4.png,stimuli/Social3.png,stimuli/Nonsocial4.png,stimuli/Nonsocial3.png,stimuli/Social2.png,stimuli/Social1.png,stimuli/Nonsocial2.png,stimuli/Nonsocial1.png,,,"(-0.7, -0.5)",cs_pos_ns,"(-0.7, 0.5)",cs_neg_ns,"(0.7, -0.5)",cs_pos_s,"(0.7, 0.5)",cs_neg_s,0,0,0,0,,,,,,,,,,,,,,,,,,,,,1,6,30,20,,,,,,,,,,,,,,,,,,,,,,,,,,,312,reward,,,,,,1121.0568928000284,1121.0568928000284,1121.0568928000284,1121.0568928000284,0,,,0,,,0,,,0,,,1121.98737420002,1121.98737420002,1121.98737420002,1121.98737420002,48,D,2024-05-22_13h14.55.523,attentional_competition_task,2022.2.4,143.96132612257347,
positions.xlsx,positions_test.xlsx,positions_test_new.xlsx,stimuli.xlsx,stimuli_new.xlsx,stimuli/Social4.png,stimuli/Social3.png,stimuli/Nonsocial4.png,stimuli/Nonsocial3.png,stimuli/Social2.png,stimuli/Social1.png,stimuli/Nonsocial2.png,stimuli/Nonsocial1.png,,,"(-0.7, -0.5)",cs_pos_s,"(-0.7, 0.5)",cs_pos_ns,"(0.7, -0.5)",cs_neg_ns,"(0.7, 0.5)",cs_neg_s,0,0,0,0,,,,,,,,,,,,,,,,,,,,,1,7,31,11,,,,,,,,,,,,,,,,,,,,,,,,,,,321,reward,,,,,,1129.3620532000205,1129.3620532000205,1129.3620532000205,1129.3620532000205,0,,,1,0.023636900004930794,0.2467095999745652,0,,,0,,,1130.1120503999991,1130.1120503999991,1130.1120503999991,1130.1120503999991,48,D,2024-05-22_13h14.55.523,attentional_competition_task,2022.2.4,143.96132612257347,
positions.xlsx,positions_test.xlsx,positions_test_new.xlsx,stimuli.xlsx,stimuli_new.xlsx,stimuli/Social4.png,stimuli/Social3.png,stimuli/Nonsocial4.png,stimuli/Nonsocial3.png,stimuli/Social2.png,stimuli/Social1.png,stimuli/Nonsocial2.png,stimuli/Nonsocial1.png,,,"(-0.7, -0.5)",cs_pos_s,"(-0.7, 0.5)",cs_neg_ns,"(0.7, -0.5)",cs_neg_s,"(0.7, 0.5)",cs_pos_ns,0,0,0,0,,,,,,,,,,,,,,,,,,,,,1,8,32,8,,,,,,,,,,,,,,,,,,,,,,,,,,,330,reward,,,,,,1137.7644717999501,1137.7644717999501,1137.7644717999501,1137.7644717999501,0,,,0,,,0,,,1,0.02986490004695952,0.32883630006108433,1138.6464704999235,1138.6464704999235,1138.6464704999235,1138.6464704999235,48,D,2024-05-22_13h14.55.523,attentional_competition_task,2022.2.4,143.96132612257347,
positions.xlsx,positions_test.xlsx,positions_test_new.xlsx,stimuli.xlsx,stimuli_new.xlsx,stimuli/Social4.png,stimuli/Social3.png,stimuli/Nonsocial4.png,stimuli/Nonsocial3.png,stimuli/Social2.png,stimuli/Social1.png,stimuli/Nonsocial2.png,stimuli/Nonsocial1.png,,,"(-0.7, -0.5)",cs_pos_s,"(-0.7, 0.5)",cs_pos_ns,"(0.7, -0.5)",cs_neg_s,"(0.7, 0.5)",cs_neg_ns,0,0,0,0,,,,,,,,,,,,,,,,,,,,,1,9,33,10,,,,,,,,,,,,,,,,,,,,,,,,,,,339,reward,,,,,,1145.7364538999973,1145.7364538999973,1145.7364538999973,1145.7364538999973,0,,,1,0.02266719995532185,0.21891940000932664,0,,,0,,,1146.680865900009,1146.680865900009,1146.680865900009,1146.680865900009,48,D,2024-05-22_13h14.55.523,attentional_competition_task,2022.2.4,143.96132612257347,
positions.xlsx,positions_test.xlsx,positions_test_new.xlsx,stimuli.xlsx,stimuli_new.xlsx,stimuli/Social4.png,stimuli/Social3.png,stimuli/Nonsocial4.png,stimuli/Nonsocial3.png,stimuli/Social2.png,stimuli/Social1.png,stimuli/Nonsocial2.png,stimuli/Nonsocial1.png,,,"(-0.7, -0.5)",cs_neg_s,"(-0.7, 0.5)",cs_neg_ns,"(0.7, -0.5)",cs_pos_s,"(0.7, 0.5)",cs_pos_ns,0,0,0,0,,,,,,,,,,,,,,,,,,,,,1,10,34,2,,,,,,,,,,,,,,,,,,,,,,,,,,,348,reward,,,,,,1154.819366300013,1154.819366300013,1154.819366300013,1154.819366300013,0,,,0,,,1,0.024534700089134276,0.19810420006979257,0,,,1155.5207600999856,1155.5207600999856,1155.5207600999856,1155.5207600999856,48,D,2024-05-22_13h14.55.523,attentional_competition_task,2022.2.4,143.96132612257347,
positions.xlsx,positions_test.xlsx,positions_test_new.xlsx,stimuli.xlsx,stimuli_new.xlsx,stimuli/Social4.png,stimuli/Social3.png,stimuli/Nonsocial4.png,stimuli/Nonsocial3.png,stimuli/Social2.png,stimuli/Social1.png,stimuli/Nonsocial2.png,stimuli/Nonsocial1.png,,,"(-0.7, -0.5)",cs_pos_ns,"(-0.7, 0.5)",cs_neg_ns,"(0.7, -0.5)",cs_neg_s,"(0.7, 0.5)",cs_pos_s,0,0,0,0,,,,,,,,,,,,,,,,,,,,,1,11,35,21,,,,,,,,,,,,,,,,,,,,,,,,,,,348,loss,,,,,,1163.263498699991,1163.263498699991,1163.263498699991,1163.263498699991,0,,,0,,,1,0.03149360010866076,0.03149710001889616,0,,,1163.263498699991,1163.263498699991,1163.263498699991,1163.263498699991,48,D,2024-05-22_13h14.55.523,attentional_competition_task,2022.2.4,143.96132612257347,
positions.xlsx,positions_test.xlsx,positions_test_new.xlsx,stimuli.xlsx,stimuli_new.xlsx,stimuli/Social4.png,stimuli/Social3.png,stimuli/Nonsocial4.png,stimuli/Nonsocial3.png,stimuli/Social2.png,stimuli/Social1.png,stimuli/Nonsocial2.png,stimuli/Nonsocial1.png,,,"(-0.7, -0.5)",cs_pos_ns,"(-0.7, 0.5)",cs_pos_s,"(0.7, -0.5)",cs_neg_s,"(0.7, 0.5)",cs_neg_ns,0,0,0,0,,,,,,,,,,,,,,,,,,,,,1,12,36,19,,,,,,,,,,,,,,,,,,,,,,,,,,,357,reward,,,,,,1171.3812249000184,1171.3812249000184,1171.3812249000184,1171.3812249000184,0,,,0,,,0,,,0,,,1172.242317599943,1172.242317599943,1172.242317599943,1172.242317599943,48,D,2024-05-22_13h14.55.523,attentional_competition_task,2022.2.4,143.96132612257347,
positions.xlsx,positions_test.xlsx,positions_test_new.xlsx,stimuli.xlsx,stimuli_new.xlsx,stimuli/Social4.png,stimuli/Social3.png,stimuli/Nonsocial4.png,stimuli/Nonsocial3.png,stimuli/Social2.png,stimuli/Social1.png,stimuli/Nonsocial2.png,stimuli/Nonsocial1.png,,,"(-0.7, -0.5)",cs_pos_s,"(-0.7, 0.5)",cs_neg_s,"(0.7, -0.5)",cs_neg_ns,"(0.7, 0.5)",cs_pos_ns,0,0,0,0,,,,,,,,,,,,,,,,,,,,,1,13,37,6,,,,,,,,,,,,,,,,,,,,,,,,,,,360,reward,,,,,,1179.922548100003,1179.922548100003,1179.922548100003,1179.922548100003,0,,,0,,,0,,,1,0.024883300065994263,0.024886999977752566,1179.922548100003,1179.922548100003,1179.922548100003,1179.922548100003,48,D,2024-05-22_13h14.55.523,attentional_competition_task,2022.2.4,143.96132612257347,
positions.xlsx,positions_test.xlsx,positions_test_new.xlsx,stimuli.xlsx,stimuli_new.xlsx,stimuli/Social4.png,stimuli/Social3.png,stimuli/Nonsocial4.png,stimuli/Nonsocial3.png,stimuli/Social2.png,stimuli/Social1.png,stimuli/Nonsocial2.png,stimuli/Nonsocial1.png,,,"(-0.7, -0.5)",cs_neg_ns,"(-0.7, 0.5)",cs_pos_ns,"(0.7, -0.5)",cs_pos_s,"(0.7, 0.5)",cs_neg_s,0,0,0,0,,,,,,,,,,,,,,,,,,,,,1,14,38,16,,,,,,,,,,,,,,,,,,,,,,,,,,,366,reward,,,,,,1187.6236992999911,1187.6236992999911,1187.6236992999911,1187.6236992999911,0,,,1,0.028454700019210577,0.05802799994125962,1,0.11399209999945015,0.12789239990524948,0,,,1187.748632999952,1187.748632999952,1187.748632999952,1187.748632999952,48,D,2024-05-22_13h14.55.523,attentional_competition_task,2022.2.4,143.96132612257347,
positions.xlsx,positions_test.xlsx,positions_test_new.xlsx,stimuli.xlsx,stimuli_new.xlsx,stimuli/Social4.png,stimuli/Social3.png,stimuli/Nonsocial4.png,stimuli/Nonsocial3.png,stimuli/Social2.png,stimuli/Social1.png,stimuli/Nonsocial2.png,stimuli/Nonsocial1.png,,,"(-0.7, -0.5)",cs_neg_s,"(-0.7, 0.5)",cs_pos_ns,"(0.7, -0.5)",cs_neg_ns,"(0.7, 0.5)",cs_pos_s,0,0,0,0,,,,,,,,,,,,,,,,,,,,,1,15,39,5,,,,,,,,,,,,,,,,,,,,,,,,,,,375,reward,,,,,,1196.2691272000084,1196.2691272000084,1196.2691272000084,1196.2691272000084,0,,,1,0.030691799940541387,0.22458129993174225,0,,,0,,,1196.991306599928,1196.991306599928,1196.991306599928,1196.991306599928,48,D,2024-05-22_13h14.55.523,attentional_competition_task,2022.2.4,143.96132612257347,
positions.xlsx,positions_test.xlsx,positions_test_new.xlsx,stimuli.xlsx,stimuli_new.xlsx,stimuli/Social4.png,stimuli/Social3.png,stimuli/Nonsocial4.png,stimuli/Nonsocial3.png,stimuli/Social2.png,stimuli/Social1.png,stimuli/Nonsocial2.png,stimuli/Nonsocial1.png,,,"(-0.7, -0.5)",cs_neg_ns,"(-0.7, 0.5)",cs_pos_ns,"(0.7, -0.5)",cs_neg_s,"(0.7, 0.5)",cs_pos_s,0,0,0,0,,,,,,,,,,,,,,,,,,,,,1,16,40,17,,,,,,,,,,,,,,,,,,,,,,,,,,,384,reward,,,,,,1204.7340722000226,1204.7340722000226,1204.7340722000226,1204.7340722000226,0,,,0,,,0,,,0,,,1205.3520903999452,1205.3520903999452,1205.3520903999452,1205.3520903999452,48,D,2024-05-22_13h14.55.523,attentional_competition_task,2022.2.4,143.96132612257347,
positions.xlsx,positions_test.xlsx,positions_test_new.xlsx,stimuli.xlsx,stimuli_new.xlsx,stimuli/Social4.png,stimuli/Social3.png,stimuli/Nonsocial4.png,stimuli/Nonsocial3.png,stimuli/Social2.png,stimuli/Social1.png,stimuli/Nonsocial2.png,stimuli/Nonsocial1.png,,,"(-0.7, -0.5)",cs_pos_ns,"(-0.7, 0.5)",cs_neg_s,"(0.7, -0.5)",cs_neg_ns,"(0.7, 0.5)",cs_pos_s,0,0,0,0,,,,,,,,,,,,,,,,,,,,,1,17,41,23,,,,,,,,,,,,,,,,,,,,,,,,,,,384,reward,,,,,,1212.594861999969,1212.594861999969,1212.594861999969,1212.594861999969,1,0.09274120000191033,0.10032609989866614,0,,,0,,,0,,,1212.692063299939,1212.692063299939,1212.692063299939,1212.692063299939,48,D,2024-05-22_13h14.55.523,attentional_competition_task,2022.2.4,143.96132612257347,
positions.xlsx,positions_test.xlsx,positions_test_new.xlsx,stimuli.xlsx,stimuli_new.xlsx,stimuli/Social4.png,stimuli/Social3.png,stimuli/Nonsocial4.png,stimuli/Nonsocial3.png,stimuli/Social2.png,stimuli/Social1.png,stimuli/Nonsocial2.png,stimuli/Nonsocial1.png,,,"(-0.7, -0.5)",cs_neg_ns,"(-0.7, 0.5)",cs_neg_s,"(0.7, -0.5)",cs_pos_s,"(0.7, 0.5)",cs_pos_ns,0,0,0,0,,,,,,,,,,,,,,,,,,,,,1,18,42,14,,,,,,,,,,,,,,,,,,,,,,,,,,,393,reward,,,,,,1221.6153515999904,1221.6153515999904,1221.6153515999904,1221.6153515999904,0,,,0,,,0,,,0,,,1222.2333949999884,1222.2333949999884,1222.2333949999884,1222.2333949999884,48,D,2024-05-22_13h14.55.523,attentional_competition_task,2022.2.4,143.96132612257347,
positions.xlsx,positions_test.xlsx,positions_test_new.xlsx,stimuli.xlsx,stimuli_new.xlsx,stimuli/Social4.png,stimuli/Social3.png,stimuli/Nonsocial4.png,stimuli/Nonsocial3.png,stimuli/Social2.png,stimuli/Social1.png,stimuli/Nonsocial2.png,stimuli/Nonsocial1.png,,,"(-0.7, -0.5)",cs_pos_s,"(-0.7, 0.5)",cs_neg_ns,"(0.7, -0.5)",cs_pos_ns,"(0.7, 0.5)",cs_neg_s,0,0,0,0,,,,,,,,,,,,,,,,,,,,,1,19,43,9,,,,,,,,,,,,,,,,,,,,,,,,,,,402,reward,,,,,,1229.5247434999328,1229.5247434999328,1229.5247434999328,1229.5247434999328,0,,,0,,,0,,,0,,,1230.3233285000315,1230.3233285000315,1230.3233285000315,1230.3233285000315,48,D,2024-05-22_13h14.55.523,attentional_competition_task,2022.2.4,143.96132612257347,
positions.xlsx,positions_test.xlsx,positions_test_new.xlsx,stimuli.xlsx,stimuli_new.xlsx,stimuli/Social4.png,stimuli/Social3.png,stimuli/Nonsocial4.png,stimuli/Nonsocial3.png,stimuli/Social2.png,stimuli/Social1.png,stimuli/Nonsocial2.png,stimuli/Nonsocial1.png,,,"(-0.7, -0.5)",cs_pos_ns,"(-0.7, 0.5)",cs_neg_s,"(0.7, -0.5)",cs_pos_s,"(0.7, 0.5)",cs_neg_ns,0,0,0,0,,,,,,,,,,,,,,,,,,,,,1,20,44,22,,,,,,,,,,,,,,,,,,,,,,,,,,,408,reward,,,,,,1238.4410477000056,1238.4410477000056,1238.4410477000056,1238.4410477000056,0,,,0,,,1,0.029503699974156916,0.029530299943871796,0,,,1238.4410477000056,1238.4410477000056,1238.4410477000056,1238.4410477000056,48,D,2024-05-22_13h14.55.523,attentional_competition_task,2022.2.4,143.96132612257347,
positions.xlsx,positions_test.xlsx,positions_test_new.xlsx,stimuli.xlsx,stimuli_new.xlsx,stimuli/Social4.png,stimuli/Social3.png,stimuli/Nonsocial4.png,stimuli/Nonsocial3.png,stimuli/Social2.png,stimuli/Social1.png,stimuli/Nonsocial2.png,stimuli/Nonsocial1.png,,,"(-0.7, -0.5)",cs_neg_ns,"(-0.7, 0.5)",cs_pos_s,"(0.7, -0.5)",cs_pos_ns,"(0.7, 0.5)",cs_neg_s,0,0,0,0,,,,,,,,,,,,,,,,,,,,,1,21,45,13,,,,,,,,,,,,,,,,,,,,,,,,,,,414,reward,,,,,,1246.7185269999318,1246.7185269999318,1246.7185269999318,1246.7185269999318,0,,,1,0.025235099950805306,0.14203700004145503,1,0.38494539994280785,0.3849486999679357,0,,,1247.1073824999621,1247.1073824999621,1247.1073824999621,1247.1073824999621,48,D,2024-05-22_13h14.55.523,attentional_competition_task,2022.2.4,143.96132612257347,
positions.xlsx,positions_test.xlsx,positions_test_new.xlsx,stimuli.xlsx,stimuli_new.xlsx,stimuli/Social4.png,stimuli/Social3.png,stimuli/Nonsocial4.png,stimuli/Nonsocial3.png,stimuli/Social2.png,stimuli/Social1.png,stimuli/Nonsocial2.png,stimuli/Nonsocial1.png,,,"(-0.7, -0.5)",cs_neg_s,"(-0.7, 0.5)",cs_neg_ns,"(0.7, -0.5)",cs_pos_ns,"(0.7, 0.5)",cs_pos_s,0,0,0,0,,,,,,,,,,,,,,,,,,,,,1,22,46,3,,,,,,,,,,,,,,,,,,,,,,,,,,,420,reward,,,,,,1255.3015019999584,1255.3015019999584,1255.3015019999584,1255.3015019999584,0,,,0,,,0,,,1,0.02951929997652769,0.029523000004701316,1255.3015019999584,1255.3015019999584,1255.3015019999584,1255.3015019999584,48,D,2024-05-22_13h14.55.523,attentional_competition_task,2022.2.4,143.96132612257347,
positions.xlsx,positions_test.xlsx,positions_test_new.xlsx,stimuli.xlsx,stimuli_new.xlsx,stimuli/Social4.png,stimuli/Social3.png,stimuli/Nonsocial4.png,stimuli/Nonsocial3.png,stimuli/Social2.png,stimuli/Social1.png,stimuli/Nonsocial2.png,stimuli/Nonsocial1.png,,,"(-0.7, -0.5)",cs_neg_ns,"(-0.7, 0.5)",cs_pos_s,"(0.7, -0.5)",cs_neg_s,"(0.7, 0.5)",cs_pos_ns,0,0,0,0,,,,,,,,,,,,,,,,,,,,,1,23,47,12,,,,,,,,,,,,,,,,,,,,,,,,,,,429,reward,,,,,,1264.3288927000249,1264.3288927000249,1264.3288927000249,1264.3288927000249,0,,,1,0.023174499976448715,0.19774189998861402,0,,,0,,,1265.0997959999368,1265.0997959999368,1265.0997959999368,1265.0997959999368,48,D,2024-05-22_13h14.55.523,attentional_competition_task,2022.2.4,143.96132612257347,
positions.xlsx,positions_test.xlsx,positions_test_new.xlsx,stimuli.xlsx,stimuli_new.xlsx,stimuli/Social4.png,stimuli/Social3.png,stimuli/Nonsocial4.png,stimuli/Nonsocial3.png,stimuli/Social2.png,stimuli/Social1.png,stimuli/Nonsocial2.png,stimuli/Nonsocial1.png,,,"(-0.7, -0.5)",cs_pos_s,"(-0.7, 0.5)",cs_neg_ns,"(0.7, -0.5)",cs_pos_ns_new,"(0.7, 0.5)",cs_neg_s,0,0,0,0,,,,,,,,,,,,,,,,,,,,,,,,,,,,,0,0,0,39,0,0,0,0,,,,,,,,,,,,,,,432,reward,,,,,,1271.641123999958,1271.641123999958,1271.641123999958,1271.641123999958,0,,,0,,,1,0.7240855999989435,0.7240893000271171,0,,,1272.3702483000234,1272.3702483000234,1272.3702483000234,1272.3702483000234,48,D,2024-05-22_13h14.55.523,attentional_competition_task,2022.2.4,143.96132612257347,
positions.xlsx,positions_test.xlsx,positions_test_new.xlsx,stimuli.xlsx,stimuli_new.xlsx,stimuli/Social4.png,stimuli/Social3.png,stimuli/Nonsocial4.png,stimuli/Nonsocial3.png,stimuli/Social2.png,stimuli/Social1.png,stimuli/Nonsocial2.png,stimuli/Nonsocial1.png,,,"(-0.7, -0.5)",cs_pos_s,"(-0.7, 0.5)",cs_neg_ns,"(0.7, -0.5)",cs_pos_ns_new,"(0.7, 0.5)",cs_neg_s,0,0,0,0,,,,,,,,,,,,,,,,,,,,,,,,,,,,,0,0,0,39,1,0,1,0,,,,,,,,,,,,,,,435,reward,,,,,,1272.9049862999236,1272.9049862999236,1272.9049862999236,1272.9049862999236,1,0.029868800076656044,0.029872499988414347,0,,,0,,,0,,,1272.9049862999236,1272.9049862999236,1272.9049862999236,1272.9049862999236,48,D,2024-05-22_13h14.55.523,attentional_competition_task,2022.2.4,143.96132612257347,
positions.xlsx,positions_test.xlsx,positions_test_new.xlsx,stimuli.xlsx,stimuli_new.xlsx,stimuli/Social4.png,stimuli/Social3.png,stimuli/Nonsocial4.png,stimuli/Nonsocial3.png,stimuli/Social2.png,stimuli/Social1.png,stimuli/Nonsocial2.png,stimuli/Nonsocial1.png,,,"(-0.7, -0.5)",cs_pos_s,"(-0.7, 0.5)",cs_neg_ns,"(0.7, -0.5)",cs_pos_ns_new,"(0.7, 0.5)",cs_neg_s,0,0,0,0,,,,,,,,,,,,,,,,,,,,,,,,,,,,,0,0,0,39,2,0,2,0,,,,,,,,,,,,,,,438,reward,,,,,,1273.4119045999832,1273.4119045999832,1273.4119045999832,1273.4119045999832,0,,,0,,,0,,,0,,,1274.154968000017,1274.154968000017,1274.154968000017,1274.154968000017,48,D,2024-05-22_13h14.55.523,attentional_competition_task,2022.2.4,143.96132612257347,
positions.xlsx,positions_test.xlsx,positions_test_new.xlsx,stimuli.xlsx,stimuli_new.xlsx,stimuli/Social4.png,stimuli/Social3.png,stimuli/Nonsocial4.png,stimuli/Nonsocial3.png,stimuli/Social2.png,stimuli/Social1.png,stimuli/Nonsocial2.png,stimuli/Nonsocial1.png,,,"(-0.7, -0.5)",cs_pos_s,"(-0.7, 0.5)",cs_neg_ns,"(0.7, -0.5)",cs_pos_ns_new,"(0.7, 0.5)",cs_neg_s,0,0,0,0,,,,,,,,,,,,,,,,,,,,,,,,,,,,,0,0,0,39,,,,,,,,,,,,,,,,,,,,,,,,,,,,,,,,,,,,,,,,,,,,,,48,D,2024-05-22_13h14.55.523,attentional_competition_task,2022.2.4,143.96132612257347,
positions.xlsx,positions_test.xlsx,positions_test_new.xlsx,stimuli.xlsx,stimuli_new.xlsx,stimuli/Social4.png,stimuli/Social3.png,stimuli/Nonsocial4.png,stimuli/Nonsocial3.png,stimuli/Social2.png,stimuli/Social1.png,stimuli/Nonsocial2.png,stimuli/Nonsocial1.png,,,"(-0.7, -0.5)",cs_neg_s,"(-0.7, 0.5)",cs_pos_ns,"(0.7, -0.5)",cs_neg_ns_new,"(0.7, 0.5)",cs_pos_s,0,0,0,0,,,,,,,,,,,,,,,,,,,,,,,,,,,,,0,1,1,27,0,0,0,0,,,,,,,,,,,,,,,441,reward,,,,,,1280.626845599967,1280.626845599967,1280.626845599967,1280.626845599967,0,,,1,1.231339499936439,1.2313431999646127,0,,,0,,,1281.862933699973,1281.862933699973,1281.862933699973,1281.862933699973,48,D,2024-05-22_13h14.55.523,attentional_competition_task,2022.2.4,143.96132612257347,
positions.xlsx,positions_test.xlsx,positions_test_new.xlsx,stimuli.xlsx,stimuli_new.xlsx,stimuli/Social4.png,stimuli/Social3.png,stimuli/Nonsocial4.png,stimuli/Nonsocial3.png,stimuli/Social2.png,stimuli/Social1.png,stimuli/Nonsocial2.png,stimuli/Nonsocial1.png,,,"(-0.7, -0.5)",cs_neg_s,"(-0.7, 0.5)",cs_pos_ns,"(0.7, -0.5)",cs_neg_ns_new,"(0.7, 0.5)",cs_pos_s,0,0,0,0,,,,,,,,,,,,,,,,,,,,,,,,,,,,,0,1,1,27,1,0,1,0,,,,,,,,,,,,,,,444,reward,,,,,,1282.3906958999578,1282.3906958999578,1282.3906958999578,1282.3906958999578,0,,,0,,,0,,,1,0.028929000021889806,0.02893290005158633,1282.3906958999578,1282.3906958999578,1282.3906958999578,1282.3906958999578,48,D,2024-05-22_13h14.55.523,attentional_competition_task,2022.2.4,143.96132612257347,
positions.xlsx,positions_test.xlsx,positions_test_new.xlsx,stimuli.xlsx,stimuli_new.xlsx,stimuli/Social4.png,stimuli/Social3.png,stimuli/Nonsocial4.png,stimuli/Nonsocial3.png,stimuli/Social2.png,stimuli/Social1.png,stimuli/Nonsocial2.png,stimuli/Nonsocial1.png,,,"(-0.7, -0.5)",cs_neg_s,"(-0.7, 0.5)",cs_pos_ns,"(0.7, -0.5)",cs_neg_ns_new,"(0.7, 0.5)",cs_pos_s,0,0,0,0,,,,,,,,,,,,,,,,,,,,,,,,,,,,,0,1,1,27,,,,,,,,,,,,,,,,,,,,,,,,,,,,,,,,,,,,,,,,,,,,,,48,D,2024-05-22_13h14.55.523,attentional_competition_task,2022.2.4,143.96132612257347,
positions.xlsx,positions_test.xlsx,positions_test_new.xlsx,stimuli.xlsx,stimuli_new.xlsx,stimuli/Social4.png,stimuli/Social3.png,stimuli/Nonsocial4.png,stimuli/Nonsocial3.png,stimuli/Social2.png,stimuli/Social1.png,stimuli/Nonsocial2.png,stimuli/Nonsocial1.png,,,"(-0.7, -0.5)",cs_pos_s,"(-0.7, 0.5)",cs_neg_s,"(0.7, -0.5)",cs_pos_ns_new,"(0.7, 0.5)",cs_neg_ns,0,0,0,0,,,,,,,,,,,,,,,,,,,,,,,,,,,,,0,2,2,44,0,0,0,0,,,,,,,,,,,,,,,447,reward,,,,,,1289.7862283999566,1289.7862283999566,1289.7862283999566,1289.7862283999566,0,,,0,,,1,0.807807800010778,0.8078115000389516,0,,,1290.5987266999437,1290.5987266999437,1290.5987266999437,1290.5987266999437,48,D,2024-05-22_13h14.55.523,attentional_competition_task,2022.2.4,143.96132612257347,
positions.xlsx,positions_test.xlsx,positions_test_new.xlsx,stimuli.xlsx,stimuli_new.xlsx,stimuli/Social4.png,stimuli/Social3.png,stimuli/Nonsocial4.png,stimuli/Nonsocial3.png,stimuli/Social2.png,stimuli/Social1.png,stimuli/Nonsocial2.png,stimuli/Nonsocial1.png,,,"(-0.7, -0.5)",cs_pos_s,"(-0.7, 0.5)",cs_neg_s,"(0.7, -0.5)",cs_pos_ns_new,"(0.7, 0.5)",cs_neg_ns,0,0,0,0,,,,,,,,,,,,,,,,,,,,,,,,,,,,,0,2,2,44,1,0,1,0,,,,,,,,,,,,,,,450,reward,,,,,,1291.1333691999316,1291.1333691999316,1291.1333691999316,1291.1333691999316,1,0.029829800012521446,0.02983360004145652,0,,,0,,,0,,,1291.1333691999316,1291.1333691999316,1291.1333691999316,1291.1333691999316,48,D,2024-05-22_13h14.55.523,attentional_competition_task,2022.2.4,143.96132612257347,
positions.xlsx,positions_test.xlsx,positions_test_new.xlsx,stimuli.xlsx,stimuli_new.xlsx,stimuli/Social4.png,stimuli/Social3.png,stimuli/Nonsocial4.png,stimuli/Nonsocial3.png,stimuli/Social2.png,stimuli/Social1.png,stimuli/Nonsocial2.png,stimuli/Nonsocial1.png,,,"(-0.7, -0.5)",cs_pos_s,"(-0.7, 0.5)",cs_neg_s,"(0.7, -0.5)",cs_pos_ns_new,"(0.7, 0.5)",cs_neg_ns,0,0,0,0,,,,,,,,,,,,,,,,,,,,,,,,,,,,,0,2,2,44,2,0,2,0,,,,,,,,,,,,,,,453,reward,,,,,,1291.6403373000212,1291.6403373000212,1291.6403373000212,1291.6403373000212,0,,,0,,,0,,,0,,,1292.3000055999728,1292.3000055999728,1292.3000055999728,1292.3000055999728,48,D,2024-05-22_13h14.55.523,attentional_competition_task,2022.2.4,143.96132612257347,
positions.xlsx,positions_test.xlsx,positions_test_new.xlsx,stimuli.xlsx,stimuli_new.xlsx,stimuli/Social4.png,stimuli/Social3.png,stimuli/Nonsocial4.png,stimuli/Nonsocial3.png,stimuli/Social2.png,stimuli/Social1.png,stimuli/Nonsocial2.png,stimuli/Nonsocial1.png,,,"(-0.7, -0.5)",cs_pos_s,"(-0.7, 0.5)",cs_neg_s,"(0.7, -0.5)",cs_pos_ns_new,"(0.7, 0.5)",cs_neg_ns,0,0,0,0,,,,,,,,,,,,,,,,,,,,,,,,,,,,,0,2,2,44,,,,,,,,,,,,,,,,,,,,,,,,,,,,,,,,,,,,,,,,,,,,,,48,D,2024-05-22_13h14.55.523,attentional_competition_task,2022.2.4,143.96132612257347,
positions.xlsx,positions_test.xlsx,positions_test_new.xlsx,stimuli.xlsx,stimuli_new.xlsx,stimuli/Social4.png,stimuli/Social3.png,stimuli/Nonsocial4.png,stimuli/Nonsocial3.png,stimuli/Social2.png,stimuli/Social1.png,stimuli/Nonsocial2.png,stimuli/Nonsocial1.png,,,"(-0.7, -0.5)",cs_neg_s_new,"(-0.7, 0.5)",cs_neg_ns,"(0.7, -0.5)",cs_pos_ns,"(0.7, 0.5)",cs_pos_s,0,0,0,0,,,,,,,,,,,,,,,,,,,,,,,,,,,,,0,3,3,13,0,0,0,0,,,,,,,,,,,,,,,450,loss,,,,,,1298.6053386999993,1298.6053386999993,1298.6053386999993,1298.6053386999993,1,0.9323802998987958,0.9323839999269694,0,,,0,,,0,,,1299.542812599917,1299.542812599917,1299.542812599917,1299.542812599917,48,D,2024-05-22_13h14.55.523,attentional_competition_task,2022.2.4,143.96132612257347,
positions.xlsx,positions_test.xlsx,positions_test_new.xlsx,stimuli.xlsx,stimuli_new.xlsx,stimuli/Social4.png,stimuli/Social3.png,stimuli/Nonsocial4.png,stimuli/Nonsocial3.png,stimuli/Social2.png,stimuli/Social1.png,stimuli/Nonsocial2.png,stimuli/Nonsocial1.png,,,"(-0.7, -0.5)",cs_neg_s_new,"(-0.7, 0.5)",cs_neg_ns,"(0.7, -0.5)",cs_pos_ns,"(0.7, 0.5)",cs_pos_s,0,0,0,0,,,,,,,,,,,,,,,,,,,,,,,,,,,,,0,3,3,13,1,0,1,0,,,,,,,,,,,,,,,453,reward,,,,,,1300.0774786999682,1300.0774786999682,1300.0774786999682,1300.0774786999682,0,,,0,,,0,,,1,0.030224099988117814,0.03022750001400709,1300.0774786999682,1300.0774786999682,1300.0774786999682,1300.0774786999682,48,D,2024-05-22_13h14.55.523,attentional_competition_task,2022.2.4,143.96132612257347,
positions.xlsx,positions_test.xlsx,positions_test_new.xlsx,stimuli.xlsx,stimuli_new.xlsx,stimuli/Social4.png,stimuli/Social3.png,stimuli/Nonsocial4.png,stimuli/Nonsocial3.png,stimuli/Social2.png,stimuli/Social1.png,stimuli/Nonsocial2.png,stimuli/Nonsocial1.png,,,"(-0.7, -0.5)",cs_neg_s_new,"(-0.7, 0.5)",cs_neg_ns,"(0.7, -0.5)",cs_pos_ns,"(0.7, 0.5)",cs_pos_s,0,0,0,0,,,,,,,,,,,,,,,,,,,,,,,,,,,,,0,3,3,13,2,0,2,0,,,,,,,,,,,,,,,456,reward,,,,,,1300.577412799932,1300.577412799932,1300.577412799932,1300.577412799932,1,0.023932699928991497,0.03816589992493391,0,,,0,,,0,,,1301.1191123999888,1301.1191123999888,1301.1191123999888,1301.1191123999888,48,D,2024-05-22_13h14.55.523,attentional_competition_task,2022.2.4,143.96132612257347,
positions.xlsx,positions_test.xlsx,positions_test_new.xlsx,stimuli.xlsx,stimuli_new.xlsx,stimuli/Social4.png,stimuli/Social3.png,stimuli/Nonsocial4.png,stimuli/Nonsocial3.png,stimuli/Social2.png,stimuli/Social1.png,stimuli/Nonsocial2.png,stimuli/Nonsocial1.png,,,"(-0.7, -0.5)",cs_neg_s_new,"(-0.7, 0.5)",cs_neg_ns,"(0.7, -0.5)",cs_pos_ns,"(0.7, 0.5)",cs_pos_s,0,0,0,0,,,,,,,,,,,,,,,,,,,,,,,,,,,,,0,3,3,13,,,,,,,,,,,,,,,,,,,,,,,,,,,,,,,,,,,,,,,,,,,,,,48,D,2024-05-22_13h14.55.523,attentional_competition_task,2022.2.4,143.96132612257347,
positions.xlsx,positions_test.xlsx,positions_test_new.xlsx,stimuli.xlsx,stimuli_new.xlsx,stimuli/Social4.png,stimuli/Social3.png,stimuli/Nonsocial4.png,stimuli/Nonsocial3.png,stimuli/Social2.png,stimuli/Social1.png,stimuli/Nonsocial2.png,stimuli/Nonsocial1.png,,,"(-0.7, -0.5)",cs_neg_s,"(-0.7, 0.5)",cs_pos_s_new,"(0.7, -0.5)",cs_pos_ns,"(0.7, 0.5)",cs_neg_ns,0,0,0,0,,,,,,,,,,,,,,,,,,,,,,,,,,,,,0,4,4,33,0,0,0,0,,,,,,,,,,,,,,,453,loss,,,,,,1306.8202680000104,1306.8202680000104,1306.8202680000104,1306.8202680000104,0,,,0,,,0,,,1,0.5308611000655219,0.5308649999788031,1307.354967399966,1307.354967399966,1307.354967399966,1307.354967399966,48,D,2024-05-22_13h14.55.523,attentional_competition_task,2022.2.4,143.96132612257347,
positions.xlsx,positions_test.xlsx,positions_test_new.xlsx,stimuli.xlsx,stimuli_new.xlsx,stimuli/Social4.png,stimuli/Social3.png,stimuli/Nonsocial4.png,stimuli/Nonsocial3.png,stimuli/Social2.png,stimuli/Social1.png,stimuli/Nonsocial2.png,stimuli/Nonsocial1.png,,,"(-0.7, -0.5)",cs_neg_s,"(-0.7, 0.5)",cs_pos_s_new,"(0.7, -0.5)",cs_pos_ns,"(0.7, 0.5)",cs_neg_ns,0,0,0,0,,,,,,,,,,,,,,,,,,,,,,,,,,,,,0,4,4,33,1,0,1,0,,,,,,,,,,,,,,,456,reward,,,,,,1307.8896710999543,1307.8896710999543,1307.8896710999543,1307.8896710999543,0,,,0,,,1,0.03011930000502616,0.030123200034722686,0,,,1307.8896710999543,1307.8896710999543,1307.8896710999543,1307.8896710999543,48,D,2024-05-22_13h14.55.523,attentional_competition_task,2022.2.4,143.96132612257347,
positions.xlsx,positions_test.xlsx,positions_test_new.xlsx,stimuli.xlsx,stimuli_new.xlsx,stimuli/Social4.png,stimuli/Social3.png,stimuli/Nonsocial4.png,stimuli/Nonsocial3.png,stimuli/Social2.png,stimuli/Social1.png,stimuli/Nonsocial2.png,stimuli/Nonsocial1.png,,,"(-0.7, -0.5)",cs_neg_s,"(-0.7, 0.5)",cs_pos_s_new,"(0.7, -0.5)",cs_pos_ns,"(0.7, 0.5)",cs_neg_ns,0,0,0,0,,,,,,,,,,,,,,,,,,,,,,,,,,,,,0,4,4,33,2,0,2,0,,,,,,,,,,,,,,,459,reward,,,,,,1308.4243601999478,1308.4243601999478,1308.4243601999478,1308.4243601999478,0,,,1,0.030758599983528256,0.03076260001398623,0,,,0,,,1308.4243601999478,1308.4243601999478,1308.4243601999478,1308.4243601999478,48,D,2024-05-22_13h14.55.523,attentional_competition_task,2022.2.4,143.96132612257347,
positions.xlsx,positions_test.xlsx,positions_test_new.xlsx,stimuli.xlsx,stimuli_new.xlsx,stimuli/Social4.png,stimuli/Social3.png,stimuli/Nonsocial4.png,stimuli/Nonsocial3.png,stimuli/Social2.png,stimuli/Social1.png,stimuli/Nonsocial2.png,stimuli/Nonsocial1.png,,,"(-0.7, -0.5)",cs_neg_s,"(-0.7, 0.5)",cs_pos_s_new,"(0.7, -0.5)",cs_pos_ns,"(0.7, 0.5)",cs_neg_ns,0,0,0,0,,,,,,,,,,,,,,,,,,,,,,,,,,,,,0,4,4,33,,,,,,,,,,,,,,,,,,,,,,,,,,,,,,,,,,,,,,,,,,,,,,48,D,2024-05-22_13h14.55.523,attentional_competition_task,2022.2.4,143.96132612257347,
positions.xlsx,positions_test.xlsx,positions_test_new.xlsx,stimuli.xlsx,stimuli_new.xlsx,stimuli/Social4.png,stimuli/Social3.png,stimuli/Nonsocial4.png,stimuli/Nonsocial3.png,stimuli/Social2.png,stimuli/Social1.png,stimuli/Nonsocial2.png,stimuli/Nonsocial1.png,,,"(-0.7, -0.5)",cs_neg_ns,"(-0.7, 0.5)",cs_pos_ns,"(0.7, -0.5)",cs_pos_s,"(0.7, 0.5)",cs_neg_s_new,0,0,0,0,,,,,,,,,,,,,,,,,,,,,,,,,,,,,0,5,5,8,0,0,0,0,,,,,,,,,,,,,,,456,loss,,,,,,1315.7643803999526,1315.7643803999526,1315.7643803999526,1315.7643803999526,0,,,0,,,0,,,1,0.7727746999589726,0.7727780999848619,1316.5351666000206,1316.5351666000206,1316.5351666000206,1316.5351666000206,48,D,2024-05-22_13h14.55.523,attentional_competition_task,2022.2.4,143.96132612257347,
positions.xlsx,positions_test.xlsx,positions_test_new.xlsx,stimuli.xlsx,stimuli_new.xlsx,stimuli/Social4.png,stimuli/Social3.png,stimuli/Nonsocial4.png,stimuli/Nonsocial3.png,stimuli/Social2.png,stimuli/Social1.png,stimuli/Nonsocial2.png,stimuli/Nonsocial1.png,,,"(-0.7, -0.5)",cs_neg_ns,"(-0.7, 0.5)",cs_pos_ns,"(0.7, -0.5)",cs_pos_s,"(0.7, 0.5)",cs_neg_s_new,0,0,0,0,,,,,,,,,,,,,,,,,,,,,,,,,,,,,0,5,5,8,1,0,1,0,,,,,,,,,,,,,,,459,reward,,,,,,1317.062950399937,1317.062950399937,1317.062950399937,1317.062950399937,0,,,0,,,1,0.0226979999570176,0.022701699985191226,0,,,1317.062950399937,1317.062950399937,1317.062950399937,1317.062950399937,48,D,2024-05-22_13h14.55.523,attentional_competition_task,2022.2.4,143.96132612257347,
positions.xlsx,positions_test.xlsx,positions_test_new.xlsx,stimuli.xlsx,stimuli_new.xlsx,stimuli/Social4.png,stimuli/Social3.png,stimuli/Nonsocial4.png,stimuli/Nonsocial3.png,stimuli/Social2.png,stimuli/Social1.png,stimuli/Nonsocial2.png,stimuli/Nonsocial1.png,,,"(-0.7, -0.5)",cs_neg_ns,"(-0.7, 0.5)",cs_pos_ns,"(0.7, -0.5)",cs_pos_s,"(0.7, 0.5)",cs_neg_s_new,0,0,0,0,,,,,,,,,,,,,,,,,,,,,,,,,,,,,0,5,5,8,2,0,2,0,,,,,,,,,,,,,,,456,loss,,,,,,1317.5976234999252,1317.5976234999252,1317.5976234999252,1317.5976234999252,1,0.02575919998344034,0.025763000012375414,0,,,0,,,0,,,1317.5976234999252,1317.5976234999252,1317.5976234999252,1317.5976234999252,48,D,2024-05-22_13h14.55.523,attentional_competition_task,2022.2.4,143.96132612257347,
positions.xlsx,positions_test.xlsx,positions_test_new.xlsx,stimuli.xlsx,stimuli_new.xlsx,stimuli/Social4.png,stimuli/Social3.png,stimuli/Nonsocial4.png,stimuli/Nonsocial3.png,stimuli/Social2.png,stimuli/Social1.png,stimuli/Nonsocial2.png,stimuli/Nonsocial1.png,,,"(-0.7, -0.5)",cs_neg_ns,"(-0.7, 0.5)",cs_pos_ns,"(0.7, -0.5)",cs_pos_s,"(0.7, 0.5)",cs_neg_s_new,0,0,0,0,,,,,,,,,,,,,,,,,,,,,,,,,,,,,0,5,5,8,,,,,,,,,,,,,,,,,,,,,,,,,,,,,,,,,,,,,,,,,,,,,,48,D,2024-05-22_13h14.55.523,attentional_competition_task,2022.2.4,143.96132612257347,
positions.xlsx,positions_test.xlsx,positions_test_new.xlsx,stimuli.xlsx,stimuli_new.xlsx,stimuli/Social4.png,stimuli/Social3.png,stimuli/Nonsocial4.png,stimuli/Nonsocial3.png,stimuli/Social2.png,stimuli/Social1.png,stimuli/Nonsocial2.png,stimuli/Nonsocial1.png,,,"(-0.7, -0.5)",cs_pos_s_new,"(-0.7, 0.5)",cs_neg_s,"(0.7, -0.5)",cs_neg_ns,"(0.7, 0.5)",cs_pos_ns,0,0,0,0,,,,,,,,,,,,,,,,,,,,,,,,,,,,,0,6,6,28,0,0,0,0,,,,,,,,,,,,,,,459,reward,,,,,,1324.7778885000153,1324.7778885000153,1324.7778885000153,1324.7778885000153,0,,,0,,,0,,,1,0.8566209999844432,0.8566246000118554,1325.645909999963,1325.645909999963,1325.645909999963,1325.645909999963,48,D,2024-05-22_13h14.55.523,attentional_competition_task,2022.2.4,143.96132612257347,
positions.xlsx,positions_test.xlsx,positions_test_new.xlsx,stimuli.xlsx,stimuli_new.xlsx,stimuli/Social4.png,stimuli/Social3.png,stimuli/Nonsocial4.png,stimuli/Nonsocial3.png,stimuli/Social2.png,stimuli/Social1.png,stimuli/Nonsocial2.png,stimuli/Nonsocial1.png,,,"(-0.7, -0.5)",cs_pos_s_new,"(-0.7, 0.5)",cs_neg_s,"(0.7, -0.5)",cs_neg_ns,"(0.7, 0.5)",cs_pos_ns,0,0,0,0,,,,,,,,,,,,,,,,,,,,,,,,,,,,,0,6,6,28,1,0,1,0,,,,,,,,,,,,,,,462,reward,,,,,,1326.1458633999573,1326.1458633999573,1326.1458633999573,1326.1458633999573,1,0.3361083000199869,0.3361133000580594,0,,,0,,,0,,,1326.4861555999378,1326.4861555999378,1326.4861555999378,1326.4861555999378,48,D,2024-05-22_13h14.55.523,attentional_competition_task,2022.2.4,143.96132612257347,
positions.xlsx,positions_test.xlsx,positions_test_new.xlsx,stimuli.xlsx,stimuli_new.xlsx,stimuli/Social4.png,stimuli/Social3.png,stimuli/Nonsocial4.png,stimuli/Nonsocial3.png,stimuli/Social2.png,stimuli/Social1.png,stimuli/Nonsocial2.png,stimuli/Nonsocial1.png,,,"(-0.7, -0.5)",cs_pos_s_new,"(-0.7, 0.5)",cs_neg_s,"(0.7, -0.5)",cs_neg_ns,"(0.7, 0.5)",cs_pos_ns,0,0,0,0,,,,,,,,,,,,,,,,,,,,,,,,,,,,,0,6,6,28,,,,,,,,,,,,,,,,,,,,,,,,,,,,,,,,,,,,,,,,,,,,,,48,D,2024-05-22_13h14.55.523,attentional_competition_task,2022.2.4,143.96132612257347,
positions.xlsx,positions_test.xlsx,positions_test_new.xlsx,stimuli.xlsx,stimuli_new.xlsx,stimuli/Social4.png,stimuli/Social3.png,stimuli/Nonsocial4.png,stimuli/Nonsocial3.png,stimuli/Social2.png,stimuli/Social1.png,stimuli/Nonsocial2.png,stimuli/Nonsocial1.png,,,"(-0.7, -0.5)",cs_neg_s,"(-0.7, 0.5)",cs_pos_ns,"(0.7, -0.5)",cs_pos_s_new,"(0.7, 0.5)",cs_neg_ns,0,0,0,0,,,,,,,,,,,,,,,,,,,,,,,,,,,,,0,7,7,34,0,0,0,0,,,,,,,,,,,,,,,459,loss,,,,,,1333.2775550999213,1333.2775550999213,1333.2775550999213,1333.2775550999213,0,,,0,,,0,,,1,0.7736538000172004,0.7736572000430897,1334.0622355999658,1334.0622355999658,1334.0622355999658,1334.0622355999658,48,D,2024-05-22_13h14.55.523,attentional_competition_task,2022.2.4,143.96132612257347,
positions.xlsx,positions_test.xlsx,positions_test_new.xlsx,stimuli.xlsx,stimuli_new.xlsx,stimuli/Social4.png,stimuli/Social3.png,stimuli/Nonsocial4.png,stimuli/Nonsocial3.png,stimuli/Social2.png,stimuli/Social1.png,stimuli/Nonsocial2.png,stimuli/Nonsocial1.png,,,"(-0.7, -0.5)",cs_neg_s,"(-0.7, 0.5)",cs_pos_ns,"(0.7, -0.5)",cs_pos_s_new,"(0.7, 0.5)",cs_neg_ns,0,0,0,0,,,,,,,,,,,,,,,,,,,,,,,,,,,,,0,7,7,34,1,0,1,0,,,,,,,,,,,,,,,456,loss,,,,,,1334.569189599948,1334.569189599948,1334.569189599948,1334.569189599948,1,0.044871299993246794,0.04487490002065897,0,,,0,,,0,,,1334.6108434000053,1334.6108434000053,1334.6108434000053,1334.6108434000053,48,D,2024-05-22_13h14.55.523,attentional_competition_task,2022.2.4,143.96132612257347,
positions.xlsx,positions_test.xlsx,positions_test_new.xlsx,stimuli.xlsx,stimuli_new.xlsx,stimuli/Social4.png,stimuli/Social3.png,stimuli/Nonsocial4.png,stimuli/Nonsocial3.png,stimuli/Social2.png,stimuli/Social1.png,stimuli/Nonsocial2.png,stimuli/Nonsocial1.png,,,"(-0.7, -0.5)",cs_neg_s,"(-0.7, 0.5)",cs_pos_ns,"(0.7, -0.5)",cs_pos_s_new,"(0.7, 0.5)",cs_neg_ns,0,0,0,0,,,,,,,,,,,,,,,,,,,,,,,,,,,,,0,7,7,34,2,0,2,0,,,,,,,,,,,,,,,459,reward,,,,,,1335.1177304999437,1335.1177304999437,1335.1177304999437,1335.1177304999437,0,,,1,0.09241679997649044,0.09242040000390261,0,,,0,,,1335.2080255999463,1335.2080255999463,1335.2080255999463,1335.2080255999463,48,D,2024-05-22_13h14.55.523,attentional_competition_task,2022.2.4,143.96132612257347,
positions.xlsx,positions_test.xlsx,positions_test_new.xlsx,stimuli.xlsx,stimuli_new.xlsx,stimuli/Social4.png,stimuli/Social3.png,stimuli/Nonsocial4.png,stimuli/Nonsocial3.png,stimuli/Social2.png,stimuli/Social1.png,stimuli/Nonsocial2.png,stimuli/Nonsocial1.png,,,"(-0.7, -0.5)",cs_neg_s,"(-0.7, 0.5)",cs_pos_ns,"(0.7, -0.5)",cs_pos_s_new,"(0.7, 0.5)",cs_neg_ns,0,0,0,0,,,,,,,,,,,,,,,,,,,,,,,,,,,,,0,7,7,34,,,,,,,,,,,,,,,,,,,,,,,,,,,,,,,,,,,,,,,,,,,,,,48,D,2024-05-22_13h14.55.523,attentional_competition_task,2022.2.4,143.96132612257347,
positions.xlsx,positions_test.xlsx,positions_test_new.xlsx,stimuli.xlsx,stimuli_new.xlsx,stimuli/Social4.png,stimuli/Social3.png,stimuli/Nonsocial4.png,stimuli/Nonsocial3.png,stimuli/Social2.png,stimuli/Social1.png,stimuli/Nonsocial2.png,stimuli/Nonsocial1.png,,,"(-0.7, -0.5)",cs_neg_s,"(-0.7, 0.5)",cs_neg_ns,"(0.7, -0.5)",cs_pos_s,"(0.7, 0.5)",cs_pos_ns_new,0,0,0,0,,,,,,,,,,,,,,,,,,,,,,,,,,,,,0,8,8,42,0,0,0,0,,,,,,,,,,,,,,,462,reward,,,,,,1341.839739899966,1341.839739899966,1341.839739899966,1341.839739899966,0,,,0,,,0,,,1,1.037299699964933,1.0440752999857068,1342.8882771999342,1342.8882771999342,1342.8882771999342,1342.8882771999342,48,D,2024-05-22_13h14.55.523,attentional_competition_task,2022.2.4,143.96132612257347,
positions.xlsx,positions_test.xlsx,positions_test_new.xlsx,stimuli.xlsx,stimuli_new.xlsx,stimuli/Social4.png,stimuli/Social3.png,stimuli/Nonsocial4.png,stimuli/Nonsocial3.png,stimuli/Social2.png,stimuli/Social1.png,stimuli/Nonsocial2.png,stimuli/Nonsocial1.png,,,"(-0.7, -0.5)",cs_neg_s,"(-0.7, 0.5)",cs_neg_ns,"(0.7, -0.5)",cs_pos_s,"(0.7, 0.5)",cs_pos_ns_new,0,0,0,0,,,,,,,,,,,,,,,,,,,,,,,,,,,,,0,8,8,42,1,0,1,0,,,,,,,,,,,,,,,465,reward,,,,,,1343.3952018999262,1343.3952018999262,1343.3952018999262,1343.3952018999262,0,,,0,,,1,0.23887740005739033,0.23888090008404106,0,,,1343.6243696999736,1343.6243696999736,1343.6243696999736,1343.6243696999736,48,D,2024-05-22_13h14.55.523,attentional_competition_task,2022.2.4,143.96132612257347,
positions.xlsx,positions_test.xlsx,positions_test_new.xlsx,stimuli.xlsx,stimuli_new.xlsx,stimuli/Social4.png,stimuli/Social3.png,stimuli/Nonsocial4.png,stimuli/Nonsocial3.png,stimuli/Social2.png,stimuli/Social1.png,stimuli/Nonsocial2.png,stimuli/Nonsocial1.png,,,"(-0.7, -0.5)",cs_neg_s,"(-0.7, 0.5)",cs_neg_ns,"(0.7, -0.5)",cs_pos_s,"(0.7, 0.5)",cs_pos_ns_new,0,0,0,0,,,,,,,,,,,,,,,,,,,,,,,,,,,,,0,8,8,42,,,,,,,,,,,,,,,,,,,,,,,,,,,,,,,,,,,,,,,,,,,,,,48,D,2024-05-22_13h14.55.523,attentional_competition_task,2022.2.4,143.96132612257347,
