posFile,posFileTest,posFileTestNew,stimFile,stimFileNew,cs_neg_s,cs_pos_s,cs_neg_ns,cs_pos_ns,cs_neg_s_new,cs_pos_s_new,cs_neg_ns_new,cs_pos_ns_new,stim,position,position1,stim1,position2,stim2,position3,stim3,position4,stim4,blocks.thisRepN,blocks.thisTrialN,blocks.thisN,blocks.thisIndex,ratingtrials1.thisRepN,ratingtrials1.thisTrialN,ratingtrials1.thisN,ratingtrials1.thisIndex,search_task_trials.thisRepN,search_task_trials.thisTrialN,search_task_trials.thisN,search_task_trials.thisIndex,learning_trials.thisRepN,learning_trials.thisTrialN,learning_trials.thisN,learning_trials.thisIndex,trials.thisRepN,trials.thisTrialN,trials.thisN,trials.thisIndex,ratingtrials2.thisRepN,ratingtrials2.thisTrialN,ratingtrials2.thisN,ratingtrials2.thisIndex,testtrials.thisRepN,testtrials.thisTrialN,testtrials.thisN,testtrials.thisIndex,loop_test.thisRepN,loop_test.thisTrialN,loop_test.thisN,loop_test.thisIndex,testtrials_novelty.thisRepN,testtrials_novelty.thisTrialN,testtrials_novelty.thisN,testtrials_novelty.thisIndex,loop_test_novelty.thisRepN,loop_test_novelty.thisTrialN,loop_test_novelty.thisN,loop_test_novelty.thisIndex,ratingtrials3.thisRepN,ratingtrials3.thisTrialN,ratingtrials3.thisN,ratingtrials3.thisIndex,textStart.started,textStartExp.started,imageRating.started,sliderStim.response,sliderStim.rt,textStartSearch.started,target_positions,distractor_positions,textStartTask.started,image.started,score,outcome,roi.numLooks,roi.timesOn,roi.timesOff,imageFeedback.started,textTestInstr.started,test_image1.started,test_image2.started,test_image3.started,test_image4.started,test_roi1.numLooks,test_roi1.timesOn,test_roi1.timesOff,test_roi2.numLooks,test_roi2.timesOn,test_roi2.timesOff,test_roi3.numLooks,test_roi3.timesOn,test_roi3.timesOff,test_roi4.numLooks,test_roi4.timesOn,test_roi4.timesOff,test_image_feedback1.started,test_image_feedback2.started,test_iamge_feedback3.started,test_iamge_feedback4.started,participant,group,date,expName,psychopyVersion,frameRate,
positions.xlsx,positions_test.xlsx,positions_test_new.xlsx,stimuli.xlsx,stimuli_new.xlsx,stimuli/Social2.png,stimuli/Social1.png,stimuli/Nonsocial2.png,stimuli/Nonsocial1.png,stimuli/Social4.png,stimuli/Social3.png,stimuli/Nonsocial4.png,stimuli/Nonsocial3.png,cs_pos_s,,,,,,,,,,0,0,0,0,0,0,0,2,,,,,,,,,,,,,,,,,,,,,,,,,,,,,,,,,,,,,14.37264829999981,103.17954769999983,111.83276849999993,8.0,8.752202800000077,,,,,,,,,,,,,,,,,,,,,,,,,,,,,,,,,21,B,2024-04-30_10h55.52.935,attentional_competition_task,2022.2.4,143.93770376213922,
positions.xlsx,positions_test.xlsx,positions_test_new.xlsx,stimuli.xlsx,stimuli_new.xlsx,stimuli/Social2.png,stimuli/Social1.png,stimuli/Nonsocial2.png,stimuli/Nonsocial1.png,stimuli/Social4.png,stimuli/Social3.png,stimuli/Nonsocial4.png,stimuli/Nonsocial3.png,cs_pos_ns,,,,,,,,,,0,0,0,0,0,1,1,3,,,,,,,,,,,,,,,,,,,,,,,,,,,,,,,,,,,,,,,121.41548709999984,9.0,4.6549817999998595,,,,,,,,,,,,,,,,,,,,,,,,,,,,,,,,,21,B,2024-04-30_10h55.52.935,attentional_competition_task,2022.2.4,143.93770376213922,
positions.xlsx,positions_test.xlsx,positions_test_new.xlsx,stimuli.xlsx,stimuli_new.xlsx,stimuli/Social2.png,stimuli/Social1.png,stimuli/Nonsocial2.png,stimuli/Nonsocial1.png,stimuli/Social4.png,stimuli/Social3.png,stimuli/Nonsocial4.png,stimuli/Nonsocial3.png,cs_neg_s,,,,,,,,,,0,0,0,0,0,2,2,0,,,,,,,,,,,,,,,,,,,,,,,,,,,,,,,,,,,,,,,126.80418729999997,8.0,4.058670800000073,,,,,,,,,,,,,,,,,,,,,,,,,,,,,,,,,21,B,2024-04-30_10h55.52.935,attentional_competition_task,2022.2.4,143.93770376213922,
positions.xlsx,positions_test.xlsx,positions_test_new.xlsx,stimuli.xlsx,stimuli_new.xlsx,stimuli/Social2.png,stimuli/Social1.png,stimuli/Nonsocial2.png,stimuli/Nonsocial1.png,stimuli/Social4.png,stimuli/Social3.png,stimuli/Nonsocial4.png,stimuli/Nonsocial3.png,cs_neg_ns,,,,,,,,,,0,0,0,0,0,3,3,1,,,,,,,,,,,,,,,,,,,,,,,,,,,,,,,,,,,,,,,132.35951729999988,10.0,3.5459160999998858,,,,,,,,,,,,,,,,,,,,,,,,,,,,,,,,,21,B,2024-04-30_10h55.52.935,attentional_competition_task,2022.2.4,143.93770376213922,
positions.xlsx,positions_test.xlsx,positions_test_new.xlsx,stimuli.xlsx,stimuli_new.xlsx,stimuli/Social2.png,stimuli/Social1.png,stimuli/Nonsocial2.png,stimuli/Nonsocial1.png,stimuli/Social4.png,stimuli/Social3.png,stimuli/Nonsocial4.png,stimuli/Nonsocial3.png,,,,,,,,,,,0,0,0,0,,,,,0,0,0,0,,,,,,,,,,,,,,,,,,,,,,,,,,,,,,,,,,,,,,136.58849859999987,"[[0.6749999999999999, -0.30000000000000004], [-0.675, -0.8], [0.6749999999999999, 0.19999999999999996], [0.45000000000000007, -0.8], [-0.45, 0.19999999999999996], [-0.9, -0.30000000000000004], [0.0, 0.7], [0.45000000000000007, -0.30000000000000004], [0.9, 0.19999999999999996], [-0.9, 0.7], [0.22499999999999998, 0.19999999999999996], [-0.45, -0.8], [-0.22499999999999998, 0.19999999999999996], [0.22499999999999998, -0.30000000000000004], [-0.675, -0.30000000000000004]]","[[-0.675, 0.19999999999999996], [-0.22499999999999998, 0.7], [0.22499999999999998, -0.8], [-0.22499999999999998, -0.8], [0.22499999999999998, 0.7], [0.0, 0.19999999999999996], [-0.45, -0.30000000000000004], [-0.22499999999999998, -0.30000000000000004], [-0.9, 0.19999999999999996], [0.45000000000000007, 0.7], [-0.675, 0.7], [0.6749999999999999, 0.7], [0.9, -0.30000000000000004], [-0.45, 0.7], [-0.9, -0.8]]",,,,,,,,,,,,,,,,,,,,,,,,,,,,,,21,B,2024-04-30_10h55.52.935,attentional_competition_task,2022.2.4,143.93770376213922,
positions.xlsx,positions_test.xlsx,positions_test_new.xlsx,stimuli.xlsx,stimuli_new.xlsx,stimuli/Social2.png,stimuli/Social1.png,stimuli/Nonsocial2.png,stimuli/Nonsocial1.png,stimuli/Social4.png,stimuli/Social3.png,stimuli/Nonsocial4.png,stimuli/Nonsocial3.png,,,,,,,,,,,0,0,0,0,,,,,1,0,1,0,,,,,,,,,,,,,,,,,,,,,,,,,,,,,,,,,,,,,,,"[[-0.45, 0.7], [0.6749999999999999, -0.8], [0.6749999999999999, 0.7], [-0.45, 0.19999999999999996], [0.0, -0.30000000000000004], [0.45000000000000007, -0.30000000000000004], [-0.9, -0.8], [0.6749999999999999, -0.30000000000000004], [-0.9, 0.19999999999999996], [0.9, 0.7], [0.45000000000000007, 0.19999999999999996], [-0.45, -0.8], [-0.9, 0.7], [-0.22499999999999998, 0.19999999999999996], [-0.675, -0.30000000000000004]]","[[0.0, 0.19999999999999996], [-0.22499999999999998, -0.8], [0.0, -0.8], [-0.675, -0.8], [-0.675, 0.7], [0.22499999999999998, 0.7], [0.45000000000000007, 0.7], [-0.22499999999999998, -0.30000000000000004], [-0.675, 0.19999999999999996], [0.9, -0.8], [-0.22499999999999998, 0.7], [0.9, -0.30000000000000004], [0.6749999999999999, 0.19999999999999996], [0.22499999999999998, -0.8], [0.22499999999999998, 0.19999999999999996]]",,,,,,,,,,,,,,,,,,,,,,,,,,,,,,21,B,2024-04-30_10h55.52.935,attentional_competition_task,2022.2.4,143.93770376213922,
positions.xlsx,positions_test.xlsx,positions_test_new.xlsx,stimuli.xlsx,stimuli_new.xlsx,stimuli/Social2.png,stimuli/Social1.png,stimuli/Nonsocial2.png,stimuli/Nonsocial1.png,stimuli/Social4.png,stimuli/Social3.png,stimuli/Nonsocial4.png,stimuli/Nonsocial3.png,cs_neg_s,"(0.7, -0.5)",,,,,,,,,0,0,0,0,,,,,,,,,0,0,0,3,,,,,,,,,,,,,,,,,,,,,,,,,,,,,,,,,,,,,218.34904899999992,240.66061679999984,-3,loss,1,0.3614939999999933,0.361497399999962,241.04948609999997,,,,,,,,,,,,,,,,,,,,,,21,B,2024-04-30_10h55.52.935,attentional_competition_task,2022.2.4,143.93770376213922,
positions.xlsx,positions_test.xlsx,positions_test_new.xlsx,stimuli.xlsx,stimuli_new.xlsx,stimuli/Social2.png,stimuli/Social1.png,stimuli/Nonsocial2.png,stimuli/Nonsocial1.png,stimuli/Social4.png,stimuli/Social3.png,stimuli/Nonsocial4.png,stimuli/Nonsocial3.png,cs_pos_ns,"(-0.7, 0.5)",,,,,,,,,0,0,0,0,,,,,,,,,0,1,1,12,,,,,,,,,,,,,,,,,,,,,,,,,,,,,,,,,,,,,,248.77138679999985,0,reward,1,0.5833987000000889,0.5834024000000682,249.37555989999987,,,,,,,,,,,,,,,,,,,,,,21,B,2024-04-30_10h55.52.935,attentional_competition_task,2022.2.4,143.93770376213922,
positions.xlsx,positions_test.xlsx,positions_test_new.xlsx,stimuli.xlsx,stimuli_new.xlsx,stimuli/Social2.png,stimuli/Social1.png,stimuli/Nonsocial2.png,stimuli/Nonsocial1.png,stimuli/Social4.png,stimuli/Social3.png,stimuli/Nonsocial4.png,stimuli/Nonsocial3.png,cs_neg_ns,"(-0.7, 0.5)",,,,,,,,,0,0,0,0,,,,,,,,,0,2,2,8,,,,,,,,,,,,,,,,,,,,,,,,,,,,,,,,,,,,,,256.5002566999999,-3,loss,1,0.4513683000000128,0.4513719999999921,256.9586127,,,,,,,,,,,,,,,,,,,,,,21,B,2024-04-30_10h55.52.935,attentional_competition_task,2022.2.4,143.93770376213922,
positions.xlsx,positions_test.xlsx,positions_test_new.xlsx,stimuli.xlsx,stimuli_new.xlsx,stimuli/Social2.png,stimuli/Social1.png,stimuli/Nonsocial2.png,stimuli/Nonsocial1.png,stimuli/Social4.png,stimuli/Social3.png,stimuli/Nonsocial4.png,stimuli/Nonsocial3.png,cs_neg_ns,"(0.7, 0.5)",,,,,,,,,0,0,0,0,,,,,,,,,0,3,3,10,,,,,,,,,,,,,,,,,,,,,,,,,,,,,,,,,,,,,,263.6180187,-6,loss,1,0.6248330000000806,0.6248364000000493,264.2499366999998,,,,,,,,,,,,,,,,,,,,,,21,B,2024-04-30_10h55.52.935,attentional_competition_task,2022.2.4,143.93770376213922,
positions.xlsx,positions_test.xlsx,positions_test_new.xlsx,stimuli.xlsx,stimuli_new.xlsx,stimuli/Social2.png,stimuli/Social1.png,stimuli/Nonsocial2.png,stimuli/Nonsocial1.png,stimuli/Social4.png,stimuli/Social3.png,stimuli/Nonsocial4.png,stimuli/Nonsocial3.png,cs_neg_s,"(0.7, 0.5)",,,,,,,,,0,0,0,0,,,,,,,,,0,4,4,2,,,,,,,,,,,,,,,,,,,,,,,,,,,,,,,,,,,,,,271.6524033999999,-9,loss,1,0.6597249999999804,0.6597291000000496,272.319064,,,,,,,,,,,,,,,,,,,,,,21,B,2024-04-30_10h55.52.935,attentional_competition_task,2022.2.4,143.93770376213922,
positions.xlsx,positions_test.xlsx,positions_test_new.xlsx,stimuli.xlsx,stimuli_new.xlsx,stimuli/Social2.png,stimuli/Social1.png,stimuli/Nonsocial2.png,stimuli/Nonsocial1.png,stimuli/Social4.png,stimuli/Social3.png,stimuli/Nonsocial4.png,stimuli/Nonsocial3.png,cs_pos_ns,"(0.7, 0.5)",,,,,,,,,0,0,0,0,,,,,,,,,0,5,5,14,,,,,,,,,,,,,,,,,,,,,,,,,,,,,,,,,,,,,,279.4923532999999,-6,reward,1,0.9372086000000763,0.9372124999999869,280.4367674,,,,,,,,,,,,,,,,,,,,,,21,B,2024-04-30_10h55.52.935,attentional_competition_task,2022.2.4,143.93770376213922,
positions.xlsx,positions_test.xlsx,positions_test_new.xlsx,stimuli.xlsx,stimuli_new.xlsx,stimuli/Social2.png,stimuli/Social1.png,stimuli/Nonsocial2.png,stimuli/Nonsocial1.png,stimuli/Social4.png,stimuli/Social3.png,stimuli/Nonsocial4.png,stimuli/Nonsocial3.png,cs_neg_ns,"(0.7, -0.5)",,,,,,,,,0,0,0,0,,,,,,,,,0,6,6,11,,,,,,,,,,,,,,,,,,,,,,,,,,,,,,,,,,,,,,287.78371479999987,-9,loss,1,1.1533427000001666,1.1533466000000772,288.9434036,,,,,,,,,,,,,,,,,,,,,,21,B,2024-04-30_10h55.52.935,attentional_competition_task,2022.2.4,143.93770376213922,
positions.xlsx,positions_test.xlsx,positions_test_new.xlsx,stimuli.xlsx,stimuli_new.xlsx,stimuli/Social2.png,stimuli/Social1.png,stimuli/Nonsocial2.png,stimuli/Nonsocial1.png,stimuli/Social4.png,stimuli/Social3.png,stimuli/Nonsocial4.png,stimuli/Nonsocial3.png,cs_neg_s,"(-0.7, 0.5)",,,,,,,,,0,0,0,0,,,,,,,,,0,7,7,0,,,,,,,,,,,,,,,,,,,,,,,,,,,,,,,,,,,,,,296.8180436,-9,none,0,,,299.8388508999999,,,,,,,,,,,,,,,,,,,,,,21,B,2024-04-30_10h55.52.935,attentional_competition_task,2022.2.4,143.93770376213922,
positions.xlsx,positions_test.xlsx,positions_test_new.xlsx,stimuli.xlsx,stimuli_new.xlsx,stimuli/Social2.png,stimuli/Social1.png,stimuli/Nonsocial2.png,stimuli/Nonsocial1.png,stimuli/Social4.png,stimuli/Social3.png,stimuli/Nonsocial4.png,stimuli/Nonsocial3.png,cs_pos_s,"(0.7, 0.5)",,,,,,,,,0,0,0,0,,,,,,,,,0,8,8,6,,,,,,,,,,,,,,,,,,,,,,,,,,,,,,,,,,,,,,307.99816109999983,-6,reward,1,0.8195336999999654,0.8195377999998072,308.82450619999986,,,,,,,,,,,,,,,,,,,,,,21,B,2024-04-30_10h55.52.935,attentional_competition_task,2022.2.4,143.93770376213922,
positions.xlsx,positions_test.xlsx,positions_test_new.xlsx,stimuli.xlsx,stimuli_new.xlsx,stimuli/Social2.png,stimuli/Social1.png,stimuli/Nonsocial2.png,stimuli/Nonsocial1.png,stimuli/Social4.png,stimuli/Social3.png,stimuli/Nonsocial4.png,stimuli/Nonsocial3.png,cs_pos_s,"(-0.7, -0.5)",,,,,,,,,0,0,0,0,,,,,,,,,0,9,9,5,,,,,,,,,,,,,,,,,,,,,,,,,,,,,,,,,,,,,,315.6297546999999,-3,reward,1,0.7921621000000414,0.7990328000000773,316.4353409999999,,,,,,,,,,,,,,,,,,,,,,21,B,2024-04-30_10h55.52.935,attentional_competition_task,2022.2.4,143.93770376213922,
positions.xlsx,positions_test.xlsx,positions_test_new.xlsx,stimuli.xlsx,stimuli_new.xlsx,stimuli/Social2.png,stimuli/Social1.png,stimuli/Nonsocial2.png,stimuli/Nonsocial1.png,stimuli/Social4.png,stimuli/Social3.png,stimuli/Nonsocial4.png,stimuli/Nonsocial3.png,cs_pos_ns,"(-0.7, -0.5)",,,,,,,,,0,0,0,0,,,,,,,,,0,10,10,13,,,,,,,,,,,,,,,,,,,,,,,,,,,,,,,,,,,,,,324.1085969999999,0,reward,1,0.9448346000001493,0.944853299999977,325.05992919999994,,,,,,,,,,,,,,,,,,,,,,21,B,2024-04-30_10h55.52.935,attentional_competition_task,2022.2.4,143.93770376213922,
positions.xlsx,positions_test.xlsx,positions_test_new.xlsx,stimuli.xlsx,stimuli_new.xlsx,stimuli/Social2.png,stimuli/Social1.png,stimuli/Nonsocial2.png,stimuli/Nonsocial1.png,stimuli/Social4.png,stimuli/Social3.png,stimuli/Nonsocial4.png,stimuli/Nonsocial3.png,cs_pos_ns,"(0.7, -0.5)",,,,,,,,,0,0,0,0,,,,,,,,,0,11,11,15,,,,,,,,,,,,,,,,,,,,,,,,,,,,,,,,,,,,,,332.0874389999999,3,reward,1,0.882343100000071,0.8823471000000609,332.9763218999999,,,,,,,,,,,,,,,,,,,,,,21,B,2024-04-30_10h55.52.935,attentional_competition_task,2022.2.4,143.93770376213922,
positions.xlsx,positions_test.xlsx,positions_test_new.xlsx,stimuli.xlsx,stimuli_new.xlsx,stimuli/Social2.png,stimuli/Social1.png,stimuli/Nonsocial2.png,stimuli/Nonsocial1.png,stimuli/Social4.png,stimuli/Social3.png,stimuli/Nonsocial4.png,stimuli/Nonsocial3.png,cs_pos_s,"(-0.7, 0.5)",,,,,,,,,0,0,0,0,,,,,,,,,0,12,12,4,,,,,,,,,,,,,,,,,,,,,,,,,,,,,,,,,,,,,,340.3788027999999,6,reward,1,0.7845946999998432,0.7845985999999812,341.16347410000003,,,,,,,,,,,,,,,,,,,,,,21,B,2024-04-30_10h55.52.935,attentional_competition_task,2022.2.4,143.93770376213922,
positions.xlsx,positions_test.xlsx,positions_test_new.xlsx,stimuli.xlsx,stimuli_new.xlsx,stimuli/Social2.png,stimuli/Social1.png,stimuli/Nonsocial2.png,stimuli/Nonsocial1.png,stimuli/Social4.png,stimuli/Social3.png,stimuli/Nonsocial4.png,stimuli/Nonsocial3.png,cs_neg_ns,"(-0.7, -0.5)",,,,,,,,,0,0,0,0,,,,,,,,,0,13,13,9,,,,,,,,,,,,,,,,,,,,,,,,,,,,,,,,,,,,,,348.9686995999998,6,none,0,,,351.9825182999998,,,,,,,,,,,,,,,,,,,,,,21,B,2024-04-30_10h55.52.935,attentional_competition_task,2022.2.4,143.93770376213922,
positions.xlsx,positions_test.xlsx,positions_test_new.xlsx,stimuli.xlsx,stimuli_new.xlsx,stimuli/Social2.png,stimuli/Social1.png,stimuli/Nonsocial2.png,stimuli/Nonsocial1.png,stimuli/Social4.png,stimuli/Social3.png,stimuli/Nonsocial4.png,stimuli/Nonsocial3.png,cs_neg_s,"(-0.7, -0.5)",,,,,,,,,0,0,0,0,,,,,,,,,0,14,14,1,,,,,,,,,,,,,,,,,,,,,,,,,,,,,,,,,,,,,,358.51691089999986,6,none,0,,,361.52375589999997,,,,,,,,,,,,,,,,,,,,,,21,B,2024-04-30_10h55.52.935,attentional_competition_task,2022.2.4,143.93770376213922,
positions.xlsx,positions_test.xlsx,positions_test_new.xlsx,stimuli.xlsx,stimuli_new.xlsx,stimuli/Social2.png,stimuli/Social1.png,stimuli/Nonsocial2.png,stimuli/Nonsocial1.png,stimuli/Social4.png,stimuli/Social3.png,stimuli/Nonsocial4.png,stimuli/Nonsocial3.png,cs_pos_s,"(0.7, -0.5)",,,,,,,,,0,0,0,0,,,,,,,,,0,15,15,7,,,,,,,,,,,,,,,,,,,,,,,,,,,,,,,,,,,,,,368.87764519999996,9,reward,1,0.7086720999998306,0.7156738999999561,369.59985099999994,,,,,,,,,,,,,,,,,,,,,,21,B,2024-04-30_10h55.52.935,attentional_competition_task,2022.2.4,143.93770376213922,
positions.xlsx,positions_test.xlsx,positions_test_new.xlsx,stimuli.xlsx,stimuli_new.xlsx,stimuli/Social2.png,stimuli/Social1.png,stimuli/Nonsocial2.png,stimuli/Nonsocial1.png,stimuli/Social4.png,stimuli/Social3.png,stimuli/Nonsocial4.png,stimuli/Nonsocial3.png,cs_pos_ns,"(-0.7, -0.5)",,,,,,,,,0,0,0,0,,,,,,,,,1,0,16,13,,,,,,,,,,,,,,,,,,,,,,,,,,,,,,,,,,,,,,377.3425402999999,12,reward,1,0.7364522000000306,0.7364579000000049,378.0856454999998,,,,,,,,,,,,,,,,,,,,,,21,B,2024-04-30_10h55.52.935,attentional_competition_task,2022.2.4,143.93770376213922,
positions.xlsx,positions_test.xlsx,positions_test_new.xlsx,stimuli.xlsx,stimuli_new.xlsx,stimuli/Social2.png,stimuli/Social1.png,stimuli/Nonsocial2.png,stimuli/Nonsocial1.png,stimuli/Social4.png,stimuli/Social3.png,stimuli/Nonsocial4.png,stimuli/Nonsocial3.png,cs_pos_ns,"(0.7, 0.5)",,,,,,,,,0,0,0,0,,,,,,,,,1,1,17,14,,,,,,,,,,,,,,,,,,,,,,,,,,,,,,,,,,,,,,385.9741159,15,reward,1,0.7848493999999846,0.7848529000000326,386.76587169999993,,,,,,,,,,,,,,,,,,,,,,21,B,2024-04-30_10h55.52.935,attentional_competition_task,2022.2.4,143.93770376213922,
positions.xlsx,positions_test.xlsx,positions_test_new.xlsx,stimuli.xlsx,stimuli_new.xlsx,stimuli/Social2.png,stimuli/Social1.png,stimuli/Nonsocial2.png,stimuli/Nonsocial1.png,stimuli/Social4.png,stimuli/Social3.png,stimuli/Nonsocial4.png,stimuli/Nonsocial3.png,cs_neg_ns,"(-0.7, 0.5)",,,,,,,,,0,0,0,0,,,,,,,,,1,2,18,8,,,,,,,,,,,,,,,,,,,,,,,,,,,,,,,,,,,,,,394.1126950999999,15,none,0,,,397.1264653999999,,,,,,,,,,,,,,,,,,,,,,21,B,2024-04-30_10h55.52.935,attentional_competition_task,2022.2.4,143.93770376213922,
positions.xlsx,positions_test.xlsx,positions_test_new.xlsx,stimuli.xlsx,stimuli_new.xlsx,stimuli/Social2.png,stimuli/Social1.png,stimuli/Nonsocial2.png,stimuli/Nonsocial1.png,stimuli/Social4.png,stimuli/Social3.png,stimuli/Nonsocial4.png,stimuli/Nonsocial3.png,cs_pos_ns,"(0.7, -0.5)",,,,,,,,,0,0,0,0,,,,,,,,,1,3,19,15,,,,,,,,,,,,,,,,,,,,,,,,,,,,,,,,,,,,,,404.3414410999999,18,reward,1,0.7219243999998071,0.7219278999998551,405.0706074999998,,,,,,,,,,,,,,,,,,,,,,21,B,2024-04-30_10h55.52.935,attentional_competition_task,2022.2.4,143.93770376213922,
positions.xlsx,positions_test.xlsx,positions_test_new.xlsx,stimuli.xlsx,stimuli_new.xlsx,stimuli/Social2.png,stimuli/Social1.png,stimuli/Nonsocial2.png,stimuli/Nonsocial1.png,stimuli/Social4.png,stimuli/Social3.png,stimuli/Nonsocial4.png,stimuli/Nonsocial3.png,cs_neg_ns,"(0.7, 0.5)",,,,,,,,,0,0,0,0,,,,,,,,,1,4,20,10,,,,,,,,,,,,,,,,,,,,,,,,,,,,,,,,,,,,,,412.5008118999999,18,none,0,,,415.51464009999995,,,,,,,,,,,,,,,,,,,,,,21,B,2024-04-30_10h55.52.935,attentional_competition_task,2022.2.4,143.93770376213922,
positions.xlsx,positions_test.xlsx,positions_test_new.xlsx,stimuli.xlsx,stimuli_new.xlsx,stimuli/Social2.png,stimuli/Social1.png,stimuli/Nonsocial2.png,stimuli/Nonsocial1.png,stimuli/Social4.png,stimuli/Social3.png,stimuli/Nonsocial4.png,stimuli/Nonsocial3.png,cs_neg_ns,"(0.7, -0.5)",,,,,,,,,0,0,0,0,,,,,,,,,1,5,21,11,,,,,,,,,,,,,,,,,,,,,,,,,,,,,,,,,,,,,,422.55601009999987,18,none,0,,,425.5697562999999,,,,,,,,,,,,,,,,,,,,,,21,B,2024-04-30_10h55.52.935,attentional_competition_task,2022.2.4,143.93770376213922,
positions.xlsx,positions_test.xlsx,positions_test_new.xlsx,stimuli.xlsx,stimuli_new.xlsx,stimuli/Social2.png,stimuli/Social1.png,stimuli/Nonsocial2.png,stimuli/Nonsocial1.png,stimuli/Social4.png,stimuli/Social3.png,stimuli/Nonsocial4.png,stimuli/Nonsocial3.png,cs_neg_s,"(0.7, -0.5)",,,,,,,,,0,0,0,0,,,,,,,,,1,6,22,3,,,,,,,,,,,,,,,,,,,,,,,,,,,,,,,,,,,,,,432.6319742999999,18,none,0,,,435.6388562999998,,,,,,,,,,,,,,,,,,,,,,21,B,2024-04-30_10h55.52.935,attentional_competition_task,2022.2.4,143.93770376213922,
positions.xlsx,positions_test.xlsx,positions_test_new.xlsx,stimuli.xlsx,stimuli_new.xlsx,stimuli/Social2.png,stimuli/Social1.png,stimuli/Nonsocial2.png,stimuli/Nonsocial1.png,stimuli/Social4.png,stimuli/Social3.png,stimuli/Nonsocial4.png,stimuli/Nonsocial3.png,cs_neg_s,"(0.7, 0.5)",,,,,,,,,0,0,0,0,,,,,,,,,1,7,23,2,,,,,,,,,,,,,,,,,,,,,,,,,,,,,,,,,,,,,,442.7218607,18,none,0,,,445.7286351,,,,,,,,,,,,,,,,,,,,,,21,B,2024-04-30_10h55.52.935,attentional_competition_task,2022.2.4,143.93770376213922,
positions.xlsx,positions_test.xlsx,positions_test_new.xlsx,stimuli.xlsx,stimuli_new.xlsx,stimuli/Social2.png,stimuli/Social1.png,stimuli/Nonsocial2.png,stimuli/Nonsocial1.png,stimuli/Social4.png,stimuli/Social3.png,stimuli/Nonsocial4.png,stimuli/Nonsocial3.png,cs_pos_ns,"(-0.7, 0.5)",,,,,,,,,0,0,0,0,,,,,,,,,1,8,24,12,,,,,,,,,,,,,,,,,,,,,,,,,,,,,,,,,,,,,,453.0270026999999,21,reward,1,0.7712679000001117,0.7712713999999323,453.8047323999999,,,,,,,,,,,,,,,,,,,,,,21,B,2024-04-30_10h55.52.935,attentional_competition_task,2022.2.4,143.93770376213922,
positions.xlsx,positions_test.xlsx,positions_test_new.xlsx,stimuli.xlsx,stimuli_new.xlsx,stimuli/Social2.png,stimuli/Social1.png,stimuli/Nonsocial2.png,stimuli/Nonsocial1.png,stimuli/Social4.png,stimuli/Social3.png,stimuli/Nonsocial4.png,stimuli/Nonsocial3.png,cs_pos_s,"(-0.7, 0.5)",,,,,,,,,0,0,0,0,,,,,,,,,1,9,25,4,,,,,,,,,,,,,,,,,,,,,,,,,,,,,,,,,,,,,,460.5614292999999,24,reward,1,0.6668257000001176,0.6668294999999489,461.2349918,,,,,,,,,,,,,,,,,,,,,,21,B,2024-04-30_10h55.52.935,attentional_competition_task,2022.2.4,143.93770376213922,
positions.xlsx,positions_test.xlsx,positions_test_new.xlsx,stimuli.xlsx,stimuli_new.xlsx,stimuli/Social2.png,stimuli/Social1.png,stimuli/Nonsocial2.png,stimuli/Nonsocial1.png,stimuli/Social4.png,stimuli/Social3.png,stimuli/Nonsocial4.png,stimuli/Nonsocial3.png,cs_neg_ns,"(-0.7, -0.5)",,,,,,,,,0,0,0,0,,,,,,,,,1,10,26,9,,,,,,,,,,,,,,,,,,,,,,,,,,,,,,,,,,,,,,469.3249945,24,none,0,,,472.3387103,,,,,,,,,,,,,,,,,,,,,,21,B,2024-04-30_10h55.52.935,attentional_competition_task,2022.2.4,143.93770376213922,
positions.xlsx,positions_test.xlsx,positions_test_new.xlsx,stimuli.xlsx,stimuli_new.xlsx,stimuli/Social2.png,stimuli/Social1.png,stimuli/Nonsocial2.png,stimuli/Nonsocial1.png,stimuli/Social4.png,stimuli/Social3.png,stimuli/Nonsocial4.png,stimuli/Nonsocial3.png,cs_neg_s,"(-0.7, -0.5)",,,,,,,,,0,0,0,0,,,,,,,,,1,11,27,1,,,,,,,,,,,,,,,,,,,,,,,,,,,,,,,,,,,,,,479.2203319,24,none,0,,,482.22717439999997,,,,,,,,,,,,,,,,,,,,,,21,B,2024-04-30_10h55.52.935,attentional_competition_task,2022.2.4,143.93770376213922,
positions.xlsx,positions_test.xlsx,positions_test_new.xlsx,stimuli.xlsx,stimuli_new.xlsx,stimuli/Social2.png,stimuli/Social1.png,stimuli/Nonsocial2.png,stimuli/Nonsocial1.png,stimuli/Social4.png,stimuli/Social3.png,stimuli/Nonsocial4.png,stimuli/Nonsocial3.png,cs_neg_s,"(-0.7, 0.5)",,,,,,,,,0,0,0,0,,,,,,,,,1,12,28,0,,,,,,,,,,,,,,,,,,,,,,,,,,,,,,,,,,,,,,489.59493529999986,24,none,0,,,492.60172149999994,,,,,,,,,,,,,,,,,,,,,,21,B,2024-04-30_10h55.52.935,attentional_competition_task,2022.2.4,143.93770376213922,
positions.xlsx,positions_test.xlsx,positions_test_new.xlsx,stimuli.xlsx,stimuli_new.xlsx,stimuli/Social2.png,stimuli/Social1.png,stimuli/Nonsocial2.png,stimuli/Nonsocial1.png,stimuli/Social4.png,stimuli/Social3.png,stimuli/Nonsocial4.png,stimuli/Nonsocial3.png,cs_pos_s,"(0.7, -0.5)",,,,,,,,,0,0,0,0,,,,,,,,,1,13,29,7,,,,,,,,,,,,,,,,,,,,,,,,,,,,,,,,,,,,,,500.7958584999999,27,reward,1,0.5765783000001647,0.5765822000000753,501.37923920000003,,,,,,,,,,,,,,,,,,,,,,21,B,2024-04-30_10h55.52.935,attentional_competition_task,2022.2.4,143.93770376213922,
positions.xlsx,positions_test.xlsx,positions_test_new.xlsx,stimuli.xlsx,stimuli_new.xlsx,stimuli/Social2.png,stimuli/Social1.png,stimuli/Nonsocial2.png,stimuli/Nonsocial1.png,stimuli/Social4.png,stimuli/Social3.png,stimuli/Nonsocial4.png,stimuli/Nonsocial3.png,cs_pos_s,"(0.7, 0.5)",,,,,,,,,0,0,0,0,,,,,,,,,1,14,30,6,,,,,,,,,,,,,,,,,,,,,,,,,,,,,,,,,,,,,,509.20526129999985,30,reward,1,0.6670096999998805,0.6670130999998491,509.8788732999999,,,,,,,,,,,,,,,,,,,,,,21,B,2024-04-30_10h55.52.935,attentional_competition_task,2022.2.4,143.93770376213922,
positions.xlsx,positions_test.xlsx,positions_test_new.xlsx,stimuli.xlsx,stimuli_new.xlsx,stimuli/Social2.png,stimuli/Social1.png,stimuli/Nonsocial2.png,stimuli/Nonsocial1.png,stimuli/Social4.png,stimuli/Social3.png,stimuli/Nonsocial4.png,stimuli/Nonsocial3.png,cs_pos_s,"(-0.7, -0.5)",,,,,,,,,0,0,0,0,,,,,,,,,1,15,31,5,,,,,,,,,,,,,,,,,,,,,,,,,,,,,,,,,,,,,,517.3438030999998,33,reward,1,0.6458838000000924,0.6458873999999923,517.9965829,,,,,,,,,,,,,,,,,,,,,,21,B,2024-04-30_10h55.52.935,attentional_competition_task,2022.2.4,143.93770376213922,
positions.xlsx,positions_test.xlsx,positions_test_new.xlsx,stimuli.xlsx,stimuli_new.xlsx,stimuli/Social2.png,stimuli/Social1.png,stimuli/Nonsocial2.png,stimuli/Nonsocial1.png,stimuli/Social4.png,stimuli/Social3.png,stimuli/Nonsocial4.png,stimuli/Nonsocial3.png,cs_pos_s,"(-0.7, 0.5)",,,,,,,,,0,0,0,0,,,,,,,,,,,,,0,0,0,4,,,,,,,,,,,,,,,,,,,,,,,,,,,,,,,,,,535.9194461,36,reward,1,0.5902326999998877,0.5902361999999357,536.5167056,,,,,,,,,,,,,,,,,,,,,,21,B,2024-04-30_10h55.52.935,attentional_competition_task,2022.2.4,143.93770376213922,
positions.xlsx,positions_test.xlsx,positions_test_new.xlsx,stimuli.xlsx,stimuli_new.xlsx,stimuli/Social2.png,stimuli/Social1.png,stimuli/Nonsocial2.png,stimuli/Nonsocial1.png,stimuli/Social4.png,stimuli/Social3.png,stimuli/Nonsocial4.png,stimuli/Nonsocial3.png,cs_neg_ns,"(0.7, -0.5)",,,,,,,,,0,0,0,0,,,,,,,,,,,,,0,1,1,11,,,,,,,,,,,,,,,,,,,,,,,,,,,,,,,,,,543.7385729999999,36,none,0,,,546.7523635999999,,,,,,,,,,,,,,,,,,,,,,21,B,2024-04-30_10h55.52.935,attentional_competition_task,2022.2.4,143.93770376213922,
positions.xlsx,positions_test.xlsx,positions_test_new.xlsx,stimuli.xlsx,stimuli_new.xlsx,stimuli/Social2.png,stimuli/Social1.png,stimuli/Nonsocial2.png,stimuli/Nonsocial1.png,stimuli/Social4.png,stimuli/Social3.png,stimuli/Nonsocial4.png,stimuli/Nonsocial3.png,cs_neg_s,"(-0.7, -0.5)",,,,,,,,,0,0,0,0,,,,,,,,,,,,,0,2,2,1,,,,,,,,,,,,,,,,,,,,,,,,,,,,,,,,,,554.0715149,36,none,0,,,557.0783242,,,,,,,,,,,,,,,,,,,,,,21,B,2024-04-30_10h55.52.935,attentional_competition_task,2022.2.4,143.93770376213922,
positions.xlsx,positions_test.xlsx,positions_test_new.xlsx,stimuli.xlsx,stimuli_new.xlsx,stimuli/Social2.png,stimuli/Social1.png,stimuli/Nonsocial2.png,stimuli/Nonsocial1.png,stimuli/Social4.png,stimuli/Social3.png,stimuli/Nonsocial4.png,stimuli/Nonsocial3.png,cs_pos_ns,"(-0.7, 0.5)",,,,,,,,,0,0,0,0,,,,,,,,,,,,,0,3,3,12,,,,,,,,,,,,,,,,,,,,,,,,,,,,,,,,,,564.5710890999999,39,reward,1,0.49295890000007603,0.492962499999976,565.0711243999999,,,,,,,,,,,,,,,,,,,,,,21,B,2024-04-30_10h55.52.935,attentional_competition_task,2022.2.4,143.93770376213922,
positions.xlsx,positions_test.xlsx,positions_test_new.xlsx,stimuli.xlsx,stimuli_new.xlsx,stimuli/Social2.png,stimuli/Social1.png,stimuli/Nonsocial2.png,stimuli/Nonsocial1.png,stimuli/Social4.png,stimuli/Social3.png,stimuli/Nonsocial4.png,stimuli/Nonsocial3.png,cs_neg_ns,"(0.7, 0.5)",,,,,,,,,0,0,0,0,,,,,,,,,,,,,0,4,4,10,,,,,,,,,,,,,,,,,,,,,,,,,,,,,,,,,,572.3624502,39,none,0,,,575.3762581999999,,,,,,,,,,,,,,,,,,,,,,21,B,2024-04-30_10h55.52.935,attentional_competition_task,2022.2.4,143.93770376213922,
positions.xlsx,positions_test.xlsx,positions_test_new.xlsx,stimuli.xlsx,stimuli_new.xlsx,stimuli/Social2.png,stimuli/Social1.png,stimuli/Nonsocial2.png,stimuli/Nonsocial1.png,stimuli/Social4.png,stimuli/Social3.png,stimuli/Nonsocial4.png,stimuli/Nonsocial3.png,cs_neg_s,"(0.7, 0.5)",,,,,,,,,0,0,0,0,,,,,,,,,,,,,0,5,5,2,,,,,,,,,,,,,,,,,,,,,,,,,,,,,,,,,,583.4384137,39,none,0,,,586.4452461999999,,,,,,,,,,,,,,,,,,,,,,21,B,2024-04-30_10h55.52.935,attentional_competition_task,2022.2.4,143.93770376213922,
positions.xlsx,positions_test.xlsx,positions_test_new.xlsx,stimuli.xlsx,stimuli_new.xlsx,stimuli/Social2.png,stimuli/Social1.png,stimuli/Nonsocial2.png,stimuli/Nonsocial1.png,stimuli/Social4.png,stimuli/Social3.png,stimuli/Nonsocial4.png,stimuli/Nonsocial3.png,cs_pos_ns,"(0.7, 0.5)",,,,,,,,,0,0,0,0,,,,,,,,,,,,,0,6,6,14,,,,,,,,,,,,,,,,,,,,,,,,,,,,,,,,,,593.7782771,42,reward,1,0.8960630999999921,0.896067099999982,594.6810318,,,,,,,,,,,,,,,,,,,,,,21,B,2024-04-30_10h55.52.935,attentional_competition_task,2022.2.4,143.93770376213922,
positions.xlsx,positions_test.xlsx,positions_test_new.xlsx,stimuli.xlsx,stimuli_new.xlsx,stimuli/Social2.png,stimuli/Social1.png,stimuli/Nonsocial2.png,stimuli/Nonsocial1.png,stimuli/Social4.png,stimuli/Social3.png,stimuli/Nonsocial4.png,stimuli/Nonsocial3.png,cs_pos_s,"(0.7, -0.5)",,,,,,,,,0,0,0,0,,,,,,,,,,,,,0,7,7,7,,,,,,,,,,,,,,,,,,,,,,,,,,,,,,,,,,602.0001666999999,45,reward,1,0.6458344000000125,0.6458380999999918,602.6529403999998,,,,,,,,,,,,,,,,,,,,,,21,B,2024-04-30_10h55.52.935,attentional_competition_task,2022.2.4,143.93770376213922,
positions.xlsx,positions_test.xlsx,positions_test_new.xlsx,stimuli.xlsx,stimuli_new.xlsx,stimuli/Social2.png,stimuli/Social1.png,stimuli/Nonsocial2.png,stimuli/Nonsocial1.png,stimuli/Social4.png,stimuli/Social3.png,stimuli/Nonsocial4.png,stimuli/Nonsocial3.png,cs_neg_s,"(-0.7, 0.5)",,,,,,,,,0,0,0,0,,,,,,,,,,,,,0,8,8,0,,,,,,,,,,,,,,,,,,,,,,,,,,,,,,,,,,609.5345649999999,45,none,0,,,612.5483565999998,,,,,,,,,,,,,,,,,,,,,,21,B,2024-04-30_10h55.52.935,attentional_competition_task,2022.2.4,143.93770376213922,
positions.xlsx,positions_test.xlsx,positions_test_new.xlsx,stimuli.xlsx,stimuli_new.xlsx,stimuli/Social2.png,stimuli/Social1.png,stimuli/Nonsocial2.png,stimuli/Nonsocial1.png,stimuli/Social4.png,stimuli/Social3.png,stimuli/Nonsocial4.png,stimuli/Nonsocial3.png,cs_pos_ns,"(-0.7, -0.5)",,,,,,,,,0,0,0,0,,,,,,,,,,,,,0,9,9,13,,,,,,,,,,,,,,,,,,,,,,,,,,,,,,,,,,620.4994219999999,48,reward,1,0.4935406000001876,0.4935443000001669,620.9994285999999,,,,,,,,,,,,,,,,,,,,,,21,B,2024-04-30_10h55.52.935,attentional_competition_task,2022.2.4,143.93770376213922,
positions.xlsx,positions_test.xlsx,positions_test_new.xlsx,stimuli.xlsx,stimuli_new.xlsx,stimuli/Social2.png,stimuli/Social1.png,stimuli/Nonsocial2.png,stimuli/Nonsocial1.png,stimuli/Social4.png,stimuli/Social3.png,stimuli/Nonsocial4.png,stimuli/Nonsocial3.png,cs_neg_s,"(0.7, -0.5)",,,,,,,,,0,0,0,0,,,,,,,,,,,,,0,10,10,3,,,,,,,,,,,,,,,,,,,,,,,,,,,,,,,,,,628.4297227999998,48,none,0,,,631.4364739999999,,,,,,,,,,,,,,,,,,,,,,21,B,2024-04-30_10h55.52.935,attentional_competition_task,2022.2.4,143.93770376213922,
positions.xlsx,positions_test.xlsx,positions_test_new.xlsx,stimuli.xlsx,stimuli_new.xlsx,stimuli/Social2.png,stimuli/Social1.png,stimuli/Nonsocial2.png,stimuli/Nonsocial1.png,stimuli/Social4.png,stimuli/Social3.png,stimuli/Nonsocial4.png,stimuli/Nonsocial3.png,cs_pos_s,"(-0.7, -0.5)",,,,,,,,,0,0,0,0,,,,,,,,,,,,,0,11,11,5,,,,,,,,,,,,,,,,,,,,,,,,,,,,,,,,,,639.5472556,51,reward,1,0.5834086999998362,0.5834125999999742,640.1375224999999,,,,,,,,,,,,,,,,,,,,,,21,B,2024-04-30_10h55.52.935,attentional_competition_task,2022.2.4,143.93770376213922,
positions.xlsx,positions_test.xlsx,positions_test_new.xlsx,stimuli.xlsx,stimuli_new.xlsx,stimuli/Social2.png,stimuli/Social1.png,stimuli/Nonsocial2.png,stimuli/Nonsocial1.png,stimuli/Social4.png,stimuli/Social3.png,stimuli/Nonsocial4.png,stimuli/Nonsocial3.png,cs_pos_ns,"(0.7, -0.5)",,,,,,,,,0,0,0,0,,,,,,,,,,,,,0,12,12,15,,,,,,,,,,,,,,,,,,,,,,,,,,,,,,,,,,648.1232874,54,reward,1,0.7777538000000277,0.7777573999999277,648.9079904,,,,,,,,,,,,,,,,,,,,,,21,B,2024-04-30_10h55.52.935,attentional_competition_task,2022.2.4,143.93770376213922,
positions.xlsx,positions_test.xlsx,positions_test_new.xlsx,stimuli.xlsx,stimuli_new.xlsx,stimuli/Social2.png,stimuli/Social1.png,stimuli/Nonsocial2.png,stimuli/Nonsocial1.png,stimuli/Social4.png,stimuli/Social3.png,stimuli/Nonsocial4.png,stimuli/Nonsocial3.png,cs_neg_ns,"(-0.7, -0.5)",,,,,,,,,0,0,0,0,,,,,,,,,,,,,0,13,13,9,,,,,,,,,,,,,,,,,,,,,,,,,,,,,,,,,,655.9910413,54,none,0,,,659.0047726999999,,,,,,,,,,,,,,,,,,,,,,21,B,2024-04-30_10h55.52.935,attentional_competition_task,2022.2.4,143.93770376213922,
positions.xlsx,positions_test.xlsx,positions_test_new.xlsx,stimuli.xlsx,stimuli_new.xlsx,stimuli/Social2.png,stimuli/Social1.png,stimuli/Nonsocial2.png,stimuli/Nonsocial1.png,stimuli/Social4.png,stimuli/Social3.png,stimuli/Nonsocial4.png,stimuli/Nonsocial3.png,cs_pos_s,"(0.7, 0.5)",,,,,,,,,0,0,0,0,,,,,,,,,,,,,0,14,14,6,,,,,,,,,,,,,,,,,,,,,,,,,,,,,,,,,,666.3655805999999,57,reward,1,0.604417900000044,0.604421400000092,666.976741,,,,,,,,,,,,,,,,,,,,,,21,B,2024-04-30_10h55.52.935,attentional_competition_task,2022.2.4,143.93770376213922,
positions.xlsx,positions_test.xlsx,positions_test_new.xlsx,stimuli.xlsx,stimuli_new.xlsx,stimuli/Social2.png,stimuli/Social1.png,stimuli/Nonsocial2.png,stimuli/Nonsocial1.png,stimuli/Social4.png,stimuli/Social3.png,stimuli/Nonsocial4.png,stimuli/Nonsocial3.png,cs_neg_ns,"(-0.7, 0.5)",,,,,,,,,0,0,0,0,,,,,,,,,,,,,0,15,15,8,,,,,,,,,,,,,,,,,,,,,,,,,,,,,,,,,,675.0735731,57,none,0,,,678.0873595999999,,,,,,,,,,,,,,,,,,,,,,21,B,2024-04-30_10h55.52.935,attentional_competition_task,2022.2.4,143.93770376213922,
positions.xlsx,positions_test.xlsx,positions_test_new.xlsx,stimuli.xlsx,stimuli_new.xlsx,stimuli/Social2.png,stimuli/Social1.png,stimuli/Nonsocial2.png,stimuli/Nonsocial1.png,stimuli/Social4.png,stimuli/Social3.png,stimuli/Nonsocial4.png,stimuli/Nonsocial3.png,cs_pos_s,"(0.7, -0.5)",,,,,,,,,0,0,0,0,,,,,,,,,,,,,1,0,16,7,,,,,,,,,,,,,,,,,,,,,,,,,,,,,,,,,,685.5523538999998,60,reward,1,0.5832543999999871,0.5832582999998976,686.1425726,,,,,,,,,,,,,,,,,,,,,,21,B,2024-04-30_10h55.52.935,attentional_competition_task,2022.2.4,143.93770376213922,
positions.xlsx,positions_test.xlsx,positions_test_new.xlsx,stimuli.xlsx,stimuli_new.xlsx,stimuli/Social2.png,stimuli/Social1.png,stimuli/Nonsocial2.png,stimuli/Nonsocial1.png,stimuli/Social4.png,stimuli/Social3.png,stimuli/Nonsocial4.png,stimuli/Nonsocial3.png,cs_pos_s,"(-0.7, 0.5)",,,,,,,,,0,0,0,0,,,,,,,,,,,,,1,1,17,4,,,,,,,,,,,,,,,,,,,,,,,,,,,,,,,,,,693.3784052999999,63,reward,1,0.6393531999999595,0.6393567000000075,694.0241962999999,,,,,,,,,,,,,,,,,,,,,,21,B,2024-04-30_10h55.52.935,attentional_competition_task,2022.2.4,143.93770376213922,
positions.xlsx,positions_test.xlsx,positions_test_new.xlsx,stimuli.xlsx,stimuli_new.xlsx,stimuli/Social2.png,stimuli/Social1.png,stimuli/Nonsocial2.png,stimuli/Nonsocial1.png,stimuli/Social4.png,stimuli/Social3.png,stimuli/Nonsocial4.png,stimuli/Nonsocial3.png,cs_pos_s,"(-0.7, -0.5)",,,,,,,,,0,0,0,0,,,,,,,,,,,,,1,2,18,5,,,,,,,,,,,,,,,,,,,,,,,,,,,,,,,,,,702.3780970999999,66,reward,1,0.5764571999998225,0.5764606999998705,702.9613594,,,,,,,,,,,,,,,,,,,,,,21,B,2024-04-30_10h55.52.935,attentional_competition_task,2022.2.4,143.93770376213922,
positions.xlsx,positions_test.xlsx,positions_test_new.xlsx,stimuli.xlsx,stimuli_new.xlsx,stimuli/Social2.png,stimuli/Social1.png,stimuli/Nonsocial2.png,stimuli/Nonsocial1.png,stimuli/Social4.png,stimuli/Social3.png,stimuli/Nonsocial4.png,stimuli/Nonsocial3.png,cs_neg_s,"(-0.7, -0.5)",,,,,,,,,0,0,0,0,,,,,,,,,,,,,1,3,19,1,,,,,,,,,,,,,,,,,,,,,,,,,,,,,,,,,,710.5443683999999,66,none,0,,,713.5581631999999,,,,,,,,,,,,,,,,,,,,,,21,B,2024-04-30_10h55.52.935,attentional_competition_task,2022.2.4,143.93770376213922,
positions.xlsx,positions_test.xlsx,positions_test_new.xlsx,stimuli.xlsx,stimuli_new.xlsx,stimuli/Social2.png,stimuli/Social1.png,stimuli/Nonsocial2.png,stimuli/Nonsocial1.png,stimuli/Social4.png,stimuli/Social3.png,stimuli/Nonsocial4.png,stimuli/Nonsocial3.png,cs_pos_ns,"(0.7, -0.5)",,,,,,,,,0,0,0,0,,,,,,,,,,,,,1,4,20,15,,,,,,,,,,,,,,,,,,,,,,,,,,,,,,,,,,721.2314623999998,69,reward,1,0.7503635999999005,0.757021899999927,721.9952917999999,,,,,,,,,,,,,,,,,,,,,,21,B,2024-04-30_10h55.52.935,attentional_competition_task,2022.2.4,143.93770376213922,
positions.xlsx,positions_test.xlsx,positions_test_new.xlsx,stimuli.xlsx,stimuli_new.xlsx,stimuli/Social2.png,stimuli/Social1.png,stimuli/Nonsocial2.png,stimuli/Nonsocial1.png,stimuli/Social4.png,stimuli/Social3.png,stimuli/Nonsocial4.png,stimuli/Nonsocial3.png,cs_neg_ns,"(-0.7, 0.5)",,,,,,,,,0,0,0,0,,,,,,,,,,,,,1,5,21,8,,,,,,,,,,,,,,,,,,,,,,,,,,,,,,,,,,730.0713816,69,none,0,,,733.0851782999998,,,,,,,,,,,,,,,,,,,,,,21,B,2024-04-30_10h55.52.935,attentional_competition_task,2022.2.4,143.93770376213922,
positions.xlsx,positions_test.xlsx,positions_test_new.xlsx,stimuli.xlsx,stimuli_new.xlsx,stimuli/Social2.png,stimuli/Social1.png,stimuli/Nonsocial2.png,stimuli/Nonsocial1.png,stimuli/Social4.png,stimuli/Social3.png,stimuli/Nonsocial4.png,stimuli/Nonsocial3.png,cs_neg_s,"(-0.7, 0.5)",,,,,,,,,0,0,0,0,,,,,,,,,,,,,1,6,22,0,,,,,,,,,,,,,,,,,,,,,,,,,,,,,,,,,,740.4042970999999,69,none,0,,,743.4111069999999,,,,,,,,,,,,,,,,,,,,,,21,B,2024-04-30_10h55.52.935,attentional_competition_task,2022.2.4,143.93770376213922,
positions.xlsx,positions_test.xlsx,positions_test_new.xlsx,stimuli.xlsx,stimuli_new.xlsx,stimuli/Social2.png,stimuli/Social1.png,stimuli/Nonsocial2.png,stimuli/Nonsocial1.png,stimuli/Social4.png,stimuli/Social3.png,stimuli/Nonsocial4.png,stimuli/Nonsocial3.png,cs_pos_s,"(0.7, 0.5)",,,,,,,,,0,0,0,0,,,,,,,,,,,,,1,7,23,6,,,,,,,,,,,,,,,,,,,,,,,,,,,,,,,,,,750.6747054,72,reward,1,0.5763354999999137,0.5763389999999617,751.2580662,,,,,,,,,,,,,,,,,,,,,,21,B,2024-04-30_10h55.52.935,attentional_competition_task,2022.2.4,143.93770376213922,
positions.xlsx,positions_test.xlsx,positions_test_new.xlsx,stimuli.xlsx,stimuli_new.xlsx,stimuli/Social2.png,stimuli/Social1.png,stimuli/Nonsocial2.png,stimuli/Nonsocial1.png,stimuli/Social4.png,stimuli/Social3.png,stimuli/Nonsocial4.png,stimuli/Nonsocial3.png,cs_neg_ns,"(-0.7, -0.5)",,,,,,,,,0,0,0,0,,,,,,,,,,,,,1,8,24,9,,,,,,,,,,,,,,,,,,,,,,,,,,,,,,,,,,759.1535164,72,none,0,,,762.1672836,,,,,,,,,,,,,,,,,,,,,,21,B,2024-04-30_10h55.52.935,attentional_competition_task,2022.2.4,143.93770376213922,
positions.xlsx,positions_test.xlsx,positions_test_new.xlsx,stimuli.xlsx,stimuli_new.xlsx,stimuli/Social2.png,stimuli/Social1.png,stimuli/Nonsocial2.png,stimuli/Nonsocial1.png,stimuli/Social4.png,stimuli/Social3.png,stimuli/Nonsocial4.png,stimuli/Nonsocial3.png,cs_neg_ns,"(0.7, -0.5)",,,,,,,,,0,0,0,0,,,,,,,,,,,,,1,9,25,11,,,,,,,,,,,,,,,,,,,,,,,,,,,,,,,,,,769.8544747999997,72,none,0,,,772.8683411999998,,,,,,,,,,,,,,,,,,,,,,21,B,2024-04-30_10h55.52.935,attentional_competition_task,2022.2.4,143.93770376213922,
positions.xlsx,positions_test.xlsx,positions_test_new.xlsx,stimuli.xlsx,stimuli_new.xlsx,stimuli/Social2.png,stimuli/Social1.png,stimuli/Nonsocial2.png,stimuli/Nonsocial1.png,stimuli/Social4.png,stimuli/Social3.png,stimuli/Nonsocial4.png,stimuli/Nonsocial3.png,cs_neg_ns,"(0.7, 0.5)",,,,,,,,,0,0,0,0,,,,,,,,,,,,,1,10,26,10,,,,,,,,,,,,,,,,,,,,,,,,,,,,,,,,,,779.8193543999998,72,none,0,,,782.8262093000001,,,,,,,,,,,,,,,,,,,,,,21,B,2024-04-30_10h55.52.935,attentional_competition_task,2022.2.4,143.93770376213922,
positions.xlsx,positions_test.xlsx,positions_test_new.xlsx,stimuli.xlsx,stimuli_new.xlsx,stimuli/Social2.png,stimuli/Social1.png,stimuli/Nonsocial2.png,stimuli/Nonsocial1.png,stimuli/Social4.png,stimuli/Social3.png,stimuli/Nonsocial4.png,stimuli/Nonsocial3.png,cs_pos_ns,"(-0.7, 0.5)",,,,,,,,,0,0,0,0,,,,,,,,,,,,,1,11,27,12,,,,,,,,,,,,,,,,,,,,,,,,,,,,,,,,,,790.8328024999998,75,reward,1,0.49381540000013047,0.49381910000010976,791.3328015,,,,,,,,,,,,,,,,,,,,,,21,B,2024-04-30_10h55.52.935,attentional_competition_task,2022.2.4,143.93770376213922,
positions.xlsx,positions_test.xlsx,positions_test_new.xlsx,stimuli.xlsx,stimuli_new.xlsx,stimuli/Social2.png,stimuli/Social1.png,stimuli/Nonsocial2.png,stimuli/Nonsocial1.png,stimuli/Social4.png,stimuli/Social3.png,stimuli/Nonsocial4.png,stimuli/Nonsocial3.png,cs_neg_s,"(0.7, -0.5)",,,,,,,,,0,0,0,0,,,,,,,,,,,,,1,12,28,3,,,,,,,,,,,,,,,,,,,,,,,,,,,,,,,,,,799.1033187,75,none,0,,,802.1170928999998,,,,,,,,,,,,,,,,,,,,,,21,B,2024-04-30_10h55.52.935,attentional_competition_task,2022.2.4,143.93770376213922,
positions.xlsx,positions_test.xlsx,positions_test_new.xlsx,stimuli.xlsx,stimuli_new.xlsx,stimuli/Social2.png,stimuli/Social1.png,stimuli/Nonsocial2.png,stimuli/Nonsocial1.png,stimuli/Social4.png,stimuli/Social3.png,stimuli/Nonsocial4.png,stimuli/Nonsocial3.png,cs_pos_ns,"(0.7, 0.5)",,,,,,,,,0,0,0,0,,,,,,,,,,,,,1,13,29,14,,,,,,,,,,,,,,,,,,,,,,,,,,,,,,,,,,809.2279062,78,reward,1,0.5766085000000203,0.5766121999999996,809.8112312000001,,,,,,,,,,,,,,,,,,,,,,21,B,2024-04-30_10h55.52.935,attentional_competition_task,2022.2.4,143.93770376213922,
positions.xlsx,positions_test.xlsx,positions_test_new.xlsx,stimuli.xlsx,stimuli_new.xlsx,stimuli/Social2.png,stimuli/Social1.png,stimuli/Nonsocial2.png,stimuli/Nonsocial1.png,stimuli/Social4.png,stimuli/Social3.png,stimuli/Nonsocial4.png,stimuli/Nonsocial3.png,cs_neg_s,"(0.7, 0.5)",,,,,,,,,0,0,0,0,,,,,,,,,,,,,1,14,30,2,,,,,,,,,,,,,,,,,,,,,,,,,,,,,,,,,,817.4081189000001,78,none,0,,,820.415009,,,,,,,,,,,,,,,,,,,,,,21,B,2024-04-30_10h55.52.935,attentional_competition_task,2022.2.4,143.93770376213922,
positions.xlsx,positions_test.xlsx,positions_test_new.xlsx,stimuli.xlsx,stimuli_new.xlsx,stimuli/Social2.png,stimuli/Social1.png,stimuli/Nonsocial2.png,stimuli/Nonsocial1.png,stimuli/Social4.png,stimuli/Social3.png,stimuli/Nonsocial4.png,stimuli/Nonsocial3.png,cs_pos_ns,"(-0.7, -0.5)",,,,,,,,,0,0,0,0,,,,,,,,,,,,,1,15,31,13,,,,,,,,,,,,,,,,,,,,,,,,,,,,,,,,,,828.5326978999999,81,reward,1,0.5623776000002181,0.5623812000003454,829.1021371999998,,,,,,,,,,,,,,,,,,,,,,21,B,2024-04-30_10h55.52.935,attentional_competition_task,2022.2.4,143.93770376213922,
positions.xlsx,positions_test.xlsx,positions_test_new.xlsx,stimuli.xlsx,stimuli_new.xlsx,stimuli/Social2.png,stimuli/Social1.png,stimuli/Nonsocial2.png,stimuli/Nonsocial1.png,stimuli/Social4.png,stimuli/Social3.png,stimuli/Nonsocial4.png,stimuli/Nonsocial3.png,cs_pos_s,,,,,,,,,,0,0,0,0,,,,,,,,,,,,,,,,,0,0,0,2,,,,,,,,,,,,,,,,,,,,,,,834.4074631999999,9.0,4.769388300000173,,,,,,,,,,,,,,,,,,,,,,,,,,,,,,,,,21,B,2024-04-30_10h55.52.935,attentional_competition_task,2022.2.4,143.93770376213922,
positions.xlsx,positions_test.xlsx,positions_test_new.xlsx,stimuli.xlsx,stimuli_new.xlsx,stimuli/Social2.png,stimuli/Social1.png,stimuli/Nonsocial2.png,stimuli/Nonsocial1.png,stimuli/Social4.png,stimuli/Social3.png,stimuli/Nonsocial4.png,stimuli/Nonsocial3.png,cs_pos_ns,,,,,,,,,,0,0,0,0,,,,,,,,,,,,,,,,,0,1,1,3,,,,,,,,,,,,,,,,,,,,,,,841.4002520000001,10.0,2.195706500000142,,,,,,,,,,,,,,,,,,,,,,,,,,,,,,,,,21,B,2024-04-30_10h55.52.935,attentional_competition_task,2022.2.4,143.93770376213922,
positions.xlsx,positions_test.xlsx,positions_test_new.xlsx,stimuli.xlsx,stimuli_new.xlsx,stimuli/Social2.png,stimuli/Social1.png,stimuli/Nonsocial2.png,stimuli/Nonsocial1.png,stimuli/Social4.png,stimuli/Social3.png,stimuli/Nonsocial4.png,stimuli/Nonsocial3.png,cs_neg_ns,,,,,,,,,,0,0,0,0,,,,,,,,,,,,,,,,,0,2,2,1,,,,,,,,,,,,,,,,,,,,,,,844.1293121000001,6.0,2.5286611000001358,,,,,,,,,,,,,,,,,,,,,,,,,,,,,,,,,21,B,2024-04-30_10h55.52.935,attentional_competition_task,2022.2.4,143.93770376213922,
positions.xlsx,positions_test.xlsx,positions_test_new.xlsx,stimuli.xlsx,stimuli_new.xlsx,stimuli/Social2.png,stimuli/Social1.png,stimuli/Nonsocial2.png,stimuli/Nonsocial1.png,stimuli/Social4.png,stimuli/Social3.png,stimuli/Nonsocial4.png,stimuli/Nonsocial3.png,cs_neg_s,,,,,,,,,,0,0,0,0,,,,,,,,,,,,,,,,,0,3,3,0,,,,,,,,,,,,,,,,,,,,,,,848.1222166,7.0,1.731601700000283,,,,,,,,,,,,,,,,,,,,,,,,,,,,,,,,,21,B,2024-04-30_10h55.52.935,attentional_competition_task,2022.2.4,143.93770376213922,
positions.xlsx,positions_test.xlsx,positions_test_new.xlsx,stimuli.xlsx,stimuli_new.xlsx,stimuli/Social2.png,stimuli/Social1.png,stimuli/Nonsocial2.png,stimuli/Nonsocial1.png,stimuli/Social4.png,stimuli/Social3.png,stimuli/Nonsocial4.png,stimuli/Nonsocial3.png,,,"(-0.7, -0.5)",cs_neg_ns,"(-0.7, 0.5)",cs_neg_s,"(0.7, -0.5)",cs_pos_ns,"(0.7, 0.5)",cs_pos_s,0,0,0,0,,,,,,,,,,,,,,,,,,,,,0,0,0,15,,,,,,,,,,,,,,,,,,,,,,,,,,,78,reward,,,,,851.7956241999998,859.8717767999999,859.8717767999999,859.8717767999999,859.8717767999999,0,,,0,,,0,,,1,0.03139939999982744,0.031403299999965384,859.8717767999999,859.8717767999999,859.8717767999999,859.8717767999999,21,B,2024-04-30_10h55.52.935,attentional_competition_task,2022.2.4,143.93770376213922,
positions.xlsx,positions_test.xlsx,positions_test_new.xlsx,stimuli.xlsx,stimuli_new.xlsx,stimuli/Social2.png,stimuli/Social1.png,stimuli/Nonsocial2.png,stimuli/Nonsocial1.png,stimuli/Social4.png,stimuli/Social3.png,stimuli/Nonsocial4.png,stimuli/Nonsocial3.png,,,"(-0.7, -0.5)",cs_neg_s,"(-0.7, 0.5)",cs_neg_ns,"(0.7, -0.5)",cs_pos_s,"(0.7, 0.5)",cs_pos_ns,0,0,0,0,,,,,,,,,,,,,,,,,,,,,0,1,1,2,,,,,,,,,,,,,,,,,,,,,,,,,,,87,reward,,,,,,868.9130263999998,868.9130263999998,868.9130263999998,868.9130263999998,0,,,0,,,0,,,0,,,869.6421847999998,869.6421847999998,869.6421847999998,869.6421847999998,21,B,2024-04-30_10h55.52.935,attentional_competition_task,2022.2.4,143.93770376213922,
positions.xlsx,positions_test.xlsx,positions_test_new.xlsx,stimuli.xlsx,stimuli_new.xlsx,stimuli/Social2.png,stimuli/Social1.png,stimuli/Nonsocial2.png,stimuli/Nonsocial1.png,stimuli/Social4.png,stimuli/Social3.png,stimuli/Nonsocial4.png,stimuli/Nonsocial3.png,,,"(-0.7, -0.5)",cs_neg_s,"(-0.7, 0.5)",cs_pos_ns,"(0.7, -0.5)",cs_neg_ns,"(0.7, 0.5)",cs_pos_s,0,0,0,0,,,,,,,,,,,,,,,,,,,,,0,2,2,5,,,,,,,,,,,,,,,,,,,,,,,,,,,96,reward,,,,,,877.7599438999998,877.7599438999998,877.7599438999998,877.7599438999998,0,,,0,,,0,,,0,,,878.3016248000001,878.3016248000001,878.3016248000001,878.3016248000001,21,B,2024-04-30_10h55.52.935,attentional_competition_task,2022.2.4,143.93770376213922,
positions.xlsx,positions_test.xlsx,positions_test_new.xlsx,stimuli.xlsx,stimuli_new.xlsx,stimuli/Social2.png,stimuli/Social1.png,stimuli/Nonsocial2.png,stimuli/Nonsocial1.png,stimuli/Social4.png,stimuli/Social3.png,stimuli/Nonsocial4.png,stimuli/Nonsocial3.png,,,"(-0.7, -0.5)",cs_neg_ns,"(-0.7, 0.5)",cs_pos_s,"(0.7, -0.5)",cs_neg_s,"(0.7, 0.5)",cs_pos_ns,0,0,0,0,,,,,,,,,,,,,,,,,,,,,0,3,3,12,,,,,,,,,,,,,,,,,,,,,,,,,,,105,reward,,,,,,886.6414858999999,886.6414858999999,886.6414858999999,886.6414858999999,0,,,0,,,0,,,1,0.023679599999923084,0.21295439999994414,887.3706374000001,887.3706374000001,887.3706374000001,887.3706374000001,21,B,2024-04-30_10h55.52.935,attentional_competition_task,2022.2.4,143.93770376213922,
positions.xlsx,positions_test.xlsx,positions_test_new.xlsx,stimuli.xlsx,stimuli_new.xlsx,stimuli/Social2.png,stimuli/Social1.png,stimuli/Nonsocial2.png,stimuli/Nonsocial1.png,stimuli/Social4.png,stimuli/Social3.png,stimuli/Nonsocial4.png,stimuli/Nonsocial3.png,,,"(-0.7, -0.5)",cs_neg_ns,"(-0.7, 0.5)",cs_pos_s,"(0.7, -0.5)",cs_pos_ns,"(0.7, 0.5)",cs_neg_s,0,0,0,0,,,,,,,,,,,,,,,,,,,,,0,4,4,13,,,,,,,,,,,,,,,,,,,,,,,,,,,111,reward,,,,,,895.6689147999998,895.6689147999998,895.6689147999998,895.6689147999998,0,,,0,,,1,0.02450230000022202,0.024506300000211922,0,,,895.6689147999998,895.6689147999998,895.6689147999998,895.6689147999998,21,B,2024-04-30_10h55.52.935,attentional_competition_task,2022.2.4,143.93770376213922,
positions.xlsx,positions_test.xlsx,positions_test_new.xlsx,stimuli.xlsx,stimuli_new.xlsx,stimuli/Social2.png,stimuli/Social1.png,stimuli/Nonsocial2.png,stimuli/Nonsocial1.png,stimuli/Social4.png,stimuli/Social3.png,stimuli/Nonsocial4.png,stimuli/Nonsocial3.png,,,"(-0.7, -0.5)",cs_pos_s,"(-0.7, 0.5)",cs_neg_ns,"(0.7, -0.5)",cs_neg_s,"(0.7, 0.5)",cs_pos_ns,0,0,0,0,,,,,,,,,,,,,,,,,,,,,0,5,5,8,,,,,,,,,,,,,,,,,,,,,,,,,,,120,reward,,,,,,904.3282839000001,904.3282839000001,904.3282839000001,904.3282839000001,0,,,0,,,0,,,0,,,905.1060344999999,905.1060344999999,905.1060344999999,905.1060344999999,21,B,2024-04-30_10h55.52.935,attentional_competition_task,2022.2.4,143.93770376213922,
positions.xlsx,positions_test.xlsx,positions_test_new.xlsx,stimuli.xlsx,stimuli_new.xlsx,stimuli/Social2.png,stimuli/Social1.png,stimuli/Nonsocial2.png,stimuli/Nonsocial1.png,stimuli/Social4.png,stimuli/Social3.png,stimuli/Nonsocial4.png,stimuli/Nonsocial3.png,,,"(-0.7, -0.5)",cs_neg_s,"(-0.7, 0.5)",cs_pos_s,"(0.7, -0.5)",cs_neg_ns,"(0.7, 0.5)",cs_pos_ns,0,0,0,0,,,,,,,,,,,,,,,,,,,,,0,6,6,0,,,,,,,,,,,,,,,,,,,,,,,,,,,129,reward,,,,,,912.4946171999998,912.4946171999998,912.4946171999998,912.4946171999998,0,,,0,,,0,,,1,0.023877399999946647,0.10154899999997724,913.4668396999998,913.4668396999998,913.4668396999998,913.4668396999998,21,B,2024-04-30_10h55.52.935,attentional_competition_task,2022.2.4,143.93770376213922,
positions.xlsx,positions_test.xlsx,positions_test_new.xlsx,stimuli.xlsx,stimuli_new.xlsx,stimuli/Social2.png,stimuli/Social1.png,stimuli/Nonsocial2.png,stimuli/Nonsocial1.png,stimuli/Social4.png,stimuli/Social3.png,stimuli/Nonsocial4.png,stimuli/Nonsocial3.png,,,"(-0.7, -0.5)",cs_neg_s,"(-0.7, 0.5)",cs_pos_ns,"(0.7, -0.5)",cs_pos_s,"(0.7, 0.5)",cs_neg_ns,0,0,0,0,,,,,,,,,,,,,,,,,,,,,0,7,7,4,,,,,,,,,,,,,,,,,,,,,,,,,,,138,reward,,,,,,920.9873433,920.9873433,920.9873433,920.9873433,0,,,1,0.025175100000069506,0.14249939999990602,0,,,0,,,921.7164799999998,921.7164799999998,921.7164799999998,921.7164799999998,21,B,2024-04-30_10h55.52.935,attentional_competition_task,2022.2.4,143.93770376213922,
positions.xlsx,positions_test.xlsx,positions_test_new.xlsx,stimuli.xlsx,stimuli_new.xlsx,stimuli/Social2.png,stimuli/Social1.png,stimuli/Nonsocial2.png,stimuli/Nonsocial1.png,stimuli/Social4.png,stimuli/Social3.png,stimuli/Nonsocial4.png,stimuli/Nonsocial3.png,,,"(-0.7, -0.5)",cs_pos_ns,"(-0.7, 0.5)",cs_pos_s,"(0.7, -0.5)",cs_neg_s,"(0.7, 0.5)",cs_neg_ns,0,0,0,0,,,,,,,,,,,,,,,,,,,,,0,8,8,19,,,,,,,,,,,,,,,,,,,,,,,,,,,144,reward,,,,,,929.4383861999997,929.4383861999997,929.4383861999997,929.4383861999997,1,0.037594500000068365,0.037597999999889,0,,,0,,,0,,,929.4800314000001,929.4800314000001,929.4800314000001,929.4800314000001,21,B,2024-04-30_10h55.52.935,attentional_competition_task,2022.2.4,143.93770376213922,
positions.xlsx,positions_test.xlsx,positions_test_new.xlsx,stimuli.xlsx,stimuli_new.xlsx,stimuli/Social2.png,stimuli/Social1.png,stimuli/Nonsocial2.png,stimuli/Nonsocial1.png,stimuli/Social4.png,stimuli/Social3.png,stimuli/Nonsocial4.png,stimuli/Nonsocial3.png,,,"(-0.7, -0.5)",cs_pos_s,"(-0.7, 0.5)",cs_pos_ns,"(0.7, -0.5)",cs_neg_s,"(0.7, 0.5)",cs_neg_ns,0,0,0,0,,,,,,,,,,,,,,,,,,,,,0,9,9,10,,,,,,,,,,,,,,,,,,,,,,,,,,,153,reward,,,,,,937.8755178999997,937.8755178999997,937.8755178999997,937.8755178999997,0,,,0,,,0,,,0,,,938.7505199,938.7505199,938.7505199,938.7505199,21,B,2024-04-30_10h55.52.935,attentional_competition_task,2022.2.4,143.93770376213922,
positions.xlsx,positions_test.xlsx,positions_test_new.xlsx,stimuli.xlsx,stimuli_new.xlsx,stimuli/Social2.png,stimuli/Social1.png,stimuli/Nonsocial2.png,stimuli/Nonsocial1.png,stimuli/Social4.png,stimuli/Social3.png,stimuli/Nonsocial4.png,stimuli/Nonsocial3.png,,,"(-0.7, -0.5)",cs_pos_ns,"(-0.7, 0.5)",cs_neg_ns,"(0.7, -0.5)",cs_neg_s,"(0.7, 0.5)",cs_pos_s,0,0,0,0,,,,,,,,,,,,,,,,,,,,,0,10,10,21,,,,,,,,,,,,,,,,,,,,,,,,,,,156,reward,,,,,,947.0140635,947.0140635,947.0140635,947.0140635,0,,,0,,,0,,,1,0.028107699999964098,0.028111399999943387,947.0140635,947.0140635,947.0140635,947.0140635,21,B,2024-04-30_10h55.52.935,attentional_competition_task,2022.2.4,143.93770376213922,
positions.xlsx,positions_test.xlsx,positions_test_new.xlsx,stimuli.xlsx,stimuli_new.xlsx,stimuli/Social2.png,stimuli/Social1.png,stimuli/Nonsocial2.png,stimuli/Nonsocial1.png,stimuli/Social4.png,stimuli/Social3.png,stimuli/Nonsocial4.png,stimuli/Nonsocial3.png,,,"(-0.7, -0.5)",cs_pos_ns,"(-0.7, 0.5)",cs_neg_s,"(0.7, -0.5)",cs_pos_s,"(0.7, 0.5)",cs_neg_ns,0,0,0,0,,,,,,,,,,,,,,,,,,,,,0,11,11,22,,,,,,,,,,,,,,,,,,,,,,,,,,,165,reward,,,,,,955.7220562999998,955.7220562999998,955.7220562999998,955.7220562999998,1,0.02298209999980827,0.11361480000005031,0,,,0,,,0,,,956.5275792,956.5275792,956.5275792,956.5275792,21,B,2024-04-30_10h55.52.935,attentional_competition_task,2022.2.4,143.93770376213922,
positions.xlsx,positions_test.xlsx,positions_test_new.xlsx,stimuli.xlsx,stimuli_new.xlsx,stimuli/Social2.png,stimuli/Social1.png,stimuli/Nonsocial2.png,stimuli/Nonsocial1.png,stimuli/Social4.png,stimuli/Social3.png,stimuli/Nonsocial4.png,stimuli/Nonsocial3.png,,,"(-0.7, -0.5)",cs_neg_ns,"(-0.7, 0.5)",cs_pos_ns,"(0.7, -0.5)",cs_neg_s,"(0.7, 0.5)",cs_pos_s,0,0,0,0,,,,,,,,,,,,,,,,,,,,,0,12,12,17,,,,,,,,,,,,,,,,,,,,,,,,,,,174,reward,,,,,,963.5620223999997,963.5620223999997,963.5620223999997,963.5620223999997,0,,,0,,,0,,,0,,,964.4300495,964.4300495,964.4300495,964.4300495,21,B,2024-04-30_10h55.52.935,attentional_competition_task,2022.2.4,143.93770376213922,
positions.xlsx,positions_test.xlsx,positions_test_new.xlsx,stimuli.xlsx,stimuli_new.xlsx,stimuli/Social2.png,stimuli/Social1.png,stimuli/Nonsocial2.png,stimuli/Nonsocial1.png,stimuli/Social4.png,stimuli/Social3.png,stimuli/Nonsocial4.png,stimuli/Nonsocial3.png,,,"(-0.7, -0.5)",cs_pos_s,"(-0.7, 0.5)",cs_neg_s,"(0.7, -0.5)",cs_pos_ns,"(0.7, 0.5)",cs_neg_ns,0,0,0,0,,,,,,,,,,,,,,,,,,,,,0,13,13,7,,,,,,,,,,,,,,,,,,,,,,,,,,,183,reward,,,,,,971.6589188,971.6589188,971.6589188,971.6589188,0,,,0,,,0,,,0,,,972.3880578000001,972.3880578000001,972.3880578000001,972.3880578000001,21,B,2024-04-30_10h55.52.935,attentional_competition_task,2022.2.4,143.93770376213922,
positions.xlsx,positions_test.xlsx,positions_test_new.xlsx,stimuli.xlsx,stimuli_new.xlsx,stimuli/Social2.png,stimuli/Social1.png,stimuli/Nonsocial2.png,stimuli/Nonsocial1.png,stimuli/Social4.png,stimuli/Social3.png,stimuli/Nonsocial4.png,stimuli/Nonsocial3.png,,,"(-0.7, -0.5)",cs_neg_ns,"(-0.7, 0.5)",cs_pos_ns,"(0.7, -0.5)",cs_pos_s,"(0.7, 0.5)",cs_neg_s,0,0,0,0,,,,,,,,,,,,,,,,,,,,,0,14,14,16,,,,,,,,,,,,,,,,,,,,,,,,,,,183,loss,,,,,,979.6794475999998,979.6794475999998,979.6794475999998,979.6794475999998,1,0.028332399999726476,0.028336399999716377,0,,,0,,,0,,,979.6794475999998,979.6794475999998,979.6794475999998,979.6794475999998,21,B,2024-04-30_10h55.52.935,attentional_competition_task,2022.2.4,143.93770376213922,
positions.xlsx,positions_test.xlsx,positions_test_new.xlsx,stimuli.xlsx,stimuli_new.xlsx,stimuli/Social2.png,stimuli/Social1.png,stimuli/Nonsocial2.png,stimuli/Nonsocial1.png,stimuli/Social4.png,stimuli/Social3.png,stimuli/Nonsocial4.png,stimuli/Nonsocial3.png,,,"(-0.7, -0.5)",cs_pos_s,"(-0.7, 0.5)",cs_pos_ns,"(0.7, -0.5)",cs_neg_ns,"(0.7, 0.5)",cs_neg_s,0,0,0,0,,,,,,,,,,,,,,,,,,,,,0,15,15,11,,,,,,,,,,,,,,,,,,,,,,,,,,,192,reward,,,,,,987.3041289999999,987.3041289999999,987.3041289999999,987.3041289999999,0,,,0,,,0,,,0,,,988.1443916000001,988.1443916000001,988.1443916000001,988.1443916000001,21,B,2024-04-30_10h55.52.935,attentional_competition_task,2022.2.4,143.93770376213922,
positions.xlsx,positions_test.xlsx,positions_test_new.xlsx,stimuli.xlsx,stimuli_new.xlsx,stimuli/Social2.png,stimuli/Social1.png,stimuli/Nonsocial2.png,stimuli/Nonsocial1.png,stimuli/Social4.png,stimuli/Social3.png,stimuli/Nonsocial4.png,stimuli/Nonsocial3.png,,,"(-0.7, -0.5)",cs_neg_s,"(-0.7, 0.5)",cs_pos_s,"(0.7, -0.5)",cs_pos_ns,"(0.7, 0.5)",cs_neg_ns,0,0,0,0,,,,,,,,,,,,,,,,,,,,,0,16,16,1,,,,,,,,,,,,,,,,,,,,,,,,,,,201,reward,,,,,,996.1927439999997,996.1927439999997,996.1927439999997,996.1927439999997,0,,,0,,,0,,,0,,,996.9426059,996.9426059,996.9426059,996.9426059,21,B,2024-04-30_10h55.52.935,attentional_competition_task,2022.2.4,143.93770376213922,
positions.xlsx,positions_test.xlsx,positions_test_new.xlsx,stimuli.xlsx,stimuli_new.xlsx,stimuli/Social2.png,stimuli/Social1.png,stimuli/Nonsocial2.png,stimuli/Nonsocial1.png,stimuli/Social4.png,stimuli/Social3.png,stimuli/Nonsocial4.png,stimuli/Nonsocial3.png,,,"(-0.7, -0.5)",cs_pos_ns,"(-0.7, 0.5)",cs_neg_s,"(0.7, -0.5)",cs_neg_ns,"(0.7, 0.5)",cs_pos_s,0,0,0,0,,,,,,,,,,,,,,,,,,,,,0,17,17,23,,,,,,,,,,,,,,,,,,,,,,,,,,,210,reward,,,,,,1005.1020872000001,1005.1020872000001,1005.1020872000001,1005.1020872000001,1,0.02311539999982415,0.10710040000003573,0,,,0,,,0,,,1006.0047557999999,1006.0047557999999,1006.0047557999999,1006.0047557999999,21,B,2024-04-30_10h55.52.935,attentional_competition_task,2022.2.4,143.93770376213922,
positions.xlsx,positions_test.xlsx,positions_test_new.xlsx,stimuli.xlsx,stimuli_new.xlsx,stimuli/Social2.png,stimuli/Social1.png,stimuli/Nonsocial2.png,stimuli/Nonsocial1.png,stimuli/Social4.png,stimuli/Social3.png,stimuli/Nonsocial4.png,stimuli/Nonsocial3.png,,,"(-0.7, -0.5)",cs_pos_ns,"(-0.7, 0.5)",cs_neg_ns,"(0.7, -0.5)",cs_pos_s,"(0.7, 0.5)",cs_neg_s,0,0,0,0,,,,,,,,,,,,,,,,,,,,,0,18,18,20,,,,,,,,,,,,,,,,,,,,,,,,,,,219,reward,,,,,,1013.2336459,1013.2336459,1013.2336459,1013.2336459,0,,,0,,,0,,,0,,,1013.8170078999999,1013.8170078999999,1013.8170078999999,1013.8170078999999,21,B,2024-04-30_10h55.52.935,attentional_competition_task,2022.2.4,143.93770376213922,
positions.xlsx,positions_test.xlsx,positions_test_new.xlsx,stimuli.xlsx,stimuli_new.xlsx,stimuli/Social2.png,stimuli/Social1.png,stimuli/Nonsocial2.png,stimuli/Nonsocial1.png,stimuli/Social4.png,stimuli/Social3.png,stimuli/Nonsocial4.png,stimuli/Nonsocial3.png,,,"(-0.7, -0.5)",cs_pos_ns,"(-0.7, 0.5)",cs_pos_s,"(0.7, -0.5)",cs_neg_ns,"(0.7, 0.5)",cs_neg_s,0,0,0,0,,,,,,,,,,,,,,,,,,,,,0,19,19,18,,,,,,,,,,,,,,,,,,,,,,,,,,,228,reward,,,,,,1021.8721944000001,1021.8721944000001,1021.8721944000001,1021.8721944000001,0,,,0,,,0,,,0,,,1022.5665889999998,1022.5665889999998,1022.5665889999998,1022.5665889999998,21,B,2024-04-30_10h55.52.935,attentional_competition_task,2022.2.4,143.93770376213922,
positions.xlsx,positions_test.xlsx,positions_test_new.xlsx,stimuli.xlsx,stimuli_new.xlsx,stimuli/Social2.png,stimuli/Social1.png,stimuli/Nonsocial2.png,stimuli/Nonsocial1.png,stimuli/Social4.png,stimuli/Social3.png,stimuli/Nonsocial4.png,stimuli/Nonsocial3.png,,,"(-0.7, -0.5)",cs_pos_s,"(-0.7, 0.5)",cs_neg_s,"(0.7, -0.5)",cs_neg_ns,"(0.7, 0.5)",cs_pos_ns,0,0,0,0,,,,,,,,,,,,,,,,,,,,,0,20,20,6,,,,,,,,,,,,,,,,,,,,,,,,,,,237,reward,,,,,,1030.4759923,1030.4759923,1030.4759923,1030.4759923,0,,,0,,,0,,,0,,,1031.3023459999997,1031.3023459999997,1031.3023459999997,1031.3023459999997,21,B,2024-04-30_10h55.52.935,attentional_competition_task,2022.2.4,143.93770376213922,
positions.xlsx,positions_test.xlsx,positions_test_new.xlsx,stimuli.xlsx,stimuli_new.xlsx,stimuli/Social2.png,stimuli/Social1.png,stimuli/Nonsocial2.png,stimuli/Nonsocial1.png,stimuli/Social4.png,stimuli/Social3.png,stimuli/Nonsocial4.png,stimuli/Nonsocial3.png,,,"(-0.7, -0.5)",cs_neg_s,"(-0.7, 0.5)",cs_neg_ns,"(0.7, -0.5)",cs_pos_ns,"(0.7, 0.5)",cs_pos_s,0,0,0,0,,,,,,,,,,,,,,,,,,,,,0,21,21,3,,,,,,,,,,,,,,,,,,,,,,,,,,,243,reward,,,,,,1038.3298385,1038.3298385,1038.3298385,1038.3298385,0,,,0,,,0,,,1,0.02972120000003997,0.4878939000000173,1038.822868,1038.822868,1038.822868,1038.822868,21,B,2024-04-30_10h55.52.935,attentional_competition_task,2022.2.4,143.93770376213922,
positions.xlsx,positions_test.xlsx,positions_test_new.xlsx,stimuli.xlsx,stimuli_new.xlsx,stimuli/Social2.png,stimuli/Social1.png,stimuli/Nonsocial2.png,stimuli/Nonsocial1.png,stimuli/Social4.png,stimuli/Social3.png,stimuli/Nonsocial4.png,stimuli/Nonsocial3.png,,,"(-0.7, -0.5)",cs_neg_ns,"(-0.7, 0.5)",cs_neg_s,"(0.7, -0.5)",cs_pos_s,"(0.7, 0.5)",cs_pos_ns,0,0,0,0,,,,,,,,,,,,,,,,,,,,,0,22,22,14,,,,,,,,,,,,,,,,,,,,,,,,,,,249,reward,,,,,,1046.3572809,1046.3572809,1046.3572809,1046.3572809,0,,,0,,,1,0.029826500000126543,0.501524000000245,1,0.5160715000001801,0.5160753000000113,1046.8711347,1046.8711347,1046.8711347,1046.8711347,21,B,2024-04-30_10h55.52.935,attentional_competition_task,2022.2.4,143.93770376213922,
positions.xlsx,positions_test.xlsx,positions_test_new.xlsx,stimuli.xlsx,stimuli_new.xlsx,stimuli/Social2.png,stimuli/Social1.png,stimuli/Nonsocial2.png,stimuli/Nonsocial1.png,stimuli/Social4.png,stimuli/Social3.png,stimuli/Nonsocial4.png,stimuli/Nonsocial3.png,,,"(-0.7, -0.5)",cs_pos_s,"(-0.7, 0.5)",cs_neg_ns,"(0.7, -0.5)",cs_pos_ns,"(0.7, 0.5)",cs_neg_s,0,0,0,0,,,,,,,,,,,,,,,,,,,,,0,23,23,9,,,,,,,,,,,,,,,,,,,,,,,,,,,258,reward,,,,,,1054.7806061999997,1054.7806061999997,1054.7806061999997,1054.7806061999997,2,0.26007760000038616,0.2807419000000664,0,,,0,,,0,,,1055.6694197,1055.6694197,1055.6694197,1055.6694197,21,B,2024-04-30_10h55.52.935,attentional_competition_task,2022.2.4,143.93770376213922,
positions.xlsx,positions_test.xlsx,positions_test_new.xlsx,stimuli.xlsx,stimuli_new.xlsx,stimuli/Social2.png,stimuli/Social1.png,stimuli/Nonsocial2.png,stimuli/Nonsocial1.png,stimuli/Social4.png,stimuli/Social3.png,stimuli/Nonsocial4.png,stimuli/Nonsocial3.png,,,"(-0.7, -0.5)",cs_pos_s,"(-0.7, 0.5)",cs_neg_ns,"(0.7, -0.5)",cs_pos_ns,"(0.7, 0.5)",cs_neg_s,0,0,0,0,,,,,,,,,,,,,,,,,,,,,1,0,24,9,,,,,,,,,,,,,,,,,,,,,,,,,,,267,reward,,,,,,1063.0232850999998,1063.0232850999998,1063.0232850999998,1063.0232850999998,0,,,0,,,0,,,0,,,1063.9607727,1063.9607727,1063.9607727,1063.9607727,21,B,2024-04-30_10h55.52.935,attentional_competition_task,2022.2.4,143.93770376213922,
positions.xlsx,positions_test.xlsx,positions_test_new.xlsx,stimuli.xlsx,stimuli_new.xlsx,stimuli/Social2.png,stimuli/Social1.png,stimuli/Nonsocial2.png,stimuli/Nonsocial1.png,stimuli/Social4.png,stimuli/Social3.png,stimuli/Nonsocial4.png,stimuli/Nonsocial3.png,,,"(-0.7, -0.5)",cs_neg_s,"(-0.7, 0.5)",cs_pos_s,"(0.7, -0.5)",cs_pos_ns,"(0.7, 0.5)",cs_neg_ns,0,0,0,0,,,,,,,,,,,,,,,,,,,,,1,1,25,1,,,,,,,,,,,,,,,,,,,,,,,,,,,273,reward,,,,,,1072.3076319,1072.3076319,1072.3076319,1072.3076319,0,,,0,,,1,0.029346199999963574,0.029349899999942863,0,,,1072.3076319,1072.3076319,1072.3076319,1072.3076319,21,B,2024-04-30_10h55.52.935,attentional_competition_task,2022.2.4,143.93770376213922,
positions.xlsx,positions_test.xlsx,positions_test_new.xlsx,stimuli.xlsx,stimuli_new.xlsx,stimuli/Social2.png,stimuli/Social1.png,stimuli/Nonsocial2.png,stimuli/Nonsocial1.png,stimuli/Social4.png,stimuli/Social3.png,stimuli/Nonsocial4.png,stimuli/Nonsocial3.png,,,"(-0.7, -0.5)",cs_neg_s,"(-0.7, 0.5)",cs_pos_ns,"(0.7, -0.5)",cs_neg_ns,"(0.7, 0.5)",cs_pos_s,0,0,0,0,,,,,,,,,,,,,,,,,,,,,1,2,26,5,,,,,,,,,,,,,,,,,,,,,,,,,,,282,reward,,,,,,1079.8907336,1079.8907336,1079.8907336,1079.8907336,0,,,0,,,0,,,0,,,1080.8350838,1080.8350838,1080.8350838,1080.8350838,21,B,2024-04-30_10h55.52.935,attentional_competition_task,2022.2.4,143.93770376213922,
positions.xlsx,positions_test.xlsx,positions_test_new.xlsx,stimuli.xlsx,stimuli_new.xlsx,stimuli/Social2.png,stimuli/Social1.png,stimuli/Nonsocial2.png,stimuli/Nonsocial1.png,stimuli/Social4.png,stimuli/Social3.png,stimuli/Nonsocial4.png,stimuli/Nonsocial3.png,,,"(-0.7, -0.5)",cs_neg_s,"(-0.7, 0.5)",cs_neg_ns,"(0.7, -0.5)",cs_pos_ns,"(0.7, 0.5)",cs_pos_s,0,0,0,0,,,,,,,,,,,,,,,,,,,,,1,3,27,3,,,,,,,,,,,,,,,,,,,,,,,,,,,291,reward,,,,,,1087.6959673,1087.6959673,1087.6959673,1087.6959673,0,,,0,,,0,,,0,,,1088.6125448999999,1088.6125448999999,1088.6125448999999,1088.6125448999999,21,B,2024-04-30_10h55.52.935,attentional_competition_task,2022.2.4,143.93770376213922,
positions.xlsx,positions_test.xlsx,positions_test_new.xlsx,stimuli.xlsx,stimuli_new.xlsx,stimuli/Social2.png,stimuli/Social1.png,stimuli/Nonsocial2.png,stimuli/Nonsocial1.png,stimuli/Social4.png,stimuli/Social3.png,stimuli/Nonsocial4.png,stimuli/Nonsocial3.png,,,"(-0.7, -0.5)",cs_pos_s,"(-0.7, 0.5)",cs_neg_s,"(0.7, -0.5)",cs_pos_ns,"(0.7, 0.5)",cs_neg_ns,0,0,0,0,,,,,,,,,,,,,,,,,,,,,1,4,28,7,,,,,,,,,,,,,,,,,,,,,,,,,,,288,loss,,,,,,1096.8413869999997,1096.8413869999997,1096.8413869999997,1096.8413869999997,0,,,0,,,0,,,1,0.0290181999998822,0.02902170000015758,1096.8413869999997,1096.8413869999997,1096.8413869999997,1096.8413869999997,21,B,2024-04-30_10h55.52.935,attentional_competition_task,2022.2.4,143.93770376213922,
positions.xlsx,positions_test.xlsx,positions_test_new.xlsx,stimuli.xlsx,stimuli_new.xlsx,stimuli/Social2.png,stimuli/Social1.png,stimuli/Nonsocial2.png,stimuli/Nonsocial1.png,stimuli/Social4.png,stimuli/Social3.png,stimuli/Nonsocial4.png,stimuli/Nonsocial3.png,,,"(-0.7, -0.5)",cs_neg_ns,"(-0.7, 0.5)",cs_neg_s,"(0.7, -0.5)",cs_pos_s,"(0.7, 0.5)",cs_pos_ns,0,0,0,0,,,,,,,,,,,,,,,,,,,,,1,5,29,14,,,,,,,,,,,,,,,,,,,,,,,,,,,297,reward,,,,,,1105.3133013,1105.3133013,1105.3133013,1105.3133013,0,,,0,,,0,,,0,,,1106.1118288,1106.1118288,1106.1118288,1106.1118288,21,B,2024-04-30_10h55.52.935,attentional_competition_task,2022.2.4,143.93770376213922,
positions.xlsx,positions_test.xlsx,positions_test_new.xlsx,stimuli.xlsx,stimuli_new.xlsx,stimuli/Social2.png,stimuli/Social1.png,stimuli/Nonsocial2.png,stimuli/Nonsocial1.png,stimuli/Social4.png,stimuli/Social3.png,stimuli/Nonsocial4.png,stimuli/Nonsocial3.png,,,"(-0.7, -0.5)",cs_pos_ns,"(-0.7, 0.5)",cs_neg_ns,"(0.7, -0.5)",cs_neg_s,"(0.7, 0.5)",cs_pos_s,0,0,0,0,,,,,,,,,,,,,,,,,,,,,1,6,30,21,,,,,,,,,,,,,,,,,,,,,,,,,,,306,reward,,,,,,1114.6045814000001,1114.6045814000001,1114.6045814000001,1114.6045814000001,0,,,0,,,0,,,0,,,1115.4031539,1115.4031539,1115.4031539,1115.4031539,21,B,2024-04-30_10h55.52.935,attentional_competition_task,2022.2.4,143.93770376213922,
positions.xlsx,positions_test.xlsx,positions_test_new.xlsx,stimuli.xlsx,stimuli_new.xlsx,stimuli/Social2.png,stimuli/Social1.png,stimuli/Nonsocial2.png,stimuli/Nonsocial1.png,stimuli/Social4.png,stimuli/Social3.png,stimuli/Nonsocial4.png,stimuli/Nonsocial3.png,,,"(-0.7, -0.5)",cs_pos_ns,"(-0.7, 0.5)",cs_neg_s,"(0.7, -0.5)",cs_neg_ns,"(0.7, 0.5)",cs_pos_s,0,0,0,0,,,,,,,,,,,,,,,,,,,,,1,7,31,23,,,,,,,,,,,,,,,,,,,,,,,,,,,315,reward,,,,,,1123.8959195,1123.8959195,1123.8959195,1123.8959195,0,,,0,,,0,,,0,,,1124.6944673,1124.6944673,1124.6944673,1124.6944673,21,B,2024-04-30_10h55.52.935,attentional_competition_task,2022.2.4,143.93770376213922,
positions.xlsx,positions_test.xlsx,positions_test_new.xlsx,stimuli.xlsx,stimuli_new.xlsx,stimuli/Social2.png,stimuli/Social1.png,stimuli/Nonsocial2.png,stimuli/Nonsocial1.png,stimuli/Social4.png,stimuli/Social3.png,stimuli/Nonsocial4.png,stimuli/Nonsocial3.png,,,"(-0.7, -0.5)",cs_pos_s,"(-0.7, 0.5)",cs_pos_ns,"(0.7, -0.5)",cs_neg_s,"(0.7, 0.5)",cs_neg_ns,0,0,0,0,,,,,,,,,,,,,,,,,,,,,1,8,32,10,,,,,,,,,,,,,,,,,,,,,,,,,,,324,reward,,,,,,1132.8816175,1132.8816175,1132.8816175,1132.8816175,0,,,0,,,0,,,0,,,1133.4579928,1133.4579928,1133.4579928,1133.4579928,21,B,2024-04-30_10h55.52.935,attentional_competition_task,2022.2.4,143.93770376213922,
positions.xlsx,positions_test.xlsx,positions_test_new.xlsx,stimuli.xlsx,stimuli_new.xlsx,stimuli/Social2.png,stimuli/Social1.png,stimuli/Nonsocial2.png,stimuli/Nonsocial1.png,stimuli/Social4.png,stimuli/Social3.png,stimuli/Nonsocial4.png,stimuli/Nonsocial3.png,,,"(-0.7, -0.5)",cs_pos_ns,"(-0.7, 0.5)",cs_pos_s,"(0.7, -0.5)",cs_neg_s,"(0.7, 0.5)",cs_neg_ns,0,0,0,0,,,,,,,,,,,,,,,,,,,,,1,9,33,19,,,,,,,,,,,,,,,,,,,,,,,,,,,333,reward,,,,,,1141.7076488999999,1141.7076488999999,1141.7076488999999,1141.7076488999999,0,,,0,,,0,,,0,,,1142.5201415,1142.5201415,1142.5201415,1142.5201415,21,B,2024-04-30_10h55.52.935,attentional_competition_task,2022.2.4,143.93770376213922,
positions.xlsx,positions_test.xlsx,positions_test_new.xlsx,stimuli.xlsx,stimuli_new.xlsx,stimuli/Social2.png,stimuli/Social1.png,stimuli/Nonsocial2.png,stimuli/Nonsocial1.png,stimuli/Social4.png,stimuli/Social3.png,stimuli/Nonsocial4.png,stimuli/Nonsocial3.png,,,"(-0.7, -0.5)",cs_pos_s,"(-0.7, 0.5)",cs_neg_s,"(0.7, -0.5)",cs_neg_ns,"(0.7, 0.5)",cs_pos_ns,0,0,0,0,,,,,,,,,,,,,,,,,,,,,1,10,34,6,,,,,,,,,,,,,,,,,,,,,,,,,,,339,reward,,,,,,1149.5684582000001,1149.5684582000001,1149.5684582000001,1149.5684582000001,0,,,0,,,0,,,1,0.029430699999920762,0.02944709999974293,1149.5684582000001,1149.5684582000001,1149.5684582000001,1149.5684582000001,21,B,2024-04-30_10h55.52.935,attentional_competition_task,2022.2.4,143.93770376213922,
positions.xlsx,positions_test.xlsx,positions_test_new.xlsx,stimuli.xlsx,stimuli_new.xlsx,stimuli/Social2.png,stimuli/Social1.png,stimuli/Nonsocial2.png,stimuli/Nonsocial1.png,stimuli/Social4.png,stimuli/Social3.png,stimuli/Nonsocial4.png,stimuli/Nonsocial3.png,,,"(-0.7, -0.5)",cs_neg_ns,"(-0.7, 0.5)",cs_pos_s,"(0.7, -0.5)",cs_pos_ns,"(0.7, 0.5)",cs_neg_s,0,0,0,0,,,,,,,,,,,,,,,,,,,,,1,11,35,13,,,,,,,,,,,,,,,,,,,,,,,,,,,348,reward,,,,,,1158.595849,1158.595849,1158.595849,1158.595849,0,,,0,,,0,,,0,,,1159.3666848,1159.3666848,1159.3666848,1159.3666848,21,B,2024-04-30_10h55.52.935,attentional_competition_task,2022.2.4,143.93770376213922,
positions.xlsx,positions_test.xlsx,positions_test_new.xlsx,stimuli.xlsx,stimuli_new.xlsx,stimuli/Social2.png,stimuli/Social1.png,stimuli/Nonsocial2.png,stimuli/Nonsocial1.png,stimuli/Social4.png,stimuli/Social3.png,stimuli/Nonsocial4.png,stimuli/Nonsocial3.png,,,"(-0.7, -0.5)",cs_neg_s,"(-0.7, 0.5)",cs_pos_s,"(0.7, -0.5)",cs_neg_ns,"(0.7, 0.5)",cs_pos_ns,0,0,0,0,,,,,,,,,,,,,,,,,,,,,1,12,36,0,,,,,,,,,,,,,,,,,,,,,,,,,,,357,reward,,,,,,1167.5191346999998,1167.5191346999998,1167.5191346999998,1167.5191346999998,0,,,0,,,0,,,0,,,1168.1718691999997,1168.1718691999997,1168.1718691999997,1168.1718691999997,21,B,2024-04-30_10h55.52.935,attentional_competition_task,2022.2.4,143.93770376213922,
positions.xlsx,positions_test.xlsx,positions_test_new.xlsx,stimuli.xlsx,stimuli_new.xlsx,stimuli/Social2.png,stimuli/Social1.png,stimuli/Nonsocial2.png,stimuli/Nonsocial1.png,stimuli/Social4.png,stimuli/Social3.png,stimuli/Nonsocial4.png,stimuli/Nonsocial3.png,,,"(-0.7, -0.5)",cs_neg_s,"(-0.7, 0.5)",cs_neg_ns,"(0.7, -0.5)",cs_pos_s,"(0.7, 0.5)",cs_pos_ns,0,0,0,0,,,,,,,,,,,,,,,,,,,,,1,13,37,2,,,,,,,,,,,,,,,,,,,,,,,,,,,366,reward,,,,,,1176.2062202999998,1176.2062202999998,1176.2062202999998,1176.2062202999998,0,,,0,,,0,,,0,,,1176.9909643999997,1176.9909643999997,1176.9909643999997,1176.9909643999997,21,B,2024-04-30_10h55.52.935,attentional_competition_task,2022.2.4,143.93770376213922,
positions.xlsx,positions_test.xlsx,positions_test_new.xlsx,stimuli.xlsx,stimuli_new.xlsx,stimuli/Social2.png,stimuli/Social1.png,stimuli/Nonsocial2.png,stimuli/Nonsocial1.png,stimuli/Social4.png,stimuli/Social3.png,stimuli/Nonsocial4.png,stimuli/Nonsocial3.png,,,"(-0.7, -0.5)",cs_pos_s,"(-0.7, 0.5)",cs_pos_ns,"(0.7, -0.5)",cs_neg_ns,"(0.7, 0.5)",cs_neg_s,0,0,0,0,,,,,,,,,,,,,,,,,,,,,1,14,38,11,,,,,,,,,,,,,,,,,,,,,,,,,,,375,reward,,,,,,1184.1364732,1184.1364732,1184.1364732,1184.1364732,0,,,0,,,0,,,0,,,1184.8864828999997,1184.8864828999997,1184.8864828999997,1184.8864828999997,21,B,2024-04-30_10h55.52.935,attentional_competition_task,2022.2.4,143.93770376213922,
positions.xlsx,positions_test.xlsx,positions_test_new.xlsx,stimuli.xlsx,stimuli_new.xlsx,stimuli/Social2.png,stimuli/Social1.png,stimuli/Nonsocial2.png,stimuli/Nonsocial1.png,stimuli/Social4.png,stimuli/Social3.png,stimuli/Nonsocial4.png,stimuli/Nonsocial3.png,,,"(-0.7, -0.5)",cs_pos_ns,"(-0.7, 0.5)",cs_neg_ns,"(0.7, -0.5)",cs_pos_s,"(0.7, 0.5)",cs_neg_s,0,0,0,0,,,,,,,,,,,,,,,,,,,,,1,15,39,20,,,,,,,,,,,,,,,,,,,,,,,,,,,384,reward,,,,,,1192.5667477,1192.5667477,1192.5667477,1192.5667477,0,,,0,,,0,,,0,,,1193.288918,1193.288918,1193.288918,1193.288918,21,B,2024-04-30_10h55.52.935,attentional_competition_task,2022.2.4,143.93770376213922,
positions.xlsx,positions_test.xlsx,positions_test_new.xlsx,stimuli.xlsx,stimuli_new.xlsx,stimuli/Social2.png,stimuli/Social1.png,stimuli/Nonsocial2.png,stimuli/Nonsocial1.png,stimuli/Social4.png,stimuli/Social3.png,stimuli/Nonsocial4.png,stimuli/Nonsocial3.png,,,"(-0.7, -0.5)",cs_neg_ns,"(-0.7, 0.5)",cs_pos_s,"(0.7, -0.5)",cs_neg_s,"(0.7, 0.5)",cs_pos_ns,0,0,0,0,,,,,,,,,,,,,,,,,,,,,1,16,40,12,,,,,,,,,,,,,,,,,,,,,,,,,,,393,reward,,,,,,1201.3163862999997,1201.3163862999997,1201.3163862999997,1201.3163862999997,0,,,0,,,0,,,0,,,1202.0039070999999,1202.0039070999999,1202.0039070999999,1202.0039070999999,21,B,2024-04-30_10h55.52.935,attentional_competition_task,2022.2.4,143.93770376213922,
positions.xlsx,positions_test.xlsx,positions_test_new.xlsx,stimuli.xlsx,stimuli_new.xlsx,stimuli/Social2.png,stimuli/Social1.png,stimuli/Nonsocial2.png,stimuli/Nonsocial1.png,stimuli/Social4.png,stimuli/Social3.png,stimuli/Nonsocial4.png,stimuli/Nonsocial3.png,,,"(-0.7, -0.5)",cs_pos_s,"(-0.7, 0.5)",cs_neg_ns,"(0.7, -0.5)",cs_neg_s,"(0.7, 0.5)",cs_pos_ns,0,0,0,0,,,,,,,,,,,,,,,,,,,,,1,17,41,8,,,,,,,,,,,,,,,,,,,,,,,,,,,402,reward,,,,,,1209.6910169,1209.6910169,1209.6910169,1209.6910169,0,,,0,,,0,,,0,,,1210.3298978999999,1210.3298978999999,1210.3298978999999,1210.3298978999999,21,B,2024-04-30_10h55.52.935,attentional_competition_task,2022.2.4,143.93770376213922,
positions.xlsx,positions_test.xlsx,positions_test_new.xlsx,stimuli.xlsx,stimuli_new.xlsx,stimuli/Social2.png,stimuli/Social1.png,stimuli/Nonsocial2.png,stimuli/Nonsocial1.png,stimuli/Social4.png,stimuli/Social3.png,stimuli/Nonsocial4.png,stimuli/Nonsocial3.png,,,"(-0.7, -0.5)",cs_neg_ns,"(-0.7, 0.5)",cs_pos_ns,"(0.7, -0.5)",cs_pos_s,"(0.7, 0.5)",cs_neg_s,0,0,0,0,,,,,,,,,,,,,,,,,,,,,1,18,42,16,,,,,,,,,,,,,,,,,,,,,,,,,,,408,reward,,,,,,1217.0934906999998,1217.0934906999998,1217.0934906999998,1217.0934906999998,0,,,1,0.029617900000175723,0.14849880000019766,1,0.2110686999999416,0.2182846000000609,0,,,1217.3087755999998,1217.3087755999998,1217.3087755999998,1217.3087755999998,21,B,2024-04-30_10h55.52.935,attentional_competition_task,2022.2.4,143.93770376213922,
positions.xlsx,positions_test.xlsx,positions_test_new.xlsx,stimuli.xlsx,stimuli_new.xlsx,stimuli/Social2.png,stimuli/Social1.png,stimuli/Nonsocial2.png,stimuli/Nonsocial1.png,stimuli/Social4.png,stimuli/Social3.png,stimuli/Nonsocial4.png,stimuli/Nonsocial3.png,,,"(-0.7, -0.5)",cs_pos_ns,"(-0.7, 0.5)",cs_pos_s,"(0.7, -0.5)",cs_neg_ns,"(0.7, 0.5)",cs_neg_s,0,0,0,0,,,,,,,,,,,,,,,,,,,,,1,19,43,18,,,,,,,,,,,,,,,,,,,,,,,,,,,417,reward,,,,,,1226.0723376999997,1226.0723376999997,1226.0723376999997,1226.0723376999997,0,,,0,,,0,,,0,,,1226.9195109999998,1226.9195109999998,1226.9195109999998,1226.9195109999998,21,B,2024-04-30_10h55.52.935,attentional_competition_task,2022.2.4,143.93770376213922,
positions.xlsx,positions_test.xlsx,positions_test_new.xlsx,stimuli.xlsx,stimuli_new.xlsx,stimuli/Social2.png,stimuli/Social1.png,stimuli/Nonsocial2.png,stimuli/Nonsocial1.png,stimuli/Social4.png,stimuli/Social3.png,stimuli/Nonsocial4.png,stimuli/Nonsocial3.png,,,"(-0.7, -0.5)",cs_neg_s,"(-0.7, 0.5)",cs_pos_ns,"(0.7, -0.5)",cs_pos_s,"(0.7, 0.5)",cs_neg_ns,0,0,0,0,,,,,,,,,,,,,,,,,,,,,1,20,44,4,,,,,,,,,,,,,,,,,,,,,,,,,,,426,reward,,,,,,1234.3497756,1234.3497756,1234.3497756,1234.3497756,0,,,0,,,0,,,0,,,1235.1761442999998,1235.1761442999998,1235.1761442999998,1235.1761442999998,21,B,2024-04-30_10h55.52.935,attentional_competition_task,2022.2.4,143.93770376213922,
positions.xlsx,positions_test.xlsx,positions_test_new.xlsx,stimuli.xlsx,stimuli_new.xlsx,stimuli/Social2.png,stimuli/Social1.png,stimuli/Nonsocial2.png,stimuli/Nonsocial1.png,stimuli/Social4.png,stimuli/Social3.png,stimuli/Nonsocial4.png,stimuli/Nonsocial3.png,,,"(-0.7, -0.5)",cs_neg_ns,"(-0.7, 0.5)",cs_pos_ns,"(0.7, -0.5)",cs_neg_s,"(0.7, 0.5)",cs_pos_s,0,0,0,0,,,,,,,,,,,,,,,,,,,,,1,21,45,17,,,,,,,,,,,,,,,,,,,,,,,,,,,435,reward,,,,,,1243.0924472999998,1243.0924472999998,1243.0924472999998,1243.0924472999998,0,,,0,,,0,,,0,,,1243.7452449,1243.7452449,1243.7452449,1243.7452449,21,B,2024-04-30_10h55.52.935,attentional_competition_task,2022.2.4,143.93770376213922,
positions.xlsx,positions_test.xlsx,positions_test_new.xlsx,stimuli.xlsx,stimuli_new.xlsx,stimuli/Social2.png,stimuli/Social1.png,stimuli/Nonsocial2.png,stimuli/Nonsocial1.png,stimuli/Social4.png,stimuli/Social3.png,stimuli/Nonsocial4.png,stimuli/Nonsocial3.png,,,"(-0.7, -0.5)",cs_pos_ns,"(-0.7, 0.5)",cs_neg_s,"(0.7, -0.5)",cs_pos_s,"(0.7, 0.5)",cs_neg_ns,0,0,0,0,,,,,,,,,,,,,,,,,,,,,1,22,46,22,,,,,,,,,,,,,,,,,,,,,,,,,,,444,reward,,,,,,1250.8004881,1250.8004881,1250.8004881,1250.8004881,0,,,0,,,0,,,0,,,1251.6129607999999,1251.6129607999999,1251.6129607999999,1251.6129607999999,21,B,2024-04-30_10h55.52.935,attentional_competition_task,2022.2.4,143.93770376213922,
positions.xlsx,positions_test.xlsx,positions_test_new.xlsx,stimuli.xlsx,stimuli_new.xlsx,stimuli/Social2.png,stimuli/Social1.png,stimuli/Nonsocial2.png,stimuli/Nonsocial1.png,stimuli/Social4.png,stimuli/Social3.png,stimuli/Nonsocial4.png,stimuli/Nonsocial3.png,,,"(-0.7, -0.5)",cs_neg_ns,"(-0.7, 0.5)",cs_neg_s,"(0.7, -0.5)",cs_pos_ns,"(0.7, 0.5)",cs_pos_s,0,0,0,0,,,,,,,,,,,,,,,,,,,,,1,23,47,15,,,,,,,,,,,,,,,,,,,,,,,,,,,453,reward,,,,,,1259.6334746999999,1259.6334746999999,1259.6334746999999,1259.6334746999999,0,,,0,,,0,,,0,,,1260.3209555,1260.3209555,1260.3209555,1260.3209555,21,B,2024-04-30_10h55.52.935,attentional_competition_task,2022.2.4,143.93770376213922,
positions.xlsx,positions_test.xlsx,positions_test_new.xlsx,stimuli.xlsx,stimuli_new.xlsx,stimuli/Social2.png,stimuli/Social1.png,stimuli/Nonsocial2.png,stimuli/Nonsocial1.png,stimuli/Social4.png,stimuli/Social3.png,stimuli/Nonsocial4.png,stimuli/Nonsocial3.png,,,"(-0.7, -0.5)",cs_pos_ns,"(-0.7, 0.5)",cs_neg_ns_new,"(0.7, -0.5)",cs_pos_s,"(0.7, 0.5)",cs_neg_s,0,0,0,0,,,,,,,,,,,,,,,,,,,,,,,,,,,,,0,0,0,19,0,0,0,0,,,,,,,,,,,,,,,456,reward,,,,,,1266.4040109,1266.4040109,1266.4040109,1266.4040109,1,0.7236936999997852,0.7236970999997538,0,,,0,,,0,,,1267.1262555,1267.1262555,1267.1262555,1267.1262555,21,B,2024-04-30_10h55.52.935,attentional_competition_task,2022.2.4,143.93770376213922,
positions.xlsx,positions_test.xlsx,positions_test_new.xlsx,stimuli.xlsx,stimuli_new.xlsx,stimuli/Social2.png,stimuli/Social1.png,stimuli/Nonsocial2.png,stimuli/Nonsocial1.png,stimuli/Social4.png,stimuli/Social3.png,stimuli/Nonsocial4.png,stimuli/Nonsocial3.png,,,"(-0.7, -0.5)",cs_pos_ns,"(-0.7, 0.5)",cs_neg_ns_new,"(0.7, -0.5)",cs_pos_s,"(0.7, 0.5)",cs_neg_s,0,0,0,0,,,,,,,,,,,,,,,,,,,,,,,,,,,,,0,0,0,19,1,0,1,0,,,,,,,,,,,,,,,459,reward,,,,,,1267.6261888000001,1267.6261888000001,1267.6261888000001,1267.6261888000001,1,0.02167589999999109,0.05844620000016221,0,,,1,0.1285811000002468,0.13506379999989804,0,,,1267.7720499999998,1267.7720499999998,1267.7720499999998,1267.7720499999998,21,B,2024-04-30_10h55.52.935,attentional_competition_task,2022.2.4,143.93770376213922,
positions.xlsx,positions_test.xlsx,positions_test_new.xlsx,stimuli.xlsx,stimuli_new.xlsx,stimuli/Social2.png,stimuli/Social1.png,stimuli/Nonsocial2.png,stimuli/Nonsocial1.png,stimuli/Social4.png,stimuli/Social3.png,stimuli/Nonsocial4.png,stimuli/Nonsocial3.png,,,"(-0.7, -0.5)",cs_pos_ns,"(-0.7, 0.5)",cs_neg_ns_new,"(0.7, -0.5)",cs_pos_s,"(0.7, 0.5)",cs_neg_s,0,0,0,0,,,,,,,,,,,,,,,,,,,,,,,,,,,,,0,0,0,19,2,0,2,0,,,,,,,,,,,,,,,462,reward,,,,,,1268.2650688,1268.2650688,1268.2650688,1268.2650688,0,,,0,,,1,0.023912099999961356,0.04631419999986974,0,,,1268.9178521000001,1268.9178521000001,1268.9178521000001,1268.9178521000001,21,B,2024-04-30_10h55.52.935,attentional_competition_task,2022.2.4,143.93770376213922,
positions.xlsx,positions_test.xlsx,positions_test_new.xlsx,stimuli.xlsx,stimuli_new.xlsx,stimuli/Social2.png,stimuli/Social1.png,stimuli/Nonsocial2.png,stimuli/Nonsocial1.png,stimuli/Social4.png,stimuli/Social3.png,stimuli/Nonsocial4.png,stimuli/Nonsocial3.png,,,"(-0.7, -0.5)",cs_pos_ns,"(-0.7, 0.5)",cs_neg_ns_new,"(0.7, -0.5)",cs_pos_s,"(0.7, 0.5)",cs_neg_s,0,0,0,0,,,,,,,,,,,,,,,,,,,,,,,,,,,,,0,0,0,19,,,,,,,,,,,,,,,,,,,,,,,,,,,,,,,,,,,,,,,,,,,,,,21,B,2024-04-30_10h55.52.935,attentional_competition_task,2022.2.4,143.93770376213922,
positions.xlsx,positions_test.xlsx,positions_test_new.xlsx,stimuli.xlsx,stimuli_new.xlsx,stimuli/Social2.png,stimuli/Social1.png,stimuli/Nonsocial2.png,stimuli/Nonsocial1.png,stimuli/Social4.png,stimuli/Social3.png,stimuli/Nonsocial4.png,stimuli/Nonsocial3.png,,,"(-0.7, -0.5)",cs_pos_s,"(-0.7, 0.5)",cs_pos_ns_new,"(0.7, -0.5)",cs_neg_ns,"(0.7, 0.5)",cs_neg_s,0,0,0,0,,,,,,,,,,,,,,,,,,,,,,,,,,,,,0,1,1,43,0,0,0,0,,,,,,,,,,,,,,,465,reward,,,,,,1274.6884109999999,1274.6884109999999,1274.6884109999999,1274.6884109999999,1,0.7380997000000207,0.7381034,0,,,0,,,0,,,1275.4314567999998,1275.4314567999998,1275.4314567999998,1275.4314567999998,21,B,2024-04-30_10h55.52.935,attentional_competition_task,2022.2.4,143.93770376213922,
positions.xlsx,positions_test.xlsx,positions_test_new.xlsx,stimuli.xlsx,stimuli_new.xlsx,stimuli/Social2.png,stimuli/Social1.png,stimuli/Nonsocial2.png,stimuli/Nonsocial1.png,stimuli/Social4.png,stimuli/Social3.png,stimuli/Nonsocial4.png,stimuli/Nonsocial3.png,,,"(-0.7, -0.5)",cs_pos_s,"(-0.7, 0.5)",cs_pos_ns_new,"(0.7, -0.5)",cs_neg_ns,"(0.7, 0.5)",cs_neg_s,0,0,0,0,,,,,,,,,,,,,,,,,,,,,,,,,,,,,0,1,1,43,1,0,1,0,,,,,,,,,,,,,,,468,reward,,,,,,1275.9661639999997,1275.9661639999997,1275.9661639999997,1275.9661639999997,0,,,1,0.02930270000024393,0.02930659999992713,0,,,0,,,1275.9661639999997,1275.9661639999997,1275.9661639999997,1275.9661639999997,21,B,2024-04-30_10h55.52.935,attentional_competition_task,2022.2.4,143.93770376213922,
positions.xlsx,positions_test.xlsx,positions_test_new.xlsx,stimuli.xlsx,stimuli_new.xlsx,stimuli/Social2.png,stimuli/Social1.png,stimuli/Nonsocial2.png,stimuli/Nonsocial1.png,stimuli/Social4.png,stimuli/Social3.png,stimuli/Nonsocial4.png,stimuli/Nonsocial3.png,,,"(-0.7, -0.5)",cs_pos_s,"(-0.7, 0.5)",cs_pos_ns_new,"(0.7, -0.5)",cs_neg_ns,"(0.7, 0.5)",cs_neg_s,0,0,0,0,,,,,,,,,,,,,,,,,,,,,,,,,,,,,0,1,1,43,2,0,2,0,,,,,,,,,,,,,,,471,reward,,,,,,1276.4730960999998,1276.4730960999998,1276.4730960999998,1276.4730960999998,0,,,1,0.02934159999995245,0.2318850999999995,0,,,0,,,1277.2022697999998,1277.2022697999998,1277.2022697999998,1277.2022697999998,21,B,2024-04-30_10h55.52.935,attentional_competition_task,2022.2.4,143.93770376213922,
positions.xlsx,positions_test.xlsx,positions_test_new.xlsx,stimuli.xlsx,stimuli_new.xlsx,stimuli/Social2.png,stimuli/Social1.png,stimuli/Nonsocial2.png,stimuli/Nonsocial1.png,stimuli/Social4.png,stimuli/Social3.png,stimuli/Nonsocial4.png,stimuli/Nonsocial3.png,,,"(-0.7, -0.5)",cs_pos_s,"(-0.7, 0.5)",cs_pos_ns_new,"(0.7, -0.5)",cs_neg_ns,"(0.7, 0.5)",cs_neg_s,0,0,0,0,,,,,,,,,,,,,,,,,,,,,,,,,,,,,0,1,1,43,,,,,,,,,,,,,,,,,,,,,,,,,,,,,,,,,,,,,,,,,,,,,,21,B,2024-04-30_10h55.52.935,attentional_competition_task,2022.2.4,143.93770376213922,
positions.xlsx,positions_test.xlsx,positions_test_new.xlsx,stimuli.xlsx,stimuli_new.xlsx,stimuli/Social2.png,stimuli/Social1.png,stimuli/Nonsocial2.png,stimuli/Nonsocial1.png,stimuli/Social4.png,stimuli/Social3.png,stimuli/Nonsocial4.png,stimuli/Nonsocial3.png,,,"(-0.7, -0.5)",cs_neg_ns,"(-0.7, 0.5)",cs_neg_s,"(0.7, -0.5)",cs_pos_s_new,"(0.7, 0.5)",cs_pos_ns,0,0,0,0,,,,,,,,,,,,,,,,,,,,,,,,,,,,,0,2,2,36,0,0,0,0,,,,,,,,,,,,,,,474,reward,,,,,,1282.3547612999998,1282.3547612999998,1282.3547612999998,1282.3547612999998,0,,,0,,,0,,,1,0.6349660000000767,0.634969700000056,1282.9936460000001,1282.9936460000001,1282.9936460000001,1282.9936460000001,21,B,2024-04-30_10h55.52.935,attentional_competition_task,2022.2.4,143.93770376213922,
positions.xlsx,positions_test.xlsx,positions_test_new.xlsx,stimuli.xlsx,stimuli_new.xlsx,stimuli/Social2.png,stimuli/Social1.png,stimuli/Nonsocial2.png,stimuli/Nonsocial1.png,stimuli/Social4.png,stimuli/Social3.png,stimuli/Nonsocial4.png,stimuli/Nonsocial3.png,,,"(-0.7, -0.5)",cs_neg_ns,"(-0.7, 0.5)",cs_neg_s,"(0.7, -0.5)",cs_pos_s_new,"(0.7, 0.5)",cs_pos_ns,0,0,0,0,,,,,,,,,,,,,,,,,,,,,,,,,,,,,0,2,2,36,1,0,1,0,,,,,,,,,,,,,,,477,reward,,,,,,1283.5283228,1283.5283228,1283.5283228,1283.5283228,0,,,0,,,1,0.030014899999969202,0.030018899999959103,0,,,1283.5283228,1283.5283228,1283.5283228,1283.5283228,21,B,2024-04-30_10h55.52.935,attentional_competition_task,2022.2.4,143.93770376213922,
positions.xlsx,positions_test.xlsx,positions_test_new.xlsx,stimuli.xlsx,stimuli_new.xlsx,stimuli/Social2.png,stimuli/Social1.png,stimuli/Nonsocial2.png,stimuli/Nonsocial1.png,stimuli/Social4.png,stimuli/Social3.png,stimuli/Nonsocial4.png,stimuli/Nonsocial3.png,,,"(-0.7, -0.5)",cs_neg_ns,"(-0.7, 0.5)",cs_neg_s,"(0.7, -0.5)",cs_pos_s_new,"(0.7, 0.5)",cs_pos_ns,0,0,0,0,,,,,,,,,,,,,,,,,,,,,,,,,,,,,0,2,2,36,2,0,2,0,,,,,,,,,,,,,,,480,reward,,,,,,1284.0283189,1284.0283189,1284.0283189,1284.0283189,0,,,0,,,1,0.024278799999592593,0.3366201999997429,0,,,1284.8685773999998,1284.8685773999998,1284.8685773999998,1284.8685773999998,21,B,2024-04-30_10h55.52.935,attentional_competition_task,2022.2.4,143.93770376213922,
positions.xlsx,positions_test.xlsx,positions_test_new.xlsx,stimuli.xlsx,stimuli_new.xlsx,stimuli/Social2.png,stimuli/Social1.png,stimuli/Nonsocial2.png,stimuli/Nonsocial1.png,stimuli/Social4.png,stimuli/Social3.png,stimuli/Nonsocial4.png,stimuli/Nonsocial3.png,,,"(-0.7, -0.5)",cs_neg_ns,"(-0.7, 0.5)",cs_neg_s,"(0.7, -0.5)",cs_pos_s_new,"(0.7, 0.5)",cs_pos_ns,0,0,0,0,,,,,,,,,,,,,,,,,,,,,,,,,,,,,0,2,2,36,,,,,,,,,,,,,,,,,,,,,,,,,,,,,,,,,,,,,,,,,,,,,,21,B,2024-04-30_10h55.52.935,attentional_competition_task,2022.2.4,143.93770376213922,
positions.xlsx,positions_test.xlsx,positions_test_new.xlsx,stimuli.xlsx,stimuli_new.xlsx,stimuli/Social2.png,stimuli/Social1.png,stimuli/Nonsocial2.png,stimuli/Nonsocial1.png,stimuli/Social4.png,stimuli/Social3.png,stimuli/Nonsocial4.png,stimuli/Nonsocial3.png,,,"(-0.7, -0.5)",cs_neg_ns,"(-0.7, 0.5)",cs_pos_ns,"(0.7, -0.5)",cs_pos_s,"(0.7, 0.5)",cs_neg_s_new,0,0,0,0,,,,,,,,,,,,,,,,,,,,,,,,,,,,,0,3,3,16,0,0,0,0,,,,,,,,,,,,,,,483,reward,,,,,,1290.4031193999997,1290.4031193999997,1290.4031193999997,1290.4031193999997,0,,,0,,,1,0.7866913999996541,0.7866950999996334,0,,,1291.187756,1291.187756,1291.187756,1291.187756,21,B,2024-04-30_10h55.52.935,attentional_competition_task,2022.2.4,143.93770376213922,
positions.xlsx,positions_test.xlsx,positions_test_new.xlsx,stimuli.xlsx,stimuli_new.xlsx,stimuli/Social2.png,stimuli/Social1.png,stimuli/Nonsocial2.png,stimuli/Nonsocial1.png,stimuli/Social4.png,stimuli/Social3.png,stimuli/Nonsocial4.png,stimuli/Nonsocial3.png,,,"(-0.7, -0.5)",cs_neg_ns,"(-0.7, 0.5)",cs_pos_ns,"(0.7, -0.5)",cs_pos_s,"(0.7, 0.5)",cs_neg_s_new,0,0,0,0,,,,,,,,,,,,,,,,,,,,,,,,,,,,,0,3,3,16,1,0,1,0,,,,,,,,,,,,,,,486,reward,,,,,,1291.7155148,1291.7155148,1291.7155148,1291.7155148,0,,,1,0.02920769999991535,0.02921139999989464,0,,,0,,,1291.7155148,1291.7155148,1291.7155148,1291.7155148,21,B,2024-04-30_10h55.52.935,attentional_competition_task,2022.2.4,143.93770376213922,
positions.xlsx,positions_test.xlsx,positions_test_new.xlsx,stimuli.xlsx,stimuli_new.xlsx,stimuli/Social2.png,stimuli/Social1.png,stimuli/Nonsocial2.png,stimuli/Nonsocial1.png,stimuli/Social4.png,stimuli/Social3.png,stimuli/Nonsocial4.png,stimuli/Nonsocial3.png,,,"(-0.7, -0.5)",cs_neg_ns,"(-0.7, 0.5)",cs_pos_ns,"(0.7, -0.5)",cs_pos_s,"(0.7, 0.5)",cs_neg_s_new,0,0,0,0,,,,,,,,,,,,,,,,,,,,,,,,,,,,,0,3,3,16,2,0,2,0,,,,,,,,,,,,,,,489,reward,,,,,,1292.2224211999999,1292.2224211999999,1292.2224211999999,1292.2224211999999,0,,,0,,,0,,,0,,,1292.9099497999998,1292.9099497999998,1292.9099497999998,1292.9099497999998,21,B,2024-04-30_10h55.52.935,attentional_competition_task,2022.2.4,143.93770376213922,
positions.xlsx,positions_test.xlsx,positions_test_new.xlsx,stimuli.xlsx,stimuli_new.xlsx,stimuli/Social2.png,stimuli/Social1.png,stimuli/Nonsocial2.png,stimuli/Nonsocial1.png,stimuli/Social4.png,stimuli/Social3.png,stimuli/Nonsocial4.png,stimuli/Nonsocial3.png,,,"(-0.7, -0.5)",cs_neg_ns,"(-0.7, 0.5)",cs_pos_ns,"(0.7, -0.5)",cs_pos_s,"(0.7, 0.5)",cs_neg_s_new,0,0,0,0,,,,,,,,,,,,,,,,,,,,,,,,,,,,,0,3,3,16,,,,,,,,,,,,,,,,,,,,,,,,,,,,,,,,,,,,,,,,,,,,,,21,B,2024-04-30_10h55.52.935,attentional_competition_task,2022.2.4,143.93770376213922,
positions.xlsx,positions_test.xlsx,positions_test_new.xlsx,stimuli.xlsx,stimuli_new.xlsx,stimuli/Social2.png,stimuli/Social1.png,stimuli/Nonsocial2.png,stimuli/Nonsocial1.png,stimuli/Social4.png,stimuli/Social3.png,stimuli/Nonsocial4.png,stimuli/Nonsocial3.png,,,"(-0.7, -0.5)",cs_neg_s,"(-0.7, 0.5)",cs_neg_ns_new,"(0.7, -0.5)",cs_pos_ns,"(0.7, 0.5)",cs_pos_s,0,0,0,0,,,,,,,,,,,,,,,,,,,,,,,,,,,,,0,4,4,27,0,0,0,0,,,,,,,,,,,,,,,486,loss,,,,,,1299.1804722999998,1299.1804722999998,1299.1804722999998,1299.1804722999998,1,0.5575798999998369,0.5575840000001335,0,,,0,,,0,,,1299.7429712,1299.7429712,1299.7429712,1299.7429712,21,B,2024-04-30_10h55.52.935,attentional_competition_task,2022.2.4,143.93770376213922,
positions.xlsx,positions_test.xlsx,positions_test_new.xlsx,stimuli.xlsx,stimuli_new.xlsx,stimuli/Social2.png,stimuli/Social1.png,stimuli/Nonsocial2.png,stimuli/Nonsocial1.png,stimuli/Social4.png,stimuli/Social3.png,stimuli/Nonsocial4.png,stimuli/Nonsocial3.png,,,"(-0.7, -0.5)",cs_neg_s,"(-0.7, 0.5)",cs_neg_ns_new,"(0.7, -0.5)",cs_pos_ns,"(0.7, 0.5)",cs_pos_s,0,0,0,0,,,,,,,,,,,,,,,,,,,,,,,,,,,,,0,4,4,27,1,0,1,0,,,,,,,,,,,,,,,489,reward,,,,,,1300.2776341000001,1300.2776341000001,1300.2776341000001,1300.2776341000001,0,,,0,,,0,,,1,0.03131450000000768,0.03131780000012441,1300.2776341000001,1300.2776341000001,1300.2776341000001,1300.2776341000001,21,B,2024-04-30_10h55.52.935,attentional_competition_task,2022.2.4,143.93770376213922,
positions.xlsx,positions_test.xlsx,positions_test_new.xlsx,stimuli.xlsx,stimuli_new.xlsx,stimuli/Social2.png,stimuli/Social1.png,stimuli/Nonsocial2.png,stimuli/Nonsocial1.png,stimuli/Social4.png,stimuli/Social3.png,stimuli/Nonsocial4.png,stimuli/Nonsocial3.png,,,"(-0.7, -0.5)",cs_neg_s,"(-0.7, 0.5)",cs_neg_ns_new,"(0.7, -0.5)",cs_pos_ns,"(0.7, 0.5)",cs_pos_s,0,0,0,0,,,,,,,,,,,,,,,,,,,,,,,,,,,,,0,4,4,27,2,0,2,0,,,,,,,,,,,,,,,492,reward,,,,,,1300.8054393,1300.8054393,1300.8054393,1300.8054393,0,,,0,,,1,0.029684199999792327,0.02968800000007832,0,,,1300.8054393,1300.8054393,1300.8054393,1300.8054393,21,B,2024-04-30_10h55.52.935,attentional_competition_task,2022.2.4,143.93770376213922,
positions.xlsx,positions_test.xlsx,positions_test_new.xlsx,stimuli.xlsx,stimuli_new.xlsx,stimuli/Social2.png,stimuli/Social1.png,stimuli/Nonsocial2.png,stimuli/Nonsocial1.png,stimuli/Social4.png,stimuli/Social3.png,stimuli/Nonsocial4.png,stimuli/Nonsocial3.png,,,"(-0.7, -0.5)",cs_neg_s,"(-0.7, 0.5)",cs_neg_ns_new,"(0.7, -0.5)",cs_pos_ns,"(0.7, 0.5)",cs_pos_s,0,0,0,0,,,,,,,,,,,,,,,,,,,,,,,,,,,,,0,4,4,27,,,,,,,,,,,,,,,,,,,,,,,,,,,,,,,,,,,,,,,,,,,,,,21,B,2024-04-30_10h55.52.935,attentional_competition_task,2022.2.4,143.93770376213922,
positions.xlsx,positions_test.xlsx,positions_test_new.xlsx,stimuli.xlsx,stimuli_new.xlsx,stimuli/Social2.png,stimuli/Social1.png,stimuli/Nonsocial2.png,stimuli/Nonsocial1.png,stimuli/Social4.png,stimuli/Social3.png,stimuli/Nonsocial4.png,stimuli/Nonsocial3.png,,,"(-0.7, -0.5)",cs_neg_ns,"(-0.7, 0.5)",cs_pos_ns,"(0.7, -0.5)",cs_neg_s,"(0.7, 0.5)",cs_pos_s,0,0,0,0,,,,,,,,,,,,,,,,,,,,,,,,,,,,,0,5,5,5,0,0,0,0,,,,,,,,,,,,,,,495,reward,,,,,,1307.2288231,1307.2288231,1307.2288231,1307.2288231,0,,,0,,,0,,,1,0.6277346000001671,0.6277383000001464,1307.8607076,1307.8607076,1307.8607076,1307.8607076,21,B,2024-04-30_10h55.52.935,attentional_competition_task,2022.2.4,143.93770376213922,
positions.xlsx,positions_test.xlsx,positions_test_new.xlsx,stimuli.xlsx,stimuli_new.xlsx,stimuli/Social2.png,stimuli/Social1.png,stimuli/Nonsocial2.png,stimuli/Nonsocial1.png,stimuli/Social4.png,stimuli/Social3.png,stimuli/Nonsocial4.png,stimuli/Nonsocial3.png,,,"(-0.7, -0.5)",cs_neg_ns,"(-0.7, 0.5)",cs_pos_ns,"(0.7, -0.5)",cs_neg_s,"(0.7, 0.5)",cs_pos_s,0,0,0,0,,,,,,,,,,,,,,,,,,,,,,,,,,,,,0,5,5,5,1,0,1,0,,,,,,,,,,,,,,,498,reward,,,,,,1308.3884474,1308.3884474,1308.3884474,1308.3884474,0,,,1,0.029520399999910296,0.029524200000196288,0,,,0,,,1308.3884474,1308.3884474,1308.3884474,1308.3884474,21,B,2024-04-30_10h55.52.935,attentional_competition_task,2022.2.4,143.93770376213922,
positions.xlsx,positions_test.xlsx,positions_test_new.xlsx,stimuli.xlsx,stimuli_new.xlsx,stimuli/Social2.png,stimuli/Social1.png,stimuli/Nonsocial2.png,stimuli/Nonsocial1.png,stimuli/Social4.png,stimuli/Social3.png,stimuli/Nonsocial4.png,stimuli/Nonsocial3.png,,,"(-0.7, -0.5)",cs_neg_ns,"(-0.7, 0.5)",cs_pos_ns,"(0.7, -0.5)",cs_neg_s,"(0.7, 0.5)",cs_pos_s,0,0,0,0,,,,,,,,,,,,,,,,,,,,,,,,,,,,,0,5,5,5,2,0,2,0,,,,,,,,,,,,,,,501,reward,,,,,,1308.8885066999999,1308.8885066999999,1308.8885066999999,1308.8885066999999,0,,,0,,,0,,,0,,,1309.7564727000001,1309.7564727000001,1309.7564727000001,1309.7564727000001,21,B,2024-04-30_10h55.52.935,attentional_competition_task,2022.2.4,143.93770376213922,
positions.xlsx,positions_test.xlsx,positions_test_new.xlsx,stimuli.xlsx,stimuli_new.xlsx,stimuli/Social2.png,stimuli/Social1.png,stimuli/Nonsocial2.png,stimuli/Nonsocial1.png,stimuli/Social4.png,stimuli/Social3.png,stimuli/Nonsocial4.png,stimuli/Nonsocial3.png,,,"(-0.7, -0.5)",cs_neg_ns,"(-0.7, 0.5)",cs_pos_ns,"(0.7, -0.5)",cs_neg_s,"(0.7, 0.5)",cs_pos_s,0,0,0,0,,,,,,,,,,,,,,,,,,,,,,,,,,,,,0,5,5,5,,,,,,,,,,,,,,,,,,,,,,,,,,,,,,,,,,,,,,,,,,,,,,21,B,2024-04-30_10h55.52.935,attentional_competition_task,2022.2.4,143.93770376213922,
positions.xlsx,positions_test.xlsx,positions_test_new.xlsx,stimuli.xlsx,stimuli_new.xlsx,stimuli/Social2.png,stimuli/Social1.png,stimuli/Nonsocial2.png,stimuli/Nonsocial1.png,stimuli/Social4.png,stimuli/Social3.png,stimuli/Nonsocial4.png,stimuli/Nonsocial3.png,,,"(-0.7, -0.5)",cs_neg_s,"(-0.7, 0.5)",cs_pos_s,"(0.7, -0.5)",cs_neg_ns,"(0.7, 0.5)",cs_pos_ns_new,0,0,0,0,,,,,,,,,,,,,,,,,,,,,,,,,,,,,0,6,6,47,0,0,0,0,,,,,,,,,,,,,,,504,reward,,,,,,1315.7423315999997,1315.7423315999997,1315.7423315999997,1315.7423315999997,0,,,1,0.5713746000001265,0.5784563000001981,0,,,0,,,1316.3186803,1316.3186803,1316.3186803,1316.3186803,21,B,2024-04-30_10h55.52.935,attentional_competition_task,2022.2.4,143.93770376213922,
positions.xlsx,positions_test.xlsx,positions_test_new.xlsx,stimuli.xlsx,stimuli_new.xlsx,stimuli/Social2.png,stimuli/Social1.png,stimuli/Nonsocial2.png,stimuli/Nonsocial1.png,stimuli/Social4.png,stimuli/Social3.png,stimuli/Nonsocial4.png,stimuli/Nonsocial3.png,,,"(-0.7, -0.5)",cs_neg_s,"(-0.7, 0.5)",cs_pos_s,"(0.7, -0.5)",cs_neg_ns,"(0.7, 0.5)",cs_pos_ns_new,0,0,0,0,,,,,,,,,,,,,,,,,,,,,,,,,,,,,0,6,6,47,1,0,1,0,,,,,,,,,,,,,,,507,reward,,,,,,1316.8534235,1316.8534235,1316.8534235,1316.8534235,0,,,0,,,0,,,1,0.029550600000220584,0.029554300000199873,1316.8534235,1316.8534235,1316.8534235,1316.8534235,21,B,2024-04-30_10h55.52.935,attentional_competition_task,2022.2.4,143.93770376213922,
positions.xlsx,positions_test.xlsx,positions_test_new.xlsx,stimuli.xlsx,stimuli_new.xlsx,stimuli/Social2.png,stimuli/Social1.png,stimuli/Nonsocial2.png,stimuli/Nonsocial1.png,stimuli/Social4.png,stimuli/Social3.png,stimuli/Nonsocial4.png,stimuli/Nonsocial3.png,,,"(-0.7, -0.5)",cs_neg_s,"(-0.7, 0.5)",cs_pos_s,"(0.7, -0.5)",cs_neg_ns,"(0.7, 0.5)",cs_pos_ns_new,0,0,0,0,,,,,,,,,,,,,,,,,,,,,,,,,,,,,0,6,6,47,2,0,2,0,,,,,,,,,,,,,,,504,loss,,,,,,1317.381181,1317.381181,1317.381181,1317.381181,0,,,0,,,1,0.02331850000018676,0.02332220000016605,0,,,1317.381181,1317.381181,1317.381181,1317.381181,21,B,2024-04-30_10h55.52.935,attentional_competition_task,2022.2.4,143.93770376213922,
positions.xlsx,positions_test.xlsx,positions_test_new.xlsx,stimuli.xlsx,stimuli_new.xlsx,stimuli/Social2.png,stimuli/Social1.png,stimuli/Nonsocial2.png,stimuli/Nonsocial1.png,stimuli/Social4.png,stimuli/Social3.png,stimuli/Nonsocial4.png,stimuli/Nonsocial3.png,,,"(-0.7, -0.5)",cs_neg_s,"(-0.7, 0.5)",cs_pos_s,"(0.7, -0.5)",cs_neg_ns,"(0.7, 0.5)",cs_pos_ns_new,0,0,0,0,,,,,,,,,,,,,,,,,,,,,,,,,,,,,0,6,6,47,,,,,,,,,,,,,,,,,,,,,,,,,,,,,,,,,,,,,,,,,,,,,,21,B,2024-04-30_10h55.52.935,attentional_competition_task,2022.2.4,143.93770376213922,
positions.xlsx,positions_test.xlsx,positions_test_new.xlsx,stimuli.xlsx,stimuli_new.xlsx,stimuli/Social2.png,stimuli/Social1.png,stimuli/Nonsocial2.png,stimuli/Nonsocial1.png,stimuli/Social4.png,stimuli/Social3.png,stimuli/Nonsocial4.png,stimuli/Nonsocial3.png,,,"(-0.7, -0.5)",cs_pos_s,"(-0.7, 0.5)",cs_neg_s,"(0.7, -0.5)",cs_neg_ns,"(0.7, 0.5)",cs_pos_ns_new,0,0,0,0,,,,,,,,,,,,,,,,,,,,,,,,,,,,,0,7,7,46,0,0,0,0,,,,,,,,,,,,,,,501,loss,,,,,,1324.3045208,1324.3045208,1324.3045208,1324.3045208,0,,,0,,,1,0.661660700000084,0.66166450000037,0,,,1324.9711225999997,1324.9711225999997,1324.9711225999997,1324.9711225999997,21,B,2024-04-30_10h55.52.935,attentional_competition_task,2022.2.4,143.93770376213922,
positions.xlsx,positions_test.xlsx,positions_test_new.xlsx,stimuli.xlsx,stimuli_new.xlsx,stimuli/Social2.png,stimuli/Social1.png,stimuli/Nonsocial2.png,stimuli/Nonsocial1.png,stimuli/Social4.png,stimuli/Social3.png,stimuli/Nonsocial4.png,stimuli/Nonsocial3.png,,,"(-0.7, -0.5)",cs_pos_s,"(-0.7, 0.5)",cs_neg_s,"(0.7, -0.5)",cs_neg_ns,"(0.7, 0.5)",cs_pos_ns_new,0,0,0,0,,,,,,,,,,,,,,,,,,,,,,,,,,,,,0,7,7,46,1,0,1,0,,,,,,,,,,,,,,,504,reward,,,,,,1325.4988870999998,1325.4988870999998,1325.4988870999998,1325.4988870999998,0,,,0,,,0,,,1,0.0294488999998066,0.02945270000009259,1325.4988870999998,1325.4988870999998,1325.4988870999998,1325.4988870999998,21,B,2024-04-30_10h55.52.935,attentional_competition_task,2022.2.4,143.93770376213922,
positions.xlsx,positions_test.xlsx,positions_test_new.xlsx,stimuli.xlsx,stimuli_new.xlsx,stimuli/Social2.png,stimuli/Social1.png,stimuli/Nonsocial2.png,stimuli/Nonsocial1.png,stimuli/Social4.png,stimuli/Social3.png,stimuli/Nonsocial4.png,stimuli/Nonsocial3.png,,,"(-0.7, -0.5)",cs_pos_s,"(-0.7, 0.5)",cs_neg_s,"(0.7, -0.5)",cs_neg_ns,"(0.7, 0.5)",cs_pos_ns_new,0,0,0,0,,,,,,,,,,,,,,,,,,,,,,,,,,,,,0,7,7,46,2,0,2,0,,,,,,,,,,,,,,,507,reward,,,,,,1326.0335757,1326.0335757,1326.0335757,1326.0335757,1,0.02470199999970646,0.02470579999999245,0,,,0,,,0,,,1326.0335757,1326.0335757,1326.0335757,1326.0335757,21,B,2024-04-30_10h55.52.935,attentional_competition_task,2022.2.4,143.93770376213922,
positions.xlsx,positions_test.xlsx,positions_test_new.xlsx,stimuli.xlsx,stimuli_new.xlsx,stimuli/Social2.png,stimuli/Social1.png,stimuli/Nonsocial2.png,stimuli/Nonsocial1.png,stimuli/Social4.png,stimuli/Social3.png,stimuli/Nonsocial4.png,stimuli/Nonsocial3.png,,,"(-0.7, -0.5)",cs_pos_s,"(-0.7, 0.5)",cs_neg_s,"(0.7, -0.5)",cs_neg_ns,"(0.7, 0.5)",cs_pos_ns_new,0,0,0,0,,,,,,,,,,,,,,,,,,,,,,,,,,,,,0,7,7,46,,,,,,,,,,,,,,,,,,,,,,,,,,,,,,,,,,,,,,,,,,,,,,21,B,2024-04-30_10h55.52.935,attentional_competition_task,2022.2.4,143.93770376213922,
positions.xlsx,positions_test.xlsx,positions_test_new.xlsx,stimuli.xlsx,stimuli_new.xlsx,stimuli/Social2.png,stimuli/Social1.png,stimuli/Nonsocial2.png,stimuli/Nonsocial1.png,stimuli/Social4.png,stimuli/Social3.png,stimuli/Nonsocial4.png,stimuli/Nonsocial3.png,,,"(-0.7, -0.5)",cs_neg_ns,"(-0.7, 0.5)",cs_pos_ns_new,"(0.7, -0.5)",cs_pos_s,"(0.7, 0.5)",cs_neg_s,0,0,0,0,,,,,,,,,,,,,,,,,,,,,,,,,,,,,0,8,8,44,0,0,0,0,,,,,,,,,,,,,,,510,reward,,,,,,1333.3388693,1333.3388693,1333.3388693,1333.3388693,0,,,0,,,1,1.0928272000001016,1.0928309999999328,0,,,1334.4360282,1334.4360282,1334.4360282,1334.4360282,21,B,2024-04-30_10h55.52.935,attentional_competition_task,2022.2.4,143.93770376213922,
positions.xlsx,positions_test.xlsx,positions_test_new.xlsx,stimuli.xlsx,stimuli_new.xlsx,stimuli/Social2.png,stimuli/Social1.png,stimuli/Nonsocial2.png,stimuli/Nonsocial1.png,stimuli/Social4.png,stimuli/Social3.png,stimuli/Nonsocial4.png,stimuli/Nonsocial3.png,,,"(-0.7, -0.5)",cs_neg_ns,"(-0.7, 0.5)",cs_pos_ns_new,"(0.7, -0.5)",cs_pos_s,"(0.7, 0.5)",cs_neg_s,0,0,0,0,,,,,,,,,,,,,,,,,,,,,,,,,,,,,0,8,8,44,1,0,1,0,,,,,,,,,,,,,,,513,reward,,,,,,1334.9638201,1334.9638201,1334.9638201,1334.9638201,0,,,1,0.02778249999983018,0.027786299999661423,0,,,0,,,1334.9638201,1334.9638201,1334.9638201,1334.9638201,21,B,2024-04-30_10h55.52.935,attentional_competition_task,2022.2.4,143.93770376213922,
positions.xlsx,positions_test.xlsx,positions_test_new.xlsx,stimuli.xlsx,stimuli_new.xlsx,stimuli/Social2.png,stimuli/Social1.png,stimuli/Nonsocial2.png,stimuli/Nonsocial1.png,stimuli/Social4.png,stimuli/Social3.png,stimuli/Nonsocial4.png,stimuli/Nonsocial3.png,,,"(-0.7, -0.5)",cs_neg_ns,"(-0.7, 0.5)",cs_pos_ns_new,"(0.7, -0.5)",cs_pos_s,"(0.7, 0.5)",cs_neg_s,0,0,0,0,,,,,,,,,,,,,,,,,,,,,,,,,,,,,0,8,8,44,,,,,,,,,,,,,,,,,,,,,,,,,,,,,,,,,,,,,,,,,,,,,,21,B,2024-04-30_10h55.52.935,attentional_competition_task,2022.2.4,143.93770376213922,
positions.xlsx,positions_test.xlsx,positions_test_new.xlsx,stimuli.xlsx,stimuli_new.xlsx,stimuli/Social2.png,stimuli/Social1.png,stimuli/Nonsocial2.png,stimuli/Nonsocial1.png,stimuli/Social4.png,stimuli/Social3.png,stimuli/Nonsocial4.png,stimuli/Nonsocial3.png,,,"(-0.7, -0.5)",cs_pos_s_new,"(-0.7, 0.5)",cs_neg_s,"(0.7, -0.5)",cs_pos_ns,"(0.7, 0.5)",cs_neg_ns,0,0,0,0,,,,,,,,,,,,,,,,,,,,,,,,,,,,,0,9,9,33,0,0,0,0,,,,,,,,,,,,,,,516,reward,,,,,,1341.7760102999998,1341.7760102999998,1341.7760102999998,1341.7760102999998,1,0.8834296999998514,0.8834334999996827,0,,,0,,,0,,,1342.6649320999998,1342.6649320999998,1342.6649320999998,1342.6649320999998,21,B,2024-04-30_10h55.52.935,attentional_competition_task,2022.2.4,143.93770376213922,
