posFile,posFileTest,posFileTestNew,stimFile,stimFileNew,cs_neg_s,cs_pos_s,cs_neg_ns,cs_pos_ns,cs_neg_s_new,cs_pos_s_new,cs_neg_ns_new,cs_pos_ns_new,stim,position,position1,stim1,position2,stim2,position3,stim3,position4,stim4,blocks.thisRepN,blocks.thisTrialN,blocks.thisN,blocks.thisIndex,ratingtrials1.thisRepN,ratingtrials1.thisTrialN,ratingtrials1.thisN,ratingtrials1.thisIndex,search_task_trials.thisRepN,search_task_trials.thisTrialN,search_task_trials.thisN,search_task_trials.thisIndex,learning_trials.thisRepN,learning_trials.thisTrialN,learning_trials.thisN,learning_trials.thisIndex,trials.thisRepN,trials.thisTrialN,trials.thisN,trials.thisIndex,ratingtrials2.thisRepN,ratingtrials2.thisTrialN,ratingtrials2.thisN,ratingtrials2.thisIndex,testtrials.thisRepN,testtrials.thisTrialN,testtrials.thisN,testtrials.thisIndex,loop_test.thisRepN,loop_test.thisTrialN,loop_test.thisN,loop_test.thisIndex,testtrials_novelty.thisRepN,testtrials_novelty.thisTrialN,testtrials_novelty.thisN,testtrials_novelty.thisIndex,loop_test_novelty.thisRepN,loop_test_novelty.thisTrialN,loop_test_novelty.thisN,loop_test_novelty.thisIndex,ratingtrials3.thisRepN,ratingtrials3.thisTrialN,ratingtrials3.thisN,ratingtrials3.thisIndex,textStart.started,textStartExp.started,imageRating.started,sliderStim.response,sliderStim.rt,textStartSearch.started,target_positions,distractor_positions,textStartTask.started,image.started,score,outcome,roi.numLooks,roi.timesOn,roi.timesOff,imageFeedback.started,textTestInstr.started,test_image1.started,test_image2.started,test_image3.started,test_image4.started,test_roi1.numLooks,test_roi1.timesOn,test_roi1.timesOff,test_roi2.numLooks,test_roi2.timesOn,test_roi2.timesOff,test_roi3.numLooks,test_roi3.timesOn,test_roi3.timesOff,test_roi4.numLooks,test_roi4.timesOn,test_roi4.timesOff,test_image_feedback1.started,test_image_feedback2.started,test_iamge_feedback3.started,test_iamge_feedback4.started,participant,group,date,expName,psychopyVersion,frameRate,
positions.xlsx,positions_test.xlsx,positions_test_new.xlsx,stimuli.xlsx,stimuli_new.xlsx,stimuli/Social1.png,stimuli/Social2.png,stimuli/Nonsocial1.png,stimuli/Nonsocial2.png,stimuli/Social3.png,stimuli/Social4.png,stimuli/Nonsocial3.png,stimuli/Nonsocial4.png,cs_neg_s,,,,,,,,,,0,0,0,0,0,0,0,0,,,,,,,,,,,,,,,,,,,,,,,,,,,,,,,,,,,,,13.63588840002194,314.50405739992857,323.3448419999331,7.0,14.56851529981941,,,,,,,,,,,,,,,,,,,,,,,,,,,,,,,,,3,A,2024-04-08_13h19.56.367,attentional_competition_task,2022.2.4,143.9416407683688,
positions.xlsx,positions_test.xlsx,positions_test_new.xlsx,stimuli.xlsx,stimuli_new.xlsx,stimuli/Social1.png,stimuli/Social2.png,stimuli/Nonsocial1.png,stimuli/Nonsocial2.png,stimuli/Social3.png,stimuli/Social4.png,stimuli/Nonsocial3.png,stimuli/Nonsocial4.png,cs_pos_ns,,,,,,,,,,0,0,0,0,0,1,1,3,,,,,,,,,,,,,,,,,,,,,,,,,,,,,,,,,,,,,,,339.16362329991534,7.0,1.669150599744171,,,,,,,,,,,,,,,,,,,,,,,,,,,,,,,,,3,A,2024-04-08_13h19.56.367,attentional_competition_task,2022.2.4,143.9416407683688,
positions.xlsx,positions_test.xlsx,positions_test_new.xlsx,stimuli.xlsx,stimuli_new.xlsx,stimuli/Social1.png,stimuli/Social2.png,stimuli/Nonsocial1.png,stimuli/Nonsocial2.png,stimuli/Social3.png,stimuli/Social4.png,stimuli/Nonsocial3.png,stimuli/Nonsocial4.png,cs_pos_s,,,,,,,,,,0,0,0,0,0,2,2,2,,,,,,,,,,,,,,,,,,,,,,,,,,,,,,,,,,,,,,,341.19828539993614,7.0,2.196160899940878,,,,,,,,,,,,,,,,,,,,,,,,,,,,,,,,,3,A,2024-04-08_13h19.56.367,attentional_competition_task,2022.2.4,143.9416407683688,
positions.xlsx,positions_test.xlsx,positions_test_new.xlsx,stimuli.xlsx,stimuli_new.xlsx,stimuli/Social1.png,stimuli/Social2.png,stimuli/Nonsocial1.png,stimuli/Nonsocial2.png,stimuli/Social3.png,stimuli/Social4.png,stimuli/Nonsocial3.png,stimuli/Nonsocial4.png,cs_neg_ns,,,,,,,,,,0,0,0,0,0,3,3,1,,,,,,,,,,,,,,,,,,,,,,,,,,,,,,,,,,,,,,,343.68428359972313,7.0,0.5735889002680779,,,,,,,,,,,,,,,,,,,,,,,,,,,,,,,,,3,A,2024-04-08_13h19.56.367,attentional_competition_task,2022.2.4,143.9416407683688,
positions.xlsx,positions_test.xlsx,positions_test_new.xlsx,stimuli.xlsx,stimuli_new.xlsx,stimuli/Social1.png,stimuli/Social2.png,stimuli/Nonsocial1.png,stimuli/Nonsocial2.png,stimuli/Social3.png,stimuli/Social4.png,stimuli/Nonsocial3.png,stimuli/Nonsocial4.png,,,,,,,,,,,0,0,0,0,,,,,0,0,0,0,,,,,,,,,,,,,,,,,,,,,,,,,,,,,,,,,,,,,,344.44812829978764,"[[0.45000000000000007, -0.30000000000000004], [0.9, 0.7], [-0.675, -0.8], [-0.9, 0.7], [0.45000000000000007, 0.19999999999999996], [-0.45, 0.19999999999999996], [-0.675, -0.30000000000000004], [-0.9, 0.19999999999999996], [-0.9, -0.30000000000000004], [0.0, 0.7], [0.9, -0.30000000000000004], [-0.675, 0.19999999999999996], [-0.22499999999999998, -0.30000000000000004], [0.45000000000000007, 0.7], [0.9, -0.8]]","[[-0.45, -0.30000000000000004], [0.9, 0.19999999999999996], [0.22499999999999998, -0.30000000000000004], [0.22499999999999998, -0.8], [0.45000000000000007, -0.8], [0.22499999999999998, 0.19999999999999996], [0.0, 0.19999999999999996], [-0.22499999999999998, 0.7], [0.6749999999999999, 0.19999999999999996], [0.6749999999999999, 0.7], [-0.675, 0.7], [0.6749999999999999, -0.8], [-0.45, -0.8], [0.22499999999999998, 0.7], [0.6749999999999999, -0.30000000000000004]]",,,,,,,,,,,,,,,,,,,,,,,,,,,,,,3,A,2024-04-08_13h19.56.367,attentional_competition_task,2022.2.4,143.9416407683688,
positions.xlsx,positions_test.xlsx,positions_test_new.xlsx,stimuli.xlsx,stimuli_new.xlsx,stimuli/Social1.png,stimuli/Social2.png,stimuli/Nonsocial1.png,stimuli/Nonsocial2.png,stimuli/Social3.png,stimuli/Social4.png,stimuli/Nonsocial3.png,stimuli/Nonsocial4.png,,,,,,,,,,,0,0,0,0,,,,,1,0,1,0,,,,,,,,,,,,,,,,,,,,,,,,,,,,,,,,,,,,,,,"[[0.9, 0.19999999999999996], [0.6749999999999999, -0.30000000000000004], [0.6749999999999999, 0.7], [0.22499999999999998, -0.8], [0.6749999999999999, 0.19999999999999996], [-0.22499999999999998, 0.19999999999999996], [-0.45, -0.30000000000000004], [0.9, -0.8], [-0.9, 0.7], [-0.675, 0.7], [0.22499999999999998, -0.30000000000000004], [-0.675, 0.19999999999999996], [-0.9, -0.8], [0.9, 0.7], [0.9, -0.30000000000000004]]","[[0.0, -0.30000000000000004], [0.45000000000000007, 0.7], [-0.9, 0.19999999999999996], [-0.675, -0.8], [0.0, 0.19999999999999996], [0.0, 0.7], [0.45000000000000007, 0.19999999999999996], [-0.9, -0.30000000000000004], [0.6749999999999999, -0.8], [-0.45, 0.19999999999999996], [0.22499999999999998, 0.7], [-0.22499999999999998, -0.8], [-0.675, -0.30000000000000004], [0.22499999999999998, 0.19999999999999996], [-0.22499999999999998, -0.30000000000000004]]",,,,,,,,,,,,,,,,,,,,,,,,,,,,,,3,A,2024-04-08_13h19.56.367,attentional_competition_task,2022.2.4,143.9416407683688,
positions.xlsx,positions_test.xlsx,positions_test_new.xlsx,stimuli.xlsx,stimuli_new.xlsx,stimuli/Social1.png,stimuli/Social2.png,stimuli/Nonsocial1.png,stimuli/Nonsocial2.png,stimuli/Social3.png,stimuli/Social4.png,stimuli/Nonsocial3.png,stimuli/Nonsocial4.png,cs_pos_s,"(0.7, 0.5)",,,,,,,,,0,0,0,0,,,,,,,,,0,0,0,6,,,,,,,,,,,,,,,,,,,,,,,,,,,,,,,,,,,,,419.43813739996403,443.3052678001113,3,reward,1,0.22940189996734262,0.2294058999978006,443.54134210012853,,,,,,,,,,,,,,,,,,,,,,3,A,2024-04-08_13h19.56.367,attentional_competition_task,2022.2.4,143.9416407683688,
positions.xlsx,positions_test.xlsx,positions_test_new.xlsx,stimuli.xlsx,stimuli_new.xlsx,stimuli/Social1.png,stimuli/Social2.png,stimuli/Nonsocial1.png,stimuli/Nonsocial2.png,stimuli/Social3.png,stimuli/Social4.png,stimuli/Nonsocial3.png,stimuli/Nonsocial4.png,cs_neg_s,"(0.7, 0.5)",,,,,,,,,0,0,0,0,,,,,,,,,0,1,1,2,,,,,,,,,,,,,,,,,,,,,,,,,,,,,,,,,,,,,,451.31185179995373,0,loss,1,0.5210178000852466,0.5210216999985278,451.84657160006464,,,,,,,,,,,,,,,,,,,,,,3,A,2024-04-08_13h19.56.367,attentional_competition_task,2022.2.4,143.9416407683688,
positions.xlsx,positions_test.xlsx,positions_test_new.xlsx,stimuli.xlsx,stimuli_new.xlsx,stimuli/Social1.png,stimuli/Social2.png,stimuli/Nonsocial1.png,stimuli/Nonsocial2.png,stimuli/Social3.png,stimuli/Social4.png,stimuli/Nonsocial3.png,stimuli/Nonsocial4.png,cs_neg_s,"(-0.7, -0.5)",,,,,,,,,0,0,0,0,,,,,,,,,0,2,2,1,,,,,,,,,,,,,,,,,,,,,,,,,,,,,,,,,,,,,,460.0823105000891,-3,loss,1,0.28490479988977313,0.2849083999171853,460.37399519979954,,,,,,,,,,,,,,,,,,,,,,3,A,2024-04-08_13h19.56.367,attentional_competition_task,2022.2.4,143.9416407683688,
positions.xlsx,positions_test.xlsx,positions_test_new.xlsx,stimuli.xlsx,stimuli_new.xlsx,stimuli/Social1.png,stimuli/Social2.png,stimuli/Nonsocial1.png,stimuli/Nonsocial2.png,stimuli/Social3.png,stimuli/Social4.png,stimuli/Nonsocial3.png,stimuli/Nonsocial4.png,cs_neg_ns,"(0.7, -0.5)",,,,,,,,,0,0,0,0,,,,,,,,,0,3,3,11,,,,,,,,,,,,,,,,,,,,,,,,,,,,,,,,,,,,,,468.01950459973887,-6,loss,1,0.1739040999673307,0.17390809999778867,468.2000672998838,,,,,,,,,,,,,,,,,,,,,,3,A,2024-04-08_13h19.56.367,attentional_competition_task,2022.2.4,143.9416407683688,
positions.xlsx,positions_test.xlsx,positions_test_new.xlsx,stimuli.xlsx,stimuli_new.xlsx,stimuli/Social1.png,stimuli/Social2.png,stimuli/Nonsocial1.png,stimuli/Nonsocial2.png,stimuli/Social3.png,stimuli/Social4.png,stimuli/Nonsocial3.png,stimuli/Nonsocial4.png,cs_pos_s,"(-0.7, 0.5)",,,,,,,,,0,0,0,0,,,,,,,,,0,4,4,4,,,,,,,,,,,,,,,,,,,,,,,,,,,,,,,,,,,,,,475.22760220011696,-3,reward,1,0.29156789975240827,0.2915853997692466,475.52612920012325,,,,,,,,,,,,,,,,,,,,,,3,A,2024-04-08_13h19.56.367,attentional_competition_task,2022.2.4,143.9416407683688,
positions.xlsx,positions_test.xlsx,positions_test_new.xlsx,stimuli.xlsx,stimuli_new.xlsx,stimuli/Social1.png,stimuli/Social2.png,stimuli/Nonsocial1.png,stimuli/Nonsocial2.png,stimuli/Social3.png,stimuli/Social4.png,stimuli/Nonsocial3.png,stimuli/Nonsocial4.png,cs_pos_ns,"(-0.7, 0.5)",,,,,,,,,0,0,0,0,,,,,,,,,0,5,5,12,,,,,,,,,,,,,,,,,,,,,,,,,,,,,,,,,,,,,,483.03277259971946,0,reward,1,0.555855100043118,0.5558589999563992,483.5952232000418,,,,,,,,,,,,,,,,,,,,,,3,A,2024-04-08_13h19.56.367,attentional_competition_task,2022.2.4,143.9416407683688,
positions.xlsx,positions_test.xlsx,positions_test_new.xlsx,stimuli.xlsx,stimuli_new.xlsx,stimuli/Social1.png,stimuli/Social2.png,stimuli/Nonsocial1.png,stimuli/Nonsocial2.png,stimuli/Social3.png,stimuli/Social4.png,stimuli/Nonsocial3.png,stimuli/Nonsocial4.png,cs_pos_ns,"(0.7, 0.5)",,,,,,,,,0,0,0,0,,,,,,,,,0,6,6,14,,,,,,,,,,,,,,,,,,,,,,,,,,,,,,,,,,,,,,490.9629934998229,3,reward,1,0.3822369002737105,0.38224099995568395,491.35186529997736,,,,,,,,,,,,,,,,,,,,,,3,A,2024-04-08_13h19.56.367,attentional_competition_task,2022.2.4,143.9416407683688,
positions.xlsx,positions_test.xlsx,positions_test_new.xlsx,stimuli.xlsx,stimuli_new.xlsx,stimuli/Social1.png,stimuli/Social2.png,stimuli/Nonsocial1.png,stimuli/Nonsocial2.png,stimuli/Social3.png,stimuli/Social4.png,stimuli/Nonsocial3.png,stimuli/Nonsocial4.png,cs_neg_ns,"(-0.7, -0.5)",,,,,,,,,0,0,0,0,,,,,,,,,0,7,7,9,,,,,,,,,,,,,,,,,,,,,,,,,,,,,,,,,,,,,,499.2196039999835,0,loss,1,0.2782878000289202,0.2782916002906859,499.5043405997567,,,,,,,,,,,,,,,,,,,,,,3,A,2024-04-08_13h19.56.367,attentional_competition_task,2022.2.4,143.9416407683688,
positions.xlsx,positions_test.xlsx,positions_test_new.xlsx,stimuli.xlsx,stimuli_new.xlsx,stimuli/Social1.png,stimuli/Social2.png,stimuli/Nonsocial1.png,stimuli/Nonsocial2.png,stimuli/Social3.png,stimuli/Social4.png,stimuli/Nonsocial3.png,stimuli/Nonsocial4.png,cs_neg_s,"(0.7, -0.5)",,,,,,,,,0,0,0,0,,,,,,,,,0,8,8,3,,,,,,,,,,,,,,,,,,,,,,,,,,,,,,,,,,,,,,507.6289778999053,-3,loss,1,0.3337388001382351,0.33374240016564727,507.9692665999755,,,,,,,,,,,,,,,,,,,,,,3,A,2024-04-08_13h19.56.367,attentional_competition_task,2022.2.4,143.9416407683688,
positions.xlsx,positions_test.xlsx,positions_test_new.xlsx,stimuli.xlsx,stimuli_new.xlsx,stimuli/Social1.png,stimuli/Social2.png,stimuli/Nonsocial1.png,stimuli/Nonsocial2.png,stimuli/Social3.png,stimuli/Social4.png,stimuli/Nonsocial3.png,stimuli/Nonsocial4.png,cs_neg_s,"(-0.7, 0.5)",,,,,,,,,0,0,0,0,,,,,,,,,0,9,9,0,,,,,,,,,,,,,,,,,,,,,,,,,,,,,,,,,,,,,,515.6911283996888,-6,loss,1,0.25023930007591844,0.25024279998615384,515.9481212999672,,,,,,,,,,,,,,,,,,,,,,3,A,2024-04-08_13h19.56.367,attentional_competition_task,2022.2.4,143.9416407683688,
positions.xlsx,positions_test.xlsx,positions_test_new.xlsx,stimuli.xlsx,stimuli_new.xlsx,stimuli/Social1.png,stimuli/Social2.png,stimuli/Nonsocial1.png,stimuli/Nonsocial2.png,stimuli/Social3.png,stimuli/Social4.png,stimuli/Nonsocial3.png,stimuli/Nonsocial4.png,cs_pos_s,"(-0.7, -0.5)",,,,,,,,,0,0,0,0,,,,,,,,,0,10,10,5,,,,,,,,,,,,,,,,,,,,,,,,,,,,,,,,,,,,,,523.2672621998936,-3,reward,1,0.2916820999234915,0.29168569995090365,523.5658363001421,,,,,,,,,,,,,,,,,,,,,,3,A,2024-04-08_13h19.56.367,attentional_competition_task,2022.2.4,143.9416407683688,
positions.xlsx,positions_test.xlsx,positions_test_new.xlsx,stimuli.xlsx,stimuli_new.xlsx,stimuli/Social1.png,stimuli/Social2.png,stimuli/Nonsocial1.png,stimuli/Nonsocial2.png,stimuli/Social3.png,stimuli/Social4.png,stimuli/Nonsocial3.png,stimuli/Nonsocial4.png,cs_pos_ns,"(-0.7, -0.5)",,,,,,,,,0,0,0,0,,,,,,,,,0,11,11,13,,,,,,,,,,,,,,,,,,,,,,,,,,,,,,,,,,,,,,531.4614246999845,0,reward,1,0.19466109992936254,0.19466499984264374,531.6627688999288,,,,,,,,,,,,,,,,,,,,,,3,A,2024-04-08_13h19.56.367,attentional_competition_task,2022.2.4,143.9416407683688,
positions.xlsx,positions_test.xlsx,positions_test_new.xlsx,stimuli.xlsx,stimuli_new.xlsx,stimuli/Social1.png,stimuli/Social2.png,stimuli/Nonsocial1.png,stimuli/Nonsocial2.png,stimuli/Social3.png,stimuli/Social4.png,stimuli/Nonsocial3.png,stimuli/Nonsocial4.png,cs_pos_s,"(0.7, -0.5)",,,,,,,,,0,0,0,0,,,,,,,,,0,12,12,7,,,,,,,,,,,,,,,,,,,,,,,,,,,,,,,,,,,,,,539.9124106001109,3,reward,1,0.38234389992430806,0.3823475996032357,540.3013054998592,,,,,,,,,,,,,,,,,,,,,,3,A,2024-04-08_13h19.56.367,attentional_competition_task,2022.2.4,143.9416407683688,
positions.xlsx,positions_test.xlsx,positions_test_new.xlsx,stimuli.xlsx,stimuli_new.xlsx,stimuli/Social1.png,stimuli/Social2.png,stimuli/Nonsocial1.png,stimuli/Nonsocial2.png,stimuli/Social3.png,stimuli/Social4.png,stimuli/Nonsocial3.png,stimuli/Nonsocial4.png,cs_pos_ns,"(0.7, -0.5)",,,,,,,,,0,0,0,0,,,,,,,,,0,13,13,15,,,,,,,,,,,,,,,,,,,,,,,,,,,,,,,,,,,,,,547.974575900007,6,reward,1,0.34031519992277026,0.34031919995322824,548.3217918998562,,,,,,,,,,,,,,,,,,,,,,3,A,2024-04-08_13h19.56.367,attentional_competition_task,2022.2.4,143.9416407683688,
positions.xlsx,positions_test.xlsx,positions_test_new.xlsx,stimuli.xlsx,stimuli_new.xlsx,stimuli/Social1.png,stimuli/Social2.png,stimuli/Nonsocial1.png,stimuli/Nonsocial2.png,stimuli/Social3.png,stimuli/Social4.png,stimuli/Nonsocial3.png,stimuli/Nonsocial4.png,cs_neg_ns,"(-0.7, 0.5)",,,,,,,,,0,0,0,0,,,,,,,,,0,14,14,8,,,,,,,,,,,,,,,,,,,,,,,,,,,,,,,,,,,,,,556.1062294999138,3,loss,1,0.37564250035211444,0.3756462000310421,556.4881496001035,,,,,,,,,,,,,,,,,,,,,,3,A,2024-04-08_13h19.56.367,attentional_competition_task,2022.2.4,143.9416407683688,
positions.xlsx,positions_test.xlsx,positions_test_new.xlsx,stimuli.xlsx,stimuli_new.xlsx,stimuli/Social1.png,stimuli/Social2.png,stimuli/Nonsocial1.png,stimuli/Nonsocial2.png,stimuli/Social3.png,stimuli/Social4.png,stimuli/Nonsocial3.png,stimuli/Nonsocial4.png,cs_neg_ns,"(0.7, 0.5)",,,,,,,,,0,0,0,0,,,,,,,,,0,15,15,10,,,,,,,,,,,,,,,,,,,,,,,,,,,,,,,,,,,,,,563.8489230996929,0,loss,1,0.25759779987856746,0.2576015000231564,564.1128058000468,,,,,,,,,,,,,,,,,,,,,,3,A,2024-04-08_13h19.56.367,attentional_competition_task,2022.2.4,143.9416407683688,
positions.xlsx,positions_test.xlsx,positions_test_new.xlsx,stimuli.xlsx,stimuli_new.xlsx,stimuli/Social1.png,stimuli/Social2.png,stimuli/Nonsocial1.png,stimuli/Nonsocial2.png,stimuli/Social3.png,stimuli/Social4.png,stimuli/Nonsocial3.png,stimuli/Nonsocial4.png,cs_pos_ns,"(-0.7, -0.5)",,,,,,,,,0,0,0,0,,,,,,,,,1,0,16,13,,,,,,,,,,,,,,,,,,,,,,,,,,,,,,,,,,,,,,571.6263880999759,3,reward,1,0.35479559982195497,0.35479959985241294,571.9874994996935,,,,,,,,,,,,,,,,,,,,,,3,A,2024-04-08_13h19.56.367,attentional_competition_task,2022.2.4,143.9416407683688,
positions.xlsx,positions_test.xlsx,positions_test_new.xlsx,stimuli.xlsx,stimuli_new.xlsx,stimuli/Social1.png,stimuli/Social2.png,stimuli/Nonsocial1.png,stimuli/Nonsocial2.png,stimuli/Social3.png,stimuli/Social4.png,stimuli/Nonsocial3.png,stimuli/Nonsocial4.png,cs_neg_ns,"(-0.7, 0.5)",,,,,,,,,0,0,0,0,,,,,,,,,1,1,17,8,,,,,,,,,,,,,,,,,,,,,,,,,,,,,,,,,,,,,,580.2441368000582,0,loss,1,0.3264403003267944,0.32644390035420656,580.5774463997222,,,,,,,,,,,,,,,,,,,,,,3,A,2024-04-08_13h19.56.367,attentional_competition_task,2022.2.4,143.9416407683688,
positions.xlsx,positions_test.xlsx,positions_test_new.xlsx,stimuli.xlsx,stimuli_new.xlsx,stimuli/Social1.png,stimuli/Social2.png,stimuli/Nonsocial1.png,stimuli/Nonsocial2.png,stimuli/Social3.png,stimuli/Social4.png,stimuli/Nonsocial3.png,stimuli/Nonsocial4.png,cs_pos_ns,"(0.7, 0.5)",,,,,,,,,0,0,0,0,,,,,,,,,1,2,18,14,,,,,,,,,,,,,,,,,,,,,,,,,,,,,,,,,,,,,,587.5910382997245,3,reward,1,0.21542069967836142,0.21542449994012713,587.8132604998536,,,,,,,,,,,,,,,,,,,,,,3,A,2024-04-08_13h19.56.367,attentional_competition_task,2022.2.4,143.9416407683688,
positions.xlsx,positions_test.xlsx,positions_test_new.xlsx,stimuli.xlsx,stimuli_new.xlsx,stimuli/Social1.png,stimuli/Social2.png,stimuli/Nonsocial1.png,stimuli/Nonsocial2.png,stimuli/Social3.png,stimuli/Social4.png,stimuli/Nonsocial3.png,stimuli/Nonsocial4.png,cs_pos_s,"(0.7, -0.5)",,,,,,,,,0,0,0,0,,,,,,,,,1,3,19,7,,,,,,,,,,,,,,,,,,,,,,,,,,,,,,,,,,,,,,595.4657235997729,6,reward,1,0.21528339991346002,0.2152869999408722,595.6879217997193,,,,,,,,,,,,,,,,,,,,,,3,A,2024-04-08_13h19.56.367,attentional_competition_task,2022.2.4,143.9416407683688,
positions.xlsx,positions_test.xlsx,positions_test_new.xlsx,stimuli.xlsx,stimuli_new.xlsx,stimuli/Social1.png,stimuli/Social2.png,stimuli/Nonsocial1.png,stimuli/Nonsocial2.png,stimuli/Social3.png,stimuli/Social4.png,stimuli/Nonsocial3.png,stimuli/Nonsocial4.png,cs_pos_ns,"(0.7, -0.5)",,,,,,,,,0,0,0,0,,,,,,,,,1,4,20,15,,,,,,,,,,,,,,,,,,,,,,,,,,,,,,,,,,,,,,603.4723334996961,9,reward,1,0.22242549993097782,0.22242909995839,603.701494100038,,,,,,,,,,,,,,,,,,,,,,3,A,2024-04-08_13h19.56.367,attentional_competition_task,2022.2.4,143.9416407683688,
positions.xlsx,positions_test.xlsx,positions_test_new.xlsx,stimuli.xlsx,stimuli_new.xlsx,stimuli/Social1.png,stimuli/Social2.png,stimuli/Nonsocial1.png,stimuli/Nonsocial2.png,stimuli/Social3.png,stimuli/Social4.png,stimuli/Nonsocial3.png,stimuli/Nonsocial4.png,cs_pos_ns,"(-0.7, 0.5)",,,,,,,,,0,0,0,0,,,,,,,,,1,5,21,12,,,,,,,,,,,,,,,,,,,,,,,,,,,,,,,,,,,,,,611.6942431000061,12,reward,1,0.2363487002439797,0.23635270027443767,611.9372610999271,,,,,,,,,,,,,,,,,,,,,,3,A,2024-04-08_13h19.56.367,attentional_competition_task,2022.2.4,143.9416407683688,
positions.xlsx,positions_test.xlsx,positions_test_new.xlsx,stimuli.xlsx,stimuli_new.xlsx,stimuli/Social1.png,stimuli/Social2.png,stimuli/Nonsocial1.png,stimuli/Nonsocial2.png,stimuli/Social3.png,stimuli/Social4.png,stimuli/Nonsocial3.png,stimuli/Nonsocial4.png,cs_pos_s,"(-0.7, -0.5)",,,,,,,,,0,0,0,0,,,,,,,,,1,6,22,5,,,,,,,,,,,,,,,,,,,,,,,,,,,,,,,,,,,,,,620.2216694001108,15,reward,1,0.49337639985606074,0.4933799998834729,620.721643100027,,,,,,,,,,,,,,,,,,,,,,3,A,2024-04-08_13h19.56.367,attentional_competition_task,2022.2.4,143.9416407683688,
positions.xlsx,positions_test.xlsx,positions_test_new.xlsx,stimuli.xlsx,stimuli_new.xlsx,stimuli/Social1.png,stimuli/Social2.png,stimuli/Nonsocial1.png,stimuli/Nonsocial2.png,stimuli/Social3.png,stimuli/Social4.png,stimuli/Nonsocial3.png,stimuli/Nonsocial4.png,cs_pos_s,"(0.7, 0.5)",,,,,,,,,0,0,0,0,,,,,,,,,1,7,23,6,,,,,,,,,,,,,,,,,,,,,,,,,,,,,,,,,,,,,,628.2699611000717,18,reward,1,0.25008719973266125,0.25009059999138117,628.5268711000681,,,,,,,,,,,,,,,,,,,,,,3,A,2024-04-08_13h19.56.367,attentional_competition_task,2022.2.4,143.9416407683688,
positions.xlsx,positions_test.xlsx,positions_test_new.xlsx,stimuli.xlsx,stimuli_new.xlsx,stimuli/Social1.png,stimuli/Social2.png,stimuli/Nonsocial1.png,stimuli/Nonsocial2.png,stimuli/Social3.png,stimuli/Social4.png,stimuli/Nonsocial3.png,stimuli/Nonsocial4.png,cs_neg_s,"(-0.7, -0.5)",,,,,,,,,0,0,0,0,,,,,,,,,1,8,24,1,,,,,,,,,,,,,,,,,,,,,,,,,,,,,,,,,,,,,,635.5196448997594,15,loss,1,0.2571006999351084,0.25710450019687414,635.7835110998712,,,,,,,,,,,,,,,,,,,,,,3,A,2024-04-08_13h19.56.367,attentional_competition_task,2022.2.4,143.9416407683688,
positions.xlsx,positions_test.xlsx,positions_test_new.xlsx,stimuli.xlsx,stimuli_new.xlsx,stimuli/Social1.png,stimuli/Social2.png,stimuli/Nonsocial1.png,stimuli/Nonsocial2.png,stimuli/Social3.png,stimuli/Social4.png,stimuli/Nonsocial3.png,stimuli/Nonsocial4.png,cs_neg_ns,"(-0.7, -0.5)",,,,,,,,,0,0,0,0,,,,,,,,,1,9,25,9,,,,,,,,,,,,,,,,,,,,,,,,,,,,,,,,,,,,,,643.3735437998548,12,loss,1,0.2709003002382815,0.27090359991416335,643.6512899999507,,,,,,,,,,,,,,,,,,,,,,3,A,2024-04-08_13h19.56.367,attentional_competition_task,2022.2.4,143.9416407683688,
positions.xlsx,positions_test.xlsx,positions_test_new.xlsx,stimuli.xlsx,stimuli_new.xlsx,stimuli/Social1.png,stimuli/Social2.png,stimuli/Nonsocial1.png,stimuli/Nonsocial2.png,stimuli/Social3.png,stimuli/Social4.png,stimuli/Nonsocial3.png,stimuli/Nonsocial4.png,cs_neg_s,"(0.7, 0.5)",,,,,,,,,0,0,0,0,,,,,,,,,1,10,26,2,,,,,,,,,,,,,,,,,,,,,,,,,,,,,,,,,,,,,,651.4078925000504,9,loss,1,0.27826640009880066,0.2782701998949051,651.6926665999927,,,,,,,,,,,,,,,,,,,,,,3,A,2024-04-08_13h19.56.367,attentional_competition_task,2022.2.4,143.9416407683688,
positions.xlsx,positions_test.xlsx,positions_test_new.xlsx,stimuli.xlsx,stimuli_new.xlsx,stimuli/Social1.png,stimuli/Social2.png,stimuli/Nonsocial1.png,stimuli/Nonsocial2.png,stimuli/Social3.png,stimuli/Social4.png,stimuli/Nonsocial3.png,stimuli/Nonsocial4.png,cs_neg_s,"(-0.7, 0.5)",,,,,,,,,0,0,0,0,,,,,,,,,1,11,27,0,,,,,,,,,,,,,,,,,,,,,,,,,,,,,,,,,,,,,,659.7061662999913,6,loss,1,0.3963472996838391,0.39636609982699156,660.1089538997039,,,,,,,,,,,,,,,,,,,,,,3,A,2024-04-08_13h19.56.367,attentional_competition_task,2022.2.4,143.9416407683688,
positions.xlsx,positions_test.xlsx,positions_test_new.xlsx,stimuli.xlsx,stimuli_new.xlsx,stimuli/Social1.png,stimuli/Social2.png,stimuli/Nonsocial1.png,stimuli/Nonsocial2.png,stimuli/Social3.png,stimuli/Social4.png,stimuli/Nonsocial3.png,stimuli/Nonsocial4.png,cs_neg_ns,"(0.7, -0.5)",,,,,,,,,0,0,0,0,,,,,,,,,1,12,28,11,,,,,,,,,,,,,,,,,,,,,,,,,,,,,,,,,,,,,,667.5530902999453,3,loss,1,0.20165349962189794,0.20165729988366365,667.7614163998514,,,,,,,,,,,,,,,,,,,,,,3,A,2024-04-08_13h19.56.367,attentional_competition_task,2022.2.4,143.9416407683688,
positions.xlsx,positions_test.xlsx,positions_test_new.xlsx,stimuli.xlsx,stimuli_new.xlsx,stimuli/Social1.png,stimuli/Social2.png,stimuli/Nonsocial1.png,stimuli/Nonsocial2.png,stimuli/Social3.png,stimuli/Social4.png,stimuli/Nonsocial3.png,stimuli/Nonsocial4.png,cs_pos_s,"(-0.7, 0.5)",,,,,,,,,0,0,0,0,,,,,,,,,1,13,29,4,,,,,,,,,,,,,,,,,,,,,,,,,,,,,,,,,,,,,,676.2054889998399,6,reward,1,0.4373857001774013,0.4373893002048135,676.6499288999476,,,,,,,,,,,,,,,,,,,,,,3,A,2024-04-08_13h19.56.367,attentional_competition_task,2022.2.4,143.9416407683688,
positions.xlsx,positions_test.xlsx,positions_test_new.xlsx,stimuli.xlsx,stimuli_new.xlsx,stimuli/Social1.png,stimuli/Social2.png,stimuli/Nonsocial1.png,stimuli/Nonsocial2.png,stimuli/Social3.png,stimuli/Social4.png,stimuli/Nonsocial3.png,stimuli/Nonsocial4.png,cs_neg_ns,"(0.7, 0.5)",,,,,,,,,0,0,0,0,,,,,,,,,1,14,30,10,,,,,,,,,,,,,,,,,,,,,,,,,,,,,,,,,,,,,,683.3024383997545,3,loss,1,0.4098827997222543,0.4098861999809742,683.7191125000827,,,,,,,,,,,,,,,,,,,,,,3,A,2024-04-08_13h19.56.367,attentional_competition_task,2022.2.4,143.9416407683688,
positions.xlsx,positions_test.xlsx,positions_test_new.xlsx,stimuli.xlsx,stimuli_new.xlsx,stimuli/Social1.png,stimuli/Social2.png,stimuli/Nonsocial1.png,stimuli/Nonsocial2.png,stimuli/Social3.png,stimuli/Social4.png,stimuli/Nonsocial3.png,stimuli/Nonsocial4.png,cs_neg_s,"(0.7, -0.5)",,,,,,,,,0,0,0,0,,,,,,,,,1,15,31,3,,,,,,,,,,,,,,,,,,,,,,,,,,,,,,,,,,,,,,691.1632487000898,0,loss,1,0.22954580001533031,0.22954969992861152,691.3993009999394,,,,,,,,,,,,,,,,,,,,,,3,A,2024-04-08_13h19.56.367,attentional_competition_task,2022.2.4,143.9416407683688,
positions.xlsx,positions_test.xlsx,positions_test_new.xlsx,stimuli.xlsx,stimuli_new.xlsx,stimuli/Social1.png,stimuli/Social2.png,stimuli/Nonsocial1.png,stimuli/Nonsocial2.png,stimuli/Social3.png,stimuli/Social4.png,stimuli/Nonsocial3.png,stimuli/Nonsocial4.png,cs_pos_s,"(-0.7, -0.5)",,,,,,,,,0,0,0,0,,,,,,,,,,,,,0,0,0,5,,,,,,,,,,,,,,,,,,,,,,,,,,,,,,,,,,710.8290939000435,3,reward,1,0.19490160001441836,0.1949053998105228,711.0304950997233,,,,,,,,,,,,,,,,,,,,,,3,A,2024-04-08_13h19.56.367,attentional_competition_task,2022.2.4,143.9416407683688,
positions.xlsx,positions_test.xlsx,positions_test_new.xlsx,stimuli.xlsx,stimuli_new.xlsx,stimuli/Social1.png,stimuli/Social2.png,stimuli/Nonsocial1.png,stimuli/Nonsocial2.png,stimuli/Social3.png,stimuli/Social4.png,stimuli/Nonsocial3.png,stimuli/Nonsocial4.png,cs_pos_s,"(-0.7, 0.5)",,,,,,,,,0,0,0,0,,,,,,,,,,,,,0,1,1,4,,,,,,,,,,,,,,,,,,,,,,,,,,,,,,,,,,718.6135117998347,6,reward,1,0.4999599000439048,0.4999633999541402,719.1204280001111,,,,,,,,,,,,,,,,,,,,,,3,A,2024-04-08_13h19.56.367,attentional_competition_task,2022.2.4,143.9416407683688,
positions.xlsx,positions_test.xlsx,positions_test_new.xlsx,stimuli.xlsx,stimuli_new.xlsx,stimuli/Social1.png,stimuli/Social2.png,stimuli/Nonsocial1.png,stimuli/Nonsocial2.png,stimuli/Social3.png,stimuli/Social4.png,stimuli/Nonsocial3.png,stimuli/Nonsocial4.png,cs_neg_s,"(-0.7, 0.5)",,,,,,,,,0,0,0,0,,,,,,,,,,,,,0,2,2,0,,,,,,,,,,,,,,,,,,,,,,,,,,,,,,,,,,726.8076137998141,3,loss,1,0.28527839994058013,0.2926070997491479,727.1062393998727,,,,,,,,,,,,,,,,,,,,,,3,A,2024-04-08_13h19.56.367,attentional_competition_task,2022.2.4,143.9416407683688,
positions.xlsx,positions_test.xlsx,positions_test_new.xlsx,stimuli.xlsx,stimuli_new.xlsx,stimuli/Social1.png,stimuli/Social2.png,stimuli/Nonsocial1.png,stimuli/Nonsocial2.png,stimuli/Social3.png,stimuli/Social4.png,stimuli/Nonsocial3.png,stimuli/Nonsocial4.png,cs_neg_ns,"(-0.7, -0.5)",,,,,,,,,0,0,0,0,,,,,,,,,,,,,0,3,3,9,,,,,,,,,,,,,,,,,,,,,,,,,,,,,,,,,,734.5226586000063,0,loss,1,0.7361151999793947,0.7361189001239836,735.2656673998572,,,,,,,,,,,,,,,,,,,,,,3,A,2024-04-08_13h19.56.367,attentional_competition_task,2022.2.4,143.9416407683688,
positions.xlsx,positions_test.xlsx,positions_test_new.xlsx,stimuli.xlsx,stimuli_new.xlsx,stimuli/Social1.png,stimuli/Social2.png,stimuli/Nonsocial1.png,stimuli/Nonsocial2.png,stimuli/Social3.png,stimuli/Social4.png,stimuli/Nonsocial3.png,stimuli/Nonsocial4.png,cs_neg_s,"(0.7, -0.5)",,,,,,,,,0,0,0,0,,,,,,,,,,,,,0,4,4,3,,,,,,,,,,,,,,,,,,,,,,,,,,,,,,,,,,742.9458785997704,0,none,0,,,745.9596613999456,,,,,,,,,,,,,,,,,,,,,,3,A,2024-04-08_13h19.56.367,attentional_competition_task,2022.2.4,143.9416407683688,
positions.xlsx,positions_test.xlsx,positions_test_new.xlsx,stimuli.xlsx,stimuli_new.xlsx,stimuli/Social1.png,stimuli/Social2.png,stimuli/Nonsocial1.png,stimuli/Nonsocial2.png,stimuli/Social3.png,stimuli/Social4.png,stimuli/Nonsocial3.png,stimuli/Nonsocial4.png,cs_pos_ns,"(-0.7, 0.5)",,,,,,,,,0,0,0,0,,,,,,,,,,,,,0,5,5,12,,,,,,,,,,,,,,,,,,,,,,,,,,,,,,,,,,753.8690380998887,3,reward,1,0.7365994998253882,0.7366196997463703,754.6190325999632,,,,,,,,,,,,,,,,,,,,,,3,A,2024-04-08_13h19.56.367,attentional_competition_task,2022.2.4,143.9416407683688,
positions.xlsx,positions_test.xlsx,positions_test_new.xlsx,stimuli.xlsx,stimuli_new.xlsx,stimuli/Social1.png,stimuli/Social2.png,stimuli/Nonsocial1.png,stimuli/Nonsocial2.png,stimuli/Social3.png,stimuli/Social4.png,stimuli/Nonsocial3.png,stimuli/Nonsocial4.png,cs_pos_ns,"(-0.7, -0.5)",,,,,,,,,0,0,0,0,,,,,,,,,,,,,0,6,6,13,,,,,,,,,,,,,,,,,,,,,,,,,,,,,,,,,,762.0909122000448,6,reward,1,0.5486993002705276,0.5561291999183595,762.660352899693,,,,,,,,,,,,,,,,,,,,,,3,A,2024-04-08_13h19.56.367,attentional_competition_task,2022.2.4,143.9416407683688,
positions.xlsx,positions_test.xlsx,positions_test_new.xlsx,stimuli.xlsx,stimuli_new.xlsx,stimuli/Social1.png,stimuli/Social2.png,stimuli/Nonsocial1.png,stimuli/Nonsocial2.png,stimuli/Social3.png,stimuli/Social4.png,stimuli/Nonsocial3.png,stimuli/Nonsocial4.png,cs_pos_s,"(0.7, -0.5)",,,,,,,,,0,0,0,0,,,,,,,,,,,,,0,7,7,7,,,,,,,,,,,,,,,,,,,,,,,,,,,,,,,,,,770.5211268998682,9,reward,1,0.618117899633944,0.618121299892664,771.1461430001073,,,,,,,,,,,,,,,,,,,,,,3,A,2024-04-08_13h19.56.367,attentional_competition_task,2022.2.4,143.9416407683688,
positions.xlsx,positions_test.xlsx,positions_test_new.xlsx,stimuli.xlsx,stimuli_new.xlsx,stimuli/Social1.png,stimuli/Social2.png,stimuli/Nonsocial1.png,stimuli/Nonsocial2.png,stimuli/Social3.png,stimuli/Social4.png,stimuli/Nonsocial3.png,stimuli/Nonsocial4.png,cs_pos_ns,"(0.7, 0.5)",,,,,,,,,0,0,0,0,,,,,,,,,,,,,0,8,8,14,,,,,,,,,,,,,,,,,,,,,,,,,,,,,,,,,,779.3680193000473,12,reward,1,0.39642230002209544,0.3964263000525534,779.7707877000794,,,,,,,,,,,,,,,,,,,,,,3,A,2024-04-08_13h19.56.367,attentional_competition_task,2022.2.4,143.9416407683688,
positions.xlsx,positions_test.xlsx,positions_test_new.xlsx,stimuli.xlsx,stimuli_new.xlsx,stimuli/Social1.png,stimuli/Social2.png,stimuli/Nonsocial1.png,stimuli/Nonsocial2.png,stimuli/Social3.png,stimuli/Social4.png,stimuli/Nonsocial3.png,stimuli/Nonsocial4.png,cs_neg_s,"(0.7, 0.5)",,,,,,,,,0,0,0,0,,,,,,,,,,,,,0,9,9,2,,,,,,,,,,,,,,,,,,,,,,,,,,,,,,,,,,787.2496398999356,12,none,0,,,790.2634393000044,,,,,,,,,,,,,,,,,,,,,,3,A,2024-04-08_13h19.56.367,attentional_competition_task,2022.2.4,143.9416407683688,
positions.xlsx,positions_test.xlsx,positions_test_new.xlsx,stimuli.xlsx,stimuli_new.xlsx,stimuli/Social1.png,stimuli/Social2.png,stimuli/Nonsocial1.png,stimuli/Nonsocial2.png,stimuli/Social3.png,stimuli/Social4.png,stimuli/Nonsocial3.png,stimuli/Nonsocial4.png,cs_neg_ns,"(-0.7, 0.5)",,,,,,,,,0,0,0,0,,,,,,,,,,,,,0,10,10,8,,,,,,,,,,,,,,,,,,,,,,,,,,,,,,,,,,797.9992836001329,9,loss,2,0.5287959002889693,0.5349146001972258,798.5478015998378,,,,,,,,,,,,,,,,,,,,,,3,A,2024-04-08_13h19.56.367,attentional_competition_task,2022.2.4,143.9416407683688,
positions.xlsx,positions_test.xlsx,positions_test_new.xlsx,stimuli.xlsx,stimuli_new.xlsx,stimuli/Social1.png,stimuli/Social2.png,stimuli/Nonsocial1.png,stimuli/Nonsocial2.png,stimuli/Social3.png,stimuli/Social4.png,stimuli/Nonsocial3.png,stimuli/Nonsocial4.png,cs_pos_s,"(0.7, 0.5)",,,,,,,,,0,0,0,0,,,,,,,,,,,,,0,11,11,6,,,,,,,,,,,,,,,,,,,,,,,,,,,,,,,,,,806.7071833000518,12,reward,1,0.4099660003557801,0.40996980015188456,807.1238333000802,,,,,,,,,,,,,,,,,,,,,,3,A,2024-04-08_13h19.56.367,attentional_competition_task,2022.2.4,143.9416407683688,
positions.xlsx,positions_test.xlsx,positions_test_new.xlsx,stimuli.xlsx,stimuli_new.xlsx,stimuli/Social1.png,stimuli/Social2.png,stimuli/Nonsocial1.png,stimuli/Nonsocial2.png,stimuli/Social3.png,stimuli/Social4.png,stimuli/Nonsocial3.png,stimuli/Nonsocial4.png,cs_neg_ns,"(0.7, 0.5)",,,,,,,,,0,0,0,0,,,,,,,,,,,,,0,12,12,10,,,,,,,,,,,,,,,,,,,,,,,,,,,,,,,,,,815.4707158999518,9,loss,1,0.8334801001474261,0.8334836000576615,816.3109820000827,,,,,,,,,,,,,,,,,,,,,,3,A,2024-04-08_13h19.56.367,attentional_competition_task,2022.2.4,143.9416407683688,
positions.xlsx,positions_test.xlsx,positions_test_new.xlsx,stimuli.xlsx,stimuli_new.xlsx,stimuli/Social1.png,stimuli/Social2.png,stimuli/Nonsocial1.png,stimuli/Nonsocial2.png,stimuli/Social3.png,stimuli/Social4.png,stimuli/Nonsocial3.png,stimuli/Nonsocial4.png,cs_pos_ns,"(0.7, -0.5)",,,,,,,,,0,0,0,0,,,,,,,,,,,,,0,13,13,15,,,,,,,,,,,,,,,,,,,,,,,,,,,,,,,,,,823.8245931998827,12,reward,1,0.6597694996744394,0.6664279997348785,824.4981736000627,,,,,,,,,,,,,,,,,,,,,,3,A,2024-04-08_13h19.56.367,attentional_competition_task,2022.2.4,143.9416407683688,
positions.xlsx,positions_test.xlsx,positions_test_new.xlsx,stimuli.xlsx,stimuli_new.xlsx,stimuli/Social1.png,stimuli/Social2.png,stimuli/Nonsocial1.png,stimuli/Nonsocial2.png,stimuli/Social3.png,stimuli/Social4.png,stimuli/Nonsocial3.png,stimuli/Nonsocial4.png,cs_neg_ns,"(0.7, -0.5)",,,,,,,,,0,0,0,0,,,,,,,,,,,,,0,14,14,11,,,,,,,,,,,,,,,,,,,,,,,,,,,,,,,,,,831.6992186997086,9,loss,1,0.43057950027287006,0.4305833000689745,832.136740299873,,,,,,,,,,,,,,,,,,,,,,3,A,2024-04-08_13h19.56.367,attentional_competition_task,2022.2.4,143.9416407683688,
positions.xlsx,positions_test.xlsx,positions_test_new.xlsx,stimuli.xlsx,stimuli_new.xlsx,stimuli/Social1.png,stimuli/Social2.png,stimuli/Nonsocial1.png,stimuli/Nonsocial2.png,stimuli/Social3.png,stimuli/Social4.png,stimuli/Nonsocial3.png,stimuli/Nonsocial4.png,cs_neg_s,"(-0.7, -0.5)",,,,,,,,,0,0,0,0,,,,,,,,,,,,,0,15,15,1,,,,,,,,,,,,,,,,,,,,,,,,,,,,,,,,,,839.7544555999339,6,loss,0,,,840.0322225997224,,,,,,,,,,,,,,,,,,,,,,3,A,2024-04-08_13h19.56.367,attentional_competition_task,2022.2.4,143.9416407683688,
positions.xlsx,positions_test.xlsx,positions_test_new.xlsx,stimuli.xlsx,stimuli_new.xlsx,stimuli/Social1.png,stimuli/Social2.png,stimuli/Nonsocial1.png,stimuli/Nonsocial2.png,stimuli/Social3.png,stimuli/Social4.png,stimuli/Nonsocial3.png,stimuli/Nonsocial4.png,cs_pos_s,"(0.7, 0.5)",,,,,,,,,0,0,0,0,,,,,,,,,,,,,1,0,16,6,,,,,,,,,,,,,,,,,,,,,,,,,,,,,,,,,,848.3791073998436,9,reward,1,0.6110620000399649,0.6110656000673771,848.9971675998531,,,,,,,,,,,,,,,,,,,,,,3,A,2024-04-08_13h19.56.367,attentional_competition_task,2022.2.4,143.9416407683688,
positions.xlsx,positions_test.xlsx,positions_test_new.xlsx,stimuli.xlsx,stimuli_new.xlsx,stimuli/Social1.png,stimuli/Social2.png,stimuli/Nonsocial1.png,stimuli/Nonsocial2.png,stimuli/Social3.png,stimuli/Social4.png,stimuli/Nonsocial3.png,stimuli/Nonsocial4.png,cs_pos_ns,"(-0.7, -0.5)",,,,,,,,,0,0,0,0,,,,,,,,,,,,,1,1,17,13,,,,,,,,,,,,,,,,,,,,,,,,,,,,,,,,,,856.6634963001125,12,reward,1,0.21564520010724664,0.21564899990335107,856.8857384999283,,,,,,,,,,,,,,,,,,,,,,3,A,2024-04-08_13h19.56.367,attentional_competition_task,2022.2.4,143.9416407683688,
positions.xlsx,positions_test.xlsx,positions_test_new.xlsx,stimuli.xlsx,stimuli_new.xlsx,stimuli/Social1.png,stimuli/Social2.png,stimuli/Nonsocial1.png,stimuli/Nonsocial2.png,stimuli/Social3.png,stimuli/Social4.png,stimuli/Nonsocial3.png,stimuli/Nonsocial4.png,cs_pos_ns,"(0.7, -0.5)",,,,,,,,,0,0,0,0,,,,,,,,,,,,,1,2,18,15,,,,,,,,,,,,,,,,,,,,,,,,,,,,,,,,,,864.3021029001102,15,reward,1,0.5900264997035265,0.5900300000794232,864.8992872997187,,,,,,,,,,,,,,,,,,,,,,3,A,2024-04-08_13h19.56.367,attentional_competition_task,2022.2.4,143.9416407683688,
positions.xlsx,positions_test.xlsx,positions_test_new.xlsx,stimuli.xlsx,stimuli_new.xlsx,stimuli/Social1.png,stimuli/Social2.png,stimuli/Nonsocial1.png,stimuli/Nonsocial2.png,stimuli/Social3.png,stimuli/Social4.png,stimuli/Nonsocial3.png,stimuli/Nonsocial4.png,cs_neg_ns,"(0.7, -0.5)",,,,,,,,,0,0,0,0,,,,,,,,,,,,,1,3,19,11,,,,,,,,,,,,,,,,,,,,,,,,,,,,,,,,,,872.6698253997602,12,loss,1,0.19441849971190095,0.19442199962213635,872.8711834996939,,,,,,,,,,,,,,,,,,,,,,3,A,2024-04-08_13h19.56.367,attentional_competition_task,2022.2.4,143.9416407683688,
positions.xlsx,positions_test.xlsx,positions_test_new.xlsx,stimuli.xlsx,stimuli_new.xlsx,stimuli/Social1.png,stimuli/Social2.png,stimuli/Nonsocial1.png,stimuli/Nonsocial2.png,stimuli/Social3.png,stimuli/Social4.png,stimuli/Nonsocial3.png,stimuli/Nonsocial4.png,cs_neg_s,"(-0.7, -0.5)",,,,,,,,,0,0,0,0,,,,,,,,,,,,,1,4,20,1,,,,,,,,,,,,,,,,,,,,,,,,,,,,,,,,,,879.8362273001112,9,loss,1,0.25016599986702204,0.250169700011611,880.0931641999632,,,,,,,,,,,,,,,,,,,,,,3,A,2024-04-08_13h19.56.367,attentional_competition_task,2022.2.4,143.9416407683688,
positions.xlsx,positions_test.xlsx,positions_test_new.xlsx,stimuli.xlsx,stimuli_new.xlsx,stimuli/Social1.png,stimuli/Social2.png,stimuli/Nonsocial1.png,stimuli/Nonsocial2.png,stimuli/Social3.png,stimuli/Social4.png,stimuli/Nonsocial3.png,stimuli/Nonsocial4.png,cs_neg_s,"(-0.7, 0.5)",,,,,,,,,0,0,0,0,,,,,,,,,,,,,1,5,21,0,,,,,,,,,,,,,,,,,,,,,,,,,,,,,,,,,,887.926132099703,9,none,0,,,890.939933099784,,,,,,,,,,,,,,,,,,,,,,3,A,2024-04-08_13h19.56.367,attentional_competition_task,2022.2.4,143.9416407683688,
positions.xlsx,positions_test.xlsx,positions_test_new.xlsx,stimuli.xlsx,stimuli_new.xlsx,stimuli/Social1.png,stimuli/Social2.png,stimuli/Nonsocial1.png,stimuli/Nonsocial2.png,stimuli/Social3.png,stimuli/Social4.png,stimuli/Nonsocial3.png,stimuli/Nonsocial4.png,cs_neg_ns,"(-0.7, 0.5)",,,,,,,,,0,0,0,0,,,,,,,,,,,,,1,6,22,8,,,,,,,,,,,,,,,,,,,,,,,,,,,,,,,,,,899.0646167998202,6,loss,1,0.4935465999878943,0.5005164998583496,899.5715430998243,,,,,,,,,,,,,,,,,,,,,,3,A,2024-04-08_13h19.56.367,attentional_competition_task,2022.2.4,143.9416407683688,
positions.xlsx,positions_test.xlsx,positions_test_new.xlsx,stimuli.xlsx,stimuli_new.xlsx,stimuli/Social1.png,stimuli/Social2.png,stimuli/Nonsocial1.png,stimuli/Nonsocial2.png,stimuli/Social3.png,stimuli/Social4.png,stimuli/Nonsocial3.png,stimuli/Nonsocial4.png,cs_pos_s,"(-0.7, -0.5)",,,,,,,,,0,0,0,0,,,,,,,,,,,,,1,7,23,5,,,,,,,,,,,,,,,,,,,,,,,,,,,,,,,,,,907.5086941998452,9,reward,1,0.17396089993417263,0.17396460007876158,907.6892196000554,,,,,,,,,,,,,,,,,,,,,,3,A,2024-04-08_13h19.56.367,attentional_competition_task,2022.2.4,143.9416407683688,
positions.xlsx,positions_test.xlsx,positions_test_new.xlsx,stimuli.xlsx,stimuli_new.xlsx,stimuli/Social1.png,stimuli/Social2.png,stimuli/Nonsocial1.png,stimuli/Nonsocial2.png,stimuli/Social3.png,stimuli/Social4.png,stimuli/Nonsocial3.png,stimuli/Nonsocial4.png,cs_neg_s,"(0.7, -0.5)",,,,,,,,,0,0,0,0,,,,,,,,,,,,,1,8,24,3,,,,,,,,,,,,,,,,,,,,,,,,,,,,,,,,,,914.5778426998295,6,loss,1,0.29889649990946054,0.2989000999368727,914.883429700043,,,,,,,,,,,,,,,,,,,,,,3,A,2024-04-08_13h19.56.367,attentional_competition_task,2022.2.4,143.9416407683688,
positions.xlsx,positions_test.xlsx,positions_test_new.xlsx,stimuli.xlsx,stimuli_new.xlsx,stimuli/Social1.png,stimuli/Social2.png,stimuli/Nonsocial1.png,stimuli/Nonsocial2.png,stimuli/Social3.png,stimuli/Social4.png,stimuli/Nonsocial3.png,stimuli/Nonsocial4.png,cs_pos_s,"(-0.7, 0.5)",,,,,,,,,0,0,0,0,,,,,,,,,,,,,1,9,25,4,,,,,,,,,,,,,,,,,,,,,,,,,,,,,,,,,,921.4734318000264,9,reward,1,0.3334794002585113,0.3334830002859235,921.8137026000768,,,,,,,,,,,,,,,,,,,,,,3,A,2024-04-08_13h19.56.367,attentional_competition_task,2022.2.4,143.9416407683688,
positions.xlsx,positions_test.xlsx,positions_test_new.xlsx,stimuli.xlsx,stimuli_new.xlsx,stimuli/Social1.png,stimuli/Social2.png,stimuli/Nonsocial1.png,stimuli/Nonsocial2.png,stimuli/Social3.png,stimuli/Social4.png,stimuli/Nonsocial3.png,stimuli/Nonsocial4.png,cs_pos_ns,"(0.7, 0.5)",,,,,,,,,0,0,0,0,,,,,,,,,,,,,1,10,26,14,,,,,,,,,,,,,,,,,,,,,,,,,,,,,,,,,,929.5425241999328,12,reward,1,0.4169932999648154,0.4169971998780966,929.9661622000858,,,,,,,,,,,,,,,,,,,,,,3,A,2024-04-08_13h19.56.367,attentional_competition_task,2022.2.4,143.9416407683688,
positions.xlsx,positions_test.xlsx,positions_test_new.xlsx,stimuli.xlsx,stimuli_new.xlsx,stimuli/Social1.png,stimuli/Social2.png,stimuli/Nonsocial1.png,stimuli/Nonsocial2.png,stimuli/Social3.png,stimuli/Social4.png,stimuli/Nonsocial3.png,stimuli/Nonsocial4.png,cs_neg_ns,"(-0.7, -0.5)",,,,,,,,,0,0,0,0,,,,,,,,,,,,,1,11,27,9,,,,,,,,,,,,,,,,,,,,,,,,,,,,,,,,,,937.5075469999574,9,loss,1,0.7363247000612319,0.7363284998573363,938.2505152998492,,,,,,,,,,,,,,,,,,,,,,3,A,2024-04-08_13h19.56.367,attentional_competition_task,2022.2.4,143.9416407683688,
positions.xlsx,positions_test.xlsx,positions_test_new.xlsx,stimuli.xlsx,stimuli_new.xlsx,stimuli/Social1.png,stimuli/Social2.png,stimuli/Nonsocial1.png,stimuli/Nonsocial2.png,stimuli/Social3.png,stimuli/Social4.png,stimuli/Nonsocial3.png,stimuli/Nonsocial4.png,cs_neg_s,"(0.7, 0.5)",,,,,,,,,0,0,0,0,,,,,,,,,,,,,1,12,28,2,,,,,,,,,,,,,,,,,,,,,,,,,,,,,,,,,,945.3058358998969,9,none,0,,,948.312623700127,,,,,,,,,,,,,,,,,,,,,,3,A,2024-04-08_13h19.56.367,attentional_competition_task,2022.2.4,143.9416407683688,
positions.xlsx,positions_test.xlsx,positions_test_new.xlsx,stimuli.xlsx,stimuli_new.xlsx,stimuli/Social1.png,stimuli/Social2.png,stimuli/Nonsocial1.png,stimuli/Nonsocial2.png,stimuli/Social3.png,stimuli/Social4.png,stimuli/Nonsocial3.png,stimuli/Nonsocial4.png,cs_neg_ns,"(0.7, 0.5)",,,,,,,,,0,0,0,0,,,,,,,,,,,,,1,13,29,10,,,,,,,,,,,,,,,,,,,,,,,,,,,,,,,,,,955.8123440998606,6,loss,1,0.6183889000676572,0.6183925000950694,956.4373351000249,,,,,,,,,,,,,,,,,,,,,,3,A,2024-04-08_13h19.56.367,attentional_competition_task,2022.2.4,143.9416407683688,
positions.xlsx,positions_test.xlsx,positions_test_new.xlsx,stimuli.xlsx,stimuli_new.xlsx,stimuli/Social1.png,stimuli/Social2.png,stimuli/Nonsocial1.png,stimuli/Nonsocial2.png,stimuli/Social3.png,stimuli/Social4.png,stimuli/Nonsocial3.png,stimuli/Nonsocial4.png,cs_pos_ns,"(-0.7, 0.5)",,,,,,,,,0,0,0,0,,,,,,,,,,,,,1,14,30,12,,,,,,,,,,,,,,,,,,,,,,,,,,,,,,,,,,964.4092729999684,9,reward,1,0.4237668998539448,0.4237705999985337,964.8397337999195,,,,,,,,,,,,,,,,,,,,,,3,A,2024-04-08_13h19.56.367,attentional_competition_task,2022.2.4,143.9416407683688,
positions.xlsx,positions_test.xlsx,positions_test_new.xlsx,stimuli.xlsx,stimuli_new.xlsx,stimuli/Social1.png,stimuli/Social2.png,stimuli/Nonsocial1.png,stimuli/Nonsocial2.png,stimuli/Social3.png,stimuli/Social4.png,stimuli/Nonsocial3.png,stimuli/Nonsocial4.png,cs_pos_s,"(0.7, -0.5)",,,,,,,,,0,0,0,0,,,,,,,,,,,,,1,15,31,7,,,,,,,,,,,,,,,,,,,,,,,,,,,,,,,,,,972.4644448999316,12,reward,1,0.29885820019990206,0.29886210011318326,972.7699811998755,,,,,,,,,,,,,,,,,,,,,,3,A,2024-04-08_13h19.56.367,attentional_competition_task,2022.2.4,143.9416407683688,
positions.xlsx,positions_test.xlsx,positions_test_new.xlsx,stimuli.xlsx,stimuli_new.xlsx,stimuli/Social1.png,stimuli/Social2.png,stimuli/Nonsocial1.png,stimuli/Nonsocial2.png,stimuli/Social3.png,stimuli/Social4.png,stimuli/Nonsocial3.png,stimuli/Nonsocial4.png,cs_neg_s,,,,,,,,,,0,0,0,0,,,,,,,,,,,,,,,,,0,0,0,0,,,,,,,,,,,,,,,,,,,,,,,977.7489613001235,7.0,4.213273100089282,,,,,,,,,,,,,,,,,,,,,,,,,,,,,,,,,3,A,2024-04-08_13h19.56.367,attentional_competition_task,2022.2.4,143.9416407683688,
positions.xlsx,positions_test.xlsx,positions_test_new.xlsx,stimuli.xlsx,stimuli_new.xlsx,stimuli/Social1.png,stimuli/Social2.png,stimuli/Nonsocial1.png,stimuli/Nonsocial2.png,stimuli/Social3.png,stimuli/Social4.png,stimuli/Nonsocial3.png,stimuli/Nonsocial4.png,cs_pos_ns,,,,,,,,,,0,0,0,0,,,,,,,,,,,,,,,,,0,1,1,3,,,,,,,,,,,,,,,,,,,,,,,982.811263800133,7.0,0.5008819997310638,,,,,,,,,,,,,,,,,,,,,,,,,,,,,,,,,3,A,2024-04-08_13h19.56.367,attentional_competition_task,2022.2.4,143.9416407683688,
positions.xlsx,positions_test.xlsx,positions_test_new.xlsx,stimuli.xlsx,stimuli_new.xlsx,stimuli/Social1.png,stimuli/Social2.png,stimuli/Nonsocial1.png,stimuli/Nonsocial2.png,stimuli/Social3.png,stimuli/Social4.png,stimuli/Nonsocial3.png,stimuli/Nonsocial4.png,cs_neg_ns,,,,,,,,,,0,0,0,0,,,,,,,,,,,,,,,,,0,2,2,1,,,,,,,,,,,,,,,,,,,,,,,983.4570645997301,7.0,0.40479240007698536,,,,,,,,,,,,,,,,,,,,,,,,,,,,,,,,,3,A,2024-04-08_13h19.56.367,attentional_competition_task,2022.2.4,143.9416407683688,
positions.xlsx,positions_test.xlsx,positions_test_new.xlsx,stimuli.xlsx,stimuli_new.xlsx,stimuli/Social1.png,stimuli/Social2.png,stimuli/Nonsocial1.png,stimuli/Nonsocial2.png,stimuli/Social3.png,stimuli/Social4.png,stimuli/Nonsocial3.png,stimuli/Nonsocial4.png,cs_pos_s,,,,,,,,,,0,0,0,0,,,,,,,,,,,,,,,,,0,3,3,2,,,,,,,,,,,,,,,,,,,,,,,984.0264894999564,7.0,0.4124202001839876,,,,,,,,,,,,,,,,,,,,,,,,,,,,,,,,,3,A,2024-04-08_13h19.56.367,attentional_competition_task,2022.2.4,143.9416407683688,
positions.xlsx,positions_test.xlsx,positions_test_new.xlsx,stimuli.xlsx,stimuli_new.xlsx,stimuli/Social1.png,stimuli/Social2.png,stimuli/Nonsocial1.png,stimuli/Nonsocial2.png,stimuli/Social3.png,stimuli/Social4.png,stimuli/Nonsocial3.png,stimuli/Nonsocial4.png,,,"(-0.7, -0.5)",cs_neg_s,"(-0.7, 0.5)",cs_pos_s,"(0.7, -0.5)",cs_neg_ns,"(0.7, 0.5)",cs_pos_ns,0,0,0,0,,,,,,,,,,,,,,,,,,,,,0,0,0,0,,,,,,,,,,,,,,,,,,,,,,,,,,,15,reward,,,,,984.5473039001226,990.7970332000405,990.7970332000405,990.7970332000405,990.7970332000405,0,,,0,,,0,,,1,0.03303930023685098,0.03304360015317798,990.7970332000405,990.7970332000405,990.7970332000405,990.7970332000405,3,A,2024-04-08_13h19.56.367,attentional_competition_task,2022.2.4,143.9416407683688,
positions.xlsx,positions_test.xlsx,positions_test_new.xlsx,stimuli.xlsx,stimuli_new.xlsx,stimuli/Social1.png,stimuli/Social2.png,stimuli/Nonsocial1.png,stimuli/Nonsocial2.png,stimuli/Social3.png,stimuli/Social4.png,stimuli/Nonsocial3.png,stimuli/Nonsocial4.png,,,"(-0.7, -0.5)",cs_pos_ns,"(-0.7, 0.5)",cs_neg_s,"(0.7, -0.5)",cs_pos_s,"(0.7, 0.5)",cs_neg_ns,0,0,0,0,,,,,,,,,,,,,,,,,,,,,0,1,1,22,,,,,,,,,,,,,,,,,,,,,,,,,,,18,reward,,,,,,999.7758324998431,999.7758324998431,999.7758324998431,999.7758324998431,1,0.028600200079381466,0.028603899758309126,0,,,0,,,0,,,999.7758324998431,999.7758324998431,999.7758324998431,999.7758324998431,3,A,2024-04-08_13h19.56.367,attentional_competition_task,2022.2.4,143.9416407683688,
positions.xlsx,positions_test.xlsx,positions_test_new.xlsx,stimuli.xlsx,stimuli_new.xlsx,stimuli/Social1.png,stimuli/Social2.png,stimuli/Nonsocial1.png,stimuli/Nonsocial2.png,stimuli/Social3.png,stimuli/Social4.png,stimuli/Nonsocial3.png,stimuli/Nonsocial4.png,,,"(-0.7, -0.5)",cs_neg_s,"(-0.7, 0.5)",cs_pos_s,"(0.7, -0.5)",cs_pos_ns,"(0.7, 0.5)",cs_neg_ns,0,0,0,0,,,,,,,,,,,,,,,,,,,,,0,2,2,1,,,,,,,,,,,,,,,,,,,,,,,,,,,18,loss,,,,,,1008.1505125998519,1008.1505125998519,1008.1505125998519,1008.1505125998519,0,,,0,,,0,,,1,0.030885699670761824,0.030889599584043026,1008.1505125998519,1008.1505125998519,1008.1505125998519,1008.1505125998519,3,A,2024-04-08_13h19.56.367,attentional_competition_task,2022.2.4,143.9416407683688,
positions.xlsx,positions_test.xlsx,positions_test_new.xlsx,stimuli.xlsx,stimuli_new.xlsx,stimuli/Social1.png,stimuli/Social2.png,stimuli/Nonsocial1.png,stimuli/Nonsocial2.png,stimuli/Social3.png,stimuli/Social4.png,stimuli/Nonsocial3.png,stimuli/Nonsocial4.png,,,"(-0.7, -0.5)",cs_pos_s,"(-0.7, 0.5)",cs_neg_s,"(0.7, -0.5)",cs_pos_ns,"(0.7, 0.5)",cs_neg_ns,0,0,0,0,,,,,,,,,,,,,,,,,,,,,0,3,3,7,,,,,,,,,,,,,,,,,,,,,,,,,,,21,loss,,,,,,1016.3515868997201,1016.3515868997201,1016.3515868997201,1016.3515868997201,0,,,0,,,1,0.36427220003679395,0.37113469978794456,1,0.38497799960896373,0.3849819996394217,1017.3099214998074,1017.3099214998074,1017.3099214998074,1017.3099214998074,3,A,2024-04-08_13h19.56.367,attentional_competition_task,2022.2.4,143.9416407683688,
positions.xlsx,positions_test.xlsx,positions_test_new.xlsx,stimuli.xlsx,stimuli_new.xlsx,stimuli/Social1.png,stimuli/Social2.png,stimuli/Nonsocial1.png,stimuli/Nonsocial2.png,stimuli/Social3.png,stimuli/Social4.png,stimuli/Nonsocial3.png,stimuli/Nonsocial4.png,,,"(-0.7, -0.5)",cs_pos_ns,"(-0.7, 0.5)",cs_pos_s,"(0.7, -0.5)",cs_neg_s,"(0.7, 0.5)",cs_neg_ns,0,0,0,0,,,,,,,,,,,,,,,,,,,,,0,4,4,19,,,,,,,,,,,,,,,,,,,,,,,,,,,21,loss,,,,,,1025.1984401997179,1025.1984401997179,1025.1984401997179,1025.1984401997179,0,,,0,,,0,,,1,0.02936020027846098,0.029364200308918953,1025.1984401997179,1025.1984401997179,1025.1984401997179,1025.1984401997179,3,A,2024-04-08_13h19.56.367,attentional_competition_task,2022.2.4,143.9416407683688,
positions.xlsx,positions_test.xlsx,positions_test_new.xlsx,stimuli.xlsx,stimuli_new.xlsx,stimuli/Social1.png,stimuli/Social2.png,stimuli/Nonsocial1.png,stimuli/Nonsocial2.png,stimuli/Social3.png,stimuli/Social4.png,stimuli/Nonsocial3.png,stimuli/Nonsocial4.png,,,"(-0.7, -0.5)",cs_pos_ns,"(-0.7, 0.5)",cs_neg_ns,"(0.7, -0.5)",cs_neg_s,"(0.7, 0.5)",cs_pos_s,0,0,0,0,,,,,,,,,,,,,,,,,,,,,0,5,5,21,,,,,,,,,,,,,,,,,,,,,,,,,,,24,reward,,,,,,1034.1008653999306,1034.1008653999306,1034.1008653999306,1034.1008653999306,1,0.025282599963247776,0.02528649987652898,0,,,0,,,0,,,1034.1008653999306,1034.1008653999306,1034.1008653999306,1034.1008653999306,3,A,2024-04-08_13h19.56.367,attentional_competition_task,2022.2.4,143.9416407683688,
positions.xlsx,positions_test.xlsx,positions_test_new.xlsx,stimuli.xlsx,stimuli_new.xlsx,stimuli/Social1.png,stimuli/Social2.png,stimuli/Nonsocial1.png,stimuli/Nonsocial2.png,stimuli/Social3.png,stimuli/Social4.png,stimuli/Nonsocial3.png,stimuli/Nonsocial4.png,,,"(-0.7, -0.5)",cs_pos_ns,"(-0.7, 0.5)",cs_neg_s,"(0.7, -0.5)",cs_neg_ns,"(0.7, 0.5)",cs_pos_s,0,0,0,0,,,,,,,,,,,,,,,,,,,,,0,6,6,23,,,,,,,,,,,,,,,,,,,,,,,,,,,33,reward,,,,,,1042.5449895998463,1042.5449895998463,1042.5449895998463,1042.5449895998463,1,0.03152980003505945,0.2600030000321567,0,,,0,,,0,,,1043.3019177997485,1043.3019177997485,1043.3019177997485,1043.3019177997485,3,A,2024-04-08_13h19.56.367,attentional_competition_task,2022.2.4,143.9416407683688,
positions.xlsx,positions_test.xlsx,positions_test_new.xlsx,stimuli.xlsx,stimuli_new.xlsx,stimuli/Social1.png,stimuli/Social2.png,stimuli/Nonsocial1.png,stimuli/Nonsocial2.png,stimuli/Social3.png,stimuli/Social4.png,stimuli/Nonsocial3.png,stimuli/Nonsocial4.png,,,"(-0.7, -0.5)",cs_pos_s,"(-0.7, 0.5)",cs_neg_s,"(0.7, -0.5)",cs_neg_ns,"(0.7, 0.5)",cs_pos_ns,0,0,0,0,,,,,,,,,,,,,,,,,,,,,0,7,7,6,,,,,,,,,,,,,,,,,,,,,,,,,,,39,reward,,,,,,1050.1071756999008,1050.1071756999008,1050.1071756999008,1050.1071756999008,3,0.15401219995692372,0.1611162000335753,0,,,0,,,1,0.41163740027695894,0.4185917000286281,1050.523864899762,1050.523864899762,1050.523864899762,1050.523864899762,3,A,2024-04-08_13h19.56.367,attentional_competition_task,2022.2.4,143.9416407683688,
positions.xlsx,positions_test.xlsx,positions_test_new.xlsx,stimuli.xlsx,stimuli_new.xlsx,stimuli/Social1.png,stimuli/Social2.png,stimuli/Nonsocial1.png,stimuli/Nonsocial2.png,stimuli/Social3.png,stimuli/Social4.png,stimuli/Nonsocial3.png,stimuli/Nonsocial4.png,,,"(-0.7, -0.5)",cs_pos_ns,"(-0.7, 0.5)",cs_pos_s,"(0.7, -0.5)",cs_neg_ns,"(0.7, 0.5)",cs_neg_s,0,0,0,0,,,,,,,,,,,,,,,,,,,,,0,8,8,18,,,,,,,,,,,,,,,,,,,,,,,,,,,45,reward,,,,,,1059.197118499782,1059.197118499782,1059.197118499782,1059.197118499782,2,0.3422622997313738,0.34944169968366623,1,0.028232499957084656,0.3217163998633623,0,,,0,,,1059.558210699819,1059.558210699819,1059.558210699819,1059.558210699819,3,A,2024-04-08_13h19.56.367,attentional_competition_task,2022.2.4,143.9416407683688,
positions.xlsx,positions_test.xlsx,positions_test_new.xlsx,stimuli.xlsx,stimuli_new.xlsx,stimuli/Social1.png,stimuli/Social2.png,stimuli/Nonsocial1.png,stimuli/Nonsocial2.png,stimuli/Social3.png,stimuli/Social4.png,stimuli/Nonsocial3.png,stimuli/Nonsocial4.png,,,"(-0.7, -0.5)",cs_neg_ns,"(-0.7, 0.5)",cs_pos_s,"(0.7, -0.5)",cs_pos_ns,"(0.7, 0.5)",cs_neg_s,0,0,0,0,,,,,,,,,,,,,,,,,,,,,0,9,9,13,,,,,,,,,,,,,,,,,,,,,,,,,,,51,reward,,,,,,1067.8981538997032,1067.8981538997032,1067.8981538997032,1067.8981538997032,0,,,0,,,0,,,0,,,1068.5231483997777,1068.5231483997777,1068.5231483997777,1068.5231483997777,3,A,2024-04-08_13h19.56.367,attentional_competition_task,2022.2.4,143.9416407683688,
positions.xlsx,positions_test.xlsx,positions_test_new.xlsx,stimuli.xlsx,stimuli_new.xlsx,stimuli/Social1.png,stimuli/Social2.png,stimuli/Nonsocial1.png,stimuli/Nonsocial2.png,stimuli/Social3.png,stimuli/Social4.png,stimuli/Nonsocial3.png,stimuli/Nonsocial4.png,,,"(-0.7, -0.5)",cs_pos_s,"(-0.7, 0.5)",cs_pos_ns,"(0.7, -0.5)",cs_neg_ns,"(0.7, 0.5)",cs_neg_s,0,0,0,0,,,,,,,,,,,,,,,,,,,,,0,10,10,11,,,,,,,,,,,,,,,,,,,,,,,,,,,57,reward,,,,,,1076.0644632996991,1076.0644632996991,1076.0644632996991,1076.0644632996991,1,0.030783299822360277,0.22355620004236698,1,0.237790800165385,0.23779459996148944,0,,,0,,,1076.3005745997652,1076.3005745997652,1076.3005745997652,1076.3005745997652,3,A,2024-04-08_13h19.56.367,attentional_competition_task,2022.2.4,143.9416407683688,
positions.xlsx,positions_test.xlsx,positions_test_new.xlsx,stimuli.xlsx,stimuli_new.xlsx,stimuli/Social1.png,stimuli/Social2.png,stimuli/Nonsocial1.png,stimuli/Nonsocial2.png,stimuli/Social3.png,stimuli/Social4.png,stimuli/Nonsocial3.png,stimuli/Nonsocial4.png,,,"(-0.7, -0.5)",cs_neg_s,"(-0.7, 0.5)",cs_neg_ns,"(0.7, -0.5)",cs_pos_ns,"(0.7, 0.5)",cs_pos_s,0,0,0,0,,,,,,,,,,,,,,,,,,,,,0,11,11,3,,,,,,,,,,,,,,,,,,,,,,,,,,,66,reward,,,,,,1085.4460609997623,1085.4460609997623,1085.4460609997623,1085.4460609997623,0,,,0,,,1,0.17653399985283613,0.19719209987670183,0,,,1086.2307559000328,1086.2307559000328,1086.2307559000328,1086.2307559000328,3,A,2024-04-08_13h19.56.367,attentional_competition_task,2022.2.4,143.9416407683688,
positions.xlsx,positions_test.xlsx,positions_test_new.xlsx,stimuli.xlsx,stimuli_new.xlsx,stimuli/Social1.png,stimuli/Social2.png,stimuli/Nonsocial1.png,stimuli/Nonsocial2.png,stimuli/Social3.png,stimuli/Social4.png,stimuli/Nonsocial3.png,stimuli/Nonsocial4.png,,,"(-0.7, -0.5)",cs_pos_s,"(-0.7, 0.5)",cs_pos_ns,"(0.7, -0.5)",cs_neg_s,"(0.7, 0.5)",cs_neg_ns,0,0,0,0,,,,,,,,,,,,,,,,,,,,,0,12,12,10,,,,,,,,,,,,,,,,,,,,,,,,,,,69,reward,,,,,,1093.0013131997548,1093.0013131997548,1093.0013131997548,1093.0013131997548,0,,,1,0.028838299680501223,0.02884209994226694,0,,,0,,,1093.0013131997548,1093.0013131997548,1093.0013131997548,1093.0013131997548,3,A,2024-04-08_13h19.56.367,attentional_competition_task,2022.2.4,143.9416407683688,
positions.xlsx,positions_test.xlsx,positions_test_new.xlsx,stimuli.xlsx,stimuli_new.xlsx,stimuli/Social1.png,stimuli/Social2.png,stimuli/Nonsocial1.png,stimuli/Nonsocial2.png,stimuli/Social3.png,stimuli/Social4.png,stimuli/Nonsocial3.png,stimuli/Nonsocial4.png,,,"(-0.7, -0.5)",cs_pos_s,"(-0.7, 0.5)",cs_neg_ns,"(0.7, -0.5)",cs_pos_ns,"(0.7, 0.5)",cs_neg_s,0,0,0,0,,,,,,,,,,,,,,,,,,,,,0,13,13,9,,,,,,,,,,,,,,,,,,,,,,,,,,,78,reward,,,,,,1101.494014899712,1101.494014899712,1101.494014899712,1101.494014899712,0,,,0,,,2,0.05149880005046725,0.14876919984817505,0,,,1102.5704335998744,1102.5704335998744,1102.5704335998744,1102.5704335998744,3,A,2024-04-08_13h19.56.367,attentional_competition_task,2022.2.4,143.9416407683688,
positions.xlsx,positions_test.xlsx,positions_test_new.xlsx,stimuli.xlsx,stimuli_new.xlsx,stimuli/Social1.png,stimuli/Social2.png,stimuli/Nonsocial1.png,stimuli/Nonsocial2.png,stimuli/Social3.png,stimuli/Social4.png,stimuli/Nonsocial3.png,stimuli/Nonsocial4.png,,,"(-0.7, -0.5)",cs_pos_s,"(-0.7, 0.5)",cs_neg_ns,"(0.7, -0.5)",cs_neg_s,"(0.7, 0.5)",cs_pos_ns,0,0,0,0,,,,,,,,,,,,,,,,,,,,,0,14,14,8,,,,,,,,,,,,,,,,,,,,,,,,,,,84,reward,,,,,,1111.0839549000375,1111.0839549000375,1111.0839549000375,1111.0839549000375,0,,,0,,,0,,,1,0.032169200014322996,0.03217299981042743,1111.0839549000375,1111.0839549000375,1111.0839549000375,1111.0839549000375,3,A,2024-04-08_13h19.56.367,attentional_competition_task,2022.2.4,143.9416407683688,
positions.xlsx,positions_test.xlsx,positions_test_new.xlsx,stimuli.xlsx,stimuli_new.xlsx,stimuli/Social1.png,stimuli/Social2.png,stimuli/Nonsocial1.png,stimuli/Nonsocial2.png,stimuli/Social3.png,stimuli/Social4.png,stimuli/Nonsocial3.png,stimuli/Nonsocial4.png,,,"(-0.7, -0.5)",cs_neg_ns,"(-0.7, 0.5)",cs_pos_ns,"(0.7, -0.5)",cs_pos_s,"(0.7, 0.5)",cs_neg_s,0,0,0,0,,,,,,,,,,,,,,,,,,,,,0,15,15,16,,,,,,,,,,,,,,,,,,,,,,,,,,,90,reward,,,,,,1119.2363688000478,1119.2363688000478,1119.2363688000478,1119.2363688000478,0,,,0,,,0,,,0,,,1119.9030273999088,1119.9030273999088,1119.9030273999088,1119.9030273999088,3,A,2024-04-08_13h19.56.367,attentional_competition_task,2022.2.4,143.9416407683688,
positions.xlsx,positions_test.xlsx,positions_test_new.xlsx,stimuli.xlsx,stimuli_new.xlsx,stimuli/Social1.png,stimuli/Social2.png,stimuli/Nonsocial1.png,stimuli/Nonsocial2.png,stimuli/Social3.png,stimuli/Social4.png,stimuli/Nonsocial3.png,stimuli/Nonsocial4.png,,,"(-0.7, -0.5)",cs_pos_ns,"(-0.7, 0.5)",cs_neg_ns,"(0.7, -0.5)",cs_pos_s,"(0.7, 0.5)",cs_neg_s,0,0,0,0,,,,,,,,,,,,,,,,,,,,,0,16,16,20,,,,,,,,,,,,,,,,,,,,,,,,,,,99,reward,,,,,,1127.736045899801,1127.736045899801,1127.736045899801,1127.736045899801,1,0.023945599794387817,0.10017320001497865,0,,,0,,,0,,,1128.3401882001199,1128.3401882001199,1128.3401882001199,1128.3401882001199,3,A,2024-04-08_13h19.56.367,attentional_competition_task,2022.2.4,143.9416407683688,
positions.xlsx,positions_test.xlsx,positions_test_new.xlsx,stimuli.xlsx,stimuli_new.xlsx,stimuli/Social1.png,stimuli/Social2.png,stimuli/Nonsocial1.png,stimuli/Nonsocial2.png,stimuli/Social3.png,stimuli/Social4.png,stimuli/Nonsocial3.png,stimuli/Nonsocial4.png,,,"(-0.7, -0.5)",cs_neg_ns,"(-0.7, 0.5)",cs_neg_s,"(0.7, -0.5)",cs_pos_ns,"(0.7, 0.5)",cs_pos_s,0,0,0,0,,,,,,,,,,,,,,,,,,,,,0,17,17,15,,,,,,,,,,,,,,,,,,,,,,,,,,,108,reward,,,,,,1136.2773458999582,1136.2773458999582,1136.2773458999582,1136.2773458999582,0,,,0,,,1,0.024931599851697683,0.23324609966948628,0,,,1137.01346320007,1137.01346320007,1137.01346320007,1137.01346320007,3,A,2024-04-08_13h19.56.367,attentional_competition_task,2022.2.4,143.9416407683688,
positions.xlsx,positions_test.xlsx,positions_test_new.xlsx,stimuli.xlsx,stimuli_new.xlsx,stimuli/Social1.png,stimuli/Social2.png,stimuli/Nonsocial1.png,stimuli/Nonsocial2.png,stimuli/Social3.png,stimuli/Social4.png,stimuli/Nonsocial3.png,stimuli/Nonsocial4.png,,,"(-0.7, -0.5)",cs_neg_s,"(-0.7, 0.5)",cs_neg_ns,"(0.7, -0.5)",cs_pos_s,"(0.7, 0.5)",cs_pos_ns,0,0,0,0,,,,,,,,,,,,,,,,,,,,,0,18,18,2,,,,,,,,,,,,,,,,,,,,,,,,,,,117,reward,,,,,,1144.554804699961,1144.554804699961,1144.554804699961,1144.554804699961,0,,,0,,,1,0.02565919980406761,0.5179864997044206,0,,,1145.5756427999586,1145.5756427999586,1145.5756427999586,1145.5756427999586,3,A,2024-04-08_13h19.56.367,attentional_competition_task,2022.2.4,143.9416407683688,
positions.xlsx,positions_test.xlsx,positions_test_new.xlsx,stimuli.xlsx,stimuli_new.xlsx,stimuli/Social1.png,stimuli/Social2.png,stimuli/Nonsocial1.png,stimuli/Nonsocial2.png,stimuli/Social3.png,stimuli/Social4.png,stimuli/Nonsocial3.png,stimuli/Nonsocial4.png,,,"(-0.7, -0.5)",cs_neg_s,"(-0.7, 0.5)",cs_pos_ns,"(0.7, -0.5)",cs_pos_s,"(0.7, 0.5)",cs_neg_ns,0,0,0,0,,,,,,,,,,,,,,,,,,,,,0,19,19,4,,,,,,,,,,,,,,,,,,,,,,,,,,,123,reward,,,,,,1153.9086394999176,1153.9086394999176,1153.9086394999176,1153.9086394999176,0,,,1,0.025923199951648712,0.025927500333637,0,,,0,,,1153.9086394999176,1153.9086394999176,1153.9086394999176,1153.9086394999176,3,A,2024-04-08_13h19.56.367,attentional_competition_task,2022.2.4,143.9416407683688,
positions.xlsx,positions_test.xlsx,positions_test_new.xlsx,stimuli.xlsx,stimuli_new.xlsx,stimuli/Social1.png,stimuli/Social2.png,stimuli/Nonsocial1.png,stimuli/Nonsocial2.png,stimuli/Social3.png,stimuli/Social4.png,stimuli/Nonsocial3.png,stimuli/Nonsocial4.png,,,"(-0.7, -0.5)",cs_neg_ns,"(-0.7, 0.5)",cs_pos_ns,"(0.7, -0.5)",cs_neg_s,"(0.7, 0.5)",cs_pos_s,0,0,0,0,,,,,,,,,,,,,,,,,,,,,0,20,20,17,,,,,,,,,,,,,,,,,,,,,,,,,,,123,reward,,,,,,1161.9430137998424,1161.9430137998424,1161.9430137998424,1161.9430137998424,0,,,1,0.02277339994907379,0.022776899859309196,0,,,0,,,1161.9430137998424,1161.9430137998424,1161.9430137998424,1161.9430137998424,3,A,2024-04-08_13h19.56.367,attentional_competition_task,2022.2.4,143.9416407683688,
positions.xlsx,positions_test.xlsx,positions_test_new.xlsx,stimuli.xlsx,stimuli_new.xlsx,stimuli/Social1.png,stimuli/Social2.png,stimuli/Nonsocial1.png,stimuli/Nonsocial2.png,stimuli/Social3.png,stimuli/Social4.png,stimuli/Nonsocial3.png,stimuli/Nonsocial4.png,,,"(-0.7, -0.5)",cs_neg_s,"(-0.7, 0.5)",cs_pos_ns,"(0.7, -0.5)",cs_neg_ns,"(0.7, 0.5)",cs_pos_s,0,0,0,0,,,,,,,,,,,,,,,,,,,,,0,21,21,5,,,,,,,,,,,,,,,,,,,,,,,,,,,132,reward,,,,,,1170.8940526000224,1170.8940526000224,1170.8940526000224,1170.8940526000224,0,,,1,0.02977610006928444,0.18998739961534739,0,,,0,,,1171.6648869998753,1171.6648869998753,1171.6648869998753,1171.6648869998753,3,A,2024-04-08_13h19.56.367,attentional_competition_task,2022.2.4,143.9416407683688,
positions.xlsx,positions_test.xlsx,positions_test_new.xlsx,stimuli.xlsx,stimuli_new.xlsx,stimuli/Social1.png,stimuli/Social2.png,stimuli/Nonsocial1.png,stimuli/Nonsocial2.png,stimuli/Social3.png,stimuli/Social4.png,stimuli/Nonsocial3.png,stimuli/Nonsocial4.png,,,"(-0.7, -0.5)",cs_neg_ns,"(-0.7, 0.5)",cs_neg_s,"(0.7, -0.5)",cs_pos_s,"(0.7, 0.5)",cs_pos_ns,0,0,0,0,,,,,,,,,,,,,,,,,,,,,0,22,22,14,,,,,,,,,,,,,,,,,,,,,,,,,,,141,reward,,,,,,1179.0534732998349,1179.0534732998349,1179.0534732998349,1179.0534732998349,0,,,0,,,1,0.02415479999035597,0.38558109989389777,0,,,1179.942315499764,1179.942315499764,1179.942315499764,1179.942315499764,3,A,2024-04-08_13h19.56.367,attentional_competition_task,2022.2.4,143.9416407683688,
positions.xlsx,positions_test.xlsx,positions_test_new.xlsx,stimuli.xlsx,stimuli_new.xlsx,stimuli/Social1.png,stimuli/Social2.png,stimuli/Nonsocial1.png,stimuli/Nonsocial2.png,stimuli/Social3.png,stimuli/Social4.png,stimuli/Nonsocial3.png,stimuli/Nonsocial4.png,,,"(-0.7, -0.5)",cs_neg_ns,"(-0.7, 0.5)",cs_pos_s,"(0.7, -0.5)",cs_neg_s,"(0.7, 0.5)",cs_pos_ns,0,0,0,0,,,,,,,,,,,,,,,,,,,,,0,23,23,12,,,,,,,,,,,,,,,,,,,,,,,,,,,144,loss,,,,,,1187.9072328996845,1187.9072328996845,1187.9072328996845,1187.9072328996845,0,,,0,,,1,0.11876250011846423,0.11876620026305318,0,,,1188.0322246998549,1188.0322246998549,1188.0322246998549,1188.0322246998549,3,A,2024-04-08_13h19.56.367,attentional_competition_task,2022.2.4,143.9416407683688,
positions.xlsx,positions_test.xlsx,positions_test_new.xlsx,stimuli.xlsx,stimuli_new.xlsx,stimuli/Social1.png,stimuli/Social2.png,stimuli/Nonsocial1.png,stimuli/Nonsocial2.png,stimuli/Social3.png,stimuli/Social4.png,stimuli/Nonsocial3.png,stimuli/Nonsocial4.png,,,"(-0.7, -0.5)",cs_neg_s,"(-0.7, 0.5)",cs_pos_ns,"(0.7, -0.5)",cs_neg_ns,"(0.7, 0.5)",cs_pos_s,0,0,0,0,,,,,,,,,,,,,,,,,,,,,1,0,24,5,,,,,,,,,,,,,,,,,,,,,,,,,,,150,reward,,,,,,1196.6430306998082,1196.6430306998082,1196.6430306998082,1196.6430306998082,0,,,0,,,0,,,1,0.026047599967569113,0.14326140005141497,1197.288866700139,1197.288866700139,1197.288866700139,1197.288866700139,3,A,2024-04-08_13h19.56.367,attentional_competition_task,2022.2.4,143.9416407683688,
positions.xlsx,positions_test.xlsx,positions_test_new.xlsx,stimuli.xlsx,stimuli_new.xlsx,stimuli/Social1.png,stimuli/Social2.png,stimuli/Nonsocial1.png,stimuli/Nonsocial2.png,stimuli/Social3.png,stimuli/Social4.png,stimuli/Nonsocial3.png,stimuli/Nonsocial4.png,,,"(-0.7, -0.5)",cs_neg_ns,"(-0.7, 0.5)",cs_pos_ns,"(0.7, -0.5)",cs_pos_s,"(0.7, 0.5)",cs_neg_s,0,0,0,0,,,,,,,,,,,,,,,,,,,,,1,1,25,16,,,,,,,,,,,,,,,,,,,,,,,,,,,156,reward,,,,,,1206.3023660001345,1206.3023660001345,1206.3023660001345,1206.3023660001345,0,,,0,,,0,,,0,,,1206.3023660001345,1206.3023660001345,1206.3023660001345,1206.3023660001345,3,A,2024-04-08_13h19.56.367,attentional_competition_task,2022.2.4,143.9416407683688,
positions.xlsx,positions_test.xlsx,positions_test_new.xlsx,stimuli.xlsx,stimuli_new.xlsx,stimuli/Social1.png,stimuli/Social2.png,stimuli/Nonsocial1.png,stimuli/Nonsocial2.png,stimuli/Social3.png,stimuli/Social4.png,stimuli/Nonsocial3.png,stimuli/Nonsocial4.png,,,"(-0.7, -0.5)",cs_neg_ns,"(-0.7, 0.5)",cs_pos_ns,"(0.7, -0.5)",cs_neg_s,"(0.7, 0.5)",cs_pos_s,0,0,0,0,,,,,,,,,,,,,,,,,,,,,1,2,26,17,,,,,,,,,,,,,,,,,,,,,,,,,,,165,reward,,,,,,1214.3575911996886,1214.3575911996886,1214.3575911996886,1214.3575911996886,0,,,1,0.03013289999216795,0.21052280021831393,0,,,0,,,1215.2187184998766,1215.2187184998766,1215.2187184998766,1215.2187184998766,3,A,2024-04-08_13h19.56.367,attentional_competition_task,2022.2.4,143.9416407683688,
positions.xlsx,positions_test.xlsx,positions_test_new.xlsx,stimuli.xlsx,stimuli_new.xlsx,stimuli/Social1.png,stimuli/Social2.png,stimuli/Nonsocial1.png,stimuli/Nonsocial2.png,stimuli/Social3.png,stimuli/Social4.png,stimuli/Nonsocial3.png,stimuli/Nonsocial4.png,,,"(-0.7, -0.5)",cs_pos_ns,"(-0.7, 0.5)",cs_neg_ns,"(0.7, -0.5)",cs_pos_s,"(0.7, 0.5)",cs_neg_s,0,0,0,0,,,,,,,,,,,,,,,,,,,,,1,3,27,20,,,,,,,,,,,,,,,,,,,,,,,,,,,168,reward,,,,,,1222.3156242999248,1222.3156242999248,1222.3156242999248,1222.3156242999248,0,,,0,,,1,0.0248968000523746,0.024900400079786777,0,,,1222.3156242999248,1222.3156242999248,1222.3156242999248,1222.3156242999248,3,A,2024-04-08_13h19.56.367,attentional_competition_task,2022.2.4,143.9416407683688,
positions.xlsx,positions_test.xlsx,positions_test_new.xlsx,stimuli.xlsx,stimuli_new.xlsx,stimuli/Social1.png,stimuli/Social2.png,stimuli/Nonsocial1.png,stimuli/Nonsocial2.png,stimuli/Social3.png,stimuli/Social4.png,stimuli/Nonsocial3.png,stimuli/Nonsocial4.png,,,"(-0.7, -0.5)",cs_neg_s,"(-0.7, 0.5)",cs_pos_s,"(0.7, -0.5)",cs_pos_ns,"(0.7, 0.5)",cs_neg_ns,0,0,0,0,,,,,,,,,,,,,,,,,,,,,1,4,28,1,,,,,,,,,,,,,,,,,,,,,,,,,,,171,reward,,,,,,1230.7597141000442,1230.7597141000442,1230.7597141000442,1230.7597141000442,0,,,1,0.0249439999461174,0.024962699972093105,0,,,0,,,1230.7597141000442,1230.7597141000442,1230.7597141000442,1230.7597141000442,3,A,2024-04-08_13h19.56.367,attentional_competition_task,2022.2.4,143.9416407683688,
positions.xlsx,positions_test.xlsx,positions_test_new.xlsx,stimuli.xlsx,stimuli_new.xlsx,stimuli/Social1.png,stimuli/Social2.png,stimuli/Nonsocial1.png,stimuli/Nonsocial2.png,stimuli/Social3.png,stimuli/Social4.png,stimuli/Nonsocial3.png,stimuli/Nonsocial4.png,,,"(-0.7, -0.5)",cs_pos_s,"(-0.7, 0.5)",cs_neg_s,"(0.7, -0.5)",cs_neg_ns,"(0.7, 0.5)",cs_pos_ns,0,0,0,0,,,,,,,,,,,,,,,,,,,,,1,5,29,6,,,,,,,,,,,,,,,,,,,,,,,,,,,177,reward,,,,,,1239.085784799885,1239.085784799885,1239.085784799885,1239.085784799885,0,,,0,,,0,,,1,0.031279100105166435,0.15623349975794554,1239.738561999984,1239.738561999984,1239.738561999984,1239.738561999984,3,A,2024-04-08_13h19.56.367,attentional_competition_task,2022.2.4,143.9416407683688,
positions.xlsx,positions_test.xlsx,positions_test_new.xlsx,stimuli.xlsx,stimuli_new.xlsx,stimuli/Social1.png,stimuli/Social2.png,stimuli/Nonsocial1.png,stimuli/Nonsocial2.png,stimuli/Social3.png,stimuli/Social4.png,stimuli/Nonsocial3.png,stimuli/Nonsocial4.png,,,"(-0.7, -0.5)",cs_pos_s,"(-0.7, 0.5)",cs_neg_s,"(0.7, -0.5)",cs_pos_ns,"(0.7, 0.5)",cs_neg_ns,0,0,0,0,,,,,,,,,,,,,,,,,,,,,1,6,30,7,,,,,,,,,,,,,,,,,,,,,,,,,,,177,reward,,,,,,1247.1757861999795,1247.1757861999795,1247.1757861999795,1247.1757861999795,0,,,0,,,1,0.026780399959534407,0.026784199755638838,0,,,1247.1757861999795,1247.1757861999795,1247.1757861999795,1247.1757861999795,3,A,2024-04-08_13h19.56.367,attentional_competition_task,2022.2.4,143.9416407683688,
positions.xlsx,positions_test.xlsx,positions_test_new.xlsx,stimuli.xlsx,stimuli_new.xlsx,stimuli/Social1.png,stimuli/Social2.png,stimuli/Nonsocial1.png,stimuli/Nonsocial2.png,stimuli/Social3.png,stimuli/Social4.png,stimuli/Nonsocial3.png,stimuli/Nonsocial4.png,,,"(-0.7, -0.5)",cs_pos_s,"(-0.7, 0.5)",cs_neg_ns,"(0.7, -0.5)",cs_pos_ns,"(0.7, 0.5)",cs_neg_s,0,0,0,0,,,,,,,,,,,,,,,,,,,,,1,7,31,9,,,,,,,,,,,,,,,,,,,,,,,,,,,180,reward,,,,,,1254.7656831000932,1254.7656831000932,1254.7656831000932,1254.7656831000932,0,,,0,,,1,0.02355419984087348,0.023557899985462427,0,,,1254.7656831000932,1254.7656831000932,1254.7656831000932,1254.7656831000932,3,A,2024-04-08_13h19.56.367,attentional_competition_task,2022.2.4,143.9416407683688,
positions.xlsx,positions_test.xlsx,positions_test_new.xlsx,stimuli.xlsx,stimuli_new.xlsx,stimuli/Social1.png,stimuli/Social2.png,stimuli/Nonsocial1.png,stimuli/Nonsocial2.png,stimuli/Social3.png,stimuli/Social4.png,stimuli/Nonsocial3.png,stimuli/Nonsocial4.png,,,"(-0.7, -0.5)",cs_neg_ns,"(-0.7, 0.5)",cs_pos_s,"(0.7, -0.5)",cs_pos_ns,"(0.7, 0.5)",cs_neg_s,0,0,0,0,,,,,,,,,,,,,,,,,,,,,1,8,32,13,,,,,,,,,,,,,,,,,,,,,,,,,,,189,reward,,,,,,1263.6195260998793,1263.6195260998793,1263.6195260998793,1263.6195260998793,0,,,1,0.022184799890965223,0.0378363998606801,0,,,0,,,1264.1681894999929,1264.1681894999929,1264.1681894999929,1264.1681894999929,3,A,2024-04-08_13h19.56.367,attentional_competition_task,2022.2.4,143.9416407683688,
positions.xlsx,positions_test.xlsx,positions_test_new.xlsx,stimuli.xlsx,stimuli_new.xlsx,stimuli/Social1.png,stimuli/Social2.png,stimuli/Nonsocial1.png,stimuli/Nonsocial2.png,stimuli/Social3.png,stimuli/Social4.png,stimuli/Nonsocial3.png,stimuli/Nonsocial4.png,,,"(-0.7, -0.5)",cs_neg_s,"(-0.7, 0.5)",cs_neg_ns,"(0.7, -0.5)",cs_pos_ns,"(0.7, 0.5)",cs_pos_s,0,0,0,0,,,,,,,,,,,,,,,,,,,,,1,9,33,3,,,,,,,,,,,,,,,,,,,,,,,,,,,198,reward,,,,,,1271.8136597000994,1271.8136597000994,1271.8136597000994,1271.8136597000994,0,,,0,,,0,,,0,,,1272.758085299749,1272.758085299749,1272.758085299749,1272.758085299749,3,A,2024-04-08_13h19.56.367,attentional_competition_task,2022.2.4,143.9416407683688,
positions.xlsx,positions_test.xlsx,positions_test_new.xlsx,stimuli.xlsx,stimuli_new.xlsx,stimuli/Social1.png,stimuli/Social2.png,stimuli/Nonsocial1.png,stimuli/Nonsocial2.png,stimuli/Social3.png,stimuli/Social4.png,stimuli/Nonsocial3.png,stimuli/Nonsocial4.png,,,"(-0.7, -0.5)",cs_pos_ns,"(-0.7, 0.5)",cs_neg_s,"(0.7, -0.5)",cs_neg_ns,"(0.7, 0.5)",cs_pos_s,0,0,0,0,,,,,,,,,,,,,,,,,,,,,1,10,34,23,,,,,,,,,,,,,,,,,,,,,,,,,,,204,reward,,,,,,1280.6188316000625,1280.6188316000625,1280.6188316000625,1280.6188316000625,0,,,0,,,0,,,0,,,1281.2577444999479,1281.2577444999479,1281.2577444999479,1281.2577444999479,3,A,2024-04-08_13h19.56.367,attentional_competition_task,2022.2.4,143.9416407683688,
positions.xlsx,positions_test.xlsx,positions_test_new.xlsx,stimuli.xlsx,stimuli_new.xlsx,stimuli/Social1.png,stimuli/Social2.png,stimuli/Nonsocial1.png,stimuli/Nonsocial2.png,stimuli/Social3.png,stimuli/Social4.png,stimuli/Nonsocial3.png,stimuli/Nonsocial4.png,,,"(-0.7, -0.5)",cs_neg_s,"(-0.7, 0.5)",cs_pos_s,"(0.7, -0.5)",cs_neg_ns,"(0.7, 0.5)",cs_pos_ns,0,0,0,0,,,,,,,,,,,,,,,,,,,,,1,11,35,0,,,,,,,,,,,,,,,,,,,,,,,,,,,213,reward,,,,,,1289.1393848001026,1289.1393848001026,1289.1393848001026,1289.1393848001026,0,,,0,,,0,,,0,,,1290.0143401999958,1290.0143401999958,1290.0143401999958,1290.0143401999958,3,A,2024-04-08_13h19.56.367,attentional_competition_task,2022.2.4,143.9416407683688,
positions.xlsx,positions_test.xlsx,positions_test_new.xlsx,stimuli.xlsx,stimuli_new.xlsx,stimuli/Social1.png,stimuli/Social2.png,stimuli/Nonsocial1.png,stimuli/Nonsocial2.png,stimuli/Social3.png,stimuli/Social4.png,stimuli/Nonsocial3.png,stimuli/Nonsocial4.png,,,"(-0.7, -0.5)",cs_pos_s,"(-0.7, 0.5)",cs_pos_ns,"(0.7, -0.5)",cs_neg_ns,"(0.7, 0.5)",cs_neg_s,0,0,0,0,,,,,,,,,,,,,,,,,,,,,1,12,36,11,,,,,,,,,,,,,,,,,,,,,,,,,,,222,reward,,,,,,1298.2223199000582,1298.2223199000582,1298.2223199000582,1298.2223199000582,0,,,0,,,0,,,0,,,1298.9514945996925,1298.9514945996925,1298.9514945996925,1298.9514945996925,3,A,2024-04-08_13h19.56.367,attentional_competition_task,2022.2.4,143.9416407683688,
positions.xlsx,positions_test.xlsx,positions_test_new.xlsx,stimuli.xlsx,stimuli_new.xlsx,stimuli/Social1.png,stimuli/Social2.png,stimuli/Nonsocial1.png,stimuli/Nonsocial2.png,stimuli/Social3.png,stimuli/Social4.png,stimuli/Nonsocial3.png,stimuli/Nonsocial4.png,,,"(-0.7, -0.5)",cs_pos_ns,"(-0.7, 0.5)",cs_pos_s,"(0.7, -0.5)",cs_neg_s,"(0.7, 0.5)",cs_neg_ns,0,0,0,0,,,,,,,,,,,,,,,,,,,,,1,13,37,19,,,,,,,,,,,,,,,,,,,,,,,,,,,225,reward,,,,,,1307.076260900125,1307.076260900125,1307.076260900125,1307.076260900125,1,0.03041409980505705,0.030417799949645996,0,,,0,,,0,,,1307.076260900125,1307.076260900125,1307.076260900125,1307.076260900125,3,A,2024-04-08_13h19.56.367,attentional_competition_task,2022.2.4,143.9416407683688,
positions.xlsx,positions_test.xlsx,positions_test_new.xlsx,stimuli.xlsx,stimuli_new.xlsx,stimuli/Social1.png,stimuli/Social2.png,stimuli/Nonsocial1.png,stimuli/Nonsocial2.png,stimuli/Social3.png,stimuli/Social4.png,stimuli/Nonsocial3.png,stimuli/Nonsocial4.png,,,"(-0.7, -0.5)",cs_neg_ns,"(-0.7, 0.5)",cs_neg_s,"(0.7, -0.5)",cs_pos_ns,"(0.7, 0.5)",cs_pos_s,0,0,0,0,,,,,,,,,,,,,,,,,,,,,1,14,38,15,,,,,,,,,,,,,,,,,,,,,,,,,,,225,reward,,,,,,1314.7078007999808,1314.7078007999808,1314.7078007999808,1314.7078007999808,0,,,0,,,1,0.03279889980331063,0.03280299995094538,0,,,1314.7078007999808,1314.7078007999808,1314.7078007999808,1314.7078007999808,3,A,2024-04-08_13h19.56.367,attentional_competition_task,2022.2.4,143.9416407683688,
positions.xlsx,positions_test.xlsx,positions_test_new.xlsx,stimuli.xlsx,stimuli_new.xlsx,stimuli/Social1.png,stimuli/Social2.png,stimuli/Nonsocial1.png,stimuli/Nonsocial2.png,stimuli/Social3.png,stimuli/Social4.png,stimuli/Nonsocial3.png,stimuli/Nonsocial4.png,,,"(-0.7, -0.5)",cs_pos_s,"(-0.7, 0.5)",cs_pos_ns,"(0.7, -0.5)",cs_neg_s,"(0.7, 0.5)",cs_neg_ns,0,0,0,0,,,,,,,,,,,,,,,,,,,,,1,15,39,10,,,,,,,,,,,,,,,,,,,,,,,,,,,225,reward,,,,,,1322.7977052996866,1322.7977052996866,1322.7977052996866,1322.7977052996866,1,0.029011199716478586,0.02901519974693656,0,,,0,,,0,,,1322.7977052996866,1322.7977052996866,1322.7977052996866,1322.7977052996866,3,A,2024-04-08_13h19.56.367,attentional_competition_task,2022.2.4,143.9416407683688,
positions.xlsx,positions_test.xlsx,positions_test_new.xlsx,stimuli.xlsx,stimuli_new.xlsx,stimuli/Social1.png,stimuli/Social2.png,stimuli/Nonsocial1.png,stimuli/Nonsocial2.png,stimuli/Social3.png,stimuli/Social4.png,stimuli/Nonsocial3.png,stimuli/Nonsocial4.png,,,"(-0.7, -0.5)",cs_pos_ns,"(-0.7, 0.5)",cs_neg_s,"(0.7, -0.5)",cs_pos_s,"(0.7, 0.5)",cs_neg_ns,0,0,0,0,,,,,,,,,,,,,,,,,,,,,1,16,40,22,,,,,,,,,,,,,,,,,,,,,,,,,,,231,reward,,,,,,1331.054379899986,1331.054379899986,1331.054379899986,1331.054379899986,0,,,0,,,1,0.03102019988000393,0.3275660998187959,0,,,1331.880741099827,1331.880741099827,1331.880741099827,1331.880741099827,3,A,2024-04-08_13h19.56.367,attentional_competition_task,2022.2.4,143.9416407683688,
positions.xlsx,positions_test.xlsx,positions_test_new.xlsx,stimuli.xlsx,stimuli_new.xlsx,stimuli/Social1.png,stimuli/Social2.png,stimuli/Nonsocial1.png,stimuli/Nonsocial2.png,stimuli/Social3.png,stimuli/Social4.png,stimuli/Nonsocial3.png,stimuli/Nonsocial4.png,,,"(-0.7, -0.5)",cs_neg_ns,"(-0.7, 0.5)",cs_pos_s,"(0.7, -0.5)",cs_neg_s,"(0.7, 0.5)",cs_pos_ns,0,0,0,0,,,,,,,,,,,,,,,,,,,,,1,17,41,12,,,,,,,,,,,,,,,,,,,,,,,,,,,234,loss,,,,,,1340.0678924997337,1340.0678924997337,1340.0678924997337,1340.0678924997337,0,,,0,,,1,0.16897789994254708,0.16898160008713603,0,,,1340.2275749999098,1340.2275749999098,1340.2275749999098,1340.2275749999098,3,A,2024-04-08_13h19.56.367,attentional_competition_task,2022.2.4,143.9416407683688,
positions.xlsx,positions_test.xlsx,positions_test_new.xlsx,stimuli.xlsx,stimuli_new.xlsx,stimuli/Social1.png,stimuli/Social2.png,stimuli/Nonsocial1.png,stimuli/Nonsocial2.png,stimuli/Social3.png,stimuli/Social4.png,stimuli/Nonsocial3.png,stimuli/Nonsocial4.png,,,"(-0.7, -0.5)",cs_pos_ns,"(-0.7, 0.5)",cs_pos_s,"(0.7, -0.5)",cs_neg_ns,"(0.7, 0.5)",cs_neg_s,0,0,0,0,,,,,,,,,,,,,,,,,,,,,1,18,42,18,,,,,,,,,,,,,,,,,,,,,,,,,,,237,loss,,,,,,1348.7273264001124,1348.7273264001124,1348.7273264001124,1348.7273264001124,1,0.031354499980807304,0.12078559957444668,0,,,1,0.4750669999048114,0.48225409956648946,0,,,1349.2064843000844,1349.2064843000844,1349.2064843000844,1349.2064843000844,3,A,2024-04-08_13h19.56.367,attentional_competition_task,2022.2.4,143.9416407683688,
positions.xlsx,positions_test.xlsx,positions_test_new.xlsx,stimuli.xlsx,stimuli_new.xlsx,stimuli/Social1.png,stimuli/Social2.png,stimuli/Nonsocial1.png,stimuli/Nonsocial2.png,stimuli/Social3.png,stimuli/Social4.png,stimuli/Nonsocial3.png,stimuli/Nonsocial4.png,,,"(-0.7, -0.5)",cs_neg_s,"(-0.7, 0.5)",cs_pos_ns,"(0.7, -0.5)",cs_pos_s,"(0.7, 0.5)",cs_neg_ns,0,0,0,0,,,,,,,,,,,,,,,,,,,,,1,19,43,4,,,,,,,,,,,,,,,,,,,,,,,,,,,240,reward,,,,,,1357.9838458998129,1357.9838458998129,1357.9838458998129,1357.9838458998129,0,,,0,,,1,0.02818719996139407,0.028191400226205587,0,,,1357.9838458998129,1357.9838458998129,1357.9838458998129,1357.9838458998129,3,A,2024-04-08_13h19.56.367,attentional_competition_task,2022.2.4,143.9416407683688,
positions.xlsx,positions_test.xlsx,positions_test_new.xlsx,stimuli.xlsx,stimuli_new.xlsx,stimuli/Social1.png,stimuli/Social2.png,stimuli/Nonsocial1.png,stimuli/Nonsocial2.png,stimuli/Social3.png,stimuli/Social4.png,stimuli/Nonsocial3.png,stimuli/Nonsocial4.png,,,"(-0.7, -0.5)",cs_pos_s,"(-0.7, 0.5)",cs_neg_ns,"(0.7, -0.5)",cs_neg_s,"(0.7, 0.5)",cs_pos_ns,0,0,0,0,,,,,,,,,,,,,,,,,,,,,1,20,44,8,,,,,,,,,,,,,,,,,,,,,,,,,,,243,reward,,,,,,1366.1849297001027,1366.1849297001027,1366.1849297001027,1366.1849297001027,0,,,0,,,0,,,1,0.030806399881839752,0.030810300260782242,1366.1849297001027,1366.1849297001027,1366.1849297001027,1366.1849297001027,3,A,2024-04-08_13h19.56.367,attentional_competition_task,2022.2.4,143.9416407683688,
positions.xlsx,positions_test.xlsx,positions_test_new.xlsx,stimuli.xlsx,stimuli_new.xlsx,stimuli/Social1.png,stimuli/Social2.png,stimuli/Nonsocial1.png,stimuli/Nonsocial2.png,stimuli/Social3.png,stimuli/Social4.png,stimuli/Nonsocial3.png,stimuli/Nonsocial4.png,,,"(-0.7, -0.5)",cs_neg_ns,"(-0.7, 0.5)",cs_neg_s,"(0.7, -0.5)",cs_pos_s,"(0.7, 0.5)",cs_pos_ns,0,0,0,0,,,,,,,,,,,,,,,,,,,,,1,21,45,14,,,,,,,,,,,,,,,,,,,,,,,,,,,243,reward,,,,,,1375.3095452999696,1375.3095452999696,1375.3095452999696,1375.3095452999696,0,,,0,,,1,0.028120599687099457,0.028124399948865175,0,,,1375.3095452999696,1375.3095452999696,1375.3095452999696,1375.3095452999696,3,A,2024-04-08_13h19.56.367,attentional_competition_task,2022.2.4,143.9416407683688,
positions.xlsx,positions_test.xlsx,positions_test_new.xlsx,stimuli.xlsx,stimuli_new.xlsx,stimuli/Social1.png,stimuli/Social2.png,stimuli/Nonsocial1.png,stimuli/Nonsocial2.png,stimuli/Social3.png,stimuli/Social4.png,stimuli/Nonsocial3.png,stimuli/Nonsocial4.png,,,"(-0.7, -0.5)",cs_neg_s,"(-0.7, 0.5)",cs_neg_ns,"(0.7, -0.5)",cs_pos_s,"(0.7, 0.5)",cs_pos_ns,0,0,0,0,,,,,,,,,,,,,,,,,,,,,1,22,46,2,,,,,,,,,,,,,,,,,,,,,,,,,,,252,reward,,,,,,1383.2467951998115,1383.2467951998115,1383.2467951998115,1383.2467951998115,0,,,0,,,1,0.02869450021535158,0.5421715001575649,0,,,1384.2883648998104,1384.2883648998104,1384.2883648998104,1384.2883648998104,3,A,2024-04-08_13h19.56.367,attentional_competition_task,2022.2.4,143.9416407683688,
positions.xlsx,positions_test.xlsx,positions_test_new.xlsx,stimuli.xlsx,stimuli_new.xlsx,stimuli/Social1.png,stimuli/Social2.png,stimuli/Nonsocial1.png,stimuli/Nonsocial2.png,stimuli/Social3.png,stimuli/Social4.png,stimuli/Nonsocial3.png,stimuli/Nonsocial4.png,,,"(-0.7, -0.5)",cs_pos_ns,"(-0.7, 0.5)",cs_neg_ns,"(0.7, -0.5)",cs_neg_s,"(0.7, 0.5)",cs_pos_s,0,0,0,0,,,,,,,,,,,,,,,,,,,,,1,23,47,21,,,,,,,,,,,,,,,,,,,,,,,,,,,249,loss,,,,,,1392.2255611997098,1392.2255611997098,1392.2255611997098,1392.2255611997098,0,,,1,0.029958299826830626,0.0299618998542428,0,,,0,,,1392.2255611997098,1392.2255611997098,1392.2255611997098,1392.2255611997098,3,A,2024-04-08_13h19.56.367,attentional_competition_task,2022.2.4,143.9416407683688,
positions.xlsx,positions_test.xlsx,positions_test_new.xlsx,stimuli.xlsx,stimuli_new.xlsx,stimuli/Social1.png,stimuli/Social2.png,stimuli/Nonsocial1.png,stimuli/Nonsocial2.png,stimuli/Social3.png,stimuli/Social4.png,stimuli/Nonsocial3.png,stimuli/Nonsocial4.png,,,"(-0.7, -0.5)",cs_pos_ns,"(-0.7, 0.5)",cs_neg_ns,"(0.7, -0.5)",cs_neg_s_new,"(0.7, 0.5)",cs_pos_s,0,0,0,0,,,,,,,,,,,,,,,,,,,,,,,,,,,,,0,0,0,11,0,0,0,0,,,,,,,,,,,,,,,252,reward,,,,,,1399.1558388001285,1399.1558388001285,1399.1558388001285,1399.1558388001285,1,0.4254422001540661,0.4254459999501705,0,,,0,,,0,,,1399.58637299994,1399.58637299994,1399.58637299994,1399.58637299994,3,A,2024-04-08_13h19.56.367,attentional_competition_task,2022.2.4,143.9416407683688,
positions.xlsx,positions_test.xlsx,positions_test_new.xlsx,stimuli.xlsx,stimuli_new.xlsx,stimuli/Social1.png,stimuli/Social2.png,stimuli/Nonsocial1.png,stimuli/Nonsocial2.png,stimuli/Social3.png,stimuli/Social4.png,stimuli/Nonsocial3.png,stimuli/Nonsocial4.png,,,"(-0.7, -0.5)",cs_pos_ns,"(-0.7, 0.5)",cs_neg_ns,"(0.7, -0.5)",cs_neg_s_new,"(0.7, 0.5)",cs_pos_s,0,0,0,0,,,,,,,,,,,,,,,,,,,,,,,,,,,,,0,0,0,11,1,0,1,0,,,,,,,,,,,,,,,255,reward,,,,,,1400.1280359998345,1400.1280359998345,1400.1280359998345,1400.1280359998345,0,,,0,,,0,,,1,0.029881100170314312,0.029884499963372946,1400.1280359998345,1400.1280359998345,1400.1280359998345,1400.1280359998345,3,A,2024-04-08_13h19.56.367,attentional_competition_task,2022.2.4,143.9416407683688,
positions.xlsx,positions_test.xlsx,positions_test_new.xlsx,stimuli.xlsx,stimuli_new.xlsx,stimuli/Social1.png,stimuli/Social2.png,stimuli/Nonsocial1.png,stimuli/Nonsocial2.png,stimuli/Social3.png,stimuli/Social4.png,stimuli/Nonsocial3.png,stimuli/Nonsocial4.png,,,"(-0.7, -0.5)",cs_pos_ns,"(-0.7, 0.5)",cs_neg_ns,"(0.7, -0.5)",cs_neg_s_new,"(0.7, 0.5)",cs_pos_s,0,0,0,0,,,,,,,,,,,,,,,,,,,,,,,,,,,,,0,0,0,11,2,0,2,0,,,,,,,,,,,,,,,252,loss,,,,,,1400.6279917997308,1400.6279917997308,1400.6279917997308,1400.6279917997308,0,,,0,,,1,0.5293221999891102,0.5293256998993456,1,0.031073899939656258,0.057634999975562096,1401.6557665998116,1401.6557665998116,1401.6557665998116,1401.6557665998116,3,A,2024-04-08_13h19.56.367,attentional_competition_task,2022.2.4,143.9416407683688,
positions.xlsx,positions_test.xlsx,positions_test_new.xlsx,stimuli.xlsx,stimuli_new.xlsx,stimuli/Social1.png,stimuli/Social2.png,stimuli/Nonsocial1.png,stimuli/Nonsocial2.png,stimuli/Social3.png,stimuli/Social4.png,stimuli/Nonsocial3.png,stimuli/Nonsocial4.png,,,"(-0.7, -0.5)",cs_pos_ns,"(-0.7, 0.5)",cs_neg_ns,"(0.7, -0.5)",cs_neg_s_new,"(0.7, 0.5)",cs_pos_s,0,0,0,0,,,,,,,,,,,,,,,,,,,,,,,,,,,,,0,0,0,11,,,,,,,,,,,,,,,,,,,,,,,,,,,,,,,,,,,,,,,,,,,,,,3,A,2024-04-08_13h19.56.367,attentional_competition_task,2022.2.4,143.9416407683688,
positions.xlsx,positions_test.xlsx,positions_test_new.xlsx,stimuli.xlsx,stimuli_new.xlsx,stimuli/Social1.png,stimuli/Social2.png,stimuli/Nonsocial1.png,stimuli/Nonsocial2.png,stimuli/Social3.png,stimuli/Social4.png,stimuli/Nonsocial3.png,stimuli/Nonsocial4.png,,,"(-0.7, -0.5)",cs_neg_ns,"(-0.7, 0.5)",cs_neg_s_new,"(0.7, -0.5)",cs_pos_ns,"(0.7, 0.5)",cs_pos_s,0,0,0,0,,,,,,,,,,,,,,,,,,,,,,,,,,,,,0,1,1,14,0,0,0,0,,,,,,,,,,,,,,,255,reward,,,,,,1407.2041178997606,1407.2041178997606,1407.2041178997606,1407.2041178997606,0,,,0,,,0,,,1,0.3223711000755429,0.32237489987164736,1407.5305218999274,1407.5305218999274,1407.5305218999274,1407.5305218999274,3,A,2024-04-08_13h19.56.367,attentional_competition_task,2022.2.4,143.9416407683688,
positions.xlsx,positions_test.xlsx,positions_test_new.xlsx,stimuli.xlsx,stimuli_new.xlsx,stimuli/Social1.png,stimuli/Social2.png,stimuli/Nonsocial1.png,stimuli/Nonsocial2.png,stimuli/Social3.png,stimuli/Social4.png,stimuli/Nonsocial3.png,stimuli/Nonsocial4.png,,,"(-0.7, -0.5)",cs_neg_ns,"(-0.7, 0.5)",cs_neg_s_new,"(0.7, -0.5)",cs_pos_ns,"(0.7, 0.5)",cs_pos_s,0,0,0,0,,,,,,,,,,,,,,,,,,,,,,,,,,,,,0,1,1,14,1,0,1,0,,,,,,,,,,,,,,,258,reward,,,,,,1408.0652175000869,1408.0652175000869,1408.0652175000869,1408.0652175000869,0,,,0,,,1,0.029525000136345625,0.029528700280934572,0,,,1408.0652175000869,1408.0652175000869,1408.0652175000869,1408.0652175000869,3,A,2024-04-08_13h19.56.367,attentional_competition_task,2022.2.4,143.9416407683688,
positions.xlsx,positions_test.xlsx,positions_test_new.xlsx,stimuli.xlsx,stimuli_new.xlsx,stimuli/Social1.png,stimuli/Social2.png,stimuli/Nonsocial1.png,stimuli/Nonsocial2.png,stimuli/Social3.png,stimuli/Social4.png,stimuli/Nonsocial3.png,stimuli/Nonsocial4.png,,,"(-0.7, -0.5)",cs_neg_ns,"(-0.7, 0.5)",cs_neg_s_new,"(0.7, -0.5)",cs_pos_ns,"(0.7, 0.5)",cs_pos_s,0,0,0,0,,,,,,,,,,,,,,,,,,,,,,,,,,,,,0,1,1,14,2,0,2,0,,,,,,,,,,,,,,,261,reward,,,,,,1408.5651862998493,1408.5651862998493,1408.5651862998493,1408.5651862998493,0,,,0,,,1,0.024987800046801567,0.17664009984582663,0,,,1409.7179229999892,1409.7179229999892,1409.7179229999892,1409.7179229999892,3,A,2024-04-08_13h19.56.367,attentional_competition_task,2022.2.4,143.9416407683688,
positions.xlsx,positions_test.xlsx,positions_test_new.xlsx,stimuli.xlsx,stimuli_new.xlsx,stimuli/Social1.png,stimuli/Social2.png,stimuli/Nonsocial1.png,stimuli/Nonsocial2.png,stimuli/Social3.png,stimuli/Social4.png,stimuli/Nonsocial3.png,stimuli/Nonsocial4.png,,,"(-0.7, -0.5)",cs_neg_ns,"(-0.7, 0.5)",cs_neg_s_new,"(0.7, -0.5)",cs_pos_ns,"(0.7, 0.5)",cs_pos_s,0,0,0,0,,,,,,,,,,,,,,,,,,,,,,,,,,,,,0,1,1,14,,,,,,,,,,,,,,,,,,,,,,,,,,,,,,,,,,,,,,,,,,,,,,3,A,2024-04-08_13h19.56.367,attentional_competition_task,2022.2.4,143.9416407683688,
positions.xlsx,positions_test.xlsx,positions_test_new.xlsx,stimuli.xlsx,stimuli_new.xlsx,stimuli/Social1.png,stimuli/Social2.png,stimuli/Nonsocial1.png,stimuli/Nonsocial2.png,stimuli/Social3.png,stimuli/Social4.png,stimuli/Nonsocial3.png,stimuli/Nonsocial4.png,,,"(-0.7, -0.5)",cs_neg_s,"(-0.7, 0.5)",cs_pos_s,"(0.7, -0.5)",cs_neg_ns_new,"(0.7, 0.5)",cs_pos_ns,0,0,0,0,,,,,,,,,,,,,,,,,,,,,,,,,,,,,0,2,2,19,0,0,0,0,,,,,,,,,,,,,,,264,reward,,,,,,1415.4329733001068,1415.4329733001068,1415.4329733001068,1415.4329733001068,0,,,0,,,0,,,1,0.4055615998804569,0.40556539967656136,1415.842702199705,1415.842702199705,1415.842702199705,1415.842702199705,3,A,2024-04-08_13h19.56.367,attentional_competition_task,2022.2.4,143.9416407683688,
positions.xlsx,positions_test.xlsx,positions_test_new.xlsx,stimuli.xlsx,stimuli_new.xlsx,stimuli/Social1.png,stimuli/Social2.png,stimuli/Nonsocial1.png,stimuli/Nonsocial2.png,stimuli/Social3.png,stimuli/Social4.png,stimuli/Nonsocial3.png,stimuli/Nonsocial4.png,,,"(-0.7, -0.5)",cs_neg_s,"(-0.7, 0.5)",cs_pos_s,"(0.7, -0.5)",cs_neg_ns_new,"(0.7, 0.5)",cs_pos_ns,0,0,0,0,,,,,,,,,,,,,,,,,,,,,,,,,,,,,0,2,2,19,1,0,1,0,,,,,,,,,,,,,,,267,reward,,,,,,1416.3773841001093,1416.3773841001093,1416.3773841001093,1416.3773841001093,0,,,1,0.03126339986920357,0.03126729978248477,0,,,0,,,1416.3773841001093,1416.3773841001093,1416.3773841001093,1416.3773841001093,3,A,2024-04-08_13h19.56.367,attentional_competition_task,2022.2.4,143.9416407683688,
positions.xlsx,positions_test.xlsx,positions_test_new.xlsx,stimuli.xlsx,stimuli_new.xlsx,stimuli/Social1.png,stimuli/Social2.png,stimuli/Nonsocial1.png,stimuli/Nonsocial2.png,stimuli/Social3.png,stimuli/Social4.png,stimuli/Nonsocial3.png,stimuli/Nonsocial4.png,,,"(-0.7, -0.5)",cs_neg_s,"(-0.7, 0.5)",cs_pos_s,"(0.7, -0.5)",cs_neg_ns_new,"(0.7, 0.5)",cs_pos_ns,0,0,0,0,,,,,,,,,,,,,,,,,,,,,,,,,,,,,0,2,2,19,2,0,2,0,,,,,,,,,,,,,,,264,loss,,,,,,1416.8842970998958,1416.8842970998958,1416.8842970998958,1416.8842970998958,1,0.22366430005058646,0.22366779996082187,1,0.027440999634563923,0.04463299969211221,0,,,0,,,1417.1065063998103,1417.1065063998103,1417.1065063998103,1417.1065063998103,3,A,2024-04-08_13h19.56.367,attentional_competition_task,2022.2.4,143.9416407683688,
positions.xlsx,positions_test.xlsx,positions_test_new.xlsx,stimuli.xlsx,stimuli_new.xlsx,stimuli/Social1.png,stimuli/Social2.png,stimuli/Nonsocial1.png,stimuli/Nonsocial2.png,stimuli/Social3.png,stimuli/Social4.png,stimuli/Nonsocial3.png,stimuli/Nonsocial4.png,,,"(-0.7, -0.5)",cs_neg_s,"(-0.7, 0.5)",cs_pos_s,"(0.7, -0.5)",cs_neg_ns_new,"(0.7, 0.5)",cs_pos_ns,0,0,0,0,,,,,,,,,,,,,,,,,,,,,,,,,,,,,0,2,2,19,,,,,,,,,,,,,,,,,,,,,,,,,,,,,,,,,,,,,,,,,,,,,,3,A,2024-04-08_13h19.56.367,attentional_competition_task,2022.2.4,143.9416407683688,
positions.xlsx,positions_test.xlsx,positions_test_new.xlsx,stimuli.xlsx,stimuli_new.xlsx,stimuli/Social1.png,stimuli/Social2.png,stimuli/Nonsocial1.png,stimuli/Nonsocial2.png,stimuli/Social3.png,stimuli/Social4.png,stimuli/Nonsocial3.png,stimuli/Nonsocial4.png,,,"(-0.7, -0.5)",cs_pos_s,"(-0.7, 0.5)",cs_neg_s_new,"(0.7, -0.5)",cs_pos_ns,"(0.7, 0.5)",cs_neg_ns,0,0,0,0,,,,,,,,,,,,,,,,,,,,,,,,,,,,,0,3,3,8,0,0,0,0,,,,,,,,,,,,,,,261,loss,,,,,,1423.474298699759,1423.474298699759,1423.474298699759,1423.474298699759,0,,,0,,,0,,,1,0.26633800007402897,0.2663417002186179,1423.7521267998964,1423.7521267998964,1423.7521267998964,1423.7521267998964,3,A,2024-04-08_13h19.56.367,attentional_competition_task,2022.2.4,143.9416407683688,
positions.xlsx,positions_test.xlsx,positions_test_new.xlsx,stimuli.xlsx,stimuli_new.xlsx,stimuli/Social1.png,stimuli/Social2.png,stimuli/Nonsocial1.png,stimuli/Nonsocial2.png,stimuli/Social3.png,stimuli/Social4.png,stimuli/Nonsocial3.png,stimuli/Nonsocial4.png,,,"(-0.7, -0.5)",cs_pos_s,"(-0.7, 0.5)",cs_neg_s_new,"(0.7, -0.5)",cs_pos_ns,"(0.7, 0.5)",cs_neg_ns,0,0,0,0,,,,,,,,,,,,,,,,,,,,,,,,,,,,,0,3,3,8,1,0,1,0,,,,,,,,,,,,,,,264,reward,,,,,,1424.286814500112,1424.286814500112,1424.286814500112,1424.286814500112,0,,,0,,,1,0.02965709986165166,0.029660599771887064,0,,,1424.286814500112,1424.286814500112,1424.286814500112,1424.286814500112,3,A,2024-04-08_13h19.56.367,attentional_competition_task,2022.2.4,143.9416407683688,
positions.xlsx,positions_test.xlsx,positions_test_new.xlsx,stimuli.xlsx,stimuli_new.xlsx,stimuli/Social1.png,stimuli/Social2.png,stimuli/Nonsocial1.png,stimuli/Nonsocial2.png,stimuli/Social3.png,stimuli/Social4.png,stimuli/Nonsocial3.png,stimuli/Nonsocial4.png,,,"(-0.7, -0.5)",cs_pos_s,"(-0.7, 0.5)",cs_neg_s_new,"(0.7, -0.5)",cs_pos_ns,"(0.7, 0.5)",cs_neg_ns,0,0,0,0,,,,,,,,,,,,,,,,,,,,,,,,,,,,,0,3,3,8,2,0,2,0,,,,,,,,,,,,,,,261,loss,,,,,,1424.8076082998887,1424.8076082998887,1424.8076082998887,1424.8076082998887,0,,,1,0.022892700042575598,0.02289649983868003,0,,,0,,,1424.8076082998887,1424.8076082998887,1424.8076082998887,1424.8076082998887,3,A,2024-04-08_13h19.56.367,attentional_competition_task,2022.2.4,143.9416407683688,
positions.xlsx,positions_test.xlsx,positions_test_new.xlsx,stimuli.xlsx,stimuli_new.xlsx,stimuli/Social1.png,stimuli/Social2.png,stimuli/Nonsocial1.png,stimuli/Nonsocial2.png,stimuli/Social3.png,stimuli/Social4.png,stimuli/Nonsocial3.png,stimuli/Nonsocial4.png,,,"(-0.7, -0.5)",cs_pos_s,"(-0.7, 0.5)",cs_neg_s_new,"(0.7, -0.5)",cs_pos_ns,"(0.7, 0.5)",cs_neg_ns,0,0,0,0,,,,,,,,,,,,,,,,,,,,,,,,,,,,,0,3,3,8,3,0,3,0,,,,,,,,,,,,,,,264,reward,,,,,,1425.3422717000358,1425.3422717000358,1425.3422717000358,1425.3422717000358,1,0.024122899863868952,0.024126399774104357,0,,,0,,,0,,,1425.3422717000358,1425.3422717000358,1425.3422717000358,1425.3422717000358,3,A,2024-04-08_13h19.56.367,attentional_competition_task,2022.2.4,143.9416407683688,
positions.xlsx,positions_test.xlsx,positions_test_new.xlsx,stimuli.xlsx,stimuli_new.xlsx,stimuli/Social1.png,stimuli/Social2.png,stimuli/Nonsocial1.png,stimuli/Nonsocial2.png,stimuli/Social3.png,stimuli/Social4.png,stimuli/Nonsocial3.png,stimuli/Nonsocial4.png,,,"(-0.7, -0.5)",cs_pos_s,"(-0.7, 0.5)",cs_neg_s_new,"(0.7, -0.5)",cs_pos_ns,"(0.7, 0.5)",cs_neg_ns,0,0,0,0,,,,,,,,,,,,,,,,,,,,,,,,,,,,,0,3,3,8,,,,,,,,,,,,,,,,,,,,,,,,,,,,,,,,,,,,,,,,,,,,,,3,A,2024-04-08_13h19.56.367,attentional_competition_task,2022.2.4,143.9416407683688,
positions.xlsx,positions_test.xlsx,positions_test_new.xlsx,stimuli.xlsx,stimuli_new.xlsx,stimuli/Social1.png,stimuli/Social2.png,stimuli/Nonsocial1.png,stimuli/Nonsocial2.png,stimuli/Social3.png,stimuli/Social4.png,stimuli/Nonsocial3.png,stimuli/Nonsocial4.png,,,"(-0.7, -0.5)",cs_pos_ns,"(-0.7, 0.5)",cs_neg_ns_new,"(0.7, -0.5)",cs_pos_s,"(0.7, 0.5)",cs_neg_s,0,0,0,0,,,,,,,,,,,,,,,,,,,,,,,,,,,,,0,4,4,27,0,0,0,0,,,,,,,,,,,,,,,261,loss,,,,,,1431.793414299842,1431.793414299842,1431.793414299842,1431.793414299842,0,,,0,,,0,,,1,0.4125595996156335,0.41942529985681176,1432.2169817998074,1432.2169817998074,1432.2169817998074,1432.2169817998074,3,A,2024-04-08_13h19.56.367,attentional_competition_task,2022.2.4,143.9416407683688,
positions.xlsx,positions_test.xlsx,positions_test_new.xlsx,stimuli.xlsx,stimuli_new.xlsx,stimuli/Social1.png,stimuli/Social2.png,stimuli/Nonsocial1.png,stimuli/Nonsocial2.png,stimuli/Social3.png,stimuli/Social4.png,stimuli/Nonsocial3.png,stimuli/Nonsocial4.png,,,"(-0.7, -0.5)",cs_pos_ns,"(-0.7, 0.5)",cs_neg_ns_new,"(0.7, -0.5)",cs_pos_s,"(0.7, 0.5)",cs_neg_s,0,0,0,0,,,,,,,,,,,,,,,,,,,,,,,,,,,,,0,4,4,27,1,0,1,0,,,,,,,,,,,,,,,264,reward,,,,,,1432.7447649999522,1432.7447649999522,1432.7447649999522,1432.7447649999522,0,,,0,,,1,0.024177199695259333,0.024180499836802483,0,,,1432.7447649999522,1432.7447649999522,1432.7447649999522,1432.7447649999522,3,A,2024-04-08_13h19.56.367,attentional_competition_task,2022.2.4,143.9416407683688,
positions.xlsx,positions_test.xlsx,positions_test_new.xlsx,stimuli.xlsx,stimuli_new.xlsx,stimuli/Social1.png,stimuli/Social2.png,stimuli/Nonsocial1.png,stimuli/Nonsocial2.png,stimuli/Social3.png,stimuli/Social4.png,stimuli/Nonsocial3.png,stimuli/Nonsocial4.png,,,"(-0.7, -0.5)",cs_pos_ns,"(-0.7, 0.5)",cs_neg_ns_new,"(0.7, -0.5)",cs_pos_s,"(0.7, 0.5)",cs_neg_s,0,0,0,0,,,,,,,,,,,,,,,,,,,,,,,,,,,,,0,4,4,27,2,0,2,0,,,,,,,,,,,,,,,267,reward,,,,,,1433.2447374998592,1433.2447374998592,1433.2447374998592,1433.2447374998592,1,0.04297300009056926,0.042976700235158205,0,,,0,,,0,,,1433.29341619974,1433.29341619974,1433.29341619974,1433.29341619974,3,A,2024-04-08_13h19.56.367,attentional_competition_task,2022.2.4,143.9416407683688,
positions.xlsx,positions_test.xlsx,positions_test_new.xlsx,stimuli.xlsx,stimuli_new.xlsx,stimuli/Social1.png,stimuli/Social2.png,stimuli/Nonsocial1.png,stimuli/Nonsocial2.png,stimuli/Social3.png,stimuli/Social4.png,stimuli/Nonsocial3.png,stimuli/Nonsocial4.png,,,"(-0.7, -0.5)",cs_pos_ns,"(-0.7, 0.5)",cs_neg_ns_new,"(0.7, -0.5)",cs_pos_s,"(0.7, 0.5)",cs_neg_s,0,0,0,0,,,,,,,,,,,,,,,,,,,,,,,,,,,,,0,4,4,27,3,0,3,0,,,,,,,,,,,,,,,270,reward,,,,,,1434.3211556999013,1434.3211556999013,1434.3211556999013,1434.3211556999013,0,,,0,,,0,,,0,,,1434.3211556999013,1434.3211556999013,1434.3211556999013,1434.3211556999013,3,A,2024-04-08_13h19.56.367,attentional_competition_task,2022.2.4,143.9416407683688,
positions.xlsx,positions_test.xlsx,positions_test_new.xlsx,stimuli.xlsx,stimuli_new.xlsx,stimuli/Social1.png,stimuli/Social2.png,stimuli/Nonsocial1.png,stimuli/Nonsocial2.png,stimuli/Social3.png,stimuli/Social4.png,stimuli/Nonsocial3.png,stimuli/Nonsocial4.png,,,"(-0.7, -0.5)",cs_pos_ns,"(-0.7, 0.5)",cs_neg_ns_new,"(0.7, -0.5)",cs_pos_s,"(0.7, 0.5)",cs_neg_s,0,0,0,0,,,,,,,,,,,,,,,,,,,,,,,,,,,,,0,4,4,27,,,,,,,,,,,,,,,,,,,,,,,,,,,,,,,,,,,,,,,,,,,,,,3,A,2024-04-08_13h19.56.367,attentional_competition_task,2022.2.4,143.9416407683688,
positions.xlsx,positions_test.xlsx,positions_test_new.xlsx,stimuli.xlsx,stimuli_new.xlsx,stimuli/Social1.png,stimuli/Social2.png,stimuli/Nonsocial1.png,stimuli/Nonsocial2.png,stimuli/Social3.png,stimuli/Social4.png,stimuli/Nonsocial3.png,stimuli/Nonsocial4.png,,,"(-0.7, -0.5)",cs_pos_ns,"(-0.7, 0.5)",cs_pos_s_new,"(0.7, -0.5)",cs_neg_s,"(0.7, 0.5)",cs_neg_ns,0,0,0,0,,,,,,,,,,,,,,,,,,,,,,,,,,,,,0,5,5,36,0,0,0,0,,,,,,,,,,,,,,,273,reward,,,,,,1440.1681010997854,1440.1681010997854,1440.1681010997854,1440.1681010997854,1,0.25875520007684827,0.2659892002120614,0,,,0,,,0,,,1440.43893630011,1440.43893630011,1440.43893630011,1440.43893630011,3,A,2024-04-08_13h19.56.367,attentional_competition_task,2022.2.4,143.9416407683688,
positions.xlsx,positions_test.xlsx,positions_test_new.xlsx,stimuli.xlsx,stimuli_new.xlsx,stimuli/Social1.png,stimuli/Social2.png,stimuli/Nonsocial1.png,stimuli/Nonsocial2.png,stimuli/Social3.png,stimuli/Social4.png,stimuli/Nonsocial3.png,stimuli/Nonsocial4.png,,,"(-0.7, -0.5)",cs_pos_ns,"(-0.7, 0.5)",cs_pos_s_new,"(0.7, -0.5)",cs_neg_s,"(0.7, 0.5)",cs_neg_ns,0,0,0,0,,,,,,,,,,,,,,,,,,,,,,,,,,,,,0,5,5,36,1,0,1,0,,,,,,,,,,,,,,,270,loss,,,,,,1440.945833100006,1440.945833100006,1440.945833100006,1440.945833100006,0,,,0,,,1,0.11405760003253818,0.12049190001562238,0,,,1441.0638655996881,1441.0638655996881,1441.0638655996881,1441.0638655996881,3,A,2024-04-08_13h19.56.367,attentional_competition_task,2022.2.4,143.9416407683688,
positions.xlsx,positions_test.xlsx,positions_test_new.xlsx,stimuli.xlsx,stimuli_new.xlsx,stimuli/Social1.png,stimuli/Social2.png,stimuli/Nonsocial1.png,stimuli/Nonsocial2.png,stimuli/Social3.png,stimuli/Social4.png,stimuli/Nonsocial3.png,stimuli/Nonsocial4.png,,,"(-0.7, -0.5)",cs_pos_ns,"(-0.7, 0.5)",cs_pos_s_new,"(0.7, -0.5)",cs_neg_s,"(0.7, 0.5)",cs_neg_ns,0,0,0,0,,,,,,,,,,,,,,,,,,,,,,,,,,,,,0,5,5,36,2,0,2,0,,,,,,,,,,,,,,,273,reward,,,,,,1441.5569425998256,1441.5569425998256,1441.5569425998256,1441.5569425998256,0,,,1,0.24645239999517798,0.2464558999054134,0,,,0,,,1441.813879400026,1441.813879400026,1441.813879400026,1441.813879400026,3,A,2024-04-08_13h19.56.367,attentional_competition_task,2022.2.4,143.9416407683688,
positions.xlsx,positions_test.xlsx,positions_test_new.xlsx,stimuli.xlsx,stimuli_new.xlsx,stimuli/Social1.png,stimuli/Social2.png,stimuli/Nonsocial1.png,stimuli/Nonsocial2.png,stimuli/Social3.png,stimuli/Social4.png,stimuli/Nonsocial3.png,stimuli/Nonsocial4.png,,,"(-0.7, -0.5)",cs_pos_ns,"(-0.7, 0.5)",cs_pos_s_new,"(0.7, -0.5)",cs_neg_s,"(0.7, 0.5)",cs_neg_ns,0,0,0,0,,,,,,,,,,,,,,,,,,,,,,,,,,,,,0,5,5,36,,,,,,,,,,,,,,,,,,,,,,,,,,,,,,,,,,,,,,,,,,,,,,3,A,2024-04-08_13h19.56.367,attentional_competition_task,2022.2.4,143.9416407683688,
positions.xlsx,positions_test.xlsx,positions_test_new.xlsx,stimuli.xlsx,stimuli_new.xlsx,stimuli/Social1.png,stimuli/Social2.png,stimuli/Nonsocial1.png,stimuli/Nonsocial2.png,stimuli/Social3.png,stimuli/Social4.png,stimuli/Nonsocial3.png,stimuli/Nonsocial4.png,,,"(-0.7, -0.5)",cs_neg_ns,"(-0.7, 0.5)",cs_neg_s,"(0.7, -0.5)",cs_pos_s,"(0.7, 0.5)",cs_pos_ns,0,0,0,0,,,,,,,,,,,,,,,,,,,,,,,,,,,,,0,6,6,1,0,0,0,0,,,,,,,,,,,,,,,270,loss,,,,,,1448.3413959997706,1448.3413959997706,1448.3413959997706,1448.3413959997706,0,,,1,0.3077750997617841,0.307778500020504,0,,,0,,,1448.6538279997185,1448.6538279997185,1448.6538279997185,1448.6538279997185,3,A,2024-04-08_13h19.56.367,attentional_competition_task,2022.2.4,143.9416407683688,
positions.xlsx,positions_test.xlsx,positions_test_new.xlsx,stimuli.xlsx,stimuli_new.xlsx,stimuli/Social1.png,stimuli/Social2.png,stimuli/Nonsocial1.png,stimuli/Nonsocial2.png,stimuli/Social3.png,stimuli/Social4.png,stimuli/Nonsocial3.png,stimuli/Nonsocial4.png,,,"(-0.7, -0.5)",cs_neg_ns,"(-0.7, 0.5)",cs_neg_s,"(0.7, -0.5)",cs_pos_s,"(0.7, 0.5)",cs_pos_ns,0,0,0,0,,,,,,,,,,,,,,,,,,,,,,,,,,,,,0,6,6,1,1,0,1,0,,,,,,,,,,,,,,,273,reward,,,,,,1449.1816136999987,1449.1816136999987,1449.1816136999987,1449.1816136999987,0,,,0,,,1,0.029733099974691868,0.02973699988797307,0,,,1449.1816136999987,1449.1816136999987,1449.1816136999987,1449.1816136999987,3,A,2024-04-08_13h19.56.367,attentional_competition_task,2022.2.4,143.9416407683688,
positions.xlsx,positions_test.xlsx,positions_test_new.xlsx,stimuli.xlsx,stimuli_new.xlsx,stimuli/Social1.png,stimuli/Social2.png,stimuli/Nonsocial1.png,stimuli/Nonsocial2.png,stimuli/Social3.png,stimuli/Social4.png,stimuli/Nonsocial3.png,stimuli/Nonsocial4.png,,,"(-0.7, -0.5)",cs_neg_ns,"(-0.7, 0.5)",cs_neg_s,"(0.7, -0.5)",cs_pos_s,"(0.7, 0.5)",cs_pos_ns,0,0,0,0,,,,,,,,,,,,,,,,,,,,,,,,,,,,,0,6,6,1,2,0,2,0,,,,,,,,,,,,,,,276,reward,,,,,,1449.7093636998907,1449.7093636998907,1449.7093636998907,1449.7093636998907,0,,,0,,,0,,,1,0.02318989997729659,0.023193299770355225,1449.7093636998907,1449.7093636998907,1449.7093636998907,1449.7093636998907,3,A,2024-04-08_13h19.56.367,attentional_competition_task,2022.2.4,143.9416407683688,
positions.xlsx,positions_test.xlsx,positions_test_new.xlsx,stimuli.xlsx,stimuli_new.xlsx,stimuli/Social1.png,stimuli/Social2.png,stimuli/Nonsocial1.png,stimuli/Nonsocial2.png,stimuli/Social3.png,stimuli/Social4.png,stimuli/Nonsocial3.png,stimuli/Nonsocial4.png,,,"(-0.7, -0.5)",cs_neg_ns,"(-0.7, 0.5)",cs_neg_s,"(0.7, -0.5)",cs_pos_s,"(0.7, 0.5)",cs_pos_ns,0,0,0,0,,,,,,,,,,,,,,,,,,,,,,,,,,,,,0,6,6,1,3,0,3,0,,,,,,,,,,,,,,,273,loss,,,,,,1450.2371674999595,1450.2371674999595,1450.2371674999595,1450.2371674999595,0,,,0,,,0,,,0,,,1450.2371674999595,1450.2371674999595,1450.2371674999595,1450.2371674999595,3,A,2024-04-08_13h19.56.367,attentional_competition_task,2022.2.4,143.9416407683688,
positions.xlsx,positions_test.xlsx,positions_test_new.xlsx,stimuli.xlsx,stimuli_new.xlsx,stimuli/Social1.png,stimuli/Social2.png,stimuli/Nonsocial1.png,stimuli/Nonsocial2.png,stimuli/Social3.png,stimuli/Social4.png,stimuli/Nonsocial3.png,stimuli/Nonsocial4.png,,,"(-0.7, -0.5)",cs_neg_ns,"(-0.7, 0.5)",cs_neg_s,"(0.7, -0.5)",cs_pos_s,"(0.7, 0.5)",cs_pos_ns,0,0,0,0,,,,,,,,,,,,,,,,,,,,,,,,,,,,,0,6,6,1,,,,,,,,,,,,,,,,,,,,,,,,,,,,,,,,,,,,,,,,,,,,,,3,A,2024-04-08_13h19.56.367,attentional_competition_task,2022.2.4,143.9416407683688,
