posFile,posFileTest,posFileTestNew,stimFile,stimFileNew,cs_neg_s,cs_pos_s,cs_neg_ns,cs_pos_ns,cs_neg_s_new,cs_pos_s_new,cs_neg_ns_new,cs_pos_ns_new,stim,position,position1,stim1,position2,stim2,position3,stim3,position4,stim4,blocks.thisRepN,blocks.thisTrialN,blocks.thisN,blocks.thisIndex,ratingtrials1.thisRepN,ratingtrials1.thisTrialN,ratingtrials1.thisN,ratingtrials1.thisIndex,search_task_trials.thisRepN,search_task_trials.thisTrialN,search_task_trials.thisN,search_task_trials.thisIndex,learning_trials.thisRepN,learning_trials.thisTrialN,learning_trials.thisN,learning_trials.thisIndex,trials.thisRepN,trials.thisTrialN,trials.thisN,trials.thisIndex,ratingtrials2.thisRepN,ratingtrials2.thisTrialN,ratingtrials2.thisN,ratingtrials2.thisIndex,testtrials.thisRepN,testtrials.thisTrialN,testtrials.thisN,testtrials.thisIndex,loop_test.thisRepN,loop_test.thisTrialN,loop_test.thisN,loop_test.thisIndex,testtrials_novelty.thisRepN,testtrials_novelty.thisTrialN,testtrials_novelty.thisN,testtrials_novelty.thisIndex,loop_test_novelty.thisRepN,loop_test_novelty.thisTrialN,loop_test_novelty.thisN,loop_test_novelty.thisIndex,ratingtrials3.thisRepN,ratingtrials3.thisTrialN,ratingtrials3.thisN,ratingtrials3.thisIndex,textStart.started,textStartExp.started,imageRating.started,sliderStim.response,sliderStim.rt,textStartSearch.started,target_positions,distractor_positions,textStartTask.started,image.started,score,outcome,roi.numLooks,roi.timesOn,roi.timesOff,imageFeedback.started,textTestInstr.started,test_image1.started,test_image2.started,test_image3.started,test_image4.started,test_roi1.numLooks,test_roi1.timesOn,test_roi1.timesOff,test_roi2.numLooks,test_roi2.timesOn,test_roi2.timesOff,test_roi3.numLooks,test_roi3.timesOn,test_roi3.timesOff,test_roi4.numLooks,test_roi4.timesOn,test_roi4.timesOff,test_image_feedback1.started,test_image_feedback2.started,test_iamge_feedback3.started,test_iamge_feedback4.started,participant,group,date,expName,psychopyVersion,frameRate,
positions.xlsx,positions_test.xlsx,positions_test_new.xlsx,stimuli.xlsx,stimuli_new.xlsx,stimuli/Social2.png,stimuli/Social1.png,stimuli/Nonsocial2.png,stimuli/Nonsocial1.png,stimuli/Social4.png,stimuli/Social3.png,stimuli/Nonsocial4.png,stimuli/Nonsocial3.png,cs_pos_ns,,,,,,,,,,0,0,0,0,0,0,0,3,,,,,,,,,,,,,,,,,,,,,,,,,,,,,,,,,,,,,12.241501199896447,239.20335619989783,257.5984983999515,5.0,31.14364480006043,,,,,,,,,,,,,,,,,,,,,,,,,,,,,,,,,49,B,2024-05-22_14h17.36.839,attentional_competition_task,2022.2.4,144.06211952227397,
positions.xlsx,positions_test.xlsx,positions_test_new.xlsx,stimuli.xlsx,stimuli_new.xlsx,stimuli/Social2.png,stimuli/Social1.png,stimuli/Nonsocial2.png,stimuli/Nonsocial1.png,stimuli/Social4.png,stimuli/Social3.png,stimuli/Nonsocial4.png,stimuli/Nonsocial3.png,cs_neg_ns,,,,,,,,,,0,0,0,0,0,1,1,1,,,,,,,,,,,,,,,,,,,,,,,,,,,,,,,,,,,,,,,290.77072249993216,8.0,3.367261699982919,,,,,,,,,,,,,,,,,,,,,,,,,,,,,,,,,49,B,2024-05-22_14h17.36.839,attentional_competition_task,2022.2.4,144.06211952227397,
positions.xlsx,positions_test.xlsx,positions_test_new.xlsx,stimuli.xlsx,stimuli_new.xlsx,stimuli/Social2.png,stimuli/Social1.png,stimuli/Nonsocial2.png,stimuli/Nonsocial1.png,stimuli/Social4.png,stimuli/Social3.png,stimuli/Nonsocial4.png,stimuli/Nonsocial3.png,cs_neg_s,,,,,,,,,,0,0,0,0,0,2,2,0,,,,,,,,,,,,,,,,,,,,,,,,,,,,,,,,,,,,,,,296.48576289997436,6.0,5.919080200023018,,,,,,,,,,,,,,,,,,,,,,,,,,,,,,,,,49,B,2024-05-22_14h17.36.839,attentional_competition_task,2022.2.4,144.06211952227397,
positions.xlsx,positions_test.xlsx,positions_test_new.xlsx,stimuli.xlsx,stimuli_new.xlsx,stimuli/Social2.png,stimuli/Social1.png,stimuli/Nonsocial2.png,stimuli/Nonsocial1.png,stimuli/Social4.png,stimuli/Social3.png,stimuli/Nonsocial4.png,stimuli/Nonsocial3.png,cs_pos_s,,,,,,,,,,0,0,0,0,0,3,3,2,,,,,,,,,,,,,,,,,,,,,,,,,,,,,,,,,,,,,,,303.1730260999175,7.0,2.7941295999335125,,,,,,,,,,,,,,,,,,,,,,,,,,,,,,,,,49,B,2024-05-22_14h17.36.839,attentional_competition_task,2022.2.4,144.06211952227397,
positions.xlsx,positions_test.xlsx,positions_test_new.xlsx,stimuli.xlsx,stimuli_new.xlsx,stimuli/Social2.png,stimuli/Social1.png,stimuli/Nonsocial2.png,stimuli/Nonsocial1.png,stimuli/Social4.png,stimuli/Social3.png,stimuli/Nonsocial4.png,stimuli/Nonsocial3.png,,,,,,,,,,,0,0,0,0,,,,,0,0,0,0,,,,,,,,,,,,,,,,,,,,,,,,,,,,,,,,,,,,,,306.5270256999647,"[[-0.675, -0.8], [0.0, 0.7], [0.22499999999999998, -0.8], [-0.9, 0.7], [0.6749999999999999, -0.8], [0.9, 0.19999999999999996], [0.9, -0.8], [-0.45, -0.30000000000000004], [-0.9, -0.8], [0.0, -0.8], [-0.22499999999999998, 0.7], [0.22499999999999998, -0.30000000000000004], [0.45000000000000007, 0.7], [0.45000000000000007, -0.8], [-0.45, 0.7]]","[[-0.675, 0.7], [0.0, 0.19999999999999996], [0.0, -0.30000000000000004], [-0.45, 0.19999999999999996], [-0.675, -0.30000000000000004], [0.9, 0.7], [-0.45, -0.8], [-0.9, -0.30000000000000004], [-0.9, 0.19999999999999996], [-0.22499999999999998, -0.8], [-0.675, 0.19999999999999996], [0.6749999999999999, 0.7], [0.6749999999999999, 0.19999999999999996], [0.9, -0.30000000000000004], [0.45000000000000007, -0.30000000000000004]]",,,,,,,,,,,,,,,,,,,,,,,,,,,,,,49,B,2024-05-22_14h17.36.839,attentional_competition_task,2022.2.4,144.06211952227397,
positions.xlsx,positions_test.xlsx,positions_test_new.xlsx,stimuli.xlsx,stimuli_new.xlsx,stimuli/Social2.png,stimuli/Social1.png,stimuli/Nonsocial2.png,stimuli/Nonsocial1.png,stimuli/Social4.png,stimuli/Social3.png,stimuli/Nonsocial4.png,stimuli/Nonsocial3.png,,,,,,,,,,,0,0,0,0,,,,,1,0,1,0,,,,,,,,,,,,,,,,,,,,,,,,,,,,,,,,,,,,,,,"[[-0.22499999999999998, -0.30000000000000004], [0.9, 0.7], [0.0, 0.7], [0.6749999999999999, 0.19999999999999996], [-0.22499999999999998, 0.7], [0.9, -0.8], [0.45000000000000007, -0.8], [-0.22499999999999998, -0.8], [0.45000000000000007, -0.30000000000000004], [0.45000000000000007, 0.7], [0.22499999999999998, -0.30000000000000004], [-0.45, 0.19999999999999996], [-0.675, -0.30000000000000004], [-0.9, 0.19999999999999996], [0.45000000000000007, 0.19999999999999996]]","[[-0.9, 0.7], [-0.9, -0.8], [-0.675, 0.7], [-0.22499999999999998, 0.19999999999999996], [0.22499999999999998, -0.8], [0.0, 0.19999999999999996], [0.6749999999999999, -0.30000000000000004], [0.22499999999999998, 0.7], [0.6749999999999999, -0.8], [-0.45, 0.7], [-0.675, 0.19999999999999996], [0.0, -0.30000000000000004], [0.0, -0.8], [-0.45, -0.8], [-0.9, -0.30000000000000004]]",,,,,,,,,,,,,,,,,,,,,,,,,,,,,,49,B,2024-05-22_14h17.36.839,attentional_competition_task,2022.2.4,144.06211952227397,
positions.xlsx,positions_test.xlsx,positions_test_new.xlsx,stimuli.xlsx,stimuli_new.xlsx,stimuli/Social2.png,stimuli/Social1.png,stimuli/Nonsocial2.png,stimuli/Nonsocial1.png,stimuli/Social4.png,stimuli/Social3.png,stimuli/Nonsocial4.png,stimuli/Nonsocial3.png,cs_pos_s,"(-0.7, 0.5)",,,,,,,,,0,0,0,0,,,,,,,,,0,0,0,4,,,,,,,,,,,,,,,,,,,,,,,,,,,,,,,,,,,,,388.97507909999695,411.2727634999901,3,reward,1,0.27140259998850524,0.2714060000143945,411.557494699955,,,,,,,,,,,,,,,,,,,,,,49,B,2024-05-22_14h17.36.839,attentional_competition_task,2022.2.4,144.06211952227397,
positions.xlsx,positions_test.xlsx,positions_test_new.xlsx,stimuli.xlsx,stimuli_new.xlsx,stimuli/Social2.png,stimuli/Social1.png,stimuli/Nonsocial2.png,stimuli/Nonsocial1.png,stimuli/Social4.png,stimuli/Social3.png,stimuli/Nonsocial4.png,stimuli/Nonsocial3.png,cs_pos_ns,"(-0.7, -0.5)",,,,,,,,,0,0,0,0,,,,,,,,,0,1,1,13,,,,,,,,,,,,,,,,,,,,,,,,,,,,,,,,,,,,,,419.3696983999107,6,reward,1,0.29872409999370575,0.2987277000211179,419.67522189999,,,,,,,,,,,,,,,,,,,,,,49,B,2024-05-22_14h17.36.839,attentional_competition_task,2022.2.4,144.06211952227397,
positions.xlsx,positions_test.xlsx,positions_test_new.xlsx,stimuli.xlsx,stimuli_new.xlsx,stimuli/Social2.png,stimuli/Social1.png,stimuli/Nonsocial2.png,stimuli/Nonsocial1.png,stimuli/Social4.png,stimuli/Social3.png,stimuli/Nonsocial4.png,stimuli/Nonsocial3.png,cs_neg_ns,"(0.7, -0.5)",,,,,,,,,0,0,0,0,,,,,,,,,0,2,2,11,,,,,,,,,,,,,,,,,,,,,,,,,,,,,,,,,,,,,,426.7721683999989,3,loss,1,0.3472717999247834,0.3472755999537185,427.1263258999679,,,,,,,,,,,,,,,,,,,,,,49,B,2024-05-22_14h17.36.839,attentional_competition_task,2022.2.4,144.06211952227397,
positions.xlsx,positions_test.xlsx,positions_test_new.xlsx,stimuli.xlsx,stimuli_new.xlsx,stimuli/Social2.png,stimuli/Social1.png,stimuli/Nonsocial2.png,stimuli/Nonsocial1.png,stimuli/Social4.png,stimuli/Social3.png,stimuli/Nonsocial4.png,stimuli/Nonsocial3.png,cs_neg_s,"(-0.7, -0.5)",,,,,,,,,0,0,0,0,,,,,,,,,0,3,3,1,,,,,,,,,,,,,,,,,,,,,,,,,,,,,,,,,,,,,,434.7996200999478,0,loss,1,0.7578232000814751,0.7578266999917105,435.5634471999947,,,,,,,,,,,,,,,,,,,,,,49,B,2024-05-22_14h17.36.839,attentional_competition_task,2022.2.4,144.06211952227397,
positions.xlsx,positions_test.xlsx,positions_test_new.xlsx,stimuli.xlsx,stimuli_new.xlsx,stimuli/Social2.png,stimuli/Social1.png,stimuli/Nonsocial2.png,stimuli/Nonsocial1.png,stimuli/Social4.png,stimuli/Social3.png,stimuli/Nonsocial4.png,stimuli/Nonsocial3.png,cs_neg_ns,"(-0.7, 0.5)",,,,,,,,,0,0,0,0,,,,,,,,,0,4,4,8,,,,,,,,,,,,,,,,,,,,,,,,,,,,,,,,,,,,,,443.3062185999006,-3,loss,1,0.7430613999022171,0.7430650999303907,444.056216099998,,,,,,,,,,,,,,,,,,,,,,49,B,2024-05-22_14h17.36.839,attentional_competition_task,2022.2.4,144.06211952227397,
positions.xlsx,positions_test.xlsx,positions_test_new.xlsx,stimuli.xlsx,stimuli_new.xlsx,stimuli/Social2.png,stimuli/Social1.png,stimuli/Nonsocial2.png,stimuli/Nonsocial1.png,stimuli/Social4.png,stimuli/Social3.png,stimuli/Nonsocial4.png,stimuli/Nonsocial3.png,cs_pos_ns,"(0.7, 0.5)",,,,,,,,,0,0,0,0,,,,,,,,,0,5,5,14,,,,,,,,,,,,,,,,,,,,,,,,,,,,,,,,,,,,,,450.9656576999696,0,reward,1,0.7778544999891892,0.7778583000181243,451.7503075998975,,,,,,,,,,,,,,,,,,,,,,49,B,2024-05-22_14h17.36.839,attentional_competition_task,2022.2.4,144.06211952227397,
positions.xlsx,positions_test.xlsx,positions_test_new.xlsx,stimuli.xlsx,stimuli_new.xlsx,stimuli/Social2.png,stimuli/Social1.png,stimuli/Nonsocial2.png,stimuli/Nonsocial1.png,stimuli/Social4.png,stimuli/Social3.png,stimuli/Nonsocial4.png,stimuli/Nonsocial3.png,cs_neg_s,"(0.7, -0.5)",,,,,,,,,0,0,0,0,,,,,,,,,0,6,6,3,,,,,,,,,,,,,,,,,,,,,,,,,,,,,,,,,,,,,,459.76389009994455,-3,loss,1,0.6808517000172287,0.6808556000469252,460.4513453999534,,,,,,,,,,,,,,,,,,,,,,49,B,2024-05-22_14h17.36.839,attentional_competition_task,2022.2.4,144.06211952227397,
positions.xlsx,positions_test.xlsx,positions_test_new.xlsx,stimuli.xlsx,stimuli_new.xlsx,stimuli/Social2.png,stimuli/Social1.png,stimuli/Nonsocial2.png,stimuli/Nonsocial1.png,stimuli/Social4.png,stimuli/Social3.png,stimuli/Nonsocial4.png,stimuli/Nonsocial3.png,cs_pos_ns,"(0.7, -0.5)",,,,,,,,,0,0,0,0,,,,,,,,,0,7,7,15,,,,,,,,,,,,,,,,,,,,,,,,,,,,,,,,,,,,,,467.33999159990344,0,reward,1,0.854111299966462,0.8541151999961585,468.20105219993275,,,,,,,,,,,,,,,,,,,,,,49,B,2024-05-22_14h17.36.839,attentional_competition_task,2022.2.4,144.06211952227397,
positions.xlsx,positions_test.xlsx,positions_test_new.xlsx,stimuli.xlsx,stimuli_new.xlsx,stimuli/Social2.png,stimuli/Social1.png,stimuli/Nonsocial2.png,stimuli/Nonsocial1.png,stimuli/Social4.png,stimuli/Social3.png,stimuli/Nonsocial4.png,stimuli/Nonsocial3.png,cs_pos_s,"(-0.7, -0.5)",,,,,,,,,0,0,0,0,,,,,,,,,0,8,8,5,,,,,,,,,,,,,,,,,,,,,,,,,,,,,,,,,,,,,,475.7493455999065,3,reward,1,0.6530775999417529,0.653081199969165,476.4090397999389,,,,,,,,,,,,,,,,,,,,,,49,B,2024-05-22_14h17.36.839,attentional_competition_task,2022.2.4,144.06211952227397,
positions.xlsx,positions_test.xlsx,positions_test_new.xlsx,stimuli.xlsx,stimuli_new.xlsx,stimuli/Social2.png,stimuli/Social1.png,stimuli/Nonsocial2.png,stimuli/Nonsocial1.png,stimuli/Social4.png,stimuli/Social3.png,stimuli/Nonsocial4.png,stimuli/Nonsocial3.png,cs_neg_s,"(-0.7, 0.5)",,,,,,,,,0,0,0,0,,,,,,,,,0,9,9,0,,,,,,,,,,,,,,,,,,,,,,,,,,,,,,,,,,,,,,483.8254383999156,3,none,0,,,486.83915619994514,,,,,,,,,,,,,,,,,,,,,,49,B,2024-05-22_14h17.36.839,attentional_competition_task,2022.2.4,144.06211952227397,
positions.xlsx,positions_test.xlsx,positions_test_new.xlsx,stimuli.xlsx,stimuli_new.xlsx,stimuli/Social2.png,stimuli/Social1.png,stimuli/Nonsocial2.png,stimuli/Nonsocial1.png,stimuli/Social4.png,stimuli/Social3.png,stimuli/Nonsocial4.png,stimuli/Nonsocial3.png,cs_pos_s,"(0.7, -0.5)",,,,,,,,,0,0,0,0,,,,,,,,,0,10,10,7,,,,,,,,,,,,,,,,,,,,,,,,,,,,,,,,,,,,,,494.67219979991205,6,reward,1,0.6183422000613064,0.6183459999738261,495.2971781999804,,,,,,,,,,,,,,,,,,,,,,49,B,2024-05-22_14h17.36.839,attentional_competition_task,2022.2.4,144.06211952227397,
positions.xlsx,positions_test.xlsx,positions_test_new.xlsx,stimuli.xlsx,stimuli_new.xlsx,stimuli/Social2.png,stimuli/Social1.png,stimuli/Nonsocial2.png,stimuli/Nonsocial1.png,stimuli/Social4.png,stimuli/Social3.png,stimuli/Nonsocial4.png,stimuli/Nonsocial3.png,cs_pos_ns,"(-0.7, 0.5)",,,,,,,,,0,0,0,0,,,,,,,,,0,11,11,12,,,,,,,,,,,,,,,,,,,,,,,,,,,,,,,,,,,,,,502.4635658999905,9,reward,1,0.243241099989973,0.24324489990249276,502.7135599999456,,,,,,,,,,,,,,,,,,,,,,49,B,2024-05-22_14h17.36.839,attentional_competition_task,2022.2.4,144.06211952227397,
positions.xlsx,positions_test.xlsx,positions_test_new.xlsx,stimuli.xlsx,stimuli_new.xlsx,stimuli/Social2.png,stimuli/Social1.png,stimuli/Nonsocial2.png,stimuli/Nonsocial1.png,stimuli/Social4.png,stimuli/Social3.png,stimuli/Nonsocial4.png,stimuli/Nonsocial3.png,cs_neg_ns,"(-0.7, -0.5)",,,,,,,,,0,0,0,0,,,,,,,,,0,12,12,9,,,,,,,,,,,,,,,,,,,,,,,,,,,,,,,,,,,,,,510.1160244999919,9,none,0,,,513.1298217999283,,,,,,,,,,,,,,,,,,,,,,49,B,2024-05-22_14h17.36.839,attentional_competition_task,2022.2.4,144.06211952227397,
positions.xlsx,positions_test.xlsx,positions_test_new.xlsx,stimuli.xlsx,stimuli_new.xlsx,stimuli/Social2.png,stimuli/Social1.png,stimuli/Nonsocial2.png,stimuli/Nonsocial1.png,stimuli/Social4.png,stimuli/Social3.png,stimuli/Nonsocial4.png,stimuli/Nonsocial3.png,cs_neg_ns,"(0.7, 0.5)",,,,,,,,,0,0,0,0,,,,,,,,,0,13,13,10,,,,,,,,,,,,,,,,,,,,,,,,,,,,,,,,,,,,,,521.476672199904,6,loss,1,2.6320184000069275,2.632022300036624,524.115485599963,,,,,,,,,,,,,,,,,,,,,,49,B,2024-05-22_14h17.36.839,attentional_competition_task,2022.2.4,144.06211952227397,
positions.xlsx,positions_test.xlsx,positions_test_new.xlsx,stimuli.xlsx,stimuli_new.xlsx,stimuli/Social2.png,stimuli/Social1.png,stimuli/Nonsocial2.png,stimuli/Nonsocial1.png,stimuli/Social4.png,stimuli/Social3.png,stimuli/Nonsocial4.png,stimuli/Nonsocial3.png,cs_neg_s,"(0.7, 0.5)",,,,,,,,,0,0,0,0,,,,,,,,,0,14,14,2,,,,,,,,,,,,,,,,,,,,,,,,,,,,,,,,,,,,,,531.2262652999489,6,none,0,,,534.2400665999157,,,,,,,,,,,,,,,,,,,,,,49,B,2024-05-22_14h17.36.839,attentional_competition_task,2022.2.4,144.06211952227397,
positions.xlsx,positions_test.xlsx,positions_test_new.xlsx,stimuli.xlsx,stimuli_new.xlsx,stimuli/Social2.png,stimuli/Social1.png,stimuli/Nonsocial2.png,stimuli/Nonsocial1.png,stimuli/Social4.png,stimuli/Social3.png,stimuli/Nonsocial4.png,stimuli/Nonsocial3.png,cs_pos_s,"(0.7, 0.5)",,,,,,,,,0,0,0,0,,,,,,,,,0,15,15,6,,,,,,,,,,,,,,,,,,,,,,,,,,,,,,,,,,,,,,541.9689214999089,9,reward,1,0.5489476000657305,0.5489513000939041,542.5244572999654,,,,,,,,,,,,,,,,,,,,,,49,B,2024-05-22_14h17.36.839,attentional_competition_task,2022.2.4,144.06211952227397,
positions.xlsx,positions_test.xlsx,positions_test_new.xlsx,stimuli.xlsx,stimuli_new.xlsx,stimuli/Social2.png,stimuli/Social1.png,stimuli/Nonsocial2.png,stimuli/Nonsocial1.png,stimuli/Social4.png,stimuli/Social3.png,stimuli/Nonsocial4.png,stimuli/Nonsocial3.png,cs_neg_ns,"(0.7, 0.5)",,,,,,,,,0,0,0,0,,,,,,,,,1,0,16,10,,,,,,,,,,,,,,,,,,,,,,,,,,,,,,,,,,,,,,550.2949359999038,9,none,0,,,553.3087422999088,,,,,,,,,,,,,,,,,,,,,,49,B,2024-05-22_14h17.36.839,attentional_competition_task,2022.2.4,144.06211952227397,
positions.xlsx,positions_test.xlsx,positions_test_new.xlsx,stimuli.xlsx,stimuli_new.xlsx,stimuli/Social2.png,stimuli/Social1.png,stimuli/Nonsocial2.png,stimuli/Nonsocial1.png,stimuli/Social4.png,stimuli/Social3.png,stimuli/Nonsocial4.png,stimuli/Nonsocial3.png,cs_pos_s,"(-0.7, 0.5)",,,,,,,,,0,0,0,0,,,,,,,,,1,1,17,4,,,,,,,,,,,,,,,,,,,,,,,,,,,,,,,,,,,,,,560.7806330999592,12,reward,1,0.556134199956432,0.5561379999853671,561.343128599925,,,,,,,,,,,,,,,,,,,,,,49,B,2024-05-22_14h17.36.839,attentional_competition_task,2022.2.4,144.06211952227397,
positions.xlsx,positions_test.xlsx,positions_test_new.xlsx,stimuli.xlsx,stimuli_new.xlsx,stimuli/Social2.png,stimuli/Social1.png,stimuli/Nonsocial2.png,stimuli/Nonsocial1.png,stimuli/Social4.png,stimuli/Social3.png,stimuli/Nonsocial4.png,stimuli/Nonsocial3.png,cs_pos_s,"(-0.7, -0.5)",,,,,,,,,0,0,0,0,,,,,,,,,1,2,18,5,,,,,,,,,,,,,,,,,,,,,,,,,,,,,,,,,,,,,,568.9400258999085,15,reward,1,0.569598300033249,0.5696147000417113,569.5164221999003,,,,,,,,,,,,,,,,,,,,,,49,B,2024-05-22_14h17.36.839,attentional_competition_task,2022.2.4,144.06211952227397,
positions.xlsx,positions_test.xlsx,positions_test_new.xlsx,stimuli.xlsx,stimuli_new.xlsx,stimuli/Social2.png,stimuli/Social1.png,stimuli/Nonsocial2.png,stimuli/Nonsocial1.png,stimuli/Social4.png,stimuli/Social3.png,stimuli/Nonsocial4.png,stimuli/Nonsocial3.png,cs_pos_s,"(0.7, -0.5)",,,,,,,,,0,0,0,0,,,,,,,,,1,3,19,7,,,,,,,,,,,,,,,,,,,,,,,,,,,,,,,,,,,,,,576.5786643999163,18,reward,1,0.5143134000245482,0.5143170000519603,577.0994938999647,,,,,,,,,,,,,,,,,,,,,,49,B,2024-05-22_14h17.36.839,attentional_competition_task,2022.2.4,144.06211952227397,
positions.xlsx,positions_test.xlsx,positions_test_new.xlsx,stimuli.xlsx,stimuli_new.xlsx,stimuli/Social2.png,stimuli/Social1.png,stimuli/Nonsocial2.png,stimuli/Nonsocial1.png,stimuli/Social4.png,stimuli/Social3.png,stimuli/Nonsocial4.png,stimuli/Nonsocial3.png,cs_pos_ns,"(0.7, -0.5)",,,,,,,,,0,0,0,0,,,,,,,,,1,4,20,15,,,,,,,,,,,,,,,,,,,,,,,,,,,,,,,,,,,,,,584.8838486999739,21,reward,1,0.6462916999589652,0.6462954999879003,585.5366186999017,,,,,,,,,,,,,,,,,,,,,,49,B,2024-05-22_14h17.36.839,attentional_competition_task,2022.2.4,144.06211952227397,
positions.xlsx,positions_test.xlsx,positions_test_new.xlsx,stimuli.xlsx,stimuli_new.xlsx,stimuli/Social2.png,stimuli/Social1.png,stimuli/Nonsocial2.png,stimuli/Nonsocial1.png,stimuli/Social4.png,stimuli/Social3.png,stimuli/Nonsocial4.png,stimuli/Nonsocial3.png,cs_neg_ns,"(0.7, -0.5)",,,,,,,,,0,0,0,0,,,,,,,,,1,5,21,11,,,,,,,,,,,,,,,,,,,,,,,,,,,,,,,,,,,,,,592.5363150999183,21,none,0,,,595.5500685999868,,,,,,,,,,,,,,,,,,,,,,49,B,2024-05-22_14h17.36.839,attentional_competition_task,2022.2.4,144.06211952227397,
positions.xlsx,positions_test.xlsx,positions_test_new.xlsx,stimuli.xlsx,stimuli_new.xlsx,stimuli/Social2.png,stimuli/Social1.png,stimuli/Nonsocial2.png,stimuli/Nonsocial1.png,stimuli/Social4.png,stimuli/Social3.png,stimuli/Nonsocial4.png,stimuli/Nonsocial3.png,cs_neg_ns,"(-0.7, -0.5)",,,,,,,,,0,0,0,0,,,,,,,,,1,6,22,9,,,,,,,,,,,,,,,,,,,,,,,,,,,,,,,,,,,,,,602.5914720000001,21,none,0,,,605.605240099947,,,,,,,,,,,,,,,,,,,,,,49,B,2024-05-22_14h17.36.839,attentional_competition_task,2022.2.4,144.06211952227397,
positions.xlsx,positions_test.xlsx,positions_test_new.xlsx,stimuli.xlsx,stimuli_new.xlsx,stimuli/Social2.png,stimuli/Social1.png,stimuli/Nonsocial2.png,stimuli/Nonsocial1.png,stimuli/Social4.png,stimuli/Social3.png,stimuli/Nonsocial4.png,stimuli/Nonsocial3.png,cs_neg_s,"(-0.7, 0.5)",,,,,,,,,0,0,0,0,,,,,,,,,1,7,23,0,,,,,,,,,,,,,,,,,,,,,,,,,,,,,,,,,,,,,,612.5424639999401,21,none,0,,,615.5492878999794,,,,,,,,,,,,,,,,,,,,,,49,B,2024-05-22_14h17.36.839,attentional_competition_task,2022.2.4,144.06211952227397,
positions.xlsx,positions_test.xlsx,positions_test_new.xlsx,stimuli.xlsx,stimuli_new.xlsx,stimuli/Social2.png,stimuli/Social1.png,stimuli/Nonsocial2.png,stimuli/Nonsocial1.png,stimuli/Social4.png,stimuli/Social3.png,stimuli/Nonsocial4.png,stimuli/Nonsocial3.png,cs_pos_ns,"(-0.7, 0.5)",,,,,,,,,0,0,0,0,,,,,,,,,1,8,24,12,,,,,,,,,,,,,,,,,,,,,,,,,,,,,,,,,,,,,,622.8754210999468,24,reward,1,0.5762992000672966,0.5763032000977546,623.4586947999196,,,,,,,,,,,,,,,,,,,,,,49,B,2024-05-22_14h17.36.839,attentional_competition_task,2022.2.4,144.06211952227397,
positions.xlsx,positions_test.xlsx,positions_test_new.xlsx,stimuli.xlsx,stimuli_new.xlsx,stimuli/Social2.png,stimuli/Social1.png,stimuli/Nonsocial2.png,stimuli/Nonsocial1.png,stimuli/Social4.png,stimuli/Social3.png,stimuli/Nonsocial4.png,stimuli/Nonsocial3.png,cs_pos_ns,"(0.7, 0.5)",,,,,,,,,0,0,0,0,,,,,,,,,1,9,25,14,,,,,,,,,,,,,,,,,,,,,,,,,,,,,,,,,,,,,,631.7291729999706,27,reward,1,0.6734978000167757,0.6735013000434265,632.4097294999519,,,,,,,,,,,,,,,,,,,,,,49,B,2024-05-22_14h17.36.839,attentional_competition_task,2022.2.4,144.06211952227397,
positions.xlsx,positions_test.xlsx,positions_test_new.xlsx,stimuli.xlsx,stimuli_new.xlsx,stimuli/Social2.png,stimuli/Social1.png,stimuli/Nonsocial2.png,stimuli/Nonsocial1.png,stimuli/Social4.png,stimuli/Social3.png,stimuli/Nonsocial4.png,stimuli/Nonsocial3.png,cs_neg_ns,"(-0.7, 0.5)",,,,,,,,,0,0,0,0,,,,,,,,,1,10,26,8,,,,,,,,,,,,,,,,,,,,,,,,,,,,,,,,,,,,,,640.1385768000036,27,none,0,,,643.152369499905,,,,,,,,,,,,,,,,,,,,,,49,B,2024-05-22_14h17.36.839,attentional_competition_task,2022.2.4,144.06211952227397,
positions.xlsx,positions_test.xlsx,positions_test_new.xlsx,stimuli.xlsx,stimuli_new.xlsx,stimuli/Social2.png,stimuli/Social1.png,stimuli/Nonsocial2.png,stimuli/Nonsocial1.png,stimuli/Social4.png,stimuli/Social3.png,stimuli/Nonsocial4.png,stimuli/Nonsocial3.png,cs_neg_s,"(0.7, 0.5)",,,,,,,,,0,0,0,0,,,,,,,,,1,11,27,2,,,,,,,,,,,,,,,,,,,,,,,,,,,,,,,,,,,,,,650.9853751999326,27,none,0,,,653.992174099898,,,,,,,,,,,,,,,,,,,,,,49,B,2024-05-22_14h17.36.839,attentional_competition_task,2022.2.4,144.06211952227397,
positions.xlsx,positions_test.xlsx,positions_test_new.xlsx,stimuli.xlsx,stimuli_new.xlsx,stimuli/Social2.png,stimuli/Social1.png,stimuli/Nonsocial2.png,stimuli/Nonsocial1.png,stimuli/Social4.png,stimuli/Social3.png,stimuli/Nonsocial4.png,stimuli/Nonsocial3.png,cs_neg_s,"(0.7, -0.5)",,,,,,,,,0,0,0,0,,,,,,,,,1,12,28,3,,,,,,,,,,,,,,,,,,,,,,,,,,,,,,,,,,,,,,661.3599511999637,27,none,0,,,664.366801999975,,,,,,,,,,,,,,,,,,,,,,49,B,2024-05-22_14h17.36.839,attentional_competition_task,2022.2.4,144.06211952227397,
positions.xlsx,positions_test.xlsx,positions_test_new.xlsx,stimuli.xlsx,stimuli_new.xlsx,stimuli/Social2.png,stimuli/Social1.png,stimuli/Nonsocial2.png,stimuli/Nonsocial1.png,stimuli/Social4.png,stimuli/Social3.png,stimuli/Nonsocial4.png,stimuli/Nonsocial3.png,cs_pos_s,"(0.7, 0.5)",,,,,,,,,0,0,0,0,,,,,,,,,1,13,29,6,,,,,,,,,,,,,,,,,,,,,,,,,,,,,,,,,,,,,,672.102574099903,30,reward,1,0.5971831999486312,0.6041334000183269,672.7136512999423,,,,,,,,,,,,,,,,,,,,,,49,B,2024-05-22_14h17.36.839,attentional_competition_task,2022.2.4,144.06211952227397,
positions.xlsx,positions_test.xlsx,positions_test_new.xlsx,stimuli.xlsx,stimuli_new.xlsx,stimuli/Social2.png,stimuli/Social1.png,stimuli/Nonsocial2.png,stimuli/Nonsocial1.png,stimuli/Social4.png,stimuli/Social3.png,stimuli/Nonsocial4.png,stimuli/Nonsocial3.png,cs_neg_s,"(-0.7, -0.5)",,,,,,,,,0,0,0,0,,,,,,,,,1,14,30,1,,,,,,,,,,,,,,,,,,,,,,,,,,,,,,,,,,,,,,679.8453078999883,30,none,0,,,682.852178299916,,,,,,,,,,,,,,,,,,,,,,49,B,2024-05-22_14h17.36.839,attentional_competition_task,2022.2.4,144.06211952227397,
positions.xlsx,positions_test.xlsx,positions_test_new.xlsx,stimuli.xlsx,stimuli_new.xlsx,stimuli/Social2.png,stimuli/Social1.png,stimuli/Nonsocial2.png,stimuli/Nonsocial1.png,stimuli/Social4.png,stimuli/Social3.png,stimuli/Nonsocial4.png,stimuli/Nonsocial3.png,cs_pos_ns,"(-0.7, -0.5)",,,,,,,,,0,0,0,0,,,,,,,,,1,15,31,13,,,,,,,,,,,,,,,,,,,,,,,,,,,,,,,,,,,,,,690.0046513999114,33,reward,1,0.5831291999202222,0.5831329999491572,690.5948880999349,,,,,,,,,,,,,,,,,,,,,,49,B,2024-05-22_14h17.36.839,attentional_competition_task,2022.2.4,144.06211952227397,
positions.xlsx,positions_test.xlsx,positions_test_new.xlsx,stimuli.xlsx,stimuli_new.xlsx,stimuli/Social2.png,stimuli/Social1.png,stimuli/Nonsocial2.png,stimuli/Nonsocial1.png,stimuli/Social4.png,stimuli/Social3.png,stimuli/Nonsocial4.png,stimuli/Nonsocial3.png,cs_neg_s,"(0.7, 0.5)",,,,,,,,,0,0,0,0,,,,,,,,,,,,,0,0,0,2,,,,,,,,,,,,,,,,,,,,,,,,,,,,,,,,,,720.3714837000007,30,loss,1,0.6117934000212699,0.6117970999330282,720.989491699962,,,,,,,,,,,,,,,,,,,,,,49,B,2024-05-22_14h17.36.839,attentional_competition_task,2022.2.4,144.06211952227397,
positions.xlsx,positions_test.xlsx,positions_test_new.xlsx,stimuli.xlsx,stimuli_new.xlsx,stimuli/Social2.png,stimuli/Social1.png,stimuli/Nonsocial2.png,stimuli/Nonsocial1.png,stimuli/Social4.png,stimuli/Social3.png,stimuli/Nonsocial4.png,stimuli/Nonsocial3.png,cs_neg_s,"(-0.7, -0.5)",,,,,,,,,0,0,0,0,,,,,,,,,,,,,0,1,1,1,,,,,,,,,,,,,,,,,,,,,,,,,,,,,,,,,,728.523928099894,30,none,0,,,731.5307554999599,,,,,,,,,,,,,,,,,,,,,,49,B,2024-05-22_14h17.36.839,attentional_competition_task,2022.2.4,144.06211952227397,
positions.xlsx,positions_test.xlsx,positions_test_new.xlsx,stimuli.xlsx,stimuli_new.xlsx,stimuli/Social2.png,stimuli/Social1.png,stimuli/Nonsocial2.png,stimuli/Nonsocial1.png,stimuli/Social4.png,stimuli/Social3.png,stimuli/Nonsocial4.png,stimuli/Nonsocial3.png,cs_pos_s,"(0.7, -0.5)",,,,,,,,,0,0,0,0,,,,,,,,,,,,,0,2,2,7,,,,,,,,,,,,,,,,,,,,,,,,,,,,,,,,,,739.2804565998958,33,reward,1,0.5699040999170393,0.5699079999467358,739.8567950999131,,,,,,,,,,,,,,,,,,,,,,49,B,2024-05-22_14h17.36.839,attentional_competition_task,2022.2.4,144.06211952227397,
positions.xlsx,positions_test.xlsx,positions_test_new.xlsx,stimuli.xlsx,stimuli_new.xlsx,stimuli/Social2.png,stimuli/Social1.png,stimuli/Nonsocial2.png,stimuli/Nonsocial1.png,stimuli/Social4.png,stimuli/Social3.png,stimuli/Nonsocial4.png,stimuli/Nonsocial3.png,cs_pos_ns,"(-0.7, -0.5)",,,,,,,,,0,0,0,0,,,,,,,,,,,,,0,3,3,13,,,,,,,,,,,,,,,,,,,,,,,,,,,,,,,,,,746.8634624999249,36,reward,1,0.5625993000576273,0.5626033000880852,747.4329184999224,,,,,,,,,,,,,,,,,,,,,,49,B,2024-05-22_14h17.36.839,attentional_competition_task,2022.2.4,144.06211952227397,
positions.xlsx,positions_test.xlsx,positions_test_new.xlsx,stimuli.xlsx,stimuli_new.xlsx,stimuli/Social2.png,stimuli/Social1.png,stimuli/Nonsocial2.png,stimuli/Nonsocial1.png,stimuli/Social4.png,stimuli/Social3.png,stimuli/Nonsocial4.png,stimuli/Nonsocial3.png,cs_neg_s,"(-0.7, 0.5)",,,,,,,,,0,0,0,0,,,,,,,,,,,,,0,4,4,0,,,,,,,,,,,,,,,,,,,,,,,,,,,,,,,,,,755.4812159999274,36,none,0,,,758.4880108999787,,,,,,,,,,,,,,,,,,,,,,49,B,2024-05-22_14h17.36.839,attentional_competition_task,2022.2.4,144.06211952227397,
positions.xlsx,positions_test.xlsx,positions_test_new.xlsx,stimuli.xlsx,stimuli_new.xlsx,stimuli/Social2.png,stimuli/Social1.png,stimuli/Nonsocial2.png,stimuli/Nonsocial1.png,stimuli/Social4.png,stimuli/Social3.png,stimuli/Nonsocial4.png,stimuli/Nonsocial3.png,cs_pos_ns,"(-0.7, 0.5)",,,,,,,,,0,0,0,0,,,,,,,,,,,,,0,5,5,12,,,,,,,,,,,,,,,,,,,,,,,,,,,,,,,,,,765.848810800002,39,reward,1,0.5557417999953032,0.5557454000227153,766.4113457999192,,,,,,,,,,,,,,,,,,,,,,49,B,2024-05-22_14h17.36.839,attentional_competition_task,2022.2.4,144.06211952227397,
positions.xlsx,positions_test.xlsx,positions_test_new.xlsx,stimuli.xlsx,stimuli_new.xlsx,stimuli/Social2.png,stimuli/Social1.png,stimuli/Nonsocial2.png,stimuli/Nonsocial1.png,stimuli/Social4.png,stimuli/Social3.png,stimuli/Nonsocial4.png,stimuli/Nonsocial3.png,cs_neg_ns,"(0.7, -0.5)",,,,,,,,,0,0,0,0,,,,,,,,,,,,,0,6,6,11,,,,,,,,,,,,,,,,,,,,,,,,,,,,,,,,,,773.5499132999685,39,none,0,,,776.5636820999207,,,,,,,,,,,,,,,,,,,,,,49,B,2024-05-22_14h17.36.839,attentional_competition_task,2022.2.4,144.06211952227397,
positions.xlsx,positions_test.xlsx,positions_test_new.xlsx,stimuli.xlsx,stimuli_new.xlsx,stimuli/Social2.png,stimuli/Social1.png,stimuli/Nonsocial2.png,stimuli/Nonsocial1.png,stimuli/Social4.png,stimuli/Social3.png,stimuli/Nonsocial4.png,stimuli/Nonsocial3.png,cs_pos_ns,"(0.7, 0.5)",,,,,,,,,0,0,0,0,,,,,,,,,,,,,0,7,7,14,,,,,,,,,,,,,,,,,,,,,,,,,,,,,,,,,,784.473067099927,42,reward,1,0.6117221999447793,0.6117259999737144,785.0911184999859,,,,,,,,,,,,,,,,,,,,,,49,B,2024-05-22_14h17.36.839,attentional_competition_task,2022.2.4,144.06211952227397,
positions.xlsx,positions_test.xlsx,positions_test_new.xlsx,stimuli.xlsx,stimuli_new.xlsx,stimuli/Social2.png,stimuli/Social1.png,stimuli/Nonsocial2.png,stimuli/Nonsocial1.png,stimuli/Social4.png,stimuli/Social3.png,stimuli/Nonsocial4.png,stimuli/Nonsocial3.png,cs_neg_s,"(0.7, -0.5)",,,,,,,,,0,0,0,0,,,,,,,,,,,,,0,8,8,3,,,,,,,,,,,,,,,,,,,,,,,,,,,,,,,,,,792.8894223999232,42,none,0,,,795.8962445999496,,,,,,,,,,,,,,,,,,,,,,49,B,2024-05-22_14h17.36.839,attentional_competition_task,2022.2.4,144.06211952227397,
positions.xlsx,positions_test.xlsx,positions_test_new.xlsx,stimuli.xlsx,stimuli_new.xlsx,stimuli/Social2.png,stimuli/Social1.png,stimuli/Nonsocial2.png,stimuli/Nonsocial1.png,stimuli/Social4.png,stimuli/Social3.png,stimuli/Nonsocial4.png,stimuli/Nonsocial3.png,cs_neg_ns,"(-0.7, 0.5)",,,,,,,,,0,0,0,0,,,,,,,,,,,,,0,9,9,8,,,,,,,,,,,,,,,,,,,,,,,,,,,,,,,,,,803.3959474998992,39,loss,1,0.423198499949649,0.4232023999793455,803.8264587000012,,,,,,,,,,,,,,,,,,,,,,49,B,2024-05-22_14h17.36.839,attentional_competition_task,2022.2.4,144.06211952227397,
positions.xlsx,positions_test.xlsx,positions_test_new.xlsx,stimuli.xlsx,stimuli_new.xlsx,stimuli/Social2.png,stimuli/Social1.png,stimuli/Nonsocial2.png,stimuli/Nonsocial1.png,stimuli/Social4.png,stimuli/Social3.png,stimuli/Nonsocial4.png,stimuli/Nonsocial3.png,cs_pos_s,"(-0.7, -0.5)",,,,,,,,,0,0,0,0,,,,,,,,,,,,,0,10,10,5,,,,,,,,,,,,,,,,,,,,,,,,,,,,,,,,,,810.7914861999452,42,reward,1,0.7014961999375373,0.7015000999672338,811.4998028998962,,,,,,,,,,,,,,,,,,,,,,49,B,2024-05-22_14h17.36.839,attentional_competition_task,2022.2.4,144.06211952227397,
positions.xlsx,positions_test.xlsx,positions_test_new.xlsx,stimuli.xlsx,stimuli_new.xlsx,stimuli/Social2.png,stimuli/Social1.png,stimuli/Nonsocial2.png,stimuli/Nonsocial1.png,stimuli/Social4.png,stimuli/Social3.png,stimuli/Nonsocial4.png,stimuli/Nonsocial3.png,cs_pos_s,"(-0.7, 0.5)",,,,,,,,,0,0,0,0,,,,,,,,,,,,,0,11,11,4,,,,,,,,,,,,,,,,,,,,,,,,,,,,,,,,,,818.9508778000018,45,reward,1,0.5418331000255421,0.541836499935016,819.4994863999309,,,,,,,,,,,,,,,,,,,,,,49,B,2024-05-22_14h17.36.839,attentional_competition_task,2022.2.4,144.06211952227397,
positions.xlsx,positions_test.xlsx,positions_test_new.xlsx,stimuli.xlsx,stimuli_new.xlsx,stimuli/Social2.png,stimuli/Social1.png,stimuli/Nonsocial2.png,stimuli/Nonsocial1.png,stimuli/Social4.png,stimuli/Social3.png,stimuli/Nonsocial4.png,stimuli/Nonsocial3.png,cs_neg_ns,"(-0.7, -0.5)",,,,,,,,,0,0,0,0,,,,,,,,,,,,,0,12,12,9,,,,,,,,,,,,,,,,,,,,,,,,,,,,,,,,,,826.832502599922,45,none,0,,,829.8462966999505,,,,,,,,,,,,,,,,,,,,,,49,B,2024-05-22_14h17.36.839,attentional_competition_task,2022.2.4,144.06211952227397,
positions.xlsx,positions_test.xlsx,positions_test_new.xlsx,stimuli.xlsx,stimuli_new.xlsx,stimuli/Social2.png,stimuli/Social1.png,stimuli/Nonsocial2.png,stimuli/Nonsocial1.png,stimuli/Social4.png,stimuli/Social3.png,stimuli/Nonsocial4.png,stimuli/Nonsocial3.png,cs_pos_s,"(0.7, 0.5)",,,,,,,,,0,0,0,0,,,,,,,,,,,,,0,13,13,6,,,,,,,,,,,,,,,,,,,,,,,,,,,,,,,,,,837.2487538999412,48,reward,1,0.5973494999343529,0.5973530999617651,837.8528776000021,,,,,,,,,,,,,,,,,,,,,,49,B,2024-05-22_14h17.36.839,attentional_competition_task,2022.2.4,144.06211952227397,
positions.xlsx,positions_test.xlsx,positions_test_new.xlsx,stimuli.xlsx,stimuli_new.xlsx,stimuli/Social2.png,stimuli/Social1.png,stimuli/Nonsocial2.png,stimuli/Nonsocial1.png,stimuli/Social4.png,stimuli/Social3.png,stimuli/Nonsocial4.png,stimuli/Nonsocial3.png,cs_neg_ns,"(0.7, 0.5)",,,,,,,,,0,0,0,0,,,,,,,,,,,,,0,14,14,10,,,,,,,,,,,,,,,,,,,,,,,,,,,,,,,,,,845.567847999977,48,none,0,,,848.5816142999101,,,,,,,,,,,,,,,,,,,,,,49,B,2024-05-22_14h17.36.839,attentional_competition_task,2022.2.4,144.06211952227397,
positions.xlsx,positions_test.xlsx,positions_test_new.xlsx,stimuli.xlsx,stimuli_new.xlsx,stimuli/Social2.png,stimuli/Social1.png,stimuli/Nonsocial2.png,stimuli/Nonsocial1.png,stimuli/Social4.png,stimuli/Social3.png,stimuli/Nonsocial4.png,stimuli/Nonsocial3.png,cs_pos_ns,"(0.7, -0.5)",,,,,,,,,0,0,0,0,,,,,,,,,,,,,0,15,15,15,,,,,,,,,,,,,,,,,,,,,,,,,,,,,,,,,,856.8104544999078,51,reward,1,0.6739989999914542,0.6740021998994052,857.4910066999728,,,,,,,,,,,,,,,,,,,,,,49,B,2024-05-22_14h17.36.839,attentional_competition_task,2022.2.4,144.06211952227397,
positions.xlsx,positions_test.xlsx,positions_test_new.xlsx,stimuli.xlsx,stimuli_new.xlsx,stimuli/Social2.png,stimuli/Social1.png,stimuli/Nonsocial2.png,stimuli/Nonsocial1.png,stimuli/Social4.png,stimuli/Social3.png,stimuli/Nonsocial4.png,stimuli/Nonsocial3.png,cs_pos_ns,"(0.7, 0.5)",,,,,,,,,0,0,0,0,,,,,,,,,,,,,1,0,16,14,,,,,,,,,,,,,,,,,,,,,,,,,,,,,,,,,,864.858789299964,54,reward,1,0.7014043000526726,0.7014081999659538,865.5670768999262,,,,,,,,,,,,,,,,,,,,,,49,B,2024-05-22_14h17.36.839,attentional_competition_task,2022.2.4,144.06211952227397,
positions.xlsx,positions_test.xlsx,positions_test_new.xlsx,stimuli.xlsx,stimuli_new.xlsx,stimuli/Social2.png,stimuli/Social1.png,stimuli/Nonsocial2.png,stimuli/Nonsocial1.png,stimuli/Social4.png,stimuli/Social3.png,stimuli/Nonsocial4.png,stimuli/Nonsocial3.png,cs_pos_ns,"(0.7, -0.5)",,,,,,,,,0,0,0,0,,,,,,,,,,,,,1,1,17,15,,,,,,,,,,,,,,,,,,,,,,,,,,,,,,,,,,873.2820449999999,57,reward,1,0.7501738000428304,0.7501777000725269,874.0389353999635,,,,,,,,,,,,,,,,,,,,,,49,B,2024-05-22_14h17.36.839,attentional_competition_task,2022.2.4,144.06211952227397,
positions.xlsx,positions_test.xlsx,positions_test_new.xlsx,stimuli.xlsx,stimuli_new.xlsx,stimuli/Social2.png,stimuli/Social1.png,stimuli/Nonsocial2.png,stimuli/Nonsocial1.png,stimuli/Social4.png,stimuli/Social3.png,stimuli/Nonsocial4.png,stimuli/Nonsocial3.png,cs_neg_s,"(-0.7, -0.5)",,,,,,,,,0,0,0,0,,,,,,,,,,,,,1,2,18,1,,,,,,,,,,,,,,,,,,,,,,,,,,,,,,,,,,882.1914372999454,57,none,0,,,885.2051784999203,,,,,,,,,,,,,,,,,,,,,,49,B,2024-05-22_14h17.36.839,attentional_competition_task,2022.2.4,144.06211952227397,
positions.xlsx,positions_test.xlsx,positions_test_new.xlsx,stimuli.xlsx,stimuli_new.xlsx,stimuli/Social2.png,stimuli/Social1.png,stimuli/Nonsocial2.png,stimuli/Nonsocial1.png,stimuli/Social4.png,stimuli/Social3.png,stimuli/Nonsocial4.png,stimuli/Nonsocial3.png,cs_neg_s,"(0.7, 0.5)",,,,,,,,,0,0,0,0,,,,,,,,,,,,,1,3,19,2,,,,,,,,,,,,,,,,,,,,,,,,,,,,,,,,,,892.4895826999564,57,none,0,,,895.4964364999905,,,,,,,,,,,,,,,,,,,,,,49,B,2024-05-22_14h17.36.839,attentional_competition_task,2022.2.4,144.06211952227397,
positions.xlsx,positions_test.xlsx,positions_test_new.xlsx,stimuli.xlsx,stimuli_new.xlsx,stimuli/Social2.png,stimuli/Social1.png,stimuli/Nonsocial2.png,stimuli/Nonsocial1.png,stimuli/Social4.png,stimuli/Social3.png,stimuli/Nonsocial4.png,stimuli/Nonsocial3.png,cs_neg_s,"(0.7, -0.5)",,,,,,,,,0,0,0,0,,,,,,,,,,,,,1,4,20,3,,,,,,,,,,,,,,,,,,,,,,,,,,,,,,,,,,903.2947309999727,57,none,0,,,906.301558899926,,,,,,,,,,,,,,,,,,,,,,49,B,2024-05-22_14h17.36.839,attentional_competition_task,2022.2.4,144.06211952227397,
positions.xlsx,positions_test.xlsx,positions_test_new.xlsx,stimuli.xlsx,stimuli_new.xlsx,stimuli/Social2.png,stimuli/Social1.png,stimuli/Nonsocial2.png,stimuli/Nonsocial1.png,stimuli/Social4.png,stimuli/Social3.png,stimuli/Nonsocial4.png,stimuli/Nonsocial3.png,cs_pos_ns,"(-0.7, 0.5)",,,,,,,,,0,0,0,0,,,,,,,,,,,,,1,5,21,12,,,,,,,,,,,,,,,,,,,,,,,,,,,,,,,,,,913.9818066000007,60,reward,1,0.6113871999550611,0.6113926999969408,914.599809999927,,,,,,,,,,,,,,,,,,,,,,49,B,2024-05-22_14h17.36.839,attentional_competition_task,2022.2.4,144.06211952227397,
positions.xlsx,positions_test.xlsx,positions_test_new.xlsx,stimuli.xlsx,stimuli_new.xlsx,stimuli/Social2.png,stimuli/Social1.png,stimuli/Nonsocial2.png,stimuli/Nonsocial1.png,stimuli/Social4.png,stimuli/Social3.png,stimuli/Nonsocial4.png,stimuli/Nonsocial3.png,cs_pos_s,"(-0.7, 0.5)",,,,,,,,,0,0,0,0,,,,,,,,,,,,,1,6,22,4,,,,,,,,,,,,,,,,,,,,,,,,,,,,,,,,,,922.6203508999897,63,reward,1,0.7849223000230268,0.7919287999393418,923.4189321999438,,,,,,,,,,,,,,,,,,,,,,49,B,2024-05-22_14h17.36.839,attentional_competition_task,2022.2.4,144.06211952227397,
positions.xlsx,positions_test.xlsx,positions_test_new.xlsx,stimuli.xlsx,stimuli_new.xlsx,stimuli/Social2.png,stimuli/Social1.png,stimuli/Nonsocial2.png,stimuli/Nonsocial1.png,stimuli/Social4.png,stimuli/Social3.png,stimuli/Nonsocial4.png,stimuli/Nonsocial3.png,cs_neg_ns,"(-0.7, -0.5)",,,,,,,,,0,0,0,0,,,,,,,,,,,,,1,7,23,9,,,,,,,,,,,,,,,,,,,,,,,,,,,,,,,,,,930.9533859998919,63,none,0,,,933.9671260999748,,,,,,,,,,,,,,,,,,,,,,49,B,2024-05-22_14h17.36.839,attentional_competition_task,2022.2.4,144.06211952227397,
positions.xlsx,positions_test.xlsx,positions_test_new.xlsx,stimuli.xlsx,stimuli_new.xlsx,stimuli/Social2.png,stimuli/Social1.png,stimuli/Nonsocial2.png,stimuli/Nonsocial1.png,stimuli/Social4.png,stimuli/Social3.png,stimuli/Nonsocial4.png,stimuli/Nonsocial3.png,cs_pos_ns,"(-0.7, -0.5)",,,,,,,,,0,0,0,0,,,,,,,,,,,,,1,8,24,13,,,,,,,,,,,,,,,,,,,,,,,,,,,,,,,,,,940.946012499975,66,reward,1,0.6873973000328988,0.6874012000625953,941.6404326999327,,,,,,,,,,,,,,,,,,,,,,49,B,2024-05-22_14h17.36.839,attentional_competition_task,2022.2.4,144.06211952227397,
positions.xlsx,positions_test.xlsx,positions_test_new.xlsx,stimuli.xlsx,stimuli_new.xlsx,stimuli/Social2.png,stimuli/Social1.png,stimuli/Nonsocial2.png,stimuli/Nonsocial1.png,stimuli/Social4.png,stimuli/Social3.png,stimuli/Nonsocial4.png,stimuli/Nonsocial3.png,cs_pos_s,"(-0.7, -0.5)",,,,,,,,,0,0,0,0,,,,,,,,,,,,,1,9,25,5,,,,,,,,,,,,,,,,,,,,,,,,,,,,,,,,,,949.1123455999186,69,reward,1,0.5912316999165341,0.5912351999431849,949.7095413999632,,,,,,,,,,,,,,,,,,,,,,49,B,2024-05-22_14h17.36.839,attentional_competition_task,2022.2.4,144.06211952227397,
positions.xlsx,positions_test.xlsx,positions_test_new.xlsx,stimuli.xlsx,stimuli_new.xlsx,stimuli/Social2.png,stimuli/Social1.png,stimuli/Nonsocial2.png,stimuli/Nonsocial1.png,stimuli/Social4.png,stimuli/Social3.png,stimuli/Nonsocial4.png,stimuli/Nonsocial3.png,cs_neg_s,"(-0.7, 0.5)",,,,,,,,,0,0,0,0,,,,,,,,,,,,,1,10,26,0,,,,,,,,,,,,,,,,,,,,,,,,,,,,,,,,,,957.299524199916,69,none,0,,,960.313291199971,,,,,,,,,,,,,,,,,,,,,,49,B,2024-05-22_14h17.36.839,attentional_competition_task,2022.2.4,144.06211952227397,
positions.xlsx,positions_test.xlsx,positions_test_new.xlsx,stimuli.xlsx,stimuli_new.xlsx,stimuli/Social2.png,stimuli/Social1.png,stimuli/Nonsocial2.png,stimuli/Nonsocial1.png,stimuli/Social4.png,stimuli/Social3.png,stimuli/Nonsocial4.png,stimuli/Nonsocial3.png,cs_pos_s,"(0.7, 0.5)",,,,,,,,,0,0,0,0,,,,,,,,,,,,,1,11,27,6,,,,,,,,,,,,,,,,,,,,,,,,,,,,,,,,,,967.6810590999667,72,reward,1,0.47992339998017997,0.47992720000911504,968.1671222998993,,,,,,,,,,,,,,,,,,,,,,49,B,2024-05-22_14h17.36.839,attentional_competition_task,2022.2.4,144.06211952227397,
positions.xlsx,positions_test.xlsx,positions_test_new.xlsx,stimuli.xlsx,stimuli_new.xlsx,stimuli/Social2.png,stimuli/Social1.png,stimuli/Nonsocial2.png,stimuli/Nonsocial1.png,stimuli/Social4.png,stimuli/Social3.png,stimuli/Nonsocial4.png,stimuli/Nonsocial3.png,cs_neg_ns,"(0.7, 0.5)",,,,,,,,,0,0,0,0,,,,,,,,,,,,,1,12,28,10,,,,,,,,,,,,,,,,,,,,,,,,,,,,,,,,,,975.9307279998902,72,none,0,,,978.9445144999772,,,,,,,,,,,,,,,,,,,,,,49,B,2024-05-22_14h17.36.839,attentional_competition_task,2022.2.4,144.06211952227397,
positions.xlsx,positions_test.xlsx,positions_test_new.xlsx,stimuli.xlsx,stimuli_new.xlsx,stimuli/Social2.png,stimuli/Social1.png,stimuli/Nonsocial2.png,stimuli/Nonsocial1.png,stimuli/Social4.png,stimuli/Social3.png,stimuli/Nonsocial4.png,stimuli/Nonsocial3.png,cs_neg_ns,"(0.7, -0.5)",,,,,,,,,0,0,0,0,,,,,,,,,,,,,1,13,29,11,,,,,,,,,,,,,,,,,,,,,,,,,,,,,,,,,,986.2636508999858,72,none,0,,,989.2774239999708,,,,,,,,,,,,,,,,,,,,,,49,B,2024-05-22_14h17.36.839,attentional_competition_task,2022.2.4,144.06211952227397,
positions.xlsx,positions_test.xlsx,positions_test_new.xlsx,stimuli.xlsx,stimuli_new.xlsx,stimuli/Social2.png,stimuli/Social1.png,stimuli/Nonsocial2.png,stimuli/Nonsocial1.png,stimuli/Social4.png,stimuli/Social3.png,stimuli/Nonsocial4.png,stimuli/Nonsocial3.png,cs_pos_s,"(0.7, -0.5)",,,,,,,,,0,0,0,0,,,,,,,,,,,,,1,14,30,7,,,,,,,,,,,,,,,,,,,,,,,,,,,,,,,,,,996.7493204999482,75,reward,0,,,997.4854544999544,,,,,,,,,,,,,,,,,,,,,,49,B,2024-05-22_14h17.36.839,attentional_competition_task,2022.2.4,144.06211952227397,
positions.xlsx,positions_test.xlsx,positions_test_new.xlsx,stimuli.xlsx,stimuli_new.xlsx,stimuli/Social2.png,stimuli/Social1.png,stimuli/Nonsocial2.png,stimuli/Nonsocial1.png,stimuli/Social4.png,stimuli/Social3.png,stimuli/Nonsocial4.png,stimuli/Nonsocial3.png,cs_neg_ns,"(-0.7, 0.5)",,,,,,,,,0,0,0,0,,,,,,,,,,,,,1,15,31,8,,,,,,,,,,,,,,,,,,,,,,,,,,,,,,,,,,1005.1726217999822,75,none,0,,,1008.1863847998902,,,,,,,,,,,,,,,,,,,,,,49,B,2024-05-22_14h17.36.839,attentional_competition_task,2022.2.4,144.06211952227397,
positions.xlsx,positions_test.xlsx,positions_test_new.xlsx,stimuli.xlsx,stimuli_new.xlsx,stimuli/Social2.png,stimuli/Social1.png,stimuli/Nonsocial2.png,stimuli/Nonsocial1.png,stimuli/Social4.png,stimuli/Social3.png,stimuli/Nonsocial4.png,stimuli/Nonsocial3.png,cs_pos_s,,,,,,,,,,0,0,0,0,,,,,,,,,,,,,,,,,0,0,0,2,,,,,,,,,,,,,,,,,,,,,,,1013.0820164999459,7.0,8.616142700077035,,,,,,,,,,,,,,,,,,,,,,,,,,,,,,,,,49,B,2024-05-22_14h17.36.839,attentional_competition_task,2022.2.4,144.06211952227397,
positions.xlsx,positions_test.xlsx,positions_test_new.xlsx,stimuli.xlsx,stimuli_new.xlsx,stimuli/Social2.png,stimuli/Social1.png,stimuli/Nonsocial2.png,stimuli/Nonsocial1.png,stimuli/Social4.png,stimuli/Social3.png,stimuli/Nonsocial4.png,stimuli/Nonsocial3.png,cs_pos_ns,,,,,,,,,,0,0,0,0,,,,,,,,,,,,,,,,,0,1,1,3,,,,,,,,,,,,,,,,,,,,,,,1024.0260210999986,7.0,6.0356420000316575,,,,,,,,,,,,,,,,,,,,,,,,,,,,,,,,,49,B,2024-05-22_14h17.36.839,attentional_competition_task,2022.2.4,144.06211952227397,
positions.xlsx,positions_test.xlsx,positions_test_new.xlsx,stimuli.xlsx,stimuli_new.xlsx,stimuli/Social2.png,stimuli/Social1.png,stimuli/Nonsocial2.png,stimuli/Nonsocial1.png,stimuli/Social4.png,stimuli/Social3.png,stimuli/Nonsocial4.png,stimuli/Nonsocial3.png,cs_neg_ns,,,,,,,,,,0,0,0,0,,,,,,,,,,,,,,,,,0,2,2,1,,,,,,,,,,,,,,,,,,,,,,,1030.629974499927,3.0,7.0223080000141636,,,,,,,,,,,,,,,,,,,,,,,,,,,,,,,,,49,B,2024-05-22_14h17.36.839,attentional_competition_task,2022.2.4,144.06211952227397,
positions.xlsx,positions_test.xlsx,positions_test_new.xlsx,stimuli.xlsx,stimuli_new.xlsx,stimuli/Social2.png,stimuli/Social1.png,stimuli/Nonsocial2.png,stimuli/Nonsocial1.png,stimuli/Social4.png,stimuli/Social3.png,stimuli/Nonsocial4.png,stimuli/Nonsocial3.png,cs_neg_s,,,,,,,,,,0,0,0,0,,,,,,,,,,,,,,,,,0,3,3,0,,,,,,,,,,,,,,,,,,,,,,,1038.192152799922,4.0,1.7938001999864355,,,,,,,,,,,,,,,,,,,,,,,,,,,,,,,,,49,B,2024-05-22_14h17.36.839,attentional_competition_task,2022.2.4,144.06211952227397,
positions.xlsx,positions_test.xlsx,positions_test_new.xlsx,stimuli.xlsx,stimuli_new.xlsx,stimuli/Social2.png,stimuli/Social1.png,stimuli/Nonsocial2.png,stimuli/Nonsocial1.png,stimuli/Social4.png,stimuli/Social3.png,stimuli/Nonsocial4.png,stimuli/Nonsocial3.png,,,"(-0.7, -0.5)",cs_pos_ns,"(-0.7, 0.5)",cs_pos_s,"(0.7, -0.5)",cs_neg_s,"(0.7, 0.5)",cs_neg_ns,0,0,0,0,,,,,,,,,,,,,,,,,,,,,0,0,0,19,,,,,,,,,,,,,,,,,,,,,,,,,,,75,loss,,,,,1040.4351068999385,1050.2263539999258,1050.2263539999258,1050.2263539999258,1050.2263539999258,0,,,1,0.02973880001809448,0.4744433999294415,0,,,1,0.538352599949576,0.5383581999922171,1050.7611349999206,1050.7611349999206,1050.7611349999206,1050.7611349999206,49,B,2024-05-22_14h17.36.839,attentional_competition_task,2022.2.4,144.06211952227397,
positions.xlsx,positions_test.xlsx,positions_test_new.xlsx,stimuli.xlsx,stimuli_new.xlsx,stimuli/Social2.png,stimuli/Social1.png,stimuli/Nonsocial2.png,stimuli/Nonsocial1.png,stimuli/Social4.png,stimuli/Social3.png,stimuli/Nonsocial4.png,stimuli/Nonsocial3.png,,,"(-0.7, -0.5)",cs_pos_ns,"(-0.7, 0.5)",cs_neg_ns,"(0.7, -0.5)",cs_neg_s,"(0.7, 0.5)",cs_pos_s,0,0,0,0,,,,,,,,,,,,,,,,,,,,,0,1,1,21,,,,,,,,,,,,,,,,,,,,,,,,,,,81,reward,,,,,,1059.29548719991,1059.29548719991,1059.29548719991,1059.29548719991,1,0.030343900085426867,0.04436070006340742,0,,,0,,,0,,,1059.3371359999292,1059.3371359999292,1059.3371359999292,1059.3371359999292,49,B,2024-05-22_14h17.36.839,attentional_competition_task,2022.2.4,144.06211952227397,
positions.xlsx,positions_test.xlsx,positions_test_new.xlsx,stimuli.xlsx,stimuli_new.xlsx,stimuli/Social2.png,stimuli/Social1.png,stimuli/Nonsocial2.png,stimuli/Nonsocial1.png,stimuli/Social4.png,stimuli/Social3.png,stimuli/Nonsocial4.png,stimuli/Nonsocial3.png,,,"(-0.7, -0.5)",cs_neg_ns,"(-0.7, 0.5)",cs_pos_ns,"(0.7, -0.5)",cs_neg_s,"(0.7, 0.5)",cs_pos_s,0,0,0,0,,,,,,,,,,,,,,,,,,,,,0,2,2,17,,,,,,,,,,,,,,,,,,,,,,,,,,,90,reward,,,,,,1068.6701424999628,1068.6701424999628,1068.6701424999628,1068.6701424999628,0,,,0,,,0,,,0,,,1068.6701424999628,1068.6701424999628,1068.6701424999628,1068.6701424999628,49,B,2024-05-22_14h17.36.839,attentional_competition_task,2022.2.4,144.06211952227397,
positions.xlsx,positions_test.xlsx,positions_test_new.xlsx,stimuli.xlsx,stimuli_new.xlsx,stimuli/Social2.png,stimuli/Social1.png,stimuli/Nonsocial2.png,stimuli/Nonsocial1.png,stimuli/Social4.png,stimuli/Social3.png,stimuli/Nonsocial4.png,stimuli/Nonsocial3.png,,,"(-0.7, -0.5)",cs_neg_s,"(-0.7, 0.5)",cs_neg_ns,"(0.7, -0.5)",cs_pos_s,"(0.7, 0.5)",cs_pos_ns,0,0,0,0,,,,,,,,,,,,,,,,,,,,,0,3,3,2,,,,,,,,,,,,,,,,,,,,,,,,,,,99,reward,,,,,,1076.4475628999062,1076.4475628999062,1076.4475628999062,1076.4475628999062,0,,,0,,,1,0.023389599984511733,0.10001169994939119,0,,,1077.0656097999308,1077.0656097999308,1077.0656097999308,1077.0656097999308,49,B,2024-05-22_14h17.36.839,attentional_competition_task,2022.2.4,144.06211952227397,
positions.xlsx,positions_test.xlsx,positions_test_new.xlsx,stimuli.xlsx,stimuli_new.xlsx,stimuli/Social2.png,stimuli/Social1.png,stimuli/Nonsocial2.png,stimuli/Nonsocial1.png,stimuli/Social4.png,stimuli/Social3.png,stimuli/Nonsocial4.png,stimuli/Nonsocial3.png,,,"(-0.7, -0.5)",cs_neg_ns,"(-0.7, 0.5)",cs_pos_ns,"(0.7, -0.5)",cs_pos_s,"(0.7, 0.5)",cs_neg_s,0,0,0,0,,,,,,,,,,,,,,,,,,,,,0,4,4,16,,,,,,,,,,,,,,,,,,,,,,,,,,,105,reward,,,,,,1084.176424699952,1084.176424699952,1084.176424699952,1084.176424699952,0,,,1,0.431343000032939,0.43844429997261614,1,0.028797399951145053,0.36201909999363124,0,,,1084.607001699973,1084.607001699973,1084.607001699973,1084.607001699973,49,B,2024-05-22_14h17.36.839,attentional_competition_task,2022.2.4,144.06211952227397,
positions.xlsx,positions_test.xlsx,positions_test_new.xlsx,stimuli.xlsx,stimuli_new.xlsx,stimuli/Social2.png,stimuli/Social1.png,stimuli/Nonsocial2.png,stimuli/Nonsocial1.png,stimuli/Social4.png,stimuli/Social3.png,stimuli/Nonsocial4.png,stimuli/Nonsocial3.png,,,"(-0.7, -0.5)",cs_neg_s,"(-0.7, 0.5)",cs_neg_ns,"(0.7, -0.5)",cs_pos_ns,"(0.7, 0.5)",cs_pos_s,0,0,0,0,,,,,,,,,,,,,,,,,,,,,0,5,5,3,,,,,,,,,,,,,,,,,,,,,,,,,,,114,reward,,,,,,1093.9053050999064,1093.9053050999064,1093.9053050999064,1093.9053050999064,0,,,0,,,1,0.029813699889928102,0.12102929991669953,0,,,1094.5232439999236,1094.5232439999236,1094.5232439999236,1094.5232439999236,49,B,2024-05-22_14h17.36.839,attentional_competition_task,2022.2.4,144.06211952227397,
positions.xlsx,positions_test.xlsx,positions_test_new.xlsx,stimuli.xlsx,stimuli_new.xlsx,stimuli/Social2.png,stimuli/Social1.png,stimuli/Nonsocial2.png,stimuli/Nonsocial1.png,stimuli/Social4.png,stimuli/Social3.png,stimuli/Nonsocial4.png,stimuli/Nonsocial3.png,,,"(-0.7, -0.5)",cs_pos_s,"(-0.7, 0.5)",cs_neg_ns,"(0.7, -0.5)",cs_neg_s,"(0.7, 0.5)",cs_pos_ns,0,0,0,0,,,,,,,,,,,,,,,,,,,,,0,6,6,8,,,,,,,,,,,,,,,,,,,,,,,,,,,117,reward,,,,,,1100.6202467998955,1100.6202467998955,1100.6202467998955,1100.6202467998955,1,1.5084321000613272,1.515499500092119,0,,,0,,,0,,,1102.1409902999876,1102.1409902999876,1102.1409902999876,1102.1409902999876,49,B,2024-05-22_14h17.36.839,attentional_competition_task,2022.2.4,144.06211952227397,
positions.xlsx,positions_test.xlsx,positions_test_new.xlsx,stimuli.xlsx,stimuli_new.xlsx,stimuli/Social2.png,stimuli/Social1.png,stimuli/Nonsocial2.png,stimuli/Nonsocial1.png,stimuli/Social4.png,stimuli/Social3.png,stimuli/Nonsocial4.png,stimuli/Nonsocial3.png,,,"(-0.7, -0.5)",cs_pos_ns,"(-0.7, 0.5)",cs_neg_s,"(0.7, -0.5)",cs_pos_s,"(0.7, 0.5)",cs_neg_ns,0,0,0,0,,,,,,,,,,,,,,,,,,,,,0,7,7,22,,,,,,,,,,,,,,,,,,,,,,,,,,,126,reward,,,,,,1110.633715200005,1110.633715200005,1110.633715200005,1110.633715200005,0,,,0,,,0,,,0,,,1111.3836908999365,1111.3836908999365,1111.3836908999365,1111.3836908999365,49,B,2024-05-22_14h17.36.839,attentional_competition_task,2022.2.4,144.06211952227397,
positions.xlsx,positions_test.xlsx,positions_test_new.xlsx,stimuli.xlsx,stimuli_new.xlsx,stimuli/Social2.png,stimuli/Social1.png,stimuli/Nonsocial2.png,stimuli/Nonsocial1.png,stimuli/Social4.png,stimuli/Social3.png,stimuli/Nonsocial4.png,stimuli/Nonsocial3.png,,,"(-0.7, -0.5)",cs_pos_ns,"(-0.7, 0.5)",cs_neg_ns,"(0.7, -0.5)",cs_pos_s,"(0.7, 0.5)",cs_neg_s,0,0,0,0,,,,,,,,,,,,,,,,,,,,,0,8,8,20,,,,,,,,,,,,,,,,,,,,,,,,,,,132,reward,,,,,,1119.070865299902,1119.070865299902,1119.070865299902,1119.070865299902,0,,,0,,,1,0.029178999946452677,0.48884590005036443,0,,,1120.0777810999425,1120.0777810999425,1120.0777810999425,1120.0777810999425,49,B,2024-05-22_14h17.36.839,attentional_competition_task,2022.2.4,144.06211952227397,
positions.xlsx,positions_test.xlsx,positions_test_new.xlsx,stimuli.xlsx,stimuli_new.xlsx,stimuli/Social2.png,stimuli/Social1.png,stimuli/Nonsocial2.png,stimuli/Nonsocial1.png,stimuli/Social4.png,stimuli/Social3.png,stimuli/Nonsocial4.png,stimuli/Nonsocial3.png,,,"(-0.7, -0.5)",cs_neg_ns,"(-0.7, 0.5)",cs_neg_s,"(0.7, -0.5)",cs_pos_s,"(0.7, 0.5)",cs_pos_ns,0,0,0,0,,,,,,,,,,,,,,,,,,,,,0,9,9,14,,,,,,,,,,,,,,,,,,,,,,,,,,,141,reward,,,,,,1127.549668499967,1127.549668499967,1127.549668499967,1127.549668499967,0,,,0,,,0,,,0,,,1128.341344699962,1128.341344699962,1128.341344699962,1128.341344699962,49,B,2024-05-22_14h17.36.839,attentional_competition_task,2022.2.4,144.06211952227397,
positions.xlsx,positions_test.xlsx,positions_test_new.xlsx,stimuli.xlsx,stimuli_new.xlsx,stimuli/Social2.png,stimuli/Social1.png,stimuli/Nonsocial2.png,stimuli/Nonsocial1.png,stimuli/Social4.png,stimuli/Social3.png,stimuli/Nonsocial4.png,stimuli/Nonsocial3.png,,,"(-0.7, -0.5)",cs_pos_s,"(-0.7, 0.5)",cs_pos_ns,"(0.7, -0.5)",cs_neg_s,"(0.7, 0.5)",cs_neg_ns,0,0,0,0,,,,,,,,,,,,,,,,,,,,,0,10,10,10,,,,,,,,,,,,,,,,,,,,,,,,,,,150,reward,,,,,,1136.736836600001,1136.736836600001,1136.736836600001,1136.736836600001,0,,,0,,,0,,,0,,,1137.5909464999568,1137.5909464999568,1137.5909464999568,1137.5909464999568,49,B,2024-05-22_14h17.36.839,attentional_competition_task,2022.2.4,144.06211952227397,
positions.xlsx,positions_test.xlsx,positions_test_new.xlsx,stimuli.xlsx,stimuli_new.xlsx,stimuli/Social2.png,stimuli/Social1.png,stimuli/Nonsocial2.png,stimuli/Nonsocial1.png,stimuli/Social4.png,stimuli/Social3.png,stimuli/Nonsocial4.png,stimuli/Nonsocial3.png,,,"(-0.7, -0.5)",cs_neg_s,"(-0.7, 0.5)",cs_pos_ns,"(0.7, -0.5)",cs_pos_s,"(0.7, 0.5)",cs_neg_ns,0,0,0,0,,,,,,,,,,,,,,,,,,,,,0,11,11,4,,,,,,,,,,,,,,,,,,,,,,,,,,,153,reward,,,,,,1145.9587098999182,1145.9587098999182,1145.9587098999182,1145.9587098999182,0,,,1,0.025542099960148335,0.02554569998756051,0,,,0,,,1145.9587098999182,1145.9587098999182,1145.9587098999182,1145.9587098999182,49,B,2024-05-22_14h17.36.839,attentional_competition_task,2022.2.4,144.06211952227397,
positions.xlsx,positions_test.xlsx,positions_test_new.xlsx,stimuli.xlsx,stimuli_new.xlsx,stimuli/Social2.png,stimuli/Social1.png,stimuli/Nonsocial2.png,stimuli/Nonsocial1.png,stimuli/Social4.png,stimuli/Social3.png,stimuli/Nonsocial4.png,stimuli/Nonsocial3.png,,,"(-0.7, -0.5)",cs_neg_ns,"(-0.7, 0.5)",cs_neg_s,"(0.7, -0.5)",cs_pos_ns,"(0.7, 0.5)",cs_pos_s,0,0,0,0,,,,,,,,,,,,,,,,,,,,,0,12,12,15,,,,,,,,,,,,,,,,,,,,,,,,,,,162,reward,,,,,,1154.1042338999687,1154.1042338999687,1154.1042338999687,1154.1042338999687,0,,,0,,,1,0.02381689997855574,0.22601370001211762,0,,,1154.9513759999536,1154.9513759999536,1154.9513759999536,1154.9513759999536,49,B,2024-05-22_14h17.36.839,attentional_competition_task,2022.2.4,144.06211952227397,
positions.xlsx,positions_test.xlsx,positions_test_new.xlsx,stimuli.xlsx,stimuli_new.xlsx,stimuli/Social2.png,stimuli/Social1.png,stimuli/Nonsocial2.png,stimuli/Nonsocial1.png,stimuli/Social4.png,stimuli/Social3.png,stimuli/Nonsocial4.png,stimuli/Nonsocial3.png,,,"(-0.7, -0.5)",cs_neg_ns,"(-0.7, 0.5)",cs_pos_s,"(0.7, -0.5)",cs_pos_ns,"(0.7, 0.5)",cs_neg_s,0,0,0,0,,,,,,,,,,,,,,,,,,,,,0,13,13,13,,,,,,,,,,,,,,,,,,,,,,,,,,,168,reward,,,,,,1162.4650140999584,1162.4650140999584,1162.4650140999584,1162.4650140999584,0,,,0,,,1,0.028604199993424118,0.028607799904420972,0,,,1162.4650140999584,1162.4650140999584,1162.4650140999584,1162.4650140999584,49,B,2024-05-22_14h17.36.839,attentional_competition_task,2022.2.4,144.06211952227397,
positions.xlsx,positions_test.xlsx,positions_test_new.xlsx,stimuli.xlsx,stimuli_new.xlsx,stimuli/Social2.png,stimuli/Social1.png,stimuli/Nonsocial2.png,stimuli/Nonsocial1.png,stimuli/Social4.png,stimuli/Social3.png,stimuli/Nonsocial4.png,stimuli/Nonsocial3.png,,,"(-0.7, -0.5)",cs_neg_ns,"(-0.7, 0.5)",cs_pos_s,"(0.7, -0.5)",cs_neg_s,"(0.7, 0.5)",cs_pos_ns,0,0,0,0,,,,,,,,,,,,,,,,,,,,,0,14,14,12,,,,,,,,,,,,,,,,,,,,,,,,,,,177,reward,,,,,,1171.575711799902,1171.575711799902,1171.575711799902,1171.575711799902,0,,,0,,,0,,,0,,,1172.4229221999412,1172.4229221999412,1172.4229221999412,1172.4229221999412,49,B,2024-05-22_14h17.36.839,attentional_competition_task,2022.2.4,144.06211952227397,
positions.xlsx,positions_test.xlsx,positions_test_new.xlsx,stimuli.xlsx,stimuli_new.xlsx,stimuli/Social2.png,stimuli/Social1.png,stimuli/Nonsocial2.png,stimuli/Nonsocial1.png,stimuli/Social4.png,stimuli/Social3.png,stimuli/Nonsocial4.png,stimuli/Nonsocial3.png,,,"(-0.7, -0.5)",cs_pos_s,"(-0.7, 0.5)",cs_neg_s,"(0.7, -0.5)",cs_pos_ns,"(0.7, 0.5)",cs_neg_ns,0,0,0,0,,,,,,,,,,,,,,,,,,,,,0,15,15,7,,,,,,,,,,,,,,,,,,,,,,,,,,,177,loss,,,,,,1180.4364351999247,1180.4364351999247,1180.4364351999247,1180.4364351999247,0,,,1,0.14093650004360825,0.14094039995688945,1,0.028672400047071278,0.07146649993956089,0,,,1180.582318599918,1180.582318599918,1180.582318599918,1180.582318599918,49,B,2024-05-22_14h17.36.839,attentional_competition_task,2022.2.4,144.06211952227397,
positions.xlsx,positions_test.xlsx,positions_test_new.xlsx,stimuli.xlsx,stimuli_new.xlsx,stimuli/Social2.png,stimuli/Social1.png,stimuli/Nonsocial2.png,stimuli/Nonsocial1.png,stimuli/Social4.png,stimuli/Social3.png,stimuli/Nonsocial4.png,stimuli/Nonsocial3.png,,,"(-0.7, -0.5)",cs_pos_s,"(-0.7, 0.5)",cs_neg_s,"(0.7, -0.5)",cs_neg_ns,"(0.7, 0.5)",cs_pos_ns,0,0,0,0,,,,,,,,,,,,,,,,,,,,,0,16,16,6,,,,,,,,,,,,,,,,,,,,,,,,,,,183,reward,,,,,,1188.9709038999863,1188.9709038999863,1188.9709038999863,1188.9709038999863,1,0.030418600072152913,0.27971250005066395,0,,,0,,,1,0.3498546000337228,0.3498584000626579,1189.318085799925,1189.318085799925,1189.318085799925,1189.318085799925,49,B,2024-05-22_14h17.36.839,attentional_competition_task,2022.2.4,144.06211952227397,
positions.xlsx,positions_test.xlsx,positions_test_new.xlsx,stimuli.xlsx,stimuli_new.xlsx,stimuli/Social2.png,stimuli/Social1.png,stimuli/Nonsocial2.png,stimuli/Nonsocial1.png,stimuli/Social4.png,stimuli/Social3.png,stimuli/Nonsocial4.png,stimuli/Nonsocial3.png,,,"(-0.7, -0.5)",cs_neg_s,"(-0.7, 0.5)",cs_pos_s,"(0.7, -0.5)",cs_neg_ns,"(0.7, 0.5)",cs_pos_ns,0,0,0,0,,,,,,,,,,,,,,,,,,,,,0,17,17,0,,,,,,,,,,,,,,,,,,,,,,,,,,,189,reward,,,,,,1197.7205398998922,1197.7205398998922,1197.7205398998922,1197.7205398998922,0,,,1,0.024149100063368678,0.1307098000543192,0,,,1,0.19335320009849966,0.19335730001330376,1197.9218884999864,1197.9218884999864,1197.9218884999864,1197.9218884999864,49,B,2024-05-22_14h17.36.839,attentional_competition_task,2022.2.4,144.06211952227397,
positions.xlsx,positions_test.xlsx,positions_test_new.xlsx,stimuli.xlsx,stimuli_new.xlsx,stimuli/Social2.png,stimuli/Social1.png,stimuli/Nonsocial2.png,stimuli/Nonsocial1.png,stimuli/Social4.png,stimuli/Social3.png,stimuli/Nonsocial4.png,stimuli/Nonsocial3.png,,,"(-0.7, -0.5)",cs_neg_s,"(-0.7, 0.5)",cs_pos_ns,"(0.7, -0.5)",cs_neg_ns,"(0.7, 0.5)",cs_pos_s,0,0,0,0,,,,,,,,,,,,,,,,,,,,,0,18,18,5,,,,,,,,,,,,,,,,,,,,,,,,,,,198,reward,,,,,,1206.1715646999655,1206.1715646999655,1206.1715646999655,1206.1715646999655,0,,,1,0.02439040003810078,0.03907270007766783,0,,,0,,,1207.039608699968,1207.039608699968,1207.039608699968,1207.039608699968,49,B,2024-05-22_14h17.36.839,attentional_competition_task,2022.2.4,144.06211952227397,
positions.xlsx,positions_test.xlsx,positions_test_new.xlsx,stimuli.xlsx,stimuli_new.xlsx,stimuli/Social2.png,stimuli/Social1.png,stimuli/Nonsocial2.png,stimuli/Nonsocial1.png,stimuli/Social4.png,stimuli/Social3.png,stimuli/Nonsocial4.png,stimuli/Nonsocial3.png,,,"(-0.7, -0.5)",cs_neg_s,"(-0.7, 0.5)",cs_pos_s,"(0.7, -0.5)",cs_pos_ns,"(0.7, 0.5)",cs_neg_ns,0,0,0,0,,,,,,,,,,,,,,,,,,,,,0,19,19,1,,,,,,,,,,,,,,,,,,,,,,,,,,,207,reward,,,,,,1214.511498699896,1214.511498699896,1214.511498699896,1214.511498699896,0,,,0,,,1,0.031187299988232553,0.16413190006278455,0,,,1215.323987599928,1215.323987599928,1215.323987599928,1215.323987599928,49,B,2024-05-22_14h17.36.839,attentional_competition_task,2022.2.4,144.06211952227397,
positions.xlsx,positions_test.xlsx,positions_test_new.xlsx,stimuli.xlsx,stimuli_new.xlsx,stimuli/Social2.png,stimuli/Social1.png,stimuli/Nonsocial2.png,stimuli/Nonsocial1.png,stimuli/Social4.png,stimuli/Social3.png,stimuli/Nonsocial4.png,stimuli/Nonsocial3.png,,,"(-0.7, -0.5)",cs_pos_ns,"(-0.7, 0.5)",cs_pos_s,"(0.7, -0.5)",cs_neg_ns,"(0.7, 0.5)",cs_neg_s,0,0,0,0,,,,,,,,,,,,,,,,,,,,,0,20,20,18,,,,,,,,,,,,,,,,,,,,,,,,,,,216,reward,,,,,,1223.9694356999826,1223.9694356999826,1223.9694356999826,1223.9694356999826,0,,,0,,,0,,,0,,,1224.559730399982,1224.559730399982,1224.559730399982,1224.559730399982,49,B,2024-05-22_14h17.36.839,attentional_competition_task,2022.2.4,144.06211952227397,
positions.xlsx,positions_test.xlsx,positions_test_new.xlsx,stimuli.xlsx,stimuli_new.xlsx,stimuli/Social2.png,stimuli/Social1.png,stimuli/Nonsocial2.png,stimuli/Nonsocial1.png,stimuli/Social4.png,stimuli/Social3.png,stimuli/Nonsocial4.png,stimuli/Nonsocial3.png,,,"(-0.7, -0.5)",cs_pos_s,"(-0.7, 0.5)",cs_pos_ns,"(0.7, -0.5)",cs_neg_ns,"(0.7, 0.5)",cs_neg_s,0,0,0,0,,,,,,,,,,,,,,,,,,,,,0,21,21,11,,,,,,,,,,,,,,,,,,,,,,,,,,,225,reward,,,,,,1233.0871525999391,1233.0871525999391,1233.0871525999391,1233.0871525999391,0,,,0,,,0,,,0,,,1233.746844899957,1233.746844899957,1233.746844899957,1233.746844899957,49,B,2024-05-22_14h17.36.839,attentional_competition_task,2022.2.4,144.06211952227397,
positions.xlsx,positions_test.xlsx,positions_test_new.xlsx,stimuli.xlsx,stimuli_new.xlsx,stimuli/Social2.png,stimuli/Social1.png,stimuli/Nonsocial2.png,stimuli/Nonsocial1.png,stimuli/Social4.png,stimuli/Social3.png,stimuli/Nonsocial4.png,stimuli/Nonsocial3.png,,,"(-0.7, -0.5)",cs_pos_s,"(-0.7, 0.5)",cs_neg_ns,"(0.7, -0.5)",cs_pos_ns,"(0.7, 0.5)",cs_neg_s,0,0,0,0,,,,,,,,,,,,,,,,,,,,,0,22,22,9,,,,,,,,,,,,,,,,,,,,,,,,,,,234,reward,,,,,,1241.8507016999647,1241.8507016999647,1241.8507016999647,1241.8507016999647,0,,,0,,,0,,,0,,,1242.6978649999946,1242.6978649999946,1242.6978649999946,1242.6978649999946,49,B,2024-05-22_14h17.36.839,attentional_competition_task,2022.2.4,144.06211952227397,
positions.xlsx,positions_test.xlsx,positions_test_new.xlsx,stimuli.xlsx,stimuli_new.xlsx,stimuli/Social2.png,stimuli/Social1.png,stimuli/Nonsocial2.png,stimuli/Nonsocial1.png,stimuli/Social4.png,stimuli/Social3.png,stimuli/Nonsocial4.png,stimuli/Nonsocial3.png,,,"(-0.7, -0.5)",cs_pos_ns,"(-0.7, 0.5)",cs_neg_s,"(0.7, -0.5)",cs_neg_ns,"(0.7, 0.5)",cs_pos_s,0,0,0,0,,,,,,,,,,,,,,,,,,,,,0,23,23,23,,,,,,,,,,,,,,,,,,,,,,,,,,,243,reward,,,,,,1250.6698117998894,1250.6698117998894,1250.6698117998894,1250.6698117998894,0,,,0,,,0,,,0,,,1251.2878375999862,1251.2878375999862,1251.2878375999862,1251.2878375999862,49,B,2024-05-22_14h17.36.839,attentional_competition_task,2022.2.4,144.06211952227397,
positions.xlsx,positions_test.xlsx,positions_test_new.xlsx,stimuli.xlsx,stimuli_new.xlsx,stimuli/Social2.png,stimuli/Social1.png,stimuli/Nonsocial2.png,stimuli/Nonsocial1.png,stimuli/Social4.png,stimuli/Social3.png,stimuli/Nonsocial4.png,stimuli/Nonsocial3.png,,,"(-0.7, -0.5)",cs_pos_s,"(-0.7, 0.5)",cs_pos_ns,"(0.7, -0.5)",cs_neg_ns,"(0.7, 0.5)",cs_neg_s,0,0,0,0,,,,,,,,,,,,,,,,,,,,,1,0,24,11,,,,,,,,,,,,,,,,,,,,,,,,,,,252,reward,,,,,,1259.0722395998891,1259.0722395998891,1259.0722395998891,1259.0722395998891,0,,,0,,,0,,,0,,,1260.0166607999709,1260.0166607999709,1260.0166607999709,1260.0166607999709,49,B,2024-05-22_14h17.36.839,attentional_competition_task,2022.2.4,144.06211952227397,
positions.xlsx,positions_test.xlsx,positions_test_new.xlsx,stimuli.xlsx,stimuli_new.xlsx,stimuli/Social2.png,stimuli/Social1.png,stimuli/Nonsocial2.png,stimuli/Nonsocial1.png,stimuli/Social4.png,stimuli/Social3.png,stimuli/Nonsocial4.png,stimuli/Nonsocial3.png,,,"(-0.7, -0.5)",cs_pos_ns,"(-0.7, 0.5)",cs_neg_s,"(0.7, -0.5)",cs_pos_s,"(0.7, 0.5)",cs_neg_ns,0,0,0,0,,,,,,,,,,,,,,,,,,,,,1,1,25,22,,,,,,,,,,,,,,,,,,,,,,,,,,,261,reward,,,,,,1268.02325009997,1268.02325009997,1268.02325009997,1268.02325009997,0,,,0,,,0,,,0,,,1268.939908499946,1268.939908499946,1268.939908499946,1268.939908499946,49,B,2024-05-22_14h17.36.839,attentional_competition_task,2022.2.4,144.06211952227397,
positions.xlsx,positions_test.xlsx,positions_test_new.xlsx,stimuli.xlsx,stimuli_new.xlsx,stimuli/Social2.png,stimuli/Social1.png,stimuli/Nonsocial2.png,stimuli/Nonsocial1.png,stimuli/Social4.png,stimuli/Social3.png,stimuli/Nonsocial4.png,stimuli/Nonsocial3.png,,,"(-0.7, -0.5)",cs_pos_ns,"(-0.7, 0.5)",cs_pos_s,"(0.7, -0.5)",cs_neg_s,"(0.7, 0.5)",cs_neg_ns,0,0,0,0,,,,,,,,,,,,,,,,,,,,,1,2,26,19,,,,,,,,,,,,,,,,,,,,,,,,,,,270,reward,,,,,,1276.2451880999142,1276.2451880999142,1276.2451880999142,1276.2451880999142,0,,,0,,,0,,,0,,,1277.1548618999077,1277.1548618999077,1277.1548618999077,1277.1548618999077,49,B,2024-05-22_14h17.36.839,attentional_competition_task,2022.2.4,144.06211952227397,
positions.xlsx,positions_test.xlsx,positions_test_new.xlsx,stimuli.xlsx,stimuli_new.xlsx,stimuli/Social2.png,stimuli/Social1.png,stimuli/Nonsocial2.png,stimuli/Nonsocial1.png,stimuli/Social4.png,stimuli/Social3.png,stimuli/Nonsocial4.png,stimuli/Nonsocial3.png,,,"(-0.7, -0.5)",cs_neg_s,"(-0.7, 0.5)",cs_pos_s,"(0.7, -0.5)",cs_neg_ns,"(0.7, 0.5)",cs_pos_ns,0,0,0,0,,,,,,,,,,,,,,,,,,,,,1,3,27,0,,,,,,,,,,,,,,,,,,,,,,,,,,,279,reward,,,,,,1285.7933769999072,1285.7933769999072,1285.7933769999072,1285.7933769999072,0,,,0,,,0,,,0,,,1286.3489327999996,1286.3489327999996,1286.3489327999996,1286.3489327999996,49,B,2024-05-22_14h17.36.839,attentional_competition_task,2022.2.4,144.06211952227397,
positions.xlsx,positions_test.xlsx,positions_test_new.xlsx,stimuli.xlsx,stimuli_new.xlsx,stimuli/Social2.png,stimuli/Social1.png,stimuli/Nonsocial2.png,stimuli/Nonsocial1.png,stimuli/Social4.png,stimuli/Social3.png,stimuli/Nonsocial4.png,stimuli/Nonsocial3.png,,,"(-0.7, -0.5)",cs_pos_s,"(-0.7, 0.5)",cs_neg_ns,"(0.7, -0.5)",cs_neg_s,"(0.7, 0.5)",cs_pos_ns,0,0,0,0,,,,,,,,,,,,,,,,,,,,,1,4,28,8,,,,,,,,,,,,,,,,,,,,,,,,,,,288,reward,,,,,,1293.5291728999,1293.5291728999,1293.5291728999,1293.5291728999,0,,,0,,,0,,,0,,,1294.2444631999824,1294.2444631999824,1294.2444631999824,1294.2444631999824,49,B,2024-05-22_14h17.36.839,attentional_competition_task,2022.2.4,144.06211952227397,
positions.xlsx,positions_test.xlsx,positions_test_new.xlsx,stimuli.xlsx,stimuli_new.xlsx,stimuli/Social2.png,stimuli/Social1.png,stimuli/Nonsocial2.png,stimuli/Nonsocial1.png,stimuli/Social4.png,stimuli/Social3.png,stimuli/Nonsocial4.png,stimuli/Nonsocial3.png,,,"(-0.7, -0.5)",cs_neg_ns,"(-0.7, 0.5)",cs_neg_s,"(0.7, -0.5)",cs_pos_ns,"(0.7, 0.5)",cs_pos_s,0,0,0,0,,,,,,,,,,,,,,,,,,,,,1,5,29,15,,,,,,,,,,,,,,,,,,,,,,,,,,,297,reward,,,,,,1301.5705731998896,1301.5705731998896,1301.5705731998896,1301.5705731998896,0,,,0,,,0,,,0,,,1302.3830277998932,1302.3830277998932,1302.3830277998932,1302.3830277998932,49,B,2024-05-22_14h17.36.839,attentional_competition_task,2022.2.4,144.06211952227397,
positions.xlsx,positions_test.xlsx,positions_test_new.xlsx,stimuli.xlsx,stimuli_new.xlsx,stimuli/Social2.png,stimuli/Social1.png,stimuli/Nonsocial2.png,stimuli/Nonsocial1.png,stimuli/Social4.png,stimuli/Social3.png,stimuli/Nonsocial4.png,stimuli/Nonsocial3.png,,,"(-0.7, -0.5)",cs_neg_ns,"(-0.7, 0.5)",cs_pos_ns,"(0.7, -0.5)",cs_neg_s,"(0.7, 0.5)",cs_pos_s,0,0,0,0,,,,,,,,,,,,,,,,,,,,,1,6,30,17,,,,,,,,,,,,,,,,,,,,,,,,,,,306,reward,,,,,,1309.5841022999957,1309.5841022999957,1309.5841022999957,1309.5841022999957,0,,,0,,,0,,,0,,,1310.4730091999518,1310.4730091999518,1310.4730091999518,1310.4730091999518,49,B,2024-05-22_14h17.36.839,attentional_competition_task,2022.2.4,144.06211952227397,
positions.xlsx,positions_test.xlsx,positions_test_new.xlsx,stimuli.xlsx,stimuli_new.xlsx,stimuli/Social2.png,stimuli/Social1.png,stimuli/Nonsocial2.png,stimuli/Nonsocial1.png,stimuli/Social4.png,stimuli/Social3.png,stimuli/Nonsocial4.png,stimuli/Nonsocial3.png,,,"(-0.7, -0.5)",cs_neg_s,"(-0.7, 0.5)",cs_pos_s,"(0.7, -0.5)",cs_pos_ns,"(0.7, 0.5)",cs_neg_ns,0,0,0,0,,,,,,,,,,,,,,,,,,,,,1,7,31,1,,,,,,,,,,,,,,,,,,,,,,,,,,,315,reward,,,,,,1318.4310118999565,1318.4310118999565,1318.4310118999565,1318.4310118999565,0,,,0,,,1,0.02338560007046908,0.12893180001992732,0,,,1319.2990246999543,1319.2990246999543,1319.2990246999543,1319.2990246999543,49,B,2024-05-22_14h17.36.839,attentional_competition_task,2022.2.4,144.06211952227397,
positions.xlsx,positions_test.xlsx,positions_test_new.xlsx,stimuli.xlsx,stimuli_new.xlsx,stimuli/Social2.png,stimuli/Social1.png,stimuli/Nonsocial2.png,stimuli/Nonsocial1.png,stimuli/Social4.png,stimuli/Social3.png,stimuli/Nonsocial4.png,stimuli/Nonsocial3.png,,,"(-0.7, -0.5)",cs_pos_ns,"(-0.7, 0.5)",cs_pos_s,"(0.7, -0.5)",cs_neg_ns,"(0.7, 0.5)",cs_neg_s,0,0,0,0,,,,,,,,,,,,,,,,,,,,,1,8,32,18,,,,,,,,,,,,,,,,,,,,,,,,,,,324,reward,,,,,,1326.5556391999125,1326.5556391999125,1326.5556391999125,1326.5556391999125,0,,,0,,,0,,,0,,,1327.4445318999933,1327.4445318999933,1327.4445318999933,1327.4445318999933,49,B,2024-05-22_14h17.36.839,attentional_competition_task,2022.2.4,144.06211952227397,
positions.xlsx,positions_test.xlsx,positions_test_new.xlsx,stimuli.xlsx,stimuli_new.xlsx,stimuli/Social2.png,stimuli/Social1.png,stimuli/Nonsocial2.png,stimuli/Nonsocial1.png,stimuli/Social4.png,stimuli/Social3.png,stimuli/Nonsocial4.png,stimuli/Nonsocial3.png,,,"(-0.7, -0.5)",cs_neg_s,"(-0.7, 0.5)",cs_pos_ns,"(0.7, -0.5)",cs_neg_ns,"(0.7, 0.5)",cs_pos_s,0,0,0,0,,,,,,,,,,,,,,,,,,,,,1,9,33,5,,,,,,,,,,,,,,,,,,,,,,,,,,,327,reward,,,,,,1335.2498049999122,1335.2498049999122,1335.2498049999122,1335.2498049999122,0,,,1,0.21142409997992218,0.21142770000733435,0,,,0,,,1335.965025399928,1335.965025399928,1335.965025399928,1335.965025399928,49,B,2024-05-22_14h17.36.839,attentional_competition_task,2022.2.4,144.06211952227397,
positions.xlsx,positions_test.xlsx,positions_test_new.xlsx,stimuli.xlsx,stimuli_new.xlsx,stimuli/Social2.png,stimuli/Social1.png,stimuli/Nonsocial2.png,stimuli/Nonsocial1.png,stimuli/Social4.png,stimuli/Social3.png,stimuli/Nonsocial4.png,stimuli/Nonsocial3.png,,,"(-0.7, -0.5)",cs_pos_s,"(-0.7, 0.5)",cs_pos_ns,"(0.7, -0.5)",cs_neg_s,"(0.7, 0.5)",cs_neg_ns,0,0,0,0,,,,,,,,,,,,,,,,,,,,,1,10,34,10,,,,,,,,,,,,,,,,,,,,,,,,,,,336,reward,,,,,,1343.4439208999975,1343.4439208999975,1343.4439208999975,1343.4439208999975,0,,,0,,,0,,,0,,,1344.4021870999131,1344.4021870999131,1344.4021870999131,1344.4021870999131,49,B,2024-05-22_14h17.36.839,attentional_competition_task,2022.2.4,144.06211952227397,
positions.xlsx,positions_test.xlsx,positions_test_new.xlsx,stimuli.xlsx,stimuli_new.xlsx,stimuli/Social2.png,stimuli/Social1.png,stimuli/Nonsocial2.png,stimuli/Nonsocial1.png,stimuli/Social4.png,stimuli/Social3.png,stimuli/Nonsocial4.png,stimuli/Nonsocial3.png,,,"(-0.7, -0.5)",cs_pos_ns,"(-0.7, 0.5)",cs_neg_ns,"(0.7, -0.5)",cs_neg_s,"(0.7, 0.5)",cs_pos_s,0,0,0,0,,,,,,,,,,,,,,,,,,,,,1,11,35,21,,,,,,,,,,,,,,,,,,,,,,,,,,,345,reward,,,,,,1352.1657507999334,1352.1657507999334,1352.1657507999334,1352.1657507999334,1,0.0299535000231117,0.08676800003740937,0,,,0,,,0,,,1353.130979499896,1353.130979499896,1353.130979499896,1353.130979499896,49,B,2024-05-22_14h17.36.839,attentional_competition_task,2022.2.4,144.06211952227397,
positions.xlsx,positions_test.xlsx,positions_test_new.xlsx,stimuli.xlsx,stimuli_new.xlsx,stimuli/Social2.png,stimuli/Social1.png,stimuli/Nonsocial2.png,stimuli/Nonsocial1.png,stimuli/Social4.png,stimuli/Social3.png,stimuli/Nonsocial4.png,stimuli/Nonsocial3.png,,,"(-0.7, -0.5)",cs_neg_ns,"(-0.7, 0.5)",cs_pos_ns,"(0.7, -0.5)",cs_pos_s,"(0.7, 0.5)",cs_neg_s,0,0,0,0,,,,,,,,,,,,,,,,,,,,,1,12,36,16,,,,,,,,,,,,,,,,,,,,,,,,,,,354,reward,,,,,,1361.2695356999757,1361.2695356999757,1361.2695356999757,1361.2695356999757,0,,,1,0.02873290004208684,0.06453340000007302,0,,,0,,,1362.0959278999362,1362.0959278999362,1362.0959278999362,1362.0959278999362,49,B,2024-05-22_14h17.36.839,attentional_competition_task,2022.2.4,144.06211952227397,
positions.xlsx,positions_test.xlsx,positions_test_new.xlsx,stimuli.xlsx,stimuli_new.xlsx,stimuli/Social2.png,stimuli/Social1.png,stimuli/Nonsocial2.png,stimuli/Nonsocial1.png,stimuli/Social4.png,stimuli/Social3.png,stimuli/Nonsocial4.png,stimuli/Nonsocial3.png,,,"(-0.7, -0.5)",cs_neg_s,"(-0.7, 0.5)",cs_neg_ns,"(0.7, -0.5)",cs_pos_ns,"(0.7, 0.5)",cs_pos_s,0,0,0,0,,,,,,,,,,,,,,,,,,,,,1,13,37,3,,,,,,,,,,,,,,,,,,,,,,,,,,,363,reward,,,,,,1369.2692707999377,1369.2692707999377,1369.2692707999377,1369.2692707999377,0,,,0,,,2,0.05192850006278604,0.05864199995994568,0,,,1370.0817202999024,1370.0817202999024,1370.0817202999024,1370.0817202999024,49,B,2024-05-22_14h17.36.839,attentional_competition_task,2022.2.4,144.06211952227397,
positions.xlsx,positions_test.xlsx,positions_test_new.xlsx,stimuli.xlsx,stimuli_new.xlsx,stimuli/Social2.png,stimuli/Social1.png,stimuli/Nonsocial2.png,stimuli/Nonsocial1.png,stimuli/Social4.png,stimuli/Social3.png,stimuli/Nonsocial4.png,stimuli/Nonsocial3.png,,,"(-0.7, -0.5)",cs_pos_ns,"(-0.7, 0.5)",cs_neg_ns,"(0.7, -0.5)",cs_pos_s,"(0.7, 0.5)",cs_neg_s,0,0,0,0,,,,,,,,,,,,,,,,,,,,,1,14,38,20,,,,,,,,,,,,,,,,,,,,,,,,,,,372,reward,,,,,,1378.0674958999734,1378.0674958999734,1378.0674958999734,1378.0674958999734,0,,,0,,,0,,,0,,,1378.8522073999047,1378.8522073999047,1378.8522073999047,1378.8522073999047,49,B,2024-05-22_14h17.36.839,attentional_competition_task,2022.2.4,144.06211952227397,
positions.xlsx,positions_test.xlsx,positions_test_new.xlsx,stimuli.xlsx,stimuli_new.xlsx,stimuli/Social2.png,stimuli/Social1.png,stimuli/Nonsocial2.png,stimuli/Nonsocial1.png,stimuli/Social4.png,stimuli/Social3.png,stimuli/Nonsocial4.png,stimuli/Nonsocial3.png,,,"(-0.7, -0.5)",cs_pos_s,"(-0.7, 0.5)",cs_neg_s,"(0.7, -0.5)",cs_pos_ns,"(0.7, 0.5)",cs_neg_ns,0,0,0,0,,,,,,,,,,,,,,,,,,,,,1,15,39,7,,,,,,,,,,,,,,,,,,,,,,,,,,,381,reward,,,,,,1385.9352453999454,1385.9352453999454,1385.9352453999454,1385.9352453999454,0,,,0,,,0,,,0,,,1386.837973299902,1386.837973299902,1386.837973299902,1386.837973299902,49,B,2024-05-22_14h17.36.839,attentional_competition_task,2022.2.4,144.06211952227397,
positions.xlsx,positions_test.xlsx,positions_test_new.xlsx,stimuli.xlsx,stimuli_new.xlsx,stimuli/Social2.png,stimuli/Social1.png,stimuli/Nonsocial2.png,stimuli/Nonsocial1.png,stimuli/Social4.png,stimuli/Social3.png,stimuli/Nonsocial4.png,stimuli/Nonsocial3.png,,,"(-0.7, -0.5)",cs_neg_ns,"(-0.7, 0.5)",cs_pos_s,"(0.7, -0.5)",cs_neg_s,"(0.7, 0.5)",cs_pos_ns,0,0,0,0,,,,,,,,,,,,,,,,,,,,,1,16,40,12,,,,,,,,,,,,,,,,,,,,,,,,,,,390,reward,,,,,,1394.8237613999518,1394.8237613999518,1394.8237613999518,1394.8237613999518,0,,,0,,,0,,,1,0.029380900086835027,0.03711140004452318,1395.7334786999272,1395.7334786999272,1395.7334786999272,1395.7334786999272,49,B,2024-05-22_14h17.36.839,attentional_competition_task,2022.2.4,144.06211952227397,
positions.xlsx,positions_test.xlsx,positions_test_new.xlsx,stimuli.xlsx,stimuli_new.xlsx,stimuli/Social2.png,stimuli/Social1.png,stimuli/Nonsocial2.png,stimuli/Nonsocial1.png,stimuli/Social4.png,stimuli/Social3.png,stimuli/Nonsocial4.png,stimuli/Nonsocial3.png,,,"(-0.7, -0.5)",cs_neg_s,"(-0.7, 0.5)",cs_pos_ns,"(0.7, -0.5)",cs_pos_s,"(0.7, 0.5)",cs_neg_ns,0,0,0,0,,,,,,,,,,,,,,,,,,,,,1,17,41,4,,,,,,,,,,,,,,,,,,,,,,,,,,,399,reward,,,,,,1403.1359645999037,1403.1359645999037,1403.1359645999037,1403.1359645999037,0,,,0,,,0,,,0,,,1404.1220586999552,1404.1220586999552,1404.1220586999552,1404.1220586999552,49,B,2024-05-22_14h17.36.839,attentional_competition_task,2022.2.4,144.06211952227397,
positions.xlsx,positions_test.xlsx,positions_test_new.xlsx,stimuli.xlsx,stimuli_new.xlsx,stimuli/Social2.png,stimuli/Social1.png,stimuli/Nonsocial2.png,stimuli/Nonsocial1.png,stimuli/Social4.png,stimuli/Social3.png,stimuli/Nonsocial4.png,stimuli/Nonsocial3.png,,,"(-0.7, -0.5)",cs_neg_ns,"(-0.7, 0.5)",cs_pos_s,"(0.7, -0.5)",cs_pos_ns,"(0.7, 0.5)",cs_neg_s,0,0,0,0,,,,,,,,,,,,,,,,,,,,,1,18,42,13,,,,,,,,,,,,,,,,,,,,,,,,,,,408,reward,,,,,,1412.7259438999463,1412.7259438999463,1412.7259438999463,1412.7259438999463,0,,,0,,,1,0.022949300007894635,0.022952800034545362,0,,,1412.7259438999463,1412.7259438999463,1412.7259438999463,1412.7259438999463,49,B,2024-05-22_14h17.36.839,attentional_competition_task,2022.2.4,144.06211952227397,
positions.xlsx,positions_test.xlsx,positions_test_new.xlsx,stimuli.xlsx,stimuli_new.xlsx,stimuli/Social2.png,stimuli/Social1.png,stimuli/Nonsocial2.png,stimuli/Nonsocial1.png,stimuli/Social4.png,stimuli/Social3.png,stimuli/Nonsocial4.png,stimuli/Nonsocial3.png,,,"(-0.7, -0.5)",cs_neg_s,"(-0.7, 0.5)",cs_neg_ns,"(0.7, -0.5)",cs_pos_s,"(0.7, 0.5)",cs_pos_ns,0,0,0,0,,,,,,,,,,,,,,,,,,,,,1,19,43,2,,,,,,,,,,,,,,,,,,,,,,,,,,,417,reward,,,,,,1420.9130271999165,1420.9130271999165,1420.9130271999165,1420.9130271999165,0,,,0,,,1,0.2678633000468835,0.28026050003245473,1,0.02294850000180304,0.26081700006034225,1421.8227029999252,1421.8227029999252,1421.8227029999252,1421.8227029999252,49,B,2024-05-22_14h17.36.839,attentional_competition_task,2022.2.4,144.06211952227397,
positions.xlsx,positions_test.xlsx,positions_test_new.xlsx,stimuli.xlsx,stimuli_new.xlsx,stimuli/Social2.png,stimuli/Social1.png,stimuli/Nonsocial2.png,stimuli/Nonsocial1.png,stimuli/Social4.png,stimuli/Social3.png,stimuli/Nonsocial4.png,stimuli/Nonsocial3.png,,,"(-0.7, -0.5)",cs_neg_ns,"(-0.7, 0.5)",cs_neg_s,"(0.7, -0.5)",cs_pos_s,"(0.7, 0.5)",cs_pos_ns,0,0,0,0,,,,,,,,,,,,,,,,,,,,,1,20,44,14,,,,,,,,,,,,,,,,,,,,,,,,,,,426,reward,,,,,,1429.3988089999184,1429.3988089999184,1429.3988089999184,1429.3988089999184,0,,,0,,,0,,,0,,,1430.3015528999968,1430.3015528999968,1430.3015528999968,1430.3015528999968,49,B,2024-05-22_14h17.36.839,attentional_competition_task,2022.2.4,144.06211952227397,
positions.xlsx,positions_test.xlsx,positions_test_new.xlsx,stimuli.xlsx,stimuli_new.xlsx,stimuli/Social2.png,stimuli/Social1.png,stimuli/Nonsocial2.png,stimuli/Nonsocial1.png,stimuli/Social4.png,stimuli/Social3.png,stimuli/Nonsocial4.png,stimuli/Nonsocial3.png,,,"(-0.7, -0.5)",cs_pos_s,"(-0.7, 0.5)",cs_neg_s,"(0.7, -0.5)",cs_neg_ns,"(0.7, 0.5)",cs_pos_ns,0,0,0,0,,,,,,,,,,,,,,,,,,,,,1,21,45,6,,,,,,,,,,,,,,,,,,,,,,,,,,,435,reward,,,,,,1437.7942742999876,1437.7942742999876,1437.7942742999876,1437.7942742999876,1,0.023089900030754507,0.11389799998141825,0,,,0,,,0,,,1438.7109504999826,1438.7109504999826,1438.7109504999826,1438.7109504999826,49,B,2024-05-22_14h17.36.839,attentional_competition_task,2022.2.4,144.06211952227397,
positions.xlsx,positions_test.xlsx,positions_test_new.xlsx,stimuli.xlsx,stimuli_new.xlsx,stimuli/Social2.png,stimuli/Social1.png,stimuli/Nonsocial2.png,stimuli/Nonsocial1.png,stimuli/Social4.png,stimuli/Social3.png,stimuli/Nonsocial4.png,stimuli/Nonsocial3.png,,,"(-0.7, -0.5)",cs_pos_ns,"(-0.7, 0.5)",cs_neg_s,"(0.7, -0.5)",cs_neg_ns,"(0.7, 0.5)",cs_pos_s,0,0,0,0,,,,,,,,,,,,,,,,,,,,,1,22,46,23,,,,,,,,,,,,,,,,,,,,,,,,,,,444,reward,,,,,,1447.3842052998953,1447.3842052998953,1447.3842052998953,1447.3842052998953,0,,,0,,,0,,,0,,,1447.3842052998953,1447.3842052998953,1447.3842052998953,1447.3842052998953,49,B,2024-05-22_14h17.36.839,attentional_competition_task,2022.2.4,144.06211952227397,
positions.xlsx,positions_test.xlsx,positions_test_new.xlsx,stimuli.xlsx,stimuli_new.xlsx,stimuli/Social2.png,stimuli/Social1.png,stimuli/Nonsocial2.png,stimuli/Nonsocial1.png,stimuli/Social4.png,stimuli/Social3.png,stimuli/Nonsocial4.png,stimuli/Nonsocial3.png,,,"(-0.7, -0.5)",cs_pos_s,"(-0.7, 0.5)",cs_neg_ns,"(0.7, -0.5)",cs_pos_ns,"(0.7, 0.5)",cs_neg_s,0,0,0,0,,,,,,,,,,,,,,,,,,,,,1,23,47,9,,,,,,,,,,,,,,,,,,,,,,,,,,,453,reward,,,,,,1455.3005693999585,1455.3005693999585,1455.3005693999585,1455.3005693999585,0,,,0,,,0,,,0,,,1456.0505574999843,1456.0505574999843,1456.0505574999843,1456.0505574999843,49,B,2024-05-22_14h17.36.839,attentional_competition_task,2022.2.4,144.06211952227397,
positions.xlsx,positions_test.xlsx,positions_test_new.xlsx,stimuli.xlsx,stimuli_new.xlsx,stimuli/Social2.png,stimuli/Social1.png,stimuli/Nonsocial2.png,stimuli/Nonsocial1.png,stimuli/Social4.png,stimuli/Social3.png,stimuli/Nonsocial4.png,stimuli/Nonsocial3.png,,,"(-0.7, -0.5)",cs_neg_s,"(-0.7, 0.5)",cs_pos_ns,"(0.7, -0.5)",cs_neg_ns,"(0.7, 0.5)",cs_pos_s_new,0,0,0,0,,,,,,,,,,,,,,,,,,,,,,,,,,,,,0,0,0,29,0,0,0,0,,,,,,,,,,,,,,,456,reward,,,,,,1461.793378299917,1461.793378299917,1461.793378299917,1461.793378299917,0,,,0,,,0,,,1,0.6202280001016334,0.6202318000141531,1462.4183146998985,1462.4183146998985,1462.4183146998985,1462.4183146998985,49,B,2024-05-22_14h17.36.839,attentional_competition_task,2022.2.4,144.06211952227397,
positions.xlsx,positions_test.xlsx,positions_test_new.xlsx,stimuli.xlsx,stimuli_new.xlsx,stimuli/Social2.png,stimuli/Social1.png,stimuli/Nonsocial2.png,stimuli/Nonsocial1.png,stimuli/Social4.png,stimuli/Social3.png,stimuli/Nonsocial4.png,stimuli/Nonsocial3.png,,,"(-0.7, -0.5)",cs_neg_s,"(-0.7, 0.5)",cs_pos_ns,"(0.7, -0.5)",cs_neg_ns,"(0.7, 0.5)",cs_pos_s_new,0,0,0,0,,,,,,,,,,,,,,,,,,,,,,,,,,,,,0,0,0,29,1,0,1,0,,,,,,,,,,,,,,,453,loss,,,,,,1462.9113133999053,1462.9113133999053,1462.9113133999053,1462.9113133999053,0,,,0,,,1,0.2878377999877557,0.28784130001440644,1,0.023282999987713993,0.267574799945578,1463.209926999989,1463.209926999989,1463.209926999989,1463.209926999989,49,B,2024-05-22_14h17.36.839,attentional_competition_task,2022.2.4,144.06211952227397,
positions.xlsx,positions_test.xlsx,positions_test_new.xlsx,stimuli.xlsx,stimuli_new.xlsx,stimuli/Social2.png,stimuli/Social1.png,stimuli/Nonsocial2.png,stimuli/Nonsocial1.png,stimuli/Social4.png,stimuli/Social3.png,stimuli/Nonsocial4.png,stimuli/Nonsocial3.png,,,"(-0.7, -0.5)",cs_neg_s,"(-0.7, 0.5)",cs_pos_ns,"(0.7, -0.5)",cs_neg_ns,"(0.7, 0.5)",cs_pos_s_new,0,0,0,0,,,,,,,,,,,,,,,,,,,,,,,,,,,,,0,0,0,29,2,0,2,0,,,,,,,,,,,,,,,456,reward,,,,,,1463.7308064999525,1463.7308064999525,1463.7308064999525,1463.7308064999525,0,,,1,0.022429100004956126,0.022432700032368302,0,,,0,,,1463.7308064999525,1463.7308064999525,1463.7308064999525,1463.7308064999525,49,B,2024-05-22_14h17.36.839,attentional_competition_task,2022.2.4,144.06211952227397,
positions.xlsx,positions_test.xlsx,positions_test_new.xlsx,stimuli.xlsx,stimuli_new.xlsx,stimuli/Social2.png,stimuli/Social1.png,stimuli/Nonsocial2.png,stimuli/Nonsocial1.png,stimuli/Social4.png,stimuli/Social3.png,stimuli/Nonsocial4.png,stimuli/Nonsocial3.png,,,"(-0.7, -0.5)",cs_neg_s,"(-0.7, 0.5)",cs_pos_ns,"(0.7, -0.5)",cs_neg_ns,"(0.7, 0.5)",cs_pos_s_new,0,0,0,0,,,,,,,,,,,,,,,,,,,,,,,,,,,,,0,0,0,29,,,,,,,,,,,,,,,,,,,,,,,,,,,,,,,,,,,,,,,,,,,,,,49,B,2024-05-22_14h17.36.839,attentional_competition_task,2022.2.4,144.06211952227397,
positions.xlsx,positions_test.xlsx,positions_test_new.xlsx,stimuli.xlsx,stimuli_new.xlsx,stimuli/Social2.png,stimuli/Social1.png,stimuli/Nonsocial2.png,stimuli/Nonsocial1.png,stimuli/Social4.png,stimuli/Social3.png,stimuli/Nonsocial4.png,stimuli/Nonsocial3.png,,,"(-0.7, -0.5)",cs_neg_ns,"(-0.7, 0.5)",cs_pos_ns,"(0.7, -0.5)",cs_pos_s_new,"(0.7, 0.5)",cs_neg_s,0,0,0,0,,,,,,,,,,,,,,,,,,,,,,,,,,,,,0,1,1,34,0,0,0,0,,,,,,,,,,,,,,,459,reward,,,,,,1470.2513809999218,1470.2513809999218,1470.2513809999218,1470.2513809999218,0,,,0,,,1,0.4948817999102175,0.49488529993686825,0,,,1470.751330500003,1470.751330500003,1470.751330500003,1470.751330500003,49,B,2024-05-22_14h17.36.839,attentional_competition_task,2022.2.4,144.06211952227397,
positions.xlsx,positions_test.xlsx,positions_test_new.xlsx,stimuli.xlsx,stimuli_new.xlsx,stimuli/Social2.png,stimuli/Social1.png,stimuli/Nonsocial2.png,stimuli/Nonsocial1.png,stimuli/Social4.png,stimuli/Social3.png,stimuli/Nonsocial4.png,stimuli/Nonsocial3.png,,,"(-0.7, -0.5)",cs_neg_ns,"(-0.7, 0.5)",cs_pos_ns,"(0.7, -0.5)",cs_pos_s_new,"(0.7, 0.5)",cs_neg_s,0,0,0,0,,,,,,,,,,,,,,,,,,,,,,,,,,,,,0,1,1,34,1,0,1,0,,,,,,,,,,,,,,,462,reward,,,,,,1471.286008099909,1471.286008099909,1471.286008099909,1471.286008099909,0,,,1,0.0298719999846071,0.029878399916924536,0,,,0,,,1471.286008099909,1471.286008099909,1471.286008099909,1471.286008099909,49,B,2024-05-22_14h17.36.839,attentional_competition_task,2022.2.4,144.06211952227397,
positions.xlsx,positions_test.xlsx,positions_test_new.xlsx,stimuli.xlsx,stimuli_new.xlsx,stimuli/Social2.png,stimuli/Social1.png,stimuli/Nonsocial2.png,stimuli/Nonsocial1.png,stimuli/Social4.png,stimuli/Social3.png,stimuli/Nonsocial4.png,stimuli/Nonsocial3.png,,,"(-0.7, -0.5)",cs_neg_ns,"(-0.7, 0.5)",cs_pos_ns,"(0.7, -0.5)",cs_pos_s_new,"(0.7, 0.5)",cs_neg_s,0,0,0,0,,,,,,,,,,,,,,,,,,,,,,,,,,,,,0,1,1,34,2,0,2,0,,,,,,,,,,,,,,,459,loss,,,,,,1471.7790710999398,1471.7790710999398,1471.7790710999398,1471.7790710999398,0,,,1,0.021491299965418875,0.12163519999012351,0,,,0,,,1472.1471159999492,1472.1471159999492,1472.1471159999492,1472.1471159999492,49,B,2024-05-22_14h17.36.839,attentional_competition_task,2022.2.4,144.06211952227397,
positions.xlsx,positions_test.xlsx,positions_test_new.xlsx,stimuli.xlsx,stimuli_new.xlsx,stimuli/Social2.png,stimuli/Social1.png,stimuli/Nonsocial2.png,stimuli/Nonsocial1.png,stimuli/Social4.png,stimuli/Social3.png,stimuli/Nonsocial4.png,stimuli/Nonsocial3.png,,,"(-0.7, -0.5)",cs_neg_ns,"(-0.7, 0.5)",cs_pos_ns,"(0.7, -0.5)",cs_pos_s_new,"(0.7, 0.5)",cs_neg_s,0,0,0,0,,,,,,,,,,,,,,,,,,,,,,,,,,,,,0,1,1,34,,,,,,,,,,,,,,,,,,,,,,,,,,,,,,,,,,,,,,,,,,,,,,49,B,2024-05-22_14h17.36.839,attentional_competition_task,2022.2.4,144.06211952227397,
positions.xlsx,positions_test.xlsx,positions_test_new.xlsx,stimuli.xlsx,stimuli_new.xlsx,stimuli/Social2.png,stimuli/Social1.png,stimuli/Nonsocial2.png,stimuli/Nonsocial1.png,stimuli/Social4.png,stimuli/Social3.png,stimuli/Nonsocial4.png,stimuli/Nonsocial3.png,,,"(-0.7, -0.5)",cs_pos_ns,"(-0.7, 0.5)",cs_neg_ns_new,"(0.7, -0.5)",cs_pos_s,"(0.7, 0.5)",cs_neg_s,0,0,0,0,,,,,,,,,,,,,,,,,,,,,,,,,,,,,0,2,2,19,0,0,0,0,,,,,,,,,,,,,,,462,reward,,,,,,1478.9454558999278,1478.9454558999278,1478.9454558999278,1478.9454558999278,0,,,0,,,1,1.0160175000783056,1.0160343000898138,0,,,1479.9662044999423,1479.9662044999423,1479.9662044999423,1479.9662044999423,49,B,2024-05-22_14h17.36.839,attentional_competition_task,2022.2.4,144.06211952227397,
positions.xlsx,positions_test.xlsx,positions_test_new.xlsx,stimuli.xlsx,stimuli_new.xlsx,stimuli/Social2.png,stimuli/Social1.png,stimuli/Nonsocial2.png,stimuli/Nonsocial1.png,stimuli/Social4.png,stimuli/Social3.png,stimuli/Nonsocial4.png,stimuli/Nonsocial3.png,,,"(-0.7, -0.5)",cs_pos_ns,"(-0.7, 0.5)",cs_neg_ns_new,"(0.7, -0.5)",cs_pos_s,"(0.7, 0.5)",cs_neg_s,0,0,0,0,,,,,,,,,,,,,,,,,,,,,,,,,,,,,0,2,2,19,1,0,1,0,,,,,,,,,,,,,,,459,loss,,,,,,1480.4731552999,1480.4731552999,1480.4731552999,1480.4731552999,0,,,1,0.02992969995830208,0.04522029997315258,0,,,0,,,1480.5148301000008,1480.5148301000008,1480.5148301000008,1480.5148301000008,49,B,2024-05-22_14h17.36.839,attentional_competition_task,2022.2.4,144.06211952227397,
positions.xlsx,positions_test.xlsx,positions_test_new.xlsx,stimuli.xlsx,stimuli_new.xlsx,stimuli/Social2.png,stimuli/Social1.png,stimuli/Nonsocial2.png,stimuli/Nonsocial1.png,stimuli/Social4.png,stimuli/Social3.png,stimuli/Nonsocial4.png,stimuli/Nonsocial3.png,,,"(-0.7, -0.5)",cs_pos_ns,"(-0.7, 0.5)",cs_neg_ns_new,"(0.7, -0.5)",cs_pos_s,"(0.7, 0.5)",cs_neg_s,0,0,0,0,,,,,,,,,,,,,,,,,,,,,,,,,,,,,0,2,2,19,,,,,,,,,,,,,,,,,,,,,,,,,,,,,,,,,,,,,,,,,,,,,,49,B,2024-05-22_14h17.36.839,attentional_competition_task,2022.2.4,144.06211952227397,
positions.xlsx,positions_test.xlsx,positions_test_new.xlsx,stimuli.xlsx,stimuli_new.xlsx,stimuli/Social2.png,stimuli/Social1.png,stimuli/Nonsocial2.png,stimuli/Nonsocial1.png,stimuli/Social4.png,stimuli/Social3.png,stimuli/Nonsocial4.png,stimuli/Nonsocial3.png,,,"(-0.7, -0.5)",cs_pos_s,"(-0.7, 0.5)",cs_neg_s,"(0.7, -0.5)",cs_neg_ns_new,"(0.7, 0.5)",cs_pos_ns,0,0,0,0,,,,,,,,,,,,,,,,,,,,,,,,,,,,,0,3,3,18,0,0,0,0,,,,,,,,,,,,,,,462,reward,,,,,,1487.972839999944,1487.972839999944,1487.972839999944,1487.972839999944,1,1.0986052999505773,1.098608799977228,0,,,0,,,0,,,1489.076959399972,1489.076959399972,1489.076959399972,1489.076959399972,49,B,2024-05-22_14h17.36.839,attentional_competition_task,2022.2.4,144.06211952227397,
positions.xlsx,positions_test.xlsx,positions_test_new.xlsx,stimuli.xlsx,stimuli_new.xlsx,stimuli/Social2.png,stimuli/Social1.png,stimuli/Nonsocial2.png,stimuli/Nonsocial1.png,stimuli/Social4.png,stimuli/Social3.png,stimuli/Nonsocial4.png,stimuli/Nonsocial3.png,,,"(-0.7, -0.5)",cs_pos_s,"(-0.7, 0.5)",cs_neg_s,"(0.7, -0.5)",cs_neg_ns_new,"(0.7, 0.5)",cs_pos_ns,0,0,0,0,,,,,,,,,,,,,,,,,,,,,,,,,,,,,0,3,3,18,1,0,1,0,,,,,,,,,,,,,,,465,reward,,,,,,1489.576977699995,1489.576977699995,1489.576977699995,1489.576977699995,1,0.02921870001591742,0.0514491000212729,0,,,0,,,0,,,1490.4866571999155,1490.4866571999155,1490.4866571999155,1490.4866571999155,49,B,2024-05-22_14h17.36.839,attentional_competition_task,2022.2.4,144.06211952227397,
positions.xlsx,positions_test.xlsx,positions_test_new.xlsx,stimuli.xlsx,stimuli_new.xlsx,stimuli/Social2.png,stimuli/Social1.png,stimuli/Nonsocial2.png,stimuli/Nonsocial1.png,stimuli/Social4.png,stimuli/Social3.png,stimuli/Nonsocial4.png,stimuli/Nonsocial3.png,,,"(-0.7, -0.5)",cs_pos_s,"(-0.7, 0.5)",cs_neg_s,"(0.7, -0.5)",cs_neg_ns_new,"(0.7, 0.5)",cs_pos_ns,0,0,0,0,,,,,,,,,,,,,,,,,,,,,,,,,,,,,0,3,3,18,,,,,,,,,,,,,,,,,,,,,,,,,,,,,,,,,,,,,,,,,,,,,,49,B,2024-05-22_14h17.36.839,attentional_competition_task,2022.2.4,144.06211952227397,
positions.xlsx,positions_test.xlsx,positions_test_new.xlsx,stimuli.xlsx,stimuli_new.xlsx,stimuli/Social2.png,stimuli/Social1.png,stimuli/Nonsocial2.png,stimuli/Nonsocial1.png,stimuli/Social4.png,stimuli/Social3.png,stimuli/Nonsocial4.png,stimuli/Nonsocial3.png,,,"(-0.7, -0.5)",cs_pos_ns,"(-0.7, 0.5)",cs_neg_s,"(0.7, -0.5)",cs_pos_s,"(0.7, 0.5)",cs_neg_ns_new,0,0,0,0,,,,,,,,,,,,,,,,,,,,,,,,,,,,,0,4,4,22,0,0,0,0,,,,,,,,,,,,,,,468,reward,,,,,,1495.9031207999215,1495.9031207999215,1495.9031207999215,1495.9031207999215,0,,,0,,,1,0.8419735999777913,0.8489232999272645,0,,,1496.7572344999062,1496.7572344999062,1496.7572344999062,1496.7572344999062,49,B,2024-05-22_14h17.36.839,attentional_competition_task,2022.2.4,144.06211952227397,
positions.xlsx,positions_test.xlsx,positions_test_new.xlsx,stimuli.xlsx,stimuli_new.xlsx,stimuli/Social2.png,stimuli/Social1.png,stimuli/Nonsocial2.png,stimuli/Nonsocial1.png,stimuli/Social4.png,stimuli/Social3.png,stimuli/Nonsocial4.png,stimuli/Nonsocial3.png,,,"(-0.7, -0.5)",cs_pos_ns,"(-0.7, 0.5)",cs_neg_s,"(0.7, -0.5)",cs_pos_s,"(0.7, 0.5)",cs_neg_ns_new,0,0,0,0,,,,,,,,,,,,,,,,,,,,,,,,,,,,,0,4,4,22,1,0,1,0,,,,,,,,,,,,,,,471,reward,,,,,,1497.2849625999806,1497.2849625999806,1497.2849625999806,1497.2849625999806,1,0.028299600002355874,0.0283033000305295,0,,,0,,,0,,,1497.2849625999806,1497.2849625999806,1497.2849625999806,1497.2849625999806,49,B,2024-05-22_14h17.36.839,attentional_competition_task,2022.2.4,144.06211952227397,
positions.xlsx,positions_test.xlsx,positions_test_new.xlsx,stimuli.xlsx,stimuli_new.xlsx,stimuli/Social2.png,stimuli/Social1.png,stimuli/Nonsocial2.png,stimuli/Nonsocial1.png,stimuli/Social4.png,stimuli/Social3.png,stimuli/Nonsocial4.png,stimuli/Nonsocial3.png,,,"(-0.7, -0.5)",cs_pos_ns,"(-0.7, 0.5)",cs_neg_s,"(0.7, -0.5)",cs_pos_s,"(0.7, 0.5)",cs_neg_ns_new,0,0,0,0,,,,,,,,,,,,,,,,,,,,,,,,,,,,,0,4,4,22,2,0,2,0,,,,,,,,,,,,,,,468,loss,,,,,,1497.8127261999762,1497.8127261999762,1497.8127261999762,1497.8127261999762,0,,,1,0.02439310005865991,0.024396700086072087,0,,,0,,,1497.8127261999762,1497.8127261999762,1497.8127261999762,1497.8127261999762,49,B,2024-05-22_14h17.36.839,attentional_competition_task,2022.2.4,144.06211952227397,
positions.xlsx,positions_test.xlsx,positions_test_new.xlsx,stimuli.xlsx,stimuli_new.xlsx,stimuli/Social2.png,stimuli/Social1.png,stimuli/Nonsocial2.png,stimuli/Nonsocial1.png,stimuli/Social4.png,stimuli/Social3.png,stimuli/Nonsocial4.png,stimuli/Nonsocial3.png,,,"(-0.7, -0.5)",cs_pos_ns,"(-0.7, 0.5)",cs_neg_s,"(0.7, -0.5)",cs_pos_s,"(0.7, 0.5)",cs_neg_ns_new,0,0,0,0,,,,,,,,,,,,,,,,,,,,,,,,,,,,,0,4,4,22,,,,,,,,,,,,,,,,,,,,,,,,,,,,,,,,,,,,,,,,,,,,,,49,B,2024-05-22_14h17.36.839,attentional_competition_task,2022.2.4,144.06211952227397,
positions.xlsx,positions_test.xlsx,positions_test_new.xlsx,stimuli.xlsx,stimuli_new.xlsx,stimuli/Social2.png,stimuli/Social1.png,stimuli/Nonsocial2.png,stimuli/Nonsocial1.png,stimuli/Social4.png,stimuli/Social3.png,stimuli/Nonsocial4.png,stimuli/Nonsocial3.png,,,"(-0.7, -0.5)",cs_neg_ns,"(-0.7, 0.5)",cs_pos_s,"(0.7, -0.5)",cs_neg_s,"(0.7, 0.5)",cs_pos_ns_new,0,0,0,0,,,,,,,,,,,,,,,,,,,,,,,,,,,,,0,5,5,47,0,0,0,0,,,,,,,,,,,,,,,465,loss,,,,,,1504.5416539999424,1504.5416539999424,1504.5416539999424,1504.5416539999424,0,,,0,,,1,0.995362100074999,0.9953655999852344,0,,,1505.541610199958,1505.541610199958,1505.541610199958,1505.541610199958,49,B,2024-05-22_14h17.36.839,attentional_competition_task,2022.2.4,144.06211952227397,
positions.xlsx,positions_test.xlsx,positions_test_new.xlsx,stimuli.xlsx,stimuli_new.xlsx,stimuli/Social2.png,stimuli/Social1.png,stimuli/Nonsocial2.png,stimuli/Nonsocial1.png,stimuli/Social4.png,stimuli/Social3.png,stimuli/Nonsocial4.png,stimuli/Nonsocial3.png,,,"(-0.7, -0.5)",cs_neg_ns,"(-0.7, 0.5)",cs_pos_s,"(0.7, -0.5)",cs_neg_s,"(0.7, 0.5)",cs_pos_ns_new,0,0,0,0,,,,,,,,,,,,,,,,,,,,,,,,,,,,,0,5,5,47,1,0,1,0,,,,,,,,,,,,,,,468,reward,,,,,,1506.0694284999045,1506.0694284999045,1506.0694284999045,1506.0694284999045,0,,,1,0.027722100028768182,0.027726100059226155,0,,,0,,,1506.0694284999045,1506.0694284999045,1506.0694284999045,1506.0694284999045,49,B,2024-05-22_14h17.36.839,attentional_competition_task,2022.2.4,144.06211952227397,
positions.xlsx,positions_test.xlsx,positions_test_new.xlsx,stimuli.xlsx,stimuli_new.xlsx,stimuli/Social2.png,stimuli/Social1.png,stimuli/Nonsocial2.png,stimuli/Nonsocial1.png,stimuli/Social4.png,stimuli/Social3.png,stimuli/Nonsocial4.png,stimuli/Nonsocial3.png,,,"(-0.7, -0.5)",cs_neg_ns,"(-0.7, 0.5)",cs_pos_s,"(0.7, -0.5)",cs_neg_s,"(0.7, 0.5)",cs_pos_ns_new,0,0,0,0,,,,,,,,,,,,,,,,,,,,,,,,,,,,,0,5,5,47,,,,,,,,,,,,,,,,,,,,,,,,,,,,,,,,,,,,,,,,,,,,,,49,B,2024-05-22_14h17.36.839,attentional_competition_task,2022.2.4,144.06211952227397,
positions.xlsx,positions_test.xlsx,positions_test_new.xlsx,stimuli.xlsx,stimuli_new.xlsx,stimuli/Social2.png,stimuli/Social1.png,stimuli/Nonsocial2.png,stimuli/Nonsocial1.png,stimuli/Social4.png,stimuli/Social3.png,stimuli/Nonsocial4.png,stimuli/Nonsocial3.png,,,"(-0.7, -0.5)",cs_neg_s,"(-0.7, 0.5)",cs_pos_ns,"(0.7, -0.5)",cs_neg_ns_new,"(0.7, 0.5)",cs_pos_s,0,0,0,0,,,,,,,,,,,,,,,,,,,,,,,,,,,,,0,6,6,25,0,0,0,0,,,,,,,,,,,,,,,471,reward,,,,,,1513.2843602999346,1513.2843602999346,1513.2843602999346,1513.2843602999346,0,,,0,,,0,,,1,0.662831399939023,0.6690517999231815,1513.9579507999588,1513.9579507999588,1513.9579507999588,1513.9579507999588,49,B,2024-05-22_14h17.36.839,attentional_competition_task,2022.2.4,144.06211952227397,
positions.xlsx,positions_test.xlsx,positions_test_new.xlsx,stimuli.xlsx,stimuli_new.xlsx,stimuli/Social2.png,stimuli/Social1.png,stimuli/Nonsocial2.png,stimuli/Nonsocial1.png,stimuli/Social4.png,stimuli/Social3.png,stimuli/Nonsocial4.png,stimuli/Nonsocial3.png,,,"(-0.7, -0.5)",cs_neg_s,"(-0.7, 0.5)",cs_pos_ns,"(0.7, -0.5)",cs_neg_ns_new,"(0.7, 0.5)",cs_pos_s,0,0,0,0,,,,,,,,,,,,,,,,,,,,,,,,,,,,,0,6,6,25,1,0,1,0,,,,,,,,,,,,,,,468,loss,,,,,,1514.4926422999706,1514.4926422999706,1514.4926422999706,1514.4926422999706,0,,,0,,,1,0.030240299995057285,0.030244399909861386,0,,,1514.4926422999706,1514.4926422999706,1514.4926422999706,1514.4926422999706,49,B,2024-05-22_14h17.36.839,attentional_competition_task,2022.2.4,144.06211952227397,
positions.xlsx,positions_test.xlsx,positions_test_new.xlsx,stimuli.xlsx,stimuli_new.xlsx,stimuli/Social2.png,stimuli/Social1.png,stimuli/Nonsocial2.png,stimuli/Nonsocial1.png,stimuli/Social4.png,stimuli/Social3.png,stimuli/Nonsocial4.png,stimuli/Nonsocial3.png,,,"(-0.7, -0.5)",cs_neg_s,"(-0.7, 0.5)",cs_pos_ns,"(0.7, -0.5)",cs_neg_ns_new,"(0.7, 0.5)",cs_pos_s,0,0,0,0,,,,,,,,,,,,,,,,,,,,,,,,,,,,,0,6,6,25,2,0,2,0,,,,,,,,,,,,,,,471,reward,,,,,,1515.020400499925,1515.020400499925,1515.020400499925,1515.020400499925,0,,,1,0.022734600002877414,0.022738700034096837,0,,,0,,,1515.020400499925,1515.020400499925,1515.020400499925,1515.020400499925,49,B,2024-05-22_14h17.36.839,attentional_competition_task,2022.2.4,144.06211952227397,
positions.xlsx,positions_test.xlsx,positions_test_new.xlsx,stimuli.xlsx,stimuli_new.xlsx,stimuli/Social2.png,stimuli/Social1.png,stimuli/Nonsocial2.png,stimuli/Nonsocial1.png,stimuli/Social4.png,stimuli/Social3.png,stimuli/Nonsocial4.png,stimuli/Nonsocial3.png,,,"(-0.7, -0.5)",cs_neg_s,"(-0.7, 0.5)",cs_pos_ns,"(0.7, -0.5)",cs_neg_ns_new,"(0.7, 0.5)",cs_pos_s,0,0,0,0,,,,,,,,,,,,,,,,,,,,,,,,,,,,,0,6,6,25,,,,,,,,,,,,,,,,,,,,,,,,,,,,,,,,,,,,,,,,,,,,,,49,B,2024-05-22_14h17.36.839,attentional_competition_task,2022.2.4,144.06211952227397,
positions.xlsx,positions_test.xlsx,positions_test_new.xlsx,stimuli.xlsx,stimuli_new.xlsx,stimuli/Social2.png,stimuli/Social1.png,stimuli/Nonsocial2.png,stimuli/Nonsocial1.png,stimuli/Social4.png,stimuli/Social3.png,stimuli/Nonsocial4.png,stimuli/Nonsocial3.png,,,"(-0.7, -0.5)",cs_neg_ns,"(-0.7, 0.5)",cs_neg_s,"(0.7, -0.5)",cs_pos_ns,"(0.7, 0.5)",cs_pos_s_new,0,0,0,0,,,,,,,,,,,,,,,,,,,,,,,,,,,,,0,7,7,30,0,0,0,0,,,,,,,,,,,,,,,474,reward,,,,,,1521.874293299974,1521.874293299974,1521.874293299974,1521.874293299974,0,,,0,,,0,,,1,1.1621101000346243,1.1621143000666052,1523.047901099897,1523.047901099897,1523.047901099897,1523.047901099897,49,B,2024-05-22_14h17.36.839,attentional_competition_task,2022.2.4,144.06211952227397,
positions.xlsx,positions_test.xlsx,positions_test_new.xlsx,stimuli.xlsx,stimuli_new.xlsx,stimuli/Social2.png,stimuli/Social1.png,stimuli/Nonsocial2.png,stimuli/Nonsocial1.png,stimuli/Social4.png,stimuli/Social3.png,stimuli/Nonsocial4.png,stimuli/Nonsocial3.png,,,"(-0.7, -0.5)",cs_neg_ns,"(-0.7, 0.5)",cs_neg_s,"(0.7, -0.5)",cs_pos_ns,"(0.7, 0.5)",cs_pos_s_new,0,0,0,0,,,,,,,,,,,,,,,,,,,,,,,,,,,,,0,7,7,30,1,0,1,0,,,,,,,,,,,,,,,477,reward,,,,,,1523.5756044998998,1523.5756044998998,1523.5756044998998,1523.5756044998998,0,,,0,,,1,0.02248909999616444,0.022492999909445643,0,,,1523.5756044998998,1523.5756044998998,1523.5756044998998,1523.5756044998998,49,B,2024-05-22_14h17.36.839,attentional_competition_task,2022.2.4,144.06211952227397,
positions.xlsx,positions_test.xlsx,positions_test_new.xlsx,stimuli.xlsx,stimuli_new.xlsx,stimuli/Social2.png,stimuli/Social1.png,stimuli/Nonsocial2.png,stimuli/Nonsocial1.png,stimuli/Social4.png,stimuli/Social3.png,stimuli/Nonsocial4.png,stimuli/Nonsocial3.png,,,"(-0.7, -0.5)",cs_neg_ns,"(-0.7, 0.5)",cs_neg_s,"(0.7, -0.5)",cs_pos_ns,"(0.7, 0.5)",cs_pos_s_new,0,0,0,0,,,,,,,,,,,,,,,,,,,,,,,,,,,,,0,7,7,30,,,,,,,,,,,,,,,,,,,,,,,,,,,,,,,,,,,,,,,,,,,,,,49,B,2024-05-22_14h17.36.839,attentional_competition_task,2022.2.4,144.06211952227397,
positions.xlsx,positions_test.xlsx,positions_test_new.xlsx,stimuli.xlsx,stimuli_new.xlsx,stimuli/Social2.png,stimuli/Social1.png,stimuli/Nonsocial2.png,stimuli/Nonsocial1.png,stimuli/Social4.png,stimuli/Social3.png,stimuli/Nonsocial4.png,stimuli/Nonsocial3.png,,,"(-0.7, -0.5)",cs_pos_s,"(-0.7, 0.5)",cs_pos_ns,"(0.7, -0.5)",cs_neg_ns_new,"(0.7, 0.5)",cs_neg_s,0,0,0,0,,,,,,,,,,,,,,,,,,,,,,,,,,,,,0,8,8,26,0,0,0,0,,,,,,,,,,,,,,,480,reward,,,,,,1530.8947876999155,1530.8947876999155,1530.8947876999155,1530.8947876999155,1,0.8142318000318483,0.8142352000577375,0,,,0,,,0,,,1531.7072429999243,1531.7072429999243,1531.7072429999243,1531.7072429999243,49,B,2024-05-22_14h17.36.839,attentional_competition_task,2022.2.4,144.06211952227397,
positions.xlsx,positions_test.xlsx,positions_test_new.xlsx,stimuli.xlsx,stimuli_new.xlsx,stimuli/Social2.png,stimuli/Social1.png,stimuli/Nonsocial2.png,stimuli/Nonsocial1.png,stimuli/Social4.png,stimuli/Social3.png,stimuli/Nonsocial4.png,stimuli/Nonsocial3.png,,,"(-0.7, -0.5)",cs_pos_s,"(-0.7, 0.5)",cs_pos_ns,"(0.7, -0.5)",cs_neg_ns_new,"(0.7, 0.5)",cs_neg_s,0,0,0,0,,,,,,,,,,,,,,,,,,,,,,,,,,,,,0,8,8,26,1,0,1,0,,,,,,,,,,,,,,,483,reward,,,,,,1532.2419441998936,1532.2419441998936,1532.2419441998936,1532.2419441998936,0,,,1,0.029199100099503994,0.029203000012785196,0,,,0,,,1532.2419441998936,1532.2419441998936,1532.2419441998936,1532.2419441998936,49,B,2024-05-22_14h17.36.839,attentional_competition_task,2022.2.4,144.06211952227397,
positions.xlsx,positions_test.xlsx,positions_test_new.xlsx,stimuli.xlsx,stimuli_new.xlsx,stimuli/Social2.png,stimuli/Social1.png,stimuli/Nonsocial2.png,stimuli/Nonsocial1.png,stimuli/Social4.png,stimuli/Social3.png,stimuli/Nonsocial4.png,stimuli/Nonsocial3.png,,,"(-0.7, -0.5)",cs_pos_s,"(-0.7, 0.5)",cs_pos_ns,"(0.7, -0.5)",cs_neg_ns_new,"(0.7, 0.5)",cs_neg_s,0,0,0,0,,,,,,,,,,,,,,,,,,,,,,,,,,,,,0,8,8,26,2,0,2,0,,,,,,,,,,,,,,,480,loss,,,,,,1532.748844799935,1532.748844799935,1532.748844799935,1532.748844799935,0,,,0,,,0,,,1,0.095275399973616,0.09527869999874383,1532.8460882999934,1532.8460882999934,1532.8460882999934,1532.8460882999934,49,B,2024-05-22_14h17.36.839,attentional_competition_task,2022.2.4,144.06211952227397,
positions.xlsx,positions_test.xlsx,positions_test_new.xlsx,stimuli.xlsx,stimuli_new.xlsx,stimuli/Social2.png,stimuli/Social1.png,stimuli/Nonsocial2.png,stimuli/Nonsocial1.png,stimuli/Social4.png,stimuli/Social3.png,stimuli/Nonsocial4.png,stimuli/Nonsocial3.png,,,"(-0.7, -0.5)",cs_pos_s,"(-0.7, 0.5)",cs_pos_ns,"(0.7, -0.5)",cs_neg_ns_new,"(0.7, 0.5)",cs_neg_s,0,0,0,0,,,,,,,,,,,,,,,,,,,,,,,,,,,,,0,8,8,26,,,,,,,,,,,,,,,,,,,,,,,,,,,,,,,,,,,,,,,,,,,,,,49,B,2024-05-22_14h17.36.839,attentional_competition_task,2022.2.4,144.06211952227397,
positions.xlsx,positions_test.xlsx,positions_test_new.xlsx,stimuli.xlsx,stimuli_new.xlsx,stimuli/Social2.png,stimuli/Social1.png,stimuli/Nonsocial2.png,stimuli/Nonsocial1.png,stimuli/Social4.png,stimuli/Social3.png,stimuli/Nonsocial4.png,stimuli/Nonsocial3.png,,,"(-0.7, -0.5)",cs_pos_s,"(-0.7, 0.5)",cs_neg_s,"(0.7, -0.5)",cs_pos_ns_new,"(0.7, 0.5)",cs_neg_ns,0,0,0,0,,,,,,,,,,,,,,,,,,,,,,,,,,,,,0,9,9,38,0,0,0,0,,,,,,,,,,,,,,,483,reward,,,,,,1539.9708041999256,1539.9708041999256,1539.9708041999256,1539.9708041999256,1,0.9046857999637723,0.9117819999810308,0,,,0,,,0,,,1540.8874019999057,1540.8874019999057,1540.8874019999057,1540.8874019999057,49,B,2024-05-22_14h17.36.839,attentional_competition_task,2022.2.4,144.06211952227397,
