posFile,posFileTest,posFileTestNew,stimFile,stimFileNew,cs_neg_s,cs_pos_s,cs_neg_ns,cs_pos_ns,cs_neg_s_new,cs_pos_s_new,cs_neg_ns_new,cs_pos_ns_new,stim,position,position1,stim1,position2,stim2,position3,stim3,position4,stim4,blocks.thisRepN,blocks.thisTrialN,blocks.thisN,blocks.thisIndex,ratingtrials1.thisRepN,ratingtrials1.thisTrialN,ratingtrials1.thisN,ratingtrials1.thisIndex,search_task_trials.thisRepN,search_task_trials.thisTrialN,search_task_trials.thisN,search_task_trials.thisIndex,learning_trials.thisRepN,learning_trials.thisTrialN,learning_trials.thisN,learning_trials.thisIndex,trials.thisRepN,trials.thisTrialN,trials.thisN,trials.thisIndex,ratingtrials2.thisRepN,ratingtrials2.thisTrialN,ratingtrials2.thisN,ratingtrials2.thisIndex,testtrials.thisRepN,testtrials.thisTrialN,testtrials.thisN,testtrials.thisIndex,loop_test.thisRepN,loop_test.thisTrialN,loop_test.thisN,loop_test.thisIndex,testtrials_novelty.thisRepN,testtrials_novelty.thisTrialN,testtrials_novelty.thisN,testtrials_novelty.thisIndex,loop_test_novelty.thisRepN,loop_test_novelty.thisTrialN,loop_test_novelty.thisN,loop_test_novelty.thisIndex,ratingtrials3.thisRepN,ratingtrials3.thisTrialN,ratingtrials3.thisN,ratingtrials3.thisIndex,textStart.started,textStartExp.started,imageRating.started,sliderStim.response,sliderStim.rt,textStartSearch.started,target_positions,distractor_positions,textStartTask.started,image.started,score,outcome,roi.numLooks,roi.timesOn,roi.timesOff,imageFeedback.started,textTestInstr.started,test_image1.started,test_image2.started,test_image3.started,test_image4.started,test_roi1.numLooks,test_roi1.timesOn,test_roi1.timesOff,test_roi2.numLooks,test_roi2.timesOn,test_roi2.timesOff,test_roi3.numLooks,test_roi3.timesOn,test_roi3.timesOff,test_roi4.numLooks,test_roi4.timesOn,test_roi4.timesOff,test_image_feedback1.started,test_image_feedback2.started,test_iamge_feedback3.started,test_iamge_feedback4.started,participant,group,date,expName,psychopyVersion,frameRate,
positions.xlsx,positions_test.xlsx,positions_test_new.xlsx,stimuli.xlsx,stimuli_new.xlsx,stimuli/Social4.png,stimuli/Social3.png,stimuli/Nonsocial4.png,stimuli/Nonsocial3.png,stimuli/Social2.png,stimuli/Social1.png,stimuli/Nonsocial2.png,stimuli/Nonsocial1.png,cs_pos_s,,,,,,,,,,0,0,0,0,0,0,0,2,,,,,,,,,,,,,,,,,,,,,,,,,,,,,,,,,,,,,15.811665399931371,127.01385000022128,139.50676879985258,5.0,16.432632599957287,,,,,,,,,,,,,,,,,,,,,,,,,,,,,,,,,14,D,2024-04-22_16h17.48.705,attentional_competition_task,2022.2.4,144.00133628893158,
positions.xlsx,positions_test.xlsx,positions_test_new.xlsx,stimuli.xlsx,stimuli_new.xlsx,stimuli/Social4.png,stimuli/Social3.png,stimuli/Nonsocial4.png,stimuli/Nonsocial3.png,stimuli/Social2.png,stimuli/Social1.png,stimuli/Nonsocial2.png,stimuli/Nonsocial1.png,cs_pos_ns,,,,,,,,,,0,0,0,0,0,1,1,3,,,,,,,,,,,,,,,,,,,,,,,,,,,,,,,,,,,,,,,158.06149059999734,8.0,5.857271100394428,,,,,,,,,,,,,,,,,,,,,,,,,,,,,,,,,14,D,2024-04-22_16h17.48.705,attentional_competition_task,2022.2.4,144.00133628893158,
positions.xlsx,positions_test.xlsx,positions_test_new.xlsx,stimuli.xlsx,stimuli_new.xlsx,stimuli/Social4.png,stimuli/Social3.png,stimuli/Nonsocial4.png,stimuli/Nonsocial3.png,stimuli/Social2.png,stimuli/Social1.png,stimuli/Nonsocial2.png,stimuli/Nonsocial1.png,cs_neg_s,,,,,,,,,,0,0,0,0,0,2,2,0,,,,,,,,,,,,,,,,,,,,,,,,,,,,,,,,,,,,,,,165.17923470027745,5.0,8.230113900266588,,,,,,,,,,,,,,,,,,,,,,,,,,,,,,,,,14,D,2024-04-22_16h17.48.705,attentional_competition_task,2022.2.4,144.00133628893158,
positions.xlsx,positions_test.xlsx,positions_test_new.xlsx,stimuli.xlsx,stimuli_new.xlsx,stimuli/Social4.png,stimuli/Social3.png,stimuli/Nonsocial4.png,stimuli/Nonsocial3.png,stimuli/Social2.png,stimuli/Social1.png,stimuli/Nonsocial2.png,stimuli/Nonsocial1.png,cs_neg_ns,,,,,,,,,,0,0,0,0,0,3,3,1,,,,,,,,,,,,,,,,,,,,,,,,,,,,,,,,,,,,,,,175.40106040006503,9.0,4.539212099742144,,,,,,,,,,,,,,,,,,,,,,,,,,,,,,,,,14,D,2024-04-22_16h17.48.705,attentional_competition_task,2022.2.4,144.00133628893158,
positions.xlsx,positions_test.xlsx,positions_test_new.xlsx,stimuli.xlsx,stimuli_new.xlsx,stimuli/Social4.png,stimuli/Social3.png,stimuli/Nonsocial4.png,stimuli/Nonsocial3.png,stimuli/Social2.png,stimuli/Social1.png,stimuli/Nonsocial2.png,stimuli/Nonsocial1.png,,,,,,,,,,,0,0,0,0,,,,,0,0,0,0,,,,,,,,,,,,,,,,,,,,,,,,,,,,,,,,,,,,,,181.3660754999146,"[[-0.22499999999999998, 0.19999999999999996], [-0.9, -0.8], [-0.45, 0.7], [0.22499999999999998, 0.7], [-0.675, 0.19999999999999996], [-0.9, 0.19999999999999996], [-0.22499999999999998, -0.8], [-0.22499999999999998, -0.30000000000000004], [0.45000000000000007, 0.19999999999999996], [0.6749999999999999, -0.30000000000000004], [0.6749999999999999, -0.8], [0.0, 0.19999999999999996], [0.0, 0.7], [-0.45, -0.30000000000000004], [-0.9, 0.7]]","[[-0.9, -0.30000000000000004], [-0.675, -0.30000000000000004], [0.6749999999999999, 0.7], [0.22499999999999998, 0.19999999999999996], [0.45000000000000007, -0.8], [-0.22499999999999998, 0.7], [0.22499999999999998, -0.8], [0.45000000000000007, 0.7], [-0.45, -0.8], [0.0, -0.30000000000000004], [0.9, 0.7], [0.22499999999999998, -0.30000000000000004], [-0.675, 0.7], [0.9, -0.30000000000000004], [-0.675, -0.8]]",,,,,,,,,,,,,,,,,,,,,,,,,,,,,,14,D,2024-04-22_16h17.48.705,attentional_competition_task,2022.2.4,144.00133628893158,
positions.xlsx,positions_test.xlsx,positions_test_new.xlsx,stimuli.xlsx,stimuli_new.xlsx,stimuli/Social4.png,stimuli/Social3.png,stimuli/Nonsocial4.png,stimuli/Nonsocial3.png,stimuli/Social2.png,stimuli/Social1.png,stimuli/Nonsocial2.png,stimuli/Nonsocial1.png,,,,,,,,,,,0,0,0,0,,,,,1,0,1,0,,,,,,,,,,,,,,,,,,,,,,,,,,,,,,,,,,,,,,,"[[-0.675, -0.30000000000000004], [-0.675, 0.7], [-0.9, -0.30000000000000004], [0.0, -0.30000000000000004], [-0.45, 0.19999999999999996], [0.9, -0.30000000000000004], [0.45000000000000007, 0.19999999999999996], [-0.9, 0.7], [0.9, 0.7], [0.0, 0.7], [0.22499999999999998, -0.8], [0.6749999999999999, -0.8], [0.22499999999999998, -0.30000000000000004], [0.45000000000000007, 0.7], [0.45000000000000007, -0.8]]","[[0.0, -0.8], [-0.675, -0.8], [0.45000000000000007, -0.30000000000000004], [-0.45, -0.8], [-0.45, -0.30000000000000004], [-0.9, -0.8], [0.22499999999999998, 0.19999999999999996], [0.6749999999999999, 0.7], [-0.22499999999999998, 0.7], [-0.675, 0.19999999999999996], [0.22499999999999998, 0.7], [-0.45, 0.7], [0.6749999999999999, -0.30000000000000004], [0.9, 0.19999999999999996], [-0.22499999999999998, -0.30000000000000004]]",,,,,,,,,,,,,,,,,,,,,,,,,,,,,,14,D,2024-04-22_16h17.48.705,attentional_competition_task,2022.2.4,144.00133628893158,
positions.xlsx,positions_test.xlsx,positions_test_new.xlsx,stimuli.xlsx,stimuli_new.xlsx,stimuli/Social4.png,stimuli/Social3.png,stimuli/Nonsocial4.png,stimuli/Nonsocial3.png,stimuli/Social2.png,stimuli/Social1.png,stimuli/Nonsocial2.png,stimuli/Nonsocial1.png,cs_neg_ns,"(0.7, -0.5)",,,,,,,,,0,0,0,0,,,,,,,,,0,0,0,11,,,,,,,,,,,,,,,,,,,,,,,,,,,,,,,,,,,,,268.59165430022404,304.2499397001229,-3,loss,1,1.0350387003272772,1.0350424000062048,305.29853689996526,,,,,,,,,,,,,,,,,,,,,,14,D,2024-04-22_16h17.48.705,attentional_competition_task,2022.2.4,144.00133628893158,
positions.xlsx,positions_test.xlsx,positions_test_new.xlsx,stimuli.xlsx,stimuli_new.xlsx,stimuli/Social4.png,stimuli/Social3.png,stimuli/Nonsocial4.png,stimuli/Nonsocial3.png,stimuli/Social2.png,stimuli/Social1.png,stimuli/Nonsocial2.png,stimuli/Nonsocial1.png,cs_pos_ns,"(-0.7, -0.5)",,,,,,,,,0,0,0,0,,,,,,,,,0,1,1,13,,,,,,,,,,,,,,,,,,,,,,,,,,,,,,,,,,,,,,313.0204296000302,-3,none,0,,,316.03421609988436,,,,,,,,,,,,,,,,,,,,,,14,D,2024-04-22_16h17.48.705,attentional_competition_task,2022.2.4,144.00133628893158,
positions.xlsx,positions_test.xlsx,positions_test_new.xlsx,stimuli.xlsx,stimuli_new.xlsx,stimuli/Social4.png,stimuli/Social3.png,stimuli/Nonsocial4.png,stimuli/Nonsocial3.png,stimuli/Social2.png,stimuli/Social1.png,stimuli/Nonsocial2.png,stimuli/Nonsocial1.png,cs_neg_ns,"(-0.7, -0.5)",,,,,,,,,0,0,0,0,,,,,,,,,0,2,2,9,,,,,,,,,,,,,,,,,,,,,,,,,,,,,,,,,,,,,,323.07555550010875,-3,none,0,,,326.0893059000373,,,,,,,,,,,,,,,,,,,,,,14,D,2024-04-22_16h17.48.705,attentional_competition_task,2022.2.4,144.00133628893158,
positions.xlsx,positions_test.xlsx,positions_test_new.xlsx,stimuli.xlsx,stimuli_new.xlsx,stimuli/Social4.png,stimuli/Social3.png,stimuli/Nonsocial4.png,stimuli/Nonsocial3.png,stimuli/Social2.png,stimuli/Social1.png,stimuli/Nonsocial2.png,stimuli/Nonsocial1.png,cs_pos_ns,"(0.7, -0.5)",,,,,,,,,0,0,0,0,,,,,,,,,0,3,3,15,,,,,,,,,,,,,,,,,,,,,,,,,,,,,,,,,,,,,,334.32511149998754,0,reward,1,0.35447470005601645,0.35447819996625185,334.7001042002812,,,,,,,,,,,,,,,,,,,,,,14,D,2024-04-22_16h17.48.705,attentional_competition_task,2022.2.4,144.00133628893158,
positions.xlsx,positions_test.xlsx,positions_test_new.xlsx,stimuli.xlsx,stimuli_new.xlsx,stimuli/Social4.png,stimuli/Social3.png,stimuli/Nonsocial4.png,stimuli/Nonsocial3.png,stimuli/Social2.png,stimuli/Social1.png,stimuli/Nonsocial2.png,stimuli/Nonsocial1.png,cs_neg_s,"(-0.7, -0.5)",,,,,,,,,0,0,0,0,,,,,,,,,0,4,4,1,,,,,,,,,,,,,,,,,,,,,,,,,,,,,,,,,,,,,,341.4359244001098,-3,loss,1,0.798705100081861,0.7987087001092732,342.2414726000279,,,,,,,,,,,,,,,,,,,,,,14,D,2024-04-22_16h17.48.705,attentional_competition_task,2022.2.4,144.00133628893158,
positions.xlsx,positions_test.xlsx,positions_test_new.xlsx,stimuli.xlsx,stimuli_new.xlsx,stimuli/Social4.png,stimuli/Social3.png,stimuli/Nonsocial4.png,stimuli/Nonsocial3.png,stimuli/Social2.png,stimuli/Social1.png,stimuli/Nonsocial2.png,stimuli/Nonsocial1.png,cs_neg_ns,"(0.7, 0.5)",,,,,,,,,0,0,0,0,,,,,,,,,0,5,5,10,,,,,,,,,,,,,,,,,,,,,,,,,,,,,,,,,,,,,,350.0188874001615,-6,loss,1,0.4933348996564746,0.4933388000354171,350.5188851999119,,,,,,,,,,,,,,,,,,,,,,14,D,2024-04-22_16h17.48.705,attentional_competition_task,2022.2.4,144.00133628893158,
positions.xlsx,positions_test.xlsx,positions_test_new.xlsx,stimuli.xlsx,stimuli_new.xlsx,stimuli/Social4.png,stimuli/Social3.png,stimuli/Nonsocial4.png,stimuli/Nonsocial3.png,stimuli/Social2.png,stimuli/Social1.png,stimuli/Nonsocial2.png,stimuli/Nonsocial1.png,cs_pos_ns,"(-0.7, 0.5)",,,,,,,,,0,0,0,0,,,,,,,,,0,6,6,12,,,,,,,,,,,,,,,,,,,,,,,,,,,,,,,,,,,,,,357.7685994999483,-3,reward,1,0.5492893997579813,0.5492930999025702,358.3241412998177,,,,,,,,,,,,,,,,,,,,,,14,D,2024-04-22_16h17.48.705,attentional_competition_task,2022.2.4,144.00133628893158,
positions.xlsx,positions_test.xlsx,positions_test_new.xlsx,stimuli.xlsx,stimuli_new.xlsx,stimuli/Social4.png,stimuli/Social3.png,stimuli/Nonsocial4.png,stimuli/Nonsocial3.png,stimuli/Social2.png,stimuli/Social1.png,stimuli/Nonsocial2.png,stimuli/Nonsocial1.png,cs_pos_s,"(-0.7, 0.5)",,,,,,,,,0,0,0,0,,,,,,,,,0,7,7,4,,,,,,,,,,,,,,,,,,,,,,,,,,,,,,,,,,,,,,366.5807362999767,0,reward,1,1.0763882999308407,1.0763917998410761,367.6640158002265,,,,,,,,,,,,,,,,,,,,,,14,D,2024-04-22_16h17.48.705,attentional_competition_task,2022.2.4,144.00133628893158,
positions.xlsx,positions_test.xlsx,positions_test_new.xlsx,stimuli.xlsx,stimuli_new.xlsx,stimuli/Social4.png,stimuli/Social3.png,stimuli/Nonsocial4.png,stimuli/Nonsocial3.png,stimuli/Social2.png,stimuli/Social1.png,stimuli/Nonsocial2.png,stimuli/Nonsocial1.png,cs_neg_s,"(0.7, -0.5)",,,,,,,,,0,0,0,0,,,,,,,,,0,8,8,3,,,,,,,,,,,,,,,,,,,,,,,,,,,,,,,,,,,,,,376.0803824001923,0,none,0,,,379.09411140019074,,,,,,,,,,,,,,,,,,,,,,14,D,2024-04-22_16h17.48.705,attentional_competition_task,2022.2.4,144.00133628893158,
positions.xlsx,positions_test.xlsx,positions_test_new.xlsx,stimuli.xlsx,stimuli_new.xlsx,stimuli/Social4.png,stimuli/Social3.png,stimuli/Nonsocial4.png,stimuli/Nonsocial3.png,stimuli/Social2.png,stimuli/Social1.png,stimuli/Nonsocial2.png,stimuli/Nonsocial1.png,cs_pos_s,"(0.7, -0.5)",,,,,,,,,0,0,0,0,,,,,,,,,0,9,9,7,,,,,,,,,,,,,,,,,,,,,,,,,,,,,,,,,,,,,,387.3229533000849,3,reward,1,0.6878726002760231,0.6878760000690818,388.0173650998622,,,,,,,,,,,,,,,,,,,,,,14,D,2024-04-22_16h17.48.705,attentional_competition_task,2022.2.4,144.00133628893158,
positions.xlsx,positions_test.xlsx,positions_test_new.xlsx,stimuli.xlsx,stimuli_new.xlsx,stimuli/Social4.png,stimuli/Social3.png,stimuli/Nonsocial4.png,stimuli/Nonsocial3.png,stimuli/Social2.png,stimuli/Social1.png,stimuli/Nonsocial2.png,stimuli/Nonsocial1.png,cs_pos_s,"(0.7, 0.5)",,,,,,,,,0,0,0,0,,,,,,,,,0,10,10,6,,,,,,,,,,,,,,,,,,,,,,,,,,,,,,,,,,,,,,395.83647970017046,6,reward,1,1.0418340000323951,1.041837700176984,396.88507710024714,,,,,,,,,,,,,,,,,,,,,,14,D,2024-04-22_16h17.48.705,attentional_competition_task,2022.2.4,144.00133628893158,
positions.xlsx,positions_test.xlsx,positions_test_new.xlsx,stimuli.xlsx,stimuli_new.xlsx,stimuli/Social4.png,stimuli/Social3.png,stimuli/Nonsocial4.png,stimuli/Nonsocial3.png,stimuli/Social2.png,stimuli/Social1.png,stimuli/Nonsocial2.png,stimuli/Nonsocial1.png,cs_pos_ns,"(0.7, 0.5)",,,,,,,,,0,0,0,0,,,,,,,,,0,11,11,14,,,,,,,,,,,,,,,,,,,,,,,,,,,,,,,,,,,,,,404.4472489999607,9,reward,1,0.5556940003298223,0.55569770000875,405.0097325001843,,,,,,,,,,,,,,,,,,,,,,14,D,2024-04-22_16h17.48.705,attentional_competition_task,2022.2.4,144.00133628893158,
positions.xlsx,positions_test.xlsx,positions_test_new.xlsx,stimuli.xlsx,stimuli_new.xlsx,stimuli/Social4.png,stimuli/Social3.png,stimuli/Nonsocial4.png,stimuli/Nonsocial3.png,stimuli/Social2.png,stimuli/Social1.png,stimuli/Nonsocial2.png,stimuli/Nonsocial1.png,cs_pos_s,"(-0.7, -0.5)",,,,,,,,,0,0,0,0,,,,,,,,,0,12,12,5,,,,,,,,,,,,,,,,,,,,,,,,,,,,,,,,,,,,,,412.44691780023277,12,reward,1,0.792301899753511,0.7923057000152767,413.24549470003694,,,,,,,,,,,,,,,,,,,,,,14,D,2024-04-22_16h17.48.705,attentional_competition_task,2022.2.4,144.00133628893158,
positions.xlsx,positions_test.xlsx,positions_test_new.xlsx,stimuli.xlsx,stimuli_new.xlsx,stimuli/Social4.png,stimuli/Social3.png,stimuli/Nonsocial4.png,stimuli/Nonsocial3.png,stimuli/Social2.png,stimuli/Social1.png,stimuli/Nonsocial2.png,stimuli/Nonsocial1.png,cs_neg_s,"(-0.7, 0.5)",,,,,,,,,0,0,0,0,,,,,,,,,0,13,13,0,,,,,,,,,,,,,,,,,,,,,,,,,,,,,,,,,,,,,,420.6896450999193,12,none,0,,,423.7034881999716,,,,,,,,,,,,,,,,,,,,,,14,D,2024-04-22_16h17.48.705,attentional_competition_task,2022.2.4,144.00133628893158,
positions.xlsx,positions_test.xlsx,positions_test_new.xlsx,stimuli.xlsx,stimuli_new.xlsx,stimuli/Social4.png,stimuli/Social3.png,stimuli/Nonsocial4.png,stimuli/Nonsocial3.png,stimuli/Social2.png,stimuli/Social1.png,stimuli/Nonsocial2.png,stimuli/Nonsocial1.png,cs_neg_ns,"(-0.7, 0.5)",,,,,,,,,0,0,0,0,,,,,,,,,0,14,14,8,,,,,,,,,,,,,,,,,,,,,,,,,,,,,,,,,,,,,,431.2100983001292,12,none,0,,,434.223880100064,,,,,,,,,,,,,,,,,,,,,,14,D,2024-04-22_16h17.48.705,attentional_competition_task,2022.2.4,144.00133628893158,
positions.xlsx,positions_test.xlsx,positions_test_new.xlsx,stimuli.xlsx,stimuli_new.xlsx,stimuli/Social4.png,stimuli/Social3.png,stimuli/Nonsocial4.png,stimuli/Nonsocial3.png,stimuli/Social2.png,stimuli/Social1.png,stimuli/Nonsocial2.png,stimuli/Nonsocial1.png,cs_neg_s,"(0.7, 0.5)",,,,,,,,,0,0,0,0,,,,,,,,,0,15,15,2,,,,,,,,,,,,,,,,,,,,,,,,,,,,,,,,,,,,,,441.6332400999963,9,loss,1,0.5629879999905825,0.5629918002523482,442.2026780000888,,,,,,,,,,,,,,,,,,,,,,14,D,2024-04-22_16h17.48.705,attentional_competition_task,2022.2.4,144.00133628893158,
positions.xlsx,positions_test.xlsx,positions_test_new.xlsx,stimuli.xlsx,stimuli_new.xlsx,stimuli/Social4.png,stimuli/Social3.png,stimuli/Nonsocial4.png,stimuli/Nonsocial3.png,stimuli/Social2.png,stimuli/Social1.png,stimuli/Nonsocial2.png,stimuli/Nonsocial1.png,cs_neg_s,"(0.7, 0.5)",,,,,,,,,0,0,0,0,,,,,,,,,1,0,16,2,,,,,,,,,,,,,,,,,,,,,,,,,,,,,,,,,,,,,,449.8412848999724,9,none,0,,,452.85503139998764,,,,,,,,,,,,,,,,,,,,,,14,D,2024-04-22_16h17.48.705,attentional_competition_task,2022.2.4,144.00133628893158,
positions.xlsx,positions_test.xlsx,positions_test_new.xlsx,stimuli.xlsx,stimuli_new.xlsx,stimuli/Social4.png,stimuli/Social3.png,stimuli/Nonsocial4.png,stimuli/Nonsocial3.png,stimuli/Social2.png,stimuli/Social1.png,stimuli/Nonsocial2.png,stimuli/Nonsocial1.png,cs_pos_s,"(-0.7, 0.5)",,,,,,,,,0,0,0,0,,,,,,,,,1,1,17,4,,,,,,,,,,,,,,,,,,,,,,,,,,,,,,,,,,,,,,460.11164649995044,12,reward,1,0.7154477001167834,0.7154512000270188,460.8338585998863,,,,,,,,,,,,,,,,,,,,,,14,D,2024-04-22_16h17.48.705,attentional_competition_task,2022.2.4,144.00133628893158,
positions.xlsx,positions_test.xlsx,positions_test_new.xlsx,stimuli.xlsx,stimuli_new.xlsx,stimuli/Social4.png,stimuli/Social3.png,stimuli/Nonsocial4.png,stimuli/Nonsocial3.png,stimuli/Social2.png,stimuli/Social1.png,stimuli/Nonsocial2.png,stimuli/Nonsocial1.png,cs_pos_ns,"(-0.7, 0.5)",,,,,,,,,0,0,0,0,,,,,,,,,1,2,18,12,,,,,,,,,,,,,,,,,,,,,,,,,,,,,,,,,,,,,,467.54191640019417,15,reward,1,0.743113299831748,0.7431167000904679,468.29188170004636,,,,,,,,,,,,,,,,,,,,,,14,D,2024-04-22_16h17.48.705,attentional_competition_task,2022.2.4,144.00133628893158,
positions.xlsx,positions_test.xlsx,positions_test_new.xlsx,stimuli.xlsx,stimuli_new.xlsx,stimuli/Social4.png,stimuli/Social3.png,stimuli/Nonsocial4.png,stimuli/Nonsocial3.png,stimuli/Social2.png,stimuli/Social1.png,stimuli/Nonsocial2.png,stimuli/Nonsocial1.png,cs_neg_ns,"(0.7, -0.5)",,,,,,,,,0,0,0,0,,,,,,,,,1,3,19,11,,,,,,,,,,,,,,,,,,,,,,,,,,,,,,,,,,,,,,475.3679911000654,12,loss,1,2.944692099932581,2.94469580007717,478.3192171002738,,,,,,,,,,,,,,,,,,,,,,14,D,2024-04-22_16h17.48.705,attentional_competition_task,2022.2.4,144.00133628893158,
positions.xlsx,positions_test.xlsx,positions_test_new.xlsx,stimuli.xlsx,stimuli_new.xlsx,stimuli/Social4.png,stimuli/Social3.png,stimuli/Nonsocial4.png,stimuli/Nonsocial3.png,stimuli/Social2.png,stimuli/Social1.png,stimuli/Nonsocial2.png,stimuli/Nonsocial1.png,cs_pos_s,"(0.7, -0.5)",,,,,,,,,0,0,0,0,,,,,,,,,1,4,20,7,,,,,,,,,,,,,,,,,,,,,,,,,,,,,,,,,,,,,,485.610619999934,15,reward,1,0.8199557000771165,0.8199591999873519,486.43692430015653,,,,,,,,,,,,,,,,,,,,,,14,D,2024-04-22_16h17.48.705,attentional_competition_task,2022.2.4,144.00133628893158,
positions.xlsx,positions_test.xlsx,positions_test_new.xlsx,stimuli.xlsx,stimuli_new.xlsx,stimuli/Social4.png,stimuli/Social3.png,stimuli/Nonsocial4.png,stimuli/Nonsocial3.png,stimuli/Social2.png,stimuli/Social1.png,stimuli/Nonsocial2.png,stimuli/Nonsocial1.png,cs_neg_ns,"(-0.7, -0.5)",,,,,,,,,0,0,0,0,,,,,,,,,1,5,21,9,,,,,,,,,,,,,,,,,,,,,,,,,,,,,,,,,,,,,,493.32560219988227,15,none,0,,,496.33935650018975,,,,,,,,,,,,,,,,,,,,,,14,D,2024-04-22_16h17.48.705,attentional_competition_task,2022.2.4,144.00133628893158,
positions.xlsx,positions_test.xlsx,positions_test_new.xlsx,stimuli.xlsx,stimuli_new.xlsx,stimuli/Social4.png,stimuli/Social3.png,stimuli/Nonsocial4.png,stimuli/Nonsocial3.png,stimuli/Social2.png,stimuli/Social1.png,stimuli/Nonsocial2.png,stimuli/Nonsocial1.png,cs_neg_s,"(-0.7, 0.5)",,,,,,,,,0,0,0,0,,,,,,,,,1,6,22,0,,,,,,,,,,,,,,,,,,,,,,,,,,,,,,,,,,,,,,504.40846429998055,15,none,0,,,507.42226199992,,,,,,,,,,,,,,,,,,,,,,14,D,2024-04-22_16h17.48.705,attentional_competition_task,2022.2.4,144.00133628893158,
positions.xlsx,positions_test.xlsx,positions_test_new.xlsx,stimuli.xlsx,stimuli_new.xlsx,stimuli/Social4.png,stimuli/Social3.png,stimuli/Nonsocial4.png,stimuli/Nonsocial3.png,stimuli/Social2.png,stimuli/Social1.png,stimuli/Nonsocial2.png,stimuli/Nonsocial1.png,cs_pos_s,"(-0.7, -0.5)",,,,,,,,,0,0,0,0,,,,,,,,,1,7,23,5,,,,,,,,,,,,,,,,,,,,,,,,,,,,,,,,,,,,,,514.8247143998742,18,reward,1,0.6946561997756362,0.6946601998060942,515.5261392998509,,,,,,,,,,,,,,,,,,,,,,14,D,2024-04-22_16h17.48.705,attentional_competition_task,2022.2.4,144.00133628893158,
positions.xlsx,positions_test.xlsx,positions_test_new.xlsx,stimuli.xlsx,stimuli_new.xlsx,stimuli/Social4.png,stimuli/Social3.png,stimuli/Nonsocial4.png,stimuli/Nonsocial3.png,stimuli/Social2.png,stimuli/Social1.png,stimuli/Nonsocial2.png,stimuli/Nonsocial1.png,cs_pos_ns,"(0.7, 0.5)",,,,,,,,,0,0,0,0,,,,,,,,,1,8,24,14,,,,,,,,,,,,,,,,,,,,,,,,,,,,,,,,,,,,,,523.0465728999116,21,reward,1,0.8961662002839148,0.896169800311327,523.9493227000348,,,,,,,,,,,,,,,,,,,,,,14,D,2024-04-22_16h17.48.705,attentional_competition_task,2022.2.4,144.00133628893158,
positions.xlsx,positions_test.xlsx,positions_test_new.xlsx,stimuli.xlsx,stimuli_new.xlsx,stimuli/Social4.png,stimuli/Social3.png,stimuli/Nonsocial4.png,stimuli/Nonsocial3.png,stimuli/Social2.png,stimuli/Social1.png,stimuli/Nonsocial2.png,stimuli/Nonsocial1.png,cs_pos_ns,"(-0.7, -0.5)",,,,,,,,,0,0,0,0,,,,,,,,,1,9,25,13,,,,,,,,,,,,,,,,,,,,,,,,,,,,,,,,,,,,,,531.3726201001555,24,reward,1,0.8963009999133646,0.8963048998266459,532.2754800999537,,,,,,,,,,,,,,,,,,,,,,14,D,2024-04-22_16h17.48.705,attentional_competition_task,2022.2.4,144.00133628893158,
positions.xlsx,positions_test.xlsx,positions_test_new.xlsx,stimuli.xlsx,stimuli_new.xlsx,stimuli/Social4.png,stimuli/Social3.png,stimuli/Nonsocial4.png,stimuli/Nonsocial3.png,stimuli/Social2.png,stimuli/Social1.png,stimuli/Nonsocial2.png,stimuli/Nonsocial1.png,cs_neg_s,"(-0.7, -0.5)",,,,,,,,,0,0,0,0,,,,,,,,,1,10,26,1,,,,,,,,,,,,,,,,,,,,,,,,,,,,,,,,,,,,,,539.441801100038,24,none,0,,,542.448562100064,,,,,,,,,,,,,,,,,,,,,,14,D,2024-04-22_16h17.48.705,attentional_competition_task,2022.2.4,144.00133628893158,
positions.xlsx,positions_test.xlsx,positions_test_new.xlsx,stimuli.xlsx,stimuli_new.xlsx,stimuli/Social4.png,stimuli/Social3.png,stimuli/Nonsocial4.png,stimuli/Nonsocial3.png,stimuli/Social2.png,stimuli/Social1.png,stimuli/Nonsocial2.png,stimuli/Nonsocial1.png,cs_pos_ns,"(0.7, -0.5)",,,,,,,,,0,0,0,0,,,,,,,,,1,11,27,15,,,,,,,,,,,,,,,,,,,,,,,,,,,,,,,,,,,,,,549.7538248002529,27,reward,1,0.8542006998322904,0.8542046998627484,550.6149332001805,,,,,,,,,,,,,,,,,,,,,,14,D,2024-04-22_16h17.48.705,attentional_competition_task,2022.2.4,144.00133628893158,
positions.xlsx,positions_test.xlsx,positions_test_new.xlsx,stimuli.xlsx,stimuli_new.xlsx,stimuli/Social4.png,stimuli/Social3.png,stimuli/Nonsocial4.png,stimuli/Nonsocial3.png,stimuli/Social2.png,stimuli/Social1.png,stimuli/Nonsocial2.png,stimuli/Nonsocial1.png,cs_neg_ns,"(-0.7, 0.5)",,,,,,,,,0,0,0,0,,,,,,,,,1,12,28,8,,,,,,,,,,,,,,,,,,,,,,,,,,,,,,,,,,,,,,557.3229586002417,27,none,0,,,560.3367368001491,,,,,,,,,,,,,,,,,,,,,,14,D,2024-04-22_16h17.48.705,attentional_competition_task,2022.2.4,144.00133628893158,
positions.xlsx,positions_test.xlsx,positions_test_new.xlsx,stimuli.xlsx,stimuli_new.xlsx,stimuli/Social4.png,stimuli/Social3.png,stimuli/Nonsocial4.png,stimuli/Nonsocial3.png,stimuli/Social2.png,stimuli/Social1.png,stimuli/Nonsocial2.png,stimuli/Nonsocial1.png,cs_pos_s,"(0.7, 0.5)",,,,,,,,,0,0,0,0,,,,,,,,,1,13,29,6,,,,,,,,,,,,,,,,,,,,,,,,,,,,,,,,,,,,,,568.0725922998972,30,reward,1,0.7015488999895751,0.7015526001341641,568.7808571001515,,,,,,,,,,,,,,,,,,,,,,14,D,2024-04-22_16h17.48.705,attentional_competition_task,2022.2.4,144.00133628893158,
positions.xlsx,positions_test.xlsx,positions_test_new.xlsx,stimuli.xlsx,stimuli_new.xlsx,stimuli/Social4.png,stimuli/Social3.png,stimuli/Nonsocial4.png,stimuli/Nonsocial3.png,stimuli/Social2.png,stimuli/Social1.png,stimuli/Nonsocial2.png,stimuli/Nonsocial1.png,cs_neg_ns,"(0.7, 0.5)",,,,,,,,,0,0,0,0,,,,,,,,,1,14,30,10,,,,,,,,,,,,,,,,,,,,,,,,,,,,,,,,,,,,,,576.0167045998387,30,none,0,,,579.0304624000564,,,,,,,,,,,,,,,,,,,,,,14,D,2024-04-22_16h17.48.705,attentional_competition_task,2022.2.4,144.00133628893158,
positions.xlsx,positions_test.xlsx,positions_test_new.xlsx,stimuli.xlsx,stimuli_new.xlsx,stimuli/Social4.png,stimuli/Social3.png,stimuli/Nonsocial4.png,stimuli/Nonsocial3.png,stimuli/Social2.png,stimuli/Social1.png,stimuli/Nonsocial2.png,stimuli/Nonsocial1.png,cs_neg_s,"(0.7, -0.5)",,,,,,,,,0,0,0,0,,,,,,,,,1,15,31,3,,,,,,,,,,,,,,,,,,,,,,,,,,,,,,,,,,,,,,586.7940183999017,30,none,0,,,589.8077607001178,,,,,,,,,,,,,,,,,,,,,,14,D,2024-04-22_16h17.48.705,attentional_competition_task,2022.2.4,144.00133628893158,
positions.xlsx,positions_test.xlsx,positions_test_new.xlsx,stimuli.xlsx,stimuli_new.xlsx,stimuli/Social4.png,stimuli/Social3.png,stimuli/Nonsocial4.png,stimuli/Nonsocial3.png,stimuli/Social2.png,stimuli/Social1.png,stimuli/Nonsocial2.png,stimuli/Nonsocial1.png,cs_pos_ns,"(-0.7, -0.5)",,,,,,,,,0,0,0,0,,,,,,,,,,,,,0,0,0,13,,,,,,,,,,,,,,,,,,,,,,,,,,,,,,,,,,622.3481431999244,33,reward,1,1.2015953999944031,1.2015988999046385,623.556443199981,,,,,,,,,,,,,,,,,,,,,,14,D,2024-04-22_16h17.48.705,attentional_competition_task,2022.2.4,144.00133628893158,
positions.xlsx,positions_test.xlsx,positions_test_new.xlsx,stimuli.xlsx,stimuli_new.xlsx,stimuli/Social4.png,stimuli/Social3.png,stimuli/Nonsocial4.png,stimuli/Nonsocial3.png,stimuli/Social2.png,stimuli/Social1.png,stimuli/Nonsocial2.png,stimuli/Nonsocial1.png,cs_neg_ns,"(-0.7, -0.5)",,,,,,,,,0,0,0,0,,,,,,,,,,,,,0,1,1,9,,,,,,,,,,,,,,,,,,,,,,,,,,,,,,,,,,631.5352751999162,33,none,0,,,634.549032300245,,,,,,,,,,,,,,,,,,,,,,14,D,2024-04-22_16h17.48.705,attentional_competition_task,2022.2.4,144.00133628893158,
positions.xlsx,positions_test.xlsx,positions_test_new.xlsx,stimuli.xlsx,stimuli_new.xlsx,stimuli/Social4.png,stimuli/Social3.png,stimuli/Nonsocial4.png,stimuli/Nonsocial3.png,stimuli/Social2.png,stimuli/Social1.png,stimuli/Nonsocial2.png,stimuli/Nonsocial1.png,cs_pos_s,"(-0.7, 0.5)",,,,,,,,,0,0,0,0,,,,,,,,,,,,,0,2,2,4,,,,,,,,,,,,,,,,,,,,,,,,,,,,,,,,,,641.8751683002338,36,reward,1,0.6461839997209609,0.6461877999827266,642.5278881001286,,,,,,,,,,,,,,,,,,,,,,14,D,2024-04-22_16h17.48.705,attentional_competition_task,2022.2.4,144.00133628893158,
positions.xlsx,positions_test.xlsx,positions_test_new.xlsx,stimuli.xlsx,stimuli_new.xlsx,stimuli/Social4.png,stimuli/Social3.png,stimuli/Nonsocial4.png,stimuli/Nonsocial3.png,stimuli/Social2.png,stimuli/Social1.png,stimuli/Nonsocial2.png,stimuli/Nonsocial1.png,cs_neg_s,"(-0.7, 0.5)",,,,,,,,,0,0,0,0,,,,,,,,,,,,,0,3,3,0,,,,,,,,,,,,,,,,,,,,,,,,,,,,,,,,,,649.5901124998927,36,none,0,,,652.6038728998974,,,,,,,,,,,,,,,,,,,,,,14,D,2024-04-22_16h17.48.705,attentional_competition_task,2022.2.4,144.00133628893158,
positions.xlsx,positions_test.xlsx,positions_test_new.xlsx,stimuli.xlsx,stimuli_new.xlsx,stimuli/Social4.png,stimuli/Social3.png,stimuli/Nonsocial4.png,stimuli/Nonsocial3.png,stimuli/Social2.png,stimuli/Social1.png,stimuli/Nonsocial2.png,stimuli/Nonsocial1.png,cs_pos_ns,"(0.7, -0.5)",,,,,,,,,0,0,0,0,,,,,,,,,,,,,0,4,4,15,,,,,,,,,,,,,,,,,,,,,,,,,,,,,,,,,,659.9647502000444,39,reward,1,0.868142600171268,0.8681465997360647,660.8397388998419,,,,,,,,,,,,,,,,,,,,,,14,D,2024-04-22_16h17.48.705,attentional_competition_task,2022.2.4,144.00133628893158,
positions.xlsx,positions_test.xlsx,positions_test_new.xlsx,stimuli.xlsx,stimuli_new.xlsx,stimuli/Social4.png,stimuli/Social3.png,stimuli/Nonsocial4.png,stimuli/Nonsocial3.png,stimuli/Social2.png,stimuli/Social1.png,stimuli/Nonsocial2.png,stimuli/Nonsocial1.png,cs_pos_s,"(0.7, -0.5)",,,,,,,,,0,0,0,0,,,,,,,,,,,,,0,5,5,7,,,,,,,,,,,,,,,,,,,,,,,,,,,,,,,,,,668.7629840001464,42,reward,1,0.6253013000823557,0.6253045997582376,669.3949655001052,,,,,,,,,,,,,,,,,,,,,,14,D,2024-04-22_16h17.48.705,attentional_competition_task,2022.2.4,144.00133628893158,
positions.xlsx,positions_test.xlsx,positions_test_new.xlsx,stimuli.xlsx,stimuli_new.xlsx,stimuli/Social4.png,stimuli/Social3.png,stimuli/Nonsocial4.png,stimuli/Nonsocial3.png,stimuli/Social2.png,stimuli/Social1.png,stimuli/Nonsocial2.png,stimuli/Nonsocial1.png,cs_neg_ns,"(0.7, -0.5)",,,,,,,,,0,0,0,0,,,,,,,,,,,,,0,6,6,11,,,,,,,,,,,,,,,,,,,,,,,,,,,,,,,,,,676.8460077000782,42,none,0,,,679.8597150999121,,,,,,,,,,,,,,,,,,,,,,14,D,2024-04-22_16h17.48.705,attentional_competition_task,2022.2.4,144.00133628893158,
positions.xlsx,positions_test.xlsx,positions_test_new.xlsx,stimuli.xlsx,stimuli_new.xlsx,stimuli/Social4.png,stimuli/Social3.png,stimuli/Nonsocial4.png,stimuli/Nonsocial3.png,stimuli/Social2.png,stimuli/Social1.png,stimuli/Nonsocial2.png,stimuli/Nonsocial1.png,cs_neg_s,"(0.7, -0.5)",,,,,,,,,0,0,0,0,,,,,,,,,,,,,0,7,7,3,,,,,,,,,,,,,,,,,,,,,,,,,,,,,,,,,,687.7274978002533,42,none,0,,,690.7342980001122,,,,,,,,,,,,,,,,,,,,,,14,D,2024-04-22_16h17.48.705,attentional_competition_task,2022.2.4,144.00133628893158,
positions.xlsx,positions_test.xlsx,positions_test_new.xlsx,stimuli.xlsx,stimuli_new.xlsx,stimuli/Social4.png,stimuli/Social3.png,stimuli/Nonsocial4.png,stimuli/Nonsocial3.png,stimuli/Social2.png,stimuli/Social1.png,stimuli/Nonsocial2.png,stimuli/Nonsocial1.png,cs_neg_ns,"(0.7, 0.5)",,,,,,,,,0,0,0,0,,,,,,,,,,,,,0,8,8,10,,,,,,,,,,,,,,,,,,,,,,,,,,,,,,,,,,697.8937328001484,39,loss,1,1.173685200046748,1.1736886999569833,699.074246800039,,,,,,,,,,,,,,,,,,,,,,14,D,2024-04-22_16h17.48.705,attentional_competition_task,2022.2.4,144.00133628893158,
positions.xlsx,positions_test.xlsx,positions_test_new.xlsx,stimuli.xlsx,stimuli_new.xlsx,stimuli/Social4.png,stimuli/Social3.png,stimuli/Nonsocial4.png,stimuli/Nonsocial3.png,stimuli/Social2.png,stimuli/Social1.png,stimuli/Nonsocial2.png,stimuli/Nonsocial1.png,cs_pos_ns,"(-0.7, 0.5)",,,,,,,,,0,0,0,0,,,,,,,,,,,,,0,9,9,12,,,,,,,,,,,,,,,,,,,,,,,,,,,,,,,,,,706.1434324001893,42,reward,1,0.8055886998772621,0.805592100135982,706.9558692998253,,,,,,,,,,,,,,,,,,,,,,14,D,2024-04-22_16h17.48.705,attentional_competition_task,2022.2.4,144.00133628893158,
positions.xlsx,positions_test.xlsx,positions_test_new.xlsx,stimuli.xlsx,stimuli_new.xlsx,stimuli/Social4.png,stimuli/Social3.png,stimuli/Nonsocial4.png,stimuli/Nonsocial3.png,stimuli/Social2.png,stimuli/Social1.png,stimuli/Nonsocial2.png,stimuli/Nonsocial1.png,cs_neg_s,"(-0.7, -0.5)",,,,,,,,,0,0,0,0,,,,,,,,,,,,,0,10,10,1,,,,,,,,,,,,,,,,,,,,,,,,,,,,,,,,,,715.1707633999176,42,none,0,,,718.1845888001844,,,,,,,,,,,,,,,,,,,,,,14,D,2024-04-22_16h17.48.705,attentional_competition_task,2022.2.4,144.00133628893158,
positions.xlsx,positions_test.xlsx,positions_test_new.xlsx,stimuli.xlsx,stimuli_new.xlsx,stimuli/Social4.png,stimuli/Social3.png,stimuli/Nonsocial4.png,stimuli/Nonsocial3.png,stimuli/Social2.png,stimuli/Social1.png,stimuli/Nonsocial2.png,stimuli/Nonsocial1.png,cs_neg_ns,"(-0.7, 0.5)",,,,,,,,,0,0,0,0,,,,,,,,,,,,,0,11,11,8,,,,,,,,,,,,,,,,,,,,,,,,,,,,,,,,,,725.2398366001435,39,loss,1,1.201549000106752,1.2015529000200331,726.448120799847,,,,,,,,,,,,,,,,,,,,,,14,D,2024-04-22_16h17.48.705,attentional_competition_task,2022.2.4,144.00133628893158,
positions.xlsx,positions_test.xlsx,positions_test_new.xlsx,stimuli.xlsx,stimuli_new.xlsx,stimuli/Social4.png,stimuli/Social3.png,stimuli/Nonsocial4.png,stimuli/Nonsocial3.png,stimuli/Social2.png,stimuli/Social1.png,stimuli/Nonsocial2.png,stimuli/Nonsocial1.png,cs_pos_s,"(0.7, 0.5)",,,,,,,,,0,0,0,0,,,,,,,,,,,,,0,12,12,6,,,,,,,,,,,,,,,,,,,,,,,,,,,,,,,,,,734.1214696001261,42,reward,1,0.6393571998924017,0.6393609996885061,734.767255099956,,,,,,,,,,,,,,,,,,,,,,14,D,2024-04-22_16h17.48.705,attentional_competition_task,2022.2.4,144.00133628893158,
positions.xlsx,positions_test.xlsx,positions_test_new.xlsx,stimuli.xlsx,stimuli_new.xlsx,stimuli/Social4.png,stimuli/Social3.png,stimuli/Nonsocial4.png,stimuli/Nonsocial3.png,stimuli/Social2.png,stimuli/Social1.png,stimuli/Nonsocial2.png,stimuli/Nonsocial1.png,cs_pos_s,"(-0.7, -0.5)",,,,,,,,,0,0,0,0,,,,,,,,,,,,,0,13,13,5,,,,,,,,,,,,,,,,,,,,,,,,,,,,,,,,,,742.0516703999601,45,reward,1,0.6809049998410046,0.6809084000997245,742.7391256000847,,,,,,,,,,,,,,,,,,,,,,14,D,2024-04-22_16h17.48.705,attentional_competition_task,2022.2.4,144.00133628893158,
positions.xlsx,positions_test.xlsx,positions_test_new.xlsx,stimuli.xlsx,stimuli_new.xlsx,stimuli/Social4.png,stimuli/Social3.png,stimuli/Nonsocial4.png,stimuli/Nonsocial3.png,stimuli/Social2.png,stimuli/Social1.png,stimuli/Nonsocial2.png,stimuli/Nonsocial1.png,cs_pos_ns,"(0.7, 0.5)",,,,,,,,,0,0,0,0,,,,,,,,,,,,,0,14,14,14,,,,,,,,,,,,,,,,,,,,,,,,,,,,,,,,,,750.169366999995,48,reward,1,0.8269285000860691,0.8269321001134813,751.0027359998785,,,,,,,,,,,,,,,,,,,,,,14,D,2024-04-22_16h17.48.705,attentional_competition_task,2022.2.4,144.00133628893158,
positions.xlsx,positions_test.xlsx,positions_test_new.xlsx,stimuli.xlsx,stimuli_new.xlsx,stimuli/Social4.png,stimuli/Social3.png,stimuli/Nonsocial4.png,stimuli/Nonsocial3.png,stimuli/Social2.png,stimuli/Social1.png,stimuli/Nonsocial2.png,stimuli/Nonsocial1.png,cs_neg_s,"(0.7, 0.5)",,,,,,,,,0,0,0,0,,,,,,,,,,,,,0,15,15,2,,,,,,,,,,,,,,,,,,,,,,,,,,,,,,,,,,758.1204761001281,48,none,0,,,761.127284000162,,,,,,,,,,,,,,,,,,,,,,14,D,2024-04-22_16h17.48.705,attentional_competition_task,2022.2.4,144.00133628893158,
positions.xlsx,positions_test.xlsx,positions_test_new.xlsx,stimuli.xlsx,stimuli_new.xlsx,stimuli/Social4.png,stimuli/Social3.png,stimuli/Nonsocial4.png,stimuli/Nonsocial3.png,stimuli/Social2.png,stimuli/Social1.png,stimuli/Nonsocial2.png,stimuli/Nonsocial1.png,cs_pos_s,"(0.7, 0.5)",,,,,,,,,0,0,0,0,,,,,,,,,,,,,1,0,16,6,,,,,,,,,,,,,,,,,,,,,,,,,,,,,,,,,,768.5575394998305,51,reward,1,0.5699232001788914,0.5699269003234804,769.1339349998161,,,,,,,,,,,,,,,,,,,,,,14,D,2024-04-22_16h17.48.705,attentional_competition_task,2022.2.4,144.00133628893158,
positions.xlsx,positions_test.xlsx,positions_test_new.xlsx,stimuli.xlsx,stimuli_new.xlsx,stimuli/Social4.png,stimuli/Social3.png,stimuli/Nonsocial4.png,stimuli/Nonsocial3.png,stimuli/Social2.png,stimuli/Social1.png,stimuli/Nonsocial2.png,stimuli/Nonsocial1.png,cs_pos_s,"(-0.7, -0.5)",,,,,,,,,0,0,0,0,,,,,,,,,,,,,1,1,17,5,,,,,,,,,,,,,,,,,,,,,,,,,,,,,,,,,,777.0502535002306,54,reward,1,0.5973096997477114,0.5973135000094771,777.6543788998388,,,,,,,,,,,,,,,,,,,,,,14,D,2024-04-22_16h17.48.705,attentional_competition_task,2022.2.4,144.00133628893158,
positions.xlsx,positions_test.xlsx,positions_test_new.xlsx,stimuli.xlsx,stimuli_new.xlsx,stimuli/Social4.png,stimuli/Social3.png,stimuli/Nonsocial4.png,stimuli/Nonsocial3.png,stimuli/Social2.png,stimuli/Social1.png,stimuli/Nonsocial2.png,stimuli/Nonsocial1.png,cs_neg_s,"(0.7, -0.5)",,,,,,,,,0,0,0,0,,,,,,,,,,,,,1,2,18,3,,,,,,,,,,,,,,,,,,,,,,,,,,,,,,,,,,784.9943611999042,54,none,0,,,788.0081140999682,,,,,,,,,,,,,,,,,,,,,,14,D,2024-04-22_16h17.48.705,attentional_competition_task,2022.2.4,144.00133628893158,
positions.xlsx,positions_test.xlsx,positions_test_new.xlsx,stimuli.xlsx,stimuli_new.xlsx,stimuli/Social4.png,stimuli/Social3.png,stimuli/Nonsocial4.png,stimuli/Nonsocial3.png,stimuli/Social2.png,stimuli/Social1.png,stimuli/Nonsocial2.png,stimuli/Nonsocial1.png,cs_pos_ns,"(0.7, 0.5)",,,,,,,,,0,0,0,0,,,,,,,,,,,,,1,3,19,14,,,,,,,,,,,,,,,,,,,,,,,,,,,,,,,,,,795.3550956002437,57,reward,1,0.9723223000764847,0.9723259001038969,796.3342372998595,,,,,,,,,,,,,,,,,,,,,,14,D,2024-04-22_16h17.48.705,attentional_competition_task,2022.2.4,144.00133628893158,
positions.xlsx,positions_test.xlsx,positions_test_new.xlsx,stimuli.xlsx,stimuli_new.xlsx,stimuli/Social4.png,stimuli/Social3.png,stimuli/Nonsocial4.png,stimuli/Nonsocial3.png,stimuli/Social2.png,stimuli/Social1.png,stimuli/Nonsocial2.png,stimuli/Nonsocial1.png,cs_pos_ns,"(0.7, -0.5)",,,,,,,,,0,0,0,0,,,,,,,,,,,,,1,4,20,15,,,,,,,,,,,,,,,,,,,,,,,,,,,,,,,,,,803.2436878001317,60,reward,1,2.000323799904436,2.000327799934894,805.2504938002676,,,,,,,,,,,,,,,,,,,,,,14,D,2024-04-22_16h17.48.705,attentional_competition_task,2022.2.4,144.00133628893158,
positions.xlsx,positions_test.xlsx,positions_test_new.xlsx,stimuli.xlsx,stimuli_new.xlsx,stimuli/Social4.png,stimuli/Social3.png,stimuli/Nonsocial4.png,stimuli/Nonsocial3.png,stimuli/Social2.png,stimuli/Social1.png,stimuli/Nonsocial2.png,stimuli/Nonsocial1.png,cs_pos_s,"(-0.7, 0.5)",,,,,,,,,0,0,0,0,,,,,,,,,,,,,1,5,21,4,,,,,,,,,,,,,,,,,,,,,,,,,,,,,,,,,,813.1739119002596,63,reward,1,0.7987640998326242,0.7987679000943899,813.9793324000202,,,,,,,,,,,,,,,,,,,,,,14,D,2024-04-22_16h17.48.705,attentional_competition_task,2022.2.4,144.00133628893158,
positions.xlsx,positions_test.xlsx,positions_test_new.xlsx,stimuli.xlsx,stimuli_new.xlsx,stimuli/Social4.png,stimuli/Social3.png,stimuli/Nonsocial4.png,stimuli/Nonsocial3.png,stimuli/Social2.png,stimuli/Social1.png,stimuli/Nonsocial2.png,stimuli/Nonsocial1.png,cs_neg_ns,"(0.7, 0.5)",,,,,,,,,0,0,0,0,,,,,,,,,,,,,1,6,22,10,,,,,,,,,,,,,,,,,,,,,,,,,,,,,,,,,,821.5484774000943,63,none,0,,,824.5622387002222,,,,,,,,,,,,,,,,,,,,,,14,D,2024-04-22_16h17.48.705,attentional_competition_task,2022.2.4,144.00133628893158,
positions.xlsx,positions_test.xlsx,positions_test_new.xlsx,stimuli.xlsx,stimuli_new.xlsx,stimuli/Social4.png,stimuli/Social3.png,stimuli/Nonsocial4.png,stimuli/Nonsocial3.png,stimuli/Social2.png,stimuli/Social1.png,stimuli/Nonsocial2.png,stimuli/Nonsocial1.png,cs_pos_ns,"(-0.7, 0.5)",,,,,,,,,0,0,0,0,,,,,,,,,,,,,1,7,23,12,,,,,,,,,,,,,,,,,,,,,,,,,,,,,,,,,,831.4022380998358,66,reward,1,0.6110612000338733,0.611065000295639,832.0202986001968,,,,,,,,,,,,,,,,,,,,,,14,D,2024-04-22_16h17.48.705,attentional_competition_task,2022.2.4,144.00133628893158,
positions.xlsx,positions_test.xlsx,positions_test_new.xlsx,stimuli.xlsx,stimuli_new.xlsx,stimuli/Social4.png,stimuli/Social3.png,stimuli/Nonsocial4.png,stimuli/Nonsocial3.png,stimuli/Social2.png,stimuli/Social1.png,stimuli/Nonsocial2.png,stimuli/Nonsocial1.png,cs_neg_ns,"(-0.7, -0.5)",,,,,,,,,0,0,0,0,,,,,,,,,,,,,1,8,24,9,,,,,,,,,,,,,,,,,,,,,,,,,,,,,,,,,,840.0824611000717,63,loss,1,0.6805205000564456,0.6805239003151655,840.7699406999163,,,,,,,,,,,,,,,,,,,,,,14,D,2024-04-22_16h17.48.705,attentional_competition_task,2022.2.4,144.00133628893158,
positions.xlsx,positions_test.xlsx,positions_test_new.xlsx,stimuli.xlsx,stimuli_new.xlsx,stimuli/Social4.png,stimuli/Social3.png,stimuli/Nonsocial4.png,stimuli/Nonsocial3.png,stimuli/Social2.png,stimuli/Social1.png,stimuli/Nonsocial2.png,stimuli/Nonsocial1.png,cs_pos_ns,"(-0.7, -0.5)",,,,,,,,,0,0,0,0,,,,,,,,,,,,,1,9,25,13,,,,,,,,,,,,,,,,,,,,,,,,,,,,,,,,,,848.5474073002115,66,reward,1,0.6531032999046147,0.6531067998148501,849.2070903000422,,,,,,,,,,,,,,,,,,,,,,14,D,2024-04-22_16h17.48.705,attentional_competition_task,2022.2.4,144.00133628893158,
positions.xlsx,positions_test.xlsx,positions_test_new.xlsx,stimuli.xlsx,stimuli_new.xlsx,stimuli/Social4.png,stimuli/Social3.png,stimuli/Nonsocial4.png,stimuli/Nonsocial3.png,stimuli/Social2.png,stimuli/Social1.png,stimuli/Nonsocial2.png,stimuli/Nonsocial1.png,cs_neg_s,"(-0.7, 0.5)",,,,,,,,,0,0,0,0,,,,,,,,,,,,,1,10,26,0,,,,,,,,,,,,,,,,,,,,,,,,,,,,,,,,,,857.4845110001042,66,none,0,,,860.4913416998461,,,,,,,,,,,,,,,,,,,,,,14,D,2024-04-22_16h17.48.705,attentional_competition_task,2022.2.4,144.00133628893158,
positions.xlsx,positions_test.xlsx,positions_test_new.xlsx,stimuli.xlsx,stimuli_new.xlsx,stimuli/Social4.png,stimuli/Social3.png,stimuli/Nonsocial4.png,stimuli/Nonsocial3.png,stimuli/Social2.png,stimuli/Social1.png,stimuli/Nonsocial2.png,stimuli/Nonsocial1.png,cs_neg_ns,"(-0.7, 0.5)",,,,,,,,,0,0,0,0,,,,,,,,,,,,,1,11,27,8,,,,,,,,,,,,,,,,,,,,,,,,,,,,,,,,,,867.6577300000936,66,none,0,,,870.6645827000029,,,,,,,,,,,,,,,,,,,,,,14,D,2024-04-22_16h17.48.705,attentional_competition_task,2022.2.4,144.00133628893158,
positions.xlsx,positions_test.xlsx,positions_test_new.xlsx,stimuli.xlsx,stimuli_new.xlsx,stimuli/Social4.png,stimuli/Social3.png,stimuli/Nonsocial4.png,stimuli/Nonsocial3.png,stimuli/Social2.png,stimuli/Social1.png,stimuli/Nonsocial2.png,stimuli/Nonsocial1.png,cs_neg_s,"(0.7, 0.5)",,,,,,,,,0,0,0,0,,,,,,,,,,,,,1,12,28,2,,,,,,,,,,,,,,,,,,,,,,,,,,,,,,,,,,877.5462564001791,66,none,0,,,880.5530512002297,,,,,,,,,,,,,,,,,,,,,,14,D,2024-04-22_16h17.48.705,attentional_competition_task,2022.2.4,144.00133628893158,
positions.xlsx,positions_test.xlsx,positions_test_new.xlsx,stimuli.xlsx,stimuli_new.xlsx,stimuli/Social4.png,stimuli/Social3.png,stimuli/Nonsocial4.png,stimuli/Nonsocial3.png,stimuli/Social2.png,stimuli/Social1.png,stimuli/Nonsocial2.png,stimuli/Nonsocial1.png,cs_neg_s,"(-0.7, -0.5)",,,,,,,,,0,0,0,0,,,,,,,,,,,,,1,13,29,1,,,,,,,,,,,,,,,,,,,,,,,,,,,,,,,,,,888.0388609999791,66,none,0,,,891.0456606000662,,,,,,,,,,,,,,,,,,,,,,14,D,2024-04-22_16h17.48.705,attentional_competition_task,2022.2.4,144.00133628893158,
positions.xlsx,positions_test.xlsx,positions_test_new.xlsx,stimuli.xlsx,stimuli_new.xlsx,stimuli/Social4.png,stimuli/Social3.png,stimuli/Nonsocial4.png,stimuli/Nonsocial3.png,stimuli/Social2.png,stimuli/Social1.png,stimuli/Nonsocial2.png,stimuli/Nonsocial1.png,cs_neg_ns,"(0.7, -0.5)",,,,,,,,,0,0,0,0,,,,,,,,,,,,,1,14,30,11,,,,,,,,,,,,,,,,,,,,,,,,,,,,,,,,,,898.281498500146,63,loss,1,1.1319602001458406,1.1319638001732528,899.4203478000127,,,,,,,,,,,,,,,,,,,,,,14,D,2024-04-22_16h17.48.705,attentional_competition_task,2022.2.4,144.00133628893158,
positions.xlsx,positions_test.xlsx,positions_test_new.xlsx,stimuli.xlsx,stimuli_new.xlsx,stimuli/Social4.png,stimuli/Social3.png,stimuli/Nonsocial4.png,stimuli/Nonsocial3.png,stimuli/Social2.png,stimuli/Social1.png,stimuli/Nonsocial2.png,stimuli/Nonsocial1.png,cs_pos_s,"(0.7, -0.5)",,,,,,,,,0,0,0,0,,,,,,,,,,,,,1,15,31,7,,,,,,,,,,,,,,,,,,,,,,,,,,,,,,,,,,906.6908991001546,66,reward,1,0.7154884003102779,0.7154920999892056,907.4131060000509,,,,,,,,,,,,,,,,,,,,,,14,D,2024-04-22_16h17.48.705,attentional_competition_task,2022.2.4,144.00133628893158,
positions.xlsx,positions_test.xlsx,positions_test_new.xlsx,stimuli.xlsx,stimuli_new.xlsx,stimuli/Social4.png,stimuli/Social3.png,stimuli/Nonsocial4.png,stimuli/Nonsocial3.png,stimuli/Social2.png,stimuli/Social1.png,stimuli/Nonsocial2.png,stimuli/Nonsocial1.png,cs_neg_s,,,,,,,,,,0,0,0,0,,,,,,,,,,,,,,,,,0,0,0,0,,,,,,,,,,,,,,,,,,,,,,,912.8712189001963,5.0,9.039584400132298,,,,,,,,,,,,,,,,,,,,,,,,,,,,,,,,,14,D,2024-04-22_16h17.48.705,attentional_competition_task,2022.2.4,144.00133628893158,
positions.xlsx,positions_test.xlsx,positions_test_new.xlsx,stimuli.xlsx,stimuli_new.xlsx,stimuli/Social4.png,stimuli/Social3.png,stimuli/Nonsocial4.png,stimuli/Nonsocial3.png,stimuli/Social2.png,stimuli/Social1.png,stimuli/Nonsocial2.png,stimuli/Nonsocial1.png,cs_pos_s,,,,,,,,,,0,0,0,0,,,,,,,,,,,,,,,,,0,1,1,2,,,,,,,,,,,,,,,,,,,,,,,924.4193445001729,9.0,6.467271899804473,,,,,,,,,,,,,,,,,,,,,,,,,,,,,,,,,14,D,2024-04-22_16h17.48.705,attentional_competition_task,2022.2.4,144.00133628893158,
positions.xlsx,positions_test.xlsx,positions_test_new.xlsx,stimuli.xlsx,stimuli_new.xlsx,stimuli/Social4.png,stimuli/Social3.png,stimuli/Nonsocial4.png,stimuli/Nonsocial3.png,stimuli/Social2.png,stimuli/Social1.png,stimuli/Nonsocial2.png,stimuli/Nonsocial1.png,cs_neg_ns,,,,,,,,,,0,0,0,0,,,,,,,,,,,,,,,,,0,2,2,1,,,,,,,,,,,,,,,,,,,,,,,931.8426652001217,9.0,5.508365000132471,,,,,,,,,,,,,,,,,,,,,,,,,,,,,,,,,14,D,2024-04-22_16h17.48.705,attentional_competition_task,2022.2.4,144.00133628893158,
positions.xlsx,positions_test.xlsx,positions_test_new.xlsx,stimuli.xlsx,stimuli_new.xlsx,stimuli/Social4.png,stimuli/Social3.png,stimuli/Nonsocial4.png,stimuli/Nonsocial3.png,stimuli/Social2.png,stimuli/Social1.png,stimuli/Nonsocial2.png,stimuli/Nonsocial1.png,cs_pos_ns,,,,,,,,,,0,0,0,0,,,,,,,,,,,,,,,,,0,3,3,3,,,,,,,,,,,,,,,,,,,,,,,937.911879400257,8.0,3.175508600194007,,,,,,,,,,,,,,,,,,,,,,,,,,,,,,,,,14,D,2024-04-22_16h17.48.705,attentional_competition_task,2022.2.4,144.00133628893158,
positions.xlsx,positions_test.xlsx,positions_test_new.xlsx,stimuli.xlsx,stimuli_new.xlsx,stimuli/Social4.png,stimuli/Social3.png,stimuli/Nonsocial4.png,stimuli/Nonsocial3.png,stimuli/Social2.png,stimuli/Social1.png,stimuli/Nonsocial2.png,stimuli/Nonsocial1.png,,,"(-0.7, -0.5)",cs_pos_ns,"(-0.7, 0.5)",cs_neg_ns,"(0.7, -0.5)",cs_neg_s,"(0.7, 0.5)",cs_pos_s,0,0,0,0,,,,,,,,,,,,,,,,,,,,,0,0,0,21,,,,,,,,,,,,,,,,,,,,,,,,,,,66,reward,,,,,942.5089082000777,951.6127088000067,951.6127088000067,951.6127088000067,951.6127088000067,1,0.1544599998742342,0.15446380013599992,1,0.02919720020145178,0.14076410001143813,0,,,0,,,951.772444000002,951.772444000002,951.772444000002,951.772444000002,14,D,2024-04-22_16h17.48.705,attentional_competition_task,2022.2.4,144.00133628893158,
positions.xlsx,positions_test.xlsx,positions_test_new.xlsx,stimuli.xlsx,stimuli_new.xlsx,stimuli/Social4.png,stimuli/Social3.png,stimuli/Nonsocial4.png,stimuli/Nonsocial3.png,stimuli/Social2.png,stimuli/Social1.png,stimuli/Nonsocial2.png,stimuli/Nonsocial1.png,,,"(-0.7, -0.5)",cs_neg_s,"(-0.7, 0.5)",cs_pos_ns,"(0.7, -0.5)",cs_pos_s,"(0.7, 0.5)",cs_neg_ns,0,0,0,0,,,,,,,,,,,,,,,,,,,,,0,1,1,4,,,,,,,,,,,,,,,,,,,,,,,,,,,63,loss,,,,,,960.2651351001114,960.2651351001114,960.2651351001114,960.2651351001114,0,,,0,,,0,,,0,,,960.9665177999996,960.9665177999996,960.9665177999996,960.9665177999996,14,D,2024-04-22_16h17.48.705,attentional_competition_task,2022.2.4,144.00133628893158,
positions.xlsx,positions_test.xlsx,positions_test_new.xlsx,stimuli.xlsx,stimuli_new.xlsx,stimuli/Social4.png,stimuli/Social3.png,stimuli/Nonsocial4.png,stimuli/Nonsocial3.png,stimuli/Social2.png,stimuli/Social1.png,stimuli/Nonsocial2.png,stimuli/Nonsocial1.png,,,"(-0.7, -0.5)",cs_pos_s,"(-0.7, 0.5)",cs_pos_ns,"(0.7, -0.5)",cs_neg_ns,"(0.7, 0.5)",cs_neg_s,0,0,0,0,,,,,,,,,,,,,,,,,,,,,0,2,2,11,,,,,,,,,,,,,,,,,,,,,,,,,,,66,reward,,,,,,966.4246068000793,966.4246068000793,966.4246068000793,966.4246068000793,1,1.5224955002777278,1.5225129001773894,0,,,0,,,0,,,967.9523791000247,967.9523791000247,967.9523791000247,967.9523791000247,14,D,2024-04-22_16h17.48.705,attentional_competition_task,2022.2.4,144.00133628893158,
positions.xlsx,positions_test.xlsx,positions_test_new.xlsx,stimuli.xlsx,stimuli_new.xlsx,stimuli/Social4.png,stimuli/Social3.png,stimuli/Nonsocial4.png,stimuli/Nonsocial3.png,stimuli/Social2.png,stimuli/Social1.png,stimuli/Nonsocial2.png,stimuli/Nonsocial1.png,,,"(-0.7, -0.5)",cs_pos_ns,"(-0.7, 0.5)",cs_neg_ns,"(0.7, -0.5)",cs_pos_s,"(0.7, 0.5)",cs_neg_s,0,0,0,0,,,,,,,,,,,,,,,,,,,,,0,3,3,20,,,,,,,,,,,,,,,,,,,,,,,,,,,72,reward,,,,,,976.1117465998977,976.1117465998977,976.1117465998977,976.1117465998977,0,,,0,,,0,,,0,,,977.2714267000556,977.2714267000556,977.2714267000556,977.2714267000556,14,D,2024-04-22_16h17.48.705,attentional_competition_task,2022.2.4,144.00133628893158,
positions.xlsx,positions_test.xlsx,positions_test_new.xlsx,stimuli.xlsx,stimuli_new.xlsx,stimuli/Social4.png,stimuli/Social3.png,stimuli/Nonsocial4.png,stimuli/Nonsocial3.png,stimuli/Social2.png,stimuli/Social1.png,stimuli/Nonsocial2.png,stimuli/Nonsocial1.png,,,"(-0.7, -0.5)",cs_pos_ns,"(-0.7, 0.5)",cs_pos_s,"(0.7, -0.5)",cs_neg_s,"(0.7, 0.5)",cs_neg_ns,0,0,0,0,,,,,,,,,,,,,,,,,,,,,0,4,4,19,,,,,,,,,,,,,,,,,,,,,,,,,,,78,reward,,,,,,985.7502329000272,985.7502329000272,985.7502329000272,985.7502329000272,0,,,1,0.03566939989104867,0.2525348998606205,0,,,0,,,986.4933035001159,986.4933035001159,986.4933035001159,986.4933035001159,14,D,2024-04-22_16h17.48.705,attentional_competition_task,2022.2.4,144.00133628893158,
positions.xlsx,positions_test.xlsx,positions_test_new.xlsx,stimuli.xlsx,stimuli_new.xlsx,stimuli/Social4.png,stimuli/Social3.png,stimuli/Nonsocial4.png,stimuli/Nonsocial3.png,stimuli/Social2.png,stimuli/Social1.png,stimuli/Nonsocial2.png,stimuli/Nonsocial1.png,,,"(-0.7, -0.5)",cs_pos_ns,"(-0.7, 0.5)",cs_neg_s,"(0.7, -0.5)",cs_neg_ns,"(0.7, 0.5)",cs_pos_s,0,0,0,0,,,,,,,,,,,,,,,,,,,,,0,5,5,23,,,,,,,,,,,,,,,,,,,,,,,,,,,84,reward,,,,,,993.9513107999228,993.9513107999228,993.9513107999228,993.9513107999228,1,0.031161900144070387,0.2661073999479413,0,,,0,,,0,,,995.0137666999362,995.0137666999362,995.0137666999362,995.0137666999362,14,D,2024-04-22_16h17.48.705,attentional_competition_task,2022.2.4,144.00133628893158,
positions.xlsx,positions_test.xlsx,positions_test_new.xlsx,stimuli.xlsx,stimuli_new.xlsx,stimuli/Social4.png,stimuli/Social3.png,stimuli/Nonsocial4.png,stimuli/Nonsocial3.png,stimuli/Social2.png,stimuli/Social1.png,stimuli/Nonsocial2.png,stimuli/Nonsocial1.png,,,"(-0.7, -0.5)",cs_pos_ns,"(-0.7, 0.5)",cs_neg_s,"(0.7, -0.5)",cs_pos_s,"(0.7, 0.5)",cs_neg_ns,0,0,0,0,,,,,,,,,,,,,,,,,,,,,0,6,6,22,,,,,,,,,,,,,,,,,,,,,,,,,,,90,reward,,,,,,1001.534313800279,1001.534313800279,1001.534313800279,1001.534313800279,0,,,0,,,1,0.03152409987524152,0.24569119978696108,0,,,1002.930141699966,1002.930141699966,1002.930141699966,1002.930141699966,14,D,2024-04-22_16h17.48.705,attentional_competition_task,2022.2.4,144.00133628893158,
positions.xlsx,positions_test.xlsx,positions_test_new.xlsx,stimuli.xlsx,stimuli_new.xlsx,stimuli/Social4.png,stimuli/Social3.png,stimuli/Nonsocial4.png,stimuli/Nonsocial3.png,stimuli/Social2.png,stimuli/Social1.png,stimuli/Nonsocial2.png,stimuli/Nonsocial1.png,,,"(-0.7, -0.5)",cs_neg_s,"(-0.7, 0.5)",cs_neg_ns,"(0.7, -0.5)",cs_pos_s,"(0.7, 0.5)",cs_pos_ns,0,0,0,0,,,,,,,,,,,,,,,,,,,,,0,7,7,2,,,,,,,,,,,,,,,,,,,,,,,,,,,96,reward,,,,,,1011.2908554999158,1011.2908554999158,1011.2908554999158,1011.2908554999158,0,,,0,,,0,,,1,0.03074070019647479,0.1771951001137495,1011.9714257000014,1011.9714257000014,1011.9714257000014,1011.9714257000014,14,D,2024-04-22_16h17.48.705,attentional_competition_task,2022.2.4,144.00133628893158,
positions.xlsx,positions_test.xlsx,positions_test_new.xlsx,stimuli.xlsx,stimuli_new.xlsx,stimuli/Social4.png,stimuli/Social3.png,stimuli/Nonsocial4.png,stimuli/Nonsocial3.png,stimuli/Social2.png,stimuli/Social1.png,stimuli/Nonsocial2.png,stimuli/Nonsocial1.png,,,"(-0.7, -0.5)",cs_pos_s,"(-0.7, 0.5)",cs_neg_s,"(0.7, -0.5)",cs_neg_ns,"(0.7, 0.5)",cs_pos_ns,0,0,0,0,,,,,,,,,,,,,,,,,,,,,0,8,8,6,,,,,,,,,,,,,,,,,,,,,,,,,,,102,reward,,,,,,1018.5336567000486,1018.5336567000486,1018.5336567000486,1018.5336567000486,1,0.030911900103092194,0.585219900123775,0,,,0,,,0,,,1019.957233000081,1019.957233000081,1019.957233000081,1019.957233000081,14,D,2024-04-22_16h17.48.705,attentional_competition_task,2022.2.4,144.00133628893158,
positions.xlsx,positions_test.xlsx,positions_test_new.xlsx,stimuli.xlsx,stimuli_new.xlsx,stimuli/Social4.png,stimuli/Social3.png,stimuli/Nonsocial4.png,stimuli/Nonsocial3.png,stimuli/Social2.png,stimuli/Social1.png,stimuli/Nonsocial2.png,stimuli/Nonsocial1.png,,,"(-0.7, -0.5)",cs_neg_ns,"(-0.7, 0.5)",cs_pos_s,"(0.7, -0.5)",cs_pos_ns,"(0.7, 0.5)",cs_neg_s,0,0,0,0,,,,,,,,,,,,,,,,,,,,,0,9,9,13,,,,,,,,,,,,,,,,,,,,,,,,,,,102,loss,,,,,,1027.5263594998978,1027.5263594998978,1027.5263594998978,1027.5263594998978,1,0.3157317000441253,0.315735399723053,1,0.034676999785006046,0.30157649982720613,0,,,0,,,1027.8388422001153,1027.8388422001153,1027.8388422001153,1027.8388422001153,14,D,2024-04-22_16h17.48.705,attentional_competition_task,2022.2.4,144.00133628893158,
positions.xlsx,positions_test.xlsx,positions_test_new.xlsx,stimuli.xlsx,stimuli_new.xlsx,stimuli/Social4.png,stimuli/Social3.png,stimuli/Nonsocial4.png,stimuli/Nonsocial3.png,stimuli/Social2.png,stimuli/Social1.png,stimuli/Nonsocial2.png,stimuli/Nonsocial1.png,,,"(-0.7, -0.5)",cs_neg_ns,"(-0.7, 0.5)",cs_pos_ns,"(0.7, -0.5)",cs_pos_s,"(0.7, 0.5)",cs_neg_s,0,0,0,0,,,,,,,,,,,,,,,,,,,,,0,10,10,16,,,,,,,,,,,,,,,,,,,,,,,,,,,111,reward,,,,,,1036.1648762002587,1036.1648762002587,1036.1648762002587,1036.1648762002587,0,,,1,0.024181900080293417,0.09350789990276098,0,,,0,,,1036.949592700228,1036.949592700228,1036.949592700228,1036.949592700228,14,D,2024-04-22_16h17.48.705,attentional_competition_task,2022.2.4,144.00133628893158,
positions.xlsx,positions_test.xlsx,positions_test_new.xlsx,stimuli.xlsx,stimuli_new.xlsx,stimuli/Social4.png,stimuli/Social3.png,stimuli/Nonsocial4.png,stimuli/Nonsocial3.png,stimuli/Social2.png,stimuli/Social1.png,stimuli/Nonsocial2.png,stimuli/Nonsocial1.png,,,"(-0.7, -0.5)",cs_pos_s,"(-0.7, 0.5)",cs_neg_ns,"(0.7, -0.5)",cs_pos_ns,"(0.7, 0.5)",cs_neg_s,0,0,0,0,,,,,,,,,,,,,,,,,,,,,0,11,11,9,,,,,,,,,,,,,,,,,,,,,,,,,,,120,reward,,,,,,1045.0603915001266,1045.0603915001266,1045.0603915001266,1045.0603915001266,0,,,0,,,0,,,0,,,1045.629795699846,1045.629795699846,1045.629795699846,1045.629795699846,14,D,2024-04-22_16h17.48.705,attentional_competition_task,2022.2.4,144.00133628893158,
positions.xlsx,positions_test.xlsx,positions_test_new.xlsx,stimuli.xlsx,stimuli_new.xlsx,stimuli/Social4.png,stimuli/Social3.png,stimuli/Nonsocial4.png,stimuli/Nonsocial3.png,stimuli/Social2.png,stimuli/Social1.png,stimuli/Nonsocial2.png,stimuli/Nonsocial1.png,,,"(-0.7, -0.5)",cs_pos_s,"(-0.7, 0.5)",cs_neg_s,"(0.7, -0.5)",cs_pos_ns,"(0.7, 0.5)",cs_neg_ns,0,0,0,0,,,,,,,,,,,,,,,,,,,,,0,12,12,7,,,,,,,,,,,,,,,,,,,,,,,,,,,129,reward,,,,,,1053.8239096999168,1053.8239096999168,1053.8239096999168,1053.8239096999168,0,,,0,,,1,0.026121800299733877,0.05878429999575019,0,,,1054.4072211999446,1054.4072211999446,1054.4072211999446,1054.4072211999446,14,D,2024-04-22_16h17.48.705,attentional_competition_task,2022.2.4,144.00133628893158,
positions.xlsx,positions_test.xlsx,positions_test_new.xlsx,stimuli.xlsx,stimuli_new.xlsx,stimuli/Social4.png,stimuli/Social3.png,stimuli/Nonsocial4.png,stimuli/Nonsocial3.png,stimuli/Social2.png,stimuli/Social1.png,stimuli/Nonsocial2.png,stimuli/Nonsocial1.png,,,"(-0.7, -0.5)",cs_neg_ns,"(-0.7, 0.5)",cs_pos_ns,"(0.7, -0.5)",cs_neg_s,"(0.7, 0.5)",cs_pos_s,0,0,0,0,,,,,,,,,,,,,,,,,,,,,0,13,13,17,,,,,,,,,,,,,,,,,,,,,,,,,,,132,reward,,,,,,1062.6499381000176,1062.6499381000176,1062.6499381000176,1062.6499381000176,0,,,1,0.028988800011575222,0.028992699924856424,0,,,0,,,1062.6499381000176,1062.6499381000176,1062.6499381000176,1062.6499381000176,14,D,2024-04-22_16h17.48.705,attentional_competition_task,2022.2.4,144.00133628893158,
positions.xlsx,positions_test.xlsx,positions_test_new.xlsx,stimuli.xlsx,stimuli_new.xlsx,stimuli/Social4.png,stimuli/Social3.png,stimuli/Nonsocial4.png,stimuli/Nonsocial3.png,stimuli/Social2.png,stimuli/Social1.png,stimuli/Nonsocial2.png,stimuli/Nonsocial1.png,,,"(-0.7, -0.5)",cs_neg_s,"(-0.7, 0.5)",cs_pos_s,"(0.7, -0.5)",cs_pos_ns,"(0.7, 0.5)",cs_neg_ns,0,0,0,0,,,,,,,,,,,,,,,,,,,,,0,14,14,1,,,,,,,,,,,,,,,,,,,,,,,,,,,141,reward,,,,,,1071.4620870002545,1071.4620870002545,1071.4620870002545,1071.4620870002545,0,,,0,,,1,0.025332499761134386,0.08044529985636473,0,,,1072.045389200095,1072.045389200095,1072.045389200095,1072.045389200095,14,D,2024-04-22_16h17.48.705,attentional_competition_task,2022.2.4,144.00133628893158,
positions.xlsx,positions_test.xlsx,positions_test_new.xlsx,stimuli.xlsx,stimuli_new.xlsx,stimuli/Social4.png,stimuli/Social3.png,stimuli/Nonsocial4.png,stimuli/Nonsocial3.png,stimuli/Social2.png,stimuli/Social1.png,stimuli/Nonsocial2.png,stimuli/Nonsocial1.png,,,"(-0.7, -0.5)",cs_neg_ns,"(-0.7, 0.5)",cs_pos_s,"(0.7, -0.5)",cs_neg_s,"(0.7, 0.5)",cs_pos_ns,0,0,0,0,,,,,,,,,,,,,,,,,,,,,0,15,15,12,,,,,,,,,,,,,,,,,,,,,,,,,,,150,reward,,,,,,1079.5797959002666,1079.5797959002666,1079.5797959002666,1079.5797959002666,0,,,0,,,0,,,0,,,1080.2047892999835,1080.2047892999835,1080.2047892999835,1080.2047892999835,14,D,2024-04-22_16h17.48.705,attentional_competition_task,2022.2.4,144.00133628893158,
positions.xlsx,positions_test.xlsx,positions_test_new.xlsx,stimuli.xlsx,stimuli_new.xlsx,stimuli/Social4.png,stimuli/Social3.png,stimuli/Nonsocial4.png,stimuli/Nonsocial3.png,stimuli/Social2.png,stimuli/Social1.png,stimuli/Nonsocial2.png,stimuli/Nonsocial1.png,,,"(-0.7, -0.5)",cs_neg_s,"(-0.7, 0.5)",cs_neg_ns,"(0.7, -0.5)",cs_pos_ns,"(0.7, 0.5)",cs_pos_s,0,0,0,0,,,,,,,,,,,,,,,,,,,,,0,16,16,3,,,,,,,,,,,,,,,,,,,,,,,,,,,156,reward,,,,,,1087.8572498001158,1087.8572498001158,1087.8572498001158,1087.8572498001158,0,,,0,,,0,,,1,0.031043600291013718,0.03104740008711815,1087.8572498001158,1087.8572498001158,1087.8572498001158,1087.8572498001158,14,D,2024-04-22_16h17.48.705,attentional_competition_task,2022.2.4,144.00133628893158,
positions.xlsx,positions_test.xlsx,positions_test_new.xlsx,stimuli.xlsx,stimuli_new.xlsx,stimuli/Social4.png,stimuli/Social3.png,stimuli/Nonsocial4.png,stimuli/Nonsocial3.png,stimuli/Social2.png,stimuli/Social1.png,stimuli/Nonsocial2.png,stimuli/Nonsocial1.png,,,"(-0.7, -0.5)",cs_pos_s,"(-0.7, 0.5)",cs_neg_ns,"(0.7, -0.5)",cs_neg_s,"(0.7, 0.5)",cs_pos_ns,0,0,0,0,,,,,,,,,,,,,,,,,,,,,0,17,17,8,,,,,,,,,,,,,,,,,,,,,,,,,,,165,reward,,,,,,1096.3569395001978,1096.3569395001978,1096.3569395001978,1096.3569395001978,0,,,0,,,0,,,1,0.030121800024062395,0.10827460000291467,1096.9680139999837,1096.9680139999837,1096.9680139999837,1096.9680139999837,14,D,2024-04-22_16h17.48.705,attentional_competition_task,2022.2.4,144.00133628893158,
positions.xlsx,positions_test.xlsx,positions_test_new.xlsx,stimuli.xlsx,stimuli_new.xlsx,stimuli/Social4.png,stimuli/Social3.png,stimuli/Nonsocial4.png,stimuli/Nonsocial3.png,stimuli/Social2.png,stimuli/Social1.png,stimuli/Nonsocial2.png,stimuli/Nonsocial1.png,,,"(-0.7, -0.5)",cs_neg_s,"(-0.7, 0.5)",cs_pos_s,"(0.7, -0.5)",cs_neg_ns,"(0.7, 0.5)",cs_pos_ns,0,0,0,0,,,,,,,,,,,,,,,,,,,,,0,18,18,0,,,,,,,,,,,,,,,,,,,,,,,,,,,174,reward,,,,,,1104.4121460001916,1104.4121460001916,1104.4121460001916,1104.4121460001916,0,,,0,,,0,,,1,0.026417999994009733,0.09450819995254278,1105.030161799863,1105.030161799863,1105.030161799863,1105.030161799863,14,D,2024-04-22_16h17.48.705,attentional_competition_task,2022.2.4,144.00133628893158,
positions.xlsx,positions_test.xlsx,positions_test_new.xlsx,stimuli.xlsx,stimuli_new.xlsx,stimuli/Social4.png,stimuli/Social3.png,stimuli/Nonsocial4.png,stimuli/Nonsocial3.png,stimuli/Social2.png,stimuli/Social1.png,stimuli/Nonsocial2.png,stimuli/Nonsocial1.png,,,"(-0.7, -0.5)",cs_neg_s,"(-0.7, 0.5)",cs_pos_ns,"(0.7, -0.5)",cs_neg_ns,"(0.7, 0.5)",cs_pos_s,0,0,0,0,,,,,,,,,,,,,,,,,,,,,0,19,19,5,,,,,,,,,,,,,,,,,,,,,,,,,,,183,reward,,,,,,1112.3979254998267,1112.3979254998267,1112.3979254998267,1112.3979254998267,0,,,0,,,0,,,1,0.023933399934321642,0.14275569980964065,1113.043796800077,1113.043796800077,1113.043796800077,1113.043796800077,14,D,2024-04-22_16h17.48.705,attentional_competition_task,2022.2.4,144.00133628893158,
positions.xlsx,positions_test.xlsx,positions_test_new.xlsx,stimuli.xlsx,stimuli_new.xlsx,stimuli/Social4.png,stimuli/Social3.png,stimuli/Nonsocial4.png,stimuli/Nonsocial3.png,stimuli/Social2.png,stimuli/Social1.png,stimuli/Nonsocial2.png,stimuli/Nonsocial1.png,,,"(-0.7, -0.5)",cs_pos_s,"(-0.7, 0.5)",cs_pos_ns,"(0.7, -0.5)",cs_neg_s,"(0.7, 0.5)",cs_neg_ns,0,0,0,0,,,,,,,,,,,,,,,,,,,,,0,20,20,10,,,,,,,,,,,,,,,,,,,,,,,,,,,192,reward,,,,,,1121.147605100181,1121.147605100181,1121.147605100181,1121.147605100181,0,,,0,,,0,,,0,,,1121.9114928999916,1121.9114928999916,1121.9114928999916,1121.9114928999916,14,D,2024-04-22_16h17.48.705,attentional_competition_task,2022.2.4,144.00133628893158,
positions.xlsx,positions_test.xlsx,positions_test_new.xlsx,stimuli.xlsx,stimuli_new.xlsx,stimuli/Social4.png,stimuli/Social3.png,stimuli/Nonsocial4.png,stimuli/Nonsocial3.png,stimuli/Social2.png,stimuli/Social1.png,stimuli/Nonsocial2.png,stimuli/Nonsocial1.png,,,"(-0.7, -0.5)",cs_pos_ns,"(-0.7, 0.5)",cs_pos_s,"(0.7, -0.5)",cs_neg_ns,"(0.7, 0.5)",cs_neg_s,0,0,0,0,,,,,,,,,,,,,,,,,,,,,0,21,21,18,,,,,,,,,,,,,,,,,,,,,,,,,,,201,reward,,,,,,1129.2236414002255,1129.2236414002255,1129.2236414002255,1129.2236414002255,0,,,0,,,0,,,0,,,1129.987509700004,1129.987509700004,1129.987509700004,1129.987509700004,14,D,2024-04-22_16h17.48.705,attentional_competition_task,2022.2.4,144.00133628893158,
positions.xlsx,positions_test.xlsx,positions_test_new.xlsx,stimuli.xlsx,stimuli_new.xlsx,stimuli/Social4.png,stimuli/Social3.png,stimuli/Nonsocial4.png,stimuli/Nonsocial3.png,stimuli/Social2.png,stimuli/Social1.png,stimuli/Nonsocial2.png,stimuli/Nonsocial1.png,,,"(-0.7, -0.5)",cs_neg_ns,"(-0.7, 0.5)",cs_neg_s,"(0.7, -0.5)",cs_pos_s,"(0.7, 0.5)",cs_pos_ns,0,0,0,0,,,,,,,,,,,,,,,,,,,,,0,22,22,14,,,,,,,,,,,,,,,,,,,,,,,,,,,207,reward,,,,,,1138.2371662999503,1138.2371662999503,1138.2371662999503,1138.2371662999503,0,,,0,,,0,,,1,0.02899309992790222,0.028996599838137627,1138.2371662999503,1138.2371662999503,1138.2371662999503,1138.2371662999503,14,D,2024-04-22_16h17.48.705,attentional_competition_task,2022.2.4,144.00133628893158,
positions.xlsx,positions_test.xlsx,positions_test_new.xlsx,stimuli.xlsx,stimuli_new.xlsx,stimuli/Social4.png,stimuli/Social3.png,stimuli/Nonsocial4.png,stimuli/Nonsocial3.png,stimuli/Social2.png,stimuli/Social1.png,stimuli/Nonsocial2.png,stimuli/Nonsocial1.png,,,"(-0.7, -0.5)",cs_neg_ns,"(-0.7, 0.5)",cs_neg_s,"(0.7, -0.5)",cs_pos_ns,"(0.7, 0.5)",cs_pos_s,0,0,0,0,,,,,,,,,,,,,,,,,,,,,0,23,23,15,,,,,,,,,,,,,,,,,,,,,,,,,,,216,reward,,,,,,1147.4659581999294,1147.4659581999294,1147.4659581999294,1147.4659581999294,0,,,0,,,1,0.02558799972757697,0.045939499977976084,0,,,1148.0145588000305,1148.0145588000305,1148.0145588000305,1148.0145588000305,14,D,2024-04-22_16h17.48.705,attentional_competition_task,2022.2.4,144.00133628893158,
positions.xlsx,positions_test.xlsx,positions_test_new.xlsx,stimuli.xlsx,stimuli_new.xlsx,stimuli/Social4.png,stimuli/Social3.png,stimuli/Nonsocial4.png,stimuli/Nonsocial3.png,stimuli/Social2.png,stimuli/Social1.png,stimuli/Nonsocial2.png,stimuli/Nonsocial1.png,,,"(-0.7, -0.5)",cs_neg_ns,"(-0.7, 0.5)",cs_pos_ns,"(0.7, -0.5)",cs_neg_s,"(0.7, 0.5)",cs_pos_s,0,0,0,0,,,,,,,,,,,,,,,,,,,,,1,0,24,17,,,,,,,,,,,,,,,,,,,,,,,,,,,225,reward,,,,,,1155.5767115000635,1155.5767115000635,1155.5767115000635,1155.5767115000635,0,,,0,,,0,,,0,,,1156.514216999989,1156.514216999989,1156.514216999989,1156.514216999989,14,D,2024-04-22_16h17.48.705,attentional_competition_task,2022.2.4,144.00133628893158,
positions.xlsx,positions_test.xlsx,positions_test_new.xlsx,stimuli.xlsx,stimuli_new.xlsx,stimuli/Social4.png,stimuli/Social3.png,stimuli/Nonsocial4.png,stimuli/Nonsocial3.png,stimuli/Social2.png,stimuli/Social1.png,stimuli/Nonsocial2.png,stimuli/Nonsocial1.png,,,"(-0.7, -0.5)",cs_pos_ns,"(-0.7, 0.5)",cs_neg_s,"(0.7, -0.5)",cs_pos_s,"(0.7, 0.5)",cs_neg_ns,0,0,0,0,,,,,,,,,,,,,,,,,,,,,1,1,25,22,,,,,,,,,,,,,,,,,,,,,,,,,,,225,loss,,,,,,1162.8820096999407,1162.8820096999407,1162.8820096999407,1162.8820096999407,0,,,0,,,1,0.03163770027458668,0.45416870014742017,1,0.467732900287956,0.467737200204283,1163.3473415002227,1163.3473415002227,1163.3473415002227,1163.3473415002227,14,D,2024-04-22_16h17.48.705,attentional_competition_task,2022.2.4,144.00133628893158,
positions.xlsx,positions_test.xlsx,positions_test_new.xlsx,stimuli.xlsx,stimuli_new.xlsx,stimuli/Social4.png,stimuli/Social3.png,stimuli/Nonsocial4.png,stimuli/Nonsocial3.png,stimuli/Social2.png,stimuli/Social1.png,stimuli/Nonsocial2.png,stimuli/Nonsocial1.png,,,"(-0.7, -0.5)",cs_pos_ns,"(-0.7, 0.5)",cs_neg_ns,"(0.7, -0.5)",cs_pos_s,"(0.7, 0.5)",cs_neg_s,0,0,0,0,,,,,,,,,,,,,,,,,,,,,1,2,26,20,,,,,,,,,,,,,,,,,,,,,,,,,,,231,reward,,,,,,1171.7427872000262,1171.7427872000262,1171.7427872000262,1171.7427872000262,0,,,0,,,1,0.028521299827843904,0.22572419978678226,0,,,1172.0413764999248,1172.0413764999248,1172.0413764999248,1172.0413764999248,14,D,2024-04-22_16h17.48.705,attentional_competition_task,2022.2.4,144.00133628893158,
positions.xlsx,positions_test.xlsx,positions_test_new.xlsx,stimuli.xlsx,stimuli_new.xlsx,stimuli/Social4.png,stimuli/Social3.png,stimuli/Nonsocial4.png,stimuli/Nonsocial3.png,stimuli/Social2.png,stimuli/Social1.png,stimuli/Nonsocial2.png,stimuli/Nonsocial1.png,,,"(-0.7, -0.5)",cs_pos_s,"(-0.7, 0.5)",cs_neg_ns,"(0.7, -0.5)",cs_neg_s,"(0.7, 0.5)",cs_pos_ns,0,0,0,0,,,,,,,,,,,,,,,,,,,,,1,3,27,8,,,,,,,,,,,,,,,,,,,,,,,,,,,237,reward,,,,,,1180.5202112002298,1180.5202112002298,1180.5202112002298,1180.5202112002298,1,0.05794089986011386,0.05794479977339506,0,,,0,,,0,,,1180.5757402000017,1180.5757402000017,1180.5757402000017,1180.5757402000017,14,D,2024-04-22_16h17.48.705,attentional_competition_task,2022.2.4,144.00133628893158,
positions.xlsx,positions_test.xlsx,positions_test_new.xlsx,stimuli.xlsx,stimuli_new.xlsx,stimuli/Social4.png,stimuli/Social3.png,stimuli/Nonsocial4.png,stimuli/Nonsocial3.png,stimuli/Social2.png,stimuli/Social1.png,stimuli/Nonsocial2.png,stimuli/Nonsocial1.png,,,"(-0.7, -0.5)",cs_neg_ns,"(-0.7, 0.5)",cs_pos_s,"(0.7, -0.5)",cs_pos_ns,"(0.7, 0.5)",cs_neg_s,0,0,0,0,,,,,,,,,,,,,,,,,,,,,1,4,28,13,,,,,,,,,,,,,,,,,,,,,,,,,,,246,reward,,,,,,1188.8740218998864,1188.8740218998864,1188.8740218998864,1188.8740218998864,0,,,0,,,1,0.029580799862742424,0.02958450000733137,0,,,1188.8740218998864,1188.8740218998864,1188.8740218998864,1188.8740218998864,14,D,2024-04-22_16h17.48.705,attentional_competition_task,2022.2.4,144.00133628893158,
positions.xlsx,positions_test.xlsx,positions_test_new.xlsx,stimuli.xlsx,stimuli_new.xlsx,stimuli/Social4.png,stimuli/Social3.png,stimuli/Nonsocial4.png,stimuli/Nonsocial3.png,stimuli/Social2.png,stimuli/Social1.png,stimuli/Nonsocial2.png,stimuli/Nonsocial1.png,,,"(-0.7, -0.5)",cs_pos_ns,"(-0.7, 0.5)",cs_pos_s,"(0.7, -0.5)",cs_neg_ns,"(0.7, 0.5)",cs_neg_s,0,0,0,0,,,,,,,,,,,,,,,,,,,,,1,5,29,18,,,,,,,,,,,,,,,,,,,,,,,,,,,255,reward,,,,,,1196.5473206001334,1196.5473206001334,1196.5473206001334,1196.5473206001334,1,0.02343959966674447,0.2672969000414014,0,,,0,,,0,,,1197.3250748999417,1197.3250748999417,1197.3250748999417,1197.3250748999417,14,D,2024-04-22_16h17.48.705,attentional_competition_task,2022.2.4,144.00133628893158,
positions.xlsx,positions_test.xlsx,positions_test_new.xlsx,stimuli.xlsx,stimuli_new.xlsx,stimuli/Social4.png,stimuli/Social3.png,stimuli/Nonsocial4.png,stimuli/Nonsocial3.png,stimuli/Social2.png,stimuli/Social1.png,stimuli/Nonsocial2.png,stimuli/Nonsocial1.png,,,"(-0.7, -0.5)",cs_pos_s,"(-0.7, 0.5)",cs_neg_ns,"(0.7, -0.5)",cs_pos_ns,"(0.7, 0.5)",cs_neg_s,0,0,0,0,,,,,,,,,,,,,,,,,,,,,1,6,30,9,,,,,,,,,,,,,,,,,,,,,,,,,,,261,reward,,,,,,1205.6163989002816,1205.6163989002816,1205.6163989002816,1205.6163989002816,1,0.2866595000959933,0.2866634000092745,0,,,1,0.029447400011122227,0.2181076998822391,0,,,1205.9080635001883,1205.9080635001883,1205.9080635001883,1205.9080635001883,14,D,2024-04-22_16h17.48.705,attentional_competition_task,2022.2.4,144.00133628893158,
positions.xlsx,positions_test.xlsx,positions_test_new.xlsx,stimuli.xlsx,stimuli_new.xlsx,stimuli/Social4.png,stimuli/Social3.png,stimuli/Nonsocial4.png,stimuli/Nonsocial3.png,stimuli/Social2.png,stimuli/Social1.png,stimuli/Nonsocial2.png,stimuli/Nonsocial1.png,,,"(-0.7, -0.5)",cs_neg_s,"(-0.7, 0.5)",cs_pos_s,"(0.7, -0.5)",cs_neg_ns,"(0.7, 0.5)",cs_pos_ns,0,0,0,0,,,,,,,,,,,,,,,,,,,,,1,7,31,0,,,,,,,,,,,,,,,,,,,,,,,,,,,270,reward,,,,,,1214.8035949999467,1214.8035949999467,1214.8035949999467,1214.8035949999467,0,,,0,,,0,,,1,0.026107599958777428,0.026111799757927656,1214.8035949999467,1214.8035949999467,1214.8035949999467,1214.8035949999467,14,D,2024-04-22_16h17.48.705,attentional_competition_task,2022.2.4,144.00133628893158,
positions.xlsx,positions_test.xlsx,positions_test_new.xlsx,stimuli.xlsx,stimuli_new.xlsx,stimuli/Social4.png,stimuli/Social3.png,stimuli/Nonsocial4.png,stimuli/Nonsocial3.png,stimuli/Social2.png,stimuli/Social1.png,stimuli/Nonsocial2.png,stimuli/Nonsocial1.png,,,"(-0.7, -0.5)",cs_neg_ns,"(-0.7, 0.5)",cs_neg_s,"(0.7, -0.5)",cs_pos_s,"(0.7, 0.5)",cs_pos_ns,0,0,0,0,,,,,,,,,,,,,,,,,,,,,1,8,32,14,,,,,,,,,,,,,,,,,,,,,,,,,,,279,reward,,,,,,1221.9421100001782,1221.9421100001782,1221.9421100001782,1221.9421100001782,0,,,0,,,0,,,1,0.029404900036752224,0.2999546998180449,1222.7407261999324,1222.7407261999324,1222.7407261999324,1222.7407261999324,14,D,2024-04-22_16h17.48.705,attentional_competition_task,2022.2.4,144.00133628893158,
positions.xlsx,positions_test.xlsx,positions_test_new.xlsx,stimuli.xlsx,stimuli_new.xlsx,stimuli/Social4.png,stimuli/Social3.png,stimuli/Nonsocial4.png,stimuli/Nonsocial3.png,stimuli/Social2.png,stimuli/Social1.png,stimuli/Nonsocial2.png,stimuli/Nonsocial1.png,,,"(-0.7, -0.5)",cs_pos_s,"(-0.7, 0.5)",cs_pos_ns,"(0.7, -0.5)",cs_neg_s,"(0.7, 0.5)",cs_neg_ns,0,0,0,0,,,,,,,,,,,,,,,,,,,,,1,9,33,10,,,,,,,,,,,,,,,,,,,,,,,,,,,288,reward,,,,,,1231.0251131998375,1231.0251131998375,1231.0251131998375,1231.0251131998375,0,,,1,0.02881869999691844,0.37770589999854565,0,,,0,,,1231.9070266000926,1231.9070266000926,1231.9070266000926,1231.9070266000926,14,D,2024-04-22_16h17.48.705,attentional_competition_task,2022.2.4,144.00133628893158,
positions.xlsx,positions_test.xlsx,positions_test_new.xlsx,stimuli.xlsx,stimuli_new.xlsx,stimuli/Social4.png,stimuli/Social3.png,stimuli/Nonsocial4.png,stimuli/Nonsocial3.png,stimuli/Social2.png,stimuli/Social1.png,stimuli/Nonsocial2.png,stimuli/Nonsocial1.png,,,"(-0.7, -0.5)",cs_neg_s,"(-0.7, 0.5)",cs_pos_s,"(0.7, -0.5)",cs_pos_ns,"(0.7, 0.5)",cs_neg_ns,0,0,0,0,,,,,,,,,,,,,,,,,,,,,1,10,34,1,,,,,,,,,,,,,,,,,,,,,,,,,,,297,reward,,,,,,1239.9970192001201,1239.9970192001201,1239.9970192001201,1239.9970192001201,0,,,0,,,1,0.03089870000258088,0.10702240001410246,0,,,1240.601111699827,1240.601111699827,1240.601111699827,1240.601111699827,14,D,2024-04-22_16h17.48.705,attentional_competition_task,2022.2.4,144.00133628893158,
positions.xlsx,positions_test.xlsx,positions_test_new.xlsx,stimuli.xlsx,stimuli_new.xlsx,stimuli/Social4.png,stimuli/Social3.png,stimuli/Nonsocial4.png,stimuli/Nonsocial3.png,stimuli/Social2.png,stimuli/Social1.png,stimuli/Nonsocial2.png,stimuli/Nonsocial1.png,,,"(-0.7, -0.5)",cs_neg_s,"(-0.7, 0.5)",cs_neg_ns,"(0.7, -0.5)",cs_pos_s,"(0.7, 0.5)",cs_pos_ns,0,0,0,0,,,,,,,,,,,,,,,,,,,,,1,11,35,2,,,,,,,,,,,,,,,,,,,,,,,,,,,300,loss,,,,,,1248.691060199868,1248.691060199868,1248.691060199868,1248.691060199868,0,,,1,0.1760630002245307,0.17606669990345836,0,,,1,0.03049040026962757,0.10776690021157265,1248.8716078000143,1248.8716078000143,1248.8716078000143,1248.8716078000143,14,D,2024-04-22_16h17.48.705,attentional_competition_task,2022.2.4,144.00133628893158,
positions.xlsx,positions_test.xlsx,positions_test_new.xlsx,stimuli.xlsx,stimuli_new.xlsx,stimuli/Social4.png,stimuli/Social3.png,stimuli/Nonsocial4.png,stimuli/Nonsocial3.png,stimuli/Social2.png,stimuli/Social1.png,stimuli/Nonsocial2.png,stimuli/Nonsocial1.png,,,"(-0.7, -0.5)",cs_pos_s,"(-0.7, 0.5)",cs_neg_s,"(0.7, -0.5)",cs_pos_ns,"(0.7, 0.5)",cs_neg_ns,0,0,0,0,,,,,,,,,,,,,,,,,,,,,1,12,36,7,,,,,,,,,,,,,,,,,,,,,,,,,,,306,reward,,,,,,1256.9060022998601,1256.9060022998601,1256.9060022998601,1256.9060022998601,1,0.030191500205546618,0.16900230012834072,0,,,1,0.22473090002313256,0.2247346001677215,0,,,1257.1351959002204,1257.1351959002204,1257.1351959002204,1257.1351959002204,14,D,2024-04-22_16h17.48.705,attentional_competition_task,2022.2.4,144.00133628893158,
positions.xlsx,positions_test.xlsx,positions_test_new.xlsx,stimuli.xlsx,stimuli_new.xlsx,stimuli/Social4.png,stimuli/Social3.png,stimuli/Nonsocial4.png,stimuli/Nonsocial3.png,stimuli/Social2.png,stimuli/Social1.png,stimuli/Nonsocial2.png,stimuli/Nonsocial1.png,,,"(-0.7, -0.5)",cs_neg_s,"(-0.7, 0.5)",cs_pos_ns,"(0.7, -0.5)",cs_pos_s,"(0.7, 0.5)",cs_neg_ns,0,0,0,0,,,,,,,,,,,,,,,,,,,,,1,13,37,4,,,,,,,,,,,,,,,,,,,,,,,,,,,315,reward,,,,,,1266.1209447998554,1266.1209447998554,1266.1209447998554,1266.1209447998554,0,,,1,0.02261250000447035,0.2260855999775231,0,,,0,,,1266.8570007998496,1266.8570007998496,1266.8570007998496,1266.8570007998496,14,D,2024-04-22_16h17.48.705,attentional_competition_task,2022.2.4,144.00133628893158,
positions.xlsx,positions_test.xlsx,positions_test_new.xlsx,stimuli.xlsx,stimuli_new.xlsx,stimuli/Social4.png,stimuli/Social3.png,stimuli/Nonsocial4.png,stimuli/Nonsocial3.png,stimuli/Social2.png,stimuli/Social1.png,stimuli/Nonsocial2.png,stimuli/Nonsocial1.png,,,"(-0.7, -0.5)",cs_neg_s,"(-0.7, 0.5)",cs_pos_ns,"(0.7, -0.5)",cs_neg_ns,"(0.7, 0.5)",cs_pos_s,0,0,0,0,,,,,,,,,,,,,,,,,,,,,1,14,38,5,,,,,,,,,,,,,,,,,,,,,,,,,,,321,reward,,,,,,1273.9331082999706,1273.9331082999706,1273.9331082999706,1273.9331082999706,0,,,1,0.44068789994344115,0.44727429980412126,0,,,1,0.03039690013974905,0.37133120000362396,1274.3775569000281,1274.3775569000281,1274.3775569000281,1274.3775569000281,14,D,2024-04-22_16h17.48.705,attentional_competition_task,2022.2.4,144.00133628893158,
positions.xlsx,positions_test.xlsx,positions_test_new.xlsx,stimuli.xlsx,stimuli_new.xlsx,stimuli/Social4.png,stimuli/Social3.png,stimuli/Nonsocial4.png,stimuli/Nonsocial3.png,stimuli/Social2.png,stimuli/Social1.png,stimuli/Nonsocial2.png,stimuli/Nonsocial1.png,,,"(-0.7, -0.5)",cs_pos_ns,"(-0.7, 0.5)",cs_neg_ns,"(0.7, -0.5)",cs_neg_s,"(0.7, 0.5)",cs_pos_s,0,0,0,0,,,,,,,,,,,,,,,,,,,,,1,15,39,21,,,,,,,,,,,,,,,,,,,,,,,,,,,330,reward,,,,,,1282.995188199915,1282.995188199915,1282.995188199915,1282.995188199915,1,0.022464599926024675,0.3224450000561774,0,,,0,,,0,,,1283.8285731999204,1283.8285731999204,1283.8285731999204,1283.8285731999204,14,D,2024-04-22_16h17.48.705,attentional_competition_task,2022.2.4,144.00133628893158,
positions.xlsx,positions_test.xlsx,positions_test_new.xlsx,stimuli.xlsx,stimuli_new.xlsx,stimuli/Social4.png,stimuli/Social3.png,stimuli/Nonsocial4.png,stimuli/Nonsocial3.png,stimuli/Social2.png,stimuli/Social1.png,stimuli/Nonsocial2.png,stimuli/Nonsocial1.png,,,"(-0.7, -0.5)",cs_pos_s,"(-0.7, 0.5)",cs_neg_s,"(0.7, -0.5)",cs_neg_ns,"(0.7, 0.5)",cs_pos_ns,0,0,0,0,,,,,,,,,,,,,,,,,,,,,1,16,40,6,,,,,,,,,,,,,,,,,,,,,,,,,,,336,reward,,,,,,1291.6893827002496,1291.6893827002496,1291.6893827002496,1291.6893827002496,1,0.028372000437229872,0.3143406002782285,0,,,0,,,1,0.3846200001426041,0.3846236001700163,1292.078287200071,1292.078287200071,1292.078287200071,1292.078287200071,14,D,2024-04-22_16h17.48.705,attentional_competition_task,2022.2.4,144.00133628893158,
positions.xlsx,positions_test.xlsx,positions_test_new.xlsx,stimuli.xlsx,stimuli_new.xlsx,stimuli/Social4.png,stimuli/Social3.png,stimuli/Nonsocial4.png,stimuli/Nonsocial3.png,stimuli/Social2.png,stimuli/Social1.png,stimuli/Nonsocial2.png,stimuli/Nonsocial1.png,,,"(-0.7, -0.5)",cs_pos_ns,"(-0.7, 0.5)",cs_pos_s,"(0.7, -0.5)",cs_neg_s,"(0.7, 0.5)",cs_neg_ns,0,0,0,0,,,,,,,,,,,,,,,,,,,,,1,17,41,19,,,,,,,,,,,,,,,,,,,,,,,,,,,342,reward,,,,,,1300.2306389999576,1300.2306389999576,1300.2306389999576,1300.2306389999576,1,0.03001350024715066,0.030017200391739607,0,,,0,,,0,,,1300.2306389999576,1300.2306389999576,1300.2306389999576,1300.2306389999576,14,D,2024-04-22_16h17.48.705,attentional_competition_task,2022.2.4,144.00133628893158,
positions.xlsx,positions_test.xlsx,positions_test_new.xlsx,stimuli.xlsx,stimuli_new.xlsx,stimuli/Social4.png,stimuli/Social3.png,stimuli/Nonsocial4.png,stimuli/Nonsocial3.png,stimuli/Social2.png,stimuli/Social1.png,stimuli/Nonsocial2.png,stimuli/Nonsocial1.png,,,"(-0.7, -0.5)",cs_neg_ns,"(-0.7, 0.5)",cs_pos_ns,"(0.7, -0.5)",cs_pos_s,"(0.7, 0.5)",cs_neg_s,0,0,0,0,,,,,,,,,,,,,,,,,,,,,1,18,42,16,,,,,,,,,,,,,,,,,,,,,,,,,,,351,reward,,,,,,1309.6400624001399,1309.6400624001399,1309.6400624001399,1309.6400624001399,0,,,1,0.022857099771499634,0.05259570013731718,0,,,0,,,1310.1955804000609,1310.1955804000609,1310.1955804000609,1310.1955804000609,14,D,2024-04-22_16h17.48.705,attentional_competition_task,2022.2.4,144.00133628893158,
positions.xlsx,positions_test.xlsx,positions_test_new.xlsx,stimuli.xlsx,stimuli_new.xlsx,stimuli/Social4.png,stimuli/Social3.png,stimuli/Nonsocial4.png,stimuli/Nonsocial3.png,stimuli/Social2.png,stimuli/Social1.png,stimuli/Nonsocial2.png,stimuli/Nonsocial1.png,,,"(-0.7, -0.5)",cs_pos_ns,"(-0.7, 0.5)",cs_neg_s,"(0.7, -0.5)",cs_neg_ns,"(0.7, 0.5)",cs_pos_s,0,0,0,0,,,,,,,,,,,,,,,,,,,,,1,19,43,23,,,,,,,,,,,,,,,,,,,,,,,,,,,360,reward,,,,,,1318.7299378002062,1318.7299378002062,1318.7299378002062,1318.7299378002062,1,0.028826500289142132,0.050825499929487705,0,,,0,,,0,,,1319.2854627999477,1319.2854627999477,1319.2854627999477,1319.2854627999477,14,D,2024-04-22_16h17.48.705,attentional_competition_task,2022.2.4,144.00133628893158,
positions.xlsx,positions_test.xlsx,positions_test_new.xlsx,stimuli.xlsx,stimuli_new.xlsx,stimuli/Social4.png,stimuli/Social3.png,stimuli/Nonsocial4.png,stimuli/Nonsocial3.png,stimuli/Social2.png,stimuli/Social1.png,stimuli/Nonsocial2.png,stimuli/Nonsocial1.png,,,"(-0.7, -0.5)",cs_pos_s,"(-0.7, 0.5)",cs_pos_ns,"(0.7, -0.5)",cs_neg_ns,"(0.7, 0.5)",cs_neg_s,0,0,0,0,,,,,,,,,,,,,,,,,,,,,1,20,44,11,,,,,,,,,,,,,,,,,,,,,,,,,,,360,reward,,,,,,1326.5421465998515,1326.5421465998515,1326.5421465998515,1326.5421465998515,1,0.7249444001354277,0.7249611001461744,0,,,0,,,0,,,1327.2643082002178,1327.2643082002178,1327.2643082002178,1327.2643082002178,14,D,2024-04-22_16h17.48.705,attentional_competition_task,2022.2.4,144.00133628893158,
positions.xlsx,positions_test.xlsx,positions_test_new.xlsx,stimuli.xlsx,stimuli_new.xlsx,stimuli/Social4.png,stimuli/Social3.png,stimuli/Nonsocial4.png,stimuli/Nonsocial3.png,stimuli/Social2.png,stimuli/Social1.png,stimuli/Nonsocial2.png,stimuli/Nonsocial1.png,,,"(-0.7, -0.5)",cs_neg_ns,"(-0.7, 0.5)",cs_neg_s,"(0.7, -0.5)",cs_pos_ns,"(0.7, 0.5)",cs_pos_s,0,0,0,0,,,,,,,,,,,,,,,,,,,,,1,21,45,15,,,,,,,,,,,,,,,,,,,,,,,,,,,369,reward,,,,,,1335.7362236999907,1335.7362236999907,1335.7362236999907,1335.7362236999907,0,,,0,,,0,,,0,,,1336.58338249987,1336.58338249987,1336.58338249987,1336.58338249987,14,D,2024-04-22_16h17.48.705,attentional_competition_task,2022.2.4,144.00133628893158,
positions.xlsx,positions_test.xlsx,positions_test_new.xlsx,stimuli.xlsx,stimuli_new.xlsx,stimuli/Social4.png,stimuli/Social3.png,stimuli/Nonsocial4.png,stimuli/Nonsocial3.png,stimuli/Social2.png,stimuli/Social1.png,stimuli/Nonsocial2.png,stimuli/Nonsocial1.png,,,"(-0.7, -0.5)",cs_neg_ns,"(-0.7, 0.5)",cs_pos_s,"(0.7, -0.5)",cs_neg_s,"(0.7, 0.5)",cs_pos_ns,0,0,0,0,,,,,,,,,,,,,,,,,,,,,1,22,46,12,,,,,,,,,,,,,,,,,,,,,,,,,,,378,reward,,,,,,1344.6524753998965,1344.6524753998965,1344.6524753998965,1344.6524753998965,0,,,0,,,0,,,1,0.029957400169223547,0.029961399734020233,1344.6524753998965,1344.6524753998965,1344.6524753998965,1344.6524753998965,14,D,2024-04-22_16h17.48.705,attentional_competition_task,2022.2.4,144.00133628893158,
positions.xlsx,positions_test.xlsx,positions_test_new.xlsx,stimuli.xlsx,stimuli_new.xlsx,stimuli/Social4.png,stimuli/Social3.png,stimuli/Nonsocial4.png,stimuli/Nonsocial3.png,stimuli/Social2.png,stimuli/Social1.png,stimuli/Nonsocial2.png,stimuli/Nonsocial1.png,,,"(-0.7, -0.5)",cs_neg_s,"(-0.7, 0.5)",cs_neg_ns,"(0.7, -0.5)",cs_pos_ns,"(0.7, 0.5)",cs_pos_s,0,0,0,0,,,,,,,,,,,,,,,,,,,,,1,23,47,3,,,,,,,,,,,,,,,,,,,,,,,,,,,387,reward,,,,,,1352.235502799973,1352.235502799973,1352.235502799973,1352.235502799973,0,,,0,,,0,,,0,,,1352.9508048002608,1352.9508048002608,1352.9508048002608,1352.9508048002608,14,D,2024-04-22_16h17.48.705,attentional_competition_task,2022.2.4,144.00133628893158,
positions.xlsx,positions_test.xlsx,positions_test_new.xlsx,stimuli.xlsx,stimuli_new.xlsx,stimuli/Social4.png,stimuli/Social3.png,stimuli/Nonsocial4.png,stimuli/Nonsocial3.png,stimuli/Social2.png,stimuli/Social1.png,stimuli/Nonsocial2.png,stimuli/Nonsocial1.png,,,"(-0.7, -0.5)",cs_pos_s,"(-0.7, 0.5)",cs_neg_ns,"(0.7, -0.5)",cs_neg_s_new,"(0.7, 0.5)",cs_pos_ns,0,0,0,0,,,,,,,,,,,,,,,,,,,,,,,,,,,,,0,0,0,13,0,0,0,0,,,,,,,,,,,,,,,390,reward,,,,,,1358.8810864002444,1358.8810864002444,1358.8810864002444,1358.8810864002444,1,1.2871201997622848,1.2945698997937143,0,,,0,,,0,,,1360.1796789998189,1360.1796789998189,1360.1796789998189,1360.1796789998189,14,D,2024-04-22_16h17.48.705,attentional_competition_task,2022.2.4,144.00133628893158,
positions.xlsx,positions_test.xlsx,positions_test_new.xlsx,stimuli.xlsx,stimuli_new.xlsx,stimuli/Social4.png,stimuli/Social3.png,stimuli/Nonsocial4.png,stimuli/Nonsocial3.png,stimuli/Social2.png,stimuli/Social1.png,stimuli/Nonsocial2.png,stimuli/Nonsocial1.png,,,"(-0.7, -0.5)",cs_pos_s,"(-0.7, 0.5)",cs_neg_ns,"(0.7, -0.5)",cs_neg_s_new,"(0.7, 0.5)",cs_pos_ns,0,0,0,0,,,,,,,,,,,,,,,,,,,,,,,,,,,,,0,0,0,13,1,0,1,0,,,,,,,,,,,,,,,393,reward,,,,,,1360.707405900117,1360.707405900117,1360.707405900117,1360.707405900117,0,,,0,,,0,,,1,0.028264100197702646,0.02826800011098385,1360.707405900117,1360.707405900117,1360.707405900117,1360.707405900117,14,D,2024-04-22_16h17.48.705,attentional_competition_task,2022.2.4,144.00133628893158,
positions.xlsx,positions_test.xlsx,positions_test_new.xlsx,stimuli.xlsx,stimuli_new.xlsx,stimuli/Social4.png,stimuli/Social3.png,stimuli/Nonsocial4.png,stimuli/Nonsocial3.png,stimuli/Social2.png,stimuli/Social1.png,stimuli/Nonsocial2.png,stimuli/Nonsocial1.png,,,"(-0.7, -0.5)",cs_pos_s,"(-0.7, 0.5)",cs_neg_ns,"(0.7, -0.5)",cs_neg_s_new,"(0.7, 0.5)",cs_pos_ns,0,0,0,0,,,,,,,,,,,,,,,,,,,,,,,,,,,,,0,0,0,13,,,,,,,,,,,,,,,,,,,,,,,,,,,,,,,,,,,,,,,,,,,,,,14,D,2024-04-22_16h17.48.705,attentional_competition_task,2022.2.4,144.00133628893158,
positions.xlsx,positions_test.xlsx,positions_test_new.xlsx,stimuli.xlsx,stimuli_new.xlsx,stimuli/Social4.png,stimuli/Social3.png,stimuli/Nonsocial4.png,stimuli/Nonsocial3.png,stimuli/Social2.png,stimuli/Social1.png,stimuli/Nonsocial2.png,stimuli/Nonsocial1.png,,,"(-0.7, -0.5)",cs_neg_ns,"(-0.7, 0.5)",cs_pos_s_new,"(0.7, -0.5)",cs_neg_s,"(0.7, 0.5)",cs_pos_ns,0,0,0,0,,,,,,,,,,,,,,,,,,,,,,,,,,,,,0,1,1,33,0,0,0,0,,,,,,,,,,,,,,,396,reward,,,,,,1367.880729699973,1367.880729699973,1367.880729699973,1367.880729699973,0,,,1,0.8424853002652526,0.842488800175488,0,,,0,,,1368.727932000067,1368.727932000067,1368.727932000067,1368.727932000067,14,D,2024-04-22_16h17.48.705,attentional_competition_task,2022.2.4,144.00133628893158,
positions.xlsx,positions_test.xlsx,positions_test_new.xlsx,stimuli.xlsx,stimuli_new.xlsx,stimuli/Social4.png,stimuli/Social3.png,stimuli/Nonsocial4.png,stimuli/Nonsocial3.png,stimuli/Social2.png,stimuli/Social1.png,stimuli/Nonsocial2.png,stimuli/Nonsocial1.png,,,"(-0.7, -0.5)",cs_neg_ns,"(-0.7, 0.5)",cs_pos_s_new,"(0.7, -0.5)",cs_neg_s,"(0.7, 0.5)",cs_pos_ns,0,0,0,0,,,,,,,,,,,,,,,,,,,,,,,,,,,,,0,1,1,33,1,0,1,0,,,,,,,,,,,,,,,399,reward,,,,,,1369.2348461002111,1369.2348461002111,1369.2348461002111,1369.2348461002111,0,,,1,0.028477400075644255,0.1892943000420928,0,,,1,0.2457379000261426,0.2521023000590503,1369.484857799951,1369.484857799951,1369.484857799951,1369.484857799951,14,D,2024-04-22_16h17.48.705,attentional_competition_task,2022.2.4,144.00133628893158,
positions.xlsx,positions_test.xlsx,positions_test_new.xlsx,stimuli.xlsx,stimuli_new.xlsx,stimuli/Social4.png,stimuli/Social3.png,stimuli/Nonsocial4.png,stimuli/Nonsocial3.png,stimuli/Social2.png,stimuli/Social1.png,stimuli/Nonsocial2.png,stimuli/Nonsocial1.png,,,"(-0.7, -0.5)",cs_neg_ns,"(-0.7, 0.5)",cs_pos_s_new,"(0.7, -0.5)",cs_neg_s,"(0.7, 0.5)",cs_pos_ns,0,0,0,0,,,,,,,,,,,,,,,,,,,,,,,,,,,,,0,1,1,33,,,,,,,,,,,,,,,,,,,,,,,,,,,,,,,,,,,,,,,,,,,,,,14,D,2024-04-22_16h17.48.705,attentional_competition_task,2022.2.4,144.00133628893158,
positions.xlsx,positions_test.xlsx,positions_test_new.xlsx,stimuli.xlsx,stimuli_new.xlsx,stimuli/Social4.png,stimuli/Social3.png,stimuli/Nonsocial4.png,stimuli/Nonsocial3.png,stimuli/Social2.png,stimuli/Social1.png,stimuli/Nonsocial2.png,stimuli/Nonsocial1.png,,,"(-0.7, -0.5)",cs_pos_s,"(-0.7, 0.5)",cs_pos_ns,"(0.7, -0.5)",cs_neg_ns_new,"(0.7, 0.5)",cs_neg_s,0,0,0,0,,,,,,,,,,,,,,,,,,,,,,,,,,,,,0,2,2,22,0,0,0,0,,,,,,,,,,,,,,,402,reward,,,,,,1375.7693163999356,1375.7693163999356,1375.7693163999356,1375.7693163999356,1,0.6410628999583423,0.6410668999888003,0,,,0,,,0,,,1376.4081846000627,1376.4081846000627,1376.4081846000627,1376.4081846000627,14,D,2024-04-22_16h17.48.705,attentional_competition_task,2022.2.4,144.00133628893158,
positions.xlsx,positions_test.xlsx,positions_test_new.xlsx,stimuli.xlsx,stimuli_new.xlsx,stimuli/Social4.png,stimuli/Social3.png,stimuli/Nonsocial4.png,stimuli/Nonsocial3.png,stimuli/Social2.png,stimuli/Social1.png,stimuli/Nonsocial2.png,stimuli/Nonsocial1.png,,,"(-0.7, -0.5)",cs_pos_s,"(-0.7, 0.5)",cs_pos_ns,"(0.7, -0.5)",cs_neg_ns_new,"(0.7, 0.5)",cs_neg_s,0,0,0,0,,,,,,,,,,,,,,,,,,,,,,,,,,,,,0,2,2,22,1,0,1,0,,,,,,,,,,,,,,,405,reward,,,,,,1376.94286369998,1376.94286369998,1376.94286369998,1376.94286369998,0,,,1,0.029476500116288662,0.029480400029569864,0,,,0,,,1376.94286369998,1376.94286369998,1376.94286369998,1376.94286369998,14,D,2024-04-22_16h17.48.705,attentional_competition_task,2022.2.4,144.00133628893158,
positions.xlsx,positions_test.xlsx,positions_test_new.xlsx,stimuli.xlsx,stimuli_new.xlsx,stimuli/Social4.png,stimuli/Social3.png,stimuli/Nonsocial4.png,stimuli/Nonsocial3.png,stimuli/Social2.png,stimuli/Social1.png,stimuli/Nonsocial2.png,stimuli/Nonsocial1.png,,,"(-0.7, -0.5)",cs_pos_s,"(-0.7, 0.5)",cs_pos_ns,"(0.7, -0.5)",cs_neg_ns_new,"(0.7, 0.5)",cs_neg_s,0,0,0,0,,,,,,,,,,,,,,,,,,,,,,,,,,,,,0,2,2,22,2,0,2,0,,,,,,,,,,,,,,,402,loss,,,,,,1377.4428202998824,1377.4428202998824,1377.4428202998824,1377.4428202998824,0,,,0,,,1,0.23891500011086464,0.2389182997867465,0,,,1377.6858681999147,1377.6858681999147,1377.6858681999147,1377.6858681999147,14,D,2024-04-22_16h17.48.705,attentional_competition_task,2022.2.4,144.00133628893158,
positions.xlsx,positions_test.xlsx,positions_test_new.xlsx,stimuli.xlsx,stimuli_new.xlsx,stimuli/Social4.png,stimuli/Social3.png,stimuli/Nonsocial4.png,stimuli/Nonsocial3.png,stimuli/Social2.png,stimuli/Social1.png,stimuli/Nonsocial2.png,stimuli/Nonsocial1.png,,,"(-0.7, -0.5)",cs_pos_s,"(-0.7, 0.5)",cs_pos_ns,"(0.7, -0.5)",cs_neg_ns_new,"(0.7, 0.5)",cs_neg_s,0,0,0,0,,,,,,,,,,,,,,,,,,,,,,,,,,,,,0,2,2,22,,,,,,,,,,,,,,,,,,,,,,,,,,,,,,,,,,,,,,,,,,,,,,14,D,2024-04-22_16h17.48.705,attentional_competition_task,2022.2.4,144.00133628893158,
positions.xlsx,positions_test.xlsx,positions_test_new.xlsx,stimuli.xlsx,stimuli_new.xlsx,stimuli/Social4.png,stimuli/Social3.png,stimuli/Nonsocial4.png,stimuli/Nonsocial3.png,stimuli/Social2.png,stimuli/Social1.png,stimuli/Nonsocial2.png,stimuli/Nonsocial1.png,,,"(-0.7, -0.5)",cs_neg_s,"(-0.7, 0.5)",cs_pos_ns,"(0.7, -0.5)",cs_neg_ns_new,"(0.7, 0.5)",cs_pos_s,0,0,0,0,,,,,,,,,,,,,,,,,,,,,,,,,,,,,0,3,3,27,0,0,0,0,,,,,,,,,,,,,,,405,reward,,,,,,1384.775886000134,1384.775886000134,1384.775886000134,1384.775886000134,0,,,0,,,0,,,1,0.7669447003863752,0.7739141001366079,1385.5467118001543,1385.5467118001543,1385.5467118001543,1385.5467118001543,14,D,2024-04-22_16h17.48.705,attentional_competition_task,2022.2.4,144.00133628893158,
positions.xlsx,positions_test.xlsx,positions_test_new.xlsx,stimuli.xlsx,stimuli_new.xlsx,stimuli/Social4.png,stimuli/Social3.png,stimuli/Nonsocial4.png,stimuli/Nonsocial3.png,stimuli/Social2.png,stimuli/Social1.png,stimuli/Nonsocial2.png,stimuli/Nonsocial1.png,,,"(-0.7, -0.5)",cs_neg_s,"(-0.7, 0.5)",cs_pos_ns,"(0.7, -0.5)",cs_neg_ns_new,"(0.7, 0.5)",cs_pos_s,0,0,0,0,,,,,,,,,,,,,,,,,,,,,,,,,,,,,0,3,3,27,1,0,1,0,,,,,,,,,,,,,,,402,loss,,,,,,1386.0883138999343,1386.0883138999343,1386.0883138999343,1386.0883138999343,0,,,0,,,1,0.02959160041064024,0.029595100320875645,0,,,1386.0883138999343,1386.0883138999343,1386.0883138999343,1386.0883138999343,14,D,2024-04-22_16h17.48.705,attentional_competition_task,2022.2.4,144.00133628893158,
positions.xlsx,positions_test.xlsx,positions_test_new.xlsx,stimuli.xlsx,stimuli_new.xlsx,stimuli/Social4.png,stimuli/Social3.png,stimuli/Nonsocial4.png,stimuli/Nonsocial3.png,stimuli/Social2.png,stimuli/Social1.png,stimuli/Nonsocial2.png,stimuli/Nonsocial1.png,,,"(-0.7, -0.5)",cs_neg_s,"(-0.7, 0.5)",cs_pos_ns,"(0.7, -0.5)",cs_neg_ns_new,"(0.7, 0.5)",cs_pos_s,0,0,0,0,,,,,,,,,,,,,,,,,,,,,,,,,,,,,0,3,3,27,2,0,2,0,,,,,,,,,,,,,,,405,reward,,,,,,1386.60914519988,1386.60914519988,1386.60914519988,1386.60914519988,0,,,1,0.022528800182044506,0.022532400209456682,0,,,0,,,1386.60914519988,1386.60914519988,1386.60914519988,1386.60914519988,14,D,2024-04-22_16h17.48.705,attentional_competition_task,2022.2.4,144.00133628893158,
positions.xlsx,positions_test.xlsx,positions_test_new.xlsx,stimuli.xlsx,stimuli_new.xlsx,stimuli/Social4.png,stimuli/Social3.png,stimuli/Nonsocial4.png,stimuli/Nonsocial3.png,stimuli/Social2.png,stimuli/Social1.png,stimuli/Nonsocial2.png,stimuli/Nonsocial1.png,,,"(-0.7, -0.5)",cs_neg_s,"(-0.7, 0.5)",cs_pos_ns,"(0.7, -0.5)",cs_neg_ns_new,"(0.7, 0.5)",cs_pos_s,0,0,0,0,,,,,,,,,,,,,,,,,,,,,,,,,,,,,0,3,3,27,,,,,,,,,,,,,,,,,,,,,,,,,,,,,,,,,,,,,,,,,,,,,,14,D,2024-04-22_16h17.48.705,attentional_competition_task,2022.2.4,144.00133628893158,
positions.xlsx,positions_test.xlsx,positions_test_new.xlsx,stimuli.xlsx,stimuli_new.xlsx,stimuli/Social4.png,stimuli/Social3.png,stimuli/Nonsocial4.png,stimuli/Nonsocial3.png,stimuli/Social2.png,stimuli/Social1.png,stimuli/Nonsocial2.png,stimuli/Nonsocial1.png,,,"(-0.7, -0.5)",cs_pos_ns,"(-0.7, 0.5)",cs_neg_s,"(0.7, -0.5)",cs_neg_ns_new,"(0.7, 0.5)",cs_pos_s,0,0,0,0,,,,,,,,,,,,,,,,,,,,,,,,,,,,,0,4,4,19,0,0,0,0,,,,,,,,,,,,,,,408,reward,,,,,,1393.463036400266,1393.463036400266,1393.463036400266,1393.463036400266,0,,,0,,,0,,,1,0.7662550997920334,0.7662586998194456,1394.2338760001585,1394.2338760001585,1394.2338760001585,1394.2338760001585,14,D,2024-04-22_16h17.48.705,attentional_competition_task,2022.2.4,144.00133628893158,
positions.xlsx,positions_test.xlsx,positions_test_new.xlsx,stimuli.xlsx,stimuli_new.xlsx,stimuli/Social4.png,stimuli/Social3.png,stimuli/Nonsocial4.png,stimuli/Nonsocial3.png,stimuli/Social2.png,stimuli/Social1.png,stimuli/Nonsocial2.png,stimuli/Nonsocial1.png,,,"(-0.7, -0.5)",cs_pos_ns,"(-0.7, 0.5)",cs_neg_s,"(0.7, -0.5)",cs_neg_ns_new,"(0.7, 0.5)",cs_pos_s,0,0,0,0,,,,,,,,,,,,,,,,,,,,,,,,,,,,,0,4,4,19,1,0,1,0,,,,,,,,,,,,,,,411,reward,,,,,,1394.7407722999342,1394.7407722999342,1394.7407722999342,1394.7407722999342,1,0.2867638999596238,0.28676760010421276,0,,,0,,,1,0.031545700039714575,0.21152850007638335,1395.0254962998442,1395.0254962998442,1395.0254962998442,1395.0254962998442,14,D,2024-04-22_16h17.48.705,attentional_competition_task,2022.2.4,144.00133628893158,
positions.xlsx,positions_test.xlsx,positions_test_new.xlsx,stimuli.xlsx,stimuli_new.xlsx,stimuli/Social4.png,stimuli/Social3.png,stimuli/Nonsocial4.png,stimuli/Nonsocial3.png,stimuli/Social2.png,stimuli/Social1.png,stimuli/Nonsocial2.png,stimuli/Nonsocial1.png,,,"(-0.7, -0.5)",cs_pos_ns,"(-0.7, 0.5)",cs_neg_s,"(0.7, -0.5)",cs_neg_ns_new,"(0.7, 0.5)",cs_pos_s,0,0,0,0,,,,,,,,,,,,,,,,,,,,,,,,,,,,,0,4,4,19,,,,,,,,,,,,,,,,,,,,,,,,,,,,,,,,,,,,,,,,,,,,,,14,D,2024-04-22_16h17.48.705,attentional_competition_task,2022.2.4,144.00133628893158,
positions.xlsx,positions_test.xlsx,positions_test_new.xlsx,stimuli.xlsx,stimuli_new.xlsx,stimuli/Social4.png,stimuli/Social3.png,stimuli/Nonsocial4.png,stimuli/Nonsocial3.png,stimuli/Social2.png,stimuli/Social1.png,stimuli/Nonsocial2.png,stimuli/Nonsocial1.png,,,"(-0.7, -0.5)",cs_pos_ns,"(-0.7, 0.5)",cs_pos_s,"(0.7, -0.5)",cs_neg_ns,"(0.7, 0.5)",cs_neg_s,0,0,0,0,,,,,,,,,,,,,,,,,,,,,,,,,,,,,0,5,5,5,0,0,0,0,,,,,,,,,,,,,,,414,reward,,,,,,1401.900203899946,1401.900203899946,1401.900203899946,1401.900203899946,0,,,1,1.2309912997297943,1.2309952001087368,0,,,0,,,1403.1362550002523,1403.1362550002523,1403.1362550002523,1403.1362550002523,14,D,2024-04-22_16h17.48.705,attentional_competition_task,2022.2.4,144.00133628893158,
positions.xlsx,positions_test.xlsx,positions_test_new.xlsx,stimuli.xlsx,stimuli_new.xlsx,stimuli/Social4.png,stimuli/Social3.png,stimuli/Nonsocial4.png,stimuli/Nonsocial3.png,stimuli/Social2.png,stimuli/Social1.png,stimuli/Nonsocial2.png,stimuli/Nonsocial1.png,,,"(-0.7, -0.5)",cs_pos_ns,"(-0.7, 0.5)",cs_pos_s,"(0.7, -0.5)",cs_neg_ns,"(0.7, 0.5)",cs_neg_s,0,0,0,0,,,,,,,,,,,,,,,,,,,,,,,,,,,,,0,5,5,5,1,0,1,0,,,,,,,,,,,,,,,417,reward,,,,,,1403.6640479001217,1403.6640479001217,1403.6640479001217,1403.6640479001217,1,0.02784070000052452,0.027844199910759926,0,,,0,,,0,,,1403.6640479001217,1403.6640479001217,1403.6640479001217,1403.6640479001217,14,D,2024-04-22_16h17.48.705,attentional_competition_task,2022.2.4,144.00133628893158,
positions.xlsx,positions_test.xlsx,positions_test_new.xlsx,stimuli.xlsx,stimuli_new.xlsx,stimuli/Social4.png,stimuli/Social3.png,stimuli/Nonsocial4.png,stimuli/Nonsocial3.png,stimuli/Social2.png,stimuli/Social1.png,stimuli/Nonsocial2.png,stimuli/Nonsocial1.png,,,"(-0.7, -0.5)",cs_pos_ns,"(-0.7, 0.5)",cs_pos_s,"(0.7, -0.5)",cs_neg_ns,"(0.7, 0.5)",cs_neg_s,0,0,0,0,,,,,,,,,,,,,,,,,,,,,,,,,,,,,0,5,5,5,,,,,,,,,,,,,,,,,,,,,,,,,,,,,,,,,,,,,,,,,,,,,,14,D,2024-04-22_16h17.48.705,attentional_competition_task,2022.2.4,144.00133628893158,
positions.xlsx,positions_test.xlsx,positions_test_new.xlsx,stimuli.xlsx,stimuli_new.xlsx,stimuli/Social4.png,stimuli/Social3.png,stimuli/Nonsocial4.png,stimuli/Nonsocial3.png,stimuli/Social2.png,stimuli/Social1.png,stimuli/Nonsocial2.png,stimuli/Nonsocial1.png,,,"(-0.7, -0.5)",cs_neg_s_new,"(-0.7, 0.5)",cs_pos_s,"(0.7, -0.5)",cs_pos_ns,"(0.7, 0.5)",cs_neg_ns,0,0,0,0,,,,,,,,,,,,,,,,,,,,,,,,,,,,,0,6,6,12,0,0,0,0,,,,,,,,,,,,,,,420,reward,,,,,,1410.7748112999834,1410.7748112999834,1410.7748112999834,1410.7748112999834,0,,,1,0.5442463997751474,0.5442502000369132,0,,,0,,,1411.3304075999185,1411.3304075999185,1411.3304075999185,1411.3304075999185,14,D,2024-04-22_16h17.48.705,attentional_competition_task,2022.2.4,144.00133628893158,
positions.xlsx,positions_test.xlsx,positions_test_new.xlsx,stimuli.xlsx,stimuli_new.xlsx,stimuli/Social4.png,stimuli/Social3.png,stimuli/Nonsocial4.png,stimuli/Nonsocial3.png,stimuli/Social2.png,stimuli/Social1.png,stimuli/Nonsocial2.png,stimuli/Nonsocial1.png,,,"(-0.7, -0.5)",cs_neg_s_new,"(-0.7, 0.5)",cs_pos_s,"(0.7, -0.5)",cs_pos_ns,"(0.7, 0.5)",cs_neg_ns,0,0,0,0,,,,,,,,,,,,,,,,,,,,,,,,,,,,,0,6,6,12,1,0,1,0,,,,,,,,,,,,,,,417,loss,,,,,,1411.8303284002468,1411.8303284002468,1411.8303284002468,1411.8303284002468,0,,,0,,,0,,,1,0.19112899992614985,0.20530520007014275,1412.0386874000542,1412.0386874000542,1412.0386874000542,1412.0386874000542,14,D,2024-04-22_16h17.48.705,attentional_competition_task,2022.2.4,144.00133628893158,
positions.xlsx,positions_test.xlsx,positions_test_new.xlsx,stimuli.xlsx,stimuli_new.xlsx,stimuli/Social4.png,stimuli/Social3.png,stimuli/Nonsocial4.png,stimuli/Nonsocial3.png,stimuli/Social2.png,stimuli/Social1.png,stimuli/Nonsocial2.png,stimuli/Nonsocial1.png,,,"(-0.7, -0.5)",cs_neg_s_new,"(-0.7, 0.5)",cs_pos_s,"(0.7, -0.5)",cs_pos_ns,"(0.7, 0.5)",cs_neg_ns,0,0,0,0,,,,,,,,,,,,,,,,,,,,,,,,,,,,,0,6,6,12,2,0,2,0,,,,,,,,,,,,,,,420,reward,,,,,,1412.5733750001527,1412.5733750001527,1412.5733750001527,1412.5733750001527,0,,,0,,,1,0.02857870003208518,0.02858239971101284,0,,,1412.5733750001527,1412.5733750001527,1412.5733750001527,1412.5733750001527,14,D,2024-04-22_16h17.48.705,attentional_competition_task,2022.2.4,144.00133628893158,
positions.xlsx,positions_test.xlsx,positions_test_new.xlsx,stimuli.xlsx,stimuli_new.xlsx,stimuli/Social4.png,stimuli/Social3.png,stimuli/Nonsocial4.png,stimuli/Nonsocial3.png,stimuli/Social2.png,stimuli/Social1.png,stimuli/Nonsocial2.png,stimuli/Nonsocial1.png,,,"(-0.7, -0.5)",cs_neg_s_new,"(-0.7, 0.5)",cs_pos_s,"(0.7, -0.5)",cs_pos_ns,"(0.7, 0.5)",cs_neg_ns,0,0,0,0,,,,,,,,,,,,,,,,,,,,,,,,,,,,,0,6,6,12,,,,,,,,,,,,,,,,,,,,,,,,,,,,,,,,,,,,,,,,,,,,,,14,D,2024-04-22_16h17.48.705,attentional_competition_task,2022.2.4,144.00133628893158,
positions.xlsx,positions_test.xlsx,positions_test_new.xlsx,stimuli.xlsx,stimuli_new.xlsx,stimuli/Social4.png,stimuli/Social3.png,stimuli/Nonsocial4.png,stimuli/Nonsocial3.png,stimuli/Social2.png,stimuli/Social1.png,stimuli/Nonsocial2.png,stimuli/Nonsocial1.png,,,"(-0.7, -0.5)",cs_pos_ns,"(-0.7, 0.5)",cs_neg_s,"(0.7, -0.5)",cs_neg_ns,"(0.7, 0.5)",cs_pos_s,0,0,0,0,,,,,,,,,,,,,,,,,,,,,,,,,,,,,0,7,7,1,0,0,0,0,,,,,,,,,,,,,,,423,reward,,,,,,1418.6356983999722,1418.6356983999722,1418.6356983999722,1418.6356983999722,0,,,0,,,0,,,1,0.6968624000437558,0.696866299957037,1419.3369932998903,1419.3369932998903,1419.3369932998903,1419.3369932998903,14,D,2024-04-22_16h17.48.705,attentional_competition_task,2022.2.4,144.00133628893158,
positions.xlsx,positions_test.xlsx,positions_test_new.xlsx,stimuli.xlsx,stimuli_new.xlsx,stimuli/Social4.png,stimuli/Social3.png,stimuli/Nonsocial4.png,stimuli/Nonsocial3.png,stimuli/Social2.png,stimuli/Social1.png,stimuli/Nonsocial2.png,stimuli/Nonsocial1.png,,,"(-0.7, -0.5)",cs_pos_ns,"(-0.7, 0.5)",cs_neg_s,"(0.7, -0.5)",cs_neg_ns,"(0.7, 0.5)",cs_pos_s,0,0,0,0,,,,,,,,,,,,,,,,,,,,,,,,,,,,,0,7,7,1,1,0,1,0,,,,,,,,,,,,,,,426,reward,,,,,,1419.836987100076,1419.836987100076,1419.836987100076,1419.836987100076,1,0.23835689993575215,0.24533949978649616,0,,,0,,,1,0.029440599959343672,0.16989529971033335,1420.0869545000605,1420.0869545000605,1420.0869545000605,1420.0869545000605,14,D,2024-04-22_16h17.48.705,attentional_competition_task,2022.2.4,144.00133628893158,
positions.xlsx,positions_test.xlsx,positions_test_new.xlsx,stimuli.xlsx,stimuli_new.xlsx,stimuli/Social4.png,stimuli/Social3.png,stimuli/Nonsocial4.png,stimuli/Nonsocial3.png,stimuli/Social2.png,stimuli/Social1.png,stimuli/Nonsocial2.png,stimuli/Nonsocial1.png,,,"(-0.7, -0.5)",cs_pos_ns,"(-0.7, 0.5)",cs_neg_s,"(0.7, -0.5)",cs_neg_ns,"(0.7, 0.5)",cs_pos_s,0,0,0,0,,,,,,,,,,,,,,,,,,,,,,,,,,,,,0,7,7,1,2,0,2,0,,,,,,,,,,,,,,,429,reward,,,,,,1420.5799917001277,1420.5799917001277,1420.5799917001277,1420.5799917001277,1,0.02268650010228157,0.05855889990925789,0,,,0,,,0,,,1421.1494578998536,1421.1494578998536,1421.1494578998536,1421.1494578998536,14,D,2024-04-22_16h17.48.705,attentional_competition_task,2022.2.4,144.00133628893158,
positions.xlsx,positions_test.xlsx,positions_test_new.xlsx,stimuli.xlsx,stimuli_new.xlsx,stimuli/Social4.png,stimuli/Social3.png,stimuli/Nonsocial4.png,stimuli/Nonsocial3.png,stimuli/Social2.png,stimuli/Social1.png,stimuli/Nonsocial2.png,stimuli/Nonsocial1.png,,,"(-0.7, -0.5)",cs_pos_ns,"(-0.7, 0.5)",cs_neg_s,"(0.7, -0.5)",cs_neg_ns,"(0.7, 0.5)",cs_pos_s,0,0,0,0,,,,,,,,,,,,,,,,,,,,,,,,,,,,,0,7,7,1,,,,,,,,,,,,,,,,,,,,,,,,,,,,,,,,,,,,,,,,,,,,,,14,D,2024-04-22_16h17.48.705,attentional_competition_task,2022.2.4,144.00133628893158,
positions.xlsx,positions_test.xlsx,positions_test_new.xlsx,stimuli.xlsx,stimuli_new.xlsx,stimuli/Social4.png,stimuli/Social3.png,stimuli/Nonsocial4.png,stimuli/Nonsocial3.png,stimuli/Social2.png,stimuli/Social1.png,stimuli/Nonsocial2.png,stimuli/Nonsocial1.png,,,"(-0.7, -0.5)",cs_neg_s,"(-0.7, 0.5)",cs_pos_ns,"(0.7, -0.5)",cs_neg_ns,"(0.7, 0.5)",cs_pos_s_new,0,0,0,0,,,,,,,,,,,,,,,,,,,,,,,,,,,,,0,8,8,30,0,0,0,0,,,,,,,,,,,,,,,432,reward,,,,,,1427.183911500033,1427.183911500033,1427.183911500033,1427.183911500033,0,,,0,,,0,,,1,1.1415043999440968,1.1415086998604238,1428.3296999000013,1428.3296999000013,1428.3296999000013,1428.3296999000013,14,D,2024-04-22_16h17.48.705,attentional_competition_task,2022.2.4,144.00133628893158,
positions.xlsx,positions_test.xlsx,positions_test_new.xlsx,stimuli.xlsx,stimuli_new.xlsx,stimuli/Social4.png,stimuli/Social3.png,stimuli/Nonsocial4.png,stimuli/Nonsocial3.png,stimuli/Social2.png,stimuli/Social1.png,stimuli/Nonsocial2.png,stimuli/Nonsocial1.png,,,"(-0.7, -0.5)",cs_neg_s,"(-0.7, 0.5)",cs_pos_ns,"(0.7, -0.5)",cs_neg_ns,"(0.7, 0.5)",cs_pos_s_new,0,0,0,0,,,,,,,,,,,,,,,,,,,,,,,,,,,,,0,8,8,30,1,0,1,0,,,,,,,,,,,,,,,435,reward,,,,,,1428.8297032001428,1428.8297032001428,1428.8297032001428,1428.8297032001428,0,,,1,0.2454087003134191,0.24541250010952353,0,,,1,0.02906810026615858,0.17647490045055747,1429.0796683002263,1429.0796683002263,1429.0796683002263,1429.0796683002263,14,D,2024-04-22_16h17.48.705,attentional_competition_task,2022.2.4,144.00133628893158,
positions.xlsx,positions_test.xlsx,positions_test_new.xlsx,stimuli.xlsx,stimuli_new.xlsx,stimuli/Social4.png,stimuli/Social3.png,stimuli/Nonsocial4.png,stimuli/Nonsocial3.png,stimuli/Social2.png,stimuli/Social1.png,stimuli/Nonsocial2.png,stimuli/Nonsocial1.png,,,"(-0.7, -0.5)",cs_neg_s,"(-0.7, 0.5)",cs_pos_ns,"(0.7, -0.5)",cs_neg_ns,"(0.7, 0.5)",cs_pos_s_new,0,0,0,0,,,,,,,,,,,,,,,,,,,,,,,,,,,,,0,8,8,30,,,,,,,,,,,,,,,,,,,,,,,,,,,,,,,,,,,,,,,,,,,,,,14,D,2024-04-22_16h17.48.705,attentional_competition_task,2022.2.4,144.00133628893158,
positions.xlsx,positions_test.xlsx,positions_test_new.xlsx,stimuli.xlsx,stimuli_new.xlsx,stimuli/Social4.png,stimuli/Social3.png,stimuli/Nonsocial4.png,stimuli/Nonsocial3.png,stimuli/Social2.png,stimuli/Social1.png,stimuli/Nonsocial2.png,stimuli/Nonsocial1.png,,,"(-0.7, -0.5)",cs_pos_s,"(-0.7, 0.5)",cs_neg_ns,"(0.7, -0.5)",cs_pos_ns,"(0.7, 0.5)",cs_neg_s_new,0,0,0,0,,,,,,,,,,,,,,,,,,,,,,,,,,,,,0,9,9,8,0,0,0,0,,,,,,,,,,,,,,,438,reward,,,,,,1436.1974201002158,1436.1974201002158,1436.1974201002158,1436.1974201002158,1,0.9045192999765277,0.9045230001211166,0,,,0,,,0,,,1437.1070870002732,1437.1070870002732,1437.1070870002732,1437.1070870002732,14,D,2024-04-22_16h17.48.705,attentional_competition_task,2022.2.4,144.00133628893158,
