posFile,posFileTest,posFileTestNew,stimFile,stimFileNew,cs_neg_s,cs_pos_s,cs_neg_ns,cs_pos_ns,cs_neg_s_new,cs_pos_s_new,cs_neg_ns_new,cs_pos_ns_new,stim,position,position1,stim1,position2,stim2,position3,stim3,position4,stim4,blocks.thisRepN,blocks.thisTrialN,blocks.thisN,blocks.thisIndex,ratingtrials1.thisRepN,ratingtrials1.thisTrialN,ratingtrials1.thisN,ratingtrials1.thisIndex,search_task_trials.thisRepN,search_task_trials.thisTrialN,search_task_trials.thisN,search_task_trials.thisIndex,learning_trials.thisRepN,learning_trials.thisTrialN,learning_trials.thisN,learning_trials.thisIndex,trials.thisRepN,trials.thisTrialN,trials.thisN,trials.thisIndex,ratingtrials2.thisRepN,ratingtrials2.thisTrialN,ratingtrials2.thisN,ratingtrials2.thisIndex,testtrials.thisRepN,testtrials.thisTrialN,testtrials.thisN,testtrials.thisIndex,loop_test.thisRepN,loop_test.thisTrialN,loop_test.thisN,loop_test.thisIndex,testtrials_novelty.thisRepN,testtrials_novelty.thisTrialN,testtrials_novelty.thisN,testtrials_novelty.thisIndex,loop_test_novelty.thisRepN,loop_test_novelty.thisTrialN,loop_test_novelty.thisN,loop_test_novelty.thisIndex,ratingtrials3.thisRepN,ratingtrials3.thisTrialN,ratingtrials3.thisN,ratingtrials3.thisIndex,textStart.started,textStartExp.started,imageRating.started,sliderStim.response,sliderStim.rt,textStartSearch.started,target_positions,distractor_positions,textStartTask.started,image.started,score,outcome,roi.numLooks,roi.timesOn,roi.timesOff,imageFeedback.started,textTestInstr.started,test_image1.started,test_image2.started,test_image3.started,test_image4.started,test_roi1.numLooks,test_roi1.timesOn,test_roi1.timesOff,test_roi2.numLooks,test_roi2.timesOn,test_roi2.timesOff,test_roi3.numLooks,test_roi3.timesOn,test_roi3.timesOff,test_roi4.numLooks,test_roi4.timesOn,test_roi4.timesOff,test_image_feedback1.started,test_image_feedback2.started,test_iamge_feedback3.started,test_iamge_feedback4.started,participant,group,date,expName,psychopyVersion,frameRate,
positions.xlsx,positions_test.xlsx,positions_test_new.xlsx,stimuli.xlsx,stimuli_new.xlsx,stimuli/Social4.png,stimuli/Social3.png,stimuli/Nonsocial4.png,stimuli/Nonsocial3.png,stimuli/Social2.png,stimuli/Social1.png,stimuli/Nonsocial2.png,stimuli/Nonsocial1.png,cs_neg_s,,,,,,,,,,0,0,0,0,0,0,0,0,,,,,,,,,,,,,,,,,,,,,,,,,,,,,,,,,,,,,14.184248899924569,174.71241099992767,185.6273662999738,5.0,8.117587900022045,,,,,,,,,,,,,,,,,,,,,,,,,,,,,,,,,46,D,2024-05-22_09h21.00.978,attentional_competition_task,2022.2.4,143.87185040075676,
positions.xlsx,positions_test.xlsx,positions_test_new.xlsx,stimuli.xlsx,stimuli_new.xlsx,stimuli/Social4.png,stimuli/Social3.png,stimuli/Nonsocial4.png,stimuli/Nonsocial3.png,stimuli/Social2.png,stimuli/Social1.png,stimuli/Nonsocial2.png,stimuli/Nonsocial1.png,cs_neg_ns,,,,,,,,,,0,0,0,0,0,1,1,1,,,,,,,,,,,,,,,,,,,,,,,,,,,,,,,,,,,,,,,195.9255598000018,8.0,2.234756899997592,,,,,,,,,,,,,,,,,,,,,,,,,,,,,,,,,46,D,2024-05-22_09h21.00.978,attentional_competition_task,2022.2.4,143.87185040075676,
positions.xlsx,positions_test.xlsx,positions_test_new.xlsx,stimuli.xlsx,stimuli_new.xlsx,stimuli/Social4.png,stimuli/Social3.png,stimuli/Nonsocial4.png,stimuli/Nonsocial3.png,stimuli/Social2.png,stimuli/Social1.png,stimuli/Nonsocial2.png,stimuli/Nonsocial1.png,cs_pos_s,,,,,,,,,,0,0,0,0,0,2,2,2,,,,,,,,,,,,,,,,,,,,,,,,,,,,,,,,,,,,,,,199.05046099994797,6.0,4.3143528999062255,,,,,,,,,,,,,,,,,,,,,,,,,,,,,,,,,46,D,2024-05-22_09h21.00.978,attentional_competition_task,2022.2.4,143.87185040075676,
positions.xlsx,positions_test.xlsx,positions_test_new.xlsx,stimuli.xlsx,stimuli_new.xlsx,stimuli/Social4.png,stimuli/Social3.png,stimuli/Nonsocial4.png,stimuli/Nonsocial3.png,stimuli/Social2.png,stimuli/Social1.png,stimuli/Nonsocial2.png,stimuli/Nonsocial1.png,cs_pos_ns,,,,,,,,,,0,0,0,0,0,3,3,3,,,,,,,,,,,,,,,,,,,,,,,,,,,,,,,,,,,,,,,203.79329649999272,8.0,2.820316100027412,,,,,,,,,,,,,,,,,,,,,,,,,,,,,,,,,46,D,2024-05-22_09h21.00.978,attentional_competition_task,2022.2.4,143.87185040075676,
positions.xlsx,positions_test.xlsx,positions_test_new.xlsx,stimuli.xlsx,stimuli_new.xlsx,stimuli/Social4.png,stimuli/Social3.png,stimuli/Nonsocial4.png,stimuli/Nonsocial3.png,stimuli/Social2.png,stimuli/Social1.png,stimuli/Nonsocial2.png,stimuli/Nonsocial1.png,,,,,,,,,,,0,0,0,0,,,,,0,0,0,0,,,,,,,,,,,,,,,,,,,,,,,,,,,,,,,,,,,,,,208.1958953998983,"[[0.0, -0.30000000000000004], [0.0, -0.8], [0.6749999999999999, 0.7], [-0.45, 0.7], [-0.22499999999999998, -0.8], [-0.675, 0.7], [0.9, 0.19999999999999996], [0.6749999999999999, 0.19999999999999996], [-0.22499999999999998, -0.30000000000000004], [-0.22499999999999998, 0.7], [-0.675, -0.30000000000000004], [-0.9, 0.19999999999999996], [0.6749999999999999, -0.8], [-0.9, -0.8], [0.9, 0.7]]","[[0.22499999999999998, 0.19999999999999996], [0.9, -0.8], [0.9, -0.30000000000000004], [-0.45, 0.19999999999999996], [0.22499999999999998, -0.30000000000000004], [-0.45, -0.30000000000000004], [0.22499999999999998, -0.8], [0.45000000000000007, 0.19999999999999996], [-0.22499999999999998, 0.19999999999999996], [-0.675, -0.8], [-0.9, -0.30000000000000004], [-0.45, -0.8], [0.22499999999999998, 0.7], [0.0, 0.19999999999999996], [-0.675, 0.19999999999999996]]",,,,,,,,,,,,,,,,,,,,,,,,,,,,,,46,D,2024-05-22_09h21.00.978,attentional_competition_task,2022.2.4,143.87185040075676,
positions.xlsx,positions_test.xlsx,positions_test_new.xlsx,stimuli.xlsx,stimuli_new.xlsx,stimuli/Social4.png,stimuli/Social3.png,stimuli/Nonsocial4.png,stimuli/Nonsocial3.png,stimuli/Social2.png,stimuli/Social1.png,stimuli/Nonsocial2.png,stimuli/Nonsocial1.png,,,,,,,,,,,0,0,0,0,,,,,1,0,1,0,,,,,,,,,,,,,,,,,,,,,,,,,,,,,,,,,,,,,,,"[[-0.9, -0.8], [0.45000000000000007, 0.7], [-0.675, 0.7], [-0.9, 0.7], [-0.675, -0.8], [0.22499999999999998, 0.7], [0.45000000000000007, 0.19999999999999996], [-0.22499999999999998, -0.8], [-0.22499999999999998, -0.30000000000000004], [-0.675, 0.19999999999999996], [-0.22499999999999998, 0.7], [0.0, 0.19999999999999996], [-0.9, -0.30000000000000004], [0.45000000000000007, -0.8], [-0.22499999999999998, 0.19999999999999996]]","[[0.9, -0.8], [0.22499999999999998, 0.19999999999999996], [0.6749999999999999, 0.19999999999999996], [0.9, 0.7], [0.0, -0.30000000000000004], [0.9, 0.19999999999999996], [0.22499999999999998, -0.30000000000000004], [0.45000000000000007, -0.30000000000000004], [-0.675, -0.30000000000000004], [-0.45, 0.19999999999999996], [0.0, 0.7], [-0.45, -0.8], [0.6749999999999999, -0.8], [-0.45, 0.7], [0.6749999999999999, 0.7]]",,,,,,,,,,,,,,,,,,,,,,,,,,,,,,46,D,2024-05-22_09h21.00.978,attentional_competition_task,2022.2.4,143.87185040075676,
positions.xlsx,positions_test.xlsx,positions_test_new.xlsx,stimuli.xlsx,stimuli_new.xlsx,stimuli/Social4.png,stimuli/Social3.png,stimuli/Nonsocial4.png,stimuli/Nonsocial3.png,stimuli/Social2.png,stimuli/Social1.png,stimuli/Nonsocial2.png,stimuli/Nonsocial1.png,cs_neg_s,"(-0.7, -0.5)",,,,,,,,,0,0,0,0,,,,,,,,,0,0,0,1,,,,,,,,,,,,,,,,,,,,,,,,,,,,,,,,,,,,,291.4216977999313,314.33050069992896,-3,loss,1,0.25722290005069226,0.2572264999616891,314.60129299992695,,,,,,,,,,,,,,,,,,,,,,46,D,2024-05-22_09h21.00.978,attentional_competition_task,2022.2.4,143.87185040075676,
positions.xlsx,positions_test.xlsx,positions_test_new.xlsx,stimuli.xlsx,stimuli_new.xlsx,stimuli/Social4.png,stimuli/Social3.png,stimuli/Nonsocial4.png,stimuli/Nonsocial3.png,stimuli/Social2.png,stimuli/Social1.png,stimuli/Nonsocial2.png,stimuli/Nonsocial1.png,cs_neg_ns,"(0.7, 0.5)",,,,,,,,,0,0,0,0,,,,,,,,,0,1,1,10,,,,,,,,,,,,,,,,,,,,,,,,,,,,,,,,,,,,,,322.0801856999751,-6,loss,1,0.7014938000356779,0.7014977999497205,322.7884906999534,,,,,,,,,,,,,,,,,,,,,,46,D,2024-05-22_09h21.00.978,attentional_competition_task,2022.2.4,143.87185040075676,
positions.xlsx,positions_test.xlsx,positions_test_new.xlsx,stimuli.xlsx,stimuli_new.xlsx,stimuli/Social4.png,stimuli/Social3.png,stimuli/Nonsocial4.png,stimuli/Nonsocial3.png,stimuli/Social2.png,stimuli/Social1.png,stimuli/Nonsocial2.png,stimuli/Nonsocial1.png,cs_pos_s,"(0.7, 0.5)",,,,,,,,,0,0,0,0,,,,,,,,,0,2,2,6,,,,,,,,,,,,,,,,,,,,,,,,,,,,,,,,,,,,,,331.03813399991486,-3,reward,1,0.4305608000140637,0.4305646999273449,331.48259249993134,,,,,,,,,,,,,,,,,,,,,,46,D,2024-05-22_09h21.00.978,attentional_competition_task,2022.2.4,143.87185040075676,
positions.xlsx,positions_test.xlsx,positions_test_new.xlsx,stimuli.xlsx,stimuli_new.xlsx,stimuli/Social4.png,stimuli/Social3.png,stimuli/Nonsocial4.png,stimuli/Nonsocial3.png,stimuli/Social2.png,stimuli/Social1.png,stimuli/Nonsocial2.png,stimuli/Nonsocial1.png,cs_neg_s,"(0.7, -0.5)",,,,,,,,,0,0,0,0,,,,,,,,,0,3,3,3,,,,,,,,,,,,,,,,,,,,,,,,,,,,,,,,,,,,,,338.7809236999601,-3,none,0,,,341.79465209995396,,,,,,,,,,,,,,,,,,,,,,46,D,2024-05-22_09h21.00.978,attentional_competition_task,2022.2.4,143.87185040075676,
positions.xlsx,positions_test.xlsx,positions_test_new.xlsx,stimuli.xlsx,stimuli_new.xlsx,stimuli/Social4.png,stimuli/Social3.png,stimuli/Nonsocial4.png,stimuli/Nonsocial3.png,stimuli/Social2.png,stimuli/Social1.png,stimuli/Nonsocial2.png,stimuli/Nonsocial1.png,cs_neg_ns,"(0.7, -0.5)",,,,,,,,,0,0,0,0,,,,,,,,,0,4,4,11,,,,,,,,,,,,,,,,,,,,,,,,,,,,,,,,,,,,,,349.4957369999029,-6,loss,1,1.0833776000654325,1.0833811999764293,350.58597169991117,,,,,,,,,,,,,,,,,,,,,,46,D,2024-05-22_09h21.00.978,attentional_competition_task,2022.2.4,143.87185040075676,
positions.xlsx,positions_test.xlsx,positions_test_new.xlsx,stimuli.xlsx,stimuli_new.xlsx,stimuli/Social4.png,stimuli/Social3.png,stimuli/Nonsocial4.png,stimuli/Nonsocial3.png,stimuli/Social2.png,stimuli/Social1.png,stimuli/Nonsocial2.png,stimuli/Nonsocial1.png,cs_neg_ns,"(-0.7, 0.5)",,,,,,,,,0,0,0,0,,,,,,,,,0,5,5,8,,,,,,,,,,,,,,,,,,,,,,,,,,,,,,,,,,,,,,358.1898126999149,-9,loss,1,0.2363262000726536,0.23632970009930432,358.43288290000055,,,,,,,,,,,,,,,,,,,,,,46,D,2024-05-22_09h21.00.978,attentional_competition_task,2022.2.4,143.87185040075676,
positions.xlsx,positions_test.xlsx,positions_test_new.xlsx,stimuli.xlsx,stimuli_new.xlsx,stimuli/Social4.png,stimuli/Social3.png,stimuli/Nonsocial4.png,stimuli/Nonsocial3.png,stimuli/Social2.png,stimuli/Social1.png,stimuli/Nonsocial2.png,stimuli/Nonsocial1.png,cs_pos_s,"(-0.7, -0.5)",,,,,,,,,0,0,0,0,,,,,,,,,0,6,6,5,,,,,,,,,,,,,,,,,,,,,,,,,,,,,,,,,,,,,,366.16865779994987,-6,reward,1,0.478862400050275,0.4857670000055805,366.66173359996174,,,,,,,,,,,,,,,,,,,,,,46,D,2024-05-22_09h21.00.978,attentional_competition_task,2022.2.4,143.87185040075676,
positions.xlsx,positions_test.xlsx,positions_test_new.xlsx,stimuli.xlsx,stimuli_new.xlsx,stimuli/Social4.png,stimuli/Social3.png,stimuli/Nonsocial4.png,stimuli/Nonsocial3.png,stimuli/Social2.png,stimuli/Social1.png,stimuli/Nonsocial2.png,stimuli/Nonsocial1.png,cs_neg_s,"(-0.7, 0.5)",,,,,,,,,0,0,0,0,,,,,,,,,0,7,7,0,,,,,,,,,,,,,,,,,,,,,,,,,,,,,,,,,,,,,,373.5433854999719,-6,none,0,,,376.55712819995824,,,,,,,,,,,,,,,,,,,,,,46,D,2024-05-22_09h21.00.978,attentional_competition_task,2022.2.4,143.87185040075676,
positions.xlsx,positions_test.xlsx,positions_test_new.xlsx,stimuli.xlsx,stimuli_new.xlsx,stimuli/Social4.png,stimuli/Social3.png,stimuli/Nonsocial4.png,stimuli/Nonsocial3.png,stimuli/Social2.png,stimuli/Social1.png,stimuli/Nonsocial2.png,stimuli/Nonsocial1.png,cs_neg_s,"(0.7, 0.5)",,,,,,,,,0,0,0,0,,,,,,,,,0,8,8,2,,,,,,,,,,,,,,,,,,,,,,,,,,,,,,,,,,,,,,383.8762846000027,-6,none,0,,,386.8831294999691,,,,,,,,,,,,,,,,,,,,,,46,D,2024-05-22_09h21.00.978,attentional_competition_task,2022.2.4,143.87185040075676,
positions.xlsx,positions_test.xlsx,positions_test_new.xlsx,stimuli.xlsx,stimuli_new.xlsx,stimuli/Social4.png,stimuli/Social3.png,stimuli/Nonsocial4.png,stimuli/Nonsocial3.png,stimuli/Social2.png,stimuli/Social1.png,stimuli/Nonsocial2.png,stimuli/Nonsocial1.png,cs_pos_ns,"(0.7, -0.5)",,,,,,,,,0,0,0,0,,,,,,,,,0,9,9,15,,,,,,,,,,,,,,,,,,,,,,,,,,,,,,,,,,,,,,393.6745222999016,-6,none,0,,,396.6813916999381,,,,,,,,,,,,,,,,,,,,,,46,D,2024-05-22_09h21.00.978,attentional_competition_task,2022.2.4,143.87185040075676,
positions.xlsx,positions_test.xlsx,positions_test_new.xlsx,stimuli.xlsx,stimuli_new.xlsx,stimuli/Social4.png,stimuli/Social3.png,stimuli/Nonsocial4.png,stimuli/Nonsocial3.png,stimuli/Social2.png,stimuli/Social1.png,stimuli/Nonsocial2.png,stimuli/Nonsocial1.png,cs_pos_ns,"(0.7, 0.5)",,,,,,,,,0,0,0,0,,,,,,,,,0,10,10,14,,,,,,,,,,,,,,,,,,,,,,,,,,,,,,,,,,,,,,404.9171733999392,-6,none,0,,,407.93088889995124,,,,,,,,,,,,,,,,,,,,,,46,D,2024-05-22_09h21.00.978,attentional_competition_task,2022.2.4,143.87185040075676,
positions.xlsx,positions_test.xlsx,positions_test_new.xlsx,stimuli.xlsx,stimuli_new.xlsx,stimuli/Social4.png,stimuli/Social3.png,stimuli/Nonsocial4.png,stimuli/Nonsocial3.png,stimuli/Social2.png,stimuli/Social1.png,stimuli/Nonsocial2.png,stimuli/Nonsocial1.png,cs_pos_s,"(0.7, -0.5)",,,,,,,,,0,0,0,0,,,,,,,,,0,11,11,7,,,,,,,,,,,,,,,,,,,,,,,,,,,,,,,,,,,,,,415.55557839991525,-3,reward,1,0.6320368000306189,0.6320405000587925,416.19446219992824,,,,,,,,,,,,,,,,,,,,,,46,D,2024-05-22_09h21.00.978,attentional_competition_task,2022.2.4,143.87185040075676,
positions.xlsx,positions_test.xlsx,positions_test_new.xlsx,stimuli.xlsx,stimuli_new.xlsx,stimuli/Social4.png,stimuli/Social3.png,stimuli/Nonsocial4.png,stimuli/Nonsocial3.png,stimuli/Social2.png,stimuli/Social1.png,stimuli/Nonsocial2.png,stimuli/Nonsocial1.png,cs_pos_s,"(-0.7, 0.5)",,,,,,,,,0,0,0,0,,,,,,,,,0,12,12,4,,,,,,,,,,,,,,,,,,,,,,,,,,,,,,,,,,,,,,423.7566302999621,0,reward,1,0.5627735999878496,0.5696047000819817,424.33306079998147,,,,,,,,,,,,,,,,,,,,,,46,D,2024-05-22_09h21.00.978,attentional_competition_task,2022.2.4,143.87185040075676,
positions.xlsx,positions_test.xlsx,positions_test_new.xlsx,stimuli.xlsx,stimuli_new.xlsx,stimuli/Social4.png,stimuli/Social3.png,stimuli/Nonsocial4.png,stimuli/Nonsocial3.png,stimuli/Social2.png,stimuli/Social1.png,stimuli/Nonsocial2.png,stimuli/Nonsocial1.png,cs_neg_ns,"(-0.7, -0.5)",,,,,,,,,0,0,0,0,,,,,,,,,0,13,13,9,,,,,,,,,,,,,,,,,,,,,,,,,,,,,,,,,,,,,,431.325796399964,-3,loss,1,0.2571126000257209,0.2571163000538945,431.58963999990374,,,,,,,,,,,,,,,,,,,,,,46,D,2024-05-22_09h21.00.978,attentional_competition_task,2022.2.4,143.87185040075676,
positions.xlsx,positions_test.xlsx,positions_test_new.xlsx,stimuli.xlsx,stimuli_new.xlsx,stimuli/Social4.png,stimuli/Social3.png,stimuli/Nonsocial4.png,stimuli/Nonsocial3.png,stimuli/Social2.png,stimuli/Social1.png,stimuli/Nonsocial2.png,stimuli/Nonsocial1.png,cs_pos_ns,"(-0.7, -0.5)",,,,,,,,,0,0,0,0,,,,,,,,,0,14,14,13,,,,,,,,,,,,,,,,,,,,,,,,,,,,,,,,,,,,,,439.57547239994165,-3,none,0,,,442.5892279999098,,,,,,,,,,,,,,,,,,,,,,46,D,2024-05-22_09h21.00.978,attentional_competition_task,2022.2.4,143.87185040075676,
positions.xlsx,positions_test.xlsx,positions_test_new.xlsx,stimuli.xlsx,stimuli_new.xlsx,stimuli/Social4.png,stimuli/Social3.png,stimuli/Nonsocial4.png,stimuli/Nonsocial3.png,stimuli/Social2.png,stimuli/Social1.png,stimuli/Nonsocial2.png,stimuli/Nonsocial1.png,cs_pos_ns,"(-0.7, 0.5)",,,,,,,,,0,0,0,0,,,,,,,,,0,15,15,12,,,,,,,,,,,,,,,,,,,,,,,,,,,,,,,,,,,,,,450.26250929990783,-3,none,0,,,453.2693711000029,,,,,,,,,,,,,,,,,,,,,,46,D,2024-05-22_09h21.00.978,attentional_competition_task,2022.2.4,143.87185040075676,
positions.xlsx,positions_test.xlsx,positions_test_new.xlsx,stimuli.xlsx,stimuli_new.xlsx,stimuli/Social4.png,stimuli/Social3.png,stimuli/Nonsocial4.png,stimuli/Nonsocial3.png,stimuli/Social2.png,stimuli/Social1.png,stimuli/Nonsocial2.png,stimuli/Nonsocial1.png,cs_pos_s,"(-0.7, -0.5)",,,,,,,,,0,0,0,0,,,,,,,,,1,0,16,5,,,,,,,,,,,,,,,,,,,,,,,,,,,,,,,,,,,,,,460.69266149995383,0,reward,1,0.5702361000003293,0.5702403000323102,461.27605899993796,,,,,,,,,,,,,,,,,,,,,,46,D,2024-05-22_09h21.00.978,attentional_competition_task,2022.2.4,143.87185040075676,
positions.xlsx,positions_test.xlsx,positions_test_new.xlsx,stimuli.xlsx,stimuli_new.xlsx,stimuli/Social4.png,stimuli/Social3.png,stimuli/Nonsocial4.png,stimuli/Nonsocial3.png,stimuli/Social2.png,stimuli/Social1.png,stimuli/Nonsocial2.png,stimuli/Nonsocial1.png,cs_pos_ns,"(0.7, -0.5)",,,,,,,,,0,0,0,0,,,,,,,,,1,1,17,15,,,,,,,,,,,,,,,,,,,,,,,,,,,,,,,,,,,,,,468.6437120999908,0,none,0,,,471.65749999997206,,,,,,,,,,,,,,,,,,,,,,46,D,2024-05-22_09h21.00.978,attentional_competition_task,2022.2.4,143.87185040075676,
positions.xlsx,positions_test.xlsx,positions_test_new.xlsx,stimuli.xlsx,stimuli_new.xlsx,stimuli/Social4.png,stimuli/Social3.png,stimuli/Nonsocial4.png,stimuli/Nonsocial3.png,stimuli/Social2.png,stimuli/Social1.png,stimuli/Nonsocial2.png,stimuli/Nonsocial1.png,cs_neg_s,"(0.7, -0.5)",,,,,,,,,0,0,0,0,,,,,,,,,1,2,18,3,,,,,,,,,,,,,,,,,,,,,,,,,,,,,,,,,,,,,,479.5043599999044,0,none,0,,,482.5112291999394,,,,,,,,,,,,,,,,,,,,,,46,D,2024-05-22_09h21.00.978,attentional_competition_task,2022.2.4,143.87185040075676,
positions.xlsx,positions_test.xlsx,positions_test_new.xlsx,stimuli.xlsx,stimuli_new.xlsx,stimuli/Social4.png,stimuli/Social3.png,stimuli/Nonsocial4.png,stimuli/Nonsocial3.png,stimuli/Social2.png,stimuli/Social1.png,stimuli/Nonsocial2.png,stimuli/Nonsocial1.png,cs_pos_ns,"(-0.7, 0.5)",,,,,,,,,0,0,0,0,,,,,,,,,1,3,19,12,,,,,,,,,,,,,,,,,,,,,,,,,,,,,,,,,,,,,,489.5595592999598,0,none,0,,,492.56638509989716,,,,,,,,,,,,,,,,,,,,,,46,D,2024-05-22_09h21.00.978,attentional_competition_task,2022.2.4,143.87185040075676,
positions.xlsx,positions_test.xlsx,positions_test_new.xlsx,stimuli.xlsx,stimuli_new.xlsx,stimuli/Social4.png,stimuli/Social3.png,stimuli/Nonsocial4.png,stimuli/Nonsocial3.png,stimuli/Social2.png,stimuli/Social1.png,stimuli/Nonsocial2.png,stimuli/Nonsocial1.png,cs_neg_ns,"(-0.7, 0.5)",,,,,,,,,0,0,0,0,,,,,,,,,1,4,20,8,,,,,,,,,,,,,,,,,,,,,,,,,,,,,,,,,,,,,,500.4966268999269,0,none,0,,,503.5103856999194,,,,,,,,,,,,,,,,,,,,,,46,D,2024-05-22_09h21.00.978,attentional_competition_task,2022.2.4,143.87185040075676,
positions.xlsx,positions_test.xlsx,positions_test_new.xlsx,stimuli.xlsx,stimuli_new.xlsx,stimuli/Social4.png,stimuli/Social3.png,stimuli/Nonsocial4.png,stimuli/Nonsocial3.png,stimuli/Social2.png,stimuli/Social1.png,stimuli/Nonsocial2.png,stimuli/Nonsocial1.png,cs_pos_s,"(0.7, 0.5)",,,,,,,,,0,0,0,0,,,,,,,,,1,5,21,6,,,,,,,,,,,,,,,,,,,,,,,,,,,,,,,,,,,,,,510.7531582999509,3,reward,1,0.4235878000035882,0.4235915000317618,511.18373639998026,,,,,,,,,,,,,,,,,,,,,,46,D,2024-05-22_09h21.00.978,attentional_competition_task,2022.2.4,143.87185040075676,
positions.xlsx,positions_test.xlsx,positions_test_new.xlsx,stimuli.xlsx,stimuli_new.xlsx,stimuli/Social4.png,stimuli/Social3.png,stimuli/Nonsocial4.png,stimuli/Nonsocial3.png,stimuli/Social2.png,stimuli/Social1.png,stimuli/Nonsocial2.png,stimuli/Nonsocial1.png,cs_neg_s,"(0.7, 0.5)",,,,,,,,,0,0,0,0,,,,,,,,,1,6,22,2,,,,,,,,,,,,,,,,,,,,,,,,,,,,,,,,,,,,,,518.5375697999261,3,none,0,,,521.5444027999183,,,,,,,,,,,,,,,,,,,,,,46,D,2024-05-22_09h21.00.978,attentional_competition_task,2022.2.4,143.87185040075676,
positions.xlsx,positions_test.xlsx,positions_test_new.xlsx,stimuli.xlsx,stimuli_new.xlsx,stimuli/Social4.png,stimuli/Social3.png,stimuli/Nonsocial4.png,stimuli/Nonsocial3.png,stimuli/Social2.png,stimuli/Social1.png,stimuli/Nonsocial2.png,stimuli/Nonsocial1.png,cs_pos_s,"(0.7, -0.5)",,,,,,,,,0,0,0,0,,,,,,,,,1,7,23,7,,,,,,,,,,,,,,,,,,,,,,,,,,,,,,,,,,,,,,528.9954567999812,6,reward,1,0.4794588000513613,0.4794622000772506,529.4815623000031,,,,,,,,,,,,,,,,,,,,,,46,D,2024-05-22_09h21.00.978,attentional_competition_task,2022.2.4,143.87185040075676,
positions.xlsx,positions_test.xlsx,positions_test_new.xlsx,stimuli.xlsx,stimuli_new.xlsx,stimuli/Social4.png,stimuli/Social3.png,stimuli/Nonsocial4.png,stimuli/Nonsocial3.png,stimuli/Social2.png,stimuli/Social1.png,stimuli/Nonsocial2.png,stimuli/Nonsocial1.png,cs_pos_s,"(-0.7, 0.5)",,,,,,,,,0,0,0,0,,,,,,,,,1,8,24,4,,,,,,,,,,,,,,,,,,,,,,,,,,,,,,,,,,,,,,536.974322999944,9,reward,1,0.2848345999373123,0.28483829996548593,537.2660168999573,,,,,,,,,,,,,,,,,,,,,,46,D,2024-05-22_09h21.00.978,attentional_competition_task,2022.2.4,143.87185040075676,
positions.xlsx,positions_test.xlsx,positions_test_new.xlsx,stimuli.xlsx,stimuli_new.xlsx,stimuli/Social4.png,stimuli/Social3.png,stimuli/Nonsocial4.png,stimuli/Nonsocial3.png,stimuli/Social2.png,stimuli/Social1.png,stimuli/Nonsocial2.png,stimuli/Nonsocial1.png,cs_pos_ns,"(-0.7, -0.5)",,,,,,,,,0,0,0,0,,,,,,,,,1,9,25,13,,,,,,,,,,,,,,,,,,,,,,,,,,,,,,,,,,,,,,544.3004548999015,12,reward,1,0.2430640000384301,0.25018350000027567,544.557369899936,,,,,,,,,,,,,,,,,,,,,,46,D,2024-05-22_09h21.00.978,attentional_competition_task,2022.2.4,143.87185040075676,
positions.xlsx,positions_test.xlsx,positions_test_new.xlsx,stimuli.xlsx,stimuli_new.xlsx,stimuli/Social4.png,stimuli/Social3.png,stimuli/Nonsocial4.png,stimuli/Nonsocial3.png,stimuli/Social2.png,stimuli/Social1.png,stimuli/Nonsocial2.png,stimuli/Nonsocial1.png,cs_neg_s,"(-0.7, 0.5)",,,,,,,,,0,0,0,0,,,,,,,,,1,10,26,0,,,,,,,,,,,,,,,,,,,,,,,,,,,,,,,,,,,,,,552.3764769999543,12,none,0,,,555.3902644999325,,,,,,,,,,,,,,,,,,,,,,46,D,2024-05-22_09h21.00.978,attentional_competition_task,2022.2.4,143.87185040075676,
positions.xlsx,positions_test.xlsx,positions_test_new.xlsx,stimuli.xlsx,stimuli_new.xlsx,stimuli/Social4.png,stimuli/Social3.png,stimuli/Nonsocial4.png,stimuli/Nonsocial3.png,stimuli/Social2.png,stimuli/Social1.png,stimuli/Nonsocial2.png,stimuli/Nonsocial1.png,cs_pos_ns,"(0.7, 0.5)",,,,,,,,,0,0,0,0,,,,,,,,,1,11,27,14,,,,,,,,,,,,,,,,,,,,,,,,,,,,,,,,,,,,,,562.9524734999286,15,reward,1,0.5349352000048384,0.5349390999181196,563.4941022999119,,,,,,,,,,,,,,,,,,,,,,46,D,2024-05-22_09h21.00.978,attentional_competition_task,2022.2.4,143.87185040075676,
positions.xlsx,positions_test.xlsx,positions_test_new.xlsx,stimuli.xlsx,stimuli_new.xlsx,stimuli/Social4.png,stimuli/Social3.png,stimuli/Nonsocial4.png,stimuli/Nonsocial3.png,stimuli/Social2.png,stimuli/Social1.png,stimuli/Nonsocial2.png,stimuli/Nonsocial1.png,cs_neg_ns,"(0.7, -0.5)",,,,,,,,,0,0,0,0,,,,,,,,,1,12,28,11,,,,,,,,,,,,,,,,,,,,,,,,,,,,,,,,,,,,,,571.3479566999013,12,loss,1,0.7155448000412434,0.7155481999507174,572.070197999943,,,,,,,,,,,,,,,,,,,,,,46,D,2024-05-22_09h21.00.978,attentional_competition_task,2022.2.4,143.87185040075676,
positions.xlsx,positions_test.xlsx,positions_test_new.xlsx,stimuli.xlsx,stimuli_new.xlsx,stimuli/Social4.png,stimuli/Social3.png,stimuli/Nonsocial4.png,stimuli/Nonsocial3.png,stimuli/Social2.png,stimuli/Social1.png,stimuli/Nonsocial2.png,stimuli/Nonsocial1.png,cs_neg_ns,"(-0.7, -0.5)",,,,,,,,,0,0,0,0,,,,,,,,,1,13,29,9,,,,,,,,,,,,,,,,,,,,,,,,,,,,,,,,,,,,,,580.0489696000004,9,loss,1,0.791662500007078,0.7916664000367746,580.8475976999616,,,,,,,,,,,,,,,,,,,,,,46,D,2024-05-22_09h21.00.978,attentional_competition_task,2022.2.4,143.87185040075676,
positions.xlsx,positions_test.xlsx,positions_test_new.xlsx,stimuli.xlsx,stimuli_new.xlsx,stimuli/Social4.png,stimuli/Social3.png,stimuli/Nonsocial4.png,stimuli/Nonsocial3.png,stimuli/Social2.png,stimuli/Social1.png,stimuli/Nonsocial2.png,stimuli/Nonsocial1.png,cs_neg_s,"(-0.7, -0.5)",,,,,,,,,0,0,0,0,,,,,,,,,1,14,30,1,,,,,,,,,,,,,,,,,,,,,,,,,,,,,,,,,,,,,,589.0694631999359,9,none,0,,,592.0831851999974,,,,,,,,,,,,,,,,,,,,,,46,D,2024-05-22_09h21.00.978,attentional_competition_task,2022.2.4,143.87185040075676,
positions.xlsx,positions_test.xlsx,positions_test_new.xlsx,stimuli.xlsx,stimuli_new.xlsx,stimuli/Social4.png,stimuli/Social3.png,stimuli/Nonsocial4.png,stimuli/Nonsocial3.png,stimuli/Social2.png,stimuli/Social1.png,stimuli/Nonsocial2.png,stimuli/Nonsocial1.png,cs_neg_ns,"(0.7, 0.5)",,,,,,,,,0,0,0,0,,,,,,,,,1,15,31,10,,,,,,,,,,,,,,,,,,,,,,,,,,,,,,,,,,,,,,600.3884341999656,6,loss,1,0.4725486000534147,0.4725526000838727,600.8675780999474,,,,,,,,,,,,,,,,,,,,,,46,D,2024-05-22_09h21.00.978,attentional_competition_task,2022.2.4,143.87185040075676,
positions.xlsx,positions_test.xlsx,positions_test_new.xlsx,stimuli.xlsx,stimuli_new.xlsx,stimuli/Social4.png,stimuli/Social3.png,stimuli/Nonsocial4.png,stimuli/Nonsocial3.png,stimuli/Social2.png,stimuli/Social1.png,stimuli/Nonsocial2.png,stimuli/Nonsocial1.png,cs_pos_ns,"(-0.7, -0.5)",,,,,,,,,0,0,0,0,,,,,,,,,,,,,0,0,0,13,,,,,,,,,,,,,,,,,,,,,,,,,,,,,,,,,,628.4776252999436,9,reward,1,0.7433500000042841,0.743354200036265,629.2275788999395,,,,,,,,,,,,,,,,,,,,,,46,D,2024-05-22_09h21.00.978,attentional_competition_task,2022.2.4,143.87185040075676,
positions.xlsx,positions_test.xlsx,positions_test_new.xlsx,stimuli.xlsx,stimuli_new.xlsx,stimuli/Social4.png,stimuli/Social3.png,stimuli/Nonsocial4.png,stimuli/Nonsocial3.png,stimuli/Social2.png,stimuli/Social1.png,stimuli/Nonsocial2.png,stimuli/Nonsocial1.png,cs_neg_ns,"(0.7, 0.5)",,,,,,,,,0,0,0,0,,,,,,,,,,,,,0,1,1,10,,,,,,,,,,,,,,,,,,,,,,,,,,,,,,,,,,636.5537055999739,6,loss,1,0.5279566999524832,0.5279607999837026,637.0883858999005,,,,,,,,,,,,,,,,,,,,,,46,D,2024-05-22_09h21.00.978,attentional_competition_task,2022.2.4,143.87185040075676,
positions.xlsx,positions_test.xlsx,positions_test_new.xlsx,stimuli.xlsx,stimuli_new.xlsx,stimuli/Social4.png,stimuli/Social3.png,stimuli/Nonsocial4.png,stimuli/Nonsocial3.png,stimuli/Social2.png,stimuli/Social1.png,stimuli/Nonsocial2.png,stimuli/Nonsocial1.png,cs_neg_ns,"(-0.7, 0.5)",,,,,,,,,0,0,0,0,,,,,,,,,,,,,0,2,2,8,,,,,,,,,,,,,,,,,,,,,,,,,,,,,,,,,,644.9144573999802,3,loss,1,0.7779455999843776,0.7779627999989316,645.6991665998939,,,,,,,,,,,,,,,,,,,,,,46,D,2024-05-22_09h21.00.978,attentional_competition_task,2022.2.4,143.87185040075676,
positions.xlsx,positions_test.xlsx,positions_test_new.xlsx,stimuli.xlsx,stimuli_new.xlsx,stimuli/Social4.png,stimuli/Social3.png,stimuli/Nonsocial4.png,stimuli/Nonsocial3.png,stimuli/Social2.png,stimuli/Social1.png,stimuli/Nonsocial2.png,stimuli/Nonsocial1.png,cs_neg_ns,"(0.7, -0.5)",,,,,,,,,0,0,0,0,,,,,,,,,,,,,0,3,3,11,,,,,,,,,,,,,,,,,,,,,,,,,,,,,,,,,,652.9836327999365,3,none,0,,,655.9974394999444,,,,,,,,,,,,,,,,,,,,,,46,D,2024-05-22_09h21.00.978,attentional_competition_task,2022.2.4,143.87185040075676,
positions.xlsx,positions_test.xlsx,positions_test_new.xlsx,stimuli.xlsx,stimuli_new.xlsx,stimuli/Social4.png,stimuli/Social3.png,stimuli/Nonsocial4.png,stimuli/Nonsocial3.png,stimuli/Social2.png,stimuli/Social1.png,stimuli/Nonsocial2.png,stimuli/Nonsocial1.png,cs_pos_s,"(-0.7, -0.5)",,,,,,,,,0,0,0,0,,,,,,,,,,,,,0,4,4,5,,,,,,,,,,,,,,,,,,,,,,,,,,,,,,,,,,663.2679083999246,6,reward,1,0.49324770004022866,0.49325130006764084,663.7678732998902,,,,,,,,,,,,,,,,,,,,,,46,D,2024-05-22_09h21.00.978,attentional_competition_task,2022.2.4,143.87185040075676,
positions.xlsx,positions_test.xlsx,positions_test_new.xlsx,stimuli.xlsx,stimuli_new.xlsx,stimuli/Social4.png,stimuli/Social3.png,stimuli/Nonsocial4.png,stimuli/Nonsocial3.png,stimuli/Social2.png,stimuli/Social1.png,stimuli/Nonsocial2.png,stimuli/Nonsocial1.png,cs_pos_ns,"(-0.7, 0.5)",,,,,,,,,0,0,0,0,,,,,,,,,,,,,0,5,5,12,,,,,,,,,,,,,,,,,,,,,,,,,,,,,,,,,,671.316221899935,9,reward,1,0.5347008999669924,0.5347045999951661,671.8579075000016,,,,,,,,,,,,,,,,,,,,,,46,D,2024-05-22_09h21.00.978,attentional_competition_task,2022.2.4,143.87185040075676,
positions.xlsx,positions_test.xlsx,positions_test_new.xlsx,stimuli.xlsx,stimuli_new.xlsx,stimuli/Social4.png,stimuli/Social3.png,stimuli/Nonsocial4.png,stimuli/Nonsocial3.png,stimuli/Social2.png,stimuli/Social1.png,stimuli/Nonsocial2.png,stimuli/Nonsocial1.png,cs_pos_ns,"(0.7, -0.5)",,,,,,,,,0,0,0,0,,,,,,,,,,,,,0,6,6,15,,,,,,,,,,,,,,,,,,,,,,,,,,,,,,,,,,680.093636799953,9,none,0,,,683.107410299941,,,,,,,,,,,,,,,,,,,,,,46,D,2024-05-22_09h21.00.978,attentional_competition_task,2022.2.4,143.87185040075676,
positions.xlsx,positions_test.xlsx,positions_test_new.xlsx,stimuli.xlsx,stimuli_new.xlsx,stimuli/Social4.png,stimuli/Social3.png,stimuli/Nonsocial4.png,stimuli/Nonsocial3.png,stimuli/Social2.png,stimuli/Social1.png,stimuli/Nonsocial2.png,stimuli/Nonsocial1.png,cs_neg_s,"(-0.7, -0.5)",,,,,,,,,0,0,0,0,,,,,,,,,,,,,0,7,7,1,,,,,,,,,,,,,,,,,,,,,,,,,,,,,,,,,,690.0654680998996,9,none,0,,,693.0722557998961,,,,,,,,,,,,,,,,,,,,,,46,D,2024-05-22_09h21.00.978,attentional_competition_task,2022.2.4,143.87185040075676,
positions.xlsx,positions_test.xlsx,positions_test_new.xlsx,stimuli.xlsx,stimuli_new.xlsx,stimuli/Social4.png,stimuli/Social3.png,stimuli/Nonsocial4.png,stimuli/Nonsocial3.png,stimuli/Social2.png,stimuli/Social1.png,stimuli/Nonsocial2.png,stimuli/Nonsocial1.png,cs_pos_ns,"(0.7, 0.5)",,,,,,,,,0,0,0,0,,,,,,,,,,,,,0,8,8,14,,,,,,,,,,,,,,,,,,,,,,,,,,,,,,,,,,700.5442344999174,12,reward,1,0.6897500000195578,0.695430500083603,701.2525385998888,,,,,,,,,,,,,,,,,,,,,,46,D,2024-05-22_09h21.00.978,attentional_competition_task,2022.2.4,143.87185040075676,
positions.xlsx,positions_test.xlsx,positions_test_new.xlsx,stimuli.xlsx,stimuli_new.xlsx,stimuli/Social4.png,stimuli/Social3.png,stimuli/Nonsocial4.png,stimuli/Nonsocial3.png,stimuli/Social2.png,stimuli/Social1.png,stimuli/Nonsocial2.png,stimuli/Nonsocial1.png,cs_pos_s,"(0.7, 0.5)",,,,,,,,,0,0,0,0,,,,,,,,,,,,,0,9,9,6,,,,,,,,,,,,,,,,,,,,,,,,,,,,,,,,,,709.0160952999722,15,reward,1,0.43049520009662956,0.4304988000076264,709.4535523999948,,,,,,,,,,,,,,,,,,,,,,46,D,2024-05-22_09h21.00.978,attentional_competition_task,2022.2.4,143.87185040075676,
positions.xlsx,positions_test.xlsx,positions_test_new.xlsx,stimuli.xlsx,stimuli_new.xlsx,stimuli/Social4.png,stimuli/Social3.png,stimuli/Nonsocial4.png,stimuli/Nonsocial3.png,stimuli/Social2.png,stimuli/Social1.png,stimuli/Nonsocial2.png,stimuli/Nonsocial1.png,cs_neg_ns,"(-0.7, -0.5)",,,,,,,,,0,0,0,0,,,,,,,,,,,,,0,10,10,9,,,,,,,,,,,,,,,,,,,,,,,,,,,,,,,,,,716.1269202999538,12,loss,1,0.25708040001336485,0.2570844000438228,716.3907799998997,,,,,,,,,,,,,,,,,,,,,,46,D,2024-05-22_09h21.00.978,attentional_competition_task,2022.2.4,143.87185040075676,
positions.xlsx,positions_test.xlsx,positions_test_new.xlsx,stimuli.xlsx,stimuli_new.xlsx,stimuli/Social4.png,stimuli/Social3.png,stimuli/Nonsocial4.png,stimuli/Nonsocial3.png,stimuli/Social2.png,stimuli/Social1.png,stimuli/Nonsocial2.png,stimuli/Nonsocial1.png,cs_neg_s,"(0.7, 0.5)",,,,,,,,,0,0,0,0,,,,,,,,,,,,,0,11,11,2,,,,,,,,,,,,,,,,,,,,,,,,,,,,,,,,,,724.1196832999121,12,none,0,,,727.1334350999678,,,,,,,,,,,,,,,,,,,,,,46,D,2024-05-22_09h21.00.978,attentional_competition_task,2022.2.4,143.87185040075676,
positions.xlsx,positions_test.xlsx,positions_test_new.xlsx,stimuli.xlsx,stimuli_new.xlsx,stimuli/Social4.png,stimuli/Social3.png,stimuli/Nonsocial4.png,stimuli/Nonsocial3.png,stimuli/Social2.png,stimuli/Social1.png,stimuli/Nonsocial2.png,stimuli/Nonsocial1.png,cs_neg_s,"(-0.7, 0.5)",,,,,,,,,0,0,0,0,,,,,,,,,,,,,0,12,12,0,,,,,,,,,,,,,,,,,,,,,,,,,,,,,,,,,,734.7025654999306,12,none,0,,,737.7094214999815,,,,,,,,,,,,,,,,,,,,,,46,D,2024-05-22_09h21.00.978,attentional_competition_task,2022.2.4,143.87185040075676,
positions.xlsx,positions_test.xlsx,positions_test_new.xlsx,stimuli.xlsx,stimuli_new.xlsx,stimuli/Social4.png,stimuli/Social3.png,stimuli/Nonsocial4.png,stimuli/Nonsocial3.png,stimuli/Social2.png,stimuli/Social1.png,stimuli/Nonsocial2.png,stimuli/Nonsocial1.png,cs_pos_s,"(-0.7, 0.5)",,,,,,,,,0,0,0,0,,,,,,,,,,,,,0,13,13,4,,,,,,,,,,,,,,,,,,,,,,,,,,,,,,,,,,744.3688912999351,15,reward,1,0.5488424999639392,0.5488464999943972,744.9243988998933,,,,,,,,,,,,,,,,,,,,,,46,D,2024-05-22_09h21.00.978,attentional_competition_task,2022.2.4,143.87185040075676,
positions.xlsx,positions_test.xlsx,positions_test_new.xlsx,stimuli.xlsx,stimuli_new.xlsx,stimuli/Social4.png,stimuli/Social3.png,stimuli/Nonsocial4.png,stimuli/Nonsocial3.png,stimuli/Social2.png,stimuli/Social1.png,stimuli/Nonsocial2.png,stimuli/Nonsocial1.png,cs_neg_s,"(0.7, -0.5)",,,,,,,,,0,0,0,0,,,,,,,,,,,,,0,14,14,3,,,,,,,,,,,,,,,,,,,,,,,,,,,,,,,,,,752.444910799968,15,none,0,,,755.4587043999927,,,,,,,,,,,,,,,,,,,,,,46,D,2024-05-22_09h21.00.978,attentional_competition_task,2022.2.4,143.87185040075676,
positions.xlsx,positions_test.xlsx,positions_test_new.xlsx,stimuli.xlsx,stimuli_new.xlsx,stimuli/Social4.png,stimuli/Social3.png,stimuli/Nonsocial4.png,stimuli/Nonsocial3.png,stimuli/Social2.png,stimuli/Social1.png,stimuli/Nonsocial2.png,stimuli/Nonsocial1.png,cs_pos_s,"(0.7, -0.5)",,,,,,,,,0,0,0,0,,,,,,,,,,,,,0,15,15,7,,,,,,,,,,,,,,,,,,,,,,,,,,,,,,,,,,763.2084297999972,18,reward,1,0.4790763999335468,0.4857698999112472,763.7013863999164,,,,,,,,,,,,,,,,,,,,,,46,D,2024-05-22_09h21.00.978,attentional_competition_task,2022.2.4,143.87185040075676,
positions.xlsx,positions_test.xlsx,positions_test_new.xlsx,stimuli.xlsx,stimuli_new.xlsx,stimuli/Social4.png,stimuli/Social3.png,stimuli/Nonsocial4.png,stimuli/Nonsocial3.png,stimuli/Social2.png,stimuli/Social1.png,stimuli/Nonsocial2.png,stimuli/Nonsocial1.png,cs_pos_ns,"(-0.7, 0.5)",,,,,,,,,0,0,0,0,,,,,,,,,,,,,1,0,16,12,,,,,,,,,,,,,,,,,,,,,,,,,,,,,,,,,,771.235872099991,21,reward,1,0.6944472000468522,0.6944512999616563,771.9371714999434,,,,,,,,,,,,,,,,,,,,,,46,D,2024-05-22_09h21.00.978,attentional_competition_task,2022.2.4,143.87185040075676,
positions.xlsx,positions_test.xlsx,positions_test_new.xlsx,stimuli.xlsx,stimuli_new.xlsx,stimuli/Social4.png,stimuli/Social3.png,stimuli/Nonsocial4.png,stimuli/Nonsocial3.png,stimuli/Social2.png,stimuli/Social1.png,stimuli/Nonsocial2.png,stimuli/Nonsocial1.png,cs_neg_ns,"(0.7, 0.5)",,,,,,,,,0,0,0,0,,,,,,,,,,,,,1,1,17,10,,,,,,,,,,,,,,,,,,,,,,,,,,,,,,,,,,779.6243854999775,18,loss,1,1.083463400020264,1.0834673999343067,780.7146838000044,,,,,,,,,,,,,,,,,,,,,,46,D,2024-05-22_09h21.00.978,attentional_competition_task,2022.2.4,143.87185040075676,
positions.xlsx,positions_test.xlsx,positions_test_new.xlsx,stimuli.xlsx,stimuli_new.xlsx,stimuli/Social4.png,stimuli/Social3.png,stimuli/Nonsocial4.png,stimuli/Nonsocial3.png,stimuli/Social2.png,stimuli/Social1.png,stimuli/Nonsocial2.png,stimuli/Nonsocial1.png,cs_pos_s,"(-0.7, 0.5)",,,,,,,,,0,0,0,0,,,,,,,,,,,,,1,2,18,4,,,,,,,,,,,,,,,,,,,,,,,,,,,,,,,,,,788.6864991999464,21,reward,1,0.46586620004381984,0.4723616000264883,789.165711699985,,,,,,,,,,,,,,,,,,,,,,46,D,2024-05-22_09h21.00.978,attentional_competition_task,2022.2.4,143.87185040075676,
positions.xlsx,positions_test.xlsx,positions_test_new.xlsx,stimuli.xlsx,stimuli_new.xlsx,stimuli/Social4.png,stimuli/Social3.png,stimuli/Nonsocial4.png,stimuli/Nonsocial3.png,stimuli/Social2.png,stimuli/Social1.png,stimuli/Nonsocial2.png,stimuli/Nonsocial1.png,cs_neg_s,"(-0.7, 0.5)",,,,,,,,,0,0,0,0,,,,,,,,,,,,,1,3,19,0,,,,,,,,,,,,,,,,,,,,,,,,,,,,,,,,,,797.0125769999577,21,none,0,,,800.0263735000044,,,,,,,,,,,,,,,,,,,,,,46,D,2024-05-22_09h21.00.978,attentional_competition_task,2022.2.4,143.87185040075676,
positions.xlsx,positions_test.xlsx,positions_test_new.xlsx,stimuli.xlsx,stimuli_new.xlsx,stimuli/Social4.png,stimuli/Social3.png,stimuli/Nonsocial4.png,stimuli/Nonsocial3.png,stimuli/Social2.png,stimuli/Social1.png,stimuli/Nonsocial2.png,stimuli/Nonsocial1.png,cs_pos_s,"(0.7, -0.5)",,,,,,,,,0,0,0,0,,,,,,,,,,,,,1,4,20,7,,,,,,,,,,,,,,,,,,,,,,,,,,,,,,,,,,807.7413095999509,24,reward,1,0.5210259000305086,0.5210301000624895,808.2691028999398,,,,,,,,,,,,,,,,,,,,,,46,D,2024-05-22_09h21.00.978,attentional_competition_task,2022.2.4,143.87185040075676,
positions.xlsx,positions_test.xlsx,positions_test_new.xlsx,stimuli.xlsx,stimuli_new.xlsx,stimuli/Social4.png,stimuli/Social3.png,stimuli/Nonsocial4.png,stimuli/Nonsocial3.png,stimuli/Social2.png,stimuli/Social1.png,stimuli/Nonsocial2.png,stimuli/Nonsocial1.png,cs_pos_s,"(0.7, 0.5)",,,,,,,,,0,0,0,0,,,,,,,,,,,,,1,5,21,6,,,,,,,,,,,,,,,,,,,,,,,,,,,,,,,,,,815.7895799999824,27,reward,1,0.5000459000002593,0.5000497000291944,816.2965385999996,,,,,,,,,,,,,,,,,,,,,,46,D,2024-05-22_09h21.00.978,attentional_competition_task,2022.2.4,143.87185040075676,
positions.xlsx,positions_test.xlsx,positions_test_new.xlsx,stimuli.xlsx,stimuli_new.xlsx,stimuli/Social4.png,stimuli/Social3.png,stimuli/Nonsocial4.png,stimuli/Nonsocial3.png,stimuli/Social2.png,stimuli/Social1.png,stimuli/Nonsocial2.png,stimuli/Nonsocial1.png,cs_pos_ns,"(0.7, -0.5)",,,,,,,,,0,0,0,0,,,,,,,,,,,,,1,6,22,15,,,,,,,,,,,,,,,,,,,,,,,,,,,,,,,,,,823.8725757999346,30,reward,1,1.3959381999447942,1.3959419999737293,825.2753692999249,,,,,,,,,,,,,,,,,,,,,,46,D,2024-05-22_09h21.00.978,attentional_competition_task,2022.2.4,143.87185040075676,
positions.xlsx,positions_test.xlsx,positions_test_new.xlsx,stimuli.xlsx,stimuli_new.xlsx,stimuli/Social4.png,stimuli/Social3.png,stimuli/Nonsocial4.png,stimuli/Nonsocial3.png,stimuli/Social2.png,stimuli/Social1.png,stimuli/Nonsocial2.png,stimuli/Nonsocial1.png,cs_pos_ns,"(0.7, 0.5)",,,,,,,,,0,0,0,0,,,,,,,,,,,,,1,7,23,14,,,,,,,,,,,,,,,,,,,,,,,,,,,,,,,,,,832.9069766999455,33,reward,1,0.5971167999086902,0.5971207999391481,833.5110962999752,,,,,,,,,,,,,,,,,,,,,,46,D,2024-05-22_09h21.00.978,attentional_competition_task,2022.2.4,143.87185040075676,
positions.xlsx,positions_test.xlsx,positions_test_new.xlsx,stimuli.xlsx,stimuli_new.xlsx,stimuli/Social4.png,stimuli/Social3.png,stimuli/Nonsocial4.png,stimuli/Nonsocial3.png,stimuli/Social2.png,stimuli/Social1.png,stimuli/Nonsocial2.png,stimuli/Nonsocial1.png,cs_neg_ns,"(-0.7, 0.5)",,,,,,,,,0,0,0,0,,,,,,,,,,,,,1,8,24,8,,,,,,,,,,,,,,,,,,,,,,,,,,,,,,,,,,840.2886180999922,33,none,0,,,843.3024053999688,,,,,,,,,,,,,,,,,,,,,,46,D,2024-05-22_09h21.00.978,attentional_competition_task,2022.2.4,143.87185040075676,
positions.xlsx,positions_test.xlsx,positions_test_new.xlsx,stimuli.xlsx,stimuli_new.xlsx,stimuli/Social4.png,stimuli/Social3.png,stimuli/Nonsocial4.png,stimuli/Nonsocial3.png,stimuli/Social2.png,stimuli/Social1.png,stimuli/Nonsocial2.png,stimuli/Nonsocial1.png,cs_neg_s,"(0.7, -0.5)",,,,,,,,,0,0,0,0,,,,,,,,,,,,,1,9,25,3,,,,,,,,,,,,,,,,,,,,,,,,,,,,,,,,,,850.1771223999094,33,none,0,,,853.1839485999662,,,,,,,,,,,,,,,,,,,,,,46,D,2024-05-22_09h21.00.978,attentional_competition_task,2022.2.4,143.87185040075676,
positions.xlsx,positions_test.xlsx,positions_test_new.xlsx,stimuli.xlsx,stimuli_new.xlsx,stimuli/Social4.png,stimuli/Social3.png,stimuli/Nonsocial4.png,stimuli/Nonsocial3.png,stimuli/Social2.png,stimuli/Social1.png,stimuli/Nonsocial2.png,stimuli/Nonsocial1.png,cs_neg_ns,"(-0.7, -0.5)",,,,,,,,,0,0,0,0,,,,,,,,,,,,,1,10,26,9,,,,,,,,,,,,,,,,,,,,,,,,,,,,,,,,,,860.7253167999443,30,loss,1,0.771021299995482,0.7710250000236556,861.5031484999927,,,,,,,,,,,,,,,,,,,,,,46,D,2024-05-22_09h21.00.978,attentional_competition_task,2022.2.4,143.87185040075676,
positions.xlsx,positions_test.xlsx,positions_test_new.xlsx,stimuli.xlsx,stimuli_new.xlsx,stimuli/Social4.png,stimuli/Social3.png,stimuli/Nonsocial4.png,stimuli/Nonsocial3.png,stimuli/Social2.png,stimuli/Social1.png,stimuli/Nonsocial2.png,stimuli/Nonsocial1.png,cs_pos_s,"(-0.7, -0.5)",,,,,,,,,0,0,0,0,,,,,,,,,,,,,1,11,27,5,,,,,,,,,,,,,,,,,,,,,,,,,,,,,,,,,,868.9055217999266,33,reward,1,0.5489658999722451,0.548970100004226,869.4611157999607,,,,,,,,,,,,,,,,,,,,,,46,D,2024-05-22_09h21.00.978,attentional_competition_task,2022.2.4,143.87185040075676,
positions.xlsx,positions_test.xlsx,positions_test_new.xlsx,stimuli.xlsx,stimuli_new.xlsx,stimuli/Social4.png,stimuli/Social3.png,stimuli/Nonsocial4.png,stimuli/Nonsocial3.png,stimuli/Social2.png,stimuli/Social1.png,stimuli/Nonsocial2.png,stimuli/Nonsocial1.png,cs_pos_ns,"(-0.7, -0.5)",,,,,,,,,0,0,0,0,,,,,,,,,,,,,1,12,28,13,,,,,,,,,,,,,,,,,,,,,,,,,,,,,,,,,,876.5788227999583,36,reward,1,1.1946644999552518,1.194668099982664,877.7801664998988,,,,,,,,,,,,,,,,,,,,,,46,D,2024-05-22_09h21.00.978,attentional_competition_task,2022.2.4,143.87185040075676,
positions.xlsx,positions_test.xlsx,positions_test_new.xlsx,stimuli.xlsx,stimuli_new.xlsx,stimuli/Social4.png,stimuli/Social3.png,stimuli/Nonsocial4.png,stimuli/Nonsocial3.png,stimuli/Social2.png,stimuli/Social1.png,stimuli/Nonsocial2.png,stimuli/Nonsocial1.png,cs_neg_ns,"(0.7, -0.5)",,,,,,,,,0,0,0,0,,,,,,,,,,,,,1,13,29,11,,,,,,,,,,,,,,,,,,,,,,,,,,,,,,,,,,885.2660252999049,33,loss,1,0.8750705999555066,0.8750742999836802,886.1478701999877,,,,,,,,,,,,,,,,,,,,,,46,D,2024-05-22_09h21.00.978,attentional_competition_task,2022.2.4,143.87185040075676,
positions.xlsx,positions_test.xlsx,positions_test_new.xlsx,stimuli.xlsx,stimuli_new.xlsx,stimuli/Social4.png,stimuli/Social3.png,stimuli/Nonsocial4.png,stimuli/Nonsocial3.png,stimuli/Social2.png,stimuli/Social1.png,stimuli/Nonsocial2.png,stimuli/Nonsocial1.png,cs_neg_s,"(-0.7, -0.5)",,,,,,,,,0,0,0,0,,,,,,,,,,,,,1,14,30,1,,,,,,,,,,,,,,,,,,,,,,,,,,,,,,,,,,893.3351206999505,30,loss,1,0.270965600037016,0.27098260005004704,893.6128724999726,,,,,,,,,,,,,,,,,,,,,,46,D,2024-05-22_09h21.00.978,attentional_competition_task,2022.2.4,143.87185040075676,
positions.xlsx,positions_test.xlsx,positions_test_new.xlsx,stimuli.xlsx,stimuli_new.xlsx,stimuli/Social4.png,stimuli/Social3.png,stimuli/Nonsocial4.png,stimuli/Nonsocial3.png,stimuli/Social2.png,stimuli/Social1.png,stimuli/Nonsocial2.png,stimuli/Nonsocial1.png,cs_neg_s,"(0.7, 0.5)",,,,,,,,,0,0,0,0,,,,,,,,,,,,,1,15,31,2,,,,,,,,,,,,,,,,,,,,,,,,,,,,,,,,,,901.5708865999477,30,none,0,,,904.5847048999276,,,,,,,,,,,,,,,,,,,,,,46,D,2024-05-22_09h21.00.978,attentional_competition_task,2022.2.4,143.87185040075676,
positions.xlsx,positions_test.xlsx,positions_test_new.xlsx,stimuli.xlsx,stimuli_new.xlsx,stimuli/Social4.png,stimuli/Social3.png,stimuli/Nonsocial4.png,stimuli/Nonsocial3.png,stimuli/Social2.png,stimuli/Social1.png,stimuli/Nonsocial2.png,stimuli/Nonsocial1.png,cs_pos_ns,,,,,,,,,,0,0,0,0,,,,,,,,,,,,,,,,,0,0,0,3,,,,,,,,,,,,,,,,,,,,,,,909.4942254999187,9.0,4.323721699998714,,,,,,,,,,,,,,,,,,,,,,,,,,,,,,,,,46,D,2024-05-22_09h21.00.978,attentional_competition_task,2022.2.4,143.87185040075676,
positions.xlsx,positions_test.xlsx,positions_test_new.xlsx,stimuli.xlsx,stimuli_new.xlsx,stimuli/Social4.png,stimuli/Social3.png,stimuli/Nonsocial4.png,stimuli/Nonsocial3.png,stimuli/Social2.png,stimuli/Social1.png,stimuli/Nonsocial2.png,stimuli/Nonsocial1.png,cs_neg_ns,,,,,,,,,,0,0,0,0,,,,,,,,,,,,,,,,,0,1,1,1,,,,,,,,,,,,,,,,,,,,,,,917.1675416999497,5.0,7.88988979998976,,,,,,,,,,,,,,,,,,,,,,,,,,,,,,,,,46,D,2024-05-22_09h21.00.978,attentional_competition_task,2022.2.4,143.87185040075676,
positions.xlsx,positions_test.xlsx,positions_test_new.xlsx,stimuli.xlsx,stimuli_new.xlsx,stimuli/Social4.png,stimuli/Social3.png,stimuli/Nonsocial4.png,stimuli/Nonsocial3.png,stimuli/Social2.png,stimuli/Social1.png,stimuli/Nonsocial2.png,stimuli/Nonsocial1.png,cs_neg_s,,,,,,,,,,0,0,0,0,,,,,,,,,,,,,,,,,0,2,2,0,,,,,,,,,,,,,,,,,,,,,,,926.7852045999607,3.0,6.057590099982917,,,,,,,,,,,,,,,,,,,,,,,,,,,,,,,,,46,D,2024-05-22_09h21.00.978,attentional_competition_task,2022.2.4,143.87185040075676,
positions.xlsx,positions_test.xlsx,positions_test_new.xlsx,stimuli.xlsx,stimuli_new.xlsx,stimuli/Social4.png,stimuli/Social3.png,stimuli/Nonsocial4.png,stimuli/Nonsocial3.png,stimuli/Social2.png,stimuli/Social1.png,stimuli/Nonsocial2.png,stimuli/Nonsocial1.png,cs_pos_s,,,,,,,,,,0,0,0,0,,,,,,,,,,,,,,,,,0,3,3,2,,,,,,,,,,,,,,,,,,,,,,,933.2085517999949,7.0,1.6136296999175102,,,,,,,,,,,,,,,,,,,,,,,,,,,,,,,,,46,D,2024-05-22_09h21.00.978,attentional_competition_task,2022.2.4,143.87185040075676,
positions.xlsx,positions_test.xlsx,positions_test_new.xlsx,stimuli.xlsx,stimuli_new.xlsx,stimuli/Social4.png,stimuli/Social3.png,stimuli/Nonsocial4.png,stimuli/Nonsocial3.png,stimuli/Social2.png,stimuli/Social1.png,stimuli/Nonsocial2.png,stimuli/Nonsocial1.png,,,"(-0.7, -0.5)",cs_neg_ns,"(-0.7, 0.5)",cs_pos_s,"(0.7, -0.5)",cs_pos_ns,"(0.7, 0.5)",cs_neg_s,0,0,0,0,,,,,,,,,,,,,,,,,,,,,0,0,0,13,,,,,,,,,,,,,,,,,,,,,,,,,,,36,reward,,,,,935.2710260999156,943.8956497999607,943.8956497999607,943.8956497999607,943.8956497999607,0,,,1,0.02955340000335127,0.627253899932839,0,,,0,,,945.0275304999668,945.0275304999668,945.0275304999668,945.0275304999668,46,D,2024-05-22_09h21.00.978,attentional_competition_task,2022.2.4,143.87185040075676,
positions.xlsx,positions_test.xlsx,positions_test_new.xlsx,stimuli.xlsx,stimuli_new.xlsx,stimuli/Social4.png,stimuli/Social3.png,stimuli/Nonsocial4.png,stimuli/Nonsocial3.png,stimuli/Social2.png,stimuli/Social1.png,stimuli/Nonsocial2.png,stimuli/Nonsocial1.png,,,"(-0.7, -0.5)",cs_pos_s,"(-0.7, 0.5)",cs_pos_ns,"(0.7, -0.5)",cs_neg_ns,"(0.7, 0.5)",cs_neg_s,0,0,0,0,,,,,,,,,,,,,,,,,,,,,0,1,1,11,,,,,,,,,,,,,,,,,,,,,,,,,,,45,reward,,,,,,952.8952393999789,952.8952393999789,952.8952393999789,952.8952393999789,0,,,1,0.02556189999449998,0.21220740000717342,0,,,0,,,953.610526299919,953.610526299919,953.610526299919,953.610526299919,46,D,2024-05-22_09h21.00.978,attentional_competition_task,2022.2.4,143.87185040075676,
positions.xlsx,positions_test.xlsx,positions_test_new.xlsx,stimuli.xlsx,stimuli_new.xlsx,stimuli/Social4.png,stimuli/Social3.png,stimuli/Nonsocial4.png,stimuli/Nonsocial3.png,stimuli/Social2.png,stimuli/Social1.png,stimuli/Nonsocial2.png,stimuli/Nonsocial1.png,,,"(-0.7, -0.5)",cs_pos_s,"(-0.7, 0.5)",cs_neg_s,"(0.7, -0.5)",cs_pos_ns,"(0.7, 0.5)",cs_neg_ns,0,0,0,0,,,,,,,,,,,,,,,,,,,,,0,2,2,7,,,,,,,,,,,,,,,,,,,,,,,,,,,51,reward,,,,,,960.8115932999644,960.8115932999644,960.8115932999644,960.8115932999644,1,0.0310278000542894,0.4470984999788925,0,,,0,,,0,,,961.9435280999169,961.9435280999169,961.9435280999169,961.9435280999169,46,D,2024-05-22_09h21.00.978,attentional_competition_task,2022.2.4,143.87185040075676,
positions.xlsx,positions_test.xlsx,positions_test_new.xlsx,stimuli.xlsx,stimuli_new.xlsx,stimuli/Social4.png,stimuli/Social3.png,stimuli/Nonsocial4.png,stimuli/Nonsocial3.png,stimuli/Social2.png,stimuli/Social1.png,stimuli/Nonsocial2.png,stimuli/Nonsocial1.png,,,"(-0.7, -0.5)",cs_pos_ns,"(-0.7, 0.5)",cs_neg_ns,"(0.7, -0.5)",cs_pos_s,"(0.7, 0.5)",cs_neg_s,0,0,0,0,,,,,,,,,,,,,,,,,,,,,0,3,3,20,,,,,,,,,,,,,,,,,,,,,,,,,,,57,reward,,,,,,970.1654180999612,970.1654180999612,970.1654180999612,970.1654180999612,0,,,0,,,1,0.03017119993455708,0.5719110999489203,0,,,971.2348289999645,971.2348289999645,971.2348289999645,971.2348289999645,46,D,2024-05-22_09h21.00.978,attentional_competition_task,2022.2.4,143.87185040075676,
positions.xlsx,positions_test.xlsx,positions_test_new.xlsx,stimuli.xlsx,stimuli_new.xlsx,stimuli/Social4.png,stimuli/Social3.png,stimuli/Nonsocial4.png,stimuli/Nonsocial3.png,stimuli/Social2.png,stimuli/Social1.png,stimuli/Nonsocial2.png,stimuli/Nonsocial1.png,,,"(-0.7, -0.5)",cs_pos_s,"(-0.7, 0.5)",cs_pos_ns,"(0.7, -0.5)",cs_neg_s,"(0.7, 0.5)",cs_neg_ns,0,0,0,0,,,,,,,,,,,,,,,,,,,,,0,4,4,10,,,,,,,,,,,,,,,,,,,,,,,,,,,60,reward,,,,,,979.3525526999729,979.3525526999729,979.3525526999729,979.3525526999729,0,,,1,0.028425700031220913,0.028429699945263565,0,,,0,,,979.3525526999729,979.3525526999729,979.3525526999729,979.3525526999729,46,D,2024-05-22_09h21.00.978,attentional_competition_task,2022.2.4,143.87185040075676,
positions.xlsx,positions_test.xlsx,positions_test_new.xlsx,stimuli.xlsx,stimuli_new.xlsx,stimuli/Social4.png,stimuli/Social3.png,stimuli/Nonsocial4.png,stimuli/Nonsocial3.png,stimuli/Social2.png,stimuli/Social1.png,stimuli/Nonsocial2.png,stimuli/Nonsocial1.png,,,"(-0.7, -0.5)",cs_neg_ns,"(-0.7, 0.5)",cs_pos_s,"(0.7, -0.5)",cs_neg_s,"(0.7, 0.5)",cs_pos_ns,0,0,0,0,,,,,,,,,,,,,,,,,,,,,0,5,5,12,,,,,,,,,,,,,,,,,,,,,,,,,,,57,loss,,,,,,987.42167099996,987.42167099996,987.42167099996,987.42167099996,1,0.023365799919702113,0.14878379995934665,0,,,0,,,0,,,988.0744139999151,988.0744139999151,988.0744139999151,988.0744139999151,46,D,2024-05-22_09h21.00.978,attentional_competition_task,2022.2.4,143.87185040075676,
positions.xlsx,positions_test.xlsx,positions_test_new.xlsx,stimuli.xlsx,stimuli_new.xlsx,stimuli/Social4.png,stimuli/Social3.png,stimuli/Nonsocial4.png,stimuli/Nonsocial3.png,stimuli/Social2.png,stimuli/Social1.png,stimuli/Nonsocial2.png,stimuli/Nonsocial1.png,,,"(-0.7, -0.5)",cs_pos_ns,"(-0.7, 0.5)",cs_neg_s,"(0.7, -0.5)",cs_pos_s,"(0.7, 0.5)",cs_neg_ns,0,0,0,0,,,,,,,,,,,,,,,,,,,,,0,6,6,22,,,,,,,,,,,,,,,,,,,,,,,,,,,60,reward,,,,,,996.775471999892,996.775471999892,996.775471999892,996.775471999892,0,,,0,,,1,0.025231100036762655,0.052484999992884696,0,,,997.3310146000003,997.3310146000003,997.3310146000003,997.3310146000003,46,D,2024-05-22_09h21.00.978,attentional_competition_task,2022.2.4,143.87185040075676,
positions.xlsx,positions_test.xlsx,positions_test_new.xlsx,stimuli.xlsx,stimuli_new.xlsx,stimuli/Social4.png,stimuli/Social3.png,stimuli/Nonsocial4.png,stimuli/Nonsocial3.png,stimuli/Social2.png,stimuli/Social1.png,stimuli/Nonsocial2.png,stimuli/Nonsocial1.png,,,"(-0.7, -0.5)",cs_neg_ns,"(-0.7, 0.5)",cs_pos_ns,"(0.7, -0.5)",cs_pos_s,"(0.7, 0.5)",cs_neg_s,0,0,0,0,,,,,,,,,,,,,,,,,,,,,0,7,7,16,,,,,,,,,,,,,,,,,,,,,,,,,,,63,reward,,,,,,1005.6779011999024,1005.6779011999024,1005.6779011999024,1005.6779011999024,0,,,1,0.023610299918800592,0.023626299924217165,0,,,0,,,1005.6779011999024,1005.6779011999024,1005.6779011999024,1005.6779011999024,46,D,2024-05-22_09h21.00.978,attentional_competition_task,2022.2.4,143.87185040075676,
positions.xlsx,positions_test.xlsx,positions_test_new.xlsx,stimuli.xlsx,stimuli_new.xlsx,stimuli/Social4.png,stimuli/Social3.png,stimuli/Nonsocial4.png,stimuli/Nonsocial3.png,stimuli/Social2.png,stimuli/Social1.png,stimuli/Nonsocial2.png,stimuli/Nonsocial1.png,,,"(-0.7, -0.5)",cs_neg_ns,"(-0.7, 0.5)",cs_neg_s,"(0.7, -0.5)",cs_pos_s,"(0.7, 0.5)",cs_pos_ns,0,0,0,0,,,,,,,,,,,,,,,,,,,,,0,8,8,14,,,,,,,,,,,,,,,,,,,,,,,,,,,66,loss,,,,,,1013.4623293000041,1013.4623293000041,1013.4623293000041,1013.4623293000041,1,0.024365499964915216,0.02436949999537319,0,,,0,,,0,,,1013.4623293000041,1013.4623293000041,1013.4623293000041,1013.4623293000041,46,D,2024-05-22_09h21.00.978,attentional_competition_task,2022.2.4,143.87185040075676,
positions.xlsx,positions_test.xlsx,positions_test_new.xlsx,stimuli.xlsx,stimuli_new.xlsx,stimuli/Social4.png,stimuli/Social3.png,stimuli/Nonsocial4.png,stimuli/Nonsocial3.png,stimuli/Social2.png,stimuli/Social1.png,stimuli/Nonsocial2.png,stimuli/Nonsocial1.png,,,"(-0.7, -0.5)",cs_pos_ns,"(-0.7, 0.5)",cs_neg_s,"(0.7, -0.5)",cs_neg_ns,"(0.7, 0.5)",cs_pos_s,0,0,0,0,,,,,,,,,,,,,,,,,,,,,0,9,9,23,,,,,,,,,,,,,,,,,,,,,,,,,,,66,loss,,,,,,1021.080032799975,1021.080032799975,1021.080032799975,1021.080032799975,0,,,0,,,1,0.266320199938491,0.2731878999620676,1,0.03151359991170466,0.2530587000073865,1021.3508543999633,1021.3508543999633,1021.3508543999633,1021.3508543999633,46,D,2024-05-22_09h21.00.978,attentional_competition_task,2022.2.4,143.87185040075676,
positions.xlsx,positions_test.xlsx,positions_test_new.xlsx,stimuli.xlsx,stimuli_new.xlsx,stimuli/Social4.png,stimuli/Social3.png,stimuli/Nonsocial4.png,stimuli/Nonsocial3.png,stimuli/Social2.png,stimuli/Social1.png,stimuli/Nonsocial2.png,stimuli/Nonsocial1.png,,,"(-0.7, -0.5)",cs_neg_s,"(-0.7, 0.5)",cs_pos_s,"(0.7, -0.5)",cs_pos_ns,"(0.7, 0.5)",cs_neg_ns,0,0,0,0,,,,,,,,,,,,,,,,,,,,,0,10,10,1,,,,,,,,,,,,,,,,,,,,,,,,,,,69,reward,,,,,,1030.5865921999793,1030.5865921999793,1030.5865921999793,1030.5865921999793,0,,,0,,,1,0.025804599979892373,0.2957314000232145,1,0.3236826000502333,0.47636640002019703,1031.60048179992,1031.60048179992,1031.60048179992,1031.60048179992,46,D,2024-05-22_09h21.00.978,attentional_competition_task,2022.2.4,143.87185040075676,
positions.xlsx,positions_test.xlsx,positions_test_new.xlsx,stimuli.xlsx,stimuli_new.xlsx,stimuli/Social4.png,stimuli/Social3.png,stimuli/Nonsocial4.png,stimuli/Nonsocial3.png,stimuli/Social2.png,stimuli/Social1.png,stimuli/Nonsocial2.png,stimuli/Nonsocial1.png,,,"(-0.7, -0.5)",cs_neg_ns,"(-0.7, 0.5)",cs_neg_s,"(0.7, -0.5)",cs_pos_ns,"(0.7, 0.5)",cs_pos_s,0,0,0,0,,,,,,,,,,,,,,,,,,,,,0,11,11,15,,,,,,,,,,,,,,,,,,,,,,,,,,,69,loss,,,,,,1039.5098614000017,1039.5098614000017,1039.5098614000017,1039.5098614000017,1,0.3696185000007972,0.3696221000282094,0,,,0,,,1,0.028332200017757714,0.28700340003706515,1039.8849285999313,1039.8849285999313,1039.8849285999313,1039.8849285999313,46,D,2024-05-22_09h21.00.978,attentional_competition_task,2022.2.4,143.87185040075676,
positions.xlsx,positions_test.xlsx,positions_test_new.xlsx,stimuli.xlsx,stimuli_new.xlsx,stimuli/Social4.png,stimuli/Social3.png,stimuli/Nonsocial4.png,stimuli/Nonsocial3.png,stimuli/Social2.png,stimuli/Social1.png,stimuli/Nonsocial2.png,stimuli/Nonsocial1.png,,,"(-0.7, -0.5)",cs_neg_s,"(-0.7, 0.5)",cs_neg_ns,"(0.7, -0.5)",cs_pos_s,"(0.7, 0.5)",cs_pos_ns,0,0,0,0,,,,,,,,,,,,,,,,,,,,,0,12,12,2,,,,,,,,,,,,,,,,,,,,,,,,,,,75,reward,,,,,,1048.349831599975,1048.349831599975,1048.349831599975,1048.349831599975,0,,,0,,,1,0.028901099925860763,0.2880182999651879,1,0.308930299943313,0.31636739999521524,1048.669235899928,1048.669235899928,1048.669235899928,1048.669235899928,46,D,2024-05-22_09h21.00.978,attentional_competition_task,2022.2.4,143.87185040075676,
positions.xlsx,positions_test.xlsx,positions_test_new.xlsx,stimuli.xlsx,stimuli_new.xlsx,stimuli/Social4.png,stimuli/Social3.png,stimuli/Nonsocial4.png,stimuli/Nonsocial3.png,stimuli/Social2.png,stimuli/Social1.png,stimuli/Nonsocial2.png,stimuli/Nonsocial1.png,,,"(-0.7, -0.5)",cs_pos_ns,"(-0.7, 0.5)",cs_pos_s,"(0.7, -0.5)",cs_neg_ns,"(0.7, 0.5)",cs_neg_s,0,0,0,0,,,,,,,,,,,,,,,,,,,,,0,13,13,18,,,,,,,,,,,,,,,,,,,,,,,,,,,84,reward,,,,,,1056.6689269999042,1056.6689269999042,1056.6689269999042,1056.6689269999042,1,0.02293059998191893,0.1427990000229329,0,,,0,,,0,,,1057.3216930999188,1057.3216930999188,1057.3216930999188,1057.3216930999188,46,D,2024-05-22_09h21.00.978,attentional_competition_task,2022.2.4,143.87185040075676,
positions.xlsx,positions_test.xlsx,positions_test_new.xlsx,stimuli.xlsx,stimuli_new.xlsx,stimuli/Social4.png,stimuli/Social3.png,stimuli/Nonsocial4.png,stimuli/Nonsocial3.png,stimuli/Social2.png,stimuli/Social1.png,stimuli/Nonsocial2.png,stimuli/Nonsocial1.png,,,"(-0.7, -0.5)",cs_pos_ns,"(-0.7, 0.5)",cs_neg_ns,"(0.7, -0.5)",cs_neg_s,"(0.7, 0.5)",cs_pos_s,0,0,0,0,,,,,,,,,,,,,,,,,,,,,0,14,14,21,,,,,,,,,,,,,,,,,,,,,,,,,,,90,reward,,,,,,1064.0574899999192,1064.0574899999192,1064.0574899999192,1064.0574899999192,0,,,0,,,0,,,1,0.029853399959392846,0.8715101999696344,1065.4324671999784,1065.4324671999784,1065.4324671999784,1065.4324671999784,46,D,2024-05-22_09h21.00.978,attentional_competition_task,2022.2.4,143.87185040075676,
positions.xlsx,positions_test.xlsx,positions_test_new.xlsx,stimuli.xlsx,stimuli_new.xlsx,stimuli/Social4.png,stimuli/Social3.png,stimuli/Nonsocial4.png,stimuli/Nonsocial3.png,stimuli/Social2.png,stimuli/Social1.png,stimuli/Nonsocial2.png,stimuli/Nonsocial1.png,,,"(-0.7, -0.5)",cs_pos_s,"(-0.7, 0.5)",cs_neg_s,"(0.7, -0.5)",cs_neg_ns,"(0.7, 0.5)",cs_pos_ns,0,0,0,0,,,,,,,,,,,,,,,,,,,,,0,15,15,6,,,,,,,,,,,,,,,,,,,,,,,,,,,87,loss,,,,,,1072.70994719991,1072.70994719991,1072.70994719991,1072.70994719991,1,0.02876979997381568,0.2928241000045091,0,,,1,0.36954579991288483,0.369549399940297,0,,,1073.0849295998923,1073.0849295998923,1073.0849295998923,1073.0849295998923,46,D,2024-05-22_09h21.00.978,attentional_competition_task,2022.2.4,143.87185040075676,
positions.xlsx,positions_test.xlsx,positions_test_new.xlsx,stimuli.xlsx,stimuli_new.xlsx,stimuli/Social4.png,stimuli/Social3.png,stimuli/Nonsocial4.png,stimuli/Nonsocial3.png,stimuli/Social2.png,stimuli/Social1.png,stimuli/Nonsocial2.png,stimuli/Nonsocial1.png,,,"(-0.7, -0.5)",cs_neg_s,"(-0.7, 0.5)",cs_pos_s,"(0.7, -0.5)",cs_neg_ns,"(0.7, 0.5)",cs_pos_ns,0,0,0,0,,,,,,,,,,,,,,,,,,,,,0,16,16,0,,,,,,,,,,,,,,,,,,,,,,,,,,,96,reward,,,,,,1082.3762319999514,1082.3762319999514,1082.3762319999514,1082.3762319999514,0,,,0,,,0,,,1,0.030293099931441247,0.030296799959614873,1082.3762319999514,1082.3762319999514,1082.3762319999514,1082.3762319999514,46,D,2024-05-22_09h21.00.978,attentional_competition_task,2022.2.4,143.87185040075676,
positions.xlsx,positions_test.xlsx,positions_test_new.xlsx,stimuli.xlsx,stimuli_new.xlsx,stimuli/Social4.png,stimuli/Social3.png,stimuli/Nonsocial4.png,stimuli/Nonsocial3.png,stimuli/Social2.png,stimuli/Social1.png,stimuli/Nonsocial2.png,stimuli/Nonsocial1.png,,,"(-0.7, -0.5)",cs_neg_ns,"(-0.7, 0.5)",cs_pos_ns,"(0.7, -0.5)",cs_neg_s,"(0.7, 0.5)",cs_pos_s,0,0,0,0,,,,,,,,,,,,,,,,,,,,,0,17,17,17,,,,,,,,,,,,,,,,,,,,,,,,,,,105,reward,,,,,,1090.3828465999104,1090.3828465999104,1090.3828465999104,1090.3828465999104,0,,,1,0.02288179995957762,0.2880216999910772,0,,,2,0.37893410003744066,0.38587599992752075,1091.2995316999732,1091.2995316999732,1091.2995316999732,1091.2995316999732,46,D,2024-05-22_09h21.00.978,attentional_competition_task,2022.2.4,143.87185040075676,
positions.xlsx,positions_test.xlsx,positions_test_new.xlsx,stimuli.xlsx,stimuli_new.xlsx,stimuli/Social4.png,stimuli/Social3.png,stimuli/Nonsocial4.png,stimuli/Nonsocial3.png,stimuli/Social2.png,stimuli/Social1.png,stimuli/Nonsocial2.png,stimuli/Nonsocial1.png,,,"(-0.7, -0.5)",cs_pos_s,"(-0.7, 0.5)",cs_neg_ns,"(0.7, -0.5)",cs_neg_s,"(0.7, 0.5)",cs_pos_ns,0,0,0,0,,,,,,,,,,,,,,,,,,,,,0,18,18,8,,,,,,,,,,,,,,,,,,,,,,,,,,,108,reward,,,,,,1099.528375599999,1099.528375599999,1099.528375599999,1099.528375599999,1,0.029121399973519146,0.11323189991526306,0,,,0,,,1,0.17649440001696348,0.17649779992643744,1100.2019242999377,1100.2019242999377,1100.2019242999377,1100.2019242999377,46,D,2024-05-22_09h21.00.978,attentional_competition_task,2022.2.4,143.87185040075676,
positions.xlsx,positions_test.xlsx,positions_test_new.xlsx,stimuli.xlsx,stimuli_new.xlsx,stimuli/Social4.png,stimuli/Social3.png,stimuli/Nonsocial4.png,stimuli/Nonsocial3.png,stimuli/Social2.png,stimuli/Social1.png,stimuli/Nonsocial2.png,stimuli/Nonsocial1.png,,,"(-0.7, -0.5)",cs_pos_s,"(-0.7, 0.5)",cs_neg_ns,"(0.7, -0.5)",cs_pos_ns,"(0.7, 0.5)",cs_neg_s,0,0,0,0,,,,,,,,,,,,,,,,,,,,,0,19,19,9,,,,,,,,,,,,,,,,,,,,,,,,,,,114,reward,,,,,,1107.5488501999062,1107.5488501999062,1107.5488501999062,1107.5488501999062,1,0.02969999995548278,0.8843067999696359,0,,,0,,,0,,,1108.9376804999774,1108.9376804999774,1108.9376804999774,1108.9376804999774,46,D,2024-05-22_09h21.00.978,attentional_competition_task,2022.2.4,143.87185040075676,
positions.xlsx,positions_test.xlsx,positions_test_new.xlsx,stimuli.xlsx,stimuli_new.xlsx,stimuli/Social4.png,stimuli/Social3.png,stimuli/Nonsocial4.png,stimuli/Nonsocial3.png,stimuli/Social2.png,stimuli/Social1.png,stimuli/Nonsocial2.png,stimuli/Nonsocial1.png,,,"(-0.7, -0.5)",cs_neg_s,"(-0.7, 0.5)",cs_pos_ns,"(0.7, -0.5)",cs_pos_s,"(0.7, 0.5)",cs_neg_ns,0,0,0,0,,,,,,,,,,,,,,,,,,,,,0,20,20,4,,,,,,,,,,,,,,,,,,,,,,,,,,,108,loss,,,,,,1116.9651168999262,1116.9651168999262,1116.9651168999262,1116.9651168999262,0,,,0,,,1,0.14969320001546293,0.19767669995781034,1,0.024731399957090616,0.13536429998930544,1117.6664892999688,1117.6664892999688,1117.6664892999688,1117.6664892999688,46,D,2024-05-22_09h21.00.978,attentional_competition_task,2022.2.4,143.87185040075676,
positions.xlsx,positions_test.xlsx,positions_test_new.xlsx,stimuli.xlsx,stimuli_new.xlsx,stimuli/Social4.png,stimuli/Social3.png,stimuli/Nonsocial4.png,stimuli/Nonsocial3.png,stimuli/Social2.png,stimuli/Social1.png,stimuli/Nonsocial2.png,stimuli/Nonsocial1.png,,,"(-0.7, -0.5)",cs_neg_s,"(-0.7, 0.5)",cs_neg_ns,"(0.7, -0.5)",cs_pos_ns,"(0.7, 0.5)",cs_pos_s,0,0,0,0,,,,,,,,,,,,,,,,,,,,,0,21,21,3,,,,,,,,,,,,,,,,,,,,,,,,,,,102,loss,,,,,,1125.5134389000013,1125.5134389000013,1125.5134389000013,1125.5134389000013,1,0.03049130004364997,0.28029510006308556,1,0.2944233000744134,0.2944271999876946,0,,,0,,,1125.8050579999108,1125.8050579999108,1125.8050579999108,1125.8050579999108,46,D,2024-05-22_09h21.00.978,attentional_competition_task,2022.2.4,143.87185040075676,
positions.xlsx,positions_test.xlsx,positions_test_new.xlsx,stimuli.xlsx,stimuli_new.xlsx,stimuli/Social4.png,stimuli/Social3.png,stimuli/Nonsocial4.png,stimuli/Nonsocial3.png,stimuli/Social2.png,stimuli/Social1.png,stimuli/Nonsocial2.png,stimuli/Nonsocial1.png,,,"(-0.7, -0.5)",cs_pos_ns,"(-0.7, 0.5)",cs_pos_s,"(0.7, -0.5)",cs_neg_s,"(0.7, 0.5)",cs_neg_ns,0,0,0,0,,,,,,,,,,,,,,,,,,,,,0,22,22,19,,,,,,,,,,,,,,,,,,,,,,,,,,,93,loss,,,,,,1135.728313999949,1135.728313999949,1135.728313999949,1135.728313999949,0,,,0,,,0,,,1,0.023671300034038723,0.0236749000614509,1135.728313999949,1135.728313999949,1135.728313999949,1135.728313999949,46,D,2024-05-22_09h21.00.978,attentional_competition_task,2022.2.4,143.87185040075676,
positions.xlsx,positions_test.xlsx,positions_test_new.xlsx,stimuli.xlsx,stimuli_new.xlsx,stimuli/Social4.png,stimuli/Social3.png,stimuli/Nonsocial4.png,stimuli/Nonsocial3.png,stimuli/Social2.png,stimuli/Social1.png,stimuli/Nonsocial2.png,stimuli/Nonsocial1.png,,,"(-0.7, -0.5)",cs_neg_s,"(-0.7, 0.5)",cs_pos_ns,"(0.7, -0.5)",cs_neg_ns,"(0.7, 0.5)",cs_pos_s,0,0,0,0,,,,,,,,,,,,,,,,,,,,,0,23,23,5,,,,,,,,,,,,,,,,,,,,,,,,,,,99,reward,,,,,,1143.5682393999305,1143.5682393999305,1143.5682393999305,1143.5682393999305,0,,,1,0.029354400001466274,0.0853311000391841,0,,,0,,,1144.158498799894,1144.158498799894,1144.158498799894,1144.158498799894,46,D,2024-05-22_09h21.00.978,attentional_competition_task,2022.2.4,143.87185040075676,
positions.xlsx,positions_test.xlsx,positions_test_new.xlsx,stimuli.xlsx,stimuli_new.xlsx,stimuli/Social4.png,stimuli/Social3.png,stimuli/Nonsocial4.png,stimuli/Nonsocial3.png,stimuli/Social2.png,stimuli/Social1.png,stimuli/Nonsocial2.png,stimuli/Nonsocial1.png,,,"(-0.7, -0.5)",cs_neg_ns,"(-0.7, 0.5)",cs_neg_s,"(0.7, -0.5)",cs_pos_ns,"(0.7, 0.5)",cs_pos_s,0,0,0,0,,,,,,,,,,,,,,,,,,,,,1,0,24,15,,,,,,,,,,,,,,,,,,,,,,,,,,,90,loss,,,,,,1151.442963999929,1151.442963999929,1151.442963999929,1151.442963999929,1,0.025184900034219027,0.15590720006730407,0,,,0,,,0,,,1152.102625999949,1152.102625999949,1152.102625999949,1152.102625999949,46,D,2024-05-22_09h21.00.978,attentional_competition_task,2022.2.4,143.87185040075676,
positions.xlsx,positions_test.xlsx,positions_test_new.xlsx,stimuli.xlsx,stimuli_new.xlsx,stimuli/Social4.png,stimuli/Social3.png,stimuli/Nonsocial4.png,stimuli/Nonsocial3.png,stimuli/Social2.png,stimuli/Social1.png,stimuli/Nonsocial2.png,stimuli/Nonsocial1.png,,,"(-0.7, -0.5)",cs_neg_ns,"(-0.7, 0.5)",cs_pos_s,"(0.7, -0.5)",cs_pos_ns,"(0.7, 0.5)",cs_neg_s,0,0,0,0,,,,,,,,,,,,,,,,,,,,,1,1,25,13,,,,,,,,,,,,,,,,,,,,,,,,,,,96,reward,,,,,,1159.3384518999374,1159.3384518999374,1159.3384518999374,1159.3384518999374,0,,,1,0.02982599998358637,0.3493199999211356,0,,,0,,,1160.192581399926,1160.192581399926,1160.192581399926,1160.192581399926,46,D,2024-05-22_09h21.00.978,attentional_competition_task,2022.2.4,143.87185040075676,
positions.xlsx,positions_test.xlsx,positions_test_new.xlsx,stimuli.xlsx,stimuli_new.xlsx,stimuli/Social4.png,stimuli/Social3.png,stimuli/Nonsocial4.png,stimuli/Nonsocial3.png,stimuli/Social2.png,stimuli/Social1.png,stimuli/Nonsocial2.png,stimuli/Nonsocial1.png,,,"(-0.7, -0.5)",cs_pos_s,"(-0.7, 0.5)",cs_neg_ns,"(0.7, -0.5)",cs_neg_s,"(0.7, 0.5)",cs_pos_ns,0,0,0,0,,,,,,,,,,,,,,,,,,,,,1,2,26,8,,,,,,,,,,,,,,,,,,,,,,,,,,,96,reward,,,,,,1167.5047917999327,1167.5047917999327,1167.5047917999327,1167.5047917999327,1,0.02510570001322776,0.025109700043685734,0,,,0,,,0,,,1167.5047917999327,1167.5047917999327,1167.5047917999327,1167.5047917999327,46,D,2024-05-22_09h21.00.978,attentional_competition_task,2022.2.4,143.87185040075676,
positions.xlsx,positions_test.xlsx,positions_test_new.xlsx,stimuli.xlsx,stimuli_new.xlsx,stimuli/Social4.png,stimuli/Social3.png,stimuli/Nonsocial4.png,stimuli/Nonsocial3.png,stimuli/Social2.png,stimuli/Social1.png,stimuli/Nonsocial2.png,stimuli/Nonsocial1.png,,,"(-0.7, -0.5)",cs_pos_ns,"(-0.7, 0.5)",cs_pos_s,"(0.7, -0.5)",cs_neg_ns,"(0.7, 0.5)",cs_neg_s,0,0,0,0,,,,,,,,,,,,,,,,,,,,,1,3,27,18,,,,,,,,,,,,,,,,,,,,,,,,,,,99,reward,,,,,,1176.4141819999786,1176.4141819999786,1176.4141819999786,1176.4141819999786,1,0.024509100010618567,0.02451320004183799,0,,,0,,,0,,,1176.4141819999786,1176.4141819999786,1176.4141819999786,1176.4141819999786,46,D,2024-05-22_09h21.00.978,attentional_competition_task,2022.2.4,143.87185040075676,
positions.xlsx,positions_test.xlsx,positions_test_new.xlsx,stimuli.xlsx,stimuli_new.xlsx,stimuli/Social4.png,stimuli/Social3.png,stimuli/Nonsocial4.png,stimuli/Nonsocial3.png,stimuli/Social2.png,stimuli/Social1.png,stimuli/Nonsocial2.png,stimuli/Nonsocial1.png,,,"(-0.7, -0.5)",cs_pos_ns,"(-0.7, 0.5)",cs_neg_ns,"(0.7, -0.5)",cs_neg_s,"(0.7, 0.5)",cs_pos_s,0,0,0,0,,,,,,,,,,,,,,,,,,,,,1,4,28,21,,,,,,,,,,,,,,,,,,,,,,,,,,,105,reward,,,,,,1184.4971840999788,1184.4971840999788,1184.4971840999788,1184.4971840999788,0,,,0,,,0,,,1,0.029924699920229614,0.3155785999260843,1185.3165838998975,1185.3165838998975,1185.3165838998975,1185.3165838998975,46,D,2024-05-22_09h21.00.978,attentional_competition_task,2022.2.4,143.87185040075676,
positions.xlsx,positions_test.xlsx,positions_test_new.xlsx,stimuli.xlsx,stimuli_new.xlsx,stimuli/Social4.png,stimuli/Social3.png,stimuli/Nonsocial4.png,stimuli/Nonsocial3.png,stimuli/Social2.png,stimuli/Social1.png,stimuli/Nonsocial2.png,stimuli/Nonsocial1.png,,,"(-0.7, -0.5)",cs_neg_ns,"(-0.7, 0.5)",cs_pos_ns,"(0.7, -0.5)",cs_neg_s,"(0.7, 0.5)",cs_pos_s,0,0,0,0,,,,,,,,,,,,,,,,,,,,,1,5,29,17,,,,,,,,,,,,,,,,,,,,,,,,,,,111,reward,,,,,,1193.149615699891,1193.149615699891,1193.149615699891,1193.149615699891,0,,,1,0.030156000051647425,0.30241150001529604,0,,,0,,,1193.9551327999216,1193.9551327999216,1193.9551327999216,1193.9551327999216,46,D,2024-05-22_09h21.00.978,attentional_competition_task,2022.2.4,143.87185040075676,
positions.xlsx,positions_test.xlsx,positions_test_new.xlsx,stimuli.xlsx,stimuli_new.xlsx,stimuli/Social4.png,stimuli/Social3.png,stimuli/Nonsocial4.png,stimuli/Nonsocial3.png,stimuli/Social2.png,stimuli/Social1.png,stimuli/Nonsocial2.png,stimuli/Nonsocial1.png,,,"(-0.7, -0.5)",cs_pos_s,"(-0.7, 0.5)",cs_neg_s,"(0.7, -0.5)",cs_pos_ns,"(0.7, 0.5)",cs_neg_ns,0,0,0,0,,,,,,,,,,,,,,,,,,,,,1,6,30,7,,,,,,,,,,,,,,,,,,,,,,,,,,,105,loss,,,,,,1200.8715269999811,1200.8715269999811,1200.8715269999811,1200.8715269999811,0,,,1,0.029530299943871796,0.960442699957639,0,,,0,,,1202.329799799947,1202.329799799947,1202.329799799947,1202.329799799947,46,D,2024-05-22_09h21.00.978,attentional_competition_task,2022.2.4,143.87185040075676,
positions.xlsx,positions_test.xlsx,positions_test_new.xlsx,stimuli.xlsx,stimuli_new.xlsx,stimuli/Social4.png,stimuli/Social3.png,stimuli/Nonsocial4.png,stimuli/Nonsocial3.png,stimuli/Social2.png,stimuli/Social1.png,stimuli/Nonsocial2.png,stimuli/Nonsocial1.png,,,"(-0.7, -0.5)",cs_pos_s,"(-0.7, 0.5)",cs_pos_ns,"(0.7, -0.5)",cs_neg_s,"(0.7, 0.5)",cs_neg_ns,0,0,0,0,,,,,,,,,,,,,,,,,,,,,1,7,31,10,,,,,,,,,,,,,,,,,,,,,,,,,,,111,reward,,,,,,1209.5725615998963,1209.5725615998963,1209.5725615998963,1209.5725615998963,0,,,1,0.021997599978931248,0.022001100005581975,0,,,0,,,1209.5725615998963,1209.5725615998963,1209.5725615998963,1209.5725615998963,46,D,2024-05-22_09h21.00.978,attentional_competition_task,2022.2.4,143.87185040075676,
positions.xlsx,positions_test.xlsx,positions_test_new.xlsx,stimuli.xlsx,stimuli_new.xlsx,stimuli/Social4.png,stimuli/Social3.png,stimuli/Nonsocial4.png,stimuli/Nonsocial3.png,stimuli/Social2.png,stimuli/Social1.png,stimuli/Nonsocial2.png,stimuli/Nonsocial1.png,,,"(-0.7, -0.5)",cs_neg_ns,"(-0.7, 0.5)",cs_pos_s,"(0.7, -0.5)",cs_neg_s,"(0.7, 0.5)",cs_pos_ns,0,0,0,0,,,,,,,,,,,,,,,,,,,,,1,8,32,12,,,,,,,,,,,,,,,,,,,,,,,,,,,108,loss,,,,,,1218.4957993999124,1218.4957993999124,1218.4957993999124,1218.4957993999124,1,0.022395099978893995,0.23858839995227754,0,,,0,,,0,,,1219.2527083999012,1219.2527083999012,1219.2527083999012,1219.2527083999012,46,D,2024-05-22_09h21.00.978,attentional_competition_task,2022.2.4,143.87185040075676,
positions.xlsx,positions_test.xlsx,positions_test_new.xlsx,stimuli.xlsx,stimuli_new.xlsx,stimuli/Social4.png,stimuli/Social3.png,stimuli/Nonsocial4.png,stimuli/Nonsocial3.png,stimuli/Social2.png,stimuli/Social1.png,stimuli/Nonsocial2.png,stimuli/Nonsocial1.png,,,"(-0.7, -0.5)",cs_pos_ns,"(-0.7, 0.5)",cs_neg_s,"(0.7, -0.5)",cs_neg_ns,"(0.7, 0.5)",cs_pos_s,0,0,0,0,,,,,,,,,,,,,,,,,,,,,1,9,33,23,,,,,,,,,,,,,,,,,,,,,,,,,,,105,loss,,,,,,1227.5927043999545,1227.5927043999545,1227.5927043999545,1227.5927043999545,0,,,0,,,0,,,0,,,1228.1482204999775,1228.1482204999775,1228.1482204999775,1228.1482204999775,46,D,2024-05-22_09h21.00.978,attentional_competition_task,2022.2.4,143.87185040075676,
positions.xlsx,positions_test.xlsx,positions_test_new.xlsx,stimuli.xlsx,stimuli_new.xlsx,stimuli/Social4.png,stimuli/Social3.png,stimuli/Nonsocial4.png,stimuli/Nonsocial3.png,stimuli/Social2.png,stimuli/Social1.png,stimuli/Nonsocial2.png,stimuli/Nonsocial1.png,,,"(-0.7, -0.5)",cs_pos_s,"(-0.7, 0.5)",cs_pos_ns,"(0.7, -0.5)",cs_neg_ns,"(0.7, 0.5)",cs_neg_s,0,0,0,0,,,,,,,,,,,,,,,,,,,,,1,10,34,11,,,,,,,,,,,,,,,,,,,,,,,,,,,114,reward,,,,,,1235.43959799991,1235.43959799991,1235.43959799991,1235.43959799991,0,,,1,0.03216369997244328,0.06488810002338141,0,,,0,,,1236.0020533999195,1236.0020533999195,1236.0020533999195,1236.0020533999195,46,D,2024-05-22_09h21.00.978,attentional_competition_task,2022.2.4,143.87185040075676,
positions.xlsx,positions_test.xlsx,positions_test_new.xlsx,stimuli.xlsx,stimuli_new.xlsx,stimuli/Social4.png,stimuli/Social3.png,stimuli/Nonsocial4.png,stimuli/Nonsocial3.png,stimuli/Social2.png,stimuli/Social1.png,stimuli/Nonsocial2.png,stimuli/Nonsocial1.png,,,"(-0.7, -0.5)",cs_pos_ns,"(-0.7, 0.5)",cs_pos_s,"(0.7, -0.5)",cs_neg_s,"(0.7, 0.5)",cs_neg_ns,0,0,0,0,,,,,,,,,,,,,,,,,,,,,1,11,35,19,,,,,,,,,,,,,,,,,,,,,,,,,,,123,reward,,,,,,1243.828249599901,1243.828249599901,1243.828249599901,1243.828249599901,1,0.031552899978123605,0.35095200000796467,1,0.37897369998972863,0.37897760001942515,0,,,0,,,1244.6961877999129,1244.6961877999129,1244.6961877999129,1244.6961877999129,46,D,2024-05-22_09h21.00.978,attentional_competition_task,2022.2.4,143.87185040075676,
positions.xlsx,positions_test.xlsx,positions_test_new.xlsx,stimuli.xlsx,stimuli_new.xlsx,stimuli/Social4.png,stimuli/Social3.png,stimuli/Nonsocial4.png,stimuli/Nonsocial3.png,stimuli/Social2.png,stimuli/Social1.png,stimuli/Nonsocial2.png,stimuli/Nonsocial1.png,,,"(-0.7, -0.5)",cs_neg_s,"(-0.7, 0.5)",cs_neg_ns,"(0.7, -0.5)",cs_pos_ns,"(0.7, 0.5)",cs_pos_s,0,0,0,0,,,,,,,,,,,,,,,,,,,,,1,12,36,3,,,,,,,,,,,,,,,,,,,,,,,,,,,132,reward,,,,,,1252.4597439999925,1252.4597439999925,1252.4597439999925,1252.4597439999925,0,,,0,,,1,0.02661249996162951,0.33724589995108545,0,,,1253.3000014999416,1253.3000014999416,1253.3000014999416,1253.3000014999416,46,D,2024-05-22_09h21.00.978,attentional_competition_task,2022.2.4,143.87185040075676,
positions.xlsx,positions_test.xlsx,positions_test_new.xlsx,stimuli.xlsx,stimuli_new.xlsx,stimuli/Social4.png,stimuli/Social3.png,stimuli/Nonsocial4.png,stimuli/Nonsocial3.png,stimuli/Social2.png,stimuli/Social1.png,stimuli/Nonsocial2.png,stimuli/Nonsocial1.png,,,"(-0.7, -0.5)",cs_neg_s,"(-0.7, 0.5)",cs_pos_s,"(0.7, -0.5)",cs_pos_ns,"(0.7, 0.5)",cs_neg_ns,0,0,0,0,,,,,,,,,,,,,,,,,,,,,1,13,37,1,,,,,,,,,,,,,,,,,,,,,,,,,,,135,reward,,,,,,1261.4246498999419,1261.4246498999419,1261.4246498999419,1261.4246498999419,0,,,0,,,1,0.02293990005273372,0.022943399962969124,0,,,1261.4246498999419,1261.4246498999419,1261.4246498999419,1261.4246498999419,46,D,2024-05-22_09h21.00.978,attentional_competition_task,2022.2.4,143.87185040075676,
positions.xlsx,positions_test.xlsx,positions_test_new.xlsx,stimuli.xlsx,stimuli_new.xlsx,stimuli/Social4.png,stimuli/Social3.png,stimuli/Nonsocial4.png,stimuli/Nonsocial3.png,stimuli/Social2.png,stimuli/Social1.png,stimuli/Nonsocial2.png,stimuli/Nonsocial1.png,,,"(-0.7, -0.5)",cs_pos_ns,"(-0.7, 0.5)",cs_neg_ns,"(0.7, -0.5)",cs_pos_s,"(0.7, 0.5)",cs_neg_s,0,0,0,0,,,,,,,,,,,,,,,,,,,,,1,14,38,20,,,,,,,,,,,,,,,,,,,,,,,,,,,138,reward,,,,,,1270.3271165000042,1270.3271165000042,1270.3271165000042,1270.3271165000042,1,0.34958409995306283,0.34958739997819066,0,,,1,0.029453900060616434,0.27414820005651563,0,,,1270.6743060000008,1270.6743060000008,1270.6743060000008,1270.6743060000008,46,D,2024-05-22_09h21.00.978,attentional_competition_task,2022.2.4,143.87185040075676,
positions.xlsx,positions_test.xlsx,positions_test_new.xlsx,stimuli.xlsx,stimuli_new.xlsx,stimuli/Social4.png,stimuli/Social3.png,stimuli/Nonsocial4.png,stimuli/Nonsocial3.png,stimuli/Social2.png,stimuli/Social1.png,stimuli/Nonsocial2.png,stimuli/Nonsocial1.png,,,"(-0.7, -0.5)",cs_neg_ns,"(-0.7, 0.5)",cs_neg_s,"(0.7, -0.5)",cs_pos_s,"(0.7, 0.5)",cs_pos_ns,0,0,0,0,,,,,,,,,,,,,,,,,,,,,1,15,39,14,,,,,,,,,,,,,,,,,,,,,,,,,,,144,reward,,,,,,1278.8614437999204,1278.8614437999204,1278.8614437999204,1278.8614437999204,0,,,0,,,1,0.023438100004568696,0.023442300036549568,0,,,1278.8614437999204,1278.8614437999204,1278.8614437999204,1278.8614437999204,46,D,2024-05-22_09h21.00.978,attentional_competition_task,2022.2.4,143.87185040075676,
positions.xlsx,positions_test.xlsx,positions_test_new.xlsx,stimuli.xlsx,stimuli_new.xlsx,stimuli/Social4.png,stimuli/Social3.png,stimuli/Nonsocial4.png,stimuli/Nonsocial3.png,stimuli/Social2.png,stimuli/Social1.png,stimuli/Nonsocial2.png,stimuli/Nonsocial1.png,,,"(-0.7, -0.5)",cs_neg_s,"(-0.7, 0.5)",cs_pos_ns,"(0.7, -0.5)",cs_pos_s,"(0.7, 0.5)",cs_neg_ns,0,0,0,0,,,,,,,,,,,,,,,,,,,,,1,16,40,4,,,,,,,,,,,,,,,,,,,,,,,,,,,147,reward,,,,,,1287.3264395999722,1287.3264395999722,1287.3264395999722,1287.3264395999722,0,,,1,0.023688400047831237,0.02369209995958954,0,,,0,,,1287.3264395999722,1287.3264395999722,1287.3264395999722,1287.3264395999722,46,D,2024-05-22_09h21.00.978,attentional_competition_task,2022.2.4,143.87185040075676,
positions.xlsx,positions_test.xlsx,positions_test_new.xlsx,stimuli.xlsx,stimuli_new.xlsx,stimuli/Social4.png,stimuli/Social3.png,stimuli/Nonsocial4.png,stimuli/Nonsocial3.png,stimuli/Social2.png,stimuli/Social1.png,stimuli/Nonsocial2.png,stimuli/Nonsocial1.png,,,"(-0.7, -0.5)",cs_pos_ns,"(-0.7, 0.5)",cs_neg_s,"(0.7, -0.5)",cs_pos_s,"(0.7, 0.5)",cs_neg_ns,0,0,0,0,,,,,,,,,,,,,,,,,,,,,1,17,41,22,,,,,,,,,,,,,,,,,,,,,,,,,,,150,reward,,,,,,1295.520534299896,1295.520534299896,1295.520534299896,1295.520534299896,1,0.023765400052070618,0.03805219999048859,0,,,0,,,0,,,1295.5621926999884,1295.5621926999884,1295.5621926999884,1295.5621926999884,46,D,2024-05-22_09h21.00.978,attentional_competition_task,2022.2.4,143.87185040075676,
positions.xlsx,positions_test.xlsx,positions_test_new.xlsx,stimuli.xlsx,stimuli_new.xlsx,stimuli/Social4.png,stimuli/Social3.png,stimuli/Nonsocial4.png,stimuli/Nonsocial3.png,stimuli/Social2.png,stimuli/Social1.png,stimuli/Nonsocial2.png,stimuli/Nonsocial1.png,,,"(-0.7, -0.5)",cs_neg_s,"(-0.7, 0.5)",cs_pos_ns,"(0.7, -0.5)",cs_neg_ns,"(0.7, 0.5)",cs_pos_s,0,0,0,0,,,,,,,,,,,,,,,,,,,,,1,18,42,5,,,,,,,,,,,,,,,,,,,,,,,,,,,153,reward,,,,,,1304.13131899992,1304.13131899992,1304.13131899992,1304.13131899992,0,,,1,0.02338430006057024,0.023388000088743865,0,,,0,,,1304.13131899992,1304.13131899992,1304.13131899992,1304.13131899992,46,D,2024-05-22_09h21.00.978,attentional_competition_task,2022.2.4,143.87185040075676,
positions.xlsx,positions_test.xlsx,positions_test_new.xlsx,stimuli.xlsx,stimuli_new.xlsx,stimuli/Social4.png,stimuli/Social3.png,stimuli/Nonsocial4.png,stimuli/Nonsocial3.png,stimuli/Social2.png,stimuli/Social1.png,stimuli/Nonsocial2.png,stimuli/Nonsocial1.png,,,"(-0.7, -0.5)",cs_neg_s,"(-0.7, 0.5)",cs_pos_s,"(0.7, -0.5)",cs_neg_ns,"(0.7, 0.5)",cs_pos_ns,0,0,0,0,,,,,,,,,,,,,,,,,,,,,1,19,43,0,,,,,,,,,,,,,,,,,,,,,,,,,,,159,reward,,,,,,1312.6448891999898,1312.6448891999898,1312.6448891999898,1312.6448891999898,0,,,1,0.029149899957701564,0.2598578999750316,0,,,1,0.32250519993249327,0.32250859995838255,1312.971220599953,1312.971220599953,1312.971220599953,1312.971220599953,46,D,2024-05-22_09h21.00.978,attentional_competition_task,2022.2.4,143.87185040075676,
positions.xlsx,positions_test.xlsx,positions_test_new.xlsx,stimuli.xlsx,stimuli_new.xlsx,stimuli/Social4.png,stimuli/Social3.png,stimuli/Nonsocial4.png,stimuli/Nonsocial3.png,stimuli/Social2.png,stimuli/Social1.png,stimuli/Nonsocial2.png,stimuli/Nonsocial1.png,,,"(-0.7, -0.5)",cs_pos_s,"(-0.7, 0.5)",cs_neg_s,"(0.7, -0.5)",cs_neg_ns,"(0.7, 0.5)",cs_pos_ns,0,0,0,0,,,,,,,,,,,,,,,,,,,,,1,20,44,6,,,,,,,,,,,,,,,,,,,,,,,,,,,165,reward,,,,,,1321.380621099961,1321.380621099961,1321.380621099961,1321.380621099961,0,,,0,,,0,,,1,0.030339200049638748,0.030343000078573823,1321.380621099961,1321.380621099961,1321.380621099961,1321.380621099961,46,D,2024-05-22_09h21.00.978,attentional_competition_task,2022.2.4,143.87185040075676,
positions.xlsx,positions_test.xlsx,positions_test_new.xlsx,stimuli.xlsx,stimuli_new.xlsx,stimuli/Social4.png,stimuli/Social3.png,stimuli/Nonsocial4.png,stimuli/Nonsocial3.png,stimuli/Social2.png,stimuli/Social1.png,stimuli/Nonsocial2.png,stimuli/Nonsocial1.png,,,"(-0.7, -0.5)",cs_neg_ns,"(-0.7, 0.5)",cs_pos_ns,"(0.7, -0.5)",cs_pos_s,"(0.7, 0.5)",cs_neg_s,0,0,0,0,,,,,,,,,,,,,,,,,,,,,1,21,45,16,,,,,,,,,,,,,,,,,,,,,,,,,,,165,loss,,,,,,1330.0955393998884,1330.0955393998884,1330.0955393998884,1330.0955393998884,0,,,0,,,1,0.02956209995318204,0.26013159996364266,0,,,1330.5608275999548,1330.5608275999548,1330.5608275999548,1330.5608275999548,46,D,2024-05-22_09h21.00.978,attentional_competition_task,2022.2.4,143.87185040075676,
positions.xlsx,positions_test.xlsx,positions_test_new.xlsx,stimuli.xlsx,stimuli_new.xlsx,stimuli/Social4.png,stimuli/Social3.png,stimuli/Nonsocial4.png,stimuli/Nonsocial3.png,stimuli/Social2.png,stimuli/Social1.png,stimuli/Nonsocial2.png,stimuli/Nonsocial1.png,,,"(-0.7, -0.5)",cs_pos_s,"(-0.7, 0.5)",cs_neg_ns,"(0.7, -0.5)",cs_pos_ns,"(0.7, 0.5)",cs_neg_s,0,0,0,0,,,,,,,,,,,,,,,,,,,,,1,22,46,9,,,,,,,,,,,,,,,,,,,,,,,,,,,171,reward,,,,,,1338.5396898000035,1338.5396898000035,1338.5396898000035,1338.5396898000035,1,0.028623500023968518,0.43283169995993376,0,,,0,,,0,,,1339.5326791999396,1339.5326791999396,1339.5326791999396,1339.5326791999396,46,D,2024-05-22_09h21.00.978,attentional_competition_task,2022.2.4,143.87185040075676,
positions.xlsx,positions_test.xlsx,positions_test_new.xlsx,stimuli.xlsx,stimuli_new.xlsx,stimuli/Social4.png,stimuli/Social3.png,stimuli/Nonsocial4.png,stimuli/Nonsocial3.png,stimuli/Social2.png,stimuli/Social1.png,stimuli/Nonsocial2.png,stimuli/Nonsocial1.png,,,"(-0.7, -0.5)",cs_neg_s,"(-0.7, 0.5)",cs_neg_ns,"(0.7, -0.5)",cs_pos_s,"(0.7, 0.5)",cs_pos_ns,0,0,0,0,,,,,,,,,,,,,,,,,,,,,1,23,47,2,,,,,,,,,,,,,,,,,,,,,,,,,,,180,reward,,,,,,1347.4212238999316,1347.4212238999316,1347.4212238999316,1347.4212238999316,0,,,0,,,0,,,1,0.02466999995522201,0.24750589998438954,1348.178164199926,1348.178164199926,1348.178164199926,1348.178164199926,46,D,2024-05-22_09h21.00.978,attentional_competition_task,2022.2.4,143.87185040075676,
positions.xlsx,positions_test.xlsx,positions_test_new.xlsx,stimuli.xlsx,stimuli_new.xlsx,stimuli/Social4.png,stimuli/Social3.png,stimuli/Nonsocial4.png,stimuli/Nonsocial3.png,stimuli/Social2.png,stimuli/Social1.png,stimuli/Nonsocial2.png,stimuli/Nonsocial1.png,,,"(-0.7, -0.5)",cs_pos_s_new,"(-0.7, 0.5)",cs_neg_s,"(0.7, -0.5)",cs_neg_ns,"(0.7, 0.5)",cs_pos_ns,0,0,0,0,,,,,,,,,,,,,,,,,,,,,,,,,,,,,0,0,0,33,0,0,0,0,,,,,,,,,,,,,,,183,reward,,,,,,1353.9418198999483,1353.9418198999483,1353.9418198999483,1353.9418198999483,1,0.8977241999236867,0.9045861999038607,0,,,0,,,0,,,1354.8515073999297,1354.8515073999297,1354.8515073999297,1354.8515073999297,46,D,2024-05-22_09h21.00.978,attentional_competition_task,2022.2.4,143.87185040075676,
positions.xlsx,positions_test.xlsx,positions_test_new.xlsx,stimuli.xlsx,stimuli_new.xlsx,stimuli/Social4.png,stimuli/Social3.png,stimuli/Nonsocial4.png,stimuli/Nonsocial3.png,stimuli/Social2.png,stimuli/Social1.png,stimuli/Nonsocial2.png,stimuli/Nonsocial1.png,,,"(-0.7, -0.5)",cs_pos_s_new,"(-0.7, 0.5)",cs_neg_s,"(0.7, -0.5)",cs_neg_ns,"(0.7, 0.5)",cs_pos_ns,0,0,0,0,,,,,,,,,,,,,,,,,,,,,,,,,,,,,0,0,0,33,1,0,1,0,,,,,,,,,,,,,,,186,reward,,,,,,1355.351454299991,1355.351454299991,1355.351454299991,1355.351454299991,0,,,0,,,0,,,1,0.05888040002901107,0.05888449994381517,1355.4139640999492,1355.4139640999492,1355.4139640999492,1355.4139640999492,46,D,2024-05-22_09h21.00.978,attentional_competition_task,2022.2.4,143.87185040075676,
positions.xlsx,positions_test.xlsx,positions_test_new.xlsx,stimuli.xlsx,stimuli_new.xlsx,stimuli/Social4.png,stimuli/Social3.png,stimuli/Nonsocial4.png,stimuli/Nonsocial3.png,stimuli/Social2.png,stimuli/Social1.png,stimuli/Nonsocial2.png,stimuli/Nonsocial1.png,,,"(-0.7, -0.5)",cs_pos_s_new,"(-0.7, 0.5)",cs_neg_s,"(0.7, -0.5)",cs_neg_ns,"(0.7, 0.5)",cs_pos_ns,0,0,0,0,,,,,,,,,,,,,,,,,,,,,,,,,,,,,0,0,0,33,2,0,2,0,,,,,,,,,,,,,,,189,reward,,,,,,1355.9070155998925,1355.9070155998925,1355.9070155998925,1355.9070155998925,0,,,0,,,0,,,1,0.023815999971702695,0.03793250001035631,1356.455590199912,1356.455590199912,1356.455590199912,1356.455590199912,46,D,2024-05-22_09h21.00.978,attentional_competition_task,2022.2.4,143.87185040075676,
positions.xlsx,positions_test.xlsx,positions_test_new.xlsx,stimuli.xlsx,stimuli_new.xlsx,stimuli/Social4.png,stimuli/Social3.png,stimuli/Nonsocial4.png,stimuli/Nonsocial3.png,stimuli/Social2.png,stimuli/Social1.png,stimuli/Nonsocial2.png,stimuli/Nonsocial1.png,,,"(-0.7, -0.5)",cs_pos_s_new,"(-0.7, 0.5)",cs_neg_s,"(0.7, -0.5)",cs_neg_ns,"(0.7, 0.5)",cs_pos_ns,0,0,0,0,,,,,,,,,,,,,,,,,,,,,,,,,,,,,0,0,0,33,,,,,,,,,,,,,,,,,,,,,,,,,,,,,,,,,,,,,,,,,,,,,,46,D,2024-05-22_09h21.00.978,attentional_competition_task,2022.2.4,143.87185040075676,
positions.xlsx,positions_test.xlsx,positions_test_new.xlsx,stimuli.xlsx,stimuli_new.xlsx,stimuli/Social4.png,stimuli/Social3.png,stimuli/Nonsocial4.png,stimuli/Nonsocial3.png,stimuli/Social2.png,stimuli/Social1.png,stimuli/Nonsocial2.png,stimuli/Nonsocial1.png,,,"(-0.7, -0.5)",cs_neg_ns_new,"(-0.7, 0.5)",cs_pos_s,"(0.7, -0.5)",cs_pos_ns,"(0.7, 0.5)",cs_neg_s,0,0,0,0,,,,,,,,,,,,,,,,,,,,,,,,,,,,,0,1,1,25,0,0,0,0,,,,,,,,,,,,,,,192,reward,,,,,,1362.788729999913,1362.788729999913,1362.788729999913,1362.788729999913,0,,,1,0.48807429999578744,0.48807800002396107,0,,,0,,,1363.2817006999394,1363.2817006999394,1363.2817006999394,1363.2817006999394,46,D,2024-05-22_09h21.00.978,attentional_competition_task,2022.2.4,143.87185040075676,
positions.xlsx,positions_test.xlsx,positions_test_new.xlsx,stimuli.xlsx,stimuli_new.xlsx,stimuli/Social4.png,stimuli/Social3.png,stimuli/Nonsocial4.png,stimuli/Nonsocial3.png,stimuli/Social2.png,stimuli/Social1.png,stimuli/Nonsocial2.png,stimuli/Nonsocial1.png,,,"(-0.7, -0.5)",cs_neg_ns_new,"(-0.7, 0.5)",cs_pos_s,"(0.7, -0.5)",cs_pos_ns,"(0.7, 0.5)",cs_neg_s,0,0,0,0,,,,,,,,,,,,,,,,,,,,,,,,,,,,,0,1,1,25,1,0,1,0,,,,,,,,,,,,,,,189,loss,,,,,,1363.7886850999203,1363.7886850999203,1363.7886850999203,1363.7886850999203,1,0.09299030003603548,0.09299399994779378,1,0.030611100024543703,0.0788769000209868,0,,,0,,,1363.8789013999049,1363.8789013999049,1363.8789013999049,1363.8789013999049,46,D,2024-05-22_09h21.00.978,attentional_competition_task,2022.2.4,143.87185040075676,
positions.xlsx,positions_test.xlsx,positions_test_new.xlsx,stimuli.xlsx,stimuli_new.xlsx,stimuli/Social4.png,stimuli/Social3.png,stimuli/Nonsocial4.png,stimuli/Nonsocial3.png,stimuli/Social2.png,stimuli/Social1.png,stimuli/Nonsocial2.png,stimuli/Nonsocial1.png,,,"(-0.7, -0.5)",cs_neg_ns_new,"(-0.7, 0.5)",cs_pos_s,"(0.7, -0.5)",cs_pos_ns,"(0.7, 0.5)",cs_neg_s,0,0,0,0,,,,,,,,,,,,,,,,,,,,,,,,,,,,,0,1,1,25,2,0,2,0,,,,,,,,,,,,,,,192,reward,,,,,,1364.3997626999626,1364.3997626999626,1364.3997626999626,1364.3997626999626,0,,,0,,,1,0.022604200057685375,0.02260780008509755,0,,,1364.3997626999626,1364.3997626999626,1364.3997626999626,1364.3997626999626,46,D,2024-05-22_09h21.00.978,attentional_competition_task,2022.2.4,143.87185040075676,
positions.xlsx,positions_test.xlsx,positions_test_new.xlsx,stimuli.xlsx,stimuli_new.xlsx,stimuli/Social4.png,stimuli/Social3.png,stimuli/Nonsocial4.png,stimuli/Nonsocial3.png,stimuli/Social2.png,stimuli/Social1.png,stimuli/Nonsocial2.png,stimuli/Nonsocial1.png,,,"(-0.7, -0.5)",cs_neg_ns_new,"(-0.7, 0.5)",cs_pos_s,"(0.7, -0.5)",cs_pos_ns,"(0.7, 0.5)",cs_neg_s,0,0,0,0,,,,,,,,,,,,,,,,,,,,,,,,,,,,,0,1,1,25,,,,,,,,,,,,,,,,,,,,,,,,,,,,,,,,,,,,,,,,,,,,,,46,D,2024-05-22_09h21.00.978,attentional_competition_task,2022.2.4,143.87185040075676,
positions.xlsx,positions_test.xlsx,positions_test_new.xlsx,stimuli.xlsx,stimuli_new.xlsx,stimuli/Social4.png,stimuli/Social3.png,stimuli/Nonsocial4.png,stimuli/Nonsocial3.png,stimuli/Social2.png,stimuli/Social1.png,stimuli/Nonsocial2.png,stimuli/Nonsocial1.png,,,"(-0.7, -0.5)",cs_neg_s,"(-0.7, 0.5)",cs_pos_ns,"(0.7, -0.5)",cs_neg_ns,"(0.7, 0.5)",cs_pos_s_new,0,0,0,0,,,,,,,,,,,,,,,,,,,,,,,,,,,,,0,2,2,34,0,0,0,0,,,,,,,,,,,,,,,189,loss,,,,,,1372.2049885999877,1372.2049885999877,1372.2049885999877,1372.2049885999877,1,0.25856089999433607,0.2585644000209868,0,,,0,,,0,,,1372.4688384999754,1372.4688384999754,1372.4688384999754,1372.4688384999754,46,D,2024-05-22_09h21.00.978,attentional_competition_task,2022.2.4,143.87185040075676,
positions.xlsx,positions_test.xlsx,positions_test_new.xlsx,stimuli.xlsx,stimuli_new.xlsx,stimuli/Social4.png,stimuli/Social3.png,stimuli/Nonsocial4.png,stimuli/Nonsocial3.png,stimuli/Social2.png,stimuli/Social1.png,stimuli/Nonsocial2.png,stimuli/Nonsocial1.png,,,"(-0.7, -0.5)",cs_neg_s,"(-0.7, 0.5)",cs_pos_ns,"(0.7, -0.5)",cs_neg_ns,"(0.7, 0.5)",cs_pos_s_new,0,0,0,0,,,,,,,,,,,,,,,,,,,,,,,,,,,,,0,2,2,34,1,0,1,0,,,,,,,,,,,,,,,192,reward,,,,,,1373.003566499916,1373.003566499916,1373.003566499916,1373.003566499916,0,,,0,,,0,,,1,0.029455000068992376,0.0294591001002118,1373.003566499916,1373.003566499916,1373.003566499916,1373.003566499916,46,D,2024-05-22_09h21.00.978,attentional_competition_task,2022.2.4,143.87185040075676,
positions.xlsx,positions_test.xlsx,positions_test_new.xlsx,stimuli.xlsx,stimuli_new.xlsx,stimuli/Social4.png,stimuli/Social3.png,stimuli/Nonsocial4.png,stimuli/Nonsocial3.png,stimuli/Social2.png,stimuli/Social1.png,stimuli/Nonsocial2.png,stimuli/Nonsocial1.png,,,"(-0.7, -0.5)",cs_neg_s,"(-0.7, 0.5)",cs_pos_ns,"(0.7, -0.5)",cs_neg_ns,"(0.7, 0.5)",cs_pos_s_new,0,0,0,0,,,,,,,,,,,,,,,,,,,,,,,,,,,,,0,2,2,34,2,0,2,0,,,,,,,,,,,,,,,189,loss,,,,,,1373.5035315999994,1373.5035315999994,1373.5035315999994,1373.5035315999994,0,,,0,,,1,0.2175081999739632,0.21751190000213683,1,0.028495099977590144,0.20361800002865493,1373.725756199914,1373.725756199914,1373.725756199914,1373.725756199914,46,D,2024-05-22_09h21.00.978,attentional_competition_task,2022.2.4,143.87185040075676,
positions.xlsx,positions_test.xlsx,positions_test_new.xlsx,stimuli.xlsx,stimuli_new.xlsx,stimuli/Social4.png,stimuli/Social3.png,stimuli/Nonsocial4.png,stimuli/Nonsocial3.png,stimuli/Social2.png,stimuli/Social1.png,stimuli/Nonsocial2.png,stimuli/Nonsocial1.png,,,"(-0.7, -0.5)",cs_neg_s,"(-0.7, 0.5)",cs_pos_ns,"(0.7, -0.5)",cs_neg_ns,"(0.7, 0.5)",cs_pos_s_new,0,0,0,0,,,,,,,,,,,,,,,,,,,,,,,,,,,,,0,2,2,34,,,,,,,,,,,,,,,,,,,,,,,,,,,,,,,,,,,,,,,,,,,,,,46,D,2024-05-22_09h21.00.978,attentional_competition_task,2022.2.4,143.87185040075676,
positions.xlsx,positions_test.xlsx,positions_test_new.xlsx,stimuli.xlsx,stimuli_new.xlsx,stimuli/Social4.png,stimuli/Social3.png,stimuli/Nonsocial4.png,stimuli/Nonsocial3.png,stimuli/Social2.png,stimuli/Social1.png,stimuli/Nonsocial2.png,stimuli/Nonsocial1.png,,,"(-0.7, -0.5)",cs_pos_s,"(-0.7, 0.5)",cs_neg_s,"(0.7, -0.5)",cs_pos_ns,"(0.7, 0.5)",cs_neg_ns,0,0,0,0,,,,,,,,,,,,,,,,,,,,,,,,,,,,,0,3,3,1,0,0,0,0,,,,,,,,,,,,,,,186,loss,,,,,,1381.1907184999436,1381.1907184999436,1381.1907184999436,1381.1907184999436,0,,,1,0.2522597999777645,0.2591164999175817,0,,,0,,,1381.461530999979,1381.461530999979,1381.461530999979,1381.461530999979,46,D,2024-05-22_09h21.00.978,attentional_competition_task,2022.2.4,143.87185040075676,
positions.xlsx,positions_test.xlsx,positions_test_new.xlsx,stimuli.xlsx,stimuli_new.xlsx,stimuli/Social4.png,stimuli/Social3.png,stimuli/Nonsocial4.png,stimuli/Nonsocial3.png,stimuli/Social2.png,stimuli/Social1.png,stimuli/Nonsocial2.png,stimuli/Nonsocial1.png,,,"(-0.7, -0.5)",cs_pos_s,"(-0.7, 0.5)",cs_neg_s,"(0.7, -0.5)",cs_pos_ns,"(0.7, 0.5)",cs_neg_ns,0,0,0,0,,,,,,,,,,,,,,,,,,,,,,,,,,,,,0,3,3,1,1,0,1,0,,,,,,,,,,,,,,,189,reward,,,,,,1381.9893381999573,1381.9893381999573,1381.9893381999573,1381.9893381999573,1,0.024209100054576993,0.024213199969381094,0,,,0,,,0,,,1381.9893381999573,1381.9893381999573,1381.9893381999573,1381.9893381999573,46,D,2024-05-22_09h21.00.978,attentional_competition_task,2022.2.4,143.87185040075676,
positions.xlsx,positions_test.xlsx,positions_test_new.xlsx,stimuli.xlsx,stimuli_new.xlsx,stimuli/Social4.png,stimuli/Social3.png,stimuli/Nonsocial4.png,stimuli/Nonsocial3.png,stimuli/Social2.png,stimuli/Social1.png,stimuli/Nonsocial2.png,stimuli/Nonsocial1.png,,,"(-0.7, -0.5)",cs_pos_s,"(-0.7, 0.5)",cs_neg_s,"(0.7, -0.5)",cs_pos_ns,"(0.7, 0.5)",cs_neg_ns,0,0,0,0,,,,,,,,,,,,,,,,,,,,,,,,,,,,,0,3,3,1,2,0,2,0,,,,,,,,,,,,,,,192,reward,,,,,,1382.489336599945,1382.489336599945,1382.489336599945,1382.489336599945,1,0.028909299988299608,0.21736270003020763,0,,,1,0.3014568999642506,0.30146079999394715,0,,,1382.794874199899,1382.794874199899,1382.794874199899,1382.794874199899,46,D,2024-05-22_09h21.00.978,attentional_competition_task,2022.2.4,143.87185040075676,
positions.xlsx,positions_test.xlsx,positions_test_new.xlsx,stimuli.xlsx,stimuli_new.xlsx,stimuli/Social4.png,stimuli/Social3.png,stimuli/Nonsocial4.png,stimuli/Nonsocial3.png,stimuli/Social2.png,stimuli/Social1.png,stimuli/Nonsocial2.png,stimuli/Nonsocial1.png,,,"(-0.7, -0.5)",cs_pos_s,"(-0.7, 0.5)",cs_neg_s,"(0.7, -0.5)",cs_pos_ns,"(0.7, 0.5)",cs_neg_ns,0,0,0,0,,,,,,,,,,,,,,,,,,,,,,,,,,,,,0,3,3,1,,,,,,,,,,,,,,,,,,,,,,,,,,,,,,,,,,,,,,,,,,,,,,46,D,2024-05-22_09h21.00.978,attentional_competition_task,2022.2.4,143.87185040075676,
positions.xlsx,positions_test.xlsx,positions_test_new.xlsx,stimuli.xlsx,stimuli_new.xlsx,stimuli/Social4.png,stimuli/Social3.png,stimuli/Nonsocial4.png,stimuli/Nonsocial3.png,stimuli/Social2.png,stimuli/Social1.png,stimuli/Nonsocial2.png,stimuli/Nonsocial1.png,,,"(-0.7, -0.5)",cs_pos_ns,"(-0.7, 0.5)",cs_neg_ns_new,"(0.7, -0.5)",cs_pos_s,"(0.7, 0.5)",cs_neg_s,0,0,0,0,,,,,,,,,,,,,,,,,,,,,,,,,,,,,0,4,4,19,0,0,0,0,,,,,,,,,,,,,,,195,reward,,,,,,1389.4056785999564,1389.4056785999564,1389.4056785999564,1389.4056785999564,0,,,0,,,1,0.6338645999785513,0.6338682000059634,0,,,1390.044545999961,1390.044545999961,1390.044545999961,1390.044545999961,46,D,2024-05-22_09h21.00.978,attentional_competition_task,2022.2.4,143.87185040075676,
positions.xlsx,positions_test.xlsx,positions_test_new.xlsx,stimuli.xlsx,stimuli_new.xlsx,stimuli/Social4.png,stimuli/Social3.png,stimuli/Nonsocial4.png,stimuli/Nonsocial3.png,stimuli/Social2.png,stimuli/Social1.png,stimuli/Nonsocial2.png,stimuli/Nonsocial1.png,,,"(-0.7, -0.5)",cs_pos_ns,"(-0.7, 0.5)",cs_neg_ns_new,"(0.7, -0.5)",cs_pos_s,"(0.7, 0.5)",cs_neg_s,0,0,0,0,,,,,,,,,,,,,,,,,,,,,,,,,,,,,0,4,4,19,1,0,1,0,,,,,,,,,,,,,,,198,reward,,,,,,1390.5445588999428,1390.5445588999428,1390.5445588999428,1390.5445588999428,1,0.8147296000970528,0.814733500010334,0,,,1,0.028690600069239736,0.7317306000040844,0,,,1391.3639474998927,1391.3639474998927,1391.3639474998927,1391.3639474998927,46,D,2024-05-22_09h21.00.978,attentional_competition_task,2022.2.4,143.87185040075676,
positions.xlsx,positions_test.xlsx,positions_test_new.xlsx,stimuli.xlsx,stimuli_new.xlsx,stimuli/Social4.png,stimuli/Social3.png,stimuli/Nonsocial4.png,stimuli/Nonsocial3.png,stimuli/Social2.png,stimuli/Social1.png,stimuli/Nonsocial2.png,stimuli/Nonsocial1.png,,,"(-0.7, -0.5)",cs_pos_ns,"(-0.7, 0.5)",cs_neg_ns_new,"(0.7, -0.5)",cs_pos_s,"(0.7, 0.5)",cs_neg_s,0,0,0,0,,,,,,,,,,,,,,,,,,,,,,,,,,,,,0,4,4,19,,,,,,,,,,,,,,,,,,,,,,,,,,,,,,,,,,,,,,,,,,,,,,46,D,2024-05-22_09h21.00.978,attentional_competition_task,2022.2.4,143.87185040075676,
positions.xlsx,positions_test.xlsx,positions_test_new.xlsx,stimuli.xlsx,stimuli_new.xlsx,stimuli/Social4.png,stimuli/Social3.png,stimuli/Nonsocial4.png,stimuli/Nonsocial3.png,stimuli/Social2.png,stimuli/Social1.png,stimuli/Nonsocial2.png,stimuli/Nonsocial1.png,,,"(-0.7, -0.5)",cs_pos_ns,"(-0.7, 0.5)",cs_neg_ns,"(0.7, -0.5)",cs_neg_s,"(0.7, 0.5)",cs_pos_s_new,0,0,0,0,,,,,,,,,,,,,,,,,,,,,,,,,,,,,0,5,5,29,0,0,0,0,,,,,,,,,,,,,,,201,reward,,,,,,1398.620605999953,1398.620605999953,1398.620605999953,1398.620605999953,0,,,0,,,0,,,1,0.5715590000618249,0.5785372999962419,1399.196976199979,1399.196976199979,1399.196976199979,1399.196976199979,46,D,2024-05-22_09h21.00.978,attentional_competition_task,2022.2.4,143.87185040075676,
positions.xlsx,positions_test.xlsx,positions_test_new.xlsx,stimuli.xlsx,stimuli_new.xlsx,stimuli/Social4.png,stimuli/Social3.png,stimuli/Nonsocial4.png,stimuli/Nonsocial3.png,stimuli/Social2.png,stimuli/Social1.png,stimuli/Nonsocial2.png,stimuli/Nonsocial1.png,,,"(-0.7, -0.5)",cs_pos_ns,"(-0.7, 0.5)",cs_neg_ns,"(0.7, -0.5)",cs_neg_s,"(0.7, 0.5)",cs_pos_s_new,0,0,0,0,,,,,,,,,,,,,,,,,,,,,,,,,,,,,0,5,5,29,1,0,1,0,,,,,,,,,,,,,,,204,reward,,,,,,1399.7038793999236,1399.7038793999236,1399.7038793999236,1399.7038793999236,1,0.8153315999079496,0.8223497999133542,0,,,0,,,1,0.02358409995213151,0.7260718999896199,1400.5302510999609,1400.5302510999609,1400.5302510999609,1400.5302510999609,46,D,2024-05-22_09h21.00.978,attentional_competition_task,2022.2.4,143.87185040075676,
positions.xlsx,positions_test.xlsx,positions_test_new.xlsx,stimuli.xlsx,stimuli_new.xlsx,stimuli/Social4.png,stimuli/Social3.png,stimuli/Nonsocial4.png,stimuli/Nonsocial3.png,stimuli/Social2.png,stimuli/Social1.png,stimuli/Nonsocial2.png,stimuli/Nonsocial1.png,,,"(-0.7, -0.5)",cs_pos_ns,"(-0.7, 0.5)",cs_neg_ns,"(0.7, -0.5)",cs_neg_s,"(0.7, 0.5)",cs_pos_s_new,0,0,0,0,,,,,,,,,,,,,,,,,,,,,,,,,,,,,0,5,5,29,,,,,,,,,,,,,,,,,,,,,,,,,,,,,,,,,,,,,,,,,,,,,,46,D,2024-05-22_09h21.00.978,attentional_competition_task,2022.2.4,143.87185040075676,
positions.xlsx,positions_test.xlsx,positions_test_new.xlsx,stimuli.xlsx,stimuli_new.xlsx,stimuli/Social4.png,stimuli/Social3.png,stimuli/Nonsocial4.png,stimuli/Nonsocial3.png,stimuli/Social2.png,stimuli/Social1.png,stimuli/Nonsocial2.png,stimuli/Nonsocial1.png,,,"(-0.7, -0.5)",cs_pos_s,"(-0.7, 0.5)",cs_neg_ns,"(0.7, -0.5)",cs_neg_s,"(0.7, 0.5)",cs_pos_ns,0,0,0,0,,,,,,,,,,,,,,,,,,,,,,,,,,,,,0,6,6,0,0,0,0,0,,,,,,,,,,,,,,,201,loss,,,,,,1407.3771743999096,1407.3771743999096,1407.3771743999096,1407.3771743999096,0,,,0,,,1,0.3567722999723628,0.356775899999775,0,,,1407.7383198000025,1407.7383198000025,1407.7383198000025,1407.7383198000025,46,D,2024-05-22_09h21.00.978,attentional_competition_task,2022.2.4,143.87185040075676,
positions.xlsx,positions_test.xlsx,positions_test_new.xlsx,stimuli.xlsx,stimuli_new.xlsx,stimuli/Social4.png,stimuli/Social3.png,stimuli/Nonsocial4.png,stimuli/Nonsocial3.png,stimuli/Social2.png,stimuli/Social1.png,stimuli/Nonsocial2.png,stimuli/Nonsocial1.png,,,"(-0.7, -0.5)",cs_pos_s,"(-0.7, 0.5)",cs_neg_ns,"(0.7, -0.5)",cs_neg_s,"(0.7, 0.5)",cs_pos_ns,0,0,0,0,,,,,,,,,,,,,,,,,,,,,,,,,,,,,0,6,6,0,1,0,1,0,,,,,,,,,,,,,,,204,reward,,,,,,1408.2730320999399,1408.2730320999399,1408.2730320999399,1408.2730320999399,1,0.029807399958372116,0.02981119998730719,0,,,0,,,0,,,1408.2730320999399,1408.2730320999399,1408.2730320999399,1408.2730320999399,46,D,2024-05-22_09h21.00.978,attentional_competition_task,2022.2.4,143.87185040075676,
positions.xlsx,positions_test.xlsx,positions_test_new.xlsx,stimuli.xlsx,stimuli_new.xlsx,stimuli/Social4.png,stimuli/Social3.png,stimuli/Nonsocial4.png,stimuli/Nonsocial3.png,stimuli/Social2.png,stimuli/Social1.png,stimuli/Nonsocial2.png,stimuli/Nonsocial1.png,,,"(-0.7, -0.5)",cs_pos_s,"(-0.7, 0.5)",cs_neg_ns,"(0.7, -0.5)",cs_neg_s,"(0.7, 0.5)",cs_pos_ns,0,0,0,0,,,,,,,,,,,,,,,,,,,,,,,,,,,,,0,6,6,0,2,0,2,0,,,,,,,,,,,,,,,201,loss,,,,,,1408.8077103999676,1408.8077103999676,1408.8077103999676,1408.8077103999676,0,,,1,0.029925599927082658,0.029942199937067926,0,,,0,,,1408.8077103999676,1408.8077103999676,1408.8077103999676,1408.8077103999676,46,D,2024-05-22_09h21.00.978,attentional_competition_task,2022.2.4,143.87185040075676,
positions.xlsx,positions_test.xlsx,positions_test_new.xlsx,stimuli.xlsx,stimuli_new.xlsx,stimuli/Social4.png,stimuli/Social3.png,stimuli/Nonsocial4.png,stimuli/Nonsocial3.png,stimuli/Social2.png,stimuli/Social1.png,stimuli/Nonsocial2.png,stimuli/Nonsocial1.png,,,"(-0.7, -0.5)",cs_pos_s,"(-0.7, 0.5)",cs_neg_ns,"(0.7, -0.5)",cs_neg_s,"(0.7, 0.5)",cs_pos_ns,0,0,0,0,,,,,,,,,,,,,,,,,,,,,,,,,,,,,0,6,6,0,3,0,3,0,,,,,,,,,,,,,,,198,loss,,,,,,1409.3077148000011,1409.3077148000011,1409.3077148000011,1409.3077148000011,0,,,0,,,1,0.023133300011977553,0.07984739996027201,0,,,1409.8909741999814,1409.8909741999814,1409.8909741999814,1409.8909741999814,46,D,2024-05-22_09h21.00.978,attentional_competition_task,2022.2.4,143.87185040075676,
positions.xlsx,positions_test.xlsx,positions_test_new.xlsx,stimuli.xlsx,stimuli_new.xlsx,stimuli/Social4.png,stimuli/Social3.png,stimuli/Nonsocial4.png,stimuli/Nonsocial3.png,stimuli/Social2.png,stimuli/Social1.png,stimuli/Nonsocial2.png,stimuli/Nonsocial1.png,,,"(-0.7, -0.5)",cs_pos_s,"(-0.7, 0.5)",cs_neg_ns,"(0.7, -0.5)",cs_neg_s,"(0.7, 0.5)",cs_pos_ns,0,0,0,0,,,,,,,,,,,,,,,,,,,,,,,,,,,,,0,6,6,0,,,,,,,,,,,,,,,,,,,,,,,,,,,,,,,,,,,,,,,,,,,,,,46,D,2024-05-22_09h21.00.978,attentional_competition_task,2022.2.4,143.87185040075676,
positions.xlsx,positions_test.xlsx,positions_test_new.xlsx,stimuli.xlsx,stimuli_new.xlsx,stimuli/Social4.png,stimuli/Social3.png,stimuli/Nonsocial4.png,stimuli/Nonsocial3.png,stimuli/Social2.png,stimuli/Social1.png,stimuli/Nonsocial2.png,stimuli/Nonsocial1.png,,,"(-0.7, -0.5)",cs_pos_s,"(-0.7, 0.5)",cs_pos_ns,"(0.7, -0.5)",cs_neg_s,"(0.7, 0.5)",cs_neg_ns_new,0,0,0,0,,,,,,,,,,,,,,,,,,,,,,,,,,,,,0,7,7,24,0,0,0,0,,,,,,,,,,,,,,,201,reward,,,,,,1415.793509399984,1415.793509399984,1415.793509399984,1415.793509399984,1,0.4813657000195235,0.48136960004922,0,,,0,,,0,,,1416.286622799933,1416.286622799933,1416.286622799933,1416.286622799933,46,D,2024-05-22_09h21.00.978,attentional_competition_task,2022.2.4,143.87185040075676,
positions.xlsx,positions_test.xlsx,positions_test_new.xlsx,stimuli.xlsx,stimuli_new.xlsx,stimuli/Social4.png,stimuli/Social3.png,stimuli/Nonsocial4.png,stimuli/Nonsocial3.png,stimuli/Social2.png,stimuli/Social1.png,stimuli/Nonsocial2.png,stimuli/Nonsocial1.png,,,"(-0.7, -0.5)",cs_pos_s,"(-0.7, 0.5)",cs_pos_ns,"(0.7, -0.5)",cs_neg_s,"(0.7, 0.5)",cs_neg_ns_new,0,0,0,0,,,,,,,,,,,,,,,,,,,,,,,,,,,,,0,7,7,24,1,0,1,0,,,,,,,,,,,,,,,204,reward,,,,,,1416.8143677999033,1416.8143677999033,1416.8143677999033,1416.8143677999033,0,,,1,0.029214599984697998,0.029218300012871623,0,,,0,,,1416.8143677999033,1416.8143677999033,1416.8143677999033,1416.8143677999033,46,D,2024-05-22_09h21.00.978,attentional_competition_task,2022.2.4,143.87185040075676,
positions.xlsx,positions_test.xlsx,positions_test_new.xlsx,stimuli.xlsx,stimuli_new.xlsx,stimuli/Social4.png,stimuli/Social3.png,stimuli/Nonsocial4.png,stimuli/Nonsocial3.png,stimuli/Social2.png,stimuli/Social1.png,stimuli/Nonsocial2.png,stimuli/Nonsocial1.png,,,"(-0.7, -0.5)",cs_pos_s,"(-0.7, 0.5)",cs_pos_ns,"(0.7, -0.5)",cs_neg_s,"(0.7, 0.5)",cs_neg_ns_new,0,0,0,0,,,,,,,,,,,,,,,,,,,,,,,,,,,,,0,7,7,24,2,0,2,0,,,,,,,,,,,,,,,207,reward,,,,,,1417.321236299933,1417.321236299933,1417.321236299933,1417.321236299933,0,,,1,0.02479890000540763,0.4898740000789985,0,,,0,,,1418.3143202998908,1418.3143202998908,1418.3143202998908,1418.3143202998908,46,D,2024-05-22_09h21.00.978,attentional_competition_task,2022.2.4,143.87185040075676,
positions.xlsx,positions_test.xlsx,positions_test_new.xlsx,stimuli.xlsx,stimuli_new.xlsx,stimuli/Social4.png,stimuli/Social3.png,stimuli/Nonsocial4.png,stimuli/Nonsocial3.png,stimuli/Social2.png,stimuli/Social1.png,stimuli/Nonsocial2.png,stimuli/Nonsocial1.png,,,"(-0.7, -0.5)",cs_pos_s,"(-0.7, 0.5)",cs_pos_ns,"(0.7, -0.5)",cs_neg_s,"(0.7, 0.5)",cs_neg_ns_new,0,0,0,0,,,,,,,,,,,,,,,,,,,,,,,,,,,,,0,7,7,24,,,,,,,,,,,,,,,,,,,,,,,,,,,,,,,,,,,,,,,,,,,,,,46,D,2024-05-22_09h21.00.978,attentional_competition_task,2022.2.4,143.87185040075676,
