posFile,posFileTest,posFileTestNew,stimFile,stimFileNew,cs_neg_s,cs_pos_s,cs_neg_ns,cs_pos_ns,cs_neg_s_new,cs_pos_s_new,cs_neg_ns_new,cs_pos_ns_new,stim,position,position1,stim1,position2,stim2,position3,stim3,position4,stim4,blocks.thisRepN,blocks.thisTrialN,blocks.thisN,blocks.thisIndex,ratingtrials1.thisRepN,ratingtrials1.thisTrialN,ratingtrials1.thisN,ratingtrials1.thisIndex,search_task_trials.thisRepN,search_task_trials.thisTrialN,search_task_trials.thisN,search_task_trials.thisIndex,learning_trials.thisRepN,learning_trials.thisTrialN,learning_trials.thisN,learning_trials.thisIndex,trials.thisRepN,trials.thisTrialN,trials.thisN,trials.thisIndex,ratingtrials2.thisRepN,ratingtrials2.thisTrialN,ratingtrials2.thisN,ratingtrials2.thisIndex,testtrials.thisRepN,testtrials.thisTrialN,testtrials.thisN,testtrials.thisIndex,loop_test.thisRepN,loop_test.thisTrialN,loop_test.thisN,loop_test.thisIndex,testtrials_novelty.thisRepN,testtrials_novelty.thisTrialN,testtrials_novelty.thisN,testtrials_novelty.thisIndex,loop_test_novelty.thisRepN,loop_test_novelty.thisTrialN,loop_test_novelty.thisN,loop_test_novelty.thisIndex,ratingtrials3.thisRepN,ratingtrials3.thisTrialN,ratingtrials3.thisN,ratingtrials3.thisIndex,textStart.started,textStartExp.started,imageRating.started,sliderStim.response,sliderStim.rt,textStartSearch.started,target_positions,distractor_positions,textStartTask.started,image.started,score,outcome,roi.numLooks,roi.timesOn,roi.timesOff,imageFeedback.started,textTestInstr.started,test_image1.started,test_image2.started,test_image3.started,test_image4.started,test_roi1.numLooks,test_roi1.timesOn,test_roi1.timesOff,test_roi2.numLooks,test_roi2.timesOn,test_roi2.timesOff,test_roi3.numLooks,test_roi3.timesOn,test_roi3.timesOff,test_roi4.numLooks,test_roi4.timesOn,test_roi4.timesOff,test_image_feedback1.started,test_image_feedback2.started,test_iamge_feedback3.started,test_iamge_feedback4.started,participant,group,date,expName,psychopyVersion,frameRate,
positions.xlsx,positions_test.xlsx,positions_test_new.xlsx,stimuli.xlsx,stimuli_new.xlsx,stimuli/Social1.png,stimuli/Social2.png,stimuli/Nonsocial1.png,stimuli/Nonsocial2.png,stimuli/Social3.png,stimuli/Social4.png,stimuli/Nonsocial3.png,stimuli/Nonsocial4.png,cs_pos_ns,,,,,,,,,,0,0,0,0,0,0,0,3,,,,,,,,,,,,,,,,,,,,,,,,,,,,,,,,,,,,,10.916410599995288,197.18649249999726,208.30310140000074,3.0,7.961624600007781,,,,,,,,,,,,,,,,,,,,,,,,,,,,,,,,,23,A,2024-05-01_08h14.36.539,attentional_competition_task,2022.2.4,144.01481624310767,
positions.xlsx,positions_test.xlsx,positions_test_new.xlsx,stimuli.xlsx,stimuli_new.xlsx,stimuli/Social1.png,stimuli/Social2.png,stimuli/Nonsocial1.png,stimuli/Nonsocial2.png,stimuli/Social3.png,stimuli/Social4.png,stimuli/Nonsocial3.png,stimuli/Nonsocial4.png,cs_neg_ns,,,,,,,,,,0,0,0,0,0,1,1,1,,,,,,,,,,,,,,,,,,,,,,,,,,,,,,,,,,,,,,,216.72633629999473,4.0,3.196601499992539,,,,,,,,,,,,,,,,,,,,,,,,,,,,,,,,,23,A,2024-05-01_08h14.36.539,attentional_competition_task,2022.2.4,144.01481624310767,
positions.xlsx,positions_test.xlsx,positions_test_new.xlsx,stimuli.xlsx,stimuli_new.xlsx,stimuli/Social1.png,stimuli/Social2.png,stimuli/Nonsocial1.png,stimuli/Nonsocial2.png,stimuli/Social3.png,stimuli/Social4.png,stimuli/Nonsocial3.png,stimuli/Nonsocial4.png,cs_pos_s,,,,,,,,,,0,0,0,0,0,2,2,2,,,,,,,,,,,,,,,,,,,,,,,,,,,,,,,,,,,,,,,222.0594434999948,5.0,2.8045297999924514,,,,,,,,,,,,,,,,,,,,,,,,,,,,,,,,,23,A,2024-05-01_08h14.36.539,attentional_competition_task,2022.2.4,144.01481624310767,
positions.xlsx,positions_test.xlsx,positions_test_new.xlsx,stimuli.xlsx,stimuli_new.xlsx,stimuli/Social1.png,stimuli/Social2.png,stimuli/Nonsocial1.png,stimuli/Nonsocial2.png,stimuli/Social3.png,stimuli/Social4.png,stimuli/Nonsocial3.png,stimuli/Nonsocial4.png,cs_neg_s,,,,,,,,,,0,0,0,0,0,3,3,0,,,,,,,,,,,,,,,,,,,,,,,,,,,,,,,,,,,,,,,225.3718125000014,3.0,3.0548313000035705,,,,,,,,,,,,,,,,,,,,,,,,,,,,,,,,,23,A,2024-05-01_08h14.36.539,attentional_competition_task,2022.2.4,144.01481624310767,
positions.xlsx,positions_test.xlsx,positions_test_new.xlsx,stimuli.xlsx,stimuli_new.xlsx,stimuli/Social1.png,stimuli/Social2.png,stimuli/Nonsocial1.png,stimuli/Nonsocial2.png,stimuli/Social3.png,stimuli/Social4.png,stimuli/Nonsocial3.png,stimuli/Nonsocial4.png,,,,,,,,,,,0,0,0,0,,,,,0,0,0,0,,,,,,,,,,,,,,,,,,,,,,,,,,,,,,,,,,,,,,228.62166389999038,"[[0.6749999999999999, -0.8], [-0.675, 0.19999999999999996], [0.45000000000000007, 0.19999999999999996], [0.0, -0.30000000000000004], [0.22499999999999998, 0.7], [-0.22499999999999998, -0.8], [0.9, -0.8], [0.6749999999999999, -0.30000000000000004], [-0.9, 0.7], [-0.45, -0.8], [-0.45, -0.30000000000000004], [-0.45, 0.19999999999999996], [-0.22499999999999998, -0.30000000000000004], [0.22499999999999998, -0.8], [-0.9, 0.19999999999999996]]","[[-0.9, -0.8], [0.0, 0.7], [-0.675, 0.7], [0.9, 0.7], [-0.9, -0.30000000000000004], [0.45000000000000007, -0.8], [-0.675, -0.30000000000000004], [-0.22499999999999998, 0.7], [0.45000000000000007, 0.7], [-0.675, -0.8], [0.0, 0.19999999999999996], [-0.22499999999999998, 0.19999999999999996], [0.45000000000000007, -0.30000000000000004], [0.0, -0.8], [-0.45, 0.7]]",,,,,,,,,,,,,,,,,,,,,,,,,,,,,,23,A,2024-05-01_08h14.36.539,attentional_competition_task,2022.2.4,144.01481624310767,
positions.xlsx,positions_test.xlsx,positions_test_new.xlsx,stimuli.xlsx,stimuli_new.xlsx,stimuli/Social1.png,stimuli/Social2.png,stimuli/Nonsocial1.png,stimuli/Nonsocial2.png,stimuli/Social3.png,stimuli/Social4.png,stimuli/Nonsocial3.png,stimuli/Nonsocial4.png,,,,,,,,,,,0,0,0,0,,,,,1,0,1,0,,,,,,,,,,,,,,,,,,,,,,,,,,,,,,,,,,,,,,,"[[0.6749999999999999, -0.8], [-0.45, 0.19999999999999996], [0.9, 0.7], [-0.9, -0.8], [0.45000000000000007, 0.19999999999999996], [0.45000000000000007, -0.30000000000000004], [-0.9, 0.7], [-0.22499999999999998, -0.30000000000000004], [-0.9, -0.30000000000000004], [-0.675, -0.8], [-0.9, 0.19999999999999996], [0.22499999999999998, -0.8], [0.0, -0.8], [0.9, -0.8], [-0.22499999999999998, -0.8]]","[[0.45000000000000007, 0.7], [-0.675, 0.7], [-0.45, -0.8], [0.6749999999999999, 0.19999999999999996], [0.0, 0.19999999999999996], [0.6749999999999999, -0.30000000000000004], [-0.675, -0.30000000000000004], [-0.45, -0.30000000000000004], [0.22499999999999998, 0.19999999999999996], [-0.675, 0.19999999999999996], [0.0, 0.7], [0.45000000000000007, -0.8], [0.0, -0.30000000000000004], [-0.22499999999999998, 0.7], [0.22499999999999998, 0.7]]",,,,,,,,,,,,,,,,,,,,,,,,,,,,,,23,A,2024-05-01_08h14.36.539,attentional_competition_task,2022.2.4,144.01481624310767,
positions.xlsx,positions_test.xlsx,positions_test_new.xlsx,stimuli.xlsx,stimuli_new.xlsx,stimuli/Social1.png,stimuli/Social2.png,stimuli/Nonsocial1.png,stimuli/Nonsocial2.png,stimuli/Social3.png,stimuli/Social4.png,stimuli/Nonsocial3.png,stimuli/Nonsocial4.png,cs_pos_ns,"(0.7, -0.5)",,,,,,,,,0,0,0,0,,,,,,,,,0,0,0,15,,,,,,,,,,,,,,,,,,,,,,,,,,,,,,,,,,,,,304.55604559999483,321.8817064999894,3,reward,1,0.249949100005324,0.2499530000059167,322.14565589999256,,,,,,,,,,,,,,,,,,,,,,23,A,2024-05-01_08h14.36.539,attentional_competition_task,2022.2.4,144.01481624310767,
positions.xlsx,positions_test.xlsx,positions_test_new.xlsx,stimuli.xlsx,stimuli_new.xlsx,stimuli/Social1.png,stimuli/Social2.png,stimuli/Nonsocial1.png,stimuli/Nonsocial2.png,stimuli/Social3.png,stimuli/Social4.png,stimuli/Nonsocial3.png,stimuli/Nonsocial4.png,cs_neg_s,"(0.7, 0.5)",,,,,,,,,0,0,0,0,,,,,,,,,0,1,1,2,,,,,,,,,,,,,,,,,,,,,,,,,,,,,,,,,,,,,,329.5063974999939,0,loss,1,0.20172420000017155,0.20172789999924134,329.72168649999367,,,,,,,,,,,,,,,,,,,,,,23,A,2024-05-01_08h14.36.539,attentional_competition_task,2022.2.4,144.01481624310767,
positions.xlsx,positions_test.xlsx,positions_test_new.xlsx,stimuli.xlsx,stimuli_new.xlsx,stimuli/Social1.png,stimuli/Social2.png,stimuli/Nonsocial1.png,stimuli/Nonsocial2.png,stimuli/Social3.png,stimuli/Social4.png,stimuli/Nonsocial3.png,stimuli/Nonsocial4.png,cs_neg_ns,"(-0.7, -0.5)",,,,,,,,,0,0,0,0,,,,,,,,,0,2,2,9,,,,,,,,,,,,,,,,,,,,,,,,,,,,,,,,,,,,,,337.52693310000177,-3,loss,1,0.47933909999846946,0.4862161999917589,338.0199575000006,,,,,,,,,,,,,,,,,,,,,,23,A,2024-05-01_08h14.36.539,attentional_competition_task,2022.2.4,144.01481624310767,
positions.xlsx,positions_test.xlsx,positions_test_new.xlsx,stimuli.xlsx,stimuli_new.xlsx,stimuli/Social1.png,stimuli/Social2.png,stimuli/Nonsocial1.png,stimuli/Nonsocial2.png,stimuli/Social3.png,stimuli/Social4.png,stimuli/Nonsocial3.png,stimuli/Nonsocial4.png,cs_neg_s,"(-0.7, -0.5)",,,,,,,,,0,0,0,0,,,,,,,,,0,3,3,1,,,,,,,,,,,,,,,,,,,,,,,,,,,,,,,,,,,,,,345.4849492999929,-3,none,0,,,348.4986898999923,,,,,,,,,,,,,,,,,,,,,,23,A,2024-05-01_08h14.36.539,attentional_competition_task,2022.2.4,144.01481624310767,
positions.xlsx,positions_test.xlsx,positions_test_new.xlsx,stimuli.xlsx,stimuli_new.xlsx,stimuli/Social1.png,stimuli/Social2.png,stimuli/Nonsocial1.png,stimuli/Nonsocial2.png,stimuli/Social3.png,stimuli/Social4.png,stimuli/Nonsocial3.png,stimuli/Nonsocial4.png,cs_neg_ns,"(0.7, -0.5)",,,,,,,,,0,0,0,0,,,,,,,,,0,4,4,11,,,,,,,,,,,,,,,,,,,,,,,,,,,,,,,,,,,,,,355.8456753999926,-6,loss,1,0.6185375000059139,0.6185417000087909,356.47062639999785,,,,,,,,,,,,,,,,,,,,,,23,A,2024-05-01_08h14.36.539,attentional_competition_task,2022.2.4,144.01481624310767,
positions.xlsx,positions_test.xlsx,positions_test_new.xlsx,stimuli.xlsx,stimuli_new.xlsx,stimuli/Social1.png,stimuli/Social2.png,stimuli/Nonsocial1.png,stimuli/Nonsocial2.png,stimuli/Social3.png,stimuli/Social4.png,stimuli/Nonsocial3.png,stimuli/Nonsocial4.png,cs_neg_ns,"(-0.7, 0.5)",,,,,,,,,0,0,0,0,,,,,,,,,0,5,5,8,,,,,,,,,,,,,,,,,,,,,,,,,,,,,,,,,,,,,,363.5675549000007,-9,loss,1,0.22225169999001082,0.22225520000210963,363.7966837999993,,,,,,,,,,,,,,,,,,,,,,23,A,2024-05-01_08h14.36.539,attentional_competition_task,2022.2.4,144.01481624310767,
positions.xlsx,positions_test.xlsx,positions_test_new.xlsx,stimuli.xlsx,stimuli_new.xlsx,stimuli/Social1.png,stimuli/Social2.png,stimuli/Nonsocial1.png,stimuli/Nonsocial2.png,stimuli/Social3.png,stimuli/Social4.png,stimuli/Nonsocial3.png,stimuli/Nonsocial4.png,cs_pos_s,"(-0.7, -0.5)",,,,,,,,,0,0,0,0,,,,,,,,,0,6,6,5,,,,,,,,,,,,,,,,,,,,,,,,,,,,,,,,,,,,,,370.9561085999885,-6,reward,1,0.7778614999988349,0.7778652999986662,371.74086279999756,,,,,,,,,,,,,,,,,,,,,,23,A,2024-05-01_08h14.36.539,attentional_competition_task,2022.2.4,144.01481624310767,
positions.xlsx,positions_test.xlsx,positions_test_new.xlsx,stimuli.xlsx,stimuli_new.xlsx,stimuli/Social1.png,stimuli/Social2.png,stimuli/Nonsocial1.png,stimuli/Nonsocial2.png,stimuli/Social3.png,stimuli/Social4.png,stimuli/Nonsocial3.png,stimuli/Nonsocial4.png,cs_pos_s,"(0.7, -0.5)",,,,,,,,,0,0,0,0,,,,,,,,,0,7,7,7,,,,,,,,,,,,,,,,,,,,,,,,,,,,,,,,,,,,,,378.88635289999365,-3,reward,1,0.4656634999992093,0.46566790000360925,379.3585516999883,,,,,,,,,,,,,,,,,,,,,,23,A,2024-05-01_08h14.36.539,attentional_competition_task,2022.2.4,144.01481624310767,
positions.xlsx,positions_test.xlsx,positions_test_new.xlsx,stimuli.xlsx,stimuli_new.xlsx,stimuli/Social1.png,stimuli/Social2.png,stimuli/Nonsocial1.png,stimuli/Nonsocial2.png,stimuli/Social3.png,stimuli/Social4.png,stimuli/Nonsocial3.png,stimuli/Nonsocial4.png,cs_pos_s,"(-0.7, 0.5)",,,,,,,,,0,0,0,0,,,,,,,,,0,8,8,4,,,,,,,,,,,,,,,,,,,,,,,,,,,,,,,,,,,,,,386.7957568999991,0,reward,1,0.701737100011087,0.7017406000086339,387.5040594999882,,,,,,,,,,,,,,,,,,,,,,23,A,2024-05-01_08h14.36.539,attentional_competition_task,2022.2.4,144.01481624310767,
positions.xlsx,positions_test.xlsx,positions_test_new.xlsx,stimuli.xlsx,stimuli_new.xlsx,stimuli/Social1.png,stimuli/Social2.png,stimuli/Nonsocial1.png,stimuli/Nonsocial2.png,stimuli/Social3.png,stimuli/Social4.png,stimuli/Nonsocial3.png,stimuli/Nonsocial4.png,cs_pos_s,"(0.7, 0.5)",,,,,,,,,0,0,0,0,,,,,,,,,0,9,9,6,,,,,,,,,,,,,,,,,,,,,,,,,,,,,,,,,,,,,,394.78152079999563,3,reward,1,0.5556527000007918,0.5556562999991002,395.34403329998895,,,,,,,,,,,,,,,,,,,,,,23,A,2024-05-01_08h14.36.539,attentional_competition_task,2022.2.4,144.01481624310767,
positions.xlsx,positions_test.xlsx,positions_test_new.xlsx,stimuli.xlsx,stimuli_new.xlsx,stimuli/Social1.png,stimuli/Social2.png,stimuli/Nonsocial1.png,stimuli/Nonsocial2.png,stimuli/Social3.png,stimuli/Social4.png,stimuli/Nonsocial3.png,stimuli/Nonsocial4.png,cs_pos_ns,"(-0.7, -0.5)",,,,,,,,,0,0,0,0,,,,,,,,,0,10,10,13,,,,,,,,,,,,,,,,,,,,,,,,,,,,,,,,,,,,,,402.33675940000103,6,reward,1,0.5488973000028636,0.5489011000026949,402.89236040000105,,,,,,,,,,,,,,,,,,,,,,23,A,2024-05-01_08h14.36.539,attentional_competition_task,2022.2.4,144.01481624310767,
positions.xlsx,positions_test.xlsx,positions_test_new.xlsx,stimuli.xlsx,stimuli_new.xlsx,stimuli/Social1.png,stimuli/Social2.png,stimuli/Nonsocial1.png,stimuli/Nonsocial2.png,stimuli/Social3.png,stimuli/Social4.png,stimuli/Nonsocial3.png,stimuli/Nonsocial4.png,cs_neg_s,"(0.7, -0.5)",,,,,,,,,0,0,0,0,,,,,,,,,0,11,11,3,,,,,,,,,,,,,,,,,,,,,,,,,,,,,,,,,,,,,,409.89205549999315,6,none,0,,,412.90576670000155,,,,,,,,,,,,,,,,,,,,,,23,A,2024-05-01_08h14.36.539,attentional_competition_task,2022.2.4,144.01481624310767,
positions.xlsx,positions_test.xlsx,positions_test_new.xlsx,stimuli.xlsx,stimuli_new.xlsx,stimuli/Social1.png,stimuli/Social2.png,stimuli/Nonsocial1.png,stimuli/Nonsocial2.png,stimuli/Social3.png,stimuli/Social4.png,stimuli/Nonsocial3.png,stimuli/Nonsocial4.png,cs_neg_s,"(-0.7, 0.5)",,,,,,,,,0,0,0,0,,,,,,,,,0,12,12,0,,,,,,,,,,,,,,,,,,,,,,,,,,,,,,,,,,,,,,419.69716479998897,6,none,0,,,422.70401180000044,,,,,,,,,,,,,,,,,,,,,,23,A,2024-05-01_08h14.36.539,attentional_competition_task,2022.2.4,144.01481624310767,
positions.xlsx,positions_test.xlsx,positions_test_new.xlsx,stimuli.xlsx,stimuli_new.xlsx,stimuli/Social1.png,stimuli/Social2.png,stimuli/Nonsocial1.png,stimuli/Nonsocial2.png,stimuli/Social3.png,stimuli/Social4.png,stimuli/Nonsocial3.png,stimuli/Nonsocial4.png,cs_pos_ns,"(0.7, 0.5)",,,,,,,,,0,0,0,0,,,,,,,,,0,13,13,14,,,,,,,,,,,,,,,,,,,,,,,,,,,,,,,,,,,,,,430.38425659999484,9,reward,1,0.20826780000061262,0.20827180000196677,430.5995854999928,,,,,,,,,,,,,,,,,,,,,,23,A,2024-05-01_08h14.36.539,attentional_competition_task,2022.2.4,144.01481624310767,
positions.xlsx,positions_test.xlsx,positions_test_new.xlsx,stimuli.xlsx,stimuli_new.xlsx,stimuli/Social1.png,stimuli/Social2.png,stimuli/Nonsocial1.png,stimuli/Nonsocial2.png,stimuli/Social3.png,stimuli/Social4.png,stimuli/Nonsocial3.png,stimuli/Nonsocial4.png,cs_neg_ns,"(0.7, 0.5)",,,,,,,,,0,0,0,0,,,,,,,,,0,14,14,10,,,,,,,,,,,,,,,,,,,,,,,,,,,,,,,,,,,,,,438.05756879999535,6,loss,1,0.2366228000028059,0.2434313999983715,438.3076033999969,,,,,,,,,,,,,,,,,,,,,,23,A,2024-05-01_08h14.36.539,attentional_competition_task,2022.2.4,144.01481624310767,
positions.xlsx,positions_test.xlsx,positions_test_new.xlsx,stimuli.xlsx,stimuli_new.xlsx,stimuli/Social1.png,stimuli/Social2.png,stimuli/Nonsocial1.png,stimuli/Nonsocial2.png,stimuli/Social3.png,stimuli/Social4.png,stimuli/Nonsocial3.png,stimuli/Nonsocial4.png,cs_pos_ns,"(-0.7, 0.5)",,,,,,,,,0,0,0,0,,,,,,,,,0,15,15,12,,,,,,,,,,,,,,,,,,,,,,,,,,,,,,,,,,,,,,446.18219919998955,9,reward,1,0.22907900001155213,0.22908270001062192,446.4182984999934,,,,,,,,,,,,,,,,,,,,,,23,A,2024-05-01_08h14.36.539,attentional_competition_task,2022.2.4,144.01481624310767,
positions.xlsx,positions_test.xlsx,positions_test_new.xlsx,stimuli.xlsx,stimuli_new.xlsx,stimuli/Social1.png,stimuli/Social2.png,stimuli/Nonsocial1.png,stimuli/Nonsocial2.png,stimuli/Social3.png,stimuli/Social4.png,stimuli/Nonsocial3.png,stimuli/Nonsocial4.png,cs_neg_ns,"(-0.7, -0.5)",,,,,,,,,0,0,0,0,,,,,,,,,1,0,16,9,,,,,,,,,,,,,,,,,,,,,,,,,,,,,,,,,,,,,,453.3347783999925,9,none,0,,,456.3484791999945,,,,,,,,,,,,,,,,,,,,,,23,A,2024-05-01_08h14.36.539,attentional_competition_task,2022.2.4,144.01481624310767,
positions.xlsx,positions_test.xlsx,positions_test_new.xlsx,stimuli.xlsx,stimuli_new.xlsx,stimuli/Social1.png,stimuli/Social2.png,stimuli/Nonsocial1.png,stimuli/Nonsocial2.png,stimuli/Social3.png,stimuli/Social4.png,stimuli/Nonsocial3.png,stimuli/Nonsocial4.png,cs_pos_ns,"(-0.7, -0.5)",,,,,,,,,0,0,0,0,,,,,,,,,1,1,17,13,,,,,,,,,,,,,,,,,,,,,,,,,,,,,,,,,,,,,,464.19538479999756,12,reward,1,0.5626825000072131,0.5626864000078058,464.7649004999985,,,,,,,,,,,,,,,,,,,,,,23,A,2024-05-01_08h14.36.539,attentional_competition_task,2022.2.4,144.01481624310767,
positions.xlsx,positions_test.xlsx,positions_test_new.xlsx,stimuli.xlsx,stimuli_new.xlsx,stimuli/Social1.png,stimuli/Social2.png,stimuli/Nonsocial1.png,stimuli/Nonsocial2.png,stimuli/Social3.png,stimuli/Social4.png,stimuli/Nonsocial3.png,stimuli/Nonsocial4.png,cs_pos_s,"(0.7, -0.5)",,,,,,,,,0,0,0,0,,,,,,,,,1,2,18,7,,,,,,,,,,,,,,,,,,,,,,,,,,,,,,,,,,,,,,472.25063070000033,15,reward,1,0.5559653999953298,0.555969199995161,472.8131060000014,,,,,,,,,,,,,,,,,,,,,,23,A,2024-05-01_08h14.36.539,attentional_competition_task,2022.2.4,144.01481624310767,
positions.xlsx,positions_test.xlsx,positions_test_new.xlsx,stimuli.xlsx,stimuli_new.xlsx,stimuli/Social1.png,stimuli/Social2.png,stimuli/Nonsocial1.png,stimuli/Nonsocial2.png,stimuli/Social3.png,stimuli/Social4.png,stimuli/Nonsocial3.png,stimuli/Nonsocial4.png,cs_neg_s,"(0.7, 0.5)",,,,,,,,,0,0,0,0,,,,,,,,,1,3,19,2,,,,,,,,,,,,,,,,,,,,,,,,,,,,,,,,,,,,,,480.6460967000021,12,loss,1,0.3334566999983508,0.3334603000112111,480.98637049998797,,,,,,,,,,,,,,,,,,,,,,23,A,2024-05-01_08h14.36.539,attentional_competition_task,2022.2.4,144.01481624310767,
positions.xlsx,positions_test.xlsx,positions_test_new.xlsx,stimuli.xlsx,stimuli_new.xlsx,stimuli/Social1.png,stimuli/Social2.png,stimuli/Nonsocial1.png,stimuli/Nonsocial2.png,stimuli/Social3.png,stimuli/Social4.png,stimuli/Nonsocial3.png,stimuli/Nonsocial4.png,cs_pos_s,"(-0.7, -0.5)",,,,,,,,,0,0,0,0,,,,,,,,,1,4,20,5,,,,,,,,,,,,,,,,,,,,,,,,,,,,,,,,,,,,,,488.5207797999901,15,reward,1,0.6532292999909259,0.6532327999884728,489.1804684999952,,,,,,,,,,,,,,,,,,,,,,23,A,2024-05-01_08h14.36.539,attentional_competition_task,2022.2.4,144.01481624310767,
positions.xlsx,positions_test.xlsx,positions_test_new.xlsx,stimuli.xlsx,stimuli_new.xlsx,stimuli/Social1.png,stimuli/Social2.png,stimuli/Nonsocial1.png,stimuli/Nonsocial2.png,stimuli/Social3.png,stimuli/Social4.png,stimuli/Nonsocial3.png,stimuli/Nonsocial4.png,cs_neg_s,"(-0.7, -0.5)",,,,,,,,,0,0,0,0,,,,,,,,,1,5,21,1,,,,,,,,,,,,,,,,,,,,,,,,,,,,,,,,,,,,,,496.9787745999929,15,none,0,,,499.9925585000019,,,,,,,,,,,,,,,,,,,,,,23,A,2024-05-01_08h14.36.539,attentional_competition_task,2022.2.4,144.01481624310767,
positions.xlsx,positions_test.xlsx,positions_test_new.xlsx,stimuli.xlsx,stimuli_new.xlsx,stimuli/Social1.png,stimuli/Social2.png,stimuli/Nonsocial1.png,stimuli/Nonsocial2.png,stimuli/Social3.png,stimuli/Social4.png,stimuli/Nonsocial3.png,stimuli/Nonsocial4.png,cs_neg_ns,"(0.7, -0.5)",,,,,,,,,0,0,0,0,,,,,,,,,1,6,22,11,,,,,,,,,,,,,,,,,,,,,,,,,,,,,,,,,,,,,,507.3325124999974,12,loss,1,0.5979111000051489,0.6059717000025557,507.9505238999991,,,,,,,,,,,,,,,,,,,,,,23,A,2024-05-01_08h14.36.539,attentional_competition_task,2022.2.4,144.01481624310767,
positions.xlsx,positions_test.xlsx,positions_test_new.xlsx,stimuli.xlsx,stimuli_new.xlsx,stimuli/Social1.png,stimuli/Social2.png,stimuli/Nonsocial1.png,stimuli/Nonsocial2.png,stimuli/Social3.png,stimuli/Social4.png,stimuli/Nonsocial3.png,stimuli/Nonsocial4.png,cs_pos_ns,"(0.7, 0.5)",,,,,,,,,0,0,0,0,,,,,,,,,1,7,23,14,,,,,,,,,,,,,,,,,,,,,,,,,,,,,,,,,,,,,,515.1933073999971,15,reward,1,0.45833480000146665,0.4583381999982521,515.6585655999952,,,,,,,,,,,,,,,,,,,,,,23,A,2024-05-01_08h14.36.539,attentional_competition_task,2022.2.4,144.01481624310767,
positions.xlsx,positions_test.xlsx,positions_test_new.xlsx,stimuli.xlsx,stimuli_new.xlsx,stimuli/Social1.png,stimuli/Social2.png,stimuli/Nonsocial1.png,stimuli/Nonsocial2.png,stimuli/Social3.png,stimuli/Social4.png,stimuli/Nonsocial3.png,stimuli/Nonsocial4.png,cs_neg_ns,"(-0.7, 0.5)",,,,,,,,,0,0,0,0,,,,,,,,,1,8,24,8,,,,,,,,,,,,,,,,,,,,,,,,,,,,,,,,,,,,,,522.4777141999948,12,loss,1,0.6182150000095135,0.6182189000101062,523.1027251999913,,,,,,,,,,,,,,,,,,,,,,23,A,2024-05-01_08h14.36.539,attentional_competition_task,2022.2.4,144.01481624310767,
positions.xlsx,positions_test.xlsx,positions_test_new.xlsx,stimuli.xlsx,stimuli_new.xlsx,stimuli/Social1.png,stimuli/Social2.png,stimuli/Nonsocial1.png,stimuli/Nonsocial2.png,stimuli/Social3.png,stimuli/Social4.png,stimuli/Nonsocial3.png,stimuli/Nonsocial4.png,cs_pos_s,"(-0.7, 0.5)",,,,,,,,,0,0,0,0,,,,,,,,,1,9,25,4,,,,,,,,,,,,,,,,,,,,,,,,,,,,,,,,,,,,,,530.3871564000001,15,reward,1,0.6459460000041872,0.6459494000009727,531.0399159999943,,,,,,,,,,,,,,,,,,,,,,23,A,2024-05-01_08h14.36.539,attentional_competition_task,2022.2.4,144.01481624310767,
positions.xlsx,positions_test.xlsx,positions_test_new.xlsx,stimuli.xlsx,stimuli_new.xlsx,stimuli/Social1.png,stimuli/Social2.png,stimuli/Nonsocial1.png,stimuli/Nonsocial2.png,stimuli/Social3.png,stimuli/Social4.png,stimuli/Nonsocial3.png,stimuli/Nonsocial4.png,cs_pos_s,"(0.7, 0.5)",,,,,,,,,0,0,0,0,,,,,,,,,1,10,26,6,,,,,,,,,,,,,,,,,,,,,,,,,,,,,,,,,,,,,,538.3104255999933,18,reward,1,0.22245020000264049,0.22245380000094883,538.5396290999925,,,,,,,,,,,,,,,,,,,,,,23,A,2024-05-01_08h14.36.539,attentional_competition_task,2022.2.4,144.01481624310767,
positions.xlsx,positions_test.xlsx,positions_test_new.xlsx,stimuli.xlsx,stimuli_new.xlsx,stimuli/Social1.png,stimuli/Social2.png,stimuli/Nonsocial1.png,stimuli/Nonsocial2.png,stimuli/Social3.png,stimuli/Social4.png,stimuli/Nonsocial3.png,stimuli/Nonsocial4.png,cs_neg_s,"(-0.7, 0.5)",,,,,,,,,0,0,0,0,,,,,,,,,1,11,27,0,,,,,,,,,,,,,,,,,,,,,,,,,,,,,,,,,,,,,,546.2128747999959,18,none,0,,,549.226639799992,,,,,,,,,,,,,,,,,,,,,,23,A,2024-05-01_08h14.36.539,attentional_competition_task,2022.2.4,144.01481624310767,
positions.xlsx,positions_test.xlsx,positions_test_new.xlsx,stimuli.xlsx,stimuli_new.xlsx,stimuli/Social1.png,stimuli/Social2.png,stimuli/Nonsocial1.png,stimuli/Nonsocial2.png,stimuli/Social3.png,stimuli/Social4.png,stimuli/Nonsocial3.png,stimuli/Nonsocial4.png,cs_neg_s,"(0.7, -0.5)",,,,,,,,,0,0,0,0,,,,,,,,,1,12,28,3,,,,,,,,,,,,,,,,,,,,,,,,,,,,,,,,,,,,,,556.79577099999,18,none,0,,,559.8026008000015,,,,,,,,,,,,,,,,,,,,,,23,A,2024-05-01_08h14.36.539,attentional_competition_task,2022.2.4,144.01481624310767,
positions.xlsx,positions_test.xlsx,positions_test_new.xlsx,stimuli.xlsx,stimuli_new.xlsx,stimuli/Social1.png,stimuli/Social2.png,stimuli/Nonsocial1.png,stimuli/Nonsocial2.png,stimuli/Social3.png,stimuli/Social4.png,stimuli/Nonsocial3.png,stimuli/Nonsocial4.png,cs_pos_ns,"(-0.7, 0.5)",,,,,,,,,0,0,0,0,,,,,,,,,1,13,29,12,,,,,,,,,,,,,,,,,,,,,,,,,,,,,,,,,,,,,,567.4967430999968,21,reward,1,0.24364869999408256,0.2503671000013128,567.7536805999989,,,,,,,,,,,,,,,,,,,,,,23,A,2024-05-01_08h14.36.539,attentional_competition_task,2022.2.4,144.01481624310767,
positions.xlsx,positions_test.xlsx,positions_test_new.xlsx,stimuli.xlsx,stimuli_new.xlsx,stimuli/Social1.png,stimuli/Social2.png,stimuli/Nonsocial1.png,stimuli/Nonsocial2.png,stimuli/Social3.png,stimuli/Social4.png,stimuli/Nonsocial3.png,stimuli/Nonsocial4.png,cs_neg_ns,"(0.7, 0.5)",,,,,,,,,0,0,0,0,,,,,,,,,1,14,30,10,,,,,,,,,,,,,,,,,,,,,,,,,,,,,,,,,,,,,,574.9339183999982,21,none,0,,,577.947697399999,,,,,,,,,,,,,,,,,,,,,,23,A,2024-05-01_08h14.36.539,attentional_competition_task,2022.2.4,144.01481624310767,
positions.xlsx,positions_test.xlsx,positions_test_new.xlsx,stimuli.xlsx,stimuli_new.xlsx,stimuli/Social1.png,stimuli/Social2.png,stimuli/Nonsocial1.png,stimuli/Nonsocial2.png,stimuli/Social3.png,stimuli/Social4.png,stimuli/Nonsocial3.png,stimuli/Nonsocial4.png,cs_pos_ns,"(0.7, -0.5)",,,,,,,,,0,0,0,0,,,,,,,,,1,15,31,15,,,,,,,,,,,,,,,,,,,,,,,,,,,,,,,,,,,,,,585.5584909999889,24,reward,1,0.8059268000070006,0.8059306000068318,586.3779247999919,,,,,,,,,,,,,,,,,,,,,,23,A,2024-05-01_08h14.36.539,attentional_competition_task,2022.2.4,144.01481624310767,
positions.xlsx,positions_test.xlsx,positions_test_new.xlsx,stimuli.xlsx,stimuli_new.xlsx,stimuli/Social1.png,stimuli/Social2.png,stimuli/Nonsocial1.png,stimuli/Nonsocial2.png,stimuli/Social3.png,stimuli/Social4.png,stimuli/Nonsocial3.png,stimuli/Nonsocial4.png,cs_neg_ns,"(0.7, -0.5)",,,,,,,,,0,0,0,0,,,,,,,,,,,,,0,0,0,11,,,,,,,,,,,,,,,,,,,,,,,,,,,,,,,,,,602.127287299998,21,loss,1,0.5833533999975771,0.5833572999981698,602.7175474999967,,,,,,,,,,,,,,,,,,,,,,23,A,2024-05-01_08h14.36.539,attentional_competition_task,2022.2.4,144.01481624310767,
positions.xlsx,positions_test.xlsx,positions_test_new.xlsx,stimuli.xlsx,stimuli_new.xlsx,stimuli/Social1.png,stimuli/Social2.png,stimuli/Nonsocial1.png,stimuli/Nonsocial2.png,stimuli/Social3.png,stimuli/Social4.png,stimuli/Nonsocial3.png,stimuli/Nonsocial4.png,cs_neg_ns,"(0.7, 0.5)",,,,,,,,,0,0,0,0,,,,,,,,,,,,,0,1,1,10,,,,,,,,,,,,,,,,,,,,,,,,,,,,,,,,,,610.4880206999951,18,loss,1,0.38900000001012813,0.38900350000767503,610.8838294000016,,,,,,,,,,,,,,,,,,,,,,23,A,2024-05-01_08h14.36.539,attentional_competition_task,2022.2.4,144.01481624310767,
positions.xlsx,positions_test.xlsx,positions_test_new.xlsx,stimuli.xlsx,stimuli_new.xlsx,stimuli/Social1.png,stimuli/Social2.png,stimuli/Nonsocial1.png,stimuli/Nonsocial2.png,stimuli/Social3.png,stimuli/Social4.png,stimuli/Nonsocial3.png,stimuli/Nonsocial4.png,cs_neg_s,"(-0.7, 0.5)",,,,,,,,,0,0,0,0,,,,,,,,,,,,,0,2,2,0,,,,,,,,,,,,,,,,,,,,,,,,,,,,,,,,,,617.7377592999983,15,loss,1,0.22949690000677947,0.22950050000508782,617.9738594999944,,,,,,,,,,,,,,,,,,,,,,23,A,2024-05-01_08h14.36.539,attentional_competition_task,2022.2.4,144.01481624310767,
positions.xlsx,positions_test.xlsx,positions_test_new.xlsx,stimuli.xlsx,stimuli_new.xlsx,stimuli/Social1.png,stimuli/Social2.png,stimuli/Nonsocial1.png,stimuli/Nonsocial2.png,stimuli/Social3.png,stimuli/Social4.png,stimuli/Nonsocial3.png,stimuli/Nonsocial4.png,cs_neg_s,"(-0.7, -0.5)",,,,,,,,,0,0,0,0,,,,,,,,,,,,,0,3,3,1,,,,,,,,,,,,,,,,,,,,,,,,,,,,,,,,,,625.7373932999908,15,none,0,,,628.7511800999928,,,,,,,,,,,,,,,,,,,,,,23,A,2024-05-01_08h14.36.539,attentional_competition_task,2022.2.4,144.01481624310767,
positions.xlsx,positions_test.xlsx,positions_test_new.xlsx,stimuli.xlsx,stimuli_new.xlsx,stimuli/Social1.png,stimuli/Social2.png,stimuli/Nonsocial1.png,stimuli/Nonsocial2.png,stimuli/Social3.png,stimuli/Social4.png,stimuli/Nonsocial3.png,stimuli/Nonsocial4.png,cs_neg_s,"(0.7, 0.5)",,,,,,,,,0,0,0,0,,,,,,,,,,,,,0,4,4,2,,,,,,,,,,,,,,,,,,,,,,,,,,,,,,,,,,636.0564582999941,15,none,0,,,639.0632715999964,,,,,,,,,,,,,,,,,,,,,,23,A,2024-05-01_08h14.36.539,attentional_competition_task,2022.2.4,144.01481624310767,
positions.xlsx,positions_test.xlsx,positions_test_new.xlsx,stimuli.xlsx,stimuli_new.xlsx,stimuli/Social1.png,stimuli/Social2.png,stimuli/Nonsocial1.png,stimuli/Nonsocial2.png,stimuli/Social3.png,stimuli/Social4.png,stimuli/Nonsocial3.png,stimuli/Nonsocial4.png,cs_pos_s,"(-0.7, 0.5)",,,,,,,,,0,0,0,0,,,,,,,,,,,,,0,5,5,4,,,,,,,,,,,,,,,,,,,,,,,,,,,,,,,,,,646.7019013999961,18,reward,1,0.6183171000011498,0.6183206999994582,647.3268389000004,,,,,,,,,,,,,,,,,,,,,,23,A,2024-05-01_08h14.36.539,attentional_competition_task,2022.2.4,144.01481624310767,
positions.xlsx,positions_test.xlsx,positions_test_new.xlsx,stimuli.xlsx,stimuli_new.xlsx,stimuli/Social1.png,stimuli/Social2.png,stimuli/Nonsocial1.png,stimuli/Nonsocial2.png,stimuli/Social3.png,stimuli/Social4.png,stimuli/Nonsocial3.png,stimuli/Nonsocial4.png,cs_pos_ns,"(0.7, 0.5)",,,,,,,,,0,0,0,0,,,,,,,,,,,,,0,6,6,14,,,,,,,,,,,,,,,,,,,,,,,,,,,,,,,,,,654.7014957999927,21,reward,1,0.5622623000090243,0.5622660000080941,655.2709686999879,,,,,,,,,,,,,,,,,,,,,,23,A,2024-05-01_08h14.36.539,attentional_competition_task,2022.2.4,144.01481624310767,
positions.xlsx,positions_test.xlsx,positions_test_new.xlsx,stimuli.xlsx,stimuli_new.xlsx,stimuli/Social1.png,stimuli/Social2.png,stimuli/Nonsocial1.png,stimuli/Nonsocial2.png,stimuli/Social3.png,stimuli/Social4.png,stimuli/Nonsocial3.png,stimuli/Nonsocial4.png,cs_pos_ns,"(-0.7, 0.5)",,,,,,,,,0,0,0,0,,,,,,,,,,,,,0,7,7,12,,,,,,,,,,,,,,,,,,,,,,,,,,,,,,,,,,663.020657599991,24,reward,1,0.5349600999907125,0.5349636000028113,663.5622491999966,,,,,,,,,,,,,,,,,,,,,,23,A,2024-05-01_08h14.36.539,attentional_competition_task,2022.2.4,144.01481624310767,
positions.xlsx,positions_test.xlsx,positions_test_new.xlsx,stimuli.xlsx,stimuli_new.xlsx,stimuli/Social1.png,stimuli/Social2.png,stimuli/Nonsocial1.png,stimuli/Nonsocial2.png,stimuli/Social3.png,stimuli/Social4.png,stimuli/Nonsocial3.png,stimuli/Nonsocial4.png,cs_pos_s,"(0.7, -0.5)",,,,,,,,,0,0,0,0,,,,,,,,,,,,,0,8,8,7,,,,,,,,,,,,,,,,,,,,,,,,,,,,,,,,,,671.2911144999962,27,reward,1,0.5418150000041351,0.5418189000047278,671.8397459999978,,,,,,,,,,,,,,,,,,,,,,23,A,2024-05-01_08h14.36.539,attentional_competition_task,2022.2.4,144.01481624310767,
positions.xlsx,positions_test.xlsx,positions_test_new.xlsx,stimuli.xlsx,stimuli_new.xlsx,stimuli/Social1.png,stimuli/Social2.png,stimuli/Nonsocial1.png,stimuli/Nonsocial2.png,stimuli/Social3.png,stimuli/Social4.png,stimuli/Nonsocial3.png,stimuli/Nonsocial4.png,cs_pos_s,"(-0.7, -0.5)",,,,,,,,,0,0,0,0,,,,,,,,,,,,,0,9,9,5,,,,,,,,,,,,,,,,,,,,,,,,,,,,,,,,,,679.4852721999923,30,reward,1,0.4585614999959944,0.4585651999950642,679.9504922999913,,,,,,,,,,,,,,,,,,,,,,23,A,2024-05-01_08h14.36.539,attentional_competition_task,2022.2.4,144.01481624310767,
positions.xlsx,positions_test.xlsx,positions_test_new.xlsx,stimuli.xlsx,stimuli_new.xlsx,stimuli/Social1.png,stimuli/Social2.png,stimuli/Nonsocial1.png,stimuli/Nonsocial2.png,stimuli/Social3.png,stimuli/Social4.png,stimuli/Nonsocial3.png,stimuli/Nonsocial4.png,cs_pos_ns,"(0.7, -0.5)",,,,,,,,,0,0,0,0,,,,,,,,,,,,,0,10,10,15,,,,,,,,,,,,,,,,,,,,,,,,,,,,,,,,,,687.2140789999976,33,reward,1,0.500065000000177,0.5000689000007696,687.7210128000006,,,,,,,,,,,,,,,,,,,,,,23,A,2024-05-01_08h14.36.539,attentional_competition_task,2022.2.4,144.01481624310767,
positions.xlsx,positions_test.xlsx,positions_test_new.xlsx,stimuli.xlsx,stimuli_new.xlsx,stimuli/Social1.png,stimuli/Social2.png,stimuli/Nonsocial1.png,stimuli/Nonsocial2.png,stimuli/Social3.png,stimuli/Social4.png,stimuli/Nonsocial3.png,stimuli/Nonsocial4.png,cs_pos_ns,"(-0.7, -0.5)",,,,,,,,,0,0,0,0,,,,,,,,,,,,,0,11,11,13,,,,,,,,,,,,,,,,,,,,,,,,,,,,,,,,,,695.8387553999928,36,reward,1,0.6110009000112768,0.6110045000095852,696.4567775999894,,,,,,,,,,,,,,,,,,,,,,23,A,2024-05-01_08h14.36.539,attentional_competition_task,2022.2.4,144.01481624310767,
positions.xlsx,positions_test.xlsx,positions_test_new.xlsx,stimuli.xlsx,stimuli_new.xlsx,stimuli/Social1.png,stimuli/Social2.png,stimuli/Nonsocial1.png,stimuli/Nonsocial2.png,stimuli/Social3.png,stimuli/Social4.png,stimuli/Nonsocial3.png,stimuli/Nonsocial4.png,cs_neg_s,"(0.7, -0.5)",,,,,,,,,0,0,0,0,,,,,,,,,,,,,0,12,12,3,,,,,,,,,,,,,,,,,,,,,,,,,,,,,,,,,,704.4148237999907,36,none,0,,,707.4216386999906,,,,,,,,,,,,,,,,,,,,,,23,A,2024-05-01_08h14.36.539,attentional_competition_task,2022.2.4,144.01481624310767,
positions.xlsx,positions_test.xlsx,positions_test_new.xlsx,stimuli.xlsx,stimuli_new.xlsx,stimuli/Social1.png,stimuli/Social2.png,stimuli/Nonsocial1.png,stimuli/Nonsocial2.png,stimuli/Social3.png,stimuli/Social4.png,stimuli/Nonsocial3.png,stimuli/Nonsocial4.png,cs_neg_ns,"(-0.7, 0.5)",,,,,,,,,0,0,0,0,,,,,,,,,,,,,0,13,13,8,,,,,,,,,,,,,,,,,,,,,,,,,,,,,,,,,,714.7338128999982,33,loss,1,0.4168418999906862,0.4168453999882331,715.1574309999996,,,,,,,,,,,,,,,,,,,,,,23,A,2024-05-01_08h14.36.539,attentional_competition_task,2022.2.4,144.01481624310767,
positions.xlsx,positions_test.xlsx,positions_test_new.xlsx,stimuli.xlsx,stimuli_new.xlsx,stimuli/Social1.png,stimuli/Social2.png,stimuli/Nonsocial1.png,stimuli/Nonsocial2.png,stimuli/Social3.png,stimuli/Social4.png,stimuli/Nonsocial3.png,stimuli/Nonsocial4.png,cs_pos_s,"(0.7, 0.5)",,,,,,,,,0,0,0,0,,,,,,,,,,,,,0,14,14,6,,,,,,,,,,,,,,,,,,,,,,,,,,,,,,,,,,722.6432186999882,36,reward,1,0.6111407999997027,0.6111444999987725,723.2612833999883,,,,,,,,,,,,,,,,,,,,,,23,A,2024-05-01_08h14.36.539,attentional_competition_task,2022.2.4,144.01481624310767,
positions.xlsx,positions_test.xlsx,positions_test_new.xlsx,stimuli.xlsx,stimuli_new.xlsx,stimuli/Social1.png,stimuli/Social2.png,stimuli/Nonsocial1.png,stimuli/Nonsocial2.png,stimuli/Social3.png,stimuli/Social4.png,stimuli/Nonsocial3.png,stimuli/Nonsocial4.png,cs_neg_ns,"(-0.7, -0.5)",,,,,,,,,0,0,0,0,,,,,,,,,,,,,0,15,15,9,,,,,,,,,,,,,,,,,,,,,,,,,,,,,,,,,,730.5109976999956,36,none,0,,,733.5247033999913,,,,,,,,,,,,,,,,,,,,,,23,A,2024-05-01_08h14.36.539,attentional_competition_task,2022.2.4,144.01481624310767,
positions.xlsx,positions_test.xlsx,positions_test_new.xlsx,stimuli.xlsx,stimuli_new.xlsx,stimuli/Social1.png,stimuli/Social2.png,stimuli/Nonsocial1.png,stimuli/Nonsocial2.png,stimuli/Social3.png,stimuli/Social4.png,stimuli/Nonsocial3.png,stimuli/Nonsocial4.png,cs_neg_ns,"(-0.7, -0.5)",,,,,,,,,0,0,0,0,,,,,,,,,,,,,1,0,16,9,,,,,,,,,,,,,,,,,,,,,,,,,,,,,,,,,,740.8439196999971,33,loss,1,0.24343109999608714,0.24343509999744128,741.0938687000016,,,,,,,,,,,,,,,,,,,,,,23,A,2024-05-01_08h14.36.539,attentional_competition_task,2022.2.4,144.01481624310767,
positions.xlsx,positions_test.xlsx,positions_test_new.xlsx,stimuli.xlsx,stimuli_new.xlsx,stimuli/Social1.png,stimuli/Social2.png,stimuli/Nonsocial1.png,stimuli/Nonsocial2.png,stimuli/Social3.png,stimuli/Social4.png,stimuli/Nonsocial3.png,stimuli/Nonsocial4.png,cs_pos_ns,"(0.7, -0.5)",,,,,,,,,0,0,0,0,,,,,,,,,,,,,1,1,17,15,,,,,,,,,,,,,,,,,,,,,,,,,,,,,,,,,,748.8366176999989,36,reward,1,0.6044297000044025,0.604433100001188,749.4476734999917,,,,,,,,,,,,,,,,,,,,,,23,A,2024-05-01_08h14.36.539,attentional_competition_task,2022.2.4,144.01481624310767,
positions.xlsx,positions_test.xlsx,positions_test_new.xlsx,stimuli.xlsx,stimuli_new.xlsx,stimuli/Social1.png,stimuli/Social2.png,stimuli/Nonsocial1.png,stimuli/Nonsocial2.png,stimuli/Social3.png,stimuli/Social4.png,stimuli/Nonsocial3.png,stimuli/Nonsocial4.png,cs_pos_ns,"(0.7, 0.5)",,,,,,,,,0,0,0,0,,,,,,,,,,,,,1,2,18,14,,,,,,,,,,,,,,,,,,,,,,,,,,,,,,,,,,757.4126866000006,39,reward,1,0.4521374000032665,0.4521413000038592,757.8709413999895,,,,,,,,,,,,,,,,,,,,,,23,A,2024-05-01_08h14.36.539,attentional_competition_task,2022.2.4,144.01481624310767,
positions.xlsx,positions_test.xlsx,positions_test_new.xlsx,stimuli.xlsx,stimuli_new.xlsx,stimuli/Social1.png,stimuli/Social2.png,stimuli/Nonsocial1.png,stimuli/Nonsocial2.png,stimuli/Social3.png,stimuli/Social4.png,stimuli/Nonsocial3.png,stimuli/Nonsocial4.png,cs_pos_s,"(0.7, 0.5)",,,,,,,,,0,0,0,0,,,,,,,,,,,,,1,3,19,6,,,,,,,,,,,,,,,,,,,,,,,,,,,,,,,,,,765.8567586999998,42,reward,1,0.4443418000009842,0.4443452999985311,766.3081788999989,,,,,,,,,,,,,,,,,,,,,,23,A,2024-05-01_08h14.36.539,attentional_competition_task,2022.2.4,144.01481624310767,
positions.xlsx,positions_test.xlsx,positions_test_new.xlsx,stimuli.xlsx,stimuli_new.xlsx,stimuli/Social1.png,stimuli/Social2.png,stimuli/Nonsocial1.png,stimuli/Nonsocial2.png,stimuli/Social3.png,stimuli/Social4.png,stimuli/Nonsocial3.png,stimuli/Nonsocial4.png,cs_neg_s,"(-0.7, 0.5)",,,,,,,,,0,0,0,0,,,,,,,,,,,,,1,4,20,0,,,,,,,,,,,,,,,,,,,,,,,,,,,,,,,,,,774.6480473999982,42,none,0,,,777.6618568999984,,,,,,,,,,,,,,,,,,,,,,23,A,2024-05-01_08h14.36.539,attentional_competition_task,2022.2.4,144.01481624310767,
positions.xlsx,positions_test.xlsx,positions_test_new.xlsx,stimuli.xlsx,stimuli_new.xlsx,stimuli/Social1.png,stimuli/Social2.png,stimuli/Nonsocial1.png,stimuli/Nonsocial2.png,stimuli/Social3.png,stimuli/Social4.png,stimuli/Nonsocial3.png,stimuli/Nonsocial4.png,cs_pos_s,"(-0.7, -0.5)",,,,,,,,,0,0,0,0,,,,,,,,,,,,,1,5,21,5,,,,,,,,,,,,,,,,,,,,,,,,,,,,,,,,,,785.5296517999959,45,reward,1,0.5210727999947267,0.5210762999922736,786.0573653999891,,,,,,,,,,,,,,,,,,,,,,23,A,2024-05-01_08h14.36.539,attentional_competition_task,2022.2.4,144.01481624310767,
positions.xlsx,positions_test.xlsx,positions_test_new.xlsx,stimuli.xlsx,stimuli_new.xlsx,stimuli/Social1.png,stimuli/Social2.png,stimuli/Nonsocial1.png,stimuli/Nonsocial2.png,stimuli/Social3.png,stimuli/Social4.png,stimuli/Nonsocial3.png,stimuli/Nonsocial4.png,cs_neg_ns,"(0.7, -0.5)",,,,,,,,,0,0,0,0,,,,,,,,,,,,,1,6,22,11,,,,,,,,,,,,,,,,,,,,,,,,,,,,,,,,,,794.2930858999898,42,loss,1,0.5004125999985263,0.5004160999960732,794.8000394999981,,,,,,,,,,,,,,,,,,,,,,23,A,2024-05-01_08h14.36.539,attentional_competition_task,2022.2.4,144.01481624310767,
positions.xlsx,positions_test.xlsx,positions_test_new.xlsx,stimuli.xlsx,stimuli_new.xlsx,stimuli/Social1.png,stimuli/Social2.png,stimuli/Nonsocial1.png,stimuli/Nonsocial2.png,stimuli/Social3.png,stimuli/Social4.png,stimuli/Nonsocial3.png,stimuli/Nonsocial4.png,cs_neg_ns,"(0.7, 0.5)",,,,,,,,,0,0,0,0,,,,,,,,,,,,,1,7,23,10,,,,,,,,,,,,,,,,,,,,,,,,,,,,,,,,,,802.8621909999929,42,none,0,,,805.8759680999938,,,,,,,,,,,,,,,,,,,,,,23,A,2024-05-01_08h14.36.539,attentional_competition_task,2022.2.4,144.01481624310767,
positions.xlsx,positions_test.xlsx,positions_test_new.xlsx,stimuli.xlsx,stimuli_new.xlsx,stimuli/Social1.png,stimuli/Social2.png,stimuli/Nonsocial1.png,stimuli/Nonsocial2.png,stimuli/Social3.png,stimuli/Social4.png,stimuli/Nonsocial3.png,stimuli/Nonsocial4.png,cs_neg_s,"(0.7, -0.5)",,,,,,,,,0,0,0,0,,,,,,,,,,,,,1,8,24,3,,,,,,,,,,,,,,,,,,,,,,,,,,,,,,,,,,813.5353909999976,39,loss,1,0.45174340000085067,0.45174730000144336,813.9937845999957,,,,,,,,,,,,,,,,,,,,,,23,A,2024-05-01_08h14.36.539,attentional_competition_task,2022.2.4,144.01481624310767,
positions.xlsx,positions_test.xlsx,positions_test_new.xlsx,stimuli.xlsx,stimuli_new.xlsx,stimuli/Social1.png,stimuli/Social2.png,stimuli/Nonsocial1.png,stimuli/Nonsocial2.png,stimuli/Social3.png,stimuli/Social4.png,stimuli/Nonsocial3.png,stimuli/Nonsocial4.png,cs_neg_ns,"(-0.7, 0.5)",,,,,,,,,0,0,0,0,,,,,,,,,,,,,1,9,25,8,,,,,,,,,,,,,,,,,,,,,,,,,,,,,,,,,,821.9933859000012,39,none,0,,,825.0071834999981,,,,,,,,,,,,,,,,,,,,,,23,A,2024-05-01_08h14.36.539,attentional_competition_task,2022.2.4,144.01481624310767,
positions.xlsx,positions_test.xlsx,positions_test_new.xlsx,stimuli.xlsx,stimuli_new.xlsx,stimuli/Social1.png,stimuli/Social2.png,stimuli/Nonsocial1.png,stimuli/Nonsocial2.png,stimuli/Social3.png,stimuli/Social4.png,stimuli/Nonsocial3.png,stimuli/Nonsocial4.png,cs_neg_s,"(-0.7, -0.5)",,,,,,,,,0,0,0,0,,,,,,,,,,,,,1,10,26,1,,,,,,,,,,,,,,,,,,,,,,,,,,,,,,,,,,832.590162499997,39,none,0,,,835.5969767999923,,,,,,,,,,,,,,,,,,,,,,23,A,2024-05-01_08h14.36.539,attentional_competition_task,2022.2.4,144.01481624310767,
positions.xlsx,positions_test.xlsx,positions_test_new.xlsx,stimuli.xlsx,stimuli_new.xlsx,stimuli/Social1.png,stimuli/Social2.png,stimuli/Nonsocial1.png,stimuli/Nonsocial2.png,stimuli/Social3.png,stimuli/Social4.png,stimuli/Nonsocial3.png,stimuli/Nonsocial4.png,cs_pos_s,"(0.7, -0.5)",,,,,,,,,0,0,0,0,,,,,,,,,,,,,1,11,27,7,,,,,,,,,,,,,,,,,,,,,,,,,,,,,,,,,,842.4856202999945,42,reward,1,0.5764728000067407,0.5764765000058105,843.0689008999907,,,,,,,,,,,,,,,,,,,,,,23,A,2024-05-01_08h14.36.539,attentional_competition_task,2022.2.4,144.01481624310767,
positions.xlsx,positions_test.xlsx,positions_test_new.xlsx,stimuli.xlsx,stimuli_new.xlsx,stimuli/Social1.png,stimuli/Social2.png,stimuli/Nonsocial1.png,stimuli/Nonsocial2.png,stimuli/Social3.png,stimuli/Social4.png,stimuli/Nonsocial3.png,stimuli/Nonsocial4.png,cs_pos_ns,"(-0.7, 0.5)",,,,,,,,,0,0,0,0,,,,,,,,,,,,,1,12,28,12,,,,,,,,,,,,,,,,,,,,,,,,,,,,,,,,,,849.9714064,45,reward,1,0.6251888999977382,0.6321272000059253,850.6103007999918,,,,,,,,,,,,,,,,,,,,,,23,A,2024-05-01_08h14.36.539,attentional_competition_task,2022.2.4,144.01481624310767,
positions.xlsx,positions_test.xlsx,positions_test_new.xlsx,stimuli.xlsx,stimuli_new.xlsx,stimuli/Social1.png,stimuli/Social2.png,stimuli/Nonsocial1.png,stimuli/Nonsocial2.png,stimuli/Social3.png,stimuli/Social4.png,stimuli/Nonsocial3.png,stimuli/Nonsocial4.png,cs_pos_ns,"(-0.7, -0.5)",,,,,,,,,0,0,0,0,,,,,,,,,,,,,1,13,29,13,,,,,,,,,,,,,,,,,,,,,,,,,,,,,,,,,,858.0752720000019,48,reward,1,0.6181466999987606,0.6181499999947846,858.7002891000011,,,,,,,,,,,,,,,,,,,,,,23,A,2024-05-01_08h14.36.539,attentional_competition_task,2022.2.4,144.01481624310767,
positions.xlsx,positions_test.xlsx,positions_test_new.xlsx,stimuli.xlsx,stimuli_new.xlsx,stimuli/Social1.png,stimuli/Social2.png,stimuli/Nonsocial1.png,stimuli/Nonsocial2.png,stimuli/Social3.png,stimuli/Social4.png,stimuli/Nonsocial3.png,stimuli/Nonsocial4.png,cs_neg_s,"(0.7, 0.5)",,,,,,,,,0,0,0,0,,,,,,,,,,,,,1,14,30,2,,,,,,,,,,,,,,,,,,,,,,,,,,,,,,,,,,865.4499808999972,48,none,0,,,868.4637425999972,,,,,,,,,,,,,,,,,,,,,,23,A,2024-05-01_08h14.36.539,attentional_competition_task,2022.2.4,144.01481624310767,
positions.xlsx,positions_test.xlsx,positions_test_new.xlsx,stimuli.xlsx,stimuli_new.xlsx,stimuli/Social1.png,stimuli/Social2.png,stimuli/Nonsocial1.png,stimuli/Nonsocial2.png,stimuli/Social3.png,stimuli/Social4.png,stimuli/Nonsocial3.png,stimuli/Nonsocial4.png,cs_pos_s,"(-0.7, 0.5)",,,,,,,,,0,0,0,0,,,,,,,,,,,,,1,15,31,4,,,,,,,,,,,,,,,,,,,,,,,,,,,,,,,,,,876.2898167999956,51,reward,1,0.4238593000045512,0.4238632000051439,876.7203534,,,,,,,,,,,,,,,,,,,,,,23,A,2024-05-01_08h14.36.539,attentional_competition_task,2022.2.4,144.01481624310767,
positions.xlsx,positions_test.xlsx,positions_test_new.xlsx,stimuli.xlsx,stimuli_new.xlsx,stimuli/Social1.png,stimuli/Social2.png,stimuli/Nonsocial1.png,stimuli/Nonsocial2.png,stimuli/Social3.png,stimuli/Social4.png,stimuli/Nonsocial3.png,stimuli/Nonsocial4.png,cs_neg_s,,,,,,,,,,0,0,0,0,,,,,,,,,,,,,,,,,0,0,0,0,,,,,,,,,,,,,,,,,,,,,,,882.0048834999907,1.0,4.060494000004837,,,,,,,,,,,,,,,,,,,,,,,,,,,,,,,,,23,A,2024-05-01_08h14.36.539,attentional_competition_task,2022.2.4,144.01481624310767,
positions.xlsx,positions_test.xlsx,positions_test_new.xlsx,stimuli.xlsx,stimuli_new.xlsx,stimuli/Social1.png,stimuli/Social2.png,stimuli/Nonsocial1.png,stimuli/Nonsocial2.png,stimuli/Social3.png,stimuli/Social4.png,stimuli/Nonsocial3.png,stimuli/Nonsocial4.png,cs_pos_s,,,,,,,,,,0,0,0,0,,,,,,,,,,,,,,,,,0,1,1,2,,,,,,,,,,,,,,,,,,,,,,,887.4352325999935,6.0,3.154725000000326,,,,,,,,,,,,,,,,,,,,,,,,,,,,,,,,,23,A,2024-05-01_08h14.36.539,attentional_competition_task,2022.2.4,144.01481624310767,
positions.xlsx,positions_test.xlsx,positions_test_new.xlsx,stimuli.xlsx,stimuli_new.xlsx,stimuli/Social1.png,stimuli/Social2.png,stimuli/Nonsocial1.png,stimuli/Nonsocial2.png,stimuli/Social3.png,stimuli/Social4.png,stimuli/Nonsocial3.png,stimuli/Nonsocial4.png,cs_neg_ns,,,,,,,,,,0,0,0,0,,,,,,,,,,,,,,,,,0,2,2,1,,,,,,,,,,,,,,,,,,,,,,,891.3100530999945,2.0,2.6111562000005506,,,,,,,,,,,,,,,,,,,,,,,,,,,,,,,,,23,A,2024-05-01_08h14.36.539,attentional_competition_task,2022.2.4,144.01481624310767,
positions.xlsx,positions_test.xlsx,positions_test_new.xlsx,stimuli.xlsx,stimuli_new.xlsx,stimuli/Social1.png,stimuli/Social2.png,stimuli/Nonsocial1.png,stimuli/Nonsocial2.png,stimuli/Social3.png,stimuli/Social4.png,stimuli/Nonsocial3.png,stimuli/Nonsocial4.png,cs_pos_ns,,,,,,,,,,0,0,0,0,,,,,,,,,,,,,,,,,0,3,3,3,,,,,,,,,,,,,,,,,,,,,,,894.9835138999915,3.0,1.8068210999917937,,,,,,,,,,,,,,,,,,,,,,,,,,,,,,,,,23,A,2024-05-01_08h14.36.539,attentional_competition_task,2022.2.4,144.01481624310767,
positions.xlsx,positions_test.xlsx,positions_test_new.xlsx,stimuli.xlsx,stimuli_new.xlsx,stimuli/Social1.png,stimuli/Social2.png,stimuli/Nonsocial1.png,stimuli/Nonsocial2.png,stimuli/Social3.png,stimuli/Social4.png,stimuli/Nonsocial3.png,stimuli/Nonsocial4.png,,,"(-0.7, -0.5)",cs_neg_s,"(-0.7, 0.5)",cs_pos_s,"(0.7, -0.5)",cs_pos_ns,"(0.7, 0.5)",cs_neg_ns,0,0,0,0,,,,,,,,,,,,,,,,,,,,,0,0,0,1,,,,,,,,,,,,,,,,,,,,,,,,,,,51,loss,,,,,897.5320226999902,903.4484519999969,903.4484519999969,903.4484519999969,903.4484519999969,1,0.24479939999582712,0.24480300000868738,0,,,0,,,0,,,903.6914920999989,903.6914920999989,903.6914920999989,903.6914920999989,23,A,2024-05-01_08h14.36.539,attentional_competition_task,2022.2.4,144.01481624310767,
positions.xlsx,positions_test.xlsx,positions_test_new.xlsx,stimuli.xlsx,stimuli_new.xlsx,stimuli/Social1.png,stimuli/Social2.png,stimuli/Nonsocial1.png,stimuli/Nonsocial2.png,stimuli/Social3.png,stimuli/Social4.png,stimuli/Nonsocial3.png,stimuli/Nonsocial4.png,,,"(-0.7, -0.5)",cs_pos_s,"(-0.7, 0.5)",cs_pos_ns,"(0.7, -0.5)",cs_neg_ns,"(0.7, 0.5)",cs_neg_s,0,0,0,0,,,,,,,,,,,,,,,,,,,,,0,1,1,11,,,,,,,,,,,,,,,,,,,,,,,,,,,57,reward,,,,,,912.4342602999968,912.4342602999968,912.4342602999968,912.4342602999968,0,,,0,,,0,,,0,,,913.0175170000002,913.0175170000002,913.0175170000002,913.0175170000002,23,A,2024-05-01_08h14.36.539,attentional_competition_task,2022.2.4,144.01481624310767,
positions.xlsx,positions_test.xlsx,positions_test_new.xlsx,stimuli.xlsx,stimuli_new.xlsx,stimuli/Social1.png,stimuli/Social2.png,stimuli/Nonsocial1.png,stimuli/Nonsocial2.png,stimuli/Social3.png,stimuli/Social4.png,stimuli/Nonsocial3.png,stimuli/Nonsocial4.png,,,"(-0.7, -0.5)",cs_neg_ns,"(-0.7, 0.5)",cs_pos_s,"(0.7, -0.5)",cs_pos_ns,"(0.7, 0.5)",cs_neg_s,0,0,0,0,,,,,,,,,,,,,,,,,,,,,0,2,2,13,,,,,,,,,,,,,,,,,,,,,,,,,,,60,reward,,,,,,920.4200731000019,920.4200731000019,920.4200731000019,920.4200731000019,0,,,0,,,1,0.028664700002991594,0.02866879999055527,0,,,920.4200731000019,920.4200731000019,920.4200731000019,920.4200731000019,23,A,2024-05-01_08h14.36.539,attentional_competition_task,2022.2.4,144.01481624310767,
positions.xlsx,positions_test.xlsx,positions_test_new.xlsx,stimuli.xlsx,stimuli_new.xlsx,stimuli/Social1.png,stimuli/Social2.png,stimuli/Nonsocial1.png,stimuli/Nonsocial2.png,stimuli/Social3.png,stimuli/Social4.png,stimuli/Nonsocial3.png,stimuli/Nonsocial4.png,,,"(-0.7, -0.5)",cs_pos_s,"(-0.7, 0.5)",cs_pos_ns,"(0.7, -0.5)",cs_neg_s,"(0.7, 0.5)",cs_neg_ns,0,0,0,0,,,,,,,,,,,,,,,,,,,,,0,3,3,10,,,,,,,,,,,,,,,,,,,,,,,,,,,63,reward,,,,,,928.4613973999949,928.4613973999949,928.4613973999949,928.4613973999949,0,,,1,0.03182509999896865,0.031829400002607144,0,,,0,,,928.4613973999949,928.4613973999949,928.4613973999949,928.4613973999949,23,A,2024-05-01_08h14.36.539,attentional_competition_task,2022.2.4,144.01481624310767,
positions.xlsx,positions_test.xlsx,positions_test_new.xlsx,stimuli.xlsx,stimuli_new.xlsx,stimuli/Social1.png,stimuli/Social2.png,stimuli/Nonsocial1.png,stimuli/Nonsocial2.png,stimuli/Social3.png,stimuli/Social4.png,stimuli/Nonsocial3.png,stimuli/Nonsocial4.png,,,"(-0.7, -0.5)",cs_neg_ns,"(-0.7, 0.5)",cs_neg_s,"(0.7, -0.5)",cs_pos_ns,"(0.7, 0.5)",cs_pos_s,0,0,0,0,,,,,,,,,,,,,,,,,,,,,0,4,4,15,,,,,,,,,,,,,,,,,,,,,,,,,,,72,reward,,,,,,936.8776739999885,936.8776739999885,936.8776739999885,936.8776739999885,0,,,0,,,0,,,0,,,937.4957102999906,937.4957102999906,937.4957102999906,937.4957102999906,23,A,2024-05-01_08h14.36.539,attentional_competition_task,2022.2.4,144.01481624310767,
positions.xlsx,positions_test.xlsx,positions_test_new.xlsx,stimuli.xlsx,stimuli_new.xlsx,stimuli/Social1.png,stimuli/Social2.png,stimuli/Nonsocial1.png,stimuli/Nonsocial2.png,stimuli/Social3.png,stimuli/Social4.png,stimuli/Nonsocial3.png,stimuli/Nonsocial4.png,,,"(-0.7, -0.5)",cs_pos_s,"(-0.7, 0.5)",cs_neg_ns,"(0.7, -0.5)",cs_neg_s,"(0.7, 0.5)",cs_pos_ns,0,0,0,0,,,,,,,,,,,,,,,,,,,,,0,5,5,8,,,,,,,,,,,,,,,,,,,,,,,,,,,81,reward,,,,,,945.8425839999982,945.8425839999982,945.8425839999982,945.8425839999982,1,0.02990940000745468,0.12066080000658985,0,,,0,,,0,,,946.4606357000011,946.4606357000011,946.4606357000011,946.4606357000011,23,A,2024-05-01_08h14.36.539,attentional_competition_task,2022.2.4,144.01481624310767,
positions.xlsx,positions_test.xlsx,positions_test_new.xlsx,stimuli.xlsx,stimuli_new.xlsx,stimuli/Social1.png,stimuli/Social2.png,stimuli/Nonsocial1.png,stimuli/Nonsocial2.png,stimuli/Social3.png,stimuli/Social4.png,stimuli/Nonsocial3.png,stimuli/Nonsocial4.png,,,"(-0.7, -0.5)",cs_neg_s,"(-0.7, 0.5)",cs_neg_ns,"(0.7, -0.5)",cs_pos_ns,"(0.7, 0.5)",cs_pos_s,0,0,0,0,,,,,,,,,,,,,,,,,,,,,0,6,6,3,,,,,,,,,,,,,,,,,,,,,,,,,,,90,reward,,,,,,954.203356699989,954.203356699989,954.203356699989,954.203356699989,0,,,0,,,0,,,0,,,954.9325384999975,954.9325384999975,954.9325384999975,954.9325384999975,23,A,2024-05-01_08h14.36.539,attentional_competition_task,2022.2.4,144.01481624310767,
positions.xlsx,positions_test.xlsx,positions_test_new.xlsx,stimuli.xlsx,stimuli_new.xlsx,stimuli/Social1.png,stimuli/Social2.png,stimuli/Nonsocial1.png,stimuli/Nonsocial2.png,stimuli/Social3.png,stimuli/Social4.png,stimuli/Nonsocial3.png,stimuli/Nonsocial4.png,,,"(-0.7, -0.5)",cs_neg_s,"(-0.7, 0.5)",cs_neg_ns,"(0.7, -0.5)",cs_pos_s,"(0.7, 0.5)",cs_pos_ns,0,0,0,0,,,,,,,,,,,,,,,,,,,,,0,7,7,2,,,,,,,,,,,,,,,,,,,,,,,,,,,93,loss,,,,,,962.7447225999931,962.7447225999931,962.7447225999931,962.7447225999931,0,,,1,0.030088700004853308,0.030092600005446002,0,,,0,,,962.7447225999931,962.7447225999931,962.7447225999931,962.7447225999931,23,A,2024-05-01_08h14.36.539,attentional_competition_task,2022.2.4,144.01481624310767,
positions.xlsx,positions_test.xlsx,positions_test_new.xlsx,stimuli.xlsx,stimuli_new.xlsx,stimuli/Social1.png,stimuli/Social2.png,stimuli/Nonsocial1.png,stimuli/Nonsocial2.png,stimuli/Social3.png,stimuli/Social4.png,stimuli/Nonsocial3.png,stimuli/Nonsocial4.png,,,"(-0.7, -0.5)",cs_neg_ns,"(-0.7, 0.5)",cs_pos_ns,"(0.7, -0.5)",cs_pos_s,"(0.7, 0.5)",cs_neg_s,0,0,0,0,,,,,,,,,,,,,,,,,,,,,0,8,8,16,,,,,,,,,,,,,,,,,,,,,,,,,,,102,reward,,,,,,971.3485023999965,971.3485023999965,971.3485023999965,971.3485023999965,0,,,1,0.025706100001116283,0.24141649999364745,0,,,0,,,972.2373674999981,972.2373674999981,972.2373674999981,972.2373674999981,23,A,2024-05-01_08h14.36.539,attentional_competition_task,2022.2.4,144.01481624310767,
positions.xlsx,positions_test.xlsx,positions_test_new.xlsx,stimuli.xlsx,stimuli_new.xlsx,stimuli/Social1.png,stimuli/Social2.png,stimuli/Nonsocial1.png,stimuli/Nonsocial2.png,stimuli/Social3.png,stimuli/Social4.png,stimuli/Nonsocial3.png,stimuli/Nonsocial4.png,,,"(-0.7, -0.5)",cs_neg_s,"(-0.7, 0.5)",cs_pos_ns,"(0.7, -0.5)",cs_neg_ns,"(0.7, 0.5)",cs_pos_s,0,0,0,0,,,,,,,,,,,,,,,,,,,,,0,9,9,5,,,,,,,,,,,,,,,,,,,,,,,,,,,111,reward,,,,,,979.6607489999878,979.6607489999878,979.6607489999878,979.6607489999878,0,,,1,0.022822099999757484,0.28116009999939706,0,,,0,,,980.5356456000009,980.5356456000009,980.5356456000009,980.5356456000009,23,A,2024-05-01_08h14.36.539,attentional_competition_task,2022.2.4,144.01481624310767,
positions.xlsx,positions_test.xlsx,positions_test_new.xlsx,stimuli.xlsx,stimuli_new.xlsx,stimuli/Social1.png,stimuli/Social2.png,stimuli/Nonsocial1.png,stimuli/Nonsocial2.png,stimuli/Social3.png,stimuli/Social4.png,stimuli/Nonsocial3.png,stimuli/Nonsocial4.png,,,"(-0.7, -0.5)",cs_pos_ns,"(-0.7, 0.5)",cs_neg_ns,"(0.7, -0.5)",cs_neg_s,"(0.7, 0.5)",cs_pos_s,0,0,0,0,,,,,,,,,,,,,,,,,,,,,0,10,10,21,,,,,,,,,,,,,,,,,,,,,,,,,,,114,reward,,,,,,988.0770314999972,988.0770314999972,988.0770314999972,988.0770314999972,1,0.02814970001054462,0.028153500010375865,0,,,0,,,0,,,988.0770314999972,988.0770314999972,988.0770314999972,988.0770314999972,23,A,2024-05-01_08h14.36.539,attentional_competition_task,2022.2.4,144.01481624310767,
positions.xlsx,positions_test.xlsx,positions_test_new.xlsx,stimuli.xlsx,stimuli_new.xlsx,stimuli/Social1.png,stimuli/Social2.png,stimuli/Nonsocial1.png,stimuli/Nonsocial2.png,stimuli/Social3.png,stimuli/Social4.png,stimuli/Nonsocial3.png,stimuli/Nonsocial4.png,,,"(-0.7, -0.5)",cs_neg_s,"(-0.7, 0.5)",cs_pos_s,"(0.7, -0.5)",cs_neg_ns,"(0.7, 0.5)",cs_pos_ns,0,0,0,0,,,,,,,,,,,,,,,,,,,,,0,11,11,0,,,,,,,,,,,,,,,,,,,,,,,,,,,120,reward,,,,,,996.1947470000014,996.1947470000014,996.1947470000014,996.1947470000014,0,,,0,,,0,,,1,0.022730099997716025,0.059084900000016205,996.8474780999968,996.8474780999968,996.8474780999968,996.8474780999968,23,A,2024-05-01_08h14.36.539,attentional_competition_task,2022.2.4,144.01481624310767,
positions.xlsx,positions_test.xlsx,positions_test_new.xlsx,stimuli.xlsx,stimuli_new.xlsx,stimuli/Social1.png,stimuli/Social2.png,stimuli/Nonsocial1.png,stimuli/Nonsocial2.png,stimuli/Social3.png,stimuli/Social4.png,stimuli/Nonsocial3.png,stimuli/Nonsocial4.png,,,"(-0.7, -0.5)",cs_pos_s,"(-0.7, 0.5)",cs_neg_s,"(0.7, -0.5)",cs_neg_ns,"(0.7, 0.5)",cs_pos_ns,0,0,0,0,,,,,,,,,,,,,,,,,,,,,0,12,12,6,,,,,,,,,,,,,,,,,,,,,,,,,,,126,reward,,,,,,1004.7221640999924,1004.7221640999924,1004.7221640999924,1004.7221640999924,0,,,0,,,0,,,1,0.030638500000350177,0.12122329999692738,1005.3402672999946,1005.3402672999946,1005.3402672999946,1005.3402672999946,23,A,2024-05-01_08h14.36.539,attentional_competition_task,2022.2.4,144.01481624310767,
positions.xlsx,positions_test.xlsx,positions_test_new.xlsx,stimuli.xlsx,stimuli_new.xlsx,stimuli/Social1.png,stimuli/Social2.png,stimuli/Nonsocial1.png,stimuli/Nonsocial2.png,stimuli/Social3.png,stimuli/Social4.png,stimuli/Nonsocial3.png,stimuli/Nonsocial4.png,,,"(-0.7, -0.5)",cs_pos_ns,"(-0.7, 0.5)",cs_neg_ns,"(0.7, -0.5)",cs_pos_s,"(0.7, 0.5)",cs_neg_s,0,0,0,0,,,,,,,,,,,,,,,,,,,,,0,13,13,20,,,,,,,,,,,,,,,,,,,,,,,,,,,123,loss,,,,,,1012.7774042999954,1012.7774042999954,1012.7774042999954,1012.7774042999954,0,,,1,0.03836790000787005,0.03837160000693984,0,,,0,,,1012.7774042999954,1012.7774042999954,1012.7774042999954,1012.7774042999954,23,A,2024-05-01_08h14.36.539,attentional_competition_task,2022.2.4,144.01481624310767,
positions.xlsx,positions_test.xlsx,positions_test_new.xlsx,stimuli.xlsx,stimuli_new.xlsx,stimuli/Social1.png,stimuli/Social2.png,stimuli/Nonsocial1.png,stimuli/Nonsocial2.png,stimuli/Social3.png,stimuli/Social4.png,stimuli/Nonsocial3.png,stimuli/Nonsocial4.png,,,"(-0.7, -0.5)",cs_pos_ns,"(-0.7, 0.5)",cs_neg_s,"(0.7, -0.5)",cs_neg_ns,"(0.7, 0.5)",cs_pos_s,0,0,0,0,,,,,,,,,,,,,,,,,,,,,0,14,14,23,,,,,,,,,,,,,,,,,,,,,,,,,,,126,reward,,,,,,1020.5896064999979,1020.5896064999979,1020.5896064999979,1020.5896064999979,1,0.027924900001380593,0.027928700001211837,0,,,0,,,0,,,1020.5896064999979,1020.5896064999979,1020.5896064999979,1020.5896064999979,23,A,2024-05-01_08h14.36.539,attentional_competition_task,2022.2.4,144.01481624310767,
positions.xlsx,positions_test.xlsx,positions_test_new.xlsx,stimuli.xlsx,stimuli_new.xlsx,stimuli/Social1.png,stimuli/Social2.png,stimuli/Nonsocial1.png,stimuli/Nonsocial2.png,stimuli/Social3.png,stimuli/Social4.png,stimuli/Nonsocial3.png,stimuli/Nonsocial4.png,,,"(-0.7, -0.5)",cs_neg_s,"(-0.7, 0.5)",cs_pos_ns,"(0.7, -0.5)",cs_pos_s,"(0.7, 0.5)",cs_neg_ns,0,0,0,0,,,,,,,,,,,,,,,,,,,,,0,15,15,4,,,,,,,,,,,,,,,,,,,,,,,,,,,129,reward,,,,,,1029.3808882000012,1029.3808882000012,1029.3808882000012,1029.3808882000012,0,,,1,0.031350000004749745,0.03135399999155197,0,,,0,,,1029.3808882000012,1029.3808882000012,1029.3808882000012,1029.3808882000012,23,A,2024-05-01_08h14.36.539,attentional_competition_task,2022.2.4,144.01481624310767,
positions.xlsx,positions_test.xlsx,positions_test_new.xlsx,stimuli.xlsx,stimuli_new.xlsx,stimuli/Social1.png,stimuli/Social2.png,stimuli/Nonsocial1.png,stimuli/Nonsocial2.png,stimuli/Social3.png,stimuli/Social4.png,stimuli/Nonsocial3.png,stimuli/Nonsocial4.png,,,"(-0.7, -0.5)",cs_pos_s,"(-0.7, 0.5)",cs_neg_ns,"(0.7, -0.5)",cs_pos_ns,"(0.7, 0.5)",cs_neg_s,0,0,0,0,,,,,,,,,,,,,,,,,,,,,0,16,16,9,,,,,,,,,,,,,,,,,,,,,,,,,,,126,reward,,,,,,1037.5819519999932,1037.5819519999932,1037.5819519999932,1037.5819519999932,1,0.024322299999766983,0.024326099999598227,0,,,0,,,0,,,1037.5819519999932,1037.5819519999932,1037.5819519999932,1037.5819519999932,23,A,2024-05-01_08h14.36.539,attentional_competition_task,2022.2.4,144.01481624310767,
positions.xlsx,positions_test.xlsx,positions_test_new.xlsx,stimuli.xlsx,stimuli_new.xlsx,stimuli/Social1.png,stimuli/Social2.png,stimuli/Nonsocial1.png,stimuli/Nonsocial2.png,stimuli/Social3.png,stimuli/Social4.png,stimuli/Nonsocial3.png,stimuli/Nonsocial4.png,,,"(-0.7, -0.5)",cs_neg_ns,"(-0.7, 0.5)",cs_neg_s,"(0.7, -0.5)",cs_pos_s,"(0.7, 0.5)",cs_pos_ns,0,0,0,0,,,,,,,,,,,,,,,,,,,,,0,17,17,14,,,,,,,,,,,,,,,,,,,,,,,,,,,129,reward,,,,,,1046.178836799998,1046.178836799998,1046.178836799998,1046.178836799998,0,,,0,,,0,,,1,0.02971129999787081,0.029714999996940605,1046.178836799998,1046.178836799998,1046.178836799998,1046.178836799998,23,A,2024-05-01_08h14.36.539,attentional_competition_task,2022.2.4,144.01481624310767,
positions.xlsx,positions_test.xlsx,positions_test_new.xlsx,stimuli.xlsx,stimuli_new.xlsx,stimuli/Social1.png,stimuli/Social2.png,stimuli/Nonsocial1.png,stimuli/Nonsocial2.png,stimuli/Social3.png,stimuli/Social4.png,stimuli/Nonsocial3.png,stimuli/Nonsocial4.png,,,"(-0.7, -0.5)",cs_pos_ns,"(-0.7, 0.5)",cs_pos_s,"(0.7, -0.5)",cs_neg_ns,"(0.7, 0.5)",cs_neg_s,0,0,0,0,,,,,,,,,,,,,,,,,,,,,0,18,18,18,,,,,,,,,,,,,,,,,,,,,,,,,,,132,loss,,,,,,1054.8243126000016,1054.8243126000016,1054.8243126000016,1054.8243126000016,0,,,0,,,1,0.2323229000030551,0.23232710000593215,0,,,1055.5673527999897,1055.5673527999897,1055.5673527999897,1055.5673527999897,23,A,2024-05-01_08h14.36.539,attentional_competition_task,2022.2.4,144.01481624310767,
positions.xlsx,positions_test.xlsx,positions_test_new.xlsx,stimuli.xlsx,stimuli_new.xlsx,stimuli/Social1.png,stimuli/Social2.png,stimuli/Nonsocial1.png,stimuli/Nonsocial2.png,stimuli/Social3.png,stimuli/Social4.png,stimuli/Nonsocial3.png,stimuli/Nonsocial4.png,,,"(-0.7, -0.5)",cs_pos_ns,"(-0.7, 0.5)",cs_pos_s,"(0.7, -0.5)",cs_neg_s,"(0.7, 0.5)",cs_neg_ns,0,0,0,0,,,,,,,,,,,,,,,,,,,,,0,19,19,19,,,,,,,,,,,,,,,,,,,,,,,,,,,141,reward,,,,,,1062.6573096999928,1062.6573096999928,1062.6573096999928,1062.6573096999928,1,0.029313100007129833,0.05012520001037046,0,,,0,,,0,,,1063.6504117000004,1063.6504117000004,1063.6504117000004,1063.6504117000004,23,A,2024-05-01_08h14.36.539,attentional_competition_task,2022.2.4,144.01481624310767,
positions.xlsx,positions_test.xlsx,positions_test_new.xlsx,stimuli.xlsx,stimuli_new.xlsx,stimuli/Social1.png,stimuli/Social2.png,stimuli/Nonsocial1.png,stimuli/Nonsocial2.png,stimuli/Social3.png,stimuli/Social4.png,stimuli/Nonsocial3.png,stimuli/Nonsocial4.png,,,"(-0.7, -0.5)",cs_neg_ns,"(-0.7, 0.5)",cs_pos_ns,"(0.7, -0.5)",cs_neg_s,"(0.7, 0.5)",cs_pos_s,0,0,0,0,,,,,,,,,,,,,,,,,,,,,0,20,20,17,,,,,,,,,,,,,,,,,,,,,,,,,,,144,loss,,,,,,1070.5389605999953,1070.5389605999953,1070.5389605999953,1070.5389605999953,1,0.2598273000039626,0.266925000003539,1,0.02531900000758469,0.23953760000586044,0,,,0,,,1070.8028971000022,1070.8028971000022,1070.8028971000022,1070.8028971000022,23,A,2024-05-01_08h14.36.539,attentional_competition_task,2022.2.4,144.01481624310767,
positions.xlsx,positions_test.xlsx,positions_test_new.xlsx,stimuli.xlsx,stimuli_new.xlsx,stimuli/Social1.png,stimuli/Social2.png,stimuli/Nonsocial1.png,stimuli/Nonsocial2.png,stimuli/Social3.png,stimuli/Social4.png,stimuli/Nonsocial3.png,stimuli/Nonsocial4.png,,,"(-0.7, -0.5)",cs_pos_s,"(-0.7, 0.5)",cs_neg_s,"(0.7, -0.5)",cs_pos_ns,"(0.7, 0.5)",cs_neg_ns,0,0,0,0,,,,,,,,,,,,,,,,,,,,,0,21,21,7,,,,,,,,,,,,,,,,,,,,,,,,,,,144,reward,,,,,,1080.108007799994,1080.108007799994,1080.108007799994,1080.108007799994,0,,,0,,,1,0.030854199998429976,0.030857699995976873,0,,,1080.108007799994,1080.108007799994,1080.108007799994,1080.108007799994,23,A,2024-05-01_08h14.36.539,attentional_competition_task,2022.2.4,144.01481624310767,
positions.xlsx,positions_test.xlsx,positions_test_new.xlsx,stimuli.xlsx,stimuli_new.xlsx,stimuli/Social1.png,stimuli/Social2.png,stimuli/Nonsocial1.png,stimuli/Nonsocial2.png,stimuli/Social3.png,stimuli/Social4.png,stimuli/Nonsocial3.png,stimuli/Nonsocial4.png,,,"(-0.7, -0.5)",cs_pos_ns,"(-0.7, 0.5)",cs_neg_s,"(0.7, -0.5)",cs_pos_s,"(0.7, 0.5)",cs_neg_ns,0,0,0,0,,,,,,,,,,,,,,,,,,,,,0,22,22,22,,,,,,,,,,,,,,,,,,,,,,,,,,,147,reward,,,,,,1089.1076490999985,1089.1076490999985,1089.1076490999985,1089.1076490999985,1,0.023740900011034682,0.023744600010104477,0,,,0,,,0,,,1089.1076490999985,1089.1076490999985,1089.1076490999985,1089.1076490999985,23,A,2024-05-01_08h14.36.539,attentional_competition_task,2022.2.4,144.01481624310767,
positions.xlsx,positions_test.xlsx,positions_test_new.xlsx,stimuli.xlsx,stimuli_new.xlsx,stimuli/Social1.png,stimuli/Social2.png,stimuli/Nonsocial1.png,stimuli/Nonsocial2.png,stimuli/Social3.png,stimuli/Social4.png,stimuli/Nonsocial3.png,stimuli/Nonsocial4.png,,,"(-0.7, -0.5)",cs_neg_ns,"(-0.7, 0.5)",cs_pos_s,"(0.7, -0.5)",cs_neg_s,"(0.7, 0.5)",cs_pos_ns,0,0,0,0,,,,,,,,,,,,,,,,,,,,,0,23,23,12,,,,,,,,,,,,,,,,,,,,,,,,,,,150,reward,,,,,,1097.496262799992,1097.496262799992,1097.496262799992,1097.496262799992,0,,,0,,,0,,,1,0.02703990000009071,0.027043699999921955,1097.496262799992,1097.496262799992,1097.496262799992,1097.496262799992,23,A,2024-05-01_08h14.36.539,attentional_competition_task,2022.2.4,144.01481624310767,
positions.xlsx,positions_test.xlsx,positions_test_new.xlsx,stimuli.xlsx,stimuli_new.xlsx,stimuli/Social1.png,stimuli/Social2.png,stimuli/Nonsocial1.png,stimuli/Nonsocial2.png,stimuli/Social3.png,stimuli/Social4.png,stimuli/Nonsocial3.png,stimuli/Nonsocial4.png,,,"(-0.7, -0.5)",cs_pos_ns,"(-0.7, 0.5)",cs_neg_ns,"(0.7, -0.5)",cs_neg_s,"(0.7, 0.5)",cs_pos_s,0,0,0,0,,,,,,,,,,,,,,,,,,,,,1,0,24,21,,,,,,,,,,,,,,,,,,,,,,,,,,,159,reward,,,,,,1106.1763947,1106.1763947,1106.1763947,1106.1763947,1,0.022447999988798983,0.49549699999624863,0,,,0,,,0,,,1107.1763950999884,1107.1763950999884,1107.1763950999884,1107.1763950999884,23,A,2024-05-01_08h14.36.539,attentional_competition_task,2022.2.4,144.01481624310767,
positions.xlsx,positions_test.xlsx,positions_test_new.xlsx,stimuli.xlsx,stimuli_new.xlsx,stimuli/Social1.png,stimuli/Social2.png,stimuli/Nonsocial1.png,stimuli/Nonsocial2.png,stimuli/Social3.png,stimuli/Social4.png,stimuli/Nonsocial3.png,stimuli/Nonsocial4.png,,,"(-0.7, -0.5)",cs_pos_s,"(-0.7, 0.5)",cs_pos_ns,"(0.7, -0.5)",cs_neg_s,"(0.7, 0.5)",cs_neg_ns,0,0,0,0,,,,,,,,,,,,,,,,,,,,,1,1,25,10,,,,,,,,,,,,,,,,,,,,,,,,,,,159,loss,,,,,,1114.7247324999917,1114.7247324999917,1114.7247324999917,1114.7247324999917,0,,,0,,,0,,,0,,,1115.384423999989,1115.384423999989,1115.384423999989,1115.384423999989,23,A,2024-05-01_08h14.36.539,attentional_competition_task,2022.2.4,144.01481624310767,
positions.xlsx,positions_test.xlsx,positions_test_new.xlsx,stimuli.xlsx,stimuli_new.xlsx,stimuli/Social1.png,stimuli/Social2.png,stimuli/Nonsocial1.png,stimuli/Nonsocial2.png,stimuli/Social3.png,stimuli/Social4.png,stimuli/Nonsocial3.png,stimuli/Nonsocial4.png,,,"(-0.7, -0.5)",cs_pos_s,"(-0.7, 0.5)",cs_neg_ns,"(0.7, -0.5)",cs_neg_s,"(0.7, 0.5)",cs_pos_ns,0,0,0,0,,,,,,,,,,,,,,,,,,,,,1,2,26,8,,,,,,,,,,,,,,,,,,,,,,,,,,,168,reward,,,,,,1123.5298870999977,1123.5298870999977,1123.5298870999977,1123.5298870999977,0,,,0,,,0,,,1,0.03056869999272749,0.2667905999987852,1124.4534743999975,1124.4534743999975,1124.4534743999975,1124.4534743999975,23,A,2024-05-01_08h14.36.539,attentional_competition_task,2022.2.4,144.01481624310767,
positions.xlsx,positions_test.xlsx,positions_test_new.xlsx,stimuli.xlsx,stimuli_new.xlsx,stimuli/Social1.png,stimuli/Social2.png,stimuli/Nonsocial1.png,stimuli/Nonsocial2.png,stimuli/Social3.png,stimuli/Social4.png,stimuli/Nonsocial3.png,stimuli/Nonsocial4.png,,,"(-0.7, -0.5)",cs_neg_ns,"(-0.7, 0.5)",cs_pos_ns,"(0.7, -0.5)",cs_neg_s,"(0.7, 0.5)",cs_pos_s,0,0,0,0,,,,,,,,,,,,,,,,,,,,,1,3,27,17,,,,,,,,,,,,,,,,,,,,,,,,,,,171,reward,,,,,,1132.8351077999978,1132.8351077999978,1132.8351077999978,1132.8351077999978,0,,,1,0.024577200005296618,0.024581099991337396,0,,,0,,,1132.8351077999978,1132.8351077999978,1132.8351077999978,1132.8351077999978,23,A,2024-05-01_08h14.36.539,attentional_competition_task,2022.2.4,144.01481624310767,
positions.xlsx,positions_test.xlsx,positions_test_new.xlsx,stimuli.xlsx,stimuli_new.xlsx,stimuli/Social1.png,stimuli/Social2.png,stimuli/Nonsocial1.png,stimuli/Nonsocial2.png,stimuli/Social3.png,stimuli/Social4.png,stimuli/Nonsocial3.png,stimuli/Nonsocial4.png,,,"(-0.7, -0.5)",cs_pos_ns,"(-0.7, 0.5)",cs_neg_ns,"(0.7, -0.5)",cs_pos_s,"(0.7, 0.5)",cs_neg_s,0,0,0,0,,,,,,,,,,,,,,,,,,,,,1,4,28,20,,,,,,,,,,,,,,,,,,,,,,,,,,,174,reward,,,,,,1140.8000710999913,1140.8000710999913,1140.8000710999913,1140.8000710999913,1,0.030164399999193847,0.03016840000054799,0,,,0,,,0,,,1140.8000710999913,1140.8000710999913,1140.8000710999913,1140.8000710999913,23,A,2024-05-01_08h14.36.539,attentional_competition_task,2022.2.4,144.01481624310767,
positions.xlsx,positions_test.xlsx,positions_test_new.xlsx,stimuli.xlsx,stimuli_new.xlsx,stimuli/Social1.png,stimuli/Social2.png,stimuli/Nonsocial1.png,stimuli/Nonsocial2.png,stimuli/Social3.png,stimuli/Social4.png,stimuli/Nonsocial3.png,stimuli/Nonsocial4.png,,,"(-0.7, -0.5)",cs_neg_ns,"(-0.7, 0.5)",cs_neg_s,"(0.7, -0.5)",cs_pos_ns,"(0.7, 0.5)",cs_pos_s,0,0,0,0,,,,,,,,,,,,,,,,,,,,,1,5,29,15,,,,,,,,,,,,,,,,,,,,,,,,,,,180,reward,,,,,,1149.626079099995,1149.626079099995,1149.626079099995,1149.626079099995,0,,,0,,,1,0.02423609999823384,0.14304189999529626,0,,,1150.2788268000004,1150.2788268000004,1150.2788268000004,1150.2788268000004,23,A,2024-05-01_08h14.36.539,attentional_competition_task,2022.2.4,144.01481624310767,
positions.xlsx,positions_test.xlsx,positions_test_new.xlsx,stimuli.xlsx,stimuli_new.xlsx,stimuli/Social1.png,stimuli/Social2.png,stimuli/Nonsocial1.png,stimuli/Nonsocial2.png,stimuli/Social3.png,stimuli/Social4.png,stimuli/Nonsocial3.png,stimuli/Nonsocial4.png,,,"(-0.7, -0.5)",cs_pos_s,"(-0.7, 0.5)",cs_pos_ns,"(0.7, -0.5)",cs_neg_ns,"(0.7, 0.5)",cs_neg_s,0,0,0,0,,,,,,,,,,,,,,,,,,,,,1,6,30,11,,,,,,,,,,,,,,,,,,,,,,,,,,,189,reward,,,,,,1157.959063000002,1157.959063000002,1157.959063000002,1157.959063000002,0,,,0,,,0,,,0,,,1158.8132254999946,1158.8132254999946,1158.8132254999946,1158.8132254999946,23,A,2024-05-01_08h14.36.539,attentional_competition_task,2022.2.4,144.01481624310767,
positions.xlsx,positions_test.xlsx,positions_test_new.xlsx,stimuli.xlsx,stimuli_new.xlsx,stimuli/Social1.png,stimuli/Social2.png,stimuli/Nonsocial1.png,stimuli/Nonsocial2.png,stimuli/Social3.png,stimuli/Social4.png,stimuli/Nonsocial3.png,stimuli/Nonsocial4.png,,,"(-0.7, -0.5)",cs_neg_ns,"(-0.7, 0.5)",cs_pos_s,"(0.7, -0.5)",cs_pos_ns,"(0.7, 0.5)",cs_neg_s,0,0,0,0,,,,,,,,,,,,,,,,,,,,,1,7,31,13,,,,,,,,,,,,,,,,,,,,,,,,,,,198,reward,,,,,,1165.840673300001,1165.840673300001,1165.840673300001,1165.840673300001,0,,,0,,,1,0.02860829999553971,0.46826579999469686,0,,,1166.8128933999978,1166.8128933999978,1166.8128933999978,1166.8128933999978,23,A,2024-05-01_08h14.36.539,attentional_competition_task,2022.2.4,144.01481624310767,
positions.xlsx,positions_test.xlsx,positions_test_new.xlsx,stimuli.xlsx,stimuli_new.xlsx,stimuli/Social1.png,stimuli/Social2.png,stimuli/Nonsocial1.png,stimuli/Nonsocial2.png,stimuli/Social3.png,stimuli/Social4.png,stimuli/Nonsocial3.png,stimuli/Nonsocial4.png,,,"(-0.7, -0.5)",cs_neg_ns,"(-0.7, 0.5)",cs_pos_s,"(0.7, -0.5)",cs_neg_s,"(0.7, 0.5)",cs_pos_ns,0,0,0,0,,,,,,,,,,,,,,,,,,,,,1,8,32,12,,,,,,,,,,,,,,,,,,,,,,,,,,,204,reward,,,,,,1174.5348024999985,1174.5348024999985,1174.5348024999985,1174.5348024999985,0,,,0,,,0,,,0,,,1175.076492399996,1175.076492399996,1175.076492399996,1175.076492399996,23,A,2024-05-01_08h14.36.539,attentional_competition_task,2022.2.4,144.01481624310767,
positions.xlsx,positions_test.xlsx,positions_test_new.xlsx,stimuli.xlsx,stimuli_new.xlsx,stimuli/Social1.png,stimuli/Social2.png,stimuli/Nonsocial1.png,stimuli/Nonsocial2.png,stimuli/Social3.png,stimuli/Social4.png,stimuli/Nonsocial3.png,stimuli/Nonsocial4.png,,,"(-0.7, -0.5)",cs_pos_ns,"(-0.7, 0.5)",cs_pos_s,"(0.7, -0.5)",cs_neg_s,"(0.7, 0.5)",cs_neg_ns,0,0,0,0,,,,,,,,,,,,,,,,,,,,,1,9,33,19,,,,,,,,,,,,,,,,,,,,,,,,,,,210,reward,,,,,,1182.9025077999977,1182.9025077999977,1182.9025077999977,1182.9025077999977,0,,,0,,,0,,,0,,,1183.5205556,1183.5205556,1183.5205556,1183.5205556,23,A,2024-05-01_08h14.36.539,attentional_competition_task,2022.2.4,144.01481624310767,
positions.xlsx,positions_test.xlsx,positions_test_new.xlsx,stimuli.xlsx,stimuli_new.xlsx,stimuli/Social1.png,stimuli/Social2.png,stimuli/Nonsocial1.png,stimuli/Nonsocial2.png,stimuli/Social3.png,stimuli/Social4.png,stimuli/Nonsocial3.png,stimuli/Nonsocial4.png,,,"(-0.7, -0.5)",cs_pos_s,"(-0.7, 0.5)",cs_neg_s,"(0.7, -0.5)",cs_pos_ns,"(0.7, 0.5)",cs_neg_ns,0,0,0,0,,,,,,,,,,,,,,,,,,,,,1,10,34,7,,,,,,,,,,,,,,,,,,,,,,,,,,,210,reward,,,,,,1192.2215599999909,1192.2215599999909,1192.2215599999909,1192.2215599999909,0,,,0,,,1,0.023453999994671904,0.0234576999937417,0,,,1192.2215599999909,1192.2215599999909,1192.2215599999909,1192.2215599999909,23,A,2024-05-01_08h14.36.539,attentional_competition_task,2022.2.4,144.01481624310767,
positions.xlsx,positions_test.xlsx,positions_test_new.xlsx,stimuli.xlsx,stimuli_new.xlsx,stimuli/Social1.png,stimuli/Social2.png,stimuli/Nonsocial1.png,stimuli/Nonsocial2.png,stimuli/Social3.png,stimuli/Social4.png,stimuli/Nonsocial3.png,stimuli/Nonsocial4.png,,,"(-0.7, -0.5)",cs_pos_s,"(-0.7, 0.5)",cs_neg_s,"(0.7, -0.5)",cs_neg_ns,"(0.7, 0.5)",cs_pos_ns,0,0,0,0,,,,,,,,,,,,,,,,,,,,,1,11,35,6,,,,,,,,,,,,,,,,,,,,,,,,,,,213,reward,,,,,,1199.8949493999971,1199.8949493999971,1199.8949493999971,1199.8949493999971,0,,,0,,,0,,,1,0.030080199998337775,0.03008389999740757,1199.8949493999971,1199.8949493999971,1199.8949493999971,1199.8949493999971,23,A,2024-05-01_08h14.36.539,attentional_competition_task,2022.2.4,144.01481624310767,
positions.xlsx,positions_test.xlsx,positions_test_new.xlsx,stimuli.xlsx,stimuli_new.xlsx,stimuli/Social1.png,stimuli/Social2.png,stimuli/Nonsocial1.png,stimuli/Nonsocial2.png,stimuli/Social3.png,stimuli/Social4.png,stimuli/Nonsocial3.png,stimuli/Nonsocial4.png,,,"(-0.7, -0.5)",cs_pos_ns,"(-0.7, 0.5)",cs_neg_s,"(0.7, -0.5)",cs_pos_s,"(0.7, 0.5)",cs_neg_ns,0,0,0,0,,,,,,,,,,,,,,,,,,,,,1,12,36,22,,,,,,,,,,,,,,,,,,,,,,,,,,,222,reward,,,,,,1208.450106599994,1208.450106599994,1208.450106599994,1208.450106599994,1,0.02274980000220239,0.28774310000881087,0,,,0,,,0,,,1209.3875737999915,1209.3875737999915,1209.3875737999915,1209.3875737999915,23,A,2024-05-01_08h14.36.539,attentional_competition_task,2022.2.4,144.01481624310767,
positions.xlsx,positions_test.xlsx,positions_test_new.xlsx,stimuli.xlsx,stimuli_new.xlsx,stimuli/Social1.png,stimuli/Social2.png,stimuli/Nonsocial1.png,stimuli/Nonsocial2.png,stimuli/Social3.png,stimuli/Social4.png,stimuli/Nonsocial3.png,stimuli/Nonsocial4.png,,,"(-0.7, -0.5)",cs_neg_s,"(-0.7, 0.5)",cs_pos_s,"(0.7, -0.5)",cs_neg_ns,"(0.7, 0.5)",cs_pos_ns,0,0,0,0,,,,,,,,,,,,,,,,,,,,,1,13,37,0,,,,,,,,,,,,,,,,,,,,,,,,,,,225,reward,,,,,,1216.9289259999932,1216.9289259999932,1216.9289259999932,1216.9289259999932,0,,,0,,,0,,,1,0.03095939999911934,0.030963299999712035,1216.9289259999932,1216.9289259999932,1216.9289259999932,1216.9289259999932,23,A,2024-05-01_08h14.36.539,attentional_competition_task,2022.2.4,144.01481624310767,
positions.xlsx,positions_test.xlsx,positions_test_new.xlsx,stimuli.xlsx,stimuli_new.xlsx,stimuli/Social1.png,stimuli/Social2.png,stimuli/Nonsocial1.png,stimuli/Nonsocial2.png,stimuli/Social3.png,stimuli/Social4.png,stimuli/Nonsocial3.png,stimuli/Nonsocial4.png,,,"(-0.7, -0.5)",cs_neg_ns,"(-0.7, 0.5)",cs_pos_ns,"(0.7, -0.5)",cs_pos_s,"(0.7, 0.5)",cs_neg_s,0,0,0,0,,,,,,,,,,,,,,,,,,,,,1,14,38,16,,,,,,,,,,,,,,,,,,,,,,,,,,,228,reward,,,,,,1225.539747399991,1225.539747399991,1225.539747399991,1225.539747399991,0,,,1,0.029148400004487485,0.02915200000279583,0,,,0,,,1225.539747399991,1225.539747399991,1225.539747399991,1225.539747399991,23,A,2024-05-01_08h14.36.539,attentional_competition_task,2022.2.4,144.01481624310767,
positions.xlsx,positions_test.xlsx,positions_test_new.xlsx,stimuli.xlsx,stimuli_new.xlsx,stimuli/Social1.png,stimuli/Social2.png,stimuli/Nonsocial1.png,stimuli/Nonsocial2.png,stimuli/Social3.png,stimuli/Social4.png,stimuli/Nonsocial3.png,stimuli/Nonsocial4.png,,,"(-0.7, -0.5)",cs_pos_ns,"(-0.7, 0.5)",cs_neg_s,"(0.7, -0.5)",cs_neg_ns,"(0.7, 0.5)",cs_pos_s,0,0,0,0,,,,,,,,,,,,,,,,,,,,,1,15,39,23,,,,,,,,,,,,,,,,,,,,,,,,,,,237,reward,,,,,,1234.9767976000003,1234.9767976000003,1234.9767976000003,1234.9767976000003,1,0.030827599999611266,0.34983829999691807,0,,,0,,,0,,,1235.8240151999926,1235.8240151999926,1235.8240151999926,1235.8240151999926,23,A,2024-05-01_08h14.36.539,attentional_competition_task,2022.2.4,144.01481624310767,
positions.xlsx,positions_test.xlsx,positions_test_new.xlsx,stimuli.xlsx,stimuli_new.xlsx,stimuli/Social1.png,stimuli/Social2.png,stimuli/Nonsocial1.png,stimuli/Nonsocial2.png,stimuli/Social3.png,stimuli/Social4.png,stimuli/Nonsocial3.png,stimuli/Nonsocial4.png,,,"(-0.7, -0.5)",cs_neg_s,"(-0.7, 0.5)",cs_neg_ns,"(0.7, -0.5)",cs_pos_ns,"(0.7, 0.5)",cs_pos_s,0,0,0,0,,,,,,,,,,,,,,,,,,,,,1,16,40,3,,,,,,,,,,,,,,,,,,,,,,,,,,,246,reward,,,,,,1243.191789599994,1243.191789599994,1243.191789599994,1243.191789599994,0,,,0,,,1,0.028719699999783188,0.38494159998663235,0,,,1244.0806183999957,1244.0806183999957,1244.0806183999957,1244.0806183999957,23,A,2024-05-01_08h14.36.539,attentional_competition_task,2022.2.4,144.01481624310767,
positions.xlsx,positions_test.xlsx,positions_test_new.xlsx,stimuli.xlsx,stimuli_new.xlsx,stimuli/Social1.png,stimuli/Social2.png,stimuli/Nonsocial1.png,stimuli/Nonsocial2.png,stimuli/Social3.png,stimuli/Social4.png,stimuli/Nonsocial3.png,stimuli/Nonsocial4.png,,,"(-0.7, -0.5)",cs_neg_s,"(-0.7, 0.5)",cs_neg_ns,"(0.7, -0.5)",cs_pos_s,"(0.7, 0.5)",cs_pos_ns,0,0,0,0,,,,,,,,,,,,,,,,,,,,,1,17,41,2,,,,,,,,,,,,,,,,,,,,,,,,,,,252,reward,,,,,,1252.0941492999991,1252.0941492999991,1252.0941492999991,1252.0941492999991,0,,,0,,,1,0.03367699999944307,0.09455650000018068,0,,,1252.6845190000022,1252.6845190000022,1252.6845190000022,1252.6845190000022,23,A,2024-05-01_08h14.36.539,attentional_competition_task,2022.2.4,144.01481624310767,
positions.xlsx,positions_test.xlsx,positions_test_new.xlsx,stimuli.xlsx,stimuli_new.xlsx,stimuli/Social1.png,stimuli/Social2.png,stimuli/Nonsocial1.png,stimuli/Nonsocial2.png,stimuli/Social3.png,stimuli/Social4.png,stimuli/Nonsocial3.png,stimuli/Nonsocial4.png,,,"(-0.7, -0.5)",cs_pos_s,"(-0.7, 0.5)",cs_neg_ns,"(0.7, -0.5)",cs_pos_ns,"(0.7, 0.5)",cs_neg_s,0,0,0,0,,,,,,,,,,,,,,,,,,,,,1,18,42,9,,,,,,,,,,,,,,,,,,,,,,,,,,,258,reward,,,,,,1260.9758054999984,1260.9758054999984,1260.9758054999984,1260.9758054999984,0,,,0,,,0,,,0,,,1261.6771953999996,1261.6771953999996,1261.6771953999996,1261.6771953999996,23,A,2024-05-01_08h14.36.539,attentional_competition_task,2022.2.4,144.01481624310767,
positions.xlsx,positions_test.xlsx,positions_test_new.xlsx,stimuli.xlsx,stimuli_new.xlsx,stimuli/Social1.png,stimuli/Social2.png,stimuli/Nonsocial1.png,stimuli/Nonsocial2.png,stimuli/Social3.png,stimuli/Social4.png,stimuli/Nonsocial3.png,stimuli/Nonsocial4.png,,,"(-0.7, -0.5)",cs_neg_ns,"(-0.7, 0.5)",cs_neg_s,"(0.7, -0.5)",cs_pos_s,"(0.7, 0.5)",cs_pos_ns,0,0,0,0,,,,,,,,,,,,,,,,,,,,,1,19,43,14,,,,,,,,,,,,,,,,,,,,,,,,,,,261,loss,,,,,,1269.412968699995,1269.412968699995,1269.412968699995,1269.412968699995,0,,,1,0.3100443000002997,0.31688759999815375,1,0.025091200004681014,0.2547255999961635,0,,,1269.7323646000004,1269.7323646000004,1269.7323646000004,1269.7323646000004,23,A,2024-05-01_08h14.36.539,attentional_competition_task,2022.2.4,144.01481624310767,
positions.xlsx,positions_test.xlsx,positions_test_new.xlsx,stimuli.xlsx,stimuli_new.xlsx,stimuli/Social1.png,stimuli/Social2.png,stimuli/Nonsocial1.png,stimuli/Nonsocial2.png,stimuli/Social3.png,stimuli/Social4.png,stimuli/Nonsocial3.png,stimuli/Nonsocial4.png,,,"(-0.7, -0.5)",cs_neg_s,"(-0.7, 0.5)",cs_pos_ns,"(0.7, -0.5)",cs_neg_ns,"(0.7, 0.5)",cs_pos_s,0,0,0,0,,,,,,,,,,,,,,,,,,,,,1,20,44,5,,,,,,,,,,,,,,,,,,,,,,,,,,,267,reward,,,,,,1278.4542561999988,1278.4542561999988,1278.4542561999988,1278.4542561999988,0,,,0,,,0,,,0,,,1279.086165399989,1279.086165399989,1279.086165399989,1279.086165399989,23,A,2024-05-01_08h14.36.539,attentional_competition_task,2022.2.4,144.01481624310767,
positions.xlsx,positions_test.xlsx,positions_test_new.xlsx,stimuli.xlsx,stimuli_new.xlsx,stimuli/Social1.png,stimuli/Social2.png,stimuli/Nonsocial1.png,stimuli/Nonsocial2.png,stimuli/Social3.png,stimuli/Social4.png,stimuli/Nonsocial3.png,stimuli/Nonsocial4.png,,,"(-0.7, -0.5)",cs_pos_ns,"(-0.7, 0.5)",cs_pos_s,"(0.7, -0.5)",cs_neg_ns,"(0.7, 0.5)",cs_neg_s,0,0,0,0,,,,,,,,,,,,,,,,,,,,,1,21,45,18,,,,,,,,,,,,,,,,,,,,,,,,,,,276,reward,,,,,,1286.1970204999961,1286.1970204999961,1286.1970204999961,1286.1970204999961,1,0.0285306000005221,0.25830210000276566,0,,,0,,,0,,,1287.4191906999913,1287.4191906999913,1287.4191906999913,1287.4191906999913,23,A,2024-05-01_08h14.36.539,attentional_competition_task,2022.2.4,144.01481624310767,
positions.xlsx,positions_test.xlsx,positions_test_new.xlsx,stimuli.xlsx,stimuli_new.xlsx,stimuli/Social1.png,stimuli/Social2.png,stimuli/Nonsocial1.png,stimuli/Nonsocial2.png,stimuli/Social3.png,stimuli/Social4.png,stimuli/Nonsocial3.png,stimuli/Nonsocial4.png,,,"(-0.7, -0.5)",cs_neg_s,"(-0.7, 0.5)",cs_pos_ns,"(0.7, -0.5)",cs_pos_s,"(0.7, 0.5)",cs_neg_ns,0,0,0,0,,,,,,,,,,,,,,,,,,,,,1,22,46,4,,,,,,,,,,,,,,,,,,,,,,,,,,,276,loss,,,,,,1295.578562099996,1295.578562099996,1295.578562099996,1295.578562099996,0,,,0,,,0,,,0,,,1296.2035300999996,1296.2035300999996,1296.2035300999996,1296.2035300999996,23,A,2024-05-01_08h14.36.539,attentional_competition_task,2022.2.4,144.01481624310767,
positions.xlsx,positions_test.xlsx,positions_test_new.xlsx,stimuli.xlsx,stimuli_new.xlsx,stimuli/Social1.png,stimuli/Social2.png,stimuli/Nonsocial1.png,stimuli/Nonsocial2.png,stimuli/Social3.png,stimuli/Social4.png,stimuli/Nonsocial3.png,stimuli/Nonsocial4.png,,,"(-0.7, -0.5)",cs_neg_s,"(-0.7, 0.5)",cs_pos_s,"(0.7, -0.5)",cs_pos_ns,"(0.7, 0.5)",cs_neg_ns,0,0,0,0,,,,,,,,,,,,,,,,,,,,,1,23,47,1,,,,,,,,,,,,,,,,,,,,,,,,,,,285,reward,,,,,,1304.3907037999888,1304.3907037999888,1304.3907037999888,1304.3907037999888,0,,,0,,,2,0.025745500010089017,0.3085840000130702,0,,,1305.4601073999947,1305.4601073999947,1305.4601073999947,1305.4601073999947,23,A,2024-05-01_08h14.36.539,attentional_competition_task,2022.2.4,144.01481624310767,
positions.xlsx,positions_test.xlsx,positions_test_new.xlsx,stimuli.xlsx,stimuli_new.xlsx,stimuli/Social1.png,stimuli/Social2.png,stimuli/Nonsocial1.png,stimuli/Nonsocial2.png,stimuli/Social3.png,stimuli/Social4.png,stimuli/Nonsocial3.png,stimuli/Nonsocial4.png,,,"(-0.7, -0.5)",cs_neg_s_new,"(-0.7, 0.5)",cs_pos_s,"(0.7, -0.5)",cs_pos_ns,"(0.7, 0.5)",cs_neg_ns,0,0,0,0,,,,,,,,,,,,,,,,,,,,,,,,,,,,,0,0,0,15,0,0,0,0,,,,,,,,,,,,,,,288,reward,,,,,,1312.314010599992,1312.314010599992,1312.314010599992,1312.314010599992,0,,,1,0.4324862000066787,0.4397043000062695,0,,,0,,,1312.7515674999886,1312.7515674999886,1312.7515674999886,1312.7515674999886,23,A,2024-05-01_08h14.36.539,attentional_competition_task,2022.2.4,144.01481624310767,
positions.xlsx,positions_test.xlsx,positions_test_new.xlsx,stimuli.xlsx,stimuli_new.xlsx,stimuli/Social1.png,stimuli/Social2.png,stimuli/Nonsocial1.png,stimuli/Nonsocial2.png,stimuli/Social3.png,stimuli/Social4.png,stimuli/Nonsocial3.png,stimuli/Nonsocial4.png,,,"(-0.7, -0.5)",cs_neg_s_new,"(-0.7, 0.5)",cs_pos_s,"(0.7, -0.5)",cs_pos_ns,"(0.7, 0.5)",cs_neg_ns,0,0,0,0,,,,,,,,,,,,,,,,,,,,,,,,,,,,,0,0,0,15,1,0,1,0,,,,,,,,,,,,,,,285,loss,,,,,,1313.2931429000018,1313.2931429000018,1313.2931429000018,1313.2931429000018,0,,,0,,,0,,,1,0.032192899991059676,0.03219669999089092,1313.2931429000018,1313.2931429000018,1313.2931429000018,1313.2931429000018,23,A,2024-05-01_08h14.36.539,attentional_competition_task,2022.2.4,144.01481624310767,
positions.xlsx,positions_test.xlsx,positions_test_new.xlsx,stimuli.xlsx,stimuli_new.xlsx,stimuli/Social1.png,stimuli/Social2.png,stimuli/Nonsocial1.png,stimuli/Nonsocial2.png,stimuli/Social3.png,stimuli/Social4.png,stimuli/Nonsocial3.png,stimuli/Nonsocial4.png,,,"(-0.7, -0.5)",cs_neg_s_new,"(-0.7, 0.5)",cs_pos_s,"(0.7, -0.5)",cs_pos_ns,"(0.7, 0.5)",cs_neg_ns,0,0,0,0,,,,,,,,,,,,,,,,,,,,,,,,,,,,,0,0,0,15,2,0,2,0,,,,,,,,,,,,,,,288,reward,,,,,,1313.827887099993,1313.827887099993,1313.827887099993,1313.827887099993,0,,,0,,,1,0.030054700007895008,0.0300586000084877,0,,,1313.827887099993,1313.827887099993,1313.827887099993,1313.827887099993,23,A,2024-05-01_08h14.36.539,attentional_competition_task,2022.2.4,144.01481624310767,
positions.xlsx,positions_test.xlsx,positions_test_new.xlsx,stimuli.xlsx,stimuli_new.xlsx,stimuli/Social1.png,stimuli/Social2.png,stimuli/Nonsocial1.png,stimuli/Nonsocial2.png,stimuli/Social3.png,stimuli/Social4.png,stimuli/Nonsocial3.png,stimuli/Nonsocial4.png,,,"(-0.7, -0.5)",cs_neg_s_new,"(-0.7, 0.5)",cs_pos_s,"(0.7, -0.5)",cs_pos_ns,"(0.7, 0.5)",cs_neg_ns,0,0,0,0,,,,,,,,,,,,,,,,,,,,,,,,,,,,,0,0,0,15,,,,,,,,,,,,,,,,,,,,,,,,,,,,,,,,,,,,,,,,,,,,,,23,A,2024-05-01_08h14.36.539,attentional_competition_task,2022.2.4,144.01481624310767,
positions.xlsx,positions_test.xlsx,positions_test_new.xlsx,stimuli.xlsx,stimuli_new.xlsx,stimuli/Social1.png,stimuli/Social2.png,stimuli/Nonsocial1.png,stimuli/Nonsocial2.png,stimuli/Social3.png,stimuli/Social4.png,stimuli/Nonsocial3.png,stimuli/Nonsocial4.png,,,"(-0.7, -0.5)",cs_pos_ns,"(-0.7, 0.5)",cs_pos_s,"(0.7, -0.5)",cs_neg_ns_new,"(0.7, 0.5)",cs_neg_s,0,0,0,0,,,,,,,,,,,,,,,,,,,,,,,,,,,,,0,1,1,27,0,0,0,0,,,,,,,,,,,,,,,291,reward,,,,,,1321.3831158999965,1321.3831158999965,1321.3831158999965,1321.3831158999965,0,,,1,0.3422948999941582,0.34229849999246653,0,,,0,,,1321.7302859999909,1321.7302859999909,1321.7302859999909,1321.7302859999909,23,A,2024-05-01_08h14.36.539,attentional_competition_task,2022.2.4,144.01481624310767,
positions.xlsx,positions_test.xlsx,positions_test_new.xlsx,stimuli.xlsx,stimuli_new.xlsx,stimuli/Social1.png,stimuli/Social2.png,stimuli/Nonsocial1.png,stimuli/Nonsocial2.png,stimuli/Social3.png,stimuli/Social4.png,stimuli/Nonsocial3.png,stimuli/Nonsocial4.png,,,"(-0.7, -0.5)",cs_pos_ns,"(-0.7, 0.5)",cs_pos_s,"(0.7, -0.5)",cs_neg_ns_new,"(0.7, 0.5)",cs_neg_s,0,0,0,0,,,,,,,,,,,,,,,,,,,,,,,,,,,,,0,1,1,27,1,0,1,0,,,,,,,,,,,,,,,288,loss,,,,,,1322.2650053999969,1322.2650053999969,1322.2650053999969,1322.2650053999969,0,,,0,,,1,0.030946200000471435,0.030949599997256882,0,,,1322.2650053999969,1322.2650053999969,1322.2650053999969,1322.2650053999969,23,A,2024-05-01_08h14.36.539,attentional_competition_task,2022.2.4,144.01481624310767,
positions.xlsx,positions_test.xlsx,positions_test_new.xlsx,stimuli.xlsx,stimuli_new.xlsx,stimuli/Social1.png,stimuli/Social2.png,stimuli/Nonsocial1.png,stimuli/Nonsocial2.png,stimuli/Social3.png,stimuli/Social4.png,stimuli/Nonsocial3.png,stimuli/Nonsocial4.png,,,"(-0.7, -0.5)",cs_pos_ns,"(-0.7, 0.5)",cs_pos_s,"(0.7, -0.5)",cs_neg_ns_new,"(0.7, 0.5)",cs_neg_s,0,0,0,0,,,,,,,,,,,,,,,,,,,,,,,,,,,,,0,1,1,27,2,0,2,0,,,,,,,,,,,,,,,291,reward,,,,,,1322.799687599996,1322.799687599996,1322.799687599996,1322.799687599996,1,0.028739999994286336,0.02874359999259468,0,,,0,,,0,,,1322.799687599996,1322.799687599996,1322.799687599996,1322.799687599996,23,A,2024-05-01_08h14.36.539,attentional_competition_task,2022.2.4,144.01481624310767,
positions.xlsx,positions_test.xlsx,positions_test_new.xlsx,stimuli.xlsx,stimuli_new.xlsx,stimuli/Social1.png,stimuli/Social2.png,stimuli/Nonsocial1.png,stimuli/Nonsocial2.png,stimuli/Social3.png,stimuli/Social4.png,stimuli/Nonsocial3.png,stimuli/Nonsocial4.png,,,"(-0.7, -0.5)",cs_pos_ns,"(-0.7, 0.5)",cs_pos_s,"(0.7, -0.5)",cs_neg_ns_new,"(0.7, 0.5)",cs_neg_s,0,0,0,0,,,,,,,,,,,,,,,,,,,,,,,,,,,,,0,1,1,27,3,0,3,0,,,,,,,,,,,,,,,294,reward,,,,,,1323.2927116999927,1323.2927116999927,1323.2927116999927,1323.2927116999927,0,,,0,,,0,,,0,,,1323.8968685,1323.8968685,1323.8968685,1323.8968685,23,A,2024-05-01_08h14.36.539,attentional_competition_task,2022.2.4,144.01481624310767,
positions.xlsx,positions_test.xlsx,positions_test_new.xlsx,stimuli.xlsx,stimuli_new.xlsx,stimuli/Social1.png,stimuli/Social2.png,stimuli/Nonsocial1.png,stimuli/Nonsocial2.png,stimuli/Social3.png,stimuli/Social4.png,stimuli/Nonsocial3.png,stimuli/Nonsocial4.png,,,"(-0.7, -0.5)",cs_pos_ns,"(-0.7, 0.5)",cs_pos_s,"(0.7, -0.5)",cs_neg_ns_new,"(0.7, 0.5)",cs_neg_s,0,0,0,0,,,,,,,,,,,,,,,,,,,,,,,,,,,,,0,1,1,27,,,,,,,,,,,,,,,,,,,,,,,,,,,,,,,,,,,,,,,,,,,,,,23,A,2024-05-01_08h14.36.539,attentional_competition_task,2022.2.4,144.01481624310767,
positions.xlsx,positions_test.xlsx,positions_test_new.xlsx,stimuli.xlsx,stimuli_new.xlsx,stimuli/Social1.png,stimuli/Social2.png,stimuli/Nonsocial1.png,stimuli/Nonsocial2.png,stimuli/Social3.png,stimuli/Social4.png,stimuli/Nonsocial3.png,stimuli/Nonsocial4.png,,,"(-0.7, -0.5)",cs_pos_ns_new,"(-0.7, 0.5)",cs_neg_s,"(0.7, -0.5)",cs_neg_ns,"(0.7, 0.5)",cs_pos_s,0,0,0,0,,,,,,,,,,,,,,,,,,,,,,,,,,,,,0,2,2,38,0,0,0,0,,,,,,,,,,,,,,,291,loss,,,,,,1329.556369500002,1329.556369500002,1329.556369500002,1329.556369500002,0,,,1,0.44618689999333583,0.4461904999916442,0,,,0,,,1330.0077095999877,1330.0077095999877,1330.0077095999877,1330.0077095999877,23,A,2024-05-01_08h14.36.539,attentional_competition_task,2022.2.4,144.01481624310767,
positions.xlsx,positions_test.xlsx,positions_test_new.xlsx,stimuli.xlsx,stimuli_new.xlsx,stimuli/Social1.png,stimuli/Social2.png,stimuli/Nonsocial1.png,stimuli/Nonsocial2.png,stimuli/Social3.png,stimuli/Social4.png,stimuli/Nonsocial3.png,stimuli/Nonsocial4.png,,,"(-0.7, -0.5)",cs_pos_ns_new,"(-0.7, 0.5)",cs_neg_s,"(0.7, -0.5)",cs_neg_ns,"(0.7, 0.5)",cs_pos_s,0,0,0,0,,,,,,,,,,,,,,,,,,,,,,,,,,,,,0,2,2,38,1,0,1,0,,,,,,,,,,,,,,,294,reward,,,,,,1330.535468999995,1330.535468999995,1330.535468999995,1330.535468999995,0,,,0,,,0,,,1,0.02384860000165645,0.023852099999203347,1330.535468999995,1330.535468999995,1330.535468999995,1330.535468999995,23,A,2024-05-01_08h14.36.539,attentional_competition_task,2022.2.4,144.01481624310767,
positions.xlsx,positions_test.xlsx,positions_test_new.xlsx,stimuli.xlsx,stimuli_new.xlsx,stimuli/Social1.png,stimuli/Social2.png,stimuli/Nonsocial1.png,stimuli/Nonsocial2.png,stimuli/Social3.png,stimuli/Social4.png,stimuli/Nonsocial3.png,stimuli/Nonsocial4.png,,,"(-0.7, -0.5)",cs_pos_ns_new,"(-0.7, 0.5)",cs_neg_s,"(0.7, -0.5)",cs_neg_ns,"(0.7, 0.5)",cs_pos_s,0,0,0,0,,,,,,,,,,,,,,,,,,,,,,,,,,,,,0,2,2,38,2,0,2,0,,,,,,,,,,,,,,,297,reward,,,,,,1331.0632602999976,1331.0632602999976,1331.0632602999976,1331.0632602999976,1,0.021912500000325963,0.021916400000918657,0,,,0,,,0,,,1331.0632602999976,1331.0632602999976,1331.0632602999976,1331.0632602999976,23,A,2024-05-01_08h14.36.539,attentional_competition_task,2022.2.4,144.01481624310767,
positions.xlsx,positions_test.xlsx,positions_test_new.xlsx,stimuli.xlsx,stimuli_new.xlsx,stimuli/Social1.png,stimuli/Social2.png,stimuli/Nonsocial1.png,stimuli/Nonsocial2.png,stimuli/Social3.png,stimuli/Social4.png,stimuli/Nonsocial3.png,stimuli/Nonsocial4.png,,,"(-0.7, -0.5)",cs_pos_ns_new,"(-0.7, 0.5)",cs_neg_s,"(0.7, -0.5)",cs_neg_ns,"(0.7, 0.5)",cs_pos_s,0,0,0,0,,,,,,,,,,,,,,,,,,,,,,,,,,,,,0,2,2,38,3,0,3,0,,,,,,,,,,,,,,,300,reward,,,,,,1332.0909710999986,1332.0909710999986,1332.0909710999986,1332.0909710999986,1,0.025168599997414276,0.02517239999724552,0,,,0,,,0,,,1332.0909710999986,1332.0909710999986,1332.0909710999986,1332.0909710999986,23,A,2024-05-01_08h14.36.539,attentional_competition_task,2022.2.4,144.01481624310767,
positions.xlsx,positions_test.xlsx,positions_test_new.xlsx,stimuli.xlsx,stimuli_new.xlsx,stimuli/Social1.png,stimuli/Social2.png,stimuli/Nonsocial1.png,stimuli/Nonsocial2.png,stimuli/Social3.png,stimuli/Social4.png,stimuli/Nonsocial3.png,stimuli/Nonsocial4.png,,,"(-0.7, -0.5)",cs_pos_ns_new,"(-0.7, 0.5)",cs_neg_s,"(0.7, -0.5)",cs_neg_ns,"(0.7, 0.5)",cs_pos_s,0,0,0,0,,,,,,,,,,,,,,,,,,,,,,,,,,,,,0,2,2,38,,,,,,,,,,,,,,,,,,,,,,,,,,,,,,,,,,,,,,,,,,,,,,23,A,2024-05-01_08h14.36.539,attentional_competition_task,2022.2.4,144.01481624310767,
positions.xlsx,positions_test.xlsx,positions_test_new.xlsx,stimuli.xlsx,stimuli_new.xlsx,stimuli/Social1.png,stimuli/Social2.png,stimuli/Nonsocial1.png,stimuli/Nonsocial2.png,stimuli/Social3.png,stimuli/Social4.png,stimuli/Nonsocial3.png,stimuli/Nonsocial4.png,,,"(-0.7, -0.5)",cs_pos_s,"(-0.7, 0.5)",cs_pos_ns_new,"(0.7, -0.5)",cs_neg_s,"(0.7, 0.5)",cs_neg_ns,0,0,0,0,,,,,,,,,,,,,,,,,,,,,,,,,,,,,0,3,3,42,0,0,0,0,,,,,,,,,,,,,,,303,reward,,,,,,1338.30601819999,1338.30601819999,1338.30601819999,1338.30601819999,1,0.2590308000071673,0.25903490000928286,0,,,0,,,0,,,1338.5699338999984,1338.5699338999984,1338.5699338999984,1338.5699338999984,23,A,2024-05-01_08h14.36.539,attentional_competition_task,2022.2.4,144.01481624310767,
positions.xlsx,positions_test.xlsx,positions_test_new.xlsx,stimuli.xlsx,stimuli_new.xlsx,stimuli/Social1.png,stimuli/Social2.png,stimuli/Nonsocial1.png,stimuli/Nonsocial2.png,stimuli/Social3.png,stimuli/Social4.png,stimuli/Nonsocial3.png,stimuli/Nonsocial4.png,,,"(-0.7, -0.5)",cs_pos_s,"(-0.7, 0.5)",cs_pos_ns_new,"(0.7, -0.5)",cs_neg_s,"(0.7, 0.5)",cs_neg_ns,0,0,0,0,,,,,,,,,,,,,,,,,,,,,,,,,,,,,0,3,3,42,1,0,1,0,,,,,,,,,,,,,,,306,reward,,,,,,1339.1046071000019,1339.1046071000019,1339.1046071000019,1339.1046071000019,0,,,1,0.028294899995671585,0.02829859999474138,0,,,0,,,1339.1046071000019,1339.1046071000019,1339.1046071000019,1339.1046071000019,23,A,2024-05-01_08h14.36.539,attentional_competition_task,2022.2.4,144.01481624310767,
positions.xlsx,positions_test.xlsx,positions_test_new.xlsx,stimuli.xlsx,stimuli_new.xlsx,stimuli/Social1.png,stimuli/Social2.png,stimuli/Nonsocial1.png,stimuli/Nonsocial2.png,stimuli/Social3.png,stimuli/Social4.png,stimuli/Nonsocial3.png,stimuli/Nonsocial4.png,,,"(-0.7, -0.5)",cs_pos_s,"(-0.7, 0.5)",cs_pos_ns_new,"(0.7, -0.5)",cs_neg_s,"(0.7, 0.5)",cs_neg_ns,0,0,0,0,,,,,,,,,,,,,,,,,,,,,,,,,,,,,0,3,3,42,2,0,2,0,,,,,,,,,,,,,,,303,loss,,,,,,1339.6393021999975,1339.6393021999975,1339.6393021999975,1339.6393021999975,0,,,0,,,0,,,1,0.03019059999496676,0.030194099992513657,1339.6393021999975,1339.6393021999975,1339.6393021999975,1339.6393021999975,23,A,2024-05-01_08h14.36.539,attentional_competition_task,2022.2.4,144.01481624310767,
positions.xlsx,positions_test.xlsx,positions_test_new.xlsx,stimuli.xlsx,stimuli_new.xlsx,stimuli/Social1.png,stimuli/Social2.png,stimuli/Nonsocial1.png,stimuli/Nonsocial2.png,stimuli/Social3.png,stimuli/Social4.png,stimuli/Nonsocial3.png,stimuli/Nonsocial4.png,,,"(-0.7, -0.5)",cs_pos_s,"(-0.7, 0.5)",cs_pos_ns_new,"(0.7, -0.5)",cs_neg_s,"(0.7, 0.5)",cs_neg_ns,0,0,0,0,,,,,,,,,,,,,,,,,,,,,,,,,,,,,0,3,3,42,3,0,3,0,,,,,,,,,,,,,,,300,loss,,,,,,1340.1392717999988,1340.1392717999988,1340.1392717999988,1340.1392717999988,1,0.05107519999728538,0.17637689999537542,0,,,0,,,0,,,1340.8198155999999,1340.8198155999999,1340.8198155999999,1340.8198155999999,23,A,2024-05-01_08h14.36.539,attentional_competition_task,2022.2.4,144.01481624310767,
positions.xlsx,positions_test.xlsx,positions_test_new.xlsx,stimuli.xlsx,stimuli_new.xlsx,stimuli/Social1.png,stimuli/Social2.png,stimuli/Nonsocial1.png,stimuli/Nonsocial2.png,stimuli/Social3.png,stimuli/Social4.png,stimuli/Nonsocial3.png,stimuli/Nonsocial4.png,,,"(-0.7, -0.5)",cs_pos_s,"(-0.7, 0.5)",cs_pos_ns_new,"(0.7, -0.5)",cs_neg_s,"(0.7, 0.5)",cs_neg_ns,0,0,0,0,,,,,,,,,,,,,,,,,,,,,,,,,,,,,0,3,3,42,,,,,,,,,,,,,,,,,,,,,,,,,,,,,,,,,,,,,,,,,,,,,,23,A,2024-05-01_08h14.36.539,attentional_competition_task,2022.2.4,144.01481624310767,
positions.xlsx,positions_test.xlsx,positions_test_new.xlsx,stimuli.xlsx,stimuli_new.xlsx,stimuli/Social1.png,stimuli/Social2.png,stimuli/Nonsocial1.png,stimuli/Nonsocial2.png,stimuli/Social3.png,stimuli/Social4.png,stimuli/Nonsocial3.png,stimuli/Nonsocial4.png,,,"(-0.7, -0.5)",cs_pos_ns_new,"(-0.7, 0.5)",cs_pos_s,"(0.7, -0.5)",cs_neg_ns,"(0.7, 0.5)",cs_neg_s,0,0,0,0,,,,,,,,,,,,,,,,,,,,,,,,,,,,,0,4,4,41,0,0,0,0,,,,,,,,,,,,,,,303,reward,,,,,,1347.2292782000004,1347.2292782000004,1347.2292782000004,1347.2292782000004,1,0.5572906000015792,0.557294300000649,0,,,0,,,0,,,1347.791792899996,1347.791792899996,1347.791792899996,1347.791792899996,23,A,2024-05-01_08h14.36.539,attentional_competition_task,2022.2.4,144.01481624310767,
positions.xlsx,positions_test.xlsx,positions_test_new.xlsx,stimuli.xlsx,stimuli_new.xlsx,stimuli/Social1.png,stimuli/Social2.png,stimuli/Nonsocial1.png,stimuli/Nonsocial2.png,stimuli/Social3.png,stimuli/Social4.png,stimuli/Nonsocial3.png,stimuli/Nonsocial4.png,,,"(-0.7, -0.5)",cs_pos_ns_new,"(-0.7, 0.5)",cs_pos_s,"(0.7, -0.5)",cs_neg_ns,"(0.7, 0.5)",cs_neg_s,0,0,0,0,,,,,,,,,,,,,,,,,,,,,,,,,,,,,0,4,4,41,1,0,1,0,,,,,,,,,,,,,,,306,reward,,,,,,1348.3195246999967,1348.3195246999967,1348.3195246999967,1348.3195246999967,0,,,1,0.029034999999566935,0.02903879999939818,0,,,0,,,1348.3195246999967,1348.3195246999967,1348.3195246999967,1348.3195246999967,23,A,2024-05-01_08h14.36.539,attentional_competition_task,2022.2.4,144.01481624310767,
positions.xlsx,positions_test.xlsx,positions_test_new.xlsx,stimuli.xlsx,stimuli_new.xlsx,stimuli/Social1.png,stimuli/Social2.png,stimuli/Nonsocial1.png,stimuli/Nonsocial2.png,stimuli/Social3.png,stimuli/Social4.png,stimuli/Nonsocial3.png,stimuli/Nonsocial4.png,,,"(-0.7, -0.5)",cs_pos_ns_new,"(-0.7, 0.5)",cs_pos_s,"(0.7, -0.5)",cs_neg_ns,"(0.7, 0.5)",cs_neg_s,0,0,0,0,,,,,,,,,,,,,,,,,,,,,,,,,,,,,0,4,4,41,2,0,2,0,,,,,,,,,,,,,,,309,reward,,,,,,1348.8264497999917,1348.8264497999917,1348.8264497999917,1348.8264497999917,1,0.02331249999406282,0.4128494999895338,0,,,0,,,0,,,1349.7431369999977,1349.7431369999977,1349.7431369999977,1349.7431369999977,23,A,2024-05-01_08h14.36.539,attentional_competition_task,2022.2.4,144.01481624310767,
positions.xlsx,positions_test.xlsx,positions_test_new.xlsx,stimuli.xlsx,stimuli_new.xlsx,stimuli/Social1.png,stimuli/Social2.png,stimuli/Nonsocial1.png,stimuli/Nonsocial2.png,stimuli/Social3.png,stimuli/Social4.png,stimuli/Nonsocial3.png,stimuli/Nonsocial4.png,,,"(-0.7, -0.5)",cs_pos_ns_new,"(-0.7, 0.5)",cs_pos_s,"(0.7, -0.5)",cs_neg_ns,"(0.7, 0.5)",cs_neg_s,0,0,0,0,,,,,,,,,,,,,,,,,,,,,,,,,,,,,0,4,4,41,,,,,,,,,,,,,,,,,,,,,,,,,,,,,,,,,,,,,,,,,,,,,,23,A,2024-05-01_08h14.36.539,attentional_competition_task,2022.2.4,144.01481624310767,
positions.xlsx,positions_test.xlsx,positions_test_new.xlsx,stimuli.xlsx,stimuli_new.xlsx,stimuli/Social1.png,stimuli/Social2.png,stimuli/Nonsocial1.png,stimuli/Nonsocial2.png,stimuli/Social3.png,stimuli/Social4.png,stimuli/Nonsocial3.png,stimuli/Nonsocial4.png,,,"(-0.7, -0.5)",cs_neg_ns,"(-0.7, 0.5)",cs_pos_ns_new,"(0.7, -0.5)",cs_pos_s,"(0.7, 0.5)",cs_neg_s,0,0,0,0,,,,,,,,,,,,,,,,,,,,,,,,,,,,,0,5,5,43,0,0,0,0,,,,,,,,,,,,,,,306,loss,,,,,,1355.5414538999903,1355.5414538999903,1355.5414538999903,1355.5414538999903,1,0.3144218999950681,0.31442569999489933,0,,,0,,,0,,,1355.8609396999964,1355.8609396999964,1355.8609396999964,1355.8609396999964,23,A,2024-05-01_08h14.36.539,attentional_competition_task,2022.2.4,144.01481624310767,
positions.xlsx,positions_test.xlsx,positions_test_new.xlsx,stimuli.xlsx,stimuli_new.xlsx,stimuli/Social1.png,stimuli/Social2.png,stimuli/Nonsocial1.png,stimuli/Nonsocial2.png,stimuli/Social3.png,stimuli/Social4.png,stimuli/Nonsocial3.png,stimuli/Nonsocial4.png,,,"(-0.7, -0.5)",cs_neg_ns,"(-0.7, 0.5)",cs_pos_ns_new,"(0.7, -0.5)",cs_pos_s,"(0.7, 0.5)",cs_neg_s,0,0,0,0,,,,,,,,,,,,,,,,,,,,,,,,,,,,,0,5,5,43,1,0,1,0,,,,,,,,,,,,,,,309,reward,,,,,,1356.3956400999887,1356.3956400999887,1356.3956400999887,1356.3956400999887,0,,,1,0.029764299993985333,0.029768199994578026,0,,,0,,,1356.3956400999887,1356.3956400999887,1356.3956400999887,1356.3956400999887,23,A,2024-05-01_08h14.36.539,attentional_competition_task,2022.2.4,144.01481624310767,
positions.xlsx,positions_test.xlsx,positions_test_new.xlsx,stimuli.xlsx,stimuli_new.xlsx,stimuli/Social1.png,stimuli/Social2.png,stimuli/Nonsocial1.png,stimuli/Nonsocial2.png,stimuli/Social3.png,stimuli/Social4.png,stimuli/Nonsocial3.png,stimuli/Nonsocial4.png,,,"(-0.7, -0.5)",cs_neg_ns,"(-0.7, 0.5)",cs_pos_ns_new,"(0.7, -0.5)",cs_pos_s,"(0.7, 0.5)",cs_neg_s,0,0,0,0,,,,,,,,,,,,,,,,,,,,,,,,,,,,,0,5,5,43,2,0,2,0,,,,,,,,,,,,,,,306,loss,,,,,,1356.9164179999934,1356.9164179999934,1356.9164179999934,1356.9164179999934,0,,,0,,,0,,,1,0.02395509999769274,0.02395849999447819,1356.9164179999934,1356.9164179999934,1356.9164179999934,1356.9164179999934,23,A,2024-05-01_08h14.36.539,attentional_competition_task,2022.2.4,144.01481624310767,
positions.xlsx,positions_test.xlsx,positions_test_new.xlsx,stimuli.xlsx,stimuli_new.xlsx,stimuli/Social1.png,stimuli/Social2.png,stimuli/Nonsocial1.png,stimuli/Nonsocial2.png,stimuli/Social3.png,stimuli/Social4.png,stimuli/Nonsocial3.png,stimuli/Nonsocial4.png,,,"(-0.7, -0.5)",cs_neg_ns,"(-0.7, 0.5)",cs_pos_ns_new,"(0.7, -0.5)",cs_pos_s,"(0.7, 0.5)",cs_neg_s,0,0,0,0,,,,,,,,,,,,,,,,,,,,,,,,,,,,,0,5,5,43,3,0,3,0,,,,,,,,,,,,,,,309,reward,,,,,,1357.451142799997,1357.451142799997,1357.451142799997,1357.451142799997,0,,,0,,,1,0.02305530000012368,0.023059099999954924,0,,,1357.451142799997,1357.451142799997,1357.451142799997,1357.451142799997,23,A,2024-05-01_08h14.36.539,attentional_competition_task,2022.2.4,144.01481624310767,
positions.xlsx,positions_test.xlsx,positions_test_new.xlsx,stimuli.xlsx,stimuli_new.xlsx,stimuli/Social1.png,stimuli/Social2.png,stimuli/Nonsocial1.png,stimuli/Nonsocial2.png,stimuli/Social3.png,stimuli/Social4.png,stimuli/Nonsocial3.png,stimuli/Nonsocial4.png,,,"(-0.7, -0.5)",cs_neg_ns,"(-0.7, 0.5)",cs_pos_ns_new,"(0.7, -0.5)",cs_pos_s,"(0.7, 0.5)",cs_neg_s,0,0,0,0,,,,,,,,,,,,,,,,,,,,,,,,,,,,,0,5,5,43,,,,,,,,,,,,,,,,,,,,,,,,,,,,,,,,,,,,,,,,,,,,,,23,A,2024-05-01_08h14.36.539,attentional_competition_task,2022.2.4,144.01481624310767,
positions.xlsx,positions_test.xlsx,positions_test_new.xlsx,stimuli.xlsx,stimuli_new.xlsx,stimuli/Social1.png,stimuli/Social2.png,stimuli/Nonsocial1.png,stimuli/Nonsocial2.png,stimuli/Social3.png,stimuli/Social4.png,stimuli/Nonsocial3.png,stimuli/Nonsocial4.png,,,"(-0.7, -0.5)",cs_pos_s,"(-0.7, 0.5)",cs_neg_s,"(0.7, -0.5)",cs_neg_ns_new,"(0.7, 0.5)",cs_pos_ns,0,0,0,0,,,,,,,,,,,,,,,,,,,,,,,,,,,,,0,6,6,23,0,0,0,0,,,,,,,,,,,,,,,306,loss,,,,,,1363.5897536999983,1363.5897536999983,1363.5897536999983,1363.5897536999983,0,,,1,0.36318970000138506,0.37024609999207314,0,,,0,,,1363.9577661999938,1363.9577661999938,1363.9577661999938,1363.9577661999938,23,A,2024-05-01_08h14.36.539,attentional_competition_task,2022.2.4,144.01481624310767,
positions.xlsx,positions_test.xlsx,positions_test_new.xlsx,stimuli.xlsx,stimuli_new.xlsx,stimuli/Social1.png,stimuli/Social2.png,stimuli/Nonsocial1.png,stimuli/Nonsocial2.png,stimuli/Social3.png,stimuli/Social4.png,stimuli/Nonsocial3.png,stimuli/Nonsocial4.png,,,"(-0.7, -0.5)",cs_pos_s,"(-0.7, 0.5)",cs_neg_s,"(0.7, -0.5)",cs_neg_ns_new,"(0.7, 0.5)",cs_pos_ns,0,0,0,0,,,,,,,,,,,,,,,,,,,,,,,,,,,,,0,6,6,23,1,0,1,0,,,,,,,,,,,,,,,309,reward,,,,,,1364.492499,1364.492499,1364.492499,1364.492499,1,0.028039300013915636,0.02804300001298543,0,,,0,,,0,,,1364.492499,1364.492499,1364.492499,1364.492499,23,A,2024-05-01_08h14.36.539,attentional_competition_task,2022.2.4,144.01481624310767,
positions.xlsx,positions_test.xlsx,positions_test_new.xlsx,stimuli.xlsx,stimuli_new.xlsx,stimuli/Social1.png,stimuli/Social2.png,stimuli/Nonsocial1.png,stimuli/Nonsocial2.png,stimuli/Social3.png,stimuli/Social4.png,stimuli/Nonsocial3.png,stimuli/Nonsocial4.png,,,"(-0.7, -0.5)",cs_pos_s,"(-0.7, 0.5)",cs_neg_s,"(0.7, -0.5)",cs_neg_ns_new,"(0.7, 0.5)",cs_pos_ns,0,0,0,0,,,,,,,,,,,,,,,,,,,,,,,,,,,,,0,6,6,23,2,0,2,0,,,,,,,,,,,,,,,312,reward,,,,,,1365.0272126999917,1365.0272126999917,1365.0272126999917,1365.0272126999917,0,,,0,,,0,,,1,0.02561119999154471,0.025615099992137402,1365.0272126999917,1365.0272126999917,1365.0272126999917,1365.0272126999917,23,A,2024-05-01_08h14.36.539,attentional_competition_task,2022.2.4,144.01481624310767,
positions.xlsx,positions_test.xlsx,positions_test_new.xlsx,stimuli.xlsx,stimuli_new.xlsx,stimuli/Social1.png,stimuli/Social2.png,stimuli/Nonsocial1.png,stimuli/Nonsocial2.png,stimuli/Social3.png,stimuli/Social4.png,stimuli/Nonsocial3.png,stimuli/Nonsocial4.png,,,"(-0.7, -0.5)",cs_pos_s,"(-0.7, 0.5)",cs_neg_s,"(0.7, -0.5)",cs_neg_ns_new,"(0.7, 0.5)",cs_pos_ns,0,0,0,0,,,,,,,,,,,,,,,,,,,,,,,,,,,,,0,6,6,23,3,0,3,0,,,,,,,,,,,,,,,309,loss,,,,,,1365.5341710999928,1365.5341710999928,1365.5341710999928,1365.5341710999928,0,,,0,,,1,0.04442340000241529,0.044427300003007986,0,,,1366.075761,1366.075761,1366.075761,1366.075761,23,A,2024-05-01_08h14.36.539,attentional_competition_task,2022.2.4,144.01481624310767,
