posFile,posFileTest,posFileTestNew,stimFile,stimFileNew,cs_neg_s,cs_pos_s,cs_neg_ns,cs_pos_ns,cs_neg_s_new,cs_pos_s_new,cs_neg_ns_new,cs_pos_ns_new,stim,position,position1,stim1,position2,stim2,position3,stim3,position4,stim4,blocks.thisRepN,blocks.thisTrialN,blocks.thisN,blocks.thisIndex,ratingtrials1.thisRepN,ratingtrials1.thisTrialN,ratingtrials1.thisN,ratingtrials1.thisIndex,search_task_trials.thisRepN,search_task_trials.thisTrialN,search_task_trials.thisN,search_task_trials.thisIndex,learning_trials.thisRepN,learning_trials.thisTrialN,learning_trials.thisN,learning_trials.thisIndex,trials.thisRepN,trials.thisTrialN,trials.thisN,trials.thisIndex,ratingtrials2.thisRepN,ratingtrials2.thisTrialN,ratingtrials2.thisN,ratingtrials2.thisIndex,testtrials.thisRepN,testtrials.thisTrialN,testtrials.thisN,testtrials.thisIndex,loop_test.thisRepN,loop_test.thisTrialN,loop_test.thisN,loop_test.thisIndex,testtrials_novelty.thisRepN,testtrials_novelty.thisTrialN,testtrials_novelty.thisN,testtrials_novelty.thisIndex,loop_test_novelty.thisRepN,loop_test_novelty.thisTrialN,loop_test_novelty.thisN,loop_test_novelty.thisIndex,ratingtrials3.thisRepN,ratingtrials3.thisTrialN,ratingtrials3.thisN,ratingtrials3.thisIndex,textStart.started,textStartExp.started,imageRating.started,sliderStim.response,sliderStim.rt,textStartSearch.started,target_positions,distractor_positions,textStartTask.started,image.started,score,outcome,roi.numLooks,roi.timesOn,roi.timesOff,imageFeedback.started,textTestInstr.started,test_image1.started,test_image2.started,test_image3.started,test_image4.started,test_roi1.numLooks,test_roi1.timesOn,test_roi1.timesOff,test_roi2.numLooks,test_roi2.timesOn,test_roi2.timesOff,test_roi3.numLooks,test_roi3.timesOn,test_roi3.timesOff,test_roi4.numLooks,test_roi4.timesOn,test_roi4.timesOff,test_image_feedback1.started,test_image_feedback2.started,test_iamge_feedback3.started,test_iamge_feedback4.started,participant,group,date,expName,psychopyVersion,frameRate,
positions.xlsx,positions_test.xlsx,positions_test_new.xlsx,stimuli.xlsx,stimuli_new.xlsx,stimuli/Social2.png,stimuli/Social1.png,stimuli/Nonsocial2.png,stimuli/Nonsocial1.png,stimuli/Social4.png,stimuli/Social3.png,stimuli/Nonsocial4.png,stimuli/Nonsocial3.png,cs_neg_ns,,,,,,,,,,0,0,0,0,0,0,0,1,,,,,,,,,,,,,,,,,,,,,,,,,,,,,,,,,,,,,11.568959400057793,123.10845420043916,145.29153820034117,7.0,7.297947400249541,,,,,,,,,,,,,,,,,,,,,,,,,,,,,,,,,15,B,2024-04-22_17h27.32.022,attentional_competition_task,2022.2.4,143.94640613627791,
positions.xlsx,positions_test.xlsx,positions_test_new.xlsx,stimuli.xlsx,stimuli_new.xlsx,stimuli/Social2.png,stimuli/Social1.png,stimuli/Nonsocial2.png,stimuli/Nonsocial1.png,stimuli/Social4.png,stimuli/Social3.png,stimuli/Nonsocial4.png,stimuli/Nonsocial3.png,cs_neg_s,,,,,,,,,,0,0,0,0,0,1,1,0,,,,,,,,,,,,,,,,,,,,,,,,,,,,,,,,,,,,,,,153.3259199000895,3.0,5.870508200023323,,,,,,,,,,,,,,,,,,,,,,,,,,,,,,,,,15,B,2024-04-22_17h27.32.022,attentional_competition_task,2022.2.4,143.94640613627791,
positions.xlsx,positions_test.xlsx,positions_test_new.xlsx,stimuli.xlsx,stimuli_new.xlsx,stimuli/Social2.png,stimuli/Social1.png,stimuli/Nonsocial2.png,stimuli/Nonsocial1.png,stimuli/Social4.png,stimuli/Social3.png,stimuli/Nonsocial4.png,stimuli/Nonsocial3.png,cs_pos_s,,,,,,,,,,0,0,0,0,0,2,2,2,,,,,,,,,,,,,,,,,,,,,,,,,,,,,,,,,,,,,,,159.56176700023934,3.0,4.050437800120562,,,,,,,,,,,,,,,,,,,,,,,,,,,,,,,,,15,B,2024-04-22_17h27.32.022,attentional_competition_task,2022.2.4,143.94640613627791,
positions.xlsx,positions_test.xlsx,positions_test_new.xlsx,stimuli.xlsx,stimuli_new.xlsx,stimuli/Social2.png,stimuli/Social1.png,stimuli/Nonsocial2.png,stimuli/Nonsocial1.png,stimuli/Social4.png,stimuli/Social3.png,stimuli/Nonsocial4.png,stimuli/Nonsocial3.png,cs_pos_ns,,,,,,,,,,0,0,0,0,0,3,3,3,,,,,,,,,,,,,,,,,,,,,,,,,,,,,,,,,,,,,,,164.26992650004104,4.0,3.4737211000174284,,,,,,,,,,,,,,,,,,,,,,,,,,,,,,,,,15,B,2024-04-22_17h27.32.022,attentional_competition_task,2022.2.4,143.94640613627791,
positions.xlsx,positions_test.xlsx,positions_test_new.xlsx,stimuli.xlsx,stimuli_new.xlsx,stimuli/Social2.png,stimuli/Social1.png,stimuli/Nonsocial2.png,stimuli/Nonsocial1.png,stimuli/Social4.png,stimuli/Social3.png,stimuli/Nonsocial4.png,stimuli/Nonsocial3.png,,,,,,,,,,,0,0,0,0,,,,,0,0,0,0,,,,,,,,,,,,,,,,,,,,,,,,,,,,,,,,,,,,,,168.17951480019838,"[[0.6749999999999999, -0.8], [-0.22499999999999998, -0.30000000000000004], [-0.9, 0.7], [-0.22499999999999998, -0.8], [0.0, 0.7], [-0.675, -0.30000000000000004], [0.0, 0.19999999999999996], [0.0, -0.8], [-0.45, -0.30000000000000004], [-0.9, 0.19999999999999996], [0.6749999999999999, 0.7], [-0.22499999999999998, 0.7], [0.45000000000000007, -0.30000000000000004], [0.6749999999999999, -0.30000000000000004], [0.22499999999999998, -0.8]]","[[-0.9, -0.8], [0.45000000000000007, 0.7], [0.45000000000000007, 0.19999999999999996], [0.6749999999999999, 0.19999999999999996], [0.9, -0.30000000000000004], [0.9, -0.8], [-0.45, -0.8], [-0.45, 0.7], [-0.22499999999999998, 0.19999999999999996], [-0.675, 0.7], [-0.675, 0.19999999999999996], [0.22499999999999998, 0.19999999999999996], [0.9, 0.7], [0.22499999999999998, -0.30000000000000004], [-0.675, -0.8]]",,,,,,,,,,,,,,,,,,,,,,,,,,,,,,15,B,2024-04-22_17h27.32.022,attentional_competition_task,2022.2.4,143.94640613627791,
positions.xlsx,positions_test.xlsx,positions_test_new.xlsx,stimuli.xlsx,stimuli_new.xlsx,stimuli/Social2.png,stimuli/Social1.png,stimuli/Nonsocial2.png,stimuli/Nonsocial1.png,stimuli/Social4.png,stimuli/Social3.png,stimuli/Nonsocial4.png,stimuli/Nonsocial3.png,,,,,,,,,,,0,0,0,0,,,,,1,0,1,0,,,,,,,,,,,,,,,,,,,,,,,,,,,,,,,,,,,,,,,"[[-0.675, 0.7], [-0.45, 0.19999999999999996], [0.6749999999999999, -0.8], [-0.675, 0.19999999999999996], [0.0, 0.19999999999999996], [0.45000000000000007, -0.8], [-0.9, 0.19999999999999996], [0.9, 0.19999999999999996], [0.22499999999999998, 0.19999999999999996], [0.9, -0.8], [0.22499999999999998, 0.7], [0.0, -0.8], [-0.9, -0.30000000000000004], [-0.22499999999999998, -0.30000000000000004], [-0.22499999999999998, -0.8]]","[[0.9, 0.7], [0.0, -0.30000000000000004], [0.0, 0.7], [-0.45, -0.30000000000000004], [-0.45, 0.7], [0.6749999999999999, 0.7], [0.22499999999999998, -0.30000000000000004], [0.6749999999999999, 0.19999999999999996], [0.22499999999999998, -0.8], [-0.22499999999999998, 0.7], [-0.675, -0.30000000000000004], [-0.22499999999999998, 0.19999999999999996], [0.45000000000000007, 0.19999999999999996], [-0.9, -0.8], [-0.9, 0.7]]",,,,,,,,,,,,,,,,,,,,,,,,,,,,,,15,B,2024-04-22_17h27.32.022,attentional_competition_task,2022.2.4,143.94640613627791,
positions.xlsx,positions_test.xlsx,positions_test_new.xlsx,stimuli.xlsx,stimuli_new.xlsx,stimuli/Social2.png,stimuli/Social1.png,stimuli/Nonsocial2.png,stimuli/Nonsocial1.png,stimuli/Social4.png,stimuli/Social3.png,stimuli/Nonsocial4.png,stimuli/Nonsocial3.png,cs_pos_s,"(-0.7, -0.5)",,,,,,,,,0,0,0,0,,,,,,,,,0,0,0,5,,,,,,,,,,,,,,,,,,,,,,,,,,,,,,,,,,,,,253.891270800028,280.83460600022227,3,reward,1,2.2153445999138057,2.2153482995927334,283.06369890039787,,,,,,,,,,,,,,,,,,,,,,15,B,2024-04-22_17h27.32.022,attentional_competition_task,2022.2.4,143.94640613627791,
positions.xlsx,positions_test.xlsx,positions_test_new.xlsx,stimuli.xlsx,stimuli_new.xlsx,stimuli/Social2.png,stimuli/Social1.png,stimuli/Nonsocial2.png,stimuli/Nonsocial1.png,stimuli/Social4.png,stimuli/Social3.png,stimuli/Nonsocial4.png,stimuli/Nonsocial3.png,cs_pos_ns,"(-0.7, 0.5)",,,,,,,,,0,0,0,0,,,,,,,,,0,1,1,12,,,,,,,,,,,,,,,,,,,,,,,,,,,,,,,,,,,,,,291.0633935001679,6,reward,1,1.0207414999604225,1.0207452001050115,292.09113010019064,,,,,,,,,,,,,,,,,,,,,,15,B,2024-04-22_17h27.32.022,attentional_competition_task,2022.2.4,143.94640613627791,
positions.xlsx,positions_test.xlsx,positions_test_new.xlsx,stimuli.xlsx,stimuli_new.xlsx,stimuli/Social2.png,stimuli/Social1.png,stimuli/Nonsocial2.png,stimuli/Nonsocial1.png,stimuli/Social4.png,stimuli/Social3.png,stimuli/Nonsocial4.png,stimuli/Nonsocial3.png,cs_pos_s,"(0.7, 0.5)",,,,,,,,,0,0,0,0,,,,,,,,,0,2,2,6,,,,,,,,,,,,,,,,,,,,,,,,,,,,,,,,,,,,,,298.95203180005774,9,reward,1,0.44467150000855327,0.44467499991878867,299.4032649002038,,,,,,,,,,,,,,,,,,,,,,15,B,2024-04-22_17h27.32.022,attentional_competition_task,2022.2.4,143.94640613627791,
positions.xlsx,positions_test.xlsx,positions_test_new.xlsx,stimuli.xlsx,stimuli_new.xlsx,stimuli/Social2.png,stimuli/Social1.png,stimuli/Nonsocial2.png,stimuli/Nonsocial1.png,stimuli/Social4.png,stimuli/Social3.png,stimuli/Nonsocial4.png,stimuli/Nonsocial3.png,cs_neg_ns,"(0.7, -0.5)",,,,,,,,,0,0,0,0,,,,,,,,,0,3,3,11,,,,,,,,,,,,,,,,,,,,,,,,,,,,,,,,,,,,,,307.68769370019436,6,loss,1,0.46537650004029274,0.46537999995052814,308.1599304000847,,,,,,,,,,,,,,,,,,,,,,15,B,2024-04-22_17h27.32.022,attentional_competition_task,2022.2.4,143.94640613627791,
positions.xlsx,positions_test.xlsx,positions_test_new.xlsx,stimuli.xlsx,stimuli_new.xlsx,stimuli/Social2.png,stimuli/Social1.png,stimuli/Nonsocial2.png,stimuli/Nonsocial1.png,stimuli/Social4.png,stimuli/Social3.png,stimuli/Nonsocial4.png,stimuli/Nonsocial3.png,cs_neg_s,"(-0.7, 0.5)",,,,,,,,,0,0,0,0,,,,,,,,,0,4,4,0,,,,,,,,,,,,,,,,,,,,,,,,,,,,,,,,,,,,,,315.5554671003483,3,loss,1,0.4724945002235472,0.4724981002509594,316.03458750015125,,,,,,,,,,,,,,,,,,,,,,15,B,2024-04-22_17h27.32.022,attentional_competition_task,2022.2.4,143.94640613627791,
positions.xlsx,positions_test.xlsx,positions_test_new.xlsx,stimuli.xlsx,stimuli_new.xlsx,stimuli/Social2.png,stimuli/Social1.png,stimuli/Nonsocial2.png,stimuli/Nonsocial1.png,stimuli/Social4.png,stimuli/Social3.png,stimuli/Nonsocial4.png,stimuli/Nonsocial3.png,cs_neg_s,"(0.7, -0.5)",,,,,,,,,0,0,0,0,,,,,,,,,0,5,5,3,,,,,,,,,,,,,,,,,,,,,,,,,,,,,,,,,,,,,,324.2495239004493,0,loss,1,0.22242349991574883,0.22242680005729198,324.47864180011675,,,,,,,,,,,,,,,,,,,,,,15,B,2024-04-22_17h27.32.022,attentional_competition_task,2022.2.4,143.94640613627791,
positions.xlsx,positions_test.xlsx,positions_test_new.xlsx,stimuli.xlsx,stimuli_new.xlsx,stimuli/Social2.png,stimuli/Social1.png,stimuli/Nonsocial2.png,stimuli/Nonsocial1.png,stimuli/Social4.png,stimuli/Social3.png,stimuli/Nonsocial4.png,stimuli/Nonsocial3.png,cs_neg_ns,"(0.7, 0.5)",,,,,,,,,0,0,0,0,,,,,,,,,0,6,6,10,,,,,,,,,,,,,,,,,,,,,,,,,,,,,,,,,,,,,,331.11039090016857,-3,loss,1,1.1179394000209868,1.1179435001686215,332.23532120045274,,,,,,,,,,,,,,,,,,,,,,15,B,2024-04-22_17h27.32.022,attentional_competition_task,2022.2.4,143.94640613627791,
positions.xlsx,positions_test.xlsx,positions_test_new.xlsx,stimuli.xlsx,stimuli_new.xlsx,stimuli/Social2.png,stimuli/Social1.png,stimuli/Nonsocial2.png,stimuli/Nonsocial1.png,stimuli/Social4.png,stimuli/Social3.png,stimuli/Nonsocial4.png,stimuli/Nonsocial3.png,cs_neg_ns,"(-0.7, -0.5)",,,,,,,,,0,0,0,0,,,,,,,,,0,7,7,9,,,,,,,,,,,,,,,,,,,,,,,,,,,,,,,,,,,,,,340.2627809001133,-3,none,0,,,343.2766396002844,,,,,,,,,,,,,,,,,,,,,,15,B,2024-04-22_17h27.32.022,attentional_competition_task,2022.2.4,143.94640613627791,
positions.xlsx,positions_test.xlsx,positions_test_new.xlsx,stimuli.xlsx,stimuli_new.xlsx,stimuli/Social2.png,stimuli/Social1.png,stimuli/Nonsocial2.png,stimuli/Nonsocial1.png,stimuli/Social4.png,stimuli/Social3.png,stimuli/Nonsocial4.png,stimuli/Nonsocial3.png,cs_neg_s,"(-0.7, -0.5)",,,,,,,,,0,0,0,0,,,,,,,,,0,8,8,1,,,,,,,,,,,,,,,,,,,,,,,,,,,,,,,,,,,,,,350.6165750999935,-3,none,0,,,353.6233678003773,,,,,,,,,,,,,,,,,,,,,,15,B,2024-04-22_17h27.32.022,attentional_competition_task,2022.2.4,143.94640613627791,
positions.xlsx,positions_test.xlsx,positions_test_new.xlsx,stimuli.xlsx,stimuli_new.xlsx,stimuli/Social2.png,stimuli/Social1.png,stimuli/Nonsocial2.png,stimuli/Nonsocial1.png,stimuli/Social4.png,stimuli/Social3.png,stimuli/Nonsocial4.png,stimuli/Nonsocial3.png,cs_neg_s,"(0.7, 0.5)",,,,,,,,,0,0,0,0,,,,,,,,,0,9,9,2,,,,,,,,,,,,,,,,,,,,,,,,,,,,,,,,,,,,,,361.5188227002509,-3,none,0,,,364.52575930021703,,,,,,,,,,,,,,,,,,,,,,15,B,2024-04-22_17h27.32.022,attentional_competition_task,2022.2.4,143.94640613627791,
positions.xlsx,positions_test.xlsx,positions_test_new.xlsx,stimuli.xlsx,stimuli_new.xlsx,stimuli/Social2.png,stimuli/Social1.png,stimuli/Nonsocial2.png,stimuli/Nonsocial1.png,stimuli/Social4.png,stimuli/Social3.png,stimuli/Nonsocial4.png,stimuli/Nonsocial3.png,cs_pos_ns,"(0.7, 0.5)",,,,,,,,,0,0,0,0,,,,,,,,,0,10,10,14,,,,,,,,,,,,,,,,,,,,,,,,,,,,,,,,,,,,,,371.97676290012896,0,reward,1,0.6600303002633154,0.6600335002876818,372.64340550033376,,,,,,,,,,,,,,,,,,,,,,15,B,2024-04-22_17h27.32.022,attentional_competition_task,2022.2.4,143.94640613627791,
positions.xlsx,positions_test.xlsx,positions_test_new.xlsx,stimuli.xlsx,stimuli_new.xlsx,stimuli/Social2.png,stimuli/Social1.png,stimuli/Nonsocial2.png,stimuli/Nonsocial1.png,stimuli/Social4.png,stimuli/Social3.png,stimuli/Nonsocial4.png,stimuli/Nonsocial3.png,cs_pos_ns,"(-0.7, -0.5)",,,,,,,,,0,0,0,0,,,,,,,,,0,11,11,13,,,,,,,,,,,,,,,,,,,,,,,,,,,,,,,,,,,,,,379.78903380036354,3,reward,1,0.9305885997600853,0.9305922999046743,380.7263724002987,,,,,,,,,,,,,,,,,,,,,,15,B,2024-04-22_17h27.32.022,attentional_competition_task,2022.2.4,143.94640613627791,
positions.xlsx,positions_test.xlsx,positions_test_new.xlsx,stimuli.xlsx,stimuli_new.xlsx,stimuli/Social2.png,stimuli/Social1.png,stimuli/Nonsocial2.png,stimuli/Nonsocial1.png,stimuli/Social4.png,stimuli/Social3.png,stimuli/Nonsocial4.png,stimuli/Nonsocial3.png,cs_pos_s,"(0.7, -0.5)",,,,,,,,,0,0,0,0,,,,,,,,,0,12,12,7,,,,,,,,,,,,,,,,,,,,,,,,,,,,,,,,,,,,,,388.9482633001171,6,reward,1,0.7012355998158455,0.7012390997260809,389.65660620015115,,,,,,,,,,,,,,,,,,,,,,15,B,2024-04-22_17h27.32.022,attentional_competition_task,2022.2.4,143.94640613627791,
positions.xlsx,positions_test.xlsx,positions_test_new.xlsx,stimuli.xlsx,stimuli_new.xlsx,stimuli/Social2.png,stimuli/Social1.png,stimuli/Nonsocial2.png,stimuli/Nonsocial1.png,stimuli/Social4.png,stimuli/Social3.png,stimuli/Nonsocial4.png,stimuli/Nonsocial3.png,cs_pos_ns,"(0.7, -0.5)",,,,,,,,,0,0,0,0,,,,,,,,,0,13,13,15,,,,,,,,,,,,,,,,,,,,,,,,,,,,,,,,,,,,,,397.211840600241,9,reward,1,0.6739476001821458,0.6739512998610735,397.89235740015283,,,,,,,,,,,,,,,,,,,,,,15,B,2024-04-22_17h27.32.022,attentional_competition_task,2022.2.4,143.94640613627791,
positions.xlsx,positions_test.xlsx,positions_test_new.xlsx,stimuli.xlsx,stimuli_new.xlsx,stimuli/Social2.png,stimuli/Social1.png,stimuli/Nonsocial2.png,stimuli/Nonsocial1.png,stimuli/Social4.png,stimuli/Social3.png,stimuli/Nonsocial4.png,stimuli/Nonsocial3.png,cs_pos_s,"(-0.7, 0.5)",,,,,,,,,0,0,0,0,,,,,,,,,0,14,14,4,,,,,,,,,,,,,,,,,,,,,,,,,,,,,,,,,,,,,,405.62817970011383,12,reward,1,0.5626102001406252,0.5626141000539064,406.1976044001058,,,,,,,,,,,,,,,,,,,,,,15,B,2024-04-22_17h27.32.022,attentional_competition_task,2022.2.4,143.94640613627791,
positions.xlsx,positions_test.xlsx,positions_test_new.xlsx,stimuli.xlsx,stimuli_new.xlsx,stimuli/Social2.png,stimuli/Social1.png,stimuli/Nonsocial2.png,stimuli/Nonsocial1.png,stimuli/Social4.png,stimuli/Social3.png,stimuli/Nonsocial4.png,stimuli/Nonsocial3.png,cs_neg_ns,"(-0.7, 0.5)",,,,,,,,,0,0,0,0,,,,,,,,,0,15,15,8,,,,,,,,,,,,,,,,,,,,,,,,,,,,,,,,,,,,,,413.3501075003296,12,none,0,,,416.36385940015316,,,,,,,,,,,,,,,,,,,,,,15,B,2024-04-22_17h27.32.022,attentional_competition_task,2022.2.4,143.94640613627791,
positions.xlsx,positions_test.xlsx,positions_test_new.xlsx,stimuli.xlsx,stimuli_new.xlsx,stimuli/Social2.png,stimuli/Social1.png,stimuli/Nonsocial2.png,stimuli/Nonsocial1.png,stimuli/Social4.png,stimuli/Social3.png,stimuli/Nonsocial4.png,stimuli/Nonsocial3.png,cs_pos_s,"(0.7, -0.5)",,,,,,,,,0,0,0,0,,,,,,,,,1,0,16,7,,,,,,,,,,,,,,,,,,,,,,,,,,,,,,,,,,,,,,423.85661770030856,15,reward,1,0.6740180002525449,0.6740214000456035,424.537181599997,,,,,,,,,,,,,,,,,,,,,,15,B,2024-04-22_17h27.32.022,attentional_competition_task,2022.2.4,143.94640613627791,
positions.xlsx,positions_test.xlsx,positions_test_new.xlsx,stimuli.xlsx,stimuli_new.xlsx,stimuli/Social2.png,stimuli/Social1.png,stimuli/Nonsocial2.png,stimuli/Nonsocial1.png,stimuli/Social4.png,stimuli/Social3.png,stimuli/Nonsocial4.png,stimuli/Nonsocial3.png,cs_neg_s,"(0.7, 0.5)",,,,,,,,,0,0,0,0,,,,,,,,,1,1,17,2,,,,,,,,,,,,,,,,,,,,,,,,,,,,,,,,,,,,,,431.8909922000021,15,none,0,,,434.89785350020975,,,,,,,,,,,,,,,,,,,,,,15,B,2024-04-22_17h27.32.022,attentional_competition_task,2022.2.4,143.94640613627791,
positions.xlsx,positions_test.xlsx,positions_test_new.xlsx,stimuli.xlsx,stimuli_new.xlsx,stimuli/Social2.png,stimuli/Social1.png,stimuli/Nonsocial2.png,stimuli/Nonsocial1.png,stimuli/Social4.png,stimuli/Social3.png,stimuli/Nonsocial4.png,stimuli/Nonsocial3.png,cs_pos_ns,"(-0.7, 0.5)",,,,,,,,,0,0,0,0,,,,,,,,,1,2,18,12,,,,,,,,,,,,,,,,,,,,,,,,,,,,,,,,,,,,,,442.6197320003994,18,reward,1,0.5283310003578663,0.5283489003777504,443.15443450026214,,,,,,,,,,,,,,,,,,,,,,15,B,2024-04-22_17h27.32.022,attentional_competition_task,2022.2.4,143.94640613627791,
positions.xlsx,positions_test.xlsx,positions_test_new.xlsx,stimuli.xlsx,stimuli_new.xlsx,stimuli/Social2.png,stimuli/Social1.png,stimuli/Nonsocial2.png,stimuli/Nonsocial1.png,stimuli/Social4.png,stimuli/Social3.png,stimuli/Nonsocial4.png,stimuli/Nonsocial3.png,cs_neg_s,"(-0.7, -0.5)",,,,,,,,,0,0,0,0,,,,,,,,,1,3,19,1,,,,,,,,,,,,,,,,,,,,,,,,,,,,,,,,,,,,,,450.77911730017513,18,none,0,,,453.7929029003717,,,,,,,,,,,,,,,,,,,,,,15,B,2024-04-22_17h27.32.022,attentional_competition_task,2022.2.4,143.94640613627791,
positions.xlsx,positions_test.xlsx,positions_test_new.xlsx,stimuli.xlsx,stimuli_new.xlsx,stimuli/Social2.png,stimuli/Social1.png,stimuli/Nonsocial2.png,stimuli/Nonsocial1.png,stimuli/Social4.png,stimuli/Social3.png,stimuli/Nonsocial4.png,stimuli/Nonsocial3.png,cs_pos_ns,"(0.7, -0.5)",,,,,,,,,0,0,0,0,,,,,,,,,1,4,20,15,,,,,,,,,,,,,,,,,,,,,,,,,,,,,,,,,,,,,,461.61895970022306,21,reward,1,0.5836469996720552,0.5836506998166442,462.20925630023703,,,,,,,,,,,,,,,,,,,,,,15,B,2024-04-22_17h27.32.022,attentional_competition_task,2022.2.4,143.94640613627791,
positions.xlsx,positions_test.xlsx,positions_test_new.xlsx,stimuli.xlsx,stimuli_new.xlsx,stimuli/Social2.png,stimuli/Social1.png,stimuli/Nonsocial2.png,stimuli/Nonsocial1.png,stimuli/Social4.png,stimuli/Social3.png,stimuli/Nonsocial4.png,stimuli/Nonsocial3.png,cs_neg_ns,"(-0.7, -0.5)",,,,,,,,,0,0,0,0,,,,,,,,,1,5,21,9,,,,,,,,,,,,,,,,,,,,,,,,,,,,,,,,,,,,,,470.3477587001398,21,none,0,,,473.3615901004523,,,,,,,,,,,,,,,,,,,,,,15,B,2024-04-22_17h27.32.022,attentional_competition_task,2022.2.4,143.94640613627791,
positions.xlsx,positions_test.xlsx,positions_test_new.xlsx,stimuli.xlsx,stimuli_new.xlsx,stimuli/Social2.png,stimuli/Social1.png,stimuli/Nonsocial2.png,stimuli/Nonsocial1.png,stimuli/Social4.png,stimuli/Social3.png,stimuli/Nonsocial4.png,stimuli/Nonsocial3.png,cs_neg_ns,"(0.7, -0.5)",,,,,,,,,0,0,0,0,,,,,,,,,1,6,22,11,,,,,,,,,,,,,,,,,,,,,,,,,,,,,,,,,,,,,,480.3473723004572,21,none,0,,,483.3611730001867,,,,,,,,,,,,,,,,,,,,,,15,B,2024-04-22_17h27.32.022,attentional_competition_task,2022.2.4,143.94640613627791,
positions.xlsx,positions_test.xlsx,positions_test_new.xlsx,stimuli.xlsx,stimuli_new.xlsx,stimuli/Social2.png,stimuli/Social1.png,stimuli/Nonsocial2.png,stimuli/Nonsocial1.png,stimuli/Social4.png,stimuli/Social3.png,stimuli/Nonsocial4.png,stimuli/Nonsocial3.png,cs_pos_ns,"(0.7, 0.5)",,,,,,,,,0,0,0,0,,,,,,,,,1,7,23,14,,,,,,,,,,,,,,,,,,,,,,,,,,,,,,,,,,,,,,490.95806630002335,24,reward,1,0.7017965000122786,0.7086415998637676,491.67332400009036,,,,,,,,,,,,,,,,,,,,,,15,B,2024-04-22_17h27.32.022,attentional_competition_task,2022.2.4,143.94640613627791,
positions.xlsx,positions_test.xlsx,positions_test_new.xlsx,stimuli.xlsx,stimuli_new.xlsx,stimuli/Social2.png,stimuli/Social1.png,stimuli/Nonsocial2.png,stimuli/Nonsocial1.png,stimuli/Social4.png,stimuli/Social3.png,stimuli/Nonsocial4.png,stimuli/Nonsocial3.png,cs_pos_s,"(-0.7, 0.5)",,,,,,,,,0,0,0,0,,,,,,,,,1,8,24,4,,,,,,,,,,,,,,,,,,,,,,,,,,,,,,,,,,,,,,499.2077685003169,27,reward,1,0.6041176998987794,0.6041212999261916,499.81882680021226,,,,,,,,,,,,,,,,,,,,,,15,B,2024-04-22_17h27.32.022,attentional_competition_task,2022.2.4,143.94640613627791,
positions.xlsx,positions_test.xlsx,positions_test_new.xlsx,stimuli.xlsx,stimuli_new.xlsx,stimuli/Social2.png,stimuli/Social1.png,stimuli/Nonsocial2.png,stimuli/Nonsocial1.png,stimuli/Social4.png,stimuli/Social3.png,stimuli/Nonsocial4.png,stimuli/Nonsocial3.png,cs_pos_s,"(-0.7, -0.5)",,,,,,,,,0,0,0,0,,,,,,,,,1,9,25,5,,,,,,,,,,,,,,,,,,,,,,,,,,,,,,,,,,,,,,506.7838109000586,30,reward,1,0.5905426000244915,0.5905466000549495,507.3810233999975,,,,,,,,,,,,,,,,,,,,,,15,B,2024-04-22_17h27.32.022,attentional_competition_task,2022.2.4,143.94640613627791,
positions.xlsx,positions_test.xlsx,positions_test_new.xlsx,stimuli.xlsx,stimuli_new.xlsx,stimuli/Social2.png,stimuli/Social1.png,stimuli/Nonsocial2.png,stimuli/Nonsocial1.png,stimuli/Social4.png,stimuli/Social3.png,stimuli/Nonsocial4.png,stimuli/Nonsocial3.png,cs_neg_ns,"(-0.7, 0.5)",,,,,,,,,0,0,0,0,,,,,,,,,1,10,26,8,,,,,,,,,,,,,,,,,,,,,,,,,,,,,,,,,,,,,,514.8043446000665,30,none,0,,,517.8180863000453,,,,,,,,,,,,,,,,,,,,,,15,B,2024-04-22_17h27.32.022,attentional_competition_task,2022.2.4,143.94640613627791,
positions.xlsx,positions_test.xlsx,positions_test_new.xlsx,stimuli.xlsx,stimuli_new.xlsx,stimuli/Social2.png,stimuli/Social1.png,stimuli/Nonsocial2.png,stimuli/Nonsocial1.png,stimuli/Social4.png,stimuli/Social3.png,stimuli/Nonsocial4.png,stimuli/Nonsocial3.png,cs_neg_ns,"(0.7, 0.5)",,,,,,,,,0,0,0,0,,,,,,,,,1,11,27,10,,,,,,,,,,,,,,,,,,,,,,,,,,,,,,,,,,,,,,525.4775326000527,30,none,0,,,528.484374599997,,,,,,,,,,,,,,,,,,,,,,15,B,2024-04-22_17h27.32.022,attentional_competition_task,2022.2.4,143.94640613627791,
positions.xlsx,positions_test.xlsx,positions_test_new.xlsx,stimuli.xlsx,stimuli_new.xlsx,stimuli/Social2.png,stimuli/Social1.png,stimuli/Nonsocial2.png,stimuli/Nonsocial1.png,stimuli/Social4.png,stimuli/Social3.png,stimuli/Nonsocial4.png,stimuli/Nonsocial3.png,cs_pos_s,"(0.7, 0.5)",,,,,,,,,0,0,0,0,,,,,,,,,1,12,28,6,,,,,,,,,,,,,,,,,,,,,,,,,,,,,,,,,,,,,,535.7270979001187,33,reward,1,0.6735227000899613,0.6735269003547728,536.4076059004292,,,,,,,,,,,,,,,,,,,,,,15,B,2024-04-22_17h27.32.022,attentional_competition_task,2022.2.4,143.94640613627791,
positions.xlsx,positions_test.xlsx,positions_test_new.xlsx,stimuli.xlsx,stimuli_new.xlsx,stimuli/Social2.png,stimuli/Social1.png,stimuli/Nonsocial2.png,stimuli/Nonsocial1.png,stimuli/Social4.png,stimuli/Social3.png,stimuli/Nonsocial4.png,stimuli/Nonsocial3.png,cs_pos_ns,"(-0.7, -0.5)",,,,,,,,,0,0,0,0,,,,,,,,,1,13,29,13,,,,,,,,,,,,,,,,,,,,,,,,,,,,,,,,,,,,,,543.2546125003137,36,reward,1,0.8609938002191484,0.860997200012207,544.1225775000639,,,,,,,,,,,,,,,,,,,,,,15,B,2024-04-22_17h27.32.022,attentional_competition_task,2022.2.4,143.94640613627791,
positions.xlsx,positions_test.xlsx,positions_test_new.xlsx,stimuli.xlsx,stimuli_new.xlsx,stimuli/Social2.png,stimuli/Social1.png,stimuli/Nonsocial2.png,stimuli/Nonsocial1.png,stimuli/Social4.png,stimuli/Social3.png,stimuli/Nonsocial4.png,stimuli/Nonsocial3.png,cs_neg_s,"(0.7, -0.5)",,,,,,,,,0,0,0,0,,,,,,,,,1,14,30,3,,,,,,,,,,,,,,,,,,,,,,,,,,,,,,,,,,,,,,551.6362176002003,36,none,0,,,554.6430068002082,,,,,,,,,,,,,,,,,,,,,,15,B,2024-04-22_17h27.32.022,attentional_competition_task,2022.2.4,143.94640613627791,
positions.xlsx,positions_test.xlsx,positions_test_new.xlsx,stimuli.xlsx,stimuli_new.xlsx,stimuli/Social2.png,stimuli/Social1.png,stimuli/Nonsocial2.png,stimuli/Nonsocial1.png,stimuli/Social4.png,stimuli/Social3.png,stimuli/Nonsocial4.png,stimuli/Nonsocial3.png,cs_neg_s,"(-0.7, 0.5)",,,,,,,,,0,0,0,0,,,,,,,,,1,15,31,0,,,,,,,,,,,,,,,,,,,,,,,,,,,,,,,,,,,,,,562.4899040004238,36,none,0,,,565.496730600018,,,,,,,,,,,,,,,,,,,,,,15,B,2024-04-22_17h27.32.022,attentional_competition_task,2022.2.4,143.94640613627791,
positions.xlsx,positions_test.xlsx,positions_test_new.xlsx,stimuli.xlsx,stimuli_new.xlsx,stimuli/Social2.png,stimuli/Social1.png,stimuli/Nonsocial2.png,stimuli/Nonsocial1.png,stimuli/Social4.png,stimuli/Social3.png,stimuli/Nonsocial4.png,stimuli/Nonsocial3.png,cs_neg_s,"(0.7, 0.5)",,,,,,,,,0,0,0,0,,,,,,,,,,,,,0,0,0,2,,,,,,,,,,,,,,,,,,,,,,,,,,,,,,,,,,585.2945608003065,33,loss,1,0.4027936002239585,0.4027971001341939,585.704328100197,,,,,,,,,,,,,,,,,,,,,,15,B,2024-04-22_17h27.32.022,attentional_competition_task,2022.2.4,143.94640613627791,
positions.xlsx,positions_test.xlsx,positions_test_new.xlsx,stimuli.xlsx,stimuli_new.xlsx,stimuli/Social2.png,stimuli/Social1.png,stimuli/Nonsocial2.png,stimuli/Nonsocial1.png,stimuli/Social4.png,stimuli/Social3.png,stimuli/Nonsocial4.png,stimuli/Nonsocial3.png,cs_pos_s,"(-0.7, 0.5)",,,,,,,,,0,0,0,0,,,,,,,,,,,,,0,1,1,4,,,,,,,,,,,,,,,,,,,,,,,,,,,,,,,,,,593.5025414000265,36,reward,1,0.5355217000469565,0.5355253000743687,594.0442070001736,,,,,,,,,,,,,,,,,,,,,,15,B,2024-04-22_17h27.32.022,attentional_competition_task,2022.2.4,143.94640613627791,
positions.xlsx,positions_test.xlsx,positions_test_new.xlsx,stimuli.xlsx,stimuli_new.xlsx,stimuli/Social2.png,stimuli/Social1.png,stimuli/Nonsocial2.png,stimuli/Nonsocial1.png,stimuli/Social4.png,stimuli/Social3.png,stimuli/Nonsocial4.png,stimuli/Nonsocial3.png,cs_pos_ns,"(-0.7, -0.5)",,,,,,,,,0,0,0,0,,,,,,,,,,,,,0,2,2,13,,,,,,,,,,,,,,,,,,,,,,,,,,,,,,,,,,600.960571100004,39,reward,1,0.7916343002580106,0.7916379999369383,601.7591763003729,,,,,,,,,,,,,,,,,,,,,,15,B,2024-04-22_17h27.32.022,attentional_competition_task,2022.2.4,143.94640613627791,
positions.xlsx,positions_test.xlsx,positions_test_new.xlsx,stimuli.xlsx,stimuli_new.xlsx,stimuli/Social2.png,stimuli/Social1.png,stimuli/Nonsocial2.png,stimuli/Nonsocial1.png,stimuli/Social4.png,stimuli/Social3.png,stimuli/Nonsocial4.png,stimuli/Nonsocial3.png,cs_pos_ns,"(0.7, 0.5)",,,,,,,,,0,0,0,0,,,,,,,,,,,,,0,3,3,14,,,,,,,,,,,,,,,,,,,,,,,,,,,,,,,,,,608.5575513001531,42,reward,1,0.5908570000901818,0.5977745000272989,609.1616553002968,,,,,,,,,,,,,,,,,,,,,,15,B,2024-04-22_17h27.32.022,attentional_competition_task,2022.2.4,143.94640613627791,
positions.xlsx,positions_test.xlsx,positions_test_new.xlsx,stimuli.xlsx,stimuli_new.xlsx,stimuli/Social2.png,stimuli/Social1.png,stimuli/Nonsocial2.png,stimuli/Nonsocial1.png,stimuli/Social4.png,stimuli/Social3.png,stimuli/Nonsocial4.png,stimuli/Nonsocial3.png,cs_neg_ns,"(-0.7, -0.5)",,,,,,,,,0,0,0,0,,,,,,,,,,,,,0,4,4,9,,,,,,,,,,,,,,,,,,,,,,,,,,,,,,,,,,616.626626400277,42,none,0,,,619.6404240000993,,,,,,,,,,,,,,,,,,,,,,15,B,2024-04-22_17h27.32.022,attentional_competition_task,2022.2.4,143.94640613627791,
positions.xlsx,positions_test.xlsx,positions_test_new.xlsx,stimuli.xlsx,stimuli_new.xlsx,stimuli/Social2.png,stimuli/Social1.png,stimuli/Nonsocial2.png,stimuli/Nonsocial1.png,stimuli/Social4.png,stimuli/Social3.png,stimuli/Nonsocial4.png,stimuli/Nonsocial3.png,cs_pos_s,"(-0.7, -0.5)",,,,,,,,,0,0,0,0,,,,,,,,,,,,,0,5,5,5,,,,,,,,,,,,,,,,,,,,,,,,,,,,,,,,,,627.563714100048,45,reward,1,0.569563599769026,0.569567299913615,628.1401260001585,,,,,,,,,,,,,,,,,,,,,,15,B,2024-04-22_17h27.32.022,attentional_competition_task,2022.2.4,143.94640613627791,
positions.xlsx,positions_test.xlsx,positions_test_new.xlsx,stimuli.xlsx,stimuli_new.xlsx,stimuli/Social2.png,stimuli/Social1.png,stimuli/Nonsocial2.png,stimuli/Nonsocial1.png,stimuli/Social4.png,stimuli/Social3.png,stimuli/Nonsocial4.png,stimuli/Nonsocial3.png,cs_neg_s,"(-0.7, 0.5)",,,,,,,,,0,0,0,0,,,,,,,,,,,,,0,6,6,0,,,,,,,,,,,,,,,,,,,,,,,,,,,,,,,,,,636.0494710002095,45,none,0,,,639.0562880001962,,,,,,,,,,,,,,,,,,,,,,15,B,2024-04-22_17h27.32.022,attentional_competition_task,2022.2.4,143.94640613627791,
positions.xlsx,positions_test.xlsx,positions_test_new.xlsx,stimuli.xlsx,stimuli_new.xlsx,stimuli/Social2.png,stimuli/Social1.png,stimuli/Nonsocial2.png,stimuli/Nonsocial1.png,stimuli/Social4.png,stimuli/Social3.png,stimuli/Nonsocial4.png,stimuli/Nonsocial3.png,cs_pos_ns,"(-0.7, 0.5)",,,,,,,,,0,0,0,0,,,,,,,,,,,,,0,7,7,12,,,,,,,,,,,,,,,,,,,,,,,,,,,,,,,,,,647.4170466000214,48,reward,1,0.7361784996464849,0.736182099673897,648.1600868999958,,,,,,,,,,,,,,,,,,,,,,15,B,2024-04-22_17h27.32.022,attentional_competition_task,2022.2.4,143.94640613627791,
positions.xlsx,positions_test.xlsx,positions_test_new.xlsx,stimuli.xlsx,stimuli_new.xlsx,stimuli/Social2.png,stimuli/Social1.png,stimuli/Nonsocial2.png,stimuli/Nonsocial1.png,stimuli/Social4.png,stimuli/Social3.png,stimuli/Nonsocial4.png,stimuli/Nonsocial3.png,cs_neg_s,"(-0.7, -0.5)",,,,,,,,,0,0,0,0,,,,,,,,,,,,,0,8,8,1,,,,,,,,,,,,,,,,,,,,,,,,,,,,,,,,,,655.6180889001116,48,none,0,,,658.6319058001973,,,,,,,,,,,,,,,,,,,,,,15,B,2024-04-22_17h27.32.022,attentional_competition_task,2022.2.4,143.94640613627791,
positions.xlsx,positions_test.xlsx,positions_test_new.xlsx,stimuli.xlsx,stimuli_new.xlsx,stimuli/Social2.png,stimuli/Social1.png,stimuli/Nonsocial2.png,stimuli/Nonsocial1.png,stimuli/Social4.png,stimuli/Social3.png,stimuli/Nonsocial4.png,stimuli/Nonsocial3.png,cs_neg_s,"(0.7, -0.5)",,,,,,,,,0,0,0,0,,,,,,,,,,,,,0,9,9,3,,,,,,,,,,,,,,,,,,,,,,,,,,,,,,,,,,666.3954328000546,48,none,0,,,669.4022860000841,,,,,,,,,,,,,,,,,,,,,,15,B,2024-04-22_17h27.32.022,attentional_competition_task,2022.2.4,143.94640613627791,
positions.xlsx,positions_test.xlsx,positions_test_new.xlsx,stimuli.xlsx,stimuli_new.xlsx,stimuli/Social2.png,stimuli/Social1.png,stimuli/Nonsocial2.png,stimuli/Nonsocial1.png,stimuli/Social4.png,stimuli/Social3.png,stimuli/Nonsocial4.png,stimuli/Nonsocial3.png,cs_pos_ns,"(0.7, -0.5)",,,,,,,,,0,0,0,0,,,,,,,,,,,,,0,10,10,15,,,,,,,,,,,,,,,,,,,,,,,,,,,,,,,,,,677.8672533002682,51,reward,1,0.5626575998030603,0.5626610000617802,678.4366531004198,,,,,,,,,,,,,,,,,,,,,,15,B,2024-04-22_17h27.32.022,attentional_competition_task,2022.2.4,143.94640613627791,
positions.xlsx,positions_test.xlsx,positions_test_new.xlsx,stimuli.xlsx,stimuli_new.xlsx,stimuli/Social2.png,stimuli/Social1.png,stimuli/Nonsocial2.png,stimuli/Nonsocial1.png,stimuli/Social4.png,stimuli/Social3.png,stimuli/Nonsocial4.png,stimuli/Nonsocial3.png,cs_neg_ns,"(-0.7, 0.5)",,,,,,,,,0,0,0,0,,,,,,,,,,,,,0,11,11,8,,,,,,,,,,,,,,,,,,,,,,,,,,,,,,,,,,686.0057884003036,48,loss,1,0.24317250028252602,0.24317640019580722,686.255790500436,,,,,,,,,,,,,,,,,,,,,,15,B,2024-04-22_17h27.32.022,attentional_competition_task,2022.2.4,143.94640613627791,
positions.xlsx,positions_test.xlsx,positions_test_new.xlsx,stimuli.xlsx,stimuli_new.xlsx,stimuli/Social2.png,stimuli/Social1.png,stimuli/Nonsocial2.png,stimuli/Nonsocial1.png,stimuli/Social4.png,stimuli/Social3.png,stimuli/Nonsocial4.png,stimuli/Nonsocial3.png,cs_pos_s,"(0.7, -0.5)",,,,,,,,,0,0,0,0,,,,,,,,,,,,,0,12,12,7,,,,,,,,,,,,,,,,,,,,,,,,,,,,,,,,,,694.6235549002886,51,reward,1,0.597248800098896,0.5972521998919547,695.2276381002739,,,,,,,,,,,,,,,,,,,,,,15,B,2024-04-22_17h27.32.022,attentional_competition_task,2022.2.4,143.94640613627791,
positions.xlsx,positions_test.xlsx,positions_test_new.xlsx,stimuli.xlsx,stimuli_new.xlsx,stimuli/Social2.png,stimuli/Social1.png,stimuli/Nonsocial2.png,stimuli/Nonsocial1.png,stimuli/Social4.png,stimuli/Social3.png,stimuli/Nonsocial4.png,stimuli/Nonsocial3.png,cs_pos_s,"(0.7, 0.5)",,,,,,,,,0,0,0,0,,,,,,,,,,,,,0,13,13,6,,,,,,,,,,,,,,,,,,,,,,,,,,,,,,,,,,703.137013300322,54,reward,1,0.7016317998059094,0.7016353001818061,703.8453216003254,,,,,,,,,,,,,,,,,,,,,,15,B,2024-04-22_17h27.32.022,attentional_competition_task,2022.2.4,143.94640613627791,
positions.xlsx,positions_test.xlsx,positions_test_new.xlsx,stimuli.xlsx,stimuli_new.xlsx,stimuli/Social2.png,stimuli/Social1.png,stimuli/Nonsocial2.png,stimuli/Nonsocial1.png,stimuli/Social4.png,stimuli/Social3.png,stimuli/Nonsocial4.png,stimuli/Nonsocial3.png,cs_neg_ns,"(0.7, -0.5)",,,,,,,,,0,0,0,0,,,,,,,,,,,,,0,14,14,11,,,,,,,,,,,,,,,,,,,,,,,,,,,,,,,,,,711.3172546001151,54,none,0,,,714.3310556001961,,,,,,,,,,,,,,,,,,,,,,15,B,2024-04-22_17h27.32.022,attentional_competition_task,2022.2.4,143.94640613627791,
positions.xlsx,positions_test.xlsx,positions_test_new.xlsx,stimuli.xlsx,stimuli_new.xlsx,stimuli/Social2.png,stimuli/Social1.png,stimuli/Nonsocial2.png,stimuli/Nonsocial1.png,stimuli/Social4.png,stimuli/Social3.png,stimuli/Nonsocial4.png,stimuli/Nonsocial3.png,cs_neg_ns,"(0.7, 0.5)",,,,,,,,,0,0,0,0,,,,,,,,,,,,,0,15,15,10,,,,,,,,,,,,,,,,,,,,,,,,,,,,,,,,,,721.5737654003315,54,none,0,,,724.5806365003809,,,,,,,,,,,,,,,,,,,,,,15,B,2024-04-22_17h27.32.022,attentional_competition_task,2022.2.4,143.94640613627791,
positions.xlsx,positions_test.xlsx,positions_test_new.xlsx,stimuli.xlsx,stimuli_new.xlsx,stimuli/Social2.png,stimuli/Social1.png,stimuli/Nonsocial2.png,stimuli/Nonsocial1.png,stimuli/Social4.png,stimuli/Social3.png,stimuli/Nonsocial4.png,stimuli/Nonsocial3.png,cs_neg_s,"(-0.7, -0.5)",,,,,,,,,0,0,0,0,,,,,,,,,,,,,1,0,16,1,,,,,,,,,,,,,,,,,,,,,,,,,,,,,,,,,,732.2608930002898,54,none,0,,,735.2676820000634,,,,,,,,,,,,,,,,,,,,,,15,B,2024-04-22_17h27.32.022,attentional_competition_task,2022.2.4,143.94640613627791,
positions.xlsx,positions_test.xlsx,positions_test_new.xlsx,stimuli.xlsx,stimuli_new.xlsx,stimuli/Social2.png,stimuli/Social1.png,stimuli/Nonsocial2.png,stimuli/Nonsocial1.png,stimuli/Social4.png,stimuli/Social3.png,stimuli/Nonsocial4.png,stimuli/Nonsocial3.png,cs_pos_s,"(-0.7, -0.5)",,,,,,,,,0,0,0,0,,,,,,,,,,,,,1,1,17,5,,,,,,,,,,,,,,,,,,,,,,,,,,,,,,,,,,742.4271605000831,57,reward,1,0.6468986002728343,0.6469021001830697,743.0798520003445,,,,,,,,,,,,,,,,,,,,,,15,B,2024-04-22_17h27.32.022,attentional_competition_task,2022.2.4,143.94640613627791,
positions.xlsx,positions_test.xlsx,positions_test_new.xlsx,stimuli.xlsx,stimuli_new.xlsx,stimuli/Social2.png,stimuli/Social1.png,stimuli/Nonsocial2.png,stimuli/Nonsocial1.png,stimuli/Social4.png,stimuli/Social3.png,stimuli/Nonsocial4.png,stimuli/Nonsocial3.png,cs_neg_ns,"(0.7, -0.5)",,,,,,,,,0,0,0,0,,,,,,,,,,,,,1,2,18,11,,,,,,,,,,,,,,,,,,,,,,,,,,,,,,,,,,751.0032321000472,57,none,0,,,754.0169275002554,,,,,,,,,,,,,,,,,,,,,,15,B,2024-04-22_17h27.32.022,attentional_competition_task,2022.2.4,143.94640613627791,
positions.xlsx,positions_test.xlsx,positions_test_new.xlsx,stimuli.xlsx,stimuli_new.xlsx,stimuli/Social2.png,stimuli/Social1.png,stimuli/Nonsocial2.png,stimuli/Nonsocial1.png,stimuli/Social4.png,stimuli/Social3.png,stimuli/Nonsocial4.png,stimuli/Nonsocial3.png,cs_neg_s,"(0.7, 0.5)",,,,,,,,,0,0,0,0,,,,,,,,,,,,,1,3,19,2,,,,,,,,,,,,,,,,,,,,,,,,,,,,,,,,,,761.6347036003135,57,none,0,,,764.6484991000034,,,,,,,,,,,,,,,,,,,,,,15,B,2024-04-22_17h27.32.022,attentional_competition_task,2022.2.4,143.94640613627791,
positions.xlsx,positions_test.xlsx,positions_test_new.xlsx,stimuli.xlsx,stimuli_new.xlsx,stimuli/Social2.png,stimuli/Social1.png,stimuli/Nonsocial2.png,stimuli/Nonsocial1.png,stimuli/Social4.png,stimuli/Social3.png,stimuli/Nonsocial4.png,stimuli/Nonsocial3.png,cs_pos_s,"(0.7, -0.5)",,,,,,,,,0,0,0,0,,,,,,,,,,,,,1,4,20,7,,,,,,,,,,,,,,,,,,,,,,,,,,,,,,,,,,772.2454334003851,60,reward,1,0.5970199997536838,0.597023599781096,772.8495240001939,,,,,,,,,,,,,,,,,,,,,,15,B,2024-04-22_17h27.32.022,attentional_competition_task,2022.2.4,143.94640613627791,
positions.xlsx,positions_test.xlsx,positions_test_new.xlsx,stimuli.xlsx,stimuli_new.xlsx,stimuli/Social2.png,stimuli/Social1.png,stimuli/Nonsocial2.png,stimuli/Nonsocial1.png,stimuli/Social4.png,stimuli/Social3.png,stimuli/Nonsocial4.png,stimuli/Nonsocial3.png,cs_neg_ns,"(-0.7, -0.5)",,,,,,,,,0,0,0,0,,,,,,,,,,,,,1,5,21,9,,,,,,,,,,,,,,,,,,,,,,,,,,,,,,,,,,780.7103397003375,60,none,0,,,783.7240877002478,,,,,,,,,,,,,,,,,,,,,,15,B,2024-04-22_17h27.32.022,attentional_competition_task,2022.2.4,143.94640613627791,
positions.xlsx,positions_test.xlsx,positions_test_new.xlsx,stimuli.xlsx,stimuli_new.xlsx,stimuli/Social2.png,stimuli/Social1.png,stimuli/Nonsocial2.png,stimuli/Nonsocial1.png,stimuli/Social4.png,stimuli/Social3.png,stimuli/Nonsocial4.png,stimuli/Nonsocial3.png,cs_pos_ns,"(0.7, 0.5)",,,,,,,,,0,0,0,0,,,,,,,,,,,,,1,6,22,14,,,,,,,,,,,,,,,,,,,,,,,,,,,,,,,,,,790.4252028004266,63,reward,1,0.6809844002127647,0.6809884998947382,791.1126589002088,,,,,,,,,,,,,,,,,,,,,,15,B,2024-04-22_17h27.32.022,attentional_competition_task,2022.2.4,143.94640613627791,
positions.xlsx,positions_test.xlsx,positions_test_new.xlsx,stimuli.xlsx,stimuli_new.xlsx,stimuli/Social2.png,stimuli/Social1.png,stimuli/Nonsocial2.png,stimuli/Nonsocial1.png,stimuli/Social4.png,stimuli/Social3.png,stimuli/Nonsocial4.png,stimuli/Nonsocial3.png,cs_neg_ns,"(-0.7, 0.5)",,,,,,,,,0,0,0,0,,,,,,,,,,,,,1,7,23,8,,,,,,,,,,,,,,,,,,,,,,,,,,,,,,,,,,799.098445800133,63,none,0,,,802.1122495001182,,,,,,,,,,,,,,,,,,,,,,15,B,2024-04-22_17h27.32.022,attentional_competition_task,2022.2.4,143.94640613627791,
positions.xlsx,positions_test.xlsx,positions_test_new.xlsx,stimuli.xlsx,stimuli_new.xlsx,stimuli/Social2.png,stimuli/Social1.png,stimuli/Nonsocial2.png,stimuli/Nonsocial1.png,stimuli/Social4.png,stimuli/Social3.png,stimuli/Nonsocial4.png,stimuli/Nonsocial3.png,cs_neg_s,"(-0.7, 0.5)",,,,,,,,,0,0,0,0,,,,,,,,,,,,,1,8,24,0,,,,,,,,,,,,,,,,,,,,,,,,,,,,,,,,,,809.4591789003462,63,none,0,,,812.4660394000821,,,,,,,,,,,,,,,,,,,,,,15,B,2024-04-22_17h27.32.022,attentional_competition_task,2022.2.4,143.94640613627791,
positions.xlsx,positions_test.xlsx,positions_test_new.xlsx,stimuli.xlsx,stimuli_new.xlsx,stimuli/Social2.png,stimuli/Social1.png,stimuli/Nonsocial2.png,stimuli/Nonsocial1.png,stimuli/Social4.png,stimuli/Social3.png,stimuli/Nonsocial4.png,stimuli/Nonsocial3.png,cs_pos_s,"(-0.7, 0.5)",,,,,,,,,0,0,0,0,,,,,,,,,,,,,1,9,25,4,,,,,,,,,,,,,,,,,,,,,,,,,,,,,,,,,,820.5768016004004,66,reward,1,0.5556754996068776,0.5556917996145785,821.1392442001961,,,,,,,,,,,,,,,,,,,,,,15,B,2024-04-22_17h27.32.022,attentional_competition_task,2022.2.4,143.94640613627791,
positions.xlsx,positions_test.xlsx,positions_test_new.xlsx,stimuli.xlsx,stimuli_new.xlsx,stimuli/Social2.png,stimuli/Social1.png,stimuli/Nonsocial2.png,stimuli/Nonsocial1.png,stimuli/Social4.png,stimuli/Social3.png,stimuli/Nonsocial4.png,stimuli/Nonsocial3.png,cs_neg_s,"(0.7, -0.5)",,,,,,,,,0,0,0,0,,,,,,,,,,,,,1,10,26,3,,,,,,,,,,,,,,,,,,,,,,,,,,,,,,,,,,828.4930986003019,66,none,0,,,831.5068835001439,,,,,,,,,,,,,,,,,,,,,,15,B,2024-04-22_17h27.32.022,attentional_competition_task,2022.2.4,143.94640613627791,
positions.xlsx,positions_test.xlsx,positions_test_new.xlsx,stimuli.xlsx,stimuli_new.xlsx,stimuli/Social2.png,stimuli/Social1.png,stimuli/Nonsocial2.png,stimuli/Nonsocial1.png,stimuli/Social4.png,stimuli/Social3.png,stimuli/Nonsocial4.png,stimuli/Nonsocial3.png,cs_pos_ns,"(-0.7, -0.5)",,,,,,,,,0,0,0,0,,,,,,,,,,,,,1,11,27,13,,,,,,,,,,,,,,,,,,,,,,,,,,,,,,,,,,839.8676321003586,69,reward,1,0.7572995000518858,0.7573029999621212,840.6314910002984,,,,,,,,,,,,,,,,,,,,,,15,B,2024-04-22_17h27.32.022,attentional_competition_task,2022.2.4,143.94640613627791,
positions.xlsx,positions_test.xlsx,positions_test_new.xlsx,stimuli.xlsx,stimuli_new.xlsx,stimuli/Social2.png,stimuli/Social1.png,stimuli/Nonsocial2.png,stimuli/Nonsocial1.png,stimuli/Social4.png,stimuli/Social3.png,stimuli/Nonsocial4.png,stimuli/Nonsocial3.png,cs_pos_ns,"(-0.7, 0.5)",,,,,,,,,0,0,0,0,,,,,,,,,,,,,1,12,28,12,,,,,,,,,,,,,,,,,,,,,,,,,,,,,,,,,,848.1104056001641,72,reward,1,0.5834097000770271,0.5834134998731315,848.7006379002705,,,,,,,,,,,,,,,,,,,,,,15,B,2024-04-22_17h27.32.022,attentional_competition_task,2022.2.4,143.94640613627791,
positions.xlsx,positions_test.xlsx,positions_test_new.xlsx,stimuli.xlsx,stimuli_new.xlsx,stimuli/Social2.png,stimuli/Social1.png,stimuli/Nonsocial2.png,stimuli/Nonsocial1.png,stimuli/Social4.png,stimuli/Social3.png,stimuli/Nonsocial4.png,stimuli/Nonsocial3.png,cs_pos_s,"(0.7, 0.5)",,,,,,,,,0,0,0,0,,,,,,,,,,,,,1,13,29,6,,,,,,,,,,,,,,,,,,,,,,,,,,,,,,,,,,855.811482900288,75,reward,1,0.6882297997362912,0.6882336996495724,856.5059285000898,,,,,,,,,,,,,,,,,,,,,,15,B,2024-04-22_17h27.32.022,attentional_competition_task,2022.2.4,143.94640613627791,
positions.xlsx,positions_test.xlsx,positions_test_new.xlsx,stimuli.xlsx,stimuli_new.xlsx,stimuli/Social2.png,stimuli/Social1.png,stimuli/Nonsocial2.png,stimuli/Nonsocial1.png,stimuli/Social4.png,stimuli/Social3.png,stimuli/Nonsocial4.png,stimuli/Nonsocial3.png,cs_neg_ns,"(0.7, 0.5)",,,,,,,,,0,0,0,0,,,,,,,,,,,,,1,14,30,10,,,,,,,,,,,,,,,,,,,,,,,,,,,,,,,,,,863.8319658003747,75,none,0,,,866.8457533000037,,,,,,,,,,,,,,,,,,,,,,15,B,2024-04-22_17h27.32.022,attentional_competition_task,2022.2.4,143.94640613627791,
positions.xlsx,positions_test.xlsx,positions_test_new.xlsx,stimuli.xlsx,stimuli_new.xlsx,stimuli/Social2.png,stimuli/Social1.png,stimuli/Nonsocial2.png,stimuli/Nonsocial1.png,stimuli/Social4.png,stimuli/Social3.png,stimuli/Nonsocial4.png,stimuli/Nonsocial3.png,cs_pos_ns,"(0.7, -0.5)",,,,,,,,,0,0,0,0,,,,,,,,,,,,,1,15,31,15,,,,,,,,,,,,,,,,,,,,,,,,,,,,,,,,,,874.7482116003521,78,reward,1,0.6451600003056228,0.645163600333035,875.39402040001,,,,,,,,,,,,,,,,,,,,,,15,B,2024-04-22_17h27.32.022,attentional_competition_task,2022.2.4,143.94640613627791,
positions.xlsx,positions_test.xlsx,positions_test_new.xlsx,stimuli.xlsx,stimuli_new.xlsx,stimuli/Social2.png,stimuli/Social1.png,stimuli/Nonsocial2.png,stimuli/Nonsocial1.png,stimuli/Social4.png,stimuli/Social3.png,stimuli/Nonsocial4.png,stimuli/Nonsocial3.png,cs_pos_s,,,,,,,,,,0,0,0,0,,,,,,,,,,,,,,,,,0,0,0,2,,,,,,,,,,,,,,,,,,,,,,,880.2132096001878,5.0,8.275348800234497,,,,,,,,,,,,,,,,,,,,,,,,,,,,,,,,,15,B,2024-04-22_17h27.32.022,attentional_competition_task,2022.2.4,143.94640613627791,
positions.xlsx,positions_test.xlsx,positions_test_new.xlsx,stimuli.xlsx,stimuli_new.xlsx,stimuli/Social2.png,stimuli/Social1.png,stimuli/Nonsocial2.png,stimuli/Nonsocial1.png,stimuli/Social4.png,stimuli/Social3.png,stimuli/Nonsocial4.png,stimuli/Nonsocial3.png,cs_neg_ns,,,,,,,,,,0,0,0,0,,,,,,,,,,,,,,,,,0,1,1,1,,,,,,,,,,,,,,,,,,,,,,,889.6503862002864,4.0,3.112310199998319,,,,,,,,,,,,,,,,,,,,,,,,,,,,,,,,,15,B,2024-04-22_17h27.32.022,attentional_competition_task,2022.2.4,143.94640613627791,
positions.xlsx,positions_test.xlsx,positions_test_new.xlsx,stimuli.xlsx,stimuli_new.xlsx,stimuli/Social2.png,stimuli/Social1.png,stimuli/Nonsocial2.png,stimuli/Nonsocial1.png,stimuli/Social4.png,stimuli/Social3.png,stimuli/Nonsocial4.png,stimuli/Nonsocial3.png,cs_pos_ns,,,,,,,,,,0,0,0,0,,,,,,,,,,,,,,,,,0,2,2,3,,,,,,,,,,,,,,,,,,,,,,,893.7891029003076,5.0,3.619181400164962,,,,,,,,,,,,,,,,,,,,,,,,,,,,,,,,,15,B,2024-04-22_17h27.32.022,attentional_competition_task,2022.2.4,143.94640613627791,
positions.xlsx,positions_test.xlsx,positions_test_new.xlsx,stimuli.xlsx,stimuli_new.xlsx,stimuli/Social2.png,stimuli/Social1.png,stimuli/Nonsocial2.png,stimuli/Nonsocial1.png,stimuli/Social4.png,stimuli/Social3.png,stimuli/Nonsocial4.png,stimuli/Nonsocial3.png,cs_neg_s,,,,,,,,,,0,0,0,0,,,,,,,,,,,,,,,,,0,3,3,0,,,,,,,,,,,,,,,,,,,,,,,898.5528245000169,4.0,3.2171316002495587,,,,,,,,,,,,,,,,,,,,,,,,,,,,,,,,,15,B,2024-04-22_17h27.32.022,attentional_competition_task,2022.2.4,143.94640613627791,
positions.xlsx,positions_test.xlsx,positions_test_new.xlsx,stimuli.xlsx,stimuli_new.xlsx,stimuli/Social2.png,stimuli/Social1.png,stimuli/Nonsocial2.png,stimuli/Nonsocial1.png,stimuli/Social4.png,stimuli/Social3.png,stimuli/Nonsocial4.png,stimuli/Nonsocial3.png,,,"(-0.7, -0.5)",cs_neg_s,"(-0.7, 0.5)",cs_pos_ns,"(0.7, -0.5)",cs_pos_s,"(0.7, 0.5)",cs_neg_ns,0,0,0,0,,,,,,,,,,,,,,,,,,,,,0,0,0,4,,,,,,,,,,,,,,,,,,,,,,,,,,,72,loss,,,,,902.6915636002086,909.5245971004479,909.5245971004479,909.5245971004479,909.5245971004479,0,,,0,,,0,,,0,,,910.5453863004223,910.5453863004223,910.5453863004223,910.5453863004223,15,B,2024-04-22_17h27.32.022,attentional_competition_task,2022.2.4,143.94640613627791,
positions.xlsx,positions_test.xlsx,positions_test_new.xlsx,stimuli.xlsx,stimuli_new.xlsx,stimuli/Social2.png,stimuli/Social1.png,stimuli/Nonsocial2.png,stimuli/Nonsocial1.png,stimuli/Social4.png,stimuli/Social3.png,stimuli/Nonsocial4.png,stimuli/Nonsocial3.png,,,"(-0.7, -0.5)",cs_pos_s,"(-0.7, 0.5)",cs_neg_ns,"(0.7, -0.5)",cs_neg_s,"(0.7, 0.5)",cs_pos_ns,0,0,0,0,,,,,,,,,,,,,,,,,,,,,0,1,1,8,,,,,,,,,,,,,,,,,,,,,,,,,,,78,reward,,,,,,918.7603692002594,918.7603692002594,918.7603692002594,918.7603692002594,0,,,0,,,0,,,1,0.02842879993841052,0.25984100019559264,919.5242015002295,919.5242015002295,919.5242015002295,919.5242015002295,15,B,2024-04-22_17h27.32.022,attentional_competition_task,2022.2.4,143.94640613627791,
positions.xlsx,positions_test.xlsx,positions_test_new.xlsx,stimuli.xlsx,stimuli_new.xlsx,stimuli/Social2.png,stimuli/Social1.png,stimuli/Nonsocial2.png,stimuli/Nonsocial1.png,stimuli/Social4.png,stimuli/Social3.png,stimuli/Nonsocial4.png,stimuli/Nonsocial3.png,,,"(-0.7, -0.5)",cs_pos_ns,"(-0.7, 0.5)",cs_neg_ns,"(0.7, -0.5)",cs_neg_s,"(0.7, 0.5)",cs_pos_s,0,0,0,0,,,,,,,,,,,,,,,,,,,,,0,2,2,21,,,,,,,,,,,,,,,,,,,,,,,,,,,84,reward,,,,,,927.155834000092,927.155834000092,927.155834000092,927.155834000092,0,,,0,,,0,,,1,0.0288590001873672,0.23935799999162555,928.4613442001864,928.4613442001864,928.4613442001864,928.4613442001864,15,B,2024-04-22_17h27.32.022,attentional_competition_task,2022.2.4,143.94640613627791,
positions.xlsx,positions_test.xlsx,positions_test_new.xlsx,stimuli.xlsx,stimuli_new.xlsx,stimuli/Social2.png,stimuli/Social1.png,stimuli/Nonsocial2.png,stimuli/Nonsocial1.png,stimuli/Social4.png,stimuli/Social3.png,stimuli/Nonsocial4.png,stimuli/Nonsocial3.png,,,"(-0.7, -0.5)",cs_neg_ns,"(-0.7, 0.5)",cs_pos_ns,"(0.7, -0.5)",cs_pos_s,"(0.7, 0.5)",cs_neg_s,0,0,0,0,,,,,,,,,,,,,,,,,,,,,0,3,3,16,,,,,,,,,,,,,,,,,,,,,,,,,,,90,reward,,,,,,935.0652261003852,935.0652261003852,935.0652261003852,935.0652261003852,0,,,1,0.028899400029331446,0.2658476000651717,0,,,0,,,936.5721459002234,936.5721459002234,936.5721459002234,936.5721459002234,15,B,2024-04-22_17h27.32.022,attentional_competition_task,2022.2.4,143.94640613627791,
positions.xlsx,positions_test.xlsx,positions_test_new.xlsx,stimuli.xlsx,stimuli_new.xlsx,stimuli/Social2.png,stimuli/Social1.png,stimuli/Nonsocial2.png,stimuli/Nonsocial1.png,stimuli/Social4.png,stimuli/Social3.png,stimuli/Nonsocial4.png,stimuli/Nonsocial3.png,,,"(-0.7, -0.5)",cs_neg_ns,"(-0.7, 0.5)",cs_neg_s,"(0.7, -0.5)",cs_pos_ns,"(0.7, 0.5)",cs_pos_s,0,0,0,0,,,,,,,,,,,,,,,,,,,,,0,4,4,15,,,,,,,,,,,,,,,,,,,,,,,,,,,99,reward,,,,,,944.29403620027,944.29403620027,944.29403620027,944.29403620027,0,,,0,,,2,0.029933300334960222,0.044280500151216984,1,0.37738920003175735,0.41898650024086237,945.2176248002797,945.2176248002797,945.2176248002797,945.2176248002797,15,B,2024-04-22_17h27.32.022,attentional_competition_task,2022.2.4,143.94640613627791,
positions.xlsx,positions_test.xlsx,positions_test_new.xlsx,stimuli.xlsx,stimuli_new.xlsx,stimuli/Social2.png,stimuli/Social1.png,stimuli/Nonsocial2.png,stimuli/Nonsocial1.png,stimuli/Social4.png,stimuli/Social3.png,stimuli/Nonsocial4.png,stimuli/Nonsocial3.png,,,"(-0.7, -0.5)",cs_neg_s,"(-0.7, 0.5)",cs_pos_s,"(0.7, -0.5)",cs_pos_ns,"(0.7, 0.5)",cs_neg_ns,0,0,0,0,,,,,,,,,,,,,,,,,,,,,0,5,5,1,,,,,,,,,,,,,,,,,,,,,,,,,,,108,reward,,,,,,953.1478568003513,953.1478568003513,953.1478568003513,953.1478568003513,0,,,0,,,0,,,0,,,954.2589235003106,954.2589235003106,954.2589235003106,954.2589235003106,15,B,2024-04-22_17h27.32.022,attentional_competition_task,2022.2.4,143.94640613627791,
positions.xlsx,positions_test.xlsx,positions_test_new.xlsx,stimuli.xlsx,stimuli_new.xlsx,stimuli/Social2.png,stimuli/Social1.png,stimuli/Nonsocial2.png,stimuli/Nonsocial1.png,stimuli/Social4.png,stimuli/Social3.png,stimuli/Nonsocial4.png,stimuli/Nonsocial3.png,,,"(-0.7, -0.5)",cs_neg_s,"(-0.7, 0.5)",cs_pos_ns,"(0.7, -0.5)",cs_neg_ns,"(0.7, 0.5)",cs_pos_s,0,0,0,0,,,,,,,,,,,,,,,,,,,,,0,6,6,5,,,,,,,,,,,,,,,,,,,,,,,,,,,117,reward,,,,,,962.4461248000152,962.4461248000152,962.4461248000152,962.4461248000152,0,,,0,,,0,,,0,,,963.4530358002521,963.4530358002521,963.4530358002521,963.4530358002521,15,B,2024-04-22_17h27.32.022,attentional_competition_task,2022.2.4,143.94640613627791,
positions.xlsx,positions_test.xlsx,positions_test_new.xlsx,stimuli.xlsx,stimuli_new.xlsx,stimuli/Social2.png,stimuli/Social1.png,stimuli/Nonsocial2.png,stimuli/Nonsocial1.png,stimuli/Social4.png,stimuli/Social3.png,stimuli/Nonsocial4.png,stimuli/Nonsocial3.png,,,"(-0.7, -0.5)",cs_pos_s,"(-0.7, 0.5)",cs_pos_ns,"(0.7, -0.5)",cs_neg_s,"(0.7, 0.5)",cs_neg_ns,0,0,0,0,,,,,,,,,,,,,,,,,,,,,0,7,7,10,,,,,,,,,,,,,,,,,,,,,,,,,,,126,reward,,,,,,970.3000127002597,970.3000127002597,970.3000127002597,970.3000127002597,0,,,0,,,0,,,0,,,971.1888289004564,971.1888289004564,971.1888289004564,971.1888289004564,15,B,2024-04-22_17h27.32.022,attentional_competition_task,2022.2.4,143.94640613627791,
positions.xlsx,positions_test.xlsx,positions_test_new.xlsx,stimuli.xlsx,stimuli_new.xlsx,stimuli/Social2.png,stimuli/Social1.png,stimuli/Nonsocial2.png,stimuli/Nonsocial1.png,stimuli/Social4.png,stimuli/Social3.png,stimuli/Nonsocial4.png,stimuli/Nonsocial3.png,,,"(-0.7, -0.5)",cs_neg_ns,"(-0.7, 0.5)",cs_pos_s,"(0.7, -0.5)",cs_pos_ns,"(0.7, 0.5)",cs_neg_s,0,0,0,0,,,,,,,,,,,,,,,,,,,,,0,8,8,13,,,,,,,,,,,,,,,,,,,,,,,,,,,135,reward,,,,,,978.6467858999968,978.6467858999968,978.6467858999968,978.6467858999968,0,,,0,,,1,0.02735779993236065,0.13124139979481697,0,,,979.6120752003044,979.6120752003044,979.6120752003044,979.6120752003044,15,B,2024-04-22_17h27.32.022,attentional_competition_task,2022.2.4,143.94640613627791,
positions.xlsx,positions_test.xlsx,positions_test_new.xlsx,stimuli.xlsx,stimuli_new.xlsx,stimuli/Social2.png,stimuli/Social1.png,stimuli/Nonsocial2.png,stimuli/Nonsocial1.png,stimuli/Social4.png,stimuli/Social3.png,stimuli/Nonsocial4.png,stimuli/Nonsocial3.png,,,"(-0.7, -0.5)",cs_neg_ns,"(-0.7, 0.5)",cs_pos_s,"(0.7, -0.5)",cs_neg_s,"(0.7, 0.5)",cs_pos_ns,0,0,0,0,,,,,,,,,,,,,,,,,,,,,0,9,9,12,,,,,,,,,,,,,,,,,,,,,,,,,,,144,reward,,,,,,987.6742488001473,987.6742488001473,987.6742488001473,987.6742488001473,0,,,0,,,0,,,1,0.02636349992826581,0.10915629984810948,988.7714630002156,988.7714630002156,988.7714630002156,988.7714630002156,15,B,2024-04-22_17h27.32.022,attentional_competition_task,2022.2.4,143.94640613627791,
positions.xlsx,positions_test.xlsx,positions_test_new.xlsx,stimuli.xlsx,stimuli_new.xlsx,stimuli/Social2.png,stimuli/Social1.png,stimuli/Nonsocial2.png,stimuli/Nonsocial1.png,stimuli/Social4.png,stimuli/Social3.png,stimuli/Nonsocial4.png,stimuli/Nonsocial3.png,,,"(-0.7, -0.5)",cs_neg_s,"(-0.7, 0.5)",cs_neg_ns,"(0.7, -0.5)",cs_pos_s,"(0.7, 0.5)",cs_pos_ns,0,0,0,0,,,,,,,,,,,,,,,,,,,,,0,10,10,2,,,,,,,,,,,,,,,,,,,,,,,,,,,153,reward,,,,,,996.7085934001952,996.7085934001952,996.7085934001952,996.7085934001952,0,,,0,,,2,0.25847929995507,0.265531400218606,1,0.028590900357812643,0.25177380023524165,997.7502438002266,997.7502438002266,997.7502438002266,997.7502438002266,15,B,2024-04-22_17h27.32.022,attentional_competition_task,2022.2.4,143.94640613627791,
positions.xlsx,positions_test.xlsx,positions_test_new.xlsx,stimuli.xlsx,stimuli_new.xlsx,stimuli/Social2.png,stimuli/Social1.png,stimuli/Nonsocial2.png,stimuli/Nonsocial1.png,stimuli/Social4.png,stimuli/Social3.png,stimuli/Nonsocial4.png,stimuli/Nonsocial3.png,,,"(-0.7, -0.5)",cs_pos_ns,"(-0.7, 0.5)",cs_neg_s,"(0.7, -0.5)",cs_neg_ns,"(0.7, 0.5)",cs_pos_s,0,0,0,0,,,,,,,,,,,,,,,,,,,,,0,11,11,23,,,,,,,,,,,,,,,,,,,,,,,,,,,162,reward,,,,,,1005.6735446001403,1005.6735446001403,1005.6735446001403,1005.6735446001403,1,0.022354899905622005,0.06636649975553155,0,,,0,,,0,,,1006.6873944001272,1006.6873944001272,1006.6873944001272,1006.6873944001272,15,B,2024-04-22_17h27.32.022,attentional_competition_task,2022.2.4,143.94640613627791,
positions.xlsx,positions_test.xlsx,positions_test_new.xlsx,stimuli.xlsx,stimuli_new.xlsx,stimuli/Social2.png,stimuli/Social1.png,stimuli/Nonsocial2.png,stimuli/Nonsocial1.png,stimuli/Social4.png,stimuli/Social3.png,stimuli/Nonsocial4.png,stimuli/Nonsocial3.png,,,"(-0.7, -0.5)",cs_pos_ns,"(-0.7, 0.5)",cs_neg_s,"(0.7, -0.5)",cs_pos_s,"(0.7, 0.5)",cs_neg_ns,0,0,0,0,,,,,,,,,,,,,,,,,,,,,0,12,12,22,,,,,,,,,,,,,,,,,,,,,,,,,,,171,reward,,,,,,1013.7357068001293,1013.7357068001293,1013.7357068001293,1013.7357068001293,0,,,0,,,0,,,0,,,1014.8190048001707,1014.8190048001707,1014.8190048001707,1014.8190048001707,15,B,2024-04-22_17h27.32.022,attentional_competition_task,2022.2.4,143.94640613627791,
positions.xlsx,positions_test.xlsx,positions_test_new.xlsx,stimuli.xlsx,stimuli_new.xlsx,stimuli/Social2.png,stimuli/Social1.png,stimuli/Nonsocial2.png,stimuli/Nonsocial1.png,stimuli/Social4.png,stimuli/Social3.png,stimuli/Nonsocial4.png,stimuli/Nonsocial3.png,,,"(-0.7, -0.5)",cs_pos_ns,"(-0.7, 0.5)",cs_pos_s,"(0.7, -0.5)",cs_neg_s,"(0.7, 0.5)",cs_neg_ns,0,0,0,0,,,,,,,,,,,,,,,,,,,,,0,13,13,19,,,,,,,,,,,,,,,,,,,,,,,,,,,180,reward,,,,,,1022.0409409003332,1022.0409409003332,1022.0409409003332,1022.0409409003332,1,0.0284854001365602,0.26540090003982186,0,,,0,,,0,,,1023.0478470004164,1023.0478470004164,1023.0478470004164,1023.0478470004164,15,B,2024-04-22_17h27.32.022,attentional_competition_task,2022.2.4,143.94640613627791,
positions.xlsx,positions_test.xlsx,positions_test_new.xlsx,stimuli.xlsx,stimuli_new.xlsx,stimuli/Social2.png,stimuli/Social1.png,stimuli/Nonsocial2.png,stimuli/Nonsocial1.png,stimuli/Social4.png,stimuli/Social3.png,stimuli/Nonsocial4.png,stimuli/Nonsocial3.png,,,"(-0.7, -0.5)",cs_neg_s,"(-0.7, 0.5)",cs_neg_ns,"(0.7, -0.5)",cs_pos_ns,"(0.7, 0.5)",cs_pos_s,0,0,0,0,,,,,,,,,,,,,,,,,,,,,0,14,14,3,,,,,,,,,,,,,,,,,,,,,,,,,,,189,reward,,,,,,1030.7766943001188,1030.7766943001188,1030.7766943001188,1030.7766943001188,0,,,0,,,1,0.029325499664992094,0.050919899716973305,0,,,1031.8530433000997,1031.8530433000997,1031.8530433000997,1031.8530433000997,15,B,2024-04-22_17h27.32.022,attentional_competition_task,2022.2.4,143.94640613627791,
positions.xlsx,positions_test.xlsx,positions_test_new.xlsx,stimuli.xlsx,stimuli_new.xlsx,stimuli/Social2.png,stimuli/Social1.png,stimuli/Nonsocial2.png,stimuli/Nonsocial1.png,stimuli/Social4.png,stimuli/Social3.png,stimuli/Nonsocial4.png,stimuli/Nonsocial3.png,,,"(-0.7, -0.5)",cs_pos_s,"(-0.7, 0.5)",cs_pos_ns,"(0.7, -0.5)",cs_neg_ns,"(0.7, 0.5)",cs_neg_s,0,0,0,0,,,,,,,,,,,,,,,,,,,,,0,15,15,11,,,,,,,,,,,,,,,,,,,,,,,,,,,198,reward,,,,,,1039.2207841002382,1039.2207841002382,1039.2207841002382,1039.2207841002382,0,,,1,0.029183499980717897,0.07784639997407794,0,,,0,,,1040.2137932004407,1040.2137932004407,1040.2137932004407,1040.2137932004407,15,B,2024-04-22_17h27.32.022,attentional_competition_task,2022.2.4,143.94640613627791,
positions.xlsx,positions_test.xlsx,positions_test_new.xlsx,stimuli.xlsx,stimuli_new.xlsx,stimuli/Social2.png,stimuli/Social1.png,stimuli/Nonsocial2.png,stimuli/Nonsocial1.png,stimuli/Social4.png,stimuli/Social3.png,stimuli/Nonsocial4.png,stimuli/Nonsocial3.png,,,"(-0.7, -0.5)",cs_pos_s,"(-0.7, 0.5)",cs_neg_s,"(0.7, -0.5)",cs_neg_ns,"(0.7, 0.5)",cs_pos_ns,0,0,0,0,,,,,,,,,,,,,,,,,,,,,0,16,16,6,,,,,,,,,,,,,,,,,,,,,,,,,,,207,reward,,,,,,1047.7204822003841,1047.7204822003841,1047.7204822003841,1047.7204822003841,0,,,0,,,0,,,1,0.029783399775624275,0.2951528998091817,1048.7552296002395,1048.7552296002395,1048.7552296002395,1048.7552296002395,15,B,2024-04-22_17h27.32.022,attentional_competition_task,2022.2.4,143.94640613627791,
positions.xlsx,positions_test.xlsx,positions_test_new.xlsx,stimuli.xlsx,stimuli_new.xlsx,stimuli/Social2.png,stimuli/Social1.png,stimuli/Nonsocial2.png,stimuli/Nonsocial1.png,stimuli/Social4.png,stimuli/Social3.png,stimuli/Nonsocial4.png,stimuli/Nonsocial3.png,,,"(-0.7, -0.5)",cs_pos_ns,"(-0.7, 0.5)",cs_pos_s,"(0.7, -0.5)",cs_neg_ns,"(0.7, 0.5)",cs_neg_s,0,0,0,0,,,,,,,,,,,,,,,,,,,,,0,17,17,18,,,,,,,,,,,,,,,,,,,,,,,,,,,216,reward,,,,,,1056.5395292001776,1056.5395292001776,1056.5395292001776,1056.5395292001776,1,0.03994959965348244,0.14159309957176447,0,,,0,,,0,,,1057.5950696002692,1057.5950696002692,1057.5950696002692,1057.5950696002692,15,B,2024-04-22_17h27.32.022,attentional_competition_task,2022.2.4,143.94640613627791,
positions.xlsx,positions_test.xlsx,positions_test_new.xlsx,stimuli.xlsx,stimuli_new.xlsx,stimuli/Social2.png,stimuli/Social1.png,stimuli/Nonsocial2.png,stimuli/Nonsocial1.png,stimuli/Social4.png,stimuli/Social3.png,stimuli/Nonsocial4.png,stimuli/Nonsocial3.png,,,"(-0.7, -0.5)",cs_pos_ns,"(-0.7, 0.5)",cs_neg_ns,"(0.7, -0.5)",cs_pos_s,"(0.7, 0.5)",cs_neg_s,0,0,0,0,,,,,,,,,,,,,,,,,,,,,0,18,18,20,,,,,,,,,,,,,,,,,,,,,,,,,,,225,reward,,,,,,1065.1919782003388,1065.1919782003388,1065.1919782003388,1065.1919782003388,1,0.029274200089275837,0.18203129991889,0,,,0,,,0,,,1066.1085865003988,1066.1085865003988,1066.1085865003988,1066.1085865003988,15,B,2024-04-22_17h27.32.022,attentional_competition_task,2022.2.4,143.94640613627791,
positions.xlsx,positions_test.xlsx,positions_test_new.xlsx,stimuli.xlsx,stimuli_new.xlsx,stimuli/Social2.png,stimuli/Social1.png,stimuli/Nonsocial2.png,stimuli/Nonsocial1.png,stimuli/Social4.png,stimuli/Social3.png,stimuli/Nonsocial4.png,stimuli/Nonsocial3.png,,,"(-0.7, -0.5)",cs_neg_s,"(-0.7, 0.5)",cs_pos_s,"(0.7, -0.5)",cs_neg_ns,"(0.7, 0.5)",cs_pos_ns,0,0,0,0,,,,,,,,,,,,,,,,,,,,,0,19,19,0,,,,,,,,,,,,,,,,,,,,,,,,,,,234,reward,,,,,,1073.6916944002733,1073.6916944002733,1073.6916944002733,1073.6916944002733,0,,,0,,,0,,,0,,,1074.7401995002292,1074.7401995002292,1074.7401995002292,1074.7401995002292,15,B,2024-04-22_17h27.32.022,attentional_competition_task,2022.2.4,143.94640613627791,
positions.xlsx,positions_test.xlsx,positions_test_new.xlsx,stimuli.xlsx,stimuli_new.xlsx,stimuli/Social2.png,stimuli/Social1.png,stimuli/Nonsocial2.png,stimuli/Nonsocial1.png,stimuli/Social4.png,stimuli/Social3.png,stimuli/Nonsocial4.png,stimuli/Nonsocial3.png,,,"(-0.7, -0.5)",cs_pos_s,"(-0.7, 0.5)",cs_neg_s,"(0.7, -0.5)",cs_pos_ns,"(0.7, 0.5)",cs_neg_ns,0,0,0,0,,,,,,,,,,,,,,,,,,,,,0,20,20,7,,,,,,,,,,,,,,,,,,,,,,,,,,,243,reward,,,,,,1082.7815450001508,1082.7815450001508,1082.7815450001508,1082.7815450001508,0,,,0,,,1,0.02561030024662614,0.05390980001538992,0,,,1083.8023679000326,1083.8023679000326,1083.8023679000326,1083.8023679000326,15,B,2024-04-22_17h27.32.022,attentional_competition_task,2022.2.4,143.94640613627791,
positions.xlsx,positions_test.xlsx,positions_test_new.xlsx,stimuli.xlsx,stimuli_new.xlsx,stimuli/Social2.png,stimuli/Social1.png,stimuli/Nonsocial2.png,stimuli/Nonsocial1.png,stimuli/Social4.png,stimuli/Social3.png,stimuli/Nonsocial4.png,stimuli/Nonsocial3.png,,,"(-0.7, -0.5)",cs_neg_ns,"(-0.7, 0.5)",cs_neg_s,"(0.7, -0.5)",cs_pos_s,"(0.7, 0.5)",cs_pos_ns,0,0,0,0,,,,,,,,,,,,,,,,,,,,,0,21,21,14,,,,,,,,,,,,,,,,,,,,,,,,,,,252,reward,,,,,,1091.8020614003763,1091.8020614003763,1091.8020614003763,1091.8020614003763,0,,,0,,,0,,,1,0.028708700090646744,0.5227061999030411,1092.82979980018,1092.82979980018,1092.82979980018,1092.82979980018,15,B,2024-04-22_17h27.32.022,attentional_competition_task,2022.2.4,143.94640613627791,
positions.xlsx,positions_test.xlsx,positions_test_new.xlsx,stimuli.xlsx,stimuli_new.xlsx,stimuli/Social2.png,stimuli/Social1.png,stimuli/Nonsocial2.png,stimuli/Nonsocial1.png,stimuli/Social4.png,stimuli/Social3.png,stimuli/Nonsocial4.png,stimuli/Nonsocial3.png,,,"(-0.7, -0.5)",cs_pos_s,"(-0.7, 0.5)",cs_neg_ns,"(0.7, -0.5)",cs_pos_ns,"(0.7, 0.5)",cs_neg_s,0,0,0,0,,,,,,,,,,,,,,,,,,,,,0,22,22,9,,,,,,,,,,,,,,,,,,,,,,,,,,,261,reward,,,,,,1100.378091700375,1100.378091700375,1100.378091700375,1100.378091700375,0,,,0,,,1,0.030369600281119347,0.273847000207752,0,,,1101.391936100088,1101.391936100088,1101.391936100088,1101.391936100088,15,B,2024-04-22_17h27.32.022,attentional_competition_task,2022.2.4,143.94640613627791,
positions.xlsx,positions_test.xlsx,positions_test_new.xlsx,stimuli.xlsx,stimuli_new.xlsx,stimuli/Social2.png,stimuli/Social1.png,stimuli/Nonsocial2.png,stimuli/Nonsocial1.png,stimuli/Social4.png,stimuli/Social3.png,stimuli/Nonsocial4.png,stimuli/Nonsocial3.png,,,"(-0.7, -0.5)",cs_neg_ns,"(-0.7, 0.5)",cs_pos_ns,"(0.7, -0.5)",cs_neg_s,"(0.7, 0.5)",cs_pos_s,0,0,0,0,,,,,,,,,,,,,,,,,,,,,0,23,23,17,,,,,,,,,,,,,,,,,,,,,,,,,,,264,reward,,,,,,1109.3222218002193,1109.3222218002193,1109.3222218002193,1109.3222218002193,0,,,1,0.027682200074195862,0.027686200104653835,0,,,0,,,1109.3222218002193,1109.3222218002193,1109.3222218002193,1109.3222218002193,15,B,2024-04-22_17h27.32.022,attentional_competition_task,2022.2.4,143.94640613627791,
positions.xlsx,positions_test.xlsx,positions_test_new.xlsx,stimuli.xlsx,stimuli_new.xlsx,stimuli/Social2.png,stimuli/Social1.png,stimuli/Nonsocial2.png,stimuli/Nonsocial1.png,stimuli/Social4.png,stimuli/Social3.png,stimuli/Nonsocial4.png,stimuli/Nonsocial3.png,,,"(-0.7, -0.5)",cs_pos_ns,"(-0.7, 0.5)",cs_neg_ns,"(0.7, -0.5)",cs_neg_s,"(0.7, 0.5)",cs_pos_s,0,0,0,0,,,,,,,,,,,,,,,,,,,,,1,0,24,21,,,,,,,,,,,,,,,,,,,,,,,,,,,273,reward,,,,,,1118.6134496000595,1118.6134496000595,1118.6134496000595,1118.6134496000595,1,0.02288989955559373,0.2881042999215424,0,,,0,,,0,,,1119.5856332001276,1119.5856332001276,1119.5856332001276,1119.5856332001276,15,B,2024-04-22_17h27.32.022,attentional_competition_task,2022.2.4,143.94640613627791,
positions.xlsx,positions_test.xlsx,positions_test_new.xlsx,stimuli.xlsx,stimuli_new.xlsx,stimuli/Social2.png,stimuli/Social1.png,stimuli/Nonsocial2.png,stimuli/Nonsocial1.png,stimuli/Social4.png,stimuli/Social3.png,stimuli/Nonsocial4.png,stimuli/Nonsocial3.png,,,"(-0.7, -0.5)",cs_pos_s,"(-0.7, 0.5)",cs_neg_s,"(0.7, -0.5)",cs_neg_ns,"(0.7, 0.5)",cs_pos_ns,0,0,0,0,,,,,,,,,,,,,,,,,,,,,1,1,25,6,,,,,,,,,,,,,,,,,,,,,,,,,,,276,reward,,,,,,1127.3005969002843,1127.3005969002843,1127.3005969002843,1127.3005969002843,0,,,0,,,0,,,1,0.030923000071197748,0.03092689998447895,1127.3005969002843,1127.3005969002843,1127.3005969002843,1127.3005969002843,15,B,2024-04-22_17h27.32.022,attentional_competition_task,2022.2.4,143.94640613627791,
positions.xlsx,positions_test.xlsx,positions_test_new.xlsx,stimuli.xlsx,stimuli_new.xlsx,stimuli/Social2.png,stimuli/Social1.png,stimuli/Nonsocial2.png,stimuli/Nonsocial1.png,stimuli/Social4.png,stimuli/Social3.png,stimuli/Nonsocial4.png,stimuli/Nonsocial3.png,,,"(-0.7, -0.5)",cs_neg_ns,"(-0.7, 0.5)",cs_pos_s,"(0.7, -0.5)",cs_neg_s,"(0.7, 0.5)",cs_pos_ns,0,0,0,0,,,,,,,,,,,,,,,,,,,,,1,2,26,12,,,,,,,,,,,,,,,,,,,,,,,,,,,285,reward,,,,,,1135.2377645000815,1135.2377645000815,1135.2377645000815,1135.2377645000815,0,,,0,,,0,,,1,0.02370399981737137,0.5182262999005616,1136.3211479000747,1136.3211479000747,1136.3211479000747,1136.3211479000747,15,B,2024-04-22_17h27.32.022,attentional_competition_task,2022.2.4,143.94640613627791,
positions.xlsx,positions_test.xlsx,positions_test_new.xlsx,stimuli.xlsx,stimuli_new.xlsx,stimuli/Social2.png,stimuli/Social1.png,stimuli/Nonsocial2.png,stimuli/Nonsocial1.png,stimuli/Social4.png,stimuli/Social3.png,stimuli/Nonsocial4.png,stimuli/Nonsocial3.png,,,"(-0.7, -0.5)",cs_pos_ns,"(-0.7, 0.5)",cs_pos_s,"(0.7, -0.5)",cs_neg_ns,"(0.7, 0.5)",cs_neg_s,0,0,0,0,,,,,,,,,,,,,,,,,,,,,1,3,27,18,,,,,,,,,,,,,,,,,,,,,,,,,,,294,reward,,,,,,1144.1610503001139,1144.1610503001139,1144.1610503001139,1144.1610503001139,1,0.028593200258910656,0.14110590005293489,0,,,0,,,0,,,1145.258221400436,1145.258221400436,1145.258221400436,1145.258221400436,15,B,2024-04-22_17h27.32.022,attentional_competition_task,2022.2.4,143.94640613627791,
positions.xlsx,positions_test.xlsx,positions_test_new.xlsx,stimuli.xlsx,stimuli_new.xlsx,stimuli/Social2.png,stimuli/Social1.png,stimuli/Nonsocial2.png,stimuli/Nonsocial1.png,stimuli/Social4.png,stimuli/Social3.png,stimuli/Nonsocial4.png,stimuli/Nonsocial3.png,,,"(-0.7, -0.5)",cs_neg_s,"(-0.7, 0.5)",cs_pos_ns,"(0.7, -0.5)",cs_neg_ns,"(0.7, 0.5)",cs_pos_s,0,0,0,0,,,,,,,,,,,,,,,,,,,,,1,4,28,5,,,,,,,,,,,,,,,,,,,,,,,,,,,303,reward,,,,,,1151.8273860001937,1151.8273860001937,1151.8273860001937,1151.8273860001937,0,,,0,,,0,,,0,,,1152.9107114002109,1152.9107114002109,1152.9107114002109,1152.9107114002109,15,B,2024-04-22_17h27.32.022,attentional_competition_task,2022.2.4,143.94640613627791,
positions.xlsx,positions_test.xlsx,positions_test_new.xlsx,stimuli.xlsx,stimuli_new.xlsx,stimuli/Social2.png,stimuli/Social1.png,stimuli/Nonsocial2.png,stimuli/Nonsocial1.png,stimuli/Social4.png,stimuli/Social3.png,stimuli/Nonsocial4.png,stimuli/Nonsocial3.png,,,"(-0.7, -0.5)",cs_pos_ns,"(-0.7, 0.5)",cs_pos_s,"(0.7, -0.5)",cs_neg_s,"(0.7, 0.5)",cs_neg_ns,0,0,0,0,,,,,,,,,,,,,,,,,,,,,1,5,29,19,,,,,,,,,,,,,,,,,,,,,,,,,,,312,reward,,,,,,1160.5562075003982,1160.5562075003982,1160.5562075003982,1160.5562075003982,0,,,0,,,0,,,0,,,1161.6186933000572,1161.6186933000572,1161.6186933000572,1161.6186933000572,15,B,2024-04-22_17h27.32.022,attentional_competition_task,2022.2.4,143.94640613627791,
positions.xlsx,positions_test.xlsx,positions_test_new.xlsx,stimuli.xlsx,stimuli_new.xlsx,stimuli/Social2.png,stimuli/Social1.png,stimuli/Nonsocial2.png,stimuli/Nonsocial1.png,stimuli/Social4.png,stimuli/Social3.png,stimuli/Nonsocial4.png,stimuli/Nonsocial3.png,,,"(-0.7, -0.5)",cs_neg_ns,"(-0.7, 0.5)",cs_pos_s,"(0.7, -0.5)",cs_pos_ns,"(0.7, 0.5)",cs_neg_s,0,0,0,0,,,,,,,,,,,,,,,,,,,,,1,6,30,13,,,,,,,,,,,,,,,,,,,,,,,,,,,321,reward,,,,,,1168.6530783004127,1168.6530783004127,1168.6530783004127,1168.6530783004127,0,,,0,,,1,0.02959700021892786,0.13429550034925342,0,,,1169.805877700448,1169.805877700448,1169.805877700448,1169.805877700448,15,B,2024-04-22_17h27.32.022,attentional_competition_task,2022.2.4,143.94640613627791,
positions.xlsx,positions_test.xlsx,positions_test_new.xlsx,stimuli.xlsx,stimuli_new.xlsx,stimuli/Social2.png,stimuli/Social1.png,stimuli/Nonsocial2.png,stimuli/Nonsocial1.png,stimuli/Social4.png,stimuli/Social3.png,stimuli/Nonsocial4.png,stimuli/Nonsocial3.png,,,"(-0.7, -0.5)",cs_pos_s,"(-0.7, 0.5)",cs_neg_ns,"(0.7, -0.5)",cs_neg_s,"(0.7, 0.5)",cs_pos_ns,0,0,0,0,,,,,,,,,,,,,,,,,,,,,1,7,31,8,,,,,,,,,,,,,,,,,,,,,,,,,,,330,reward,,,,,,1176.5902664000168,1176.5902664000168,1176.5902664000168,1176.5902664000168,0,,,0,,,0,,,1,0.02901930036023259,0.26101640006527305,1177.6596964001656,1177.6596964001656,1177.6596964001656,1177.6596964001656,15,B,2024-04-22_17h27.32.022,attentional_competition_task,2022.2.4,143.94640613627791,
positions.xlsx,positions_test.xlsx,positions_test_new.xlsx,stimuli.xlsx,stimuli_new.xlsx,stimuli/Social2.png,stimuli/Social1.png,stimuli/Nonsocial2.png,stimuli/Nonsocial1.png,stimuli/Social4.png,stimuli/Social3.png,stimuli/Nonsocial4.png,stimuli/Nonsocial3.png,,,"(-0.7, -0.5)",cs_neg_s,"(-0.7, 0.5)",cs_pos_s,"(0.7, -0.5)",cs_pos_ns,"(0.7, 0.5)",cs_neg_ns,0,0,0,0,,,,,,,,,,,,,,,,,,,,,1,8,32,1,,,,,,,,,,,,,,,,,,,,,,,,,,,339,reward,,,,,,1184.7496850001626,1184.7496850001626,1184.7496850001626,1184.7496850001626,0,,,0,,,0,,,0,,,1185.7774273003452,1185.7774273003452,1185.7774273003452,1185.7774273003452,15,B,2024-04-22_17h27.32.022,attentional_competition_task,2022.2.4,143.94640613627791,
positions.xlsx,positions_test.xlsx,positions_test_new.xlsx,stimuli.xlsx,stimuli_new.xlsx,stimuli/Social2.png,stimuli/Social1.png,stimuli/Nonsocial2.png,stimuli/Nonsocial1.png,stimuli/Social4.png,stimuli/Social3.png,stimuli/Nonsocial4.png,stimuli/Nonsocial3.png,,,"(-0.7, -0.5)",cs_pos_s,"(-0.7, 0.5)",cs_pos_ns,"(0.7, -0.5)",cs_neg_s,"(0.7, 0.5)",cs_neg_ns,0,0,0,0,,,,,,,,,,,,,,,,,,,,,1,9,33,10,,,,,,,,,,,,,,,,,,,,,,,,,,,348,reward,,,,,,1194.1590583003126,1194.1590583003126,1194.1590583003126,1194.1590583003126,0,,,1,0.02334300009533763,0.2739007002674043,0,,,0,,,1195.2284284001216,1195.2284284001216,1195.2284284001216,1195.2284284001216,15,B,2024-04-22_17h27.32.022,attentional_competition_task,2022.2.4,143.94640613627791,
positions.xlsx,positions_test.xlsx,positions_test_new.xlsx,stimuli.xlsx,stimuli_new.xlsx,stimuli/Social2.png,stimuli/Social1.png,stimuli/Nonsocial2.png,stimuli/Nonsocial1.png,stimuli/Social4.png,stimuli/Social3.png,stimuli/Nonsocial4.png,stimuli/Nonsocial3.png,,,"(-0.7, -0.5)",cs_pos_ns,"(-0.7, 0.5)",cs_neg_s,"(0.7, -0.5)",cs_neg_ns,"(0.7, 0.5)",cs_pos_s,0,0,0,0,,,,,,,,,,,,,,,,,,,,,1,10,34,23,,,,,,,,,,,,,,,,,,,,,,,,,,,357,reward,,,,,,1203.2281108000316,1203.2281108000316,1203.2281108000316,1203.2281108000316,0,,,0,,,0,,,0,,,1204.1933459001593,1204.1933459001593,1204.1933459001593,1204.1933459001593,15,B,2024-04-22_17h27.32.022,attentional_competition_task,2022.2.4,143.94640613627791,
positions.xlsx,positions_test.xlsx,positions_test_new.xlsx,stimuli.xlsx,stimuli_new.xlsx,stimuli/Social2.png,stimuli/Social1.png,stimuli/Nonsocial2.png,stimuli/Nonsocial1.png,stimuli/Social4.png,stimuli/Social3.png,stimuli/Nonsocial4.png,stimuli/Nonsocial3.png,,,"(-0.7, -0.5)",cs_neg_s,"(-0.7, 0.5)",cs_pos_s,"(0.7, -0.5)",cs_neg_ns,"(0.7, 0.5)",cs_pos_ns,0,0,0,0,,,,,,,,,,,,,,,,,,,,,1,11,35,0,,,,,,,,,,,,,,,,,,,,,,,,,,,366,reward,,,,,,1211.7972051003017,1211.7972051003017,1211.7972051003017,1211.7972051003017,0,,,0,,,0,,,1,0.032521599903702736,0.05710679991170764,1212.7971756001934,1212.7971756001934,1212.7971756001934,1212.7971756001934,15,B,2024-04-22_17h27.32.022,attentional_competition_task,2022.2.4,143.94640613627791,
positions.xlsx,positions_test.xlsx,positions_test_new.xlsx,stimuli.xlsx,stimuli_new.xlsx,stimuli/Social2.png,stimuli/Social1.png,stimuli/Nonsocial2.png,stimuli/Nonsocial1.png,stimuli/Social4.png,stimuli/Social3.png,stimuli/Nonsocial4.png,stimuli/Nonsocial3.png,,,"(-0.7, -0.5)",cs_neg_s,"(-0.7, 0.5)",cs_neg_ns,"(0.7, -0.5)",cs_pos_s,"(0.7, 0.5)",cs_pos_ns,0,0,0,0,,,,,,,,,,,,,,,,,,,,,1,12,36,2,,,,,,,,,,,,,,,,,,,,,,,,,,,375,reward,,,,,,1220.3107511000708,1220.3107511000708,1220.3107511000708,1220.3107511000708,0,,,0,,,1,0.5032091997563839,0.5096475998871028,1,0.02895990014076233,0.4971062997356057,1221.373234000057,1221.373234000057,1221.373234000057,1221.373234000057,15,B,2024-04-22_17h27.32.022,attentional_competition_task,2022.2.4,143.94640613627791,
positions.xlsx,positions_test.xlsx,positions_test_new.xlsx,stimuli.xlsx,stimuli_new.xlsx,stimuli/Social2.png,stimuli/Social1.png,stimuli/Nonsocial2.png,stimuli/Nonsocial1.png,stimuli/Social4.png,stimuli/Social3.png,stimuli/Nonsocial4.png,stimuli/Nonsocial3.png,,,"(-0.7, -0.5)",cs_neg_ns,"(-0.7, 0.5)",cs_neg_s,"(0.7, -0.5)",cs_pos_s,"(0.7, 0.5)",cs_pos_ns,0,0,0,0,,,,,,,,,,,,,,,,,,,,,1,13,37,14,,,,,,,,,,,,,,,,,,,,,,,,,,,384,reward,,,,,,1228.5604298003018,1228.5604298003018,1228.5604298003018,1228.5604298003018,0,,,0,,,0,,,1,0.031309499870985746,0.2319976002909243,1229.6854544002563,1229.6854544002563,1229.6854544002563,1229.6854544002563,15,B,2024-04-22_17h27.32.022,attentional_competition_task,2022.2.4,143.94640613627791,
positions.xlsx,positions_test.xlsx,positions_test_new.xlsx,stimuli.xlsx,stimuli_new.xlsx,stimuli/Social2.png,stimuli/Social1.png,stimuli/Nonsocial2.png,stimuli/Nonsocial1.png,stimuli/Social4.png,stimuli/Social3.png,stimuli/Nonsocial4.png,stimuli/Nonsocial3.png,,,"(-0.7, -0.5)",cs_pos_s,"(-0.7, 0.5)",cs_neg_ns,"(0.7, -0.5)",cs_pos_ns,"(0.7, 0.5)",cs_neg_s,0,0,0,0,,,,,,,,,,,,,,,,,,,,,1,14,38,9,,,,,,,,,,,,,,,,,,,,,,,,,,,393,reward,,,,,,1237.9281165003777,1237.9281165003777,1237.9281165003777,1237.9281165003777,0,,,0,,,1,0.022946400102227926,0.5174679001793265,0,,,1238.9558479003608,1238.9558479003608,1238.9558479003608,1238.9558479003608,15,B,2024-04-22_17h27.32.022,attentional_competition_task,2022.2.4,143.94640613627791,
positions.xlsx,positions_test.xlsx,positions_test_new.xlsx,stimuli.xlsx,stimuli_new.xlsx,stimuli/Social2.png,stimuli/Social1.png,stimuli/Nonsocial2.png,stimuli/Nonsocial1.png,stimuli/Social4.png,stimuli/Social3.png,stimuli/Nonsocial4.png,stimuli/Nonsocial3.png,,,"(-0.7, -0.5)",cs_neg_s,"(-0.7, 0.5)",cs_neg_ns,"(0.7, -0.5)",cs_pos_ns,"(0.7, 0.5)",cs_pos_s,0,0,0,0,,,,,,,,,,,,,,,,,,,,,1,15,39,3,,,,,,,,,,,,,,,,,,,,,,,,,,,402,reward,,,,,,1247.0666208001785,1247.0666208001785,1247.0666208001785,1247.0666208001785,0,,,0,,,1,0.022379199974238873,0.03169590001925826,0,,,1248.1221536002122,1248.1221536002122,1248.1221536002122,1248.1221536002122,15,B,2024-04-22_17h27.32.022,attentional_competition_task,2022.2.4,143.94640613627791,
positions.xlsx,positions_test.xlsx,positions_test_new.xlsx,stimuli.xlsx,stimuli_new.xlsx,stimuli/Social2.png,stimuli/Social1.png,stimuli/Nonsocial2.png,stimuli/Nonsocial1.png,stimuli/Social4.png,stimuli/Social3.png,stimuli/Nonsocial4.png,stimuli/Nonsocial3.png,,,"(-0.7, -0.5)",cs_pos_ns,"(-0.7, 0.5)",cs_neg_s,"(0.7, -0.5)",cs_pos_s,"(0.7, 0.5)",cs_neg_ns,0,0,0,0,,,,,,,,,,,,,,,,,,,,,1,16,40,22,,,,,,,,,,,,,,,,,,,,,,,,,,,411,reward,,,,,,1255.7537939003669,1255.7537939003669,1255.7537939003669,1255.7537939003669,1,0.03153169993311167,0.2434951001778245,0,,,0,,,0,,,1256.594026800245,1256.594026800245,1256.594026800245,1256.594026800245,15,B,2024-04-22_17h27.32.022,attentional_competition_task,2022.2.4,143.94640613627791,
positions.xlsx,positions_test.xlsx,positions_test_new.xlsx,stimuli.xlsx,stimuli_new.xlsx,stimuli/Social2.png,stimuli/Social1.png,stimuli/Nonsocial2.png,stimuli/Nonsocial1.png,stimuli/Social4.png,stimuli/Social3.png,stimuli/Nonsocial4.png,stimuli/Nonsocial3.png,,,"(-0.7, -0.5)",cs_neg_ns,"(-0.7, 0.5)",cs_pos_ns,"(0.7, -0.5)",cs_pos_s,"(0.7, 0.5)",cs_neg_s,0,0,0,0,,,,,,,,,,,,,,,,,,,,,1,17,41,16,,,,,,,,,,,,,,,,,,,,,,,,,,,414,loss,,,,,,1263.67014270043,1263.67014270043,1263.67014270043,1263.67014270043,0,,,1,0.02463269978761673,0.06002249987795949,0,,,0,,,1263.7534304000437,1263.7534304000437,1263.7534304000437,1263.7534304000437,15,B,2024-04-22_17h27.32.022,attentional_competition_task,2022.2.4,143.94640613627791,
positions.xlsx,positions_test.xlsx,positions_test_new.xlsx,stimuli.xlsx,stimuli_new.xlsx,stimuli/Social2.png,stimuli/Social1.png,stimuli/Nonsocial2.png,stimuli/Nonsocial1.png,stimuli/Social4.png,stimuli/Social3.png,stimuli/Nonsocial4.png,stimuli/Nonsocial3.png,,,"(-0.7, -0.5)",cs_neg_s,"(-0.7, 0.5)",cs_pos_ns,"(0.7, -0.5)",cs_pos_s,"(0.7, 0.5)",cs_neg_ns,0,0,0,0,,,,,,,,,,,,,,,,,,,,,1,18,42,4,,,,,,,,,,,,,,,,,,,,,,,,,,,423,reward,,,,,,1272.558662299998,1272.558662299998,1272.558662299998,1272.558662299998,0,,,1,0.022709800396114588,0.26756770024076104,0,,,0,,,1273.5794596001506,1273.5794596001506,1273.5794596001506,1273.5794596001506,15,B,2024-04-22_17h27.32.022,attentional_competition_task,2022.2.4,143.94640613627791,
positions.xlsx,positions_test.xlsx,positions_test_new.xlsx,stimuli.xlsx,stimuli_new.xlsx,stimuli/Social2.png,stimuli/Social1.png,stimuli/Nonsocial2.png,stimuli/Nonsocial1.png,stimuli/Social4.png,stimuli/Social3.png,stimuli/Nonsocial4.png,stimuli/Nonsocial3.png,,,"(-0.7, -0.5)",cs_neg_ns,"(-0.7, 0.5)",cs_neg_s,"(0.7, -0.5)",cs_pos_ns,"(0.7, 0.5)",cs_pos_s,0,0,0,0,,,,,,,,,,,,,,,,,,,,,1,19,43,15,,,,,,,,,,,,,,,,,,,,,,,,,,,432,reward,,,,,,1281.3013657000847,1281.3013657000847,1281.3013657000847,1281.3013657000847,0,,,0,,,1,0.026398499961942434,0.19820909993723035,0,,,1282.3082766002044,1282.3082766002044,1282.3082766002044,1282.3082766002044,15,B,2024-04-22_17h27.32.022,attentional_competition_task,2022.2.4,143.94640613627791,
positions.xlsx,positions_test.xlsx,positions_test_new.xlsx,stimuli.xlsx,stimuli_new.xlsx,stimuli/Social2.png,stimuli/Social1.png,stimuli/Nonsocial2.png,stimuli/Nonsocial1.png,stimuli/Social4.png,stimuli/Social3.png,stimuli/Nonsocial4.png,stimuli/Nonsocial3.png,,,"(-0.7, -0.5)",cs_pos_s,"(-0.7, 0.5)",cs_pos_ns,"(0.7, -0.5)",cs_neg_ns,"(0.7, 0.5)",cs_neg_s,0,0,0,0,,,,,,,,,,,,,,,,,,,,,1,20,44,11,,,,,,,,,,,,,,,,,,,,,,,,,,,441,reward,,,,,,1289.4538316000253,1289.4538316000253,1289.4538316000253,1289.4538316000253,0,,,1,0.02459060028195381,0.4766573002561927,0,,,0,,,1290.4329454000108,1290.4329454000108,1290.4329454000108,1290.4329454000108,15,B,2024-04-22_17h27.32.022,attentional_competition_task,2022.2.4,143.94640613627791,
positions.xlsx,positions_test.xlsx,positions_test_new.xlsx,stimuli.xlsx,stimuli_new.xlsx,stimuli/Social2.png,stimuli/Social1.png,stimuli/Nonsocial2.png,stimuli/Nonsocial1.png,stimuli/Social4.png,stimuli/Social3.png,stimuli/Nonsocial4.png,stimuli/Nonsocial3.png,,,"(-0.7, -0.5)",cs_pos_ns,"(-0.7, 0.5)",cs_neg_ns,"(0.7, -0.5)",cs_pos_s,"(0.7, 0.5)",cs_neg_s,0,0,0,0,,,,,,,,,,,,,,,,,,,,,1,21,45,20,,,,,,,,,,,,,,,,,,,,,,,,,,,450,reward,,,,,,1297.7590241003782,1297.7590241003782,1297.7590241003782,1297.7590241003782,1,0.02742470009252429,0.04508440010249615,0,,,0,,,0,,,1298.76595180016,1298.76595180016,1298.76595180016,1298.76595180016,15,B,2024-04-22_17h27.32.022,attentional_competition_task,2022.2.4,143.94640613627791,
positions.xlsx,positions_test.xlsx,positions_test_new.xlsx,stimuli.xlsx,stimuli_new.xlsx,stimuli/Social2.png,stimuli/Social1.png,stimuli/Nonsocial2.png,stimuli/Nonsocial1.png,stimuli/Social4.png,stimuli/Social3.png,stimuli/Nonsocial4.png,stimuli/Nonsocial3.png,,,"(-0.7, -0.5)",cs_pos_s,"(-0.7, 0.5)",cs_neg_s,"(0.7, -0.5)",cs_pos_ns,"(0.7, 0.5)",cs_neg_ns,0,0,0,0,,,,,,,,,,,,,,,,,,,,,1,22,46,7,,,,,,,,,,,,,,,,,,,,,,,,,,,459,reward,,,,,,1306.0504374001175,1306.0504374001175,1306.0504374001175,1306.0504374001175,0,,,0,,,1,0.024554399773478508,0.17567589972168207,0,,,1307.0989596000873,1307.0989596000873,1307.0989596000873,1307.0989596000873,15,B,2024-04-22_17h27.32.022,attentional_competition_task,2022.2.4,143.94640613627791,
positions.xlsx,positions_test.xlsx,positions_test_new.xlsx,stimuli.xlsx,stimuli_new.xlsx,stimuli/Social2.png,stimuli/Social1.png,stimuli/Nonsocial2.png,stimuli/Nonsocial1.png,stimuli/Social4.png,stimuli/Social3.png,stimuli/Nonsocial4.png,stimuli/Nonsocial3.png,,,"(-0.7, -0.5)",cs_neg_ns,"(-0.7, 0.5)",cs_pos_ns,"(0.7, -0.5)",cs_neg_s,"(0.7, 0.5)",cs_pos_s,0,0,0,0,,,,,,,,,,,,,,,,,,,,,1,23,47,17,,,,,,,,,,,,,,,,,,,,,,,,,,,468,reward,,,,,,1314.2445226004347,1314.2445226004347,1314.2445226004347,1314.2445226004347,0,,,1,0.02507429989054799,0.047103399876505136,0,,,0,,,1315.2791856001131,1315.2791856001131,1315.2791856001131,1315.2791856001131,15,B,2024-04-22_17h27.32.022,attentional_competition_task,2022.2.4,143.94640613627791,
positions.xlsx,positions_test.xlsx,positions_test_new.xlsx,stimuli.xlsx,stimuli_new.xlsx,stimuli/Social2.png,stimuli/Social1.png,stimuli/Nonsocial2.png,stimuli/Nonsocial1.png,stimuli/Social4.png,stimuli/Social3.png,stimuli/Nonsocial4.png,stimuli/Nonsocial3.png,,,"(-0.7, -0.5)",cs_pos_ns,"(-0.7, 0.5)",cs_neg_ns,"(0.7, -0.5)",cs_neg_s,"(0.7, 0.5)",cs_pos_s,0,0,0,0,,,,,,,,,,,,,,,,,,,,,,,,,,,,,0,0,0,6,0,0,0,0,,,,,,,,,,,,,,,471,reward,,,,,,1321.1678416002542,1321.1678416002542,1321.1678416002542,1321.1678416002542,0,,,0,,,0,,,1,0.42596800019964576,0.4259717999957502,1321.5983177004382,1321.5983177004382,1321.5983177004382,1321.5983177004382,15,B,2024-04-22_17h27.32.022,attentional_competition_task,2022.2.4,143.94640613627791,
positions.xlsx,positions_test.xlsx,positions_test_new.xlsx,stimuli.xlsx,stimuli_new.xlsx,stimuli/Social2.png,stimuli/Social1.png,stimuli/Nonsocial2.png,stimuli/Nonsocial1.png,stimuli/Social4.png,stimuli/Social3.png,stimuli/Nonsocial4.png,stimuli/Nonsocial3.png,,,"(-0.7, -0.5)",cs_pos_ns,"(-0.7, 0.5)",cs_neg_ns,"(0.7, -0.5)",cs_neg_s,"(0.7, 0.5)",cs_pos_s,0,0,0,0,,,,,,,,,,,,,,,,,,,,,,,,,,,,,0,0,0,6,1,0,1,0,,,,,,,,,,,,,,,474,reward,,,,,,1322.1330964001827,1322.1330964001827,1322.1330964001827,1322.1330964001827,1,0.029577499721199274,0.029581299982964993,0,,,0,,,0,,,1322.1330964001827,1322.1330964001827,1322.1330964001827,1322.1330964001827,15,B,2024-04-22_17h27.32.022,attentional_competition_task,2022.2.4,143.94640613627791,
positions.xlsx,positions_test.xlsx,positions_test_new.xlsx,stimuli.xlsx,stimuli_new.xlsx,stimuli/Social2.png,stimuli/Social1.png,stimuli/Nonsocial2.png,stimuli/Nonsocial1.png,stimuli/Social4.png,stimuli/Social3.png,stimuli/Nonsocial4.png,stimuli/Nonsocial3.png,,,"(-0.7, -0.5)",cs_pos_ns,"(-0.7, 0.5)",cs_neg_ns,"(0.7, -0.5)",cs_neg_s,"(0.7, 0.5)",cs_pos_s,0,0,0,0,,,,,,,,,,,,,,,,,,,,,,,,,,,,,0,0,0,6,2,0,2,0,,,,,,,,,,,,,,,477,reward,,,,,,1322.6330422000028,1322.6330422000028,1322.6330422000028,1322.6330422000028,1,0.02365540014579892,0.23207670031115413,0,,,0,,,0,,,1323.6816581003368,1323.6816581003368,1323.6816581003368,1323.6816581003368,15,B,2024-04-22_17h27.32.022,attentional_competition_task,2022.2.4,143.94640613627791,
positions.xlsx,positions_test.xlsx,positions_test_new.xlsx,stimuli.xlsx,stimuli_new.xlsx,stimuli/Social2.png,stimuli/Social1.png,stimuli/Nonsocial2.png,stimuli/Nonsocial1.png,stimuli/Social4.png,stimuli/Social3.png,stimuli/Nonsocial4.png,stimuli/Nonsocial3.png,,,"(-0.7, -0.5)",cs_pos_ns,"(-0.7, 0.5)",cs_neg_ns,"(0.7, -0.5)",cs_neg_s,"(0.7, 0.5)",cs_pos_s,0,0,0,0,,,,,,,,,,,,,,,,,,,,,,,,,,,,,0,0,0,6,,,,,,,,,,,,,,,,,,,,,,,,,,,,,,,,,,,,,,,,,,,,,,15,B,2024-04-22_17h27.32.022,attentional_competition_task,2022.2.4,143.94640613627791,
positions.xlsx,positions_test.xlsx,positions_test_new.xlsx,stimuli.xlsx,stimuli_new.xlsx,stimuli/Social2.png,stimuli/Social1.png,stimuli/Nonsocial2.png,stimuli/Nonsocial1.png,stimuli/Social4.png,stimuli/Social3.png,stimuli/Nonsocial4.png,stimuli/Nonsocial3.png,,,"(-0.7, -0.5)",cs_pos_ns_new,"(-0.7, 0.5)",cs_neg_s,"(0.7, -0.5)",cs_neg_ns,"(0.7, 0.5)",cs_pos_s,0,0,0,0,,,,,,,,,,,,,,,,,,,,,,,,,,,,,0,1,1,46,0,0,0,0,,,,,,,,,,,,,,,480,reward,,,,,,1330.084130400326,1330.084130400326,1330.084130400326,1330.084130400326,0,,,0,,,0,,,1,0.42013629991561174,0.42014020029455423,1330.507821300067,1330.507821300067,1330.507821300067,1330.507821300067,15,B,2024-04-22_17h27.32.022,attentional_competition_task,2022.2.4,143.94640613627791,
positions.xlsx,positions_test.xlsx,positions_test_new.xlsx,stimuli.xlsx,stimuli_new.xlsx,stimuli/Social2.png,stimuli/Social1.png,stimuli/Nonsocial2.png,stimuli/Nonsocial1.png,stimuli/Social4.png,stimuli/Social3.png,stimuli/Nonsocial4.png,stimuli/Nonsocial3.png,,,"(-0.7, -0.5)",cs_pos_ns_new,"(-0.7, 0.5)",cs_neg_s,"(0.7, -0.5)",cs_neg_ns,"(0.7, 0.5)",cs_pos_s,0,0,0,0,,,,,,,,,,,,,,,,,,,,,,,,,,,,,0,1,1,46,1,0,1,0,,,,,,,,,,,,,,,483,reward,,,,,,1331.0424707001075,1331.0424707001075,1331.0424707001075,1331.0424707001075,1,0.029315900057554245,0.029320099856704473,0,,,0,,,0,,,1331.0424707001075,1331.0424707001075,1331.0424707001075,1331.0424707001075,15,B,2024-04-22_17h27.32.022,attentional_competition_task,2022.2.4,143.94640613627791,
positions.xlsx,positions_test.xlsx,positions_test_new.xlsx,stimuli.xlsx,stimuli_new.xlsx,stimuli/Social2.png,stimuli/Social1.png,stimuli/Nonsocial2.png,stimuli/Nonsocial1.png,stimuli/Social4.png,stimuli/Social3.png,stimuli/Nonsocial4.png,stimuli/Nonsocial3.png,,,"(-0.7, -0.5)",cs_pos_ns_new,"(-0.7, 0.5)",cs_neg_s,"(0.7, -0.5)",cs_neg_ns,"(0.7, 0.5)",cs_pos_s,0,0,0,0,,,,,,,,,,,,,,,,,,,,,,,,,,,,,0,1,1,46,2,0,2,0,,,,,,,,,,,,,,,480,loss,,,,,,1331.577150200028,1331.577150200028,1331.577150200028,1331.577150200028,0,,,0,,,1,0.030966700054705143,0.030970199964940548,0,,,1331.577150200028,1331.577150200028,1331.577150200028,1331.577150200028,15,B,2024-04-22_17h27.32.022,attentional_competition_task,2022.2.4,143.94640613627791,
positions.xlsx,positions_test.xlsx,positions_test_new.xlsx,stimuli.xlsx,stimuli_new.xlsx,stimuli/Social2.png,stimuli/Social1.png,stimuli/Nonsocial2.png,stimuli/Nonsocial1.png,stimuli/Social4.png,stimuli/Social3.png,stimuli/Nonsocial4.png,stimuli/Nonsocial3.png,,,"(-0.7, -0.5)",cs_pos_ns_new,"(-0.7, 0.5)",cs_neg_s,"(0.7, -0.5)",cs_neg_ns,"(0.7, 0.5)",cs_pos_s,0,0,0,0,,,,,,,,,,,,,,,,,,,,,,,,,,,,,0,1,1,46,3,0,3,0,,,,,,,,,,,,,,,477,loss,,,,,,1332.6118088001385,1332.6118088001385,1332.6118088001385,1332.6118088001385,0,,,0,,,0,,,0,,,1332.6118088001385,1332.6118088001385,1332.6118088001385,1332.6118088001385,15,B,2024-04-22_17h27.32.022,attentional_competition_task,2022.2.4,143.94640613627791,
positions.xlsx,positions_test.xlsx,positions_test_new.xlsx,stimuli.xlsx,stimuli_new.xlsx,stimuli/Social2.png,stimuli/Social1.png,stimuli/Nonsocial2.png,stimuli/Nonsocial1.png,stimuli/Social4.png,stimuli/Social3.png,stimuli/Nonsocial4.png,stimuli/Nonsocial3.png,,,"(-0.7, -0.5)",cs_pos_ns_new,"(-0.7, 0.5)",cs_neg_s,"(0.7, -0.5)",cs_neg_ns,"(0.7, 0.5)",cs_pos_s,0,0,0,0,,,,,,,,,,,,,,,,,,,,,,,,,,,,,0,1,1,46,,,,,,,,,,,,,,,,,,,,,,,,,,,,,,,,,,,,,,,,,,,,,,15,B,2024-04-22_17h27.32.022,attentional_competition_task,2022.2.4,143.94640613627791,
positions.xlsx,positions_test.xlsx,positions_test_new.xlsx,stimuli.xlsx,stimuli_new.xlsx,stimuli/Social2.png,stimuli/Social1.png,stimuli/Nonsocial2.png,stimuli/Nonsocial1.png,stimuli/Social4.png,stimuli/Social3.png,stimuli/Nonsocial4.png,stimuli/Nonsocial3.png,,,"(-0.7, -0.5)",cs_pos_s,"(-0.7, 0.5)",cs_pos_ns,"(0.7, -0.5)",cs_neg_s,"(0.7, 0.5)",cs_neg_ns_new,0,0,0,0,,,,,,,,,,,,,,,,,,,,,,,,,,,,,0,2,2,24,0,0,0,0,,,,,,,,,,,,,,,480,reward,,,,,,1338.389336600434,1338.389336600434,1338.389336600434,1338.389336600434,1,0.5227852999232709,0.5296938000246882,0,,,0,,,0,,,1338.9241091003641,1338.9241091003641,1338.9241091003641,1338.9241091003641,15,B,2024-04-22_17h27.32.022,attentional_competition_task,2022.2.4,143.94640613627791,
positions.xlsx,positions_test.xlsx,positions_test_new.xlsx,stimuli.xlsx,stimuli_new.xlsx,stimuli/Social2.png,stimuli/Social1.png,stimuli/Nonsocial2.png,stimuli/Nonsocial1.png,stimuli/Social4.png,stimuli/Social3.png,stimuli/Nonsocial4.png,stimuli/Nonsocial3.png,,,"(-0.7, -0.5)",cs_pos_s,"(-0.7, 0.5)",cs_pos_ns,"(0.7, -0.5)",cs_neg_s,"(0.7, 0.5)",cs_neg_ns_new,0,0,0,0,,,,,,,,,,,,,,,,,,,,,,,,,,,,,0,2,2,24,1,0,1,0,,,,,,,,,,,,,,,483,reward,,,,,,1339.4588325000368,1339.4588325000368,1339.4588325000368,1339.4588325000368,0,,,1,0.03231529984623194,0.03231920022517443,0,,,0,,,1339.4588325000368,1339.4588325000368,1339.4588325000368,1339.4588325000368,15,B,2024-04-22_17h27.32.022,attentional_competition_task,2022.2.4,143.94640613627791,
positions.xlsx,positions_test.xlsx,positions_test_new.xlsx,stimuli.xlsx,stimuli_new.xlsx,stimuli/Social2.png,stimuli/Social1.png,stimuli/Nonsocial2.png,stimuli/Nonsocial1.png,stimuli/Social4.png,stimuli/Social3.png,stimuli/Nonsocial4.png,stimuli/Nonsocial3.png,,,"(-0.7, -0.5)",cs_pos_s,"(-0.7, 0.5)",cs_pos_ns,"(0.7, -0.5)",cs_neg_s,"(0.7, 0.5)",cs_neg_ns_new,0,0,0,0,,,,,,,,,,,,,,,,,,,,,,,,,,,,,0,2,2,24,2,0,2,0,,,,,,,,,,,,,,,486,reward,,,,,,1339.9726399001665,1339.9726399001665,1339.9726399001665,1339.9726399001665,0,,,1,0.25054429983720183,0.4389018998481333,0,,,0,,,1340.9031545002945,1340.9031545002945,1340.9031545002945,1340.9031545002945,15,B,2024-04-22_17h27.32.022,attentional_competition_task,2022.2.4,143.94640613627791,
positions.xlsx,positions_test.xlsx,positions_test_new.xlsx,stimuli.xlsx,stimuli_new.xlsx,stimuli/Social2.png,stimuli/Social1.png,stimuli/Nonsocial2.png,stimuli/Nonsocial1.png,stimuli/Social4.png,stimuli/Social3.png,stimuli/Nonsocial4.png,stimuli/Nonsocial3.png,,,"(-0.7, -0.5)",cs_pos_s,"(-0.7, 0.5)",cs_pos_ns,"(0.7, -0.5)",cs_neg_s,"(0.7, 0.5)",cs_neg_ns_new,0,0,0,0,,,,,,,,,,,,,,,,,,,,,,,,,,,,,0,2,2,24,,,,,,,,,,,,,,,,,,,,,,,,,,,,,,,,,,,,,,,,,,,,,,15,B,2024-04-22_17h27.32.022,attentional_competition_task,2022.2.4,143.94640613627791,
positions.xlsx,positions_test.xlsx,positions_test_new.xlsx,stimuli.xlsx,stimuli_new.xlsx,stimuli/Social2.png,stimuli/Social1.png,stimuli/Nonsocial2.png,stimuli/Nonsocial1.png,stimuli/Social4.png,stimuli/Social3.png,stimuli/Nonsocial4.png,stimuli/Nonsocial3.png,,,"(-0.7, -0.5)",cs_pos_s,"(-0.7, 0.5)",cs_pos_ns,"(0.7, -0.5)",cs_neg_s_new,"(0.7, 0.5)",cs_neg_ns,0,0,0,0,,,,,,,,,,,,,,,,,,,,,,,,,,,,,0,3,3,9,0,0,0,0,,,,,,,,,,,,,,,489,reward,,,,,,1347.3195878001861,1347.3195878001861,1347.3195878001861,1347.3195878001861,1,0.4321775999851525,0.43918690038844943,0,,,0,,,0,,,1347.7640417004004,1347.7640417004004,1347.7640417004004,1347.7640417004004,15,B,2024-04-22_17h27.32.022,attentional_competition_task,2022.2.4,143.94640613627791,
positions.xlsx,positions_test.xlsx,positions_test_new.xlsx,stimuli.xlsx,stimuli_new.xlsx,stimuli/Social2.png,stimuli/Social1.png,stimuli/Nonsocial2.png,stimuli/Nonsocial1.png,stimuli/Social4.png,stimuli/Social3.png,stimuli/Nonsocial4.png,stimuli/Nonsocial3.png,,,"(-0.7, -0.5)",cs_pos_s,"(-0.7, 0.5)",cs_pos_ns,"(0.7, -0.5)",cs_neg_s_new,"(0.7, 0.5)",cs_neg_ns,0,0,0,0,,,,,,,,,,,,,,,,,,,,,,,,,,,,,0,3,3,9,1,0,1,0,,,,,,,,,,,,,,,492,reward,,,,,,1348.298720100429,1348.298720100429,1348.298720100429,1348.298720100429,0,,,1,0.03103489987552166,0.031039000023156404,0,,,0,,,1348.298720100429,1348.298720100429,1348.298720100429,1348.298720100429,15,B,2024-04-22_17h27.32.022,attentional_competition_task,2022.2.4,143.94640613627791,
positions.xlsx,positions_test.xlsx,positions_test_new.xlsx,stimuli.xlsx,stimuli_new.xlsx,stimuli/Social2.png,stimuli/Social1.png,stimuli/Nonsocial2.png,stimuli/Nonsocial1.png,stimuli/Social4.png,stimuli/Social3.png,stimuli/Nonsocial4.png,stimuli/Nonsocial3.png,,,"(-0.7, -0.5)",cs_pos_s,"(-0.7, 0.5)",cs_pos_ns,"(0.7, -0.5)",cs_neg_s_new,"(0.7, 0.5)",cs_neg_ns,0,0,0,0,,,,,,,,,,,,,,,,,,,,,,,,,,,,,0,3,3,9,2,0,2,0,,,,,,,,,,,,,,,495,reward,,,,,,1348.8056435002945,1348.8056435002945,1348.8056435002945,1348.8056435002945,0,,,1,0.028212000150233507,0.09171440033242106,0,,,0,,,1349.8333489000797,1349.8333489000797,1349.8333489000797,1349.8333489000797,15,B,2024-04-22_17h27.32.022,attentional_competition_task,2022.2.4,143.94640613627791,
positions.xlsx,positions_test.xlsx,positions_test_new.xlsx,stimuli.xlsx,stimuli_new.xlsx,stimuli/Social2.png,stimuli/Social1.png,stimuli/Nonsocial2.png,stimuli/Nonsocial1.png,stimuli/Social4.png,stimuli/Social3.png,stimuli/Nonsocial4.png,stimuli/Nonsocial3.png,,,"(-0.7, -0.5)",cs_pos_s,"(-0.7, 0.5)",cs_pos_ns,"(0.7, -0.5)",cs_neg_s_new,"(0.7, 0.5)",cs_neg_ns,0,0,0,0,,,,,,,,,,,,,,,,,,,,,,,,,,,,,0,3,3,9,,,,,,,,,,,,,,,,,,,,,,,,,,,,,,,,,,,,,,,,,,,,,,15,B,2024-04-22_17h27.32.022,attentional_competition_task,2022.2.4,143.94640613627791,
positions.xlsx,positions_test.xlsx,positions_test_new.xlsx,stimuli.xlsx,stimuli_new.xlsx,stimuli/Social2.png,stimuli/Social1.png,stimuli/Nonsocial2.png,stimuli/Nonsocial1.png,stimuli/Social4.png,stimuli/Social3.png,stimuli/Nonsocial4.png,stimuli/Nonsocial3.png,,,"(-0.7, -0.5)",cs_neg_ns_new,"(-0.7, 0.5)",cs_pos_s,"(0.7, -0.5)",cs_neg_s,"(0.7, 0.5)",cs_pos_ns,0,0,0,0,,,,,,,,,,,,,,,,,,,,,,,,,,,,,0,4,4,22,0,0,0,0,,,,,,,,,,,,,,,498,reward,,,,,,1355.7706172000617,1355.7706172000617,1355.7706172000617,1355.7706172000617,0,,,1,0.3632650002837181,0.3632837003096938,0,,,0,,,1356.1386405001394,1356.1386405001394,1356.1386405001394,1356.1386405001394,15,B,2024-04-22_17h27.32.022,attentional_competition_task,2022.2.4,143.94640613627791,
positions.xlsx,positions_test.xlsx,positions_test_new.xlsx,stimuli.xlsx,stimuli_new.xlsx,stimuli/Social2.png,stimuli/Social1.png,stimuli/Nonsocial2.png,stimuli/Nonsocial1.png,stimuli/Social4.png,stimuli/Social3.png,stimuli/Nonsocial4.png,stimuli/Nonsocial3.png,,,"(-0.7, -0.5)",cs_neg_ns_new,"(-0.7, 0.5)",cs_pos_s,"(0.7, -0.5)",cs_neg_s,"(0.7, 0.5)",cs_pos_ns,0,0,0,0,,,,,,,,,,,,,,,,,,,,,,,,,,,,,0,4,4,22,1,0,1,0,,,,,,,,,,,,,,,495,loss,,,,,,1356.6733518000692,1356.6733518000692,1356.6733518000692,1356.6733518000692,1,0.030855600256472826,0.030859400052577257,0,,,0,,,0,,,1356.6733518000692,1356.6733518000692,1356.6733518000692,1356.6733518000692,15,B,2024-04-22_17h27.32.022,attentional_competition_task,2022.2.4,143.94640613627791,
positions.xlsx,positions_test.xlsx,positions_test_new.xlsx,stimuli.xlsx,stimuli_new.xlsx,stimuli/Social2.png,stimuli/Social1.png,stimuli/Nonsocial2.png,stimuli/Nonsocial1.png,stimuli/Social4.png,stimuli/Social3.png,stimuli/Nonsocial4.png,stimuli/Nonsocial3.png,,,"(-0.7, -0.5)",cs_neg_ns_new,"(-0.7, 0.5)",cs_pos_s,"(0.7, -0.5)",cs_neg_s,"(0.7, 0.5)",cs_pos_ns,0,0,0,0,,,,,,,,,,,,,,,,,,,,,,,,,,,,,0,4,4,22,2,0,2,0,,,,,,,,,,,,,,,498,reward,,,,,,1357.2081083003432,1357.2081083003432,1357.2081083003432,1357.2081083003432,0,,,0,,,0,,,1,0.029454499948769808,0.02945839986205101,1357.2081083003432,1357.2081083003432,1357.2081083003432,1357.2081083003432,15,B,2024-04-22_17h27.32.022,attentional_competition_task,2022.2.4,143.94640613627791,
positions.xlsx,positions_test.xlsx,positions_test_new.xlsx,stimuli.xlsx,stimuli_new.xlsx,stimuli/Social2.png,stimuli/Social1.png,stimuli/Nonsocial2.png,stimuli/Nonsocial1.png,stimuli/Social4.png,stimuli/Social3.png,stimuli/Nonsocial4.png,stimuli/Nonsocial3.png,,,"(-0.7, -0.5)",cs_neg_ns_new,"(-0.7, 0.5)",cs_pos_s,"(0.7, -0.5)",cs_neg_s,"(0.7, 0.5)",cs_pos_ns,0,0,0,0,,,,,,,,,,,,,,,,,,,,,,,,,,,,,0,4,4,22,3,0,3,0,,,,,,,,,,,,,,,501,reward,,,,,,1357.7080353000201,1357.7080353000201,1357.7080353000201,1357.7080353000201,0,,,0,,,0,,,1,0.02464309986680746,0.07248369976878166,1358.2844134001061,1358.2844134001061,1358.2844134001061,1358.2844134001061,15,B,2024-04-22_17h27.32.022,attentional_competition_task,2022.2.4,143.94640613627791,
positions.xlsx,positions_test.xlsx,positions_test_new.xlsx,stimuli.xlsx,stimuli_new.xlsx,stimuli/Social2.png,stimuli/Social1.png,stimuli/Nonsocial2.png,stimuli/Nonsocial1.png,stimuli/Social4.png,stimuli/Social3.png,stimuli/Nonsocial4.png,stimuli/Nonsocial3.png,,,"(-0.7, -0.5)",cs_neg_ns_new,"(-0.7, 0.5)",cs_pos_s,"(0.7, -0.5)",cs_neg_s,"(0.7, 0.5)",cs_pos_ns,0,0,0,0,,,,,,,,,,,,,,,,,,,,,,,,,,,,,0,4,4,22,,,,,,,,,,,,,,,,,,,,,,,,,,,,,,,,,,,,,,,,,,,,,,15,B,2024-04-22_17h27.32.022,attentional_competition_task,2022.2.4,143.94640613627791,
positions.xlsx,positions_test.xlsx,positions_test_new.xlsx,stimuli.xlsx,stimuli_new.xlsx,stimuli/Social2.png,stimuli/Social1.png,stimuli/Nonsocial2.png,stimuli/Nonsocial1.png,stimuli/Social4.png,stimuli/Social3.png,stimuli/Nonsocial4.png,stimuli/Nonsocial3.png,,,"(-0.7, -0.5)",cs_neg_s,"(-0.7, 0.5)",cs_pos_ns,"(0.7, -0.5)",cs_neg_ns,"(0.7, 0.5)",cs_pos_s,0,0,0,0,,,,,,,,,,,,,,,,,,,,,,,,,,,,,0,5,5,0,0,0,0,0,,,,,,,,,,,,,,,504,reward,,,,,,1363.5966769000515,1363.5966769000515,1363.5966769000515,1363.5966769000515,0,,,0,,,0,,,1,0.5105550000444055,0.5105591998435557,1364.1175588001497,1364.1175588001497,1364.1175588001497,1364.1175588001497,15,B,2024-04-22_17h27.32.022,attentional_competition_task,2022.2.4,143.94640613627791,
positions.xlsx,positions_test.xlsx,positions_test_new.xlsx,stimuli.xlsx,stimuli_new.xlsx,stimuli/Social2.png,stimuli/Social1.png,stimuli/Nonsocial2.png,stimuli/Nonsocial1.png,stimuli/Social4.png,stimuli/Social3.png,stimuli/Nonsocial4.png,stimuli/Nonsocial3.png,,,"(-0.7, -0.5)",cs_neg_s,"(-0.7, 0.5)",cs_pos_ns,"(0.7, -0.5)",cs_neg_ns,"(0.7, 0.5)",cs_pos_s,0,0,0,0,,,,,,,,,,,,,,,,,,,,,,,,,,,,,0,5,5,0,1,0,1,0,,,,,,,,,,,,,,,507,reward,,,,,,1364.6452332003973,1364.6452332003973,1364.6452332003973,1364.6452332003973,0,,,1,0.027654800098389387,0.027658799663186073,0,,,0,,,1364.6452332003973,1364.6452332003973,1364.6452332003973,1364.6452332003973,15,B,2024-04-22_17h27.32.022,attentional_competition_task,2022.2.4,143.94640613627791,
positions.xlsx,positions_test.xlsx,positions_test_new.xlsx,stimuli.xlsx,stimuli_new.xlsx,stimuli/Social2.png,stimuli/Social1.png,stimuli/Nonsocial2.png,stimuli/Nonsocial1.png,stimuli/Social4.png,stimuli/Social3.png,stimuli/Nonsocial4.png,stimuli/Nonsocial3.png,,,"(-0.7, -0.5)",cs_neg_s,"(-0.7, 0.5)",cs_pos_ns,"(0.7, -0.5)",cs_neg_ns,"(0.7, 0.5)",cs_pos_s,0,0,0,0,,,,,,,,,,,,,,,,,,,,,,,,,,,,,0,5,5,0,2,0,2,0,,,,,,,,,,,,,,,510,reward,,,,,,1365.1452524000779,1365.1452524000779,1365.1452524000779,1365.1452524000779,0,,,1,0.027190500404685736,0.4488551001995802,0,,,0,,,1366.1104623000138,1366.1104623000138,1366.1104623000138,1366.1104623000138,15,B,2024-04-22_17h27.32.022,attentional_competition_task,2022.2.4,143.94640613627791,
positions.xlsx,positions_test.xlsx,positions_test_new.xlsx,stimuli.xlsx,stimuli_new.xlsx,stimuli/Social2.png,stimuli/Social1.png,stimuli/Nonsocial2.png,stimuli/Nonsocial1.png,stimuli/Social4.png,stimuli/Social3.png,stimuli/Nonsocial4.png,stimuli/Nonsocial3.png,,,"(-0.7, -0.5)",cs_neg_s,"(-0.7, 0.5)",cs_pos_ns,"(0.7, -0.5)",cs_neg_ns,"(0.7, 0.5)",cs_pos_s,0,0,0,0,,,,,,,,,,,,,,,,,,,,,,,,,,,,,0,5,5,0,,,,,,,,,,,,,,,,,,,,,,,,,,,,,,,,,,,,,,,,,,,,,,15,B,2024-04-22_17h27.32.022,attentional_competition_task,2022.2.4,143.94640613627791,
positions.xlsx,positions_test.xlsx,positions_test_new.xlsx,stimuli.xlsx,stimuli_new.xlsx,stimuli/Social2.png,stimuli/Social1.png,stimuli/Nonsocial2.png,stimuli/Nonsocial1.png,stimuli/Social4.png,stimuli/Social3.png,stimuli/Nonsocial4.png,stimuli/Nonsocial3.png,,,"(-0.7, -0.5)",cs_pos_ns,"(-0.7, 0.5)",cs_pos_s,"(0.7, -0.5)",cs_neg_s,"(0.7, 0.5)",cs_neg_ns_new,0,0,0,0,,,,,,,,,,,,,,,,,,,,,,,,,,,,,0,6,6,18,0,0,0,0,,,,,,,,,,,,,,,513,reward,,,,,,1372.2630788004026,1372.2630788004026,1372.2630788004026,1372.2630788004026,0,,,1,0.3074642000719905,0.3074680003337562,0,,,0,,,1372.5755631001666,1372.5755631001666,1372.5755631001666,1372.5755631001666,15,B,2024-04-22_17h27.32.022,attentional_competition_task,2022.2.4,143.94640613627791,
positions.xlsx,positions_test.xlsx,positions_test_new.xlsx,stimuli.xlsx,stimuli_new.xlsx,stimuli/Social2.png,stimuli/Social1.png,stimuli/Nonsocial2.png,stimuli/Nonsocial1.png,stimuli/Social4.png,stimuli/Social3.png,stimuli/Nonsocial4.png,stimuli/Nonsocial3.png,,,"(-0.7, -0.5)",cs_pos_ns,"(-0.7, 0.5)",cs_pos_s,"(0.7, -0.5)",cs_neg_s,"(0.7, 0.5)",cs_neg_ns_new,0,0,0,0,,,,,,,,,,,,,,,,,,,,,,,,,,,,,0,6,6,18,1,0,1,0,,,,,,,,,,,,,,,516,reward,,,,,,1373.1101870001294,1373.1101870001294,1373.1101870001294,1373.1101870001294,1,0.030251599848270416,0.03026820020750165,0,,,0,,,0,,,1373.1101870001294,1373.1101870001294,1373.1101870001294,1373.1101870001294,15,B,2024-04-22_17h27.32.022,attentional_competition_task,2022.2.4,143.94640613627791,
positions.xlsx,positions_test.xlsx,positions_test_new.xlsx,stimuli.xlsx,stimuli_new.xlsx,stimuli/Social2.png,stimuli/Social1.png,stimuli/Nonsocial2.png,stimuli/Nonsocial1.png,stimuli/Social4.png,stimuli/Social3.png,stimuli/Nonsocial4.png,stimuli/Nonsocial3.png,,,"(-0.7, -0.5)",cs_pos_ns,"(-0.7, 0.5)",cs_pos_s,"(0.7, -0.5)",cs_neg_s,"(0.7, 0.5)",cs_neg_ns_new,0,0,0,0,,,,,,,,,,,,,,,,,,,,,,,,,,,,,0,6,6,18,2,0,2,0,,,,,,,,,,,,,,,519,reward,,,,,,1373.6101961000822,1373.6101961000822,1373.6101961000822,1373.6101961000822,1,0.02949320012703538,0.2589282002300024,0,,,0,,,0,,,1374.7767935004085,1374.7767935004085,1374.7767935004085,1374.7767935004085,15,B,2024-04-22_17h27.32.022,attentional_competition_task,2022.2.4,143.94640613627791,
positions.xlsx,positions_test.xlsx,positions_test_new.xlsx,stimuli.xlsx,stimuli_new.xlsx,stimuli/Social2.png,stimuli/Social1.png,stimuli/Nonsocial2.png,stimuli/Nonsocial1.png,stimuli/Social4.png,stimuli/Social3.png,stimuli/Nonsocial4.png,stimuli/Nonsocial3.png,,,"(-0.7, -0.5)",cs_pos_ns,"(-0.7, 0.5)",cs_pos_s,"(0.7, -0.5)",cs_neg_s,"(0.7, 0.5)",cs_neg_ns_new,0,0,0,0,,,,,,,,,,,,,,,,,,,,,,,,,,,,,0,6,6,18,,,,,,,,,,,,,,,,,,,,,,,,,,,,,,,,,,,,,,,,,,,,,,15,B,2024-04-22_17h27.32.022,attentional_competition_task,2022.2.4,143.94640613627791,
positions.xlsx,positions_test.xlsx,positions_test_new.xlsx,stimuli.xlsx,stimuli_new.xlsx,stimuli/Social2.png,stimuli/Social1.png,stimuli/Nonsocial2.png,stimuli/Nonsocial1.png,stimuli/Social4.png,stimuli/Social3.png,stimuli/Nonsocial4.png,stimuli/Nonsocial3.png,,,"(-0.7, -0.5)",cs_pos_s,"(-0.7, 0.5)",cs_neg_ns,"(0.7, -0.5)",cs_neg_s_new,"(0.7, 0.5)",cs_pos_ns,0,0,0,0,,,,,,,,,,,,,,,,,,,,,,,,,,,,,0,7,7,17,0,0,0,0,,,,,,,,,,,,,,,522,reward,,,,,,1380.7071179002523,1380.7071179002523,1380.7071179002523,1380.7071179002523,1,0.3700772998854518,0.37670679995790124,0,,,0,,,0,,,1381.0890149003826,1381.0890149003826,1381.0890149003826,1381.0890149003826,15,B,2024-04-22_17h27.32.022,attentional_competition_task,2022.2.4,143.94640613627791,
positions.xlsx,positions_test.xlsx,positions_test_new.xlsx,stimuli.xlsx,stimuli_new.xlsx,stimuli/Social2.png,stimuli/Social1.png,stimuli/Nonsocial2.png,stimuli/Nonsocial1.png,stimuli/Social4.png,stimuli/Social3.png,stimuli/Nonsocial4.png,stimuli/Nonsocial3.png,,,"(-0.7, -0.5)",cs_pos_s,"(-0.7, 0.5)",cs_neg_ns,"(0.7, -0.5)",cs_neg_s_new,"(0.7, 0.5)",cs_pos_ns,0,0,0,0,,,,,,,,,,,,,,,,,,,,,,,,,,,,,0,7,7,17,1,0,1,0,,,,,,,,,,,,,,,519,loss,,,,,,1381.6168146003038,1381.6168146003038,1381.6168146003038,1381.6168146003038,0,,,1,0.023791200015693903,0.023794999811798334,0,,,0,,,1381.6168146003038,1381.6168146003038,1381.6168146003038,1381.6168146003038,15,B,2024-04-22_17h27.32.022,attentional_competition_task,2022.2.4,143.94640613627791,
