posFile,posFileTest,posFileTestNew,stimFile,stimFileNew,cs_neg_s,cs_pos_s,cs_neg_ns,cs_pos_ns,cs_neg_s_new,cs_pos_s_new,cs_neg_ns_new,cs_pos_ns_new,stim,position,position1,stim1,position2,stim2,position3,stim3,position4,stim4,blocks.thisRepN,blocks.thisTrialN,blocks.thisN,blocks.thisIndex,ratingtrials1.thisRepN,ratingtrials1.thisTrialN,ratingtrials1.thisN,ratingtrials1.thisIndex,search_task_trials.thisRepN,search_task_trials.thisTrialN,search_task_trials.thisN,search_task_trials.thisIndex,learning_trials.thisRepN,learning_trials.thisTrialN,learning_trials.thisN,learning_trials.thisIndex,trials.thisRepN,trials.thisTrialN,trials.thisN,trials.thisIndex,ratingtrials2.thisRepN,ratingtrials2.thisTrialN,ratingtrials2.thisN,ratingtrials2.thisIndex,testtrials.thisRepN,testtrials.thisTrialN,testtrials.thisN,testtrials.thisIndex,loop_test.thisRepN,loop_test.thisTrialN,loop_test.thisN,loop_test.thisIndex,testtrials_novelty.thisRepN,testtrials_novelty.thisTrialN,testtrials_novelty.thisN,testtrials_novelty.thisIndex,loop_test_novelty.thisRepN,loop_test_novelty.thisTrialN,loop_test_novelty.thisN,loop_test_novelty.thisIndex,ratingtrials3.thisRepN,ratingtrials3.thisTrialN,ratingtrials3.thisN,ratingtrials3.thisIndex,textStart.started,textStartExp.started,imageRating.started,sliderStim.response,sliderStim.rt,textStartSearch.started,target_positions,distractor_positions,textStartTask.started,image.started,score,outcome,roi.numLooks,roi.timesOn,roi.timesOff,imageFeedback.started,textTestInstr.started,test_image1.started,test_image2.started,test_image3.started,test_image4.started,test_roi1.numLooks,test_roi1.timesOn,test_roi1.timesOff,test_roi2.numLooks,test_roi2.timesOn,test_roi2.timesOff,test_roi3.numLooks,test_roi3.timesOn,test_roi3.timesOff,test_roi4.numLooks,test_roi4.timesOn,test_roi4.timesOff,test_image_feedback1.started,test_image_feedback2.started,test_iamge_feedback3.started,test_iamge_feedback4.started,participant,group,date,expName,psychopyVersion,frameRate,
positions.xlsx,positions_test.xlsx,positions_test_new.xlsx,stimuli.xlsx,stimuli_new.xlsx,stimuli/Social3.png,stimuli/Social4.png,stimuli/Nonsocial3.png,stimuli/Nonsocial4.png,stimuli/Social1.png,stimuli/Social2.png,stimuli/Nonsocial1.png,stimuli/Nonsocial2.png,cs_neg_ns,,,,,,,,,,0,0,0,0,0,0,0,1,,,,,,,,,,,,,,,,,,,,,,,,,,,,,,,,,,,,,13.953021199999057,198.19163730000037,220.78360509999948,7.0,5.928046000000904,,,,,,,,,,,,,,,,,,,,,,,,,,,,,,,,,22,C,2024-04-30_14h27.22.099,attentional_competition_task,2022.2.4,143.9364606904901,
positions.xlsx,positions_test.xlsx,positions_test_new.xlsx,stimuli.xlsx,stimuli_new.xlsx,stimuli/Social3.png,stimuli/Social4.png,stimuli/Nonsocial3.png,stimuli/Nonsocial4.png,stimuli/Social1.png,stimuli/Social2.png,stimuli/Nonsocial1.png,stimuli/Nonsocial2.png,cs_pos_ns,,,,,,,,,,0,0,0,0,0,1,1,3,,,,,,,,,,,,,,,,,,,,,,,,,,,,,,,,,,,,,,,228.41522450000048,6.0,5.480624600000738,,,,,,,,,,,,,,,,,,,,,,,,,,,,,,,,,22,C,2024-04-30_14h27.22.099,attentional_competition_task,2022.2.4,143.9364606904901,
positions.xlsx,positions_test.xlsx,positions_test_new.xlsx,stimuli.xlsx,stimuli_new.xlsx,stimuli/Social3.png,stimuli/Social4.png,stimuli/Nonsocial3.png,stimuli/Nonsocial4.png,stimuli/Social1.png,stimuli/Social2.png,stimuli/Nonsocial1.png,stimuli/Nonsocial2.png,cs_pos_s,,,,,,,,,,0,0,0,0,0,2,2,2,,,,,,,,,,,,,,,,,,,,,,,,,,,,,,,,,,,,,,,234.39418619999924,6.0,3.7210377999999764,,,,,,,,,,,,,,,,,,,,,,,,,,,,,,,,,22,C,2024-04-30_14h27.22.099,attentional_competition_task,2022.2.4,143.9364606904901,
positions.xlsx,positions_test.xlsx,positions_test_new.xlsx,stimuli.xlsx,stimuli_new.xlsx,stimuli/Social3.png,stimuli/Social4.png,stimuli/Nonsocial3.png,stimuli/Nonsocial4.png,stimuli/Social1.png,stimuli/Social2.png,stimuli/Nonsocial1.png,stimuli/Nonsocial2.png,cs_neg_s,,,,,,,,,,0,0,0,0,0,3,3,0,,,,,,,,,,,,,,,,,,,,,,,,,,,,,,,,,,,,,,,238.4565029000005,5.0,1.797184200000629,,,,,,,,,,,,,,,,,,,,,,,,,,,,,,,,,22,C,2024-04-30_14h27.22.099,attentional_competition_task,2022.2.4,143.9364606904901,
positions.xlsx,positions_test.xlsx,positions_test_new.xlsx,stimuli.xlsx,stimuli_new.xlsx,stimuli/Social3.png,stimuli/Social4.png,stimuli/Nonsocial3.png,stimuli/Nonsocial4.png,stimuli/Social1.png,stimuli/Social2.png,stimuli/Nonsocial1.png,stimuli/Nonsocial2.png,,,,,,,,,,,0,0,0,0,,,,,0,0,0,0,,,,,,,,,,,,,,,,,,,,,,,,,,,,,,,,,,,,,,241.58135260000017,"[[0.9, -0.30000000000000004], [0.22499999999999998, -0.8], [-0.675, 0.7], [-0.45, 0.7], [0.0, -0.30000000000000004], [-0.22499999999999998, -0.30000000000000004], [0.6749999999999999, 0.19999999999999996], [-0.22499999999999998, 0.7], [0.6749999999999999, -0.8], [0.22499999999999998, -0.30000000000000004], [-0.22499999999999998, -0.8], [0.0, 0.19999999999999996], [-0.22499999999999998, 0.19999999999999996], [-0.9, -0.30000000000000004], [0.6749999999999999, 0.7]]","[[0.45000000000000007, 0.7], [0.45000000000000007, -0.30000000000000004], [0.6749999999999999, -0.30000000000000004], [-0.675, -0.8], [0.9, -0.8], [-0.675, 0.19999999999999996], [0.0, 0.7], [0.45000000000000007, 0.19999999999999996], [0.9, 0.7], [0.9, 0.19999999999999996], [-0.9, 0.7], [-0.45, -0.8], [-0.45, 0.19999999999999996], [-0.9, -0.8], [0.45000000000000007, -0.8]]",,,,,,,,,,,,,,,,,,,,,,,,,,,,,,22,C,2024-04-30_14h27.22.099,attentional_competition_task,2022.2.4,143.9364606904901,
positions.xlsx,positions_test.xlsx,positions_test_new.xlsx,stimuli.xlsx,stimuli_new.xlsx,stimuli/Social3.png,stimuli/Social4.png,stimuli/Nonsocial3.png,stimuli/Nonsocial4.png,stimuli/Social1.png,stimuli/Social2.png,stimuli/Nonsocial1.png,stimuli/Nonsocial2.png,,,,,,,,,,,0,0,0,0,,,,,1,0,1,0,,,,,,,,,,,,,,,,,,,,,,,,,,,,,,,,,,,,,,,"[[0.45000000000000007, -0.30000000000000004], [0.45000000000000007, 0.19999999999999996], [-0.675, -0.8], [0.9, -0.8], [-0.675, -0.30000000000000004], [0.45000000000000007, -0.8], [-0.45, 0.19999999999999996], [-0.22499999999999998, -0.8], [0.45000000000000007, 0.7], [0.6749999999999999, -0.8], [0.6749999999999999, -0.30000000000000004], [0.6749999999999999, 0.19999999999999996], [-0.675, 0.7], [-0.22499999999999998, 0.7], [0.22499999999999998, -0.30000000000000004]]","[[0.9, 0.19999999999999996], [0.9, -0.30000000000000004], [0.0, 0.7], [-0.45, 0.7], [-0.9, -0.30000000000000004], [-0.22499999999999998, 0.19999999999999996], [0.22499999999999998, 0.7], [-0.9, 0.7], [-0.9, -0.8], [0.0, -0.8], [0.9, 0.7], [0.0, -0.30000000000000004], [0.0, 0.19999999999999996], [-0.675, 0.19999999999999996], [-0.22499999999999998, -0.30000000000000004]]",,,,,,,,,,,,,,,,,,,,,,,,,,,,,,22,C,2024-04-30_14h27.22.099,attentional_competition_task,2022.2.4,143.9364606904901,
positions.xlsx,positions_test.xlsx,positions_test_new.xlsx,stimuli.xlsx,stimuli_new.xlsx,stimuli/Social3.png,stimuli/Social4.png,stimuli/Nonsocial3.png,stimuli/Nonsocial4.png,stimuli/Social1.png,stimuli/Social2.png,stimuli/Nonsocial1.png,stimuli/Nonsocial2.png,cs_neg_s,"(0.7, 0.5)",,,,,,,,,0,0,0,0,,,,,,,,,0,0,0,2,,,,,,,,,,,,,,,,,,,,,,,,,,,,,,,,,,,,,318.10602130000007,347.1534277999999,-3,loss,1,0.299265400000877,0.2992693000014697,347.47290280000016,,,,,,,,,,,,,,,,,,,,,,22,C,2024-04-30_14h27.22.099,attentional_competition_task,2022.2.4,143.9364606904901,
positions.xlsx,positions_test.xlsx,positions_test_new.xlsx,stimuli.xlsx,stimuli_new.xlsx,stimuli/Social3.png,stimuli/Social4.png,stimuli/Nonsocial3.png,stimuli/Nonsocial4.png,stimuli/Social1.png,stimuli/Social2.png,stimuli/Nonsocial1.png,stimuli/Nonsocial2.png,cs_neg_s,"(-0.7, -0.5)",,,,,,,,,0,0,0,0,,,,,,,,,0,1,1,1,,,,,,,,,,,,,,,,,,,,,,,,,,,,,,,,,,,,,,355.0003634000004,-6,loss,1,0.20140410000021802,0.20140809999975318,355.20871219999935,,,,,,,,,,,,,,,,,,,,,,22,C,2024-04-30_14h27.22.099,attentional_competition_task,2022.2.4,143.9364606904901,
positions.xlsx,positions_test.xlsx,positions_test_new.xlsx,stimuli.xlsx,stimuli_new.xlsx,stimuli/Social3.png,stimuli/Social4.png,stimuli/Nonsocial3.png,stimuli/Nonsocial4.png,stimuli/Social1.png,stimuli/Social2.png,stimuli/Nonsocial1.png,stimuli/Nonsocial2.png,cs_neg_ns,"(0.7, 0.5)",,,,,,,,,0,0,0,0,,,,,,,,,0,2,2,10,,,,,,,,,,,,,,,,,,,,,,,,,,,,,,,,,,,,,,362.34727340000063,-9,loss,1,0.9376926999993884,0.9376964000002772,363.29171829999905,,,,,,,,,,,,,,,,,,,,,,22,C,2024-04-30_14h27.22.099,attentional_competition_task,2022.2.4,143.9364606904901,
positions.xlsx,positions_test.xlsx,positions_test_new.xlsx,stimuli.xlsx,stimuli_new.xlsx,stimuli/Social3.png,stimuli/Social4.png,stimuli/Nonsocial3.png,stimuli/Nonsocial4.png,stimuli/Social1.png,stimuli/Social2.png,stimuli/Nonsocial1.png,stimuli/Nonsocial2.png,cs_pos_ns,"(0.7, -0.5)",,,,,,,,,0,0,0,0,,,,,,,,,0,3,3,15,,,,,,,,,,,,,,,,,,,,,,,,,,,,,,,,,,,,,,370.5483003999998,-6,reward,1,0.15969630000108737,0.15970000000015716,370.72196350000013,,,,,,,,,,,,,,,,,,,,,,22,C,2024-04-30_14h27.22.099,attentional_competition_task,2022.2.4,143.9364606904901,
positions.xlsx,positions_test.xlsx,positions_test_new.xlsx,stimuli.xlsx,stimuli_new.xlsx,stimuli/Social3.png,stimuli/Social4.png,stimuli/Nonsocial3.png,stimuli/Nonsocial4.png,stimuli/Social1.png,stimuli/Social2.png,stimuli/Nonsocial1.png,stimuli/Nonsocial2.png,cs_neg_ns,"(-0.7, -0.5)",,,,,,,,,0,0,0,0,,,,,,,,,0,4,4,9,,,,,,,,,,,,,,,,,,,,,,,,,,,,,,,,,,,,,,377.7285936999997,-9,loss,1,0.4795514999987063,0.4871413999990182,378.22164259999954,,,,,,,,,,,,,,,,,,,,,,22,C,2024-04-30_14h27.22.099,attentional_competition_task,2022.2.4,143.9364606904901,
positions.xlsx,positions_test.xlsx,positions_test_new.xlsx,stimuli.xlsx,stimuli_new.xlsx,stimuli/Social3.png,stimuli/Social4.png,stimuli/Nonsocial3.png,stimuli/Nonsocial4.png,stimuli/Social1.png,stimuli/Social2.png,stimuli/Nonsocial1.png,stimuli/Nonsocial2.png,cs_pos_ns,"(-0.7, -0.5)",,,,,,,,,0,0,0,0,,,,,,,,,0,5,5,13,,,,,,,,,,,,,,,,,,,,,,,,,,,,,,,,,,,,,,385.37408680000044,-6,reward,1,0.354575899998963,0.35457969999879424,385.73520090000056,,,,,,,,,,,,,,,,,,,,,,22,C,2024-04-30_14h27.22.099,attentional_competition_task,2022.2.4,143.9364606904901,
positions.xlsx,positions_test.xlsx,positions_test_new.xlsx,stimuli.xlsx,stimuli_new.xlsx,stimuli/Social3.png,stimuli/Social4.png,stimuli/Nonsocial3.png,stimuli/Nonsocial4.png,stimuli/Social1.png,stimuli/Social2.png,stimuli/Nonsocial1.png,stimuli/Nonsocial2.png,cs_pos_ns,"(0.7, 0.5)",,,,,,,,,0,0,0,0,,,,,,,,,0,6,6,14,,,,,,,,,,,,,,,,,,,,,,,,,,,,,,,,,,,,,,393.90854299999955,-3,reward,1,0.16630690000056347,0.16631059999963327,394.0821546999996,,,,,,,,,,,,,,,,,,,,,,22,C,2024-04-30_14h27.22.099,attentional_competition_task,2022.2.4,143.9364606904901,
positions.xlsx,positions_test.xlsx,positions_test_new.xlsx,stimuli.xlsx,stimuli_new.xlsx,stimuli/Social3.png,stimuli/Social4.png,stimuli/Nonsocial3.png,stimuli/Nonsocial4.png,stimuli/Social1.png,stimuli/Social2.png,stimuli/Nonsocial1.png,stimuli/Nonsocial2.png,cs_neg_ns,"(-0.7, 0.5)",,,,,,,,,0,0,0,0,,,,,,,,,0,7,7,8,,,,,,,,,,,,,,,,,,,,,,,,,,,,,,,,,,,,,,402.0748284000001,-6,loss,1,0.2923995000001014,0.2924034000006941,402.3734021,,,,,,,,,,,,,,,,,,,,,,22,C,2024-04-30_14h27.22.099,attentional_competition_task,2022.2.4,143.9364606904901,
positions.xlsx,positions_test.xlsx,positions_test_new.xlsx,stimuli.xlsx,stimuli_new.xlsx,stimuli/Social3.png,stimuli/Social4.png,stimuli/Nonsocial3.png,stimuli/Nonsocial4.png,stimuli/Social1.png,stimuli/Social2.png,stimuli/Nonsocial1.png,stimuli/Nonsocial2.png,cs_pos_s,"(0.7, 0.5)",,,,,,,,,0,0,0,0,,,,,,,,,0,8,8,6,,,,,,,,,,,,,,,,,,,,,,,,,,,,,,,,,,,,,,410.1231167999995,-3,reward,1,0.548736500000814,0.5487400000001799,410.67868049999925,,,,,,,,,,,,,,,,,,,,,,22,C,2024-04-30_14h27.22.099,attentional_competition_task,2022.2.4,143.9364606904901,
positions.xlsx,positions_test.xlsx,positions_test_new.xlsx,stimuli.xlsx,stimuli_new.xlsx,stimuli/Social3.png,stimuli/Social4.png,stimuli/Nonsocial3.png,stimuli/Nonsocial4.png,stimuli/Social1.png,stimuli/Social2.png,stimuli/Nonsocial1.png,stimuli/Nonsocial2.png,cs_neg_ns,"(0.7, -0.5)",,,,,,,,,0,0,0,0,,,,,,,,,0,9,9,11,,,,,,,,,,,,,,,,,,,,,,,,,,,,,,,,,,,,,,417.4908367000007,-6,loss,1,0.43733090000023367,0.44440319999921485,417.94224740000027,,,,,,,,,,,,,,,,,,,,,,22,C,2024-04-30_14h27.22.099,attentional_competition_task,2022.2.4,143.9364606904901,
positions.xlsx,positions_test.xlsx,positions_test_new.xlsx,stimuli.xlsx,stimuli_new.xlsx,stimuli/Social3.png,stimuli/Social4.png,stimuli/Nonsocial3.png,stimuli/Nonsocial4.png,stimuli/Social1.png,stimuli/Social2.png,stimuli/Nonsocial1.png,stimuli/Nonsocial2.png,cs_pos_s,"(-0.7, 0.5)",,,,,,,,,0,0,0,0,,,,,,,,,0,10,10,4,,,,,,,,,,,,,,,,,,,,,,,,,,,,,,,,,,,,,,425.71274509999967,-3,reward,1,0.653278700001465,0.6532954000012978,426.37246140000025,,,,,,,,,,,,,,,,,,,,,,22,C,2024-04-30_14h27.22.099,attentional_competition_task,2022.2.4,143.9364606904901,
positions.xlsx,positions_test.xlsx,positions_test_new.xlsx,stimuli.xlsx,stimuli_new.xlsx,stimuli/Social3.png,stimuli/Social4.png,stimuli/Nonsocial3.png,stimuli/Nonsocial4.png,stimuli/Social1.png,stimuli/Social2.png,stimuli/Nonsocial1.png,stimuli/Nonsocial2.png,cs_neg_s,"(-0.7, 0.5)",,,,,,,,,0,0,0,0,,,,,,,,,0,11,11,0,,,,,,,,,,,,,,,,,,,,,,,,,,,,,,,,,,,,,,433.91382049999993,-6,loss,1,0.24325060000046506,0.2432542000005924,434.1638559999992,,,,,,,,,,,,,,,,,,,,,,22,C,2024-04-30_14h27.22.099,attentional_competition_task,2022.2.4,143.9364606904901,
positions.xlsx,positions_test.xlsx,positions_test_new.xlsx,stimuli.xlsx,stimuli_new.xlsx,stimuli/Social3.png,stimuli/Social4.png,stimuli/Nonsocial3.png,stimuli/Nonsocial4.png,stimuli/Social1.png,stimuli/Social2.png,stimuli/Nonsocial1.png,stimuli/Nonsocial2.png,cs_pos_s,"(0.7, -0.5)",,,,,,,,,0,0,0,0,,,,,,,,,0,12,12,7,,,,,,,,,,,,,,,,,,,,,,,,,,,,,,,,,,,,,,441.4412835999992,-3,reward,1,0.5074583999994502,0.5074619999995775,441.9551499999998,,,,,,,,,,,,,,,,,,,,,,22,C,2024-04-30_14h27.22.099,attentional_competition_task,2022.2.4,143.9364606904901,
positions.xlsx,positions_test.xlsx,positions_test_new.xlsx,stimuli.xlsx,stimuli_new.xlsx,stimuli/Social3.png,stimuli/Social4.png,stimuli/Nonsocial3.png,stimuli/Nonsocial4.png,stimuli/Social1.png,stimuli/Social2.png,stimuli/Nonsocial1.png,stimuli/Nonsocial2.png,cs_neg_s,"(0.7, -0.5)",,,,,,,,,0,0,0,0,,,,,,,,,0,13,13,3,,,,,,,,,,,,,,,,,,,,,,,,,,,,,,,,,,,,,,448.9270854999995,-3,none,0,,,451.9478266999995,,,,,,,,,,,,,,,,,,,,,,22,C,2024-04-30_14h27.22.099,attentional_competition_task,2022.2.4,143.9364606904901,
positions.xlsx,positions_test.xlsx,positions_test_new.xlsx,stimuli.xlsx,stimuli_new.xlsx,stimuli/Social3.png,stimuli/Social4.png,stimuli/Nonsocial3.png,stimuli/Nonsocial4.png,stimuli/Social1.png,stimuli/Social2.png,stimuli/Nonsocial1.png,stimuli/Nonsocial2.png,cs_pos_ns,"(-0.7, 0.5)",,,,,,,,,0,0,0,0,,,,,,,,,0,14,14,12,,,,,,,,,,,,,,,,,,,,,,,,,,,,,,,,,,,,,,459.65582859999995,0,reward,1,0.15298839999923075,0.1529925999984698,459.81554789999973,,,,,,,,,,,,,,,,,,,,,,22,C,2024-04-30_14h27.22.099,attentional_competition_task,2022.2.4,143.9364606904901,
positions.xlsx,positions_test.xlsx,positions_test_new.xlsx,stimuli.xlsx,stimuli_new.xlsx,stimuli/Social3.png,stimuli/Social4.png,stimuli/Nonsocial3.png,stimuli/Nonsocial4.png,stimuli/Social1.png,stimuli/Social2.png,stimuli/Nonsocial1.png,stimuli/Nonsocial2.png,cs_pos_s,"(-0.7, -0.5)",,,,,,,,,0,0,0,0,,,,,,,,,0,15,15,5,,,,,,,,,,,,,,,,,,,,,,,,,,,,,,,,,,,,,,466.5999690999997,3,reward,1,0.38246389999949315,0.3824678999990283,466.98885750000045,,,,,,,,,,,,,,,,,,,,,,22,C,2024-04-30_14h27.22.099,attentional_competition_task,2022.2.4,143.9364606904901,
positions.xlsx,positions_test.xlsx,positions_test_new.xlsx,stimuli.xlsx,stimuli_new.xlsx,stimuli/Social3.png,stimuli/Social4.png,stimuli/Nonsocial3.png,stimuli/Nonsocial4.png,stimuli/Social1.png,stimuli/Social2.png,stimuli/Nonsocial1.png,stimuli/Nonsocial2.png,cs_pos_s,"(0.7, 0.5)",,,,,,,,,0,0,0,0,,,,,,,,,1,0,16,6,,,,,,,,,,,,,,,,,,,,,,,,,,,,,,,,,,,,,,474.5441303000007,6,reward,1,0.5210329000001366,0.5210365999992064,475.07185430000027,,,,,,,,,,,,,,,,,,,,,,22,C,2024-04-30_14h27.22.099,attentional_competition_task,2022.2.4,143.9364606904901,
positions.xlsx,positions_test.xlsx,positions_test_new.xlsx,stimuli.xlsx,stimuli_new.xlsx,stimuli/Social3.png,stimuli/Social4.png,stimuli/Nonsocial3.png,stimuli/Nonsocial4.png,stimuli/Social1.png,stimuli/Social2.png,stimuli/Nonsocial1.png,stimuli/Nonsocial2.png,cs_pos_ns,"(0.7, 0.5)",,,,,,,,,0,0,0,0,,,,,,,,,1,1,17,14,,,,,,,,,,,,,,,,,,,,,,,,,,,,,,,,,,,,,,482.34244969999963,9,reward,1,0.6457547999998496,0.645758399999977,482.9951660000006,,,,,,,,,,,,,,,,,,,,,,22,C,2024-04-30_14h27.22.099,attentional_competition_task,2022.2.4,143.9364606904901,
positions.xlsx,positions_test.xlsx,positions_test_new.xlsx,stimuli.xlsx,stimuli_new.xlsx,stimuli/Social3.png,stimuli/Social4.png,stimuli/Nonsocial3.png,stimuli/Nonsocial4.png,stimuli/Social1.png,stimuli/Social2.png,stimuli/Nonsocial1.png,stimuli/Nonsocial2.png,cs_pos_ns,"(-0.7, 0.5)",,,,,,,,,0,0,0,0,,,,,,,,,1,2,18,12,,,,,,,,,,,,,,,,,,,,,,,,,,,,,,,,,,,,,,490.67540910000025,12,reward,1,0.6113488000009966,0.6113523000003624,491.2934910999993,,,,,,,,,,,,,,,,,,,,,,22,C,2024-04-30_14h27.22.099,attentional_competition_task,2022.2.4,143.9364606904901,
positions.xlsx,positions_test.xlsx,positions_test_new.xlsx,stimuli.xlsx,stimuli_new.xlsx,stimuli/Social3.png,stimuli/Social4.png,stimuli/Nonsocial3.png,stimuli/Nonsocial4.png,stimuli/Social1.png,stimuli/Social2.png,stimuli/Nonsocial1.png,stimuli/Nonsocial2.png,cs_neg_ns,"(0.7, 0.5)",,,,,,,,,0,0,0,0,,,,,,,,,1,3,19,10,,,,,,,,,,,,,,,,,,,,,,,,,,,,,,,,,,,,,,498.27229289999923,9,loss,1,0.4238289999993867,0.42383239999981015,498.7028319000001,,,,,,,,,,,,,,,,,,,,,,22,C,2024-04-30_14h27.22.099,attentional_competition_task,2022.2.4,143.9364606904901,
positions.xlsx,positions_test.xlsx,positions_test_new.xlsx,stimuli.xlsx,stimuli_new.xlsx,stimuli/Social3.png,stimuli/Social4.png,stimuli/Nonsocial3.png,stimuli/Nonsocial4.png,stimuli/Social1.png,stimuli/Social2.png,stimuli/Nonsocial1.png,stimuli/Nonsocial2.png,cs_neg_ns,"(-0.7, -0.5)",,,,,,,,,0,0,0,0,,,,,,,,,1,4,20,9,,,,,,,,,,,,,,,,,,,,,,,,,,,,,,,,,,,,,,505.6122911000002,6,loss,1,0.8477567999998428,0.8477602000002662,506.466441999999,,,,,,,,,,,,,,,,,,,,,,22,C,2024-04-30_14h27.22.099,attentional_competition_task,2022.2.4,143.9364606904901,
positions.xlsx,positions_test.xlsx,positions_test_new.xlsx,stimuli.xlsx,stimuli_new.xlsx,stimuli/Social3.png,stimuli/Social4.png,stimuli/Nonsocial3.png,stimuli/Nonsocial4.png,stimuli/Social1.png,stimuli/Social2.png,stimuli/Nonsocial1.png,stimuli/Nonsocial2.png,cs_neg_s,"(0.7, -0.5)",,,,,,,,,0,0,0,0,,,,,,,,,1,5,21,3,,,,,,,,,,,,,,,,,,,,,,,,,,,,,,,,,,,,,,513.6952911000008,6,none,0,,,516.7021220999995,,,,,,,,,,,,,,,,,,,,,,22,C,2024-04-30_14h27.22.099,attentional_competition_task,2022.2.4,143.9364606904901,
positions.xlsx,positions_test.xlsx,positions_test_new.xlsx,stimuli.xlsx,stimuli_new.xlsx,stimuli/Social3.png,stimuli/Social4.png,stimuli/Nonsocial3.png,stimuli/Nonsocial4.png,stimuli/Social1.png,stimuli/Social2.png,stimuli/Nonsocial1.png,stimuli/Nonsocial2.png,cs_pos_ns,"(-0.7, -0.5)",,,,,,,,,0,0,0,0,,,,,,,,,1,6,22,13,,,,,,,,,,,,,,,,,,,,,,,,,,,,,,,,,,,,,,524.1948986999996,9,reward,1,0.8963580999989063,0.8963614999993297,525.0976506000006,,,,,,,,,,,,,,,,,,,,,,22,C,2024-04-30_14h27.22.099,attentional_competition_task,2022.2.4,143.9364606904901,
positions.xlsx,positions_test.xlsx,positions_test_new.xlsx,stimuli.xlsx,stimuli_new.xlsx,stimuli/Social3.png,stimuli/Social4.png,stimuli/Nonsocial3.png,stimuli/Nonsocial4.png,stimuli/Social1.png,stimuli/Social2.png,stimuli/Nonsocial1.png,stimuli/Nonsocial2.png,cs_neg_ns,"(-0.7, 0.5)",,,,,,,,,0,0,0,0,,,,,,,,,1,7,23,8,,,,,,,,,,,,,,,,,,,,,,,,,,,,,,,,,,,,,,533.3195226999997,9,none,0,,,536.3332828999992,,,,,,,,,,,,,,,,,,,,,,22,C,2024-04-30_14h27.22.099,attentional_competition_task,2022.2.4,143.9364606904901,
positions.xlsx,positions_test.xlsx,positions_test_new.xlsx,stimuli.xlsx,stimuli_new.xlsx,stimuli/Social3.png,stimuli/Social4.png,stimuli/Nonsocial3.png,stimuli/Nonsocial4.png,stimuli/Social1.png,stimuli/Social2.png,stimuli/Nonsocial1.png,stimuli/Nonsocial2.png,cs_pos_s,"(-0.7, 0.5)",,,,,,,,,0,0,0,0,,,,,,,,,1,8,24,4,,,,,,,,,,,,,,,,,,,,,,,,,,,,,,,,,,,,,,544.4926708000003,12,reward,1,0.48689030000059574,0.486894100000427,544.9856822000002,,,,,,,,,,,,,,,,,,,,,,22,C,2024-04-30_14h27.22.099,attentional_competition_task,2022.2.4,143.9364606904901,
positions.xlsx,positions_test.xlsx,positions_test_new.xlsx,stimuli.xlsx,stimuli_new.xlsx,stimuli/Social3.png,stimuli/Social4.png,stimuli/Nonsocial3.png,stimuli/Nonsocial4.png,stimuli/Social1.png,stimuli/Social2.png,stimuli/Nonsocial1.png,stimuli/Nonsocial2.png,cs_pos_s,"(0.7, -0.5)",,,,,,,,,0,0,0,0,,,,,,,,,1,9,25,7,,,,,,,,,,,,,,,,,,,,,,,,,,,,,,,,,,,,,,553.1243018999994,15,reward,1,0.4929179999999178,0.49292160000004515,553.624256699999,,,,,,,,,,,,,,,,,,,,,,22,C,2024-04-30_14h27.22.099,attentional_competition_task,2022.2.4,143.9364606904901,
positions.xlsx,positions_test.xlsx,positions_test_new.xlsx,stimuli.xlsx,stimuli_new.xlsx,stimuli/Social3.png,stimuli/Social4.png,stimuli/Nonsocial3.png,stimuli/Nonsocial4.png,stimuli/Social1.png,stimuli/Social2.png,stimuli/Nonsocial1.png,stimuli/Nonsocial2.png,cs_neg_s,"(0.7, 0.5)",,,,,,,,,0,0,0,0,,,,,,,,,1,10,26,2,,,,,,,,,,,,,,,,,,,,,,,,,,,,,,,,,,,,,,561.1378635000001,12,loss,1,0.41000979999989795,0.41001349999896775,561.5544685000004,,,,,,,,,,,,,,,,,,,,,,22,C,2024-04-30_14h27.22.099,attentional_competition_task,2022.2.4,143.9364606904901,
positions.xlsx,positions_test.xlsx,positions_test_new.xlsx,stimuli.xlsx,stimuli_new.xlsx,stimuli/Social3.png,stimuli/Social4.png,stimuli/Nonsocial3.png,stimuli/Nonsocial4.png,stimuli/Social1.png,stimuli/Social2.png,stimuli/Nonsocial1.png,stimuli/Nonsocial2.png,cs_pos_s,"(-0.7, -0.5)",,,,,,,,,0,0,0,0,,,,,,,,,1,11,27,5,,,,,,,,,,,,,,,,,,,,,,,,,,,,,,,,,,,,,,569.4569618000005,15,reward,1,0.5696406000006391,0.577492300000813,570.0403117999995,,,,,,,,,,,,,,,,,,,,,,22,C,2024-04-30_14h27.22.099,attentional_competition_task,2022.2.4,143.9364606904901,
positions.xlsx,positions_test.xlsx,positions_test_new.xlsx,stimuli.xlsx,stimuli_new.xlsx,stimuli/Social3.png,stimuli/Social4.png,stimuli/Nonsocial3.png,stimuli/Nonsocial4.png,stimuli/Social1.png,stimuli/Social2.png,stimuli/Nonsocial1.png,stimuli/Nonsocial2.png,cs_neg_s,"(-0.7, 0.5)",,,,,,,,,0,0,0,0,,,,,,,,,1,12,28,0,,,,,,,,,,,,,,,,,,,,,,,,,,,,,,,,,,,,,,578.0954739999997,15,none,0,,,581.1092477999991,,,,,,,,,,,,,,,,,,,,,,22,C,2024-04-30_14h27.22.099,attentional_competition_task,2022.2.4,143.9364606904901,
positions.xlsx,positions_test.xlsx,positions_test_new.xlsx,stimuli.xlsx,stimuli_new.xlsx,stimuli/Social3.png,stimuli/Social4.png,stimuli/Nonsocial3.png,stimuli/Nonsocial4.png,stimuli/Social1.png,stimuli/Social2.png,stimuli/Nonsocial1.png,stimuli/Nonsocial2.png,cs_neg_s,"(-0.7, -0.5)",,,,,,,,,0,0,0,0,,,,,,,,,1,13,29,1,,,,,,,,,,,,,,,,,,,,,,,,,,,,,,,,,,,,,,588.1367231999993,15,none,0,,,591.1436350000004,,,,,,,,,,,,,,,,,,,,,,22,C,2024-04-30_14h27.22.099,attentional_competition_task,2022.2.4,143.9364606904901,
positions.xlsx,positions_test.xlsx,positions_test_new.xlsx,stimuli.xlsx,stimuli_new.xlsx,stimuli/Social3.png,stimuli/Social4.png,stimuli/Nonsocial3.png,stimuli/Nonsocial4.png,stimuli/Social1.png,stimuli/Social2.png,stimuli/Nonsocial1.png,stimuli/Nonsocial2.png,cs_neg_ns,"(0.7, -0.5)",,,,,,,,,0,0,0,0,,,,,,,,,1,14,30,11,,,,,,,,,,,,,,,,,,,,,,,,,,,,,,,,,,,,,,599.2543645000005,12,loss,1,1.0071347999983118,1.0071384999992006,600.2682076000001,,,,,,,,,,,,,,,,,,,,,,22,C,2024-04-30_14h27.22.099,attentional_competition_task,2022.2.4,143.9364606904901,
positions.xlsx,positions_test.xlsx,positions_test_new.xlsx,stimuli.xlsx,stimuli_new.xlsx,stimuli/Social3.png,stimuli/Social4.png,stimuli/Nonsocial3.png,stimuli/Nonsocial4.png,stimuli/Social1.png,stimuli/Social2.png,stimuli/Nonsocial1.png,stimuli/Nonsocial2.png,cs_pos_ns,"(0.7, -0.5)",,,,,,,,,0,0,0,0,,,,,,,,,1,15,31,15,,,,,,,,,,,,,,,,,,,,,,,,,,,,,,,,,,,,,,607.6915193000004,15,reward,1,0.604439700000512,0.6044433999995817,608.3026236999995,,,,,,,,,,,,,,,,,,,,,,22,C,2024-04-30_14h27.22.099,attentional_competition_task,2022.2.4,143.9364606904901,
positions.xlsx,positions_test.xlsx,positions_test_new.xlsx,stimuli.xlsx,stimuli_new.xlsx,stimuli/Social3.png,stimuli/Social4.png,stimuli/Nonsocial3.png,stimuli/Nonsocial4.png,stimuli/Social1.png,stimuli/Social2.png,stimuli/Nonsocial1.png,stimuli/Nonsocial2.png,cs_neg_s,"(0.7, 0.5)",,,,,,,,,0,0,0,0,,,,,,,,,,,,,0,0,0,2,,,,,,,,,,,,,,,,,,,,,,,,,,,,,,,,,,638.5583506000003,15,none,0,,,641.5721756000003,,,,,,,,,,,,,,,,,,,,,,22,C,2024-04-30_14h27.22.099,attentional_competition_task,2022.2.4,143.9364606904901,
positions.xlsx,positions_test.xlsx,positions_test_new.xlsx,stimuli.xlsx,stimuli_new.xlsx,stimuli/Social3.png,stimuli/Social4.png,stimuli/Nonsocial3.png,stimuli/Nonsocial4.png,stimuli/Social1.png,stimuli/Social2.png,stimuli/Nonsocial1.png,stimuli/Nonsocial2.png,cs_pos_ns,"(0.7, 0.5)",,,,,,,,,0,0,0,0,,,,,,,,,,,,,0,1,1,14,,,,,,,,,,,,,,,,,,,,,,,,,,,,,,,,,,649.1065156999994,18,reward,1,0.6876080000001821,0.6876116000003094,649.8010090999996,,,,,,,,,,,,,,,,,,,,,,22,C,2024-04-30_14h27.22.099,attentional_competition_task,2022.2.4,143.9364606904901,
positions.xlsx,positions_test.xlsx,positions_test_new.xlsx,stimuli.xlsx,stimuli_new.xlsx,stimuli/Social3.png,stimuli/Social4.png,stimuli/Nonsocial3.png,stimuli/Nonsocial4.png,stimuli/Social1.png,stimuli/Social2.png,stimuli/Nonsocial1.png,stimuli/Nonsocial2.png,cs_neg_s,"(-0.7, 0.5)",,,,,,,,,0,0,0,0,,,,,,,,,,,,,0,2,2,0,,,,,,,,,,,,,,,,,,,,,,,,,,,,,,,,,,657.5645789999999,18,none,0,,,660.5783429000003,,,,,,,,,,,,,,,,,,,,,,22,C,2024-04-30_14h27.22.099,attentional_competition_task,2022.2.4,143.9364606904901,
positions.xlsx,positions_test.xlsx,positions_test_new.xlsx,stimuli.xlsx,stimuli_new.xlsx,stimuli/Social3.png,stimuli/Social4.png,stimuli/Nonsocial3.png,stimuli/Nonsocial4.png,stimuli/Social1.png,stimuli/Social2.png,stimuli/Nonsocial1.png,stimuli/Nonsocial2.png,cs_pos_ns,"(0.7, -0.5)",,,,,,,,,0,0,0,0,,,,,,,,,,,,,0,3,3,15,,,,,,,,,,,,,,,,,,,,,,,,,,,,,,,,,,667.8280180000002,21,reward,1,0.6392035000008036,0.639207099999112,668.4738003999992,,,,,,,,,,,,,,,,,,,,,,22,C,2024-04-30_14h27.22.099,attentional_competition_task,2022.2.4,143.9364606904901,
positions.xlsx,positions_test.xlsx,positions_test_new.xlsx,stimuli.xlsx,stimuli_new.xlsx,stimuli/Social3.png,stimuli/Social4.png,stimuli/Nonsocial3.png,stimuli/Nonsocial4.png,stimuli/Social1.png,stimuli/Social2.png,stimuli/Nonsocial1.png,stimuli/Nonsocial2.png,cs_pos_ns,"(-0.7, 0.5)",,,,,,,,,0,0,0,0,,,,,,,,,,,,,0,4,4,12,,,,,,,,,,,,,,,,,,,,,,,,,,,,,,,,,,675.4735634999997,24,reward,1,0.742739100000108,0.7427427000002353,676.2235502999993,,,,,,,,,,,,,,,,,,,,,,22,C,2024-04-30_14h27.22.099,attentional_competition_task,2022.2.4,143.9364606904901,
positions.xlsx,positions_test.xlsx,positions_test_new.xlsx,stimuli.xlsx,stimuli_new.xlsx,stimuli/Social3.png,stimuli/Social4.png,stimuli/Nonsocial3.png,stimuli/Nonsocial4.png,stimuli/Social1.png,stimuli/Social2.png,stimuli/Nonsocial1.png,stimuli/Nonsocial2.png,cs_neg_s,"(0.7, -0.5)",,,,,,,,,0,0,0,0,,,,,,,,,,,,,0,5,5,3,,,,,,,,,,,,,,,,,,,,,,,,,,,,,,,,,,683.2232213999996,24,none,0,,,686.2369954999995,,,,,,,,,,,,,,,,,,,,,,22,C,2024-04-30_14h27.22.099,attentional_competition_task,2022.2.4,143.9364606904901,
positions.xlsx,positions_test.xlsx,positions_test_new.xlsx,stimuli.xlsx,stimuli_new.xlsx,stimuli/Social3.png,stimuli/Social4.png,stimuli/Nonsocial3.png,stimuli/Nonsocial4.png,stimuli/Social1.png,stimuli/Social2.png,stimuli/Nonsocial1.png,stimuli/Nonsocial2.png,cs_neg_ns,"(-0.7, 0.5)",,,,,,,,,0,0,0,0,,,,,,,,,,,,,0,6,6,8,,,,,,,,,,,,,,,,,,,,,,,,,,,,,,,,,,693.9450140999998,24,none,0,,,696.9588117999992,,,,,,,,,,,,,,,,,,,,,,22,C,2024-04-30_14h27.22.099,attentional_competition_task,2022.2.4,143.9364606904901,
positions.xlsx,positions_test.xlsx,positions_test_new.xlsx,stimuli.xlsx,stimuli_new.xlsx,stimuli/Social3.png,stimuli/Social4.png,stimuli/Nonsocial3.png,stimuli/Nonsocial4.png,stimuli/Social1.png,stimuli/Social2.png,stimuli/Nonsocial1.png,stimuli/Nonsocial2.png,cs_pos_s,"(0.7, -0.5)",,,,,,,,,0,0,0,0,,,,,,,,,,,,,0,7,7,7,,,,,,,,,,,,,,,,,,,,,,,,,,,,,,,,,,704.7154363999998,27,reward,1,0.6457984000007855,0.6458019000001514,705.3681754999998,,,,,,,,,,,,,,,,,,,,,,22,C,2024-04-30_14h27.22.099,attentional_competition_task,2022.2.4,143.9364606904901,
positions.xlsx,positions_test.xlsx,positions_test_new.xlsx,stimuli.xlsx,stimuli_new.xlsx,stimuli/Social3.png,stimuli/Social4.png,stimuli/Nonsocial3.png,stimuli/Nonsocial4.png,stimuli/Social1.png,stimuli/Social2.png,stimuli/Nonsocial1.png,stimuli/Nonsocial2.png,cs_pos_s,"(-0.7, -0.5)",,,,,,,,,0,0,0,0,,,,,,,,,,,,,0,8,8,5,,,,,,,,,,,,,,,,,,,,,,,,,,,,,,,,,,713.0970305999999,30,reward,1,0.5489309000004141,0.5489347000002454,713.6525282000002,,,,,,,,,,,,,,,,,,,,,,22,C,2024-04-30_14h27.22.099,attentional_competition_task,2022.2.4,143.9364606904901,
positions.xlsx,positions_test.xlsx,positions_test_new.xlsx,stimuli.xlsx,stimuli_new.xlsx,stimuli/Social3.png,stimuli/Social4.png,stimuli/Nonsocial3.png,stimuli/Nonsocial4.png,stimuli/Social1.png,stimuli/Social2.png,stimuli/Nonsocial1.png,stimuli/Nonsocial2.png,cs_pos_s,"(-0.7, 0.5)",,,,,,,,,0,0,0,0,,,,,,,,,,,,,0,9,9,4,,,,,,,,,,,,,,,,,,,,,,,,,,,,,,,,,,721.3397206999998,33,reward,1,0.3687076000005618,0.36871120000068913,721.7147373000007,,,,,,,,,,,,,,,,,,,,,,22,C,2024-04-30_14h27.22.099,attentional_competition_task,2022.2.4,143.9364606904901,
positions.xlsx,positions_test.xlsx,positions_test_new.xlsx,stimuli.xlsx,stimuli_new.xlsx,stimuli/Social3.png,stimuli/Social4.png,stimuli/Nonsocial3.png,stimuli/Nonsocial4.png,stimuli/Social1.png,stimuli/Social2.png,stimuli/Nonsocial1.png,stimuli/Nonsocial2.png,cs_pos_ns,"(-0.7, -0.5)",,,,,,,,,0,0,0,0,,,,,,,,,,,,,0,10,10,13,,,,,,,,,,,,,,,,,,,,,,,,,,,,,,,,,,729.6171789,36,reward,1,0.743204300000798,0.7432076999994024,730.3671692999997,,,,,,,,,,,,,,,,,,,,,,22,C,2024-04-30_14h27.22.099,attentional_competition_task,2022.2.4,143.9364606904901,
positions.xlsx,positions_test.xlsx,positions_test_new.xlsx,stimuli.xlsx,stimuli_new.xlsx,stimuli/Social3.png,stimuli/Social4.png,stimuli/Nonsocial3.png,stimuli/Nonsocial4.png,stimuli/Social1.png,stimuli/Social2.png,stimuli/Nonsocial1.png,stimuli/Nonsocial2.png,cs_neg_ns,"(0.7, 0.5)",,,,,,,,,0,0,0,0,,,,,,,,,,,,,0,11,11,10,,,,,,,,,,,,,,,,,,,,,,,,,,,,,,,,,,737.6168794000005,36,none,0,,,740.6306265000003,,,,,,,,,,,,,,,,,,,,,,22,C,2024-04-30_14h27.22.099,attentional_competition_task,2022.2.4,143.9364606904901,
positions.xlsx,positions_test.xlsx,positions_test_new.xlsx,stimuli.xlsx,stimuli_new.xlsx,stimuli/Social3.png,stimuli/Social4.png,stimuli/Nonsocial3.png,stimuli/Nonsocial4.png,stimuli/Social1.png,stimuli/Social2.png,stimuli/Nonsocial1.png,stimuli/Nonsocial2.png,cs_neg_ns,"(-0.7, -0.5)",,,,,,,,,0,0,0,0,,,,,,,,,,,,,0,12,12,9,,,,,,,,,,,,,,,,,,,,,,,,,,,,,,,,,,747.7900704000003,36,none,0,,,750.8038715999992,,,,,,,,,,,,,,,,,,,,,,22,C,2024-04-30_14h27.22.099,attentional_competition_task,2022.2.4,143.9364606904901,
positions.xlsx,positions_test.xlsx,positions_test_new.xlsx,stimuli.xlsx,stimuli_new.xlsx,stimuli/Social3.png,stimuli/Social4.png,stimuli/Nonsocial3.png,stimuli/Nonsocial4.png,stimuli/Social1.png,stimuli/Social2.png,stimuli/Nonsocial1.png,stimuli/Nonsocial2.png,cs_pos_s,"(0.7, 0.5)",,,,,,,,,0,0,0,0,,,,,,,,,,,,,0,13,13,6,,,,,,,,,,,,,,,,,,,,,,,,,,,,,,,,,,758.8312984999993,39,reward,1,0.47927979999985837,0.47928390000015497,759.3173814000002,,,,,,,,,,,,,,,,,,,,,,22,C,2024-04-30_14h27.22.099,attentional_competition_task,2022.2.4,143.9364606904901,
positions.xlsx,positions_test.xlsx,positions_test_new.xlsx,stimuli.xlsx,stimuli_new.xlsx,stimuli/Social3.png,stimuli/Social4.png,stimuli/Nonsocial3.png,stimuli/Nonsocial4.png,stimuli/Social1.png,stimuli/Social2.png,stimuli/Nonsocial1.png,stimuli/Nonsocial2.png,cs_neg_s,"(-0.7, -0.5)",,,,,,,,,0,0,0,0,,,,,,,,,,,,,0,14,14,1,,,,,,,,,,,,,,,,,,,,,,,,,,,,,,,,,,766.7268160999993,39,none,0,,,769.7405956999992,,,,,,,,,,,,,,,,,,,,,,22,C,2024-04-30_14h27.22.099,attentional_competition_task,2022.2.4,143.9364606904901,
positions.xlsx,positions_test.xlsx,positions_test_new.xlsx,stimuli.xlsx,stimuli_new.xlsx,stimuli/Social3.png,stimuli/Social4.png,stimuli/Nonsocial3.png,stimuli/Nonsocial4.png,stimuli/Social1.png,stimuli/Social2.png,stimuli/Nonsocial1.png,stimuli/Nonsocial2.png,cs_neg_ns,"(0.7, -0.5)",,,,,,,,,0,0,0,0,,,,,,,,,,,,,0,15,15,11,,,,,,,,,,,,,,,,,,,,,,,,,,,,,,,,,,776.3791803000004,39,none,0,,,779.392944199999,,,,,,,,,,,,,,,,,,,,,,22,C,2024-04-30_14h27.22.099,attentional_competition_task,2022.2.4,143.9364606904901,
positions.xlsx,positions_test.xlsx,positions_test_new.xlsx,stimuli.xlsx,stimuli_new.xlsx,stimuli/Social3.png,stimuli/Social4.png,stimuli/Nonsocial3.png,stimuli/Nonsocial4.png,stimuli/Social1.png,stimuli/Social2.png,stimuli/Nonsocial1.png,stimuli/Nonsocial2.png,cs_neg_s,"(-0.7, -0.5)",,,,,,,,,0,0,0,0,,,,,,,,,,,,,1,0,16,1,,,,,,,,,,,,,,,,,,,,,,,,,,,,,,,,,,787.5523912999997,39,none,0,,,790.5661130999997,,,,,,,,,,,,,,,,,,,,,,22,C,2024-04-30_14h27.22.099,attentional_competition_task,2022.2.4,143.9364606904901,
positions.xlsx,positions_test.xlsx,positions_test_new.xlsx,stimuli.xlsx,stimuli_new.xlsx,stimuli/Social3.png,stimuli/Social4.png,stimuli/Nonsocial3.png,stimuli/Nonsocial4.png,stimuli/Social1.png,stimuli/Social2.png,stimuli/Nonsocial1.png,stimuli/Nonsocial2.png,cs_pos_s,"(0.7, 0.5)",,,,,,,,,0,0,0,0,,,,,,,,,,,,,1,1,17,6,,,,,,,,,,,,,,,,,,,,,,,,,,,,,,,,,,798.1977578999995,42,reward,1,0.5349716000000626,0.5349752999991324,798.739420599999,,,,,,,,,,,,,,,,,,,,,,22,C,2024-04-30_14h27.22.099,attentional_competition_task,2022.2.4,143.9364606904901,
positions.xlsx,positions_test.xlsx,positions_test_new.xlsx,stimuli.xlsx,stimuli_new.xlsx,stimuli/Social3.png,stimuli/Social4.png,stimuli/Nonsocial3.png,stimuli/Nonsocial4.png,stimuli/Social1.png,stimuli/Social2.png,stimuli/Nonsocial1.png,stimuli/Nonsocial2.png,cs_pos_s,"(-0.7, -0.5)",,,,,,,,,0,0,0,0,,,,,,,,,,,,,1,2,18,5,,,,,,,,,,,,,,,,,,,,,,,,,,,,,,,,,,806.5516059000001,45,reward,1,0.5556088000012096,0.5556260000012117,807.1141016000001,,,,,,,,,,,,,,,,,,,,,,22,C,2024-04-30_14h27.22.099,attentional_competition_task,2022.2.4,143.9364606904901,
positions.xlsx,positions_test.xlsx,positions_test_new.xlsx,stimuli.xlsx,stimuli_new.xlsx,stimuli/Social3.png,stimuli/Social4.png,stimuli/Nonsocial3.png,stimuli/Nonsocial4.png,stimuli/Social1.png,stimuli/Social2.png,stimuli/Nonsocial1.png,stimuli/Nonsocial2.png,cs_pos_ns,"(0.7, 0.5)",,,,,,,,,0,0,0,0,,,,,,,,,,,,,1,3,19,14,,,,,,,,,,,,,,,,,,,,,,,,,,,,,,,,,,814.377628799999,48,reward,1,0.7148316000002524,0.7148354999990261,815.0998562000004,,,,,,,,,,,,,,,,,,,,,,22,C,2024-04-30_14h27.22.099,attentional_competition_task,2022.2.4,143.9364606904901,
positions.xlsx,positions_test.xlsx,positions_test_new.xlsx,stimuli.xlsx,stimuli_new.xlsx,stimuli/Social3.png,stimuli/Social4.png,stimuli/Nonsocial3.png,stimuli/Nonsocial4.png,stimuli/Social1.png,stimuli/Social2.png,stimuli/Nonsocial1.png,stimuli/Nonsocial2.png,cs_neg_s,"(0.7, -0.5)",,,,,,,,,0,0,0,0,,,,,,,,,,,,,1,4,20,3,,,,,,,,,,,,,,,,,,,,,,,,,,,,,,,,,,822.5926330999991,48,none,0,,,825.6063680000007,,,,,,,,,,,,,,,,,,,,,,22,C,2024-04-30_14h27.22.099,attentional_competition_task,2022.2.4,143.9364606904901,
positions.xlsx,positions_test.xlsx,positions_test_new.xlsx,stimuli.xlsx,stimuli_new.xlsx,stimuli/Social3.png,stimuli/Social4.png,stimuli/Nonsocial3.png,stimuli/Nonsocial4.png,stimuli/Social1.png,stimuli/Social2.png,stimuli/Nonsocial1.png,stimuli/Nonsocial2.png,cs_pos_ns,"(0.7, -0.5)",,,,,,,,,0,0,0,0,,,,,,,,,,,,,1,5,21,15,,,,,,,,,,,,,,,,,,,,,,,,,,,,,,,,,,833.0852395999991,51,reward,1,0.5766824000002089,0.576686399999744,833.6685761999997,,,,,,,,,,,,,,,,,,,,,,22,C,2024-04-30_14h27.22.099,attentional_competition_task,2022.2.4,143.9364606904901,
positions.xlsx,positions_test.xlsx,positions_test_new.xlsx,stimuli.xlsx,stimuli_new.xlsx,stimuli/Social3.png,stimuli/Social4.png,stimuli/Nonsocial3.png,stimuli/Nonsocial4.png,stimuli/Social1.png,stimuli/Social2.png,stimuli/Nonsocial1.png,stimuli/Nonsocial2.png,cs_pos_ns,"(-0.7, -0.5)",,,,,,,,,0,0,0,0,,,,,,,,,,,,,1,6,22,13,,,,,,,,,,,,,,,,,,,,,,,,,,,,,,,,,,840.911356999999,54,reward,1,0.6255302000008669,0.6255338000009942,841.5432540999991,,,,,,,,,,,,,,,,,,,,,,22,C,2024-04-30_14h27.22.099,attentional_competition_task,2022.2.4,143.9364606904901,
positions.xlsx,positions_test.xlsx,positions_test_new.xlsx,stimuli.xlsx,stimuli_new.xlsx,stimuli/Social3.png,stimuli/Social4.png,stimuli/Nonsocial3.png,stimuli/Nonsocial4.png,stimuli/Social1.png,stimuli/Social2.png,stimuli/Nonsocial1.png,stimuli/Nonsocial2.png,cs_neg_ns,"(-0.7, -0.5)",,,,,,,,,0,0,0,0,,,,,,,,,,,,,1,7,23,9,,,,,,,,,,,,,,,,,,,,,,,,,,,,,,,,,,848.9874362999999,54,none,0,,,852.001194299999,,,,,,,,,,,,,,,,,,,,,,22,C,2024-04-30_14h27.22.099,attentional_competition_task,2022.2.4,143.9364606904901,
positions.xlsx,positions_test.xlsx,positions_test_new.xlsx,stimuli.xlsx,stimuli_new.xlsx,stimuli/Social3.png,stimuli/Social4.png,stimuli/Nonsocial3.png,stimuli/Nonsocial4.png,stimuli/Social1.png,stimuli/Social2.png,stimuli/Nonsocial1.png,stimuli/Nonsocial2.png,cs_pos_s,"(0.7, -0.5)",,,,,,,,,0,0,0,0,,,,,,,,,,,,,1,8,24,7,,,,,,,,,,,,,,,,,,,,,,,,,,,,,,,,,,859.8480822000001,57,reward,1,0.45800579999922775,0.45800969999982044,860.3133651000007,,,,,,,,,,,,,,,,,,,,,,22,C,2024-04-30_14h27.22.099,attentional_competition_task,2022.2.4,143.9364606904901,
positions.xlsx,positions_test.xlsx,positions_test_new.xlsx,stimuli.xlsx,stimuli_new.xlsx,stimuli/Social3.png,stimuli/Social4.png,stimuli/Nonsocial3.png,stimuli/Nonsocial4.png,stimuli/Social1.png,stimuli/Social2.png,stimuli/Nonsocial1.png,stimuli/Nonsocial2.png,cs_neg_ns,"(0.7, 0.5)",,,,,,,,,0,0,0,0,,,,,,,,,,,,,1,9,25,10,,,,,,,,,,,,,,,,,,,,,,,,,,,,,,,,,,867.4103037999994,57,none,0,,,870.4240379999992,,,,,,,,,,,,,,,,,,,,,,22,C,2024-04-30_14h27.22.099,attentional_competition_task,2022.2.4,143.9364606904901,
positions.xlsx,positions_test.xlsx,positions_test_new.xlsx,stimuli.xlsx,stimuli_new.xlsx,stimuli/Social3.png,stimuli/Social4.png,stimuli/Nonsocial3.png,stimuli/Nonsocial4.png,stimuli/Social1.png,stimuli/Social2.png,stimuli/Nonsocial1.png,stimuli/Nonsocial2.png,cs_neg_ns,"(0.7, -0.5)",,,,,,,,,0,0,0,0,,,,,,,,,,,,,1,10,26,11,,,,,,,,,,,,,,,,,,,,,,,,,,,,,,,,,,878.7084257999995,57,none,0,,,881.7152509999996,,,,,,,,,,,,,,,,,,,,,,22,C,2024-04-30_14h27.22.099,attentional_competition_task,2022.2.4,143.9364606904901,
positions.xlsx,positions_test.xlsx,positions_test_new.xlsx,stimuli.xlsx,stimuli_new.xlsx,stimuli/Social3.png,stimuli/Social4.png,stimuli/Nonsocial3.png,stimuli/Nonsocial4.png,stimuli/Social1.png,stimuli/Social2.png,stimuli/Nonsocial1.png,stimuli/Nonsocial2.png,cs_pos_s,"(-0.7, 0.5)",,,,,,,,,0,0,0,0,,,,,,,,,,,,,1,11,27,4,,,,,,,,,,,,,,,,,,,,,,,,,,,,,,,,,,889.0135785999992,60,reward,1,0.5277121999988594,0.5277176999989024,889.5482711000004,,,,,,,,,,,,,,,,,,,,,,22,C,2024-04-30_14h27.22.099,attentional_competition_task,2022.2.4,143.9364606904901,
positions.xlsx,positions_test.xlsx,positions_test_new.xlsx,stimuli.xlsx,stimuli_new.xlsx,stimuli/Social3.png,stimuli/Social4.png,stimuli/Nonsocial3.png,stimuli/Nonsocial4.png,stimuli/Social1.png,stimuli/Social2.png,stimuli/Nonsocial1.png,stimuli/Nonsocial2.png,cs_neg_s,"(-0.7, 0.5)",,,,,,,,,0,0,0,0,,,,,,,,,,,,,1,12,28,0,,,,,,,,,,,,,,,,,,,,,,,,,,,,,,,,,,897.0827011000001,60,none,0,,,900.0965139,,,,,,,,,,,,,,,,,,,,,,22,C,2024-04-30_14h27.22.099,attentional_competition_task,2022.2.4,143.9364606904901,
positions.xlsx,positions_test.xlsx,positions_test_new.xlsx,stimuli.xlsx,stimuli_new.xlsx,stimuli/Social3.png,stimuli/Social4.png,stimuli/Nonsocial3.png,stimuli/Nonsocial4.png,stimuli/Social1.png,stimuli/Social2.png,stimuli/Nonsocial1.png,stimuli/Nonsocial2.png,cs_pos_ns,"(-0.7, 0.5)",,,,,,,,,0,0,0,0,,,,,,,,,,,,,1,13,29,12,,,,,,,,,,,,,,,,,,,,,,,,,,,,,,,,,,907.8252962000006,63,reward,1,0.47952190000069095,0.4795257000005222,908.3113847000004,,,,,,,,,,,,,,,,,,,,,,22,C,2024-04-30_14h27.22.099,attentional_competition_task,2022.2.4,143.9364606904901,
positions.xlsx,positions_test.xlsx,positions_test_new.xlsx,stimuli.xlsx,stimuli_new.xlsx,stimuli/Social3.png,stimuli/Social4.png,stimuli/Nonsocial3.png,stimuli/Nonsocial4.png,stimuli/Social1.png,stimuli/Social2.png,stimuli/Nonsocial1.png,stimuli/Nonsocial2.png,cs_neg_s,"(0.7, 0.5)",,,,,,,,,0,0,0,0,,,,,,,,,,,,,1,14,30,2,,,,,,,,,,,,,,,,,,,,,,,,,,,,,,,,,,914.9778005999997,63,none,0,,,917.9915461,,,,,,,,,,,,,,,,,,,,,,22,C,2024-04-30_14h27.22.099,attentional_competition_task,2022.2.4,143.9364606904901,
positions.xlsx,positions_test.xlsx,positions_test_new.xlsx,stimuli.xlsx,stimuli_new.xlsx,stimuli/Social3.png,stimuli/Social4.png,stimuli/Nonsocial3.png,stimuli/Nonsocial4.png,stimuli/Social1.png,stimuli/Social2.png,stimuli/Nonsocial1.png,stimuli/Nonsocial2.png,cs_neg_ns,"(-0.7, 0.5)",,,,,,,,,0,0,0,0,,,,,,,,,,,,,1,15,31,8,,,,,,,,,,,,,,,,,,,,,,,,,,,,,,,,,,925.2690631999994,63,none,0,,,928.2758622000001,,,,,,,,,,,,,,,,,,,,,,22,C,2024-04-30_14h27.22.099,attentional_competition_task,2022.2.4,143.9364606904901,
positions.xlsx,positions_test.xlsx,positions_test_new.xlsx,stimuli.xlsx,stimuli_new.xlsx,stimuli/Social3.png,stimuli/Social4.png,stimuli/Nonsocial3.png,stimuli/Nonsocial4.png,stimuli/Social1.png,stimuli/Social2.png,stimuli/Nonsocial1.png,stimuli/Nonsocial2.png,cs_neg_ns,,,,,,,,,,0,0,0,0,,,,,,,,,,,,,,,,,0,0,0,1,,,,,,,,,,,,,,,,,,,,,,,933.1298568000002,7.0,7.205476099999942,,,,,,,,,,,,,,,,,,,,,,,,,,,,,,,,,22,C,2024-04-30_14h27.22.099,attentional_competition_task,2022.2.4,143.9364606904901,
positions.xlsx,positions_test.xlsx,positions_test_new.xlsx,stimuli.xlsx,stimuli_new.xlsx,stimuli/Social3.png,stimuli/Social4.png,stimuli/Nonsocial3.png,stimuli/Nonsocial4.png,stimuli/Social1.png,stimuli/Social2.png,stimuli/Nonsocial1.png,stimuli/Nonsocial2.png,cs_pos_s,,,,,,,,,,0,0,0,0,,,,,,,,,,,,,,,,,0,1,1,2,,,,,,,,,,,,,,,,,,,,,,,941.9628429999993,7.0,3.2098086000005424,,,,,,,,,,,,,,,,,,,,,,,,,,,,,,,,,22,C,2024-04-30_14h27.22.099,attentional_competition_task,2022.2.4,143.9364606904901,
positions.xlsx,positions_test.xlsx,positions_test_new.xlsx,stimuli.xlsx,stimuli_new.xlsx,stimuli/Social3.png,stimuli/Social4.png,stimuli/Nonsocial3.png,stimuli/Nonsocial4.png,stimuli/Social1.png,stimuli/Social2.png,stimuli/Nonsocial1.png,stimuli/Nonsocial2.png,cs_pos_ns,,,,,,,,,,0,0,0,0,,,,,,,,,,,,,,,,,0,2,2,3,,,,,,,,,,,,,,,,,,,,,,,945.3516285999995,7.0,3.834647399999085,,,,,,,,,,,,,,,,,,,,,,,,,,,,,,,,,22,C,2024-04-30_14h27.22.099,attentional_competition_task,2022.2.4,143.9364606904901,
positions.xlsx,positions_test.xlsx,positions_test_new.xlsx,stimuli.xlsx,stimuli_new.xlsx,stimuli/Social3.png,stimuli/Social4.png,stimuli/Nonsocial3.png,stimuli/Nonsocial4.png,stimuli/Social1.png,stimuli/Social2.png,stimuli/Nonsocial1.png,stimuli/Nonsocial2.png,cs_neg_s,,,,,,,,,,0,0,0,0,,,,,,,,,,,,,,,,,0,3,3,0,,,,,,,,,,,,,,,,,,,,,,,949.4000402999991,5.0,2.3006315999991784,,,,,,,,,,,,,,,,,,,,,,,,,,,,,,,,,22,C,2024-04-30_14h27.22.099,attentional_competition_task,2022.2.4,143.9364606904901,
positions.xlsx,positions_test.xlsx,positions_test_new.xlsx,stimuli.xlsx,stimuli_new.xlsx,stimuli/Social3.png,stimuli/Social4.png,stimuli/Nonsocial3.png,stimuli/Nonsocial4.png,stimuli/Social1.png,stimuli/Social2.png,stimuli/Nonsocial1.png,stimuli/Nonsocial2.png,,,"(-0.7, -0.5)",cs_pos_s,"(-0.7, 0.5)",cs_neg_ns,"(0.7, -0.5)",cs_neg_s,"(0.7, 0.5)",cs_pos_ns,0,0,0,0,,,,,,,,,,,,,,,,,,,,,0,0,0,8,,,,,,,,,,,,,,,,,,,,,,,,,,,66,reward,,,,,951.8582800999993,958.7399236000001,958.7399236000001,958.7399236000001,958.7399236000001,0,,,0,,,0,,,1,0.025179999998727,0.025183899999319692,958.7399236000001,958.7399236000001,958.7399236000001,958.7399236000001,22,C,2024-04-30_14h27.22.099,attentional_competition_task,2022.2.4,143.9364606904901,
positions.xlsx,positions_test.xlsx,positions_test_new.xlsx,stimuli.xlsx,stimuli_new.xlsx,stimuli/Social3.png,stimuli/Social4.png,stimuli/Nonsocial3.png,stimuli/Nonsocial4.png,stimuli/Social1.png,stimuli/Social2.png,stimuli/Nonsocial1.png,stimuli/Nonsocial2.png,,,"(-0.7, -0.5)",cs_neg_ns,"(-0.7, 0.5)",cs_neg_s,"(0.7, -0.5)",cs_pos_s,"(0.7, 0.5)",cs_pos_ns,0,0,0,0,,,,,,,,,,,,,,,,,,,,,0,1,1,14,,,,,,,,,,,,,,,,,,,,,,,,,,,69,reward,,,,,,966.6077146000007,966.6077146000007,966.6077146000007,966.6077146000007,0,,,0,,,0,,,1,0.02948130000004312,0.029485499999282183,966.6077146000007,966.6077146000007,966.6077146000007,966.6077146000007,22,C,2024-04-30_14h27.22.099,attentional_competition_task,2022.2.4,143.9364606904901,
positions.xlsx,positions_test.xlsx,positions_test_new.xlsx,stimuli.xlsx,stimuli_new.xlsx,stimuli/Social3.png,stimuli/Social4.png,stimuli/Nonsocial3.png,stimuli/Nonsocial4.png,stimuli/Social1.png,stimuli/Social2.png,stimuli/Nonsocial1.png,stimuli/Nonsocial2.png,,,"(-0.7, -0.5)",cs_neg_ns,"(-0.7, 0.5)",cs_neg_s,"(0.7, -0.5)",cs_pos_ns,"(0.7, 0.5)",cs_pos_s,0,0,0,0,,,,,,,,,,,,,,,,,,,,,0,2,2,15,,,,,,,,,,,,,,,,,,,,,,,,,,,78,reward,,,,,,975.0448536000004,975.0448536000004,975.0448536000004,975.0448536000004,0,,,0,,,1,0.029911100000390434,0.36354519999986223,0,,,975.9059316999992,975.9059316999992,975.9059316999992,975.9059316999992,22,C,2024-04-30_14h27.22.099,attentional_competition_task,2022.2.4,143.9364606904901,
positions.xlsx,positions_test.xlsx,positions_test_new.xlsx,stimuli.xlsx,stimuli_new.xlsx,stimuli/Social3.png,stimuli/Social4.png,stimuli/Nonsocial3.png,stimuli/Nonsocial4.png,stimuli/Social1.png,stimuli/Social2.png,stimuli/Nonsocial1.png,stimuli/Nonsocial2.png,,,"(-0.7, -0.5)",cs_pos_ns,"(-0.7, 0.5)",cs_pos_s,"(0.7, -0.5)",cs_neg_ns,"(0.7, 0.5)",cs_neg_s,0,0,0,0,,,,,,,,,,,,,,,,,,,,,0,3,3,18,,,,,,,,,,,,,,,,,,,,,,,,,,,87,reward,,,,,,983.7875516999993,983.7875516999993,983.7875516999993,983.7875516999993,0,,,1,0.029044000000794767,0.3493447000000742,0,,,0,,,984.6347466999996,984.6347466999996,984.6347466999996,984.6347466999996,22,C,2024-04-30_14h27.22.099,attentional_competition_task,2022.2.4,143.9364606904901,
positions.xlsx,positions_test.xlsx,positions_test_new.xlsx,stimuli.xlsx,stimuli_new.xlsx,stimuli/Social3.png,stimuli/Social4.png,stimuli/Nonsocial3.png,stimuli/Nonsocial4.png,stimuli/Social1.png,stimuli/Social2.png,stimuli/Nonsocial1.png,stimuli/Nonsocial2.png,,,"(-0.7, -0.5)",cs_neg_s,"(-0.7, 0.5)",cs_pos_ns,"(0.7, -0.5)",cs_neg_ns,"(0.7, 0.5)",cs_pos_s,0,0,0,0,,,,,,,,,,,,,,,,,,,,,0,4,4,5,,,,,,,,,,,,,,,,,,,,,,,,,,,96,reward,,,,,,991.9747157000002,991.9747157000002,991.9747157000002,991.9747157000002,0,,,1,0.02241879999928642,0.14269669999885082,0,,,0,,,992.6552462,992.6552462,992.6552462,992.6552462,22,C,2024-04-30_14h27.22.099,attentional_competition_task,2022.2.4,143.9364606904901,
positions.xlsx,positions_test.xlsx,positions_test_new.xlsx,stimuli.xlsx,stimuli_new.xlsx,stimuli/Social3.png,stimuli/Social4.png,stimuli/Nonsocial3.png,stimuli/Nonsocial4.png,stimuli/Social1.png,stimuli/Social2.png,stimuli/Nonsocial1.png,stimuli/Nonsocial2.png,,,"(-0.7, -0.5)",cs_pos_ns,"(-0.7, 0.5)",cs_neg_s,"(0.7, -0.5)",cs_pos_s,"(0.7, 0.5)",cs_neg_ns,0,0,0,0,,,,,,,,,,,,,,,,,,,,,0,5,5,22,,,,,,,,,,,,,,,,,,,,,,,,,,,105,reward,,,,,,1000.0438575999997,1000.0438575999997,1000.0438575999997,1000.0438575999997,1,0.030307799999718554,0.4189764999991894,0,,,0,,,0,,,1000.9604863999994,1000.9604863999994,1000.9604863999994,1000.9604863999994,22,C,2024-04-30_14h27.22.099,attentional_competition_task,2022.2.4,143.9364606904901,
positions.xlsx,positions_test.xlsx,positions_test_new.xlsx,stimuli.xlsx,stimuli_new.xlsx,stimuli/Social3.png,stimuli/Social4.png,stimuli/Nonsocial3.png,stimuli/Nonsocial4.png,stimuli/Social1.png,stimuli/Social2.png,stimuli/Nonsocial1.png,stimuli/Nonsocial2.png,,,"(-0.7, -0.5)",cs_pos_s,"(-0.7, 0.5)",cs_neg_s,"(0.7, -0.5)",cs_pos_ns,"(0.7, 0.5)",cs_neg_ns,0,0,0,0,,,,,,,,,,,,,,,,,,,,,0,6,6,7,,,,,,,,,,,,,,,,,,,,,,,,,,,114,reward,,,,,,1008.6476674999994,1008.6476674999994,1008.6476674999994,1008.6476674999994,0,,,0,,,0,,,0,,,1009.5226268000006,1009.5226268000006,1009.5226268000006,1009.5226268000006,22,C,2024-04-30_14h27.22.099,attentional_competition_task,2022.2.4,143.9364606904901,
positions.xlsx,positions_test.xlsx,positions_test_new.xlsx,stimuli.xlsx,stimuli_new.xlsx,stimuli/Social3.png,stimuli/Social4.png,stimuli/Nonsocial3.png,stimuli/Nonsocial4.png,stimuli/Social1.png,stimuli/Social2.png,stimuli/Nonsocial1.png,stimuli/Nonsocial2.png,,,"(-0.7, -0.5)",cs_pos_ns,"(-0.7, 0.5)",cs_neg_ns,"(0.7, -0.5)",cs_pos_s,"(0.7, 0.5)",cs_neg_s,0,0,0,0,,,,,,,,,,,,,,,,,,,,,0,7,7,20,,,,,,,,,,,,,,,,,,,,,,,,,,,117,reward,,,,,,1016.5084864,1016.5084864,1016.5084864,1016.5084864,0,,,0,,,1,0.025162100000670762,0.025166200000967365,0,,,1016.5084864,1016.5084864,1016.5084864,1016.5084864,22,C,2024-04-30_14h27.22.099,attentional_competition_task,2022.2.4,143.9364606904901,
positions.xlsx,positions_test.xlsx,positions_test_new.xlsx,stimuli.xlsx,stimuli_new.xlsx,stimuli/Social3.png,stimuli/Social4.png,stimuli/Nonsocial3.png,stimuli/Nonsocial4.png,stimuli/Social1.png,stimuli/Social2.png,stimuli/Nonsocial1.png,stimuli/Nonsocial2.png,,,"(-0.7, -0.5)",cs_neg_ns,"(-0.7, 0.5)",cs_pos_ns,"(0.7, -0.5)",cs_neg_s,"(0.7, 0.5)",cs_pos_s,0,0,0,0,,,,,,,,,,,,,,,,,,,,,0,8,8,17,,,,,,,,,,,,,,,,,,,,,,,,,,,123,reward,,,,,,1025.3831807999995,1025.3831807999995,1025.3831807999995,1025.3831807999995,0,,,0,,,0,,,1,0.2455699000001914,0.2736165999995137,1026.1538942999996,1026.1538942999996,1026.1538942999996,1026.1538942999996,22,C,2024-04-30_14h27.22.099,attentional_competition_task,2022.2.4,143.9364606904901,
positions.xlsx,positions_test.xlsx,positions_test_new.xlsx,stimuli.xlsx,stimuli_new.xlsx,stimuli/Social3.png,stimuli/Social4.png,stimuli/Nonsocial3.png,stimuli/Nonsocial4.png,stimuli/Social1.png,stimuli/Social2.png,stimuli/Nonsocial1.png,stimuli/Nonsocial2.png,,,"(-0.7, -0.5)",cs_pos_s,"(-0.7, 0.5)",cs_pos_ns,"(0.7, -0.5)",cs_neg_ns,"(0.7, 0.5)",cs_neg_s,0,0,0,0,,,,,,,,,,,,,,,,,,,,,0,9,9,11,,,,,,,,,,,,,,,,,,,,,,,,,,,132,reward,,,,,,1034.5633099999995,1034.5633099999995,1034.5633099999995,1034.5633099999995,0,,,0,,,0,,,0,,,1035.2299077000007,1035.2299077000007,1035.2299077000007,1035.2299077000007,22,C,2024-04-30_14h27.22.099,attentional_competition_task,2022.2.4,143.9364606904901,
positions.xlsx,positions_test.xlsx,positions_test_new.xlsx,stimuli.xlsx,stimuli_new.xlsx,stimuli/Social3.png,stimuli/Social4.png,stimuli/Nonsocial3.png,stimuli/Nonsocial4.png,stimuli/Social1.png,stimuli/Social2.png,stimuli/Nonsocial1.png,stimuli/Nonsocial2.png,,,"(-0.7, -0.5)",cs_pos_ns,"(-0.7, 0.5)",cs_neg_s,"(0.7, -0.5)",cs_neg_ns,"(0.7, 0.5)",cs_pos_s,0,0,0,0,,,,,,,,,,,,,,,,,,,,,0,10,10,23,,,,,,,,,,,,,,,,,,,,,,,,,,,141,reward,,,,,,1043.5490585999996,1043.5490585999996,1043.5490585999996,1043.5490585999996,1,0.029640599999765982,0.07837889999973413,0,,,0,,,0,,,1044.5003944,1044.5003944,1044.5003944,1044.5003944,22,C,2024-04-30_14h27.22.099,attentional_competition_task,2022.2.4,143.9364606904901,
positions.xlsx,positions_test.xlsx,positions_test_new.xlsx,stimuli.xlsx,stimuli_new.xlsx,stimuli/Social3.png,stimuli/Social4.png,stimuli/Nonsocial3.png,stimuli/Nonsocial4.png,stimuli/Social1.png,stimuli/Social2.png,stimuli/Nonsocial1.png,stimuli/Nonsocial2.png,,,"(-0.7, -0.5)",cs_neg_s,"(-0.7, 0.5)",cs_neg_ns,"(0.7, -0.5)",cs_pos_ns,"(0.7, 0.5)",cs_pos_s,0,0,0,0,,,,,,,,,,,,,,,,,,,,,0,11,11,3,,,,,,,,,,,,,,,,,,,,,,,,,,,150,reward,,,,,,1052.0695486999994,1052.0695486999994,1052.0695486999994,1052.0695486999994,0,,,0,,,1,0.38529510000080336,0.42719969999961904,1,0.5176788000007946,0.5176824000009219,1053.0903282,1053.0903282,1053.0903282,1053.0903282,22,C,2024-04-30_14h27.22.099,attentional_competition_task,2022.2.4,143.9364606904901,
positions.xlsx,positions_test.xlsx,positions_test_new.xlsx,stimuli.xlsx,stimuli_new.xlsx,stimuli/Social3.png,stimuli/Social4.png,stimuli/Nonsocial3.png,stimuli/Nonsocial4.png,stimuli/Social1.png,stimuli/Social2.png,stimuli/Nonsocial1.png,stimuli/Nonsocial2.png,,,"(-0.7, -0.5)",cs_neg_s,"(-0.7, 0.5)",cs_pos_ns,"(0.7, -0.5)",cs_pos_s,"(0.7, 0.5)",cs_neg_ns,0,0,0,0,,,,,,,,,,,,,,,,,,,,,0,12,12,4,,,,,,,,,,,,,,,,,,,,,,,,,,,159,reward,,,,,,1060.2011459999994,1060.2011459999994,1060.2011459999994,1060.2011459999994,0,,,1,0.031386700000439305,0.37099189999935334,0,,,0,,,1061.0691788999993,1061.0691788999993,1061.0691788999993,1061.0691788999993,22,C,2024-04-30_14h27.22.099,attentional_competition_task,2022.2.4,143.9364606904901,
positions.xlsx,positions_test.xlsx,positions_test_new.xlsx,stimuli.xlsx,stimuli_new.xlsx,stimuli/Social3.png,stimuli/Social4.png,stimuli/Nonsocial3.png,stimuli/Nonsocial4.png,stimuli/Social1.png,stimuli/Social2.png,stimuli/Nonsocial1.png,stimuli/Nonsocial2.png,,,"(-0.7, -0.5)",cs_pos_s,"(-0.7, 0.5)",cs_neg_s,"(0.7, -0.5)",cs_neg_ns,"(0.7, 0.5)",cs_pos_ns,0,0,0,0,,,,,,,,,,,,,,,,,,,,,0,13,13,6,,,,,,,,,,,,,,,,,,,,,,,,,,,168,reward,,,,,,1068.624398,1068.624398,1068.624398,1068.624398,0,,,0,,,0,,,0,,,1069.4577257,1069.4577257,1069.4577257,1069.4577257,22,C,2024-04-30_14h27.22.099,attentional_competition_task,2022.2.4,143.9364606904901,
positions.xlsx,positions_test.xlsx,positions_test_new.xlsx,stimuli.xlsx,stimuli_new.xlsx,stimuli/Social3.png,stimuli/Social4.png,stimuli/Nonsocial3.png,stimuli/Nonsocial4.png,stimuli/Social1.png,stimuli/Social2.png,stimuli/Nonsocial1.png,stimuli/Nonsocial2.png,,,"(-0.7, -0.5)",cs_pos_ns,"(-0.7, 0.5)",cs_neg_ns,"(0.7, -0.5)",cs_neg_s,"(0.7, 0.5)",cs_pos_s,0,0,0,0,,,,,,,,,,,,,,,,,,,,,0,14,14,21,,,,,,,,,,,,,,,,,,,,,,,,,,,171,reward,,,,,,1076.9227026999997,1076.9227026999997,1076.9227026999997,1076.9227026999997,4,0.02320499999950698,0.17691190000005008,0,,,0,,,1,0.3580020000008517,0.3580058999996254,1077.2838090999994,1077.2838090999994,1077.2838090999994,1077.2838090999994,22,C,2024-04-30_14h27.22.099,attentional_competition_task,2022.2.4,143.9364606904901,
positions.xlsx,positions_test.xlsx,positions_test_new.xlsx,stimuli.xlsx,stimuli_new.xlsx,stimuli/Social3.png,stimuli/Social4.png,stimuli/Nonsocial3.png,stimuli/Nonsocial4.png,stimuli/Social1.png,stimuli/Social2.png,stimuli/Nonsocial1.png,stimuli/Nonsocial2.png,,,"(-0.7, -0.5)",cs_pos_ns,"(-0.7, 0.5)",cs_pos_s,"(0.7, -0.5)",cs_neg_s,"(0.7, 0.5)",cs_neg_ns,0,0,0,0,,,,,,,,,,,,,,,,,,,,,0,15,15,19,,,,,,,,,,,,,,,,,,,,,,,,,,,180,reward,,,,,,1085.8112748000003,1085.8112748000003,1085.8112748000003,1085.8112748000003,0,,,1,0.31468800000038755,0.349668599999859,0,,,0,,,1086.6654044999996,1086.6654044999996,1086.6654044999996,1086.6654044999996,22,C,2024-04-30_14h27.22.099,attentional_competition_task,2022.2.4,143.9364606904901,
positions.xlsx,positions_test.xlsx,positions_test_new.xlsx,stimuli.xlsx,stimuli_new.xlsx,stimuli/Social3.png,stimuli/Social4.png,stimuli/Nonsocial3.png,stimuli/Nonsocial4.png,stimuli/Social1.png,stimuli/Social2.png,stimuli/Nonsocial1.png,stimuli/Nonsocial2.png,,,"(-0.7, -0.5)",cs_neg_s,"(-0.7, 0.5)",cs_pos_s,"(0.7, -0.5)",cs_pos_ns,"(0.7, 0.5)",cs_neg_ns,0,0,0,0,,,,,,,,,,,,,,,,,,,,,0,16,16,1,,,,,,,,,,,,,,,,,,,,,,,,,,,183,reward,,,,,,1093.5470353,1093.5470353,1093.5470353,1093.5470353,0,,,0,,,1,0.18992119999893475,0.18992459999935818,0,,,1093.741473,1093.741473,1093.741473,1093.741473,22,C,2024-04-30_14h27.22.099,attentional_competition_task,2022.2.4,143.9364606904901,
positions.xlsx,positions_test.xlsx,positions_test_new.xlsx,stimuli.xlsx,stimuli_new.xlsx,stimuli/Social3.png,stimuli/Social4.png,stimuli/Nonsocial3.png,stimuli/Nonsocial4.png,stimuli/Social1.png,stimuli/Social2.png,stimuli/Nonsocial1.png,stimuli/Nonsocial2.png,,,"(-0.7, -0.5)",cs_pos_s,"(-0.7, 0.5)",cs_neg_ns,"(0.7, -0.5)",cs_pos_ns,"(0.7, 0.5)",cs_neg_s,0,0,0,0,,,,,,,,,,,,,,,,,,,,,0,17,17,9,,,,,,,,,,,,,,,,,,,,,,,,,,,192,reward,,,,,,1102.8660980999994,1102.8660980999994,1102.8660980999994,1102.8660980999994,0,,,0,,,1,0.02615969999897061,0.038357199999154545,0,,,1103.5744200999998,1103.5744200999998,1103.5744200999998,1103.5744200999998,22,C,2024-04-30_14h27.22.099,attentional_competition_task,2022.2.4,143.9364606904901,
positions.xlsx,positions_test.xlsx,positions_test_new.xlsx,stimuli.xlsx,stimuli_new.xlsx,stimuli/Social3.png,stimuli/Social4.png,stimuli/Nonsocial3.png,stimuli/Nonsocial4.png,stimuli/Social1.png,stimuli/Social2.png,stimuli/Nonsocial1.png,stimuli/Nonsocial2.png,,,"(-0.7, -0.5)",cs_neg_s,"(-0.7, 0.5)",cs_neg_ns,"(0.7, -0.5)",cs_pos_s,"(0.7, 0.5)",cs_pos_ns,0,0,0,0,,,,,,,,,,,,,,,,,,,,,0,18,18,2,,,,,,,,,,,,,,,,,,,,,,,,,,,201,reward,,,,,,1112.2060161999998,1112.2060161999998,1112.2060161999998,1112.2060161999998,0,,,0,,,0,,,0,,,1112.7962606,1112.7962606,1112.7962606,1112.7962606,22,C,2024-04-30_14h27.22.099,attentional_competition_task,2022.2.4,143.9364606904901,
positions.xlsx,positions_test.xlsx,positions_test_new.xlsx,stimuli.xlsx,stimuli_new.xlsx,stimuli/Social3.png,stimuli/Social4.png,stimuli/Nonsocial3.png,stimuli/Nonsocial4.png,stimuli/Social1.png,stimuli/Social2.png,stimuli/Nonsocial1.png,stimuli/Nonsocial2.png,,,"(-0.7, -0.5)",cs_neg_s,"(-0.7, 0.5)",cs_pos_s,"(0.7, -0.5)",cs_neg_ns,"(0.7, 0.5)",cs_pos_ns,0,0,0,0,,,,,,,,,,,,,,,,,,,,,0,19,19,0,,,,,,,,,,,,,,,,,,,,,,,,,,,207,reward,,,,,,1120.7334226999992,1120.7334226999992,1120.7334226999992,1120.7334226999992,0,,,0,,,0,,,0,,,1121.4209424,1121.4209424,1121.4209424,1121.4209424,22,C,2024-04-30_14h27.22.099,attentional_competition_task,2022.2.4,143.9364606904901,
positions.xlsx,positions_test.xlsx,positions_test_new.xlsx,stimuli.xlsx,stimuli_new.xlsx,stimuli/Social3.png,stimuli/Social4.png,stimuli/Nonsocial3.png,stimuli/Nonsocial4.png,stimuli/Social1.png,stimuli/Social2.png,stimuli/Nonsocial1.png,stimuli/Nonsocial2.png,,,"(-0.7, -0.5)",cs_neg_ns,"(-0.7, 0.5)",cs_pos_ns,"(0.7, -0.5)",cs_pos_s,"(0.7, 0.5)",cs_neg_s,0,0,0,0,,,,,,,,,,,,,,,,,,,,,0,20,20,16,,,,,,,,,,,,,,,,,,,,,,,,,,,216,reward,,,,,,1129.9136288999998,1129.9136288999998,1129.9136288999998,1129.9136288999998,0,,,0,,,1,0.03026500000123633,0.030268700000306126,0,,,1129.9136288999998,1129.9136288999998,1129.9136288999998,1129.9136288999998,22,C,2024-04-30_14h27.22.099,attentional_competition_task,2022.2.4,143.9364606904901,
positions.xlsx,positions_test.xlsx,positions_test_new.xlsx,stimuli.xlsx,stimuli_new.xlsx,stimuli/Social3.png,stimuli/Social4.png,stimuli/Nonsocial3.png,stimuli/Nonsocial4.png,stimuli/Social1.png,stimuli/Social2.png,stimuli/Nonsocial1.png,stimuli/Nonsocial2.png,,,"(-0.7, -0.5)",cs_neg_ns,"(-0.7, 0.5)",cs_pos_s,"(0.7, -0.5)",cs_neg_s,"(0.7, 0.5)",cs_pos_ns,0,0,0,0,,,,,,,,,,,,,,,,,,,,,0,21,21,12,,,,,,,,,,,,,,,,,,,,,,,,,,,225,reward,,,,,,1137.3091334,1137.3091334,1137.3091334,1137.3091334,0,,,0,,,0,,,1,0.025809199998548138,0.06606289999945147,1138.0521919000003,1138.0521919000003,1138.0521919000003,1138.0521919000003,22,C,2024-04-30_14h27.22.099,attentional_competition_task,2022.2.4,143.9364606904901,
positions.xlsx,positions_test.xlsx,positions_test_new.xlsx,stimuli.xlsx,stimuli_new.xlsx,stimuli/Social3.png,stimuli/Social4.png,stimuli/Nonsocial3.png,stimuli/Nonsocial4.png,stimuli/Social1.png,stimuli/Social2.png,stimuli/Nonsocial1.png,stimuli/Nonsocial2.png,,,"(-0.7, -0.5)",cs_neg_ns,"(-0.7, 0.5)",cs_pos_s,"(0.7, -0.5)",cs_pos_ns,"(0.7, 0.5)",cs_neg_s,0,0,0,0,,,,,,,,,,,,,,,,,,,,,0,22,22,13,,,,,,,,,,,,,,,,,,,,,,,,,,,234,reward,,,,,,1145.8504857999997,1145.8504857999997,1145.8504857999997,1145.8504857999997,0,,,0,,,0,,,0,,,1146.8365592999999,1146.8365592999999,1146.8365592999999,1146.8365592999999,22,C,2024-04-30_14h27.22.099,attentional_competition_task,2022.2.4,143.9364606904901,
positions.xlsx,positions_test.xlsx,positions_test_new.xlsx,stimuli.xlsx,stimuli_new.xlsx,stimuli/Social3.png,stimuli/Social4.png,stimuli/Nonsocial3.png,stimuli/Nonsocial4.png,stimuli/Social1.png,stimuli/Social2.png,stimuli/Nonsocial1.png,stimuli/Nonsocial2.png,,,"(-0.7, -0.5)",cs_pos_s,"(-0.7, 0.5)",cs_pos_ns,"(0.7, -0.5)",cs_neg_s,"(0.7, 0.5)",cs_neg_ns,0,0,0,0,,,,,,,,,,,,,,,,,,,,,0,23,23,10,,,,,,,,,,,,,,,,,,,,,,,,,,,243,reward,,,,,,1154.1418305000007,1154.1418305000007,1154.1418305000007,1154.1418305000007,1,0.44793920000120124,0.4547424000011233,1,0.5868454999999813,0.6979016000004776,0,,,0,,,1155.3431660999995,1155.3431660999995,1155.3431660999995,1155.3431660999995,22,C,2024-04-30_14h27.22.099,attentional_competition_task,2022.2.4,143.9364606904901,
positions.xlsx,positions_test.xlsx,positions_test_new.xlsx,stimuli.xlsx,stimuli_new.xlsx,stimuli/Social3.png,stimuli/Social4.png,stimuli/Nonsocial3.png,stimuli/Nonsocial4.png,stimuli/Social1.png,stimuli/Social2.png,stimuli/Nonsocial1.png,stimuli/Nonsocial2.png,,,"(-0.7, -0.5)",cs_neg_ns,"(-0.7, 0.5)",cs_pos_s,"(0.7, -0.5)",cs_neg_s,"(0.7, 0.5)",cs_pos_ns,0,0,0,0,,,,,,,,,,,,,,,,,,,,,1,0,24,12,,,,,,,,,,,,,,,,,,,,,,,,,,,252,reward,,,,,,1162.6275841000006,1162.6275841000006,1162.6275841000006,1162.6275841000006,0,,,0,,,0,,,0,,,1163.5372857000002,1163.5372857000002,1163.5372857000002,1163.5372857000002,22,C,2024-04-30_14h27.22.099,attentional_competition_task,2022.2.4,143.9364606904901,
positions.xlsx,positions_test.xlsx,positions_test_new.xlsx,stimuli.xlsx,stimuli_new.xlsx,stimuli/Social3.png,stimuli/Social4.png,stimuli/Nonsocial3.png,stimuli/Nonsocial4.png,stimuli/Social1.png,stimuli/Social2.png,stimuli/Nonsocial1.png,stimuli/Nonsocial2.png,,,"(-0.7, -0.5)",cs_neg_s,"(-0.7, 0.5)",cs_pos_ns,"(0.7, -0.5)",cs_neg_ns,"(0.7, 0.5)",cs_pos_s,0,0,0,0,,,,,,,,,,,,,,,,,,,,,1,1,25,5,,,,,,,,,,,,,,,,,,,,,,,,,,,261,reward,,,,,,1171.6133227999999,1171.6133227999999,1171.6133227999999,1171.6133227999999,0,,,0,,,0,,,1,0.029799699999784934,0.04314919999887934,1172.6271744999995,1172.6271744999995,1172.6271744999995,1172.6271744999995,22,C,2024-04-30_14h27.22.099,attentional_competition_task,2022.2.4,143.9364606904901,
positions.xlsx,positions_test.xlsx,positions_test_new.xlsx,stimuli.xlsx,stimuli_new.xlsx,stimuli/Social3.png,stimuli/Social4.png,stimuli/Nonsocial3.png,stimuli/Nonsocial4.png,stimuli/Social1.png,stimuli/Social2.png,stimuli/Nonsocial1.png,stimuli/Nonsocial2.png,,,"(-0.7, -0.5)",cs_neg_s,"(-0.7, 0.5)",cs_neg_ns,"(0.7, -0.5)",cs_pos_s,"(0.7, 0.5)",cs_pos_ns,0,0,0,0,,,,,,,,,,,,,,,,,,,,,1,2,26,2,,,,,,,,,,,,,,,,,,,,,,,,,,,270,reward,,,,,,1180.4046555000004,1180.4046555000004,1180.4046555000004,1180.4046555000004,0,,,0,,,0,,,0,,,1181.4046240000007,1181.4046240000007,1181.4046240000007,1181.4046240000007,22,C,2024-04-30_14h27.22.099,attentional_competition_task,2022.2.4,143.9364606904901,
positions.xlsx,positions_test.xlsx,positions_test_new.xlsx,stimuli.xlsx,stimuli_new.xlsx,stimuli/Social3.png,stimuli/Social4.png,stimuli/Nonsocial3.png,stimuli/Nonsocial4.png,stimuli/Social1.png,stimuli/Social2.png,stimuli/Nonsocial1.png,stimuli/Nonsocial2.png,,,"(-0.7, -0.5)",cs_neg_ns,"(-0.7, 0.5)",cs_neg_s,"(0.7, -0.5)",cs_pos_s,"(0.7, 0.5)",cs_pos_ns,0,0,0,0,,,,,,,,,,,,,,,,,,,,,1,3,27,14,,,,,,,,,,,,,,,,,,,,,,,,,,,279,reward,,,,,,1188.7586071000005,1188.7586071000005,1188.7586071000005,1188.7586071000005,0,,,0,,,0,,,0,,,1189.6195759999991,1189.6195759999991,1189.6195759999991,1189.6195759999991,22,C,2024-04-30_14h27.22.099,attentional_competition_task,2022.2.4,143.9364606904901,
positions.xlsx,positions_test.xlsx,positions_test_new.xlsx,stimuli.xlsx,stimuli_new.xlsx,stimuli/Social3.png,stimuli/Social4.png,stimuli/Nonsocial3.png,stimuli/Nonsocial4.png,stimuli/Social1.png,stimuli/Social2.png,stimuli/Nonsocial1.png,stimuli/Nonsocial2.png,,,"(-0.7, -0.5)",cs_pos_s,"(-0.7, 0.5)",cs_neg_s,"(0.7, -0.5)",cs_neg_ns,"(0.7, 0.5)",cs_pos_ns,0,0,0,0,,,,,,,,,,,,,,,,,,,,,1,4,28,6,,,,,,,,,,,,,,,,,,,,,,,,,,,288,reward,,,,,,1196.4734456000006,1196.4734456000006,1196.4734456000006,1196.4734456000006,0,,,0,,,0,,,0,,,1197.383141799999,1197.383141799999,1197.383141799999,1197.383141799999,22,C,2024-04-30_14h27.22.099,attentional_competition_task,2022.2.4,143.9364606904901,
positions.xlsx,positions_test.xlsx,positions_test_new.xlsx,stimuli.xlsx,stimuli_new.xlsx,stimuli/Social3.png,stimuli/Social4.png,stimuli/Nonsocial3.png,stimuli/Nonsocial4.png,stimuli/Social1.png,stimuli/Social2.png,stimuli/Nonsocial1.png,stimuli/Nonsocial2.png,,,"(-0.7, -0.5)",cs_pos_ns,"(-0.7, 0.5)",cs_pos_s,"(0.7, -0.5)",cs_neg_ns,"(0.7, 0.5)",cs_neg_s,0,0,0,0,,,,,,,,,,,,,,,,,,,,,1,5,29,18,,,,,,,,,,,,,,,,,,,,,,,,,,,297,reward,,,,,,1204.9244932000001,1204.9244932000001,1204.9244932000001,1204.9244932000001,0,,,0,,,0,,,0,,,1205.9244768999997,1205.9244768999997,1205.9244768999997,1205.9244768999997,22,C,2024-04-30_14h27.22.099,attentional_competition_task,2022.2.4,143.9364606904901,
positions.xlsx,positions_test.xlsx,positions_test_new.xlsx,stimuli.xlsx,stimuli_new.xlsx,stimuli/Social3.png,stimuli/Social4.png,stimuli/Nonsocial3.png,stimuli/Nonsocial4.png,stimuli/Social1.png,stimuli/Social2.png,stimuli/Nonsocial1.png,stimuli/Nonsocial2.png,,,"(-0.7, -0.5)",cs_neg_s,"(-0.7, 0.5)",cs_pos_s,"(0.7, -0.5)",cs_neg_ns,"(0.7, 0.5)",cs_pos_ns,0,0,0,0,,,,,,,,,,,,,,,,,,,,,1,6,30,0,,,,,,,,,,,,,,,,,,,,,,,,,,,306,reward,,,,,,1213.2088951999995,1213.2088951999995,1213.2088951999995,1213.2088951999995,0,,,0,,,0,,,1,0.03552309999940917,0.12723100000039267,1214.0630662999993,1214.0630662999993,1214.0630662999993,1214.0630662999993,22,C,2024-04-30_14h27.22.099,attentional_competition_task,2022.2.4,143.9364606904901,
positions.xlsx,positions_test.xlsx,positions_test_new.xlsx,stimuli.xlsx,stimuli_new.xlsx,stimuli/Social3.png,stimuli/Social4.png,stimuli/Nonsocial3.png,stimuli/Nonsocial4.png,stimuli/Social1.png,stimuli/Social2.png,stimuli/Nonsocial1.png,stimuli/Nonsocial2.png,,,"(-0.7, -0.5)",cs_pos_s,"(-0.7, 0.5)",cs_pos_ns,"(0.7, -0.5)",cs_neg_ns,"(0.7, 0.5)",cs_neg_s,0,0,0,0,,,,,,,,,,,,,,,,,,,,,1,7,31,11,,,,,,,,,,,,,,,,,,,,,,,,,,,315,reward,,,,,,1222.1738399999995,1222.1738399999995,1222.1738399999995,1222.1738399999995,2,0.1950608999995893,0.20212460000038845,0,,,0,,,0,,,1223.090480499999,1223.090480499999,1223.090480499999,1223.090480499999,22,C,2024-04-30_14h27.22.099,attentional_competition_task,2022.2.4,143.9364606904901,
positions.xlsx,positions_test.xlsx,positions_test_new.xlsx,stimuli.xlsx,stimuli_new.xlsx,stimuli/Social3.png,stimuli/Social4.png,stimuli/Nonsocial3.png,stimuli/Nonsocial4.png,stimuli/Social1.png,stimuli/Social2.png,stimuli/Nonsocial1.png,stimuli/Nonsocial2.png,,,"(-0.7, -0.5)",cs_neg_s,"(-0.7, 0.5)",cs_pos_ns,"(0.7, -0.5)",cs_pos_s,"(0.7, 0.5)",cs_neg_ns,0,0,0,0,,,,,,,,,,,,,,,,,,,,,1,8,32,4,,,,,,,,,,,,,,,,,,,,,,,,,,,324,reward,,,,,,1230.2082210999997,1230.2082210999997,1230.2082210999997,1230.2082210999997,0,,,1,0.028770900000381516,0.43250170000101207,0,,,0,,,1231.1318123,1231.1318123,1231.1318123,1231.1318123,22,C,2024-04-30_14h27.22.099,attentional_competition_task,2022.2.4,143.9364606904901,
positions.xlsx,positions_test.xlsx,positions_test_new.xlsx,stimuli.xlsx,stimuli_new.xlsx,stimuli/Social3.png,stimuli/Social4.png,stimuli/Nonsocial3.png,stimuli/Nonsocial4.png,stimuli/Social1.png,stimuli/Social2.png,stimuli/Nonsocial1.png,stimuli/Nonsocial2.png,,,"(-0.7, -0.5)",cs_pos_s,"(-0.7, 0.5)",cs_neg_ns,"(0.7, -0.5)",cs_neg_s,"(0.7, 0.5)",cs_pos_ns,0,0,0,0,,,,,,,,,,,,,,,,,,,,,1,9,33,8,,,,,,,,,,,,,,,,,,,,,,,,,,,327,reward,,,,,,1238.8814710999995,1238.8814710999995,1238.8814710999995,1238.8814710999995,1,0.03010279999944032,0.030106700000033015,0,,,0,,,0,,,1238.8814710999995,1238.8814710999995,1238.8814710999995,1238.8814710999995,22,C,2024-04-30_14h27.22.099,attentional_competition_task,2022.2.4,143.9364606904901,
positions.xlsx,positions_test.xlsx,positions_test_new.xlsx,stimuli.xlsx,stimuli_new.xlsx,stimuli/Social3.png,stimuli/Social4.png,stimuli/Nonsocial3.png,stimuli/Nonsocial4.png,stimuli/Social1.png,stimuli/Social2.png,stimuli/Nonsocial1.png,stimuli/Nonsocial2.png,,,"(-0.7, -0.5)",cs_pos_s,"(-0.7, 0.5)",cs_pos_ns,"(0.7, -0.5)",cs_neg_s,"(0.7, 0.5)",cs_neg_ns,0,0,0,0,,,,,,,,,,,,,,,,,,,,,1,10,34,10,,,,,,,,,,,,,,,,,,,,,,,,,,,324,loss,,,,,,1248.0061793999994,1248.0061793999994,1248.0061793999994,1248.0061793999994,0,,,0,,,0,,,1,0.03341589999945427,0.03341990000080841,1248.0061793999994,1248.0061793999994,1248.0061793999994,1248.0061793999994,22,C,2024-04-30_14h27.22.099,attentional_competition_task,2022.2.4,143.9364606904901,
positions.xlsx,positions_test.xlsx,positions_test_new.xlsx,stimuli.xlsx,stimuli_new.xlsx,stimuli/Social3.png,stimuli/Social4.png,stimuli/Nonsocial3.png,stimuli/Nonsocial4.png,stimuli/Social1.png,stimuli/Social2.png,stimuli/Nonsocial1.png,stimuli/Nonsocial2.png,,,"(-0.7, -0.5)",cs_neg_ns,"(-0.7, 0.5)",cs_neg_s,"(0.7, -0.5)",cs_pos_ns,"(0.7, 0.5)",cs_pos_s,0,0,0,0,,,,,,,,,,,,,,,,,,,,,1,11,35,15,,,,,,,,,,,,,,,,,,,,,,,,,,,333,reward,,,,,,1254.9016721999997,1254.9016721999997,1254.9016721999997,1254.9016721999997,0,,,0,,,2,0.2545765000013489,0.2738385000011476,1,0.3858884000001126,0.49053770000136865,1255.8946859999996,1255.8946859999996,1255.8946859999996,1255.8946859999996,22,C,2024-04-30_14h27.22.099,attentional_competition_task,2022.2.4,143.9364606904901,
positions.xlsx,positions_test.xlsx,positions_test_new.xlsx,stimuli.xlsx,stimuli_new.xlsx,stimuli/Social3.png,stimuli/Social4.png,stimuli/Nonsocial3.png,stimuli/Nonsocial4.png,stimuli/Social1.png,stimuli/Social2.png,stimuli/Nonsocial1.png,stimuli/Nonsocial2.png,,,"(-0.7, -0.5)",cs_pos_s,"(-0.7, 0.5)",cs_neg_s,"(0.7, -0.5)",cs_pos_ns,"(0.7, 0.5)",cs_neg_ns,0,0,0,0,,,,,,,,,,,,,,,,,,,,,1,12,36,7,,,,,,,,,,,,,,,,,,,,,,,,,,,336,reward,,,,,,1263.429104499999,1263.429104499999,1263.429104499999,1263.429104499999,0,,,0,,,1,0.028724499999952968,0.028727999999318854,0,,,1263.429104499999,1263.429104499999,1263.429104499999,1263.429104499999,22,C,2024-04-30_14h27.22.099,attentional_competition_task,2022.2.4,143.9364606904901,
positions.xlsx,positions_test.xlsx,positions_test_new.xlsx,stimuli.xlsx,stimuli_new.xlsx,stimuli/Social3.png,stimuli/Social4.png,stimuli/Nonsocial3.png,stimuli/Nonsocial4.png,stimuli/Social1.png,stimuli/Social2.png,stimuli/Nonsocial1.png,stimuli/Nonsocial2.png,,,"(-0.7, -0.5)",cs_pos_ns,"(-0.7, 0.5)",cs_neg_ns,"(0.7, -0.5)",cs_neg_s,"(0.7, 0.5)",cs_pos_s,0,0,0,0,,,,,,,,,,,,,,,,,,,,,1,13,37,21,,,,,,,,,,,,,,,,,,,,,,,,,,,345,reward,,,,,,1272.644025399999,1272.644025399999,1272.644025399999,1272.644025399999,0,,,0,,,0,,,0,,,1273.3453835,1273.3453835,1273.3453835,1273.3453835,22,C,2024-04-30_14h27.22.099,attentional_competition_task,2022.2.4,143.9364606904901,
positions.xlsx,positions_test.xlsx,positions_test_new.xlsx,stimuli.xlsx,stimuli_new.xlsx,stimuli/Social3.png,stimuli/Social4.png,stimuli/Nonsocial3.png,stimuli/Nonsocial4.png,stimuli/Social1.png,stimuli/Social2.png,stimuli/Nonsocial1.png,stimuli/Nonsocial2.png,,,"(-0.7, -0.5)",cs_neg_s,"(-0.7, 0.5)",cs_pos_s,"(0.7, -0.5)",cs_pos_ns,"(0.7, 0.5)",cs_neg_ns,0,0,0,0,,,,,,,,,,,,,,,,,,,,,1,14,38,1,,,,,,,,,,,,,,,,,,,,,,,,,,,354,reward,,,,,,1280.9145635000004,1280.9145635000004,1280.9145635000004,1280.9145635000004,0,,,0,,,1,0.023348599999735598,0.059854299999642535,0,,,1281.8728140999992,1281.8728140999992,1281.8728140999992,1281.8728140999992,22,C,2024-04-30_14h27.22.099,attentional_competition_task,2022.2.4,143.9364606904901,
positions.xlsx,positions_test.xlsx,positions_test_new.xlsx,stimuli.xlsx,stimuli_new.xlsx,stimuli/Social3.png,stimuli/Social4.png,stimuli/Nonsocial3.png,stimuli/Nonsocial4.png,stimuli/Social1.png,stimuli/Social2.png,stimuli/Nonsocial1.png,stimuli/Nonsocial2.png,,,"(-0.7, -0.5)",cs_pos_s,"(-0.7, 0.5)",cs_neg_ns,"(0.7, -0.5)",cs_pos_ns,"(0.7, 0.5)",cs_neg_s,0,0,0,0,,,,,,,,,,,,,,,,,,,,,1,15,39,9,,,,,,,,,,,,,,,,,,,,,,,,,,,360,reward,,,,,,1288.8169837000005,1288.8169837000005,1288.8169837000005,1288.8169837000005,2,0.023936500001582317,0.07233200000155193,0,,,1,0.4757894000013039,0.4831561999999394,0,,,1289.2961613000007,1289.2961613000007,1289.2961613000007,1289.2961613000007,22,C,2024-04-30_14h27.22.099,attentional_competition_task,2022.2.4,143.9364606904901,
positions.xlsx,positions_test.xlsx,positions_test_new.xlsx,stimuli.xlsx,stimuli_new.xlsx,stimuli/Social3.png,stimuli/Social4.png,stimuli/Nonsocial3.png,stimuli/Nonsocial4.png,stimuli/Social1.png,stimuli/Social2.png,stimuli/Nonsocial1.png,stimuli/Nonsocial2.png,,,"(-0.7, -0.5)",cs_pos_ns,"(-0.7, 0.5)",cs_neg_s,"(0.7, -0.5)",cs_neg_ns,"(0.7, 0.5)",cs_pos_s,0,0,0,0,,,,,,,,,,,,,,,,,,,,,1,16,40,23,,,,,,,,,,,,,,,,,,,,,,,,,,,369,reward,,,,,,1297.8513507000007,1297.8513507000007,1297.8513507000007,1297.8513507000007,0,,,0,,,0,,,0,,,1298.4277215999991,1298.4277215999991,1298.4277215999991,1298.4277215999991,22,C,2024-04-30_14h27.22.099,attentional_competition_task,2022.2.4,143.9364606904901,
positions.xlsx,positions_test.xlsx,positions_test_new.xlsx,stimuli.xlsx,stimuli_new.xlsx,stimuli/Social3.png,stimuli/Social4.png,stimuli/Nonsocial3.png,stimuli/Nonsocial4.png,stimuli/Social1.png,stimuli/Social2.png,stimuli/Nonsocial1.png,stimuli/Nonsocial2.png,,,"(-0.7, -0.5)",cs_neg_ns,"(-0.7, 0.5)",cs_pos_s,"(0.7, -0.5)",cs_pos_ns,"(0.7, 0.5)",cs_neg_s,0,0,0,0,,,,,,,,,,,,,,,,,,,,,1,17,41,13,,,,,,,,,,,,,,,,,,,,,,,,,,,372,reward,,,,,,1306.3649005000007,1306.3649005000007,1306.3649005000007,1306.3649005000007,0,,,0,,,1,0.028996199998800876,0.02899999999863212,0,,,1306.3649005000007,1306.3649005000007,1306.3649005000007,1306.3649005000007,22,C,2024-04-30_14h27.22.099,attentional_competition_task,2022.2.4,143.9364606904901,
positions.xlsx,positions_test.xlsx,positions_test_new.xlsx,stimuli.xlsx,stimuli_new.xlsx,stimuli/Social3.png,stimuli/Social4.png,stimuli/Nonsocial3.png,stimuli/Nonsocial4.png,stimuli/Social1.png,stimuli/Social2.png,stimuli/Nonsocial1.png,stimuli/Nonsocial2.png,,,"(-0.7, -0.5)",cs_pos_ns,"(-0.7, 0.5)",cs_neg_s,"(0.7, -0.5)",cs_pos_s,"(0.7, 0.5)",cs_neg_ns,0,0,0,0,,,,,,,,,,,,,,,,,,,,,1,18,42,22,,,,,,,,,,,,,,,,,,,,,,,,,,,381,reward,,,,,,1314.4062307000004,1314.4062307000004,1314.4062307000004,1314.4062307000004,0,,,0,,,0,,,0,,,1315.3714779000002,1315.3714779000002,1315.3714779000002,1315.3714779000002,22,C,2024-04-30_14h27.22.099,attentional_competition_task,2022.2.4,143.9364606904901,
positions.xlsx,positions_test.xlsx,positions_test_new.xlsx,stimuli.xlsx,stimuli_new.xlsx,stimuli/Social3.png,stimuli/Social4.png,stimuli/Nonsocial3.png,stimuli/Nonsocial4.png,stimuli/Social1.png,stimuli/Social2.png,stimuli/Nonsocial1.png,stimuli/Nonsocial2.png,,,"(-0.7, -0.5)",cs_neg_s,"(-0.7, 0.5)",cs_neg_ns,"(0.7, -0.5)",cs_pos_ns,"(0.7, 0.5)",cs_pos_s,0,0,0,0,,,,,,,,,,,,,,,,,,,,,1,19,43,3,,,,,,,,,,,,,,,,,,,,,,,,,,,390,reward,,,,,,1322.7809238999998,1322.7809238999998,1322.7809238999998,1322.7809238999998,0,,,0,,,0,,,0,,,1323.7739268000005,1323.7739268000005,1323.7739268000005,1323.7739268000005,22,C,2024-04-30_14h27.22.099,attentional_competition_task,2022.2.4,143.9364606904901,
positions.xlsx,positions_test.xlsx,positions_test_new.xlsx,stimuli.xlsx,stimuli_new.xlsx,stimuli/Social3.png,stimuli/Social4.png,stimuli/Nonsocial3.png,stimuli/Nonsocial4.png,stimuli/Social1.png,stimuli/Social2.png,stimuli/Nonsocial1.png,stimuli/Nonsocial2.png,,,"(-0.7, -0.5)",cs_pos_ns,"(-0.7, 0.5)",cs_pos_s,"(0.7, -0.5)",cs_neg_s,"(0.7, 0.5)",cs_neg_ns,0,0,0,0,,,,,,,,,,,,,,,,,,,,,1,20,44,19,,,,,,,,,,,,,,,,,,,,,,,,,,,396,reward,,,,,,1331.8430171,1331.8430171,1331.8430171,1331.8430171,0,,,0,,,0,,,0,,,1332.5374861,1332.5374861,1332.5374861,1332.5374861,22,C,2024-04-30_14h27.22.099,attentional_competition_task,2022.2.4,143.9364606904901,
positions.xlsx,positions_test.xlsx,positions_test_new.xlsx,stimuli.xlsx,stimuli_new.xlsx,stimuli/Social3.png,stimuli/Social4.png,stimuli/Nonsocial3.png,stimuli/Nonsocial4.png,stimuli/Social1.png,stimuli/Social2.png,stimuli/Nonsocial1.png,stimuli/Nonsocial2.png,,,"(-0.7, -0.5)",cs_neg_ns,"(-0.7, 0.5)",cs_pos_ns,"(0.7, -0.5)",cs_neg_s,"(0.7, 0.5)",cs_pos_s,0,0,0,0,,,,,,,,,,,,,,,,,,,,,1,21,45,17,,,,,,,,,,,,,,,,,,,,,,,,,,,399,reward,,,,,,1339.7594267000004,1339.7594267000004,1339.7594267000004,1339.7594267000004,0,,,0,,,0,,,1,0.026320700000724173,0.026324700000259327,1339.7594267000004,1339.7594267000004,1339.7594267000004,1339.7594267000004,22,C,2024-04-30_14h27.22.099,attentional_competition_task,2022.2.4,143.9364606904901,
positions.xlsx,positions_test.xlsx,positions_test_new.xlsx,stimuli.xlsx,stimuli_new.xlsx,stimuli/Social3.png,stimuli/Social4.png,stimuli/Nonsocial3.png,stimuli/Nonsocial4.png,stimuli/Social1.png,stimuli/Social2.png,stimuli/Nonsocial1.png,stimuli/Nonsocial2.png,,,"(-0.7, -0.5)",cs_neg_ns,"(-0.7, 0.5)",cs_pos_ns,"(0.7, -0.5)",cs_pos_s,"(0.7, 0.5)",cs_neg_s,0,0,0,0,,,,,,,,,,,,,,,,,,,,,1,22,46,16,,,,,,,,,,,,,,,,,,,,,,,,,,,408,reward,,,,,,1348.7798973999998,1348.7798973999998,1348.7798973999998,1348.7798973999998,0,,,0,,,0,,,0,,,1349.3354029000002,1349.3354029000002,1349.3354029000002,1349.3354029000002,22,C,2024-04-30_14h27.22.099,attentional_competition_task,2022.2.4,143.9364606904901,
positions.xlsx,positions_test.xlsx,positions_test_new.xlsx,stimuli.xlsx,stimuli_new.xlsx,stimuli/Social3.png,stimuli/Social4.png,stimuli/Nonsocial3.png,stimuli/Nonsocial4.png,stimuli/Social1.png,stimuli/Social2.png,stimuli/Nonsocial1.png,stimuli/Nonsocial2.png,,,"(-0.7, -0.5)",cs_pos_ns,"(-0.7, 0.5)",cs_neg_ns,"(0.7, -0.5)",cs_pos_s,"(0.7, 0.5)",cs_neg_s,0,0,0,0,,,,,,,,,,,,,,,,,,,,,1,23,47,20,,,,,,,,,,,,,,,,,,,,,,,,,,,411,loss,,,,,,1357.0503716999992,1357.0503716999992,1357.0503716999992,1357.0503716999992,0,,,0,,,0,,,1,0.13514720000057423,0.1351513999998133,1357.1823294999995,1357.1823294999995,1357.1823294999995,1357.1823294999995,22,C,2024-04-30_14h27.22.099,attentional_competition_task,2022.2.4,143.9364606904901,
positions.xlsx,positions_test.xlsx,positions_test_new.xlsx,stimuli.xlsx,stimuli_new.xlsx,stimuli/Social3.png,stimuli/Social4.png,stimuli/Nonsocial3.png,stimuli/Nonsocial4.png,stimuli/Social1.png,stimuli/Social2.png,stimuli/Nonsocial1.png,stimuli/Nonsocial2.png,,,"(-0.7, -0.5)",cs_neg_ns,"(-0.7, 0.5)",cs_pos_s,"(0.7, -0.5)",cs_pos_ns,"(0.7, 0.5)",cs_neg_s_new,0,0,0,0,,,,,,,,,,,,,,,,,,,,,,,,,,,,,0,0,0,15,0,0,0,0,,,,,,,,,,,,,,,414,reward,,,,,,1363.4946122000001,1363.4946122000001,1363.4946122000001,1363.4946122000001,0,,,1,0.5442357000010816,0.5442393000012089,0,,,0,,,1364.0362026000003,1364.0362026000003,1364.0362026000003,1364.0362026000003,22,C,2024-04-30_14h27.22.099,attentional_competition_task,2022.2.4,143.9364606904901,
positions.xlsx,positions_test.xlsx,positions_test_new.xlsx,stimuli.xlsx,stimuli_new.xlsx,stimuli/Social3.png,stimuli/Social4.png,stimuli/Nonsocial3.png,stimuli/Nonsocial4.png,stimuli/Social1.png,stimuli/Social2.png,stimuli/Nonsocial1.png,stimuli/Nonsocial2.png,,,"(-0.7, -0.5)",cs_neg_ns,"(-0.7, 0.5)",cs_pos_s,"(0.7, -0.5)",cs_pos_ns,"(0.7, 0.5)",cs_neg_s_new,0,0,0,0,,,,,,,,,,,,,,,,,,,,,,,,,,,,,0,0,0,15,1,0,1,0,,,,,,,,,,,,,,,417,reward,,,,,,1364.5709014999993,1364.5709014999993,1364.5709014999993,1364.5709014999993,0,,,0,,,1,0.0308748999996169,0.030878999999913503,0,,,1364.5709014999993,1364.5709014999993,1364.5709014999993,1364.5709014999993,22,C,2024-04-30_14h27.22.099,attentional_competition_task,2022.2.4,143.9364606904901,
positions.xlsx,positions_test.xlsx,positions_test_new.xlsx,stimuli.xlsx,stimuli_new.xlsx,stimuli/Social3.png,stimuli/Social4.png,stimuli/Nonsocial3.png,stimuli/Nonsocial4.png,stimuli/Social1.png,stimuli/Social2.png,stimuli/Nonsocial1.png,stimuli/Nonsocial2.png,,,"(-0.7, -0.5)",cs_neg_ns,"(-0.7, 0.5)",cs_pos_s,"(0.7, -0.5)",cs_pos_ns,"(0.7, 0.5)",cs_neg_s_new,0,0,0,0,,,,,,,,,,,,,,,,,,,,,,,,,,,,,0,0,0,15,2,0,2,0,,,,,,,,,,,,,,,420,reward,,,,,,1365.0778198999997,1365.0778198999997,1365.0778198999997,1365.0778198999997,0,,,0,,,1,0.032613000001219916,0.04516980000153126,0,,,1366.0014343999992,1366.0014343999992,1366.0014343999992,1366.0014343999992,22,C,2024-04-30_14h27.22.099,attentional_competition_task,2022.2.4,143.9364606904901,
positions.xlsx,positions_test.xlsx,positions_test_new.xlsx,stimuli.xlsx,stimuli_new.xlsx,stimuli/Social3.png,stimuli/Social4.png,stimuli/Nonsocial3.png,stimuli/Nonsocial4.png,stimuli/Social1.png,stimuli/Social2.png,stimuli/Nonsocial1.png,stimuli/Nonsocial2.png,,,"(-0.7, -0.5)",cs_neg_ns,"(-0.7, 0.5)",cs_pos_s,"(0.7, -0.5)",cs_pos_ns,"(0.7, 0.5)",cs_neg_s_new,0,0,0,0,,,,,,,,,,,,,,,,,,,,,,,,,,,,,0,0,0,15,,,,,,,,,,,,,,,,,,,,,,,,,,,,,,,,,,,,,,,,,,,,,,22,C,2024-04-30_14h27.22.099,attentional_competition_task,2022.2.4,143.9364606904901,
positions.xlsx,positions_test.xlsx,positions_test_new.xlsx,stimuli.xlsx,stimuli_new.xlsx,stimuli/Social3.png,stimuli/Social4.png,stimuli/Nonsocial3.png,stimuli/Nonsocial4.png,stimuli/Social1.png,stimuli/Social2.png,stimuli/Nonsocial1.png,stimuli/Nonsocial2.png,,,"(-0.7, -0.5)",cs_pos_s_new,"(-0.7, 0.5)",cs_neg_ns,"(0.7, -0.5)",cs_pos_ns,"(0.7, 0.5)",cs_neg_s,0,0,0,0,,,,,,,,,,,,,,,,,,,,,,,,,,,,,0,1,1,37,0,0,0,0,,,,,,,,,,,,,,,423,reward,,,,,,1372.0428236000007,1372.0428236000007,1372.0428236000007,1372.0428236000007,0,,,0,,,1,0.7241921999993792,0.7241956999987451,0,,,1372.7719581000001,1372.7719581000001,1372.7719581000001,1372.7719581000001,22,C,2024-04-30_14h27.22.099,attentional_competition_task,2022.2.4,143.9364606904901,
positions.xlsx,positions_test.xlsx,positions_test_new.xlsx,stimuli.xlsx,stimuli_new.xlsx,stimuli/Social3.png,stimuli/Social4.png,stimuli/Nonsocial3.png,stimuli/Nonsocial4.png,stimuli/Social1.png,stimuli/Social2.png,stimuli/Nonsocial1.png,stimuli/Nonsocial2.png,,,"(-0.7, -0.5)",cs_pos_s_new,"(-0.7, 0.5)",cs_neg_ns,"(0.7, -0.5)",cs_pos_ns,"(0.7, 0.5)",cs_neg_s,0,0,0,0,,,,,,,,,,,,,,,,,,,,,,,,,,,,,0,1,1,37,1,0,1,0,,,,,,,,,,,,,,,426,reward,,,,,,1373.2719374000008,1373.2719374000008,1373.2719374000008,1373.2719374000008,1,0.07156319999921834,0.07156699999904959,0,,,0,,,0,,,1373.3483379999998,1373.3483379999998,1373.3483379999998,1373.3483379999998,22,C,2024-04-30_14h27.22.099,attentional_competition_task,2022.2.4,143.9364606904901,
positions.xlsx,positions_test.xlsx,positions_test_new.xlsx,stimuli.xlsx,stimuli_new.xlsx,stimuli/Social3.png,stimuli/Social4.png,stimuli/Nonsocial3.png,stimuli/Nonsocial4.png,stimuli/Social1.png,stimuli/Social2.png,stimuli/Nonsocial1.png,stimuli/Nonsocial2.png,,,"(-0.7, -0.5)",cs_pos_s_new,"(-0.7, 0.5)",cs_neg_ns,"(0.7, -0.5)",cs_pos_ns,"(0.7, 0.5)",cs_neg_s,0,0,0,0,,,,,,,,,,,,,,,,,,,,,,,,,,,,,0,1,1,37,2,0,2,0,,,,,,,,,,,,,,,423,loss,,,,,,1373.8760788,1373.8760788,1373.8760788,1373.8760788,0,,,1,0.02375459999893792,0.023758299999826704,0,,,0,,,1373.8760788,1373.8760788,1373.8760788,1373.8760788,22,C,2024-04-30_14h27.22.099,attentional_competition_task,2022.2.4,143.9364606904901,
positions.xlsx,positions_test.xlsx,positions_test_new.xlsx,stimuli.xlsx,stimuli_new.xlsx,stimuli/Social3.png,stimuli/Social4.png,stimuli/Nonsocial3.png,stimuli/Nonsocial4.png,stimuli/Social1.png,stimuli/Social2.png,stimuli/Nonsocial1.png,stimuli/Nonsocial2.png,,,"(-0.7, -0.5)",cs_pos_s_new,"(-0.7, 0.5)",cs_neg_ns,"(0.7, -0.5)",cs_pos_ns,"(0.7, 0.5)",cs_neg_s,0,0,0,0,,,,,,,,,,,,,,,,,,,,,,,,,,,,,0,1,1,37,,,,,,,,,,,,,,,,,,,,,,,,,,,,,,,,,,,,,,,,,,,,,,22,C,2024-04-30_14h27.22.099,attentional_competition_task,2022.2.4,143.9364606904901,
positions.xlsx,positions_test.xlsx,positions_test_new.xlsx,stimuli.xlsx,stimuli_new.xlsx,stimuli/Social3.png,stimuli/Social4.png,stimuli/Nonsocial3.png,stimuli/Nonsocial4.png,stimuli/Social1.png,stimuli/Social2.png,stimuli/Nonsocial1.png,stimuli/Nonsocial2.png,,,"(-0.7, -0.5)",cs_pos_ns,"(-0.7, 0.5)",cs_pos_s,"(0.7, -0.5)",cs_neg_s_new,"(0.7, 0.5)",cs_neg_ns,0,0,0,0,,,,,,,,,,,,,,,,,,,,,,,,,,,,,0,2,2,8,0,0,0,0,,,,,,,,,,,,,,,420,loss,,,,,,1381.2993943000001,1381.2993943000001,1381.2993943000001,1381.2993943000001,0,,,0,,,0,,,1,0.1827792000003683,0.1827833000006649,1381.4799782999999,1381.4799782999999,1381.4799782999999,1381.4799782999999,22,C,2024-04-30_14h27.22.099,attentional_competition_task,2022.2.4,143.9364606904901,
positions.xlsx,positions_test.xlsx,positions_test_new.xlsx,stimuli.xlsx,stimuli_new.xlsx,stimuli/Social3.png,stimuli/Social4.png,stimuli/Nonsocial3.png,stimuli/Nonsocial4.png,stimuli/Social1.png,stimuli/Social2.png,stimuli/Nonsocial1.png,stimuli/Nonsocial2.png,,,"(-0.7, -0.5)",cs_pos_ns,"(-0.7, 0.5)",cs_pos_s,"(0.7, -0.5)",cs_neg_s_new,"(0.7, 0.5)",cs_neg_ns,0,0,0,0,,,,,,,,,,,,,,,,,,,,,,,,,,,,,0,2,2,8,1,0,1,0,,,,,,,,,,,,,,,423,reward,,,,,,1382.0146449999993,1382.0146449999993,1382.0146449999993,1382.0146449999993,0,,,1,0.023917000000437838,0.02392090000103053,0,,,0,,,1382.0146449999993,1382.0146449999993,1382.0146449999993,1382.0146449999993,22,C,2024-04-30_14h27.22.099,attentional_competition_task,2022.2.4,143.9364606904901,
positions.xlsx,positions_test.xlsx,positions_test_new.xlsx,stimuli.xlsx,stimuli_new.xlsx,stimuli/Social3.png,stimuli/Social4.png,stimuli/Nonsocial3.png,stimuli/Nonsocial4.png,stimuli/Social1.png,stimuli/Social2.png,stimuli/Nonsocial1.png,stimuli/Nonsocial2.png,,,"(-0.7, -0.5)",cs_pos_ns,"(-0.7, 0.5)",cs_pos_s,"(0.7, -0.5)",cs_neg_s_new,"(0.7, 0.5)",cs_neg_ns,0,0,0,0,,,,,,,,,,,,,,,,,,,,,,,,,,,,,0,2,2,8,2,0,2,0,,,,,,,,,,,,,,,426,reward,,,,,,1382.5493308000005,1382.5493308000005,1382.5493308000005,1382.5493308000005,1,0.030218800000511692,0.030222700001104386,0,,,0,,,0,,,1382.5493308000005,1382.5493308000005,1382.5493308000005,1382.5493308000005,22,C,2024-04-30_14h27.22.099,attentional_competition_task,2022.2.4,143.9364606904901,
positions.xlsx,positions_test.xlsx,positions_test_new.xlsx,stimuli.xlsx,stimuli_new.xlsx,stimuli/Social3.png,stimuli/Social4.png,stimuli/Nonsocial3.png,stimuli/Nonsocial4.png,stimuli/Social1.png,stimuli/Social2.png,stimuli/Nonsocial1.png,stimuli/Nonsocial2.png,,,"(-0.7, -0.5)",cs_pos_ns,"(-0.7, 0.5)",cs_pos_s,"(0.7, -0.5)",cs_neg_s_new,"(0.7, 0.5)",cs_neg_ns,0,0,0,0,,,,,,,,,,,,,,,,,,,,,,,,,,,,,0,2,2,8,3,0,3,0,,,,,,,,,,,,,,,423,loss,,,,,,1383.0840666999993,1383.0840666999993,1383.0840666999993,1383.0840666999993,0,,,0,,,1,0.029325800000151503,0.029329800001505646,0,,,1383.0840666999993,1383.0840666999993,1383.0840666999993,1383.0840666999993,22,C,2024-04-30_14h27.22.099,attentional_competition_task,2022.2.4,143.9364606904901,
positions.xlsx,positions_test.xlsx,positions_test_new.xlsx,stimuli.xlsx,stimuli_new.xlsx,stimuli/Social3.png,stimuli/Social4.png,stimuli/Nonsocial3.png,stimuli/Nonsocial4.png,stimuli/Social1.png,stimuli/Social2.png,stimuli/Nonsocial1.png,stimuli/Nonsocial2.png,,,"(-0.7, -0.5)",cs_pos_ns,"(-0.7, 0.5)",cs_pos_s,"(0.7, -0.5)",cs_neg_s_new,"(0.7, 0.5)",cs_neg_ns,0,0,0,0,,,,,,,,,,,,,,,,,,,,,,,,,,,,,0,2,2,8,,,,,,,,,,,,,,,,,,,,,,,,,,,,,,,,,,,,,,,,,,,,,,22,C,2024-04-30_14h27.22.099,attentional_competition_task,2022.2.4,143.9364606904901,
positions.xlsx,positions_test.xlsx,positions_test_new.xlsx,stimuli.xlsx,stimuli_new.xlsx,stimuli/Social3.png,stimuli/Social4.png,stimuli/Nonsocial3.png,stimuli/Nonsocial4.png,stimuli/Social1.png,stimuli/Social2.png,stimuli/Nonsocial1.png,stimuli/Nonsocial2.png,,,"(-0.7, -0.5)",cs_neg_s_new,"(-0.7, 0.5)",cs_neg_ns,"(0.7, -0.5)",cs_pos_s,"(0.7, 0.5)",cs_pos_ns,0,0,0,0,,,,,,,,,,,,,,,,,,,,,,,,,,,,,0,3,3,9,0,0,0,0,,,,,,,,,,,,,,,426,reward,,,,,,1389.3337964000002,1389.3337964000002,1389.3337964000002,1389.3337964000002,0,,,0,,,1,0.4954765000002226,0.4954806000005192,0,,,1389.8337771000006,1389.8337771000006,1389.8337771000006,1389.8337771000006,22,C,2024-04-30_14h27.22.099,attentional_competition_task,2022.2.4,143.9364606904901,
positions.xlsx,positions_test.xlsx,positions_test_new.xlsx,stimuli.xlsx,stimuli_new.xlsx,stimuli/Social3.png,stimuli/Social4.png,stimuli/Nonsocial3.png,stimuli/Nonsocial4.png,stimuli/Social1.png,stimuli/Social2.png,stimuli/Nonsocial1.png,stimuli/Nonsocial2.png,,,"(-0.7, -0.5)",cs_neg_s_new,"(-0.7, 0.5)",cs_neg_ns,"(0.7, -0.5)",cs_pos_s,"(0.7, 0.5)",cs_pos_ns,0,0,0,0,,,,,,,,,,,,,,,,,,,,,,,,,,,,,0,3,3,9,1,0,1,0,,,,,,,,,,,,,,,429,reward,,,,,,1390.3824599,1390.3824599,1390.3824599,1390.3824599,0,,,0,,,0,,,1,0.041274400000475,0.04128390000005311,1390.3824599,1390.3824599,1390.3824599,1390.3824599,22,C,2024-04-30_14h27.22.099,attentional_competition_task,2022.2.4,143.9364606904901,
positions.xlsx,positions_test.xlsx,positions_test_new.xlsx,stimuli.xlsx,stimuli_new.xlsx,stimuli/Social3.png,stimuli/Social4.png,stimuli/Nonsocial3.png,stimuli/Nonsocial4.png,stimuli/Social1.png,stimuli/Social2.png,stimuli/Nonsocial1.png,stimuli/Nonsocial2.png,,,"(-0.7, -0.5)",cs_neg_s_new,"(-0.7, 0.5)",cs_neg_ns,"(0.7, -0.5)",cs_pos_s,"(0.7, 0.5)",cs_pos_ns,0,0,0,0,,,,,,,,,,,,,,,,,,,,,,,,,,,,,0,3,3,9,2,0,2,0,,,,,,,,,,,,,,,432,reward,,,,,,1390.8823668000005,1390.8823668000005,1390.8823668000005,1390.8823668000005,0,,,0,,,0,,,1,0.20655040000019653,0.4627044000008027,1391.8476379000003,1391.8476379000003,1391.8476379000003,1391.8476379000003,22,C,2024-04-30_14h27.22.099,attentional_competition_task,2022.2.4,143.9364606904901,
positions.xlsx,positions_test.xlsx,positions_test_new.xlsx,stimuli.xlsx,stimuli_new.xlsx,stimuli/Social3.png,stimuli/Social4.png,stimuli/Nonsocial3.png,stimuli/Nonsocial4.png,stimuli/Social1.png,stimuli/Social2.png,stimuli/Nonsocial1.png,stimuli/Nonsocial2.png,,,"(-0.7, -0.5)",cs_neg_s_new,"(-0.7, 0.5)",cs_neg_ns,"(0.7, -0.5)",cs_pos_s,"(0.7, 0.5)",cs_pos_ns,0,0,0,0,,,,,,,,,,,,,,,,,,,,,,,,,,,,,0,3,3,9,,,,,,,,,,,,,,,,,,,,,,,,,,,,,,,,,,,,,,,,,,,,,,22,C,2024-04-30_14h27.22.099,attentional_competition_task,2022.2.4,143.9364606904901,
positions.xlsx,positions_test.xlsx,positions_test_new.xlsx,stimuli.xlsx,stimuli_new.xlsx,stimuli/Social3.png,stimuli/Social4.png,stimuli/Nonsocial3.png,stimuli/Nonsocial4.png,stimuli/Social1.png,stimuli/Social2.png,stimuli/Nonsocial1.png,stimuli/Nonsocial2.png,,,"(-0.7, -0.5)",cs_neg_ns,"(-0.7, 0.5)",cs_pos_s,"(0.7, -0.5)",cs_pos_ns_new,"(0.7, 0.5)",cs_neg_s,0,0,0,0,,,,,,,,,,,,,,,,,,,,,,,,,,,,,0,4,4,47,0,0,0,0,,,,,,,,,,,,,,,435,reward,,,,,,1398.1111769,1398.1111769,1398.1111769,1398.1111769,0,,,1,0.2251949000001332,0.22519869999996445,0,,,0,,,1398.3403956999991,1398.3403956999991,1398.3403956999991,1398.3403956999991,22,C,2024-04-30_14h27.22.099,attentional_competition_task,2022.2.4,143.9364606904901,
positions.xlsx,positions_test.xlsx,positions_test_new.xlsx,stimuli.xlsx,stimuli_new.xlsx,stimuli/Social3.png,stimuli/Social4.png,stimuli/Nonsocial3.png,stimuli/Nonsocial4.png,stimuli/Social1.png,stimuli/Social2.png,stimuli/Nonsocial1.png,stimuli/Nonsocial2.png,,,"(-0.7, -0.5)",cs_neg_ns,"(-0.7, 0.5)",cs_pos_s,"(0.7, -0.5)",cs_pos_ns_new,"(0.7, 0.5)",cs_neg_s,0,0,0,0,,,,,,,,,,,,,,,,,,,,,,,,,,,,,0,4,4,47,1,0,1,0,,,,,,,,,,,,,,,438,reward,,,,,,1398.8473211,1398.8473211,1398.8473211,1398.8473211,0,,,0,,,1,0.16128440000102273,0.16128810000009253,0,,,1399.0070369000005,1399.0070369000005,1399.0070369000005,1399.0070369000005,22,C,2024-04-30_14h27.22.099,attentional_competition_task,2022.2.4,143.9364606904901,
positions.xlsx,positions_test.xlsx,positions_test_new.xlsx,stimuli.xlsx,stimuli_new.xlsx,stimuli/Social3.png,stimuli/Social4.png,stimuli/Nonsocial3.png,stimuli/Nonsocial4.png,stimuli/Social1.png,stimuli/Social2.png,stimuli/Nonsocial1.png,stimuli/Nonsocial2.png,,,"(-0.7, -0.5)",cs_neg_ns,"(-0.7, 0.5)",cs_pos_s,"(0.7, -0.5)",cs_pos_ns_new,"(0.7, 0.5)",cs_neg_s,0,0,0,0,,,,,,,,,,,,,,,,,,,,,,,,,,,,,0,4,4,47,2,0,2,0,,,,,,,,,,,,,,,435,loss,,,,,,1399.5070109000008,1399.5070109000008,1399.5070109000008,1399.5070109000008,1,0.1004118999990169,0.10041559999990568,0,,,0,,,0,,,1399.6111421000005,1399.6111421000005,1399.6111421000005,1399.6111421000005,22,C,2024-04-30_14h27.22.099,attentional_competition_task,2022.2.4,143.9364606904901,
positions.xlsx,positions_test.xlsx,positions_test_new.xlsx,stimuli.xlsx,stimuli_new.xlsx,stimuli/Social3.png,stimuli/Social4.png,stimuli/Nonsocial3.png,stimuli/Nonsocial4.png,stimuli/Social1.png,stimuli/Social2.png,stimuli/Nonsocial1.png,stimuli/Nonsocial2.png,,,"(-0.7, -0.5)",cs_neg_ns,"(-0.7, 0.5)",cs_pos_s,"(0.7, -0.5)",cs_pos_ns_new,"(0.7, 0.5)",cs_neg_s,0,0,0,0,,,,,,,,,,,,,,,,,,,,,,,,,,,,,0,4,4,47,3,0,3,0,,,,,,,,,,,,,,,432,loss,,,,,,1400.6458679999996,1400.6458679999996,1400.6458679999996,1400.6458679999996,0,,,0,,,0,,,0,,,1400.6458679999996,1400.6458679999996,1400.6458679999996,1400.6458679999996,22,C,2024-04-30_14h27.22.099,attentional_competition_task,2022.2.4,143.9364606904901,
positions.xlsx,positions_test.xlsx,positions_test_new.xlsx,stimuli.xlsx,stimuli_new.xlsx,stimuli/Social3.png,stimuli/Social4.png,stimuli/Nonsocial3.png,stimuli/Nonsocial4.png,stimuli/Social1.png,stimuli/Social2.png,stimuli/Nonsocial1.png,stimuli/Nonsocial2.png,,,"(-0.7, -0.5)",cs_neg_ns,"(-0.7, 0.5)",cs_pos_s,"(0.7, -0.5)",cs_pos_ns_new,"(0.7, 0.5)",cs_neg_s,0,0,0,0,,,,,,,,,,,,,,,,,,,,,,,,,,,,,0,4,4,47,,,,,,,,,,,,,,,,,,,,,,,,,,,,,,,,,,,,,,,,,,,,,,22,C,2024-04-30_14h27.22.099,attentional_competition_task,2022.2.4,143.9364606904901,
positions.xlsx,positions_test.xlsx,positions_test_new.xlsx,stimuli.xlsx,stimuli_new.xlsx,stimuli/Social3.png,stimuli/Social4.png,stimuli/Nonsocial3.png,stimuli/Nonsocial4.png,stimuli/Social1.png,stimuli/Social2.png,stimuli/Nonsocial1.png,stimuli/Nonsocial2.png,,,"(-0.7, -0.5)",cs_neg_s,"(-0.7, 0.5)",cs_pos_ns,"(0.7, -0.5)",cs_pos_s_new,"(0.7, 0.5)",cs_neg_ns,0,0,0,0,,,,,,,,,,,,,,,,,,,,,,,,,,,,,0,5,5,30,0,0,0,0,,,,,,,,,,,,,,,435,reward,,,,,,1405.9104932999999,1405.9104932999999,1405.9104932999999,1405.9104932999999,0,,,0,,,1,0.5376627000005101,0.5376663000006374,0,,,1406.4372542,1406.4372542,1406.4372542,1406.4372542,22,C,2024-04-30_14h27.22.099,attentional_competition_task,2022.2.4,143.9364606904901,
positions.xlsx,positions_test.xlsx,positions_test_new.xlsx,stimuli.xlsx,stimuli_new.xlsx,stimuli/Social3.png,stimuli/Social4.png,stimuli/Nonsocial3.png,stimuli/Nonsocial4.png,stimuli/Social1.png,stimuli/Social2.png,stimuli/Nonsocial1.png,stimuli/Nonsocial2.png,,,"(-0.7, -0.5)",cs_neg_s,"(-0.7, 0.5)",cs_pos_ns,"(0.7, -0.5)",cs_pos_s_new,"(0.7, 0.5)",cs_neg_ns,0,0,0,0,,,,,,,,,,,,,,,,,,,,,,,,,,,,,0,5,5,30,1,0,1,0,,,,,,,,,,,,,,,432,loss,,,,,,1406.9789385999993,1406.9789385999993,1406.9789385999993,1406.9789385999993,0,,,0,,,0,,,1,0.03399900000113121,0.03400350000083563,1406.9789385999993,1406.9789385999993,1406.9789385999993,1406.9789385999993,22,C,2024-04-30_14h27.22.099,attentional_competition_task,2022.2.4,143.9364606904901,
positions.xlsx,positions_test.xlsx,positions_test_new.xlsx,stimuli.xlsx,stimuli_new.xlsx,stimuli/Social3.png,stimuli/Social4.png,stimuli/Nonsocial3.png,stimuli/Nonsocial4.png,stimuli/Social1.png,stimuli/Social2.png,stimuli/Nonsocial1.png,stimuli/Nonsocial2.png,,,"(-0.7, -0.5)",cs_neg_s,"(-0.7, 0.5)",cs_pos_ns,"(0.7, -0.5)",cs_pos_s_new,"(0.7, 0.5)",cs_neg_ns,0,0,0,0,,,,,,,,,,,,,,,,,,,,,,,,,,,,,0,5,5,30,2,0,2,0,,,,,,,,,,,,,,,435,reward,,,,,,1407.4997151999996,1407.4997151999996,1407.4997151999996,1407.4997151999996,0,,,1,0.0273667999990721,0.027370600000722334,0,,,0,,,1407.4997151999996,1407.4997151999996,1407.4997151999996,1407.4997151999996,22,C,2024-04-30_14h27.22.099,attentional_competition_task,2022.2.4,143.9364606904901,
positions.xlsx,positions_test.xlsx,positions_test_new.xlsx,stimuli.xlsx,stimuli_new.xlsx,stimuli/Social3.png,stimuli/Social4.png,stimuli/Nonsocial3.png,stimuli/Nonsocial4.png,stimuli/Social1.png,stimuli/Social2.png,stimuli/Nonsocial1.png,stimuli/Nonsocial2.png,,,"(-0.7, -0.5)",cs_neg_s,"(-0.7, 0.5)",cs_pos_ns,"(0.7, -0.5)",cs_pos_s_new,"(0.7, 0.5)",cs_neg_ns,0,0,0,0,,,,,,,,,,,,,,,,,,,,,,,,,,,,,0,5,5,30,,,,,,,,,,,,,,,,,,,,,,,,,,,,,,,,,,,,,,,,,,,,,,22,C,2024-04-30_14h27.22.099,attentional_competition_task,2022.2.4,143.9364606904901,
positions.xlsx,positions_test.xlsx,positions_test_new.xlsx,stimuli.xlsx,stimuli_new.xlsx,stimuli/Social3.png,stimuli/Social4.png,stimuli/Nonsocial3.png,stimuli/Nonsocial4.png,stimuli/Social1.png,stimuli/Social2.png,stimuli/Nonsocial1.png,stimuli/Nonsocial2.png,,,"(-0.7, -0.5)",cs_neg_s,"(-0.7, 0.5)",cs_pos_ns,"(0.7, -0.5)",cs_neg_ns,"(0.7, 0.5)",cs_pos_s,0,0,0,0,,,,,,,,,,,,,,,,,,,,,,,,,,,,,0,6,6,1,0,0,0,0,,,,,,,,,,,,,,,438,reward,,,,,,1415.1591597000006,1415.1591597000006,1415.1591597000006,1415.1591597000006,0,,,0,,,0,,,1,0.5656359999993583,0.565639899999951,1415.7216742,1415.7216742,1415.7216742,1415.7216742,22,C,2024-04-30_14h27.22.099,attentional_competition_task,2022.2.4,143.9364606904901,
positions.xlsx,positions_test.xlsx,positions_test_new.xlsx,stimuli.xlsx,stimuli_new.xlsx,stimuli/Social3.png,stimuli/Social4.png,stimuli/Nonsocial3.png,stimuli/Nonsocial4.png,stimuli/Social1.png,stimuli/Social2.png,stimuli/Nonsocial1.png,stimuli/Nonsocial2.png,,,"(-0.7, -0.5)",cs_neg_s,"(-0.7, 0.5)",cs_pos_ns,"(0.7, -0.5)",cs_neg_ns,"(0.7, 0.5)",cs_pos_s,0,0,0,0,,,,,,,,,,,,,,,,,,,,,,,,,,,,,0,6,6,1,1,0,1,0,,,,,,,,,,,,,,,441,reward,,,,,,1416.2563362,1416.2563362,1416.2563362,1416.2563362,0,,,1,0.028592700000444893,0.028596399999514688,0,,,0,,,1416.2563362,1416.2563362,1416.2563362,1416.2563362,22,C,2024-04-30_14h27.22.099,attentional_competition_task,2022.2.4,143.9364606904901,
positions.xlsx,positions_test.xlsx,positions_test_new.xlsx,stimuli.xlsx,stimuli_new.xlsx,stimuli/Social3.png,stimuli/Social4.png,stimuli/Nonsocial3.png,stimuli/Nonsocial4.png,stimuli/Social1.png,stimuli/Social2.png,stimuli/Nonsocial1.png,stimuli/Nonsocial2.png,,,"(-0.7, -0.5)",cs_neg_s,"(-0.7, 0.5)",cs_pos_ns,"(0.7, -0.5)",cs_neg_ns,"(0.7, 0.5)",cs_pos_s,0,0,0,0,,,,,,,,,,,,,,,,,,,,,,,,,,,,,0,6,6,1,2,0,2,0,,,,,,,,,,,,,,,444,reward,,,,,,1416.7563317999993,1416.7563317999993,1416.7563317999993,1416.7563317999993,0,,,0,,,0,,,1,0.3158763000010367,0.4068215000006603,1417.6660319000002,1417.6660319000002,1417.6660319000002,1417.6660319000002,22,C,2024-04-30_14h27.22.099,attentional_competition_task,2022.2.4,143.9364606904901,
positions.xlsx,positions_test.xlsx,positions_test_new.xlsx,stimuli.xlsx,stimuli_new.xlsx,stimuli/Social3.png,stimuli/Social4.png,stimuli/Nonsocial3.png,stimuli/Nonsocial4.png,stimuli/Social1.png,stimuli/Social2.png,stimuli/Nonsocial1.png,stimuli/Nonsocial2.png,,,"(-0.7, -0.5)",cs_neg_s,"(-0.7, 0.5)",cs_pos_ns,"(0.7, -0.5)",cs_neg_ns,"(0.7, 0.5)",cs_pos_s,0,0,0,0,,,,,,,,,,,,,,,,,,,,,,,,,,,,,0,6,6,1,,,,,,,,,,,,,,,,,,,,,,,,,,,,,,,,,,,,,,,,,,,,,,22,C,2024-04-30_14h27.22.099,attentional_competition_task,2022.2.4,143.9364606904901,
positions.xlsx,positions_test.xlsx,positions_test_new.xlsx,stimuli.xlsx,stimuli_new.xlsx,stimuli/Social3.png,stimuli/Social4.png,stimuli/Nonsocial3.png,stimuli/Nonsocial4.png,stimuli/Social1.png,stimuli/Social2.png,stimuli/Nonsocial1.png,stimuli/Nonsocial2.png,,,"(-0.7, -0.5)",cs_pos_ns,"(-0.7, 0.5)",cs_pos_s,"(0.7, -0.5)",cs_neg_ns,"(0.7, 0.5)",cs_neg_s,0,0,0,0,,,,,,,,,,,,,,,,,,,,,,,,,,,,,0,7,7,4,0,0,0,0,,,,,,,,,,,,,,,447,reward,,,,,,1423.7768684999992,1423.7768684999992,1423.7768684999992,1423.7768684999992,0,,,1,0.572142699998949,0.5789710999997624,0,,,0,,,1424.3601497,1424.3601497,1424.3601497,1424.3601497,22,C,2024-04-30_14h27.22.099,attentional_competition_task,2022.2.4,143.9364606904901,
positions.xlsx,positions_test.xlsx,positions_test_new.xlsx,stimuli.xlsx,stimuli_new.xlsx,stimuli/Social3.png,stimuli/Social4.png,stimuli/Nonsocial3.png,stimuli/Nonsocial4.png,stimuli/Social1.png,stimuli/Social2.png,stimuli/Nonsocial1.png,stimuli/Nonsocial2.png,,,"(-0.7, -0.5)",cs_pos_ns,"(-0.7, 0.5)",cs_pos_s,"(0.7, -0.5)",cs_neg_ns,"(0.7, 0.5)",cs_neg_s,0,0,0,0,,,,,,,,,,,,,,,,,,,,,,,,,,,,,0,7,7,4,1,0,1,0,,,,,,,,,,,,,,,444,loss,,,,,,1424.8948836,1424.8948836,1424.8948836,1424.8948836,0,,,0,,,1,0.030730600001334096,0.0307345000001078,0,,,1424.8948836,1424.8948836,1424.8948836,1424.8948836,22,C,2024-04-30_14h27.22.099,attentional_competition_task,2022.2.4,143.9364606904901,
positions.xlsx,positions_test.xlsx,positions_test_new.xlsx,stimuli.xlsx,stimuli_new.xlsx,stimuli/Social3.png,stimuli/Social4.png,stimuli/Nonsocial3.png,stimuli/Nonsocial4.png,stimuli/Social1.png,stimuli/Social2.png,stimuli/Nonsocial1.png,stimuli/Nonsocial2.png,,,"(-0.7, -0.5)",cs_pos_ns,"(-0.7, 0.5)",cs_pos_s,"(0.7, -0.5)",cs_neg_ns,"(0.7, 0.5)",cs_neg_s,0,0,0,0,,,,,,,,,,,,,,,,,,,,,,,,,,,,,0,7,7,4,2,0,2,0,,,,,,,,,,,,,,,447,reward,,,,,,1425.4295831,1425.4295831,1425.4295831,1425.4295831,1,0.027852100000018254,0.027856000000610948,0,,,0,,,0,,,1425.4295831,1425.4295831,1425.4295831,1425.4295831,22,C,2024-04-30_14h27.22.099,attentional_competition_task,2022.2.4,143.9364606904901,
positions.xlsx,positions_test.xlsx,positions_test_new.xlsx,stimuli.xlsx,stimuli_new.xlsx,stimuli/Social3.png,stimuli/Social4.png,stimuli/Nonsocial3.png,stimuli/Nonsocial4.png,stimuli/Social1.png,stimuli/Social2.png,stimuli/Nonsocial1.png,stimuli/Nonsocial2.png,,,"(-0.7, -0.5)",cs_pos_ns,"(-0.7, 0.5)",cs_pos_s,"(0.7, -0.5)",cs_neg_ns,"(0.7, 0.5)",cs_neg_s,0,0,0,0,,,,,,,,,,,,,,,,,,,,,,,,,,,,,0,7,7,4,,,,,,,,,,,,,,,,,,,,,,,,,,,,,,,,,,,,,,,,,,,,,,22,C,2024-04-30_14h27.22.099,attentional_competition_task,2022.2.4,143.9364606904901,
