posFile,posFileTest,posFileTestNew,stimFile,stimFileNew,cs_neg_s,cs_pos_s,cs_neg_ns,cs_pos_ns,cs_neg_s_new,cs_pos_s_new,cs_neg_ns_new,cs_pos_ns_new,stim,position,position1,stim1,position2,stim2,position3,stim3,position4,stim4,blocks.thisRepN,blocks.thisTrialN,blocks.thisN,blocks.thisIndex,ratingtrials1.thisRepN,ratingtrials1.thisTrialN,ratingtrials1.thisN,ratingtrials1.thisIndex,search_task_trials.thisRepN,search_task_trials.thisTrialN,search_task_trials.thisN,search_task_trials.thisIndex,learning_trials.thisRepN,learning_trials.thisTrialN,learning_trials.thisN,learning_trials.thisIndex,trials.thisRepN,trials.thisTrialN,trials.thisN,trials.thisIndex,ratingtrials2.thisRepN,ratingtrials2.thisTrialN,ratingtrials2.thisN,ratingtrials2.thisIndex,testtrials.thisRepN,testtrials.thisTrialN,testtrials.thisN,testtrials.thisIndex,loop_test.thisRepN,loop_test.thisTrialN,loop_test.thisN,loop_test.thisIndex,testtrials_novelty.thisRepN,testtrials_novelty.thisTrialN,testtrials_novelty.thisN,testtrials_novelty.thisIndex,loop_test_novelty.thisRepN,loop_test_novelty.thisTrialN,loop_test_novelty.thisN,loop_test_novelty.thisIndex,ratingtrials3.thisRepN,ratingtrials3.thisTrialN,ratingtrials3.thisN,ratingtrials3.thisIndex,textStart.started,textStartExp.started,imageRating.started,sliderStim.response,sliderStim.rt,textStartSearch.started,target_positions,distractor_positions,textStartTask.started,image.started,score,outcome,roi.numLooks,roi.timesOn,roi.timesOff,imageFeedback.started,textTestInstr.started,test_image1.started,test_image2.started,test_image3.started,test_image4.started,test_roi1.numLooks,test_roi1.timesOn,test_roi1.timesOff,test_roi2.numLooks,test_roi2.timesOn,test_roi2.timesOff,test_roi3.numLooks,test_roi3.timesOn,test_roi3.timesOff,test_roi4.numLooks,test_roi4.timesOn,test_roi4.timesOff,test_image_feedback1.started,test_image_feedback2.started,test_iamge_feedback3.started,test_iamge_feedback4.started,participant,group,date,expName,psychopyVersion,frameRate,
positions.xlsx,positions_test.xlsx,positions_test_new.xlsx,stimuli.xlsx,stimuli_new.xlsx,stimuli/Social1.png,stimuli/Social2.png,stimuli/Nonsocial1.png,stimuli/Nonsocial2.png,stimuli/Social3.png,stimuli/Social4.png,stimuli/Nonsocial3.png,stimuli/Nonsocial4.png,cs_neg_s,,,,,,,,,,0,0,0,0,0,0,0,0,,,,,,,,,,,,,,,,,,,,,,,,,,,,,,,,,,,,,13.166219799999908,214.17812819999995,220.6353360999999,6.0,8.796958500000073,,,,,,,,,,,,,,,,,,,,,,,,,,,,,,,,,27,A,2024-05-08_08h21.02.835,attentional_competition_task,2022.2.4,143.98454181937524,
positions.xlsx,positions_test.xlsx,positions_test_new.xlsx,stimuli.xlsx,stimuli_new.xlsx,stimuli/Social1.png,stimuli/Social2.png,stimuli/Nonsocial1.png,stimuli/Nonsocial2.png,stimuli/Social3.png,stimuli/Social4.png,stimuli/Nonsocial3.png,stimuli/Nonsocial4.png,cs_neg_ns,,,,,,,,,,0,0,0,0,0,1,1,1,,,,,,,,,,,,,,,,,,,,,,,,,,,,,,,,,,,,,,,230.54462639999997,9.0,2.64091099999996,,,,,,,,,,,,,,,,,,,,,,,,,,,,,,,,,27,A,2024-05-08_08h21.02.835,attentional_competition_task,2022.2.4,143.98454181937524,
positions.xlsx,positions_test.xlsx,positions_test_new.xlsx,stimuli.xlsx,stimuli_new.xlsx,stimuli/Social1.png,stimuli/Social2.png,stimuli/Nonsocial1.png,stimuli/Nonsocial2.png,stimuli/Social3.png,stimuli/Social4.png,stimuli/Nonsocial3.png,stimuli/Nonsocial4.png,cs_pos_ns,,,,,,,,,,0,0,0,0,0,2,2,3,,,,,,,,,,,,,,,,,,,,,,,,,,,,,,,,,,,,,,,233.6278081999999,9.0,2.2408353999999235,,,,,,,,,,,,,,,,,,,,,,,,,,,,,,,,,27,A,2024-05-08_08h21.02.835,attentional_competition_task,2022.2.4,143.98454181937524,
positions.xlsx,positions_test.xlsx,positions_test_new.xlsx,stimuli.xlsx,stimuli_new.xlsx,stimuli/Social1.png,stimuli/Social2.png,stimuli/Nonsocial1.png,stimuli/Nonsocial2.png,stimuli/Social3.png,stimuli/Social4.png,stimuli/Nonsocial3.png,stimuli/Nonsocial4.png,cs_pos_s,,,,,,,,,,0,0,0,0,0,3,3,2,,,,,,,,,,,,,,,,,,,,,,,,,,,,,,,,,,,,,,,236.26656909999997,6.0,2.8672544999999445,,,,,,,,,,,,,,,,,,,,,,,,,,,,,,,,,27,A,2024-05-08_08h21.02.835,attentional_competition_task,2022.2.4,143.98454181937524,
positions.xlsx,positions_test.xlsx,positions_test_new.xlsx,stimuli.xlsx,stimuli_new.xlsx,stimuli/Social1.png,stimuli/Social2.png,stimuli/Nonsocial1.png,stimuli/Nonsocial2.png,stimuli/Social3.png,stimuli/Social4.png,stimuli/Nonsocial3.png,stimuli/Nonsocial4.png,,,,,,,,,,,0,0,0,0,,,,,0,0,0,0,,,,,,,,,,,,,,,,,,,,,,,,,,,,,,,,,,,,,,239.66227189999995,"[[0.9, -0.30000000000000004], [0.6749999999999999, -0.8], [0.9, -0.8], [0.0, -0.8], [-0.45, -0.8], [-0.9, 0.7], [0.9, 0.7], [0.22499999999999998, -0.8], [-0.22499999999999998, -0.30000000000000004], [0.9, 0.19999999999999996], [-0.675, -0.8], [-0.45, 0.7], [-0.675, 0.7], [-0.9, 0.19999999999999996], [-0.9, -0.8]]","[[0.6749999999999999, 0.19999999999999996], [-0.675, 0.19999999999999996], [0.0, 0.7], [-0.22499999999999998, -0.8], [0.22499999999999998, -0.30000000000000004], [-0.22499999999999998, 0.7], [0.0, -0.30000000000000004], [0.45000000000000007, -0.8], [0.45000000000000007, 0.7], [-0.45, -0.30000000000000004], [-0.675, -0.30000000000000004], [-0.45, 0.19999999999999996], [-0.22499999999999998, 0.19999999999999996], [0.22499999999999998, 0.19999999999999996], [0.45000000000000007, 0.19999999999999996]]",,,,,,,,,,,,,,,,,,,,,,,,,,,,,,27,A,2024-05-08_08h21.02.835,attentional_competition_task,2022.2.4,143.98454181937524,
positions.xlsx,positions_test.xlsx,positions_test_new.xlsx,stimuli.xlsx,stimuli_new.xlsx,stimuli/Social1.png,stimuli/Social2.png,stimuli/Nonsocial1.png,stimuli/Nonsocial2.png,stimuli/Social3.png,stimuli/Social4.png,stimuli/Nonsocial3.png,stimuli/Nonsocial4.png,,,,,,,,,,,0,0,0,0,,,,,1,0,1,0,,,,,,,,,,,,,,,,,,,,,,,,,,,,,,,,,,,,,,,"[[-0.9, 0.19999999999999996], [0.22499999999999998, -0.8], [-0.675, 0.7], [0.6749999999999999, -0.8], [-0.45, 0.7], [0.0, -0.30000000000000004], [0.9, 0.7], [0.6749999999999999, -0.30000000000000004], [-0.45, -0.30000000000000004], [-0.9, -0.30000000000000004], [0.22499999999999998, 0.19999999999999996], [0.22499999999999998, -0.30000000000000004], [0.0, 0.19999999999999996], [0.6749999999999999, 0.19999999999999996], [0.9, 0.19999999999999996]]","[[-0.675, -0.30000000000000004], [0.9, -0.8], [-0.675, 0.19999999999999996], [0.22499999999999998, 0.7], [-0.22499999999999998, 0.7], [0.6749999999999999, 0.7], [0.45000000000000007, -0.8], [0.45000000000000007, 0.19999999999999996], [-0.45, -0.8], [0.45000000000000007, 0.7], [0.0, 0.7], [0.9, -0.30000000000000004], [-0.45, 0.19999999999999996], [-0.22499999999999998, 0.19999999999999996], [-0.675, -0.8]]",,,,,,,,,,,,,,,,,,,,,,,,,,,,,,27,A,2024-05-08_08h21.02.835,attentional_competition_task,2022.2.4,143.98454181937524,
positions.xlsx,positions_test.xlsx,positions_test_new.xlsx,stimuli.xlsx,stimuli_new.xlsx,stimuli/Social1.png,stimuli/Social2.png,stimuli/Nonsocial1.png,stimuli/Nonsocial2.png,stimuli/Social3.png,stimuli/Social4.png,stimuli/Nonsocial3.png,stimuli/Nonsocial4.png,cs_neg_s,"(0.7, 0.5)",,,,,,,,,0,0,0,0,,,,,,,,,0,0,0,2,,,,,,,,,,,,,,,,,,,,,,,,,,,,,,,,,,,,,321.8532768,341.5260584,-3,loss,1,0.2500379000000521,0.250041900000042,341.8038285,,,,,,,,,,,,,,,,,,,,,,27,A,2024-05-08_08h21.02.835,attentional_competition_task,2022.2.4,143.98454181937524,
positions.xlsx,positions_test.xlsx,positions_test_new.xlsx,stimuli.xlsx,stimuli_new.xlsx,stimuli/Social1.png,stimuli/Social2.png,stimuli/Nonsocial1.png,stimuli/Nonsocial2.png,stimuli/Social3.png,stimuli/Social4.png,stimuli/Nonsocial3.png,stimuli/Nonsocial4.png,cs_neg_s,"(-0.7, 0.5)",,,,,,,,,0,0,0,0,,,,,,,,,0,1,1,0,,,,,,,,,,,,,,,,,,,,,,,,,,,,,,,,,,,,,,348.7410135,-3,none,0,,,351.76174259999993,,,,,,,,,,,,,,,,,,,,,,27,A,2024-05-08_08h21.02.835,attentional_competition_task,2022.2.4,143.98454181937524,
positions.xlsx,positions_test.xlsx,positions_test_new.xlsx,stimuli.xlsx,stimuli_new.xlsx,stimuli/Social1.png,stimuli/Social2.png,stimuli/Nonsocial1.png,stimuli/Nonsocial2.png,stimuli/Social3.png,stimuli/Social4.png,stimuli/Nonsocial3.png,stimuli/Nonsocial4.png,cs_neg_ns,"(-0.7, 0.5)",,,,,,,,,0,0,0,0,,,,,,,,,0,2,2,8,,,,,,,,,,,,,,,,,,,,,,,,,,,,,,,,,,,,,,359.7336335,-6,loss,1,0.2643325999999888,0.26433640000004743,360.01142389999995,,,,,,,,,,,,,,,,,,,,,,27,A,2024-05-08_08h21.02.835,attentional_competition_task,2022.2.4,143.98454181937524,
positions.xlsx,positions_test.xlsx,positions_test_new.xlsx,stimuli.xlsx,stimuli_new.xlsx,stimuli/Social1.png,stimuli/Social2.png,stimuli/Nonsocial1.png,stimuli/Nonsocial2.png,stimuli/Social3.png,stimuli/Social4.png,stimuli/Nonsocial3.png,stimuli/Nonsocial4.png,cs_neg_ns,"(-0.7, -0.5)",,,,,,,,,0,0,0,0,,,,,,,,,0,3,3,9,,,,,,,,,,,,,,,,,,,,,,,,,,,,,,,,,,,,,,367.663867,-9,loss,1,0.29882709999992585,0.29883090000021184,367.96942620000004,,,,,,,,,,,,,,,,,,,,,,27,A,2024-05-08_08h21.02.835,attentional_competition_task,2022.2.4,143.98454181937524,
positions.xlsx,positions_test.xlsx,positions_test_new.xlsx,stimuli.xlsx,stimuli_new.xlsx,stimuli/Social1.png,stimuli/Social2.png,stimuli/Nonsocial1.png,stimuli/Nonsocial2.png,stimuli/Social3.png,stimuli/Social4.png,stimuli/Nonsocial3.png,stimuli/Nonsocial4.png,cs_neg_s,"(0.7, -0.5)",,,,,,,,,0,0,0,0,,,,,,,,,0,4,4,3,,,,,,,,,,,,,,,,,,,,,,,,,,,,,,,,,,,,,,375.10106900000005,-12,loss,1,0.43093899999985297,0.4309428999999909,375.53855369999997,,,,,,,,,,,,,,,,,,,,,,27,A,2024-05-08_08h21.02.835,attentional_competition_task,2022.2.4,143.98454181937524,
positions.xlsx,positions_test.xlsx,positions_test_new.xlsx,stimuli.xlsx,stimuli_new.xlsx,stimuli/Social1.png,stimuli/Social2.png,stimuli/Nonsocial1.png,stimuli/Nonsocial2.png,stimuli/Social3.png,stimuli/Social4.png,stimuli/Nonsocial3.png,stimuli/Nonsocial4.png,cs_neg_ns,"(0.7, -0.5)",,,,,,,,,0,0,0,0,,,,,,,,,0,5,5,11,,,,,,,,,,,,,,,,,,,,,,,,,,,,,,,,,,,,,,382.59374520000006,-15,loss,1,0.5486054999996668,0.5486089000000902,383.14929860000007,,,,,,,,,,,,,,,,,,,,,,27,A,2024-05-08_08h21.02.835,attentional_competition_task,2022.2.4,143.98454181937524,
positions.xlsx,positions_test.xlsx,positions_test_new.xlsx,stimuli.xlsx,stimuli_new.xlsx,stimuli/Social1.png,stimuli/Social2.png,stimuli/Nonsocial1.png,stimuli/Nonsocial2.png,stimuli/Social3.png,stimuli/Social4.png,stimuli/Nonsocial3.png,stimuli/Nonsocial4.png,cs_pos_s,"(0.7, 0.5)",,,,,,,,,0,0,0,0,,,,,,,,,0,6,6,6,,,,,,,,,,,,,,,,,,,,,,,,,,,,,,,,,,,,,,390.75314049999974,-15,none,0,,,393.7599981999999,,,,,,,,,,,,,,,,,,,,,,27,A,2024-05-08_08h21.02.835,attentional_competition_task,2022.2.4,143.98454181937524,
positions.xlsx,positions_test.xlsx,positions_test_new.xlsx,stimuli.xlsx,stimuli_new.xlsx,stimuli/Social1.png,stimuli/Social2.png,stimuli/Nonsocial1.png,stimuli/Nonsocial2.png,stimuli/Social3.png,stimuli/Social4.png,stimuli/Nonsocial3.png,stimuli/Nonsocial4.png,cs_pos_s,"(-0.7, 0.5)",,,,,,,,,0,0,0,0,,,,,,,,,0,7,7,4,,,,,,,,,,,,,,,,,,,,,,,,,,,,,,,,,,,,,,401.40550329999974,-15,none,0,,,404.41231600000015,,,,,,,,,,,,,,,,,,,,,,27,A,2024-05-08_08h21.02.835,attentional_competition_task,2022.2.4,143.98454181937524,
positions.xlsx,positions_test.xlsx,positions_test_new.xlsx,stimuli.xlsx,stimuli_new.xlsx,stimuli/Social1.png,stimuli/Social2.png,stimuli/Nonsocial1.png,stimuli/Nonsocial2.png,stimuli/Social3.png,stimuli/Social4.png,stimuli/Nonsocial3.png,stimuli/Nonsocial4.png,cs_pos_s,"(0.7, -0.5)",,,,,,,,,0,0,0,0,,,,,,,,,0,8,8,7,,,,,,,,,,,,,,,,,,,,,,,,,,,,,,,,,,,,,,411.4189724999999,-12,reward,1,0.5211066000001665,0.5279611000000841,411.9606046000001,,,,,,,,,,,,,,,,,,,,,,27,A,2024-05-08_08h21.02.835,attentional_competition_task,2022.2.4,143.98454181937524,
positions.xlsx,positions_test.xlsx,positions_test_new.xlsx,stimuli.xlsx,stimuli_new.xlsx,stimuli/Social1.png,stimuli/Social2.png,stimuli/Nonsocial1.png,stimuli/Nonsocial2.png,stimuli/Social3.png,stimuli/Social4.png,stimuli/Nonsocial3.png,stimuli/Nonsocial4.png,cs_neg_s,"(-0.7, -0.5)",,,,,,,,,0,0,0,0,,,,,,,,,0,9,9,1,,,,,,,,,,,,,,,,,,,,,,,,,,,,,,,,,,,,,,419.6130876999998,-15,loss,1,0.3888959999999315,0.38889990000006947,420.0089231999998,,,,,,,,,,,,,,,,,,,,,,27,A,2024-05-08_08h21.02.835,attentional_competition_task,2022.2.4,143.98454181937524,
positions.xlsx,positions_test.xlsx,positions_test_new.xlsx,stimuli.xlsx,stimuli_new.xlsx,stimuli/Social1.png,stimuli/Social2.png,stimuli/Nonsocial1.png,stimuli/Nonsocial2.png,stimuli/Social3.png,stimuli/Social4.png,stimuli/Nonsocial3.png,stimuli/Nonsocial4.png,cs_neg_ns,"(0.7, 0.5)",,,,,,,,,0,0,0,0,,,,,,,,,0,10,10,10,,,,,,,,,,,,,,,,,,,,,,,,,,,,,,,,,,,,,,427.1127638999999,-15,none,0,,,430.1265243,,,,,,,,,,,,,,,,,,,,,,27,A,2024-05-08_08h21.02.835,attentional_competition_task,2022.2.4,143.98454181937524,
positions.xlsx,positions_test.xlsx,positions_test_new.xlsx,stimuli.xlsx,stimuli_new.xlsx,stimuli/Social1.png,stimuli/Social2.png,stimuli/Nonsocial1.png,stimuli/Nonsocial2.png,stimuli/Social3.png,stimuli/Social4.png,stimuli/Nonsocial3.png,stimuli/Nonsocial4.png,cs_pos_ns,"(-0.7, 0.5)",,,,,,,,,0,0,0,0,,,,,,,,,0,11,11,12,,,,,,,,,,,,,,,,,,,,,,,,,,,,,,,,,,,,,,437.66786639999987,-12,reward,1,1.243108900000152,1.2431122000002688,438.9178193,,,,,,,,,,,,,,,,,,,,,,27,A,2024-05-08_08h21.02.835,attentional_competition_task,2022.2.4,143.98454181937524,
positions.xlsx,positions_test.xlsx,positions_test_new.xlsx,stimuli.xlsx,stimuli_new.xlsx,stimuli/Social1.png,stimuli/Social2.png,stimuli/Nonsocial1.png,stimuli/Nonsocial2.png,stimuli/Social3.png,stimuli/Social4.png,stimuli/Nonsocial3.png,stimuli/Nonsocial4.png,cs_pos_s,"(-0.7, -0.5)",,,,,,,,,0,0,0,0,,,,,,,,,0,12,12,5,,,,,,,,,,,,,,,,,,,,,,,,,,,,,,,,,,,,,,446.5286153999998,-9,reward,1,0.8473844999998619,0.8473878999998306,447.3827174999999,,,,,,,,,,,,,,,,,,,,,,27,A,2024-05-08_08h21.02.835,attentional_competition_task,2022.2.4,143.98454181937524,
positions.xlsx,positions_test.xlsx,positions_test_new.xlsx,stimuli.xlsx,stimuli_new.xlsx,stimuli/Social1.png,stimuli/Social2.png,stimuli/Nonsocial1.png,stimuli/Nonsocial2.png,stimuli/Social3.png,stimuli/Social4.png,stimuli/Nonsocial3.png,stimuli/Nonsocial4.png,cs_pos_ns,"(-0.7, -0.5)",,,,,,,,,0,0,0,0,,,,,,,,,0,13,13,13,,,,,,,,,,,,,,,,,,,,,,,,,,,,,,,,,,,,,,455.04909740000016,-6,reward,1,1.000209399999676,1.000213199999962,456.0560036999998,,,,,,,,,,,,,,,,,,,,,,27,A,2024-05-08_08h21.02.835,attentional_competition_task,2022.2.4,143.98454181937524,
positions.xlsx,positions_test.xlsx,positions_test_new.xlsx,stimuli.xlsx,stimuli_new.xlsx,stimuli/Social1.png,stimuli/Social2.png,stimuli/Nonsocial1.png,stimuli/Nonsocial2.png,stimuli/Social3.png,stimuli/Social4.png,stimuli/Nonsocial3.png,stimuli/Nonsocial4.png,cs_pos_ns,"(0.7, 0.5)",,,,,,,,,0,0,0,0,,,,,,,,,0,14,14,14,,,,,,,,,,,,,,,,,,,,,,,,,,,,,,,,,,,,,,462.7640491999998,-3,reward,1,1.1944361999999273,1.1944401000000653,463.9654229999999,,,,,,,,,,,,,,,,,,,,,,27,A,2024-05-08_08h21.02.835,attentional_competition_task,2022.2.4,143.98454181937524,
positions.xlsx,positions_test.xlsx,positions_test_new.xlsx,stimuli.xlsx,stimuli_new.xlsx,stimuli/Social1.png,stimuli/Social2.png,stimuli/Nonsocial1.png,stimuli/Nonsocial2.png,stimuli/Social3.png,stimuli/Social4.png,stimuli/Nonsocial3.png,stimuli/Nonsocial4.png,cs_pos_ns,"(0.7, -0.5)",,,,,,,,,0,0,0,0,,,,,,,,,0,15,15,15,,,,,,,,,,,,,,,,,,,,,,,,,,,,,,,,,,,,,,471.82616440000015,0,reward,1,0.5838791000001038,0.583882999999787,472.4164202999998,,,,,,,,,,,,,,,,,,,,,,27,A,2024-05-08_08h21.02.835,attentional_competition_task,2022.2.4,143.98454181937524,
positions.xlsx,positions_test.xlsx,positions_test_new.xlsx,stimuli.xlsx,stimuli_new.xlsx,stimuli/Social1.png,stimuli/Social2.png,stimuli/Nonsocial1.png,stimuli/Nonsocial2.png,stimuli/Social3.png,stimuli/Social4.png,stimuli/Nonsocial3.png,stimuli/Nonsocial4.png,cs_pos_s,"(0.7, -0.5)",,,,,,,,,0,0,0,0,,,,,,,,,1,0,16,7,,,,,,,,,,,,,,,,,,,,,,,,,,,,,,,,,,,,,,478.9994776000001,3,reward,1,0.5768597999999656,0.576863300000241,479.58277650000014,,,,,,,,,,,,,,,,,,,,,,27,A,2024-05-08_08h21.02.835,attentional_competition_task,2022.2.4,143.98454181937524,
positions.xlsx,positions_test.xlsx,positions_test_new.xlsx,stimuli.xlsx,stimuli_new.xlsx,stimuli/Social1.png,stimuli/Social2.png,stimuli/Nonsocial1.png,stimuli/Nonsocial2.png,stimuli/Social3.png,stimuli/Social4.png,stimuli/Nonsocial3.png,stimuli/Nonsocial4.png,cs_neg_s,"(0.7, 0.5)",,,,,,,,,0,0,0,0,,,,,,,,,1,1,17,2,,,,,,,,,,,,,,,,,,,,,,,,,,,,,,,,,,,,,,486.58941549999986,3,none,0,,,489.60320220000017,,,,,,,,,,,,,,,,,,,,,,27,A,2024-05-08_08h21.02.835,attentional_competition_task,2022.2.4,143.98454181937524,
positions.xlsx,positions_test.xlsx,positions_test_new.xlsx,stimuli.xlsx,stimuli_new.xlsx,stimuli/Social1.png,stimuli/Social2.png,stimuli/Nonsocial1.png,stimuli/Nonsocial2.png,stimuli/Social3.png,stimuli/Social4.png,stimuli/Nonsocial3.png,stimuli/Nonsocial4.png,cs_neg_s,"(0.7, -0.5)",,,,,,,,,0,0,0,0,,,,,,,,,1,2,18,3,,,,,,,,,,,,,,,,,,,,,,,,,,,,,,,,,,,,,,496.7278770999999,3,none,0,,,499.73470969999994,,,,,,,,,,,,,,,,,,,,,,27,A,2024-05-08_08h21.02.835,attentional_competition_task,2022.2.4,143.98454181937524,
positions.xlsx,positions_test.xlsx,positions_test_new.xlsx,stimuli.xlsx,stimuli_new.xlsx,stimuli/Social1.png,stimuli/Social2.png,stimuli/Nonsocial1.png,stimuli/Nonsocial2.png,stimuli/Social3.png,stimuli/Social4.png,stimuli/Nonsocial3.png,stimuli/Nonsocial4.png,cs_pos_s,"(-0.7, -0.5)",,,,,,,,,0,0,0,0,,,,,,,,,1,3,19,5,,,,,,,,,,,,,,,,,,,,,,,,,,,,,,,,,,,,,,507.2135461999999,6,reward,1,0.4377471000002515,0.44517780000023777,507.66497330000016,,,,,,,,,,,,,,,,,,,,,,27,A,2024-05-08_08h21.02.835,attentional_competition_task,2022.2.4,143.98454181937524,
positions.xlsx,positions_test.xlsx,positions_test_new.xlsx,stimuli.xlsx,stimuli_new.xlsx,stimuli/Social1.png,stimuli/Social2.png,stimuli/Nonsocial1.png,stimuli/Nonsocial2.png,stimuli/Social3.png,stimuli/Social4.png,stimuli/Nonsocial3.png,stimuli/Nonsocial4.png,cs_pos_ns,"(-0.7, -0.5)",,,,,,,,,0,0,0,0,,,,,,,,,1,4,20,13,,,,,,,,,,,,,,,,,,,,,,,,,,,,,,,,,,,,,,514.5951956000001,9,reward,1,0.6256758999998056,0.6256798999997955,515.2271149000001,,,,,,,,,,,,,,,,,,,,,,27,A,2024-05-08_08h21.02.835,attentional_competition_task,2022.2.4,143.98454181937524,
positions.xlsx,positions_test.xlsx,positions_test_new.xlsx,stimuli.xlsx,stimuli_new.xlsx,stimuli/Social1.png,stimuli/Social2.png,stimuli/Nonsocial1.png,stimuli/Nonsocial2.png,stimuli/Social3.png,stimuli/Social4.png,stimuli/Nonsocial3.png,stimuli/Nonsocial4.png,cs_neg_s,"(-0.7, 0.5)",,,,,,,,,0,0,0,0,,,,,,,,,1,5,21,0,,,,,,,,,,,,,,,,,,,,,,,,,,,,,,,,,,,,,,522.4837510999998,9,none,0,,,525.4906047000002,,,,,,,,,,,,,,,,,,,,,,27,A,2024-05-08_08h21.02.835,attentional_competition_task,2022.2.4,143.98454181937524,
positions.xlsx,positions_test.xlsx,positions_test_new.xlsx,stimuli.xlsx,stimuli_new.xlsx,stimuli/Social1.png,stimuli/Social2.png,stimuli/Nonsocial1.png,stimuli/Nonsocial2.png,stimuli/Social3.png,stimuli/Social4.png,stimuli/Nonsocial3.png,stimuli/Nonsocial4.png,cs_neg_s,"(-0.7, -0.5)",,,,,,,,,0,0,0,0,,,,,,,,,1,6,22,1,,,,,,,,,,,,,,,,,,,,,,,,,,,,,,,,,,,,,,532.8166478,9,none,0,,,535.8235155999998,,,,,,,,,,,,,,,,,,,,,,27,A,2024-05-08_08h21.02.835,attentional_competition_task,2022.2.4,143.98454181937524,
positions.xlsx,positions_test.xlsx,positions_test_new.xlsx,stimuli.xlsx,stimuli_new.xlsx,stimuli/Social1.png,stimuli/Social2.png,stimuli/Nonsocial1.png,stimuli/Nonsocial2.png,stimuli/Social3.png,stimuli/Social4.png,stimuli/Nonsocial3.png,stimuli/Nonsocial4.png,cs_neg_ns,"(-0.7, 0.5)",,,,,,,,,0,0,0,0,,,,,,,,,1,7,23,8,,,,,,,,,,,,,,,,,,,,,,,,,,,,,,,,,,,,,,543.8023230000001,6,loss,1,0.4308397999998306,0.4308433999999579,544.2398013,,,,,,,,,,,,,,,,,,,,,,27,A,2024-05-08_08h21.02.835,attentional_competition_task,2022.2.4,143.98454181937524,
positions.xlsx,positions_test.xlsx,positions_test_new.xlsx,stimuli.xlsx,stimuli_new.xlsx,stimuli/Social1.png,stimuli/Social2.png,stimuli/Nonsocial1.png,stimuli/Nonsocial2.png,stimuli/Social3.png,stimuli/Social4.png,stimuli/Nonsocial3.png,stimuli/Nonsocial4.png,cs_pos_ns,"(0.7, 0.5)",,,,,,,,,0,0,0,0,,,,,,,,,1,8,24,14,,,,,,,,,,,,,,,,,,,,,,,,,,,,,,,,,,,,,,551.7325539000001,9,reward,1,0.8542653999998038,0.8542689000000792,552.5936012,,,,,,,,,,,,,,,,,,,,,,27,A,2024-05-08_08h21.02.835,attentional_competition_task,2022.2.4,143.98454181937524,
positions.xlsx,positions_test.xlsx,positions_test_new.xlsx,stimuli.xlsx,stimuli_new.xlsx,stimuli/Social1.png,stimuli/Social2.png,stimuli/Nonsocial1.png,stimuli/Nonsocial2.png,stimuli/Social3.png,stimuli/Social4.png,stimuli/Nonsocial3.png,stimuli/Nonsocial4.png,cs_pos_ns,"(-0.7, 0.5)",,,,,,,,,0,0,0,0,,,,,,,,,1,9,25,12,,,,,,,,,,,,,,,,,,,,,,,,,,,,,,,,,,,,,,560.0377609,9,none,0,,,563.0515299000001,,,,,,,,,,,,,,,,,,,,,,27,A,2024-05-08_08h21.02.835,attentional_competition_task,2022.2.4,143.98454181937524,
positions.xlsx,positions_test.xlsx,positions_test_new.xlsx,stimuli.xlsx,stimuli_new.xlsx,stimuli/Social1.png,stimuli/Social2.png,stimuli/Nonsocial1.png,stimuli/Nonsocial2.png,stimuli/Social3.png,stimuli/Social4.png,stimuli/Nonsocial3.png,stimuli/Nonsocial4.png,cs_neg_ns,"(-0.7, -0.5)",,,,,,,,,0,0,0,0,,,,,,,,,1,10,26,9,,,,,,,,,,,,,,,,,,,,,,,,,,,,,,,,,,,,,,570.2387379999998,9,none,0,,,573.2524867,,,,,,,,,,,,,,,,,,,,,,27,A,2024-05-08_08h21.02.835,attentional_competition_task,2022.2.4,143.98454181937524,
positions.xlsx,positions_test.xlsx,positions_test_new.xlsx,stimuli.xlsx,stimuli_new.xlsx,stimuli/Social1.png,stimuli/Social2.png,stimuli/Nonsocial1.png,stimuli/Nonsocial2.png,stimuli/Social3.png,stimuli/Social4.png,stimuli/Nonsocial3.png,stimuli/Nonsocial4.png,cs_neg_ns,"(0.7, -0.5)",,,,,,,,,0,0,0,0,,,,,,,,,1,11,27,11,,,,,,,,,,,,,,,,,,,,,,,,,,,,,,,,,,,,,,580.1133333,9,none,0,,,583.1270787999999,,,,,,,,,,,,,,,,,,,,,,27,A,2024-05-08_08h21.02.835,attentional_competition_task,2022.2.4,143.98454181937524,
positions.xlsx,positions_test.xlsx,positions_test_new.xlsx,stimuli.xlsx,stimuli_new.xlsx,stimuli/Social1.png,stimuli/Social2.png,stimuli/Nonsocial1.png,stimuli/Nonsocial2.png,stimuli/Social3.png,stimuli/Social4.png,stimuli/Nonsocial3.png,stimuli/Nonsocial4.png,cs_pos_ns,"(0.7, -0.5)",,,,,,,,,0,0,0,0,,,,,,,,,1,12,28,15,,,,,,,,,,,,,,,,,,,,,,,,,,,,,,,,,,,,,,590.4115221,12,reward,1,0.610996399999749,0.6179971999999907,591.0364818,,,,,,,,,,,,,,,,,,,,,,27,A,2024-05-08_08h21.02.835,attentional_competition_task,2022.2.4,143.98454181937524,
positions.xlsx,positions_test.xlsx,positions_test_new.xlsx,stimuli.xlsx,stimuli_new.xlsx,stimuli/Social1.png,stimuli/Social2.png,stimuli/Nonsocial1.png,stimuli/Nonsocial2.png,stimuli/Social3.png,stimuli/Social4.png,stimuli/Nonsocial3.png,stimuli/Nonsocial4.png,cs_neg_ns,"(0.7, 0.5)",,,,,,,,,0,0,0,0,,,,,,,,,1,13,29,10,,,,,,,,,,,,,,,,,,,,,,,,,,,,,,,,,,,,,,597.8418877000001,12,none,0,,,600.8485672999998,,,,,,,,,,,,,,,,,,,,,,27,A,2024-05-08_08h21.02.835,attentional_competition_task,2022.2.4,143.98454181937524,
positions.xlsx,positions_test.xlsx,positions_test_new.xlsx,stimuli.xlsx,stimuli_new.xlsx,stimuli/Social1.png,stimuli/Social2.png,stimuli/Nonsocial1.png,stimuli/Nonsocial2.png,stimuli/Social3.png,stimuli/Social4.png,stimuli/Nonsocial3.png,stimuli/Nonsocial4.png,cs_pos_s,"(0.7, 0.5)",,,,,,,,,0,0,0,0,,,,,,,,,1,14,30,6,,,,,,,,,,,,,,,,,,,,,,,,,,,,,,,,,,,,,,608.9177327,15,reward,1,0.5414740000001075,0.5414774000000762,609.4662485000001,,,,,,,,,,,,,,,,,,,,,,27,A,2024-05-08_08h21.02.835,attentional_competition_task,2022.2.4,143.98454181937524,
positions.xlsx,positions_test.xlsx,positions_test_new.xlsx,stimuli.xlsx,stimuli_new.xlsx,stimuli/Social1.png,stimuli/Social2.png,stimuli/Nonsocial1.png,stimuli/Nonsocial2.png,stimuli/Social3.png,stimuli/Social4.png,stimuli/Nonsocial3.png,stimuli/Nonsocial4.png,cs_pos_s,"(-0.7, 0.5)",,,,,,,,,0,0,0,0,,,,,,,,,1,15,31,4,,,,,,,,,,,,,,,,,,,,,,,,,,,,,,,,,,,,,,616.7784592999999,18,reward,1,0.7710109999998167,0.7710145000000921,617.5562078999999,,,,,,,,,,,,,,,,,,,,,,27,A,2024-05-08_08h21.02.835,attentional_competition_task,2022.2.4,143.98454181937524,
positions.xlsx,positions_test.xlsx,positions_test_new.xlsx,stimuli.xlsx,stimuli_new.xlsx,stimuli/Social1.png,stimuli/Social2.png,stimuli/Nonsocial1.png,stimuli/Nonsocial2.png,stimuli/Social3.png,stimuli/Social4.png,stimuli/Nonsocial3.png,stimuli/Nonsocial4.png,cs_neg_ns,"(-0.7, 0.5)",,,,,,,,,0,0,0,0,,,,,,,,,,,,,0,0,0,8,,,,,,,,,,,,,,,,,,,,,,,,,,,,,,,,,,636.7359531,18,none,0,,,639.7566568,,,,,,,,,,,,,,,,,,,,,,27,A,2024-05-08_08h21.02.835,attentional_competition_task,2022.2.4,143.98454181937524,
positions.xlsx,positions_test.xlsx,positions_test_new.xlsx,stimuli.xlsx,stimuli_new.xlsx,stimuli/Social1.png,stimuli/Social2.png,stimuli/Nonsocial1.png,stimuli/Nonsocial2.png,stimuli/Social3.png,stimuli/Social4.png,stimuli/Nonsocial3.png,stimuli/Nonsocial4.png,cs_neg_ns,"(-0.7, -0.5)",,,,,,,,,0,0,0,0,,,,,,,,,,,,,0,1,1,9,,,,,,,,,,,,,,,,,,,,,,,,,,,,,,,,,,647.1591571000001,18,none,0,,,650.165976,,,,,,,,,,,,,,,,,,,,,,27,A,2024-05-08_08h21.02.835,attentional_competition_task,2022.2.4,143.98454181937524,
positions.xlsx,positions_test.xlsx,positions_test_new.xlsx,stimuli.xlsx,stimuli_new.xlsx,stimuli/Social1.png,stimuli/Social2.png,stimuli/Nonsocial1.png,stimuli/Nonsocial2.png,stimuli/Social3.png,stimuli/Social4.png,stimuli/Nonsocial3.png,stimuli/Nonsocial4.png,cs_pos_ns,"(0.7, -0.5)",,,,,,,,,0,0,0,0,,,,,,,,,,,,,0,2,2,15,,,,,,,,,,,,,,,,,,,,,,,,,,,,,,,,,,657.9225727999999,21,reward,1,0.4456697000000531,0.44567349999988437,658.3739828,,,,,,,,,,,,,,,,,,,,,,27,A,2024-05-08_08h21.02.835,attentional_competition_task,2022.2.4,143.98454181937524,
positions.xlsx,positions_test.xlsx,positions_test_new.xlsx,stimuli.xlsx,stimuli_new.xlsx,stimuli/Social1.png,stimuli/Social2.png,stimuli/Nonsocial1.png,stimuli/Nonsocial2.png,stimuli/Social3.png,stimuli/Social4.png,stimuli/Nonsocial3.png,stimuli/Nonsocial4.png,cs_pos_ns,"(0.7, 0.5)",,,,,,,,,0,0,0,0,,,,,,,,,,,,,0,3,3,14,,,,,,,,,,,,,,,,,,,,,,,,,,,,,,,,,,666.0055930000001,24,reward,1,0.6115597000002708,0.6115633000003982,666.6236227000002,,,,,,,,,,,,,,,,,,,,,,27,A,2024-05-08_08h21.02.835,attentional_competition_task,2022.2.4,143.98454181937524,
positions.xlsx,positions_test.xlsx,positions_test_new.xlsx,stimuli.xlsx,stimuli_new.xlsx,stimuli/Social1.png,stimuli/Social2.png,stimuli/Nonsocial1.png,stimuli/Nonsocial2.png,stimuli/Social3.png,stimuli/Social4.png,stimuli/Nonsocial3.png,stimuli/Nonsocial4.png,cs_pos_ns,"(-0.7, 0.5)",,,,,,,,,0,0,0,0,,,,,,,,,,,,,0,4,4,12,,,,,,,,,,,,,,,,,,,,,,,,,,,,,,,,,,674.6441265999999,27,reward,1,0.6115039999999681,0.6115076000000954,675.2621400999999,,,,,,,,,,,,,,,,,,,,,,27,A,2024-05-08_08h21.02.835,attentional_competition_task,2022.2.4,143.98454181937524,
positions.xlsx,positions_test.xlsx,positions_test_new.xlsx,stimuli.xlsx,stimuli_new.xlsx,stimuli/Social1.png,stimuli/Social2.png,stimuli/Nonsocial1.png,stimuli/Nonsocial2.png,stimuli/Social3.png,stimuli/Social4.png,stimuli/Nonsocial3.png,stimuli/Nonsocial4.png,cs_neg_s,"(0.7, 0.5)",,,,,,,,,0,0,0,0,,,,,,,,,,,,,0,5,5,2,,,,,,,,,,,,,,,,,,,,,,,,,,,,,,,,,,682.9632214000001,27,none,0,,,685.9700240999998,,,,,,,,,,,,,,,,,,,,,,27,A,2024-05-08_08h21.02.835,attentional_competition_task,2022.2.4,143.98454181937524,
positions.xlsx,positions_test.xlsx,positions_test_new.xlsx,stimuli.xlsx,stimuli_new.xlsx,stimuli/Social1.png,stimuli/Social2.png,stimuli/Nonsocial1.png,stimuli/Nonsocial2.png,stimuli/Social3.png,stimuli/Social4.png,stimuli/Nonsocial3.png,stimuli/Nonsocial4.png,cs_pos_s,"(-0.7, 0.5)",,,,,,,,,0,0,0,0,,,,,,,,,,,,,0,6,6,4,,,,,,,,,,,,,,,,,,,,,,,,,,,,,,,,,,693.6642254000001,30,reward,1,0.5072390999998788,0.5072430000000168,694.1780688000001,,,,,,,,,,,,,,,,,,,,,,27,A,2024-05-08_08h21.02.835,attentional_competition_task,2022.2.4,143.98454181937524,
positions.xlsx,positions_test.xlsx,positions_test_new.xlsx,stimuli.xlsx,stimuli_new.xlsx,stimuli/Social1.png,stimuli/Social2.png,stimuli/Nonsocial1.png,stimuli/Nonsocial2.png,stimuli/Social3.png,stimuli/Social4.png,stimuli/Nonsocial3.png,stimuli/Nonsocial4.png,cs_neg_s,"(-0.7, 0.5)",,,,,,,,,0,0,0,0,,,,,,,,,,,,,0,7,7,0,,,,,,,,,,,,,,,,,,,,,,,,,,,,,,,,,,700.9416644999999,30,none,0,,,703.9485026999998,,,,,,,,,,,,,,,,,,,,,,27,A,2024-05-08_08h21.02.835,attentional_competition_task,2022.2.4,143.98454181937524,
positions.xlsx,positions_test.xlsx,positions_test_new.xlsx,stimuli.xlsx,stimuli_new.xlsx,stimuli/Social1.png,stimuli/Social2.png,stimuli/Nonsocial1.png,stimuli/Nonsocial2.png,stimuli/Social3.png,stimuli/Social4.png,stimuli/Nonsocial3.png,stimuli/Nonsocial4.png,cs_pos_s,"(0.7, 0.5)",,,,,,,,,0,0,0,0,,,,,,,,,,,,,0,8,8,6,,,,,,,,,,,,,,,,,,,,,,,,,,,,,,,,,,711.2120539999999,33,reward,1,0.45167780000019775,0.45168139999987034,711.6704155,,,,,,,,,,,,,,,,,,,,,,27,A,2024-05-08_08h21.02.835,attentional_competition_task,2022.2.4,143.98454181937524,
positions.xlsx,positions_test.xlsx,positions_test_new.xlsx,stimuli.xlsx,stimuli_new.xlsx,stimuli/Social1.png,stimuli/Social2.png,stimuli/Nonsocial1.png,stimuli/Nonsocial2.png,stimuli/Social3.png,stimuli/Social4.png,stimuli/Nonsocial3.png,stimuli/Nonsocial4.png,cs_neg_ns,"(0.7, -0.5)",,,,,,,,,0,0,0,0,,,,,,,,,,,,,0,9,9,11,,,,,,,,,,,,,,,,,,,,,,,,,,,,,,,,,,719.5867460000002,33,none,0,,,722.6004876999998,,,,,,,,,,,,,,,,,,,,,,27,A,2024-05-08_08h21.02.835,attentional_competition_task,2022.2.4,143.98454181937524,
positions.xlsx,positions_test.xlsx,positions_test_new.xlsx,stimuli.xlsx,stimuli_new.xlsx,stimuli/Social1.png,stimuli/Social2.png,stimuli/Nonsocial1.png,stimuli/Nonsocial2.png,stimuli/Social3.png,stimuli/Social4.png,stimuli/Nonsocial3.png,stimuli/Nonsocial4.png,cs_neg_s,"(-0.7, -0.5)",,,,,,,,,0,0,0,0,,,,,,,,,,,,,0,10,10,1,,,,,,,,,,,,,,,,,,,,,,,,,,,,,,,,,,730.1834572,33,none,0,,,733.1902760999999,,,,,,,,,,,,,,,,,,,,,,27,A,2024-05-08_08h21.02.835,attentional_competition_task,2022.2.4,143.98454181937524,
positions.xlsx,positions_test.xlsx,positions_test_new.xlsx,stimuli.xlsx,stimuli_new.xlsx,stimuli/Social1.png,stimuli/Social2.png,stimuli/Nonsocial1.png,stimuli/Nonsocial2.png,stimuli/Social3.png,stimuli/Social4.png,stimuli/Nonsocial3.png,stimuli/Nonsocial4.png,cs_neg_ns,"(0.7, 0.5)",,,,,,,,,0,0,0,0,,,,,,,,,,,,,0,11,11,10,,,,,,,,,,,,,,,,,,,,,,,,,,,,,,,,,,739.8774968999999,33,none,0,,,742.8913304,,,,,,,,,,,,,,,,,,,,,,27,A,2024-05-08_08h21.02.835,attentional_competition_task,2022.2.4,143.98454181937524,
positions.xlsx,positions_test.xlsx,positions_test_new.xlsx,stimuli.xlsx,stimuli_new.xlsx,stimuli/Social1.png,stimuli/Social2.png,stimuli/Nonsocial1.png,stimuli/Nonsocial2.png,stimuli/Social3.png,stimuli/Social4.png,stimuli/Nonsocial3.png,stimuli/Nonsocial4.png,cs_pos_s,"(0.7, -0.5)",,,,,,,,,0,0,0,0,,,,,,,,,,,,,0,12,12,7,,,,,,,,,,,,,,,,,,,,,,,,,,,,,,,,,,750.1201856999999,36,reward,1,0.49318829999992886,0.4931916000000456,750.6201373000001,,,,,,,,,,,,,,,,,,,,,,27,A,2024-05-08_08h21.02.835,attentional_competition_task,2022.2.4,143.98454181937524,
positions.xlsx,positions_test.xlsx,positions_test_new.xlsx,stimuli.xlsx,stimuli_new.xlsx,stimuli/Social1.png,stimuli/Social2.png,stimuli/Nonsocial1.png,stimuli/Nonsocial2.png,stimuli/Social3.png,stimuli/Social4.png,stimuli/Nonsocial3.png,stimuli/Nonsocial4.png,cs_pos_s,"(-0.7, -0.5)",,,,,,,,,0,0,0,0,,,,,,,,,,,,,0,13,13,5,,,,,,,,,,,,,,,,,,,,,,,,,,,,,,,,,,757.717069,39,reward,1,0.44421639999973195,0.44421990000000733,758.1684549999998,,,,,,,,,,,,,,,,,,,,,,27,A,2024-05-08_08h21.02.835,attentional_competition_task,2022.2.4,143.98454181937524,
positions.xlsx,positions_test.xlsx,positions_test_new.xlsx,stimuli.xlsx,stimuli_new.xlsx,stimuli/Social1.png,stimuli/Social2.png,stimuli/Nonsocial1.png,stimuli/Nonsocial2.png,stimuli/Social3.png,stimuli/Social4.png,stimuli/Nonsocial3.png,stimuli/Nonsocial4.png,cs_pos_ns,"(-0.7, -0.5)",,,,,,,,,0,0,0,0,,,,,,,,,,,,,0,14,14,13,,,,,,,,,,,,,,,,,,,,,,,,,,,,,,,,,,765.6264812000002,42,reward,1,0.6256794000000809,0.6320436999999401,766.2653290999999,,,,,,,,,,,,,,,,,,,,,,27,A,2024-05-08_08h21.02.835,attentional_competition_task,2022.2.4,143.98454181937524,
positions.xlsx,positions_test.xlsx,positions_test_new.xlsx,stimuli.xlsx,stimuli_new.xlsx,stimuli/Social1.png,stimuli/Social2.png,stimuli/Nonsocial1.png,stimuli/Nonsocial2.png,stimuli/Social3.png,stimuli/Social4.png,stimuli/Nonsocial3.png,stimuli/Nonsocial4.png,cs_neg_s,"(0.7, -0.5)",,,,,,,,,0,0,0,0,,,,,,,,,,,,,0,15,15,3,,,,,,,,,,,,,,,,,,,,,,,,,,,,,,,,,,774.0080331000001,42,none,0,,,777.0148925999999,,,,,,,,,,,,,,,,,,,,,,27,A,2024-05-08_08h21.02.835,attentional_competition_task,2022.2.4,143.98454181937524,
positions.xlsx,positions_test.xlsx,positions_test_new.xlsx,stimuli.xlsx,stimuli_new.xlsx,stimuli/Social1.png,stimuli/Social2.png,stimuli/Nonsocial1.png,stimuli/Nonsocial2.png,stimuli/Social3.png,stimuli/Social4.png,stimuli/Nonsocial3.png,stimuli/Nonsocial4.png,cs_neg_s,"(-0.7, -0.5)",,,,,,,,,0,0,0,0,,,,,,,,,,,,,1,0,16,1,,,,,,,,,,,,,,,,,,,,,,,,,,,,,,,,,,784.5145959999998,42,none,0,,,787.5214113999998,,,,,,,,,,,,,,,,,,,,,,27,A,2024-05-08_08h21.02.835,attentional_competition_task,2022.2.4,143.98454181937524,
positions.xlsx,positions_test.xlsx,positions_test_new.xlsx,stimuli.xlsx,stimuli_new.xlsx,stimuli/Social1.png,stimuli/Social2.png,stimuli/Nonsocial1.png,stimuli/Nonsocial2.png,stimuli/Social3.png,stimuli/Social4.png,stimuli/Nonsocial3.png,stimuli/Nonsocial4.png,cs_pos_ns,"(0.7, 0.5)",,,,,,,,,0,0,0,0,,,,,,,,,,,,,1,1,17,14,,,,,,,,,,,,,,,,,,,,,,,,,,,,,,,,,,794.9030257000002,45,reward,1,0.5209840000002259,0.5209875000000466,795.4308343,,,,,,,,,,,,,,,,,,,,,,27,A,2024-05-08_08h21.02.835,attentional_competition_task,2022.2.4,143.98454181937524,
positions.xlsx,positions_test.xlsx,positions_test_new.xlsx,stimuli.xlsx,stimuli_new.xlsx,stimuli/Social1.png,stimuli/Social2.png,stimuli/Nonsocial1.png,stimuli/Nonsocial2.png,stimuli/Social3.png,stimuli/Social4.png,stimuli/Nonsocial3.png,stimuli/Nonsocial4.png,cs_pos_ns,"(0.7, -0.5)",,,,,,,,,0,0,0,0,,,,,,,,,,,,,1,2,18,15,,,,,,,,,,,,,,,,,,,,,,,,,,,,,,,,,,803.0346283000001,48,reward,1,0.42412670000021535,0.4241303000003427,803.4651870999999,,,,,,,,,,,,,,,,,,,,,,27,A,2024-05-08_08h21.02.835,attentional_competition_task,2022.2.4,143.98454181937524,
positions.xlsx,positions_test.xlsx,positions_test_new.xlsx,stimuli.xlsx,stimuli_new.xlsx,stimuli/Social1.png,stimuli/Social2.png,stimuli/Nonsocial1.png,stimuli/Nonsocial2.png,stimuli/Social3.png,stimuli/Social4.png,stimuli/Nonsocial3.png,stimuli/Nonsocial4.png,cs_pos_s,"(-0.7, -0.5)",,,,,,,,,0,0,0,0,,,,,,,,,,,,,1,3,19,5,,,,,,,,,,,,,,,,,,,,,,,,,,,,,,,,,,810.9162472999999,51,reward,1,0.6042912000002616,0.6042946000002303,811.5273042000001,,,,,,,,,,,,,,,,,,,,,,27,A,2024-05-08_08h21.02.835,attentional_competition_task,2022.2.4,143.98454181937524,
positions.xlsx,positions_test.xlsx,positions_test_new.xlsx,stimuli.xlsx,stimuli_new.xlsx,stimuli/Social1.png,stimuli/Social2.png,stimuli/Nonsocial1.png,stimuli/Nonsocial2.png,stimuli/Social3.png,stimuli/Social4.png,stimuli/Nonsocial3.png,stimuli/Nonsocial4.png,cs_pos_s,"(0.7, -0.5)",,,,,,,,,0,0,0,0,,,,,,,,,,,,,1,4,20,7,,,,,,,,,,,,,,,,,,,,,,,,,,,,,,,,,,818.3048284999998,54,reward,1,0.5487169999996695,0.5487204999999449,818.8603360999998,,,,,,,,,,,,,,,,,,,,,,27,A,2024-05-08_08h21.02.835,attentional_competition_task,2022.2.4,143.98454181937524,
positions.xlsx,positions_test.xlsx,positions_test_new.xlsx,stimuli.xlsx,stimuli_new.xlsx,stimuli/Social1.png,stimuli/Social2.png,stimuli/Nonsocial1.png,stimuli/Nonsocial2.png,stimuli/Social3.png,stimuli/Social4.png,stimuli/Nonsocial3.png,stimuli/Nonsocial4.png,cs_pos_s,"(-0.7, 0.5)",,,,,,,,,0,0,0,0,,,,,,,,,,,,,1,5,21,4,,,,,,,,,,,,,,,,,,,,,,,,,,,,,,,,,,825.8392456999998,57,reward,1,0.3890314000000217,0.39594690000012633,826.2420286999998,,,,,,,,,,,,,,,,,,,,,,27,A,2024-05-08_08h21.02.835,attentional_competition_task,2022.2.4,143.98454181937524,
positions.xlsx,positions_test.xlsx,positions_test_new.xlsx,stimuli.xlsx,stimuli_new.xlsx,stimuli/Social1.png,stimuli/Social2.png,stimuli/Nonsocial1.png,stimuli/Nonsocial2.png,stimuli/Social3.png,stimuli/Social4.png,stimuli/Nonsocial3.png,stimuli/Nonsocial4.png,cs_neg_ns,"(-0.7, -0.5)",,,,,,,,,0,0,0,0,,,,,,,,,,,,,1,6,22,9,,,,,,,,,,,,,,,,,,,,,,,,,,,,,,,,,,833.0472332000002,57,none,0,,,836.0611332000001,,,,,,,,,,,,,,,,,,,,,,27,A,2024-05-08_08h21.02.835,attentional_competition_task,2022.2.4,143.98454181937524,
positions.xlsx,positions_test.xlsx,positions_test_new.xlsx,stimuli.xlsx,stimuli_new.xlsx,stimuli/Social1.png,stimuli/Social2.png,stimuli/Nonsocial1.png,stimuli/Nonsocial2.png,stimuli/Social3.png,stimuli/Social4.png,stimuli/Nonsocial3.png,stimuli/Nonsocial4.png,cs_neg_s,"(0.7, -0.5)",,,,,,,,,0,0,0,0,,,,,,,,,,,,,1,7,23,3,,,,,,,,,,,,,,,,,,,,,,,,,,,,,,,,,,843.6162560999999,57,none,0,,,846.6231772999997,,,,,,,,,,,,,,,,,,,,,,27,A,2024-05-08_08h21.02.835,attentional_competition_task,2022.2.4,143.98454181937524,
positions.xlsx,positions_test.xlsx,positions_test_new.xlsx,stimuli.xlsx,stimuli_new.xlsx,stimuli/Social1.png,stimuli/Social2.png,stimuli/Nonsocial1.png,stimuli/Nonsocial2.png,stimuli/Social3.png,stimuli/Social4.png,stimuli/Nonsocial3.png,stimuli/Nonsocial4.png,cs_pos_s,"(0.7, 0.5)",,,,,,,,,0,0,0,0,,,,,,,,,,,,,1,8,24,6,,,,,,,,,,,,,,,,,,,,,,,,,,,,,,,,,,854.0186265,60,reward,1,0.5140243000000737,0.514027900000201,854.5395090999998,,,,,,,,,,,,,,,,,,,,,,27,A,2024-05-08_08h21.02.835,attentional_competition_task,2022.2.4,143.98454181937524,
positions.xlsx,positions_test.xlsx,positions_test_new.xlsx,stimuli.xlsx,stimuli_new.xlsx,stimuli/Social1.png,stimuli/Social2.png,stimuli/Nonsocial1.png,stimuli/Nonsocial2.png,stimuli/Social3.png,stimuli/Social4.png,stimuli/Nonsocial3.png,stimuli/Nonsocial4.png,cs_neg_s,"(0.7, 0.5)",,,,,,,,,0,0,0,0,,,,,,,,,,,,,1,9,25,2,,,,,,,,,,,,,,,,,,,,,,,,,,,,,,,,,,861.7128059999998,60,none,0,,,864.7265218999999,,,,,,,,,,,,,,,,,,,,,,27,A,2024-05-08_08h21.02.835,attentional_competition_task,2022.2.4,143.98454181937524,
positions.xlsx,positions_test.xlsx,positions_test_new.xlsx,stimuli.xlsx,stimuli_new.xlsx,stimuli/Social1.png,stimuli/Social2.png,stimuli/Nonsocial1.png,stimuli/Nonsocial2.png,stimuli/Social3.png,stimuli/Social4.png,stimuli/Nonsocial3.png,stimuli/Nonsocial4.png,cs_pos_ns,"(-0.7, 0.5)",,,,,,,,,0,0,0,0,,,,,,,,,,,,,1,10,26,12,,,,,,,,,,,,,,,,,,,,,,,,,,,,,,,,,,872.1706581000001,63,reward,1,0.5626280999999835,0.5626320999999734,872.7400495999998,,,,,,,,,,,,,,,,,,,,,,27,A,2024-05-08_08h21.02.835,attentional_competition_task,2022.2.4,143.98454181937524,
positions.xlsx,positions_test.xlsx,positions_test_new.xlsx,stimuli.xlsx,stimuli_new.xlsx,stimuli/Social1.png,stimuli/Social2.png,stimuli/Nonsocial1.png,stimuli/Nonsocial2.png,stimuli/Social3.png,stimuli/Social4.png,stimuli/Nonsocial3.png,stimuli/Nonsocial4.png,cs_neg_ns,"(0.7, 0.5)",,,,,,,,,0,0,0,0,,,,,,,,,,,,,1,11,27,10,,,,,,,,,,,,,,,,,,,,,,,,,,,,,,,,,,879.7050446999999,63,none,0,,,882.7187986000001,,,,,,,,,,,,,,,,,,,,,,27,A,2024-05-08_08h21.02.835,attentional_competition_task,2022.2.4,143.98454181937524,
positions.xlsx,positions_test.xlsx,positions_test_new.xlsx,stimuli.xlsx,stimuli_new.xlsx,stimuli/Social1.png,stimuli/Social2.png,stimuli/Nonsocial1.png,stimuli/Nonsocial2.png,stimuli/Social3.png,stimuli/Social4.png,stimuli/Nonsocial3.png,stimuli/Nonsocial4.png,cs_neg_ns,"(-0.7, 0.5)",,,,,,,,,0,0,0,0,,,,,,,,,,,,,1,12,28,8,,,,,,,,,,,,,,,,,,,,,,,,,,,,,,,,,,890.2740824,63,none,0,,,893.2878383999998,,,,,,,,,,,,,,,,,,,,,,27,A,2024-05-08_08h21.02.835,attentional_competition_task,2022.2.4,143.98454181937524,
positions.xlsx,positions_test.xlsx,positions_test_new.xlsx,stimuli.xlsx,stimuli_new.xlsx,stimuli/Social1.png,stimuli/Social2.png,stimuli/Nonsocial1.png,stimuli/Nonsocial2.png,stimuli/Social3.png,stimuli/Social4.png,stimuli/Nonsocial3.png,stimuli/Nonsocial4.png,cs_pos_ns,"(-0.7, -0.5)",,,,,,,,,0,0,0,0,,,,,,,,,,,,,1,13,29,13,,,,,,,,,,,,,,,,,,,,,,,,,,,,,,,,,,900.0098215,66,reward,1,0.5068473000001177,0.5068508999997903,900.523719,,,,,,,,,,,,,,,,,,,,,,27,A,2024-05-08_08h21.02.835,attentional_competition_task,2022.2.4,143.98454181937524,
positions.xlsx,positions_test.xlsx,positions_test_new.xlsx,stimuli.xlsx,stimuli_new.xlsx,stimuli/Social1.png,stimuli/Social2.png,stimuli/Nonsocial1.png,stimuli/Nonsocial2.png,stimuli/Social3.png,stimuli/Social4.png,stimuli/Nonsocial3.png,stimuli/Nonsocial4.png,cs_neg_ns,"(0.7, -0.5)",,,,,,,,,0,0,0,0,,,,,,,,,,,,,1,14,30,11,,,,,,,,,,,,,,,,,,,,,,,,,,,,,,,,,,908.2247362,66,none,0,,,911.2384673999998,,,,,,,,,,,,,,,,,,,,,,27,A,2024-05-08_08h21.02.835,attentional_competition_task,2022.2.4,143.98454181937524,
positions.xlsx,positions_test.xlsx,positions_test_new.xlsx,stimuli.xlsx,stimuli_new.xlsx,stimuli/Social1.png,stimuli/Social2.png,stimuli/Nonsocial1.png,stimuli/Nonsocial2.png,stimuli/Social3.png,stimuli/Social4.png,stimuli/Nonsocial3.png,stimuli/Nonsocial4.png,cs_neg_s,"(-0.7, 0.5)",,,,,,,,,0,0,0,0,,,,,,,,,,,,,1,15,31,0,,,,,,,,,,,,,,,,,,,,,,,,,,,,,,,,,,918.9881394000001,66,none,0,,,921.9949848999997,,,,,,,,,,,,,,,,,,,,,,27,A,2024-05-08_08h21.02.835,attentional_competition_task,2022.2.4,143.98454181937524,
positions.xlsx,positions_test.xlsx,positions_test_new.xlsx,stimuli.xlsx,stimuli_new.xlsx,stimuli/Social1.png,stimuli/Social2.png,stimuli/Nonsocial1.png,stimuli/Nonsocial2.png,stimuli/Social3.png,stimuli/Social4.png,stimuli/Nonsocial3.png,stimuli/Nonsocial4.png,cs_neg_s,,,,,,,,,,0,0,0,0,,,,,,,,,,,,,,,,,0,0,0,0,,,,,,,,,,,,,,,,,,,,,,,927.4808645999999,4.0,4.700127899999643,,,,,,,,,,,,,,,,,,,,,,,,,,,,,,,,,27,A,2024-05-08_08h21.02.835,attentional_competition_task,2022.2.4,143.98454181937524,
positions.xlsx,positions_test.xlsx,positions_test_new.xlsx,stimuli.xlsx,stimuli_new.xlsx,stimuli/Social1.png,stimuli/Social2.png,stimuli/Nonsocial1.png,stimuli/Nonsocial2.png,stimuli/Social3.png,stimuli/Social4.png,stimuli/Nonsocial3.png,stimuli/Nonsocial4.png,cs_pos_ns,,,,,,,,,,0,0,0,0,,,,,,,,,,,,,,,,,0,1,1,3,,,,,,,,,,,,,,,,,,,,,,,933.0223229999999,10.0,2.6602820000002794,,,,,,,,,,,,,,,,,,,,,,,,,,,,,,,,,27,A,2024-05-08_08h21.02.835,attentional_competition_task,2022.2.4,143.98454181937524,
positions.xlsx,positions_test.xlsx,positions_test_new.xlsx,stimuli.xlsx,stimuli_new.xlsx,stimuli/Social1.png,stimuli/Social2.png,stimuli/Nonsocial1.png,stimuli/Nonsocial2.png,stimuli/Social3.png,stimuli/Social4.png,stimuli/Nonsocial3.png,stimuli/Nonsocial4.png,cs_pos_s,,,,,,,,,,0,0,0,0,,,,,,,,,,,,,,,,,0,2,2,2,,,,,,,,,,,,,,,,,,,,,,,936.0847133,8.0,2.4330651999998736,,,,,,,,,,,,,,,,,,,,,,,,,,,,,,,,,27,A,2024-05-08_08h21.02.835,attentional_competition_task,2022.2.4,143.98454181937524,
positions.xlsx,positions_test.xlsx,positions_test_new.xlsx,stimuli.xlsx,stimuli_new.xlsx,stimuli/Social1.png,stimuli/Social2.png,stimuli/Nonsocial1.png,stimuli/Nonsocial2.png,stimuli/Social3.png,stimuli/Social4.png,stimuli/Nonsocial3.png,stimuli/Nonsocial4.png,cs_neg_ns,,,,,,,,,,0,0,0,0,,,,,,,,,,,,,,,,,0,3,3,1,,,,,,,,,,,,,,,,,,,,,,,939.0220984999999,4.0,2.1677935000002435,,,,,,,,,,,,,,,,,,,,,,,,,,,,,,,,,27,A,2024-05-08_08h21.02.835,attentional_competition_task,2022.2.4,143.98454181937524,
positions.xlsx,positions_test.xlsx,positions_test_new.xlsx,stimuli.xlsx,stimuli_new.xlsx,stimuli/Social1.png,stimuli/Social2.png,stimuli/Nonsocial1.png,stimuli/Nonsocial2.png,stimuli/Social3.png,stimuli/Social4.png,stimuli/Nonsocial3.png,stimuli/Nonsocial4.png,,,"(-0.7, -0.5)",cs_pos_ns,"(-0.7, 0.5)",cs_pos_s,"(0.7, -0.5)",cs_neg_s,"(0.7, 0.5)",cs_neg_ns,0,0,0,0,,,,,,,,,,,,,,,,,,,,,0,0,0,19,,,,,,,,,,,,,,,,,,,,,,,,,,,72,reward,,,,,941.7788954999999,950.8618395999999,950.8618395999999,950.8618395999999,950.8618395999999,0,,,1,0.03081190000011702,0.15529990000004545,0,,,0,,,951.5145930000001,951.5145930000001,951.5145930000001,951.5145930000001,27,A,2024-05-08_08h21.02.835,attentional_competition_task,2022.2.4,143.98454181937524,
positions.xlsx,positions_test.xlsx,positions_test_new.xlsx,stimuli.xlsx,stimuli_new.xlsx,stimuli/Social1.png,stimuli/Social2.png,stimuli/Nonsocial1.png,stimuli/Nonsocial2.png,stimuli/Social3.png,stimuli/Social4.png,stimuli/Nonsocial3.png,stimuli/Nonsocial4.png,,,"(-0.7, -0.5)",cs_neg_ns,"(-0.7, 0.5)",cs_pos_ns,"(0.7, -0.5)",cs_pos_s,"(0.7, 0.5)",cs_neg_s,0,0,0,0,,,,,,,,,,,,,,,,,,,,,0,1,1,16,,,,,,,,,,,,,,,,,,,,,,,,,,,78,reward,,,,,,958.9587067,958.9587067,958.9587067,958.9587067,0,,,0,,,0,,,0,,,960.1531229999998,960.1531229999998,960.1531229999998,960.1531229999998,27,A,2024-05-08_08h21.02.835,attentional_competition_task,2022.2.4,143.98454181937524,
positions.xlsx,positions_test.xlsx,positions_test_new.xlsx,stimuli.xlsx,stimuli_new.xlsx,stimuli/Social1.png,stimuli/Social2.png,stimuli/Nonsocial1.png,stimuli/Nonsocial2.png,stimuli/Social3.png,stimuli/Social4.png,stimuli/Nonsocial3.png,stimuli/Nonsocial4.png,,,"(-0.7, -0.5)",cs_pos_s,"(-0.7, 0.5)",cs_neg_s,"(0.7, -0.5)",cs_pos_ns,"(0.7, 0.5)",cs_neg_ns,0,0,0,0,,,,,,,,,,,,,,,,,,,,,0,2,2,7,,,,,,,,,,,,,,,,,,,,,,,,,,,81,reward,,,,,,967.3264259,967.3264259,967.3264259,967.3264259,0,,,0,,,0,,,0,,,968.1805908999997,968.1805908999997,968.1805908999997,968.1805908999997,27,A,2024-05-08_08h21.02.835,attentional_competition_task,2022.2.4,143.98454181937524,
positions.xlsx,positions_test.xlsx,positions_test_new.xlsx,stimuli.xlsx,stimuli_new.xlsx,stimuli/Social1.png,stimuli/Social2.png,stimuli/Nonsocial1.png,stimuli/Nonsocial2.png,stimuli/Social3.png,stimuli/Social4.png,stimuli/Nonsocial3.png,stimuli/Nonsocial4.png,,,"(-0.7, -0.5)",cs_neg_s,"(-0.7, 0.5)",cs_pos_ns,"(0.7, -0.5)",cs_pos_s,"(0.7, 0.5)",cs_neg_ns,0,0,0,0,,,,,,,,,,,,,,,,,,,,,0,3,3,4,,,,,,,,,,,,,,,,,,,,,,,,,,,87,reward,,,,,,975.8608483,975.8608483,975.8608483,975.8608483,0,,,1,0.6618702999999186,0.6618742999999085,1,0.03337439999995695,0.36288180000019565,0,,,976.5205822999999,976.5205822999999,976.5205822999999,976.5205822999999,27,A,2024-05-08_08h21.02.835,attentional_competition_task,2022.2.4,143.98454181937524,
positions.xlsx,positions_test.xlsx,positions_test_new.xlsx,stimuli.xlsx,stimuli_new.xlsx,stimuli/Social1.png,stimuli/Social2.png,stimuli/Nonsocial1.png,stimuli/Nonsocial2.png,stimuli/Social3.png,stimuli/Social4.png,stimuli/Nonsocial3.png,stimuli/Nonsocial4.png,,,"(-0.7, -0.5)",cs_pos_s,"(-0.7, 0.5)",cs_neg_ns,"(0.7, -0.5)",cs_neg_s,"(0.7, 0.5)",cs_pos_ns,0,0,0,0,,,,,,,,,,,,,,,,,,,,,0,4,4,8,,,,,,,,,,,,,,,,,,,,,,,,,,,84,loss,,,,,,984.8951718000001,984.8951718000001,984.8951718000001,984.8951718000001,0,,,1,0.02321010000014212,0.023214300000290677,0,,,0,,,984.8951718000001,984.8951718000001,984.8951718000001,984.8951718000001,27,A,2024-05-08_08h21.02.835,attentional_competition_task,2022.2.4,143.98454181937524,
positions.xlsx,positions_test.xlsx,positions_test_new.xlsx,stimuli.xlsx,stimuli_new.xlsx,stimuli/Social1.png,stimuli/Social2.png,stimuli/Nonsocial1.png,stimuli/Nonsocial2.png,stimuli/Social3.png,stimuli/Social4.png,stimuli/Nonsocial3.png,stimuli/Nonsocial4.png,,,"(-0.7, -0.5)",cs_neg_ns,"(-0.7, 0.5)",cs_pos_s,"(0.7, -0.5)",cs_pos_ns,"(0.7, 0.5)",cs_neg_s,0,0,0,0,,,,,,,,,,,,,,,,,,,,,0,5,5,13,,,,,,,,,,,,,,,,,,,,,,,,,,,93,reward,,,,,,994.6656108,994.6656108,994.6656108,994.6656108,0,,,0,,,1,0.027182700000139448,0.02718670000012935,0,,,994.6656108,994.6656108,994.6656108,994.6656108,27,A,2024-05-08_08h21.02.835,attentional_competition_task,2022.2.4,143.98454181937524,
positions.xlsx,positions_test.xlsx,positions_test_new.xlsx,stimuli.xlsx,stimuli_new.xlsx,stimuli/Social1.png,stimuli/Social2.png,stimuli/Nonsocial1.png,stimuli/Nonsocial2.png,stimuli/Social3.png,stimuli/Social4.png,stimuli/Nonsocial3.png,stimuli/Nonsocial4.png,,,"(-0.7, -0.5)",cs_pos_ns,"(-0.7, 0.5)",cs_pos_s,"(0.7, -0.5)",cs_neg_ns,"(0.7, 0.5)",cs_neg_s,0,0,0,0,,,,,,,,,,,,,,,,,,,,,0,6,6,18,,,,,,,,,,,,,,,,,,,,,,,,,,,102,reward,,,,,,1002.0333226,1002.0333226,1002.0333226,1002.0333226,0,,,0,,,0,,,0,,,1002.6028045999999,1002.6028045999999,1002.6028045999999,1002.6028045999999,27,A,2024-05-08_08h21.02.835,attentional_competition_task,2022.2.4,143.98454181937524,
positions.xlsx,positions_test.xlsx,positions_test_new.xlsx,stimuli.xlsx,stimuli_new.xlsx,stimuli/Social1.png,stimuli/Social2.png,stimuli/Nonsocial1.png,stimuli/Nonsocial2.png,stimuli/Social3.png,stimuli/Social4.png,stimuli/Nonsocial3.png,stimuli/Nonsocial4.png,,,"(-0.7, -0.5)",cs_pos_s,"(-0.7, 0.5)",cs_pos_ns,"(0.7, -0.5)",cs_neg_ns,"(0.7, 0.5)",cs_neg_s,0,0,0,0,,,,,,,,,,,,,,,,,,,,,0,7,7,11,,,,,,,,,,,,,,,,,,,,,,,,,,,111,reward,,,,,,1011.0538499000002,1011.0538499000002,1011.0538499000002,1011.0538499000002,0,,,0,,,0,,,0,,,1011.7343681,1011.7343681,1011.7343681,1011.7343681,27,A,2024-05-08_08h21.02.835,attentional_competition_task,2022.2.4,143.98454181937524,
positions.xlsx,positions_test.xlsx,positions_test_new.xlsx,stimuli.xlsx,stimuli_new.xlsx,stimuli/Social1.png,stimuli/Social2.png,stimuli/Nonsocial1.png,stimuli/Nonsocial2.png,stimuli/Social3.png,stimuli/Social4.png,stimuli/Nonsocial3.png,stimuli/Nonsocial4.png,,,"(-0.7, -0.5)",cs_neg_ns,"(-0.7, 0.5)",cs_neg_s,"(0.7, -0.5)",cs_pos_s,"(0.7, 0.5)",cs_pos_ns,0,0,0,0,,,,,,,,,,,,,,,,,,,,,0,8,8,14,,,,,,,,,,,,,,,,,,,,,,,,,,,120,reward,,,,,,1018.7131941,1018.7131941,1018.7131941,1018.7131941,0,,,0,,,0,,,0,,,1019.5395796999999,1019.5395796999999,1019.5395796999999,1019.5395796999999,27,A,2024-05-08_08h21.02.835,attentional_competition_task,2022.2.4,143.98454181937524,
positions.xlsx,positions_test.xlsx,positions_test_new.xlsx,stimuli.xlsx,stimuli_new.xlsx,stimuli/Social1.png,stimuli/Social2.png,stimuli/Nonsocial1.png,stimuli/Nonsocial2.png,stimuli/Social3.png,stimuli/Social4.png,stimuli/Nonsocial3.png,stimuli/Nonsocial4.png,,,"(-0.7, -0.5)",cs_neg_s,"(-0.7, 0.5)",cs_pos_s,"(0.7, -0.5)",cs_pos_ns,"(0.7, 0.5)",cs_neg_ns,0,0,0,0,,,,,,,,,,,,,,,,,,,,,0,9,9,1,,,,,,,,,,,,,,,,,,,,,,,,,,,126,reward,,,,,,1027.0184517,1027.0184517,1027.0184517,1027.0184517,0,,,1,0.029383600000073784,0.17637669999976424,1,0.5027603999997154,0.5027642000000014,0,,,1027.5184063,1027.5184063,1027.5184063,1027.5184063,27,A,2024-05-08_08h21.02.835,attentional_competition_task,2022.2.4,143.98454181937524,
positions.xlsx,positions_test.xlsx,positions_test_new.xlsx,stimuli.xlsx,stimuli_new.xlsx,stimuli/Social1.png,stimuli/Social2.png,stimuli/Nonsocial1.png,stimuli/Nonsocial2.png,stimuli/Social3.png,stimuli/Social4.png,stimuli/Nonsocial3.png,stimuli/Nonsocial4.png,,,"(-0.7, -0.5)",cs_neg_s,"(-0.7, 0.5)",cs_pos_ns,"(0.7, -0.5)",cs_neg_ns,"(0.7, 0.5)",cs_pos_s,0,0,0,0,,,,,,,,,,,,,,,,,,,,,0,10,10,5,,,,,,,,,,,,,,,,,,,,,,,,,,,135,reward,,,,,,1035.9555325,1035.9555325,1035.9555325,1035.9555325,0,,,0,,,0,,,0,,,1036.9624646,1036.9624646,1036.9624646,1036.9624646,27,A,2024-05-08_08h21.02.835,attentional_competition_task,2022.2.4,143.98454181937524,
positions.xlsx,positions_test.xlsx,positions_test_new.xlsx,stimuli.xlsx,stimuli_new.xlsx,stimuli/Social1.png,stimuli/Social2.png,stimuli/Nonsocial1.png,stimuli/Nonsocial2.png,stimuli/Social3.png,stimuli/Social4.png,stimuli/Nonsocial3.png,stimuli/Nonsocial4.png,,,"(-0.7, -0.5)",cs_neg_ns,"(-0.7, 0.5)",cs_pos_ns,"(0.7, -0.5)",cs_neg_s,"(0.7, 0.5)",cs_pos_s,0,0,0,0,,,,,,,,,,,,,,,,,,,,,0,11,11,17,,,,,,,,,,,,,,,,,,,,,,,,,,,138,loss,,,,,,1045.1635389,1045.1635389,1045.1635389,1045.1635389,0,,,0,,,0,,,0,,,1045.1635389,1045.1635389,1045.1635389,1045.1635389,27,A,2024-05-08_08h21.02.835,attentional_competition_task,2022.2.4,143.98454181937524,
positions.xlsx,positions_test.xlsx,positions_test_new.xlsx,stimuli.xlsx,stimuli_new.xlsx,stimuli/Social1.png,stimuli/Social2.png,stimuli/Nonsocial1.png,stimuli/Nonsocial2.png,stimuli/Social3.png,stimuli/Social4.png,stimuli/Nonsocial3.png,stimuli/Nonsocial4.png,,,"(-0.7, -0.5)",cs_pos_ns,"(-0.7, 0.5)",cs_neg_ns,"(0.7, -0.5)",cs_pos_s,"(0.7, 0.5)",cs_neg_s,0,0,0,0,,,,,,,,,,,,,,,,,,,,,0,12,12,20,,,,,,,,,,,,,,,,,,,,,,,,,,,144,reward,,,,,,1053.4756411,1053.4756411,1053.4756411,1053.4756411,1,0.25911980000000767,0.26581320000013875,0,,,1,0.029655100000127277,0.20391540000036912,0,,,1053.7464898,1053.7464898,1053.7464898,1053.7464898,27,A,2024-05-08_08h21.02.835,attentional_competition_task,2022.2.4,143.98454181937524,
positions.xlsx,positions_test.xlsx,positions_test_new.xlsx,stimuli.xlsx,stimuli_new.xlsx,stimuli/Social1.png,stimuli/Social2.png,stimuli/Nonsocial1.png,stimuli/Nonsocial2.png,stimuli/Social3.png,stimuli/Social4.png,stimuli/Nonsocial3.png,stimuli/Nonsocial4.png,,,"(-0.7, -0.5)",cs_pos_ns,"(-0.7, 0.5)",cs_neg_s,"(0.7, -0.5)",cs_neg_ns,"(0.7, 0.5)",cs_pos_s,0,0,0,0,,,,,,,,,,,,,,,,,,,,,0,13,13,23,,,,,,,,,,,,,,,,,,,,,,,,,,,153,reward,,,,,,1061.5447729999999,1061.5447729999999,1061.5447729999999,1061.5447729999999,0,,,0,,,0,,,0,,,1062.4614126,1062.4614126,1062.4614126,1062.4614126,27,A,2024-05-08_08h21.02.835,attentional_competition_task,2022.2.4,143.98454181937524,
positions.xlsx,positions_test.xlsx,positions_test_new.xlsx,stimuli.xlsx,stimuli_new.xlsx,stimuli/Social1.png,stimuli/Social2.png,stimuli/Nonsocial1.png,stimuli/Nonsocial2.png,stimuli/Social3.png,stimuli/Social4.png,stimuli/Nonsocial3.png,stimuli/Nonsocial4.png,,,"(-0.7, -0.5)",cs_pos_ns,"(-0.7, 0.5)",cs_neg_s,"(0.7, -0.5)",cs_pos_s,"(0.7, 0.5)",cs_neg_ns,0,0,0,0,,,,,,,,,,,,,,,,,,,,,0,14,14,22,,,,,,,,,,,,,,,,,,,,,,,,,,,162,reward,,,,,,1069.9194268999997,1069.9194268999997,1069.9194268999997,1069.9194268999997,0,,,0,,,0,,,0,,,1070.9332873,1070.9332873,1070.9332873,1070.9332873,27,A,2024-05-08_08h21.02.835,attentional_competition_task,2022.2.4,143.98454181937524,
positions.xlsx,positions_test.xlsx,positions_test_new.xlsx,stimuli.xlsx,stimuli_new.xlsx,stimuli/Social1.png,stimuli/Social2.png,stimuli/Nonsocial1.png,stimuli/Nonsocial2.png,stimuli/Social3.png,stimuli/Social4.png,stimuli/Nonsocial3.png,stimuli/Nonsocial4.png,,,"(-0.7, -0.5)",cs_pos_s,"(-0.7, 0.5)",cs_pos_ns,"(0.7, -0.5)",cs_neg_s,"(0.7, 0.5)",cs_neg_ns,0,0,0,0,,,,,,,,,,,,,,,,,,,,,0,15,15,10,,,,,,,,,,,,,,,,,,,,,,,,,,,165,reward,,,,,,1079.0509964999999,1079.0509964999999,1079.0509964999999,1079.0509964999999,0,,,1,0.024569800000335817,0.024573600000167062,0,,,0,,,1079.0509964999999,1079.0509964999999,1079.0509964999999,1079.0509964999999,27,A,2024-05-08_08h21.02.835,attentional_competition_task,2022.2.4,143.98454181937524,
positions.xlsx,positions_test.xlsx,positions_test_new.xlsx,stimuli.xlsx,stimuli_new.xlsx,stimuli/Social1.png,stimuli/Social2.png,stimuli/Nonsocial1.png,stimuli/Nonsocial2.png,stimuli/Social3.png,stimuli/Social4.png,stimuli/Nonsocial3.png,stimuli/Nonsocial4.png,,,"(-0.7, -0.5)",cs_neg_ns,"(-0.7, 0.5)",cs_pos_s,"(0.7, -0.5)",cs_neg_s,"(0.7, 0.5)",cs_pos_ns,0,0,0,0,,,,,,,,,,,,,,,,,,,,,0,16,16,12,,,,,,,,,,,,,,,,,,,,,,,,,,,174,reward,,,,,,1087.5992033,1087.5992033,1087.5992033,1087.5992033,0,,,0,,,0,,,1,0.02369509999971342,0.26793739999993704,1088.5575588,1088.5575588,1088.5575588,1088.5575588,27,A,2024-05-08_08h21.02.835,attentional_competition_task,2022.2.4,143.98454181937524,
positions.xlsx,positions_test.xlsx,positions_test_new.xlsx,stimuli.xlsx,stimuli_new.xlsx,stimuli/Social1.png,stimuli/Social2.png,stimuli/Nonsocial1.png,stimuli/Nonsocial2.png,stimuli/Social3.png,stimuli/Social4.png,stimuli/Nonsocial3.png,stimuli/Nonsocial4.png,,,"(-0.7, -0.5)",cs_neg_s,"(-0.7, 0.5)",cs_neg_ns,"(0.7, -0.5)",cs_pos_s,"(0.7, 0.5)",cs_pos_ns,0,0,0,0,,,,,,,,,,,,,,,,,,,,,0,17,17,2,,,,,,,,,,,,,,,,,,,,,,,,,,,183,reward,,,,,,1095.7933682,1095.7933682,1095.7933682,1095.7933682,0,,,0,,,0,,,1,0.024113500000112253,0.12231300000030387,1096.6197301,1096.6197301,1096.6197301,1096.6197301,27,A,2024-05-08_08h21.02.835,attentional_competition_task,2022.2.4,143.98454181937524,
positions.xlsx,positions_test.xlsx,positions_test_new.xlsx,stimuli.xlsx,stimuli_new.xlsx,stimuli/Social1.png,stimuli/Social2.png,stimuli/Nonsocial1.png,stimuli/Nonsocial2.png,stimuli/Social3.png,stimuli/Social4.png,stimuli/Nonsocial3.png,stimuli/Nonsocial4.png,,,"(-0.7, -0.5)",cs_neg_s,"(-0.7, 0.5)",cs_pos_s,"(0.7, -0.5)",cs_neg_ns,"(0.7, 0.5)",cs_pos_ns,0,0,0,0,,,,,,,,,,,,,,,,,,,,,0,18,18,0,,,,,,,,,,,,,,,,,,,,,,,,,,,189,reward,,,,,,1103.8208041999999,1103.8208041999999,1103.8208041999999,1103.8208041999999,0,,,1,0.022748999999748776,0.2183788999996068,0,,,1,0.28098089999957665,0.2809847999997146,1104.1124372000002,1104.1124372000002,1104.1124372000002,1104.1124372000002,27,A,2024-05-08_08h21.02.835,attentional_competition_task,2022.2.4,143.98454181937524,
positions.xlsx,positions_test.xlsx,positions_test_new.xlsx,stimuli.xlsx,stimuli_new.xlsx,stimuli/Social1.png,stimuli/Social2.png,stimuli/Nonsocial1.png,stimuli/Nonsocial2.png,stimuli/Social3.png,stimuli/Social4.png,stimuli/Nonsocial3.png,stimuli/Nonsocial4.png,,,"(-0.7, -0.5)",cs_pos_s,"(-0.7, 0.5)",cs_neg_ns,"(0.7, -0.5)",cs_pos_ns,"(0.7, 0.5)",cs_neg_s,0,0,0,0,,,,,,,,,,,,,,,,,,,,,0,19,19,9,,,,,,,,,,,,,,,,,,,,,,,,,,,195,reward,,,,,,1112.2370982999998,1112.2370982999998,1112.2370982999998,1112.2370982999998,0,,,0,,,1,0.5026722000002337,0.502676000000065,0,,,1112.7370858000002,1112.7370858000002,1112.7370858000002,1112.7370858000002,27,A,2024-05-08_08h21.02.835,attentional_competition_task,2022.2.4,143.98454181937524,
positions.xlsx,positions_test.xlsx,positions_test_new.xlsx,stimuli.xlsx,stimuli_new.xlsx,stimuli/Social1.png,stimuli/Social2.png,stimuli/Nonsocial1.png,stimuli/Nonsocial2.png,stimuli/Social3.png,stimuli/Social4.png,stimuli/Nonsocial3.png,stimuli/Nonsocial4.png,,,"(-0.7, -0.5)",cs_pos_ns,"(-0.7, 0.5)",cs_neg_ns,"(0.7, -0.5)",cs_neg_s,"(0.7, 0.5)",cs_pos_s,0,0,0,0,,,,,,,,,,,,,,,,,,,,,0,20,20,21,,,,,,,,,,,,,,,,,,,,,,,,,,,204,reward,,,,,,1121.1394816,1121.1394816,1121.1394816,1121.1394816,1,0.028872100000171486,0.24594740000020465,0,,,0,,,0,,,1122.0908858999999,1122.0908858999999,1122.0908858999999,1122.0908858999999,27,A,2024-05-08_08h21.02.835,attentional_competition_task,2022.2.4,143.98454181937524,
positions.xlsx,positions_test.xlsx,positions_test_new.xlsx,stimuli.xlsx,stimuli_new.xlsx,stimuli/Social1.png,stimuli/Social2.png,stimuli/Nonsocial1.png,stimuli/Nonsocial2.png,stimuli/Social3.png,stimuli/Social4.png,stimuli/Nonsocial3.png,stimuli/Nonsocial4.png,,,"(-0.7, -0.5)",cs_pos_s,"(-0.7, 0.5)",cs_neg_s,"(0.7, -0.5)",cs_neg_ns,"(0.7, 0.5)",cs_pos_ns,0,0,0,0,,,,,,,,,,,,,,,,,,,,,0,21,21,6,,,,,,,,,,,,,,,,,,,,,,,,,,,213,reward,,,,,,1129.521093,1129.521093,1129.521093,1129.521093,0,,,0,,,0,,,1,0.023632800000086718,0.22571340000013151,1130.2572248,1130.2572248,1130.2572248,1130.2572248,27,A,2024-05-08_08h21.02.835,attentional_competition_task,2022.2.4,143.98454181937524,
positions.xlsx,positions_test.xlsx,positions_test_new.xlsx,stimuli.xlsx,stimuli_new.xlsx,stimuli/Social1.png,stimuli/Social2.png,stimuli/Nonsocial1.png,stimuli/Nonsocial2.png,stimuli/Social3.png,stimuli/Social4.png,stimuli/Nonsocial3.png,stimuli/Nonsocial4.png,,,"(-0.7, -0.5)",cs_neg_s,"(-0.7, 0.5)",cs_neg_ns,"(0.7, -0.5)",cs_pos_ns,"(0.7, 0.5)",cs_pos_s,0,0,0,0,,,,,,,,,,,,,,,,,,,,,0,22,22,3,,,,,,,,,,,,,,,,,,,,,,,,,,,222,reward,,,,,,1138.2221510000002,1138.2221510000002,1138.2221510000002,1138.2221510000002,0,,,0,,,1,0.023008000000118045,0.39189859999987675,0,,,1139.1179512,1139.1179512,1139.1179512,1139.1179512,27,A,2024-05-08_08h21.02.835,attentional_competition_task,2022.2.4,143.98454181937524,
positions.xlsx,positions_test.xlsx,positions_test_new.xlsx,stimuli.xlsx,stimuli_new.xlsx,stimuli/Social1.png,stimuli/Social2.png,stimuli/Nonsocial1.png,stimuli/Nonsocial2.png,stimuli/Social3.png,stimuli/Social4.png,stimuli/Nonsocial3.png,stimuli/Nonsocial4.png,,,"(-0.7, -0.5)",cs_neg_ns,"(-0.7, 0.5)",cs_neg_s,"(0.7, -0.5)",cs_pos_ns,"(0.7, 0.5)",cs_pos_s,0,0,0,0,,,,,,,,,,,,,,,,,,,,,0,23,23,15,,,,,,,,,,,,,,,,,,,,,,,,,,,231,reward,,,,,,1147.0342782,1147.0342782,1147.0342782,1147.0342782,0,,,0,,,0,,,0,,,1148.0342574,1148.0342574,1148.0342574,1148.0342574,27,A,2024-05-08_08h21.02.835,attentional_competition_task,2022.2.4,143.98454181937524,
positions.xlsx,positions_test.xlsx,positions_test_new.xlsx,stimuli.xlsx,stimuli_new.xlsx,stimuli/Social1.png,stimuli/Social2.png,stimuli/Nonsocial1.png,stimuli/Nonsocial2.png,stimuli/Social3.png,stimuli/Social4.png,stimuli/Nonsocial3.png,stimuli/Nonsocial4.png,,,"(-0.7, -0.5)",cs_neg_ns,"(-0.7, 0.5)",cs_neg_s,"(0.7, -0.5)",cs_pos_ns,"(0.7, 0.5)",cs_pos_s,0,0,0,0,,,,,,,,,,,,,,,,,,,,,1,0,24,15,,,,,,,,,,,,,,,,,,,,,,,,,,,240,reward,,,,,,1155.3325665999998,1155.3325665999998,1155.3325665999998,1155.3325665999998,0,,,0,,,0,,,0,,,1156.3672674000002,1156.3672674000002,1156.3672674000002,1156.3672674000002,27,A,2024-05-08_08h21.02.835,attentional_competition_task,2022.2.4,143.98454181937524,
positions.xlsx,positions_test.xlsx,positions_test_new.xlsx,stimuli.xlsx,stimuli_new.xlsx,stimuli/Social1.png,stimuli/Social2.png,stimuli/Nonsocial1.png,stimuli/Nonsocial2.png,stimuli/Social3.png,stimuli/Social4.png,stimuli/Nonsocial3.png,stimuli/Nonsocial4.png,,,"(-0.7, -0.5)",cs_pos_ns,"(-0.7, 0.5)",cs_neg_s,"(0.7, -0.5)",cs_neg_ns,"(0.7, 0.5)",cs_pos_s,0,0,0,0,,,,,,,,,,,,,,,,,,,,,1,1,25,23,,,,,,,,,,,,,,,,,,,,,,,,,,,249,reward,,,,,,1164.2488369,1164.2488369,1164.2488369,1164.2488369,1,0.028522199999770237,0.5302852999998322,0,,,0,,,0,,,1165.2835237000002,1165.2835237000002,1165.2835237000002,1165.2835237000002,27,A,2024-05-08_08h21.02.835,attentional_competition_task,2022.2.4,143.98454181937524,
positions.xlsx,positions_test.xlsx,positions_test_new.xlsx,stimuli.xlsx,stimuli_new.xlsx,stimuli/Social1.png,stimuli/Social2.png,stimuli/Nonsocial1.png,stimuli/Nonsocial2.png,stimuli/Social3.png,stimuli/Social4.png,stimuli/Nonsocial3.png,stimuli/Nonsocial4.png,,,"(-0.7, -0.5)",cs_pos_ns,"(-0.7, 0.5)",cs_neg_s,"(0.7, -0.5)",cs_pos_s,"(0.7, 0.5)",cs_neg_ns,0,0,0,0,,,,,,,,,,,,,,,,,,,,,1,2,26,22,,,,,,,,,,,,,,,,,,,,,,,,,,,258,reward,,,,,,1172.9777007999999,1172.9777007999999,1172.9777007999999,1172.9777007999999,1,0.0332751000000826,0.30818279999994047,0,,,0,,,0,,,1173.7832646,1173.7832646,1173.7832646,1173.7832646,27,A,2024-05-08_08h21.02.835,attentional_competition_task,2022.2.4,143.98454181937524,
positions.xlsx,positions_test.xlsx,positions_test_new.xlsx,stimuli.xlsx,stimuli_new.xlsx,stimuli/Social1.png,stimuli/Social2.png,stimuli/Nonsocial1.png,stimuli/Nonsocial2.png,stimuli/Social3.png,stimuli/Social4.png,stimuli/Nonsocial3.png,stimuli/Nonsocial4.png,,,"(-0.7, -0.5)",cs_pos_ns,"(-0.7, 0.5)",cs_pos_s,"(0.7, -0.5)",cs_neg_s,"(0.7, 0.5)",cs_neg_ns,0,0,0,0,,,,,,,,,,,,,,,,,,,,,1,3,27,19,,,,,,,,,,,,,,,,,,,,,,,,,,,264,reward,,,,,,1182.3453343999997,1182.3453343999997,1182.3453343999997,1182.3453343999997,1,0.0248145000000477,0.03803470000002562,0,,,0,,,0,,,1182.8869963,1182.8869963,1182.8869963,1182.8869963,27,A,2024-05-08_08h21.02.835,attentional_competition_task,2022.2.4,143.98454181937524,
positions.xlsx,positions_test.xlsx,positions_test_new.xlsx,stimuli.xlsx,stimuli_new.xlsx,stimuli/Social1.png,stimuli/Social2.png,stimuli/Nonsocial1.png,stimuli/Nonsocial2.png,stimuli/Social3.png,stimuli/Social4.png,stimuli/Nonsocial3.png,stimuli/Nonsocial4.png,,,"(-0.7, -0.5)",cs_pos_s,"(-0.7, 0.5)",cs_neg_ns,"(0.7, -0.5)",cs_neg_s,"(0.7, 0.5)",cs_pos_ns,0,0,0,0,,,,,,,,,,,,,,,,,,,,,1,4,28,8,,,,,,,,,,,,,,,,,,,,,,,,,,,270,reward,,,,,,1191.2477250999998,1191.2477250999998,1191.2477250999998,1191.2477250999998,1,0.06518319999986488,0.07202879999977085,0,,,0,,,0,,,1191.8241234999998,1191.8241234999998,1191.8241234999998,1191.8241234999998,27,A,2024-05-08_08h21.02.835,attentional_competition_task,2022.2.4,143.98454181937524,
positions.xlsx,positions_test.xlsx,positions_test_new.xlsx,stimuli.xlsx,stimuli_new.xlsx,stimuli/Social1.png,stimuli/Social2.png,stimuli/Nonsocial1.png,stimuli/Nonsocial2.png,stimuli/Social3.png,stimuli/Social4.png,stimuli/Nonsocial3.png,stimuli/Nonsocial4.png,,,"(-0.7, -0.5)",cs_neg_s,"(-0.7, 0.5)",cs_pos_ns,"(0.7, -0.5)",cs_pos_s,"(0.7, 0.5)",cs_neg_ns,0,0,0,0,,,,,,,,,,,,,,,,,,,,,1,5,29,4,,,,,,,,,,,,,,,,,,,,,,,,,,,276,reward,,,,,,1199.157144,1199.157144,1199.157144,1199.157144,0,,,1,0.030364499999905092,0.03036870000005365,0,,,0,,,1199.157144,1199.157144,1199.157144,1199.157144,27,A,2024-05-08_08h21.02.835,attentional_competition_task,2022.2.4,143.98454181937524,
positions.xlsx,positions_test.xlsx,positions_test_new.xlsx,stimuli.xlsx,stimuli_new.xlsx,stimuli/Social1.png,stimuli/Social2.png,stimuli/Nonsocial1.png,stimuli/Nonsocial2.png,stimuli/Social3.png,stimuli/Social4.png,stimuli/Nonsocial3.png,stimuli/Nonsocial4.png,,,"(-0.7, -0.5)",cs_pos_s,"(-0.7, 0.5)",cs_neg_s,"(0.7, -0.5)",cs_pos_ns,"(0.7, 0.5)",cs_neg_ns,0,0,0,0,,,,,,,,,,,,,,,,,,,,,1,6,30,7,,,,,,,,,,,,,,,,,,,,,,,,,,,285,reward,,,,,,1208.1776484,1208.1776484,1208.1776484,1208.1776484,0,,,0,,,1,0.02264500000001135,0.03173229999993055,0,,,1208.7192963,1208.7192963,1208.7192963,1208.7192963,27,A,2024-05-08_08h21.02.835,attentional_competition_task,2022.2.4,143.98454181937524,
positions.xlsx,positions_test.xlsx,positions_test_new.xlsx,stimuli.xlsx,stimuli_new.xlsx,stimuli/Social1.png,stimuli/Social2.png,stimuli/Nonsocial1.png,stimuli/Nonsocial2.png,stimuli/Social3.png,stimuli/Social4.png,stimuli/Nonsocial3.png,stimuli/Nonsocial4.png,,,"(-0.7, -0.5)",cs_neg_s,"(-0.7, 0.5)",cs_neg_ns,"(0.7, -0.5)",cs_pos_s,"(0.7, 0.5)",cs_pos_ns,0,0,0,0,,,,,,,,,,,,,,,,,,,,,1,7,31,2,,,,,,,,,,,,,,,,,,,,,,,,,,,294,reward,,,,,,1216.7258587999997,1216.7258587999997,1216.7258587999997,1216.7258587999997,0,,,0,,,0,,,1,0.02963980000004085,0.25986009999996895,1217.6077828999998,1217.6077828999998,1217.6077828999998,1217.6077828999998,27,A,2024-05-08_08h21.02.835,attentional_competition_task,2022.2.4,143.98454181937524,
positions.xlsx,positions_test.xlsx,positions_test_new.xlsx,stimuli.xlsx,stimuli_new.xlsx,stimuli/Social1.png,stimuli/Social2.png,stimuli/Nonsocial1.png,stimuli/Nonsocial2.png,stimuli/Social3.png,stimuli/Social4.png,stimuli/Nonsocial3.png,stimuli/Nonsocial4.png,,,"(-0.7, -0.5)",cs_neg_s,"(-0.7, 0.5)",cs_pos_s,"(0.7, -0.5)",cs_neg_ns,"(0.7, 0.5)",cs_pos_ns,0,0,0,0,,,,,,,,,,,,,,,,,,,,,1,8,32,0,,,,,,,,,,,,,,,,,,,,,,,,,,,303,reward,,,,,,1225.2116353,1225.2116353,1225.2116353,1225.2116353,0,,,0,,,0,,,1,0.030162900000050286,0.05488210000021354,1226.274091,1226.274091,1226.274091,1226.274091,27,A,2024-05-08_08h21.02.835,attentional_competition_task,2022.2.4,143.98454181937524,
positions.xlsx,positions_test.xlsx,positions_test_new.xlsx,stimuli.xlsx,stimuli_new.xlsx,stimuli/Social1.png,stimuli/Social2.png,stimuli/Nonsocial1.png,stimuli/Nonsocial2.png,stimuli/Social3.png,stimuli/Social4.png,stimuli/Nonsocial3.png,stimuli/Nonsocial4.png,,,"(-0.7, -0.5)",cs_neg_s,"(-0.7, 0.5)",cs_pos_ns,"(0.7, -0.5)",cs_neg_ns,"(0.7, 0.5)",cs_pos_s,0,0,0,0,,,,,,,,,,,,,,,,,,,,,1,9,33,5,,,,,,,,,,,,,,,,,,,,,,,,,,,312,reward,,,,,,1233.5654471999999,1233.5654471999999,1233.5654471999999,1233.5654471999999,0,,,1,0.024662999999691237,0.31541040000001885,0,,,0,,,1234.6348934999999,1234.6348934999999,1234.6348934999999,1234.6348934999999,27,A,2024-05-08_08h21.02.835,attentional_competition_task,2022.2.4,143.98454181937524,
positions.xlsx,positions_test.xlsx,positions_test_new.xlsx,stimuli.xlsx,stimuli_new.xlsx,stimuli/Social1.png,stimuli/Social2.png,stimuli/Nonsocial1.png,stimuli/Nonsocial2.png,stimuli/Social3.png,stimuli/Social4.png,stimuli/Nonsocial3.png,stimuli/Nonsocial4.png,,,"(-0.7, -0.5)",cs_pos_ns,"(-0.7, 0.5)",cs_neg_ns,"(0.7, -0.5)",cs_neg_s,"(0.7, 0.5)",cs_pos_s,0,0,0,0,,,,,,,,,,,,,,,,,,,,,1,10,34,21,,,,,,,,,,,,,,,,,,,,,,,,,,,321,reward,,,,,,1241.9053861999998,1241.9053861999998,1241.9053861999998,1241.9053861999998,1,0.027961299999788025,0.4945889000000534,0,,,0,,,0,,,1242.9053616999997,1242.9053616999997,1242.9053616999997,1242.9053616999997,27,A,2024-05-08_08h21.02.835,attentional_competition_task,2022.2.4,143.98454181937524,
positions.xlsx,positions_test.xlsx,positions_test_new.xlsx,stimuli.xlsx,stimuli_new.xlsx,stimuli/Social1.png,stimuli/Social2.png,stimuli/Nonsocial1.png,stimuli/Nonsocial2.png,stimuli/Social3.png,stimuli/Social4.png,stimuli/Nonsocial3.png,stimuli/Nonsocial4.png,,,"(-0.7, -0.5)",cs_neg_ns,"(-0.7, 0.5)",cs_pos_ns,"(0.7, -0.5)",cs_pos_s,"(0.7, 0.5)",cs_neg_s,0,0,0,0,,,,,,,,,,,,,,,,,,,,,1,11,35,16,,,,,,,,,,,,,,,,,,,,,,,,,,,330,reward,,,,,,1250.5022287999998,1250.5022287999998,1250.5022287999998,1250.5022287999998,0,,,1,0.02225170000019716,0.3365859000000455,0,,,0,,,1251.5369377,1251.5369377,1251.5369377,1251.5369377,27,A,2024-05-08_08h21.02.835,attentional_competition_task,2022.2.4,143.98454181937524,
positions.xlsx,positions_test.xlsx,positions_test_new.xlsx,stimuli.xlsx,stimuli_new.xlsx,stimuli/Social1.png,stimuli/Social2.png,stimuli/Nonsocial1.png,stimuli/Nonsocial2.png,stimuli/Social3.png,stimuli/Social4.png,stimuli/Nonsocial3.png,stimuli/Nonsocial4.png,,,"(-0.7, -0.5)",cs_pos_s,"(-0.7, 0.5)",cs_pos_ns,"(0.7, -0.5)",cs_neg_ns,"(0.7, 0.5)",cs_neg_s,0,0,0,0,,,,,,,,,,,,,,,,,,,,,1,12,36,11,,,,,,,,,,,,,,,,,,,,,,,,,,,339,reward,,,,,,1258.3908164000002,1258.3908164000002,1258.3908164000002,1258.3908164000002,0,,,1,0.023581300000387273,0.3433967000000848,0,,,0,,,1259.2380210999997,1259.2380210999997,1259.2380210999997,1259.2380210999997,27,A,2024-05-08_08h21.02.835,attentional_competition_task,2022.2.4,143.98454181937524,
positions.xlsx,positions_test.xlsx,positions_test_new.xlsx,stimuli.xlsx,stimuli_new.xlsx,stimuli/Social1.png,stimuli/Social2.png,stimuli/Nonsocial1.png,stimuli/Nonsocial2.png,stimuli/Social3.png,stimuli/Social4.png,stimuli/Nonsocial3.png,stimuli/Nonsocial4.png,,,"(-0.7, -0.5)",cs_pos_ns,"(-0.7, 0.5)",cs_neg_ns,"(0.7, -0.5)",cs_pos_s,"(0.7, 0.5)",cs_neg_s,0,0,0,0,,,,,,,,,,,,,,,,,,,,,1,13,37,20,,,,,,,,,,,,,,,,,,,,,,,,,,,342,reward,,,,,,1267.265466,1267.265466,1267.265466,1267.265466,1,0.1160331999999471,0.12926809999999023,0,,,1,0.024451400000089052,0.06707439999991038,0,,,1267.3974219,1267.3974219,1267.3974219,1267.3974219,27,A,2024-05-08_08h21.02.835,attentional_competition_task,2022.2.4,143.98454181937524,
positions.xlsx,positions_test.xlsx,positions_test_new.xlsx,stimuli.xlsx,stimuli_new.xlsx,stimuli/Social1.png,stimuli/Social2.png,stimuli/Nonsocial1.png,stimuli/Nonsocial2.png,stimuli/Social3.png,stimuli/Social4.png,stimuli/Nonsocial3.png,stimuli/Nonsocial4.png,,,"(-0.7, -0.5)",cs_pos_s,"(-0.7, 0.5)",cs_neg_ns,"(0.7, -0.5)",cs_pos_ns,"(0.7, 0.5)",cs_neg_s,0,0,0,0,,,,,,,,,,,,,,,,,,,,,1,14,38,9,,,,,,,,,,,,,,,,,,,,,,,,,,,351,reward,,,,,,1276.1817478,1276.1817478,1276.1817478,1276.1817478,0,,,0,,,1,0.022894600000199716,0.24616299999979674,0,,,1276.9386751999998,1276.9386751999998,1276.9386751999998,1276.9386751999998,27,A,2024-05-08_08h21.02.835,attentional_competition_task,2022.2.4,143.98454181937524,
positions.xlsx,positions_test.xlsx,positions_test_new.xlsx,stimuli.xlsx,stimuli_new.xlsx,stimuli/Social1.png,stimuli/Social2.png,stimuli/Nonsocial1.png,stimuli/Nonsocial2.png,stimuli/Social3.png,stimuli/Social4.png,stimuli/Nonsocial3.png,stimuli/Nonsocial4.png,,,"(-0.7, -0.5)",cs_neg_s,"(-0.7, 0.5)",cs_pos_s,"(0.7, -0.5)",cs_pos_ns,"(0.7, 0.5)",cs_neg_ns,0,0,0,0,,,,,,,,,,,,,,,,,,,,,1,15,39,1,,,,,,,,,,,,,,,,,,,,,,,,,,,360,reward,,,,,,1285.3202975000002,1285.3202975000002,1285.3202975000002,1285.3202975000002,0,,,0,,,1,0.029770000000098662,0.21793139999999767,0,,,1286.042466,1286.042466,1286.042466,1286.042466,27,A,2024-05-08_08h21.02.835,attentional_competition_task,2022.2.4,143.98454181937524,
positions.xlsx,positions_test.xlsx,positions_test_new.xlsx,stimuli.xlsx,stimuli_new.xlsx,stimuli/Social1.png,stimuli/Social2.png,stimuli/Nonsocial1.png,stimuli/Nonsocial2.png,stimuli/Social3.png,stimuli/Social4.png,stimuli/Nonsocial3.png,stimuli/Nonsocial4.png,,,"(-0.7, -0.5)",cs_neg_s,"(-0.7, 0.5)",cs_neg_ns,"(0.7, -0.5)",cs_pos_ns,"(0.7, 0.5)",cs_pos_s,0,0,0,0,,,,,,,,,,,,,,,,,,,,,1,16,40,3,,,,,,,,,,,,,,,,,,,,,,,,,,,369,reward,,,,,,1292.9449544000001,1292.9449544000001,1292.9449544000001,1292.9449544000001,0,,,0,,,1,0.02442929999961052,0.34345829999983835,0,,,1293.8824214999997,1293.8824214999997,1293.8824214999997,1293.8824214999997,27,A,2024-05-08_08h21.02.835,attentional_competition_task,2022.2.4,143.98454181937524,
positions.xlsx,positions_test.xlsx,positions_test_new.xlsx,stimuli.xlsx,stimuli_new.xlsx,stimuli/Social1.png,stimuli/Social2.png,stimuli/Nonsocial1.png,stimuli/Nonsocial2.png,stimuli/Social3.png,stimuli/Social4.png,stimuli/Nonsocial3.png,stimuli/Nonsocial4.png,,,"(-0.7, -0.5)",cs_pos_s,"(-0.7, 0.5)",cs_pos_ns,"(0.7, -0.5)",cs_neg_s,"(0.7, 0.5)",cs_neg_ns,0,0,0,0,,,,,,,,,,,,,,,,,,,,,1,17,41,10,,,,,,,,,,,,,,,,,,,,,,,,,,,378,reward,,,,,,1301.4655028999998,1301.4655028999998,1301.4655028999998,1301.4655028999998,0,,,0,,,0,,,0,,,1302.4237962999998,1302.4237962999998,1302.4237962999998,1302.4237962999998,27,A,2024-05-08_08h21.02.835,attentional_competition_task,2022.2.4,143.98454181937524,
positions.xlsx,positions_test.xlsx,positions_test_new.xlsx,stimuli.xlsx,stimuli_new.xlsx,stimuli/Social1.png,stimuli/Social2.png,stimuli/Nonsocial1.png,stimuli/Nonsocial2.png,stimuli/Social3.png,stimuli/Social4.png,stimuli/Nonsocial3.png,stimuli/Nonsocial4.png,,,"(-0.7, -0.5)",cs_neg_ns,"(-0.7, 0.5)",cs_pos_s,"(0.7, -0.5)",cs_pos_ns,"(0.7, 0.5)",cs_neg_s,0,0,0,0,,,,,,,,,,,,,,,,,,,,,1,18,42,13,,,,,,,,,,,,,,,,,,,,,,,,,,,387,reward,,,,,,1310.3817333,1310.3817333,1310.3817333,1310.3817333,0,,,0,,,1,0.022795299999870622,0.03787289999991117,0,,,1311.2914153,1311.2914153,1311.2914153,1311.2914153,27,A,2024-05-08_08h21.02.835,attentional_competition_task,2022.2.4,143.98454181937524,
positions.xlsx,positions_test.xlsx,positions_test_new.xlsx,stimuli.xlsx,stimuli_new.xlsx,stimuli/Social1.png,stimuli/Social2.png,stimuli/Nonsocial1.png,stimuli/Nonsocial2.png,stimuli/Social3.png,stimuli/Social4.png,stimuli/Nonsocial3.png,stimuli/Nonsocial4.png,,,"(-0.7, -0.5)",cs_neg_ns,"(-0.7, 0.5)",cs_pos_s,"(0.7, -0.5)",cs_neg_s,"(0.7, 0.5)",cs_pos_ns,0,0,0,0,,,,,,,,,,,,,,,,,,,,,1,19,43,12,,,,,,,,,,,,,,,,,,,,,,,,,,,396,reward,,,,,,1319.1869020000001,1319.1869020000001,1319.1869020000001,1319.1869020000001,0,,,0,,,0,,,0,,,1319.9994037999998,1319.9994037999998,1319.9994037999998,1319.9994037999998,27,A,2024-05-08_08h21.02.835,attentional_competition_task,2022.2.4,143.98454181937524,
positions.xlsx,positions_test.xlsx,positions_test_new.xlsx,stimuli.xlsx,stimuli_new.xlsx,stimuli/Social1.png,stimuli/Social2.png,stimuli/Nonsocial1.png,stimuli/Nonsocial2.png,stimuli/Social3.png,stimuli/Social4.png,stimuli/Nonsocial3.png,stimuli/Nonsocial4.png,,,"(-0.7, -0.5)",cs_pos_ns,"(-0.7, 0.5)",cs_pos_s,"(0.7, -0.5)",cs_neg_ns,"(0.7, 0.5)",cs_neg_s,0,0,0,0,,,,,,,,,,,,,,,,,,,,,1,20,44,18,,,,,,,,,,,,,,,,,,,,,,,,,,,405,reward,,,,,,1327.9296146999998,1327.9296146999998,1327.9296146999998,1327.9296146999998,1,0.028907299999900715,0.1205681999999797,0,,,0,,,0,,,1328.7976465999998,1328.7976465999998,1328.7976465999998,1328.7976465999998,27,A,2024-05-08_08h21.02.835,attentional_competition_task,2022.2.4,143.98454181937524,
positions.xlsx,positions_test.xlsx,positions_test_new.xlsx,stimuli.xlsx,stimuli_new.xlsx,stimuli/Social1.png,stimuli/Social2.png,stimuli/Nonsocial1.png,stimuli/Nonsocial2.png,stimuli/Social3.png,stimuli/Social4.png,stimuli/Nonsocial3.png,stimuli/Nonsocial4.png,,,"(-0.7, -0.5)",cs_pos_s,"(-0.7, 0.5)",cs_neg_s,"(0.7, -0.5)",cs_neg_ns,"(0.7, 0.5)",cs_pos_ns,0,0,0,0,,,,,,,,,,,,,,,,,,,,,1,21,45,6,,,,,,,,,,,,,,,,,,,,,,,,,,,408,reward,,,,,,1336.991745,1336.991745,1336.991745,1336.991745,1,0.022829900000033376,0.03893840000000637,0,,,0,,,1,0.11003720000007888,0.11004099999991013,1337.1098205,1337.1098205,1337.1098205,1337.1098205,27,A,2024-05-08_08h21.02.835,attentional_competition_task,2022.2.4,143.98454181937524,
positions.xlsx,positions_test.xlsx,positions_test_new.xlsx,stimuli.xlsx,stimuli_new.xlsx,stimuli/Social1.png,stimuli/Social2.png,stimuli/Nonsocial1.png,stimuli/Nonsocial2.png,stimuli/Social3.png,stimuli/Social4.png,stimuli/Nonsocial3.png,stimuli/Nonsocial4.png,,,"(-0.7, -0.5)",cs_neg_ns,"(-0.7, 0.5)",cs_neg_s,"(0.7, -0.5)",cs_pos_s,"(0.7, 0.5)",cs_pos_ns,0,0,0,0,,,,,,,,,,,,,,,,,,,,,1,22,46,14,,,,,,,,,,,,,,,,,,,,,,,,,,,417,reward,,,,,,1345.5677764,1345.5677764,1345.5677764,1345.5677764,0,,,0,,,0,,,1,0.029562900000200898,0.05143409999982396,1346.2969663000001,1346.2969663000001,1346.2969663000001,1346.2969663000001,27,A,2024-05-08_08h21.02.835,attentional_competition_task,2022.2.4,143.98454181937524,
positions.xlsx,positions_test.xlsx,positions_test_new.xlsx,stimuli.xlsx,stimuli_new.xlsx,stimuli/Social1.png,stimuli/Social2.png,stimuli/Nonsocial1.png,stimuli/Nonsocial2.png,stimuli/Social3.png,stimuli/Social4.png,stimuli/Nonsocial3.png,stimuli/Nonsocial4.png,,,"(-0.7, -0.5)",cs_neg_ns,"(-0.7, 0.5)",cs_pos_ns,"(0.7, -0.5)",cs_neg_s,"(0.7, 0.5)",cs_pos_s,0,0,0,0,,,,,,,,,,,,,,,,,,,,,1,23,47,17,,,,,,,,,,,,,,,,,,,,,,,,,,,426,reward,,,,,,1353.7966181999998,1353.7966181999998,1353.7966181999998,1353.7966181999998,0,,,0,,,0,,,0,,,1354.4007914000001,1354.4007914000001,1354.4007914000001,1354.4007914000001,27,A,2024-05-08_08h21.02.835,attentional_competition_task,2022.2.4,143.98454181937524,
positions.xlsx,positions_test.xlsx,positions_test_new.xlsx,stimuli.xlsx,stimuli_new.xlsx,stimuli/Social1.png,stimuli/Social2.png,stimuli/Nonsocial1.png,stimuli/Nonsocial2.png,stimuli/Social3.png,stimuli/Social4.png,stimuli/Nonsocial3.png,stimuli/Nonsocial4.png,,,"(-0.7, -0.5)",cs_neg_s,"(-0.7, 0.5)",cs_neg_ns_new,"(0.7, -0.5)",cs_pos_s,"(0.7, 0.5)",cs_pos_ns,0,0,0,0,,,,,,,,,,,,,,,,,,,,,,,,,,,,,0,0,0,22,0,0,0,0,,,,,,,,,,,,,,,429,reward,,,,,,1360.4768989000002,1360.4768989000002,1360.4768989000002,1360.4768989000002,0,,,0,,,1,0.4399441000000479,0.43994770000017525,0,,,1360.9144312,1360.9144312,1360.9144312,1360.9144312,27,A,2024-05-08_08h21.02.835,attentional_competition_task,2022.2.4,143.98454181937524,
positions.xlsx,positions_test.xlsx,positions_test_new.xlsx,stimuli.xlsx,stimuli_new.xlsx,stimuli/Social1.png,stimuli/Social2.png,stimuli/Nonsocial1.png,stimuli/Nonsocial2.png,stimuli/Social3.png,stimuli/Social4.png,stimuli/Nonsocial3.png,stimuli/Nonsocial4.png,,,"(-0.7, -0.5)",cs_neg_s,"(-0.7, 0.5)",cs_neg_ns_new,"(0.7, -0.5)",cs_pos_s,"(0.7, 0.5)",cs_pos_ns,0,0,0,0,,,,,,,,,,,,,,,,,,,,,,,,,,,,,0,0,0,22,1,0,1,0,,,,,,,,,,,,,,,432,reward,,,,,,1361.4559818,1361.4559818,1361.4559818,1361.4559818,0,,,0,,,0,,,1,0.031118399999741087,0.031122599999889644,1361.4559818,1361.4559818,1361.4559818,1361.4559818,27,A,2024-05-08_08h21.02.835,attentional_competition_task,2022.2.4,143.98454181937524,
positions.xlsx,positions_test.xlsx,positions_test_new.xlsx,stimuli.xlsx,stimuli_new.xlsx,stimuli/Social1.png,stimuli/Social2.png,stimuli/Nonsocial1.png,stimuli/Nonsocial2.png,stimuli/Social3.png,stimuli/Social4.png,stimuli/Nonsocial3.png,stimuli/Nonsocial4.png,,,"(-0.7, -0.5)",cs_neg_s,"(-0.7, 0.5)",cs_neg_ns_new,"(0.7, -0.5)",cs_pos_s,"(0.7, 0.5)",cs_pos_ns,0,0,0,0,,,,,,,,,,,,,,,,,,,,,,,,,,,,,0,0,0,22,2,0,2,0,,,,,,,,,,,,,,,435,reward,,,,,,1361.9560020000001,1361.9560020000001,1361.9560020000001,1361.9560020000001,0,,,0,,,0,,,0,,,1362.9837842999998,1362.9837842999998,1362.9837842999998,1362.9837842999998,27,A,2024-05-08_08h21.02.835,attentional_competition_task,2022.2.4,143.98454181937524,
positions.xlsx,positions_test.xlsx,positions_test_new.xlsx,stimuli.xlsx,stimuli_new.xlsx,stimuli/Social1.png,stimuli/Social2.png,stimuli/Nonsocial1.png,stimuli/Nonsocial2.png,stimuli/Social3.png,stimuli/Social4.png,stimuli/Nonsocial3.png,stimuli/Nonsocial4.png,,,"(-0.7, -0.5)",cs_neg_s,"(-0.7, 0.5)",cs_neg_ns_new,"(0.7, -0.5)",cs_pos_s,"(0.7, 0.5)",cs_pos_ns,0,0,0,0,,,,,,,,,,,,,,,,,,,,,,,,,,,,,0,0,0,22,,,,,,,,,,,,,,,,,,,,,,,,,,,,,,,,,,,,,,,,,,,,,,27,A,2024-05-08_08h21.02.835,attentional_competition_task,2022.2.4,143.98454181937524,
positions.xlsx,positions_test.xlsx,positions_test_new.xlsx,stimuli.xlsx,stimuli_new.xlsx,stimuli/Social1.png,stimuli/Social2.png,stimuli/Nonsocial1.png,stimuli/Nonsocial2.png,stimuli/Social3.png,stimuli/Social4.png,stimuli/Nonsocial3.png,stimuli/Nonsocial4.png,,,"(-0.7, -0.5)",cs_neg_ns,"(-0.7, 0.5)",cs_neg_s,"(0.7, -0.5)",cs_pos_ns,"(0.7, 0.5)",cs_pos_s,0,0,0,0,,,,,,,,,,,,,,,,,,,,,,,,,,,,,0,1,1,3,0,0,0,0,,,,,,,,,,,,,,,438,reward,,,,,,1369.2195832999998,1369.2195832999998,1369.2195832999998,1369.2195832999998,0,,,0,,,0,,,1,0.40590309999970486,0.40590659999998024,1369.6293555999998,1369.6293555999998,1369.6293555999998,1369.6293555999998,27,A,2024-05-08_08h21.02.835,attentional_competition_task,2022.2.4,143.98454181937524,
positions.xlsx,positions_test.xlsx,positions_test_new.xlsx,stimuli.xlsx,stimuli_new.xlsx,stimuli/Social1.png,stimuli/Social2.png,stimuli/Nonsocial1.png,stimuli/Nonsocial2.png,stimuli/Social3.png,stimuli/Social4.png,stimuli/Nonsocial3.png,stimuli/Nonsocial4.png,,,"(-0.7, -0.5)",cs_neg_ns,"(-0.7, 0.5)",cs_neg_s,"(0.7, -0.5)",cs_pos_ns,"(0.7, 0.5)",cs_pos_s,0,0,0,0,,,,,,,,,,,,,,,,,,,,,,,,,,,,,0,1,1,3,1,0,1,0,,,,,,,,,,,,,,,441,reward,,,,,,1370.1639926999999,1370.1639926999999,1370.1639926999999,1370.1639926999999,0,,,0,,,1,0.03097669999988284,0.030980800000179443,0,,,1370.1639926999999,1370.1639926999999,1370.1639926999999,1370.1639926999999,27,A,2024-05-08_08h21.02.835,attentional_competition_task,2022.2.4,143.98454181937524,
positions.xlsx,positions_test.xlsx,positions_test_new.xlsx,stimuli.xlsx,stimuli_new.xlsx,stimuli/Social1.png,stimuli/Social2.png,stimuli/Nonsocial1.png,stimuli/Nonsocial2.png,stimuli/Social3.png,stimuli/Social4.png,stimuli/Nonsocial3.png,stimuli/Nonsocial4.png,,,"(-0.7, -0.5)",cs_neg_ns,"(-0.7, 0.5)",cs_neg_s,"(0.7, -0.5)",cs_pos_ns,"(0.7, 0.5)",cs_pos_s,0,0,0,0,,,,,,,,,,,,,,,,,,,,,,,,,,,,,0,1,1,3,2,0,2,0,,,,,,,,,,,,,,,444,reward,,,,,,1370.6639426999998,1370.6639426999998,1370.6639426999998,1370.6639426999998,0,,,0,,,0,,,0,,,1371.7264291999998,1371.7264291999998,1371.7264291999998,1371.7264291999998,27,A,2024-05-08_08h21.02.835,attentional_competition_task,2022.2.4,143.98454181937524,
positions.xlsx,positions_test.xlsx,positions_test_new.xlsx,stimuli.xlsx,stimuli_new.xlsx,stimuli/Social1.png,stimuli/Social2.png,stimuli/Nonsocial1.png,stimuli/Nonsocial2.png,stimuli/Social3.png,stimuli/Social4.png,stimuli/Nonsocial3.png,stimuli/Nonsocial4.png,,,"(-0.7, -0.5)",cs_neg_ns,"(-0.7, 0.5)",cs_neg_s,"(0.7, -0.5)",cs_pos_ns,"(0.7, 0.5)",cs_pos_s,0,0,0,0,,,,,,,,,,,,,,,,,,,,,,,,,,,,,0,1,1,3,,,,,,,,,,,,,,,,,,,,,,,,,,,,,,,,,,,,,,,,,,,,,,27,A,2024-05-08_08h21.02.835,attentional_competition_task,2022.2.4,143.98454181937524,
positions.xlsx,positions_test.xlsx,positions_test_new.xlsx,stimuli.xlsx,stimuli_new.xlsx,stimuli/Social1.png,stimuli/Social2.png,stimuli/Nonsocial1.png,stimuli/Nonsocial2.png,stimuli/Social3.png,stimuli/Social4.png,stimuli/Nonsocial3.png,stimuli/Nonsocial4.png,,,"(-0.7, -0.5)",cs_pos_s,"(-0.7, 0.5)",cs_pos_ns_new,"(0.7, -0.5)",cs_neg_s,"(0.7, 0.5)",cs_neg_ns,0,0,0,0,,,,,,,,,,,,,,,,,,,,,,,,,,,,,0,2,2,44,0,0,0,0,,,,,,,,,,,,,,,447,reward,,,,,,1377.1359492999998,1377.1359492999998,1377.1359492999998,1377.1359492999998,1,0.5159573000000819,0.5224576000000525,0,,,0,,,0,,,1377.6636866000001,1377.6636866000001,1377.6636866000001,1377.6636866000001,27,A,2024-05-08_08h21.02.835,attentional_competition_task,2022.2.4,143.98454181937524,
positions.xlsx,positions_test.xlsx,positions_test_new.xlsx,stimuli.xlsx,stimuli_new.xlsx,stimuli/Social1.png,stimuli/Social2.png,stimuli/Nonsocial1.png,stimuli/Nonsocial2.png,stimuli/Social3.png,stimuli/Social4.png,stimuli/Nonsocial3.png,stimuli/Nonsocial4.png,,,"(-0.7, -0.5)",cs_pos_s,"(-0.7, 0.5)",cs_pos_ns_new,"(0.7, -0.5)",cs_neg_s,"(0.7, 0.5)",cs_neg_ns,0,0,0,0,,,,,,,,,,,,,,,,,,,,,,,,,,,,,0,2,2,44,1,0,1,0,,,,,,,,,,,,,,,450,reward,,,,,,1378.1914570000001,1378.1914570000001,1378.1914570000001,1378.1914570000001,0,,,1,0.02690549999988434,0.026909400000022288,0,,,0,,,1378.1914570000001,1378.1914570000001,1378.1914570000001,1378.1914570000001,27,A,2024-05-08_08h21.02.835,attentional_competition_task,2022.2.4,143.98454181937524,
positions.xlsx,positions_test.xlsx,positions_test_new.xlsx,stimuli.xlsx,stimuli_new.xlsx,stimuli/Social1.png,stimuli/Social2.png,stimuli/Nonsocial1.png,stimuli/Nonsocial2.png,stimuli/Social3.png,stimuli/Social4.png,stimuli/Nonsocial3.png,stimuli/Nonsocial4.png,,,"(-0.7, -0.5)",cs_pos_s,"(-0.7, 0.5)",cs_pos_ns_new,"(0.7, -0.5)",cs_neg_s,"(0.7, 0.5)",cs_neg_ns,0,0,0,0,,,,,,,,,,,,,,,,,,,,,,,,,,,,,0,2,2,44,2,0,2,0,,,,,,,,,,,,,,,447,loss,,,,,,1378.6914365999999,1378.6914365999999,1378.6914365999999,1378.6914365999999,0,,,1,0.026250400000208174,0.27759969999988243,0,,,1,0.3402977999999166,0.3403016000002026,1379.0316863,1379.0316863,1379.0316863,1379.0316863,27,A,2024-05-08_08h21.02.835,attentional_competition_task,2022.2.4,143.98454181937524,
positions.xlsx,positions_test.xlsx,positions_test_new.xlsx,stimuli.xlsx,stimuli_new.xlsx,stimuli/Social1.png,stimuli/Social2.png,stimuli/Nonsocial1.png,stimuli/Nonsocial2.png,stimuli/Social3.png,stimuli/Social4.png,stimuli/Nonsocial3.png,stimuli/Nonsocial4.png,,,"(-0.7, -0.5)",cs_pos_s,"(-0.7, 0.5)",cs_pos_ns_new,"(0.7, -0.5)",cs_neg_s,"(0.7, 0.5)",cs_neg_ns,0,0,0,0,,,,,,,,,,,,,,,,,,,,,,,,,,,,,0,2,2,44,,,,,,,,,,,,,,,,,,,,,,,,,,,,,,,,,,,,,,,,,,,,,,27,A,2024-05-08_08h21.02.835,attentional_competition_task,2022.2.4,143.98454181937524,
positions.xlsx,positions_test.xlsx,positions_test_new.xlsx,stimuli.xlsx,stimuli_new.xlsx,stimuli/Social1.png,stimuli/Social2.png,stimuli/Nonsocial1.png,stimuli/Nonsocial2.png,stimuli/Social3.png,stimuli/Social4.png,stimuli/Nonsocial3.png,stimuli/Nonsocial4.png,,,"(-0.7, -0.5)",cs_neg_ns_new,"(-0.7, 0.5)",cs_pos_s,"(0.7, -0.5)",cs_neg_s,"(0.7, 0.5)",cs_pos_ns,0,0,0,0,,,,,,,,,,,,,,,,,,,,,,,,,,,,,0,3,3,27,0,0,0,0,,,,,,,,,,,,,,,444,loss,,,,,,1384.9550348999999,1384.9550348999999,1384.9550348999999,1384.9550348999999,1,0.4596003000001474,0.45960409999997864,0,,,0,,,0,,,1385.4203151,1385.4203151,1385.4203151,1385.4203151,27,A,2024-05-08_08h21.02.835,attentional_competition_task,2022.2.4,143.98454181937524,
positions.xlsx,positions_test.xlsx,positions_test_new.xlsx,stimuli.xlsx,stimuli_new.xlsx,stimuli/Social1.png,stimuli/Social2.png,stimuli/Nonsocial1.png,stimuli/Nonsocial2.png,stimuli/Social3.png,stimuli/Social4.png,stimuli/Nonsocial3.png,stimuli/Nonsocial4.png,,,"(-0.7, -0.5)",cs_neg_ns_new,"(-0.7, 0.5)",cs_pos_s,"(0.7, -0.5)",cs_neg_s,"(0.7, 0.5)",cs_pos_ns,0,0,0,0,,,,,,,,,,,,,,,,,,,,,,,,,,,,,0,3,3,27,1,0,1,0,,,,,,,,,,,,,,,447,reward,,,,,,1385.9202988999998,1385.9202988999998,1385.9202988999998,1385.9202988999998,1,0.029746199999863165,0.14914279999993596,1,0.16226289999985966,0.16226689999984956,0,,,0,,,1386.0869279,1386.0869279,1386.0869279,1386.0869279,27,A,2024-05-08_08h21.02.835,attentional_competition_task,2022.2.4,143.98454181937524,
positions.xlsx,positions_test.xlsx,positions_test_new.xlsx,stimuli.xlsx,stimuli_new.xlsx,stimuli/Social1.png,stimuli/Social2.png,stimuli/Nonsocial1.png,stimuli/Nonsocial2.png,stimuli/Social3.png,stimuli/Social4.png,stimuli/Nonsocial3.png,stimuli/Nonsocial4.png,,,"(-0.7, -0.5)",cs_neg_ns_new,"(-0.7, 0.5)",cs_pos_s,"(0.7, -0.5)",cs_neg_s,"(0.7, 0.5)",cs_pos_ns,0,0,0,0,,,,,,,,,,,,,,,,,,,,,,,,,,,,,0,3,3,27,2,0,2,0,,,,,,,,,,,,,,,450,reward,,,,,,1386.5938399999998,1386.5938399999998,1386.5938399999998,1386.5938399999998,0,,,1,0.030791900000167516,0.3774868999998944,0,,,0,,,1387.4688552,1387.4688552,1387.4688552,1387.4688552,27,A,2024-05-08_08h21.02.835,attentional_competition_task,2022.2.4,143.98454181937524,
positions.xlsx,positions_test.xlsx,positions_test_new.xlsx,stimuli.xlsx,stimuli_new.xlsx,stimuli/Social1.png,stimuli/Social2.png,stimuli/Nonsocial1.png,stimuli/Nonsocial2.png,stimuli/Social3.png,stimuli/Social4.png,stimuli/Nonsocial3.png,stimuli/Nonsocial4.png,,,"(-0.7, -0.5)",cs_neg_ns_new,"(-0.7, 0.5)",cs_pos_s,"(0.7, -0.5)",cs_neg_s,"(0.7, 0.5)",cs_pos_ns,0,0,0,0,,,,,,,,,,,,,,,,,,,,,,,,,,,,,0,3,3,27,,,,,,,,,,,,,,,,,,,,,,,,,,,,,,,,,,,,,,,,,,,,,,27,A,2024-05-08_08h21.02.835,attentional_competition_task,2022.2.4,143.98454181937524,
positions.xlsx,positions_test.xlsx,positions_test_new.xlsx,stimuli.xlsx,stimuli_new.xlsx,stimuli/Social1.png,stimuli/Social2.png,stimuli/Nonsocial1.png,stimuli/Nonsocial2.png,stimuli/Social3.png,stimuli/Social4.png,stimuli/Nonsocial3.png,stimuli/Nonsocial4.png,,,"(-0.7, -0.5)",cs_pos_ns,"(-0.7, 0.5)",cs_neg_ns_new,"(0.7, -0.5)",cs_neg_s,"(0.7, 0.5)",cs_pos_s,0,0,0,0,,,,,,,,,,,,,,,,,,,,,,,,,,,,,0,4,4,20,0,0,0,0,,,,,,,,,,,,,,,453,reward,,,,,,1393.9060757999998,1393.9060757999998,1393.9060757999998,1393.9060757999998,0,,,0,,,0,,,1,0.4465122000001429,0.4465159000001222,1394.3574476000001,1394.3574476000001,1394.3574476000001,1394.3574476000001,27,A,2024-05-08_08h21.02.835,attentional_competition_task,2022.2.4,143.98454181937524,
positions.xlsx,positions_test.xlsx,positions_test_new.xlsx,stimuli.xlsx,stimuli_new.xlsx,stimuli/Social1.png,stimuli/Social2.png,stimuli/Nonsocial1.png,stimuli/Nonsocial2.png,stimuli/Social3.png,stimuli/Social4.png,stimuli/Nonsocial3.png,stimuli/Nonsocial4.png,,,"(-0.7, -0.5)",cs_pos_ns,"(-0.7, 0.5)",cs_neg_ns_new,"(0.7, -0.5)",cs_neg_s,"(0.7, 0.5)",cs_pos_s,0,0,0,0,,,,,,,,,,,,,,,,,,,,,,,,,,,,,0,4,4,20,1,0,1,0,,,,,,,,,,,,,,,450,loss,,,,,,1394.8574225,1394.8574225,1394.8574225,1394.8574225,0,,,1,0.27389290000019173,0.27389690000018163,0,,,1,0.02948820000028718,0.21154359999991357,1395.1351920999998,1395.1351920999998,1395.1351920999998,1395.1351920999998,27,A,2024-05-08_08h21.02.835,attentional_competition_task,2022.2.4,143.98454181937524,
positions.xlsx,positions_test.xlsx,positions_test_new.xlsx,stimuli.xlsx,stimuli_new.xlsx,stimuli/Social1.png,stimuli/Social2.png,stimuli/Nonsocial1.png,stimuli/Nonsocial2.png,stimuli/Social3.png,stimuli/Social4.png,stimuli/Nonsocial3.png,stimuli/Nonsocial4.png,,,"(-0.7, -0.5)",cs_pos_ns,"(-0.7, 0.5)",cs_neg_ns_new,"(0.7, -0.5)",cs_neg_s,"(0.7, 0.5)",cs_pos_s,0,0,0,0,,,,,,,,,,,,,,,,,,,,,,,,,,,,,0,4,4,20,2,0,2,0,,,,,,,,,,,,,,,453,reward,,,,,,1395.6768358000002,1395.6768358000002,1395.6768358000002,1395.6768358000002,1,0.03005380000013247,0.03005940000002738,0,,,0,,,0,,,1395.6768358000002,1395.6768358000002,1395.6768358000002,1395.6768358000002,27,A,2024-05-08_08h21.02.835,attentional_competition_task,2022.2.4,143.98454181937524,
positions.xlsx,positions_test.xlsx,positions_test_new.xlsx,stimuli.xlsx,stimuli_new.xlsx,stimuli/Social1.png,stimuli/Social2.png,stimuli/Nonsocial1.png,stimuli/Nonsocial2.png,stimuli/Social3.png,stimuli/Social4.png,stimuli/Nonsocial3.png,stimuli/Nonsocial4.png,,,"(-0.7, -0.5)",cs_pos_ns,"(-0.7, 0.5)",cs_neg_ns_new,"(0.7, -0.5)",cs_neg_s,"(0.7, 0.5)",cs_pos_s,0,0,0,0,,,,,,,,,,,,,,,,,,,,,,,,,,,,,0,4,4,20,,,,,,,,,,,,,,,,,,,,,,,,,,,,,,,,,,,,,,,,,,,,,,27,A,2024-05-08_08h21.02.835,attentional_competition_task,2022.2.4,143.98454181937524,
positions.xlsx,positions_test.xlsx,positions_test_new.xlsx,stimuli.xlsx,stimuli_new.xlsx,stimuli/Social1.png,stimuli/Social2.png,stimuli/Nonsocial1.png,stimuli/Nonsocial2.png,stimuli/Social3.png,stimuli/Social4.png,stimuli/Nonsocial3.png,stimuli/Nonsocial4.png,,,"(-0.7, -0.5)",cs_neg_s,"(-0.7, 0.5)",cs_pos_s,"(0.7, -0.5)",cs_pos_ns,"(0.7, 0.5)",cs_neg_ns_new,0,0,0,0,,,,,,,,,,,,,,,,,,,,,,,,,,,,,0,5,5,26,0,0,0,0,,,,,,,,,,,,,,,456,reward,,,,,,1403.2807079000002,1403.2807079000002,1403.2807079000002,1403.2807079000002,0,,,1,0.4323408999998719,0.43234439999969254,0,,,0,,,1403.7250888,1403.7250888,1403.7250888,1403.7250888,27,A,2024-05-08_08h21.02.835,attentional_competition_task,2022.2.4,143.98454181937524,
positions.xlsx,positions_test.xlsx,positions_test_new.xlsx,stimuli.xlsx,stimuli_new.xlsx,stimuli/Social1.png,stimuli/Social2.png,stimuli/Nonsocial1.png,stimuli/Nonsocial2.png,stimuli/Social3.png,stimuli/Social4.png,stimuli/Nonsocial3.png,stimuli/Nonsocial4.png,,,"(-0.7, -0.5)",cs_neg_s,"(-0.7, 0.5)",cs_pos_s,"(0.7, -0.5)",cs_pos_ns,"(0.7, 0.5)",cs_neg_ns_new,0,0,0,0,,,,,,,,,,,,,,,,,,,,,,,,,,,,,0,5,5,26,1,0,1,0,,,,,,,,,,,,,,,459,reward,,,,,,1404.2251049,1404.2251049,1404.2251049,1404.2251049,0,,,1,0.028575399999681395,1.0718821999998909,0,,,0,,,1405.7875035,1405.7875035,1405.7875035,1405.7875035,27,A,2024-05-08_08h21.02.835,attentional_competition_task,2022.2.4,143.98454181937524,
positions.xlsx,positions_test.xlsx,positions_test_new.xlsx,stimuli.xlsx,stimuli_new.xlsx,stimuli/Social1.png,stimuli/Social2.png,stimuli/Nonsocial1.png,stimuli/Nonsocial2.png,stimuli/Social3.png,stimuli/Social4.png,stimuli/Nonsocial3.png,stimuli/Nonsocial4.png,,,"(-0.7, -0.5)",cs_neg_s,"(-0.7, 0.5)",cs_pos_s,"(0.7, -0.5)",cs_pos_ns,"(0.7, 0.5)",cs_neg_ns_new,0,0,0,0,,,,,,,,,,,,,,,,,,,,,,,,,,,,,0,5,5,26,,,,,,,,,,,,,,,,,,,,,,,,,,,,,,,,,,,,,,,,,,,,,,27,A,2024-05-08_08h21.02.835,attentional_competition_task,2022.2.4,143.98454181937524,
positions.xlsx,positions_test.xlsx,positions_test_new.xlsx,stimuli.xlsx,stimuli_new.xlsx,stimuli/Social1.png,stimuli/Social2.png,stimuli/Nonsocial1.png,stimuli/Nonsocial2.png,stimuli/Social3.png,stimuli/Social4.png,stimuli/Nonsocial3.png,stimuli/Nonsocial4.png,,,"(-0.7, -0.5)",cs_neg_s,"(-0.7, 0.5)",cs_neg_ns,"(0.7, -0.5)",cs_pos_s,"(0.7, 0.5)",cs_pos_ns,0,0,0,0,,,,,,,,,,,,,,,,,,,,,,,,,,,,,0,6,6,0,0,0,0,0,,,,,,,,,,,,,,,456,loss,,,,,,1411.9469877999998,1411.9469877999998,1411.9469877999998,1411.9469877999998,1,0.3491102000002684,0.3491142000002583,0,,,0,,,0,,,1412.3080671999999,1412.3080671999999,1412.3080671999999,1412.3080671999999,27,A,2024-05-08_08h21.02.835,attentional_competition_task,2022.2.4,143.98454181937524,
positions.xlsx,positions_test.xlsx,positions_test_new.xlsx,stimuli.xlsx,stimuli_new.xlsx,stimuli/Social1.png,stimuli/Social2.png,stimuli/Nonsocial1.png,stimuli/Nonsocial2.png,stimuli/Social3.png,stimuli/Social4.png,stimuli/Nonsocial3.png,stimuli/Nonsocial4.png,,,"(-0.7, -0.5)",cs_neg_s,"(-0.7, 0.5)",cs_neg_ns,"(0.7, -0.5)",cs_pos_s,"(0.7, 0.5)",cs_pos_ns,0,0,0,0,,,,,,,,,,,,,,,,,,,,,,,,,,,,,0,6,6,0,1,0,1,0,,,,,,,,,,,,,,,459,reward,,,,,,1412.8357949999997,1412.8357949999997,1412.8357949999997,1412.8357949999997,0,,,0,,,1,0.023876499999914813,0.023880100000042148,0,,,1412.8357949999997,1412.8357949999997,1412.8357949999997,1412.8357949999997,27,A,2024-05-08_08h21.02.835,attentional_competition_task,2022.2.4,143.98454181937524,
positions.xlsx,positions_test.xlsx,positions_test_new.xlsx,stimuli.xlsx,stimuli_new.xlsx,stimuli/Social1.png,stimuli/Social2.png,stimuli/Nonsocial1.png,stimuli/Nonsocial2.png,stimuli/Social3.png,stimuli/Social4.png,stimuli/Nonsocial3.png,stimuli/Nonsocial4.png,,,"(-0.7, -0.5)",cs_neg_s,"(-0.7, 0.5)",cs_neg_ns,"(0.7, -0.5)",cs_pos_s,"(0.7, 0.5)",cs_pos_ns,0,0,0,0,,,,,,,,,,,,,,,,,,,,,,,,,,,,,0,6,6,0,2,0,2,0,,,,,,,,,,,,,,,462,reward,,,,,,1413.3288439,1413.3288439,1413.3288439,1413.3288439,0,,,0,,,0,,,1,0.045300199999928736,0.04530400000021473,1413.3844065,1413.3844065,1413.3844065,1413.3844065,27,A,2024-05-08_08h21.02.835,attentional_competition_task,2022.2.4,143.98454181937524,
positions.xlsx,positions_test.xlsx,positions_test_new.xlsx,stimuli.xlsx,stimuli_new.xlsx,stimuli/Social1.png,stimuli/Social2.png,stimuli/Nonsocial1.png,stimuli/Nonsocial2.png,stimuli/Social3.png,stimuli/Social4.png,stimuli/Nonsocial3.png,stimuli/Nonsocial4.png,,,"(-0.7, -0.5)",cs_neg_s,"(-0.7, 0.5)",cs_neg_ns,"(0.7, -0.5)",cs_pos_s,"(0.7, 0.5)",cs_pos_ns,0,0,0,0,,,,,,,,,,,,,,,,,,,,,,,,,,,,,0,6,6,0,3,0,3,0,,,,,,,,,,,,,,,465,reward,,,,,,1413.8774691,1413.8774691,1413.8774691,1413.8774691,0,,,0,,,0,,,1,0.022202300000117248,0.080266599999959,1414.4677881999999,1414.4677881999999,1414.4677881999999,1414.4677881999999,27,A,2024-05-08_08h21.02.835,attentional_competition_task,2022.2.4,143.98454181937524,
positions.xlsx,positions_test.xlsx,positions_test_new.xlsx,stimuli.xlsx,stimuli_new.xlsx,stimuli/Social1.png,stimuli/Social2.png,stimuli/Nonsocial1.png,stimuli/Nonsocial2.png,stimuli/Social3.png,stimuli/Social4.png,stimuli/Nonsocial3.png,stimuli/Nonsocial4.png,,,"(-0.7, -0.5)",cs_neg_s,"(-0.7, 0.5)",cs_neg_ns,"(0.7, -0.5)",cs_pos_s,"(0.7, 0.5)",cs_pos_ns,0,0,0,0,,,,,,,,,,,,,,,,,,,,,,,,,,,,,0,6,6,0,,,,,,,,,,,,,,,,,,,,,,,,,,,,,,,,,,,,,,,,,,,,,,27,A,2024-05-08_08h21.02.835,attentional_competition_task,2022.2.4,143.98454181937524,
positions.xlsx,positions_test.xlsx,positions_test_new.xlsx,stimuli.xlsx,stimuli_new.xlsx,stimuli/Social1.png,stimuli/Social2.png,stimuli/Nonsocial1.png,stimuli/Nonsocial2.png,stimuli/Social3.png,stimuli/Social4.png,stimuli/Nonsocial3.png,stimuli/Nonsocial4.png,,,"(-0.7, -0.5)",cs_neg_ns,"(-0.7, 0.5)",cs_pos_s,"(0.7, -0.5)",cs_pos_ns,"(0.7, 0.5)",cs_neg_s_new,0,0,0,0,,,,,,,,,,,,,,,,,,,,,,,,,,,,,0,7,7,16,0,0,0,0,,,,,,,,,,,,,,,462,loss,,,,,,1421.2313237,1421.2313237,1421.2313237,1421.2313237,0,,,0,,,0,,,2,0.4612585999998373,0.468212400000084,1421.7174229999998,1421.7174229999998,1421.7174229999998,1421.7174229999998,27,A,2024-05-08_08h21.02.835,attentional_competition_task,2022.2.4,143.98454181937524,
positions.xlsx,positions_test.xlsx,positions_test_new.xlsx,stimuli.xlsx,stimuli_new.xlsx,stimuli/Social1.png,stimuli/Social2.png,stimuli/Nonsocial1.png,stimuli/Nonsocial2.png,stimuli/Social3.png,stimuli/Social4.png,stimuli/Nonsocial3.png,stimuli/Nonsocial4.png,,,"(-0.7, -0.5)",cs_neg_ns,"(-0.7, 0.5)",cs_pos_s,"(0.7, -0.5)",cs_pos_ns,"(0.7, 0.5)",cs_neg_s_new,0,0,0,0,,,,,,,,,,,,,,,,,,,,,,,,,,,,,0,7,7,16,1,0,1,0,,,,,,,,,,,,,,,465,reward,,,,,,1422.2174057,1422.2174057,1422.2174057,1422.2174057,0,,,1,0.07845189999989088,0.07845529999985956,0,,,0,,,1422.2938057,1422.2938057,1422.2938057,1422.2938057,27,A,2024-05-08_08h21.02.835,attentional_competition_task,2022.2.4,143.98454181937524,
positions.xlsx,positions_test.xlsx,positions_test_new.xlsx,stimuli.xlsx,stimuli_new.xlsx,stimuli/Social1.png,stimuli/Social2.png,stimuli/Nonsocial1.png,stimuli/Nonsocial2.png,stimuli/Social3.png,stimuli/Social4.png,stimuli/Nonsocial3.png,stimuli/Nonsocial4.png,,,"(-0.7, -0.5)",cs_neg_ns,"(-0.7, 0.5)",cs_pos_s,"(0.7, -0.5)",cs_pos_ns,"(0.7, 0.5)",cs_neg_s_new,0,0,0,0,,,,,,,,,,,,,,,,,,,,,,,,,,,,,0,7,7,16,2,0,2,0,,,,,,,,,,,,,,,468,reward,,,,,,1422.79377,1422.79377,1422.79377,1422.79377,0,,,1,0.023123499999655905,0.3575298999999177,1,0.42015649999984817,0.42016049999983807,0,,,1423.7174100999998,1423.7174100999998,1423.7174100999998,1423.7174100999998,27,A,2024-05-08_08h21.02.835,attentional_competition_task,2022.2.4,143.98454181937524,
positions.xlsx,positions_test.xlsx,positions_test_new.xlsx,stimuli.xlsx,stimuli_new.xlsx,stimuli/Social1.png,stimuli/Social2.png,stimuli/Nonsocial1.png,stimuli/Nonsocial2.png,stimuli/Social3.png,stimuli/Social4.png,stimuli/Nonsocial3.png,stimuli/Nonsocial4.png,,,"(-0.7, -0.5)",cs_neg_ns,"(-0.7, 0.5)",cs_pos_s,"(0.7, -0.5)",cs_pos_ns,"(0.7, 0.5)",cs_neg_s_new,0,0,0,0,,,,,,,,,,,,,,,,,,,,,,,,,,,,,0,7,7,16,,,,,,,,,,,,,,,,,,,,,,,,,,,,,,,,,,,,,,,,,,,,,,27,A,2024-05-08_08h21.02.835,attentional_competition_task,2022.2.4,143.98454181937524,
positions.xlsx,positions_test.xlsx,positions_test_new.xlsx,stimuli.xlsx,stimuli_new.xlsx,stimuli/Social1.png,stimuli/Social2.png,stimuli/Nonsocial1.png,stimuli/Nonsocial2.png,stimuli/Social3.png,stimuli/Social4.png,stimuli/Nonsocial3.png,stimuli/Nonsocial4.png,,,"(-0.7, -0.5)",cs_pos_s,"(-0.7, 0.5)",cs_neg_s,"(0.7, -0.5)",cs_pos_ns_new,"(0.7, 0.5)",cs_neg_ns,0,0,0,0,,,,,,,,,,,,,,,,,,,,,,,,,,,,,0,8,8,40,0,0,0,0,,,,,,,,,,,,,,,471,reward,,,,,,1429.8559606000001,1429.8559606000001,1429.8559606000001,1429.8559606000001,1,0.8135307000002285,0.8135347000002184,0,,,0,,,0,,,1430.6684450999999,1430.6684450999999,1430.6684450999999,1430.6684450999999,27,A,2024-05-08_08h21.02.835,attentional_competition_task,2022.2.4,143.98454181937524,
positions.xlsx,positions_test.xlsx,positions_test_new.xlsx,stimuli.xlsx,stimuli_new.xlsx,stimuli/Social1.png,stimuli/Social2.png,stimuli/Nonsocial1.png,stimuli/Nonsocial2.png,stimuli/Social3.png,stimuli/Social4.png,stimuli/Nonsocial3.png,stimuli/Nonsocial4.png,,,"(-0.7, -0.5)",cs_pos_s,"(-0.7, 0.5)",cs_neg_s,"(0.7, -0.5)",cs_pos_ns_new,"(0.7, 0.5)",cs_neg_ns,0,0,0,0,,,,,,,,,,,,,,,,,,,,,,,,,,,,,0,8,8,40,1,0,1,0,,,,,,,,,,,,,,,474,reward,,,,,,1431.1753855,1431.1753855,1431.1753855,1431.1753855,1,0.028890300000057323,0.6920030999999653,0,,,0,,,0,,,1432.3767117999998,1432.3767117999998,1432.3767117999998,1432.3767117999998,27,A,2024-05-08_08h21.02.835,attentional_competition_task,2022.2.4,143.98454181937524,
positions.xlsx,positions_test.xlsx,positions_test_new.xlsx,stimuli.xlsx,stimuli_new.xlsx,stimuli/Social1.png,stimuli/Social2.png,stimuli/Nonsocial1.png,stimuli/Nonsocial2.png,stimuli/Social3.png,stimuli/Social4.png,stimuli/Nonsocial3.png,stimuli/Nonsocial4.png,,,"(-0.7, -0.5)",cs_pos_s,"(-0.7, 0.5)",cs_neg_s,"(0.7, -0.5)",cs_pos_ns_new,"(0.7, 0.5)",cs_neg_ns,0,0,0,0,,,,,,,,,,,,,,,,,,,,,,,,,,,,,0,8,8,40,,,,,,,,,,,,,,,,,,,,,,,,,,,,,,,,,,,,,,,,,,,,,,27,A,2024-05-08_08h21.02.835,attentional_competition_task,2022.2.4,143.98454181937524,
