posFile,posFileTest,posFileTestNew,stimFile,stimFileNew,cs_neg_s,cs_pos_s,cs_neg_ns,cs_pos_ns,cs_neg_s_new,cs_pos_s_new,cs_neg_ns_new,cs_pos_ns_new,stim,position,position1,stim1,position2,stim2,position3,stim3,position4,stim4,blocks.thisRepN,blocks.thisTrialN,blocks.thisN,blocks.thisIndex,ratingtrials1.thisRepN,ratingtrials1.thisTrialN,ratingtrials1.thisN,ratingtrials1.thisIndex,search_task_trials.thisRepN,search_task_trials.thisTrialN,search_task_trials.thisN,search_task_trials.thisIndex,learning_trials.thisRepN,learning_trials.thisTrialN,learning_trials.thisN,learning_trials.thisIndex,trials.thisRepN,trials.thisTrialN,trials.thisN,trials.thisIndex,ratingtrials2.thisRepN,ratingtrials2.thisTrialN,ratingtrials2.thisN,ratingtrials2.thisIndex,testtrials.thisRepN,testtrials.thisTrialN,testtrials.thisN,testtrials.thisIndex,loop_test.thisRepN,loop_test.thisTrialN,loop_test.thisN,loop_test.thisIndex,testtrials_novelty.thisRepN,testtrials_novelty.thisTrialN,testtrials_novelty.thisN,testtrials_novelty.thisIndex,loop_test_novelty.thisRepN,loop_test_novelty.thisTrialN,loop_test_novelty.thisN,loop_test_novelty.thisIndex,ratingtrials3.thisRepN,ratingtrials3.thisTrialN,ratingtrials3.thisN,ratingtrials3.thisIndex,textStart.started,textStartExp.started,imageRating.started,sliderStim.response,sliderStim.rt,textStartSearch.started,target_positions,distractor_positions,textStartTask.started,image.started,score,outcome,roi.numLooks,roi.timesOn,roi.timesOff,imageFeedback.started,textTestInstr.started,test_image1.started,test_image2.started,test_image3.started,test_image4.started,test_roi1.numLooks,test_roi1.timesOn,test_roi1.timesOff,test_roi2.numLooks,test_roi2.timesOn,test_roi2.timesOff,test_roi3.numLooks,test_roi3.timesOn,test_roi3.timesOff,test_roi4.numLooks,test_roi4.timesOn,test_roi4.timesOff,test_image_feedback1.started,test_image_feedback2.started,test_iamge_feedback3.started,test_iamge_feedback4.started,participant,group,date,expName,psychopyVersion,frameRate,
positions.xlsx,positions_test.xlsx,positions_test_new.xlsx,stimuli.xlsx,stimuli_new.xlsx,stimuli/Social3.png,stimuli/Social4.png,stimuli/Nonsocial3.png,stimuli/Nonsocial4.png,stimuli/Social1.png,stimuli/Social2.png,stimuli/Nonsocial1.png,stimuli/Nonsocial2.png,cs_neg_ns,,,,,,,,,,0,0,0,0,0,0,0,1,,,,,,,,,,,,,,,,,,,,,,,,,,,,,,,,,,,,,13.745998200029135,171.9681465998292,181.52954209968448,6.0,14.217079400084913,,,,,,,,,,,,,,,,,,,,,,,,,,,,,,,,,7,C,2024-04-17_10h18.12.808,attentional_competition_task,2022.2.4,144.02083079506562,
positions.xlsx,positions_test.xlsx,positions_test_new.xlsx,stimuli.xlsx,stimuli_new.xlsx,stimuli/Social3.png,stimuli/Social4.png,stimuli/Nonsocial3.png,stimuli/Nonsocial4.png,stimuli/Social1.png,stimuli/Social2.png,stimuli/Nonsocial1.png,stimuli/Nonsocial2.png,cs_neg_s,,,,,,,,,,0,0,0,0,0,1,1,0,,,,,,,,,,,,,,,,,,,,,,,,,,,,,,,,,,,,,,,196.8066591997631,6.0,8.998826500028372,,,,,,,,,,,,,,,,,,,,,,,,,,,,,,,,,7,C,2024-04-17_10h18.12.808,attentional_competition_task,2022.2.4,144.02083079506562,
positions.xlsx,positions_test.xlsx,positions_test_new.xlsx,stimuli.xlsx,stimuli_new.xlsx,stimuli/Social3.png,stimuli/Social4.png,stimuli/Nonsocial3.png,stimuli/Nonsocial4.png,stimuli/Social1.png,stimuli/Social2.png,stimuli/Nonsocial1.png,stimuli/Nonsocial2.png,cs_pos_ns,,,,,,,,,,0,0,0,0,0,2,2,3,,,,,,,,,,,,,,,,,,,,,,,,,,,,,,,,,,,,,,,206.21601979993284,4.0,2.497353100217879,,,,,,,,,,,,,,,,,,,,,,,,,,,,,,,,,7,C,2024-04-17_10h18.12.808,attentional_competition_task,2022.2.4,144.02083079506562,
positions.xlsx,positions_test.xlsx,positions_test_new.xlsx,stimuli.xlsx,stimuli_new.xlsx,stimuli/Social3.png,stimuli/Social4.png,stimuli/Nonsocial3.png,stimuli/Nonsocial4.png,stimuli/Social1.png,stimuli/Social2.png,stimuli/Nonsocial1.png,stimuli/Nonsocial2.png,cs_pos_s,,,,,,,,,,0,0,0,0,0,3,3,2,,,,,,,,,,,,,,,,,,,,,,,,,,,,,,,,,,,,,,,209.667226199992,4.0,3.9940364002250135,,,,,,,,,,,,,,,,,,,,,,,,,,,,,,,,,7,C,2024-04-17_10h18.12.808,attentional_competition_task,2022.2.4,144.02083079506562,
positions.xlsx,positions_test.xlsx,positions_test_new.xlsx,stimuli.xlsx,stimuli_new.xlsx,stimuli/Social3.png,stimuli/Social4.png,stimuli/Nonsocial3.png,stimuli/Nonsocial4.png,stimuli/Social1.png,stimuli/Social2.png,stimuli/Nonsocial1.png,stimuli/Nonsocial2.png,,,,,,,,,,,0,0,0,0,,,,,0,0,0,0,,,,,,,,,,,,,,,,,,,,,,,,,,,,,,,,,,,,,,214.34070399962366,"[[0.9, -0.30000000000000004], [-0.45, -0.8], [-0.22499999999999998, -0.30000000000000004], [0.45000000000000007, 0.19999999999999996], [0.9, 0.19999999999999996], [-0.675, -0.8], [0.9, 0.7], [0.45000000000000007, -0.8], [-0.9, 0.19999999999999996], [0.45000000000000007, -0.30000000000000004], [0.22499999999999998, -0.30000000000000004], [0.6749999999999999, 0.19999999999999996], [-0.45, 0.19999999999999996], [-0.9, -0.30000000000000004], [0.0, -0.30000000000000004]]","[[0.0, -0.8], [0.6749999999999999, -0.30000000000000004], [0.9, -0.8], [-0.22499999999999998, -0.8], [-0.9, 0.7], [-0.675, -0.30000000000000004], [-0.45, 0.7], [0.6749999999999999, 0.7], [-0.45, -0.30000000000000004], [0.6749999999999999, -0.8], [0.22499999999999998, -0.8], [0.22499999999999998, 0.19999999999999996], [0.0, 0.7], [0.22499999999999998, 0.7], [-0.675, 0.7]]",,,,,,,,,,,,,,,,,,,,,,,,,,,,,,7,C,2024-04-17_10h18.12.808,attentional_competition_task,2022.2.4,144.02083079506562,
positions.xlsx,positions_test.xlsx,positions_test_new.xlsx,stimuli.xlsx,stimuli_new.xlsx,stimuli/Social3.png,stimuli/Social4.png,stimuli/Nonsocial3.png,stimuli/Nonsocial4.png,stimuli/Social1.png,stimuli/Social2.png,stimuli/Nonsocial1.png,stimuli/Nonsocial2.png,,,,,,,,,,,0,0,0,0,,,,,1,0,1,0,,,,,,,,,,,,,,,,,,,,,,,,,,,,,,,,,,,,,,,"[[-0.675, 0.19999999999999996], [0.0, 0.19999999999999996], [0.9, 0.19999999999999996], [0.22499999999999998, -0.30000000000000004], [0.0, 0.7], [0.22499999999999998, 0.7], [-0.9, -0.8], [0.6749999999999999, 0.19999999999999996], [-0.9, 0.7], [0.45000000000000007, -0.8], [-0.22499999999999998, -0.8], [0.6749999999999999, -0.8], [0.0, -0.8], [-0.675, -0.30000000000000004], [-0.675, -0.8]]","[[-0.45, 0.19999999999999996], [0.9, 0.7], [0.22499999999999998, -0.8], [-0.22499999999999998, 0.7], [0.6749999999999999, -0.30000000000000004], [-0.9, -0.30000000000000004], [0.22499999999999998, 0.19999999999999996], [0.9, -0.30000000000000004], [0.6749999999999999, 0.7], [-0.22499999999999998, -0.30000000000000004], [0.45000000000000007, 0.19999999999999996], [-0.45, 0.7], [0.9, -0.8], [-0.45, -0.30000000000000004], [-0.9, 0.19999999999999996]]",,,,,,,,,,,,,,,,,,,,,,,,,,,,,,7,C,2024-04-17_10h18.12.808,attentional_competition_task,2022.2.4,144.02083079506562,
positions.xlsx,positions_test.xlsx,positions_test_new.xlsx,stimuli.xlsx,stimuli_new.xlsx,stimuli/Social3.png,stimuli/Social4.png,stimuli/Nonsocial3.png,stimuli/Nonsocial4.png,stimuli/Social1.png,stimuli/Social2.png,stimuli/Nonsocial1.png,stimuli/Nonsocial2.png,cs_neg_s,"(0.7, 0.5)",,,,,,,,,0,0,0,0,,,,,,,,,0,0,0,2,,,,,,,,,,,,,,,,,,,,,,,,,,,,,,,,,,,,,295.0040960996412,321.225241899956,-3,loss,1,0.5004111002199352,0.5004147998988628,321.7530290996656,,,,,,,,,,,,,,,,,,,,,,7,C,2024-04-17_10h18.12.808,attentional_competition_task,2022.2.4,144.02083079506562,
positions.xlsx,positions_test.xlsx,positions_test_new.xlsx,stimuli.xlsx,stimuli_new.xlsx,stimuli/Social3.png,stimuli/Social4.png,stimuli/Nonsocial3.png,stimuli/Nonsocial4.png,stimuli/Social1.png,stimuli/Social2.png,stimuli/Nonsocial1.png,stimuli/Nonsocial2.png,cs_neg_ns,"(0.7, 0.5)",,,,,,,,,0,0,0,0,,,,,,,,,0,1,1,10,,,,,,,,,,,,,,,,,,,,,,,,,,,,,,,,,,,,,,329.9332204000093,-6,loss,1,0.9445222998037934,0.9445263999514282,330.88458049995825,,,,,,,,,,,,,,,,,,,,,,7,C,2024-04-17_10h18.12.808,attentional_competition_task,2022.2.4,144.02083079506562,
positions.xlsx,positions_test.xlsx,positions_test_new.xlsx,stimuli.xlsx,stimuli_new.xlsx,stimuli/Social3.png,stimuli/Social4.png,stimuli/Nonsocial3.png,stimuli/Nonsocial4.png,stimuli/Social1.png,stimuli/Social2.png,stimuli/Nonsocial1.png,stimuli/Nonsocial2.png,cs_neg_s,"(-0.7, 0.5)",,,,,,,,,0,0,0,0,,,,,,,,,0,2,2,0,,,,,,,,,,,,,,,,,,,,,,,,,,,,,,,,,,,,,,338.0440537999384,-9,loss,1,0.24346139980480075,0.24346530018374324,338.2940404997207,,,,,,,,,,,,,,,,,,,,,,7,C,2024-04-17_10h18.12.808,attentional_competition_task,2022.2.4,144.02083079506562,
positions.xlsx,positions_test.xlsx,positions_test_new.xlsx,stimuli.xlsx,stimuli_new.xlsx,stimuli/Social3.png,stimuli/Social4.png,stimuli/Nonsocial3.png,stimuli/Nonsocial4.png,stimuli/Social1.png,stimuli/Social2.png,stimuli/Nonsocial1.png,stimuli/Nonsocial2.png,cs_pos_s,"(0.7, -0.5)",,,,,,,,,0,0,0,0,,,,,,,,,0,3,3,7,,,,,,,,,,,,,,,,,,,,,,,,,,,,,,,,,,,,,,345.5575983999297,-6,reward,1,0.22933549992740154,0.2362967999652028,345.8145081996918,,,,,,,,,,,,,,,,,,,,,,7,C,2024-04-17_10h18.12.808,attentional_competition_task,2022.2.4,144.02083079506562,
positions.xlsx,positions_test.xlsx,positions_test_new.xlsx,stimuli.xlsx,stimuli_new.xlsx,stimuli/Social3.png,stimuli/Social4.png,stimuli/Nonsocial3.png,stimuli/Nonsocial4.png,stimuli/Social1.png,stimuli/Social2.png,stimuli/Nonsocial1.png,stimuli/Nonsocial2.png,cs_neg_ns,"(-0.7, 0.5)",,,,,,,,,0,0,0,0,,,,,,,,,0,4,4,8,,,,,,,,,,,,,,,,,,,,,,,,,,,,,,,,,,,,,,353.557254599873,-9,loss,1,0.32644989993423223,0.32645329972729087,353.8905976996757,,,,,,,,,,,,,,,,,,,,,,7,C,2024-04-17_10h18.12.808,attentional_competition_task,2022.2.4,144.02083079506562,
positions.xlsx,positions_test.xlsx,positions_test_new.xlsx,stimuli.xlsx,stimuli_new.xlsx,stimuli/Social3.png,stimuli/Social4.png,stimuli/Nonsocial3.png,stimuli/Nonsocial4.png,stimuli/Social1.png,stimuli/Social2.png,stimuli/Nonsocial1.png,stimuli/Nonsocial2.png,cs_pos_ns,"(0.7, 0.5)",,,,,,,,,0,0,0,0,,,,,,,,,0,5,5,14,,,,,,,,,,,,,,,,,,,,,,,,,,,,,,,,,,,,,,360.806974099949,-6,reward,1,0.9443618999794126,0.9443655000068247,361.75831549987197,,,,,,,,,,,,,,,,,,,,,,7,C,2024-04-17_10h18.12.808,attentional_competition_task,2022.2.4,144.02083079506562,
positions.xlsx,positions_test.xlsx,positions_test_new.xlsx,stimuli.xlsx,stimuli_new.xlsx,stimuli/Social3.png,stimuli/Social4.png,stimuli/Nonsocial3.png,stimuli/Nonsocial4.png,stimuli/Social1.png,stimuli/Social2.png,stimuli/Nonsocial1.png,stimuli/Nonsocial2.png,cs_pos_ns,"(-0.7, -0.5)",,,,,,,,,0,0,0,0,,,,,,,,,0,6,6,13,,,,,,,,,,,,,,,,,,,,,,,,,,,,,,,,,,,,,,369.29969979962334,-3,reward,1,0.27086920011788607,0.27087310003116727,369.5774180996232,,,,,,,,,,,,,,,,,,,,,,7,C,2024-04-17_10h18.12.808,attentional_competition_task,2022.2.4,144.02083079506562,
positions.xlsx,positions_test.xlsx,positions_test_new.xlsx,stimuli.xlsx,stimuli_new.xlsx,stimuli/Social3.png,stimuli/Social4.png,stimuli/Nonsocial3.png,stimuli/Nonsocial4.png,stimuli/Social1.png,stimuli/Social2.png,stimuli/Nonsocial1.png,stimuli/Nonsocial2.png,cs_pos_s,"(-0.7, -0.5)",,,,,,,,,0,0,0,0,,,,,,,,,0,7,7,5,,,,,,,,,,,,,,,,,,,,,,,,,,,,,,,,,,,,,,377.7090729996562,0,reward,1,0.7571044000796974,0.7571082999929786,378.47294399980456,,,,,,,,,,,,,,,,,,,,,,7,C,2024-04-17_10h18.12.808,attentional_competition_task,2022.2.4,144.02083079506562,
positions.xlsx,positions_test.xlsx,positions_test_new.xlsx,stimuli.xlsx,stimuli_new.xlsx,stimuli/Social3.png,stimuli/Social4.png,stimuli/Nonsocial3.png,stimuli/Nonsocial4.png,stimuli/Social1.png,stimuli/Social2.png,stimuli/Nonsocial1.png,stimuli/Nonsocial2.png,cs_neg_s,"(-0.7, -0.5)",,,,,,,,,0,0,0,0,,,,,,,,,0,8,8,1,,,,,,,,,,,,,,,,,,,,,,,,,,,,,,,,,,,,,,385.9448654996231,-3,loss,1,2.459010799881071,2.4590288000181317,388.4100789995864,,,,,,,,,,,,,,,,,,,,,,7,C,2024-04-17_10h18.12.808,attentional_competition_task,2022.2.4,144.02083079506562,
positions.xlsx,positions_test.xlsx,positions_test_new.xlsx,stimuli.xlsx,stimuli_new.xlsx,stimuli/Social3.png,stimuli/Social4.png,stimuli/Nonsocial3.png,stimuli/Nonsocial4.png,stimuli/Social1.png,stimuli/Social2.png,stimuli/Nonsocial1.png,stimuli/Nonsocial2.png,cs_pos_ns,"(0.7, -0.5)",,,,,,,,,0,0,0,0,,,,,,,,,0,9,9,15,,,,,,,,,,,,,,,,,,,,,,,,,,,,,,,,,,,,,,395.6666983999312,0,reward,1,0.7712159003131092,0.7712193001061678,396.44441889971495,,,,,,,,,,,,,,,,,,,,,,7,C,2024-04-17_10h18.12.808,attentional_competition_task,2022.2.4,144.02083079506562,
positions.xlsx,positions_test.xlsx,positions_test_new.xlsx,stimuli.xlsx,stimuli_new.xlsx,stimuli/Social3.png,stimuli/Social4.png,stimuli/Nonsocial3.png,stimuli/Nonsocial4.png,stimuli/Social1.png,stimuli/Social2.png,stimuli/Nonsocial1.png,stimuli/Nonsocial2.png,cs_pos_s,"(-0.7, 0.5)",,,,,,,,,0,0,0,0,,,,,,,,,0,10,10,4,,,,,,,,,,,,,,,,,,,,,,,,,,,,,,,,,,,,,,403.8191115995869,3,reward,1,0.6669205999933183,0.6669240002520382,404.4926848998293,,,,,,,,,,,,,,,,,,,,,,7,C,2024-04-17_10h18.12.808,attentional_competition_task,2022.2.4,144.02083079506562,
positions.xlsx,positions_test.xlsx,positions_test_new.xlsx,stimuli.xlsx,stimuli_new.xlsx,stimuli/Social3.png,stimuli/Social4.png,stimuli/Nonsocial3.png,stimuli/Nonsocial4.png,stimuli/Social1.png,stimuli/Social2.png,stimuli/Nonsocial1.png,stimuli/Nonsocial2.png,cs_pos_s,"(0.7, 0.5)",,,,,,,,,0,0,0,0,,,,,,,,,0,11,11,6,,,,,,,,,,,,,,,,,,,,,,,,,,,,,,,,,,,,,,411.5132752000354,6,reward,1,0.7156249000690877,0.7156283999793231,412.2355037997477,,,,,,,,,,,,,,,,,,,,,,7,C,2024-04-17_10h18.12.808,attentional_competition_task,2022.2.4,144.02083079506562,
positions.xlsx,positions_test.xlsx,positions_test_new.xlsx,stimuli.xlsx,stimuli_new.xlsx,stimuli/Social3.png,stimuli/Social4.png,stimuli/Nonsocial3.png,stimuli/Nonsocial4.png,stimuli/Social1.png,stimuli/Social2.png,stimuli/Nonsocial1.png,stimuli/Nonsocial2.png,cs_pos_ns,"(-0.7, 0.5)",,,,,,,,,0,0,0,0,,,,,,,,,0,12,12,12,,,,,,,,,,,,,,,,,,,,,,,,,,,,,,,,,,,,,,419.0268794996664,9,reward,1,0.8473467002622783,0.8542979001067579,419.88797209970653,,,,,,,,,,,,,,,,,,,,,,7,C,2024-04-17_10h18.12.808,attentional_competition_task,2022.2.4,144.02083079506562,
positions.xlsx,positions_test.xlsx,positions_test_new.xlsx,stimuli.xlsx,stimuli_new.xlsx,stimuli/Social3.png,stimuli/Social4.png,stimuli/Nonsocial3.png,stimuli/Nonsocial4.png,stimuli/Social1.png,stimuli/Social2.png,stimuli/Nonsocial1.png,stimuli/Nonsocial2.png,cs_neg_ns,"(-0.7, -0.5)",,,,,,,,,0,0,0,0,,,,,,,,,0,13,13,9,,,,,,,,,,,,,,,,,,,,,,,,,,,,,,,,,,,,,,428.2556706997566,9,none,0,,,431.27637799968943,,,,,,,,,,,,,,,,,,,,,,7,C,2024-04-17_10h18.12.808,attentional_competition_task,2022.2.4,144.02083079506562,
positions.xlsx,positions_test.xlsx,positions_test_new.xlsx,stimuli.xlsx,stimuli_new.xlsx,stimuli/Social3.png,stimuli/Social4.png,stimuli/Nonsocial3.png,stimuli/Nonsocial4.png,stimuli/Social1.png,stimuli/Social2.png,stimuli/Nonsocial1.png,stimuli/Nonsocial2.png,cs_neg_s,"(0.7, -0.5)",,,,,,,,,0,0,0,0,,,,,,,,,0,14,14,3,,,,,,,,,,,,,,,,,,,,,,,,,,,,,,,,,,,,,,438.8732638997026,9,none,0,,,441.8801130997017,,,,,,,,,,,,,,,,,,,,,,7,C,2024-04-17_10h18.12.808,attentional_competition_task,2022.2.4,144.02083079506562,
positions.xlsx,positions_test.xlsx,positions_test_new.xlsx,stimuli.xlsx,stimuli_new.xlsx,stimuli/Social3.png,stimuli/Social4.png,stimuli/Nonsocial3.png,stimuli/Nonsocial4.png,stimuli/Social1.png,stimuli/Social2.png,stimuli/Nonsocial1.png,stimuli/Nonsocial2.png,cs_neg_ns,"(0.7, -0.5)",,,,,,,,,0,0,0,0,,,,,,,,,0,15,15,11,,,,,,,,,,,,,,,,,,,,,,,,,,,,,,,,,,,,,,448.7131751999259,6,loss,1,0.6949911001138389,0.6949947001412511,449.4145370996557,,,,,,,,,,,,,,,,,,,,,,7,C,2024-04-17_10h18.12.808,attentional_competition_task,2022.2.4,144.02083079506562,
positions.xlsx,positions_test.xlsx,positions_test_new.xlsx,stimuli.xlsx,stimuli_new.xlsx,stimuli/Social3.png,stimuli/Social4.png,stimuli/Nonsocial3.png,stimuli/Nonsocial4.png,stimuli/Social1.png,stimuli/Social2.png,stimuli/Nonsocial1.png,stimuli/Nonsocial2.png,cs_pos_s,"(-0.7, -0.5)",,,,,,,,,0,0,0,0,,,,,,,,,1,0,16,5,,,,,,,,,,,,,,,,,,,,,,,,,,,,,,,,,,,,,,457.0808675996959,9,reward,1,0.18765879981219769,0.19462089985609055,457.28233379963785,,,,,,,,,,,,,,,,,,,,,,7,C,2024-04-17_10h18.12.808,attentional_competition_task,2022.2.4,144.02083079506562,
positions.xlsx,positions_test.xlsx,positions_test_new.xlsx,stimuli.xlsx,stimuli_new.xlsx,stimuli/Social3.png,stimuli/Social4.png,stimuli/Nonsocial3.png,stimuli/Nonsocial4.png,stimuli/Social1.png,stimuli/Social2.png,stimuli/Nonsocial1.png,stimuli/Nonsocial2.png,cs_neg_s,"(0.7, -0.5)",,,,,,,,,0,0,0,0,,,,,,,,,1,1,17,3,,,,,,,,,,,,,,,,,,,,,,,,,,,,,,,,,,,,,,464.9833904998377,9,none,0,,,467.9901574999094,,,,,,,,,,,,,,,,,,,,,,7,C,2024-04-17_10h18.12.808,attentional_competition_task,2022.2.4,144.02083079506562,
positions.xlsx,positions_test.xlsx,positions_test_new.xlsx,stimuli.xlsx,stimuli_new.xlsx,stimuli/Social3.png,stimuli/Social4.png,stimuli/Nonsocial3.png,stimuli/Nonsocial4.png,stimuli/Social1.png,stimuli/Social2.png,stimuli/Nonsocial1.png,stimuli/Nonsocial2.png,cs_pos_ns,"(-0.7, 0.5)",,,,,,,,,0,0,0,0,,,,,,,,,1,2,18,12,,,,,,,,,,,,,,,,,,,,,,,,,,,,,,,,,,,,,,475.62872929964215,12,reward,1,1.3061950001865625,1.3062114999629557,476.94817189965397,,,,,,,,,,,,,,,,,,,,,,7,C,2024-04-17_10h18.12.808,attentional_competition_task,2022.2.4,144.02083079506562,
positions.xlsx,positions_test.xlsx,positions_test_new.xlsx,stimuli.xlsx,stimuli_new.xlsx,stimuli/Social3.png,stimuli/Social4.png,stimuli/Nonsocial3.png,stimuli/Nonsocial4.png,stimuli/Social1.png,stimuli/Social2.png,stimuli/Nonsocial1.png,stimuli/Nonsocial2.png,cs_pos_ns,"(0.7, 0.5)",,,,,,,,,0,0,0,0,,,,,,,,,1,3,19,14,,,,,,,,,,,,,,,,,,,,,,,,,,,,,,,,,,,,,,484.4547798996791,12,none,0,,,487.4685833998956,,,,,,,,,,,,,,,,,,,,,,7,C,2024-04-17_10h18.12.808,attentional_competition_task,2022.2.4,144.02083079506562,
positions.xlsx,positions_test.xlsx,positions_test_new.xlsx,stimuli.xlsx,stimuli_new.xlsx,stimuli/Social3.png,stimuli/Social4.png,stimuli/Nonsocial3.png,stimuli/Nonsocial4.png,stimuli/Social1.png,stimuli/Social2.png,stimuli/Nonsocial1.png,stimuli/Nonsocial2.png,cs_neg_ns,"(-0.7, -0.5)",,,,,,,,,0,0,0,0,,,,,,,,,1,4,20,9,,,,,,,,,,,,,,,,,,,,,,,,,,,,,,,,,,,,,,494.34325439995155,9,loss,1,0.736175799742341,0.7361792996525764,495.0862913997844,,,,,,,,,,,,,,,,,,,,,,7,C,2024-04-17_10h18.12.808,attentional_competition_task,2022.2.4,144.02083079506562,
positions.xlsx,positions_test.xlsx,positions_test_new.xlsx,stimuli.xlsx,stimuli_new.xlsx,stimuli/Social3.png,stimuli/Social4.png,stimuli/Nonsocial3.png,stimuli/Nonsocial4.png,stimuli/Social1.png,stimuli/Social2.png,stimuli/Nonsocial1.png,stimuli/Nonsocial2.png,cs_neg_ns,"(-0.7, 0.5)",,,,,,,,,0,0,0,0,,,,,,,,,1,5,21,8,,,,,,,,,,,,,,,,,,,,,,,,,,,,,,,,,,,,,,502.3707405999303,9,none,0,,,505.38449739990756,,,,,,,,,,,,,,,,,,,,,,7,C,2024-04-17_10h18.12.808,attentional_competition_task,2022.2.4,144.02083079506562,
positions.xlsx,positions_test.xlsx,positions_test_new.xlsx,stimuli.xlsx,stimuli_new.xlsx,stimuli/Social3.png,stimuli/Social4.png,stimuli/Nonsocial3.png,stimuli/Nonsocial4.png,stimuli/Social1.png,stimuli/Social2.png,stimuli/Nonsocial1.png,stimuli/Nonsocial2.png,cs_pos_s,"(-0.7, 0.5)",,,,,,,,,0,0,0,0,,,,,,,,,1,6,22,4,,,,,,,,,,,,,,,,,,,,,,,,,,,,,,,,,,,,,,513.7244359999895,12,reward,1,0.5488615999929607,0.5488650999031961,514.2799890995957,,,,,,,,,,,,,,,,,,,,,,7,C,2024-04-17_10h18.12.808,attentional_competition_task,2022.2.4,144.02083079506562,
positions.xlsx,positions_test.xlsx,positions_test_new.xlsx,stimuli.xlsx,stimuli_new.xlsx,stimuli/Social3.png,stimuli/Social4.png,stimuli/Nonsocial3.png,stimuli/Nonsocial4.png,stimuli/Social1.png,stimuli/Social2.png,stimuli/Nonsocial1.png,stimuli/Nonsocial2.png,cs_neg_ns,"(0.7, 0.5)",,,,,,,,,0,0,0,0,,,,,,,,,1,7,23,10,,,,,,,,,,,,,,,,,,,,,,,,,,,,,,,,,,,,,,521.8629903998226,12,none,0,,,524.8767878999934,,,,,,,,,,,,,,,,,,,,,,7,C,2024-04-17_10h18.12.808,attentional_competition_task,2022.2.4,144.02083079506562,
positions.xlsx,positions_test.xlsx,positions_test_new.xlsx,stimuli.xlsx,stimuli_new.xlsx,stimuli/Social3.png,stimuli/Social4.png,stimuli/Nonsocial3.png,stimuli/Nonsocial4.png,stimuli/Social1.png,stimuli/Social2.png,stimuli/Nonsocial1.png,stimuli/Nonsocial2.png,cs_neg_s,"(0.7, 0.5)",,,,,,,,,0,0,0,0,,,,,,,,,1,8,24,2,,,,,,,,,,,,,,,,,,,,,,,,,,,,,,,,,,,,,,532.730588699691,12,none,0,,,535.7374291997403,,,,,,,,,,,,,,,,,,,,,,7,C,2024-04-17_10h18.12.808,attentional_competition_task,2022.2.4,144.02083079506562,
positions.xlsx,positions_test.xlsx,positions_test_new.xlsx,stimuli.xlsx,stimuli_new.xlsx,stimuli/Social3.png,stimuli/Social4.png,stimuli/Nonsocial3.png,stimuli/Nonsocial4.png,stimuli/Social1.png,stimuli/Social2.png,stimuli/Nonsocial1.png,stimuli/Nonsocial2.png,cs_neg_s,"(-0.7, -0.5)",,,,,,,,,0,0,0,0,,,,,,,,,1,9,25,1,,,,,,,,,,,,,,,,,,,,,,,,,,,,,,,,,,,,,,544.0982395997271,12,none,0,,,547.1050139996223,,,,,,,,,,,,,,,,,,,,,,7,C,2024-04-17_10h18.12.808,attentional_competition_task,2022.2.4,144.02083079506562,
positions.xlsx,positions_test.xlsx,positions_test_new.xlsx,stimuli.xlsx,stimuli_new.xlsx,stimuli/Social3.png,stimuli/Social4.png,stimuli/Nonsocial3.png,stimuli/Nonsocial4.png,stimuli/Social1.png,stimuli/Social2.png,stimuli/Nonsocial1.png,stimuli/Nonsocial2.png,cs_neg_s,"(-0.7, 0.5)",,,,,,,,,0,0,0,0,,,,,,,,,1,10,26,0,,,,,,,,,,,,,,,,,,,,,,,,,,,,,,,,,,,,,,554.3339207996614,12,none,0,,,557.3407601998188,,,,,,,,,,,,,,,,,,,,,,7,C,2024-04-17_10h18.12.808,attentional_competition_task,2022.2.4,144.02083079506562,
positions.xlsx,positions_test.xlsx,positions_test_new.xlsx,stimuli.xlsx,stimuli_new.xlsx,stimuli/Social3.png,stimuli/Social4.png,stimuli/Nonsocial3.png,stimuli/Nonsocial4.png,stimuli/Social1.png,stimuli/Social2.png,stimuli/Nonsocial1.png,stimuli/Nonsocial2.png,cs_pos_s,"(0.7, -0.5)",,,,,,,,,0,0,0,0,,,,,,,,,1,11,27,7,,,,,,,,,,,,,,,,,,,,,,,,,,,,,,,,,,,,,,564.4168287999928,15,reward,1,0.6111688003875315,0.6111723002977669,565.0348950996995,,,,,,,,,,,,,,,,,,,,,,7,C,2024-04-17_10h18.12.808,attentional_competition_task,2022.2.4,144.02083079506562,
positions.xlsx,positions_test.xlsx,positions_test_new.xlsx,stimuli.xlsx,stimuli_new.xlsx,stimuli/Social3.png,stimuli/Social4.png,stimuli/Nonsocial3.png,stimuli/Nonsocial4.png,stimuli/Social1.png,stimuli/Social2.png,stimuli/Nonsocial1.png,stimuli/Nonsocial2.png,cs_pos_ns,"(0.7, -0.5)",,,,,,,,,0,0,0,0,,,,,,,,,1,12,28,15,,,,,,,,,,,,,,,,,,,,,,,,,,,,,,,,,,,,,,572.3748510000296,18,reward,1,0.9653683998622,0.9653718001209199,573.3470577998087,,,,,,,,,,,,,,,,,,,,,,7,C,2024-04-17_10h18.12.808,attentional_competition_task,2022.2.4,144.02083079506562,
positions.xlsx,positions_test.xlsx,positions_test_new.xlsx,stimuli.xlsx,stimuli_new.xlsx,stimuli/Social3.png,stimuli/Social4.png,stimuli/Nonsocial3.png,stimuli/Nonsocial4.png,stimuli/Social1.png,stimuli/Social2.png,stimuli/Nonsocial1.png,stimuli/Nonsocial2.png,cs_pos_ns,"(-0.7, -0.5)",,,,,,,,,0,0,0,0,,,,,,,,,1,13,29,13,,,,,,,,,,,,,,,,,,,,,,,,,,,,,,,,,,,,,,580.8050975999795,18,none,0,,,583.8188244998455,,,,,,,,,,,,,,,,,,,,,,7,C,2024-04-17_10h18.12.808,attentional_competition_task,2022.2.4,144.02083079506562,
positions.xlsx,positions_test.xlsx,positions_test_new.xlsx,stimuli.xlsx,stimuli_new.xlsx,stimuli/Social3.png,stimuli/Social4.png,stimuli/Nonsocial3.png,stimuli/Nonsocial4.png,stimuli/Social1.png,stimuli/Social2.png,stimuli/Nonsocial1.png,stimuli/Nonsocial2.png,cs_pos_s,"(0.7, 0.5)",,,,,,,,,0,0,0,0,,,,,,,,,1,14,30,6,,,,,,,,,,,,,,,,,,,,,,,,,,,,,,,,,,,,,,590.7630178998224,21,reward,1,0.5207449002191424,0.5207487000152469,591.2907948996872,,,,,,,,,,,,,,,,,,,,,,7,C,2024-04-17_10h18.12.808,attentional_competition_task,2022.2.4,144.02083079506562,
positions.xlsx,positions_test.xlsx,positions_test_new.xlsx,stimuli.xlsx,stimuli_new.xlsx,stimuli/Social3.png,stimuli/Social4.png,stimuli/Nonsocial3.png,stimuli/Nonsocial4.png,stimuli/Social1.png,stimuli/Social2.png,stimuli/Nonsocial1.png,stimuli/Nonsocial2.png,cs_neg_ns,"(0.7, -0.5)",,,,,,,,,0,0,0,0,,,,,,,,,1,15,31,11,,,,,,,,,,,,,,,,,,,,,,,,,,,,,,,,,,,,,,598.665471999906,21,none,0,,,601.6792224999517,,,,,,,,,,,,,,,,,,,,,,7,C,2024-04-17_10h18.12.808,attentional_competition_task,2022.2.4,144.02083079506562,
positions.xlsx,positions_test.xlsx,positions_test_new.xlsx,stimuli.xlsx,stimuli_new.xlsx,stimuli/Social3.png,stimuli/Social4.png,stimuli/Nonsocial3.png,stimuli/Nonsocial4.png,stimuli/Social1.png,stimuli/Social2.png,stimuli/Nonsocial1.png,stimuli/Nonsocial2.png,cs_neg_s,"(0.7, -0.5)",,,,,,,,,0,0,0,0,,,,,,,,,,,,,0,0,0,3,,,,,,,,,,,,,,,,,,,,,,,,,,,,,,,,,,630.8795017995872,18,loss,1,1.2710103001445532,1.2710140002891421,632.1572828995995,,,,,,,,,,,,,,,,,,,,,,7,C,2024-04-17_10h18.12.808,attentional_competition_task,2022.2.4,144.02083079506562,
positions.xlsx,positions_test.xlsx,positions_test_new.xlsx,stimuli.xlsx,stimuli_new.xlsx,stimuli/Social3.png,stimuli/Social4.png,stimuli/Nonsocial3.png,stimuli/Nonsocial4.png,stimuli/Social1.png,stimuli/Social2.png,stimuli/Nonsocial1.png,stimuli/Nonsocial2.png,cs_neg_ns,"(0.7, -0.5)",,,,,,,,,0,0,0,0,,,,,,,,,,,,,0,1,1,11,,,,,,,,,,,,,,,,,,,,,,,,,,,,,,,,,,639.2888374999166,15,loss,1,0.590584599878639,0.5905879000201821,639.8860947997309,,,,,,,,,,,,,,,,,,,,,,7,C,2024-04-17_10h18.12.808,attentional_competition_task,2022.2.4,144.02083079506562,
positions.xlsx,positions_test.xlsx,positions_test_new.xlsx,stimuli.xlsx,stimuli_new.xlsx,stimuli/Social3.png,stimuli/Social4.png,stimuli/Nonsocial3.png,stimuli/Nonsocial4.png,stimuli/Social1.png,stimuli/Social2.png,stimuli/Nonsocial1.png,stimuli/Nonsocial2.png,cs_neg_s,"(-0.7, -0.5)",,,,,,,,,0,0,0,0,,,,,,,,,,,,,0,2,2,1,,,,,,,,,,,,,,,,,,,,,,,,,,,,,,,,,,647.1843875995837,12,loss,1,0.6528475000523031,0.6528508001938462,647.844087400008,,,,,,,,,,,,,,,,,,,,,,7,C,2024-04-17_10h18.12.808,attentional_competition_task,2022.2.4,144.02083079506562,
positions.xlsx,positions_test.xlsx,positions_test_new.xlsx,stimuli.xlsx,stimuli_new.xlsx,stimuli/Social3.png,stimuli/Social4.png,stimuli/Nonsocial3.png,stimuli/Nonsocial4.png,stimuli/Social1.png,stimuli/Social2.png,stimuli/Nonsocial1.png,stimuli/Nonsocial2.png,cs_pos_ns,"(0.7, 0.5)",,,,,,,,,0,0,0,0,,,,,,,,,,,,,0,3,3,14,,,,,,,,,,,,,,,,,,,,,,,,,,,,,,,,,,655.3993153995834,15,reward,1,0.6805814998224378,0.6805849997326732,656.0867851995863,,,,,,,,,,,,,,,,,,,,,,7,C,2024-04-17_10h18.12.808,attentional_competition_task,2022.2.4,144.02083079506562,
positions.xlsx,positions_test.xlsx,positions_test_new.xlsx,stimuli.xlsx,stimuli_new.xlsx,stimuli/Social3.png,stimuli/Social4.png,stimuli/Nonsocial3.png,stimuli/Nonsocial4.png,stimuli/Social1.png,stimuli/Social2.png,stimuli/Nonsocial1.png,stimuli/Nonsocial2.png,cs_neg_s,"(-0.7, 0.5)",,,,,,,,,0,0,0,0,,,,,,,,,,,,,0,4,4,0,,,,,,,,,,,,,,,,,,,,,,,,,,,,,,,,,,663.3782045999542,15,none,0,,,666.3850278998725,,,,,,,,,,,,,,,,,,,,,,7,C,2024-04-17_10h18.12.808,attentional_competition_task,2022.2.4,144.02083079506562,
positions.xlsx,positions_test.xlsx,positions_test_new.xlsx,stimuli.xlsx,stimuli_new.xlsx,stimuli/Social3.png,stimuli/Social4.png,stimuli/Nonsocial3.png,stimuli/Nonsocial4.png,stimuli/Social1.png,stimuli/Social2.png,stimuli/Nonsocial1.png,stimuli/Nonsocial2.png,cs_neg_ns,"(0.7, 0.5)",,,,,,,,,0,0,0,0,,,,,,,,,,,,,0,5,5,10,,,,,,,,,,,,,,,,,,,,,,,,,,,,,,,,,,673.3778251996264,15,none,0,,,676.3915782999247,,,,,,,,,,,,,,,,,,,,,,7,C,2024-04-17_10h18.12.808,attentional_competition_task,2022.2.4,144.02083079506562,
positions.xlsx,positions_test.xlsx,positions_test_new.xlsx,stimuli.xlsx,stimuli_new.xlsx,stimuli/Social3.png,stimuli/Social4.png,stimuli/Nonsocial3.png,stimuli/Nonsocial4.png,stimuli/Social1.png,stimuli/Social2.png,stimuli/Nonsocial1.png,stimuli/Nonsocial2.png,cs_pos_s,"(-0.7, 0.5)",,,,,,,,,0,0,0,0,,,,,,,,,,,,,0,6,6,4,,,,,,,,,,,,,,,,,,,,,,,,,,,,,,,,,,683.8842904996127,18,reward,1,0.48633640026673675,0.49304720014333725,684.3843071996234,,,,,,,,,,,,,,,,,,,,,,7,C,2024-04-17_10h18.12.808,attentional_competition_task,2022.2.4,144.02083079506562,
positions.xlsx,positions_test.xlsx,positions_test_new.xlsx,stimuli.xlsx,stimuli_new.xlsx,stimuli/Social3.png,stimuli/Social4.png,stimuli/Nonsocial3.png,stimuli/Nonsocial4.png,stimuli/Social1.png,stimuli/Social2.png,stimuli/Nonsocial1.png,stimuli/Nonsocial2.png,cs_pos_s,"(-0.7, -0.5)",,,,,,,,,0,0,0,0,,,,,,,,,,,,,0,7,7,5,,,,,,,,,,,,,,,,,,,,,,,,,,,,,,,,,,691.8353899996728,21,reward,1,0.6811290001496673,0.6811326001770794,692.5228842999786,,,,,,,,,,,,,,,,,,,,,,7,C,2024-04-17_10h18.12.808,attentional_competition_task,2022.2.4,144.02083079506562,
positions.xlsx,positions_test.xlsx,positions_test_new.xlsx,stimuli.xlsx,stimuli_new.xlsx,stimuli/Social3.png,stimuli/Social4.png,stimuli/Nonsocial3.png,stimuli/Nonsocial4.png,stimuli/Social1.png,stimuli/Social2.png,stimuli/Nonsocial1.png,stimuli/Nonsocial2.png,cs_neg_ns,"(-0.7, 0.5)",,,,,,,,,0,0,0,0,,,,,,,,,,,,,0,8,8,8,,,,,,,,,,,,,,,,,,,,,,,,,,,,,,,,,,700.1961624999531,21,none,0,,,703.2100142999552,,,,,,,,,,,,,,,,,,,,,,7,C,2024-04-17_10h18.12.808,attentional_competition_task,2022.2.4,144.02083079506562,
positions.xlsx,positions_test.xlsx,positions_test_new.xlsx,stimuli.xlsx,stimuli_new.xlsx,stimuli/Social3.png,stimuli/Social4.png,stimuli/Nonsocial3.png,stimuli/Nonsocial4.png,stimuli/Social1.png,stimuli/Social2.png,stimuli/Nonsocial1.png,stimuli/Nonsocial2.png,cs_neg_s,"(0.7, 0.5)",,,,,,,,,0,0,0,0,,,,,,,,,,,,,0,9,9,2,,,,,,,,,,,,,,,,,,,,,,,,,,,,,,,,,,710.876322099939,21,none,0,,,713.8900738996454,,,,,,,,,,,,,,,,,,,,,,7,C,2024-04-17_10h18.12.808,attentional_competition_task,2022.2.4,144.02083079506562,
positions.xlsx,positions_test.xlsx,positions_test_new.xlsx,stimuli.xlsx,stimuli_new.xlsx,stimuli/Social3.png,stimuli/Social4.png,stimuli/Nonsocial3.png,stimuli/Nonsocial4.png,stimuli/Social1.png,stimuli/Social2.png,stimuli/Nonsocial1.png,stimuli/Nonsocial2.png,cs_pos_s,"(0.7, -0.5)",,,,,,,,,0,0,0,0,,,,,,,,,,,,,0,10,10,7,,,,,,,,,,,,,,,,,,,,,,,,,,,,,,,,,,721.6814112998545,24,reward,1,0.5773555999621749,0.5773735996335745,722.2648139996454,,,,,,,,,,,,,,,,,,,,,,7,C,2024-04-17_10h18.12.808,attentional_competition_task,2022.2.4,144.02083079506562,
positions.xlsx,positions_test.xlsx,positions_test_new.xlsx,stimuli.xlsx,stimuli_new.xlsx,stimuli/Social3.png,stimuli/Social4.png,stimuli/Nonsocial3.png,stimuli/Nonsocial4.png,stimuli/Social1.png,stimuli/Social2.png,stimuli/Nonsocial1.png,stimuli/Nonsocial2.png,cs_pos_ns,"(-0.7, -0.5)",,,,,,,,,0,0,0,0,,,,,,,,,,,,,0,11,11,13,,,,,,,,,,,,,,,,,,,,,,,,,,,,,,,,,,730.5352088999934,27,reward,1,1.4102917998097837,1.4102972000837326,731.9587686997838,,,,,,,,,,,,,,,,,,,,,,7,C,2024-04-17_10h18.12.808,attentional_competition_task,2022.2.4,144.02083079506562,
positions.xlsx,positions_test.xlsx,positions_test_new.xlsx,stimuli.xlsx,stimuli_new.xlsx,stimuli/Social3.png,stimuli/Social4.png,stimuli/Nonsocial3.png,stimuli/Nonsocial4.png,stimuli/Social1.png,stimuli/Social2.png,stimuli/Nonsocial1.png,stimuli/Nonsocial2.png,cs_pos_ns,"(0.7, -0.5)",,,,,,,,,0,0,0,0,,,,,,,,,,,,,0,12,12,15,,,,,,,,,,,,,,,,,,,,,,,,,,,,,,,,,,739.1390303997323,30,reward,1,1.0767779001034796,1.0767812998965383,740.2223175996915,,,,,,,,,,,,,,,,,,,,,,7,C,2024-04-17_10h18.12.808,attentional_competition_task,2022.2.4,144.02083079506562,
positions.xlsx,positions_test.xlsx,positions_test_new.xlsx,stimuli.xlsx,stimuli_new.xlsx,stimuli/Social3.png,stimuli/Social4.png,stimuli/Nonsocial3.png,stimuli/Nonsocial4.png,stimuli/Social1.png,stimuli/Social2.png,stimuli/Nonsocial1.png,stimuli/Nonsocial2.png,cs_pos_s,"(0.7, 0.5)",,,,,,,,,0,0,0,0,,,,,,,,,,,,,0,13,13,6,,,,,,,,,,,,,,,,,,,,,,,,,,,,,,,,,,747.7289966996759,33,reward,1,0.5981628000736237,0.5981666999869049,748.3331263996661,,,,,,,,,,,,,,,,,,,,,,7,C,2024-04-17_10h18.12.808,attentional_competition_task,2022.2.4,144.02083079506562,
positions.xlsx,positions_test.xlsx,positions_test_new.xlsx,stimuli.xlsx,stimuli_new.xlsx,stimuli/Social3.png,stimuli/Social4.png,stimuli/Nonsocial3.png,stimuli/Nonsocial4.png,stimuli/Social1.png,stimuli/Social2.png,stimuli/Nonsocial1.png,stimuli/Nonsocial2.png,cs_neg_ns,"(-0.7, -0.5)",,,,,,,,,0,0,0,0,,,,,,,,,,,,,0,14,14,9,,,,,,,,,,,,,,,,,,,,,,,,,,,,,,,,,,755.7564474996179,33,none,0,,,758.7702028998174,,,,,,,,,,,,,,,,,,,,,,7,C,2024-04-17_10h18.12.808,attentional_competition_task,2022.2.4,144.02083079506562,
positions.xlsx,positions_test.xlsx,positions_test_new.xlsx,stimuli.xlsx,stimuli_new.xlsx,stimuli/Social3.png,stimuli/Social4.png,stimuli/Nonsocial3.png,stimuli/Nonsocial4.png,stimuli/Social1.png,stimuli/Social2.png,stimuli/Nonsocial1.png,stimuli/Nonsocial2.png,cs_pos_ns,"(-0.7, 0.5)",,,,,,,,,0,0,0,0,,,,,,,,,,,,,0,15,15,12,,,,,,,,,,,,,,,,,,,,,,,,,,,,,,,,,,765.4644349999726,36,reward,1,0.7848113998770714,0.7848149002529681,766.2560283998027,,,,,,,,,,,,,,,,,,,,,,7,C,2024-04-17_10h18.12.808,attentional_competition_task,2022.2.4,144.02083079506562,
positions.xlsx,positions_test.xlsx,positions_test_new.xlsx,stimuli.xlsx,stimuli_new.xlsx,stimuli/Social3.png,stimuli/Social4.png,stimuli/Nonsocial3.png,stimuli/Nonsocial4.png,stimuli/Social1.png,stimuli/Social2.png,stimuli/Nonsocial1.png,stimuli/Nonsocial2.png,cs_pos_ns,"(0.7, -0.5)",,,,,,,,,0,0,0,0,,,,,,,,,,,,,1,0,16,15,,,,,,,,,,,,,,,,,,,,,,,,,,,,,,,,,,774.3807137999684,39,reward,1,1.0770425000227988,1.0770465000532568,775.4640048998408,,,,,,,,,,,,,,,,,,,,,,7,C,2024-04-17_10h18.12.808,attentional_competition_task,2022.2.4,144.02083079506562,
positions.xlsx,positions_test.xlsx,positions_test_new.xlsx,stimuli.xlsx,stimuli_new.xlsx,stimuli/Social3.png,stimuli/Social4.png,stimuli/Nonsocial3.png,stimuli/Nonsocial4.png,stimuli/Social1.png,stimuli/Social2.png,stimuli/Nonsocial1.png,stimuli/Nonsocial2.png,cs_neg_s,"(-0.7, -0.5)",,,,,,,,,0,0,0,0,,,,,,,,,,,,,1,1,17,1,,,,,,,,,,,,,,,,,,,,,,,,,,,,,,,,,,782.6442514997907,39,none,0,,,785.6580639998429,,,,,,,,,,,,,,,,,,,,,,7,C,2024-04-17_10h18.12.808,attentional_competition_task,2022.2.4,144.02083079506562,
positions.xlsx,positions_test.xlsx,positions_test_new.xlsx,stimuli.xlsx,stimuli_new.xlsx,stimuli/Social3.png,stimuli/Social4.png,stimuli/Nonsocial3.png,stimuli/Nonsocial4.png,stimuli/Social1.png,stimuli/Social2.png,stimuli/Nonsocial1.png,stimuli/Nonsocial2.png,cs_neg_ns,"(0.7, 0.5)",,,,,,,,,0,0,0,0,,,,,,,,,,,,,1,2,18,10,,,,,,,,,,,,,,,,,,,,,,,,,,,,,,,,,,792.9772226000205,36,loss,1,0.6528722001239657,0.6599497999995947,793.6438336996362,,,,,,,,,,,,,,,,,,,,,,7,C,2024-04-17_10h18.12.808,attentional_competition_task,2022.2.4,144.02083079506562,
positions.xlsx,positions_test.xlsx,positions_test_new.xlsx,stimuli.xlsx,stimuli_new.xlsx,stimuli/Social3.png,stimuli/Social4.png,stimuli/Nonsocial3.png,stimuli/Nonsocial4.png,stimuli/Social1.png,stimuli/Social2.png,stimuli/Nonsocial1.png,stimuli/Nonsocial2.png,cs_neg_ns,"(0.7, -0.5)",,,,,,,,,0,0,0,0,,,,,,,,,,,,,1,3,19,11,,,,,,,,,,,,,,,,,,,,,,,,,,,,,,,,,,801.5879630995914,33,loss,1,0.6667108000256121,0.6667145001702011,802.2615410997532,,,,,,,,,,,,,,,,,,,,,,7,C,2024-04-17_10h18.12.808,attentional_competition_task,2022.2.4,144.02083079506562,
positions.xlsx,positions_test.xlsx,positions_test_new.xlsx,stimuli.xlsx,stimuli_new.xlsx,stimuli/Social3.png,stimuli/Social4.png,stimuli/Nonsocial3.png,stimuli/Nonsocial4.png,stimuli/Social1.png,stimuli/Social2.png,stimuli/Nonsocial1.png,stimuli/Nonsocial2.png,cs_pos_ns,"(-0.7, -0.5)",,,,,,,,,0,0,0,0,,,,,,,,,,,,,1,4,20,13,,,,,,,,,,,,,,,,,,,,,,,,,,,,,,,,,,808.9557048999704,36,reward,1,0.6527832001447678,0.6527868001721799,809.6154497000389,,,,,,,,,,,,,,,,,,,,,,7,C,2024-04-17_10h18.12.808,attentional_competition_task,2022.2.4,144.02083079506562,
positions.xlsx,positions_test.xlsx,positions_test_new.xlsx,stimuli.xlsx,stimuli_new.xlsx,stimuli/Social3.png,stimuli/Social4.png,stimuli/Nonsocial3.png,stimuli/Nonsocial4.png,stimuli/Social1.png,stimuli/Social2.png,stimuli/Nonsocial1.png,stimuli/Nonsocial2.png,cs_pos_ns,"(0.7, 0.5)",,,,,,,,,0,0,0,0,,,,,,,,,,,,,1,5,21,14,,,,,,,,,,,,,,,,,,,,,,,,,,,,,,,,,,817.8303826996125,39,reward,1,0.9935878999531269,0.9935913998633623,818.830342900008,,,,,,,,,,,,,,,,,,,,,,7,C,2024-04-17_10h18.12.808,attentional_competition_task,2022.2.4,144.02083079506562,
positions.xlsx,positions_test.xlsx,positions_test_new.xlsx,stimuli.xlsx,stimuli_new.xlsx,stimuli/Social3.png,stimuli/Social4.png,stimuli/Nonsocial3.png,stimuli/Nonsocial4.png,stimuli/Social1.png,stimuli/Social2.png,stimuli/Nonsocial1.png,stimuli/Nonsocial2.png,cs_neg_s,"(0.7, -0.5)",,,,,,,,,0,0,0,0,,,,,,,,,,,,,1,6,22,3,,,,,,,,,,,,,,,,,,,,,,,,,,,,,,,,,,826.392529499717,39,none,0,,,829.3993416000158,,,,,,,,,,,,,,,,,,,,,,7,C,2024-04-17_10h18.12.808,attentional_competition_task,2022.2.4,144.02083079506562,
positions.xlsx,positions_test.xlsx,positions_test_new.xlsx,stimuli.xlsx,stimuli_new.xlsx,stimuli/Social3.png,stimuli/Social4.png,stimuli/Nonsocial3.png,stimuli/Nonsocial4.png,stimuli/Social1.png,stimuli/Social2.png,stimuli/Nonsocial1.png,stimuli/Nonsocial2.png,cs_pos_s,"(0.7, 0.5)",,,,,,,,,0,0,0,0,,,,,,,,,,,,,1,7,23,6,,,,,,,,,,,,,,,,,,,,,,,,,,,,,,,,,,837.3782295999117,42,reward,1,0.5835529998876154,0.5835569999180734,837.9684843998402,,,,,,,,,,,,,,,,,,,,,,7,C,2024-04-17_10h18.12.808,attentional_competition_task,2022.2.4,144.02083079506562,
positions.xlsx,positions_test.xlsx,positions_test_new.xlsx,stimuli.xlsx,stimuli_new.xlsx,stimuli/Social3.png,stimuli/Social4.png,stimuli/Nonsocial3.png,stimuli/Nonsocial4.png,stimuli/Social1.png,stimuli/Social2.png,stimuli/Nonsocial1.png,stimuli/Nonsocial2.png,cs_pos_s,"(-0.7, 0.5)",,,,,,,,,0,0,0,0,,,,,,,,,,,,,1,8,24,4,,,,,,,,,,,,,,,,,,,,,,,,,,,,,,,,,,845.5723179997876,45,reward,1,0.5349240000359714,0.5349277998320758,846.1139173996635,,,,,,,,,,,,,,,,,,,,,,7,C,2024-04-17_10h18.12.808,attentional_competition_task,2022.2.4,144.02083079506562,
positions.xlsx,positions_test.xlsx,positions_test_new.xlsx,stimuli.xlsx,stimuli_new.xlsx,stimuli/Social3.png,stimuli/Social4.png,stimuli/Nonsocial3.png,stimuli/Nonsocial4.png,stimuli/Social1.png,stimuli/Social2.png,stimuli/Nonsocial1.png,stimuli/Nonsocial2.png,cs_pos_ns,"(-0.7, 0.5)",,,,,,,,,0,0,0,0,,,,,,,,,,,,,1,9,25,12,,,,,,,,,,,,,,,,,,,,,,,,,,,,,,,,,,853.3289373000152,48,reward,1,0.8819744000211358,0.8819778999313712,854.2178181000054,,,,,,,,,,,,,,,,,,,,,,7,C,2024-04-17_10h18.12.808,attentional_competition_task,2022.2.4,144.02083079506562,
positions.xlsx,positions_test.xlsx,positions_test_new.xlsx,stimuli.xlsx,stimuli_new.xlsx,stimuli/Social3.png,stimuli/Social4.png,stimuli/Nonsocial3.png,stimuli/Nonsocial4.png,stimuli/Social1.png,stimuli/Social2.png,stimuli/Nonsocial1.png,stimuli/Nonsocial2.png,cs_neg_ns,"(-0.7, 0.5)",,,,,,,,,0,0,0,0,,,,,,,,,,,,,1,10,26,8,,,,,,,,,,,,,,,,,,,,,,,,,,,,,,,,,,861.4120033998042,48,none,0,,,864.425723399967,,,,,,,,,,,,,,,,,,,,,,7,C,2024-04-17_10h18.12.808,attentional_competition_task,2022.2.4,144.02083079506562,
positions.xlsx,positions_test.xlsx,positions_test_new.xlsx,stimuli.xlsx,stimuli_new.xlsx,stimuli/Social3.png,stimuli/Social4.png,stimuli/Nonsocial3.png,stimuli/Nonsocial4.png,stimuli/Social1.png,stimuli/Social2.png,stimuli/Nonsocial1.png,stimuli/Nonsocial2.png,cs_neg_s,"(0.7, 0.5)",,,,,,,,,0,0,0,0,,,,,,,,,,,,,1,11,27,2,,,,,,,,,,,,,,,,,,,,,,,,,,,,,,,,,,872.7101258998737,48,none,0,,,875.716937799938,,,,,,,,,,,,,,,,,,,,,,7,C,2024-04-17_10h18.12.808,attentional_competition_task,2022.2.4,144.02083079506562,
positions.xlsx,positions_test.xlsx,positions_test_new.xlsx,stimuli.xlsx,stimuli_new.xlsx,stimuli/Social3.png,stimuli/Social4.png,stimuli/Nonsocial3.png,stimuli/Nonsocial4.png,stimuli/Social1.png,stimuli/Social2.png,stimuli/Nonsocial1.png,stimuli/Nonsocial2.png,cs_neg_ns,"(-0.7, -0.5)",,,,,,,,,0,0,0,0,,,,,,,,,,,,,1,12,28,9,,,,,,,,,,,,,,,,,,,,,,,,,,,,,,,,,,883.7582945995964,48,none,0,,,886.7720964998007,,,,,,,,,,,,,,,,,,,,,,7,C,2024-04-17_10h18.12.808,attentional_competition_task,2022.2.4,144.02083079506562,
positions.xlsx,positions_test.xlsx,positions_test_new.xlsx,stimuli.xlsx,stimuli_new.xlsx,stimuli/Social3.png,stimuli/Social4.png,stimuli/Nonsocial3.png,stimuli/Nonsocial4.png,stimuli/Social1.png,stimuli/Social2.png,stimuli/Nonsocial1.png,stimuli/Nonsocial2.png,cs_neg_s,"(-0.7, 0.5)",,,,,,,,,0,0,0,0,,,,,,,,,,,,,1,13,29,0,,,,,,,,,,,,,,,,,,,,,,,,,,,,,,,,,,893.7717804997228,48,none,0,,,896.7855364000425,,,,,,,,,,,,,,,,,,,,,,7,C,2024-04-17_10h18.12.808,attentional_competition_task,2022.2.4,144.02083079506562,
positions.xlsx,positions_test.xlsx,positions_test_new.xlsx,stimuli.xlsx,stimuli_new.xlsx,stimuli/Social3.png,stimuli/Social4.png,stimuli/Nonsocial3.png,stimuli/Nonsocial4.png,stimuli/Social1.png,stimuli/Social2.png,stimuli/Nonsocial1.png,stimuli/Nonsocial2.png,cs_pos_s,"(-0.7, -0.5)",,,,,,,,,0,0,0,0,,,,,,,,,,,,,1,14,30,5,,,,,,,,,,,,,,,,,,,,,,,,,,,,,,,,,,903.8199980999343,51,reward,1,0.535093099810183,0.5350969000719488,904.3616871996783,,,,,,,,,,,,,,,,,,,,,,7,C,2024-04-17_10h18.12.808,attentional_competition_task,2022.2.4,144.02083079506562,
positions.xlsx,positions_test.xlsx,positions_test_new.xlsx,stimuli.xlsx,stimuli_new.xlsx,stimuli/Social3.png,stimuli/Social4.png,stimuli/Nonsocial3.png,stimuli/Nonsocial4.png,stimuli/Social1.png,stimuli/Social2.png,stimuli/Nonsocial1.png,stimuli/Nonsocial2.png,cs_pos_s,"(0.7, -0.5)",,,,,,,,,0,0,0,0,,,,,,,,,,,,,1,15,31,7,,,,,,,,,,,,,,,,,,,,,,,,,,,,,,,,,,911.5419352999888,54,reward,1,0.6041930997744203,0.6041965996846557,912.1529590999708,,,,,,,,,,,,,,,,,,,,,,7,C,2024-04-17_10h18.12.808,attentional_competition_task,2022.2.4,144.02083079506562,
positions.xlsx,positions_test.xlsx,positions_test_new.xlsx,stimuli.xlsx,stimuli_new.xlsx,stimuli/Social3.png,stimuli/Social4.png,stimuli/Nonsocial3.png,stimuli/Nonsocial4.png,stimuli/Social1.png,stimuli/Social2.png,stimuli/Nonsocial1.png,stimuli/Nonsocial2.png,cs_pos_s,,,,,,,,,,0,0,0,0,,,,,,,,,,,,,,,,,0,0,0,2,,,,,,,,,,,,,,,,,,,,,,,916.923639500048,6.0,8.810014499817044,,,,,,,,,,,,,,,,,,,,,,,,,,,,,,,,,7,C,2024-04-17_10h18.12.808,attentional_competition_task,2022.2.4,144.02083079506562,
positions.xlsx,positions_test.xlsx,positions_test_new.xlsx,stimuli.xlsx,stimuli_new.xlsx,stimuli/Social3.png,stimuli/Social4.png,stimuli/Nonsocial3.png,stimuli/Nonsocial4.png,stimuli/Social1.png,stimuli/Social2.png,stimuli/Nonsocial1.png,stimuli/Nonsocial2.png,cs_pos_ns,,,,,,,,,,0,0,0,0,,,,,,,,,,,,,,,,,0,1,1,3,,,,,,,,,,,,,,,,,,,,,,,926.6594321997836,5.0,5.931108800228685,,,,,,,,,,,,,,,,,,,,,,,,,,,,,,,,,7,C,2024-04-17_10h18.12.808,attentional_competition_task,2022.2.4,144.02083079506562,
positions.xlsx,positions_test.xlsx,positions_test_new.xlsx,stimuli.xlsx,stimuli_new.xlsx,stimuli/Social3.png,stimuli/Social4.png,stimuli/Nonsocial3.png,stimuli/Nonsocial4.png,stimuli/Social1.png,stimuli/Social2.png,stimuli/Nonsocial1.png,stimuli/Nonsocial2.png,cs_neg_ns,,,,,,,,,,0,0,0,0,,,,,,,,,,,,,,,,,0,2,2,1,,,,,,,,,,,,,,,,,,,,,,,933.0966102997772,5.0,6.021885599941015,,,,,,,,,,,,,,,,,,,,,,,,,,,,,,,,,7,C,2024-04-17_10h18.12.808,attentional_competition_task,2022.2.4,144.02083079506562,
positions.xlsx,positions_test.xlsx,positions_test_new.xlsx,stimuli.xlsx,stimuli_new.xlsx,stimuli/Social3.png,stimuli/Social4.png,stimuli/Nonsocial3.png,stimuli/Nonsocial4.png,stimuli/Social1.png,stimuli/Social2.png,stimuli/Nonsocial1.png,stimuli/Nonsocial2.png,cs_neg_s,,,,,,,,,,0,0,0,0,,,,,,,,,,,,,,,,,0,3,3,0,,,,,,,,,,,,,,,,,,,,,,,939.457465399988,5.0,7.856659200042486,,,,,,,,,,,,,,,,,,,,,,,,,,,,,,,,,7,C,2024-04-17_10h18.12.808,attentional_competition_task,2022.2.4,144.02083079506562,
positions.xlsx,positions_test.xlsx,positions_test_new.xlsx,stimuli.xlsx,stimuli_new.xlsx,stimuli/Social3.png,stimuli/Social4.png,stimuli/Nonsocial3.png,stimuli/Nonsocial4.png,stimuli/Social1.png,stimuli/Social2.png,stimuli/Nonsocial1.png,stimuli/Nonsocial2.png,,,"(-0.7, -0.5)",cs_pos_ns,"(-0.7, 0.5)",cs_pos_s,"(0.7, -0.5)",cs_neg_s,"(0.7, 0.5)",cs_neg_ns,0,0,0,0,,,,,,,,,,,,,,,,,,,,,0,0,0,19,,,,,,,,,,,,,,,,,,,,,,,,,,,60,reward,,,,,947.7626928999089,954.3110691998154,954.3110691998154,954.3110691998154,954.3110691998154,0,,,0,,,0,,,0,,,955.9568280996755,955.9568280996755,955.9568280996755,955.9568280996755,7,C,2024-04-17_10h18.12.808,attentional_competition_task,2022.2.4,144.02083079506562,
positions.xlsx,positions_test.xlsx,positions_test_new.xlsx,stimuli.xlsx,stimuli_new.xlsx,stimuli/Social3.png,stimuli/Social4.png,stimuli/Nonsocial3.png,stimuli/Nonsocial4.png,stimuli/Social1.png,stimuli/Social2.png,stimuli/Nonsocial1.png,stimuli/Nonsocial2.png,,,"(-0.7, -0.5)",cs_pos_ns,"(-0.7, 0.5)",cs_neg_ns,"(0.7, -0.5)",cs_neg_s,"(0.7, 0.5)",cs_pos_s,0,0,0,0,,,,,,,,,,,,,,,,,,,,,0,1,1,21,,,,,,,,,,,,,,,,,,,,,,,,,,,69,reward,,,,,,963.2898793998174,963.2898793998174,963.2898793998174,963.2898793998174,0,,,0,,,0,,,0,,,963.9982011998072,963.9982011998072,963.9982011998072,963.9982011998072,7,C,2024-04-17_10h18.12.808,attentional_competition_task,2022.2.4,144.02083079506562,
positions.xlsx,positions_test.xlsx,positions_test_new.xlsx,stimuli.xlsx,stimuli_new.xlsx,stimuli/Social3.png,stimuli/Social4.png,stimuli/Nonsocial3.png,stimuli/Nonsocial4.png,stimuli/Social1.png,stimuli/Social2.png,stimuli/Nonsocial1.png,stimuli/Nonsocial2.png,,,"(-0.7, -0.5)",cs_pos_s,"(-0.7, 0.5)",cs_neg_ns,"(0.7, -0.5)",cs_pos_ns,"(0.7, 0.5)",cs_neg_s,0,0,0,0,,,,,,,,,,,,,,,,,,,,,0,2,2,9,,,,,,,,,,,,,,,,,,,,,,,,,,,75,reward,,,,,,971.7270437995903,971.7270437995903,971.7270437995903,971.7270437995903,1,0.057988100219517946,0.05799210024997592,0,,,0,,,0,,,971.7825853000395,971.7825853000395,971.7825853000395,971.7825853000395,7,C,2024-04-17_10h18.12.808,attentional_competition_task,2022.2.4,144.02083079506562,
positions.xlsx,positions_test.xlsx,positions_test_new.xlsx,stimuli.xlsx,stimuli_new.xlsx,stimuli/Social3.png,stimuli/Social4.png,stimuli/Nonsocial3.png,stimuli/Nonsocial4.png,stimuli/Social1.png,stimuli/Social2.png,stimuli/Nonsocial1.png,stimuli/Nonsocial2.png,,,"(-0.7, -0.5)",cs_neg_s,"(-0.7, 0.5)",cs_pos_ns,"(0.7, -0.5)",cs_pos_s,"(0.7, 0.5)",cs_neg_ns,0,0,0,0,,,,,,,,,,,,,,,,,,,,,0,3,3,4,,,,,,,,,,,,,,,,,,,,,,,,,,,69,loss,,,,,,981.0113442996517,981.0113442996517,981.0113442996517,981.0113442996517,0,,,0,,,0,,,0,,,981.6363919000141,981.6363919000141,981.6363919000141,981.6363919000141,7,C,2024-04-17_10h18.12.808,attentional_competition_task,2022.2.4,144.02083079506562,
positions.xlsx,positions_test.xlsx,positions_test_new.xlsx,stimuli.xlsx,stimuli_new.xlsx,stimuli/Social3.png,stimuli/Social4.png,stimuli/Nonsocial3.png,stimuli/Nonsocial4.png,stimuli/Social1.png,stimuli/Social2.png,stimuli/Nonsocial1.png,stimuli/Nonsocial2.png,,,"(-0.7, -0.5)",cs_neg_ns,"(-0.7, 0.5)",cs_pos_s,"(0.7, -0.5)",cs_neg_s,"(0.7, 0.5)",cs_pos_ns,0,0,0,0,,,,,,,,,,,,,,,,,,,,,0,4,4,12,,,,,,,,,,,,,,,,,,,,,,,,,,,72,reward,,,,,,989.0249626999721,989.0249626999721,989.0249626999721,989.0249626999721,0,,,0,,,0,,,1,0.17768270010128617,0.1776864998973906,989.2055493998341,989.2055493998341,989.2055493998341,989.2055493998341,7,C,2024-04-17_10h18.12.808,attentional_competition_task,2022.2.4,144.02083079506562,
positions.xlsx,positions_test.xlsx,positions_test_new.xlsx,stimuli.xlsx,stimuli_new.xlsx,stimuli/Social3.png,stimuli/Social4.png,stimuli/Nonsocial3.png,stimuli/Nonsocial4.png,stimuli/Social1.png,stimuli/Social2.png,stimuli/Nonsocial1.png,stimuli/Nonsocial2.png,,,"(-0.7, -0.5)",cs_pos_ns,"(-0.7, 0.5)",cs_pos_s,"(0.7, -0.5)",cs_neg_ns,"(0.7, 0.5)",cs_neg_s,0,0,0,0,,,,,,,,,,,,,,,,,,,,,0,5,5,18,,,,,,,,,,,,,,,,,,,,,,,,,,,78,reward,,,,,,996.7885494995862,996.7885494995862,996.7885494995862,996.7885494995862,1,0.6343387002125382,0.6343426001258194,1,0.030429100152105093,0.3221379001624882,0,,,0,,,997.4204947999679,997.4204947999679,997.4204947999679,997.4204947999679,7,C,2024-04-17_10h18.12.808,attentional_competition_task,2022.2.4,144.02083079506562,
positions.xlsx,positions_test.xlsx,positions_test_new.xlsx,stimuli.xlsx,stimuli_new.xlsx,stimuli/Social3.png,stimuli/Social4.png,stimuli/Nonsocial3.png,stimuli/Nonsocial4.png,stimuli/Social1.png,stimuli/Social2.png,stimuli/Nonsocial1.png,stimuli/Nonsocial2.png,,,"(-0.7, -0.5)",cs_pos_ns,"(-0.7, 0.5)",cs_neg_s,"(0.7, -0.5)",cs_neg_ns,"(0.7, 0.5)",cs_pos_s,0,0,0,0,,,,,,,,,,,,,,,,,,,,,0,6,6,23,,,,,,,,,,,,,,,,,,,,,,,,,,,81,reward,,,,,,1004.9201658996753,1004.9201658996753,1004.9201658996753,1004.9201658996753,1,0.024904099758714437,0.024907900020480156,0,,,0,,,0,,,1004.9201658996753,1004.9201658996753,1004.9201658996753,1004.9201658996753,7,C,2024-04-17_10h18.12.808,attentional_competition_task,2022.2.4,144.02083079506562,
positions.xlsx,positions_test.xlsx,positions_test_new.xlsx,stimuli.xlsx,stimuli_new.xlsx,stimuli/Social3.png,stimuli/Social4.png,stimuli/Nonsocial3.png,stimuli/Nonsocial4.png,stimuli/Social1.png,stimuli/Social2.png,stimuli/Nonsocial1.png,stimuli/Nonsocial2.png,,,"(-0.7, -0.5)",cs_pos_ns,"(-0.7, 0.5)",cs_neg_s,"(0.7, -0.5)",cs_pos_s,"(0.7, 0.5)",cs_neg_ns,0,0,0,0,,,,,,,,,,,,,,,,,,,,,0,7,7,22,,,,,,,,,,,,,,,,,,,,,,,,,,,90,reward,,,,,,1013.760098699946,1013.760098699946,1013.760098699946,1013.760098699946,0,,,0,,,0,,,0,,,1013.760098699946,1013.760098699946,1013.760098699946,1013.760098699946,7,C,2024-04-17_10h18.12.808,attentional_competition_task,2022.2.4,144.02083079506562,
positions.xlsx,positions_test.xlsx,positions_test_new.xlsx,stimuli.xlsx,stimuli_new.xlsx,stimuli/Social3.png,stimuli/Social4.png,stimuli/Nonsocial3.png,stimuli/Nonsocial4.png,stimuli/Social1.png,stimuli/Social2.png,stimuli/Nonsocial1.png,stimuli/Nonsocial2.png,,,"(-0.7, -0.5)",cs_pos_ns,"(-0.7, 0.5)",cs_neg_ns,"(0.7, -0.5)",cs_pos_s,"(0.7, 0.5)",cs_neg_s,0,0,0,0,,,,,,,,,,,,,,,,,,,,,0,8,8,20,,,,,,,,,,,,,,,,,,,,,,,,,,,99,reward,,,,,,1021.4611451998353,1021.4611451998353,1021.4611451998353,1021.4611451998353,0,,,0,,,0,,,0,,,1022.3153382996097,1022.3153382996097,1022.3153382996097,1022.3153382996097,7,C,2024-04-17_10h18.12.808,attentional_competition_task,2022.2.4,144.02083079506562,
positions.xlsx,positions_test.xlsx,positions_test_new.xlsx,stimuli.xlsx,stimuli_new.xlsx,stimuli/Social3.png,stimuli/Social4.png,stimuli/Nonsocial3.png,stimuli/Nonsocial4.png,stimuli/Social1.png,stimuli/Social2.png,stimuli/Nonsocial1.png,stimuli/Nonsocial2.png,,,"(-0.7, -0.5)",cs_neg_s,"(-0.7, 0.5)",cs_neg_ns,"(0.7, -0.5)",cs_pos_ns,"(0.7, 0.5)",cs_pos_s,0,0,0,0,,,,,,,,,,,,,,,,,,,,,0,9,9,3,,,,,,,,,,,,,,,,,,,,,,,,,,,96,loss,,,,,,1029.634480800014,1029.634480800014,1029.634480800014,1029.634480800014,0,,,0,,,0,,,0,,,1030.516354299616,1030.516354299616,1030.516354299616,1030.516354299616,7,C,2024-04-17_10h18.12.808,attentional_competition_task,2022.2.4,144.02083079506562,
positions.xlsx,positions_test.xlsx,positions_test_new.xlsx,stimuli.xlsx,stimuli_new.xlsx,stimuli/Social3.png,stimuli/Social4.png,stimuli/Nonsocial3.png,stimuli/Nonsocial4.png,stimuli/Social1.png,stimuli/Social2.png,stimuli/Nonsocial1.png,stimuli/Nonsocial2.png,,,"(-0.7, -0.5)",cs_neg_ns,"(-0.7, 0.5)",cs_pos_ns,"(0.7, -0.5)",cs_neg_s,"(0.7, 0.5)",cs_pos_s,0,0,0,0,,,,,,,,,,,,,,,,,,,,,0,10,10,17,,,,,,,,,,,,,,,,,,,,,,,,,,,102,reward,,,,,,1038.842432399746,1038.842432399746,1038.842432399746,1038.842432399746,0,,,0,,,0,,,1,0.03055100003257394,0.030554499942809343,1038.842432399746,1038.842432399746,1038.842432399746,1038.842432399746,7,C,2024-04-17_10h18.12.808,attentional_competition_task,2022.2.4,144.02083079506562,
positions.xlsx,positions_test.xlsx,positions_test_new.xlsx,stimuli.xlsx,stimuli_new.xlsx,stimuli/Social3.png,stimuli/Social4.png,stimuli/Nonsocial3.png,stimuli/Nonsocial4.png,stimuli/Social1.png,stimuli/Social2.png,stimuli/Nonsocial1.png,stimuli/Nonsocial2.png,,,"(-0.7, -0.5)",cs_neg_ns,"(-0.7, 0.5)",cs_neg_s,"(0.7, -0.5)",cs_pos_s,"(0.7, 0.5)",cs_pos_ns,0,0,0,0,,,,,,,,,,,,,,,,,,,,,0,11,11,14,,,,,,,,,,,,,,,,,,,,,,,,,,,108,reward,,,,,,1047.7587368995883,1047.7587368995883,1047.7587368995883,1047.7587368995883,0,,,0,,,0,,,1,0.03214100003242493,0.03214449994266033,1047.7587368995883,1047.7587368995883,1047.7587368995883,1047.7587368995883,7,C,2024-04-17_10h18.12.808,attentional_competition_task,2022.2.4,144.02083079506562,
positions.xlsx,positions_test.xlsx,positions_test_new.xlsx,stimuli.xlsx,stimuli_new.xlsx,stimuli/Social3.png,stimuli/Social4.png,stimuli/Nonsocial3.png,stimuli/Nonsocial4.png,stimuli/Social1.png,stimuli/Social2.png,stimuli/Nonsocial1.png,stimuli/Nonsocial2.png,,,"(-0.7, -0.5)",cs_pos_s,"(-0.7, 0.5)",cs_neg_s,"(0.7, -0.5)",cs_neg_ns,"(0.7, 0.5)",cs_pos_ns,0,0,0,0,,,,,,,,,,,,,,,,,,,,,0,12,12,6,,,,,,,,,,,,,,,,,,,,,,,,,,,114,reward,,,,,,1055.82090519974,1055.82090519974,1055.82090519974,1055.82090519974,1,0.029007399920374155,0.02901160018518567,0,,,0,,,0,,,1055.82090519974,1055.82090519974,1055.82090519974,1055.82090519974,7,C,2024-04-17_10h18.12.808,attentional_competition_task,2022.2.4,144.02083079506562,
positions.xlsx,positions_test.xlsx,positions_test_new.xlsx,stimuli.xlsx,stimuli_new.xlsx,stimuli/Social3.png,stimuli/Social4.png,stimuli/Nonsocial3.png,stimuli/Nonsocial4.png,stimuli/Social1.png,stimuli/Social2.png,stimuli/Nonsocial1.png,stimuli/Nonsocial2.png,,,"(-0.7, -0.5)",cs_neg_s,"(-0.7, 0.5)",cs_pos_ns,"(0.7, -0.5)",cs_neg_ns,"(0.7, 0.5)",cs_pos_s,0,0,0,0,,,,,,,,,,,,,,,,,,,,,0,13,13,5,,,,,,,,,,,,,,,,,,,,,,,,,,,123,reward,,,,,,1064.8900599000044,1064.8900599000044,1064.8900599000044,1064.8900599000044,0,,,0,,,0,,,0,,,1065.820544899907,1065.820544899907,1065.820544899907,1065.820544899907,7,C,2024-04-17_10h18.12.808,attentional_competition_task,2022.2.4,144.02083079506562,
positions.xlsx,positions_test.xlsx,positions_test_new.xlsx,stimuli.xlsx,stimuli_new.xlsx,stimuli/Social3.png,stimuli/Social4.png,stimuli/Nonsocial3.png,stimuli/Nonsocial4.png,stimuli/Social1.png,stimuli/Social2.png,stimuli/Nonsocial1.png,stimuli/Nonsocial2.png,,,"(-0.7, -0.5)",cs_pos_s,"(-0.7, 0.5)",cs_pos_ns,"(0.7, -0.5)",cs_neg_ns,"(0.7, 0.5)",cs_neg_s,0,0,0,0,,,,,,,,,,,,,,,,,,,,,0,14,14,11,,,,,,,,,,,,,,,,,,,,,,,,,,,129,reward,,,,,,1072.549453499727,1072.549453499727,1072.549453499727,1072.549453499727,1,0.0921721002086997,0.09915339993312955,1,0.029887599870562553,0.07850110018625855,0,,,0,,,1072.6466369000264,1072.6466369000264,1072.6466369000264,1072.6466369000264,7,C,2024-04-17_10h18.12.808,attentional_competition_task,2022.2.4,144.02083079506562,
positions.xlsx,positions_test.xlsx,positions_test_new.xlsx,stimuli.xlsx,stimuli_new.xlsx,stimuli/Social3.png,stimuli/Social4.png,stimuli/Nonsocial3.png,stimuli/Nonsocial4.png,stimuli/Social1.png,stimuli/Social2.png,stimuli/Nonsocial1.png,stimuli/Nonsocial2.png,,,"(-0.7, -0.5)",cs_pos_s,"(-0.7, 0.5)",cs_neg_ns,"(0.7, -0.5)",cs_neg_s,"(0.7, 0.5)",cs_pos_ns,0,0,0,0,,,,,,,,,,,,,,,,,,,,,0,15,15,8,,,,,,,,,,,,,,,,,,,,,,,,,,,135,reward,,,,,,1080.9797103996389,1080.9797103996389,1080.9797103996389,1080.9797103996389,1,0.02942920010536909,0.029433200135827065,0,,,0,,,0,,,1080.9797103996389,1080.9797103996389,1080.9797103996389,1080.9797103996389,7,C,2024-04-17_10h18.12.808,attentional_competition_task,2022.2.4,144.02083079506562,
positions.xlsx,positions_test.xlsx,positions_test_new.xlsx,stimuli.xlsx,stimuli_new.xlsx,stimuli/Social3.png,stimuli/Social4.png,stimuli/Nonsocial3.png,stimuli/Nonsocial4.png,stimuli/Social1.png,stimuli/Social2.png,stimuli/Nonsocial1.png,stimuli/Nonsocial2.png,,,"(-0.7, -0.5)",cs_neg_ns,"(-0.7, 0.5)",cs_pos_ns,"(0.7, -0.5)",cs_pos_s,"(0.7, 0.5)",cs_neg_s,0,0,0,0,,,,,,,,,,,,,,,,,,,,,0,16,16,16,,,,,,,,,,,,,,,,,,,,,,,,,,,141,reward,,,,,,1088.4723943998106,1088.4723943998106,1088.4723943998106,1088.4723943998106,0,,,1,0.8639261000789702,0.863943800330162,0,,,0,,,1089.3473449000157,1089.3473449000157,1089.3473449000157,1089.3473449000157,7,C,2024-04-17_10h18.12.808,attentional_competition_task,2022.2.4,144.02083079506562,
positions.xlsx,positions_test.xlsx,positions_test_new.xlsx,stimuli.xlsx,stimuli_new.xlsx,stimuli/Social3.png,stimuli/Social4.png,stimuli/Nonsocial3.png,stimuli/Nonsocial4.png,stimuli/Social1.png,stimuli/Social2.png,stimuli/Nonsocial1.png,stimuli/Nonsocial2.png,,,"(-0.7, -0.5)",cs_neg_s,"(-0.7, 0.5)",cs_pos_s,"(0.7, -0.5)",cs_pos_ns,"(0.7, 0.5)",cs_neg_ns,0,0,0,0,,,,,,,,,,,,,,,,,,,,,0,17,17,1,,,,,,,,,,,,,,,,,,,,,,,,,,,147,reward,,,,,,1097.631778900046,1097.631778900046,1097.631778900046,1097.631778900046,0,,,1,0.1418137000873685,0.1418176000006497,1,0.03127880021929741,0.06563979992642999,0,,,1097.7706787995994,1097.7706787995994,1097.7706787995994,1097.7706787995994,7,C,2024-04-17_10h18.12.808,attentional_competition_task,2022.2.4,144.02083079506562,
positions.xlsx,positions_test.xlsx,positions_test_new.xlsx,stimuli.xlsx,stimuli_new.xlsx,stimuli/Social3.png,stimuli/Social4.png,stimuli/Nonsocial3.png,stimuli/Nonsocial4.png,stimuli/Social1.png,stimuli/Social2.png,stimuli/Nonsocial1.png,stimuli/Nonsocial2.png,,,"(-0.7, -0.5)",cs_neg_s,"(-0.7, 0.5)",cs_pos_s,"(0.7, -0.5)",cs_neg_ns,"(0.7, 0.5)",cs_pos_ns,0,0,0,0,,,,,,,,,,,,,,,,,,,,,0,18,18,0,,,,,,,,,,,,,,,,,,,,,,,,,,,153,reward,,,,,,1105.5550871999003,1105.5550871999003,1105.5550871999003,1105.5550871999003,0,,,1,0.030573000200092793,0.2520861001685262,0,,,1,0.32223610021173954,0.32916520023718476,1105.881407899782,1105.881407899782,1105.881407899782,1105.881407899782,7,C,2024-04-17_10h18.12.808,attentional_competition_task,2022.2.4,144.02083079506562,
positions.xlsx,positions_test.xlsx,positions_test_new.xlsx,stimuli.xlsx,stimuli_new.xlsx,stimuli/Social3.png,stimuli/Social4.png,stimuli/Nonsocial3.png,stimuli/Nonsocial4.png,stimuli/Social1.png,stimuli/Social2.png,stimuli/Nonsocial1.png,stimuli/Nonsocial2.png,,,"(-0.7, -0.5)",cs_pos_s,"(-0.7, 0.5)",cs_pos_ns,"(0.7, -0.5)",cs_neg_s,"(0.7, 0.5)",cs_neg_ns,0,0,0,0,,,,,,,,,,,,,,,,,,,,,0,19,19,10,,,,,,,,,,,,,,,,,,,,,,,,,,,162,reward,,,,,,1114.478361599613,1114.478361599613,1114.478361599613,1114.478361599613,1,0.03979659965261817,0.06484390003606677,0,,,0,,,0,,,1115.1033165999688,1115.1033165999688,1115.1033165999688,1115.1033165999688,7,C,2024-04-17_10h18.12.808,attentional_competition_task,2022.2.4,144.02083079506562,
positions.xlsx,positions_test.xlsx,positions_test_new.xlsx,stimuli.xlsx,stimuli_new.xlsx,stimuli/Social3.png,stimuli/Social4.png,stimuli/Nonsocial3.png,stimuli/Nonsocial4.png,stimuli/Social1.png,stimuli/Social2.png,stimuli/Nonsocial1.png,stimuli/Nonsocial2.png,,,"(-0.7, -0.5)",cs_neg_ns,"(-0.7, 0.5)",cs_neg_s,"(0.7, -0.5)",cs_pos_ns,"(0.7, 0.5)",cs_pos_s,0,0,0,0,,,,,,,,,,,,,,,,,,,,,0,20,20,15,,,,,,,,,,,,,,,,,,,,,,,,,,,168,reward,,,,,,1123.019667699933,1123.019667699933,1123.019667699933,1123.019667699933,0,,,0,,,0,,,1,0.0320120002143085,0.032016000244766474,1123.019667699933,1123.019667699933,1123.019667699933,1123.019667699933,7,C,2024-04-17_10h18.12.808,attentional_competition_task,2022.2.4,144.02083079506562,
positions.xlsx,positions_test.xlsx,positions_test_new.xlsx,stimuli.xlsx,stimuli_new.xlsx,stimuli/Social3.png,stimuli/Social4.png,stimuli/Nonsocial3.png,stimuli/Nonsocial4.png,stimuli/Social1.png,stimuli/Social2.png,stimuli/Nonsocial1.png,stimuli/Nonsocial2.png,,,"(-0.7, -0.5)",cs_pos_s,"(-0.7, 0.5)",cs_neg_s,"(0.7, -0.5)",cs_pos_ns,"(0.7, 0.5)",cs_neg_ns,0,0,0,0,,,,,,,,,,,,,,,,,,,,,0,21,21,7,,,,,,,,,,,,,,,,,,,,,,,,,,,174,reward,,,,,,1131.1304587996565,1131.1304587996565,1131.1304587996565,1131.1304587996565,1,0.02836250001564622,0.02836639992892742,0,,,0,,,0,,,1131.1304587996565,1131.1304587996565,1131.1304587996565,1131.1304587996565,7,C,2024-04-17_10h18.12.808,attentional_competition_task,2022.2.4,144.02083079506562,
positions.xlsx,positions_test.xlsx,positions_test_new.xlsx,stimuli.xlsx,stimuli_new.xlsx,stimuli/Social3.png,stimuli/Social4.png,stimuli/Nonsocial3.png,stimuli/Nonsocial4.png,stimuli/Social1.png,stimuli/Social2.png,stimuli/Nonsocial1.png,stimuli/Nonsocial2.png,,,"(-0.7, -0.5)",cs_neg_ns,"(-0.7, 0.5)",cs_pos_s,"(0.7, -0.5)",cs_pos_ns,"(0.7, 0.5)",cs_neg_s,0,0,0,0,,,,,,,,,,,,,,,,,,,,,0,22,22,13,,,,,,,,,,,,,,,,,,,,,,,,,,,183,reward,,,,,,1139.9564903997816,1139.9564903997816,1139.9564903997816,1139.9564903997816,0,,,0,,,0,,,0,,,1140.755054099951,1140.755054099951,1140.755054099951,1140.755054099951,7,C,2024-04-17_10h18.12.808,attentional_competition_task,2022.2.4,144.02083079506562,
positions.xlsx,positions_test.xlsx,positions_test_new.xlsx,stimuli.xlsx,stimuli_new.xlsx,stimuli/Social3.png,stimuli/Social4.png,stimuli/Nonsocial3.png,stimuli/Nonsocial4.png,stimuli/Social1.png,stimuli/Social2.png,stimuli/Nonsocial1.png,stimuli/Nonsocial2.png,,,"(-0.7, -0.5)",cs_neg_s,"(-0.7, 0.5)",cs_neg_ns,"(0.7, -0.5)",cs_pos_s,"(0.7, 0.5)",cs_pos_ns,0,0,0,0,,,,,,,,,,,,,,,,,,,,,0,23,23,2,,,,,,,,,,,,,,,,,,,,,,,,,,,192,reward,,,,,,1148.3519921000116,1148.3519921000116,1148.3519921000116,1148.3519921000116,0,,,0,,,0,,,1,0.025221599731594324,0.35810079984366894,1149.213071399834,1149.213071399834,1149.213071399834,1149.213071399834,7,C,2024-04-17_10h18.12.808,attentional_competition_task,2022.2.4,144.02083079506562,
positions.xlsx,positions_test.xlsx,positions_test_new.xlsx,stimuli.xlsx,stimuli_new.xlsx,stimuli/Social3.png,stimuli/Social4.png,stimuli/Nonsocial3.png,stimuli/Nonsocial4.png,stimuli/Social1.png,stimuli/Social2.png,stimuli/Nonsocial1.png,stimuli/Nonsocial2.png,,,"(-0.7, -0.5)",cs_pos_s,"(-0.7, 0.5)",cs_pos_ns,"(0.7, -0.5)",cs_neg_s,"(0.7, 0.5)",cs_neg_ns,0,0,0,0,,,,,,,,,,,,,,,,,,,,,1,0,24,10,,,,,,,,,,,,,,,,,,,,,,,,,,,186,loss,,,,,,1156.6918965997174,1156.6918965997174,1156.6918965997174,1156.6918965997174,0,,,0,,,1,0.03359300037845969,0.033596900291740894,0,,,1156.7335963998921,1156.7335963998921,1156.7335963998921,1156.7335963998921,7,C,2024-04-17_10h18.12.808,attentional_competition_task,2022.2.4,144.02083079506562,
positions.xlsx,positions_test.xlsx,positions_test_new.xlsx,stimuli.xlsx,stimuli_new.xlsx,stimuli/Social3.png,stimuli/Social4.png,stimuli/Nonsocial3.png,stimuli/Nonsocial4.png,stimuli/Social1.png,stimuli/Social2.png,stimuli/Nonsocial1.png,stimuli/Nonsocial2.png,,,"(-0.7, -0.5)",cs_pos_ns,"(-0.7, 0.5)",cs_neg_ns,"(0.7, -0.5)",cs_pos_s,"(0.7, 0.5)",cs_neg_s,0,0,0,0,,,,,,,,,,,,,,,,,,,,,1,1,25,20,,,,,,,,,,,,,,,,,,,,,,,,,,,192,reward,,,,,,1165.2124312999658,1165.2124312999658,1165.2124312999658,1165.2124312999658,1,0.03059939993545413,0.1000111997127533,0,,,1,0.1766975000500679,0.17670119972899556,0,,,1165.3790857996792,1165.3790857996792,1165.3790857996792,1165.3790857996792,7,C,2024-04-17_10h18.12.808,attentional_competition_task,2022.2.4,144.02083079506562,
positions.xlsx,positions_test.xlsx,positions_test_new.xlsx,stimuli.xlsx,stimuli_new.xlsx,stimuli/Social3.png,stimuli/Social4.png,stimuli/Nonsocial3.png,stimuli/Nonsocial4.png,stimuli/Social1.png,stimuli/Social2.png,stimuli/Nonsocial1.png,stimuli/Nonsocial2.png,,,"(-0.7, -0.5)",cs_neg_ns,"(-0.7, 0.5)",cs_neg_s,"(0.7, -0.5)",cs_pos_s,"(0.7, 0.5)",cs_pos_ns,0,0,0,0,,,,,,,,,,,,,,,,,,,,,1,2,26,14,,,,,,,,,,,,,,,,,,,,,,,,,,,201,reward,,,,,,1173.3649013997056,1173.3649013997056,1173.3649013997056,1173.3649013997056,0,,,0,,,1,0.024126699659973383,0.2046310999430716,0,,,1174.0731834997423,1174.0731834997423,1174.0731834997423,1174.0731834997423,7,C,2024-04-17_10h18.12.808,attentional_competition_task,2022.2.4,144.02083079506562,
positions.xlsx,positions_test.xlsx,positions_test_new.xlsx,stimuli.xlsx,stimuli_new.xlsx,stimuli/Social3.png,stimuli/Social4.png,stimuli/Nonsocial3.png,stimuli/Nonsocial4.png,stimuli/Social1.png,stimuli/Social2.png,stimuli/Nonsocial1.png,stimuli/Nonsocial2.png,,,"(-0.7, -0.5)",cs_pos_s,"(-0.7, 0.5)",cs_neg_s,"(0.7, -0.5)",cs_neg_ns,"(0.7, 0.5)",cs_pos_ns,0,0,0,0,,,,,,,,,,,,,,,,,,,,,1,3,27,6,,,,,,,,,,,,,,,,,,,,,,,,,,,210,reward,,,,,,1182.0103515996598,1182.0103515996598,1182.0103515996598,1182.0103515996598,0,,,0,,,0,,,0,,,1182.8159049996175,1182.8159049996175,1182.8159049996175,1182.8159049996175,7,C,2024-04-17_10h18.12.808,attentional_competition_task,2022.2.4,144.02083079506562,
positions.xlsx,positions_test.xlsx,positions_test_new.xlsx,stimuli.xlsx,stimuli_new.xlsx,stimuli/Social3.png,stimuli/Social4.png,stimuli/Nonsocial3.png,stimuli/Nonsocial4.png,stimuli/Social1.png,stimuli/Social2.png,stimuli/Nonsocial1.png,stimuli/Nonsocial2.png,,,"(-0.7, -0.5)",cs_neg_ns,"(-0.7, 0.5)",cs_pos_s,"(0.7, -0.5)",cs_neg_s,"(0.7, 0.5)",cs_pos_ns,0,0,0,0,,,,,,,,,,,,,,,,,,,,,1,4,28,12,,,,,,,,,,,,,,,,,,,,,,,,,,,219,reward,,,,,,1190.3711463999934,1190.3711463999934,1190.3711463999934,1190.3711463999934,0,,,1,0.028968599624931812,0.23316359985619783,0,,,0,,,1191.1072201998904,1191.1072201998904,1191.1072201998904,1191.1072201998904,7,C,2024-04-17_10h18.12.808,attentional_competition_task,2022.2.4,144.02083079506562,
positions.xlsx,positions_test.xlsx,positions_test_new.xlsx,stimuli.xlsx,stimuli_new.xlsx,stimuli/Social3.png,stimuli/Social4.png,stimuli/Nonsocial3.png,stimuli/Nonsocial4.png,stimuli/Social1.png,stimuli/Social2.png,stimuli/Nonsocial1.png,stimuli/Nonsocial2.png,,,"(-0.7, -0.5)",cs_neg_ns,"(-0.7, 0.5)",cs_pos_ns,"(0.7, -0.5)",cs_pos_s,"(0.7, 0.5)",cs_neg_s,0,0,0,0,,,,,,,,,,,,,,,,,,,,,1,5,29,16,,,,,,,,,,,,,,,,,,,,,,,,,,,228,reward,,,,,,1198.9541201996617,1198.9541201996617,1198.9541201996617,1198.9541201996617,0,,,0,,,1,0.02787710027769208,0.26501990016549826,0,,,1199.7249251999892,1199.7249251999892,1199.7249251999892,1199.7249251999892,7,C,2024-04-17_10h18.12.808,attentional_competition_task,2022.2.4,144.02083079506562,
positions.xlsx,positions_test.xlsx,positions_test_new.xlsx,stimuli.xlsx,stimuli_new.xlsx,stimuli/Social3.png,stimuli/Social4.png,stimuli/Nonsocial3.png,stimuli/Nonsocial4.png,stimuli/Social1.png,stimuli/Social2.png,stimuli/Nonsocial1.png,stimuli/Nonsocial2.png,,,"(-0.7, -0.5)",cs_neg_s,"(-0.7, 0.5)",cs_neg_ns,"(0.7, -0.5)",cs_pos_s,"(0.7, 0.5)",cs_pos_ns,0,0,0,0,,,,,,,,,,,,,,,,,,,,,1,6,30,2,,,,,,,,,,,,,,,,,,,,,,,,,,,237,reward,,,,,,1206.6969110998325,1206.6969110998325,1206.6969110998325,1206.6969110998325,0,,,0,,,1,0.12040900019928813,0.37072020024061203,1,0.030827900394797325,0.10731690004467964,1207.5649072998203,1207.5649072998203,1207.5649072998203,1207.5649072998203,7,C,2024-04-17_10h18.12.808,attentional_competition_task,2022.2.4,144.02083079506562,
positions.xlsx,positions_test.xlsx,positions_test_new.xlsx,stimuli.xlsx,stimuli_new.xlsx,stimuli/Social3.png,stimuli/Social4.png,stimuli/Nonsocial3.png,stimuli/Nonsocial4.png,stimuli/Social1.png,stimuli/Social2.png,stimuli/Nonsocial1.png,stimuli/Nonsocial2.png,,,"(-0.7, -0.5)",cs_pos_ns,"(-0.7, 0.5)",cs_neg_s,"(0.7, -0.5)",cs_neg_ns,"(0.7, 0.5)",cs_pos_s,0,0,0,0,,,,,,,,,,,,,,,,,,,,,1,7,31,23,,,,,,,,,,,,,,,,,,,,,,,,,,,240,reward,,,,,,1214.9812872000039,1214.9812872000039,1214.9812872000039,1214.9812872000039,1,0.02794979978352785,0.0279534999281168,0,,,0,,,0,,,1214.9812872000039,1214.9812872000039,1214.9812872000039,1214.9812872000039,7,C,2024-04-17_10h18.12.808,attentional_competition_task,2022.2.4,144.02083079506562,
positions.xlsx,positions_test.xlsx,positions_test_new.xlsx,stimuli.xlsx,stimuli_new.xlsx,stimuli/Social3.png,stimuli/Social4.png,stimuli/Nonsocial3.png,stimuli/Nonsocial4.png,stimuli/Social1.png,stimuli/Social2.png,stimuli/Nonsocial1.png,stimuli/Nonsocial2.png,,,"(-0.7, -0.5)",cs_neg_s,"(-0.7, 0.5)",cs_neg_ns,"(0.7, -0.5)",cs_pos_ns,"(0.7, 0.5)",cs_pos_s,0,0,0,0,,,,,,,,,,,,,,,,,,,,,1,8,32,3,,,,,,,,,,,,,,,,,,,,,,,,,,,249,reward,,,,,,1223.6892728996463,1223.6892728996463,1223.6892728996463,1223.6892728996463,0,,,0,,,1,0.026161800138652325,0.28297890024259686,0,,,1224.4739974997938,1224.4739974997938,1224.4739974997938,1224.4739974997938,7,C,2024-04-17_10h18.12.808,attentional_competition_task,2022.2.4,144.02083079506562,
positions.xlsx,positions_test.xlsx,positions_test_new.xlsx,stimuli.xlsx,stimuli_new.xlsx,stimuli/Social3.png,stimuli/Social4.png,stimuli/Nonsocial3.png,stimuli/Nonsocial4.png,stimuli/Social1.png,stimuli/Social2.png,stimuli/Nonsocial1.png,stimuli/Nonsocial2.png,,,"(-0.7, -0.5)",cs_pos_s,"(-0.7, 0.5)",cs_neg_ns,"(0.7, -0.5)",cs_neg_s,"(0.7, 0.5)",cs_pos_ns,0,0,0,0,,,,,,,,,,,,,,,,,,,,,1,9,33,8,,,,,,,,,,,,,,,,,,,,,,,,,,,252,reward,,,,,,1231.8555644997396,1231.8555644997396,1231.8555644997396,1231.8555644997396,1,0.030708699952811003,0.030712699983268976,0,,,0,,,0,,,1231.8555644997396,1231.8555644997396,1231.8555644997396,1231.8555644997396,7,C,2024-04-17_10h18.12.808,attentional_competition_task,2022.2.4,144.02083079506562,
positions.xlsx,positions_test.xlsx,positions_test_new.xlsx,stimuli.xlsx,stimuli_new.xlsx,stimuli/Social3.png,stimuli/Social4.png,stimuli/Nonsocial3.png,stimuli/Nonsocial4.png,stimuli/Social1.png,stimuli/Social2.png,stimuli/Nonsocial1.png,stimuli/Nonsocial2.png,,,"(-0.7, -0.5)",cs_neg_s,"(-0.7, 0.5)",cs_pos_ns,"(0.7, -0.5)",cs_neg_ns,"(0.7, 0.5)",cs_pos_s,0,0,0,0,,,,,,,,,,,,,,,,,,,,,1,10,34,5,,,,,,,,,,,,,,,,,,,,,,,,,,,261,reward,,,,,,1241.355218600016,1241.355218600016,1241.355218600016,1241.355218600016,0,,,0,,,0,,,0,,,1241.355218600016,1241.355218600016,1241.355218600016,1241.355218600016,7,C,2024-04-17_10h18.12.808,attentional_competition_task,2022.2.4,144.02083079506562,
positions.xlsx,positions_test.xlsx,positions_test_new.xlsx,stimuli.xlsx,stimuli_new.xlsx,stimuli/Social3.png,stimuli/Social4.png,stimuli/Nonsocial3.png,stimuli/Nonsocial4.png,stimuli/Social1.png,stimuli/Social2.png,stimuli/Nonsocial1.png,stimuli/Nonsocial2.png,,,"(-0.7, -0.5)",cs_pos_s,"(-0.7, 0.5)",cs_pos_ns,"(0.7, -0.5)",cs_neg_ns,"(0.7, 0.5)",cs_neg_s,0,0,0,0,,,,,,,,,,,,,,,,,,,,,1,11,35,11,,,,,,,,,,,,,,,,,,,,,,,,,,,270,reward,,,,,,1249.3062928998843,1249.3062928998843,1249.3062928998843,1249.3062928998843,1,0.028723900206387043,0.3422521003521979,0,,,0,,,0,,,1250.146533199586,1250.146533199586,1250.146533199586,1250.146533199586,7,C,2024-04-17_10h18.12.808,attentional_competition_task,2022.2.4,144.02083079506562,
positions.xlsx,positions_test.xlsx,positions_test_new.xlsx,stimuli.xlsx,stimuli_new.xlsx,stimuli/Social3.png,stimuli/Social4.png,stimuli/Nonsocial3.png,stimuli/Nonsocial4.png,stimuli/Social1.png,stimuli/Social2.png,stimuli/Nonsocial1.png,stimuli/Nonsocial2.png,,,"(-0.7, -0.5)",cs_neg_ns,"(-0.7, 0.5)",cs_neg_s,"(0.7, -0.5)",cs_pos_ns,"(0.7, 0.5)",cs_pos_s,0,0,0,0,,,,,,,,,,,,,,,,,,,,,1,12,36,15,,,,,,,,,,,,,,,,,,,,,,,,,,,279,reward,,,,,,1257.722646499984,1257.722646499984,1257.722646499984,1257.722646499984,0,,,0,,,0,,,1,0.02867810009047389,0.254475399851799,1258.4795700996183,1258.4795700996183,1258.4795700996183,1258.4795700996183,7,C,2024-04-17_10h18.12.808,attentional_competition_task,2022.2.4,144.02083079506562,
positions.xlsx,positions_test.xlsx,positions_test_new.xlsx,stimuli.xlsx,stimuli_new.xlsx,stimuli/Social3.png,stimuli/Social4.png,stimuli/Nonsocial3.png,stimuli/Nonsocial4.png,stimuli/Social1.png,stimuli/Social2.png,stimuli/Nonsocial1.png,stimuli/Nonsocial2.png,,,"(-0.7, -0.5)",cs_neg_s,"(-0.7, 0.5)",cs_pos_s,"(0.7, -0.5)",cs_neg_ns,"(0.7, 0.5)",cs_pos_ns,0,0,0,0,,,,,,,,,,,,,,,,,,,,,1,13,37,0,,,,,,,,,,,,,,,,,,,,,,,,,,,279,loss,,,,,,1266.097304799594,1266.097304799594,1266.097304799594,1266.097304799594,1,0.029918599873781204,0.029922400135546923,0,,,0,,,0,,,1266.097304799594,1266.097304799594,1266.097304799594,1266.097304799594,7,C,2024-04-17_10h18.12.808,attentional_competition_task,2022.2.4,144.02083079506562,
positions.xlsx,positions_test.xlsx,positions_test_new.xlsx,stimuli.xlsx,stimuli_new.xlsx,stimuli/Social3.png,stimuli/Social4.png,stimuli/Nonsocial3.png,stimuli/Nonsocial4.png,stimuli/Social1.png,stimuli/Social2.png,stimuli/Nonsocial1.png,stimuli/Nonsocial2.png,,,"(-0.7, -0.5)",cs_pos_s,"(-0.7, 0.5)",cs_neg_s,"(0.7, -0.5)",cs_pos_ns,"(0.7, 0.5)",cs_neg_ns,0,0,0,0,,,,,,,,,,,,,,,,,,,,,1,14,38,7,,,,,,,,,,,,,,,,,,,,,,,,,,,288,reward,,,,,,1274.6177636999637,1274.6177636999637,1274.6177636999637,1274.6177636999637,0,,,0,,,1,0.030466000083833933,0.10766679979860783,0,,,1275.2219203999266,1275.2219203999266,1275.2219203999266,1275.2219203999266,7,C,2024-04-17_10h18.12.808,attentional_competition_task,2022.2.4,144.02083079506562,
positions.xlsx,positions_test.xlsx,positions_test_new.xlsx,stimuli.xlsx,stimuli_new.xlsx,stimuli/Social3.png,stimuli/Social4.png,stimuli/Nonsocial3.png,stimuli/Nonsocial4.png,stimuli/Social1.png,stimuli/Social2.png,stimuli/Nonsocial1.png,stimuli/Nonsocial2.png,,,"(-0.7, -0.5)",cs_pos_ns,"(-0.7, 0.5)",cs_neg_s,"(0.7, -0.5)",cs_pos_s,"(0.7, 0.5)",cs_neg_ns,0,0,0,0,,,,,,,,,,,,,,,,,,,,,1,15,39,22,,,,,,,,,,,,,,,,,,,,,,,,,,,291,reward,,,,,,1282.8396508996375,1282.8396508996375,1282.8396508996375,1282.8396508996375,0,,,0,,,1,0.028961800038814545,0.02896540006622672,0,,,1282.8396508996375,1282.8396508996375,1282.8396508996375,1282.8396508996375,7,C,2024-04-17_10h18.12.808,attentional_competition_task,2022.2.4,144.02083079506562,
positions.xlsx,positions_test.xlsx,positions_test_new.xlsx,stimuli.xlsx,stimuli_new.xlsx,stimuli/Social3.png,stimuli/Social4.png,stimuli/Nonsocial3.png,stimuli/Nonsocial4.png,stimuli/Social1.png,stimuli/Social2.png,stimuli/Nonsocial1.png,stimuli/Nonsocial2.png,,,"(-0.7, -0.5)",cs_neg_ns,"(-0.7, 0.5)",cs_pos_ns,"(0.7, -0.5)",cs_neg_s,"(0.7, 0.5)",cs_pos_s,0,0,0,0,,,,,,,,,,,,,,,,,,,,,1,16,40,17,,,,,,,,,,,,,,,,,,,,,,,,,,,294,loss,,,,,,1291.8740459997207,1291.8740459997207,1291.8740459997207,1291.8740459997207,1,0.12073470000177622,0.12073859991505742,1,0.02404619986191392,0.10715160006657243,0,,,0,,,1291.9990820996463,1291.9990820996463,1291.9990820996463,1291.9990820996463,7,C,2024-04-17_10h18.12.808,attentional_competition_task,2022.2.4,144.02083079506562,
positions.xlsx,positions_test.xlsx,positions_test_new.xlsx,stimuli.xlsx,stimuli_new.xlsx,stimuli/Social3.png,stimuli/Social4.png,stimuli/Nonsocial3.png,stimuli/Nonsocial4.png,stimuli/Social1.png,stimuli/Social2.png,stimuli/Nonsocial1.png,stimuli/Nonsocial2.png,,,"(-0.7, -0.5)",cs_pos_s,"(-0.7, 0.5)",cs_neg_ns,"(0.7, -0.5)",cs_pos_ns,"(0.7, 0.5)",cs_neg_s,0,0,0,0,,,,,,,,,,,,,,,,,,,,,1,17,41,9,,,,,,,,,,,,,,,,,,,,,,,,,,,303,reward,,,,,,1301.2000572998077,1301.2000572998077,1301.2000572998077,1301.2000572998077,1,0.023651400115340948,0.06659269984811544,0,,,0,,,0,,,1301.8041836000048,1301.8041836000048,1301.8041836000048,1301.8041836000048,7,C,2024-04-17_10h18.12.808,attentional_competition_task,2022.2.4,144.02083079506562,
positions.xlsx,positions_test.xlsx,positions_test_new.xlsx,stimuli.xlsx,stimuli_new.xlsx,stimuli/Social3.png,stimuli/Social4.png,stimuli/Nonsocial3.png,stimuli/Nonsocial4.png,stimuli/Social1.png,stimuli/Social2.png,stimuli/Nonsocial1.png,stimuli/Nonsocial2.png,,,"(-0.7, -0.5)",cs_neg_s,"(-0.7, 0.5)",cs_pos_ns,"(0.7, -0.5)",cs_pos_s,"(0.7, 0.5)",cs_neg_ns,0,0,0,0,,,,,,,,,,,,,,,,,,,,,1,18,42,4,,,,,,,,,,,,,,,,,,,,,,,,,,,303,loss,,,,,,1309.6788853998296,1309.6788853998296,1309.6788853998296,1309.6788853998296,1,0.0310674998909235,0.031071499921381474,0,,,0,,,0,,,1309.6788853998296,1309.6788853998296,1309.6788853998296,1309.6788853998296,7,C,2024-04-17_10h18.12.808,attentional_competition_task,2022.2.4,144.02083079506562,
positions.xlsx,positions_test.xlsx,positions_test_new.xlsx,stimuli.xlsx,stimuli_new.xlsx,stimuli/Social3.png,stimuli/Social4.png,stimuli/Nonsocial3.png,stimuli/Nonsocial4.png,stimuli/Social1.png,stimuli/Social2.png,stimuli/Nonsocial1.png,stimuli/Nonsocial2.png,,,"(-0.7, -0.5)",cs_neg_ns,"(-0.7, 0.5)",cs_pos_s,"(0.7, -0.5)",cs_pos_ns,"(0.7, 0.5)",cs_neg_s,0,0,0,0,,,,,,,,,,,,,,,,,,,,,1,19,43,13,,,,,,,,,,,,,,,,,,,,,,,,,,,312,reward,,,,,,1318.2063452997245,1318.2063452997245,1318.2063452997245,1318.2063452997245,0,,,1,0.02924450021237135,0.25205110013484955,0,,,0,,,1318.963261500001,1318.963261500001,1318.963261500001,1318.963261500001,7,C,2024-04-17_10h18.12.808,attentional_competition_task,2022.2.4,144.02083079506562,
positions.xlsx,positions_test.xlsx,positions_test_new.xlsx,stimuli.xlsx,stimuli_new.xlsx,stimuli/Social3.png,stimuli/Social4.png,stimuli/Nonsocial3.png,stimuli/Nonsocial4.png,stimuli/Social1.png,stimuli/Social2.png,stimuli/Nonsocial1.png,stimuli/Nonsocial2.png,,,"(-0.7, -0.5)",cs_neg_s,"(-0.7, 0.5)",cs_pos_s,"(0.7, -0.5)",cs_pos_ns,"(0.7, 0.5)",cs_neg_ns,0,0,0,0,,,,,,,,,,,,,,,,,,,,,1,20,44,1,,,,,,,,,,,,,,,,,,,,,,,,,,,321,reward,,,,,,1326.3866006997414,1326.3866006997414,1326.3866006997414,1326.3866006997414,0,,,0,,,1,0.025024499744176865,0.053169299848377705,0,,,1327.192092599813,1327.192092599813,1327.192092599813,1327.192092599813,7,C,2024-04-17_10h18.12.808,attentional_competition_task,2022.2.4,144.02083079506562,
positions.xlsx,positions_test.xlsx,positions_test_new.xlsx,stimuli.xlsx,stimuli_new.xlsx,stimuli/Social3.png,stimuli/Social4.png,stimuli/Nonsocial3.png,stimuli/Nonsocial4.png,stimuli/Social1.png,stimuli/Social2.png,stimuli/Nonsocial1.png,stimuli/Nonsocial2.png,,,"(-0.7, -0.5)",cs_pos_ns,"(-0.7, 0.5)",cs_pos_s,"(0.7, -0.5)",cs_neg_s,"(0.7, 0.5)",cs_neg_ns,0,0,0,0,,,,,,,,,,,,,,,,,,,,,1,21,45,19,,,,,,,,,,,,,,,,,,,,,,,,,,,330,reward,,,,,,1334.8306392999366,1334.8306392999366,1334.8306392999366,1334.8306392999366,1,0.029483200050890446,0.1273270002566278,0,,,0,,,0,,,1335.4556289999746,1335.4556289999746,1335.4556289999746,1335.4556289999746,7,C,2024-04-17_10h18.12.808,attentional_competition_task,2022.2.4,144.02083079506562,
positions.xlsx,positions_test.xlsx,positions_test_new.xlsx,stimuli.xlsx,stimuli_new.xlsx,stimuli/Social3.png,stimuli/Social4.png,stimuli/Nonsocial3.png,stimuli/Nonsocial4.png,stimuli/Social1.png,stimuli/Social2.png,stimuli/Nonsocial1.png,stimuli/Nonsocial2.png,,,"(-0.7, -0.5)",cs_pos_ns,"(-0.7, 0.5)",cs_neg_ns,"(0.7, -0.5)",cs_neg_s,"(0.7, 0.5)",cs_pos_s,0,0,0,0,,,,,,,,,,,,,,,,,,,,,1,22,46,21,,,,,,,,,,,,,,,,,,,,,,,,,,,339,reward,,,,,,1343.1358587997966,1343.1358587997966,1343.1358587997966,1343.1358587997966,0,,,0,,,0,,,0,,,1344.0038897995837,1344.0038897995837,1344.0038897995837,1344.0038897995837,7,C,2024-04-17_10h18.12.808,attentional_competition_task,2022.2.4,144.02083079506562,
positions.xlsx,positions_test.xlsx,positions_test_new.xlsx,stimuli.xlsx,stimuli_new.xlsx,stimuli/Social3.png,stimuli/Social4.png,stimuli/Nonsocial3.png,stimuli/Nonsocial4.png,stimuli/Social1.png,stimuli/Social2.png,stimuli/Nonsocial1.png,stimuli/Nonsocial2.png,,,"(-0.7, -0.5)",cs_pos_ns,"(-0.7, 0.5)",cs_pos_s,"(0.7, -0.5)",cs_neg_ns,"(0.7, 0.5)",cs_neg_s,0,0,0,0,,,,,,,,,,,,,,,,,,,,,1,23,47,18,,,,,,,,,,,,,,,,,,,,,,,,,,,348,reward,,,,,,1351.420273500029,1351.420273500029,1351.420273500029,1351.420273500029,0,,,1,0.024218800012022257,0.2262625996954739,0,,,0,,,1352.1494223000482,1352.1494223000482,1352.1494223000482,1352.1494223000482,7,C,2024-04-17_10h18.12.808,attentional_competition_task,2022.2.4,144.02083079506562,
positions.xlsx,positions_test.xlsx,positions_test_new.xlsx,stimuli.xlsx,stimuli_new.xlsx,stimuli/Social3.png,stimuli/Social4.png,stimuli/Nonsocial3.png,stimuli/Nonsocial4.png,stimuli/Social1.png,stimuli/Social2.png,stimuli/Nonsocial1.png,stimuli/Nonsocial2.png,,,"(-0.7, -0.5)",cs_neg_s,"(-0.7, 0.5)",cs_neg_ns_new,"(0.7, -0.5)",cs_pos_ns,"(0.7, 0.5)",cs_pos_s,0,0,0,0,,,,,,,,,,,,,,,,,,,,,,,,,,,,,0,0,0,19,0,0,0,0,,,,,,,,,,,,,,,351,reward,,,,,,1358.5449739997275,1358.5449739997275,1358.5449739997275,1358.5449739997275,0,,,0,,,1,0.5660524996928871,0.5660562999546528,0,,,1359.1144594997168,1359.1144594997168,1359.1144594997168,1359.1144594997168,7,C,2024-04-17_10h18.12.808,attentional_competition_task,2022.2.4,144.02083079506562,
positions.xlsx,positions_test.xlsx,positions_test_new.xlsx,stimuli.xlsx,stimuli_new.xlsx,stimuli/Social3.png,stimuli/Social4.png,stimuli/Nonsocial3.png,stimuli/Nonsocial4.png,stimuli/Social1.png,stimuli/Social2.png,stimuli/Nonsocial1.png,stimuli/Nonsocial2.png,,,"(-0.7, -0.5)",cs_neg_s,"(-0.7, 0.5)",cs_neg_ns_new,"(0.7, -0.5)",cs_pos_ns,"(0.7, 0.5)",cs_pos_s,0,0,0,0,,,,,,,,,,,,,,,,,,,,,,,,,,,,,0,0,0,19,1,0,1,0,,,,,,,,,,,,,,,354,reward,,,,,,1359.64911150001,1359.64911150001,1359.64911150001,1359.64911150001,0,,,0,,,0,,,1,0.03058579983189702,0.030590100213885307,1359.64911150001,1359.64911150001,1359.64911150001,1359.64911150001,7,C,2024-04-17_10h18.12.808,attentional_competition_task,2022.2.4,144.02083079506562,
positions.xlsx,positions_test.xlsx,positions_test_new.xlsx,stimuli.xlsx,stimuli_new.xlsx,stimuli/Social3.png,stimuli/Social4.png,stimuli/Nonsocial3.png,stimuli/Nonsocial4.png,stimuli/Social1.png,stimuli/Social2.png,stimuli/Nonsocial1.png,stimuli/Nonsocial2.png,,,"(-0.7, -0.5)",cs_neg_s,"(-0.7, 0.5)",cs_neg_ns_new,"(0.7, -0.5)",cs_pos_ns,"(0.7, 0.5)",cs_pos_s,0,0,0,0,,,,,,,,,,,,,,,,,,,,,,,,,,,,,0,0,0,19,2,0,2,0,,,,,,,,,,,,,,,357,reward,,,,,,1360.156039299909,1360.156039299909,1360.156039299909,1360.156039299909,0,,,0,,,0,,,0,,,1361.05879619997,1361.05879619997,1361.05879619997,1361.05879619997,7,C,2024-04-17_10h18.12.808,attentional_competition_task,2022.2.4,144.02083079506562,
positions.xlsx,positions_test.xlsx,positions_test_new.xlsx,stimuli.xlsx,stimuli_new.xlsx,stimuli/Social3.png,stimuli/Social4.png,stimuli/Nonsocial3.png,stimuli/Nonsocial4.png,stimuli/Social1.png,stimuli/Social2.png,stimuli/Nonsocial1.png,stimuli/Nonsocial2.png,,,"(-0.7, -0.5)",cs_neg_s,"(-0.7, 0.5)",cs_neg_ns_new,"(0.7, -0.5)",cs_pos_ns,"(0.7, 0.5)",cs_pos_s,0,0,0,0,,,,,,,,,,,,,,,,,,,,,,,,,,,,,0,0,0,19,,,,,,,,,,,,,,,,,,,,,,,,,,,,,,,,,,,,,,,,,,,,,,7,C,2024-04-17_10h18.12.808,attentional_competition_task,2022.2.4,144.02083079506562,
positions.xlsx,positions_test.xlsx,positions_test_new.xlsx,stimuli.xlsx,stimuli_new.xlsx,stimuli/Social3.png,stimuli/Social4.png,stimuli/Nonsocial3.png,stimuli/Nonsocial4.png,stimuli/Social1.png,stimuli/Social2.png,stimuli/Nonsocial1.png,stimuli/Nonsocial2.png,,,"(-0.7, -0.5)",cs_neg_s,"(-0.7, 0.5)",cs_neg_ns,"(0.7, -0.5)",cs_pos_s_new,"(0.7, 0.5)",cs_pos_ns,0,0,0,0,,,,,,,,,,,,,,,,,,,,,,,,,,,,,0,1,1,37,0,0,0,0,,,,,,,,,,,,,,,360,reward,,,,,,1367.0585566000082,1367.0585566000082,1367.0585566000082,1367.0585566000082,0,,,0,,,0,,,1,0.6766274999827147,0.6766308997757733,1367.7391284997575,1367.7391284997575,1367.7391284997575,1367.7391284997575,7,C,2024-04-17_10h18.12.808,attentional_competition_task,2022.2.4,144.02083079506562,
positions.xlsx,positions_test.xlsx,positions_test_new.xlsx,stimuli.xlsx,stimuli_new.xlsx,stimuli/Social3.png,stimuli/Social4.png,stimuli/Nonsocial3.png,stimuli/Nonsocial4.png,stimuli/Social1.png,stimuli/Social2.png,stimuli/Nonsocial1.png,stimuli/Nonsocial2.png,,,"(-0.7, -0.5)",cs_neg_s,"(-0.7, 0.5)",cs_neg_ns,"(0.7, -0.5)",cs_pos_s_new,"(0.7, 0.5)",cs_pos_ns,0,0,0,0,,,,,,,,,,,,,,,,,,,,,,,,,,,,,0,1,1,37,1,0,1,0,,,,,,,,,,,,,,,363,reward,,,,,,1368.2738279998302,1368.2738279998302,1368.2738279998302,1368.2738279998302,0,,,0,,,1,0.030272900126874447,0.030276599805802107,0,,,1368.2738279998302,1368.2738279998302,1368.2738279998302,1368.2738279998302,7,C,2024-04-17_10h18.12.808,attentional_competition_task,2022.2.4,144.02083079506562,
positions.xlsx,positions_test.xlsx,positions_test_new.xlsx,stimuli.xlsx,stimuli_new.xlsx,stimuli/Social3.png,stimuli/Social4.png,stimuli/Nonsocial3.png,stimuli/Nonsocial4.png,stimuli/Social1.png,stimuli/Social2.png,stimuli/Nonsocial1.png,stimuli/Nonsocial2.png,,,"(-0.7, -0.5)",cs_neg_s,"(-0.7, 0.5)",cs_neg_ns,"(0.7, -0.5)",cs_pos_s_new,"(0.7, 0.5)",cs_pos_ns,0,0,0,0,,,,,,,,,,,,,,,,,,,,,,,,,,,,,0,1,1,37,2,0,2,0,,,,,,,,,,,,,,,360,loss,,,,,,1368.8084498997778,1368.8084498997778,1368.8084498997778,1368.8084498997778,1,0.030727699864655733,0.03073129989206791,0,,,0,,,0,,,1368.8084498997778,1368.8084498997778,1368.8084498997778,1368.8084498997778,7,C,2024-04-17_10h18.12.808,attentional_competition_task,2022.2.4,144.02083079506562,
positions.xlsx,positions_test.xlsx,positions_test_new.xlsx,stimuli.xlsx,stimuli_new.xlsx,stimuli/Social3.png,stimuli/Social4.png,stimuli/Nonsocial3.png,stimuli/Nonsocial4.png,stimuli/Social1.png,stimuli/Social2.png,stimuli/Nonsocial1.png,stimuli/Nonsocial2.png,,,"(-0.7, -0.5)",cs_neg_s,"(-0.7, 0.5)",cs_neg_ns,"(0.7, -0.5)",cs_pos_s_new,"(0.7, 0.5)",cs_pos_ns,0,0,0,0,,,,,,,,,,,,,,,,,,,,,,,,,,,,,0,1,1,37,,,,,,,,,,,,,,,,,,,,,,,,,,,,,,,,,,,,,,,,,,,,,,7,C,2024-04-17_10h18.12.808,attentional_competition_task,2022.2.4,144.02083079506562,
positions.xlsx,positions_test.xlsx,positions_test_new.xlsx,stimuli.xlsx,stimuli_new.xlsx,stimuli/Social3.png,stimuli/Social4.png,stimuli/Nonsocial3.png,stimuli/Nonsocial4.png,stimuli/Social1.png,stimuli/Social2.png,stimuli/Nonsocial1.png,stimuli/Nonsocial2.png,,,"(-0.7, -0.5)",cs_pos_ns_new,"(-0.7, 0.5)",cs_pos_s,"(0.7, -0.5)",cs_neg_s,"(0.7, 0.5)",cs_neg_ns,0,0,0,0,,,,,,,,,,,,,,,,,,,,,,,,,,,,,0,2,2,43,0,0,0,0,,,,,,,,,,,,,,,357,loss,,,,,,1376.0165613000281,1376.0165613000281,1376.0165613000281,1376.0165613000281,0,,,0,,,1,0.7941192002035677,0.8014628002420068,0,,,1376.822061599698,1376.822061599698,1376.822061599698,1376.822061599698,7,C,2024-04-17_10h18.12.808,attentional_competition_task,2022.2.4,144.02083079506562,
positions.xlsx,positions_test.xlsx,positions_test_new.xlsx,stimuli.xlsx,stimuli_new.xlsx,stimuli/Social3.png,stimuli/Social4.png,stimuli/Nonsocial3.png,stimuli/Nonsocial4.png,stimuli/Social1.png,stimuli/Social2.png,stimuli/Nonsocial1.png,stimuli/Nonsocial2.png,,,"(-0.7, -0.5)",cs_pos_ns_new,"(-0.7, 0.5)",cs_pos_s,"(0.7, -0.5)",cs_neg_s,"(0.7, 0.5)",cs_neg_ns,0,0,0,0,,,,,,,,,,,,,,,,,,,,,,,,,,,,,0,2,2,43,1,0,1,0,,,,,,,,,,,,,,,360,reward,,,,,,1377.3290382996202,1377.3290382996202,1377.3290382996202,1377.3290382996202,0,,,1,0.10024870000779629,0.10025430005043745,0,,,0,,,1377.4331462997943,1377.4331462997943,1377.4331462997943,1377.4331462997943,7,C,2024-04-17_10h18.12.808,attentional_competition_task,2022.2.4,144.02083079506562,
positions.xlsx,positions_test.xlsx,positions_test_new.xlsx,stimuli.xlsx,stimuli_new.xlsx,stimuli/Social3.png,stimuli/Social4.png,stimuli/Nonsocial3.png,stimuli/Nonsocial4.png,stimuli/Social1.png,stimuli/Social2.png,stimuli/Nonsocial1.png,stimuli/Nonsocial2.png,,,"(-0.7, -0.5)",cs_pos_ns_new,"(-0.7, 0.5)",cs_pos_s,"(0.7, -0.5)",cs_neg_s,"(0.7, 0.5)",cs_neg_ns,0,0,0,0,,,,,,,,,,,,,,,,,,,,,,,,,,,,,0,2,2,43,2,0,2,0,,,,,,,,,,,,,,,363,reward,,,,,,1377.960903099738,1377.960903099738,1377.960903099738,1377.960903099738,1,0.024366899859160185,0.024370600003749132,0,,,0,,,0,,,1377.960903099738,1377.960903099738,1377.960903099738,1377.960903099738,7,C,2024-04-17_10h18.12.808,attentional_competition_task,2022.2.4,144.02083079506562,
positions.xlsx,positions_test.xlsx,positions_test_new.xlsx,stimuli.xlsx,stimuli_new.xlsx,stimuli/Social3.png,stimuli/Social4.png,stimuli/Nonsocial3.png,stimuli/Nonsocial4.png,stimuli/Social1.png,stimuli/Social2.png,stimuli/Nonsocial1.png,stimuli/Nonsocial2.png,,,"(-0.7, -0.5)",cs_pos_ns_new,"(-0.7, 0.5)",cs_pos_s,"(0.7, -0.5)",cs_neg_s,"(0.7, 0.5)",cs_neg_ns,0,0,0,0,,,,,,,,,,,,,,,,,,,,,,,,,,,,,0,2,2,43,,,,,,,,,,,,,,,,,,,,,,,,,,,,,,,,,,,,,,,,,,,,,,7,C,2024-04-17_10h18.12.808,attentional_competition_task,2022.2.4,144.02083079506562,
positions.xlsx,positions_test.xlsx,positions_test_new.xlsx,stimuli.xlsx,stimuli_new.xlsx,stimuli/Social3.png,stimuli/Social4.png,stimuli/Nonsocial3.png,stimuli/Nonsocial4.png,stimuli/Social1.png,stimuli/Social2.png,stimuli/Nonsocial1.png,stimuli/Nonsocial2.png,,,"(-0.7, -0.5)",cs_neg_s,"(-0.7, 0.5)",cs_neg_ns,"(0.7, -0.5)",cs_pos_s,"(0.7, 0.5)",cs_pos_ns_new,0,0,0,0,,,,,,,,,,,,,,,,,,,,,,,,,,,,,0,3,3,42,0,0,0,0,,,,,,,,,,,,,,,366,reward,,,,,,1384.550907799974,1384.550907799974,1384.550907799974,1384.550907799974,0,,,0,,,0,,,1,0.801402899902314,0.8014064999297261,1385.3564641997218,1385.3564641997218,1385.3564641997218,1385.3564641997218,7,C,2024-04-17_10h18.12.808,attentional_competition_task,2022.2.4,144.02083079506562,
positions.xlsx,positions_test.xlsx,positions_test_new.xlsx,stimuli.xlsx,stimuli_new.xlsx,stimuli/Social3.png,stimuli/Social4.png,stimuli/Nonsocial3.png,stimuli/Nonsocial4.png,stimuli/Social1.png,stimuli/Social2.png,stimuli/Nonsocial1.png,stimuli/Nonsocial2.png,,,"(-0.7, -0.5)",cs_neg_s,"(-0.7, 0.5)",cs_neg_ns,"(0.7, -0.5)",cs_pos_s,"(0.7, 0.5)",cs_pos_ns_new,0,0,0,0,,,,,,,,,,,,,,,,,,,,,,,,,,,,,0,3,3,42,1,0,1,0,,,,,,,,,,,,,,,369,reward,,,,,,1385.891165100038,1385.891165100038,1385.891165100038,1385.891165100038,0,,,0,,,1,0.030329800210893154,0.03033330012112856,0,,,1385.891165100038,1385.891165100038,1385.891165100038,1385.891165100038,7,C,2024-04-17_10h18.12.808,attentional_competition_task,2022.2.4,144.02083079506562,
positions.xlsx,positions_test.xlsx,positions_test_new.xlsx,stimuli.xlsx,stimuli_new.xlsx,stimuli/Social3.png,stimuli/Social4.png,stimuli/Nonsocial3.png,stimuli/Nonsocial4.png,stimuli/Social1.png,stimuli/Social2.png,stimuli/Nonsocial1.png,stimuli/Nonsocial2.png,,,"(-0.7, -0.5)",cs_neg_s,"(-0.7, 0.5)",cs_neg_ns,"(0.7, -0.5)",cs_pos_s,"(0.7, 0.5)",cs_pos_ns_new,0,0,0,0,,,,,,,,,,,,,,,,,,,,,,,,,,,,,0,3,3,42,2,0,2,0,,,,,,,,,,,,,,,366,loss,,,,,,1386.418894900009,1386.418894900009,1386.418894900009,1386.418894900009,1,0.02957790018990636,0.02958159986883402,0,,,0,,,0,,,1386.418894900009,1386.418894900009,1386.418894900009,1386.418894900009,7,C,2024-04-17_10h18.12.808,attentional_competition_task,2022.2.4,144.02083079506562,
positions.xlsx,positions_test.xlsx,positions_test_new.xlsx,stimuli.xlsx,stimuli_new.xlsx,stimuli/Social3.png,stimuli/Social4.png,stimuli/Nonsocial3.png,stimuli/Nonsocial4.png,stimuli/Social1.png,stimuli/Social2.png,stimuli/Nonsocial1.png,stimuli/Nonsocial2.png,,,"(-0.7, -0.5)",cs_neg_s,"(-0.7, 0.5)",cs_neg_ns,"(0.7, -0.5)",cs_pos_s,"(0.7, 0.5)",cs_pos_ns_new,0,0,0,0,,,,,,,,,,,,,,,,,,,,,,,,,,,,,0,3,3,42,,,,,,,,,,,,,,,,,,,,,,,,,,,,,,,,,,,,,,,,,,,,,,7,C,2024-04-17_10h18.12.808,attentional_competition_task,2022.2.4,144.02083079506562,
positions.xlsx,positions_test.xlsx,positions_test_new.xlsx,stimuli.xlsx,stimuli_new.xlsx,stimuli/Social3.png,stimuli/Social4.png,stimuli/Nonsocial3.png,stimuli/Nonsocial4.png,stimuli/Social1.png,stimuli/Social2.png,stimuli/Nonsocial1.png,stimuli/Nonsocial2.png,,,"(-0.7, -0.5)",cs_neg_ns,"(-0.7, 0.5)",cs_pos_s,"(0.7, -0.5)",cs_neg_s,"(0.7, 0.5)",cs_pos_ns_new,0,0,0,0,,,,,,,,,,,,,,,,,,,,,,,,,,,,,0,4,4,41,0,0,0,0,,,,,,,,,,,,,,,369,reward,,,,,,1393.1616752999835,1393.1616752999835,1393.1616752999835,1393.1616752999835,0,,,0,,,0,,,1,0.5653387000784278,0.5653424002230167,1393.7311549000442,1393.7311549000442,1393.7311549000442,1393.7311549000442,7,C,2024-04-17_10h18.12.808,attentional_competition_task,2022.2.4,144.02083079506562,
positions.xlsx,positions_test.xlsx,positions_test_new.xlsx,stimuli.xlsx,stimuli_new.xlsx,stimuli/Social3.png,stimuli/Social4.png,stimuli/Nonsocial3.png,stimuli/Nonsocial4.png,stimuli/Social1.png,stimuli/Social2.png,stimuli/Nonsocial1.png,stimuli/Nonsocial2.png,,,"(-0.7, -0.5)",cs_neg_ns,"(-0.7, 0.5)",cs_pos_s,"(0.7, -0.5)",cs_neg_s,"(0.7, 0.5)",cs_pos_ns_new,0,0,0,0,,,,,,,,,,,,,,,,,,,,,,,,,,,,,0,4,4,41,1,0,1,0,,,,,,,,,,,,,,,366,loss,,,,,,1394.265847499948,1394.265847499948,1394.265847499948,1394.265847499948,0,,,0,,,1,0.029370800126343966,0.029374499805271626,0,,,1394.265847499948,1394.265847499948,1394.265847499948,1394.265847499948,7,C,2024-04-17_10h18.12.808,attentional_competition_task,2022.2.4,144.02083079506562,
positions.xlsx,positions_test.xlsx,positions_test_new.xlsx,stimuli.xlsx,stimuli_new.xlsx,stimuli/Social3.png,stimuli/Social4.png,stimuli/Nonsocial3.png,stimuli/Nonsocial4.png,stimuli/Social1.png,stimuli/Social2.png,stimuli/Nonsocial1.png,stimuli/Nonsocial2.png,,,"(-0.7, -0.5)",cs_neg_ns,"(-0.7, 0.5)",cs_pos_s,"(0.7, -0.5)",cs_neg_s,"(0.7, 0.5)",cs_pos_ns_new,0,0,0,0,,,,,,,,,,,,,,,,,,,,,,,,,,,,,0,4,4,41,2,0,2,0,,,,,,,,,,,,,,,363,loss,,,,,,1394.8005074998364,1394.8005074998364,1394.8005074998364,1394.8005074998364,1,0.029435199685394764,0.02943879971280694,0,,,0,,,0,,,1394.8005074998364,1394.8005074998364,1394.8005074998364,1394.8005074998364,7,C,2024-04-17_10h18.12.808,attentional_competition_task,2022.2.4,144.02083079506562,
positions.xlsx,positions_test.xlsx,positions_test_new.xlsx,stimuli.xlsx,stimuli_new.xlsx,stimuli/Social3.png,stimuli/Social4.png,stimuli/Nonsocial3.png,stimuli/Nonsocial4.png,stimuli/Social1.png,stimuli/Social2.png,stimuli/Nonsocial1.png,stimuli/Nonsocial2.png,,,"(-0.7, -0.5)",cs_neg_ns,"(-0.7, 0.5)",cs_pos_s,"(0.7, -0.5)",cs_neg_s,"(0.7, 0.5)",cs_pos_ns_new,0,0,0,0,,,,,,,,,,,,,,,,,,,,,,,,,,,,,0,4,4,41,,,,,,,,,,,,,,,,,,,,,,,,,,,,,,,,,,,,,,,,,,,,,,7,C,2024-04-17_10h18.12.808,attentional_competition_task,2022.2.4,144.02083079506562,
positions.xlsx,positions_test.xlsx,positions_test_new.xlsx,stimuli.xlsx,stimuli_new.xlsx,stimuli/Social3.png,stimuli/Social4.png,stimuli/Nonsocial3.png,stimuli/Nonsocial4.png,stimuli/Social1.png,stimuli/Social2.png,stimuli/Nonsocial1.png,stimuli/Nonsocial2.png,,,"(-0.7, -0.5)",cs_neg_ns,"(-0.7, 0.5)",cs_pos_s,"(0.7, -0.5)",cs_neg_s,"(0.7, 0.5)",cs_pos_ns,0,0,0,0,,,,,,,,,,,,,,,,,,,,,,,,,,,,,0,5,5,4,0,0,0,0,,,,,,,,,,,,,,,366,reward,,,,,,1401.3974595000036,1401.3974595000036,1401.3974595000036,1401.3974595000036,0,,,1,1.3004692997783422,1.3074226998724043,0,,,0,,,1402.7098861997947,1402.7098861997947,1402.7098861997947,1402.7098861997947,7,C,2024-04-17_10h18.12.808,attentional_competition_task,2022.2.4,144.02083079506562,
positions.xlsx,positions_test.xlsx,positions_test_new.xlsx,stimuli.xlsx,stimuli_new.xlsx,stimuli/Social3.png,stimuli/Social4.png,stimuli/Nonsocial3.png,stimuli/Nonsocial4.png,stimuli/Social1.png,stimuli/Social2.png,stimuli/Nonsocial1.png,stimuli/Nonsocial2.png,,,"(-0.7, -0.5)",cs_neg_ns,"(-0.7, 0.5)",cs_pos_s,"(0.7, -0.5)",cs_neg_s,"(0.7, 0.5)",cs_pos_ns,0,0,0,0,,,,,,,,,,,,,,,,,,,,,,,,,,,,,0,5,5,4,1,0,1,0,,,,,,,,,,,,,,,369,reward,,,,,,1403.2376538999379,1403.2376538999379,1403.2376538999379,1403.2376538999379,0,,,0,,,0,,,1,0.028391100000590086,0.028395299799740314,1403.2376538999379,1403.2376538999379,1403.2376538999379,1403.2376538999379,7,C,2024-04-17_10h18.12.808,attentional_competition_task,2022.2.4,144.02083079506562,
positions.xlsx,positions_test.xlsx,positions_test_new.xlsx,stimuli.xlsx,stimuli_new.xlsx,stimuli/Social3.png,stimuli/Social4.png,stimuli/Nonsocial3.png,stimuli/Nonsocial4.png,stimuli/Social1.png,stimuli/Social2.png,stimuli/Nonsocial1.png,stimuli/Nonsocial2.png,,,"(-0.7, -0.5)",cs_neg_ns,"(-0.7, 0.5)",cs_pos_s,"(0.7, -0.5)",cs_neg_s,"(0.7, 0.5)",cs_pos_ns,0,0,0,0,,,,,,,,,,,,,,,,,,,,,,,,,,,,,0,5,5,4,,,,,,,,,,,,,,,,,,,,,,,,,,,,,,,,,,,,,,,,,,,,,,7,C,2024-04-17_10h18.12.808,attentional_competition_task,2022.2.4,144.02083079506562,
positions.xlsx,positions_test.xlsx,positions_test_new.xlsx,stimuli.xlsx,stimuli_new.xlsx,stimuli/Social3.png,stimuli/Social4.png,stimuli/Nonsocial3.png,stimuli/Nonsocial4.png,stimuli/Social1.png,stimuli/Social2.png,stimuli/Nonsocial1.png,stimuli/Nonsocial2.png,,,"(-0.7, -0.5)",cs_neg_s_new,"(-0.7, 0.5)",cs_pos_ns,"(0.7, -0.5)",cs_neg_ns,"(0.7, 0.5)",cs_pos_s,0,0,0,0,,,,,,,,,,,,,,,,,,,,,,,,,,,,,0,6,6,9,0,0,0,0,,,,,,,,,,,,,,,372,reward,,,,,,1410.3971195998602,1410.3971195998602,1410.3971195998602,1410.3971195998602,0,,,0,,,0,,,1,0.7737425002269447,0.7737457999028265,1411.1748944995925,1411.1748944995925,1411.1748944995925,1411.1748944995925,7,C,2024-04-17_10h18.12.808,attentional_competition_task,2022.2.4,144.02083079506562,
positions.xlsx,positions_test.xlsx,positions_test_new.xlsx,stimuli.xlsx,stimuli_new.xlsx,stimuli/Social3.png,stimuli/Social4.png,stimuli/Nonsocial3.png,stimuli/Nonsocial4.png,stimuli/Social1.png,stimuli/Social2.png,stimuli/Nonsocial1.png,stimuli/Nonsocial2.png,,,"(-0.7, -0.5)",cs_neg_s_new,"(-0.7, 0.5)",cs_pos_ns,"(0.7, -0.5)",cs_neg_ns,"(0.7, 0.5)",cs_pos_s,0,0,0,0,,,,,,,,,,,,,,,,,,,,,,,,,,,,,0,6,6,9,1,0,1,0,,,,,,,,,,,,,,,375,reward,,,,,,1411.7165689999238,1411.7165689999238,1411.7165689999238,1411.7165689999238,0,,,1,0.033008300233632326,0.03301239991560578,0,,,0,,,1411.7165689999238,1411.7165689999238,1411.7165689999238,1411.7165689999238,7,C,2024-04-17_10h18.12.808,attentional_competition_task,2022.2.4,144.02083079506562,
positions.xlsx,positions_test.xlsx,positions_test_new.xlsx,stimuli.xlsx,stimuli_new.xlsx,stimuli/Social3.png,stimuli/Social4.png,stimuli/Nonsocial3.png,stimuli/Nonsocial4.png,stimuli/Social1.png,stimuli/Social2.png,stimuli/Nonsocial1.png,stimuli/Nonsocial2.png,,,"(-0.7, -0.5)",cs_neg_s_new,"(-0.7, 0.5)",cs_pos_ns,"(0.7, -0.5)",cs_neg_ns,"(0.7, 0.5)",cs_pos_s,0,0,0,0,,,,,,,,,,,,,,,,,,,,,,,,,,,,,0,6,6,9,2,0,2,0,,,,,,,,,,,,,,,372,loss,,,,,,1412.2164440997876,1412.2164440997876,1412.2164440997876,1412.2164440997876,1,0.03945700032636523,0.039460800122469664,0,,,0,,,0,,,1412.2581207999028,1412.2581207999028,1412.2581207999028,1412.2581207999028,7,C,2024-04-17_10h18.12.808,attentional_competition_task,2022.2.4,144.02083079506562,
positions.xlsx,positions_test.xlsx,positions_test_new.xlsx,stimuli.xlsx,stimuli_new.xlsx,stimuli/Social3.png,stimuli/Social4.png,stimuli/Nonsocial3.png,stimuli/Nonsocial4.png,stimuli/Social1.png,stimuli/Social2.png,stimuli/Nonsocial1.png,stimuli/Nonsocial2.png,,,"(-0.7, -0.5)",cs_neg_s_new,"(-0.7, 0.5)",cs_pos_ns,"(0.7, -0.5)",cs_neg_ns,"(0.7, 0.5)",cs_pos_s,0,0,0,0,,,,,,,,,,,,,,,,,,,,,,,,,,,,,0,6,6,9,,,,,,,,,,,,,,,,,,,,,,,,,,,,,,,,,,,,,,,,,,,,,,7,C,2024-04-17_10h18.12.808,attentional_competition_task,2022.2.4,144.02083079506562,
positions.xlsx,positions_test.xlsx,positions_test_new.xlsx,stimuli.xlsx,stimuli_new.xlsx,stimuli/Social3.png,stimuli/Social4.png,stimuli/Nonsocial3.png,stimuli/Nonsocial4.png,stimuli/Social1.png,stimuli/Social2.png,stimuli/Nonsocial1.png,stimuli/Nonsocial2.png,,,"(-0.7, -0.5)",cs_neg_ns_new,"(-0.7, 0.5)",cs_pos_s,"(0.7, -0.5)",cs_neg_s,"(0.7, 0.5)",cs_pos_ns,0,0,0,0,,,,,,,,,,,,,,,,,,,,,,,,,,,,,0,7,7,21,0,0,0,0,,,,,,,,,,,,,,,375,reward,,,,,,1419.3342540999874,1419.3342540999874,1419.3342540999874,1419.3342540999874,0,,,0,,,0,,,1,0.7600799999199808,0.7600831999443471,1420.0981121999212,1420.0981121999212,1420.0981121999212,1420.0981121999212,7,C,2024-04-17_10h18.12.808,attentional_competition_task,2022.2.4,144.02083079506562,
positions.xlsx,positions_test.xlsx,positions_test_new.xlsx,stimuli.xlsx,stimuli_new.xlsx,stimuli/Social3.png,stimuli/Social4.png,stimuli/Nonsocial3.png,stimuli/Nonsocial4.png,stimuli/Social1.png,stimuli/Social2.png,stimuli/Nonsocial1.png,stimuli/Nonsocial2.png,,,"(-0.7, -0.5)",cs_neg_ns_new,"(-0.7, 0.5)",cs_pos_s,"(0.7, -0.5)",cs_neg_s,"(0.7, 0.5)",cs_pos_ns,0,0,0,0,,,,,,,,,,,,,,,,,,,,,,,,,,,,,0,7,7,21,1,0,1,0,,,,,,,,,,,,,,,372,loss,,,,,,1420.6328105996363,1420.6328105996363,1420.6328105996363,1420.6328105996363,0,,,0,,,1,0.03179150028154254,0.03179540019482374,0,,,1420.6328105996363,1420.6328105996363,1420.6328105996363,1420.6328105996363,7,C,2024-04-17_10h18.12.808,attentional_competition_task,2022.2.4,144.02083079506562,
positions.xlsx,positions_test.xlsx,positions_test_new.xlsx,stimuli.xlsx,stimuli_new.xlsx,stimuli/Social3.png,stimuli/Social4.png,stimuli/Nonsocial3.png,stimuli/Nonsocial4.png,stimuli/Social1.png,stimuli/Social2.png,stimuli/Nonsocial1.png,stimuli/Nonsocial2.png,,,"(-0.7, -0.5)",cs_neg_ns_new,"(-0.7, 0.5)",cs_pos_s,"(0.7, -0.5)",cs_neg_s,"(0.7, 0.5)",cs_pos_ns,0,0,0,0,,,,,,,,,,,,,,,,,,,,,,,,,,,,,0,7,7,21,2,0,2,0,,,,,,,,,,,,,,,369,loss,,,,,,1421.167576099746,1421.167576099746,1421.167576099746,1421.167576099746,1,0.028671099804341793,0.028674999717622995,0,,,0,,,0,,,1421.167576099746,1421.167576099746,1421.167576099746,1421.167576099746,7,C,2024-04-17_10h18.12.808,attentional_competition_task,2022.2.4,144.02083079506562,
positions.xlsx,positions_test.xlsx,positions_test_new.xlsx,stimuli.xlsx,stimuli_new.xlsx,stimuli/Social3.png,stimuli/Social4.png,stimuli/Nonsocial3.png,stimuli/Nonsocial4.png,stimuli/Social1.png,stimuli/Social2.png,stimuli/Nonsocial1.png,stimuli/Nonsocial2.png,,,"(-0.7, -0.5)",cs_neg_ns_new,"(-0.7, 0.5)",cs_pos_s,"(0.7, -0.5)",cs_neg_s,"(0.7, 0.5)",cs_pos_ns,0,0,0,0,,,,,,,,,,,,,,,,,,,,,,,,,,,,,0,7,7,21,,,,,,,,,,,,,,,,,,,,,,,,,,,,,,,,,,,,,,,,,,,,,,7,C,2024-04-17_10h18.12.808,attentional_competition_task,2022.2.4,144.02083079506562,
positions.xlsx,positions_test.xlsx,positions_test_new.xlsx,stimuli.xlsx,stimuli_new.xlsx,stimuli/Social3.png,stimuli/Social4.png,stimuli/Nonsocial3.png,stimuli/Nonsocial4.png,stimuli/Social1.png,stimuli/Social2.png,stimuli/Nonsocial1.png,stimuli/Nonsocial2.png,,,"(-0.7, -0.5)",cs_pos_s_new,"(-0.7, 0.5)",cs_neg_ns,"(0.7, -0.5)",cs_neg_s,"(0.7, 0.5)",cs_pos_ns,0,0,0,0,,,,,,,,,,,,,,,,,,,,,,,,,,,,,0,8,8,34,0,0,0,0,,,,,,,,,,,,,,,372,reward,,,,,,1427.6880772998556,1427.6880772998556,1427.6880772998556,1427.6880772998556,0,,,0,,,0,,,1,0.6277944999746978,0.6277978997677565,1428.313063299749,1428.313063299749,1428.313063299749,1428.313063299749,7,C,2024-04-17_10h18.12.808,attentional_competition_task,2022.2.4,144.02083079506562,
positions.xlsx,positions_test.xlsx,positions_test_new.xlsx,stimuli.xlsx,stimuli_new.xlsx,stimuli/Social3.png,stimuli/Social4.png,stimuli/Nonsocial3.png,stimuli/Nonsocial4.png,stimuli/Social1.png,stimuli/Social2.png,stimuli/Nonsocial1.png,stimuli/Nonsocial2.png,,,"(-0.7, -0.5)",cs_pos_s_new,"(-0.7, 0.5)",cs_neg_ns,"(0.7, -0.5)",cs_neg_s,"(0.7, 0.5)",cs_pos_ns,0,0,0,0,,,,,,,,,,,,,,,,,,,,,,,,,,,,,0,8,8,34,1,0,1,0,,,,,,,,,,,,,,,375,reward,,,,,,1428.8130482998677,1428.8130482998677,1428.8130482998677,1428.8130482998677,0,,,0,,,0,,,1,0.028946800157427788,0.11434700014069676,1430.1949897999875,1430.1949897999875,1430.1949897999875,1430.1949897999875,7,C,2024-04-17_10h18.12.808,attentional_competition_task,2022.2.4,144.02083079506562,
