posFile,posFileTest,posFileTestNew,stimFile,stimFileNew,cs_neg_s,cs_pos_s,cs_neg_ns,cs_pos_ns,cs_neg_s_new,cs_pos_s_new,cs_neg_ns_new,cs_pos_ns_new,stim,position,position1,stim1,position2,stim2,position3,stim3,position4,stim4,blocks.thisRepN,blocks.thisTrialN,blocks.thisN,blocks.thisIndex,ratingtrials1.thisRepN,ratingtrials1.thisTrialN,ratingtrials1.thisN,ratingtrials1.thisIndex,search_task_trials.thisRepN,search_task_trials.thisTrialN,search_task_trials.thisN,search_task_trials.thisIndex,learning_trials.thisRepN,learning_trials.thisTrialN,learning_trials.thisN,learning_trials.thisIndex,trials.thisRepN,trials.thisTrialN,trials.thisN,trials.thisIndex,ratingtrials2.thisRepN,ratingtrials2.thisTrialN,ratingtrials2.thisN,ratingtrials2.thisIndex,testtrials.thisRepN,testtrials.thisTrialN,testtrials.thisN,testtrials.thisIndex,loop_test.thisRepN,loop_test.thisTrialN,loop_test.thisN,loop_test.thisIndex,testtrials_novelty.thisRepN,testtrials_novelty.thisTrialN,testtrials_novelty.thisN,testtrials_novelty.thisIndex,loop_test_novelty.thisRepN,loop_test_novelty.thisTrialN,loop_test_novelty.thisN,loop_test_novelty.thisIndex,ratingtrials3.thisRepN,ratingtrials3.thisTrialN,ratingtrials3.thisN,ratingtrials3.thisIndex,textStart.started,textStartExp.started,imageRating.started,sliderStim.response,sliderStim.rt,textStartSearch.started,target_positions,distractor_positions,textStartTask.started,image.started,score,outcome,roi.numLooks,roi.timesOn,roi.timesOff,imageFeedback.started,textTestInstr.started,test_image1.started,test_image2.started,test_image3.started,test_image4.started,test_roi1.numLooks,test_roi1.timesOn,test_roi1.timesOff,test_roi2.numLooks,test_roi2.timesOn,test_roi2.timesOff,test_roi3.numLooks,test_roi3.timesOn,test_roi3.timesOff,test_roi4.numLooks,test_roi4.timesOn,test_roi4.timesOff,test_image_feedback1.started,test_image_feedback2.started,test_iamge_feedback3.started,test_iamge_feedback4.started,participant,group,date,expName,psychopyVersion,frameRate,
positions.xlsx,positions_test.xlsx,positions_test_new.xlsx,stimuli.xlsx,stimuli_new.xlsx,stimuli/Social3.png,stimuli/Social4.png,stimuli/Nonsocial3.png,stimuli/Nonsocial4.png,stimuli/Social1.png,stimuli/Social2.png,stimuli/Nonsocial1.png,stimuli/Nonsocial2.png,cs_pos_ns,,,,,,,,,,0,0,0,0,0,0,0,3,,,,,,,,,,,,,,,,,,,,,,,,,,,,,,,,,,,,,30.100887899752706,340.7542057996616,388.1547805997543,4.0,17.724505700170994,,,,,,,,,,,,,,,,,,,,,,,,,,,,,,,,,5,C,2024-04-16_10h50.48.633,attentional_competition_task,2022.2.4,144.00423898061953,
positions.xlsx,positions_test.xlsx,positions_test_new.xlsx,stimuli.xlsx,stimuli_new.xlsx,stimuli/Social3.png,stimuli/Social4.png,stimuli/Nonsocial3.png,stimuli/Nonsocial4.png,stimuli/Social1.png,stimuli/Social2.png,stimuli/Nonsocial1.png,stimuli/Nonsocial2.png,cs_neg_s,,,,,,,,,,0,0,0,0,0,1,1,0,,,,,,,,,,,,,,,,,,,,,,,,,,,,,,,,,,,,,,,406.5914894999005,3.0,4.593600200023502,,,,,,,,,,,,,,,,,,,,,,,,,,,,,,,,,5,C,2024-04-16_10h50.48.633,attentional_competition_task,2022.2.4,144.00423898061953,
positions.xlsx,positions_test.xlsx,positions_test_new.xlsx,stimuli.xlsx,stimuli_new.xlsx,stimuli/Social3.png,stimuli/Social4.png,stimuli/Nonsocial3.png,stimuli/Nonsocial4.png,stimuli/Social1.png,stimuli/Social2.png,stimuli/Nonsocial1.png,stimuli/Nonsocial2.png,cs_pos_s,,,,,,,,,,0,0,0,0,0,2,2,2,,,,,,,,,,,,,,,,,,,,,,,,,,,,,,,,,,,,,,,411.5079719000496,3.0,1.7714689001441002,,,,,,,,,,,,,,,,,,,,,,,,,,,,,,,,,5,C,2024-04-16_10h50.48.633,attentional_competition_task,2022.2.4,144.00423898061953,
positions.xlsx,positions_test.xlsx,positions_test_new.xlsx,stimuli.xlsx,stimuli_new.xlsx,stimuli/Social3.png,stimuli/Social4.png,stimuli/Nonsocial3.png,stimuli/Nonsocial4.png,stimuli/Social1.png,stimuli/Social2.png,stimuli/Nonsocial1.png,stimuli/Nonsocial2.png,cs_neg_ns,,,,,,,,,,0,0,0,0,0,3,3,1,,,,,,,,,,,,,,,,,,,,,,,,,,,,,,,,,,,,,,,413.5564914997667,5.0,7.6462745000608265,,,,,,,,,,,,,,,,,,,,,,,,,,,,,,,,,5,C,2024-04-16_10h50.48.633,attentional_competition_task,2022.2.4,144.00423898061953,
positions.xlsx,positions_test.xlsx,positions_test_new.xlsx,stimuli.xlsx,stimuli_new.xlsx,stimuli/Social3.png,stimuli/Social4.png,stimuli/Nonsocial3.png,stimuli/Nonsocial4.png,stimuli/Social1.png,stimuli/Social2.png,stimuli/Nonsocial1.png,stimuli/Nonsocial2.png,,,,,,,,,,,0,0,0,0,,,,,0,0,0,0,,,,,,,,,,,,,,,,,,,,,,,,,,,,,,,,,,,,,,421.46589839970693,"[[0.6749999999999999, -0.30000000000000004], [0.45000000000000007, -0.30000000000000004], [-0.22499999999999998, -0.8], [-0.45, 0.19999999999999996], [-0.675, -0.8], [-0.45, 0.7], [0.22499999999999998, -0.8], [0.6749999999999999, 0.7], [0.0, 0.7], [0.45000000000000007, 0.7], [-0.675, 0.7], [0.0, -0.30000000000000004], [0.9, -0.30000000000000004], [-0.45, -0.30000000000000004], [-0.675, -0.30000000000000004]]","[[0.0, -0.8], [0.22499999999999998, 0.19999999999999996], [0.6749999999999999, -0.8], [0.45000000000000007, -0.8], [0.45000000000000007, 0.19999999999999996], [-0.9, -0.8], [-0.22499999999999998, 0.19999999999999996], [-0.9, -0.30000000000000004], [-0.45, -0.8], [-0.22499999999999998, 0.7], [0.22499999999999998, -0.30000000000000004], [0.9, -0.8], [0.9, 0.7], [-0.22499999999999998, -0.30000000000000004], [0.22499999999999998, 0.7]]",,,,,,,,,,,,,,,,,,,,,,,,,,,,,,5,C,2024-04-16_10h50.48.633,attentional_competition_task,2022.2.4,144.00423898061953,
positions.xlsx,positions_test.xlsx,positions_test_new.xlsx,stimuli.xlsx,stimuli_new.xlsx,stimuli/Social3.png,stimuli/Social4.png,stimuli/Nonsocial3.png,stimuli/Nonsocial4.png,stimuli/Social1.png,stimuli/Social2.png,stimuli/Nonsocial1.png,stimuli/Nonsocial2.png,,,,,,,,,,,0,0,0,0,,,,,1,0,1,0,,,,,,,,,,,,,,,,,,,,,,,,,,,,,,,,,,,,,,,"[[0.6749999999999999, -0.8], [-0.675, -0.8], [-0.675, 0.19999999999999996], [0.9, -0.30000000000000004], [-0.22499999999999998, -0.30000000000000004], [0.45000000000000007, 0.19999999999999996], [0.0, -0.30000000000000004], [0.6749999999999999, 0.7], [0.9, 0.19999999999999996], [-0.45, -0.8], [0.0, 0.7], [0.9, -0.8], [-0.675, -0.30000000000000004], [0.45000000000000007, -0.30000000000000004], [0.0, 0.19999999999999996]]","[[0.45000000000000007, 0.7], [-0.45, 0.19999999999999996], [-0.9, -0.8], [-0.675, 0.7], [0.0, -0.8], [0.22499999999999998, -0.30000000000000004], [0.6749999999999999, -0.30000000000000004], [0.22499999999999998, -0.8], [-0.9, -0.30000000000000004], [-0.22499999999999998, 0.7], [-0.45, -0.30000000000000004], [-0.9, 0.7], [0.45000000000000007, -0.8], [-0.9, 0.19999999999999996], [0.22499999999999998, 0.7]]",,,,,,,,,,,,,,,,,,,,,,,,,,,,,,5,C,2024-04-16_10h50.48.633,attentional_competition_task,2022.2.4,144.00423898061953,
positions.xlsx,positions_test.xlsx,positions_test_new.xlsx,stimuli.xlsx,stimuli_new.xlsx,stimuli/Social3.png,stimuli/Social4.png,stimuli/Nonsocial3.png,stimuli/Nonsocial4.png,stimuli/Social1.png,stimuli/Social2.png,stimuli/Nonsocial1.png,stimuli/Nonsocial2.png,cs_pos_ns,"(0.7, -0.5)",,,,,,,,,0,0,0,0,,,,,,,,,0,0,0,15,,,,,,,,,,,,,,,,,,,,,,,,,,,,,,,,,,,,,505.17087419983,531.2670219996944,3,reward,1,0.38214659970253706,0.3821507999673486,531.6697971997783,,,,,,,,,,,,,,,,,,,,,,5,C,2024-04-16_10h50.48.633,attentional_competition_task,2022.2.4,144.00423898061953,
positions.xlsx,positions_test.xlsx,positions_test_new.xlsx,stimuli.xlsx,stimuli_new.xlsx,stimuli/Social3.png,stimuli/Social4.png,stimuli/Nonsocial3.png,stimuli/Nonsocial4.png,stimuli/Social1.png,stimuli/Social2.png,stimuli/Nonsocial1.png,stimuli/Nonsocial2.png,cs_pos_s,"(-0.7, -0.5)",,,,,,,,,0,0,0,0,,,,,,,,,0,1,1,5,,,,,,,,,,,,,,,,,,,,,,,,,,,,,,,,,,,,,,539.7319461996667,6,reward,1,0.5975334998220205,0.5975371999666095,540.3361020996235,,,,,,,,,,,,,,,,,,,,,,5,C,2024-04-16_10h50.48.633,attentional_competition_task,2022.2.4,144.00423898061953,
positions.xlsx,positions_test.xlsx,positions_test_new.xlsx,stimuli.xlsx,stimuli_new.xlsx,stimuli/Social3.png,stimuli/Social4.png,stimuli/Nonsocial3.png,stimuli/Nonsocial4.png,stimuli/Social1.png,stimuli/Social2.png,stimuli/Nonsocial1.png,stimuli/Nonsocial2.png,cs_pos_ns,"(-0.7, 0.5)",,,,,,,,,0,0,0,0,,,,,,,,,0,2,2,12,,,,,,,,,,,,,,,,,,,,,,,,,,,,,,,,,,,,,,548.5787967997603,9,reward,1,0.34766480000689626,0.3476684996858239,548.9329808000475,,,,,,,,,,,,,,,,,,,,,,5,C,2024-04-16_10h50.48.633,attentional_competition_task,2022.2.4,144.00423898061953,
positions.xlsx,positions_test.xlsx,positions_test_new.xlsx,stimuli.xlsx,stimuli_new.xlsx,stimuli/Social3.png,stimuli/Social4.png,stimuli/Nonsocial3.png,stimuli/Nonsocial4.png,stimuli/Social1.png,stimuli/Social2.png,stimuli/Nonsocial1.png,stimuli/Nonsocial2.png,cs_neg_ns,"(0.7, -0.5)",,,,,,,,,0,0,0,0,,,,,,,,,0,3,3,11,,,,,,,,,,,,,,,,,,,,,,,,,,,,,,,,,,,,,,556.5716057997197,6,loss,1,0.2431285995990038,0.25009649991989136,556.8424185998738,,,,,,,,,,,,,,,,,,,,,,5,C,2024-04-16_10h50.48.633,attentional_competition_task,2022.2.4,144.00423898061953,
positions.xlsx,positions_test.xlsx,positions_test_new.xlsx,stimuli.xlsx,stimuli_new.xlsx,stimuli/Social3.png,stimuli/Social4.png,stimuli/Nonsocial3.png,stimuli/Nonsocial4.png,stimuli/Social1.png,stimuli/Social2.png,stimuli/Nonsocial1.png,stimuli/Nonsocial2.png,cs_neg_ns,"(0.7, 0.5)",,,,,,,,,0,0,0,0,,,,,,,,,0,4,4,10,,,,,,,,,,,,,,,,,,,,,,,,,,,,,,,,,,,,,,563.4810118996538,3,loss,1,0.35430809995159507,0.35431199986487627,563.8421280998737,,,,,,,,,,,,,,,,,,,,,,5,C,2024-04-16_10h50.48.633,attentional_competition_task,2022.2.4,144.00423898061953,
positions.xlsx,positions_test.xlsx,positions_test_new.xlsx,stimuli.xlsx,stimuli_new.xlsx,stimuli/Social3.png,stimuli/Social4.png,stimuli/Nonsocial3.png,stimuli/Nonsocial4.png,stimuli/Social1.png,stimuli/Social2.png,stimuli/Nonsocial1.png,stimuli/Nonsocial2.png,cs_neg_s,"(0.7, 0.5)",,,,,,,,,0,0,0,0,,,,,,,,,0,5,5,2,,,,,,,,,,,,,,,,,,,,,,,,,,,,,,,,,,,,,,571.1057245000266,0,loss,1,0.5419560000300407,0.5419596000574529,571.6543220998719,,,,,,,,,,,,,,,,,,,,,,5,C,2024-04-16_10h50.48.633,attentional_competition_task,2022.2.4,144.00423898061953,
positions.xlsx,positions_test.xlsx,positions_test_new.xlsx,stimuli.xlsx,stimuli_new.xlsx,stimuli/Social3.png,stimuli/Social4.png,stimuli/Nonsocial3.png,stimuli/Nonsocial4.png,stimuli/Social1.png,stimuli/Social2.png,stimuli/Nonsocial1.png,stimuli/Nonsocial2.png,cs_pos_s,"(0.7, 0.5)",,,,,,,,,0,0,0,0,,,,,,,,,0,6,6,6,,,,,,,,,,,,,,,,,,,,,,,,,,,,,,,,,,,,,,578.9456747998483,3,reward,1,0.5834307000041008,0.5834349002689123,579.5359405996278,,,,,,,,,,,,,,,,,,,,,,5,C,2024-04-16_10h50.48.633,attentional_competition_task,2022.2.4,144.00423898061953,
positions.xlsx,positions_test.xlsx,positions_test_new.xlsx,stimuli.xlsx,stimuli_new.xlsx,stimuli/Social3.png,stimuli/Social4.png,stimuli/Nonsocial3.png,stimuli/Nonsocial4.png,stimuli/Social1.png,stimuli/Social2.png,stimuli/Nonsocial1.png,stimuli/Nonsocial2.png,cs_neg_ns,"(-0.7, -0.5)",,,,,,,,,0,0,0,0,,,,,,,,,0,7,7,9,,,,,,,,,,,,,,,,,,,,,,,,,,,,,,,,,,,,,,587.0841926997527,0,loss,1,0.4168465998955071,0.41685039969161153,587.5078882998787,,,,,,,,,,,,,,,,,,,,,,5,C,2024-04-16_10h50.48.633,attentional_competition_task,2022.2.4,144.00423898061953,
positions.xlsx,positions_test.xlsx,positions_test_new.xlsx,stimuli.xlsx,stimuli_new.xlsx,stimuli/Social3.png,stimuli/Social4.png,stimuli/Nonsocial3.png,stimuli/Nonsocial4.png,stimuli/Social1.png,stimuli/Social2.png,stimuli/Nonsocial1.png,stimuli/Nonsocial2.png,cs_neg_s,"(-0.7, -0.5)",,,,,,,,,0,0,0,0,,,,,,,,,0,8,8,1,,,,,,,,,,,,,,,,,,,,,,,,,,,,,,,,,,,,,,595.3546988996677,-3,loss,1,0.4516843999736011,0.451687800232321,595.8130157999694,,,,,,,,,,,,,,,,,,,,,,5,C,2024-04-16_10h50.48.633,attentional_competition_task,2022.2.4,144.00423898061953,
positions.xlsx,positions_test.xlsx,positions_test_new.xlsx,stimuli.xlsx,stimuli_new.xlsx,stimuli/Social3.png,stimuli/Social4.png,stimuli/Nonsocial3.png,stimuli/Nonsocial4.png,stimuli/Social1.png,stimuli/Social2.png,stimuli/Nonsocial1.png,stimuli/Nonsocial2.png,cs_neg_s,"(0.7, -0.5)",,,,,,,,,0,0,0,0,,,,,,,,,0,9,9,3,,,,,,,,,,,,,,,,,,,,,,,,,,,,,,,,,,,,,,603.1460800999776,-3,none,0,,,606.1668185000308,,,,,,,,,,,,,,,,,,,,,,5,C,2024-04-16_10h50.48.633,attentional_competition_task,2022.2.4,144.00423898061953,
positions.xlsx,positions_test.xlsx,positions_test_new.xlsx,stimuli.xlsx,stimuli_new.xlsx,stimuli/Social3.png,stimuli/Social4.png,stimuli/Nonsocial3.png,stimuli/Nonsocial4.png,stimuli/Social1.png,stimuli/Social2.png,stimuli/Nonsocial1.png,stimuli/Nonsocial2.png,cs_pos_ns,"(0.7, 0.5)",,,,,,,,,0,0,0,0,,,,,,,,,0,10,10,14,,,,,,,,,,,,,,,,,,,,,,,,,,,,,,,,,,,,,,613.5067777000368,0,reward,1,0.6736894999630749,0.6736929998733103,614.1872445000336,,,,,,,,,,,,,,,,,,,,,,5,C,2024-04-16_10h50.48.633,attentional_competition_task,2022.2.4,144.00423898061953,
positions.xlsx,positions_test.xlsx,positions_test_new.xlsx,stimuli.xlsx,stimuli_new.xlsx,stimuli/Social3.png,stimuli/Social4.png,stimuli/Nonsocial3.png,stimuli/Nonsocial4.png,stimuli/Social1.png,stimuli/Social2.png,stimuli/Nonsocial1.png,stimuli/Nonsocial2.png,cs_neg_s,"(-0.7, 0.5)",,,,,,,,,0,0,0,0,,,,,,,,,0,11,11,0,,,,,,,,,,,,,,,,,,,,,,,,,,,,,,,,,,,,,,621.3329240996391,0,none,0,,,624.3465998000465,,,,,,,,,,,,,,,,,,,,,,5,C,2024-04-16_10h50.48.633,attentional_competition_task,2022.2.4,144.00423898061953,
positions.xlsx,positions_test.xlsx,positions_test_new.xlsx,stimuli.xlsx,stimuli_new.xlsx,stimuli/Social3.png,stimuli/Social4.png,stimuli/Nonsocial3.png,stimuli/Nonsocial4.png,stimuli/Social1.png,stimuli/Social2.png,stimuli/Nonsocial1.png,stimuli/Nonsocial2.png,cs_pos_ns,"(-0.7, -0.5)",,,,,,,,,0,0,0,0,,,,,,,,,0,12,12,13,,,,,,,,,,,,,,,,,,,,,,,,,,,,,,,,,,,,,,631.8115750998259,3,reward,1,0.500868100207299,0.5008721998892725,632.3185246996582,,,,,,,,,,,,,,,,,,,,,,5,C,2024-04-16_10h50.48.633,attentional_competition_task,2022.2.4,144.00423898061953,
positions.xlsx,positions_test.xlsx,positions_test_new.xlsx,stimuli.xlsx,stimuli_new.xlsx,stimuli/Social3.png,stimuli/Social4.png,stimuli/Nonsocial3.png,stimuli/Nonsocial4.png,stimuli/Social1.png,stimuli/Social2.png,stimuli/Nonsocial1.png,stimuli/Nonsocial2.png,cs_neg_ns,"(-0.7, 0.5)",,,,,,,,,0,0,0,0,,,,,,,,,0,13,13,8,,,,,,,,,,,,,,,,,,,,,,,,,,,,,,,,,,,,,,639.1029945998453,3,none,0,,,642.1167923999019,,,,,,,,,,,,,,,,,,,,,,5,C,2024-04-16_10h50.48.633,attentional_competition_task,2022.2.4,144.00423898061953,
positions.xlsx,positions_test.xlsx,positions_test_new.xlsx,stimuli.xlsx,stimuli_new.xlsx,stimuli/Social3.png,stimuli/Social4.png,stimuli/Nonsocial3.png,stimuli/Nonsocial4.png,stimuli/Social1.png,stimuli/Social2.png,stimuli/Nonsocial1.png,stimuli/Nonsocial2.png,cs_pos_s,"(0.7, -0.5)",,,,,,,,,0,0,0,0,,,,,,,,,0,14,14,7,,,,,,,,,,,,,,,,,,,,,,,,,,,,,,,,,,,,,,650.1233399999328,6,reward,1,0.4724449999630451,0.47244840022176504,650.6025160998106,,,,,,,,,,,,,,,,,,,,,,5,C,2024-04-16_10h50.48.633,attentional_competition_task,2022.2.4,144.00423898061953,
positions.xlsx,positions_test.xlsx,positions_test_new.xlsx,stimuli.xlsx,stimuli_new.xlsx,stimuli/Social3.png,stimuli/Social4.png,stimuli/Nonsocial3.png,stimuli/Nonsocial4.png,stimuli/Social1.png,stimuli/Social2.png,stimuli/Nonsocial1.png,stimuli/Nonsocial2.png,cs_pos_s,"(-0.7, 0.5)",,,,,,,,,0,0,0,0,,,,,,,,,0,15,15,4,,,,,,,,,,,,,,,,,,,,,,,,,,,,,,,,,,,,,,658.2132989997044,9,reward,1,0.6392564997076988,0.6392601998522878,658.8590917000547,,,,,,,,,,,,,,,,,,,,,,5,C,2024-04-16_10h50.48.633,attentional_competition_task,2022.2.4,144.00423898061953,
positions.xlsx,positions_test.xlsx,positions_test_new.xlsx,stimuli.xlsx,stimuli_new.xlsx,stimuli/Social3.png,stimuli/Social4.png,stimuli/Nonsocial3.png,stimuli/Nonsocial4.png,stimuli/Social1.png,stimuli/Social2.png,stimuli/Nonsocial1.png,stimuli/Nonsocial2.png,cs_neg_ns,"(0.7, 0.5)",,,,,,,,,0,0,0,0,,,,,,,,,1,0,16,10,,,,,,,,,,,,,,,,,,,,,,,,,,,,,,,,,,,,,,666.6504714000039,6,loss,1,0.7152629997581244,0.7152673001401126,667.3726941999048,,,,,,,,,,,,,,,,,,,,,,5,C,2024-04-16_10h50.48.633,attentional_competition_task,2022.2.4,144.00423898061953,
positions.xlsx,positions_test.xlsx,positions_test_new.xlsx,stimuli.xlsx,stimuli_new.xlsx,stimuli/Social3.png,stimuli/Social4.png,stimuli/Nonsocial3.png,stimuli/Nonsocial4.png,stimuli/Social1.png,stimuli/Social2.png,stimuli/Nonsocial1.png,stimuli/Nonsocial2.png,cs_pos_s,"(-0.7, -0.5)",,,,,,,,,0,0,0,0,,,,,,,,,1,1,17,5,,,,,,,,,,,,,,,,,,,,,,,,,,,,,,,,,,,,,,674.1987290997058,9,reward,1,0.5623677000403404,0.5623714998364449,674.7682052999735,,,,,,,,,,,,,,,,,,,,,,5,C,2024-04-16_10h50.48.633,attentional_competition_task,2022.2.4,144.00423898061953,
positions.xlsx,positions_test.xlsx,positions_test_new.xlsx,stimuli.xlsx,stimuli_new.xlsx,stimuli/Social3.png,stimuli/Social4.png,stimuli/Nonsocial3.png,stimuli/Nonsocial4.png,stimuli/Social1.png,stimuli/Social2.png,stimuli/Nonsocial1.png,stimuli/Nonsocial2.png,cs_pos_ns,"(-0.7, 0.5)",,,,,,,,,0,0,0,0,,,,,,,,,1,2,18,12,,,,,,,,,,,,,,,,,,,,,,,,,,,,,,,,,,,,,,682.2053993996233,12,reward,1,0.9788330001756549,0.9788366998545825,683.1914554000832,,,,,,,,,,,,,,,,,,,,,,5,C,2024-04-16_10h50.48.633,attentional_competition_task,2022.2.4,144.00423898061953,
positions.xlsx,positions_test.xlsx,positions_test_new.xlsx,stimuli.xlsx,stimuli_new.xlsx,stimuli/Social3.png,stimuli/Social4.png,stimuli/Nonsocial3.png,stimuli/Nonsocial4.png,stimuli/Social1.png,stimuli/Social2.png,stimuli/Nonsocial1.png,stimuli/Nonsocial2.png,cs_pos_s,"(0.7, 0.5)",,,,,,,,,0,0,0,0,,,,,,,,,1,3,19,6,,,,,,,,,,,,,,,,,,,,,,,,,,,,,,,,,,,,,,690.4897679998539,15,reward,1,0.7435677000321448,0.7435715002939105,691.2397799999453,,,,,,,,,,,,,,,,,,,,,,5,C,2024-04-16_10h50.48.633,attentional_competition_task,2022.2.4,144.00423898061953,
positions.xlsx,positions_test.xlsx,positions_test_new.xlsx,stimuli.xlsx,stimuli_new.xlsx,stimuli/Social3.png,stimuli/Social4.png,stimuli/Nonsocial3.png,stimuli/Nonsocial4.png,stimuli/Social1.png,stimuli/Social2.png,stimuli/Nonsocial1.png,stimuli/Nonsocial2.png,cs_neg_ns,"(0.7, -0.5)",,,,,,,,,0,0,0,0,,,,,,,,,1,4,20,11,,,,,,,,,,,,,,,,,,,,,,,,,,,,,,,,,,,,,,698.4200252997689,12,loss,1,0.5345216998830438,0.5345251997932792,698.9616434997879,,,,,,,,,,,,,,,,,,,,,,5,C,2024-04-16_10h50.48.633,attentional_competition_task,2022.2.4,144.00423898061953,
positions.xlsx,positions_test.xlsx,positions_test_new.xlsx,stimuli.xlsx,stimuli_new.xlsx,stimuli/Social3.png,stimuli/Social4.png,stimuli/Nonsocial3.png,stimuli/Nonsocial4.png,stimuli/Social1.png,stimuli/Social2.png,stimuli/Nonsocial1.png,stimuli/Nonsocial2.png,cs_neg_s,"(0.7, -0.5)",,,,,,,,,0,0,0,0,,,,,,,,,1,5,21,3,,,,,,,,,,,,,,,,,,,,,,,,,,,,,,,,,,,,,,706.2391363000497,12,none,0,,,709.2460051998496,,,,,,,,,,,,,,,,,,,,,,5,C,2024-04-16_10h50.48.633,attentional_competition_task,2022.2.4,144.00423898061953,
positions.xlsx,positions_test.xlsx,positions_test_new.xlsx,stimuli.xlsx,stimuli_new.xlsx,stimuli/Social3.png,stimuli/Social4.png,stimuli/Nonsocial3.png,stimuli/Nonsocial4.png,stimuli/Social1.png,stimuli/Social2.png,stimuli/Nonsocial1.png,stimuli/Nonsocial2.png,cs_neg_ns,"(-0.7, 0.5)",,,,,,,,,0,0,0,0,,,,,,,,,1,6,22,8,,,,,,,,,,,,,,,,,,,,,,,,,,,,,,,,,,,,,,716.0790232997388,9,loss,1,0.6387394000776112,0.6387430997565389,716.7248617997393,,,,,,,,,,,,,,,,,,,,,,5,C,2024-04-16_10h50.48.633,attentional_competition_task,2022.2.4,144.00423898061953,
positions.xlsx,positions_test.xlsx,positions_test_new.xlsx,stimuli.xlsx,stimuli_new.xlsx,stimuli/Social3.png,stimuli/Social4.png,stimuli/Nonsocial3.png,stimuli/Nonsocial4.png,stimuli/Social1.png,stimuli/Social2.png,stimuli/Nonsocial1.png,stimuli/Nonsocial2.png,cs_pos_s,"(-0.7, 0.5)",,,,,,,,,0,0,0,0,,,,,,,,,1,7,23,4,,,,,,,,,,,,,,,,,,,,,,,,,,,,,,,,,,,,,,724.8495954000391,12,reward,1,0.5902498997747898,0.5902537000365555,725.4466959000565,,,,,,,,,,,,,,,,,,,,,,5,C,2024-04-16_10h50.48.633,attentional_competition_task,2022.2.4,144.00423898061953,
positions.xlsx,positions_test.xlsx,positions_test_new.xlsx,stimuli.xlsx,stimuli_new.xlsx,stimuli/Social3.png,stimuli/Social4.png,stimuli/Nonsocial3.png,stimuli/Nonsocial4.png,stimuli/Social1.png,stimuli/Social2.png,stimuli/Nonsocial1.png,stimuli/Nonsocial2.png,cs_pos_ns,"(0.7, 0.5)",,,,,,,,,0,0,0,0,,,,,,,,,1,8,24,14,,,,,,,,,,,,,,,,,,,,,,,,,,,,,,,,,,,,,,732.4742226996459,15,reward,1,0.819493300281465,0.8194969999603927,733.3005693000741,,,,,,,,,,,,,,,,,,,,,,5,C,2024-04-16_10h50.48.633,attentional_competition_task,2022.2.4,144.00423898061953,
positions.xlsx,positions_test.xlsx,positions_test_new.xlsx,stimuli.xlsx,stimuli_new.xlsx,stimuli/Social3.png,stimuli/Social4.png,stimuli/Nonsocial3.png,stimuli/Nonsocial4.png,stimuli/Social1.png,stimuli/Social2.png,stimuli/Nonsocial1.png,stimuli/Nonsocial2.png,cs_neg_ns,"(-0.7, -0.5)",,,,,,,,,0,0,0,0,,,,,,,,,1,9,25,9,,,,,,,,,,,,,,,,,,,,,,,,,,,,,,,,,,,,,,740.6475497996435,12,loss,1,0.6327543999068439,0.6327579999342561,741.2863709996454,,,,,,,,,,,,,,,,,,,,,,5,C,2024-04-16_10h50.48.633,attentional_competition_task,2022.2.4,144.00423898061953,
positions.xlsx,positions_test.xlsx,positions_test_new.xlsx,stimuli.xlsx,stimuli_new.xlsx,stimuli/Social3.png,stimuli/Social4.png,stimuli/Nonsocial3.png,stimuli/Nonsocial4.png,stimuli/Social1.png,stimuli/Social2.png,stimuli/Nonsocial1.png,stimuli/Nonsocial2.png,cs_neg_s,"(0.7, 0.5)",,,,,,,,,0,0,0,0,,,,,,,,,1,10,26,2,,,,,,,,,,,,,,,,,,,,,,,,,,,,,,,,,,,,,,749.7096837996505,12,none,0,,,752.7234140997753,,,,,,,,,,,,,,,,,,,,,,5,C,2024-04-16_10h50.48.633,attentional_competition_task,2022.2.4,144.00423898061953,
positions.xlsx,positions_test.xlsx,positions_test_new.xlsx,stimuli.xlsx,stimuli_new.xlsx,stimuli/Social3.png,stimuli/Social4.png,stimuli/Nonsocial3.png,stimuli/Nonsocial4.png,stimuli/Social1.png,stimuli/Social2.png,stimuli/Nonsocial1.png,stimuli/Nonsocial2.png,cs_pos_s,"(0.7, -0.5)",,,,,,,,,0,0,0,0,,,,,,,,,1,11,27,7,,,,,,,,,,,,,,,,,,,,,,,,,,,,,,,,,,,,,,759.9314528997056,15,reward,1,0.6598837999626994,0.666864600032568,760.6050829999149,,,,,,,,,,,,,,,,,,,,,,5,C,2024-04-16_10h50.48.633,attentional_competition_task,2022.2.4,144.00423898061953,
positions.xlsx,positions_test.xlsx,positions_test_new.xlsx,stimuli.xlsx,stimuli_new.xlsx,stimuli/Social3.png,stimuli/Social4.png,stimuli/Nonsocial3.png,stimuli/Nonsocial4.png,stimuli/Social1.png,stimuli/Social2.png,stimuli/Nonsocial1.png,stimuli/Nonsocial2.png,cs_pos_ns,"(0.7, -0.5)",,,,,,,,,0,0,0,0,,,,,,,,,1,12,28,15,,,,,,,,,,,,,,,,,,,,,,,,,,,,,,,,,,,,,,768.8061240999959,18,reward,1,0.8405797001905739,0.8405834003351629,769.6532732998021,,,,,,,,,,,,,,,,,,,,,,5,C,2024-04-16_10h50.48.633,attentional_competition_task,2022.2.4,144.00423898061953,
positions.xlsx,positions_test.xlsx,positions_test_new.xlsx,stimuli.xlsx,stimuli_new.xlsx,stimuli/Social3.png,stimuli/Social4.png,stimuli/Nonsocial3.png,stimuli/Nonsocial4.png,stimuli/Social1.png,stimuli/Social2.png,stimuli/Nonsocial1.png,stimuli/Nonsocial2.png,cs_neg_s,"(-0.7, 0.5)",,,,,,,,,0,0,0,0,,,,,,,,,1,13,29,0,,,,,,,,,,,,,,,,,,,,,,,,,,,,,,,,,,,,,,777.2987938998267,18,none,0,,,780.3056282000616,,,,,,,,,,,,,,,,,,,,,,5,C,2024-04-16_10h50.48.633,attentional_competition_task,2022.2.4,144.00423898061953,
positions.xlsx,positions_test.xlsx,positions_test_new.xlsx,stimuli.xlsx,stimuli_new.xlsx,stimuli/Social3.png,stimuli/Social4.png,stimuli/Nonsocial3.png,stimuli/Nonsocial4.png,stimuli/Social1.png,stimuli/Social2.png,stimuli/Nonsocial1.png,stimuli/Nonsocial2.png,cs_neg_s,"(-0.7, -0.5)",,,,,,,,,0,0,0,0,,,,,,,,,1,14,30,1,,,,,,,,,,,,,,,,,,,,,,,,,,,,,,,,,,,,,,788.4094921997748,18,none,0,,,791.4163218997419,,,,,,,,,,,,,,,,,,,,,,5,C,2024-04-16_10h50.48.633,attentional_competition_task,2022.2.4,144.00423898061953,
positions.xlsx,positions_test.xlsx,positions_test_new.xlsx,stimuli.xlsx,stimuli_new.xlsx,stimuli/Social3.png,stimuli/Social4.png,stimuli/Nonsocial3.png,stimuli/Nonsocial4.png,stimuli/Social1.png,stimuli/Social2.png,stimuli/Nonsocial1.png,stimuli/Nonsocial2.png,cs_pos_ns,"(-0.7, -0.5)",,,,,,,,,0,0,0,0,,,,,,,,,1,15,31,13,,,,,,,,,,,,,,,,,,,,,,,,,,,,,,,,,,,,,,799.1798926996998,21,reward,1,0.6322372001595795,0.6322405999526381,799.818771599792,,,,,,,,,,,,,,,,,,,,,,5,C,2024-04-16_10h50.48.633,attentional_competition_task,2022.2.4,144.00423898061953,
positions.xlsx,positions_test.xlsx,positions_test_new.xlsx,stimuli.xlsx,stimuli_new.xlsx,stimuli/Social3.png,stimuli/Social4.png,stimuli/Nonsocial3.png,stimuli/Nonsocial4.png,stimuli/Social1.png,stimuli/Social2.png,stimuli/Nonsocial1.png,stimuli/Nonsocial2.png,cs_neg_s,"(-0.7, -0.5)",,,,,,,,,0,0,0,0,,,,,,,,,,,,,0,0,0,1,,,,,,,,,,,,,,,,,,,,,,,,,,,,,,,,,,821.8178583998233,21,none,0,,,824.8316456996836,,,,,,,,,,,,,,,,,,,,,,5,C,2024-04-16_10h50.48.633,attentional_competition_task,2022.2.4,144.00423898061953,
positions.xlsx,positions_test.xlsx,positions_test_new.xlsx,stimuli.xlsx,stimuli_new.xlsx,stimuli/Social3.png,stimuli/Social4.png,stimuli/Nonsocial3.png,stimuli/Nonsocial4.png,stimuli/Social1.png,stimuli/Social2.png,stimuli/Nonsocial1.png,stimuli/Nonsocial2.png,cs_neg_ns,"(0.7, -0.5)",,,,,,,,,0,0,0,0,,,,,,,,,,,,,0,1,1,11,,,,,,,,,,,,,,,,,,,,,,,,,,,,,,,,,,832.1091330996715,18,loss,1,0.7155599002726376,0.715563700068742,832.8312993999571,,,,,,,,,,,,,,,,,,,,,,5,C,2024-04-16_10h50.48.633,attentional_competition_task,2022.2.4,144.00423898061953,
positions.xlsx,positions_test.xlsx,positions_test_new.xlsx,stimuli.xlsx,stimuli_new.xlsx,stimuli/Social3.png,stimuli/Social4.png,stimuli/Nonsocial3.png,stimuli/Nonsocial4.png,stimuli/Social1.png,stimuli/Social2.png,stimuli/Nonsocial1.png,stimuli/Nonsocial2.png,cs_pos_s,"(0.7, -0.5)",,,,,,,,,0,0,0,0,,,,,,,,,,,,,0,2,2,7,,,,,,,,,,,,,,,,,,,,,,,,,,,,,,,,,,839.7339308997616,21,reward,1,0.7916614999994636,0.7916651996783912,840.5324205998331,,,,,,,,,,,,,,,,,,,,,,5,C,2024-04-16_10h50.48.633,attentional_competition_task,2022.2.4,144.00423898061953,
positions.xlsx,positions_test.xlsx,positions_test_new.xlsx,stimuli.xlsx,stimuli_new.xlsx,stimuli/Social3.png,stimuli/Social4.png,stimuli/Nonsocial3.png,stimuli/Nonsocial4.png,stimuli/Social1.png,stimuli/Social2.png,stimuli/Nonsocial1.png,stimuli/Nonsocial2.png,cs_neg_ns,"(-0.7, -0.5)",,,,,,,,,0,0,0,0,,,,,,,,,,,,,0,3,3,9,,,,,,,,,,,,,,,,,,,,,,,,,,,,,,,,,,847.9210176998749,21,none,0,,,850.9347727997229,,,,,,,,,,,,,,,,,,,,,,5,C,2024-04-16_10h50.48.633,attentional_competition_task,2022.2.4,144.00423898061953,
positions.xlsx,positions_test.xlsx,positions_test_new.xlsx,stimuli.xlsx,stimuli_new.xlsx,stimuli/Social3.png,stimuli/Social4.png,stimuli/Nonsocial3.png,stimuli/Nonsocial4.png,stimuli/Social1.png,stimuli/Social2.png,stimuli/Nonsocial1.png,stimuli/Nonsocial2.png,cs_pos_s,"(0.7, 0.5)",,,,,,,,,0,0,0,0,,,,,,,,,,,,,0,4,4,6,,,,,,,,,,,,,,,,,,,,,,,,,,,,,,,,,,857.8372680996545,24,reward,1,0.6878371997736394,0.6878407998010516,858.5317172999494,,,,,,,,,,,,,,,,,,,,,,5,C,2024-04-16_10h50.48.633,attentional_competition_task,2022.2.4,144.00423898061953,
positions.xlsx,positions_test.xlsx,positions_test_new.xlsx,stimuli.xlsx,stimuli_new.xlsx,stimuli/Social3.png,stimuli/Social4.png,stimuli/Nonsocial3.png,stimuli/Nonsocial4.png,stimuli/Social1.png,stimuli/Social2.png,stimuli/Nonsocial1.png,stimuli/Nonsocial2.png,cs_pos_ns,"(-0.7, 0.5)",,,,,,,,,0,0,0,0,,,,,,,,,,,,,0,5,5,12,,,,,,,,,,,,,,,,,,,,,,,,,,,,,,,,,,865.9411495998502,27,reward,1,0.6389297000132501,0.6458902000449598,866.5938665000722,,,,,,,,,,,,,,,,,,,,,,5,C,2024-04-16_10h50.48.633,attentional_competition_task,2022.2.4,144.00423898061953,
positions.xlsx,positions_test.xlsx,positions_test_new.xlsx,stimuli.xlsx,stimuli_new.xlsx,stimuli/Social3.png,stimuli/Social4.png,stimuli/Nonsocial3.png,stimuli/Nonsocial4.png,stimuli/Social1.png,stimuli/Social2.png,stimuli/Nonsocial1.png,stimuli/Nonsocial2.png,cs_pos_ns,"(0.7, 0.5)",,,,,,,,,0,0,0,0,,,,,,,,,,,,,0,6,6,14,,,,,,,,,,,,,,,,,,,,,,,,,,,,,,,,,,874.8227413999848,30,reward,1,0.673996299970895,0.680961400270462,875.5171358999796,,,,,,,,,,,,,,,,,,,,,,5,C,2024-04-16_10h50.48.633,attentional_competition_task,2022.2.4,144.00423898061953,
positions.xlsx,positions_test.xlsx,positions_test_new.xlsx,stimuli.xlsx,stimuli_new.xlsx,stimuli/Social3.png,stimuli/Social4.png,stimuli/Nonsocial3.png,stimuli/Nonsocial4.png,stimuli/Social1.png,stimuli/Social2.png,stimuli/Nonsocial1.png,stimuli/Nonsocial2.png,cs_pos_s,"(-0.7, 0.5)",,,,,,,,,0,0,0,0,,,,,,,,,,,,,0,7,7,4,,,,,,,,,,,,,,,,,,,,,,,,,,,,,,,,,,883.3848363999277,33,reward,1,0.479655799921602,0.47965979995206,883.8709589997306,,,,,,,,,,,,,,,,,,,,,,5,C,2024-04-16_10h50.48.633,attentional_competition_task,2022.2.4,144.00423898061953,
positions.xlsx,positions_test.xlsx,positions_test_new.xlsx,stimuli.xlsx,stimuli_new.xlsx,stimuli/Social3.png,stimuli/Social4.png,stimuli/Nonsocial3.png,stimuli/Nonsocial4.png,stimuli/Social1.png,stimuli/Social2.png,stimuli/Nonsocial1.png,stimuli/Nonsocial2.png,cs_neg_s,"(0.7, -0.5)",,,,,,,,,0,0,0,0,,,,,,,,,,,,,0,8,8,3,,,,,,,,,,,,,,,,,,,,,,,,,,,,,,,,,,891.655356799718,33,none,0,,,894.6691353996284,,,,,,,,,,,,,,,,,,,,,,5,C,2024-04-16_10h50.48.633,attentional_competition_task,2022.2.4,144.00423898061953,
positions.xlsx,positions_test.xlsx,positions_test_new.xlsx,stimuli.xlsx,stimuli_new.xlsx,stimuli/Social3.png,stimuli/Social4.png,stimuli/Nonsocial3.png,stimuli/Nonsocial4.png,stimuli/Social1.png,stimuli/Social2.png,stimuli/Nonsocial1.png,stimuli/Nonsocial2.png,cs_pos_ns,"(0.7, -0.5)",,,,,,,,,0,0,0,0,,,,,,,,,,,,,0,9,9,15,,,,,,,,,,,,,,,,,,,,,,,,,,,,,,,,,,901.9327135998756,36,reward,1,0.861032800283283,0.8610365004278719,902.8007646999322,,,,,,,,,,,,,,,,,,,,,,5,C,2024-04-16_10h50.48.633,attentional_competition_task,2022.2.4,144.00423898061953,
positions.xlsx,positions_test.xlsx,positions_test_new.xlsx,stimuli.xlsx,stimuli_new.xlsx,stimuli/Social3.png,stimuli/Social4.png,stimuli/Nonsocial3.png,stimuli/Nonsocial4.png,stimuli/Social1.png,stimuli/Social2.png,stimuli/Nonsocial1.png,stimuli/Nonsocial2.png,cs_neg_s,"(-0.7, 0.5)",,,,,,,,,0,0,0,0,,,,,,,,,,,,,0,10,10,0,,,,,,,,,,,,,,,,,,,,,,,,,,,,,,,,,,910.5782753997482,36,none,0,,,913.5919956997968,,,,,,,,,,,,,,,,,,,,,,5,C,2024-04-16_10h50.48.633,attentional_competition_task,2022.2.4,144.00423898061953,
positions.xlsx,positions_test.xlsx,positions_test_new.xlsx,stimuli.xlsx,stimuli_new.xlsx,stimuli/Social3.png,stimuli/Social4.png,stimuli/Nonsocial3.png,stimuli/Nonsocial4.png,stimuli/Social1.png,stimuli/Social2.png,stimuli/Nonsocial1.png,stimuli/Nonsocial2.png,cs_pos_ns,"(-0.7, -0.5)",,,,,,,,,0,0,0,0,,,,,,,,,,,,,0,11,11,13,,,,,,,,,,,,,,,,,,,,,,,,,,,,,,,,,,921.5430507999845,39,reward,1,0.5628428002819419,0.5628609000705183,922.1125289998017,,,,,,,,,,,,,,,,,,,,,,5,C,2024-04-16_10h50.48.633,attentional_competition_task,2022.2.4,144.00423898061953,
positions.xlsx,positions_test.xlsx,positions_test_new.xlsx,stimuli.xlsx,stimuli_new.xlsx,stimuli/Social3.png,stimuli/Social4.png,stimuli/Nonsocial3.png,stimuli/Nonsocial4.png,stimuli/Social1.png,stimuli/Social2.png,stimuli/Nonsocial1.png,stimuli/Nonsocial2.png,cs_neg_s,"(0.7, 0.5)",,,,,,,,,0,0,0,0,,,,,,,,,,,,,0,12,12,2,,,,,,,,,,,,,,,,,,,,,,,,,,,,,,,,,,930.0010902998038,39,none,0,,,933.0148255000822,,,,,,,,,,,,,,,,,,,,,,5,C,2024-04-16_10h50.48.633,attentional_competition_task,2022.2.4,144.00423898061953,
positions.xlsx,positions_test.xlsx,positions_test_new.xlsx,stimuli.xlsx,stimuli_new.xlsx,stimuli/Social3.png,stimuli/Social4.png,stimuli/Nonsocial3.png,stimuli/Nonsocial4.png,stimuli/Social1.png,stimuli/Social2.png,stimuli/Nonsocial1.png,stimuli/Nonsocial2.png,cs_neg_ns,"(-0.7, 0.5)",,,,,,,,,0,0,0,0,,,,,,,,,,,,,0,13,13,8,,,,,,,,,,,,,,,,,,,,,,,,,,,,,,,,,,940.993697699625,39,none,0,,,944.0005390997976,,,,,,,,,,,,,,,,,,,,,,5,C,2024-04-16_10h50.48.633,attentional_competition_task,2022.2.4,144.00423898061953,
positions.xlsx,positions_test.xlsx,positions_test_new.xlsx,stimuli.xlsx,stimuli_new.xlsx,stimuli/Social3.png,stimuli/Social4.png,stimuli/Nonsocial3.png,stimuli/Nonsocial4.png,stimuli/Social1.png,stimuli/Social2.png,stimuli/Nonsocial1.png,stimuli/Nonsocial2.png,cs_neg_ns,"(0.7, 0.5)",,,,,,,,,0,0,0,0,,,,,,,,,,,,,0,14,14,10,,,,,,,,,,,,,,,,,,,,,,,,,,,,,,,,,,951.7016191999428,39,none,0,,,954.7084611998871,,,,,,,,,,,,,,,,,,,,,,5,C,2024-04-16_10h50.48.633,attentional_competition_task,2022.2.4,144.00423898061953,
positions.xlsx,positions_test.xlsx,positions_test_new.xlsx,stimuli.xlsx,stimuli_new.xlsx,stimuli/Social3.png,stimuli/Social4.png,stimuli/Nonsocial3.png,stimuli/Nonsocial4.png,stimuli/Social1.png,stimuli/Social2.png,stimuli/Nonsocial1.png,stimuli/Nonsocial2.png,cs_pos_s,"(-0.7, -0.5)",,,,,,,,,0,0,0,0,,,,,,,,,,,,,0,15,15,5,,,,,,,,,,,,,,,,,,,,,,,,,,,,,,,,,,962.2914502997883,42,reward,1,0.43094140011817217,0.4309451999142766,962.7289097998291,,,,,,,,,,,,,,,,,,,,,,5,C,2024-04-16_10h50.48.633,attentional_competition_task,2022.2.4,144.00423898061953,
positions.xlsx,positions_test.xlsx,positions_test_new.xlsx,stimuli.xlsx,stimuli_new.xlsx,stimuli/Social3.png,stimuli/Social4.png,stimuli/Nonsocial3.png,stimuli/Nonsocial4.png,stimuli/Social1.png,stimuli/Social2.png,stimuli/Nonsocial1.png,stimuli/Nonsocial2.png,cs_pos_s,"(-0.7, 0.5)",,,,,,,,,0,0,0,0,,,,,,,,,,,,,1,0,16,4,,,,,,,,,,,,,,,,,,,,,,,,,,,,,,,,,,969.7217386998236,45,reward,1,0.5907898000441492,0.5907932999543846,970.3188926996663,,,,,,,,,,,,,,,,,,,,,,5,C,2024-04-16_10h50.48.633,attentional_competition_task,2022.2.4,144.00423898061953,
positions.xlsx,positions_test.xlsx,positions_test_new.xlsx,stimuli.xlsx,stimuli_new.xlsx,stimuli/Social3.png,stimuli/Social4.png,stimuli/Nonsocial3.png,stimuli/Nonsocial4.png,stimuli/Social1.png,stimuli/Social2.png,stimuli/Nonsocial1.png,stimuli/Nonsocial2.png,cs_neg_s,"(-0.7, 0.5)",,,,,,,,,0,0,0,0,,,,,,,,,,,,,1,1,17,0,,,,,,,,,,,,,,,,,,,,,,,,,,,,,,,,,,977.5894335000776,45,none,0,,,980.5963007998653,,,,,,,,,,,,,,,,,,,,,,5,C,2024-04-16_10h50.48.633,attentional_competition_task,2022.2.4,144.00423898061953,
positions.xlsx,positions_test.xlsx,positions_test_new.xlsx,stimuli.xlsx,stimuli_new.xlsx,stimuli/Social3.png,stimuli/Social4.png,stimuli/Nonsocial3.png,stimuli/Nonsocial4.png,stimuli/Social1.png,stimuli/Social2.png,stimuli/Nonsocial1.png,stimuli/Nonsocial2.png,cs_neg_s,"(-0.7, -0.5)",,,,,,,,,0,0,0,0,,,,,,,,,,,,,1,2,18,1,,,,,,,,,,,,,,,,,,,,,,,,,,,,,,,,,,987.6724128997885,45,none,0,,,990.679264599923,,,,,,,,,,,,,,,,,,,,,,5,C,2024-04-16_10h50.48.633,attentional_competition_task,2022.2.4,144.00423898061953,
positions.xlsx,positions_test.xlsx,positions_test_new.xlsx,stimuli.xlsx,stimuli_new.xlsx,stimuli/Social3.png,stimuli/Social4.png,stimuli/Nonsocial3.png,stimuli/Nonsocial4.png,stimuli/Social1.png,stimuli/Social2.png,stimuli/Nonsocial1.png,stimuli/Nonsocial2.png,cs_neg_ns,"(-0.7, 0.5)",,,,,,,,,0,0,0,0,,,,,,,,,,,,,1,3,19,8,,,,,,,,,,,,,,,,,,,,,,,,,,,,,,,,,,997.7553407996893,45,none,0,,,1000.7690650997683,,,,,,,,,,,,,,,,,,,,,,5,C,2024-04-16_10h50.48.633,attentional_competition_task,2022.2.4,144.00423898061953,
positions.xlsx,positions_test.xlsx,positions_test_new.xlsx,stimuli.xlsx,stimuli_new.xlsx,stimuli/Social3.png,stimuli/Social4.png,stimuli/Nonsocial3.png,stimuli/Nonsocial4.png,stimuli/Social1.png,stimuli/Social2.png,stimuli/Nonsocial1.png,stimuli/Nonsocial2.png,cs_pos_ns,"(0.7, -0.5)",,,,,,,,,0,0,0,0,,,,,,,,,,,,,1,4,20,15,,,,,,,,,,,,,,,,,,,,,,,,,,,,,,,,,,1008.5327202999033,48,reward,1,0.37484899954870343,0.3748525995761156,1008.9145945999771,,,,,,,,,,,,,,,,,,,,,,5,C,2024-04-16_10h50.48.633,attentional_competition_task,2022.2.4,144.00423898061953,
positions.xlsx,positions_test.xlsx,positions_test_new.xlsx,stimuli.xlsx,stimuli_new.xlsx,stimuli/Social3.png,stimuli/Social4.png,stimuli/Nonsocial3.png,stimuli/Nonsocial4.png,stimuli/Social1.png,stimuli/Social2.png,stimuli/Nonsocial1.png,stimuli/Nonsocial2.png,cs_neg_s,"(0.7, -0.5)",,,,,,,,,0,0,0,0,,,,,,,,,,,,,1,5,21,3,,,,,,,,,,,,,,,,,,,,,,,,,,,,,,,,,,1016.2615213999525,48,none,0,,,1019.26835809974,,,,,,,,,,,,,,,,,,,,,,5,C,2024-04-16_10h50.48.633,attentional_competition_task,2022.2.4,144.00423898061953,
positions.xlsx,positions_test.xlsx,positions_test_new.xlsx,stimuli.xlsx,stimuli_new.xlsx,stimuli/Social3.png,stimuli/Social4.png,stimuli/Nonsocial3.png,stimuli/Nonsocial4.png,stimuli/Social1.png,stimuli/Social2.png,stimuli/Nonsocial1.png,stimuli/Nonsocial2.png,cs_pos_ns,"(0.7, 0.5)",,,,,,,,,0,0,0,0,,,,,,,,,,,,,1,6,22,14,,,,,,,,,,,,,,,,,,,,,,,,,,,,,,,,,,1027.2750160000287,51,reward,1,0.777776800096035,0.7777803000062704,1028.059667899739,,,,,,,,,,,,,,,,,,,,,,5,C,2024-04-16_10h50.48.633,attentional_competition_task,2022.2.4,144.00423898061953,
positions.xlsx,positions_test.xlsx,positions_test_new.xlsx,stimuli.xlsx,stimuli_new.xlsx,stimuli/Social3.png,stimuli/Social4.png,stimuli/Nonsocial3.png,stimuli/Nonsocial4.png,stimuli/Social1.png,stimuli/Social2.png,stimuli/Nonsocial1.png,stimuli/Nonsocial2.png,cs_neg_ns,"(-0.7, -0.5)",,,,,,,,,0,0,0,0,,,,,,,,,,,,,1,7,23,9,,,,,,,,,,,,,,,,,,,,,,,,,,,,,,,,,,1035.7329836999997,48,loss,1,0.8265808997675776,0.8265847996808589,1036.56628239993,,,,,,,,,,,,,,,,,,,,,,5,C,2024-04-16_10h50.48.633,attentional_competition_task,2022.2.4,144.00423898061953,
positions.xlsx,positions_test.xlsx,positions_test_new.xlsx,stimuli.xlsx,stimuli_new.xlsx,stimuli/Social3.png,stimuli/Social4.png,stimuli/Nonsocial3.png,stimuli/Nonsocial4.png,stimuli/Social1.png,stimuli/Social2.png,stimuli/Nonsocial1.png,stimuli/Nonsocial2.png,cs_pos_ns,"(-0.7, 0.5)",,,,,,,,,0,0,0,0,,,,,,,,,,,,,1,8,24,12,,,,,,,,,,,,,,,,,,,,,,,,,,,,,,,,,,1044.1770577998832,51,reward,1,0.7581174001097679,0.7581213000230491,1044.947880299762,,,,,,,,,,,,,,,,,,,,,,5,C,2024-04-16_10h50.48.633,attentional_competition_task,2022.2.4,144.00423898061953,
positions.xlsx,positions_test.xlsx,positions_test_new.xlsx,stimuli.xlsx,stimuli_new.xlsx,stimuli/Social3.png,stimuli/Social4.png,stimuli/Nonsocial3.png,stimuli/Nonsocial4.png,stimuli/Social1.png,stimuli/Social2.png,stimuli/Nonsocial1.png,stimuli/Nonsocial2.png,cs_neg_ns,"(0.7, -0.5)",,,,,,,,,0,0,0,0,,,,,,,,,,,,,1,9,25,11,,,,,,,,,,,,,,,,,,,,,,,,,,,,,,,,,,1052.2184848999605,48,loss,1,0.6660438999533653,0.6660476000979543,1052.8919686996378,,,,,,,,,,,,,,,,,,,,,,5,C,2024-04-16_10h50.48.633,attentional_competition_task,2022.2.4,144.00423898061953,
positions.xlsx,positions_test.xlsx,positions_test_new.xlsx,stimuli.xlsx,stimuli_new.xlsx,stimuli/Social3.png,stimuli/Social4.png,stimuli/Nonsocial3.png,stimuli/Nonsocial4.png,stimuli/Social1.png,stimuli/Social2.png,stimuli/Nonsocial1.png,stimuli/Nonsocial2.png,cs_neg_s,"(0.7, 0.5)",,,,,,,,,0,0,0,0,,,,,,,,,,,,,1,10,26,2,,,,,,,,,,,,,,,,,,,,,,,,,,,,,,,,,,1060.120885899756,48,none,0,,,1063.1346851997077,,,,,,,,,,,,,,,,,,,,,,5,C,2024-04-16_10h50.48.633,attentional_competition_task,2022.2.4,144.00423898061953,
positions.xlsx,positions_test.xlsx,positions_test_new.xlsx,stimuli.xlsx,stimuli_new.xlsx,stimuli/Social3.png,stimuli/Social4.png,stimuli/Nonsocial3.png,stimuli/Nonsocial4.png,stimuli/Social1.png,stimuli/Social2.png,stimuli/Nonsocial1.png,stimuli/Nonsocial2.png,cs_pos_s,"(0.7, -0.5)",,,,,,,,,0,0,0,0,,,,,,,,,,,,,1,11,27,7,,,,,,,,,,,,,,,,,,,,,,,,,,,,,,,,,,1070.1065976996906,51,reward,1,0.6672506001777947,0.6672542002052069,1070.7801883998327,,,,,,,,,,,,,,,,,,,,,,5,C,2024-04-16_10h50.48.633,attentional_competition_task,2022.2.4,144.00423898061953,
positions.xlsx,positions_test.xlsx,positions_test_new.xlsx,stimuli.xlsx,stimuli_new.xlsx,stimuli/Social3.png,stimuli/Social4.png,stimuli/Nonsocial3.png,stimuli/Nonsocial4.png,stimuli/Social1.png,stimuli/Social2.png,stimuli/Nonsocial1.png,stimuli/Nonsocial2.png,cs_neg_ns,"(0.7, 0.5)",,,,,,,,,0,0,0,0,,,,,,,,,,,,,1,12,28,10,,,,,,,,,,,,,,,,,,,,,,,,,,,,,,,,,,1078.0090705999173,51,none,0,,,1081.022840199992,,,,,,,,,,,,,,,,,,,,,,5,C,2024-04-16_10h50.48.633,attentional_competition_task,2022.2.4,144.00423898061953,
positions.xlsx,positions_test.xlsx,positions_test_new.xlsx,stimuli.xlsx,stimuli_new.xlsx,stimuli/Social3.png,stimuli/Social4.png,stimuli/Nonsocial3.png,stimuli/Nonsocial4.png,stimuli/Social1.png,stimuli/Social2.png,stimuli/Nonsocial1.png,stimuli/Nonsocial2.png,cs_pos_s,"(0.7, 0.5)",,,,,,,,,0,0,0,0,,,,,,,,,,,,,1,13,29,6,,,,,,,,,,,,,,,,,,,,,,,,,,,,,,,,,,1088.2239207997918,54,reward,1,0.5630160002037883,0.5630199001170695,1088.7933702999726,,,,,,,,,,,,,,,,,,,,,,5,C,2024-04-16_10h50.48.633,attentional_competition_task,2022.2.4,144.00423898061953,
positions.xlsx,positions_test.xlsx,positions_test_new.xlsx,stimuli.xlsx,stimuli_new.xlsx,stimuli/Social3.png,stimuli/Social4.png,stimuli/Nonsocial3.png,stimuli/Nonsocial4.png,stimuli/Social1.png,stimuli/Social2.png,stimuli/Nonsocial1.png,stimuli/Nonsocial2.png,cs_pos_ns,"(-0.7, -0.5)",,,,,,,,,0,0,0,0,,,,,,,,,,,,,1,14,30,13,,,,,,,,,,,,,,,,,,,,,,,,,,,,,,,,,,1096.3555606999435,57,reward,1,0.7016655998304486,0.7016691998578608,1097.0639100996777,,,,,,,,,,,,,,,,,,,,,,5,C,2024-04-16_10h50.48.633,attentional_competition_task,2022.2.4,144.00423898061953,
positions.xlsx,positions_test.xlsx,positions_test_new.xlsx,stimuli.xlsx,stimuli_new.xlsx,stimuli/Social3.png,stimuli/Social4.png,stimuli/Nonsocial3.png,stimuli/Nonsocial4.png,stimuli/Social1.png,stimuli/Social2.png,stimuli/Nonsocial1.png,stimuli/Nonsocial2.png,cs_pos_s,"(-0.7, -0.5)",,,,,,,,,0,0,0,0,,,,,,,,,,,,,1,15,31,5,,,,,,,,,,,,,,,,,,,,,,,,,,,,,,,,,,1104.1469124997966,60,reward,1,0.5558911999687552,0.555895000230521,1104.7094323998317,,,,,,,,,,,,,,,,,,,,,,5,C,2024-04-16_10h50.48.633,attentional_competition_task,2022.2.4,144.00423898061953,
positions.xlsx,positions_test.xlsx,positions_test_new.xlsx,stimuli.xlsx,stimuli_new.xlsx,stimuli/Social3.png,stimuli/Social4.png,stimuli/Nonsocial3.png,stimuli/Nonsocial4.png,stimuli/Social1.png,stimuli/Social2.png,stimuli/Nonsocial1.png,stimuli/Nonsocial2.png,cs_pos_ns,,,,,,,,,,0,0,0,0,,,,,,,,,,,,,,,,,0,0,0,3,,,,,,,,,,,,,,,,,,,,,,,1109.4870177996345,7.0,9.336508400272578,,,,,,,,,,,,,,,,,,,,,,,,,,,,,,,,,5,C,2024-04-16_10h50.48.633,attentional_competition_task,2022.2.4,144.00423898061953,
positions.xlsx,positions_test.xlsx,positions_test_new.xlsx,stimuli.xlsx,stimuli_new.xlsx,stimuli/Social3.png,stimuli/Social4.png,stimuli/Nonsocial3.png,stimuli/Nonsocial4.png,stimuli/Social1.png,stimuli/Social2.png,stimuli/Nonsocial1.png,stimuli/Nonsocial2.png,cs_neg_ns,,,,,,,,,,0,0,0,0,,,,,,,,,,,,,,,,,0,1,1,1,,,,,,,,,,,,,,,,,,,,,,,1119.694948699791,2.0,3.806837299838662,,,,,,,,,,,,,,,,,,,,,,,,,,,,,,,,,5,C,2024-04-16_10h50.48.633,attentional_competition_task,2022.2.4,144.00423898061953,
positions.xlsx,positions_test.xlsx,positions_test_new.xlsx,stimuli.xlsx,stimuli_new.xlsx,stimuli/Social3.png,stimuli/Social4.png,stimuli/Nonsocial3.png,stimuli/Nonsocial4.png,stimuli/Social1.png,stimuli/Social2.png,stimuli/Nonsocial1.png,stimuli/Nonsocial2.png,cs_pos_s,,,,,,,,,,0,0,0,0,,,,,,,,,,,,,,,,,0,2,2,2,,,,,,,,,,,,,,,,,,,,,,,1123.7781189000234,6.0,2.654861200135201,,,,,,,,,,,,,,,,,,,,,,,,,,,,,,,,,5,C,2024-04-16_10h50.48.633,attentional_competition_task,2022.2.4,144.00423898061953,
positions.xlsx,positions_test.xlsx,positions_test_new.xlsx,stimuli.xlsx,stimuli_new.xlsx,stimuli/Social3.png,stimuli/Social4.png,stimuli/Nonsocial3.png,stimuli/Nonsocial4.png,stimuli/Social1.png,stimuli/Social2.png,stimuli/Nonsocial1.png,stimuli/Nonsocial2.png,cs_neg_s,,,,,,,,,,0,0,0,0,,,,,,,,,,,,,,,,,0,3,3,0,,,,,,,,,,,,,,,,,,,,,,,1126.7294034999795,2.0,3.1273301001638174,,,,,,,,,,,,,,,,,,,,,,,,,,,,,,,,,5,C,2024-04-16_10h50.48.633,attentional_competition_task,2022.2.4,144.00423898061953,
positions.xlsx,positions_test.xlsx,positions_test_new.xlsx,stimuli.xlsx,stimuli_new.xlsx,stimuli/Social3.png,stimuli/Social4.png,stimuli/Nonsocial3.png,stimuli/Nonsocial4.png,stimuli/Social1.png,stimuli/Social2.png,stimuli/Nonsocial1.png,stimuli/Nonsocial2.png,,,"(-0.7, -0.5)",cs_pos_s,"(-0.7, 0.5)",cs_pos_ns,"(0.7, -0.5)",cs_neg_s,"(0.7, 0.5)",cs_neg_ns,0,0,0,0,,,,,,,,,,,,,,,,,,,,,0,0,0,10,,,,,,,,,,,,,,,,,,,,,,,,,,,60,reward,,,,,1130.0834327000193,1147.8535464997403,1147.8535464997403,1147.8535464997403,1147.8535464997403,1,0.1336455000564456,0.13364889984950423,0,,,0,,,0,,,1147.9785583997145,1147.9785583997145,1147.9785583997145,1147.9785583997145,5,C,2024-04-16_10h50.48.633,attentional_competition_task,2022.2.4,144.00423898061953,
positions.xlsx,positions_test.xlsx,positions_test_new.xlsx,stimuli.xlsx,stimuli_new.xlsx,stimuli/Social3.png,stimuli/Social4.png,stimuli/Nonsocial3.png,stimuli/Nonsocial4.png,stimuli/Social1.png,stimuli/Social2.png,stimuli/Nonsocial1.png,stimuli/Nonsocial2.png,,,"(-0.7, -0.5)",cs_neg_s,"(-0.7, 0.5)",cs_pos_ns,"(0.7, -0.5)",cs_neg_ns,"(0.7, 0.5)",cs_pos_s,0,0,0,0,,,,,,,,,,,,,,,,,,,,,0,1,1,5,,,,,,,,,,,,,,,,,,,,,,,,,,,57,loss,,,,,,1156.3115121000446,1156.3115121000446,1156.3115121000446,1156.3115121000446,0,,,0,,,0,,,0,,,1156.9087135000154,1156.9087135000154,1156.9087135000154,1156.9087135000154,5,C,2024-04-16_10h50.48.633,attentional_competition_task,2022.2.4,144.00423898061953,
positions.xlsx,positions_test.xlsx,positions_test_new.xlsx,stimuli.xlsx,stimuli_new.xlsx,stimuli/Social3.png,stimuli/Social4.png,stimuli/Nonsocial3.png,stimuli/Nonsocial4.png,stimuli/Social1.png,stimuli/Social2.png,stimuli/Nonsocial1.png,stimuli/Nonsocial2.png,,,"(-0.7, -0.5)",cs_pos_s,"(-0.7, 0.5)",cs_neg_s,"(0.7, -0.5)",cs_pos_ns,"(0.7, 0.5)",cs_neg_ns,0,0,0,0,,,,,,,,,,,,,,,,,,,,,0,2,2,7,,,,,,,,,,,,,,,,,,,,,,,,,,,63,reward,,,,,,1163.8945833998732,1163.8945833998732,1163.8945833998732,1163.8945833998732,1,0.03024160023778677,0.8978039002977312,0,,,0,,,0,,,1165.2903543999419,1165.2903543999419,1165.2903543999419,1165.2903543999419,5,C,2024-04-16_10h50.48.633,attentional_competition_task,2022.2.4,144.00423898061953,
positions.xlsx,positions_test.xlsx,positions_test_new.xlsx,stimuli.xlsx,stimuli_new.xlsx,stimuli/Social3.png,stimuli/Social4.png,stimuli/Nonsocial3.png,stimuli/Nonsocial4.png,stimuli/Social1.png,stimuli/Social2.png,stimuli/Nonsocial1.png,stimuli/Nonsocial2.png,,,"(-0.7, -0.5)",cs_neg_s,"(-0.7, 0.5)",cs_neg_ns,"(0.7, -0.5)",cs_pos_s,"(0.7, 0.5)",cs_pos_ns,0,0,0,0,,,,,,,,,,,,,,,,,,,,,0,3,3,2,,,,,,,,,,,,,,,,,,,,,,,,,,,69,reward,,,,,,1172.7623139000498,1172.7623139000498,1172.7623139000498,1172.7623139000498,0,,,0,,,1,0.03223860030993819,0.6068390998989344,1,0.6489230003207922,0.6489269002340734,1173.4080554000102,1173.4080554000102,1173.4080554000102,1173.4080554000102,5,C,2024-04-16_10h50.48.633,attentional_competition_task,2022.2.4,144.00423898061953,
positions.xlsx,positions_test.xlsx,positions_test_new.xlsx,stimuli.xlsx,stimuli_new.xlsx,stimuli/Social3.png,stimuli/Social4.png,stimuli/Nonsocial3.png,stimuli/Nonsocial4.png,stimuli/Social1.png,stimuli/Social2.png,stimuli/Nonsocial1.png,stimuli/Nonsocial2.png,,,"(-0.7, -0.5)",cs_pos_ns,"(-0.7, 0.5)",cs_pos_s,"(0.7, -0.5)",cs_neg_ns,"(0.7, 0.5)",cs_neg_s,0,0,0,0,,,,,,,,,,,,,,,,,,,,,0,4,4,18,,,,,,,,,,,,,,,,,,,,,,,,,,,78,reward,,,,,,1182.0049665998667,1182.0049665998667,1182.0049665998667,1182.0049665998667,0,,,1,0.02466000011190772,0.21856690011918545,0,,,0,,,1182.7271670997143,1182.7271670997143,1182.7271670997143,1182.7271670997143,5,C,2024-04-16_10h50.48.633,attentional_competition_task,2022.2.4,144.00423898061953,
positions.xlsx,positions_test.xlsx,positions_test_new.xlsx,stimuli.xlsx,stimuli_new.xlsx,stimuli/Social3.png,stimuli/Social4.png,stimuli/Nonsocial3.png,stimuli/Nonsocial4.png,stimuli/Social1.png,stimuli/Social2.png,stimuli/Nonsocial1.png,stimuli/Nonsocial2.png,,,"(-0.7, -0.5)",cs_neg_ns,"(-0.7, 0.5)",cs_pos_ns,"(0.7, -0.5)",cs_neg_s,"(0.7, 0.5)",cs_pos_s,0,0,0,0,,,,,,,,,,,,,,,,,,,,,0,5,5,17,,,,,,,,,,,,,,,,,,,,,,,,,,,87,reward,,,,,,1189.949065799825,1189.949065799825,1189.949065799825,1189.949065799825,0,,,1,0.0239074002020061,0.03882090002298355,0,,,0,,,1190.4907394996844,1190.4907394996844,1190.4907394996844,1190.4907394996844,5,C,2024-04-16_10h50.48.633,attentional_competition_task,2022.2.4,144.00423898061953,
positions.xlsx,positions_test.xlsx,positions_test_new.xlsx,stimuli.xlsx,stimuli_new.xlsx,stimuli/Social3.png,stimuli/Social4.png,stimuli/Nonsocial3.png,stimuli/Nonsocial4.png,stimuli/Social1.png,stimuli/Social2.png,stimuli/Nonsocial1.png,stimuli/Nonsocial2.png,,,"(-0.7, -0.5)",cs_pos_ns,"(-0.7, 0.5)",cs_pos_s,"(0.7, -0.5)",cs_neg_s,"(0.7, 0.5)",cs_neg_ns,0,0,0,0,,,,,,,,,,,,,,,,,,,,,0,6,6,19,,,,,,,,,,,,,,,,,,,,,,,,,,,96,reward,,,,,,1198.1154753998853,1198.1154753998853,1198.1154753998853,1198.1154753998853,1,0.029388600029051304,0.3702312000095844,0,,,0,,,0,,,1198.9834624999203,1198.9834624999203,1198.9834624999203,1198.9834624999203,5,C,2024-04-16_10h50.48.633,attentional_competition_task,2022.2.4,144.00423898061953,
positions.xlsx,positions_test.xlsx,positions_test_new.xlsx,stimuli.xlsx,stimuli_new.xlsx,stimuli/Social3.png,stimuli/Social4.png,stimuli/Nonsocial3.png,stimuli/Nonsocial4.png,stimuli/Social1.png,stimuli/Social2.png,stimuli/Nonsocial1.png,stimuli/Nonsocial2.png,,,"(-0.7, -0.5)",cs_neg_ns,"(-0.7, 0.5)",cs_neg_s,"(0.7, -0.5)",cs_pos_ns,"(0.7, 0.5)",cs_pos_s,0,0,0,0,,,,,,,,,,,,,,,,,,,,,0,7,7,15,,,,,,,,,,,,,,,,,,,,,,,,,,,105,reward,,,,,,1207.0317444996908,1207.0317444996908,1207.0317444996908,1207.0317444996908,0,,,0,,,1,0.3165545999072492,0.42041190015152097,1,0.02599210012704134,0.3029013001359999,1207.9553283997811,1207.9553283997811,1207.9553283997811,1207.9553283997811,5,C,2024-04-16_10h50.48.633,attentional_competition_task,2022.2.4,144.00423898061953,
positions.xlsx,positions_test.xlsx,positions_test_new.xlsx,stimuli.xlsx,stimuli_new.xlsx,stimuli/Social3.png,stimuli/Social4.png,stimuli/Nonsocial3.png,stimuli/Nonsocial4.png,stimuli/Social1.png,stimuli/Social2.png,stimuli/Nonsocial1.png,stimuli/Nonsocial2.png,,,"(-0.7, -0.5)",cs_pos_s,"(-0.7, 0.5)",cs_neg_ns,"(0.7, -0.5)",cs_pos_ns,"(0.7, 0.5)",cs_neg_s,0,0,0,0,,,,,,,,,,,,,,,,,,,,,0,8,8,9,,,,,,,,,,,,,,,,,,,,,,,,,,,114,reward,,,,,,1216.3023025998846,1216.3023025998846,1216.3023025998846,1216.3023025998846,0,,,0,,,1,0.03098269971087575,0.1759486999362707,0,,,1216.9758473997936,1216.9758473997936,1216.9758473997936,1216.9758473997936,5,C,2024-04-16_10h50.48.633,attentional_competition_task,2022.2.4,144.00423898061953,
positions.xlsx,positions_test.xlsx,positions_test_new.xlsx,stimuli.xlsx,stimuli_new.xlsx,stimuli/Social3.png,stimuli/Social4.png,stimuli/Nonsocial3.png,stimuli/Nonsocial4.png,stimuli/Social1.png,stimuli/Social2.png,stimuli/Nonsocial1.png,stimuli/Nonsocial2.png,,,"(-0.7, -0.5)",cs_neg_s,"(-0.7, 0.5)",cs_pos_s,"(0.7, -0.5)",cs_pos_ns,"(0.7, 0.5)",cs_neg_ns,0,0,0,0,,,,,,,,,,,,,,,,,,,,,0,9,9,1,,,,,,,,,,,,,,,,,,,,,,,,,,,123,reward,,,,,,1224.7046578996815,1224.7046578996815,1224.7046578996815,1224.7046578996815,0,,,0,,,1,0.02462349971756339,0.2263468001037836,0,,,1225.433768399991,1225.433768399991,1225.433768399991,1225.433768399991,5,C,2024-04-16_10h50.48.633,attentional_competition_task,2022.2.4,144.00423898061953,
positions.xlsx,positions_test.xlsx,positions_test_new.xlsx,stimuli.xlsx,stimuli_new.xlsx,stimuli/Social3.png,stimuli/Social4.png,stimuli/Nonsocial3.png,stimuli/Nonsocial4.png,stimuli/Social1.png,stimuli/Social2.png,stimuli/Nonsocial1.png,stimuli/Nonsocial2.png,,,"(-0.7, -0.5)",cs_pos_s,"(-0.7, 0.5)",cs_neg_ns,"(0.7, -0.5)",cs_neg_s,"(0.7, 0.5)",cs_pos_ns,0,0,0,0,,,,,,,,,,,,,,,,,,,,,0,10,10,8,,,,,,,,,,,,,,,,,,,,,,,,,,,132,reward,,,,,,1232.2113165999763,1232.2113165999763,1232.2113165999763,1232.2113165999763,0,,,0,,,0,,,1,0.03178419964388013,0.3924032999202609,1233.1001653997228,1233.1001653997228,1233.1001653997228,1233.1001653997228,5,C,2024-04-16_10h50.48.633,attentional_competition_task,2022.2.4,144.00423898061953,
positions.xlsx,positions_test.xlsx,positions_test_new.xlsx,stimuli.xlsx,stimuli_new.xlsx,stimuli/Social3.png,stimuli/Social4.png,stimuli/Nonsocial3.png,stimuli/Nonsocial4.png,stimuli/Social1.png,stimuli/Social2.png,stimuli/Nonsocial1.png,stimuli/Nonsocial2.png,,,"(-0.7, -0.5)",cs_neg_ns,"(-0.7, 0.5)",cs_neg_s,"(0.7, -0.5)",cs_pos_s,"(0.7, 0.5)",cs_pos_ns,0,0,0,0,,,,,,,,,,,,,,,,,,,,,0,11,11,14,,,,,,,,,,,,,,,,,,,,,,,,,,,141,reward,,,,,,1241.2109673996456,1241.2109673996456,1241.2109673996456,1241.2109673996456,0,,,0,,,0,,,1,0.03536120010539889,0.15663090022280812,1241.8637232999317,1241.8637232999317,1241.8637232999317,1241.8637232999317,5,C,2024-04-16_10h50.48.633,attentional_competition_task,2022.2.4,144.00423898061953,
positions.xlsx,positions_test.xlsx,positions_test_new.xlsx,stimuli.xlsx,stimuli_new.xlsx,stimuli/Social3.png,stimuli/Social4.png,stimuli/Nonsocial3.png,stimuli/Nonsocial4.png,stimuli/Social1.png,stimuli/Social2.png,stimuli/Nonsocial1.png,stimuli/Nonsocial2.png,,,"(-0.7, -0.5)",cs_pos_s,"(-0.7, 0.5)",cs_neg_s,"(0.7, -0.5)",cs_neg_ns,"(0.7, 0.5)",cs_pos_ns,0,0,0,0,,,,,,,,,,,,,,,,,,,,,0,12,12,6,,,,,,,,,,,,,,,,,,,,,,,,,,,150,reward,,,,,,1249.49531379994,1249.49531379994,1249.49531379994,1249.49531379994,0,,,0,,,0,,,1,0.03536149999126792,0.07435490004718304,1250.0717274998315,1250.0717274998315,1250.0717274998315,1250.0717274998315,5,C,2024-04-16_10h50.48.633,attentional_competition_task,2022.2.4,144.00423898061953,
positions.xlsx,positions_test.xlsx,positions_test_new.xlsx,stimuli.xlsx,stimuli_new.xlsx,stimuli/Social3.png,stimuli/Social4.png,stimuli/Nonsocial3.png,stimuli/Nonsocial4.png,stimuli/Social1.png,stimuli/Social2.png,stimuli/Nonsocial1.png,stimuli/Nonsocial2.png,,,"(-0.7, -0.5)",cs_neg_ns,"(-0.7, 0.5)",cs_pos_ns,"(0.7, -0.5)",cs_pos_s,"(0.7, 0.5)",cs_neg_s,0,0,0,0,,,,,,,,,,,,,,,,,,,,,0,13,13,16,,,,,,,,,,,,,,,,,,,,,,,,,,,159,reward,,,,,,1257.9325337000191,1257.9325337000191,1257.9325337000191,1257.9325337000191,0,,,1,0.028485700022429228,0.2930058999918401,0,,,0,,,1258.7241507996805,1258.7241507996805,1258.7241507996805,1258.7241507996805,5,C,2024-04-16_10h50.48.633,attentional_competition_task,2022.2.4,144.00423898061953,
positions.xlsx,positions_test.xlsx,positions_test_new.xlsx,stimuli.xlsx,stimuli_new.xlsx,stimuli/Social3.png,stimuli/Social4.png,stimuli/Nonsocial3.png,stimuli/Nonsocial4.png,stimuli/Social1.png,stimuli/Social2.png,stimuli/Nonsocial1.png,stimuli/Nonsocial2.png,,,"(-0.7, -0.5)",cs_neg_ns,"(-0.7, 0.5)",cs_pos_s,"(0.7, -0.5)",cs_pos_ns,"(0.7, 0.5)",cs_neg_s,0,0,0,0,,,,,,,,,,,,,,,,,,,,,0,14,14,13,,,,,,,,,,,,,,,,,,,,,,,,,,,168,reward,,,,,,1266.2377404998988,1266.2377404998988,1266.2377404998988,1266.2377404998988,0,,,0,,,1,0.030989600345492363,0.4197055003605783,0,,,1267.1543704997748,1267.1543704997748,1267.1543704997748,1267.1543704997748,5,C,2024-04-16_10h50.48.633,attentional_competition_task,2022.2.4,144.00423898061953,
positions.xlsx,positions_test.xlsx,positions_test_new.xlsx,stimuli.xlsx,stimuli_new.xlsx,stimuli/Social3.png,stimuli/Social4.png,stimuli/Nonsocial3.png,stimuli/Nonsocial4.png,stimuli/Social1.png,stimuli/Social2.png,stimuli/Nonsocial1.png,stimuli/Nonsocial2.png,,,"(-0.7, -0.5)",cs_neg_s,"(-0.7, 0.5)",cs_pos_s,"(0.7, -0.5)",cs_neg_ns,"(0.7, 0.5)",cs_pos_ns,0,0,0,0,,,,,,,,,,,,,,,,,,,,,0,15,15,0,,,,,,,,,,,,,,,,,,,,,,,,,,,171,reward,,,,,,1275.3068196997046,1275.3068196997046,1275.3068196997046,1275.3068196997046,0,,,0,,,0,,,1,0.030605100095272064,0.030608899891376495,1275.3068196997046,1275.3068196997046,1275.3068196997046,1275.3068196997046,5,C,2024-04-16_10h50.48.633,attentional_competition_task,2022.2.4,144.00423898061953,
positions.xlsx,positions_test.xlsx,positions_test_new.xlsx,stimuli.xlsx,stimuli_new.xlsx,stimuli/Social3.png,stimuli/Social4.png,stimuli/Nonsocial3.png,stimuli/Nonsocial4.png,stimuli/Social1.png,stimuli/Social2.png,stimuli/Nonsocial1.png,stimuli/Nonsocial2.png,,,"(-0.7, -0.5)",cs_neg_s,"(-0.7, 0.5)",cs_pos_ns,"(0.7, -0.5)",cs_pos_s,"(0.7, 0.5)",cs_neg_ns,0,0,0,0,,,,,,,,,,,,,,,,,,,,,0,16,16,4,,,,,,,,,,,,,,,,,,,,,,,,,,,180,reward,,,,,,1283.1745327999815,1283.1745327999815,1283.1745327999815,1283.1745327999815,0,,,1,0.029508200008422136,0.4538659998215735,0,,,0,,,1284.125936599914,1284.125936599914,1284.125936599914,1284.125936599914,5,C,2024-04-16_10h50.48.633,attentional_competition_task,2022.2.4,144.00423898061953,
positions.xlsx,positions_test.xlsx,positions_test_new.xlsx,stimuli.xlsx,stimuli_new.xlsx,stimuli/Social3.png,stimuli/Social4.png,stimuli/Nonsocial3.png,stimuli/Nonsocial4.png,stimuli/Social1.png,stimuli/Social2.png,stimuli/Nonsocial1.png,stimuli/Nonsocial2.png,,,"(-0.7, -0.5)",cs_neg_s,"(-0.7, 0.5)",cs_neg_ns,"(0.7, -0.5)",cs_pos_ns,"(0.7, 0.5)",cs_pos_s,0,0,0,0,,,,,,,,,,,,,,,,,,,,,0,17,17,3,,,,,,,,,,,,,,,,,,,,,,,,,,,186,reward,,,,,,1291.4520076997578,1291.4520076997578,1291.4520076997578,1291.4520076997578,0,,,0,,,1,0.02878449996933341,0.028788200113922358,0,,,1291.4520076997578,1291.4520076997578,1291.4520076997578,1291.4520076997578,5,C,2024-04-16_10h50.48.633,attentional_competition_task,2022.2.4,144.00423898061953,
positions.xlsx,positions_test.xlsx,positions_test_new.xlsx,stimuli.xlsx,stimuli_new.xlsx,stimuli/Social3.png,stimuli/Social4.png,stimuli/Nonsocial3.png,stimuli/Nonsocial4.png,stimuli/Social1.png,stimuli/Social2.png,stimuli/Nonsocial1.png,stimuli/Nonsocial2.png,,,"(-0.7, -0.5)",cs_pos_ns,"(-0.7, 0.5)",cs_neg_ns,"(0.7, -0.5)",cs_neg_s,"(0.7, 0.5)",cs_pos_s,0,0,0,0,,,,,,,,,,,,,,,,,,,,,0,18,18,21,,,,,,,,,,,,,,,,,,,,,,,,,,,195,reward,,,,,,1300.5072464998811,1300.5072464998811,1300.5072464998811,1300.5072464998811,1,0.028034900315105915,0.40392940025776625,0,,,0,,,0,,,1301.4099228000268,1301.4099228000268,1301.4099228000268,1301.4099228000268,5,C,2024-04-16_10h50.48.633,attentional_competition_task,2022.2.4,144.00423898061953,
positions.xlsx,positions_test.xlsx,positions_test_new.xlsx,stimuli.xlsx,stimuli_new.xlsx,stimuli/Social3.png,stimuli/Social4.png,stimuli/Nonsocial3.png,stimuli/Nonsocial4.png,stimuli/Social1.png,stimuli/Social2.png,stimuli/Nonsocial1.png,stimuli/Nonsocial2.png,,,"(-0.7, -0.5)",cs_pos_ns,"(-0.7, 0.5)",cs_neg_ns,"(0.7, -0.5)",cs_pos_s,"(0.7, 0.5)",cs_neg_s,0,0,0,0,,,,,,,,,,,,,,,,,,,,,0,19,19,20,,,,,,,,,,,,,,,,,,,,,,,,,,,198,loss,,,,,,1308.7013583998196,1308.7013583998196,1308.7013583998196,1308.7013583998196,0,,,1,0.023835700005292892,0.023839499801397324,0,,,0,,,1308.7013583998196,1308.7013583998196,1308.7013583998196,1308.7013583998196,5,C,2024-04-16_10h50.48.633,attentional_competition_task,2022.2.4,144.00423898061953,
positions.xlsx,positions_test.xlsx,positions_test_new.xlsx,stimuli.xlsx,stimuli_new.xlsx,stimuli/Social3.png,stimuli/Social4.png,stimuli/Nonsocial3.png,stimuli/Nonsocial4.png,stimuli/Social1.png,stimuli/Social2.png,stimuli/Nonsocial1.png,stimuli/Nonsocial2.png,,,"(-0.7, -0.5)",cs_pos_ns,"(-0.7, 0.5)",cs_neg_s,"(0.7, -0.5)",cs_pos_s,"(0.7, 0.5)",cs_neg_ns,0,0,0,0,,,,,,,,,,,,,,,,,,,,,0,20,20,22,,,,,,,,,,,,,,,,,,,,,,,,,,,207,reward,,,,,,1317.0204858998768,1317.0204858998768,1317.0204858998768,1317.0204858998768,1,0.03031759988516569,0.46093219984322786,0,,,0,,,0,,,1317.9787373999134,1317.9787373999134,1317.9787373999134,1317.9787373999134,5,C,2024-04-16_10h50.48.633,attentional_competition_task,2022.2.4,144.00423898061953,
positions.xlsx,positions_test.xlsx,positions_test_new.xlsx,stimuli.xlsx,stimuli_new.xlsx,stimuli/Social3.png,stimuli/Social4.png,stimuli/Nonsocial3.png,stimuli/Nonsocial4.png,stimuli/Social1.png,stimuli/Social2.png,stimuli/Nonsocial1.png,stimuli/Nonsocial2.png,,,"(-0.7, -0.5)",cs_pos_s,"(-0.7, 0.5)",cs_pos_ns,"(0.7, -0.5)",cs_neg_ns,"(0.7, 0.5)",cs_neg_s,0,0,0,0,,,,,,,,,,,,,,,,,,,,,0,21,21,11,,,,,,,,,,,,,,,,,,,,,,,,,,,210,reward,,,,,,1325.5825442997739,1325.5825442997739,1325.5825442997739,1325.5825442997739,0,,,1,0.029802399687469006,0.037373699713498354,0,,,0,,,1325.6312049999833,1325.6312049999833,1325.6312049999833,1325.6312049999833,5,C,2024-04-16_10h50.48.633,attentional_competition_task,2022.2.4,144.00423898061953,
positions.xlsx,positions_test.xlsx,positions_test_new.xlsx,stimuli.xlsx,stimuli_new.xlsx,stimuli/Social3.png,stimuli/Social4.png,stimuli/Nonsocial3.png,stimuli/Nonsocial4.png,stimuli/Social1.png,stimuli/Social2.png,stimuli/Nonsocial1.png,stimuli/Nonsocial2.png,,,"(-0.7, -0.5)",cs_neg_ns,"(-0.7, 0.5)",cs_pos_s,"(0.7, -0.5)",cs_neg_s,"(0.7, 0.5)",cs_pos_ns,0,0,0,0,,,,,,,,,,,,,,,,,,,,,0,22,22,12,,,,,,,,,,,,,,,,,,,,,,,,,,,213,reward,,,,,,1333.672601699829,1333.672601699829,1333.672601699829,1333.672601699829,0,,,0,,,0,,,1,0.03265639999881387,0.03266200004145503,1333.672601699829,1333.672601699829,1333.672601699829,1333.672601699829,5,C,2024-04-16_10h50.48.633,attentional_competition_task,2022.2.4,144.00423898061953,
positions.xlsx,positions_test.xlsx,positions_test_new.xlsx,stimuli.xlsx,stimuli_new.xlsx,stimuli/Social3.png,stimuli/Social4.png,stimuli/Nonsocial3.png,stimuli/Nonsocial4.png,stimuli/Social1.png,stimuli/Social2.png,stimuli/Nonsocial1.png,stimuli/Nonsocial2.png,,,"(-0.7, -0.5)",cs_pos_ns,"(-0.7, 0.5)",cs_neg_s,"(0.7, -0.5)",cs_neg_ns,"(0.7, 0.5)",cs_pos_s,0,0,0,0,,,,,,,,,,,,,,,,,,,,,0,23,23,23,,,,,,,,,,,,,,,,,,,,,,,,,,,222,reward,,,,,,1341.9291777000763,1341.9291777000763,1341.9291777000763,1341.9291777000763,1,0.029700499959290028,0.5023109000176191,0,,,0,,,0,,,1342.9291260000318,1342.9291260000318,1342.9291260000318,1342.9291260000318,5,C,2024-04-16_10h50.48.633,attentional_competition_task,2022.2.4,144.00423898061953,
positions.xlsx,positions_test.xlsx,positions_test_new.xlsx,stimuli.xlsx,stimuli_new.xlsx,stimuli/Social3.png,stimuli/Social4.png,stimuli/Nonsocial3.png,stimuli/Nonsocial4.png,stimuli/Social1.png,stimuli/Social2.png,stimuli/Nonsocial1.png,stimuli/Nonsocial2.png,,,"(-0.7, -0.5)",cs_neg_ns,"(-0.7, 0.5)",cs_pos_s,"(0.7, -0.5)",cs_neg_s,"(0.7, 0.5)",cs_pos_ns,0,0,0,0,,,,,,,,,,,,,,,,,,,,,1,0,24,12,,,,,,,,,,,,,,,,,,,,,,,,,,,225,reward,,,,,,1350.3177016996779,1350.3177016996779,1350.3177016996779,1350.3177016996779,0,,,0,,,0,,,1,0.030363100115209818,0.03036689991131425,1350.3177016996779,1350.3177016996779,1350.3177016996779,1350.3177016996779,5,C,2024-04-16_10h50.48.633,attentional_competition_task,2022.2.4,144.00423898061953,
positions.xlsx,positions_test.xlsx,positions_test_new.xlsx,stimuli.xlsx,stimuli_new.xlsx,stimuli/Social3.png,stimuli/Social4.png,stimuli/Nonsocial3.png,stimuli/Nonsocial4.png,stimuli/Social1.png,stimuli/Social2.png,stimuli/Nonsocial1.png,stimuli/Nonsocial2.png,,,"(-0.7, -0.5)",cs_pos_ns,"(-0.7, 0.5)",cs_neg_s,"(0.7, -0.5)",cs_neg_ns,"(0.7, 0.5)",cs_pos_s,0,0,0,0,,,,,,,,,,,,,,,,,,,,,1,1,25,23,,,,,,,,,,,,,,,,,,,,,,,,,,,234,reward,,,,,,1358.8173886998557,1358.8173886998557,1358.8173886998557,1358.8173886998557,1,0.028593599796295166,0.3566092997789383,0,,,0,,,0,,,1359.6784441000782,1359.6784441000782,1359.6784441000782,1359.6784441000782,5,C,2024-04-16_10h50.48.633,attentional_competition_task,2022.2.4,144.00423898061953,
positions.xlsx,positions_test.xlsx,positions_test_new.xlsx,stimuli.xlsx,stimuli_new.xlsx,stimuli/Social3.png,stimuli/Social4.png,stimuli/Nonsocial3.png,stimuli/Nonsocial4.png,stimuli/Social1.png,stimuli/Social2.png,stimuli/Nonsocial1.png,stimuli/Nonsocial2.png,,,"(-0.7, -0.5)",cs_pos_s,"(-0.7, 0.5)",cs_neg_s,"(0.7, -0.5)",cs_neg_ns,"(0.7, 0.5)",cs_pos_ns,0,0,0,0,,,,,,,,,,,,,,,,,,,,,1,2,26,6,,,,,,,,,,,,,,,,,,,,,,,,,,,243,reward,,,,,,1367.636450999882,1367.636450999882,1367.636450999882,1367.636450999882,0,,,0,,,0,,,1,0.03005139995366335,0.3504151999950409,1368.490595899988,1368.490595899988,1368.490595899988,1368.490595899988,5,C,2024-04-16_10h50.48.633,attentional_competition_task,2022.2.4,144.00423898061953,
positions.xlsx,positions_test.xlsx,positions_test_new.xlsx,stimuli.xlsx,stimuli_new.xlsx,stimuli/Social3.png,stimuli/Social4.png,stimuli/Nonsocial3.png,stimuli/Nonsocial4.png,stimuli/Social1.png,stimuli/Social2.png,stimuli/Nonsocial1.png,stimuli/Nonsocial2.png,,,"(-0.7, -0.5)",cs_neg_ns,"(-0.7, 0.5)",cs_neg_s,"(0.7, -0.5)",cs_pos_s,"(0.7, 0.5)",cs_pos_ns,0,0,0,0,,,,,,,,,,,,,,,,,,,,,1,3,27,14,,,,,,,,,,,,,,,,,,,,,,,,,,,252,reward,,,,,,1376.268056199886,1376.268056199886,1376.268056199886,1376.268056199886,0,,,0,,,0,,,1,0.02994390018284321,0.4055421003140509,1377.1777939000167,1377.1777939000167,1377.1777939000167,1377.1777939000167,5,C,2024-04-16_10h50.48.633,attentional_competition_task,2022.2.4,144.00423898061953,
positions.xlsx,positions_test.xlsx,positions_test_new.xlsx,stimuli.xlsx,stimuli_new.xlsx,stimuli/Social3.png,stimuli/Social4.png,stimuli/Nonsocial3.png,stimuli/Nonsocial4.png,stimuli/Social1.png,stimuli/Social2.png,stimuli/Nonsocial1.png,stimuli/Nonsocial2.png,,,"(-0.7, -0.5)",cs_neg_s,"(-0.7, 0.5)",cs_pos_s,"(0.7, -0.5)",cs_neg_ns,"(0.7, 0.5)",cs_pos_ns,0,0,0,0,,,,,,,,,,,,,,,,,,,,,1,4,28,0,,,,,,,,,,,,,,,,,,,,,,,,,,,255,reward,,,,,,1384.3997375997715,1384.3997375997715,1384.3997375997715,1384.3997375997715,0,,,0,,,0,,,1,0.026391599792987108,0.026395400054752827,1384.3997375997715,1384.3997375997715,1384.3997375997715,1384.3997375997715,5,C,2024-04-16_10h50.48.633,attentional_competition_task,2022.2.4,144.00423898061953,
positions.xlsx,positions_test.xlsx,positions_test_new.xlsx,stimuli.xlsx,stimuli_new.xlsx,stimuli/Social3.png,stimuli/Social4.png,stimuli/Nonsocial3.png,stimuli/Nonsocial4.png,stimuli/Social1.png,stimuli/Social2.png,stimuli/Nonsocial1.png,stimuli/Nonsocial2.png,,,"(-0.7, -0.5)",cs_neg_ns,"(-0.7, 0.5)",cs_pos_s,"(0.7, -0.5)",cs_pos_ns,"(0.7, 0.5)",cs_neg_s,0,0,0,0,,,,,,,,,,,,,,,,,,,,,1,5,29,13,,,,,,,,,,,,,,,,,,,,,,,,,,,264,reward,,,,,,1392.3230151999742,1392.3230151999742,1392.3230151999742,1392.3230151999742,0,,,0,,,1,0.031759100034832954,0.3433778998441994,0,,,1393.1632583998144,1393.1632583998144,1393.1632583998144,1393.1632583998144,5,C,2024-04-16_10h50.48.633,attentional_competition_task,2022.2.4,144.00423898061953,
positions.xlsx,positions_test.xlsx,positions_test_new.xlsx,stimuli.xlsx,stimuli_new.xlsx,stimuli/Social3.png,stimuli/Social4.png,stimuli/Nonsocial3.png,stimuli/Nonsocial4.png,stimuli/Social1.png,stimuli/Social2.png,stimuli/Nonsocial1.png,stimuli/Nonsocial2.png,,,"(-0.7, -0.5)",cs_pos_ns,"(-0.7, 0.5)",cs_pos_s,"(0.7, -0.5)",cs_neg_ns,"(0.7, 0.5)",cs_neg_s,0,0,0,0,,,,,,,,,,,,,,,,,,,,,1,6,30,18,,,,,,,,,,,,,,,,,,,,,,,,,,,273,reward,,,,,,1400.2324080998078,1400.2324080998078,1400.2324080998078,1400.2324080998078,1,0.023211800027638674,0.5379961002618074,0,,,0,,,0,,,1401.2809939999133,1401.2809939999133,1401.2809939999133,1401.2809939999133,5,C,2024-04-16_10h50.48.633,attentional_competition_task,2022.2.4,144.00423898061953,
positions.xlsx,positions_test.xlsx,positions_test_new.xlsx,stimuli.xlsx,stimuli_new.xlsx,stimuli/Social3.png,stimuli/Social4.png,stimuli/Nonsocial3.png,stimuli/Nonsocial4.png,stimuli/Social1.png,stimuli/Social2.png,stimuli/Nonsocial1.png,stimuli/Nonsocial2.png,,,"(-0.7, -0.5)",cs_pos_s,"(-0.7, 0.5)",cs_neg_ns,"(0.7, -0.5)",cs_neg_s,"(0.7, 0.5)",cs_pos_ns,0,0,0,0,,,,,,,,,,,,,,,,,,,,,1,7,31,8,,,,,,,,,,,,,,,,,,,,,,,,,,,276,loss,,,,,,1409.2042650999501,1409.2042650999501,1409.2042650999501,1409.2042650999501,0,,,0,,,1,0.3440846996381879,0.34408869966864586,1,0.024654699955135584,0.30955709982663393,1409.5515306997113,1409.5515306997113,1409.5515306997113,1409.5515306997113,5,C,2024-04-16_10h50.48.633,attentional_competition_task,2022.2.4,144.00423898061953,
positions.xlsx,positions_test.xlsx,positions_test_new.xlsx,stimuli.xlsx,stimuli_new.xlsx,stimuli/Social3.png,stimuli/Social4.png,stimuli/Nonsocial3.png,stimuli/Nonsocial4.png,stimuli/Social1.png,stimuli/Social2.png,stimuli/Nonsocial1.png,stimuli/Nonsocial2.png,,,"(-0.7, -0.5)",cs_pos_ns,"(-0.7, 0.5)",cs_pos_s,"(0.7, -0.5)",cs_neg_s,"(0.7, 0.5)",cs_neg_ns,0,0,0,0,,,,,,,,,,,,,,,,,,,,,1,8,32,19,,,,,,,,,,,,,,,,,,,,,,,,,,,285,reward,,,,,,1418.2872974998318,1418.2872974998318,1418.2872974998318,1418.2872974998318,1,0.029787300154566765,0.49543619994074106,0,,,0,,,0,,,1419.2872295998968,1419.2872295998968,1419.2872295998968,1419.2872295998968,5,C,2024-04-16_10h50.48.633,attentional_competition_task,2022.2.4,144.00423898061953,
positions.xlsx,positions_test.xlsx,positions_test_new.xlsx,stimuli.xlsx,stimuli_new.xlsx,stimuli/Social3.png,stimuli/Social4.png,stimuli/Nonsocial3.png,stimuli/Nonsocial4.png,stimuli/Social1.png,stimuli/Social2.png,stimuli/Nonsocial1.png,stimuli/Nonsocial2.png,,,"(-0.7, -0.5)",cs_neg_ns,"(-0.7, 0.5)",cs_pos_ns,"(0.7, -0.5)",cs_neg_s,"(0.7, 0.5)",cs_pos_s,0,0,0,0,,,,,,,,,,,,,,,,,,,,,1,9,33,17,,,,,,,,,,,,,,,,,,,,,,,,,,,294,reward,,,,,,1426.3633224000223,1426.3633224000223,1426.3633224000223,1426.3633224000223,0,,,0,,,0,,,1,0.025097900070250034,0.46891430020332336,1427.3355112997815,1427.3355112997815,1427.3355112997815,1427.3355112997815,5,C,2024-04-16_10h50.48.633,attentional_competition_task,2022.2.4,144.00423898061953,
positions.xlsx,positions_test.xlsx,positions_test_new.xlsx,stimuli.xlsx,stimuli_new.xlsx,stimuli/Social3.png,stimuli/Social4.png,stimuli/Nonsocial3.png,stimuli/Nonsocial4.png,stimuli/Social1.png,stimuli/Social2.png,stimuli/Nonsocial1.png,stimuli/Nonsocial2.png,,,"(-0.7, -0.5)",cs_neg_s,"(-0.7, 0.5)",cs_pos_ns,"(0.7, -0.5)",cs_neg_ns,"(0.7, 0.5)",cs_pos_s,0,0,0,0,,,,,,,,,,,,,,,,,,,,,1,10,34,5,,,,,,,,,,,,,,,,,,,,,,,,,,,303,reward,,,,,,1434.4602196998894,1434.4602196998894,1434.4602196998894,1434.4602196998894,0,,,1,0.029641099739819765,0.5165031999349594,0,,,0,,,1435.4810249996372,1435.4810249996372,1435.4810249996372,1435.4810249996372,5,C,2024-04-16_10h50.48.633,attentional_competition_task,2022.2.4,144.00423898061953,
positions.xlsx,positions_test.xlsx,positions_test_new.xlsx,stimuli.xlsx,stimuli_new.xlsx,stimuli/Social3.png,stimuli/Social4.png,stimuli/Nonsocial3.png,stimuli/Nonsocial4.png,stimuli/Social1.png,stimuli/Social2.png,stimuli/Nonsocial1.png,stimuli/Nonsocial2.png,,,"(-0.7, -0.5)",cs_neg_s,"(-0.7, 0.5)",cs_neg_ns,"(0.7, -0.5)",cs_pos_s,"(0.7, 0.5)",cs_pos_ns,0,0,0,0,,,,,,,,,,,,,,,,,,,,,1,11,35,2,,,,,,,,,,,,,,,,,,,,,,,,,,,312,reward,,,,,,1442.8834973997436,1442.8834973997436,1442.8834973997436,1442.8834973997436,0,,,0,,,0,,,1,0.027714800089597702,0.46638259990140796,1443.8557132999413,1443.8557132999413,1443.8557132999413,1443.8557132999413,5,C,2024-04-16_10h50.48.633,attentional_competition_task,2022.2.4,144.00423898061953,
positions.xlsx,positions_test.xlsx,positions_test_new.xlsx,stimuli.xlsx,stimuli_new.xlsx,stimuli/Social3.png,stimuli/Social4.png,stimuli/Nonsocial3.png,stimuli/Nonsocial4.png,stimuli/Social1.png,stimuli/Social2.png,stimuli/Nonsocial1.png,stimuli/Nonsocial2.png,,,"(-0.7, -0.5)",cs_pos_ns,"(-0.7, 0.5)",cs_neg_ns,"(0.7, -0.5)",cs_pos_s,"(0.7, 0.5)",cs_neg_s,0,0,0,0,,,,,,,,,,,,,,,,,,,,,1,12,36,20,,,,,,,,,,,,,,,,,,,,,,,,,,,321,reward,,,,,,1450.8276057997718,1450.8276057997718,1450.8276057997718,1450.8276057997718,1,0.028129899874329567,0.42527240002527833,0,,,0,,,0,,,1451.7581529999152,1451.7581529999152,1451.7581529999152,1451.7581529999152,5,C,2024-04-16_10h50.48.633,attentional_competition_task,2022.2.4,144.00423898061953,
positions.xlsx,positions_test.xlsx,positions_test_new.xlsx,stimuli.xlsx,stimuli_new.xlsx,stimuli/Social3.png,stimuli/Social4.png,stimuli/Nonsocial3.png,stimuli/Nonsocial4.png,stimuli/Social1.png,stimuli/Social2.png,stimuli/Nonsocial1.png,stimuli/Nonsocial2.png,,,"(-0.7, -0.5)",cs_pos_s,"(-0.7, 0.5)",cs_pos_ns,"(0.7, -0.5)",cs_neg_s,"(0.7, 0.5)",cs_neg_ns,0,0,0,0,,,,,,,,,,,,,,,,,,,,,1,13,37,10,,,,,,,,,,,,,,,,,,,,,,,,,,,330,reward,,,,,,1459.8828301997855,1459.8828301997855,1459.8828301997855,1459.8828301997855,0,,,1,0.03300080029293895,0.078774300403893,0,,,0,,,1460.4592092996463,1460.4592092996463,1460.4592092996463,1460.4592092996463,5,C,2024-04-16_10h50.48.633,attentional_competition_task,2022.2.4,144.00423898061953,
positions.xlsx,positions_test.xlsx,positions_test_new.xlsx,stimuli.xlsx,stimuli_new.xlsx,stimuli/Social3.png,stimuli/Social4.png,stimuli/Nonsocial3.png,stimuli/Nonsocial4.png,stimuli/Social1.png,stimuli/Social2.png,stimuli/Nonsocial1.png,stimuli/Nonsocial2.png,,,"(-0.7, -0.5)",cs_pos_ns,"(-0.7, 0.5)",cs_neg_ns,"(0.7, -0.5)",cs_neg_s,"(0.7, 0.5)",cs_pos_s,0,0,0,0,,,,,,,,,,,,,,,,,,,,,1,14,38,21,,,,,,,,,,,,,,,,,,,,,,,,,,,339,reward,,,,,,1467.5283542000689,1467.5283542000689,1467.5283542000689,1467.5283542000689,1,0.02272080024704337,0.40585430013015866,0,,,0,,,0,,,1468.4450011998415,1468.4450011998415,1468.4450011998415,1468.4450011998415,5,C,2024-04-16_10h50.48.633,attentional_competition_task,2022.2.4,144.00423898061953,
positions.xlsx,positions_test.xlsx,positions_test_new.xlsx,stimuli.xlsx,stimuli_new.xlsx,stimuli/Social3.png,stimuli/Social4.png,stimuli/Nonsocial3.png,stimuli/Nonsocial4.png,stimuli/Social1.png,stimuli/Social2.png,stimuli/Nonsocial1.png,stimuli/Nonsocial2.png,,,"(-0.7, -0.5)",cs_neg_s,"(-0.7, 0.5)",cs_pos_ns,"(0.7, -0.5)",cs_pos_s,"(0.7, 0.5)",cs_neg_ns,0,0,0,0,,,,,,,,,,,,,,,,,,,,,1,15,39,4,,,,,,,,,,,,,,,,,,,,,,,,,,,342,reward,,,,,,1475.9516369998455,1475.9516369998455,1475.9516369998455,1475.9516369998455,0,,,1,0.023148000240325928,0.023151600267738104,0,,,0,,,1475.9516369998455,1475.9516369998455,1475.9516369998455,1475.9516369998455,5,C,2024-04-16_10h50.48.633,attentional_competition_task,2022.2.4,144.00423898061953,
positions.xlsx,positions_test.xlsx,positions_test_new.xlsx,stimuli.xlsx,stimuli_new.xlsx,stimuli/Social3.png,stimuli/Social4.png,stimuli/Nonsocial3.png,stimuli/Nonsocial4.png,stimuli/Social1.png,stimuli/Social2.png,stimuli/Nonsocial1.png,stimuli/Nonsocial2.png,,,"(-0.7, -0.5)",cs_neg_s,"(-0.7, 0.5)",cs_neg_ns,"(0.7, -0.5)",cs_pos_ns,"(0.7, 0.5)",cs_pos_s,0,0,0,0,,,,,,,,,,,,,,,,,,,,,1,16,40,3,,,,,,,,,,,,,,,,,,,,,,,,,,,351,reward,,,,,,1484.1457509999163,1484.1457509999163,1484.1457509999163,1484.1457509999163,0,,,0,,,1,0.03074130043387413,0.4187851003371179,0,,,1485.0624231998809,1485.0624231998809,1485.0624231998809,1485.0624231998809,5,C,2024-04-16_10h50.48.633,attentional_competition_task,2022.2.4,144.00423898061953,
positions.xlsx,positions_test.xlsx,positions_test_new.xlsx,stimuli.xlsx,stimuli_new.xlsx,stimuli/Social3.png,stimuli/Social4.png,stimuli/Nonsocial3.png,stimuli/Nonsocial4.png,stimuli/Social1.png,stimuli/Social2.png,stimuli/Nonsocial1.png,stimuli/Nonsocial2.png,,,"(-0.7, -0.5)",cs_pos_s,"(-0.7, 0.5)",cs_pos_ns,"(0.7, -0.5)",cs_neg_ns,"(0.7, 0.5)",cs_neg_s,0,0,0,0,,,,,,,,,,,,,,,,,,,,,1,17,41,11,,,,,,,,,,,,,,,,,,,,,,,,,,,360,reward,,,,,,1492.7079280996695,1492.7079280996695,1492.7079280996695,1492.7079280996695,0,,,1,0.031343599781394005,0.5862666997127235,0,,,0,,,1493.7912178998813,1493.7912178998813,1493.7912178998813,1493.7912178998813,5,C,2024-04-16_10h50.48.633,attentional_competition_task,2022.2.4,144.00423898061953,
positions.xlsx,positions_test.xlsx,positions_test_new.xlsx,stimuli.xlsx,stimuli_new.xlsx,stimuli/Social3.png,stimuli/Social4.png,stimuli/Nonsocial3.png,stimuli/Nonsocial4.png,stimuli/Social1.png,stimuli/Social2.png,stimuli/Nonsocial1.png,stimuli/Nonsocial2.png,,,"(-0.7, -0.5)",cs_pos_ns,"(-0.7, 0.5)",cs_neg_s,"(0.7, -0.5)",cs_pos_s,"(0.7, 0.5)",cs_neg_ns,0,0,0,0,,,,,,,,,,,,,,,,,,,,,1,18,42,22,,,,,,,,,,,,,,,,,,,,,,,,,,,363,reward,,,,,,1500.165956999641,1500.165956999641,1500.165956999641,1500.165956999641,0,,,0,,,1,1.5712856999598444,1.5712892999872565,0,,,1501.7422918998636,1501.7422918998636,1501.7422918998636,1501.7422918998636,5,C,2024-04-16_10h50.48.633,attentional_competition_task,2022.2.4,144.00423898061953,
positions.xlsx,positions_test.xlsx,positions_test_new.xlsx,stimuli.xlsx,stimuli_new.xlsx,stimuli/Social3.png,stimuli/Social4.png,stimuli/Nonsocial3.png,stimuli/Nonsocial4.png,stimuli/Social1.png,stimuli/Social2.png,stimuli/Nonsocial1.png,stimuli/Nonsocial2.png,,,"(-0.7, -0.5)",cs_neg_s,"(-0.7, 0.5)",cs_pos_s,"(0.7, -0.5)",cs_pos_ns,"(0.7, 0.5)",cs_neg_ns,0,0,0,0,,,,,,,,,,,,,,,,,,,,,1,19,43,1,,,,,,,,,,,,,,,,,,,,,,,,,,,369,reward,,,,,,1511.1793732000515,1511.1793732000515,1511.1793732000515,1511.1793732000515,0,,,0,,,1,0.03017959976568818,0.044923999812453985,0,,,1511.7210614997894,1511.7210614997894,1511.7210614997894,1511.7210614997894,5,C,2024-04-16_10h50.48.633,attentional_competition_task,2022.2.4,144.00423898061953,
positions.xlsx,positions_test.xlsx,positions_test_new.xlsx,stimuli.xlsx,stimuli_new.xlsx,stimuli/Social3.png,stimuli/Social4.png,stimuli/Nonsocial3.png,stimuli/Nonsocial4.png,stimuli/Social1.png,stimuli/Social2.png,stimuli/Nonsocial1.png,stimuli/Nonsocial2.png,,,"(-0.7, -0.5)",cs_neg_ns,"(-0.7, 0.5)",cs_pos_ns,"(0.7, -0.5)",cs_pos_s,"(0.7, 0.5)",cs_neg_s,0,0,0,0,,,,,,,,,,,,,,,,,,,,,1,20,44,16,,,,,,,,,,,,,,,,,,,,,,,,,,,378,reward,,,,,,1519.4151860000566,1519.4151860000566,1519.4151860000566,1519.4151860000566,0,,,1,0.02453389996662736,0.4622615999542177,0,,,0,,,1520.3804346998222,1520.3804346998222,1520.3804346998222,1520.3804346998222,5,C,2024-04-16_10h50.48.633,attentional_competition_task,2022.2.4,144.00423898061953,
positions.xlsx,positions_test.xlsx,positions_test_new.xlsx,stimuli.xlsx,stimuli_new.xlsx,stimuli/Social3.png,stimuli/Social4.png,stimuli/Nonsocial3.png,stimuli/Nonsocial4.png,stimuli/Social1.png,stimuli/Social2.png,stimuli/Nonsocial1.png,stimuli/Nonsocial2.png,,,"(-0.7, -0.5)",cs_pos_s,"(-0.7, 0.5)",cs_neg_ns,"(0.7, -0.5)",cs_pos_ns,"(0.7, 0.5)",cs_neg_s,0,0,0,0,,,,,,,,,,,,,,,,,,,,,1,21,45,9,,,,,,,,,,,,,,,,,,,,,,,,,,,387,reward,,,,,,1528.0051222997718,1528.0051222997718,1528.0051222997718,1528.0051222997718,0,,,0,,,1,0.023169400170445442,0.5240890001878142,0,,,1529.0259511000477,1529.0259511000477,1529.0259511000477,1529.0259511000477,5,C,2024-04-16_10h50.48.633,attentional_competition_task,2022.2.4,144.00423898061953,
positions.xlsx,positions_test.xlsx,positions_test_new.xlsx,stimuli.xlsx,stimuli_new.xlsx,stimuli/Social3.png,stimuli/Social4.png,stimuli/Nonsocial3.png,stimuli/Nonsocial4.png,stimuli/Social1.png,stimuli/Social2.png,stimuli/Nonsocial1.png,stimuli/Nonsocial2.png,,,"(-0.7, -0.5)",cs_neg_ns,"(-0.7, 0.5)",cs_neg_s,"(0.7, -0.5)",cs_pos_ns,"(0.7, 0.5)",cs_pos_s,0,0,0,0,,,,,,,,,,,,,,,,,,,,,1,22,46,15,,,,,,,,,,,,,,,,,,,,,,,,,,,396,reward,,,,,,1536.1992738000117,1536.1992738000117,1536.1992738000117,1536.1992738000117,0,,,0,,,1,0.027356100268661976,0.2624607002362609,1,0.27652510022744536,0.47187709994614124,1537.1853179996833,1537.1853179996833,1537.1853179996833,1537.1853179996833,5,C,2024-04-16_10h50.48.633,attentional_competition_task,2022.2.4,144.00423898061953,
positions.xlsx,positions_test.xlsx,positions_test_new.xlsx,stimuli.xlsx,stimuli_new.xlsx,stimuli/Social3.png,stimuli/Social4.png,stimuli/Nonsocial3.png,stimuli/Nonsocial4.png,stimuli/Social1.png,stimuli/Social2.png,stimuli/Nonsocial1.png,stimuli/Nonsocial2.png,,,"(-0.7, -0.5)",cs_pos_s,"(-0.7, 0.5)",cs_neg_s,"(0.7, -0.5)",cs_pos_ns,"(0.7, 0.5)",cs_neg_ns,0,0,0,0,,,,,,,,,,,,,,,,,,,,,1,23,47,7,,,,,,,,,,,,,,,,,,,,,,,,,,,399,reward,,,,,,1544.9141800999641,1544.9141800999641,1544.9141800999641,1544.9141800999641,0,,,0,,,1,0.023575300350785255,0.023579100146889687,0,,,1544.9141800999641,1544.9141800999641,1544.9141800999641,1544.9141800999641,5,C,2024-04-16_10h50.48.633,attentional_competition_task,2022.2.4,144.00423898061953,
positions.xlsx,positions_test.xlsx,positions_test_new.xlsx,stimuli.xlsx,stimuli_new.xlsx,stimuli/Social3.png,stimuli/Social4.png,stimuli/Nonsocial3.png,stimuli/Nonsocial4.png,stimuli/Social1.png,stimuli/Social2.png,stimuli/Nonsocial1.png,stimuli/Nonsocial2.png,,,"(-0.7, -0.5)",cs_pos_s_new,"(-0.7, 0.5)",cs_neg_s,"(0.7, -0.5)",cs_pos_ns,"(0.7, 0.5)",cs_neg_ns,0,0,0,0,,,,,,,,,,,,,,,,,,,,,,,,,,,,,0,0,0,32,0,0,0,0,,,,,,,,,,,,,,,396,loss,,,,,,1551.6152995997109,1551.6152995997109,1551.6152995997109,1551.6152995997109,0,,,1,0.3492823000997305,0.3492862000130117,0,,,0,,,1551.969428499695,1551.969428499695,1551.969428499695,1551.969428499695,5,C,2024-04-16_10h50.48.633,attentional_competition_task,2022.2.4,144.00423898061953,
positions.xlsx,positions_test.xlsx,positions_test_new.xlsx,stimuli.xlsx,stimuli_new.xlsx,stimuli/Social3.png,stimuli/Social4.png,stimuli/Nonsocial3.png,stimuli/Nonsocial4.png,stimuli/Social1.png,stimuli/Social2.png,stimuli/Nonsocial1.png,stimuli/Nonsocial2.png,,,"(-0.7, -0.5)",cs_pos_s_new,"(-0.7, 0.5)",cs_neg_s,"(0.7, -0.5)",cs_pos_ns,"(0.7, 0.5)",cs_neg_ns,0,0,0,0,,,,,,,,,,,,,,,,,,,,,,,,,,,,,0,0,0,32,1,0,1,0,,,,,,,,,,,,,,,399,reward,,,,,,1552.4763774997555,1552.4763774997555,1552.4763774997555,1552.4763774997555,0,,,0,,,1,0.2804852998815477,0.28822690015658736,0,,,1552.768030999694,1552.768030999694,1552.768030999694,1552.768030999694,5,C,2024-04-16_10h50.48.633,attentional_competition_task,2022.2.4,144.00423898061953,
positions.xlsx,positions_test.xlsx,positions_test_new.xlsx,stimuli.xlsx,stimuli_new.xlsx,stimuli/Social3.png,stimuli/Social4.png,stimuli/Nonsocial3.png,stimuli/Nonsocial4.png,stimuli/Social1.png,stimuli/Social2.png,stimuli/Nonsocial1.png,stimuli/Nonsocial2.png,,,"(-0.7, -0.5)",cs_pos_s_new,"(-0.7, 0.5)",cs_neg_s,"(0.7, -0.5)",cs_pos_ns,"(0.7, 0.5)",cs_neg_ns,0,0,0,0,,,,,,,,,,,,,,,,,,,,,,,,,,,,,0,0,0,32,2,0,2,0,,,,,,,,,,,,,,,396,loss,,,,,,1553.2957834997214,1553.2957834997214,1553.2957834997214,1553.2957834997214,0,,,0,,,0,,,1,0.02903429977595806,0.02903810003772378,1553.2957834997214,1553.2957834997214,1553.2957834997214,1553.2957834997214,5,C,2024-04-16_10h50.48.633,attentional_competition_task,2022.2.4,144.00423898061953,
positions.xlsx,positions_test.xlsx,positions_test_new.xlsx,stimuli.xlsx,stimuli_new.xlsx,stimuli/Social3.png,stimuli/Social4.png,stimuli/Nonsocial3.png,stimuli/Nonsocial4.png,stimuli/Social1.png,stimuli/Social2.png,stimuli/Nonsocial1.png,stimuli/Nonsocial2.png,,,"(-0.7, -0.5)",cs_pos_s_new,"(-0.7, 0.5)",cs_neg_s,"(0.7, -0.5)",cs_pos_ns,"(0.7, 0.5)",cs_neg_ns,0,0,0,0,,,,,,,,,,,,,,,,,,,,,,,,,,,,,0,0,0,32,,,,,,,,,,,,,,,,,,,,,,,,,,,,,,,,,,,,,,,,,,,,,,5,C,2024-04-16_10h50.48.633,attentional_competition_task,2022.2.4,144.00423898061953,
positions.xlsx,positions_test.xlsx,positions_test_new.xlsx,stimuli.xlsx,stimuli_new.xlsx,stimuli/Social3.png,stimuli/Social4.png,stimuli/Nonsocial3.png,stimuli/Nonsocial4.png,stimuli/Social1.png,stimuli/Social2.png,stimuli/Nonsocial1.png,stimuli/Nonsocial2.png,,,"(-0.7, -0.5)",cs_neg_ns,"(-0.7, 0.5)",cs_neg_s,"(0.7, -0.5)",cs_pos_s,"(0.7, 0.5)",cs_pos_ns_new,0,0,0,0,,,,,,,,,,,,,,,,,,,,,,,,,,,,,0,1,1,43,0,0,0,0,,,,,,,,,,,,,,,399,reward,,,,,,1560.5038143000565,1560.5038143000565,1560.5038143000565,1560.5038143000565,0,,,0,,,1,0.5511924000456929,0.5511964000761509,0,,,1561.059348099865,1561.059348099865,1561.059348099865,1561.059348099865,5,C,2024-04-16_10h50.48.633,attentional_competition_task,2022.2.4,144.00423898061953,
positions.xlsx,positions_test.xlsx,positions_test_new.xlsx,stimuli.xlsx,stimuli_new.xlsx,stimuli/Social3.png,stimuli/Social4.png,stimuli/Nonsocial3.png,stimuli/Nonsocial4.png,stimuli/Social1.png,stimuli/Social2.png,stimuli/Nonsocial1.png,stimuli/Nonsocial2.png,,,"(-0.7, -0.5)",cs_neg_ns,"(-0.7, 0.5)",cs_neg_s,"(0.7, -0.5)",cs_pos_s,"(0.7, 0.5)",cs_pos_ns_new,0,0,0,0,,,,,,,,,,,,,,,,,,,,,,,,,,,,,0,1,1,43,1,0,1,0,,,,,,,,,,,,,,,402,reward,,,,,,1561.5941519998014,1561.5941519998014,1561.5941519998014,1561.5941519998014,0,,,0,,,0,,,1,0.030845499597489834,0.030848999973386526,1561.5941519998014,1561.5941519998014,1561.5941519998014,1561.5941519998014,5,C,2024-04-16_10h50.48.633,attentional_competition_task,2022.2.4,144.00423898061953,
positions.xlsx,positions_test.xlsx,positions_test_new.xlsx,stimuli.xlsx,stimuli_new.xlsx,stimuli/Social3.png,stimuli/Social4.png,stimuli/Nonsocial3.png,stimuli/Nonsocial4.png,stimuli/Social1.png,stimuli/Social2.png,stimuli/Nonsocial1.png,stimuli/Nonsocial2.png,,,"(-0.7, -0.5)",cs_neg_ns,"(-0.7, 0.5)",cs_neg_s,"(0.7, -0.5)",cs_pos_s,"(0.7, 0.5)",cs_pos_ns_new,0,0,0,0,,,,,,,,,,,,,,,,,,,,,,,,,,,,,0,1,1,43,2,0,2,0,,,,,,,,,,,,,,,399,loss,,,,,,1562.1287690000609,1562.1287690000609,1562.1287690000609,1562.1287690000609,1,0.029007299803197384,0.029011199716478586,0,,,0,,,0,,,1562.1287690000609,1562.1287690000609,1562.1287690000609,1562.1287690000609,5,C,2024-04-16_10h50.48.633,attentional_competition_task,2022.2.4,144.00423898061953,
positions.xlsx,positions_test.xlsx,positions_test_new.xlsx,stimuli.xlsx,stimuli_new.xlsx,stimuli/Social3.png,stimuli/Social4.png,stimuli/Nonsocial3.png,stimuli/Nonsocial4.png,stimuli/Social1.png,stimuli/Social2.png,stimuli/Nonsocial1.png,stimuli/Nonsocial2.png,,,"(-0.7, -0.5)",cs_neg_ns,"(-0.7, 0.5)",cs_neg_s,"(0.7, -0.5)",cs_pos_s,"(0.7, 0.5)",cs_pos_ns_new,0,0,0,0,,,,,,,,,,,,,,,,,,,,,,,,,,,,,0,1,1,43,,,,,,,,,,,,,,,,,,,,,,,,,,,,,,,,,,,,,,,,,,,,,,5,C,2024-04-16_10h50.48.633,attentional_competition_task,2022.2.4,144.00423898061953,
positions.xlsx,positions_test.xlsx,positions_test_new.xlsx,stimuli.xlsx,stimuli_new.xlsx,stimuli/Social3.png,stimuli/Social4.png,stimuli/Nonsocial3.png,stimuli/Nonsocial4.png,stimuli/Social1.png,stimuli/Social2.png,stimuli/Nonsocial1.png,stimuli/Nonsocial2.png,,,"(-0.7, -0.5)",cs_neg_s,"(-0.7, 0.5)",cs_neg_ns,"(0.7, -0.5)",cs_pos_ns,"(0.7, 0.5)",cs_pos_s_new,0,0,0,0,,,,,,,,,,,,,,,,,,,,,,,,,,,,,0,2,2,37,0,0,0,0,,,,,,,,,,,,,,,402,reward,,,,,,1569.3298561000265,1569.3298561000265,1569.3298561000265,1569.3298561000265,0,,,0,,,1,0.6208033002912998,0.6208073003217578,0,,,1569.9617649996653,1569.9617649996653,1569.9617649996653,1569.9617649996653,5,C,2024-04-16_10h50.48.633,attentional_competition_task,2022.2.4,144.00423898061953,
positions.xlsx,positions_test.xlsx,positions_test_new.xlsx,stimuli.xlsx,stimuli_new.xlsx,stimuli/Social3.png,stimuli/Social4.png,stimuli/Nonsocial3.png,stimuli/Nonsocial4.png,stimuli/Social1.png,stimuli/Social2.png,stimuli/Nonsocial1.png,stimuli/Nonsocial2.png,,,"(-0.7, -0.5)",cs_neg_s,"(-0.7, 0.5)",cs_neg_ns,"(0.7, -0.5)",cs_pos_ns,"(0.7, 0.5)",cs_pos_s_new,0,0,0,0,,,,,,,,,,,,,,,,,,,,,,,,,,,,,0,2,2,37,1,0,1,0,,,,,,,,,,,,,,,399,loss,,,,,,1570.4617952997796,1570.4617952997796,1570.4617952997796,1570.4617952997796,1,0.07781230006366968,0.07783039985224605,0,,,0,,,0,,,1570.5451535000466,1570.5451535000466,1570.5451535000466,1570.5451535000466,5,C,2024-04-16_10h50.48.633,attentional_competition_task,2022.2.4,144.00423898061953,
positions.xlsx,positions_test.xlsx,positions_test_new.xlsx,stimuli.xlsx,stimuli_new.xlsx,stimuli/Social3.png,stimuli/Social4.png,stimuli/Nonsocial3.png,stimuli/Nonsocial4.png,stimuli/Social1.png,stimuli/Social2.png,stimuli/Nonsocial1.png,stimuli/Nonsocial2.png,,,"(-0.7, -0.5)",cs_neg_s,"(-0.7, 0.5)",cs_neg_ns,"(0.7, -0.5)",cs_pos_ns,"(0.7, 0.5)",cs_pos_s_new,0,0,0,0,,,,,,,,,,,,,,,,,,,,,,,,,,,,,0,2,2,37,2,0,2,0,,,,,,,,,,,,,,,396,loss,,,,,,1571.0728736999445,1571.0728736999445,1571.0728736999445,1571.0728736999445,0,,,1,0.029211000073701143,0.029215400107204914,0,,,0,,,1571.0728736999445,1571.0728736999445,1571.0728736999445,1571.0728736999445,5,C,2024-04-16_10h50.48.633,attentional_competition_task,2022.2.4,144.00423898061953,
positions.xlsx,positions_test.xlsx,positions_test_new.xlsx,stimuli.xlsx,stimuli_new.xlsx,stimuli/Social3.png,stimuli/Social4.png,stimuli/Nonsocial3.png,stimuli/Nonsocial4.png,stimuli/Social1.png,stimuli/Social2.png,stimuli/Nonsocial1.png,stimuli/Nonsocial2.png,,,"(-0.7, -0.5)",cs_neg_s,"(-0.7, 0.5)",cs_neg_ns,"(0.7, -0.5)",cs_pos_ns,"(0.7, 0.5)",cs_pos_s_new,0,0,0,0,,,,,,,,,,,,,,,,,,,,,,,,,,,,,0,2,2,37,,,,,,,,,,,,,,,,,,,,,,,,,,,,,,,,,,,,,,,,,,,,,,5,C,2024-04-16_10h50.48.633,attentional_competition_task,2022.2.4,144.00423898061953,
positions.xlsx,positions_test.xlsx,positions_test_new.xlsx,stimuli.xlsx,stimuli_new.xlsx,stimuli/Social3.png,stimuli/Social4.png,stimuli/Nonsocial3.png,stimuli/Nonsocial4.png,stimuli/Social1.png,stimuli/Social2.png,stimuli/Nonsocial1.png,stimuli/Nonsocial2.png,,,"(-0.7, -0.5)",cs_neg_s,"(-0.7, 0.5)",cs_pos_s,"(0.7, -0.5)",cs_neg_ns,"(0.7, 0.5)",cs_pos_ns,0,0,0,0,,,,,,,,,,,,,,,,,,,,,,,,,,,,,0,3,3,2,0,0,0,0,,,,,,,,,,,,,,,399,reward,,,,,,1578.0656411000527,1578.0656411000527,1578.0656411000527,1578.0656411000527,0,,,0,,,0,,,1,0.8858949998393655,0.8986625000834465,1578.9684092998505,1578.9684092998505,1578.9684092998505,1578.9684092998505,5,C,2024-04-16_10h50.48.633,attentional_competition_task,2022.2.4,144.00423898061953,
positions.xlsx,positions_test.xlsx,positions_test_new.xlsx,stimuli.xlsx,stimuli_new.xlsx,stimuli/Social3.png,stimuli/Social4.png,stimuli/Nonsocial3.png,stimuli/Nonsocial4.png,stimuli/Social1.png,stimuli/Social2.png,stimuli/Nonsocial1.png,stimuli/Nonsocial2.png,,,"(-0.7, -0.5)",cs_neg_s,"(-0.7, 0.5)",cs_pos_s,"(0.7, -0.5)",cs_neg_ns,"(0.7, 0.5)",cs_pos_ns,0,0,0,0,,,,,,,,,,,,,,,,,,,,,,,,,,,,,0,3,3,2,1,0,1,0,,,,,,,,,,,,,,,396,loss,,,,,,1579.5030863997526,1579.5030863997526,1579.5030863997526,1579.5030863997526,0,,,0,,,1,0.03083509998396039,0.030839200131595135,0,,,1579.5030863997526,1579.5030863997526,1579.5030863997526,1579.5030863997526,5,C,2024-04-16_10h50.48.633,attentional_competition_task,2022.2.4,144.00423898061953,
positions.xlsx,positions_test.xlsx,positions_test_new.xlsx,stimuli.xlsx,stimuli_new.xlsx,stimuli/Social3.png,stimuli/Social4.png,stimuli/Nonsocial3.png,stimuli/Nonsocial4.png,stimuli/Social1.png,stimuli/Social2.png,stimuli/Nonsocial1.png,stimuli/Nonsocial2.png,,,"(-0.7, -0.5)",cs_neg_s,"(-0.7, 0.5)",cs_pos_s,"(0.7, -0.5)",cs_neg_ns,"(0.7, 0.5)",cs_pos_ns,0,0,0,0,,,,,,,,,,,,,,,,,,,,,,,,,,,,,0,3,3,2,2,0,2,0,,,,,,,,,,,,,,,399,reward,,,,,,1580.0377523996867,1580.0377523996867,1580.0377523996867,1580.0377523996867,0,,,1,0.028866800013929605,0.028870699927210808,0,,,0,,,1580.0377523996867,1580.0377523996867,1580.0377523996867,1580.0377523996867,5,C,2024-04-16_10h50.48.633,attentional_competition_task,2022.2.4,144.00423898061953,
positions.xlsx,positions_test.xlsx,positions_test_new.xlsx,stimuli.xlsx,stimuli_new.xlsx,stimuli/Social3.png,stimuli/Social4.png,stimuli/Nonsocial3.png,stimuli/Nonsocial4.png,stimuli/Social1.png,stimuli/Social2.png,stimuli/Nonsocial1.png,stimuli/Nonsocial2.png,,,"(-0.7, -0.5)",cs_neg_s,"(-0.7, 0.5)",cs_pos_s,"(0.7, -0.5)",cs_neg_ns,"(0.7, 0.5)",cs_pos_ns,0,0,0,0,,,,,,,,,,,,,,,,,,,,,,,,,,,,,0,3,3,2,,,,,,,,,,,,,,,,,,,,,,,,,,,,,,,,,,,,,,,,,,,,,,5,C,2024-04-16_10h50.48.633,attentional_competition_task,2022.2.4,144.00423898061953,
positions.xlsx,positions_test.xlsx,positions_test_new.xlsx,stimuli.xlsx,stimuli_new.xlsx,stimuli/Social3.png,stimuli/Social4.png,stimuli/Nonsocial3.png,stimuli/Nonsocial4.png,stimuli/Social1.png,stimuli/Social2.png,stimuli/Nonsocial1.png,stimuli/Nonsocial2.png,,,"(-0.7, -0.5)",cs_pos_s,"(-0.7, 0.5)",cs_pos_ns,"(0.7, -0.5)",cs_neg_s,"(0.7, 0.5)",cs_neg_ns,0,0,0,0,,,,,,,,,,,,,,,,,,,,,,,,,,,,,0,4,4,3,0,0,0,0,,,,,,,,,,,,,,,402,reward,,,,,,1586.8846863997169,1586.8846863997169,1586.8846863997169,1586.8846863997169,0,,,1,0.6620227000676095,0.662026799749583,0,,,0,,,1587.5514239999466,1587.5514239999466,1587.5514239999466,1587.5514239999466,5,C,2024-04-16_10h50.48.633,attentional_competition_task,2022.2.4,144.00423898061953,
positions.xlsx,positions_test.xlsx,positions_test_new.xlsx,stimuli.xlsx,stimuli_new.xlsx,stimuli/Social3.png,stimuli/Social4.png,stimuli/Nonsocial3.png,stimuli/Nonsocial4.png,stimuli/Social1.png,stimuli/Social2.png,stimuli/Nonsocial1.png,stimuli/Nonsocial2.png,,,"(-0.7, -0.5)",cs_pos_s,"(-0.7, 0.5)",cs_pos_ns,"(0.7, -0.5)",cs_neg_s,"(0.7, 0.5)",cs_neg_ns,0,0,0,0,,,,,,,,,,,,,,,,,,,,,,,,,,,,,0,4,4,3,1,0,1,0,,,,,,,,,,,,,,,405,reward,,,,,,1588.0860735997558,1588.0860735997558,1588.0860735997558,1588.0860735997558,1,0.028015099931508303,0.028018799610435963,0,,,0,,,0,,,1588.0860735997558,1588.0860735997558,1588.0860735997558,1588.0860735997558,5,C,2024-04-16_10h50.48.633,attentional_competition_task,2022.2.4,144.00423898061953,
positions.xlsx,positions_test.xlsx,positions_test_new.xlsx,stimuli.xlsx,stimuli_new.xlsx,stimuli/Social3.png,stimuli/Social4.png,stimuli/Nonsocial3.png,stimuli/Nonsocial4.png,stimuli/Social1.png,stimuli/Social2.png,stimuli/Nonsocial1.png,stimuli/Nonsocial2.png,,,"(-0.7, -0.5)",cs_pos_s,"(-0.7, 0.5)",cs_pos_ns,"(0.7, -0.5)",cs_neg_s,"(0.7, 0.5)",cs_neg_ns,0,0,0,0,,,,,,,,,,,,,,,,,,,,,,,,,,,,,0,4,4,3,2,0,2,0,,,,,,,,,,,,,,,408,reward,,,,,,1588.5929990997538,1588.5929990997538,1588.5929990997538,1588.5929990997538,1,0.0299732000567019,0.3080293000675738,0,,,0,,,0,,,1589.3985319999047,1589.3985319999047,1589.3985319999047,1589.3985319999047,5,C,2024-04-16_10h50.48.633,attentional_competition_task,2022.2.4,144.00423898061953,
positions.xlsx,positions_test.xlsx,positions_test_new.xlsx,stimuli.xlsx,stimuli_new.xlsx,stimuli/Social3.png,stimuli/Social4.png,stimuli/Nonsocial3.png,stimuli/Nonsocial4.png,stimuli/Social1.png,stimuli/Social2.png,stimuli/Nonsocial1.png,stimuli/Nonsocial2.png,,,"(-0.7, -0.5)",cs_pos_s,"(-0.7, 0.5)",cs_pos_ns,"(0.7, -0.5)",cs_neg_s,"(0.7, 0.5)",cs_neg_ns,0,0,0,0,,,,,,,,,,,,,,,,,,,,,,,,,,,,,0,4,4,3,,,,,,,,,,,,,,,,,,,,,,,,,,,,,,,,,,,,,,,,,,,,,,5,C,2024-04-16_10h50.48.633,attentional_competition_task,2022.2.4,144.00423898061953,
positions.xlsx,positions_test.xlsx,positions_test_new.xlsx,stimuli.xlsx,stimuli_new.xlsx,stimuli/Social3.png,stimuli/Social4.png,stimuli/Nonsocial3.png,stimuli/Nonsocial4.png,stimuli/Social1.png,stimuli/Social2.png,stimuli/Nonsocial1.png,stimuli/Nonsocial2.png,,,"(-0.7, -0.5)",cs_neg_ns_new,"(-0.7, 0.5)",cs_pos_ns,"(0.7, -0.5)",cs_pos_s,"(0.7, 0.5)",cs_neg_s,0,0,0,0,,,,,,,,,,,,,,,,,,,,,,,,,,,,,0,5,5,24,0,0,0,0,,,,,,,,,,,,,,,411,reward,,,,,,1596.1413476997986,1596.1413476997986,1596.1413476997986,1596.1413476997986,0,,,0,,,1,0.5649761999957263,0.5649800999090075,0,,,1596.7107269000262,1596.7107269000262,1596.7107269000262,1596.7107269000262,5,C,2024-04-16_10h50.48.633,attentional_competition_task,2022.2.4,144.00423898061953,
positions.xlsx,positions_test.xlsx,positions_test_new.xlsx,stimuli.xlsx,stimuli_new.xlsx,stimuli/Social3.png,stimuli/Social4.png,stimuli/Nonsocial3.png,stimuli/Nonsocial4.png,stimuli/Social1.png,stimuli/Social2.png,stimuli/Nonsocial1.png,stimuli/Nonsocial2.png,,,"(-0.7, -0.5)",cs_neg_ns_new,"(-0.7, 0.5)",cs_pos_ns,"(0.7, -0.5)",cs_pos_s,"(0.7, 0.5)",cs_neg_s,0,0,0,0,,,,,,,,,,,,,,,,,,,,,,,,,,,,,0,5,5,24,1,0,1,0,,,,,,,,,,,,,,,408,loss,,,,,,1597.2454141997732,1597.2454141997732,1597.2454141997732,1597.2454141997732,1,0.029906199779361486,0.02991019980981946,0,,,0,,,0,,,1597.2454141997732,1597.2454141997732,1597.2454141997732,1597.2454141997732,5,C,2024-04-16_10h50.48.633,attentional_competition_task,2022.2.4,144.00423898061953,
positions.xlsx,positions_test.xlsx,positions_test_new.xlsx,stimuli.xlsx,stimuli_new.xlsx,stimuli/Social3.png,stimuli/Social4.png,stimuli/Nonsocial3.png,stimuli/Nonsocial4.png,stimuli/Social1.png,stimuli/Social2.png,stimuli/Nonsocial1.png,stimuli/Nonsocial2.png,,,"(-0.7, -0.5)",cs_neg_ns_new,"(-0.7, 0.5)",cs_pos_ns,"(0.7, -0.5)",cs_pos_s,"(0.7, 0.5)",cs_neg_s,0,0,0,0,,,,,,,,,,,,,,,,,,,,,,,,,,,,,0,5,5,24,2,0,2,0,,,,,,,,,,,,,,,411,reward,,,,,,1597.7801017998718,1597.7801017998718,1597.7801017998718,1597.7801017998718,0,,,1,0.0299665997736156,0.0299704996868968,0,,,0,,,1597.7801017998718,1597.7801017998718,1597.7801017998718,1597.7801017998718,5,C,2024-04-16_10h50.48.633,attentional_competition_task,2022.2.4,144.00423898061953,
positions.xlsx,positions_test.xlsx,positions_test_new.xlsx,stimuli.xlsx,stimuli_new.xlsx,stimuli/Social3.png,stimuli/Social4.png,stimuli/Nonsocial3.png,stimuli/Nonsocial4.png,stimuli/Social1.png,stimuli/Social2.png,stimuli/Nonsocial1.png,stimuli/Nonsocial2.png,,,"(-0.7, -0.5)",cs_neg_ns_new,"(-0.7, 0.5)",cs_pos_ns,"(0.7, -0.5)",cs_pos_s,"(0.7, 0.5)",cs_neg_s,0,0,0,0,,,,,,,,,,,,,,,,,,,,,,,,,,,,,0,5,5,24,,,,,,,,,,,,,,,,,,,,,,,,,,,,,,,,,,,,,,,,,,,,,,5,C,2024-04-16_10h50.48.633,attentional_competition_task,2022.2.4,144.00423898061953,
positions.xlsx,positions_test.xlsx,positions_test_new.xlsx,stimuli.xlsx,stimuli_new.xlsx,stimuli/Social3.png,stimuli/Social4.png,stimuli/Nonsocial3.png,stimuli/Nonsocial4.png,stimuli/Social1.png,stimuli/Social2.png,stimuli/Nonsocial1.png,stimuli/Nonsocial2.png,,,"(-0.7, -0.5)",cs_neg_s_new,"(-0.7, 0.5)",cs_pos_s,"(0.7, -0.5)",cs_neg_ns,"(0.7, 0.5)",cs_pos_ns,0,0,0,0,,,,,,,,,,,,,,,,,,,,,,,,,,,,,0,6,6,10,0,0,0,0,,,,,,,,,,,,,,,414,reward,,,,,,1605.3007159996778,1605.3007159996778,1605.3007159996778,1605.3007159996778,0,,,1,0.4673035000450909,0.46730720018967986,0,,,0,,,1605.772901499644,1605.772901499644,1605.772901499644,1605.772901499644,5,C,2024-04-16_10h50.48.633,attentional_competition_task,2022.2.4,144.00423898061953,
positions.xlsx,positions_test.xlsx,positions_test_new.xlsx,stimuli.xlsx,stimuli_new.xlsx,stimuli/Social3.png,stimuli/Social4.png,stimuli/Nonsocial3.png,stimuli/Nonsocial4.png,stimuli/Social1.png,stimuli/Social2.png,stimuli/Nonsocial1.png,stimuli/Nonsocial2.png,,,"(-0.7, -0.5)",cs_neg_s_new,"(-0.7, 0.5)",cs_pos_s,"(0.7, -0.5)",cs_neg_ns,"(0.7, 0.5)",cs_pos_ns,0,0,0,0,,,,,,,,,,,,,,,,,,,,,,,,,,,,,0,6,6,10,1,0,1,0,,,,,,,,,,,,,,,411,loss,,,,,,1606.2798492000438,1606.2798492000438,1606.2798492000438,1606.2798492000438,0,,,1,0.029427699744701385,0.29391050012782216,1,0.4958735001273453,0.4958775001578033,0,,,1606.7659640000202,1606.7659640000202,1606.7659640000202,1606.7659640000202,5,C,2024-04-16_10h50.48.633,attentional_competition_task,2022.2.4,144.00423898061953,
positions.xlsx,positions_test.xlsx,positions_test_new.xlsx,stimuli.xlsx,stimuli_new.xlsx,stimuli/Social3.png,stimuli/Social4.png,stimuli/Nonsocial3.png,stimuli/Nonsocial4.png,stimuli/Social1.png,stimuli/Social2.png,stimuli/Nonsocial1.png,stimuli/Nonsocial2.png,,,"(-0.7, -0.5)",cs_neg_s_new,"(-0.7, 0.5)",cs_pos_s,"(0.7, -0.5)",cs_neg_ns,"(0.7, 0.5)",cs_pos_ns,0,0,0,0,,,,,,,,,,,,,,,,,,,,,,,,,,,,,0,6,6,10,2,0,2,0,,,,,,,,,,,,,,,414,reward,,,,,,1607.8075603996404,1607.8075603996404,1607.8075603996404,1607.8075603996404,0,,,0,,,0,,,1,0.02934599993750453,0.029349599964916706,1607.8075603996404,1607.8075603996404,1607.8075603996404,1607.8075603996404,5,C,2024-04-16_10h50.48.633,attentional_competition_task,2022.2.4,144.00423898061953,
positions.xlsx,positions_test.xlsx,positions_test_new.xlsx,stimuli.xlsx,stimuli_new.xlsx,stimuli/Social3.png,stimuli/Social4.png,stimuli/Nonsocial3.png,stimuli/Nonsocial4.png,stimuli/Social1.png,stimuli/Social2.png,stimuli/Nonsocial1.png,stimuli/Nonsocial2.png,,,"(-0.7, -0.5)",cs_neg_s_new,"(-0.7, 0.5)",cs_pos_s,"(0.7, -0.5)",cs_neg_ns,"(0.7, 0.5)",cs_pos_ns,0,0,0,0,,,,,,,,,,,,,,,,,,,,,,,,,,,,,0,6,6,10,,,,,,,,,,,,,,,,,,,,,,,,,,,,,,,,,,,,,,,,,,,,,,5,C,2024-04-16_10h50.48.633,attentional_competition_task,2022.2.4,144.00423898061953,
positions.xlsx,positions_test.xlsx,positions_test_new.xlsx,stimuli.xlsx,stimuli_new.xlsx,stimuli/Social3.png,stimuli/Social4.png,stimuli/Nonsocial3.png,stimuli/Nonsocial4.png,stimuli/Social1.png,stimuli/Social2.png,stimuli/Nonsocial1.png,stimuli/Nonsocial2.png,,,"(-0.7, -0.5)",cs_pos_s,"(-0.7, 0.5)",cs_neg_s,"(0.7, -0.5)",cs_pos_ns,"(0.7, 0.5)",cs_neg_ns_new,0,0,0,0,,,,,,,,,,,,,,,,,,,,,,,,,,,,,0,7,7,18,0,0,0,0,,,,,,,,,,,,,,,417,reward,,,,,,1613.4253980997019,1613.4253980997019,1613.4253980997019,1613.4253980997019,1,0.5783373997546732,0.5848291995935142,0,,,0,,,0,,,1614.0156328999437,1614.0156328999437,1614.0156328999437,1614.0156328999437,5,C,2024-04-16_10h50.48.633,attentional_competition_task,2022.2.4,144.00423898061953,
positions.xlsx,positions_test.xlsx,positions_test_new.xlsx,stimuli.xlsx,stimuli_new.xlsx,stimuli/Social3.png,stimuli/Social4.png,stimuli/Nonsocial3.png,stimuli/Nonsocial4.png,stimuli/Social1.png,stimuli/Social2.png,stimuli/Nonsocial1.png,stimuli/Nonsocial2.png,,,"(-0.7, -0.5)",cs_pos_s,"(-0.7, 0.5)",cs_neg_s,"(0.7, -0.5)",cs_pos_ns,"(0.7, 0.5)",cs_neg_ns_new,0,0,0,0,,,,,,,,,,,,,,,,,,,,,,,,,,,,,0,7,7,18,1,0,1,0,,,,,,,,,,,,,,,420,reward,,,,,,1614.5225265999325,1614.5225265999325,1614.5225265999325,1614.5225265999325,1,0.02769779972732067,0.5792356999590993,0,,,0,,,0,,,1615.9391449997202,1615.9391449997202,1615.9391449997202,1615.9391449997202,5,C,2024-04-16_10h50.48.633,attentional_competition_task,2022.2.4,144.00423898061953,
positions.xlsx,positions_test.xlsx,positions_test_new.xlsx,stimuli.xlsx,stimuli_new.xlsx,stimuli/Social3.png,stimuli/Social4.png,stimuli/Nonsocial3.png,stimuli/Nonsocial4.png,stimuli/Social1.png,stimuli/Social2.png,stimuli/Nonsocial1.png,stimuli/Nonsocial2.png,,,"(-0.7, -0.5)",cs_pos_s,"(-0.7, 0.5)",cs_neg_s,"(0.7, -0.5)",cs_pos_ns,"(0.7, 0.5)",cs_neg_ns_new,0,0,0,0,,,,,,,,,,,,,,,,,,,,,,,,,,,,,0,7,7,18,,,,,,,,,,,,,,,,,,,,,,,,,,,,,,,,,,,,,,,,,,,,,,5,C,2024-04-16_10h50.48.633,attentional_competition_task,2022.2.4,144.00423898061953,
positions.xlsx,positions_test.xlsx,positions_test_new.xlsx,stimuli.xlsx,stimuli_new.xlsx,stimuli/Social3.png,stimuli/Social4.png,stimuli/Nonsocial3.png,stimuli/Nonsocial4.png,stimuli/Social1.png,stimuli/Social2.png,stimuli/Nonsocial1.png,stimuli/Nonsocial2.png,,,"(-0.7, -0.5)",cs_neg_ns,"(-0.7, 0.5)",cs_pos_ns,"(0.7, -0.5)",cs_pos_s_new,"(0.7, 0.5)",cs_neg_s,0,0,0,0,,,,,,,,,,,,,,,,,,,,,,,,,,,,,0,8,8,28,0,0,0,0,,,,,,,,,,,,,,,417,loss,,,,,,1621.9597257999703,1621.9597257999703,1621.9597257999703,1621.9597257999703,1,0.5508559001609683,0.5508596999570727,0,,,0,,,0,,,1622.515270799864,1622.515270799864,1622.515270799864,1622.515270799864,5,C,2024-04-16_10h50.48.633,attentional_competition_task,2022.2.4,144.00423898061953,
