posFile,posFileTest,posFileTestNew,stimFile,stimFileNew,cs_neg_s,cs_pos_s,cs_neg_ns,cs_pos_ns,cs_neg_s_new,cs_pos_s_new,cs_neg_ns_new,cs_pos_ns_new,stim,position,position1,stim1,position2,stim2,position3,stim3,position4,stim4,blocks.thisRepN,blocks.thisTrialN,blocks.thisN,blocks.thisIndex,ratingtrials1.thisRepN,ratingtrials1.thisTrialN,ratingtrials1.thisN,ratingtrials1.thisIndex,search_task_trials.thisRepN,search_task_trials.thisTrialN,search_task_trials.thisN,search_task_trials.thisIndex,learning_trials.thisRepN,learning_trials.thisTrialN,learning_trials.thisN,learning_trials.thisIndex,trials.thisRepN,trials.thisTrialN,trials.thisN,trials.thisIndex,ratingtrials2.thisRepN,ratingtrials2.thisTrialN,ratingtrials2.thisN,ratingtrials2.thisIndex,testtrials.thisRepN,testtrials.thisTrialN,testtrials.thisN,testtrials.thisIndex,loop_test.thisRepN,loop_test.thisTrialN,loop_test.thisN,loop_test.thisIndex,testtrials_novelty.thisRepN,testtrials_novelty.thisTrialN,testtrials_novelty.thisN,testtrials_novelty.thisIndex,loop_test_novelty.thisRepN,loop_test_novelty.thisTrialN,loop_test_novelty.thisN,loop_test_novelty.thisIndex,ratingtrials3.thisRepN,ratingtrials3.thisTrialN,ratingtrials3.thisN,ratingtrials3.thisIndex,textStart.started,textStartExp.started,imageRating.started,sliderStim.response,sliderStim.rt,textStartSearch.started,target_positions,distractor_positions,textStartTask.started,image.started,score,outcome,roi.numLooks,roi.timesOn,roi.timesOff,imageFeedback.started,textTestInstr.started,test_image1.started,test_image2.started,test_image3.started,test_image4.started,test_roi1.numLooks,test_roi1.timesOn,test_roi1.timesOff,test_roi2.numLooks,test_roi2.timesOn,test_roi2.timesOff,test_roi3.numLooks,test_roi3.timesOn,test_roi3.timesOff,test_roi4.numLooks,test_roi4.timesOn,test_roi4.timesOff,test_image_feedback1.started,test_image_feedback2.started,test_iamge_feedback3.started,test_iamge_feedback4.started,participant,group,date,expName,psychopyVersion,frameRate,
positions.xlsx,positions_test.xlsx,positions_test_new.xlsx,stimuli.xlsx,stimuli_new.xlsx,stimuli/Social1.png,stimuli/Social2.png,stimuli/Nonsocial1.png,stimuli/Nonsocial2.png,stimuli/Social3.png,stimuli/Social4.png,stimuli/Nonsocial3.png,stimuli/Nonsocial4.png,cs_pos_ns,,,,,,,,,,0,0,0,0,0,0,0,3,,,,,,,,,,,,,,,,,,,,,,,,,,,,,,,,,,,,,11.629021900000225,105.82451349999974,118.75519600000007,9.0,6.2007228000002215,,,,,,,,,,,,,,,,,,,,,,,,,,,,,,,,,30,A,2024-05-08_11h22.43.121,attentional_competition_task,2022.2.4,143.9781153249283,
positions.xlsx,positions_test.xlsx,positions_test_new.xlsx,stimuli.xlsx,stimuli_new.xlsx,stimuli/Social1.png,stimuli/Social2.png,stimuli/Nonsocial1.png,stimuli/Nonsocial2.png,stimuli/Social3.png,stimuli/Social4.png,stimuli/Nonsocial3.png,stimuli/Nonsocial4.png,cs_neg_s,,,,,,,,,,0,0,0,0,0,1,1,0,,,,,,,,,,,,,,,,,,,,,,,,,,,,,,,,,,,,,,,126.4354512000009,4.0,3.3629304000005504,,,,,,,,,,,,,,,,,,,,,,,,,,,,,,,,,30,A,2024-05-08_11h22.43.121,attentional_competition_task,2022.2.4,143.9781153249283,
positions.xlsx,positions_test.xlsx,positions_test_new.xlsx,stimuli.xlsx,stimuli_new.xlsx,stimuli/Social1.png,stimuli/Social2.png,stimuli/Nonsocial1.png,stimuli/Nonsocial2.png,stimuli/Social3.png,stimuli/Social4.png,stimuli/Nonsocial3.png,stimuli/Nonsocial4.png,cs_neg_ns,,,,,,,,,,0,0,0,0,0,2,2,1,,,,,,,,,,,,,,,,,,,,,,,,,,,,,,,,,,,,,,,131.2061064999998,9.0,1.9386348999996699,,,,,,,,,,,,,,,,,,,,,,,,,,,,,,,,,30,A,2024-05-08_11h22.43.121,attentional_competition_task,2022.2.4,143.9781153249283,
positions.xlsx,positions_test.xlsx,positions_test_new.xlsx,stimuli.xlsx,stimuli_new.xlsx,stimuli/Social1.png,stimuli/Social2.png,stimuli/Nonsocial1.png,stimuli/Nonsocial2.png,stimuli/Social3.png,stimuli/Social4.png,stimuli/Nonsocial3.png,stimuli/Nonsocial4.png,cs_pos_s,,,,,,,,,,0,0,0,0,0,3,3,2,,,,,,,,,,,,,,,,,,,,,,,,,,,,,,,,,,,,,,,133.8309848000008,7.0,4.22512370000004,,,,,,,,,,,,,,,,,,,,,,,,,,,,,,,,,30,A,2024-05-08_11h22.43.121,attentional_competition_task,2022.2.4,143.9781153249283,
positions.xlsx,positions_test.xlsx,positions_test_new.xlsx,stimuli.xlsx,stimuli_new.xlsx,stimuli/Social1.png,stimuli/Social2.png,stimuli/Nonsocial1.png,stimuli/Nonsocial2.png,stimuli/Social3.png,stimuli/Social4.png,stimuli/Nonsocial3.png,stimuli/Nonsocial4.png,,,,,,,,,,,0,0,0,0,,,,,0,0,0,0,,,,,,,,,,,,,,,,,,,,,,,,,,,,,,,,,,,,,,138.72657550000076,"[[-0.675, -0.8], [0.0, 0.19999999999999996], [-0.9, -0.8], [0.22499999999999998, 0.19999999999999996], [-0.45, -0.30000000000000004], [-0.22499999999999998, -0.30000000000000004], [0.9, -0.8], [-0.22499999999999998, 0.19999999999999996], [0.0, -0.8], [0.22499999999999998, 0.7], [-0.675, 0.7], [-0.45, 0.19999999999999996], [-0.45, 0.7], [0.9, 0.19999999999999996], [0.9, 0.7]]","[[0.0, -0.30000000000000004], [0.22499999999999998, -0.30000000000000004], [0.6749999999999999, 0.19999999999999996], [-0.45, -0.8], [0.0, 0.7], [-0.22499999999999998, 0.7], [0.45000000000000007, 0.19999999999999996], [-0.9, -0.30000000000000004], [-0.675, 0.19999999999999996], [0.45000000000000007, -0.8], [0.6749999999999999, 0.7], [0.45000000000000007, -0.30000000000000004], [-0.9, 0.19999999999999996], [0.6749999999999999, -0.8], [0.22499999999999998, -0.8]]",,,,,,,,,,,,,,,,,,,,,,,,,,,,,,30,A,2024-05-08_11h22.43.121,attentional_competition_task,2022.2.4,143.9781153249283,
positions.xlsx,positions_test.xlsx,positions_test_new.xlsx,stimuli.xlsx,stimuli_new.xlsx,stimuli/Social1.png,stimuli/Social2.png,stimuli/Nonsocial1.png,stimuli/Nonsocial2.png,stimuli/Social3.png,stimuli/Social4.png,stimuli/Nonsocial3.png,stimuli/Nonsocial4.png,,,,,,,,,,,0,0,0,0,,,,,1,0,1,0,,,,,,,,,,,,,,,,,,,,,,,,,,,,,,,,,,,,,,,"[[0.0, -0.30000000000000004], [0.45000000000000007, 0.7], [-0.22499999999999998, 0.19999999999999996], [0.22499999999999998, -0.30000000000000004], [-0.675, -0.30000000000000004], [-0.45, -0.30000000000000004], [-0.45, 0.7], [-0.45, 0.19999999999999996], [0.0, -0.8], [0.22499999999999998, -0.8], [-0.22499999999999998, 0.7], [0.9, -0.8], [-0.45, -0.8], [0.22499999999999998, 0.7], [-0.675, 0.7]]","[[0.6749999999999999, -0.8], [0.6749999999999999, 0.7], [0.45000000000000007, 0.19999999999999996], [-0.22499999999999998, -0.8], [0.9, 0.7], [0.9, 0.19999999999999996], [-0.9, 0.7], [0.9, -0.30000000000000004], [-0.9, -0.30000000000000004], [0.6749999999999999, -0.30000000000000004], [0.45000000000000007, -0.30000000000000004], [-0.9, 0.19999999999999996], [-0.675, 0.19999999999999996], [-0.675, -0.8], [-0.9, -0.8]]",,,,,,,,,,,,,,,,,,,,,,,,,,,,,,30,A,2024-05-08_11h22.43.121,attentional_competition_task,2022.2.4,143.9781153249283,
positions.xlsx,positions_test.xlsx,positions_test_new.xlsx,stimuli.xlsx,stimuli_new.xlsx,stimuli/Social1.png,stimuli/Social2.png,stimuli/Nonsocial1.png,stimuli/Nonsocial2.png,stimuli/Social3.png,stimuli/Social4.png,stimuli/Nonsocial3.png,stimuli/Nonsocial4.png,cs_neg_ns,"(-0.7, -0.5)",,,,,,,,,0,0,0,0,,,,,,,,,0,0,0,9,,,,,,,,,,,,,,,,,,,,,,,,,,,,,,,,,,,,,219.3620929000008,231.81296680000014,-3,loss,1,0.37580090000119526,0.37580520000119577,232.19491779999953,,,,,,,,,,,,,,,,,,,,,,30,A,2024-05-08_11h22.43.121,attentional_competition_task,2022.2.4,143.9781153249283,
positions.xlsx,positions_test.xlsx,positions_test_new.xlsx,stimuli.xlsx,stimuli_new.xlsx,stimuli/Social1.png,stimuli/Social2.png,stimuli/Nonsocial1.png,stimuli/Nonsocial2.png,stimuli/Social3.png,stimuli/Social4.png,stimuli/Nonsocial3.png,stimuli/Nonsocial4.png,cs_pos_ns,"(0.7, -0.5)",,,,,,,,,0,0,0,0,,,,,,,,,0,1,1,15,,,,,,,,,,,,,,,,,,,,,,,,,,,,,,,,,,,,,,239.39600539999992,0,reward,1,0.2709374999994907,0.2709415999997873,239.6737473000012,,,,,,,,,,,,,,,,,,,,,,30,A,2024-05-08_11h22.43.121,attentional_competition_task,2022.2.4,143.9781153249283,
positions.xlsx,positions_test.xlsx,positions_test_new.xlsx,stimuli.xlsx,stimuli_new.xlsx,stimuli/Social1.png,stimuli/Social2.png,stimuli/Nonsocial1.png,stimuli/Nonsocial2.png,stimuli/Social3.png,stimuli/Social4.png,stimuli/Nonsocial3.png,stimuli/Nonsocial4.png,cs_neg_s,"(0.7, 0.5)",,,,,,,,,0,0,0,0,,,,,,,,,0,2,2,2,,,,,,,,,,,,,,,,,,,,,,,,,,,,,,,,,,,,,,247.56924509999953,-3,loss,1,0.26429060000009486,0.26429469999857247,247.84007870000096,,,,,,,,,,,,,,,,,,,,,,30,A,2024-05-08_11h22.43.121,attentional_competition_task,2022.2.4,143.9781153249283,
positions.xlsx,positions_test.xlsx,positions_test_new.xlsx,stimuli.xlsx,stimuli_new.xlsx,stimuli/Social1.png,stimuli/Social2.png,stimuli/Nonsocial1.png,stimuli/Nonsocial2.png,stimuli/Social3.png,stimuli/Social4.png,stimuli/Nonsocial3.png,stimuli/Nonsocial4.png,cs_neg_s,"(-0.7, -0.5)",,,,,,,,,0,0,0,0,,,,,,,,,0,3,3,1,,,,,,,,,,,,,,,,,,,,,,,,,,,,,,,,,,,,,,255.10365590000038,-6,loss,1,0.2435057999991841,0.24350960000083433,255.35363549999965,,,,,,,,,,,,,,,,,,,,,,30,A,2024-05-08_11h22.43.121,attentional_competition_task,2022.2.4,143.9781153249283,
positions.xlsx,positions_test.xlsx,positions_test_new.xlsx,stimuli.xlsx,stimuli_new.xlsx,stimuli/Social1.png,stimuli/Social2.png,stimuli/Nonsocial1.png,stimuli/Nonsocial2.png,stimuli/Social3.png,stimuli/Social4.png,stimuli/Nonsocial3.png,stimuli/Nonsocial4.png,cs_neg_s,"(-0.7, 0.5)",,,,,,,,,0,0,0,0,,,,,,,,,0,4,4,0,,,,,,,,,,,,,,,,,,,,,,,,,,,,,,,,,,,,,,263.07551890000104,-9,loss,1,2.020971299998564,2.0209750999983953,265.10327270000016,,,,,,,,,,,,,,,,,,,,,,30,A,2024-05-08_11h22.43.121,attentional_competition_task,2022.2.4,143.9781153249283,
positions.xlsx,positions_test.xlsx,positions_test_new.xlsx,stimuli.xlsx,stimuli_new.xlsx,stimuli/Social1.png,stimuli/Social2.png,stimuli/Nonsocial1.png,stimuli/Nonsocial2.png,stimuli/Social3.png,stimuli/Social4.png,stimuli/Nonsocial3.png,stimuli/Nonsocial4.png,cs_neg_ns,"(0.7, 0.5)",,,,,,,,,0,0,0,0,,,,,,,,,0,5,5,10,,,,,,,,,,,,,,,,,,,,,,,,,,,,,,,,,,,,,,273.1515092000009,-12,loss,1,0.9655406999991101,0.9724941000004037,274.13063200000033,,,,,,,,,,,,,,,,,,,,,,30,A,2024-05-08_11h22.43.121,attentional_competition_task,2022.2.4,143.9781153249283,
positions.xlsx,positions_test.xlsx,positions_test_new.xlsx,stimuli.xlsx,stimuli_new.xlsx,stimuli/Social1.png,stimuli/Social2.png,stimuli/Nonsocial1.png,stimuli/Nonsocial2.png,stimuli/Social3.png,stimuli/Social4.png,stimuli/Nonsocial3.png,stimuli/Nonsocial4.png,cs_neg_ns,"(0.7, -0.5)",,,,,,,,,0,0,0,0,,,,,,,,,0,6,6,11,,,,,,,,,,,,,,,,,,,,,,,,,,,,,,,,,,,,,,281.88029319999987,-15,loss,1,1.4935899000010977,1.4935934000004636,283.3802145000009,,,,,,,,,,,,,,,,,,,,,,30,A,2024-05-08_11h22.43.121,attentional_competition_task,2022.2.4,143.9781153249283,
positions.xlsx,positions_test.xlsx,positions_test_new.xlsx,stimuli.xlsx,stimuli_new.xlsx,stimuli/Social1.png,stimuli/Social2.png,stimuli/Nonsocial1.png,stimuli/Nonsocial2.png,stimuli/Social3.png,stimuli/Social4.png,stimuli/Nonsocial3.png,stimuli/Nonsocial4.png,cs_pos_ns,"(-0.7, 0.5)",,,,,,,,,0,0,0,0,,,,,,,,,0,7,7,12,,,,,,,,,,,,,,,,,,,,,,,,,,,,,,,,,,,,,,290.3521588000003,-12,reward,1,0.646361999999499,0.6463658999982727,291.004922600001,,,,,,,,,,,,,,,,,,,,,,30,A,2024-05-08_11h22.43.121,attentional_competition_task,2022.2.4,143.9781153249283,
positions.xlsx,positions_test.xlsx,positions_test_new.xlsx,stimuli.xlsx,stimuli_new.xlsx,stimuli/Social1.png,stimuli/Social2.png,stimuli/Nonsocial1.png,stimuli/Nonsocial2.png,stimuli/Social3.png,stimuli/Social4.png,stimuli/Nonsocial3.png,stimuli/Nonsocial4.png,cs_pos_s,"(-0.7, 0.5)",,,,,,,,,0,0,0,0,,,,,,,,,0,8,8,4,,,,,,,,,,,,,,,,,,,,,,,,,,,,,,,,,,,,,,298.6504392000006,-9,reward,1,0.5695935000003374,0.5695972000012262,299.2268251000005,,,,,,,,,,,,,,,,,,,,,,30,A,2024-05-08_11h22.43.121,attentional_competition_task,2022.2.4,143.9781153249283,
positions.xlsx,positions_test.xlsx,positions_test_new.xlsx,stimuli.xlsx,stimuli_new.xlsx,stimuli/Social1.png,stimuli/Social2.png,stimuli/Nonsocial1.png,stimuli/Nonsocial2.png,stimuli/Social3.png,stimuli/Social4.png,stimuli/Nonsocial3.png,stimuli/Nonsocial4.png,cs_pos_ns,"(-0.7, -0.5)",,,,,,,,,0,0,0,0,,,,,,,,,0,9,9,13,,,,,,,,,,,,,,,,,,,,,,,,,,,,,,,,,,,,,,306.26122849999956,-6,reward,1,0.9513383000012254,0.9582991999996011,307.22649980000097,,,,,,,,,,,,,,,,,,,,,,30,A,2024-05-08_11h22.43.121,attentional_competition_task,2022.2.4,143.9781153249283,
positions.xlsx,positions_test.xlsx,positions_test_new.xlsx,stimuli.xlsx,stimuli_new.xlsx,stimuli/Social1.png,stimuli/Social2.png,stimuli/Nonsocial1.png,stimuli/Nonsocial2.png,stimuli/Social3.png,stimuli/Social4.png,stimuli/Nonsocial3.png,stimuli/Nonsocial4.png,cs_neg_s,"(0.7, -0.5)",,,,,,,,,0,0,0,0,,,,,,,,,0,10,10,3,,,,,,,,,,,,,,,,,,,,,,,,,,,,,,,,,,,,,,314.97614690000046,-6,none,0,,,317.9899112000003,,,,,,,,,,,,,,,,,,,,,,30,A,2024-05-08_11h22.43.121,attentional_competition_task,2022.2.4,143.9781153249283,
positions.xlsx,positions_test.xlsx,positions_test_new.xlsx,stimuli.xlsx,stimuli_new.xlsx,stimuli/Social1.png,stimuli/Social2.png,stimuli/Nonsocial1.png,stimuli/Nonsocial2.png,stimuli/Social3.png,stimuli/Social4.png,stimuli/Nonsocial3.png,stimuli/Nonsocial4.png,cs_neg_ns,"(-0.7, 0.5)",,,,,,,,,0,0,0,0,,,,,,,,,0,11,11,8,,,,,,,,,,,,,,,,,,,,,,,,,,,,,,,,,,,,,,325.23960780000016,-6,none,0,,,328.2464328999995,,,,,,,,,,,,,,,,,,,,,,30,A,2024-05-08_11h22.43.121,attentional_competition_task,2022.2.4,143.9781153249283,
positions.xlsx,positions_test.xlsx,positions_test_new.xlsx,stimuli.xlsx,stimuli_new.xlsx,stimuli/Social1.png,stimuli/Social2.png,stimuli/Nonsocial1.png,stimuli/Nonsocial2.png,stimuli/Social3.png,stimuli/Social4.png,stimuli/Nonsocial3.png,stimuli/Nonsocial4.png,cs_pos_s,"(-0.7, -0.5)",,,,,,,,,0,0,0,0,,,,,,,,,0,12,12,5,,,,,,,,,,,,,,,,,,,,,,,,,,,,,,,,,,,,,,335.41277269999955,-3,reward,1,0.9165649999995367,0.9165687999993679,336.33637830000043,,,,,,,,,,,,,,,,,,,,,,30,A,2024-05-08_11h22.43.121,attentional_competition_task,2022.2.4,143.9781153249283,
positions.xlsx,positions_test.xlsx,positions_test_new.xlsx,stimuli.xlsx,stimuli_new.xlsx,stimuli/Social1.png,stimuli/Social2.png,stimuli/Nonsocial1.png,stimuli/Nonsocial2.png,stimuli/Social3.png,stimuli/Social4.png,stimuli/Nonsocial3.png,stimuli/Nonsocial4.png,cs_pos_ns,"(0.7, 0.5)",,,,,,,,,0,0,0,0,,,,,,,,,0,13,13,14,,,,,,,,,,,,,,,,,,,,,,,,,,,,,,,,,,,,,,343.8776962000011,0,reward,1,0.7079633000012109,0.7079670000002807,344.5929526,,,,,,,,,,,,,,,,,,,,,,30,A,2024-05-08_11h22.43.121,attentional_competition_task,2022.2.4,143.9781153249283,
positions.xlsx,positions_test.xlsx,positions_test_new.xlsx,stimuli.xlsx,stimuli_new.xlsx,stimuli/Social1.png,stimuli/Social2.png,stimuli/Nonsocial1.png,stimuli/Nonsocial2.png,stimuli/Social3.png,stimuli/Social4.png,stimuli/Nonsocial3.png,stimuli/Nonsocial4.png,cs_pos_s,"(0.7, -0.5)",,,,,,,,,0,0,0,0,,,,,,,,,0,14,14,7,,,,,,,,,,,,,,,,,,,,,,,,,,,,,,,,,,,,,,351.7454299000001,3,reward,1,0.9652902999987418,0.9652943999990384,352.71768239999983,,,,,,,,,,,,,,,,,,,,,,30,A,2024-05-08_11h22.43.121,attentional_competition_task,2022.2.4,143.9781153249283,
positions.xlsx,positions_test.xlsx,positions_test_new.xlsx,stimuli.xlsx,stimuli_new.xlsx,stimuli/Social1.png,stimuli/Social2.png,stimuli/Nonsocial1.png,stimuli/Nonsocial2.png,stimuli/Social3.png,stimuli/Social4.png,stimuli/Nonsocial3.png,stimuli/Nonsocial4.png,cs_pos_s,"(0.7, 0.5)",,,,,,,,,0,0,0,0,,,,,,,,,0,15,15,6,,,,,,,,,,,,,,,,,,,,,,,,,,,,,,,,,,,,,,360.14093760000105,6,reward,1,0.7640483000013774,0.7640520000004472,360.91174350000074,,,,,,,,,,,,,,,,,,,,,,30,A,2024-05-08_11h22.43.121,attentional_competition_task,2022.2.4,143.9781153249283,
positions.xlsx,positions_test.xlsx,positions_test_new.xlsx,stimuli.xlsx,stimuli_new.xlsx,stimuli/Social1.png,stimuli/Social2.png,stimuli/Nonsocial1.png,stimuli/Nonsocial2.png,stimuli/Social3.png,stimuli/Social4.png,stimuli/Nonsocial3.png,stimuli/Nonsocial4.png,cs_pos_s,"(-0.7, -0.5)",,,,,,,,,0,0,0,0,,,,,,,,,1,0,16,5,,,,,,,,,,,,,,,,,,,,,,,,,,,,,,,,,,,,,,367.7170016,9,reward,1,0.7847103000003699,0.7847141000002011,368.50863820000086,,,,,,,,,,,,,,,,,,,,,,30,A,2024-05-08_11h22.43.121,attentional_competition_task,2022.2.4,143.9781153249283,
positions.xlsx,positions_test.xlsx,positions_test_new.xlsx,stimuli.xlsx,stimuli_new.xlsx,stimuli/Social1.png,stimuli/Social2.png,stimuli/Nonsocial1.png,stimuli/Nonsocial2.png,stimuli/Social3.png,stimuli/Social4.png,stimuli/Nonsocial3.png,stimuli/Nonsocial4.png,cs_pos_s,"(0.7, -0.5)",,,,,,,,,0,0,0,0,,,,,,,,,1,1,17,7,,,,,,,,,,,,,,,,,,,,,,,,,,,,,,,,,,,,,,376.43193280000014,12,reward,1,0.6736403000013524,0.6736442000001261,377.1124226000011,,,,,,,,,,,,,,,,,,,,,,30,A,2024-05-08_11h22.43.121,attentional_competition_task,2022.2.4,143.9781153249283,
positions.xlsx,positions_test.xlsx,positions_test_new.xlsx,stimuli.xlsx,stimuli_new.xlsx,stimuli/Social1.png,stimuli/Social2.png,stimuli/Nonsocial1.png,stimuli/Nonsocial2.png,stimuli/Social3.png,stimuli/Social4.png,stimuli/Nonsocial3.png,stimuli/Nonsocial4.png,cs_neg_s,"(0.7, 0.5)",,,,,,,,,0,0,0,0,,,,,,,,,1,2,18,2,,,,,,,,,,,,,,,,,,,,,,,,,,,,,,,,,,,,,,384.38993889999983,12,none,0,,,387.3967240000002,,,,,,,,,,,,,,,,,,,,,,30,A,2024-05-08_11h22.43.121,attentional_competition_task,2022.2.4,143.9781153249283,
positions.xlsx,positions_test.xlsx,positions_test_new.xlsx,stimuli.xlsx,stimuli_new.xlsx,stimuli/Social1.png,stimuli/Social2.png,stimuli/Nonsocial1.png,stimuli/Nonsocial2.png,stimuli/Social3.png,stimuli/Social4.png,stimuli/Nonsocial3.png,stimuli/Nonsocial4.png,cs_pos_s,"(0.7, 0.5)",,,,,,,,,0,0,0,0,,,,,,,,,1,3,19,6,,,,,,,,,,,,,,,,,,,,,,,,,,,,,,,,,,,,,,395.29225829999996,15,reward,1,1.0274422999991657,1.0274456999995891,396.3268848000007,,,,,,,,,,,,,,,,,,,,,,30,A,2024-05-08_11h22.43.121,attentional_competition_task,2022.2.4,143.9781153249283,
positions.xlsx,positions_test.xlsx,positions_test_new.xlsx,stimuli.xlsx,stimuli_new.xlsx,stimuli/Social1.png,stimuli/Social2.png,stimuli/Nonsocial1.png,stimuli/Nonsocial2.png,stimuli/Social3.png,stimuli/Social4.png,stimuli/Nonsocial3.png,stimuli/Nonsocial4.png,cs_pos_ns,"(-0.7, -0.5)",,,,,,,,,0,0,0,0,,,,,,,,,1,4,20,13,,,,,,,,,,,,,,,,,,,,,,,,,,,,,,,,,,,,,,404.7432461999997,18,reward,1,0.6047742999999173,0.6047777999992832,405.35432729999957,,,,,,,,,,,,,,,,,,,,,,30,A,2024-05-08_11h22.43.121,attentional_competition_task,2022.2.4,143.9781153249283,
positions.xlsx,positions_test.xlsx,positions_test_new.xlsx,stimuli.xlsx,stimuli_new.xlsx,stimuli/Social1.png,stimuli/Social2.png,stimuli/Nonsocial1.png,stimuli/Nonsocial2.png,stimuli/Social3.png,stimuli/Social4.png,stimuli/Nonsocial3.png,stimuli/Nonsocial4.png,cs_neg_s,"(0.7, -0.5)",,,,,,,,,0,0,0,0,,,,,,,,,1,5,21,3,,,,,,,,,,,,,,,,,,,,,,,,,,,,,,,,,,,,,,412.9651302000002,18,none,0,,,415.9788815000011,,,,,,,,,,,,,,,,,,,,,,30,A,2024-05-08_11h22.43.121,attentional_competition_task,2022.2.4,143.9781153249283,
positions.xlsx,positions_test.xlsx,positions_test_new.xlsx,stimuli.xlsx,stimuli_new.xlsx,stimuli/Social1.png,stimuli/Social2.png,stimuli/Nonsocial1.png,stimuli/Nonsocial2.png,stimuli/Social3.png,stimuli/Social4.png,stimuli/Nonsocial3.png,stimuli/Nonsocial4.png,cs_pos_ns,"(-0.7, 0.5)",,,,,,,,,0,0,0,0,,,,,,,,,1,6,22,12,,,,,,,,,,,,,,,,,,,,,,,,,,,,,,,,,,,,,,423.24245359999986,21,reward,1,0.7845421000001807,0.791542599999957,424.04104089999964,,,,,,,,,,,,,,,,,,,,,,30,A,2024-05-08_11h22.43.121,attentional_competition_task,2022.2.4,143.9781153249283,
positions.xlsx,positions_test.xlsx,positions_test_new.xlsx,stimuli.xlsx,stimuli_new.xlsx,stimuli/Social1.png,stimuli/Social2.png,stimuli/Nonsocial1.png,stimuli/Nonsocial2.png,stimuli/Social3.png,stimuli/Social4.png,stimuli/Nonsocial3.png,stimuli/Nonsocial4.png,cs_neg_ns,"(-0.7, 0.5)",,,,,,,,,0,0,0,0,,,,,,,,,1,7,23,8,,,,,,,,,,,,,,,,,,,,,,,,,,,,,,,,,,,,,,431.79076259999965,21,none,0,,,434.80449750000116,,,,,,,,,,,,,,,,,,,,,,30,A,2024-05-08_11h22.43.121,attentional_competition_task,2022.2.4,143.9781153249283,
positions.xlsx,positions_test.xlsx,positions_test_new.xlsx,stimuli.xlsx,stimuli_new.xlsx,stimuli/Social1.png,stimuli/Social2.png,stimuli/Nonsocial1.png,stimuli/Nonsocial2.png,stimuli/Social3.png,stimuli/Social4.png,stimuli/Nonsocial3.png,stimuli/Nonsocial4.png,cs_pos_ns,"(0.7, -0.5)",,,,,,,,,0,0,0,0,,,,,,,,,1,8,24,15,,,,,,,,,,,,,,,,,,,,,,,,,,,,,,,,,,,,,,442.31113860000005,24,reward,1,0.7087727000016457,0.708776500001477,443.0333214000002,,,,,,,,,,,,,,,,,,,,,,30,A,2024-05-08_11h22.43.121,attentional_competition_task,2022.2.4,143.9781153249283,
positions.xlsx,positions_test.xlsx,positions_test_new.xlsx,stimuli.xlsx,stimuli_new.xlsx,stimuli/Social1.png,stimuli/Social2.png,stimuli/Nonsocial1.png,stimuli/Nonsocial2.png,stimuli/Social3.png,stimuli/Social4.png,stimuli/Nonsocial3.png,stimuli/Nonsocial4.png,cs_neg_s,"(-0.7, 0.5)",,,,,,,,,0,0,0,0,,,,,,,,,1,9,25,0,,,,,,,,,,,,,,,,,,,,,,,,,,,,,,,,,,,,,,450.4774589000008,24,none,0,,,453.49120589999984,,,,,,,,,,,,,,,,,,,,,,30,A,2024-05-08_11h22.43.121,attentional_competition_task,2022.2.4,143.9781153249283,
positions.xlsx,positions_test.xlsx,positions_test_new.xlsx,stimuli.xlsx,stimuli_new.xlsx,stimuli/Social1.png,stimuli/Social2.png,stimuli/Nonsocial1.png,stimuli/Nonsocial2.png,stimuli/Social3.png,stimuli/Social4.png,stimuli/Nonsocial3.png,stimuli/Nonsocial4.png,cs_pos_s,"(-0.7, 0.5)",,,,,,,,,0,0,0,0,,,,,,,,,1,10,26,4,,,,,,,,,,,,,,,,,,,,,,,,,,,,,,,,,,,,,,461.0811644000005,27,reward,1,0.4867714000010892,0.486775100000159,461.5742494999995,,,,,,,,,,,,,,,,,,,,,,30,A,2024-05-08_11h22.43.121,attentional_competition_task,2022.2.4,143.9781153249283,
positions.xlsx,positions_test.xlsx,positions_test_new.xlsx,stimuli.xlsx,stimuli_new.xlsx,stimuli/Social1.png,stimuli/Social2.png,stimuli/Nonsocial1.png,stimuli/Nonsocial2.png,stimuli/Social3.png,stimuli/Social4.png,stimuli/Nonsocial3.png,stimuli/Nonsocial4.png,cs_pos_ns,"(0.7, 0.5)",,,,,,,,,0,0,0,0,,,,,,,,,1,11,27,14,,,,,,,,,,,,,,,,,,,,,,,,,,,,,,,,,,,,,,468.9419619,30,reward,1,0.8402193999991141,0.8402232000007643,469.7891903,,,,,,,,,,,,,,,,,,,,,,30,A,2024-05-08_11h22.43.121,attentional_competition_task,2022.2.4,143.9781153249283,
positions.xlsx,positions_test.xlsx,positions_test_new.xlsx,stimuli.xlsx,stimuli_new.xlsx,stimuli/Social1.png,stimuli/Social2.png,stimuli/Nonsocial1.png,stimuli/Nonsocial2.png,stimuli/Social3.png,stimuli/Social4.png,stimuli/Nonsocial3.png,stimuli/Nonsocial4.png,cs_neg_ns,"(0.7, -0.5)",,,,,,,,,0,0,0,0,,,,,,,,,1,12,28,11,,,,,,,,,,,,,,,,,,,,,,,,,,,,,,,,,,,,,,477.99714700000004,30,none,0,,,481.0109271000001,,,,,,,,,,,,,,,,,,,,,,30,A,2024-05-08_11h22.43.121,attentional_competition_task,2022.2.4,143.9781153249283,
positions.xlsx,positions_test.xlsx,positions_test_new.xlsx,stimuli.xlsx,stimuli_new.xlsx,stimuli/Social1.png,stimuli/Social2.png,stimuli/Nonsocial1.png,stimuli/Nonsocial2.png,stimuli/Social3.png,stimuli/Social4.png,stimuli/Nonsocial3.png,stimuli/Nonsocial4.png,cs_neg_ns,"(-0.7, -0.5)",,,,,,,,,0,0,0,0,,,,,,,,,1,13,29,9,,,,,,,,,,,,,,,,,,,,,,,,,,,,,,,,,,,,,,489.30918480000037,30,none,0,,,492.3229551000004,,,,,,,,,,,,,,,,,,,,,,30,A,2024-05-08_11h22.43.121,attentional_competition_task,2022.2.4,143.9781153249283,
positions.xlsx,positions_test.xlsx,positions_test_new.xlsx,stimuli.xlsx,stimuli_new.xlsx,stimuli/Social1.png,stimuli/Social2.png,stimuli/Nonsocial1.png,stimuli/Nonsocial2.png,stimuli/Social3.png,stimuli/Social4.png,stimuli/Nonsocial3.png,stimuli/Nonsocial4.png,cs_neg_ns,"(0.7, 0.5)",,,,,,,,,0,0,0,0,,,,,,,,,1,14,30,10,,,,,,,,,,,,,,,,,,,,,,,,,,,,,,,,,,,,,,499.9615635000009,30,none,0,,,502.9683184000005,,,,,,,,,,,,,,,,,,,,,,30,A,2024-05-08_11h22.43.121,attentional_competition_task,2022.2.4,143.9781153249283,
positions.xlsx,positions_test.xlsx,positions_test_new.xlsx,stimuli.xlsx,stimuli_new.xlsx,stimuli/Social1.png,stimuli/Social2.png,stimuli/Nonsocial1.png,stimuli/Nonsocial2.png,stimuli/Social3.png,stimuli/Social4.png,stimuli/Nonsocial3.png,stimuli/Nonsocial4.png,cs_neg_s,"(-0.7, -0.5)",,,,,,,,,0,0,0,0,,,,,,,,,1,15,31,1,,,,,,,,,,,,,,,,,,,,,,,,,,,,,,,,,,,,,,511.0582826000009,30,none,0,,,514.0651049000007,,,,,,,,,,,,,,,,,,,,,,30,A,2024-05-08_11h22.43.121,attentional_competition_task,2022.2.4,143.9781153249283,
positions.xlsx,positions_test.xlsx,positions_test_new.xlsx,stimuli.xlsx,stimuli_new.xlsx,stimuli/Social1.png,stimuli/Social2.png,stimuli/Nonsocial1.png,stimuli/Nonsocial2.png,stimuli/Social3.png,stimuli/Social4.png,stimuli/Nonsocial3.png,stimuli/Nonsocial4.png,cs_pos_ns,"(0.7, 0.5)",,,,,,,,,0,0,0,0,,,,,,,,,,,,,0,0,0,14,,,,,,,,,,,,,,,,,,,,,,,,,,,,,,,,,,529.4047721999996,33,reward,1,0.6602936999988742,0.660297399999763,530.0713895000008,,,,,,,,,,,,,,,,,,,,,,30,A,2024-05-08_11h22.43.121,attentional_competition_task,2022.2.4,143.9781153249283,
positions.xlsx,positions_test.xlsx,positions_test_new.xlsx,stimuli.xlsx,stimuli_new.xlsx,stimuli/Social1.png,stimuli/Social2.png,stimuli/Nonsocial1.png,stimuli/Nonsocial2.png,stimuli/Social3.png,stimuli/Social4.png,stimuli/Nonsocial3.png,stimuli/Nonsocial4.png,cs_pos_ns,"(0.7, -0.5)",,,,,,,,,0,0,0,0,,,,,,,,,,,,,0,1,1,15,,,,,,,,,,,,,,,,,,,,,,,,,,,,,,,,,,537.8627754999998,36,reward,1,0.5623563000008289,0.5623603000003641,538.4321754000011,,,,,,,,,,,,,,,,,,,,,,30,A,2024-05-08_11h22.43.121,attentional_competition_task,2022.2.4,143.9781153249283,
positions.xlsx,positions_test.xlsx,positions_test_new.xlsx,stimuli.xlsx,stimuli_new.xlsx,stimuli/Social1.png,stimuli/Social2.png,stimuli/Nonsocial1.png,stimuli/Nonsocial2.png,stimuli/Social3.png,stimuli/Social4.png,stimuli/Nonsocial3.png,stimuli/Nonsocial4.png,cs_neg_s,"(0.7, -0.5)",,,,,,,,,0,0,0,0,,,,,,,,,,,,,0,2,2,3,,,,,,,,,,,,,,,,,,,,,,,,,,,,,,,,,,546.0220668000002,36,none,0,,,549.028952300001,,,,,,,,,,,,,,,,,,,,,,30,A,2024-05-08_11h22.43.121,attentional_competition_task,2022.2.4,143.9781153249283,
positions.xlsx,positions_test.xlsx,positions_test_new.xlsx,stimuli.xlsx,stimuli_new.xlsx,stimuli/Social1.png,stimuli/Social2.png,stimuli/Nonsocial1.png,stimuli/Nonsocial2.png,stimuli/Social3.png,stimuli/Social4.png,stimuli/Nonsocial3.png,stimuli/Nonsocial4.png,cs_pos_s,"(-0.7, -0.5)",,,,,,,,,0,0,0,0,,,,,,,,,,,,,0,3,3,5,,,,,,,,,,,,,,,,,,,,,,,,,,,,,,,,,,555.8203255000008,39,reward,1,0.5905189000004611,0.5905226000013499,556.4175200000009,,,,,,,,,,,,,,,,,,,,,,30,A,2024-05-08_11h22.43.121,attentional_competition_task,2022.2.4,143.9781153249283,
positions.xlsx,positions_test.xlsx,positions_test_new.xlsx,stimuli.xlsx,stimuli_new.xlsx,stimuli/Social1.png,stimuli/Social2.png,stimuli/Nonsocial1.png,stimuli/Nonsocial2.png,stimuli/Social3.png,stimuli/Social4.png,stimuli/Nonsocial3.png,stimuli/Nonsocial4.png,cs_neg_ns,"(0.7, 0.5)",,,,,,,,,0,0,0,0,,,,,,,,,,,,,0,4,4,10,,,,,,,,,,,,,,,,,,,,,,,,,,,,,,,,,,563.3477923999999,39,none,0,,,566.3615793000008,,,,,,,,,,,,,,,,,,,,,,30,A,2024-05-08_11h22.43.121,attentional_competition_task,2022.2.4,143.9781153249283,
positions.xlsx,positions_test.xlsx,positions_test_new.xlsx,stimuli.xlsx,stimuli_new.xlsx,stimuli/Social1.png,stimuli/Social2.png,stimuli/Nonsocial1.png,stimuli/Nonsocial2.png,stimuli/Social3.png,stimuli/Social4.png,stimuli/Nonsocial3.png,stimuli/Nonsocial4.png,cs_pos_ns,"(-0.7, -0.5)",,,,,,,,,0,0,0,0,,,,,,,,,,,,,0,5,5,13,,,,,,,,,,,,,,,,,,,,,,,,,,,,,,,,,,574.1528942000004,42,reward,1,0.5557699000000866,0.5557737999988603,574.7153292000003,,,,,,,,,,,,,,,,,,,,,,30,A,2024-05-08_11h22.43.121,attentional_competition_task,2022.2.4,143.9781153249283,
positions.xlsx,positions_test.xlsx,positions_test_new.xlsx,stimuli.xlsx,stimuli_new.xlsx,stimuli/Social1.png,stimuli/Social2.png,stimuli/Nonsocial1.png,stimuli/Nonsocial2.png,stimuli/Social3.png,stimuli/Social4.png,stimuli/Nonsocial3.png,stimuli/Nonsocial4.png,cs_neg_s,"(-0.7, 0.5)",,,,,,,,,0,0,0,0,,,,,,,,,,,,,0,6,6,0,,,,,,,,,,,,,,,,,,,,,,,,,,,,,,,,,,581.8886953000001,42,none,0,,,584.8955148000005,,,,,,,,,,,,,,,,,,,,,,30,A,2024-05-08_11h22.43.121,attentional_competition_task,2022.2.4,143.9781153249283,
positions.xlsx,positions_test.xlsx,positions_test_new.xlsx,stimuli.xlsx,stimuli_new.xlsx,stimuli/Social1.png,stimuli/Social2.png,stimuli/Nonsocial1.png,stimuli/Nonsocial2.png,stimuli/Social3.png,stimuli/Social4.png,stimuli/Nonsocial3.png,stimuli/Nonsocial4.png,cs_neg_s,"(-0.7, -0.5)",,,,,,,,,0,0,0,0,,,,,,,,,,,,,0,7,7,1,,,,,,,,,,,,,,,,,,,,,,,,,,,,,,,,,,592.3257613000005,42,none,0,,,595.3325846999996,,,,,,,,,,,,,,,,,,,,,,30,A,2024-05-08_11h22.43.121,attentional_competition_task,2022.2.4,143.9781153249283,
positions.xlsx,positions_test.xlsx,positions_test_new.xlsx,stimuli.xlsx,stimuli_new.xlsx,stimuli/Social1.png,stimuli/Social2.png,stimuli/Nonsocial1.png,stimuli/Nonsocial2.png,stimuli/Social3.png,stimuli/Social4.png,stimuli/Nonsocial3.png,stimuli/Nonsocial4.png,cs_neg_ns,"(-0.7, 0.5)",,,,,,,,,0,0,0,0,,,,,,,,,,,,,0,8,8,8,,,,,,,,,,,,,,,,,,,,,,,,,,,,,,,,,,603.4988959000002,39,loss,1,0.9720978999994259,0.9721014999995532,604.4780004000004,,,,,,,,,,,,,,,,,,,,,,30,A,2024-05-08_11h22.43.121,attentional_competition_task,2022.2.4,143.9781153249283,
positions.xlsx,positions_test.xlsx,positions_test_new.xlsx,stimuli.xlsx,stimuli_new.xlsx,stimuli/Social1.png,stimuli/Social2.png,stimuli/Nonsocial1.png,stimuli/Nonsocial2.png,stimuli/Social3.png,stimuli/Social4.png,stimuli/Nonsocial3.png,stimuli/Nonsocial4.png,cs_neg_ns,"(0.7, -0.5)",,,,,,,,,0,0,0,0,,,,,,,,,,,,,0,9,9,11,,,,,,,,,,,,,,,,,,,,,,,,,,,,,,,,,,611.9499108,39,none,0,,,614.9637187999997,,,,,,,,,,,,,,,,,,,,,,30,A,2024-05-08_11h22.43.121,attentional_competition_task,2022.2.4,143.9781153249283,
positions.xlsx,positions_test.xlsx,positions_test_new.xlsx,stimuli.xlsx,stimuli_new.xlsx,stimuli/Social1.png,stimuli/Social2.png,stimuli/Nonsocial1.png,stimuli/Nonsocial2.png,stimuli/Social3.png,stimuli/Social4.png,stimuli/Nonsocial3.png,stimuli/Nonsocial4.png,cs_pos_ns,"(-0.7, 0.5)",,,,,,,,,0,0,0,0,,,,,,,,,,,,,0,10,10,12,,,,,,,,,,,,,,,,,,,,,,,,,,,,,,,,,,622.3453248000005,42,reward,1,0.6250550000004296,0.6250586000005569,622.9772771000007,,,,,,,,,,,,,,,,,,,,,,30,A,2024-05-08_11h22.43.121,attentional_competition_task,2022.2.4,143.9781153249283,
positions.xlsx,positions_test.xlsx,positions_test_new.xlsx,stimuli.xlsx,stimuli_new.xlsx,stimuli/Social1.png,stimuli/Social2.png,stimuli/Nonsocial1.png,stimuli/Nonsocial2.png,stimuli/Social3.png,stimuli/Social4.png,stimuli/Nonsocial3.png,stimuli/Nonsocial4.png,cs_pos_s,"(-0.7, 0.5)",,,,,,,,,0,0,0,0,,,,,,,,,,,,,0,11,11,4,,,,,,,,,,,,,,,,,,,,,,,,,,,,,,,,,,630.7616796000002,45,reward,1,0.681035100000372,0.6810523000003741,631.4491670999996,,,,,,,,,,,,,,,,,,,,,,30,A,2024-05-08_11h22.43.121,attentional_competition_task,2022.2.4,143.9781153249283,
positions.xlsx,positions_test.xlsx,positions_test_new.xlsx,stimuli.xlsx,stimuli_new.xlsx,stimuli/Social1.png,stimuli/Social2.png,stimuli/Nonsocial1.png,stimuli/Nonsocial2.png,stimuli/Social3.png,stimuli/Social4.png,stimuli/Nonsocial3.png,stimuli/Nonsocial4.png,cs_pos_s,"(0.7, 0.5)",,,,,,,,,0,0,0,0,,,,,,,,,,,,,0,12,12,6,,,,,,,,,,,,,,,,,,,,,,,,,,,,,,,,,,638.6432836000004,48,reward,1,0.8125089999994088,0.8125126999984786,639.4626747000002,,,,,,,,,,,,,,,,,,,,,,30,A,2024-05-08_11h22.43.121,attentional_competition_task,2022.2.4,143.9781153249283,
positions.xlsx,positions_test.xlsx,positions_test_new.xlsx,stimuli.xlsx,stimuli_new.xlsx,stimuli/Social1.png,stimuli/Social2.png,stimuli/Nonsocial1.png,stimuli/Nonsocial2.png,stimuli/Social3.png,stimuli/Social4.png,stimuli/Nonsocial3.png,stimuli/Nonsocial4.png,cs_neg_s,"(0.7, 0.5)",,,,,,,,,0,0,0,0,,,,,,,,,,,,,0,13,13,2,,,,,,,,,,,,,,,,,,,,,,,,,,,,,,,,,,646.9207616000003,48,none,0,,,649.9344576000003,,,,,,,,,,,,,,,,,,,,,,30,A,2024-05-08_11h22.43.121,attentional_competition_task,2022.2.4,143.9781153249283,
positions.xlsx,positions_test.xlsx,positions_test_new.xlsx,stimuli.xlsx,stimuli_new.xlsx,stimuli/Social1.png,stimuli/Social2.png,stimuli/Nonsocial1.png,stimuli/Nonsocial2.png,stimuli/Social3.png,stimuli/Social4.png,stimuli/Nonsocial3.png,stimuli/Nonsocial4.png,cs_neg_ns,"(-0.7, -0.5)",,,,,,,,,0,0,0,0,,,,,,,,,,,,,0,14,14,9,,,,,,,,,,,,,,,,,,,,,,,,,,,,,,,,,,658.1285926,48,none,0,,,661.1423252000004,,,,,,,,,,,,,,,,,,,,,,30,A,2024-05-08_11h22.43.121,attentional_competition_task,2022.2.4,143.9781153249283,
positions.xlsx,positions_test.xlsx,positions_test_new.xlsx,stimuli.xlsx,stimuli_new.xlsx,stimuli/Social1.png,stimuli/Social2.png,stimuli/Nonsocial1.png,stimuli/Nonsocial2.png,stimuli/Social3.png,stimuli/Social4.png,stimuli/Nonsocial3.png,stimuli/Nonsocial4.png,cs_pos_s,"(0.7, -0.5)",,,,,,,,,0,0,0,0,,,,,,,,,,,,,0,15,15,7,,,,,,,,,,,,,,,,,,,,,,,,,,,,,,,,,,668.5795483000002,51,reward,1,0.9097529999999097,0.9097568999986834,669.4961717999995,,,,,,,,,,,,,,,,,,,,,,30,A,2024-05-08_11h22.43.121,attentional_competition_task,2022.2.4,143.9781153249283,
positions.xlsx,positions_test.xlsx,positions_test_new.xlsx,stimuli.xlsx,stimuli_new.xlsx,stimuli/Social1.png,stimuli/Social2.png,stimuli/Nonsocial1.png,stimuli/Nonsocial2.png,stimuli/Social3.png,stimuli/Social4.png,stimuli/Nonsocial3.png,stimuli/Nonsocial4.png,cs_neg_s,"(0.7, 0.5)",,,,,,,,,0,0,0,0,,,,,,,,,,,,,1,0,16,2,,,,,,,,,,,,,,,,,,,,,,,,,,,,,,,,,,677.5861174000001,51,none,0,,,680.592932900001,,,,,,,,,,,,,,,,,,,,,,30,A,2024-05-08_11h22.43.121,attentional_competition_task,2022.2.4,143.9781153249283,
positions.xlsx,positions_test.xlsx,positions_test_new.xlsx,stimuli.xlsx,stimuli_new.xlsx,stimuli/Social1.png,stimuli/Social2.png,stimuli/Nonsocial1.png,stimuli/Nonsocial2.png,stimuli/Social3.png,stimuli/Social4.png,stimuli/Nonsocial3.png,stimuli/Nonsocial4.png,cs_neg_ns,"(-0.7, 0.5)",,,,,,,,,0,0,0,0,,,,,,,,,,,,,1,1,17,8,,,,,,,,,,,,,,,,,,,,,,,,,,,,,,,,,,687.8842703999999,51,none,0,,,690.8980546000003,,,,,,,,,,,,,,,,,,,,,,30,A,2024-05-08_11h22.43.121,attentional_competition_task,2022.2.4,143.9781153249283,
positions.xlsx,positions_test.xlsx,positions_test_new.xlsx,stimuli.xlsx,stimuli_new.xlsx,stimuli/Social1.png,stimuli/Social2.png,stimuli/Nonsocial1.png,stimuli/Nonsocial2.png,stimuli/Social3.png,stimuli/Social4.png,stimuli/Nonsocial3.png,stimuli/Nonsocial4.png,cs_neg_ns,"(-0.7, -0.5)",,,,,,,,,0,0,0,0,,,,,,,,,,,,,1,2,18,9,,,,,,,,,,,,,,,,,,,,,,,,,,,,,,,,,,699.3074823000006,51,none,0,,,702.3212003000008,,,,,,,,,,,,,,,,,,,,,,30,A,2024-05-08_11h22.43.121,attentional_competition_task,2022.2.4,143.9781153249283,
positions.xlsx,positions_test.xlsx,positions_test_new.xlsx,stimuli.xlsx,stimuli_new.xlsx,stimuli/Social1.png,stimuli/Social2.png,stimuli/Nonsocial1.png,stimuli/Nonsocial2.png,stimuli/Social3.png,stimuli/Social4.png,stimuli/Nonsocial3.png,stimuli/Nonsocial4.png,cs_pos_ns,"(0.7, 0.5)",,,,,,,,,0,0,0,0,,,,,,,,,,,,,1,3,19,14,,,,,,,,,,,,,,,,,,,,,,,,,,,,,,,,,,710.3972639000003,54,reward,1,0.7085815000009461,0.7085852000000159,711.1125200000006,,,,,,,,,,,,,,,,,,,,,,30,A,2024-05-08_11h22.43.121,attentional_competition_task,2022.2.4,143.9781153249283,
positions.xlsx,positions_test.xlsx,positions_test_new.xlsx,stimuli.xlsx,stimuli_new.xlsx,stimuli/Social1.png,stimuli/Social2.png,stimuli/Nonsocial1.png,stimuli/Nonsocial2.png,stimuli/Social3.png,stimuli/Social4.png,stimuli/Nonsocial3.png,stimuli/Nonsocial4.png,cs_pos_s,"(0.7, -0.5)",,,,,,,,,0,0,0,0,,,,,,,,,,,,,1,4,20,7,,,,,,,,,,,,,,,,,,,,,,,,,,,,,,,,,,719.0080175000003,57,reward,1,0.22953710000001593,0.22954050000043935,719.2441013000007,,,,,,,,,,,,,,,,,,,,,,30,A,2024-05-08_11h22.43.121,attentional_competition_task,2022.2.4,143.9781153249283,
positions.xlsx,positions_test.xlsx,positions_test_new.xlsx,stimuli.xlsx,stimuli_new.xlsx,stimuli/Social1.png,stimuli/Social2.png,stimuli/Nonsocial1.png,stimuli/Nonsocial2.png,stimuli/Social3.png,stimuli/Social4.png,stimuli/Nonsocial3.png,stimuli/Nonsocial4.png,cs_neg_s,"(-0.7, 0.5)",,,,,,,,,0,0,0,0,,,,,,,,,,,,,1,5,21,0,,,,,,,,,,,,,,,,,,,,,,,,,,,,,,,,,,726.8340765000012,57,none,0,,,729.8408751999996,,,,,,,,,,,,,,,,,,,,,,30,A,2024-05-08_11h22.43.121,attentional_competition_task,2022.2.4,143.9781153249283,
positions.xlsx,positions_test.xlsx,positions_test_new.xlsx,stimuli.xlsx,stimuli_new.xlsx,stimuli/Social1.png,stimuli/Social2.png,stimuli/Nonsocial1.png,stimuli/Nonsocial2.png,stimuli/Social3.png,stimuli/Social4.png,stimuli/Nonsocial3.png,stimuli/Nonsocial4.png,cs_pos_ns,"(0.7, -0.5)",,,,,,,,,0,0,0,0,,,,,,,,,,,,,1,6,22,15,,,,,,,,,,,,,,,,,,,,,,,,,,,,,,,,,,736.5767145000009,60,reward,1,0.686999100000321,0.6870028000012098,737.2642194,,,,,,,,,,,,,,,,,,,,,,30,A,2024-05-08_11h22.43.121,attentional_competition_task,2022.2.4,143.9781153249283,
positions.xlsx,positions_test.xlsx,positions_test_new.xlsx,stimuli.xlsx,stimuli_new.xlsx,stimuli/Social1.png,stimuli/Social2.png,stimuli/Nonsocial1.png,stimuli/Nonsocial2.png,stimuli/Social3.png,stimuli/Social4.png,stimuli/Nonsocial3.png,stimuli/Nonsocial4.png,cs_neg_ns,"(0.7, -0.5)",,,,,,,,,0,0,0,0,,,,,,,,,,,,,1,7,23,11,,,,,,,,,,,,,,,,,,,,,,,,,,,,,,,,,,744.4375228999997,60,none,0,,,747.4512813000001,,,,,,,,,,,,,,,,,,,,,,30,A,2024-05-08_11h22.43.121,attentional_competition_task,2022.2.4,143.9781153249283,
positions.xlsx,positions_test.xlsx,positions_test_new.xlsx,stimuli.xlsx,stimuli_new.xlsx,stimuli/Social1.png,stimuli/Social2.png,stimuli/Nonsocial1.png,stimuli/Nonsocial2.png,stimuli/Social3.png,stimuli/Social4.png,stimuli/Nonsocial3.png,stimuli/Nonsocial4.png,cs_pos_ns,"(-0.7, -0.5)",,,,,,,,,0,0,0,0,,,,,,,,,,,,,1,8,24,13,,,,,,,,,,,,,,,,,,,,,,,,,,,,,,,,,,754.8051532000009,63,reward,1,0.6739493000004586,0.6739533000018127,755.4856524999996,,,,,,,,,,,,,,,,,,,,,,30,A,2024-05-08_11h22.43.121,attentional_competition_task,2022.2.4,143.9781153249283,
positions.xlsx,positions_test.xlsx,positions_test_new.xlsx,stimuli.xlsx,stimuli_new.xlsx,stimuli/Social1.png,stimuli/Social2.png,stimuli/Nonsocial1.png,stimuli/Nonsocial2.png,stimuli/Social3.png,stimuli/Social4.png,stimuli/Nonsocial3.png,stimuli/Nonsocial4.png,cs_neg_s,"(0.7, -0.5)",,,,,,,,,0,0,0,0,,,,,,,,,,,,,1,9,25,3,,,,,,,,,,,,,,,,,,,,,,,,,,,,,,,,,,762.8881362000011,63,none,0,,,765.9018871000007,,,,,,,,,,,,,,,,,,,,,,30,A,2024-05-08_11h22.43.121,attentional_competition_task,2022.2.4,143.9781153249283,
positions.xlsx,positions_test.xlsx,positions_test_new.xlsx,stimuli.xlsx,stimuli_new.xlsx,stimuli/Social1.png,stimuli/Social2.png,stimuli/Nonsocial1.png,stimuli/Nonsocial2.png,stimuli/Social3.png,stimuli/Social4.png,stimuli/Nonsocial3.png,stimuli/Nonsocial4.png,cs_pos_s,"(-0.7, -0.5)",,,,,,,,,0,0,0,0,,,,,,,,,,,,,1,10,26,5,,,,,,,,,,,,,,,,,,,,,,,,,,,,,,,,,,773.0682849000004,66,reward,1,0.7020484999993641,0.7020525999996607,773.7766212000006,,,,,,,,,,,,,,,,,,,,,,30,A,2024-05-08_11h22.43.121,attentional_competition_task,2022.2.4,143.9781153249283,
positions.xlsx,positions_test.xlsx,positions_test_new.xlsx,stimuli.xlsx,stimuli_new.xlsx,stimuli/Social1.png,stimuli/Social2.png,stimuli/Nonsocial1.png,stimuli/Nonsocial2.png,stimuli/Social3.png,stimuli/Social4.png,stimuli/Nonsocial3.png,stimuli/Nonsocial4.png,cs_pos_ns,"(-0.7, 0.5)",,,,,,,,,0,0,0,0,,,,,,,,,,,,,1,11,27,12,,,,,,,,,,,,,,,,,,,,,,,,,,,,,,,,,,781.074896600001,69,reward,1,0.6532234000005701,0.6532275999998092,781.7345884000006,,,,,,,,,,,,,,,,,,,,,,30,A,2024-05-08_11h22.43.121,attentional_competition_task,2022.2.4,143.9781153249283,
positions.xlsx,positions_test.xlsx,positions_test_new.xlsx,stimuli.xlsx,stimuli_new.xlsx,stimuli/Social1.png,stimuli/Social2.png,stimuli/Nonsocial1.png,stimuli/Nonsocial2.png,stimuli/Social3.png,stimuli/Social4.png,stimuli/Nonsocial3.png,stimuli/Nonsocial4.png,cs_pos_s,"(0.7, 0.5)",,,,,,,,,0,0,0,0,,,,,,,,,,,,,1,12,28,6,,,,,,,,,,,,,,,,,,,,,,,,,,,,,,,,,,789.6162346000001,72,reward,1,0.6804938999994192,0.6804979999997158,790.3036871000004,,,,,,,,,,,,,,,,,,,,,,30,A,2024-05-08_11h22.43.121,attentional_competition_task,2022.2.4,143.9781153249283,
positions.xlsx,positions_test.xlsx,positions_test_new.xlsx,stimuli.xlsx,stimuli_new.xlsx,stimuli/Social1.png,stimuli/Social2.png,stimuli/Nonsocial1.png,stimuli/Nonsocial2.png,stimuli/Social3.png,stimuli/Social4.png,stimuli/Nonsocial3.png,stimuli/Nonsocial4.png,cs_neg_ns,"(0.7, 0.5)",,,,,,,,,0,0,0,0,,,,,,,,,,,,,1,13,29,10,,,,,,,,,,,,,,,,,,,,,,,,,,,,,,,,,,797.4423003000011,72,none,0,,,800.4560448000011,,,,,,,,,,,,,,,,,,,,,,30,A,2024-05-08_11h22.43.121,attentional_competition_task,2022.2.4,143.9781153249283,
positions.xlsx,positions_test.xlsx,positions_test_new.xlsx,stimuli.xlsx,stimuli_new.xlsx,stimuli/Social1.png,stimuli/Social2.png,stimuli/Nonsocial1.png,stimuli/Nonsocial2.png,stimuli/Social3.png,stimuli/Social4.png,stimuli/Nonsocial3.png,stimuli/Nonsocial4.png,cs_neg_s,"(-0.7, -0.5)",,,,,,,,,0,0,0,0,,,,,,,,,,,,,1,14,30,1,,,,,,,,,,,,,,,,,,,,,,,,,,,,,,,,,,808.2196137999999,72,none,0,,,811.226445100001,,,,,,,,,,,,,,,,,,,,,,30,A,2024-05-08_11h22.43.121,attentional_competition_task,2022.2.4,143.9781153249283,
positions.xlsx,positions_test.xlsx,positions_test_new.xlsx,stimuli.xlsx,stimuli_new.xlsx,stimuli/Social1.png,stimuli/Social2.png,stimuli/Nonsocial1.png,stimuli/Nonsocial2.png,stimuli/Social3.png,stimuli/Social4.png,stimuli/Nonsocial3.png,stimuli/Nonsocial4.png,cs_pos_s,"(-0.7, 0.5)",,,,,,,,,0,0,0,0,,,,,,,,,,,,,1,15,31,4,,,,,,,,,,,,,,,,,,,,,,,,,,,,,,,,,,818.1011545000001,75,reward,1,0.6531140999995841,0.6531177999986539,818.7608648000005,,,,,,,,,,,,,,,,,,,,,,30,A,2024-05-08_11h22.43.121,attentional_competition_task,2022.2.4,143.9781153249283,
positions.xlsx,positions_test.xlsx,positions_test_new.xlsx,stimuli.xlsx,stimuli_new.xlsx,stimuli/Social1.png,stimuli/Social2.png,stimuli/Nonsocial1.png,stimuli/Nonsocial2.png,stimuli/Social3.png,stimuli/Social4.png,stimuli/Nonsocial3.png,stimuli/Nonsocial4.png,cs_pos_ns,,,,,,,,,,0,0,0,0,,,,,,,,,,,,,,,,,0,0,0,3,,,,,,,,,,,,,,,,,,,,,,,823.8578598000004,10.0,3.510953299999528,,,,,,,,,,,,,,,,,,,,,,,,,,,,,,,,,30,A,2024-05-08_11h22.43.121,attentional_competition_task,2022.2.4,143.9781153249283,
positions.xlsx,positions_test.xlsx,positions_test_new.xlsx,stimuli.xlsx,stimuli_new.xlsx,stimuli/Social1.png,stimuli/Social2.png,stimuli/Nonsocial1.png,stimuli/Nonsocial2.png,stimuli/Social3.png,stimuli/Social4.png,stimuli/Nonsocial3.png,stimuli/Nonsocial4.png,cs_neg_ns,,,,,,,,,,0,0,0,0,,,,,,,,,,,,,,,,,0,1,1,1,,,,,,,,,,,,,,,,,,,,,,,828.5937766000006,7.0,2.5850807999995595,,,,,,,,,,,,,,,,,,,,,,,,,,,,,,,,,30,A,2024-05-08_11h22.43.121,attentional_competition_task,2022.2.4,143.9781153249283,
positions.xlsx,positions_test.xlsx,positions_test_new.xlsx,stimuli.xlsx,stimuli_new.xlsx,stimuli/Social1.png,stimuli/Social2.png,stimuli/Nonsocial1.png,stimuli/Nonsocial2.png,stimuli/Social3.png,stimuli/Social4.png,stimuli/Nonsocial3.png,stimuli/Nonsocial4.png,cs_pos_s,,,,,,,,,,0,0,0,0,,,,,,,,,,,,,,,,,0,2,2,2,,,,,,,,,,,,,,,,,,,,,,,831.920043600001,9.0,3.4675110000007408,,,,,,,,,,,,,,,,,,,,,,,,,,,,,,,,,30,A,2024-05-08_11h22.43.121,attentional_competition_task,2022.2.4,143.9781153249283,
positions.xlsx,positions_test.xlsx,positions_test_new.xlsx,stimuli.xlsx,stimuli_new.xlsx,stimuli/Social1.png,stimuli/Social2.png,stimuli/Nonsocial1.png,stimuli/Nonsocial2.png,stimuli/Social3.png,stimuli/Social4.png,stimuli/Nonsocial3.png,stimuli/Nonsocial4.png,cs_neg_s,,,,,,,,,,0,0,0,0,,,,,,,,,,,,,,,,,0,3,3,0,,,,,,,,,,,,,,,,,,,,,,,835.7670933000009,3.0,1.8079667999991216,,,,,,,,,,,,,,,,,,,,,,,,,,,,,,,,,30,A,2024-05-08_11h22.43.121,attentional_competition_task,2022.2.4,143.9781153249283,
positions.xlsx,positions_test.xlsx,positions_test_new.xlsx,stimuli.xlsx,stimuli_new.xlsx,stimuli/Social1.png,stimuli/Social2.png,stimuli/Nonsocial1.png,stimuli/Nonsocial2.png,stimuli/Social3.png,stimuli/Social4.png,stimuli/Nonsocial3.png,stimuli/Nonsocial4.png,,,"(-0.7, -0.5)",cs_neg_ns,"(-0.7, 0.5)",cs_neg_s,"(0.7, -0.5)",cs_pos_ns,"(0.7, 0.5)",cs_pos_s,0,0,0,0,,,,,,,,,,,,,,,,,,,,,0,0,0,15,,,,,,,,,,,,,,,,,,,,,,,,,,,78,reward,,,,,838.3433739000011,844.9611537000001,844.9611537000001,844.9611537000001,844.9611537000001,0,,,0,,,1,0.0292782000014995,0.11394050000126299,1,0.1348440000001574,0.13484740000058082,845.0930652000006,845.0930652000006,845.0930652000006,845.0930652000006,30,A,2024-05-08_11h22.43.121,attentional_competition_task,2022.2.4,143.9781153249283,
positions.xlsx,positions_test.xlsx,positions_test_new.xlsx,stimuli.xlsx,stimuli_new.xlsx,stimuli/Social1.png,stimuli/Social2.png,stimuli/Nonsocial1.png,stimuli/Nonsocial2.png,stimuli/Social3.png,stimuli/Social4.png,stimuli/Nonsocial3.png,stimuli/Nonsocial4.png,,,"(-0.7, -0.5)",cs_pos_s,"(-0.7, 0.5)",cs_neg_s,"(0.7, -0.5)",cs_pos_ns,"(0.7, 0.5)",cs_neg_ns,0,0,0,0,,,,,,,,,,,,,,,,,,,,,0,1,1,7,,,,,,,,,,,,,,,,,,,,,,,,,,,84,reward,,,,,,852.4955843999996,852.4955843999996,852.4955843999996,852.4955843999996,0,,,0,,,0,,,0,,,853.9330346000006,853.9330346000006,853.9330346000006,853.9330346000006,30,A,2024-05-08_11h22.43.121,attentional_competition_task,2022.2.4,143.9781153249283,
positions.xlsx,positions_test.xlsx,positions_test_new.xlsx,stimuli.xlsx,stimuli_new.xlsx,stimuli/Social1.png,stimuli/Social2.png,stimuli/Nonsocial1.png,stimuli/Nonsocial2.png,stimuli/Social3.png,stimuli/Social4.png,stimuli/Nonsocial3.png,stimuli/Nonsocial4.png,,,"(-0.7, -0.5)",cs_pos_s,"(-0.7, 0.5)",cs_neg_ns,"(0.7, -0.5)",cs_pos_ns,"(0.7, 0.5)",cs_neg_s,0,0,0,0,,,,,,,,,,,,,,,,,,,,,0,2,2,9,,,,,,,,,,,,,,,,,,,,,,,,,,,90,reward,,,,,,861.3910133999998,861.3910133999998,861.3910133999998,861.3910133999998,0,,,0,,,0,,,0,,,862.4604442,862.4604442,862.4604442,862.4604442,30,A,2024-05-08_11h22.43.121,attentional_competition_task,2022.2.4,143.9781153249283,
positions.xlsx,positions_test.xlsx,positions_test_new.xlsx,stimuli.xlsx,stimuli_new.xlsx,stimuli/Social1.png,stimuli/Social2.png,stimuli/Nonsocial1.png,stimuli/Nonsocial2.png,stimuli/Social3.png,stimuli/Social4.png,stimuli/Nonsocial3.png,stimuli/Nonsocial4.png,,,"(-0.7, -0.5)",cs_pos_s,"(-0.7, 0.5)",cs_neg_ns,"(0.7, -0.5)",cs_neg_s,"(0.7, 0.5)",cs_pos_ns,0,0,0,0,,,,,,,,,,,,,,,,,,,,,0,3,3,8,,,,,,,,,,,,,,,,,,,,,,,,,,,99,reward,,,,,,870.4462115000006,870.4462115000006,870.4462115000006,870.4462115000006,0,,,0,,,0,,,1,0.03228349999881175,0.08719229999951494,871.0295387000006,871.0295387000006,871.0295387000006,871.0295387000006,30,A,2024-05-08_11h22.43.121,attentional_competition_task,2022.2.4,143.9781153249283,
positions.xlsx,positions_test.xlsx,positions_test_new.xlsx,stimuli.xlsx,stimuli_new.xlsx,stimuli/Social1.png,stimuli/Social2.png,stimuli/Nonsocial1.png,stimuli/Nonsocial2.png,stimuli/Social3.png,stimuli/Social4.png,stimuli/Nonsocial3.png,stimuli/Nonsocial4.png,,,"(-0.7, -0.5)",cs_pos_ns,"(-0.7, 0.5)",cs_pos_s,"(0.7, -0.5)",cs_neg_s,"(0.7, 0.5)",cs_neg_ns,0,0,0,0,,,,,,,,,,,,,,,,,,,,,0,4,4,19,,,,,,,,,,,,,,,,,,,,,,,,,,,108,reward,,,,,,879.2444456000012,879.2444456000012,879.2444456000012,879.2444456000012,0,,,0,,,0,,,0,,,880.0430542000013,880.0430542000013,880.0430542000013,880.0430542000013,30,A,2024-05-08_11h22.43.121,attentional_competition_task,2022.2.4,143.9781153249283,
positions.xlsx,positions_test.xlsx,positions_test_new.xlsx,stimuli.xlsx,stimuli_new.xlsx,stimuli/Social1.png,stimuli/Social2.png,stimuli/Nonsocial1.png,stimuli/Nonsocial2.png,stimuli/Social3.png,stimuli/Social4.png,stimuli/Nonsocial3.png,stimuli/Nonsocial4.png,,,"(-0.7, -0.5)",cs_neg_s,"(-0.7, 0.5)",cs_neg_ns,"(0.7, -0.5)",cs_pos_s,"(0.7, 0.5)",cs_pos_ns,0,0,0,0,,,,,,,,,,,,,,,,,,,,,0,5,5,2,,,,,,,,,,,,,,,,,,,,,,,,,,,117,reward,,,,,,887.2372163,887.2372163,887.2372163,887.2372163,0,,,0,,,0,,,0,,,887.9663504,887.9663504,887.9663504,887.9663504,30,A,2024-05-08_11h22.43.121,attentional_competition_task,2022.2.4,143.9781153249283,
positions.xlsx,positions_test.xlsx,positions_test_new.xlsx,stimuli.xlsx,stimuli_new.xlsx,stimuli/Social1.png,stimuli/Social2.png,stimuli/Nonsocial1.png,stimuli/Nonsocial2.png,stimuli/Social3.png,stimuli/Social4.png,stimuli/Nonsocial3.png,stimuli/Nonsocial4.png,,,"(-0.7, -0.5)",cs_pos_ns,"(-0.7, 0.5)",cs_neg_ns,"(0.7, -0.5)",cs_neg_s,"(0.7, 0.5)",cs_pos_s,0,0,0,0,,,,,,,,,,,,,,,,,,,,,0,6,6,21,,,,,,,,,,,,,,,,,,,,,,,,,,,123,reward,,,,,,895.4521487000002,895.4521487000002,895.4521487000002,895.4521487000002,1,0.06487290000040957,0.06487670000024082,0,,,0,,,0,,,895.5145871000004,895.5145871000004,895.5145871000004,895.5145871000004,30,A,2024-05-08_11h22.43.121,attentional_competition_task,2022.2.4,143.9781153249283,
positions.xlsx,positions_test.xlsx,positions_test_new.xlsx,stimuli.xlsx,stimuli_new.xlsx,stimuli/Social1.png,stimuli/Social2.png,stimuli/Nonsocial1.png,stimuli/Nonsocial2.png,stimuli/Social3.png,stimuli/Social4.png,stimuli/Nonsocial3.png,stimuli/Nonsocial4.png,,,"(-0.7, -0.5)",cs_neg_s,"(-0.7, 0.5)",cs_pos_ns,"(0.7, -0.5)",cs_pos_s,"(0.7, 0.5)",cs_neg_ns,0,0,0,0,,,,,,,,,,,,,,,,,,,,,0,7,7,4,,,,,,,,,,,,,,,,,,,,,,,,,,,132,reward,,,,,,904.9517527000007,904.9517527000007,904.9517527000007,904.9517527000007,0,,,1,0.023167600000306265,0.20557240000016463,0,,,0,,,905.6670238000006,905.6670238000006,905.6670238000006,905.6670238000006,30,A,2024-05-08_11h22.43.121,attentional_competition_task,2022.2.4,143.9781153249283,
positions.xlsx,positions_test.xlsx,positions_test_new.xlsx,stimuli.xlsx,stimuli_new.xlsx,stimuli/Social1.png,stimuli/Social2.png,stimuli/Nonsocial1.png,stimuli/Nonsocial2.png,stimuli/Social3.png,stimuli/Social4.png,stimuli/Nonsocial3.png,stimuli/Nonsocial4.png,,,"(-0.7, -0.5)",cs_neg_s,"(-0.7, 0.5)",cs_pos_ns,"(0.7, -0.5)",cs_neg_ns,"(0.7, 0.5)",cs_pos_s,0,0,0,0,,,,,,,,,,,,,,,,,,,,,0,8,8,5,,,,,,,,,,,,,,,,,,,,,,,,,,,141,reward,,,,,,913.2152903999995,913.2152903999995,913.2152903999995,913.2152903999995,0,,,1,0.0288524999996298,0.09995820000040112,0,,,0,,,913.8402729000009,913.8402729000009,913.8402729000009,913.8402729000009,30,A,2024-05-08_11h22.43.121,attentional_competition_task,2022.2.4,143.9781153249283,
positions.xlsx,positions_test.xlsx,positions_test_new.xlsx,stimuli.xlsx,stimuli_new.xlsx,stimuli/Social1.png,stimuli/Social2.png,stimuli/Nonsocial1.png,stimuli/Nonsocial2.png,stimuli/Social3.png,stimuli/Social4.png,stimuli/Nonsocial3.png,stimuli/Nonsocial4.png,,,"(-0.7, -0.5)",cs_neg_s,"(-0.7, 0.5)",cs_pos_s,"(0.7, -0.5)",cs_neg_ns,"(0.7, 0.5)",cs_pos_ns,0,0,0,0,,,,,,,,,,,,,,,,,,,,,0,9,9,0,,,,,,,,,,,,,,,,,,,,,,,,,,,150,reward,,,,,,921.2357886000009,921.2357886000009,921.2357886000009,921.2357886000009,0,,,1,0.024842099999659695,0.28894899999977497,0,,,0,,,922.0274382999996,922.0274382999996,922.0274382999996,922.0274382999996,30,A,2024-05-08_11h22.43.121,attentional_competition_task,2022.2.4,143.9781153249283,
positions.xlsx,positions_test.xlsx,positions_test_new.xlsx,stimuli.xlsx,stimuli_new.xlsx,stimuli/Social1.png,stimuli/Social2.png,stimuli/Nonsocial1.png,stimuli/Nonsocial2.png,stimuli/Social3.png,stimuli/Social4.png,stimuli/Nonsocial3.png,stimuli/Nonsocial4.png,,,"(-0.7, -0.5)",cs_neg_ns,"(-0.7, 0.5)",cs_pos_ns,"(0.7, -0.5)",cs_pos_s,"(0.7, 0.5)",cs_neg_s,0,0,0,0,,,,,,,,,,,,,,,,,,,,,0,10,10,16,,,,,,,,,,,,,,,,,,,,,,,,,,,159,reward,,,,,,929.3465790000009,929.3465790000009,929.3465790000009,929.3465790000009,0,,,0,,,1,0.02333149999867601,0.08838099999957194,0,,,930.1451551000009,930.1451551000009,930.1451551000009,930.1451551000009,30,A,2024-05-08_11h22.43.121,attentional_competition_task,2022.2.4,143.9781153249283,
positions.xlsx,positions_test.xlsx,positions_test_new.xlsx,stimuli.xlsx,stimuli_new.xlsx,stimuli/Social1.png,stimuli/Social2.png,stimuli/Nonsocial1.png,stimuli/Nonsocial2.png,stimuli/Social3.png,stimuli/Social4.png,stimuli/Nonsocial3.png,stimuli/Nonsocial4.png,,,"(-0.7, -0.5)",cs_pos_ns,"(-0.7, 0.5)",cs_neg_s,"(0.7, -0.5)",cs_neg_ns,"(0.7, 0.5)",cs_pos_s,0,0,0,0,,,,,,,,,,,,,,,,,,,,,0,11,11,23,,,,,,,,,,,,,,,,,,,,,,,,,,,168,reward,,,,,,937.9017452000007,937.9017452000007,937.9017452000007,937.9017452000007,1,0.023128600001655286,0.04495410000163247,0,,,0,,,0,,,938.5823082999996,938.5823082999996,938.5823082999996,938.5823082999996,30,A,2024-05-08_11h22.43.121,attentional_competition_task,2022.2.4,143.9781153249283,
positions.xlsx,positions_test.xlsx,positions_test_new.xlsx,stimuli.xlsx,stimuli_new.xlsx,stimuli/Social1.png,stimuli/Social2.png,stimuli/Nonsocial1.png,stimuli/Nonsocial2.png,stimuli/Social3.png,stimuli/Social4.png,stimuli/Nonsocial3.png,stimuli/Nonsocial4.png,,,"(-0.7, -0.5)",cs_neg_ns,"(-0.7, 0.5)",cs_neg_s,"(0.7, -0.5)",cs_pos_s,"(0.7, 0.5)",cs_pos_ns,0,0,0,0,,,,,,,,,,,,,,,,,,,,,0,12,12,14,,,,,,,,,,,,,,,,,,,,,,,,,,,177,reward,,,,,,946.0055939000013,946.0055939000013,946.0055939000013,946.0055939000013,0,,,0,,,0,,,0,,,946.894463300001,946.894463300001,946.894463300001,946.894463300001,30,A,2024-05-08_11h22.43.121,attentional_competition_task,2022.2.4,143.9781153249283,
positions.xlsx,positions_test.xlsx,positions_test_new.xlsx,stimuli.xlsx,stimuli_new.xlsx,stimuli/Social1.png,stimuli/Social2.png,stimuli/Nonsocial1.png,stimuli/Nonsocial2.png,stimuli/Social3.png,stimuli/Social4.png,stimuli/Nonsocial3.png,stimuli/Nonsocial4.png,,,"(-0.7, -0.5)",cs_neg_ns,"(-0.7, 0.5)",cs_pos_s,"(0.7, -0.5)",cs_neg_s,"(0.7, 0.5)",cs_pos_ns,0,0,0,0,,,,,,,,,,,,,,,,,,,,,0,13,13,12,,,,,,,,,,,,,,,,,,,,,,,,,,,186,reward,,,,,,955.1996904000007,955.1996904000007,955.1996904000007,955.1996904000007,0,,,0,,,0,,,0,,,956.1718629999996,956.1718629999996,956.1718629999996,956.1718629999996,30,A,2024-05-08_11h22.43.121,attentional_competition_task,2022.2.4,143.9781153249283,
positions.xlsx,positions_test.xlsx,positions_test_new.xlsx,stimuli.xlsx,stimuli_new.xlsx,stimuli/Social1.png,stimuli/Social2.png,stimuli/Nonsocial1.png,stimuli/Nonsocial2.png,stimuli/Social3.png,stimuli/Social4.png,stimuli/Nonsocial3.png,stimuli/Nonsocial4.png,,,"(-0.7, -0.5)",cs_pos_s,"(-0.7, 0.5)",cs_pos_ns,"(0.7, -0.5)",cs_neg_ns,"(0.7, 0.5)",cs_neg_s,0,0,0,0,,,,,,,,,,,,,,,,,,,,,0,14,14,11,,,,,,,,,,,,,,,,,,,,,,,,,,,195,reward,,,,,,963.9145769999996,963.9145769999996,963.9145769999996,963.9145769999996,1,0.02491839999856893,0.23991369999930612,0,,,0,,,0,,,964.6576280000008,964.6576280000008,964.6576280000008,964.6576280000008,30,A,2024-05-08_11h22.43.121,attentional_competition_task,2022.2.4,143.9781153249283,
positions.xlsx,positions_test.xlsx,positions_test_new.xlsx,stimuli.xlsx,stimuli_new.xlsx,stimuli/Social1.png,stimuli/Social2.png,stimuli/Nonsocial1.png,stimuli/Nonsocial2.png,stimuli/Social3.png,stimuli/Social4.png,stimuli/Nonsocial3.png,stimuli/Nonsocial4.png,,,"(-0.7, -0.5)",cs_pos_s,"(-0.7, 0.5)",cs_pos_ns,"(0.7, -0.5)",cs_neg_s,"(0.7, 0.5)",cs_neg_ns,0,0,0,0,,,,,,,,,,,,,,,,,,,,,0,15,15,10,,,,,,,,,,,,,,,,,,,,,,,,,,,204,reward,,,,,,971.8101102,971.8101102,971.8101102,971.8101102,1,0.0288791000002675,0.32202760000109265,0,,,0,,,0,,,972.6295088000006,972.6295088000006,972.6295088000006,972.6295088000006,30,A,2024-05-08_11h22.43.121,attentional_competition_task,2022.2.4,143.9781153249283,
positions.xlsx,positions_test.xlsx,positions_test_new.xlsx,stimuli.xlsx,stimuli_new.xlsx,stimuli/Social1.png,stimuli/Social2.png,stimuli/Nonsocial1.png,stimuli/Nonsocial2.png,stimuli/Social3.png,stimuli/Social4.png,stimuli/Nonsocial3.png,stimuli/Nonsocial4.png,,,"(-0.7, -0.5)",cs_pos_ns,"(-0.7, 0.5)",cs_neg_ns,"(0.7, -0.5)",cs_pos_s,"(0.7, 0.5)",cs_neg_s,0,0,0,0,,,,,,,,,,,,,,,,,,,,,0,16,16,20,,,,,,,,,,,,,,,,,,,,,,,,,,,213,reward,,,,,,980.7611176999999,980.7611176999999,980.7611176999999,980.7611176999999,0,,,0,,,0,,,0,,,981.4902523000001,981.4902523000001,981.4902523000001,981.4902523000001,30,A,2024-05-08_11h22.43.121,attentional_competition_task,2022.2.4,143.9781153249283,
positions.xlsx,positions_test.xlsx,positions_test_new.xlsx,stimuli.xlsx,stimuli_new.xlsx,stimuli/Social1.png,stimuli/Social2.png,stimuli/Nonsocial1.png,stimuli/Nonsocial2.png,stimuli/Social3.png,stimuli/Social4.png,stimuli/Nonsocial3.png,stimuli/Nonsocial4.png,,,"(-0.7, -0.5)",cs_pos_ns,"(-0.7, 0.5)",cs_pos_s,"(0.7, -0.5)",cs_neg_ns,"(0.7, 0.5)",cs_neg_s,0,0,0,0,,,,,,,,,,,,,,,,,,,,,0,17,17,18,,,,,,,,,,,,,,,,,,,,,,,,,,,222,reward,,,,,,989.2815981000003,989.2815981000003,989.2815981000003,989.2815981000003,0,,,0,,,0,,,0,,,990.2607042,990.2607042,990.2607042,990.2607042,30,A,2024-05-08_11h22.43.121,attentional_competition_task,2022.2.4,143.9781153249283,
positions.xlsx,positions_test.xlsx,positions_test_new.xlsx,stimuli.xlsx,stimuli_new.xlsx,stimuli/Social1.png,stimuli/Social2.png,stimuli/Nonsocial1.png,stimuli/Nonsocial2.png,stimuli/Social3.png,stimuli/Social4.png,stimuli/Nonsocial3.png,stimuli/Nonsocial4.png,,,"(-0.7, -0.5)",cs_neg_ns,"(-0.7, 0.5)",cs_pos_s,"(0.7, -0.5)",cs_pos_ns,"(0.7, 0.5)",cs_neg_s,0,0,0,0,,,,,,,,,,,,,,,,,,,,,0,18,18,13,,,,,,,,,,,,,,,,,,,,,,,,,,,231,reward,,,,,,998.1978930000005,998.1978930000005,998.1978930000005,998.1978930000005,0,,,0,,,0,,,0,,,999.0728591000006,999.0728591000006,999.0728591000006,999.0728591000006,30,A,2024-05-08_11h22.43.121,attentional_competition_task,2022.2.4,143.9781153249283,
positions.xlsx,positions_test.xlsx,positions_test_new.xlsx,stimuli.xlsx,stimuli_new.xlsx,stimuli/Social1.png,stimuli/Social2.png,stimuli/Nonsocial1.png,stimuli/Nonsocial2.png,stimuli/Social3.png,stimuli/Social4.png,stimuli/Nonsocial3.png,stimuli/Nonsocial4.png,,,"(-0.7, -0.5)",cs_pos_ns,"(-0.7, 0.5)",cs_neg_s,"(0.7, -0.5)",cs_pos_s,"(0.7, 0.5)",cs_neg_ns,0,0,0,0,,,,,,,,,,,,,,,,,,,,,0,19,19,22,,,,,,,,,,,,,,,,,,,,,,,,,,,240,reward,,,,,,1006.5100526999995,1006.5100526999995,1006.5100526999995,1006.5100526999995,1,0.02901200000087556,0.07816910000110511,0,,,0,,,0,,,1007.3919544,1007.3919544,1007.3919544,1007.3919544,30,A,2024-05-08_11h22.43.121,attentional_competition_task,2022.2.4,143.9781153249283,
positions.xlsx,positions_test.xlsx,positions_test_new.xlsx,stimuli.xlsx,stimuli_new.xlsx,stimuli/Social1.png,stimuli/Social2.png,stimuli/Nonsocial1.png,stimuli/Nonsocial2.png,stimuli/Social3.png,stimuli/Social4.png,stimuli/Nonsocial3.png,stimuli/Nonsocial4.png,,,"(-0.7, -0.5)",cs_pos_s,"(-0.7, 0.5)",cs_neg_s,"(0.7, -0.5)",cs_neg_ns,"(0.7, 0.5)",cs_pos_ns,0,0,0,0,,,,,,,,,,,,,,,,,,,,,0,20,20,6,,,,,,,,,,,,,,,,,,,,,,,,,,,249,reward,,,,,,1014.891630600001,1014.891630600001,1014.891630600001,1014.891630600001,0,,,0,,,0,,,0,,,1015.822183100001,1015.822183100001,1015.822183100001,1015.822183100001,30,A,2024-05-08_11h22.43.121,attentional_competition_task,2022.2.4,143.9781153249283,
positions.xlsx,positions_test.xlsx,positions_test_new.xlsx,stimuli.xlsx,stimuli_new.xlsx,stimuli/Social1.png,stimuli/Social2.png,stimuli/Nonsocial1.png,stimuli/Nonsocial2.png,stimuli/Social3.png,stimuli/Social4.png,stimuli/Nonsocial3.png,stimuli/Nonsocial4.png,,,"(-0.7, -0.5)",cs_neg_s,"(-0.7, 0.5)",cs_neg_ns,"(0.7, -0.5)",cs_pos_ns,"(0.7, 0.5)",cs_pos_s,0,0,0,0,,,,,,,,,,,,,,,,,,,,,0,21,21,3,,,,,,,,,,,,,,,,,,,,,,,,,,,258,reward,,,,,,1023.2176600000003,1023.2176600000003,1023.2176600000003,1023.2176600000003,0,,,0,,,1,0.022798199999670032,0.052068599999984144,0,,,1024.1829357000006,1024.1829357000006,1024.1829357000006,1024.1829357000006,30,A,2024-05-08_11h22.43.121,attentional_competition_task,2022.2.4,143.9781153249283,
positions.xlsx,positions_test.xlsx,positions_test_new.xlsx,stimuli.xlsx,stimuli_new.xlsx,stimuli/Social1.png,stimuli/Social2.png,stimuli/Nonsocial1.png,stimuli/Nonsocial2.png,stimuli/Social3.png,stimuli/Social4.png,stimuli/Nonsocial3.png,stimuli/Nonsocial4.png,,,"(-0.7, -0.5)",cs_neg_s,"(-0.7, 0.5)",cs_pos_s,"(0.7, -0.5)",cs_pos_ns,"(0.7, 0.5)",cs_neg_ns,0,0,0,0,,,,,,,,,,,,,,,,,,,,,0,22,22,1,,,,,,,,,,,,,,,,,,,,,,,,,,,267,reward,,,,,,1031.7381704,1031.7381704,1031.7381704,1031.7381704,0,,,0,,,0,,,0,,,1032.6825821000002,1032.6825821000002,1032.6825821000002,1032.6825821000002,30,A,2024-05-08_11h22.43.121,attentional_competition_task,2022.2.4,143.9781153249283,
positions.xlsx,positions_test.xlsx,positions_test_new.xlsx,stimuli.xlsx,stimuli_new.xlsx,stimuli/Social1.png,stimuli/Social2.png,stimuli/Nonsocial1.png,stimuli/Nonsocial2.png,stimuli/Social3.png,stimuli/Social4.png,stimuli/Nonsocial3.png,stimuli/Nonsocial4.png,,,"(-0.7, -0.5)",cs_neg_ns,"(-0.7, 0.5)",cs_pos_ns,"(0.7, -0.5)",cs_neg_s,"(0.7, 0.5)",cs_pos_s,0,0,0,0,,,,,,,,,,,,,,,,,,,,,0,23,23,17,,,,,,,,,,,,,,,,,,,,,,,,,,,276,reward,,,,,,1041.0919609000011,1041.0919609000011,1041.0919609000011,1041.0919609000011,0,,,0,,,0,,,0,,,1042.0710473,1042.0710473,1042.0710473,1042.0710473,30,A,2024-05-08_11h22.43.121,attentional_competition_task,2022.2.4,143.9781153249283,
positions.xlsx,positions_test.xlsx,positions_test_new.xlsx,stimuli.xlsx,stimuli_new.xlsx,stimuli/Social1.png,stimuli/Social2.png,stimuli/Nonsocial1.png,stimuli/Nonsocial2.png,stimuli/Social3.png,stimuli/Social4.png,stimuli/Nonsocial3.png,stimuli/Nonsocial4.png,,,"(-0.7, -0.5)",cs_pos_s,"(-0.7, 0.5)",cs_pos_ns,"(0.7, -0.5)",cs_neg_ns,"(0.7, 0.5)",cs_neg_s,0,0,0,0,,,,,,,,,,,,,,,,,,,,,1,0,24,11,,,,,,,,,,,,,,,,,,,,,,,,,,,285,reward,,,,,,1049.9526985000011,1049.9526985000011,1049.9526985000011,1049.9526985000011,0,,,0,,,0,,,0,,,1051.0012669000007,1051.0012669000007,1051.0012669000007,1051.0012669000007,30,A,2024-05-08_11h22.43.121,attentional_competition_task,2022.2.4,143.9781153249283,
positions.xlsx,positions_test.xlsx,positions_test_new.xlsx,stimuli.xlsx,stimuli_new.xlsx,stimuli/Social1.png,stimuli/Social2.png,stimuli/Nonsocial1.png,stimuli/Nonsocial2.png,stimuli/Social3.png,stimuli/Social4.png,stimuli/Nonsocial3.png,stimuli/Nonsocial4.png,,,"(-0.7, -0.5)",cs_pos_s,"(-0.7, 0.5)",cs_neg_s,"(0.7, -0.5)",cs_pos_ns,"(0.7, 0.5)",cs_neg_ns,0,0,0,0,,,,,,,,,,,,,,,,,,,,,1,1,25,7,,,,,,,,,,,,,,,,,,,,,,,,,,,294,reward,,,,,,1058.3828943999997,1058.3828943999997,1058.3828943999997,1058.3828943999997,0,,,0,,,0,,,0,,,1059.4523098000009,1059.4523098000009,1059.4523098000009,1059.4523098000009,30,A,2024-05-08_11h22.43.121,attentional_competition_task,2022.2.4,143.9781153249283,
positions.xlsx,positions_test.xlsx,positions_test_new.xlsx,stimuli.xlsx,stimuli_new.xlsx,stimuli/Social1.png,stimuli/Social2.png,stimuli/Nonsocial1.png,stimuli/Nonsocial2.png,stimuli/Social3.png,stimuli/Social4.png,stimuli/Nonsocial3.png,stimuli/Nonsocial4.png,,,"(-0.7, -0.5)",cs_pos_ns,"(-0.7, 0.5)",cs_neg_ns,"(0.7, -0.5)",cs_neg_s,"(0.7, 0.5)",cs_pos_s,0,0,0,0,,,,,,,,,,,,,,,,,,,,,1,2,26,21,,,,,,,,,,,,,,,,,,,,,,,,,,,303,reward,,,,,,1067.0353166000004,1067.0353166000004,1067.0353166000004,1067.0353166000004,0,,,0,,,0,,,0,,,1067.9033455999997,1067.9033455999997,1067.9033455999997,1067.9033455999997,30,A,2024-05-08_11h22.43.121,attentional_competition_task,2022.2.4,143.9781153249283,
positions.xlsx,positions_test.xlsx,positions_test_new.xlsx,stimuli.xlsx,stimuli_new.xlsx,stimuli/Social1.png,stimuli/Social2.png,stimuli/Nonsocial1.png,stimuli/Nonsocial2.png,stimuli/Social3.png,stimuli/Social4.png,stimuli/Nonsocial3.png,stimuli/Nonsocial4.png,,,"(-0.7, -0.5)",cs_neg_s,"(-0.7, 0.5)",cs_neg_ns,"(0.7, -0.5)",cs_pos_s,"(0.7, 0.5)",cs_pos_ns,0,0,0,0,,,,,,,,,,,,,,,,,,,,,1,3,27,2,,,,,,,,,,,,,,,,,,,,,,,,,,,309,reward,,,,,,1075.923837100001,1075.923837100001,1075.923837100001,1075.923837100001,0,,,0,,,0,,,0,,,1076.4863560000013,1076.4863560000013,1076.4863560000013,1076.4863560000013,30,A,2024-05-08_11h22.43.121,attentional_competition_task,2022.2.4,143.9781153249283,
positions.xlsx,positions_test.xlsx,positions_test_new.xlsx,stimuli.xlsx,stimuli_new.xlsx,stimuli/Social1.png,stimuli/Social2.png,stimuli/Nonsocial1.png,stimuli/Nonsocial2.png,stimuli/Social3.png,stimuli/Social4.png,stimuli/Nonsocial3.png,stimuli/Nonsocial4.png,,,"(-0.7, -0.5)",cs_pos_ns,"(-0.7, 0.5)",cs_neg_s,"(0.7, -0.5)",cs_pos_s,"(0.7, 0.5)",cs_neg_ns,0,0,0,0,,,,,,,,,,,,,,,,,,,,,1,4,28,22,,,,,,,,,,,,,,,,,,,,,,,,,,,318,reward,,,,,,1084.3749196999997,1084.3749196999997,1084.3749196999997,1084.3749196999997,0,,,0,,,1,0.0248236999996152,0.3229639999990468,0,,,1085.256820300001,1085.256820300001,1085.256820300001,1085.256820300001,30,A,2024-05-08_11h22.43.121,attentional_competition_task,2022.2.4,143.9781153249283,
positions.xlsx,positions_test.xlsx,positions_test_new.xlsx,stimuli.xlsx,stimuli_new.xlsx,stimuli/Social1.png,stimuli/Social2.png,stimuli/Nonsocial1.png,stimuli/Nonsocial2.png,stimuli/Social3.png,stimuli/Social4.png,stimuli/Nonsocial3.png,stimuli/Nonsocial4.png,,,"(-0.7, -0.5)",cs_neg_ns,"(-0.7, 0.5)",cs_pos_ns,"(0.7, -0.5)",cs_pos_s,"(0.7, 0.5)",cs_neg_s,0,0,0,0,,,,,,,,,,,,,,,,,,,,,1,5,29,16,,,,,,,,,,,,,,,,,,,,,,,,,,,327,reward,,,,,,1092.7773185000005,1092.7773185000005,1092.7773185000005,1092.7773185000005,0,,,0,,,0,,,0,,,1093.5689593000006,1093.5689593000006,1093.5689593000006,1093.5689593000006,30,A,2024-05-08_11h22.43.121,attentional_competition_task,2022.2.4,143.9781153249283,
positions.xlsx,positions_test.xlsx,positions_test_new.xlsx,stimuli.xlsx,stimuli_new.xlsx,stimuli/Social1.png,stimuli/Social2.png,stimuli/Nonsocial1.png,stimuli/Nonsocial2.png,stimuli/Social3.png,stimuli/Social4.png,stimuli/Nonsocial3.png,stimuli/Nonsocial4.png,,,"(-0.7, -0.5)",cs_pos_s,"(-0.7, 0.5)",cs_neg_ns,"(0.7, -0.5)",cs_pos_ns,"(0.7, 0.5)",cs_neg_s,0,0,0,0,,,,,,,,,,,,,,,,,,,,,1,6,30,9,,,,,,,,,,,,,,,,,,,,,,,,,,,336,reward,,,,,,1100.8672559000006,1100.8672559000006,1100.8672559000006,1100.8672559000006,0,,,0,,,1,0.38707029999932274,0.42871109999941837,0,,,1101.7977854,1101.7977854,1101.7977854,1101.7977854,30,A,2024-05-08_11h22.43.121,attentional_competition_task,2022.2.4,143.9781153249283,
positions.xlsx,positions_test.xlsx,positions_test_new.xlsx,stimuli.xlsx,stimuli_new.xlsx,stimuli/Social1.png,stimuli/Social2.png,stimuli/Nonsocial1.png,stimuli/Nonsocial2.png,stimuli/Social3.png,stimuli/Social4.png,stimuli/Nonsocial3.png,stimuli/Nonsocial4.png,,,"(-0.7, -0.5)",cs_neg_s,"(-0.7, 0.5)",cs_pos_s,"(0.7, -0.5)",cs_pos_ns,"(0.7, 0.5)",cs_neg_ns,0,0,0,0,,,,,,,,,,,,,,,,,,,,,1,7,31,1,,,,,,,,,,,,,,,,,,,,,,,,,,,345,reward,,,,,,1109.3599594999996,1109.3599594999996,1109.3599594999996,1109.3599594999996,0,,,0,,,0,,,0,,,1110.2488212999997,1110.2488212999997,1110.2488212999997,1110.2488212999997,30,A,2024-05-08_11h22.43.121,attentional_competition_task,2022.2.4,143.9781153249283,
positions.xlsx,positions_test.xlsx,positions_test_new.xlsx,stimuli.xlsx,stimuli_new.xlsx,stimuli/Social1.png,stimuli/Social2.png,stimuli/Nonsocial1.png,stimuli/Nonsocial2.png,stimuli/Social3.png,stimuli/Social4.png,stimuli/Nonsocial3.png,stimuli/Nonsocial4.png,,,"(-0.7, -0.5)",cs_neg_s,"(-0.7, 0.5)",cs_pos_ns,"(0.7, -0.5)",cs_neg_ns,"(0.7, 0.5)",cs_pos_s,0,0,0,0,,,,,,,,,,,,,,,,,,,,,1,8,32,5,,,,,,,,,,,,,,,,,,,,,,,,,,,348,loss,,,,,,1118.5193708000006,1118.5193708000006,1118.5193708000006,1118.5193708000006,0,,,0,,,1,0.25365550000060466,0.26044569999976375,1,0.027858600000399747,0.24688070000047446,1118.776263400001,1118.776263400001,1118.776263400001,1118.776263400001,30,A,2024-05-08_11h22.43.121,attentional_competition_task,2022.2.4,143.9781153249283,
positions.xlsx,positions_test.xlsx,positions_test_new.xlsx,stimuli.xlsx,stimuli_new.xlsx,stimuli/Social1.png,stimuli/Social2.png,stimuli/Nonsocial1.png,stimuli/Nonsocial2.png,stimuli/Social3.png,stimuli/Social4.png,stimuli/Nonsocial3.png,stimuli/Nonsocial4.png,,,"(-0.7, -0.5)",cs_pos_ns,"(-0.7, 0.5)",cs_neg_s,"(0.7, -0.5)",cs_neg_ns,"(0.7, 0.5)",cs_pos_s,0,0,0,0,,,,,,,,,,,,,,,,,,,,,1,9,33,23,,,,,,,,,,,,,,,,,,,,,,,,,,,357,reward,,,,,,1127.0536726999999,1127.0536726999999,1127.0536726999999,1127.0536726999999,0,,,0,,,0,,,0,,,1127.9008802000008,1127.9008802000008,1127.9008802000008,1127.9008802000008,30,A,2024-05-08_11h22.43.121,attentional_competition_task,2022.2.4,143.9781153249283,
positions.xlsx,positions_test.xlsx,positions_test_new.xlsx,stimuli.xlsx,stimuli_new.xlsx,stimuli/Social1.png,stimuli/Social2.png,stimuli/Nonsocial1.png,stimuli/Nonsocial2.png,stimuli/Social3.png,stimuli/Social4.png,stimuli/Nonsocial3.png,stimuli/Nonsocial4.png,,,"(-0.7, -0.5)",cs_neg_ns,"(-0.7, 0.5)",cs_pos_s,"(0.7, -0.5)",cs_neg_s,"(0.7, 0.5)",cs_pos_ns,0,0,0,0,,,,,,,,,,,,,,,,,,,,,1,10,34,12,,,,,,,,,,,,,,,,,,,,,,,,,,,366,reward,,,,,,1135.4005376000005,1135.4005376000005,1135.4005376000005,1135.4005376000005,0,,,0,,,0,,,0,,,1136.3588607000002,1136.3588607000002,1136.3588607000002,1136.3588607000002,30,A,2024-05-08_11h22.43.121,attentional_competition_task,2022.2.4,143.9781153249283,
positions.xlsx,positions_test.xlsx,positions_test_new.xlsx,stimuli.xlsx,stimuli_new.xlsx,stimuli/Social1.png,stimuli/Social2.png,stimuli/Nonsocial1.png,stimuli/Nonsocial2.png,stimuli/Social3.png,stimuli/Social4.png,stimuli/Nonsocial3.png,stimuli/Nonsocial4.png,,,"(-0.7, -0.5)",cs_pos_ns,"(-0.7, 0.5)",cs_pos_s,"(0.7, -0.5)",cs_neg_s,"(0.7, 0.5)",cs_neg_ns,0,0,0,0,,,,,,,,,,,,,,,,,,,,,1,11,35,19,,,,,,,,,,,,,,,,,,,,,,,,,,,375,reward,,,,,,1144.3654657000006,1144.3654657000006,1144.3654657000006,1144.3654657000006,1,0.021931400000539725,0.18376709999938612,0,,,0,,,0,,,1145.059906800001,1145.059906800001,1145.059906800001,1145.059906800001,30,A,2024-05-08_11h22.43.121,attentional_competition_task,2022.2.4,143.9781153249283,
positions.xlsx,positions_test.xlsx,positions_test_new.xlsx,stimuli.xlsx,stimuli_new.xlsx,stimuli/Social1.png,stimuli/Social2.png,stimuli/Nonsocial1.png,stimuli/Nonsocial2.png,stimuli/Social3.png,stimuli/Social4.png,stimuli/Nonsocial3.png,stimuli/Nonsocial4.png,,,"(-0.7, -0.5)",cs_neg_ns,"(-0.7, 0.5)",cs_pos_s,"(0.7, -0.5)",cs_pos_ns,"(0.7, 0.5)",cs_neg_s,0,0,0,0,,,,,,,,,,,,,,,,,,,,,1,12,36,13,,,,,,,,,,,,,,,,,,,,,,,,,,,384,reward,,,,,,1152.740126300001,1152.740126300001,1152.740126300001,1152.740126300001,0,,,0,,,0,,,0,,,1153.6498033999997,1153.6498033999997,1153.6498033999997,1153.6498033999997,30,A,2024-05-08_11h22.43.121,attentional_competition_task,2022.2.4,143.9781153249283,
positions.xlsx,positions_test.xlsx,positions_test_new.xlsx,stimuli.xlsx,stimuli_new.xlsx,stimuli/Social1.png,stimuli/Social2.png,stimuli/Nonsocial1.png,stimuli/Nonsocial2.png,stimuli/Social3.png,stimuli/Social4.png,stimuli/Nonsocial3.png,stimuli/Nonsocial4.png,,,"(-0.7, -0.5)",cs_pos_ns,"(-0.7, 0.5)",cs_pos_s,"(0.7, -0.5)",cs_neg_ns,"(0.7, 0.5)",cs_neg_s,0,0,0,0,,,,,,,,,,,,,,,,,,,,,1,13,37,18,,,,,,,,,,,,,,,,,,,,,,,,,,,393,reward,,,,,,1160.9689749999998,1160.9689749999998,1160.9689749999998,1160.9689749999998,0,,,1,0.02352950000022247,0.4273026999999274,0,,,0,,,1161.9064161999995,1161.9064161999995,1161.9064161999995,1161.9064161999995,30,A,2024-05-08_11h22.43.121,attentional_competition_task,2022.2.4,143.9781153249283,
positions.xlsx,positions_test.xlsx,positions_test_new.xlsx,stimuli.xlsx,stimuli_new.xlsx,stimuli/Social1.png,stimuli/Social2.png,stimuli/Nonsocial1.png,stimuli/Nonsocial2.png,stimuli/Social3.png,stimuli/Social4.png,stimuli/Nonsocial3.png,stimuli/Nonsocial4.png,,,"(-0.7, -0.5)",cs_neg_ns,"(-0.7, 0.5)",cs_pos_ns,"(0.7, -0.5)",cs_neg_s,"(0.7, 0.5)",cs_pos_s,0,0,0,0,,,,,,,,,,,,,,,,,,,,,1,14,38,17,,,,,,,,,,,,,,,,,,,,,,,,,,,402,reward,,,,,,1169.6630387000005,1169.6630387000005,1169.6630387000005,1169.6630387000005,0,,,0,,,0,,,0,,,1170.6213353000003,1170.6213353000003,1170.6213353000003,1170.6213353000003,30,A,2024-05-08_11h22.43.121,attentional_competition_task,2022.2.4,143.9781153249283,
positions.xlsx,positions_test.xlsx,positions_test_new.xlsx,stimuli.xlsx,stimuli_new.xlsx,stimuli/Social1.png,stimuli/Social2.png,stimuli/Nonsocial1.png,stimuli/Nonsocial2.png,stimuli/Social3.png,stimuli/Social4.png,stimuli/Nonsocial3.png,stimuli/Nonsocial4.png,,,"(-0.7, -0.5)",cs_neg_s,"(-0.7, 0.5)",cs_pos_ns,"(0.7, -0.5)",cs_pos_s,"(0.7, 0.5)",cs_neg_ns,0,0,0,0,,,,,,,,,,,,,,,,,,,,,1,15,39,4,,,,,,,,,,,,,,,,,,,,,,,,,,,411,reward,,,,,,1178.259887600001,1178.259887600001,1178.259887600001,1178.259887600001,0,,,0,,,0,,,0,,,1179.1696294000012,1179.1696294000012,1179.1696294000012,1179.1696294000012,30,A,2024-05-08_11h22.43.121,attentional_competition_task,2022.2.4,143.9781153249283,
positions.xlsx,positions_test.xlsx,positions_test_new.xlsx,stimuli.xlsx,stimuli_new.xlsx,stimuli/Social1.png,stimuli/Social2.png,stimuli/Nonsocial1.png,stimuli/Nonsocial2.png,stimuli/Social3.png,stimuli/Social4.png,stimuli/Nonsocial3.png,stimuli/Nonsocial4.png,,,"(-0.7, -0.5)",cs_neg_s,"(-0.7, 0.5)",cs_neg_ns,"(0.7, -0.5)",cs_pos_ns,"(0.7, 0.5)",cs_pos_s,0,0,0,0,,,,,,,,,,,,,,,,,,,,,1,16,40,3,,,,,,,,,,,,,,,,,,,,,,,,,,,420,reward,,,,,,1187.3220613000012,1187.3220613000012,1187.3220613000012,1187.3220613000012,0,,,0,,,1,0.029289100000823964,0.4105394000016531,0,,,1188.231716100001,1188.231716100001,1188.231716100001,1188.231716100001,30,A,2024-05-08_11h22.43.121,attentional_competition_task,2022.2.4,143.9781153249283,
positions.xlsx,positions_test.xlsx,positions_test_new.xlsx,stimuli.xlsx,stimuli_new.xlsx,stimuli/Social1.png,stimuli/Social2.png,stimuli/Nonsocial1.png,stimuli/Nonsocial2.png,stimuli/Social3.png,stimuli/Social4.png,stimuli/Nonsocial3.png,stimuli/Nonsocial4.png,,,"(-0.7, -0.5)",cs_pos_s,"(-0.7, 0.5)",cs_neg_ns,"(0.7, -0.5)",cs_neg_s,"(0.7, 0.5)",cs_pos_ns,0,0,0,0,,,,,,,,,,,,,,,,,,,,,1,17,41,8,,,,,,,,,,,,,,,,,,,,,,,,,,,429,reward,,,,,,1196.4466444999998,1196.4466444999998,1196.4466444999998,1196.4466444999998,1,0.02423569999882602,0.23279709999951592,0,,,0,,,0,,,1197.189673500001,1197.189673500001,1197.189673500001,1197.189673500001,30,A,2024-05-08_11h22.43.121,attentional_competition_task,2022.2.4,143.9781153249283,
positions.xlsx,positions_test.xlsx,positions_test_new.xlsx,stimuli.xlsx,stimuli_new.xlsx,stimuli/Social1.png,stimuli/Social2.png,stimuli/Nonsocial1.png,stimuli/Nonsocial2.png,stimuli/Social3.png,stimuli/Social4.png,stimuli/Nonsocial3.png,stimuli/Nonsocial4.png,,,"(-0.7, -0.5)",cs_pos_s,"(-0.7, 0.5)",cs_pos_ns,"(0.7, -0.5)",cs_neg_s,"(0.7, 0.5)",cs_neg_ns,0,0,0,0,,,,,,,,,,,,,,,,,,,,,1,18,42,10,,,,,,,,,,,,,,,,,,,,,,,,,,,438,reward,,,,,,1205.0296498999996,1205.0296498999996,1205.0296498999996,1205.0296498999996,1,0.021725799999330775,0.42725009999958274,0,,,0,,,0,,,1205.9670970999996,1205.9670970999996,1205.9670970999996,1205.9670970999996,30,A,2024-05-08_11h22.43.121,attentional_competition_task,2022.2.4,143.9781153249283,
positions.xlsx,positions_test.xlsx,positions_test_new.xlsx,stimuli.xlsx,stimuli_new.xlsx,stimuli/Social1.png,stimuli/Social2.png,stimuli/Nonsocial1.png,stimuli/Nonsocial2.png,stimuli/Social3.png,stimuli/Social4.png,stimuli/Nonsocial3.png,stimuli/Nonsocial4.png,,,"(-0.7, -0.5)",cs_neg_s,"(-0.7, 0.5)",cs_pos_s,"(0.7, -0.5)",cs_neg_ns,"(0.7, 0.5)",cs_pos_ns,0,0,0,0,,,,,,,,,,,,,,,,,,,,,1,19,43,0,,,,,,,,,,,,,,,,,,,,,,,,,,,441,loss,,,,,,1213.8417676999998,1213.8417676999998,1213.8417676999998,1213.8417676999998,0,,,0,,,0,,,0,,,1213.8834382000005,1213.8834382000005,1213.8834382000005,1213.8834382000005,30,A,2024-05-08_11h22.43.121,attentional_competition_task,2022.2.4,143.9781153249283,
positions.xlsx,positions_test.xlsx,positions_test_new.xlsx,stimuli.xlsx,stimuli_new.xlsx,stimuli/Social1.png,stimuli/Social2.png,stimuli/Nonsocial1.png,stimuli/Nonsocial2.png,stimuli/Social3.png,stimuli/Social4.png,stimuli/Nonsocial3.png,stimuli/Nonsocial4.png,,,"(-0.7, -0.5)",cs_pos_ns,"(-0.7, 0.5)",cs_neg_ns,"(0.7, -0.5)",cs_pos_s,"(0.7, 0.5)",cs_neg_s,0,0,0,0,,,,,,,,,,,,,,,,,,,,,1,20,44,20,,,,,,,,,,,,,,,,,,,,,,,,,,,444,reward,,,,,,1222.1331222999997,1222.1331222999997,1222.1331222999997,1222.1331222999997,0,,,0,,,1,0.024471800001265365,0.02447580000080052,0,,,1222.1331222999997,1222.1331222999997,1222.1331222999997,1222.1331222999997,30,A,2024-05-08_11h22.43.121,attentional_competition_task,2022.2.4,143.9781153249283,
positions.xlsx,positions_test.xlsx,positions_test_new.xlsx,stimuli.xlsx,stimuli_new.xlsx,stimuli/Social1.png,stimuli/Social2.png,stimuli/Nonsocial1.png,stimuli/Nonsocial2.png,stimuli/Social3.png,stimuli/Social4.png,stimuli/Nonsocial3.png,stimuli/Nonsocial4.png,,,"(-0.7, -0.5)",cs_pos_s,"(-0.7, 0.5)",cs_neg_s,"(0.7, -0.5)",cs_neg_ns,"(0.7, 0.5)",cs_pos_ns,0,0,0,0,,,,,,,,,,,,,,,,,,,,,1,21,45,6,,,,,,,,,,,,,,,,,,,,,,,,,,,453,reward,,,,,,1229.9522285000003,1229.9522285000003,1229.9522285000003,1229.9522285000003,1,0.025703900000735302,0.15775890000077197,0,,,0,,,0,,,1230.9730376000007,1230.9730376000007,1230.9730376000007,1230.9730376000007,30,A,2024-05-08_11h22.43.121,attentional_competition_task,2022.2.4,143.9781153249283,
positions.xlsx,positions_test.xlsx,positions_test_new.xlsx,stimuli.xlsx,stimuli_new.xlsx,stimuli/Social1.png,stimuli/Social2.png,stimuli/Nonsocial1.png,stimuli/Nonsocial2.png,stimuli/Social3.png,stimuli/Social4.png,stimuli/Nonsocial3.png,stimuli/Nonsocial4.png,,,"(-0.7, -0.5)",cs_neg_ns,"(-0.7, 0.5)",cs_neg_s,"(0.7, -0.5)",cs_pos_ns,"(0.7, 0.5)",cs_pos_s,0,0,0,0,,,,,,,,,,,,,,,,,,,,,1,22,46,15,,,,,,,,,,,,,,,,,,,,,,,,,,,462,reward,,,,,,1238.3338158000006,1238.3338158000006,1238.3338158000006,1238.3338158000006,0,,,0,,,0,,,0,,,1239.0629718,1239.0629718,1239.0629718,1239.0629718,30,A,2024-05-08_11h22.43.121,attentional_competition_task,2022.2.4,143.9781153249283,
positions.xlsx,positions_test.xlsx,positions_test_new.xlsx,stimuli.xlsx,stimuli_new.xlsx,stimuli/Social1.png,stimuli/Social2.png,stimuli/Nonsocial1.png,stimuli/Nonsocial2.png,stimuli/Social3.png,stimuli/Social4.png,stimuli/Nonsocial3.png,stimuli/Nonsocial4.png,,,"(-0.7, -0.5)",cs_neg_ns,"(-0.7, 0.5)",cs_neg_s,"(0.7, -0.5)",cs_pos_s,"(0.7, 0.5)",cs_pos_ns,0,0,0,0,,,,,,,,,,,,,,,,,,,,,1,23,47,14,,,,,,,,,,,,,,,,,,,,,,,,,,,471,reward,,,,,,1247.3959396999999,1247.3959396999999,1247.3959396999999,1247.3959396999999,0,,,0,,,0,,,0,,,1248.1945194,1248.1945194,1248.1945194,1248.1945194,30,A,2024-05-08_11h22.43.121,attentional_competition_task,2022.2.4,143.9781153249283,
positions.xlsx,positions_test.xlsx,positions_test_new.xlsx,stimuli.xlsx,stimuli_new.xlsx,stimuli/Social1.png,stimuli/Social2.png,stimuli/Nonsocial1.png,stimuli/Nonsocial2.png,stimuli/Social3.png,stimuli/Social4.png,stimuli/Nonsocial3.png,stimuli/Nonsocial4.png,,,"(-0.7, -0.5)",cs_pos_s,"(-0.7, 0.5)",cs_pos_ns,"(0.7, -0.5)",cs_neg_ns,"(0.7, 0.5)",cs_neg_s,0,0,0,0,,,,,,,,,,,,,,,,,,,,,,,,,,,,,0,0,0,7,0,0,0,0,,,,,,,,,,,,,,,474,reward,,,,,,1253.6039906999995,1253.6039906999995,1253.6039906999995,1253.6039906999995,0,,,1,0.4953778999988572,0.4953819000002113,0,,,0,,,1254.1109077,1254.1109077,1254.1109077,1254.1109077,30,A,2024-05-08_11h22.43.121,attentional_competition_task,2022.2.4,143.9781153249283,
positions.xlsx,positions_test.xlsx,positions_test_new.xlsx,stimuli.xlsx,stimuli_new.xlsx,stimuli/Social1.png,stimuli/Social2.png,stimuli/Nonsocial1.png,stimuli/Nonsocial2.png,stimuli/Social3.png,stimuli/Social4.png,stimuli/Nonsocial3.png,stimuli/Nonsocial4.png,,,"(-0.7, -0.5)",cs_pos_s,"(-0.7, 0.5)",cs_pos_ns,"(0.7, -0.5)",cs_neg_ns,"(0.7, 0.5)",cs_neg_s,0,0,0,0,,,,,,,,,,,,,,,,,,,,,,,,,,,,,0,0,0,7,1,0,1,0,,,,,,,,,,,,,,,477,reward,,,,,,1254.6386825999998,1254.6386825999998,1254.6386825999998,1254.6386825999998,1,0.02808809999987716,0.028091899999708403,0,,,0,,,0,,,1254.6386825999998,1254.6386825999998,1254.6386825999998,1254.6386825999998,30,A,2024-05-08_11h22.43.121,attentional_competition_task,2022.2.4,143.9781153249283,
positions.xlsx,positions_test.xlsx,positions_test_new.xlsx,stimuli.xlsx,stimuli_new.xlsx,stimuli/Social1.png,stimuli/Social2.png,stimuli/Nonsocial1.png,stimuli/Nonsocial2.png,stimuli/Social3.png,stimuli/Social4.png,stimuli/Nonsocial3.png,stimuli/Nonsocial4.png,,,"(-0.7, -0.5)",cs_pos_s,"(-0.7, 0.5)",cs_pos_ns,"(0.7, -0.5)",cs_neg_ns,"(0.7, 0.5)",cs_neg_s,0,0,0,0,,,,,,,,,,,,,,,,,,,,,,,,,,,,,0,0,0,7,2,0,2,0,,,,,,,,,,,,,,,480,reward,,,,,,1255.1456677999995,1255.1456677999995,1255.1456677999995,1255.1456677999995,0,,,0,,,0,,,0,,,1256.1247426999998,1256.1247426999998,1256.1247426999998,1256.1247426999998,30,A,2024-05-08_11h22.43.121,attentional_competition_task,2022.2.4,143.9781153249283,
positions.xlsx,positions_test.xlsx,positions_test_new.xlsx,stimuli.xlsx,stimuli_new.xlsx,stimuli/Social1.png,stimuli/Social2.png,stimuli/Nonsocial1.png,stimuli/Nonsocial2.png,stimuli/Social3.png,stimuli/Social4.png,stimuli/Nonsocial3.png,stimuli/Nonsocial4.png,,,"(-0.7, -0.5)",cs_pos_s,"(-0.7, 0.5)",cs_pos_ns,"(0.7, -0.5)",cs_neg_ns,"(0.7, 0.5)",cs_neg_s,0,0,0,0,,,,,,,,,,,,,,,,,,,,,,,,,,,,,0,0,0,7,,,,,,,,,,,,,,,,,,,,,,,,,,,,,,,,,,,,,,,,,,,,,,30,A,2024-05-08_11h22.43.121,attentional_competition_task,2022.2.4,143.9781153249283,
positions.xlsx,positions_test.xlsx,positions_test_new.xlsx,stimuli.xlsx,stimuli_new.xlsx,stimuli/Social1.png,stimuli/Social2.png,stimuli/Nonsocial1.png,stimuli/Nonsocial2.png,stimuli/Social3.png,stimuli/Social4.png,stimuli/Nonsocial3.png,stimuli/Nonsocial4.png,,,"(-0.7, -0.5)",cs_neg_s_new,"(-0.7, 0.5)",cs_pos_ns,"(0.7, -0.5)",cs_neg_ns,"(0.7, 0.5)",cs_pos_s,0,0,0,0,,,,,,,,,,,,,,,,,,,,,,,,,,,,,0,1,1,15,0,0,0,0,,,,,,,,,,,,,,,483,reward,,,,,,1262.1522478000006,1262.1522478000006,1262.1522478000006,1262.1522478000006,0,,,0,,,0,,,1,0.46069619999980205,0.4606999999996333,1262.617529000001,1262.617529000001,1262.617529000001,1262.617529000001,30,A,2024-05-08_11h22.43.121,attentional_competition_task,2022.2.4,143.9781153249283,
positions.xlsx,positions_test.xlsx,positions_test_new.xlsx,stimuli.xlsx,stimuli_new.xlsx,stimuli/Social1.png,stimuli/Social2.png,stimuli/Nonsocial1.png,stimuli/Nonsocial2.png,stimuli/Social3.png,stimuli/Social4.png,stimuli/Nonsocial3.png,stimuli/Nonsocial4.png,,,"(-0.7, -0.5)",cs_neg_s_new,"(-0.7, 0.5)",cs_pos_ns,"(0.7, -0.5)",cs_neg_ns,"(0.7, 0.5)",cs_pos_s,0,0,0,0,,,,,,,,,,,,,,,,,,,,,,,,,,,,,0,1,1,15,1,0,1,0,,,,,,,,,,,,,,,486,reward,,,,,,1263.1244242000012,1263.1244242000012,1263.1244242000012,1263.1244242000012,0,,,1,0.05878779999875405,0.05879149999964284,0,,,0,,,1263.186918200001,1263.186918200001,1263.186918200001,1263.186918200001,30,A,2024-05-08_11h22.43.121,attentional_competition_task,2022.2.4,143.9781153249283,
positions.xlsx,positions_test.xlsx,positions_test_new.xlsx,stimuli.xlsx,stimuli_new.xlsx,stimuli/Social1.png,stimuli/Social2.png,stimuli/Nonsocial1.png,stimuli/Nonsocial2.png,stimuli/Social3.png,stimuli/Social4.png,stimuli/Nonsocial3.png,stimuli/Nonsocial4.png,,,"(-0.7, -0.5)",cs_neg_s_new,"(-0.7, 0.5)",cs_pos_ns,"(0.7, -0.5)",cs_neg_ns,"(0.7, 0.5)",cs_pos_s,0,0,0,0,,,,,,,,,,,,,,,,,,,,,,,,,,,,,0,1,1,15,2,0,2,0,,,,,,,,,,,,,,,489,reward,,,,,,1263.6869137000012,1263.6869137000012,1263.6869137000012,1263.6869137000012,0,,,1,0.03142579999985173,0.4804241000001639,0,,,0,,,1264.6660700000011,1264.6660700000011,1264.6660700000011,1264.6660700000011,30,A,2024-05-08_11h22.43.121,attentional_competition_task,2022.2.4,143.9781153249283,
positions.xlsx,positions_test.xlsx,positions_test_new.xlsx,stimuli.xlsx,stimuli_new.xlsx,stimuli/Social1.png,stimuli/Social2.png,stimuli/Nonsocial1.png,stimuli/Nonsocial2.png,stimuli/Social3.png,stimuli/Social4.png,stimuli/Nonsocial3.png,stimuli/Nonsocial4.png,,,"(-0.7, -0.5)",cs_neg_s_new,"(-0.7, 0.5)",cs_pos_ns,"(0.7, -0.5)",cs_neg_ns,"(0.7, 0.5)",cs_pos_s,0,0,0,0,,,,,,,,,,,,,,,,,,,,,,,,,,,,,0,1,1,15,,,,,,,,,,,,,,,,,,,,,,,,,,,,,,,,,,,,,,,,,,,,,,30,A,2024-05-08_11h22.43.121,attentional_competition_task,2022.2.4,143.9781153249283,
positions.xlsx,positions_test.xlsx,positions_test_new.xlsx,stimuli.xlsx,stimuli_new.xlsx,stimuli/Social1.png,stimuli/Social2.png,stimuli/Nonsocial1.png,stimuli/Nonsocial2.png,stimuli/Social3.png,stimuli/Social4.png,stimuli/Nonsocial3.png,stimuli/Nonsocial4.png,,,"(-0.7, -0.5)",cs_pos_s,"(-0.7, 0.5)",cs_neg_ns,"(0.7, -0.5)",cs_neg_s,"(0.7, 0.5)",cs_pos_ns_new,0,0,0,0,,,,,,,,,,,,,,,,,,,,,,,,,,,,,0,2,2,39,0,0,0,0,,,,,,,,,,,,,,,492,reward,,,,,,1270.3394291000004,1270.3394291000004,1270.3394291000004,1270.3394291000004,0,,,0,,,0,,,1,0.5786325999997644,0.5786364000014146,1270.92972,1270.92972,1270.92972,1270.92972,30,A,2024-05-08_11h22.43.121,attentional_competition_task,2022.2.4,143.9781153249283,
positions.xlsx,positions_test.xlsx,positions_test_new.xlsx,stimuli.xlsx,stimuli_new.xlsx,stimuli/Social1.png,stimuli/Social2.png,stimuli/Nonsocial1.png,stimuli/Nonsocial2.png,stimuli/Social3.png,stimuli/Social4.png,stimuli/Nonsocial3.png,stimuli/Nonsocial4.png,,,"(-0.7, -0.5)",cs_pos_s,"(-0.7, 0.5)",cs_neg_ns,"(0.7, -0.5)",cs_neg_s,"(0.7, 0.5)",cs_pos_ns_new,0,0,0,0,,,,,,,,,,,,,,,,,,,,,,,,,,,,,0,2,2,39,1,0,1,0,,,,,,,,,,,,,,,495,reward,,,,,,1271.4574833000006,1271.4574833000006,1271.4574833000006,1271.4574833000006,1,0.023770499999955064,0.02377829999932146,0,,,0,,,0,,,1271.4574833000006,1271.4574833000006,1271.4574833000006,1271.4574833000006,30,A,2024-05-08_11h22.43.121,attentional_competition_task,2022.2.4,143.9781153249283,
positions.xlsx,positions_test.xlsx,positions_test_new.xlsx,stimuli.xlsx,stimuli_new.xlsx,stimuli/Social1.png,stimuli/Social2.png,stimuli/Nonsocial1.png,stimuli/Nonsocial2.png,stimuli/Social3.png,stimuli/Social4.png,stimuli/Nonsocial3.png,stimuli/Nonsocial4.png,,,"(-0.7, -0.5)",cs_pos_s,"(-0.7, 0.5)",cs_neg_ns,"(0.7, -0.5)",cs_neg_s,"(0.7, 0.5)",cs_pos_ns_new,0,0,0,0,,,,,,,,,,,,,,,,,,,,,,,,,,,,,0,2,2,39,2,0,2,0,,,,,,,,,,,,,,,498,reward,,,,,,1271.9573957000011,1271.9573957000011,1271.9573957000011,1271.9573957000011,0,,,0,,,0,,,1,0.028722999999445165,0.39836040000045614,1272.853260400001,1272.853260400001,1272.853260400001,1272.853260400001,30,A,2024-05-08_11h22.43.121,attentional_competition_task,2022.2.4,143.9781153249283,
positions.xlsx,positions_test.xlsx,positions_test_new.xlsx,stimuli.xlsx,stimuli_new.xlsx,stimuli/Social1.png,stimuli/Social2.png,stimuli/Nonsocial1.png,stimuli/Nonsocial2.png,stimuli/Social3.png,stimuli/Social4.png,stimuli/Nonsocial3.png,stimuli/Nonsocial4.png,,,"(-0.7, -0.5)",cs_pos_s,"(-0.7, 0.5)",cs_neg_ns,"(0.7, -0.5)",cs_neg_s,"(0.7, 0.5)",cs_pos_ns_new,0,0,0,0,,,,,,,,,,,,,,,,,,,,,,,,,,,,,0,2,2,39,,,,,,,,,,,,,,,,,,,,,,,,,,,,,,,,,,,,,,,,,,,,,,30,A,2024-05-08_11h22.43.121,attentional_competition_task,2022.2.4,143.9781153249283,
positions.xlsx,positions_test.xlsx,positions_test_new.xlsx,stimuli.xlsx,stimuli_new.xlsx,stimuli/Social1.png,stimuli/Social2.png,stimuli/Nonsocial1.png,stimuli/Nonsocial2.png,stimuli/Social3.png,stimuli/Social4.png,stimuli/Nonsocial3.png,stimuli/Nonsocial4.png,,,"(-0.7, -0.5)",cs_pos_ns,"(-0.7, 0.5)",cs_neg_s,"(0.7, -0.5)",cs_neg_ns,"(0.7, 0.5)",cs_pos_s,0,0,0,0,,,,,,,,,,,,,,,,,,,,,,,,,,,,,0,3,3,3,0,0,0,0,,,,,,,,,,,,,,,501,reward,,,,,,1278.9571352000003,1278.9571352000003,1278.9571352000003,1278.9571352000003,0,,,0,,,0,,,1,0.46783789999972214,0.46784179999849584,1279.4293373,1279.4293373,1279.4293373,1279.4293373,30,A,2024-05-08_11h22.43.121,attentional_competition_task,2022.2.4,143.9781153249283,
positions.xlsx,positions_test.xlsx,positions_test_new.xlsx,stimuli.xlsx,stimuli_new.xlsx,stimuli/Social1.png,stimuli/Social2.png,stimuli/Nonsocial1.png,stimuli/Nonsocial2.png,stimuli/Social3.png,stimuli/Social4.png,stimuli/Nonsocial3.png,stimuli/Nonsocial4.png,,,"(-0.7, -0.5)",cs_pos_ns,"(-0.7, 0.5)",cs_neg_s,"(0.7, -0.5)",cs_neg_ns,"(0.7, 0.5)",cs_pos_s,0,0,0,0,,,,,,,,,,,,,,,,,,,,,,,,,,,,,0,3,3,3,1,0,1,0,,,,,,,,,,,,,,,504,reward,,,,,,1279.9570971000012,1279.9570971000012,1279.9570971000012,1279.9570971000012,1,0.02872679999927641,0.028730399999403744,0,,,0,,,0,,,1279.9570971000012,1279.9570971000012,1279.9570971000012,1279.9570971000012,30,A,2024-05-08_11h22.43.121,attentional_competition_task,2022.2.4,143.9781153249283,
positions.xlsx,positions_test.xlsx,positions_test_new.xlsx,stimuli.xlsx,stimuli_new.xlsx,stimuli/Social1.png,stimuli/Social2.png,stimuli/Nonsocial1.png,stimuli/Nonsocial2.png,stimuli/Social3.png,stimuli/Social4.png,stimuli/Nonsocial3.png,stimuli/Nonsocial4.png,,,"(-0.7, -0.5)",cs_pos_ns,"(-0.7, 0.5)",cs_neg_s,"(0.7, -0.5)",cs_neg_ns,"(0.7, 0.5)",cs_pos_s,0,0,0,0,,,,,,,,,,,,,,,,,,,,,,,,,,,,,0,3,3,3,2,0,2,0,,,,,,,,,,,,,,,507,reward,,,,,,1280.4570467000012,1280.4570467000012,1280.4570467000012,1280.4570467000012,1,0.024544299998524366,0.37945099999888043,0,,,0,,,0,,,1281.4709284,1281.4709284,1281.4709284,1281.4709284,30,A,2024-05-08_11h22.43.121,attentional_competition_task,2022.2.4,143.9781153249283,
positions.xlsx,positions_test.xlsx,positions_test_new.xlsx,stimuli.xlsx,stimuli_new.xlsx,stimuli/Social1.png,stimuli/Social2.png,stimuli/Nonsocial1.png,stimuli/Nonsocial2.png,stimuli/Social3.png,stimuli/Social4.png,stimuli/Nonsocial3.png,stimuli/Nonsocial4.png,,,"(-0.7, -0.5)",cs_pos_ns,"(-0.7, 0.5)",cs_neg_s,"(0.7, -0.5)",cs_neg_ns,"(0.7, 0.5)",cs_pos_s,0,0,0,0,,,,,,,,,,,,,,,,,,,,,,,,,,,,,0,3,3,3,,,,,,,,,,,,,,,,,,,,,,,,,,,,,,,,,,,,,,,,,,,,,,30,A,2024-05-08_11h22.43.121,attentional_competition_task,2022.2.4,143.9781153249283,
positions.xlsx,positions_test.xlsx,positions_test_new.xlsx,stimuli.xlsx,stimuli_new.xlsx,stimuli/Social1.png,stimuli/Social2.png,stimuli/Nonsocial1.png,stimuli/Nonsocial2.png,stimuli/Social3.png,stimuli/Social4.png,stimuli/Nonsocial3.png,stimuli/Nonsocial4.png,,,"(-0.7, -0.5)",cs_neg_s,"(-0.7, 0.5)",cs_pos_ns,"(0.7, -0.5)",cs_neg_ns,"(0.7, 0.5)",cs_pos_s_new,0,0,0,0,,,,,,,,,,,,,,,,,,,,,,,,,,,,,0,4,4,34,0,0,0,0,,,,,,,,,,,,,,,510,reward,,,,,,1287.0679399,1287.0679399,1287.0679399,1287.0679399,0,,,0,,,0,,,1,0.3788280000007944,0.3788322000000335,1287.4498512999999,1287.4498512999999,1287.4498512999999,1287.4498512999999,30,A,2024-05-08_11h22.43.121,attentional_competition_task,2022.2.4,143.9781153249283,
positions.xlsx,positions_test.xlsx,positions_test_new.xlsx,stimuli.xlsx,stimuli_new.xlsx,stimuli/Social1.png,stimuli/Social2.png,stimuli/Nonsocial1.png,stimuli/Nonsocial2.png,stimuli/Social3.png,stimuli/Social4.png,stimuli/Nonsocial3.png,stimuli/Nonsocial4.png,,,"(-0.7, -0.5)",cs_neg_s,"(-0.7, 0.5)",cs_pos_ns,"(0.7, -0.5)",cs_neg_ns,"(0.7, 0.5)",cs_pos_s_new,0,0,0,0,,,,,,,,,,,,,,,,,,,,,,,,,,,,,0,4,4,34,1,0,1,0,,,,,,,,,,,,,,,513,reward,,,,,,1287.9915767000002,1287.9915767000002,1287.9915767000002,1287.9915767000002,0,,,1,0.03341379999983474,0.03341759999966598,0,,,0,,,1287.9915767000002,1287.9915767000002,1287.9915767000002,1287.9915767000002,30,A,2024-05-08_11h22.43.121,attentional_competition_task,2022.2.4,143.9781153249283,
positions.xlsx,positions_test.xlsx,positions_test_new.xlsx,stimuli.xlsx,stimuli_new.xlsx,stimuli/Social1.png,stimuli/Social2.png,stimuli/Nonsocial1.png,stimuli/Nonsocial2.png,stimuli/Social3.png,stimuli/Social4.png,stimuli/Nonsocial3.png,stimuli/Nonsocial4.png,,,"(-0.7, -0.5)",cs_neg_s,"(-0.7, 0.5)",cs_pos_ns,"(0.7, -0.5)",cs_neg_ns,"(0.7, 0.5)",cs_pos_s_new,0,0,0,0,,,,,,,,,,,,,,,,,,,,,,,,,,,,,0,4,4,34,2,0,2,0,,,,,,,,,,,,,,,510,loss,,,,,,1288.5123015999998,1288.5123015999998,1288.5123015999998,1288.5123015999998,1,0.02377100000012433,0.023774699999194127,0,,,0,,,0,,,1288.5123015999998,1288.5123015999998,1288.5123015999998,1288.5123015999998,30,A,2024-05-08_11h22.43.121,attentional_competition_task,2022.2.4,143.9781153249283,
positions.xlsx,positions_test.xlsx,positions_test_new.xlsx,stimuli.xlsx,stimuli_new.xlsx,stimuli/Social1.png,stimuli/Social2.png,stimuli/Nonsocial1.png,stimuli/Nonsocial2.png,stimuli/Social3.png,stimuli/Social4.png,stimuli/Nonsocial3.png,stimuli/Nonsocial4.png,,,"(-0.7, -0.5)",cs_neg_s,"(-0.7, 0.5)",cs_pos_ns,"(0.7, -0.5)",cs_neg_ns,"(0.7, 0.5)",cs_pos_s_new,0,0,0,0,,,,,,,,,,,,,,,,,,,,,,,,,,,,,0,4,4,34,3,0,3,0,,,,,,,,,,,,,,,507,loss,,,,,,1289.0122494000007,1289.0122494000007,1289.0122494000007,1289.0122494000007,0,,,0,,,0,,,0,,,1289.5748015999998,1289.5748015999998,1289.5748015999998,1289.5748015999998,30,A,2024-05-08_11h22.43.121,attentional_competition_task,2022.2.4,143.9781153249283,
positions.xlsx,positions_test.xlsx,positions_test_new.xlsx,stimuli.xlsx,stimuli_new.xlsx,stimuli/Social1.png,stimuli/Social2.png,stimuli/Nonsocial1.png,stimuli/Nonsocial2.png,stimuli/Social3.png,stimuli/Social4.png,stimuli/Nonsocial3.png,stimuli/Nonsocial4.png,,,"(-0.7, -0.5)",cs_neg_s,"(-0.7, 0.5)",cs_pos_ns,"(0.7, -0.5)",cs_neg_ns,"(0.7, 0.5)",cs_pos_s_new,0,0,0,0,,,,,,,,,,,,,,,,,,,,,,,,,,,,,0,4,4,34,,,,,,,,,,,,,,,,,,,,,,,,,,,,,,,,,,,,,,,,,,,,,,30,A,2024-05-08_11h22.43.121,attentional_competition_task,2022.2.4,143.9781153249283,
positions.xlsx,positions_test.xlsx,positions_test_new.xlsx,stimuli.xlsx,stimuli_new.xlsx,stimuli/Social1.png,stimuli/Social2.png,stimuli/Nonsocial1.png,stimuli/Nonsocial2.png,stimuli/Social3.png,stimuli/Social4.png,stimuli/Nonsocial3.png,stimuli/Nonsocial4.png,,,"(-0.7, -0.5)",cs_pos_s,"(-0.7, 0.5)",cs_neg_s,"(0.7, -0.5)",cs_pos_ns,"(0.7, 0.5)",cs_neg_ns_new,0,0,0,0,,,,,,,,,,,,,,,,,,,,,,,,,,,,,0,5,5,27,0,0,0,0,,,,,,,,,,,,,,,510,reward,,,,,,1295.4911653,1295.4911653,1295.4911653,1295.4911653,1,0.8278721000006044,0.834907899999962,0,,,0,,,0,,,1296.3313873000006,1296.3313873000006,1296.3313873000006,1296.3313873000006,30,A,2024-05-08_11h22.43.121,attentional_competition_task,2022.2.4,143.9781153249283,
positions.xlsx,positions_test.xlsx,positions_test_new.xlsx,stimuli.xlsx,stimuli_new.xlsx,stimuli/Social1.png,stimuli/Social2.png,stimuli/Nonsocial1.png,stimuli/Nonsocial2.png,stimuli/Social3.png,stimuli/Social4.png,stimuli/Nonsocial3.png,stimuli/Nonsocial4.png,,,"(-0.7, -0.5)",cs_pos_s,"(-0.7, 0.5)",cs_neg_s,"(0.7, -0.5)",cs_pos_ns,"(0.7, 0.5)",cs_neg_ns_new,0,0,0,0,,,,,,,,,,,,,,,,,,,,,,,,,,,,,0,5,5,27,1,0,1,0,,,,,,,,,,,,,,,513,reward,,,,,,1296.8244336000007,1296.8244336000007,1296.8244336000007,1296.8244336000007,1,0.022045899999284302,0.34301699999923585,0,,,1,0.42755169999873033,0.42755529999885766,0,,,1297.2619897000004,1297.2619897000004,1297.2619897000004,1297.2619897000004,30,A,2024-05-08_11h22.43.121,attentional_competition_task,2022.2.4,143.9781153249283,
positions.xlsx,positions_test.xlsx,positions_test_new.xlsx,stimuli.xlsx,stimuli_new.xlsx,stimuli/Social1.png,stimuli/Social2.png,stimuli/Nonsocial1.png,stimuli/Nonsocial2.png,stimuli/Social3.png,stimuli/Social4.png,stimuli/Nonsocial3.png,stimuli/Nonsocial4.png,,,"(-0.7, -0.5)",cs_pos_s,"(-0.7, 0.5)",cs_neg_s,"(0.7, -0.5)",cs_pos_ns,"(0.7, 0.5)",cs_neg_ns_new,0,0,0,0,,,,,,,,,,,,,,,,,,,,,,,,,,,,,0,5,5,27,,,,,,,,,,,,,,,,,,,,,,,,,,,,,,,,,,,,,,,,,,,,,,30,A,2024-05-08_11h22.43.121,attentional_competition_task,2022.2.4,143.9781153249283,
positions.xlsx,positions_test.xlsx,positions_test_new.xlsx,stimuli.xlsx,stimuli_new.xlsx,stimuli/Social1.png,stimuli/Social2.png,stimuli/Nonsocial1.png,stimuli/Nonsocial2.png,stimuli/Social3.png,stimuli/Social4.png,stimuli/Nonsocial3.png,stimuli/Nonsocial4.png,,,"(-0.7, -0.5)",cs_neg_ns_new,"(-0.7, 0.5)",cs_pos_ns,"(0.7, -0.5)",cs_neg_s,"(0.7, 0.5)",cs_pos_s,0,0,0,0,,,,,,,,,,,,,,,,,,,,,,,,,,,,,0,6,6,23,0,0,0,0,,,,,,,,,,,,,,,516,reward,,,,,,1303.7685837000008,1303.7685837000008,1303.7685837000008,1303.7685837000008,0,,,1,1.1760729999987234,1.1820493999985047,0,,,0,,,1304.9560712000002,1304.9560712000002,1304.9560712000002,1304.9560712000002,30,A,2024-05-08_11h22.43.121,attentional_competition_task,2022.2.4,143.9781153249283,
positions.xlsx,positions_test.xlsx,positions_test_new.xlsx,stimuli.xlsx,stimuli_new.xlsx,stimuli/Social1.png,stimuli/Social2.png,stimuli/Nonsocial1.png,stimuli/Nonsocial2.png,stimuli/Social3.png,stimuli/Social4.png,stimuli/Nonsocial3.png,stimuli/Nonsocial4.png,,,"(-0.7, -0.5)",cs_neg_ns_new,"(-0.7, 0.5)",cs_pos_ns,"(0.7, -0.5)",cs_neg_s,"(0.7, 0.5)",cs_pos_s,0,0,0,0,,,,,,,,,,,,,,,,,,,,,,,,,,,,,0,6,6,23,1,0,1,0,,,,,,,,,,,,,,,519,reward,,,,,,1305.4490962,1305.4490962,1305.4490962,1305.4490962,0,,,1,0.022035399999367655,0.30871529999967606,0,,,0,,,1306.282389,1306.282389,1306.282389,1306.282389,30,A,2024-05-08_11h22.43.121,attentional_competition_task,2022.2.4,143.9781153249283,
positions.xlsx,positions_test.xlsx,positions_test_new.xlsx,stimuli.xlsx,stimuli_new.xlsx,stimuli/Social1.png,stimuli/Social2.png,stimuli/Nonsocial1.png,stimuli/Nonsocial2.png,stimuli/Social3.png,stimuli/Social4.png,stimuli/Nonsocial3.png,stimuli/Nonsocial4.png,,,"(-0.7, -0.5)",cs_neg_ns_new,"(-0.7, 0.5)",cs_pos_ns,"(0.7, -0.5)",cs_neg_s,"(0.7, 0.5)",cs_pos_s,0,0,0,0,,,,,,,,,,,,,,,,,,,,,,,,,,,,,0,6,6,23,,,,,,,,,,,,,,,,,,,,,,,,,,,,,,,,,,,,,,,,,,,,,,30,A,2024-05-08_11h22.43.121,attentional_competition_task,2022.2.4,143.9781153249283,
positions.xlsx,positions_test.xlsx,positions_test_new.xlsx,stimuli.xlsx,stimuli_new.xlsx,stimuli/Social1.png,stimuli/Social2.png,stimuli/Nonsocial1.png,stimuli/Nonsocial2.png,stimuli/Social3.png,stimuli/Social4.png,stimuli/Nonsocial3.png,stimuli/Nonsocial4.png,,,"(-0.7, -0.5)",cs_pos_ns,"(-0.7, 0.5)",cs_neg_s,"(0.7, -0.5)",cs_pos_s,"(0.7, 0.5)",cs_neg_ns,0,0,0,0,,,,,,,,,,,,,,,,,,,,,,,,,,,,,0,7,7,1,0,0,0,0,,,,,,,,,,,,,,,522,reward,,,,,,1312.3237869000004,1312.3237869000004,1312.3237869000004,1312.3237869000004,1,0.6679952000013145,0.6747970000014902,0,,,0,,,0,,,1313.004344500001,1313.004344500001,1313.004344500001,1313.004344500001,30,A,2024-05-08_11h22.43.121,attentional_competition_task,2022.2.4,143.9781153249283,
positions.xlsx,positions_test.xlsx,positions_test_new.xlsx,stimuli.xlsx,stimuli_new.xlsx,stimuli/Social1.png,stimuli/Social2.png,stimuli/Nonsocial1.png,stimuli/Nonsocial2.png,stimuli/Social3.png,stimuli/Social4.png,stimuli/Nonsocial3.png,stimuli/Nonsocial4.png,,,"(-0.7, -0.5)",cs_pos_ns,"(-0.7, 0.5)",cs_neg_s,"(0.7, -0.5)",cs_pos_s,"(0.7, 0.5)",cs_neg_ns,0,0,0,0,,,,,,,,,,,,,,,,,,,,,,,,,,,,,0,7,7,1,1,0,1,0,,,,,,,,,,,,,,,525,reward,,,,,,1313.511258300001,1313.511258300001,1313.511258300001,1313.511258300001,1,0.030513300000166055,0.3354982000000746,0,,,1,0.4124503000002733,0.41245400000116206,0,,,1313.920962600001,1313.920962600001,1313.920962600001,1313.920962600001,30,A,2024-05-08_11h22.43.121,attentional_competition_task,2022.2.4,143.9781153249283,
positions.xlsx,positions_test.xlsx,positions_test_new.xlsx,stimuli.xlsx,stimuli_new.xlsx,stimuli/Social1.png,stimuli/Social2.png,stimuli/Nonsocial1.png,stimuli/Nonsocial2.png,stimuli/Social3.png,stimuli/Social4.png,stimuli/Nonsocial3.png,stimuli/Nonsocial4.png,,,"(-0.7, -0.5)",cs_pos_ns,"(-0.7, 0.5)",cs_neg_s,"(0.7, -0.5)",cs_pos_s,"(0.7, 0.5)",cs_neg_ns,0,0,0,0,,,,,,,,,,,,,,,,,,,,,,,,,,,,,0,7,7,1,,,,,,,,,,,,,,,,,,,,,,,,,,,,,,,,,,,,,,,,,,,,,,30,A,2024-05-08_11h22.43.121,attentional_competition_task,2022.2.4,143.9781153249283,
positions.xlsx,positions_test.xlsx,positions_test_new.xlsx,stimuli.xlsx,stimuli_new.xlsx,stimuli/Social1.png,stimuli/Social2.png,stimuli/Nonsocial1.png,stimuli/Nonsocial2.png,stimuli/Social3.png,stimuli/Social4.png,stimuli/Nonsocial3.png,stimuli/Nonsocial4.png,,,"(-0.7, -0.5)",cs_neg_ns,"(-0.7, 0.5)",cs_pos_s_new,"(0.7, -0.5)",cs_neg_s,"(0.7, 0.5)",cs_pos_ns,0,0,0,0,,,,,,,,,,,,,,,,,,,,,,,,,,,,,0,8,8,30,0,0,0,0,,,,,,,,,,,,,,,528,reward,,,,,,1320.031834200001,1320.031834200001,1320.031834200001,1320.031834200001,0,,,1,0.7941219000003912,0.7941258000009839,0,,,0,,,1320.8304083000003,1320.8304083000003,1320.8304083000003,1320.8304083000003,30,A,2024-05-08_11h22.43.121,attentional_competition_task,2022.2.4,143.9781153249283,
positions.xlsx,positions_test.xlsx,positions_test_new.xlsx,stimuli.xlsx,stimuli_new.xlsx,stimuli/Social1.png,stimuli/Social2.png,stimuli/Nonsocial1.png,stimuli/Nonsocial2.png,stimuli/Social3.png,stimuli/Social4.png,stimuli/Nonsocial3.png,stimuli/Nonsocial4.png,,,"(-0.7, -0.5)",cs_neg_ns,"(-0.7, 0.5)",cs_pos_s_new,"(0.7, -0.5)",cs_neg_s,"(0.7, 0.5)",cs_pos_ns,0,0,0,0,,,,,,,,,,,,,,,,,,,,,,,,,,,,,0,8,8,30,1,0,1,0,,,,,,,,,,,,,,,531,reward,,,,,,1321.3373601000003,1321.3373601000003,1321.3373601000003,1321.3373601000003,0,,,1,0.028940299998794217,0.04508249999889813,0,,,1,0.1087493999984872,0.10875699999996868,1321.4484818,1321.4484818,1321.4484818,1321.4484818,30,A,2024-05-08_11h22.43.121,attentional_competition_task,2022.2.4,143.9781153249283,
positions.xlsx,positions_test.xlsx,positions_test_new.xlsx,stimuli.xlsx,stimuli_new.xlsx,stimuli/Social1.png,stimuli/Social2.png,stimuli/Nonsocial1.png,stimuli/Nonsocial2.png,stimuli/Social3.png,stimuli/Social4.png,stimuli/Nonsocial3.png,stimuli/Nonsocial4.png,,,"(-0.7, -0.5)",cs_neg_ns,"(-0.7, 0.5)",cs_pos_s_new,"(0.7, -0.5)",cs_neg_s,"(0.7, 0.5)",cs_pos_ns,0,0,0,0,,,,,,,,,,,,,,,,,,,,,,,,,,,,,0,8,8,30,2,0,2,0,,,,,,,,,,,,,,,534,reward,,,,,,1321.948413,1321.948413,1321.948413,1321.948413,0,,,0,,,0,,,1,0.028071200000340468,0.09842720000051486,1322.545619300001,1322.545619300001,1322.545619300001,1322.545619300001,30,A,2024-05-08_11h22.43.121,attentional_competition_task,2022.2.4,143.9781153249283,
positions.xlsx,positions_test.xlsx,positions_test_new.xlsx,stimuli.xlsx,stimuli_new.xlsx,stimuli/Social1.png,stimuli/Social2.png,stimuli/Nonsocial1.png,stimuli/Nonsocial2.png,stimuli/Social3.png,stimuli/Social4.png,stimuli/Nonsocial3.png,stimuli/Nonsocial4.png,,,"(-0.7, -0.5)",cs_neg_ns,"(-0.7, 0.5)",cs_pos_s_new,"(0.7, -0.5)",cs_neg_s,"(0.7, 0.5)",cs_pos_ns,0,0,0,0,,,,,,,,,,,,,,,,,,,,,,,,,,,,,0,8,8,30,,,,,,,,,,,,,,,,,,,,,,,,,,,,,,,,,,,,,,,,,,,,,,30,A,2024-05-08_11h22.43.121,attentional_competition_task,2022.2.4,143.9781153249283,
positions.xlsx,positions_test.xlsx,positions_test_new.xlsx,stimuli.xlsx,stimuli_new.xlsx,stimuli/Social1.png,stimuli/Social2.png,stimuli/Nonsocial1.png,stimuli/Nonsocial2.png,stimuli/Social3.png,stimuli/Social4.png,stimuli/Nonsocial3.png,stimuli/Nonsocial4.png,,,"(-0.7, -0.5)",cs_neg_s,"(-0.7, 0.5)",cs_pos_s_new,"(0.7, -0.5)",cs_neg_ns,"(0.7, 0.5)",cs_pos_ns,0,0,0,0,,,,,,,,,,,,,,,,,,,,,,,,,,,,,0,9,9,29,0,0,0,0,,,,,,,,,,,,,,,537,reward,,,,,,1328.5592627999995,1328.5592627999995,1328.5592627999995,1328.5592627999995,0,,,0,,,0,,,1,0.675913799999762,0.6759175999995932,1329.2398092000003,1329.2398092000003,1329.2398092000003,1329.2398092000003,30,A,2024-05-08_11h22.43.121,attentional_competition_task,2022.2.4,143.9781153249283,
