posFile,posFileTest,posFileTestNew,stimFile,stimFileNew,cs_neg_s,cs_pos_s,cs_neg_ns,cs_pos_ns,cs_neg_s_new,cs_pos_s_new,cs_neg_ns_new,cs_pos_ns_new,stim,position,position1,stim1,position2,stim2,position3,stim3,position4,stim4,blocks.thisRepN,blocks.thisTrialN,blocks.thisN,blocks.thisIndex,ratingtrials1.thisRepN,ratingtrials1.thisTrialN,ratingtrials1.thisN,ratingtrials1.thisIndex,search_task_trials.thisRepN,search_task_trials.thisTrialN,search_task_trials.thisN,search_task_trials.thisIndex,learning_trials.thisRepN,learning_trials.thisTrialN,learning_trials.thisN,learning_trials.thisIndex,trials.thisRepN,trials.thisTrialN,trials.thisN,trials.thisIndex,ratingtrials2.thisRepN,ratingtrials2.thisTrialN,ratingtrials2.thisN,ratingtrials2.thisIndex,testtrials.thisRepN,testtrials.thisTrialN,testtrials.thisN,testtrials.thisIndex,loop_test.thisRepN,loop_test.thisTrialN,loop_test.thisN,loop_test.thisIndex,testtrials_novelty.thisRepN,testtrials_novelty.thisTrialN,testtrials_novelty.thisN,testtrials_novelty.thisIndex,loop_test_novelty.thisRepN,loop_test_novelty.thisTrialN,loop_test_novelty.thisN,loop_test_novelty.thisIndex,ratingtrials3.thisRepN,ratingtrials3.thisTrialN,ratingtrials3.thisN,ratingtrials3.thisIndex,textStart.started,textStartExp.started,imageRating.started,sliderStim.response,sliderStim.rt,textStartSearch.started,target_positions,distractor_positions,textStartTask.started,image.started,score,outcome,roi.numLooks,roi.timesOn,roi.timesOff,imageFeedback.started,textTestInstr.started,test_image1.started,test_image2.started,test_image3.started,test_image4.started,test_roi1.numLooks,test_roi1.timesOn,test_roi1.timesOff,test_roi2.numLooks,test_roi2.timesOn,test_roi2.timesOff,test_roi3.numLooks,test_roi3.timesOn,test_roi3.timesOff,test_roi4.numLooks,test_roi4.timesOn,test_roi4.timesOff,test_image_feedback1.started,test_image_feedback2.started,test_iamge_feedback3.started,test_iamge_feedback4.started,participant,group,date,expName,psychopyVersion,frameRate,
positions.xlsx,positions_test.xlsx,positions_test_new.xlsx,stimuli.xlsx,stimuli_new.xlsx,stimuli/Social3.png,stimuli/Social4.png,stimuli/Nonsocial3.png,stimuli/Nonsocial4.png,stimuli/Social1.png,stimuli/Social2.png,stimuli/Nonsocial1.png,stimuli/Nonsocial2.png,cs_neg_ns,,,,,,,,,,0,0,0,0,0,0,0,1,,,,,,,,,,,,,,,,,,,,,,,,,,,,,,,,,,,,,15.820603100117296,128.26500010024756,138.2587799001485,6.0,5.985524899791926,,,,,,,,,,,,,,,,,,,,,,,,,,,,,,,,,11,C,2024-04-19_11h15.57.675,attentional_competition_task,2022.2.4,143.99884794680085,
positions.xlsx,positions_test.xlsx,positions_test_new.xlsx,stimuli.xlsx,stimuli_new.xlsx,stimuli/Social3.png,stimuli/Social4.png,stimuli/Nonsocial3.png,stimuli/Nonsocial4.png,stimuli/Social1.png,stimuli/Social2.png,stimuli/Nonsocial1.png,stimuli/Nonsocial2.png,cs_pos_ns,,,,,,,,,,0,0,0,0,0,1,1,3,,,,,,,,,,,,,,,,,,,,,,,,,,,,,,,,,,,,,,,145.30016870005056,8.0,2.105210999958217,,,,,,,,,,,,,,,,,,,,,,,,,,,,,,,,,11,C,2024-04-19_11h15.57.675,attentional_competition_task,2022.2.4,143.99884794680085,
positions.xlsx,positions_test.xlsx,positions_test_new.xlsx,stimuli.xlsx,stimuli_new.xlsx,stimuli/Social3.png,stimuli/Social4.png,stimuli/Nonsocial3.png,stimuli/Nonsocial4.png,stimuli/Social1.png,stimuli/Social2.png,stimuli/Nonsocial1.png,stimuli/Nonsocial2.png,cs_neg_s,,,,,,,,,,0,0,0,0,0,2,2,0,,,,,,,,,,,,,,,,,,,,,,,,,,,,,,,,,,,,,,,148.61255900003016,7.0,3.4603846999816597,,,,,,,,,,,,,,,,,,,,,,,,,,,,,,,,,11,C,2024-04-19_11h15.57.675,attentional_competition_task,2022.2.4,143.99884794680085,
positions.xlsx,positions_test.xlsx,positions_test_new.xlsx,stimuli.xlsx,stimuli_new.xlsx,stimuli/Social3.png,stimuli/Social4.png,stimuli/Nonsocial3.png,stimuli/Nonsocial4.png,stimuli/Social1.png,stimuli/Social2.png,stimuli/Nonsocial1.png,stimuli/Nonsocial2.png,cs_pos_s,,,,,,,,,,0,0,0,0,0,3,3,2,,,,,,,,,,,,,,,,,,,,,,,,,,,,,,,,,,,,,,,153.09150730026886,5.0,2.0853059999644756,,,,,,,,,,,,,,,,,,,,,,,,,,,,,,,,,11,C,2024-04-19_11h15.57.675,attentional_competition_task,2022.2.4,143.99884794680085,
positions.xlsx,positions_test.xlsx,positions_test_new.xlsx,stimuli.xlsx,stimuli_new.xlsx,stimuli/Social3.png,stimuli/Social4.png,stimuli/Nonsocial3.png,stimuli/Nonsocial4.png,stimuli/Social1.png,stimuli/Social2.png,stimuli/Nonsocial1.png,stimuli/Nonsocial2.png,,,,,,,,,,,0,0,0,0,,,,,0,0,0,0,,,,,,,,,,,,,,,,,,,,,,,,,,,,,,,,,,,,,,155.709443599917,"[[0.9, -0.30000000000000004], [0.6749999999999999, -0.8], [-0.22499999999999998, -0.30000000000000004], [-0.22499999999999998, 0.7], [0.0, -0.8], [-0.675, 0.7], [0.9, 0.19999999999999996], [0.6749999999999999, -0.30000000000000004], [0.9, 0.7], [0.22499999999999998, -0.8], [0.45000000000000007, 0.7], [0.22499999999999998, 0.7], [-0.45, 0.7], [-0.9, -0.30000000000000004], [0.45000000000000007, -0.8]]","[[0.9, -0.8], [-0.9, -0.8], [0.22499999999999998, 0.19999999999999996], [-0.9, 0.19999999999999996], [-0.22499999999999998, -0.8], [-0.45, -0.30000000000000004], [0.6749999999999999, 0.19999999999999996], [0.0, 0.7], [-0.45, 0.19999999999999996], [0.45000000000000007, 0.19999999999999996], [0.6749999999999999, 0.7], [0.0, 0.19999999999999996], [-0.45, -0.8], [-0.675, -0.8], [0.22499999999999998, -0.30000000000000004]]",,,,,,,,,,,,,,,,,,,,,,,,,,,,,,11,C,2024-04-19_11h15.57.675,attentional_competition_task,2022.2.4,143.99884794680085,
positions.xlsx,positions_test.xlsx,positions_test_new.xlsx,stimuli.xlsx,stimuli_new.xlsx,stimuli/Social3.png,stimuli/Social4.png,stimuli/Nonsocial3.png,stimuli/Nonsocial4.png,stimuli/Social1.png,stimuli/Social2.png,stimuli/Nonsocial1.png,stimuli/Nonsocial2.png,,,,,,,,,,,0,0,0,0,,,,,1,0,1,0,,,,,,,,,,,,,,,,,,,,,,,,,,,,,,,,,,,,,,,"[[0.0, -0.8], [0.0, 0.19999999999999996], [0.6749999999999999, 0.7], [0.6749999999999999, -0.30000000000000004], [0.22499999999999998, -0.30000000000000004], [-0.45, -0.8], [0.45000000000000007, -0.8], [-0.9, 0.19999999999999996], [-0.45, -0.30000000000000004], [0.22499999999999998, 0.7], [0.9, -0.30000000000000004], [0.9, -0.8], [0.22499999999999998, 0.19999999999999996], [-0.22499999999999998, 0.7], [0.45000000000000007, 0.19999999999999996]]","[[-0.45, 0.19999999999999996], [0.9, 0.19999999999999996], [-0.675, -0.8], [-0.675, 0.7], [-0.22499999999999998, -0.8], [0.6749999999999999, 0.19999999999999996], [-0.45, 0.7], [0.22499999999999998, -0.8], [-0.9, -0.30000000000000004], [0.45000000000000007, 0.7], [-0.22499999999999998, -0.30000000000000004], [0.0, -0.30000000000000004], [-0.9, -0.8], [-0.675, 0.19999999999999996], [-0.675, -0.30000000000000004]]",,,,,,,,,,,,,,,,,,,,,,,,,,,,,,11,C,2024-04-19_11h15.57.675,attentional_competition_task,2022.2.4,143.99884794680085,
positions.xlsx,positions_test.xlsx,positions_test_new.xlsx,stimuli.xlsx,stimuli_new.xlsx,stimuli/Social3.png,stimuli/Social4.png,stimuli/Nonsocial3.png,stimuli/Nonsocial4.png,stimuli/Social1.png,stimuli/Social2.png,stimuli/Nonsocial1.png,stimuli/Nonsocial2.png,cs_pos_ns,"(0.7, -0.5)",,,,,,,,,0,0,0,0,,,,,,,,,0,0,0,15,,,,,,,,,,,,,,,,,,,,,,,,,,,,,,,,,,,,,234.02569600008428,257.8302891002968,3,reward,1,0.18092910014092922,0.18093399982899427,258.0178120001219,,,,,,,,,,,,,,,,,,,,,,11,C,2024-04-19_11h15.57.675,attentional_competition_task,2022.2.4,143.99884794680085,
positions.xlsx,positions_test.xlsx,positions_test_new.xlsx,stimuli.xlsx,stimuli_new.xlsx,stimuli/Social3.png,stimuli/Social4.png,stimuli/Nonsocial3.png,stimuli/Nonsocial4.png,stimuli/Social1.png,stimuli/Social2.png,stimuli/Nonsocial1.png,stimuli/Nonsocial2.png,cs_pos_s,"(-0.7, 0.5)",,,,,,,,,0,0,0,0,,,,,,,,,0,1,1,4,,,,,,,,,,,,,,,,,,,,,,,,,,,,,,,,,,,,,,265.76744120009243,6,reward,1,0.3753700996749103,0.3753744997084141,266.14942080015317,,,,,,,,,,,,,,,,,,,,,,11,C,2024-04-19_11h15.57.675,attentional_competition_task,2022.2.4,143.99884794680085,
positions.xlsx,positions_test.xlsx,positions_test_new.xlsx,stimuli.xlsx,stimuli_new.xlsx,stimuli/Social3.png,stimuli/Social4.png,stimuli/Nonsocial3.png,stimuli/Nonsocial4.png,stimuli/Social1.png,stimuli/Social2.png,stimuli/Nonsocial1.png,stimuli/Nonsocial2.png,cs_neg_s,"(-0.7, -0.5)",,,,,,,,,0,0,0,0,,,,,,,,,0,2,2,1,,,,,,,,,,,,,,,,,,,,,,,,,,,,,,,,,,,,,,274.56573829986155,3,loss,1,0.2366057001054287,0.23661010013893247,274.80881540011615,,,,,,,,,,,,,,,,,,,,,,11,C,2024-04-19_11h15.57.675,attentional_competition_task,2022.2.4,143.99884794680085,
positions.xlsx,positions_test.xlsx,positions_test_new.xlsx,stimuli.xlsx,stimuli_new.xlsx,stimuli/Social3.png,stimuli/Social4.png,stimuli/Nonsocial3.png,stimuli/Nonsocial4.png,stimuli/Social1.png,stimuli/Social2.png,stimuli/Nonsocial1.png,stimuli/Nonsocial2.png,cs_neg_s,"(0.7, 0.5)",,,,,,,,,0,0,0,0,,,,,,,,,0,3,3,2,,,,,,,,,,,,,,,,,,,,,,,,,,,,,,,,,,,,,,282.26686079986393,0,loss,1,0.18105969997122884,0.18106440035626292,282.4543158002198,,,,,,,,,,,,,,,,,,,,,,11,C,2024-04-19_11h15.57.675,attentional_competition_task,2022.2.4,143.99884794680085,
positions.xlsx,positions_test.xlsx,positions_test_new.xlsx,stimuli.xlsx,stimuli_new.xlsx,stimuli/Social3.png,stimuli/Social4.png,stimuli/Nonsocial3.png,stimuli/Nonsocial4.png,stimuli/Social1.png,stimuli/Social2.png,stimuli/Nonsocial1.png,stimuli/Nonsocial2.png,cs_neg_ns,"(-0.7, 0.5)",,,,,,,,,0,0,0,0,,,,,,,,,0,4,4,8,,,,,,,,,,,,,,,,,,,,,,,,,,,,,,,,,,,,,,289.55124989990145,-3,loss,1,0.5000390997156501,0.5000433996319771,290.05814679991454,,,,,,,,,,,,,,,,,,,,,,11,C,2024-04-19_11h15.57.675,attentional_competition_task,2022.2.4,143.99884794680085,
positions.xlsx,positions_test.xlsx,positions_test_new.xlsx,stimuli.xlsx,stimuli_new.xlsx,stimuli/Social3.png,stimuli/Social4.png,stimuli/Nonsocial3.png,stimuli/Nonsocial4.png,stimuli/Social1.png,stimuli/Social2.png,stimuli/Nonsocial1.png,stimuli/Nonsocial2.png,cs_pos_s,"(0.7, -0.5)",,,,,,,,,0,0,0,0,,,,,,,,,0,5,5,7,,,,,,,,,,,,,,,,,,,,,,,,,,,,,,,,,,,,,,297.59952779999,0,reward,1,0.3754219999536872,0.3754270998761058,297.98139030020684,,,,,,,,,,,,,,,,,,,,,,11,C,2024-04-19_11h15.57.675,attentional_competition_task,2022.2.4,143.99884794680085,
positions.xlsx,positions_test.xlsx,positions_test_new.xlsx,stimuli.xlsx,stimuli_new.xlsx,stimuli/Social3.png,stimuli/Social4.png,stimuli/Nonsocial3.png,stimuli/Nonsocial4.png,stimuli/Social1.png,stimuli/Social2.png,stimuli/Nonsocial1.png,stimuli/Nonsocial2.png,cs_neg_s,"(-0.7, 0.5)",,,,,,,,,0,0,0,0,,,,,,,,,0,6,6,0,,,,,,,,,,,,,,,,,,,,,,,,,,,,,,,,,,,,,,305.4741549999453,-3,loss,1,0.8682713001035154,0.8682761997915804,306.3492008000612,,,,,,,,,,,,,,,,,,,,,,11,C,2024-04-19_11h15.57.675,attentional_competition_task,2022.2.4,143.99884794680085,
positions.xlsx,positions_test.xlsx,positions_test_new.xlsx,stimuli.xlsx,stimuli_new.xlsx,stimuli/Social3.png,stimuli/Social4.png,stimuli/Nonsocial3.png,stimuli/Nonsocial4.png,stimuli/Social1.png,stimuli/Social2.png,stimuli/Nonsocial1.png,stimuli/Nonsocial2.png,cs_neg_ns,"(0.7, 0.5)",,,,,,,,,0,0,0,0,,,,,,,,,0,7,7,10,,,,,,,,,,,,,,,,,,,,,,,,,,,,,,,,,,,,,,313.7794452002272,-6,loss,1,0.5206786999478936,0.5206830999813974,314.30715540004894,,,,,,,,,,,,,,,,,,,,,,11,C,2024-04-19_11h15.57.675,attentional_competition_task,2022.2.4,143.99884794680085,
positions.xlsx,positions_test.xlsx,positions_test_new.xlsx,stimuli.xlsx,stimuli_new.xlsx,stimuli/Social3.png,stimuli/Social4.png,stimuli/Nonsocial3.png,stimuli/Nonsocial4.png,stimuli/Social1.png,stimuli/Social2.png,stimuli/Nonsocial1.png,stimuli/Nonsocial2.png,cs_neg_ns,"(-0.7, -0.5)",,,,,,,,,0,0,0,0,,,,,,,,,0,8,8,9,,,,,,,,,,,,,,,,,,,,,,,,,,,,,,,,,,,,,,322.4387892000377,-9,loss,1,0.5558158997446299,0.5558201996609569,323.00132150016725,,,,,,,,,,,,,,,,,,,,,,11,C,2024-04-19_11h15.57.675,attentional_competition_task,2022.2.4,143.99884794680085,
positions.xlsx,positions_test.xlsx,positions_test_new.xlsx,stimuli.xlsx,stimuli_new.xlsx,stimuli/Social3.png,stimuli/Social4.png,stimuli/Nonsocial3.png,stimuli/Nonsocial4.png,stimuli/Social1.png,stimuli/Social2.png,stimuli/Nonsocial1.png,stimuli/Nonsocial2.png,cs_pos_s,"(0.7, 0.5)",,,,,,,,,0,0,0,0,,,,,,,,,0,9,9,6,,,,,,,,,,,,,,,,,,,,,,,,,,,,,,,,,,,,,,330.13989030011,-6,reward,1,0.6735579003579915,0.6735626999288797,330.82044310029596,,,,,,,,,,,,,,,,,,,,,,11,C,2024-04-19_11h15.57.675,attentional_competition_task,2022.2.4,143.99884794680085,
positions.xlsx,positions_test.xlsx,positions_test_new.xlsx,stimuli.xlsx,stimuli_new.xlsx,stimuli/Social3.png,stimuli/Social4.png,stimuli/Nonsocial3.png,stimuli/Nonsocial4.png,stimuli/Social1.png,stimuli/Social2.png,stimuli/Nonsocial1.png,stimuli/Nonsocial2.png,cs_neg_s,"(0.7, -0.5)",,,,,,,,,0,0,0,0,,,,,,,,,0,10,10,3,,,,,,,,,,,,,,,,,,,,,,,,,,,,,,,,,,,,,,338.8756707999855,-6,none,0,,,341.88242299994454,,,,,,,,,,,,,,,,,,,,,,11,C,2024-04-19_11h15.57.675,attentional_competition_task,2022.2.4,143.99884794680085,
positions.xlsx,positions_test.xlsx,positions_test_new.xlsx,stimuli.xlsx,stimuli_new.xlsx,stimuli/Social3.png,stimuli/Social4.png,stimuli/Nonsocial3.png,stimuli/Nonsocial4.png,stimuli/Social1.png,stimuli/Social2.png,stimuli/Nonsocial1.png,stimuli/Nonsocial2.png,cs_pos_ns,"(0.7, 0.5)",,,,,,,,,0,0,0,0,,,,,,,,,0,11,11,14,,,,,,,,,,,,,,,,,,,,,,,,,,,,,,,,,,,,,,349.8127135001123,-3,reward,1,0.48658830020576715,0.4865929000079632,350.3057641000487,,,,,,,,,,,,,,,,,,,,,,11,C,2024-04-19_11h15.57.675,attentional_competition_task,2022.2.4,143.99884794680085,
positions.xlsx,positions_test.xlsx,positions_test_new.xlsx,stimuli.xlsx,stimuli_new.xlsx,stimuli/Social3.png,stimuli/Social4.png,stimuli/Nonsocial3.png,stimuli/Nonsocial4.png,stimuli/Social1.png,stimuli/Social2.png,stimuli/Nonsocial1.png,stimuli/Nonsocial2.png,cs_pos_ns,"(-0.7, 0.5)",,,,,,,,,0,0,0,0,,,,,,,,,0,12,12,12,,,,,,,,,,,,,,,,,,,,,,,,,,,,,,,,,,,,,,357.81234980002046,0,reward,1,0.9031477002426982,0.9101839000359178,358.7289817999117,,,,,,,,,,,,,,,,,,,,,,11,C,2024-04-19_11h15.57.675,attentional_competition_task,2022.2.4,143.99884794680085,
positions.xlsx,positions_test.xlsx,positions_test_new.xlsx,stimuli.xlsx,stimuli_new.xlsx,stimuli/Social3.png,stimuli/Social4.png,stimuli/Nonsocial3.png,stimuli/Nonsocial4.png,stimuli/Social1.png,stimuli/Social2.png,stimuli/Nonsocial1.png,stimuli/Nonsocial2.png,cs_pos_ns,"(-0.7, -0.5)",,,,,,,,,0,0,0,0,,,,,,,,,0,13,13,13,,,,,,,,,,,,,,,,,,,,,,,,,,,,,,,,,,,,,,366.5619669002481,3,reward,1,0.18788770027458668,0.18789200019091368,366.756414799951,,,,,,,,,,,,,,,,,,,,,,11,C,2024-04-19_11h15.57.675,attentional_competition_task,2022.2.4,143.99884794680085,
positions.xlsx,positions_test.xlsx,positions_test_new.xlsx,stimuli.xlsx,stimuli_new.xlsx,stimuli/Social3.png,stimuli/Social4.png,stimuli/Nonsocial3.png,stimuli/Nonsocial4.png,stimuli/Social1.png,stimuli/Social2.png,stimuli/Nonsocial1.png,stimuli/Nonsocial2.png,cs_neg_ns,"(0.7, -0.5)",,,,,,,,,0,0,0,0,,,,,,,,,0,14,14,11,,,,,,,,,,,,,,,,,,,,,,,,,,,,,,,,,,,,,,374.68665509996936,0,loss,1,0.9654498999007046,0.9654541001655161,375.6588532002643,,,,,,,,,,,,,,,,,,,,,,11,C,2024-04-19_11h15.57.675,attentional_competition_task,2022.2.4,143.99884794680085,
positions.xlsx,positions_test.xlsx,positions_test_new.xlsx,stimuli.xlsx,stimuli_new.xlsx,stimuli/Social3.png,stimuli/Social4.png,stimuli/Nonsocial3.png,stimuli/Nonsocial4.png,stimuli/Social1.png,stimuli/Social2.png,stimuli/Nonsocial1.png,stimuli/Nonsocial2.png,cs_pos_s,"(-0.7, -0.5)",,,,,,,,,0,0,0,0,,,,,,,,,0,15,15,5,,,,,,,,,,,,,,,,,,,,,,,,,,,,,,,,,,,,,,383.06823839992285,3,reward,1,0.6740502002649009,0.6740546002984047,383.74880280019715,,,,,,,,,,,,,,,,,,,,,,11,C,2024-04-19_11h15.57.675,attentional_competition_task,2022.2.4,143.99884794680085,
positions.xlsx,positions_test.xlsx,positions_test_new.xlsx,stimuli.xlsx,stimuli_new.xlsx,stimuli/Social3.png,stimuli/Social4.png,stimuli/Nonsocial3.png,stimuli/Nonsocial4.png,stimuli/Social1.png,stimuli/Social2.png,stimuli/Nonsocial1.png,stimuli/Nonsocial2.png,cs_neg_s,"(0.7, -0.5)",,,,,,,,,0,0,0,0,,,,,,,,,1,0,16,3,,,,,,,,,,,,,,,,,,,,,,,,,,,,,,,,,,,,,,391.68596460018307,3,none,0,,,394.69970580004156,,,,,,,,,,,,,,,,,,,,,,11,C,2024-04-19_11h15.57.675,attentional_competition_task,2022.2.4,143.99884794680085,
positions.xlsx,positions_test.xlsx,positions_test_new.xlsx,stimuli.xlsx,stimuli_new.xlsx,stimuli/Social3.png,stimuli/Social4.png,stimuli/Nonsocial3.png,stimuli/Nonsocial4.png,stimuli/Social1.png,stimuli/Social2.png,stimuli/Nonsocial1.png,stimuli/Nonsocial2.png,cs_neg_ns,"(0.7, -0.5)",,,,,,,,,0,0,0,0,,,,,,,,,1,1,17,11,,,,,,,,,,,,,,,,,,,,,,,,,,,,,,,,,,,,,,401.65778440004215,3,none,0,,,404.6715738000348,,,,,,,,,,,,,,,,,,,,,,11,C,2024-04-19_11h15.57.675,attentional_competition_task,2022.2.4,143.99884794680085,
positions.xlsx,positions_test.xlsx,positions_test_new.xlsx,stimuli.xlsx,stimuli_new.xlsx,stimuli/Social3.png,stimuli/Social4.png,stimuli/Nonsocial3.png,stimuli/Nonsocial4.png,stimuli/Social1.png,stimuli/Social2.png,stimuli/Nonsocial1.png,stimuli/Nonsocial2.png,cs_neg_ns,"(-0.7, -0.5)",,,,,,,,,0,0,0,0,,,,,,,,,1,2,18,9,,,,,,,,,,,,,,,,,,,,,,,,,,,,,,,,,,,,,,412.59485210012645,0,loss,1,0.22944869985803962,0.22945349989458919,412.8309692000039,,,,,,,,,,,,,,,,,,,,,,11,C,2024-04-19_11h15.57.675,attentional_competition_task,2022.2.4,143.99884794680085,
positions.xlsx,positions_test.xlsx,positions_test_new.xlsx,stimuli.xlsx,stimuli_new.xlsx,stimuli/Social3.png,stimuli/Social4.png,stimuli/Nonsocial3.png,stimuli/Nonsocial4.png,stimuli/Social1.png,stimuli/Social2.png,stimuli/Nonsocial1.png,stimuli/Nonsocial2.png,cs_pos_s,"(0.7, 0.5)",,,,,,,,,0,0,0,0,,,,,,,,,1,3,19,6,,,,,,,,,,,,,,,,,,,,,,,,,,,,,,,,,,,,,,420.4973391001113,3,reward,1,0.6249129003845155,0.624917299952358,421.12927999999374,,,,,,,,,,,,,,,,,,,,,,11,C,2024-04-19_11h15.57.675,attentional_competition_task,2022.2.4,143.99884794680085,
positions.xlsx,positions_test.xlsx,positions_test_new.xlsx,stimuli.xlsx,stimuli_new.xlsx,stimuli/Social3.png,stimuli/Social4.png,stimuli/Nonsocial3.png,stimuli/Nonsocial4.png,stimuli/Social1.png,stimuli/Social2.png,stimuli/Nonsocial1.png,stimuli/Nonsocial2.png,cs_neg_ns,"(0.7, 0.5)",,,,,,,,,0,0,0,0,,,,,,,,,1,4,20,10,,,,,,,,,,,,,,,,,,,,,,,,,,,,,,,,,,,,,,428.67754800012335,3,none,0,,,431.69128709984943,,,,,,,,,,,,,,,,,,,,,,11,C,2024-04-19_11h15.57.675,attentional_competition_task,2022.2.4,143.99884794680085,
positions.xlsx,positions_test.xlsx,positions_test_new.xlsx,stimuli.xlsx,stimuli_new.xlsx,stimuli/Social3.png,stimuli/Social4.png,stimuli/Nonsocial3.png,stimuli/Nonsocial4.png,stimuli/Social1.png,stimuli/Social2.png,stimuli/Nonsocial1.png,stimuli/Nonsocial2.png,cs_pos_ns,"(0.7, 0.5)",,,,,,,,,0,0,0,0,,,,,,,,,1,5,21,14,,,,,,,,,,,,,,,,,,,,,,,,,,,,,,,,,,,,,,439.95488939993083,6,reward,1,1.0004308996722102,1.000434999819845,440.9617758002132,,,,,,,,,,,,,,,,,,,,,,11,C,2024-04-19_11h15.57.675,attentional_competition_task,2022.2.4,143.99884794680085,
positions.xlsx,positions_test.xlsx,positions_test_new.xlsx,stimuli.xlsx,stimuli_new.xlsx,stimuli/Social3.png,stimuli/Social4.png,stimuli/Nonsocial3.png,stimuli/Nonsocial4.png,stimuli/Social1.png,stimuli/Social2.png,stimuli/Nonsocial1.png,stimuli/Nonsocial2.png,cs_pos_ns,"(-0.7, -0.5)",,,,,,,,,0,0,0,0,,,,,,,,,1,6,22,13,,,,,,,,,,,,,,,,,,,,,,,,,,,,,,,,,,,,,,447.99619820015505,9,reward,1,0.7154909996315837,0.715508499648422,448.71838930016384,,,,,,,,,,,,,,,,,,,,,,11,C,2024-04-19_11h15.57.675,attentional_competition_task,2022.2.4,143.99884794680085,
positions.xlsx,positions_test.xlsx,positions_test_new.xlsx,stimuli.xlsx,stimuli_new.xlsx,stimuli/Social3.png,stimuli/Social4.png,stimuli/Nonsocial3.png,stimuli/Nonsocial4.png,stimuli/Social1.png,stimuli/Social2.png,stimuli/Nonsocial1.png,stimuli/Nonsocial2.png,cs_pos_s,"(-0.7, 0.5)",,,,,,,,,0,0,0,0,,,,,,,,,1,7,23,4,,,,,,,,,,,,,,,,,,,,,,,,,,,,,,,,,,,,,,455.89168470026925,12,reward,1,0.5418624999001622,0.5418667998164892,456.44035500008613,,,,,,,,,,,,,,,,,,,,,,11,C,2024-04-19_11h15.57.675,attentional_competition_task,2022.2.4,143.99884794680085,
positions.xlsx,positions_test.xlsx,positions_test_new.xlsx,stimuli.xlsx,stimuli_new.xlsx,stimuli/Social3.png,stimuli/Social4.png,stimuli/Nonsocial3.png,stimuli/Nonsocial4.png,stimuli/Social1.png,stimuli/Social2.png,stimuli/Nonsocial1.png,stimuli/Nonsocial2.png,cs_neg_s,"(-0.7, 0.5)",,,,,,,,,0,0,0,0,,,,,,,,,1,8,24,0,,,,,,,,,,,,,,,,,,,,,,,,,,,,,,,,,,,,,,463.8704959000461,12,none,0,,,466.8842891003005,,,,,,,,,,,,,,,,,,,,,,11,C,2024-04-19_11h15.57.675,attentional_competition_task,2022.2.4,143.99884794680085,
positions.xlsx,positions_test.xlsx,positions_test_new.xlsx,stimuli.xlsx,stimuli_new.xlsx,stimuli/Social3.png,stimuli/Social4.png,stimuli/Nonsocial3.png,stimuli/Nonsocial4.png,stimuli/Social1.png,stimuli/Social2.png,stimuli/Nonsocial1.png,stimuli/Nonsocial2.png,cs_pos_s,"(-0.7, -0.5)",,,,,,,,,0,0,0,0,,,,,,,,,1,9,25,5,,,,,,,,,,,,,,,,,,,,,,,,,,,,,,,,,,,,,,474.654878300149,15,reward,1,0.6462966999970376,0.6463014003820717,475.3076125001535,,,,,,,,,,,,,,,,,,,,,,11,C,2024-04-19_11h15.57.675,attentional_competition_task,2022.2.4,143.99884794680085,
positions.xlsx,positions_test.xlsx,positions_test_new.xlsx,stimuli.xlsx,stimuli_new.xlsx,stimuli/Social3.png,stimuli/Social4.png,stimuli/Nonsocial3.png,stimuli/Nonsocial4.png,stimuli/Social1.png,stimuli/Social2.png,stimuli/Nonsocial1.png,stimuli/Nonsocial2.png,cs_pos_ns,"(-0.7, 0.5)",,,,,,,,,0,0,0,0,,,,,,,,,1,10,26,12,,,,,,,,,,,,,,,,,,,,,,,,,,,,,,,,,,,,,,482.62674340000376,18,reward,1,0.5551575999706984,0.5551617997698486,483.1892793001607,,,,,,,,,,,,,,,,,,,,,,11,C,2024-04-19_11h15.57.675,attentional_competition_task,2022.2.4,143.99884794680085,
positions.xlsx,positions_test.xlsx,positions_test_new.xlsx,stimuli.xlsx,stimuli_new.xlsx,stimuli/Social3.png,stimuli/Social4.png,stimuli/Nonsocial3.png,stimuli/Nonsocial4.png,stimuli/Social1.png,stimuli/Social2.png,stimuli/Nonsocial1.png,stimuli/Nonsocial2.png,cs_pos_s,"(0.7, -0.5)",,,,,,,,,0,0,0,0,,,,,,,,,1,11,27,7,,,,,,,,,,,,,,,,,,,,,,,,,,,,,,,,,,,,,,490.95971459988505,21,reward,1,0.7850659000687301,0.7850701999850571,491.7513744998723,,,,,,,,,,,,,,,,,,,,,,11,C,2024-04-19_11h15.57.675,attentional_competition_task,2022.2.4,143.99884794680085,
positions.xlsx,positions_test.xlsx,positions_test_new.xlsx,stimuli.xlsx,stimuli_new.xlsx,stimuli/Social3.png,stimuli/Social4.png,stimuli/Nonsocial3.png,stimuli/Nonsocial4.png,stimuli/Social1.png,stimuli/Social2.png,stimuli/Nonsocial1.png,stimuli/Nonsocial2.png,cs_neg_s,"(0.7, 0.5)",,,,,,,,,0,0,0,0,,,,,,,,,1,12,28,2,,,,,,,,,,,,,,,,,,,,,,,,,,,,,,,,,,,,,,498.9385871998966,21,none,0,,,501.9453553999774,,,,,,,,,,,,,,,,,,,,,,11,C,2024-04-19_11h15.57.675,attentional_competition_task,2022.2.4,143.99884794680085,
positions.xlsx,positions_test.xlsx,positions_test_new.xlsx,stimuli.xlsx,stimuli_new.xlsx,stimuli/Social3.png,stimuli/Social4.png,stimuli/Nonsocial3.png,stimuli/Nonsocial4.png,stimuli/Social1.png,stimuli/Social2.png,stimuli/Nonsocial1.png,stimuli/Nonsocial2.png,cs_neg_ns,"(-0.7, 0.5)",,,,,,,,,0,0,0,0,,,,,,,,,1,13,29,8,,,,,,,,,,,,,,,,,,,,,,,,,,,,,,,,,,,,,,509.7437360002659,18,loss,1,1.1111569995991886,1.1111619998700917,510.86170840030536,,,,,,,,,,,,,,,,,,,,,,11,C,2024-04-19_11h15.57.675,attentional_competition_task,2022.2.4,143.99884794680085,
positions.xlsx,positions_test.xlsx,positions_test_new.xlsx,stimuli.xlsx,stimuli_new.xlsx,stimuli/Social3.png,stimuli/Social4.png,stimuli/Nonsocial3.png,stimuli/Nonsocial4.png,stimuli/Social1.png,stimuli/Social2.png,stimuli/Nonsocial1.png,stimuli/Nonsocial2.png,cs_pos_ns,"(0.7, -0.5)",,,,,,,,,0,0,0,0,,,,,,,,,1,14,30,15,,,,,,,,,,,,,,,,,,,,,,,,,,,,,,,,,,,,,,519.0696919001639,21,reward,1,0.2225124998949468,0.2225323999300599,519.2989046000876,,,,,,,,,,,,,,,,,,,,,,11,C,2024-04-19_11h15.57.675,attentional_competition_task,2022.2.4,143.99884794680085,
positions.xlsx,positions_test.xlsx,positions_test_new.xlsx,stimuli.xlsx,stimuli_new.xlsx,stimuli/Social3.png,stimuli/Social4.png,stimuli/Nonsocial3.png,stimuli/Nonsocial4.png,stimuli/Social1.png,stimuli/Social2.png,stimuli/Nonsocial1.png,stimuli/Nonsocial2.png,cs_neg_s,"(-0.7, -0.5)",,,,,,,,,0,0,0,0,,,,,,,,,1,15,31,1,,,,,,,,,,,,,,,,,,,,,,,,,,,,,,,,,,,,,,526.7709305998869,21,none,0,,,529.7845457000658,,,,,,,,,,,,,,,,,,,,,,11,C,2024-04-19_11h15.57.675,attentional_competition_task,2022.2.4,143.99884794680085,
positions.xlsx,positions_test.xlsx,positions_test_new.xlsx,stimuli.xlsx,stimuli_new.xlsx,stimuli/Social3.png,stimuli/Social4.png,stimuli/Nonsocial3.png,stimuli/Nonsocial4.png,stimuli/Social1.png,stimuli/Social2.png,stimuli/Nonsocial1.png,stimuli/Nonsocial2.png,cs_neg_ns,"(0.7, -0.5)",,,,,,,,,0,0,0,0,,,,,,,,,,,,,0,0,0,11,,,,,,,,,,,,,,,,,,,,,,,,,,,,,,,,,,547.478280799929,18,loss,1,0.6392651000060141,0.6392700998112559,548.1240968001075,,,,,,,,,,,,,,,,,,,,,,11,C,2024-04-19_11h15.57.675,attentional_competition_task,2022.2.4,143.99884794680085,
positions.xlsx,positions_test.xlsx,positions_test_new.xlsx,stimuli.xlsx,stimuli_new.xlsx,stimuli/Social3.png,stimuli/Social4.png,stimuli/Nonsocial3.png,stimuli/Nonsocial4.png,stimuli/Social1.png,stimuli/Social2.png,stimuli/Nonsocial1.png,stimuli/Nonsocial2.png,cs_pos_s,"(0.7, 0.5)",,,,,,,,,0,0,0,0,,,,,,,,,,,,,0,1,1,6,,,,,,,,,,,,,,,,,,,,,,,,,,,,,,,,,,556.5612409999594,21,reward,1,0.6947270999662578,0.6947316001169384,557.2626180001535,,,,,,,,,,,,,,,,,,,,,,11,C,2024-04-19_11h15.57.675,attentional_competition_task,2022.2.4,143.99884794680085,
positions.xlsx,positions_test.xlsx,positions_test_new.xlsx,stimuli.xlsx,stimuli_new.xlsx,stimuli/Social3.png,stimuli/Social4.png,stimuli/Nonsocial3.png,stimuli/Nonsocial4.png,stimuli/Social1.png,stimuli/Social2.png,stimuli/Nonsocial1.png,stimuli/Nonsocial2.png,cs_neg_s,"(0.7, 0.5)",,,,,,,,,0,0,0,0,,,,,,,,,,,,,0,2,2,2,,,,,,,,,,,,,,,,,,,,,,,,,,,,,,,,,,565.0123077998869,21,none,0,,,568.0261420998722,,,,,,,,,,,,,,,,,,,,,,11,C,2024-04-19_11h15.57.675,attentional_competition_task,2022.2.4,143.99884794680085,
positions.xlsx,positions_test.xlsx,positions_test_new.xlsx,stimuli.xlsx,stimuli_new.xlsx,stimuli/Social3.png,stimuli/Social4.png,stimuli/Nonsocial3.png,stimuli/Nonsocial4.png,stimuli/Social1.png,stimuli/Social2.png,stimuli/Nonsocial1.png,stimuli/Nonsocial2.png,cs_pos_s,"(0.7, -0.5)",,,,,,,,,0,0,0,0,,,,,,,,,,,,,0,3,3,7,,,,,,,,,,,,,,,,,,,,,,,,,,,,,,,,,,575.7618757002056,24,reward,1,0.6807301002554595,0.6807343000546098,576.4493193002418,,,,,,,,,,,,,,,,,,,,,,11,C,2024-04-19_11h15.57.675,attentional_competition_task,2022.2.4,143.99884794680085,
positions.xlsx,positions_test.xlsx,positions_test_new.xlsx,stimuli.xlsx,stimuli_new.xlsx,stimuli/Social3.png,stimuli/Social4.png,stimuli/Nonsocial3.png,stimuli/Nonsocial4.png,stimuli/Social1.png,stimuli/Social2.png,stimuli/Nonsocial1.png,stimuli/Nonsocial2.png,cs_pos_ns,"(0.7, -0.5)",,,,,,,,,0,0,0,0,,,,,,,,,,,,,0,4,4,15,,,,,,,,,,,,,,,,,,,,,,,,,,,,,,,,,,583.4976510000415,27,reward,1,0.7504778997972608,0.7573787001892924,584.2615215000696,,,,,,,,,,,,,,,,,,,,,,11,C,2024-04-19_11h15.57.675,attentional_competition_task,2022.2.4,143.99884794680085,
positions.xlsx,positions_test.xlsx,positions_test_new.xlsx,stimuli.xlsx,stimuli_new.xlsx,stimuli/Social3.png,stimuli/Social4.png,stimuli/Nonsocial3.png,stimuli/Nonsocial4.png,stimuli/Social1.png,stimuli/Social2.png,stimuli/Nonsocial1.png,stimuli/Nonsocial2.png,cs_neg_ns,"(-0.7, 0.5)",,,,,,,,,0,0,0,0,,,,,,,,,,,,,0,5,5,8,,,,,,,,,,,,,,,,,,,,,,,,,,,,,,,,,,591.1988134998828,27,none,0,,,594.2125347000547,,,,,,,,,,,,,,,,,,,,,,11,C,2024-04-19_11h15.57.675,attentional_competition_task,2022.2.4,143.99884794680085,
positions.xlsx,positions_test.xlsx,positions_test_new.xlsx,stimuli.xlsx,stimuli_new.xlsx,stimuli/Social3.png,stimuli/Social4.png,stimuli/Nonsocial3.png,stimuli/Nonsocial4.png,stimuli/Social1.png,stimuli/Social2.png,stimuli/Nonsocial1.png,stimuli/Nonsocial2.png,cs_pos_s,"(-0.7, 0.5)",,,,,,,,,0,0,0,0,,,,,,,,,,,,,0,6,6,4,,,,,,,,,,,,,,,,,,,,,,,,,,,,,,,,,,601.5108380001038,30,reward,1,0.6458736998029053,0.6458780998364091,602.1635849000886,,,,,,,,,,,,,,,,,,,,,,11,C,2024-04-19_11h15.57.675,attentional_competition_task,2022.2.4,143.99884794680085,
positions.xlsx,positions_test.xlsx,positions_test_new.xlsx,stimuli.xlsx,stimuli_new.xlsx,stimuli/Social3.png,stimuli/Social4.png,stimuli/Nonsocial3.png,stimuli/Nonsocial4.png,stimuli/Social1.png,stimuli/Social2.png,stimuli/Nonsocial1.png,stimuli/Nonsocial2.png,cs_neg_s,"(0.7, -0.5)",,,,,,,,,0,0,0,0,,,,,,,,,,,,,0,7,7,3,,,,,,,,,,,,,,,,,,,,,,,,,,,,,,,,,,609.8229797999375,30,none,0,,,612.8437589001842,,,,,,,,,,,,,,,,,,,,,,11,C,2024-04-19_11h15.57.675,attentional_competition_task,2022.2.4,143.99884794680085,
positions.xlsx,positions_test.xlsx,positions_test_new.xlsx,stimuli.xlsx,stimuli_new.xlsx,stimuli/Social3.png,stimuli/Social4.png,stimuli/Nonsocial3.png,stimuli/Nonsocial4.png,stimuli/Social1.png,stimuli/Social2.png,stimuli/Nonsocial1.png,stimuli/Nonsocial2.png,cs_pos_s,"(-0.7, -0.5)",,,,,,,,,0,0,0,0,,,,,,,,,,,,,0,8,8,5,,,,,,,,,,,,,,,,,,,,,,,,,,,,,,,,,,620.2392469998449,33,reward,1,0.62579600000754,0.625802599824965,620.8780972999521,,,,,,,,,,,,,,,,,,,,,,11,C,2024-04-19_11h15.57.675,attentional_competition_task,2022.2.4,143.99884794680085,
positions.xlsx,positions_test.xlsx,positions_test_new.xlsx,stimuli.xlsx,stimuli_new.xlsx,stimuli/Social3.png,stimuli/Social4.png,stimuli/Nonsocial3.png,stimuli/Nonsocial4.png,stimuli/Social1.png,stimuli/Social2.png,stimuli/Nonsocial1.png,stimuli/Nonsocial2.png,cs_neg_s,"(-0.7, 0.5)",,,,,,,,,0,0,0,0,,,,,,,,,,,,,0,9,9,0,,,,,,,,,,,,,,,,,,,,,,,,,,,,,,,,,,629.0791434999555,33,none,0,,,632.0859965998679,,,,,,,,,,,,,,,,,,,,,,11,C,2024-04-19_11h15.57.675,attentional_competition_task,2022.2.4,143.99884794680085,
positions.xlsx,positions_test.xlsx,positions_test_new.xlsx,stimuli.xlsx,stimuli_new.xlsx,stimuli/Social3.png,stimuli/Social4.png,stimuli/Nonsocial3.png,stimuli/Nonsocial4.png,stimuli/Social1.png,stimuli/Social2.png,stimuli/Nonsocial1.png,stimuli/Nonsocial2.png,cs_pos_ns,"(0.7, 0.5)",,,,,,,,,0,0,0,0,,,,,,,,,,,,,0,10,10,14,,,,,,,,,,,,,,,,,,,,,,,,,,,,,,,,,,640.0648324000649,36,reward,1,0.5353597002103925,0.535364200361073,640.6064569000155,,,,,,,,,,,,,,,,,,,,,,11,C,2024-04-19_11h15.57.675,attentional_competition_task,2022.2.4,143.99884794680085,
positions.xlsx,positions_test.xlsx,positions_test_new.xlsx,stimuli.xlsx,stimuli_new.xlsx,stimuli/Social3.png,stimuli/Social4.png,stimuli/Nonsocial3.png,stimuli/Nonsocial4.png,stimuli/Social1.png,stimuli/Social2.png,stimuli/Nonsocial1.png,stimuli/Nonsocial2.png,cs_pos_ns,"(-0.7, -0.5)",,,,,,,,,0,0,0,0,,,,,,,,,,,,,0,11,11,13,,,,,,,,,,,,,,,,,,,,,,,,,,,,,,,,,,648.4325659000315,39,reward,1,0.5558678000234067,0.5558724999427795,648.9950307002291,,,,,,,,,,,,,,,,,,,,,,11,C,2024-04-19_11h15.57.675,attentional_competition_task,2022.2.4,143.99884794680085,
positions.xlsx,positions_test.xlsx,positions_test_new.xlsx,stimuli.xlsx,stimuli_new.xlsx,stimuli/Social3.png,stimuli/Social4.png,stimuli/Nonsocial3.png,stimuli/Nonsocial4.png,stimuli/Social1.png,stimuli/Social2.png,stimuli/Nonsocial1.png,stimuli/Nonsocial2.png,cs_neg_s,"(-0.7, -0.5)",,,,,,,,,0,0,0,0,,,,,,,,,,,,,0,12,12,1,,,,,,,,,,,,,,,,,,,,,,,,,,,,,,,,,,656.3905536001548,39,none,0,,,659.3974188999273,,,,,,,,,,,,,,,,,,,,,,11,C,2024-04-19_11h15.57.675,attentional_competition_task,2022.2.4,143.99884794680085,
positions.xlsx,positions_test.xlsx,positions_test_new.xlsx,stimuli.xlsx,stimuli_new.xlsx,stimuli/Social3.png,stimuli/Social4.png,stimuli/Nonsocial3.png,stimuli/Nonsocial4.png,stimuli/Social1.png,stimuli/Social2.png,stimuli/Nonsocial1.png,stimuli/Nonsocial2.png,cs_neg_ns,"(0.7, 0.5)",,,,,,,,,0,0,0,0,,,,,,,,,,,,,0,13,13,10,,,,,,,,,,,,,,,,,,,,,,,,,,,,,,,,,,666.2721727001481,36,loss,1,0.5697949002496898,0.576704999897629,666.8554143002257,,,,,,,,,,,,,,,,,,,,,,11,C,2024-04-19_11h15.57.675,attentional_competition_task,2022.2.4,143.99884794680085,
positions.xlsx,positions_test.xlsx,positions_test_new.xlsx,stimuli.xlsx,stimuli_new.xlsx,stimuli/Social3.png,stimuli/Social4.png,stimuli/Nonsocial3.png,stimuli/Nonsocial4.png,stimuli/Social1.png,stimuli/Social2.png,stimuli/Nonsocial1.png,stimuli/Nonsocial2.png,cs_neg_ns,"(-0.7, -0.5)",,,,,,,,,0,0,0,0,,,,,,,,,,,,,0,14,14,9,,,,,,,,,,,,,,,,,,,,,,,,,,,,,,,,,,674.0843234001659,36,none,0,,,677.0980576998554,,,,,,,,,,,,,,,,,,,,,,11,C,2024-04-19_11h15.57.675,attentional_competition_task,2022.2.4,143.99884794680085,
positions.xlsx,positions_test.xlsx,positions_test_new.xlsx,stimuli.xlsx,stimuli_new.xlsx,stimuli/Social3.png,stimuli/Social4.png,stimuli/Nonsocial3.png,stimuli/Nonsocial4.png,stimuli/Social1.png,stimuli/Social2.png,stimuli/Nonsocial1.png,stimuli/Nonsocial2.png,cs_pos_ns,"(-0.7, 0.5)",,,,,,,,,0,0,0,0,,,,,,,,,,,,,0,15,15,12,,,,,,,,,,,,,,,,,,,,,,,,,,,,,,,,,,684.9658600999974,39,reward,1,0.8334661996923387,0.8401647000573575,685.8130258000456,,,,,,,,,,,,,,,,,,,,,,11,C,2024-04-19_11h15.57.675,attentional_competition_task,2022.2.4,143.99884794680085,
positions.xlsx,positions_test.xlsx,positions_test_new.xlsx,stimuli.xlsx,stimuli_new.xlsx,stimuli/Social3.png,stimuli/Social4.png,stimuli/Nonsocial3.png,stimuli/Nonsocial4.png,stimuli/Social1.png,stimuli/Social2.png,stimuli/Nonsocial1.png,stimuli/Nonsocial2.png,cs_neg_s,"(0.7, -0.5)",,,,,,,,,0,0,0,0,,,,,,,,,,,,,1,0,16,3,,,,,,,,,,,,,,,,,,,,,,,,,,,,,,,,,,693.0696701998822,39,none,0,,,696.0834637000225,,,,,,,,,,,,,,,,,,,,,,11,C,2024-04-19_11h15.57.675,attentional_competition_task,2022.2.4,143.99884794680085,
positions.xlsx,positions_test.xlsx,positions_test_new.xlsx,stimuli.xlsx,stimuli_new.xlsx,stimuli/Social3.png,stimuli/Social4.png,stimuli/Nonsocial3.png,stimuli/Nonsocial4.png,stimuli/Social1.png,stimuli/Social2.png,stimuli/Nonsocial1.png,stimuli/Nonsocial2.png,cs_neg_s,"(-0.7, -0.5)",,,,,,,,,0,0,0,0,,,,,,,,,,,,,1,1,17,1,,,,,,,,,,,,,,,,,,,,,,,,,,,,,,,,,,704.1178373000585,39,none,0,,,707.1246549999341,,,,,,,,,,,,,,,,,,,,,,11,C,2024-04-19_11h15.57.675,attentional_competition_task,2022.2.4,143.99884794680085,
positions.xlsx,positions_test.xlsx,positions_test_new.xlsx,stimuli.xlsx,stimuli_new.xlsx,stimuli/Social3.png,stimuli/Social4.png,stimuli/Nonsocial3.png,stimuli/Nonsocial4.png,stimuli/Social1.png,stimuli/Social2.png,stimuli/Nonsocial1.png,stimuli/Nonsocial2.png,cs_pos_ns,"(0.7, -0.5)",,,,,,,,,0,0,0,0,,,,,,,,,,,,,1,2,18,15,,,,,,,,,,,,,,,,,,,,,,,,,,,,,,,,,,714.1382638001814,42,reward,1,0.6043879999779165,0.6043932000175118,714.7493270002306,,,,,,,,,,,,,,,,,,,,,,11,C,2024-04-19_11h15.57.675,attentional_competition_task,2022.2.4,143.99884794680085,
positions.xlsx,positions_test.xlsx,positions_test_new.xlsx,stimuli.xlsx,stimuli_new.xlsx,stimuli/Social3.png,stimuli/Social4.png,stimuli/Nonsocial3.png,stimuli/Nonsocial4.png,stimuli/Social1.png,stimuli/Social2.png,stimuli/Nonsocial1.png,stimuli/Nonsocial2.png,cs_pos_s,"(0.7, 0.5)",,,,,,,,,0,0,0,0,,,,,,,,,,,,,1,3,19,6,,,,,,,,,,,,,,,,,,,,,,,,,,,,,,,,,,722.5129090002738,45,reward,1,0.597715700045228,0.5977201000787318,723.1170502998866,,,,,,,,,,,,,,,,,,,,,,11,C,2024-04-19_11h15.57.675,attentional_competition_task,2022.2.4,143.99884794680085,
positions.xlsx,positions_test.xlsx,positions_test_new.xlsx,stimuli.xlsx,stimuli_new.xlsx,stimuli/Social3.png,stimuli/Social4.png,stimuli/Nonsocial3.png,stimuli/Nonsocial4.png,stimuli/Social1.png,stimuli/Social2.png,stimuli/Nonsocial1.png,stimuli/Nonsocial2.png,cs_pos_ns,"(-0.7, -0.5)",,,,,,,,,0,0,0,0,,,,,,,,,,,,,1,4,20,13,,,,,,,,,,,,,,,,,,,,,,,,,,,,,,,,,,730.5820470000617,48,reward,1,0.16659080004319549,0.16659530019387603,730.7556365001947,,,,,,,,,,,,,,,,,,,,,,11,C,2024-04-19_11h15.57.675,attentional_competition_task,2022.2.4,143.99884794680085,
positions.xlsx,positions_test.xlsx,positions_test_new.xlsx,stimuli.xlsx,stimuli_new.xlsx,stimuli/Social3.png,stimuli/Social4.png,stimuli/Nonsocial3.png,stimuli/Nonsocial4.png,stimuli/Social1.png,stimuli/Social2.png,stimuli/Nonsocial1.png,stimuli/Nonsocial2.png,cs_pos_ns,"(0.7, 0.5)",,,,,,,,,0,0,0,0,,,,,,,,,,,,,1,5,21,14,,,,,,,,,,,,,,,,,,,,,,,,,,,,,,,,,,739.074750199914,51,reward,1,0.47271979972720146,0.47272489964962006,739.5539636998437,,,,,,,,,,,,,,,,,,,,,,11,C,2024-04-19_11h15.57.675,attentional_competition_task,2022.2.4,143.99884794680085,
positions.xlsx,positions_test.xlsx,positions_test_new.xlsx,stimuli.xlsx,stimuli_new.xlsx,stimuli/Social3.png,stimuli/Social4.png,stimuli/Nonsocial3.png,stimuli/Nonsocial4.png,stimuli/Social1.png,stimuli/Social2.png,stimuli/Nonsocial1.png,stimuli/Nonsocial2.png,cs_neg_s,"(0.7, 0.5)",,,,,,,,,0,0,0,0,,,,,,,,,,,,,1,6,22,2,,,,,,,,,,,,,,,,,,,,,,,,,,,,,,,,,,747.088339000009,48,loss,1,0.3616930996067822,0.36169789964333177,747.4563485002145,,,,,,,,,,,,,,,,,,,,,,11,C,2024-04-19_11h15.57.675,attentional_competition_task,2022.2.4,143.99884794680085,
positions.xlsx,positions_test.xlsx,positions_test_new.xlsx,stimuli.xlsx,stimuli_new.xlsx,stimuli/Social3.png,stimuli/Social4.png,stimuli/Nonsocial3.png,stimuli/Nonsocial4.png,stimuli/Social1.png,stimuli/Social2.png,stimuli/Nonsocial1.png,stimuli/Nonsocial2.png,cs_neg_ns,"(0.7, -0.5)",,,,,,,,,0,0,0,0,,,,,,,,,,,,,1,7,23,11,,,,,,,,,,,,,,,,,,,,,,,,,,,,,,,,,,755.1366413002834,45,loss,1,0.6596809001639485,0.6596856000833213,755.8032933999784,,,,,,,,,,,,,,,,,,,,,,11,C,2024-04-19_11h15.57.675,attentional_competition_task,2022.2.4,143.99884794680085,
positions.xlsx,positions_test.xlsx,positions_test_new.xlsx,stimuli.xlsx,stimuli_new.xlsx,stimuli/Social3.png,stimuli/Social4.png,stimuli/Nonsocial3.png,stimuli/Nonsocial4.png,stimuli/Social1.png,stimuli/Social2.png,stimuli/Nonsocial1.png,stimuli/Nonsocial2.png,cs_pos_s,"(0.7, -0.5)",,,,,,,,,0,0,0,0,,,,,,,,,,,,,1,8,24,7,,,,,,,,,,,,,,,,,,,,,,,,,,,,,,,,,,762.6363483001478,48,reward,1,0.6253808997571468,0.6323719997890294,763.2751861000434,,,,,,,,,,,,,,,,,,,,,,11,C,2024-04-19_11h15.57.675,attentional_competition_task,2022.2.4,143.99884794680085,
positions.xlsx,positions_test.xlsx,positions_test_new.xlsx,stimuli.xlsx,stimuli_new.xlsx,stimuli/Social3.png,stimuli/Social4.png,stimuli/Nonsocial3.png,stimuli/Nonsocial4.png,stimuli/Social1.png,stimuli/Social2.png,stimuli/Nonsocial1.png,stimuli/Nonsocial2.png,cs_neg_ns,"(-0.7, 0.5)",,,,,,,,,0,0,0,0,,,,,,,,,,,,,1,9,25,8,,,,,,,,,,,,,,,,,,,,,,,,,,,,,,,,,,770.7470833999105,48,none,0,,,773.7608730001375,,,,,,,,,,,,,,,,,,,,,,11,C,2024-04-19_11h15.57.675,attentional_competition_task,2022.2.4,143.99884794680085,
positions.xlsx,positions_test.xlsx,positions_test_new.xlsx,stimuli.xlsx,stimuli_new.xlsx,stimuli/Social3.png,stimuli/Social4.png,stimuli/Nonsocial3.png,stimuli/Nonsocial4.png,stimuli/Social1.png,stimuli/Social2.png,stimuli/Nonsocial1.png,stimuli/Nonsocial2.png,cs_neg_s,"(-0.7, 0.5)",,,,,,,,,0,0,0,0,,,,,,,,,,,,,1,10,26,0,,,,,,,,,,,,,,,,,,,,,,,,,,,,,,,,,,781.8785733999684,48,none,0,,,784.8854101998731,,,,,,,,,,,,,,,,,,,,,,11,C,2024-04-19_11h15.57.675,attentional_competition_task,2022.2.4,143.99884794680085,
positions.xlsx,positions_test.xlsx,positions_test_new.xlsx,stimuli.xlsx,stimuli_new.xlsx,stimuli/Social3.png,stimuli/Social4.png,stimuli/Nonsocial3.png,stimuli/Nonsocial4.png,stimuli/Social1.png,stimuli/Social2.png,stimuli/Nonsocial1.png,stimuli/Nonsocial2.png,cs_pos_s,"(-0.7, 0.5)",,,,,,,,,0,0,0,0,,,,,,,,,,,,,1,11,27,4,,,,,,,,,,,,,,,,,,,,,,,,,,,,,,,,,,792.0379224000499,51,reward,1,1.0628617000766098,1.0628662998788059,793.1073190001771,,,,,,,,,,,,,,,,,,,,,,11,C,2024-04-19_11h15.57.675,attentional_competition_task,2022.2.4,143.99884794680085,
positions.xlsx,positions_test.xlsx,positions_test_new.xlsx,stimuli.xlsx,stimuli_new.xlsx,stimuli/Social3.png,stimuli/Social4.png,stimuli/Nonsocial3.png,stimuli/Nonsocial4.png,stimuli/Social1.png,stimuli/Social2.png,stimuli/Nonsocial1.png,stimuli/Nonsocial2.png,cs_pos_s,"(-0.7, -0.5)",,,,,,,,,0,0,0,0,,,,,,,,,,,,,1,12,28,5,,,,,,,,,,,,,,,,,,,,,,,,,,,,,,,,,,801.25982009992,54,reward,1,0.5003547999076545,0.5003591999411583,801.7666770000942,,,,,,,,,,,,,,,,,,,,,,11,C,2024-04-19_11h15.57.675,attentional_competition_task,2022.2.4,143.99884794680085,
positions.xlsx,positions_test.xlsx,positions_test_new.xlsx,stimuli.xlsx,stimuli_new.xlsx,stimuli/Social3.png,stimuli/Social4.png,stimuli/Nonsocial3.png,stimuli/Nonsocial4.png,stimuli/Social1.png,stimuli/Social2.png,stimuli/Nonsocial1.png,stimuli/Nonsocial2.png,cs_neg_ns,"(0.7, 0.5)",,,,,,,,,0,0,0,0,,,,,,,,,,,,,1,13,29,10,,,,,,,,,,,,,,,,,,,,,,,,,,,,,,,,,,808.5580672002397,54,none,0,,,811.5718688000925,,,,,,,,,,,,,,,,,,,,,,11,C,2024-04-19_11h15.57.675,attentional_competition_task,2022.2.4,143.99884794680085,
positions.xlsx,positions_test.xlsx,positions_test_new.xlsx,stimuli.xlsx,stimuli_new.xlsx,stimuli/Social3.png,stimuli/Social4.png,stimuli/Nonsocial3.png,stimuli/Nonsocial4.png,stimuli/Social1.png,stimuli/Social2.png,stimuli/Nonsocial1.png,stimuli/Nonsocial2.png,cs_neg_ns,"(-0.7, -0.5)",,,,,,,,,0,0,0,0,,,,,,,,,,,,,1,14,30,9,,,,,,,,,,,,,,,,,,,,,,,,,,,,,,,,,,818.6757471002638,54,none,0,,,821.6894831000827,,,,,,,,,,,,,,,,,,,,,,11,C,2024-04-19_11h15.57.675,attentional_competition_task,2022.2.4,143.99884794680085,
positions.xlsx,positions_test.xlsx,positions_test_new.xlsx,stimuli.xlsx,stimuli_new.xlsx,stimuli/Social3.png,stimuli/Social4.png,stimuli/Nonsocial3.png,stimuli/Nonsocial4.png,stimuli/Social1.png,stimuli/Social2.png,stimuli/Nonsocial1.png,stimuli/Nonsocial2.png,cs_pos_ns,"(-0.7, 0.5)",,,,,,,,,0,0,0,0,,,,,,,,,,,,,1,15,31,12,,,,,,,,,,,,,,,,,,,,,,,,,,,,,,,,,,829.1059174002148,57,reward,1,0.2639851002022624,0.2640042002312839,829.3766989000142,,,,,,,,,,,,,,,,,,,,,,11,C,2024-04-19_11h15.57.675,attentional_competition_task,2022.2.4,143.99884794680085,
positions.xlsx,positions_test.xlsx,positions_test_new.xlsx,stimuli.xlsx,stimuli_new.xlsx,stimuli/Social3.png,stimuli/Social4.png,stimuli/Nonsocial3.png,stimuli/Nonsocial4.png,stimuli/Social1.png,stimuli/Social2.png,stimuli/Nonsocial1.png,stimuli/Nonsocial2.png,cs_neg_s,,,,,,,,,,0,0,0,0,,,,,,,,,,,,,,,,,0,0,0,0,,,,,,,,,,,,,,,,,,,,,,,834.2862579002976,6.0,6.241537599824369,,,,,,,,,,,,,,,,,,,,,,,,,,,,,,,,,11,C,2024-04-19_11h15.57.675,attentional_competition_task,2022.2.4,143.99884794680085,
positions.xlsx,positions_test.xlsx,positions_test_new.xlsx,stimuli.xlsx,stimuli_new.xlsx,stimuli/Social3.png,stimuli/Social4.png,stimuli/Nonsocial3.png,stimuli/Nonsocial4.png,stimuli/Social1.png,stimuli/Social2.png,stimuli/Nonsocial1.png,stimuli/Nonsocial2.png,cs_neg_ns,,,,,,,,,,0,0,0,0,,,,,,,,,,,,,,,,,0,1,1,1,,,,,,,,,,,,,,,,,,,,,,,841.7443010001443,3.0,2.3692590999417007,,,,,,,,,,,,,,,,,,,,,,,,,,,,,,,,,11,C,2024-04-19_11h15.57.675,attentional_competition_task,2022.2.4,143.99884794680085,
positions.xlsx,positions_test.xlsx,positions_test_new.xlsx,stimuli.xlsx,stimuli_new.xlsx,stimuli/Social3.png,stimuli/Social4.png,stimuli/Nonsocial3.png,stimuli/Nonsocial4.png,stimuli/Social1.png,stimuli/Social2.png,stimuli/Nonsocial1.png,stimuli/Nonsocial2.png,cs_pos_ns,,,,,,,,,,0,0,0,0,,,,,,,,,,,,,,,,,0,2,2,3,,,,,,,,,,,,,,,,,,,,,,,844.6399913001806,8.0,2.161004099994898,,,,,,,,,,,,,,,,,,,,,,,,,,,,,,,,,11,C,2024-04-19_11h15.57.675,attentional_competition_task,2022.2.4,143.99884794680085,
positions.xlsx,positions_test.xlsx,positions_test_new.xlsx,stimuli.xlsx,stimuli_new.xlsx,stimuli/Social3.png,stimuli/Social4.png,stimuli/Nonsocial3.png,stimuli/Nonsocial4.png,stimuli/Social1.png,stimuli/Social2.png,stimuli/Nonsocial1.png,stimuli/Nonsocial2.png,cs_pos_s,,,,,,,,,,0,0,0,0,,,,,,,,,,,,,,,,,0,3,3,2,,,,,,,,,,,,,,,,,,,,,,,847.0079601998441,6.0,2.0850583999417722,,,,,,,,,,,,,,,,,,,,,,,,,,,,,,,,,11,C,2024-04-19_11h15.57.675,attentional_competition_task,2022.2.4,143.99884794680085,
positions.xlsx,positions_test.xlsx,positions_test_new.xlsx,stimuli.xlsx,stimuli_new.xlsx,stimuli/Social3.png,stimuli/Social4.png,stimuli/Nonsocial3.png,stimuli/Nonsocial4.png,stimuli/Social1.png,stimuli/Social2.png,stimuli/Nonsocial1.png,stimuli/Nonsocial2.png,,,"(-0.7, -0.5)",cs_neg_ns,"(-0.7, 0.5)",cs_neg_s,"(0.7, -0.5)",cs_pos_ns,"(0.7, 0.5)",cs_pos_s,0,0,0,0,,,,,,,,,,,,,,,,,,,,,0,0,0,15,,,,,,,,,,,,,,,,,,,,,,,,,,,66,reward,,,,,849.5008894000202,856.3617222001776,856.3617222001776,856.3617222001776,856.3617222001776,0,,,0,,,0,,,0,,,856.9450385002419,856.9450385002419,856.9450385002419,856.9450385002419,11,C,2024-04-19_11h15.57.675,attentional_competition_task,2022.2.4,143.99884794680085,
positions.xlsx,positions_test.xlsx,positions_test_new.xlsx,stimuli.xlsx,stimuli_new.xlsx,stimuli/Social3.png,stimuli/Social4.png,stimuli/Nonsocial3.png,stimuli/Nonsocial4.png,stimuli/Social1.png,stimuli/Social2.png,stimuli/Nonsocial1.png,stimuli/Nonsocial2.png,,,"(-0.7, -0.5)",cs_neg_s,"(-0.7, 0.5)",cs_neg_ns,"(0.7, -0.5)",cs_pos_s,"(0.7, 0.5)",cs_pos_ns,0,0,0,0,,,,,,,,,,,,,,,,,,,,,0,1,1,2,,,,,,,,,,,,,,,,,,,,,,,,,,,72,reward,,,,,,864.6322230002843,864.6322230002843,864.6322230002843,864.6322230002843,0,,,0,,,1,0.03113099979236722,0.07986239995807409,1,0.09354430017992854,0.09354849997907877,864.7225536000915,864.7225536000915,864.7225536000915,864.7225536000915,11,C,2024-04-19_11h15.57.675,attentional_competition_task,2022.2.4,143.99884794680085,
positions.xlsx,positions_test.xlsx,positions_test_new.xlsx,stimuli.xlsx,stimuli_new.xlsx,stimuli/Social3.png,stimuli/Social4.png,stimuli/Nonsocial3.png,stimuli/Nonsocial4.png,stimuli/Social1.png,stimuli/Social2.png,stimuli/Nonsocial1.png,stimuli/Nonsocial2.png,,,"(-0.7, -0.5)",cs_pos_s,"(-0.7, 0.5)",cs_pos_ns,"(0.7, -0.5)",cs_neg_ns,"(0.7, 0.5)",cs_neg_s,0,0,0,0,,,,,,,,,,,,,,,,,,,,,0,2,2,11,,,,,,,,,,,,,,,,,,,,,,,,,,,81,reward,,,,,,873.7499803998508,873.7499803998508,873.7499803998508,873.7499803998508,0,,,0,,,0,,,0,,,873.7499803998508,873.7499803998508,873.7499803998508,873.7499803998508,11,C,2024-04-19_11h15.57.675,attentional_competition_task,2022.2.4,143.99884794680085,
positions.xlsx,positions_test.xlsx,positions_test_new.xlsx,stimuli.xlsx,stimuli_new.xlsx,stimuli/Social3.png,stimuli/Social4.png,stimuli/Nonsocial3.png,stimuli/Nonsocial4.png,stimuli/Social1.png,stimuli/Social2.png,stimuli/Nonsocial1.png,stimuli/Nonsocial2.png,,,"(-0.7, -0.5)",cs_pos_ns,"(-0.7, 0.5)",cs_neg_ns,"(0.7, -0.5)",cs_pos_s,"(0.7, 0.5)",cs_neg_s,0,0,0,0,,,,,,,,,,,,,,,,,,,,,0,3,3,20,,,,,,,,,,,,,,,,,,,,,,,,,,,81,loss,,,,,,881.2912865001708,881.2912865001708,881.2912865001708,881.2912865001708,0,,,1,0.4542361996136606,0.4542410997673869,1,0.029990199953317642,0.36442189989611506,0,,,881.7496886998415,881.7496886998415,881.7496886998415,881.7496886998415,11,C,2024-04-19_11h15.57.675,attentional_competition_task,2022.2.4,143.99884794680085,
positions.xlsx,positions_test.xlsx,positions_test_new.xlsx,stimuli.xlsx,stimuli_new.xlsx,stimuli/Social3.png,stimuli/Social4.png,stimuli/Nonsocial3.png,stimuli/Nonsocial4.png,stimuli/Social1.png,stimuli/Social2.png,stimuli/Nonsocial1.png,stimuli/Nonsocial2.png,,,"(-0.7, -0.5)",cs_pos_s,"(-0.7, 0.5)",cs_pos_ns,"(0.7, -0.5)",cs_neg_s,"(0.7, 0.5)",cs_neg_ns,0,0,0,0,,,,,,,,,,,,,,,,,,,,,0,4,4,10,,,,,,,,,,,,,,,,,,,,,,,,,,,87,reward,,,,,,889.6937799002044,889.6937799002044,889.6937799002044,889.6937799002044,1,0.029144200030714273,0.45337209990248084,1,0.46070059994235635,0.4675606000237167,0,,,0,,,890.1590304998681,890.1590304998681,890.1590304998681,890.1590304998681,11,C,2024-04-19_11h15.57.675,attentional_competition_task,2022.2.4,143.99884794680085,
positions.xlsx,positions_test.xlsx,positions_test_new.xlsx,stimuli.xlsx,stimuli_new.xlsx,stimuli/Social3.png,stimuli/Social4.png,stimuli/Nonsocial3.png,stimuli/Nonsocial4.png,stimuli/Social1.png,stimuli/Social2.png,stimuli/Nonsocial1.png,stimuli/Nonsocial2.png,,,"(-0.7, -0.5)",cs_pos_s,"(-0.7, 0.5)",cs_neg_s,"(0.7, -0.5)",cs_pos_ns,"(0.7, 0.5)",cs_neg_ns,0,0,0,0,,,,,,,,,,,,,,,,,,,,,0,5,5,7,,,,,,,,,,,,,,,,,,,,,,,,,,,93,reward,,,,,,899.5614372002892,899.5614372002892,899.5614372002892,899.5614372002892,0,,,0,,,1,0.03004039963707328,0.030045100022107363,0,,,899.5614372002892,899.5614372002892,899.5614372002892,899.5614372002892,11,C,2024-04-19_11h15.57.675,attentional_competition_task,2022.2.4,143.99884794680085,
positions.xlsx,positions_test.xlsx,positions_test_new.xlsx,stimuli.xlsx,stimuli_new.xlsx,stimuli/Social3.png,stimuli/Social4.png,stimuli/Nonsocial3.png,stimuli/Nonsocial4.png,stimuli/Social1.png,stimuli/Social2.png,stimuli/Nonsocial1.png,stimuli/Nonsocial2.png,,,"(-0.7, -0.5)",cs_pos_ns,"(-0.7, 0.5)",cs_neg_s,"(0.7, -0.5)",cs_pos_s,"(0.7, 0.5)",cs_neg_ns,0,0,0,0,,,,,,,,,,,,,,,,,,,,,0,6,6,22,,,,,,,,,,,,,,,,,,,,,,,,,,,102,reward,,,,,,908.56110920012,908.56110920012,908.56110920012,908.56110920012,1,0.028533699922263622,0.42547360016033053,0,,,0,,,0,,,909.4915992999449,909.4915992999449,909.4915992999449,909.4915992999449,11,C,2024-04-19_11h15.57.675,attentional_competition_task,2022.2.4,143.99884794680085,
positions.xlsx,positions_test.xlsx,positions_test_new.xlsx,stimuli.xlsx,stimuli_new.xlsx,stimuli/Social3.png,stimuli/Social4.png,stimuli/Nonsocial3.png,stimuli/Nonsocial4.png,stimuli/Social1.png,stimuli/Social2.png,stimuli/Nonsocial1.png,stimuli/Nonsocial2.png,,,"(-0.7, -0.5)",cs_neg_ns,"(-0.7, 0.5)",cs_pos_ns,"(0.7, -0.5)",cs_neg_s,"(0.7, 0.5)",cs_pos_s,0,0,0,0,,,,,,,,,,,,,,,,,,,,,0,7,7,17,,,,,,,,,,,,,,,,,,,,,,,,,,,99,loss,,,,,,917.4287570999004,917.4287570999004,917.4287570999004,917.4287570999004,1,0.024496200028806925,0.024500899948179722,0,,,0,,,0,,,917.4287570999004,917.4287570999004,917.4287570999004,917.4287570999004,11,C,2024-04-19_11h15.57.675,attentional_competition_task,2022.2.4,143.99884794680085,
positions.xlsx,positions_test.xlsx,positions_test_new.xlsx,stimuli.xlsx,stimuli_new.xlsx,stimuli/Social3.png,stimuli/Social4.png,stimuli/Nonsocial3.png,stimuli/Nonsocial4.png,stimuli/Social1.png,stimuli/Social2.png,stimuli/Nonsocial1.png,stimuli/Nonsocial2.png,,,"(-0.7, -0.5)",cs_pos_ns,"(-0.7, 0.5)",cs_pos_s,"(0.7, -0.5)",cs_neg_s,"(0.7, 0.5)",cs_neg_ns,0,0,0,0,,,,,,,,,,,,,,,,,,,,,0,8,8,19,,,,,,,,,,,,,,,,,,,,,,,,,,,105,reward,,,,,,925.5742655000649,925.5742655000649,925.5742655000649,925.5742655000649,0,,,1,0.030281799845397472,0.030286799650639296,0,,,0,,,925.5742655000649,925.5742655000649,925.5742655000649,925.5742655000649,11,C,2024-04-19_11h15.57.675,attentional_competition_task,2022.2.4,143.99884794680085,
positions.xlsx,positions_test.xlsx,positions_test_new.xlsx,stimuli.xlsx,stimuli_new.xlsx,stimuli/Social3.png,stimuli/Social4.png,stimuli/Nonsocial3.png,stimuli/Nonsocial4.png,stimuli/Social1.png,stimuli/Social2.png,stimuli/Nonsocial1.png,stimuli/Nonsocial2.png,,,"(-0.7, -0.5)",cs_neg_ns,"(-0.7, 0.5)",cs_pos_s,"(0.7, -0.5)",cs_pos_ns,"(0.7, 0.5)",cs_neg_s,0,0,0,0,,,,,,,,,,,,,,,,,,,,,0,9,9,13,,,,,,,,,,,,,,,,,,,,,,,,,,,108,reward,,,,,,933.525344800204,933.525344800204,933.525344800204,933.525344800204,0,,,0,,,1,0.029627699870616198,0.029631999786943197,0,,,933.525344800204,933.525344800204,933.525344800204,933.525344800204,11,C,2024-04-19_11h15.57.675,attentional_competition_task,2022.2.4,143.99884794680085,
positions.xlsx,positions_test.xlsx,positions_test_new.xlsx,stimuli.xlsx,stimuli_new.xlsx,stimuli/Social3.png,stimuli/Social4.png,stimuli/Nonsocial3.png,stimuli/Nonsocial4.png,stimuli/Social1.png,stimuli/Social2.png,stimuli/Nonsocial1.png,stimuli/Nonsocial2.png,,,"(-0.7, -0.5)",cs_neg_s,"(-0.7, 0.5)",cs_neg_ns,"(0.7, -0.5)",cs_pos_ns,"(0.7, 0.5)",cs_pos_s,0,0,0,0,,,,,,,,,,,,,,,,,,,,,0,10,10,3,,,,,,,,,,,,,,,,,,,,,,,,,,,117,reward,,,,,,943.1777572999708,943.1777572999708,943.1777572999708,943.1777572999708,0,,,0,,,1,0.030617899727076292,0.03062220010906458,0,,,943.1777572999708,943.1777572999708,943.1777572999708,943.1777572999708,11,C,2024-04-19_11h15.57.675,attentional_competition_task,2022.2.4,143.99884794680085,
positions.xlsx,positions_test.xlsx,positions_test_new.xlsx,stimuli.xlsx,stimuli_new.xlsx,stimuli/Social3.png,stimuli/Social4.png,stimuli/Nonsocial3.png,stimuli/Nonsocial4.png,stimuli/Social1.png,stimuli/Social2.png,stimuli/Nonsocial1.png,stimuli/Nonsocial2.png,,,"(-0.7, -0.5)",cs_neg_ns,"(-0.7, 0.5)",cs_pos_ns,"(0.7, -0.5)",cs_pos_s,"(0.7, 0.5)",cs_neg_s,0,0,0,0,,,,,,,,,,,,,,,,,,,,,0,11,11,16,,,,,,,,,,,,,,,,,,,,,,,,,,,126,reward,,,,,,951.6704334998503,951.6704334998503,951.6704334998503,951.6704334998503,0,,,1,0.023219299968332052,0.02322410000488162,0,,,0,,,951.6704334998503,951.6704334998503,951.6704334998503,951.6704334998503,11,C,2024-04-19_11h15.57.675,attentional_competition_task,2022.2.4,143.99884794680085,
positions.xlsx,positions_test.xlsx,positions_test_new.xlsx,stimuli.xlsx,stimuli_new.xlsx,stimuli/Social3.png,stimuli/Social4.png,stimuli/Nonsocial3.png,stimuli/Nonsocial4.png,stimuli/Social1.png,stimuli/Social2.png,stimuli/Nonsocial1.png,stimuli/Nonsocial2.png,,,"(-0.7, -0.5)",cs_pos_s,"(-0.7, 0.5)",cs_neg_ns,"(0.7, -0.5)",cs_pos_ns,"(0.7, 0.5)",cs_neg_s,0,0,0,0,,,,,,,,,,,,,,,,,,,,,0,12,12,9,,,,,,,,,,,,,,,,,,,,,,,,,,,129,reward,,,,,,959.4131845999509,959.4131845999509,959.4131845999509,959.4131845999509,0,,,0,,,1,0.025457600131630898,0.025462500285357237,0,,,959.4131845999509,959.4131845999509,959.4131845999509,959.4131845999509,11,C,2024-04-19_11h15.57.675,attentional_competition_task,2022.2.4,143.99884794680085,
positions.xlsx,positions_test.xlsx,positions_test_new.xlsx,stimuli.xlsx,stimuli_new.xlsx,stimuli/Social3.png,stimuli/Social4.png,stimuli/Nonsocial3.png,stimuli/Nonsocial4.png,stimuli/Social1.png,stimuli/Social2.png,stimuli/Nonsocial1.png,stimuli/Nonsocial2.png,,,"(-0.7, -0.5)",cs_pos_s,"(-0.7, 0.5)",cs_neg_s,"(0.7, -0.5)",cs_neg_ns,"(0.7, 0.5)",cs_pos_ns,0,0,0,0,,,,,,,,,,,,,,,,,,,,,0,13,13,6,,,,,,,,,,,,,,,,,,,,,,,,,,,135,reward,,,,,,966.7809350001626,966.7809350001626,966.7809350001626,966.7809350001626,1,0.029731400310993195,0.48157630022615194,0,,,0,,,1,0.55160679994151,0.5516114002093673,967.3364677000791,967.3364677000791,967.3364677000791,967.3364677000791,11,C,2024-04-19_11h15.57.675,attentional_competition_task,2022.2.4,143.99884794680085,
positions.xlsx,positions_test.xlsx,positions_test_new.xlsx,stimuli.xlsx,stimuli_new.xlsx,stimuli/Social3.png,stimuli/Social4.png,stimuli/Nonsocial3.png,stimuli/Nonsocial4.png,stimuli/Social1.png,stimuli/Social2.png,stimuli/Nonsocial1.png,stimuli/Nonsocial2.png,,,"(-0.7, -0.5)",cs_pos_ns,"(-0.7, 0.5)",cs_neg_ns,"(0.7, -0.5)",cs_neg_s,"(0.7, 0.5)",cs_pos_s,0,0,0,0,,,,,,,,,,,,,,,,,,,,,0,14,14,21,,,,,,,,,,,,,,,,,,,,,,,,,,,144,reward,,,,,,975.370902699884,975.370902699884,975.370902699884,975.370902699884,1,0.03296220023185015,0.28092290041968226,0,,,0,,,0,,,976.315276300069,976.315276300069,976.315276300069,976.315276300069,11,C,2024-04-19_11h15.57.675,attentional_competition_task,2022.2.4,143.99884794680085,
positions.xlsx,positions_test.xlsx,positions_test_new.xlsx,stimuli.xlsx,stimuli_new.xlsx,stimuli/Social3.png,stimuli/Social4.png,stimuli/Nonsocial3.png,stimuli/Nonsocial4.png,stimuli/Social1.png,stimuli/Social2.png,stimuli/Nonsocial1.png,stimuli/Nonsocial2.png,,,"(-0.7, -0.5)",cs_pos_s,"(-0.7, 0.5)",cs_neg_ns,"(0.7, -0.5)",cs_neg_s,"(0.7, 0.5)",cs_pos_ns,0,0,0,0,,,,,,,,,,,,,,,,,,,,,0,15,15,8,,,,,,,,,,,,,,,,,,,,,,,,,,,147,loss,,,,,,983.9539208002388,983.9539208002388,983.9539208002388,983.9539208002388,0,,,0,,,1,0.024583499878644943,0.024588500149548054,0,,,983.9539208002388,983.9539208002388,983.9539208002388,983.9539208002388,11,C,2024-04-19_11h15.57.675,attentional_competition_task,2022.2.4,143.99884794680085,
positions.xlsx,positions_test.xlsx,positions_test_new.xlsx,stimuli.xlsx,stimuli_new.xlsx,stimuli/Social3.png,stimuli/Social4.png,stimuli/Nonsocial3.png,stimuli/Nonsocial4.png,stimuli/Social1.png,stimuli/Social2.png,stimuli/Nonsocial1.png,stimuli/Nonsocial2.png,,,"(-0.7, -0.5)",cs_neg_s,"(-0.7, 0.5)",cs_pos_s,"(0.7, -0.5)",cs_pos_ns,"(0.7, 0.5)",cs_neg_ns,0,0,0,0,,,,,,,,,,,,,,,,,,,,,0,16,16,1,,,,,,,,,,,,,,,,,,,,,,,,,,,150,reward,,,,,,993.4951424999163,993.4951424999163,993.4951424999163,993.4951424999163,0,,,0,,,1,0.03054889990016818,0.030553599819540977,0,,,993.4951424999163,993.4951424999163,993.4951424999163,993.4951424999163,11,C,2024-04-19_11h15.57.675,attentional_competition_task,2022.2.4,143.99884794680085,
positions.xlsx,positions_test.xlsx,positions_test_new.xlsx,stimuli.xlsx,stimuli_new.xlsx,stimuli/Social3.png,stimuli/Social4.png,stimuli/Nonsocial3.png,stimuli/Nonsocial4.png,stimuli/Social1.png,stimuli/Social2.png,stimuli/Nonsocial1.png,stimuli/Nonsocial2.png,,,"(-0.7, -0.5)",cs_neg_ns,"(-0.7, 0.5)",cs_neg_s,"(0.7, -0.5)",cs_pos_s,"(0.7, 0.5)",cs_pos_ns,0,0,0,0,,,,,,,,,,,,,,,,,,,,,0,17,17,14,,,,,,,,,,,,,,,,,,,,,,,,,,,159,reward,,,,,,1000.4740547998808,1000.4740547998808,1000.4740547998808,1000.4740547998808,0,,,0,,,0,,,0,,,1001.4462152002379,1001.4462152002379,1001.4462152002379,1001.4462152002379,11,C,2024-04-19_11h15.57.675,attentional_competition_task,2022.2.4,143.99884794680085,
positions.xlsx,positions_test.xlsx,positions_test_new.xlsx,stimuli.xlsx,stimuli_new.xlsx,stimuli/Social3.png,stimuli/Social4.png,stimuli/Nonsocial3.png,stimuli/Nonsocial4.png,stimuli/Social1.png,stimuli/Social2.png,stimuli/Nonsocial1.png,stimuli/Nonsocial2.png,,,"(-0.7, -0.5)",cs_pos_ns,"(-0.7, 0.5)",cs_pos_s,"(0.7, -0.5)",cs_neg_ns,"(0.7, 0.5)",cs_neg_s,0,0,0,0,,,,,,,,,,,,,,,,,,,,,0,18,18,18,,,,,,,,,,,,,,,,,,,,,,,,,,,168,reward,,,,,,1008.7306689000688,1008.7306689000688,1008.7306689000688,1008.7306689000688,1,0.02255869982764125,0.426428799983114,0,,,0,,,0,,,1009.6611665999517,1009.6611665999517,1009.6611665999517,1009.6611665999517,11,C,2024-04-19_11h15.57.675,attentional_competition_task,2022.2.4,143.99884794680085,
positions.xlsx,positions_test.xlsx,positions_test_new.xlsx,stimuli.xlsx,stimuli_new.xlsx,stimuli/Social3.png,stimuli/Social4.png,stimuli/Nonsocial3.png,stimuli/Nonsocial4.png,stimuli/Social1.png,stimuli/Social2.png,stimuli/Nonsocial1.png,stimuli/Nonsocial2.png,,,"(-0.7, -0.5)",cs_neg_s,"(-0.7, 0.5)",cs_pos_ns,"(0.7, -0.5)",cs_neg_ns,"(0.7, 0.5)",cs_pos_s,0,0,0,0,,,,,,,,,,,,,,,,,,,,,0,19,19,5,,,,,,,,,,,,,,,,,,,,,,,,,,,171,reward,,,,,,1016.4802780998871,1016.4802780998871,1016.4802780998871,1016.4802780998871,0,,,1,0.029312000144273043,0.029316300060600042,0,,,0,,,1016.4802780998871,1016.4802780998871,1016.4802780998871,1016.4802780998871,11,C,2024-04-19_11h15.57.675,attentional_competition_task,2022.2.4,143.99884794680085,
positions.xlsx,positions_test.xlsx,positions_test_new.xlsx,stimuli.xlsx,stimuli_new.xlsx,stimuli/Social3.png,stimuli/Social4.png,stimuli/Nonsocial3.png,stimuli/Nonsocial4.png,stimuli/Social1.png,stimuli/Social2.png,stimuli/Nonsocial1.png,stimuli/Nonsocial2.png,,,"(-0.7, -0.5)",cs_pos_ns,"(-0.7, 0.5)",cs_neg_s,"(0.7, -0.5)",cs_neg_ns,"(0.7, 0.5)",cs_pos_s,0,0,0,0,,,,,,,,,,,,,,,,,,,,,0,20,20,23,,,,,,,,,,,,,,,,,,,,,,,,,,,180,reward,,,,,,1024.9938432001509,1024.9938432001509,1024.9938432001509,1024.9938432001509,1,0.03106909990310669,0.4052485995925963,0,,,0,,,0,,,1025.8966481001116,1025.8966481001116,1025.8966481001116,1025.8966481001116,11,C,2024-04-19_11h15.57.675,attentional_competition_task,2022.2.4,143.99884794680085,
positions.xlsx,positions_test.xlsx,positions_test_new.xlsx,stimuli.xlsx,stimuli_new.xlsx,stimuli/Social3.png,stimuli/Social4.png,stimuli/Nonsocial3.png,stimuli/Nonsocial4.png,stimuli/Social1.png,stimuli/Social2.png,stimuli/Nonsocial1.png,stimuli/Nonsocial2.png,,,"(-0.7, -0.5)",cs_neg_s,"(-0.7, 0.5)",cs_pos_s,"(0.7, -0.5)",cs_neg_ns,"(0.7, 0.5)",cs_pos_ns,0,0,0,0,,,,,,,,,,,,,,,,,,,,,0,21,21,0,,,,,,,,,,,,,,,,,,,,,,,,,,,189,reward,,,,,,1033.4726859000511,1033.4726859000511,1033.4726859000511,1033.4726859000511,0,,,0,,,0,,,1,0.02515079965814948,0.21155079966410995,1034.1879655001685,1034.1879655001685,1034.1879655001685,1034.1879655001685,11,C,2024-04-19_11h15.57.675,attentional_competition_task,2022.2.4,143.99884794680085,
positions.xlsx,positions_test.xlsx,positions_test_new.xlsx,stimuli.xlsx,stimuli_new.xlsx,stimuli/Social3.png,stimuli/Social4.png,stimuli/Nonsocial3.png,stimuli/Nonsocial4.png,stimuli/Social1.png,stimuli/Social2.png,stimuli/Nonsocial1.png,stimuli/Nonsocial2.png,,,"(-0.7, -0.5)",cs_neg_s,"(-0.7, 0.5)",cs_pos_ns,"(0.7, -0.5)",cs_pos_s,"(0.7, 0.5)",cs_neg_ns,0,0,0,0,,,,,,,,,,,,,,,,,,,,,0,22,22,4,,,,,,,,,,,,,,,,,,,,,,,,,,,192,reward,,,,,,1042.2432241002098,1042.2432241002098,1042.2432241002098,1042.2432241002098,0,,,1,0.03070690017193556,0.030724700074642897,0,,,0,,,1042.2432241002098,1042.2432241002098,1042.2432241002098,1042.2432241002098,11,C,2024-04-19_11h15.57.675,attentional_competition_task,2022.2.4,143.99884794680085,
positions.xlsx,positions_test.xlsx,positions_test_new.xlsx,stimuli.xlsx,stimuli_new.xlsx,stimuli/Social3.png,stimuli/Social4.png,stimuli/Nonsocial3.png,stimuli/Nonsocial4.png,stimuli/Social1.png,stimuli/Social2.png,stimuli/Nonsocial1.png,stimuli/Nonsocial2.png,,,"(-0.7, -0.5)",cs_neg_ns,"(-0.7, 0.5)",cs_pos_s,"(0.7, -0.5)",cs_neg_s,"(0.7, 0.5)",cs_pos_ns,0,0,0,0,,,,,,,,,,,,,,,,,,,,,0,23,23,12,,,,,,,,,,,,,,,,,,,,,,,,,,,201,reward,,,,,,1051.0344747998752,1051.0344747998752,1051.0344747998752,1051.0344747998752,0,,,0,,,0,,,1,0.031000100076198578,0.47527729999274015,1052.0066784000956,1052.0066784000956,1052.0066784000956,1052.0066784000956,11,C,2024-04-19_11h15.57.675,attentional_competition_task,2022.2.4,143.99884794680085,
positions.xlsx,positions_test.xlsx,positions_test_new.xlsx,stimuli.xlsx,stimuli_new.xlsx,stimuli/Social3.png,stimuli/Social4.png,stimuli/Nonsocial3.png,stimuli/Nonsocial4.png,stimuli/Social1.png,stimuli/Social2.png,stimuli/Nonsocial1.png,stimuli/Nonsocial2.png,,,"(-0.7, -0.5)",cs_neg_ns,"(-0.7, 0.5)",cs_neg_s,"(0.7, -0.5)",cs_pos_s,"(0.7, 0.5)",cs_pos_ns,0,0,0,0,,,,,,,,,,,,,,,,,,,,,1,0,24,14,,,,,,,,,,,,,,,,,,,,,,,,,,,210,reward,,,,,,1059.6313477000222,1059.6313477000222,1059.6313477000222,1059.6313477000222,0,,,0,,,1,0.02979240007698536,0.2660942003130913,0,,,1060.395244400017,1060.395244400017,1060.395244400017,1060.395244400017,11,C,2024-04-19_11h15.57.675,attentional_competition_task,2022.2.4,143.99884794680085,
positions.xlsx,positions_test.xlsx,positions_test_new.xlsx,stimuli.xlsx,stimuli_new.xlsx,stimuli/Social3.png,stimuli/Social4.png,stimuli/Nonsocial3.png,stimuli/Nonsocial4.png,stimuli/Social1.png,stimuli/Social2.png,stimuli/Nonsocial1.png,stimuli/Nonsocial2.png,,,"(-0.7, -0.5)",cs_pos_s,"(-0.7, 0.5)",cs_pos_ns,"(0.7, -0.5)",cs_neg_s,"(0.7, 0.5)",cs_neg_ns,0,0,0,0,,,,,,,,,,,,,,,,,,,,,1,1,25,10,,,,,,,,,,,,,,,,,,,,,,,,,,,219,reward,,,,,,1068.2282505002804,1068.2282505002804,1068.2282505002804,1068.2282505002804,0,,,0,,,1,0.3763556997291744,0.37636089976876974,0,,,1069.1101696998812,1069.1101696998812,1069.1101696998812,1069.1101696998812,11,C,2024-04-19_11h15.57.675,attentional_competition_task,2022.2.4,143.99884794680085,
positions.xlsx,positions_test.xlsx,positions_test_new.xlsx,stimuli.xlsx,stimuli_new.xlsx,stimuli/Social3.png,stimuli/Social4.png,stimuli/Nonsocial3.png,stimuli/Nonsocial4.png,stimuli/Social1.png,stimuli/Social2.png,stimuli/Nonsocial1.png,stimuli/Nonsocial2.png,,,"(-0.7, -0.5)",cs_neg_ns,"(-0.7, 0.5)",cs_pos_ns,"(0.7, -0.5)",cs_neg_s,"(0.7, 0.5)",cs_pos_s,0,0,0,0,,,,,,,,,,,,,,,,,,,,,1,2,26,17,,,,,,,,,,,,,,,,,,,,,,,,,,,222,loss,,,,,,1076.0057051000185,1076.0057051000185,1076.0057051000185,1076.0057051000185,0,,,0,,,1,0.07314699981361628,0.07315200008451939,1,0.02402939973399043,0.059953199699521065,1076.0820814999752,1076.0820814999752,1076.0820814999752,1076.0820814999752,11,C,2024-04-19_11h15.57.675,attentional_competition_task,2022.2.4,143.99884794680085,
positions.xlsx,positions_test.xlsx,positions_test_new.xlsx,stimuli.xlsx,stimuli_new.xlsx,stimuli/Social3.png,stimuli/Social4.png,stimuli/Nonsocial3.png,stimuli/Nonsocial4.png,stimuli/Social1.png,stimuli/Social2.png,stimuli/Nonsocial1.png,stimuli/Nonsocial2.png,,,"(-0.7, -0.5)",cs_neg_ns,"(-0.7, 0.5)",cs_neg_s,"(0.7, -0.5)",cs_pos_ns,"(0.7, 0.5)",cs_pos_s,0,0,0,0,,,,,,,,,,,,,,,,,,,,,1,3,27,15,,,,,,,,,,,,,,,,,,,,,,,,,,,225,reward,,,,,,1084.1373886000365,1084.1373886000365,1084.1373886000365,1084.1373886000365,0,,,0,,,1,0.023316199891269207,0.023321100044995546,0,,,1084.1373886000365,1084.1373886000365,1084.1373886000365,1084.1373886000365,11,C,2024-04-19_11h15.57.675,attentional_competition_task,2022.2.4,143.99884794680085,
positions.xlsx,positions_test.xlsx,positions_test_new.xlsx,stimuli.xlsx,stimuli_new.xlsx,stimuli/Social3.png,stimuli/Social4.png,stimuli/Nonsocial3.png,stimuli/Nonsocial4.png,stimuli/Social1.png,stimuli/Social2.png,stimuli/Nonsocial1.png,stimuli/Nonsocial2.png,,,"(-0.7, -0.5)",cs_pos_ns,"(-0.7, 0.5)",cs_pos_s,"(0.7, -0.5)",cs_neg_ns,"(0.7, 0.5)",cs_neg_s,0,0,0,0,,,,,,,,,,,,,,,,,,,,,1,4,28,18,,,,,,,,,,,,,,,,,,,,,,,,,,,228,reward,,,,,,1092.3314213999547,1092.3314213999547,1092.3314213999547,1092.3314213999547,1,0.08690980030223727,0.08691469999030232,0,,,0,,,0,,,1092.4147947998717,1092.4147947998717,1092.4147947998717,1092.4147947998717,11,C,2024-04-19_11h15.57.675,attentional_competition_task,2022.2.4,143.99884794680085,
positions.xlsx,positions_test.xlsx,positions_test_new.xlsx,stimuli.xlsx,stimuli_new.xlsx,stimuli/Social3.png,stimuli/Social4.png,stimuli/Nonsocial3.png,stimuli/Nonsocial4.png,stimuli/Social1.png,stimuli/Social2.png,stimuli/Nonsocial1.png,stimuli/Nonsocial2.png,,,"(-0.7, -0.5)",cs_pos_s,"(-0.7, 0.5)",cs_neg_ns,"(0.7, -0.5)",cs_neg_s,"(0.7, 0.5)",cs_pos_ns,0,0,0,0,,,,,,,,,,,,,,,,,,,,,1,5,29,8,,,,,,,,,,,,,,,,,,,,,,,,,,,228,reward,,,,,,1101.4908153000288,1101.4908153000288,1101.4908153000288,1101.4908153000288,1,0.030080900061875582,0.03008559998124838,0,,,0,,,0,,,1101.4908153000288,1101.4908153000288,1101.4908153000288,1101.4908153000288,11,C,2024-04-19_11h15.57.675,attentional_competition_task,2022.2.4,143.99884794680085,
positions.xlsx,positions_test.xlsx,positions_test_new.xlsx,stimuli.xlsx,stimuli_new.xlsx,stimuli/Social3.png,stimuli/Social4.png,stimuli/Nonsocial3.png,stimuli/Nonsocial4.png,stimuli/Social1.png,stimuli/Social2.png,stimuli/Nonsocial1.png,stimuli/Nonsocial2.png,,,"(-0.7, -0.5)",cs_neg_ns,"(-0.7, 0.5)",cs_pos_s,"(0.7, -0.5)",cs_neg_s,"(0.7, 0.5)",cs_pos_ns,0,0,0,0,,,,,,,,,,,,,,,,,,,,,1,6,30,12,,,,,,,,,,,,,,,,,,,,,,,,,,,231,loss,,,,,,1108.886403299868,1108.886403299868,1108.886403299868,1108.886403299868,0,,,0,,,1,0.02716229995712638,0.027166900224983692,0,,,1108.886403299868,1108.886403299868,1108.886403299868,1108.886403299868,11,C,2024-04-19_11h15.57.675,attentional_competition_task,2022.2.4,143.99884794680085,
positions.xlsx,positions_test.xlsx,positions_test_new.xlsx,stimuli.xlsx,stimuli_new.xlsx,stimuli/Social3.png,stimuli/Social4.png,stimuli/Nonsocial3.png,stimuli/Nonsocial4.png,stimuli/Social1.png,stimuli/Social2.png,stimuli/Nonsocial1.png,stimuli/Nonsocial2.png,,,"(-0.7, -0.5)",cs_pos_ns,"(-0.7, 0.5)",cs_neg_s,"(0.7, -0.5)",cs_neg_ns,"(0.7, 0.5)",cs_pos_s,0,0,0,0,,,,,,,,,,,,,,,,,,,,,1,7,31,23,,,,,,,,,,,,,,,,,,,,,,,,,,,234,reward,,,,,,1117.8581944000907,1117.8581944000907,1117.8581944000907,1117.8581944000907,0,,,0,,,0,,,1,0.029686300083994865,0.02969089988619089,1117.8581944000907,1117.8581944000907,1117.8581944000907,1117.8581944000907,11,C,2024-04-19_11h15.57.675,attentional_competition_task,2022.2.4,143.99884794680085,
positions.xlsx,positions_test.xlsx,positions_test_new.xlsx,stimuli.xlsx,stimuli_new.xlsx,stimuli/Social3.png,stimuli/Social4.png,stimuli/Nonsocial3.png,stimuli/Nonsocial4.png,stimuli/Social1.png,stimuli/Social2.png,stimuli/Nonsocial1.png,stimuli/Nonsocial2.png,,,"(-0.7, -0.5)",cs_neg_ns,"(-0.7, 0.5)",cs_pos_ns,"(0.7, -0.5)",cs_pos_s,"(0.7, 0.5)",cs_neg_s,0,0,0,0,,,,,,,,,,,,,,,,,,,,,1,8,32,16,,,,,,,,,,,,,,,,,,,,,,,,,,,240,reward,,,,,,1124.9343110001646,1124.9343110001646,1124.9343110001646,1124.9343110001646,0,,,1,0.5929288999177516,0.5929336999543011,1,0.030817999970167875,0.41928489971905947,0,,,1125.5245473003015,1125.5245473003015,1125.5245473003015,1125.5245473003015,11,C,2024-04-19_11h15.57.675,attentional_competition_task,2022.2.4,143.99884794680085,
positions.xlsx,positions_test.xlsx,positions_test_new.xlsx,stimuli.xlsx,stimuli_new.xlsx,stimuli/Social3.png,stimuli/Social4.png,stimuli/Nonsocial3.png,stimuli/Nonsocial4.png,stimuli/Social1.png,stimuli/Social2.png,stimuli/Nonsocial1.png,stimuli/Nonsocial2.png,,,"(-0.7, -0.5)",cs_neg_s,"(-0.7, 0.5)",cs_pos_ns,"(0.7, -0.5)",cs_neg_ns,"(0.7, 0.5)",cs_pos_s,0,0,0,0,,,,,,,,,,,,,,,,,,,,,1,9,33,5,,,,,,,,,,,,,,,,,,,,,,,,,,,243,loss,,,,,,1134.76028890023,1134.76028890023,1134.76028890023,1134.76028890023,1,0.02301180036738515,0.023015800397843122,0,,,0,,,0,,,1134.76028890023,1134.76028890023,1134.76028890023,1134.76028890023,11,C,2024-04-19_11h15.57.675,attentional_competition_task,2022.2.4,143.99884794680085,
positions.xlsx,positions_test.xlsx,positions_test_new.xlsx,stimuli.xlsx,stimuli_new.xlsx,stimuli/Social3.png,stimuli/Social4.png,stimuli/Nonsocial3.png,stimuli/Nonsocial4.png,stimuli/Social1.png,stimuli/Social2.png,stimuli/Nonsocial1.png,stimuli/Nonsocial2.png,,,"(-0.7, -0.5)",cs_pos_ns,"(-0.7, 0.5)",cs_neg_ns,"(0.7, -0.5)",cs_neg_s,"(0.7, 0.5)",cs_pos_s,0,0,0,0,,,,,,,,,,,,,,,,,,,,,1,10,34,21,,,,,,,,,,,,,,,,,,,,,,,,,,,246,loss,,,,,,1143.780768699944,1143.780768699944,1143.780768699944,1143.780768699944,0,,,1,0.024695999920368195,0.02470069983974099,0,,,0,,,1143.780768699944,1143.780768699944,1143.780768699944,1143.780768699944,11,C,2024-04-19_11h15.57.675,attentional_competition_task,2022.2.4,143.99884794680085,
positions.xlsx,positions_test.xlsx,positions_test_new.xlsx,stimuli.xlsx,stimuli_new.xlsx,stimuli/Social3.png,stimuli/Social4.png,stimuli/Nonsocial3.png,stimuli/Nonsocial4.png,stimuli/Social1.png,stimuli/Social2.png,stimuli/Nonsocial1.png,stimuli/Nonsocial2.png,,,"(-0.7, -0.5)",cs_pos_s,"(-0.7, 0.5)",cs_pos_ns,"(0.7, -0.5)",cs_neg_ns,"(0.7, 0.5)",cs_neg_s,0,0,0,0,,,,,,,,,,,,,,,,,,,,,1,11,35,11,,,,,,,,,,,,,,,,,,,,,,,,,,,255,reward,,,,,,1152.5512573998421,1152.5512573998421,1152.5512573998421,1152.5512573998421,0,,,1,0.023445500060915947,0.427182300016284,0,,,0,,,1153.4818012001924,1153.4818012001924,1153.4818012001924,1153.4818012001924,11,C,2024-04-19_11h15.57.675,attentional_competition_task,2022.2.4,143.99884794680085,
positions.xlsx,positions_test.xlsx,positions_test_new.xlsx,stimuli.xlsx,stimuli_new.xlsx,stimuli/Social3.png,stimuli/Social4.png,stimuli/Nonsocial3.png,stimuli/Nonsocial4.png,stimuli/Social1.png,stimuli/Social2.png,stimuli/Nonsocial1.png,stimuli/Nonsocial2.png,,,"(-0.7, -0.5)",cs_pos_ns,"(-0.7, 0.5)",cs_pos_s,"(0.7, -0.5)",cs_neg_s,"(0.7, 0.5)",cs_neg_ns,0,0,0,0,,,,,,,,,,,,,,,,,,,,,1,12,36,19,,,,,,,,,,,,,,,,,,,,,,,,,,,264,reward,,,,,,1161.1134295999072,1161.1134295999072,1161.1134295999072,1161.1134295999072,0,,,1,0.022649199701845646,0.37113389978185296,0,,,0,,,1161.9953282000497,1161.9953282000497,1161.9953282000497,1161.9953282000497,11,C,2024-04-19_11h15.57.675,attentional_competition_task,2022.2.4,143.99884794680085,
positions.xlsx,positions_test.xlsx,positions_test_new.xlsx,stimuli.xlsx,stimuli_new.xlsx,stimuli/Social3.png,stimuli/Social4.png,stimuli/Nonsocial3.png,stimuli/Nonsocial4.png,stimuli/Social1.png,stimuli/Social2.png,stimuli/Nonsocial1.png,stimuli/Nonsocial2.png,,,"(-0.7, -0.5)",cs_pos_s,"(-0.7, 0.5)",cs_neg_ns,"(0.7, -0.5)",cs_pos_ns,"(0.7, 0.5)",cs_neg_s,0,0,0,0,,,,,,,,,,,,,,,,,,,,,1,13,37,9,,,,,,,,,,,,,,,,,,,,,,,,,,,273,reward,,,,,,1170.640845200047,1170.640845200047,1170.640845200047,1170.640845200047,0,,,0,,,1,0.029434400144964457,0.13265160005539656,0,,,1171.3561038998887,1171.3561038998887,1171.3561038998887,1171.3561038998887,11,C,2024-04-19_11h15.57.675,attentional_competition_task,2022.2.4,143.99884794680085,
positions.xlsx,positions_test.xlsx,positions_test_new.xlsx,stimuli.xlsx,stimuli_new.xlsx,stimuli/Social3.png,stimuli/Social4.png,stimuli/Nonsocial3.png,stimuli/Nonsocial4.png,stimuli/Social1.png,stimuli/Social2.png,stimuli/Nonsocial1.png,stimuli/Nonsocial2.png,,,"(-0.7, -0.5)",cs_neg_s,"(-0.7, 0.5)",cs_pos_ns,"(0.7, -0.5)",cs_pos_s,"(0.7, 0.5)",cs_neg_ns,0,0,0,0,,,,,,,,,,,,,,,,,,,,,1,14,38,4,,,,,,,,,,,,,,,,,,,,,,,,,,,282,reward,,,,,,1179.0640672999434,1179.0640672999434,1179.0640672999434,1179.0640672999434,1,0.12792540015652776,0.1347940000705421,1,0.023370600305497646,0.121227300260216,0,,,0,,,1179.7098656999879,1179.7098656999879,1179.7098656999879,1179.7098656999879,11,C,2024-04-19_11h15.57.675,attentional_competition_task,2022.2.4,143.99884794680085,
positions.xlsx,positions_test.xlsx,positions_test_new.xlsx,stimuli.xlsx,stimuli_new.xlsx,stimuli/Social3.png,stimuli/Social4.png,stimuli/Nonsocial3.png,stimuli/Nonsocial4.png,stimuli/Social1.png,stimuli/Social2.png,stimuli/Nonsocial1.png,stimuli/Nonsocial2.png,,,"(-0.7, -0.5)",cs_neg_s,"(-0.7, 0.5)",cs_pos_s,"(0.7, -0.5)",cs_neg_ns,"(0.7, 0.5)",cs_pos_ns,0,0,0,0,,,,,,,,,,,,,,,,,,,,,1,15,39,0,,,,,,,,,,,,,,,,,,,,,,,,,,,291,reward,,,,,,1187.4873645002954,1187.4873645002954,1187.4873645002954,1187.4873645002954,0,,,0,,,0,,,1,0.032163099851459265,0.26748509984463453,1188.2581752999686,1188.2581752999686,1188.2581752999686,1188.2581752999686,11,C,2024-04-19_11h15.57.675,attentional_competition_task,2022.2.4,143.99884794680085,
positions.xlsx,positions_test.xlsx,positions_test_new.xlsx,stimuli.xlsx,stimuli_new.xlsx,stimuli/Social3.png,stimuli/Social4.png,stimuli/Nonsocial3.png,stimuli/Nonsocial4.png,stimuli/Social1.png,stimuli/Social2.png,stimuli/Nonsocial1.png,stimuli/Nonsocial2.png,,,"(-0.7, -0.5)",cs_pos_s,"(-0.7, 0.5)",cs_neg_s,"(0.7, -0.5)",cs_pos_ns,"(0.7, 0.5)",cs_neg_ns,0,0,0,0,,,,,,,,,,,,,,,,,,,,,1,16,40,7,,,,,,,,,,,,,,,,,,,,,,,,,,,294,reward,,,,,,1195.8134113000706,1195.8134113000706,1195.8134113000706,1195.8134113000706,0,,,0,,,1,0.030671299900859594,0.030675800051540136,0,,,1195.8134113000706,1195.8134113000706,1195.8134113000706,1195.8134113000706,11,C,2024-04-19_11h15.57.675,attentional_competition_task,2022.2.4,143.99884794680085,
positions.xlsx,positions_test.xlsx,positions_test_new.xlsx,stimuli.xlsx,stimuli_new.xlsx,stimuli/Social3.png,stimuli/Social4.png,stimuli/Nonsocial3.png,stimuli/Nonsocial4.png,stimuli/Social1.png,stimuli/Social2.png,stimuli/Nonsocial1.png,stimuli/Nonsocial2.png,,,"(-0.7, -0.5)",cs_neg_ns,"(-0.7, 0.5)",cs_pos_s,"(0.7, -0.5)",cs_pos_ns,"(0.7, 0.5)",cs_neg_s,0,0,0,0,,,,,,,,,,,,,,,,,,,,,1,17,41,13,,,,,,,,,,,,,,,,,,,,,,,,,,,303,reward,,,,,,1205.1880629002117,1205.1880629002117,1205.1880629002117,1205.1880629002117,0,,,0,,,1,0.030213000252842903,0.26710240030661225,0,,,1205.951947499998,1205.951947499998,1205.951947499998,1205.951947499998,11,C,2024-04-19_11h15.57.675,attentional_competition_task,2022.2.4,143.99884794680085,
positions.xlsx,positions_test.xlsx,positions_test_new.xlsx,stimuli.xlsx,stimuli_new.xlsx,stimuli/Social3.png,stimuli/Social4.png,stimuli/Nonsocial3.png,stimuli/Nonsocial4.png,stimuli/Social1.png,stimuli/Social2.png,stimuli/Nonsocial1.png,stimuli/Nonsocial2.png,,,"(-0.7, -0.5)",cs_neg_s,"(-0.7, 0.5)",cs_pos_s,"(0.7, -0.5)",cs_pos_ns,"(0.7, 0.5)",cs_neg_ns,0,0,0,0,,,,,,,,,,,,,,,,,,,,,1,18,42,1,,,,,,,,,,,,,,,,,,,,,,,,,,,306,reward,,,,,,1214.0626560002565,1214.0626560002565,1214.0626560002565,1214.0626560002565,0,,,1,0.023700399789959192,0.02370519982650876,0,,,0,,,1214.0626560002565,1214.0626560002565,1214.0626560002565,1214.0626560002565,11,C,2024-04-19_11h15.57.675,attentional_competition_task,2022.2.4,143.99884794680085,
positions.xlsx,positions_test.xlsx,positions_test_new.xlsx,stimuli.xlsx,stimuli_new.xlsx,stimuli/Social3.png,stimuli/Social4.png,stimuli/Nonsocial3.png,stimuli/Nonsocial4.png,stimuli/Social1.png,stimuli/Social2.png,stimuli/Nonsocial1.png,stimuli/Nonsocial2.png,,,"(-0.7, -0.5)",cs_pos_s,"(-0.7, 0.5)",cs_neg_s,"(0.7, -0.5)",cs_neg_ns,"(0.7, 0.5)",cs_pos_ns,0,0,0,0,,,,,,,,,,,,,,,,,,,,,1,19,43,6,,,,,,,,,,,,,,,,,,,,,,,,,,,315,reward,,,,,,1222.4720990001224,1222.4720990001224,1222.4720990001224,1222.4720990001224,0,,,0,,,0,,,1,0.028565899934619665,0.11562700010836124,1223.0901492000557,1223.0901492000557,1223.0901492000557,1223.0901492000557,11,C,2024-04-19_11h15.57.675,attentional_competition_task,2022.2.4,143.99884794680085,
positions.xlsx,positions_test.xlsx,positions_test_new.xlsx,stimuli.xlsx,stimuli_new.xlsx,stimuli/Social3.png,stimuli/Social4.png,stimuli/Nonsocial3.png,stimuli/Nonsocial4.png,stimuli/Social1.png,stimuli/Social2.png,stimuli/Nonsocial1.png,stimuli/Nonsocial2.png,,,"(-0.7, -0.5)",cs_pos_ns,"(-0.7, 0.5)",cs_neg_s,"(0.7, -0.5)",cs_pos_s,"(0.7, 0.5)",cs_neg_ns,0,0,0,0,,,,,,,,,,,,,,,,,,,,,1,20,44,22,,,,,,,,,,,,,,,,,,,,,,,,,,,324,reward,,,,,,1231.0064711002633,1231.0064711002633,1231.0064711002633,1231.0064711002633,1,0.030680800322443247,0.14807530026882887,0,,,0,,,0,,,1231.9717369000427,1231.9717369000427,1231.9717369000427,1231.9717369000427,11,C,2024-04-19_11h15.57.675,attentional_competition_task,2022.2.4,143.99884794680085,
positions.xlsx,positions_test.xlsx,positions_test_new.xlsx,stimuli.xlsx,stimuli_new.xlsx,stimuli/Social3.png,stimuli/Social4.png,stimuli/Nonsocial3.png,stimuli/Nonsocial4.png,stimuli/Social1.png,stimuli/Social2.png,stimuli/Nonsocial1.png,stimuli/Nonsocial2.png,,,"(-0.7, -0.5)",cs_pos_ns,"(-0.7, 0.5)",cs_neg_ns,"(0.7, -0.5)",cs_pos_s,"(0.7, 0.5)",cs_neg_s,0,0,0,0,,,,,,,,,,,,,,,,,,,,,1,21,45,20,,,,,,,,,,,,,,,,,,,,,,,,,,,333,reward,,,,,,1239.0061066001654,1239.0061066001654,1239.0061066001654,1239.0061066001654,1,0.0232421001419425,0.0871675000526011,0,,,0,,,0,,,1239.8672144999728,1239.8672144999728,1239.8672144999728,1239.8672144999728,11,C,2024-04-19_11h15.57.675,attentional_competition_task,2022.2.4,143.99884794680085,
positions.xlsx,positions_test.xlsx,positions_test_new.xlsx,stimuli.xlsx,stimuli_new.xlsx,stimuli/Social3.png,stimuli/Social4.png,stimuli/Nonsocial3.png,stimuli/Nonsocial4.png,stimuli/Social1.png,stimuli/Social2.png,stimuli/Nonsocial1.png,stimuli/Nonsocial2.png,,,"(-0.7, -0.5)",cs_neg_s,"(-0.7, 0.5)",cs_neg_ns,"(0.7, -0.5)",cs_pos_s,"(0.7, 0.5)",cs_pos_ns,0,0,0,0,,,,,,,,,,,,,,,,,,,,,1,22,46,2,,,,,,,,,,,,,,,,,,,,,,,,,,,342,reward,,,,,,1246.658602700103,1246.658602700103,1246.658602700103,1246.658602700103,0,,,0,,,0,,,0,,,1247.5336150000803,1247.5336150000803,1247.5336150000803,1247.5336150000803,11,C,2024-04-19_11h15.57.675,attentional_competition_task,2022.2.4,143.99884794680085,
positions.xlsx,positions_test.xlsx,positions_test_new.xlsx,stimuli.xlsx,stimuli_new.xlsx,stimuli/Social3.png,stimuli/Social4.png,stimuli/Nonsocial3.png,stimuli/Nonsocial4.png,stimuli/Social1.png,stimuli/Social2.png,stimuli/Nonsocial1.png,stimuli/Nonsocial2.png,,,"(-0.7, -0.5)",cs_neg_s,"(-0.7, 0.5)",cs_neg_ns,"(0.7, -0.5)",cs_pos_ns,"(0.7, 0.5)",cs_pos_s,0,0,0,0,,,,,,,,,,,,,,,,,,,,,1,23,47,3,,,,,,,,,,,,,,,,,,,,,,,,,,,351,reward,,,,,,1255.51932880003,1255.51932880003,1255.51932880003,1255.51932880003,0,,,0,,,0,,,0,,,1256.3804665002972,1256.3804665002972,1256.3804665002972,1256.3804665002972,11,C,2024-04-19_11h15.57.675,attentional_competition_task,2022.2.4,143.99884794680085,
positions.xlsx,positions_test.xlsx,positions_test_new.xlsx,stimuli.xlsx,stimuli_new.xlsx,stimuli/Social3.png,stimuli/Social4.png,stimuli/Nonsocial3.png,stimuli/Nonsocial4.png,stimuli/Social1.png,stimuli/Social2.png,stimuli/Nonsocial1.png,stimuli/Nonsocial2.png,,,"(-0.7, -0.5)",cs_pos_s,"(-0.7, 0.5)",cs_pos_ns,"(0.7, -0.5)",cs_neg_ns,"(0.7, 0.5)",cs_neg_s,0,0,0,0,,,,,,,,,,,,,,,,,,,,,,,,,,,,,0,0,0,2,0,0,0,0,,,,,,,,,,,,,,,348,loss,,,,,,1262.49128070008,1262.49128070008,1262.49128070008,1262.49128070008,0,,,0,,,1,0.9399445001035929,0.9399496000260115,0,,,1263.4357084999792,1263.4357084999792,1263.4357084999792,1263.4357084999792,11,C,2024-04-19_11h15.57.675,attentional_competition_task,2022.2.4,143.99884794680085,
positions.xlsx,positions_test.xlsx,positions_test_new.xlsx,stimuli.xlsx,stimuli_new.xlsx,stimuli/Social3.png,stimuli/Social4.png,stimuli/Nonsocial3.png,stimuli/Nonsocial4.png,stimuli/Social1.png,stimuli/Social2.png,stimuli/Nonsocial1.png,stimuli/Nonsocial2.png,,,"(-0.7, -0.5)",cs_pos_s,"(-0.7, 0.5)",cs_pos_ns,"(0.7, -0.5)",cs_neg_ns,"(0.7, 0.5)",cs_neg_s,0,0,0,0,,,,,,,,,,,,,,,,,,,,,,,,,,,,,0,0,0,2,1,0,1,0,,,,,,,,,,,,,,,351,reward,,,,,,1263.963466499932,1263.963466499932,1263.963466499932,1263.963466499932,0,,,1,0.02806450007483363,0.028069099877029657,0,,,0,,,1263.963466499932,1263.963466499932,1263.963466499932,1263.963466499932,11,C,2024-04-19_11h15.57.675,attentional_competition_task,2022.2.4,143.99884794680085,
positions.xlsx,positions_test.xlsx,positions_test_new.xlsx,stimuli.xlsx,stimuli_new.xlsx,stimuli/Social3.png,stimuli/Social4.png,stimuli/Nonsocial3.png,stimuli/Nonsocial4.png,stimuli/Social1.png,stimuli/Social2.png,stimuli/Nonsocial1.png,stimuli/Nonsocial2.png,,,"(-0.7, -0.5)",cs_pos_s,"(-0.7, 0.5)",cs_pos_ns,"(0.7, -0.5)",cs_neg_ns,"(0.7, 0.5)",cs_neg_s,0,0,0,0,,,,,,,,,,,,,,,,,,,,,,,,,,,,,0,0,0,2,2,0,2,0,,,,,,,,,,,,,,,354,reward,,,,,,1264.9981402000412,1264.9981402000412,1264.9981402000412,1264.9981402000412,1,0.02526000002399087,0.02526440005749464,0,,,0,,,0,,,1264.9981402000412,1264.9981402000412,1264.9981402000412,1264.9981402000412,11,C,2024-04-19_11h15.57.675,attentional_competition_task,2022.2.4,143.99884794680085,
positions.xlsx,positions_test.xlsx,positions_test_new.xlsx,stimuli.xlsx,stimuli_new.xlsx,stimuli/Social3.png,stimuli/Social4.png,stimuli/Nonsocial3.png,stimuli/Nonsocial4.png,stimuli/Social1.png,stimuli/Social2.png,stimuli/Nonsocial1.png,stimuli/Nonsocial2.png,,,"(-0.7, -0.5)",cs_pos_s,"(-0.7, 0.5)",cs_pos_ns,"(0.7, -0.5)",cs_neg_ns,"(0.7, 0.5)",cs_neg_s,0,0,0,0,,,,,,,,,,,,,,,,,,,,,,,,,,,,,0,0,0,2,,,,,,,,,,,,,,,,,,,,,,,,,,,,,,,,,,,,,,,,,,,,,,11,C,2024-04-19_11h15.57.675,attentional_competition_task,2022.2.4,143.99884794680085,
positions.xlsx,positions_test.xlsx,positions_test_new.xlsx,stimuli.xlsx,stimuli_new.xlsx,stimuli/Social3.png,stimuli/Social4.png,stimuli/Nonsocial3.png,stimuli/Nonsocial4.png,stimuli/Social1.png,stimuli/Social2.png,stimuli/Nonsocial1.png,stimuli/Nonsocial2.png,,,"(-0.7, -0.5)",cs_neg_s,"(-0.7, 0.5)",cs_pos_s,"(0.7, -0.5)",cs_pos_ns,"(0.7, 0.5)",cs_neg_ns_new,0,0,0,0,,,,,,,,,,,,,,,,,,,,,,,,,,,,,0,1,1,21,0,0,0,0,,,,,,,,,,,,,,,357,reward,,,,,,1271.3243682002649,1271.3243682002649,1271.3243682002649,1271.3243682002649,0,,,1,0.9753316999413073,0.9753366000950336,0,,,0,,,1272.3103658999316,1272.3103658999316,1272.3103658999316,1272.3103658999316,11,C,2024-04-19_11h15.57.675,attentional_competition_task,2022.2.4,143.99884794680085,
positions.xlsx,positions_test.xlsx,positions_test_new.xlsx,stimuli.xlsx,stimuli_new.xlsx,stimuli/Social3.png,stimuli/Social4.png,stimuli/Nonsocial3.png,stimuli/Nonsocial4.png,stimuli/Social1.png,stimuli/Social2.png,stimuli/Nonsocial1.png,stimuli/Nonsocial2.png,,,"(-0.7, -0.5)",cs_neg_s,"(-0.7, 0.5)",cs_pos_s,"(0.7, -0.5)",cs_pos_ns,"(0.7, 0.5)",cs_neg_ns_new,0,0,0,0,,,,,,,,,,,,,,,,,,,,,,,,,,,,,0,1,1,21,1,0,1,0,,,,,,,,,,,,,,,354,loss,,,,,,1272.8380821999162,1272.8380821999162,1272.8380821999162,1272.8380821999162,0,,,0,,,0,,,1,0.02594870002940297,0.025953100062906742,1272.8380821999162,1272.8380821999162,1272.8380821999162,1272.8380821999162,11,C,2024-04-19_11h15.57.675,attentional_competition_task,2022.2.4,143.99884794680085,
positions.xlsx,positions_test.xlsx,positions_test_new.xlsx,stimuli.xlsx,stimuli_new.xlsx,stimuli/Social3.png,stimuli/Social4.png,stimuli/Nonsocial3.png,stimuli/Nonsocial4.png,stimuli/Social1.png,stimuli/Social2.png,stimuli/Nonsocial1.png,stimuli/Nonsocial2.png,,,"(-0.7, -0.5)",cs_neg_s,"(-0.7, 0.5)",cs_pos_s,"(0.7, -0.5)",cs_pos_ns,"(0.7, 0.5)",cs_neg_ns_new,0,0,0,0,,,,,,,,,,,,,,,,,,,,,,,,,,,,,0,1,1,21,,,,,,,,,,,,,,,,,,,,,,,,,,,,,,,,,,,,,,,,,,,,,,11,C,2024-04-19_11h15.57.675,attentional_competition_task,2022.2.4,143.99884794680085,
positions.xlsx,positions_test.xlsx,positions_test_new.xlsx,stimuli.xlsx,stimuli_new.xlsx,stimuli/Social3.png,stimuli/Social4.png,stimuli/Nonsocial3.png,stimuli/Nonsocial4.png,stimuli/Social1.png,stimuli/Social2.png,stimuli/Nonsocial1.png,stimuli/Nonsocial2.png,,,"(-0.7, -0.5)",cs_pos_s,"(-0.7, 0.5)",cs_pos_ns,"(0.7, -0.5)",cs_neg_ns_new,"(0.7, 0.5)",cs_neg_s,0,0,0,0,,,,,,,,,,,,,,,,,,,,,,,,,,,,,0,2,2,27,0,0,0,0,,,,,,,,,,,,,,,357,reward,,,,,,1280.115586699918,1280.115586699918,1280.115586699918,1280.115586699918,1,0.8006083001382649,0.8076011002995074,0,,,0,,,0,,,1280.9350427999161,1280.9350427999161,1280.9350427999161,1280.9350427999161,11,C,2024-04-19_11h15.57.675,attentional_competition_task,2022.2.4,143.99884794680085,
positions.xlsx,positions_test.xlsx,positions_test_new.xlsx,stimuli.xlsx,stimuli_new.xlsx,stimuli/Social3.png,stimuli/Social4.png,stimuli/Nonsocial3.png,stimuli/Nonsocial4.png,stimuli/Social1.png,stimuli/Social2.png,stimuli/Nonsocial1.png,stimuli/Nonsocial2.png,,,"(-0.7, -0.5)",cs_pos_s,"(-0.7, 0.5)",cs_pos_ns,"(0.7, -0.5)",cs_neg_ns_new,"(0.7, 0.5)",cs_neg_s,0,0,0,0,,,,,,,,,,,,,,,,,,,,,,,,,,,,,0,2,2,27,1,0,1,0,,,,,,,,,,,,,,,354,loss,,,,,,1281.4697118001059,1281.4697118001059,1281.4697118001059,1281.4697118001059,0,,,0,,,1,0.03170609986409545,0.03171089990064502,0,,,1281.4697118001059,1281.4697118001059,1281.4697118001059,1281.4697118001059,11,C,2024-04-19_11h15.57.675,attentional_competition_task,2022.2.4,143.99884794680085,
positions.xlsx,positions_test.xlsx,positions_test_new.xlsx,stimuli.xlsx,stimuli_new.xlsx,stimuli/Social3.png,stimuli/Social4.png,stimuli/Nonsocial3.png,stimuli/Nonsocial4.png,stimuli/Social1.png,stimuli/Social2.png,stimuli/Nonsocial1.png,stimuli/Nonsocial2.png,,,"(-0.7, -0.5)",cs_pos_s,"(-0.7, 0.5)",cs_pos_ns,"(0.7, -0.5)",cs_neg_ns_new,"(0.7, 0.5)",cs_neg_s,0,0,0,0,,,,,,,,,,,,,,,,,,,,,,,,,,,,,0,2,2,27,2,0,2,0,,,,,,,,,,,,,,,357,reward,,,,,,1282.0044177998789,1282.0044177998789,1282.0044177998789,1282.0044177998789,0,,,1,0.030013199895620346,0.03001839993521571,0,,,0,,,1282.0044177998789,1282.0044177998789,1282.0044177998789,1282.0044177998789,11,C,2024-04-19_11h15.57.675,attentional_competition_task,2022.2.4,143.99884794680085,
positions.xlsx,positions_test.xlsx,positions_test_new.xlsx,stimuli.xlsx,stimuli_new.xlsx,stimuli/Social3.png,stimuli/Social4.png,stimuli/Nonsocial3.png,stimuli/Nonsocial4.png,stimuli/Social1.png,stimuli/Social2.png,stimuli/Nonsocial1.png,stimuli/Nonsocial2.png,,,"(-0.7, -0.5)",cs_pos_s,"(-0.7, 0.5)",cs_pos_ns,"(0.7, -0.5)",cs_neg_ns_new,"(0.7, 0.5)",cs_neg_s,0,0,0,0,,,,,,,,,,,,,,,,,,,,,,,,,,,,,0,2,2,27,,,,,,,,,,,,,,,,,,,,,,,,,,,,,,,,,,,,,,,,,,,,,,11,C,2024-04-19_11h15.57.675,attentional_competition_task,2022.2.4,143.99884794680085,
positions.xlsx,positions_test.xlsx,positions_test_new.xlsx,stimuli.xlsx,stimuli_new.xlsx,stimuli/Social3.png,stimuli/Social4.png,stimuli/Nonsocial3.png,stimuli/Nonsocial4.png,stimuli/Social1.png,stimuli/Social2.png,stimuli/Nonsocial1.png,stimuli/Nonsocial2.png,,,"(-0.7, -0.5)",cs_pos_ns,"(-0.7, 0.5)",cs_neg_ns_new,"(0.7, -0.5)",cs_pos_s,"(0.7, 0.5)",cs_neg_s,0,0,0,0,,,,,,,,,,,,,,,,,,,,,,,,,,,,,0,3,3,20,0,0,0,0,,,,,,,,,,,,,,,360,reward,,,,,,1288.073613199871,1288.073613199871,1288.073613199871,1288.073613199871,0,,,0,,,1,0.54433359997347,0.5443381001241505,0,,,1288.6222319002263,1288.6222319002263,1288.6222319002263,1288.6222319002263,11,C,2024-04-19_11h15.57.675,attentional_competition_task,2022.2.4,143.99884794680085,
positions.xlsx,positions_test.xlsx,positions_test_new.xlsx,stimuli.xlsx,stimuli_new.xlsx,stimuli/Social3.png,stimuli/Social4.png,stimuli/Nonsocial3.png,stimuli/Nonsocial4.png,stimuli/Social1.png,stimuli/Social2.png,stimuli/Nonsocial1.png,stimuli/Nonsocial2.png,,,"(-0.7, -0.5)",cs_pos_ns,"(-0.7, 0.5)",cs_neg_ns_new,"(0.7, -0.5)",cs_pos_s,"(0.7, 0.5)",cs_neg_s,0,0,0,0,,,,,,,,,,,,,,,,,,,,,,,,,,,,,0,3,3,20,1,0,1,0,,,,,,,,,,,,,,,363,reward,,,,,,1289.1569043998607,1289.1569043998607,1289.1569043998607,1289.1569043998607,1,0.031178600154817104,0.031183499842882156,0,,,0,,,0,,,1289.1569043998607,1289.1569043998607,1289.1569043998607,1289.1569043998607,11,C,2024-04-19_11h15.57.675,attentional_competition_task,2022.2.4,143.99884794680085,
positions.xlsx,positions_test.xlsx,positions_test_new.xlsx,stimuli.xlsx,stimuli_new.xlsx,stimuli/Social3.png,stimuli/Social4.png,stimuli/Nonsocial3.png,stimuli/Nonsocial4.png,stimuli/Social1.png,stimuli/Social2.png,stimuli/Nonsocial1.png,stimuli/Nonsocial2.png,,,"(-0.7, -0.5)",cs_pos_ns,"(-0.7, 0.5)",cs_neg_ns_new,"(0.7, -0.5)",cs_pos_s,"(0.7, 0.5)",cs_neg_s,0,0,0,0,,,,,,,,,,,,,,,,,,,,,,,,,,,,,0,3,3,20,2,0,2,0,,,,,,,,,,,,,,,360,loss,,,,,,1289.6569027998485,1289.6569027998485,1289.6569027998485,1289.6569027998485,1,0.02713409997522831,0.0973475999198854,0,,,0,,,1,0.33479239977896214,0.33479740004986525,1289.9971296000294,1289.9971296000294,1289.9971296000294,1289.9971296000294,11,C,2024-04-19_11h15.57.675,attentional_competition_task,2022.2.4,143.99884794680085,
positions.xlsx,positions_test.xlsx,positions_test_new.xlsx,stimuli.xlsx,stimuli_new.xlsx,stimuli/Social3.png,stimuli/Social4.png,stimuli/Nonsocial3.png,stimuli/Nonsocial4.png,stimuli/Social1.png,stimuli/Social2.png,stimuli/Nonsocial1.png,stimuli/Nonsocial2.png,,,"(-0.7, -0.5)",cs_pos_ns,"(-0.7, 0.5)",cs_neg_ns_new,"(0.7, -0.5)",cs_pos_s,"(0.7, 0.5)",cs_neg_s,0,0,0,0,,,,,,,,,,,,,,,,,,,,,,,,,,,,,0,3,3,20,,,,,,,,,,,,,,,,,,,,,,,,,,,,,,,,,,,,,,,,,,,,,,11,C,2024-04-19_11h15.57.675,attentional_competition_task,2022.2.4,143.99884794680085,
positions.xlsx,positions_test.xlsx,positions_test_new.xlsx,stimuli.xlsx,stimuli_new.xlsx,stimuli/Social3.png,stimuli/Social4.png,stimuli/Nonsocial3.png,stimuli/Nonsocial4.png,stimuli/Social1.png,stimuli/Social2.png,stimuli/Nonsocial1.png,stimuli/Nonsocial2.png,,,"(-0.7, -0.5)",cs_neg_ns,"(-0.7, 0.5)",cs_neg_s,"(0.7, -0.5)",cs_pos_s,"(0.7, 0.5)",cs_pos_ns,0,0,0,0,,,,,,,,,,,,,,,,,,,,,,,,,,,,,0,4,4,3,0,0,0,0,,,,,,,,,,,,,,,363,reward,,,,,,1296.6079782000743,1296.6079782000743,1296.6079782000743,1296.6079782000743,0,,,0,,,1,0.5714305997826159,0.5714352000504732,0,,,1297.1843813001178,1297.1843813001178,1297.1843813001178,1297.1843813001178,11,C,2024-04-19_11h15.57.675,attentional_competition_task,2022.2.4,143.99884794680085,
positions.xlsx,positions_test.xlsx,positions_test_new.xlsx,stimuli.xlsx,stimuli_new.xlsx,stimuli/Social3.png,stimuli/Social4.png,stimuli/Nonsocial3.png,stimuli/Nonsocial4.png,stimuli/Social1.png,stimuli/Social2.png,stimuli/Nonsocial1.png,stimuli/Nonsocial2.png,,,"(-0.7, -0.5)",cs_neg_ns,"(-0.7, 0.5)",cs_neg_s,"(0.7, -0.5)",cs_pos_s,"(0.7, 0.5)",cs_pos_ns,0,0,0,0,,,,,,,,,,,,,,,,,,,,,,,,,,,,,0,4,4,3,1,0,1,0,,,,,,,,,,,,,,,366,reward,,,,,,1297.7190662999637,1297.7190662999637,1297.7190662999637,1297.7190662999637,0,,,0,,,0,,,1,0.029088499955832958,0.029092799872159958,1297.7190662999637,1297.7190662999637,1297.7190662999637,1297.7190662999637,11,C,2024-04-19_11h15.57.675,attentional_competition_task,2022.2.4,143.99884794680085,
positions.xlsx,positions_test.xlsx,positions_test_new.xlsx,stimuli.xlsx,stimuli_new.xlsx,stimuli/Social3.png,stimuli/Social4.png,stimuli/Nonsocial3.png,stimuli/Nonsocial4.png,stimuli/Social1.png,stimuli/Social2.png,stimuli/Nonsocial1.png,stimuli/Nonsocial2.png,,,"(-0.7, -0.5)",cs_neg_ns,"(-0.7, 0.5)",cs_neg_s,"(0.7, -0.5)",cs_pos_s,"(0.7, 0.5)",cs_pos_ns,0,0,0,0,,,,,,,,,,,,,,,,,,,,,,,,,,,,,0,4,4,3,2,0,2,0,,,,,,,,,,,,,,,363,loss,,,,,,1298.2190434001386,1298.2190434001386,1298.2190434001386,1298.2190434001386,1,0.3228887999430299,0.3228934002108872,0,,,0,,,0,,,1298.5454128002748,1298.5454128002748,1298.5454128002748,1298.5454128002748,11,C,2024-04-19_11h15.57.675,attentional_competition_task,2022.2.4,143.99884794680085,
positions.xlsx,positions_test.xlsx,positions_test_new.xlsx,stimuli.xlsx,stimuli_new.xlsx,stimuli/Social3.png,stimuli/Social4.png,stimuli/Nonsocial3.png,stimuli/Nonsocial4.png,stimuli/Social1.png,stimuli/Social2.png,stimuli/Nonsocial1.png,stimuli/Nonsocial2.png,,,"(-0.7, -0.5)",cs_neg_ns,"(-0.7, 0.5)",cs_neg_s,"(0.7, -0.5)",cs_pos_s,"(0.7, 0.5)",cs_pos_ns,0,0,0,0,,,,,,,,,,,,,,,,,,,,,,,,,,,,,0,4,4,3,,,,,,,,,,,,,,,,,,,,,,,,,,,,,,,,,,,,,,,,,,,,,,11,C,2024-04-19_11h15.57.675,attentional_competition_task,2022.2.4,143.99884794680085,
positions.xlsx,positions_test.xlsx,positions_test_new.xlsx,stimuli.xlsx,stimuli_new.xlsx,stimuli/Social3.png,stimuli/Social4.png,stimuli/Nonsocial3.png,stimuli/Nonsocial4.png,stimuli/Social1.png,stimuli/Social2.png,stimuli/Nonsocial1.png,stimuli/Nonsocial2.png,,,"(-0.7, -0.5)",cs_neg_ns_new,"(-0.7, 0.5)",cs_neg_s,"(0.7, -0.5)",cs_pos_s,"(0.7, 0.5)",cs_pos_ns,0,0,0,0,,,,,,,,,,,,,,,,,,,,,,,,,,,,,0,5,5,25,0,0,0,0,,,,,,,,,,,,,,,366,reward,,,,,,1304.4201699001715,1304.4201699001715,1304.4201699001715,1304.4201699001715,0,,,0,,,0,,,1,0.5718459999188781,0.5792958000674844,1305.0035991002806,1305.0035991002806,1305.0035991002806,1305.0035991002806,11,C,2024-04-19_11h15.57.675,attentional_competition_task,2022.2.4,143.99884794680085,
positions.xlsx,positions_test.xlsx,positions_test_new.xlsx,stimuli.xlsx,stimuli_new.xlsx,stimuli/Social3.png,stimuli/Social4.png,stimuli/Nonsocial3.png,stimuli/Nonsocial4.png,stimuli/Social1.png,stimuli/Social2.png,stimuli/Nonsocial1.png,stimuli/Nonsocial2.png,,,"(-0.7, -0.5)",cs_neg_ns_new,"(-0.7, 0.5)",cs_neg_s,"(0.7, -0.5)",cs_pos_s,"(0.7, 0.5)",cs_pos_ns,0,0,0,0,,,,,,,,,,,,,,,,,,,,,,,,,,,,,0,5,5,25,1,0,1,0,,,,,,,,,,,,,,,369,reward,,,,,,1305.5312534999102,1305.5312534999102,1305.5312534999102,1305.5312534999102,0,,,0,,,1,0.029080099891871214,0.029084499925374985,0,,,1305.5312534999102,1305.5312534999102,1305.5312534999102,1305.5312534999102,11,C,2024-04-19_11h15.57.675,attentional_competition_task,2022.2.4,143.99884794680085,
positions.xlsx,positions_test.xlsx,positions_test_new.xlsx,stimuli.xlsx,stimuli_new.xlsx,stimuli/Social3.png,stimuli/Social4.png,stimuli/Nonsocial3.png,stimuli/Nonsocial4.png,stimuli/Social1.png,stimuli/Social2.png,stimuli/Nonsocial1.png,stimuli/Nonsocial2.png,,,"(-0.7, -0.5)",cs_neg_ns_new,"(-0.7, 0.5)",cs_neg_s,"(0.7, -0.5)",cs_pos_s,"(0.7, 0.5)",cs_pos_ns,0,0,0,0,,,,,,,,,,,,,,,,,,,,,,,,,,,,,0,5,5,25,2,0,2,0,,,,,,,,,,,,,,,372,reward,,,,,,1306.0381585001014,1306.0381585001014,1306.0381585001014,1306.0381585001014,0,,,0,,,0,,,0,,,1306.9339788001962,1306.9339788001962,1306.9339788001962,1306.9339788001962,11,C,2024-04-19_11h15.57.675,attentional_competition_task,2022.2.4,143.99884794680085,
positions.xlsx,positions_test.xlsx,positions_test_new.xlsx,stimuli.xlsx,stimuli_new.xlsx,stimuli/Social3.png,stimuli/Social4.png,stimuli/Nonsocial3.png,stimuli/Nonsocial4.png,stimuli/Social1.png,stimuli/Social2.png,stimuli/Nonsocial1.png,stimuli/Nonsocial2.png,,,"(-0.7, -0.5)",cs_neg_ns_new,"(-0.7, 0.5)",cs_neg_s,"(0.7, -0.5)",cs_pos_s,"(0.7, 0.5)",cs_pos_ns,0,0,0,0,,,,,,,,,,,,,,,,,,,,,,,,,,,,,0,5,5,25,,,,,,,,,,,,,,,,,,,,,,,,,,,,,,,,,,,,,,,,,,,,,,11,C,2024-04-19_11h15.57.675,attentional_competition_task,2022.2.4,143.99884794680085,
positions.xlsx,positions_test.xlsx,positions_test_new.xlsx,stimuli.xlsx,stimuli_new.xlsx,stimuli/Social3.png,stimuli/Social4.png,stimuli/Nonsocial3.png,stimuli/Nonsocial4.png,stimuli/Social1.png,stimuli/Social2.png,stimuli/Nonsocial1.png,stimuli/Nonsocial2.png,,,"(-0.7, -0.5)",cs_pos_s,"(-0.7, 0.5)",cs_neg_s,"(0.7, -0.5)",cs_pos_ns,"(0.7, 0.5)",cs_neg_ns,0,0,0,0,,,,,,,,,,,,,,,,,,,,,,,,,,,,,0,6,6,4,0,0,0,0,,,,,,,,,,,,,,,375,reward,,,,,,1312.794840999879,1312.794840999879,1312.794840999879,1312.794840999879,1,0.6824537999927998,0.6824587001465261,0,,,0,,,0,,,1313.482359400019,1313.482359400019,1313.482359400019,1313.482359400019,11,C,2024-04-19_11h15.57.675,attentional_competition_task,2022.2.4,143.99884794680085,
positions.xlsx,positions_test.xlsx,positions_test_new.xlsx,stimuli.xlsx,stimuli_new.xlsx,stimuli/Social3.png,stimuli/Social4.png,stimuli/Nonsocial3.png,stimuli/Nonsocial4.png,stimuli/Social1.png,stimuli/Social2.png,stimuli/Nonsocial1.png,stimuli/Nonsocial2.png,,,"(-0.7, -0.5)",cs_pos_s,"(-0.7, 0.5)",cs_neg_s,"(0.7, -0.5)",cs_pos_ns,"(0.7, 0.5)",cs_neg_ns,0,0,0,0,,,,,,,,,,,,,,,,,,,,,,,,,,,,,0,6,6,4,1,0,1,0,,,,,,,,,,,,,,,378,reward,,,,,,1314.017033800017,1314.017033800017,1314.017033800017,1314.017033800017,0,,,0,,,1,0.031179700046777725,0.03118430031463504,0,,,1314.017033800017,1314.017033800017,1314.017033800017,1314.017033800017,11,C,2024-04-19_11h15.57.675,attentional_competition_task,2022.2.4,143.99884794680085,
positions.xlsx,positions_test.xlsx,positions_test_new.xlsx,stimuli.xlsx,stimuli_new.xlsx,stimuli/Social3.png,stimuli/Social4.png,stimuli/Nonsocial3.png,stimuli/Nonsocial4.png,stimuli/Social1.png,stimuli/Social2.png,stimuli/Nonsocial1.png,stimuli/Nonsocial2.png,,,"(-0.7, -0.5)",cs_pos_s,"(-0.7, 0.5)",cs_neg_s,"(0.7, -0.5)",cs_pos_ns,"(0.7, 0.5)",cs_neg_ns,0,0,0,0,,,,,,,,,,,,,,,,,,,,,,,,,,,,,0,6,6,4,2,0,2,0,,,,,,,,,,,,,,,375,loss,,,,,,1314.5516979000531,1314.5516979000531,1314.5516979000531,1314.5516979000531,0,,,0,,,0,,,1,0.03338490007445216,0.03339010011404753,1314.5516979000531,1314.5516979000531,1314.5516979000531,1314.5516979000531,11,C,2024-04-19_11h15.57.675,attentional_competition_task,2022.2.4,143.99884794680085,
positions.xlsx,positions_test.xlsx,positions_test_new.xlsx,stimuli.xlsx,stimuli_new.xlsx,stimuli/Social3.png,stimuli/Social4.png,stimuli/Nonsocial3.png,stimuli/Nonsocial4.png,stimuli/Social1.png,stimuli/Social2.png,stimuli/Nonsocial1.png,stimuli/Nonsocial2.png,,,"(-0.7, -0.5)",cs_pos_s,"(-0.7, 0.5)",cs_neg_s,"(0.7, -0.5)",cs_pos_ns,"(0.7, 0.5)",cs_neg_ns,0,0,0,0,,,,,,,,,,,,,,,,,,,,,,,,,,,,,0,6,6,4,,,,,,,,,,,,,,,,,,,,,,,,,,,,,,,,,,,,,,,,,,,,,,11,C,2024-04-19_11h15.57.675,attentional_competition_task,2022.2.4,143.99884794680085,
positions.xlsx,positions_test.xlsx,positions_test_new.xlsx,stimuli.xlsx,stimuli_new.xlsx,stimuli/Social3.png,stimuli/Social4.png,stimuli/Nonsocial3.png,stimuli/Nonsocial4.png,stimuli/Social1.png,stimuli/Social2.png,stimuli/Nonsocial1.png,stimuli/Nonsocial2.png,,,"(-0.7, -0.5)",cs_pos_s,"(-0.7, 0.5)",cs_pos_ns_new,"(0.7, -0.5)",cs_neg_s,"(0.7, 0.5)",cs_neg_ns,0,0,0,0,,,,,,,,,,,,,,,,,,,,,,,,,,,,,0,7,7,45,0,0,0,0,,,,,,,,,,,,,,,378,reward,,,,,,1321.7319825002924,1321.7319825002924,1321.7319825002924,1321.7319825002924,1,0.4951271000318229,0.4951319000683725,0,,,0,,,0,,,1322.2319717002101,1322.2319717002101,1322.2319717002101,1322.2319717002101,11,C,2024-04-19_11h15.57.675,attentional_competition_task,2022.2.4,143.99884794680085,
positions.xlsx,positions_test.xlsx,positions_test_new.xlsx,stimuli.xlsx,stimuli_new.xlsx,stimuli/Social3.png,stimuli/Social4.png,stimuli/Nonsocial3.png,stimuli/Nonsocial4.png,stimuli/Social1.png,stimuli/Social2.png,stimuli/Nonsocial1.png,stimuli/Nonsocial2.png,,,"(-0.7, -0.5)",cs_pos_s,"(-0.7, 0.5)",cs_pos_ns_new,"(0.7, -0.5)",cs_neg_s,"(0.7, 0.5)",cs_neg_ns,0,0,0,0,,,,,,,,,,,,,,,,,,,,,,,,,,,,,0,7,7,45,1,0,1,0,,,,,,,,,,,,,,,381,reward,,,,,,1322.7388805001974,1322.7388805001974,1322.7388805001974,1322.7388805001974,1,0.030182700138539076,0.19670740002766252,1,0.21165479999035597,0.21167310001328588,0,,,0,,,1322.9472674001008,1322.9472674001008,1322.9472674001008,1322.9472674001008,11,C,2024-04-19_11h15.57.675,attentional_competition_task,2022.2.4,143.99884794680085,
positions.xlsx,positions_test.xlsx,positions_test_new.xlsx,stimuli.xlsx,stimuli_new.xlsx,stimuli/Social3.png,stimuli/Social4.png,stimuli/Nonsocial3.png,stimuli/Nonsocial4.png,stimuli/Social1.png,stimuli/Social2.png,stimuli/Nonsocial1.png,stimuli/Nonsocial2.png,,,"(-0.7, -0.5)",cs_pos_s,"(-0.7, 0.5)",cs_pos_ns_new,"(0.7, -0.5)",cs_neg_s,"(0.7, 0.5)",cs_neg_ns,0,0,0,0,,,,,,,,,,,,,,,,,,,,,,,,,,,,,0,7,7,45,2,0,2,0,,,,,,,,,,,,,,,384,reward,,,,,,1323.4541998002678,1323.4541998002678,1323.4541998002678,1323.4541998002678,0,,,1,0.030080399941653013,0.2938850000500679,0,,,0,,,1324.2457979000174,1324.2457979000174,1324.2457979000174,1324.2457979000174,11,C,2024-04-19_11h15.57.675,attentional_competition_task,2022.2.4,143.99884794680085,
positions.xlsx,positions_test.xlsx,positions_test_new.xlsx,stimuli.xlsx,stimuli_new.xlsx,stimuli/Social3.png,stimuli/Social4.png,stimuli/Nonsocial3.png,stimuli/Nonsocial4.png,stimuli/Social1.png,stimuli/Social2.png,stimuli/Nonsocial1.png,stimuli/Nonsocial2.png,,,"(-0.7, -0.5)",cs_pos_s,"(-0.7, 0.5)",cs_pos_ns_new,"(0.7, -0.5)",cs_neg_s,"(0.7, 0.5)",cs_neg_ns,0,0,0,0,,,,,,,,,,,,,,,,,,,,,,,,,,,,,0,7,7,45,,,,,,,,,,,,,,,,,,,,,,,,,,,,,,,,,,,,,,,,,,,,,,11,C,2024-04-19_11h15.57.675,attentional_competition_task,2022.2.4,143.99884794680085,
positions.xlsx,positions_test.xlsx,positions_test_new.xlsx,stimuli.xlsx,stimuli_new.xlsx,stimuli/Social3.png,stimuli/Social4.png,stimuli/Nonsocial3.png,stimuli/Nonsocial4.png,stimuli/Social1.png,stimuli/Social2.png,stimuli/Nonsocial1.png,stimuli/Nonsocial2.png,,,"(-0.7, -0.5)",cs_neg_s,"(-0.7, 0.5)",cs_pos_s,"(0.7, -0.5)",cs_pos_ns,"(0.7, 0.5)",cs_neg_ns,0,0,0,0,,,,,,,,,,,,,,,,,,,,,,,,,,,,,0,8,8,6,0,0,0,0,,,,,,,,,,,,,,,381,loss,,,,,,1329.9539042999968,1329.9539042999968,1329.9539042999968,1329.9539042999968,1,0.4673186996951699,0.4741219999268651,0,,,0,,,0,,,1330.433025999926,1330.433025999926,1330.433025999926,1330.433025999926,11,C,2024-04-19_11h15.57.675,attentional_competition_task,2022.2.4,143.99884794680085,
