posFile,posFileTest,posFileTestNew,stimFile,stimFileNew,cs_neg_s,cs_pos_s,cs_neg_ns,cs_pos_ns,cs_neg_s_new,cs_pos_s_new,cs_neg_ns_new,cs_pos_ns_new,stim,position,position1,stim1,position2,stim2,position3,stim3,position4,stim4,blocks.thisRepN,blocks.thisTrialN,blocks.thisN,blocks.thisIndex,ratingtrials1.thisRepN,ratingtrials1.thisTrialN,ratingtrials1.thisN,ratingtrials1.thisIndex,search_task_trials.thisRepN,search_task_trials.thisTrialN,search_task_trials.thisN,search_task_trials.thisIndex,learning_trials.thisRepN,learning_trials.thisTrialN,learning_trials.thisN,learning_trials.thisIndex,trials.thisRepN,trials.thisTrialN,trials.thisN,trials.thisIndex,ratingtrials2.thisRepN,ratingtrials2.thisTrialN,ratingtrials2.thisN,ratingtrials2.thisIndex,testtrials.thisRepN,testtrials.thisTrialN,testtrials.thisN,testtrials.thisIndex,loop_test.thisRepN,loop_test.thisTrialN,loop_test.thisN,loop_test.thisIndex,testtrials_novelty.thisRepN,testtrials_novelty.thisTrialN,testtrials_novelty.thisN,testtrials_novelty.thisIndex,loop_test_novelty.thisRepN,loop_test_novelty.thisTrialN,loop_test_novelty.thisN,loop_test_novelty.thisIndex,ratingtrials3.thisRepN,ratingtrials3.thisTrialN,ratingtrials3.thisN,ratingtrials3.thisIndex,textStart.started,textStartExp.started,imageRating.started,sliderStim.response,sliderStim.rt,textStartSearch.started,target_positions,distractor_positions,textStartTask.started,image.started,score,outcome,roi.numLooks,roi.timesOn,roi.timesOff,imageFeedback.started,textTestInstr.started,test_image1.started,test_image2.started,test_image3.started,test_image4.started,test_roi1.numLooks,test_roi1.timesOn,test_roi1.timesOff,test_roi2.numLooks,test_roi2.timesOn,test_roi2.timesOff,test_roi3.numLooks,test_roi3.timesOn,test_roi3.timesOff,test_roi4.numLooks,test_roi4.timesOn,test_roi4.timesOff,test_image_feedback1.started,test_image_feedback2.started,test_iamge_feedback3.started,test_iamge_feedback4.started,participant,group,date,expName,psychopyVersion,frameRate,
positions.xlsx,positions_test.xlsx,positions_test_new.xlsx,stimuli.xlsx,stimuli_new.xlsx,stimuli/Social3.png,stimuli/Social4.png,stimuli/Nonsocial3.png,stimuli/Nonsocial4.png,stimuli/Social1.png,stimuli/Social2.png,stimuli/Nonsocial1.png,stimuli/Nonsocial2.png,cs_neg_ns,,,,,,,,,,0,0,0,0,0,0,0,1,,,,,,,,,,,,,,,,,,,,,,,,,,,,,,,,,,,,,11.904683700064197,91.45847170008346,106.03846270008944,3.0,11.103196399984881,,,,,,,,,,,,,,,,,,,,,,,,,,,,,,,,,52,C,2024-05-22_17h37.19.217,attentional_competition_task,2022.2.4,144.00486158749985,
positions.xlsx,positions_test.xlsx,positions_test_new.xlsx,stimuli.xlsx,stimuli_new.xlsx,stimuli/Social3.png,stimuli/Social4.png,stimuli/Nonsocial3.png,stimuli/Nonsocial4.png,stimuli/Social1.png,stimuli/Social2.png,stimuli/Nonsocial1.png,stimuli/Nonsocial2.png,cs_neg_s,,,,,,,,,,0,0,0,0,0,1,1,0,,,,,,,,,,,,,,,,,,,,,,,,,,,,,,,,,,,,,,,117.80879999999888,5.0,2.930668499902822,,,,,,,,,,,,,,,,,,,,,,,,,,,,,,,,,52,C,2024-05-22_17h37.19.217,attentional_competition_task,2022.2.4,144.00486158749985,
positions.xlsx,positions_test.xlsx,positions_test_new.xlsx,stimuli.xlsx,stimuli_new.xlsx,stimuli/Social3.png,stimuli/Social4.png,stimuli/Nonsocial3.png,stimuli/Nonsocial4.png,stimuli/Social1.png,stimuli/Social2.png,stimuli/Nonsocial1.png,stimuli/Nonsocial2.png,cs_pos_s,,,,,,,,,,0,0,0,0,0,2,2,2,,,,,,,,,,,,,,,,,,,,,,,,,,,,,,,,,,,,,,,121.33639609999955,5.0,1.2033206999767572,,,,,,,,,,,,,,,,,,,,,,,,,,,,,,,,,52,C,2024-05-22_17h37.19.217,attentional_competition_task,2022.2.4,144.00486158749985,
positions.xlsx,positions_test.xlsx,positions_test_new.xlsx,stimuli.xlsx,stimuli_new.xlsx,stimuli/Social3.png,stimuli/Social4.png,stimuli/Nonsocial3.png,stimuli/Nonsocial4.png,stimuli/Social1.png,stimuli/Social2.png,stimuli/Nonsocial1.png,stimuli/Nonsocial2.png,cs_pos_ns,,,,,,,,,,0,0,0,0,0,3,3,3,,,,,,,,,,,,,,,,,,,,,,,,,,,,,,,,,,,,,,,124.36409150005784,3.0,2.223379399976693,,,,,,,,,,,,,,,,,,,,,,,,,,,,,,,,,52,C,2024-05-22_17h37.19.217,attentional_competition_task,2022.2.4,144.00486158749985,
positions.xlsx,positions_test.xlsx,positions_test_new.xlsx,stimuli.xlsx,stimuli_new.xlsx,stimuli/Social3.png,stimuli/Social4.png,stimuli/Nonsocial3.png,stimuli/Nonsocial4.png,stimuli/Social1.png,stimuli/Social2.png,stimuli/Nonsocial1.png,stimuli/Nonsocial2.png,,,,,,,,,,,0,0,0,0,,,,,0,0,0,0,,,,,,,,,,,,,,,,,,,,,,,,,,,,,,,,,,,,,,130.03744510002434,"[[-0.22499999999999998, -0.8], [-0.22499999999999998, 0.19999999999999996], [-0.9, -0.8], [-0.9, 0.7], [0.6749999999999999, 0.19999999999999996], [0.45000000000000007, 0.7], [0.9, -0.8], [-0.675, 0.7], [0.45000000000000007, 0.19999999999999996], [0.9, 0.7], [-0.9, -0.30000000000000004], [-0.22499999999999998, -0.30000000000000004], [0.6749999999999999, -0.30000000000000004], [0.22499999999999998, -0.8], [0.0, 0.7]]","[[-0.9, 0.19999999999999996], [0.22499999999999998, 0.7], [0.9, -0.30000000000000004], [0.22499999999999998, 0.19999999999999996], [0.0, -0.30000000000000004], [0.45000000000000007, -0.8], [0.0, -0.8], [-0.675, -0.8], [0.0, 0.19999999999999996], [-0.45, 0.7], [0.6749999999999999, 0.7], [-0.45, -0.8], [0.9, 0.19999999999999996], [-0.675, -0.30000000000000004], [0.22499999999999998, -0.30000000000000004]]",,,,,,,,,,,,,,,,,,,,,,,,,,,,,,52,C,2024-05-22_17h37.19.217,attentional_competition_task,2022.2.4,144.00486158749985,
positions.xlsx,positions_test.xlsx,positions_test_new.xlsx,stimuli.xlsx,stimuli_new.xlsx,stimuli/Social3.png,stimuli/Social4.png,stimuli/Nonsocial3.png,stimuli/Nonsocial4.png,stimuli/Social1.png,stimuli/Social2.png,stimuli/Nonsocial1.png,stimuli/Nonsocial2.png,,,,,,,,,,,0,0,0,0,,,,,1,0,1,0,,,,,,,,,,,,,,,,,,,,,,,,,,,,,,,,,,,,,,,"[[-0.9, -0.30000000000000004], [-0.45, 0.19999999999999996], [0.9, 0.7], [0.9, -0.30000000000000004], [0.9, -0.8], [0.22499999999999998, -0.8], [0.45000000000000007, -0.8], [-0.45, 0.7], [0.45000000000000007, 0.19999999999999996], [0.22499999999999998, 0.19999999999999996], [0.6749999999999999, 0.7], [0.45000000000000007, 0.7], [-0.22499999999999998, -0.30000000000000004], [-0.22499999999999998, 0.19999999999999996], [-0.9, -0.8]]","[[0.0, 0.7], [0.6749999999999999, 0.19999999999999996], [-0.45, -0.8], [0.22499999999999998, 0.7], [-0.675, -0.30000000000000004], [-0.9, 0.19999999999999996], [-0.675, -0.8], [0.0, -0.8], [0.9, 0.19999999999999996], [-0.675, 0.19999999999999996], [0.22499999999999998, -0.30000000000000004], [-0.22499999999999998, 0.7], [-0.9, 0.7], [-0.675, 0.7], [-0.45, -0.30000000000000004]]",,,,,,,,,,,,,,,,,,,,,,,,,,,,,,52,C,2024-05-22_17h37.19.217,attentional_competition_task,2022.2.4,144.00486158749985,
positions.xlsx,positions_test.xlsx,positions_test_new.xlsx,stimuli.xlsx,stimuli_new.xlsx,stimuli/Social3.png,stimuli/Social4.png,stimuli/Nonsocial3.png,stimuli/Nonsocial4.png,stimuli/Social1.png,stimuli/Social2.png,stimuli/Nonsocial1.png,stimuli/Nonsocial2.png,cs_neg_s,"(-0.7, -0.5)",,,,,,,,,0,0,0,0,,,,,,,,,0,0,0,1,,,,,,,,,,,,,,,,,,,,,,,,,,,,,,,,,,,,,210.74947160005104,223.908680499997,-3,loss,1,0.7360833999700844,0.7360871999990195,224.65170869999565,,,,,,,,,,,,,,,,,,,,,,52,C,2024-05-22_17h37.19.217,attentional_competition_task,2022.2.4,144.00486158749985,
positions.xlsx,positions_test.xlsx,positions_test_new.xlsx,stimuli.xlsx,stimuli_new.xlsx,stimuli/Social3.png,stimuli/Social4.png,stimuli/Nonsocial3.png,stimuli/Nonsocial4.png,stimuli/Social1.png,stimuli/Social2.png,stimuli/Nonsocial1.png,stimuli/Nonsocial2.png,cs_pos_s,"(0.7, 0.5)",,,,,,,,,0,0,0,0,,,,,,,,,0,1,1,6,,,,,,,,,,,,,,,,,,,,,,,,,,,,,,,,,,,,,,231.6027806000784,-3,none,0,,,234.61654459999409,,,,,,,,,,,,,,,,,,,,,,52,C,2024-05-22_17h37.19.217,attentional_competition_task,2022.2.4,144.00486158749985,
positions.xlsx,positions_test.xlsx,positions_test_new.xlsx,stimuli.xlsx,stimuli_new.xlsx,stimuli/Social3.png,stimuli/Social4.png,stimuli/Nonsocial3.png,stimuli/Nonsocial4.png,stimuli/Social1.png,stimuli/Social2.png,stimuli/Nonsocial1.png,stimuli/Nonsocial2.png,cs_neg_s,"(-0.7, 0.5)",,,,,,,,,0,0,0,0,,,,,,,,,0,2,2,0,,,,,,,,,,,,,,,,,,,,,,,,,,,,,,,,,,,,,,241.92877690005116,-3,none,0,,,244.935573499999,,,,,,,,,,,,,,,,,,,,,,52,C,2024-05-22_17h37.19.217,attentional_competition_task,2022.2.4,144.00486158749985,
positions.xlsx,positions_test.xlsx,positions_test_new.xlsx,stimuli.xlsx,stimuli_new.xlsx,stimuli/Social3.png,stimuli/Social4.png,stimuli/Nonsocial3.png,stimuli/Nonsocial4.png,stimuli/Social1.png,stimuli/Social2.png,stimuli/Nonsocial1.png,stimuli/Nonsocial2.png,cs_neg_ns,"(-0.7, -0.5)",,,,,,,,,0,0,0,0,,,,,,,,,0,3,3,9,,,,,,,,,,,,,,,,,,,,,,,,,,,,,,,,,,,,,,252.0533424000023,-6,loss,1,0.5695268999552354,0.5695301999803632,252.62973350007087,,,,,,,,,,,,,,,,,,,,,,52,C,2024-05-22_17h37.19.217,attentional_competition_task,2022.2.4,144.00486158749985,
positions.xlsx,positions_test.xlsx,positions_test_new.xlsx,stimuli.xlsx,stimuli_new.xlsx,stimuli/Social3.png,stimuli/Social4.png,stimuli/Nonsocial3.png,stimuli/Nonsocial4.png,stimuli/Social1.png,stimuli/Social2.png,stimuli/Nonsocial1.png,stimuli/Nonsocial2.png,cs_pos_ns,"(0.7, 0.5)",,,,,,,,,0,0,0,0,,,,,,,,,0,4,4,14,,,,,,,,,,,,,,,,,,,,,,,,,,,,,,,,,,,,,,259.68499330000486,-6,none,0,,,262.6987808000995,,,,,,,,,,,,,,,,,,,,,,52,C,2024-05-22_17h37.19.217,attentional_competition_task,2022.2.4,144.00486158749985,
positions.xlsx,positions_test.xlsx,positions_test_new.xlsx,stimuli.xlsx,stimuli_new.xlsx,stimuli/Social3.png,stimuli/Social4.png,stimuli/Nonsocial3.png,stimuli/Nonsocial4.png,stimuli/Social1.png,stimuli/Social2.png,stimuli/Nonsocial1.png,stimuli/Nonsocial2.png,cs_pos_ns,"(0.7, -0.5)",,,,,,,,,0,0,0,0,,,,,,,,,0,5,5,15,,,,,,,,,,,,,,,,,,,,,,,,,,,,,,,,,,,,,,270.3026330000721,-6,none,0,,,273.31639839999843,,,,,,,,,,,,,,,,,,,,,,52,C,2024-05-22_17h37.19.217,attentional_competition_task,2022.2.4,144.00486158749985,
positions.xlsx,positions_test.xlsx,positions_test_new.xlsx,stimuli.xlsx,stimuli_new.xlsx,stimuli/Social3.png,stimuli/Social4.png,stimuli/Nonsocial3.png,stimuli/Nonsocial4.png,stimuli/Social1.png,stimuli/Social2.png,stimuli/Nonsocial1.png,stimuli/Nonsocial2.png,cs_neg_s,"(0.7, -0.5)",,,,,,,,,0,0,0,0,,,,,,,,,0,6,6,3,,,,,,,,,,,,,,,,,,,,,,,,,,,,,,,,,,,,,,280.82303390000015,-6,none,0,,,283.8298156000674,,,,,,,,,,,,,,,,,,,,,,52,C,2024-05-22_17h37.19.217,attentional_competition_task,2022.2.4,144.00486158749985,
positions.xlsx,positions_test.xlsx,positions_test_new.xlsx,stimuli.xlsx,stimuli_new.xlsx,stimuli/Social3.png,stimuli/Social4.png,stimuli/Nonsocial3.png,stimuli/Nonsocial4.png,stimuli/Social1.png,stimuli/Social2.png,stimuli/Nonsocial1.png,stimuli/Nonsocial2.png,cs_pos_s,"(-0.7, -0.5)",,,,,,,,,0,0,0,0,,,,,,,,,0,7,7,5,,,,,,,,,,,,,,,,,,,,,,,,,,,,,,,,,,,,,,291.24624010000844,-6,none,0,,,294.2530765000265,,,,,,,,,,,,,,,,,,,,,,52,C,2024-05-22_17h37.19.217,attentional_competition_task,2022.2.4,144.00486158749985,
positions.xlsx,positions_test.xlsx,positions_test_new.xlsx,stimuli.xlsx,stimuli_new.xlsx,stimuli/Social3.png,stimuli/Social4.png,stimuli/Nonsocial3.png,stimuli/Nonsocial4.png,stimuli/Social1.png,stimuli/Social2.png,stimuli/Nonsocial1.png,stimuli/Nonsocial2.png,cs_pos_s,"(0.7, -0.5)",,,,,,,,,0,0,0,0,,,,,,,,,0,8,8,7,,,,,,,,,,,,,,,,,,,,,,,,,,,,,,,,,,,,,,301.47500720003154,-6,none,0,,,304.4818312000716,,,,,,,,,,,,,,,,,,,,,,52,C,2024-05-22_17h37.19.217,attentional_competition_task,2022.2.4,144.00486158749985,
positions.xlsx,positions_test.xlsx,positions_test_new.xlsx,stimuli.xlsx,stimuli_new.xlsx,stimuli/Social3.png,stimuli/Social4.png,stimuli/Nonsocial3.png,stimuli/Nonsocial4.png,stimuli/Social1.png,stimuli/Social2.png,stimuli/Nonsocial1.png,stimuli/Nonsocial2.png,cs_pos_ns,"(-0.7, 0.5)",,,,,,,,,0,0,0,0,,,,,,,,,0,9,9,12,,,,,,,,,,,,,,,,,,,,,,,,,,,,,,,,,,,,,,312.5787121000467,-6,none,0,,,315.5924522000132,,,,,,,,,,,,,,,,,,,,,,52,C,2024-05-22_17h37.19.217,attentional_competition_task,2022.2.4,144.00486158749985,
positions.xlsx,positions_test.xlsx,positions_test_new.xlsx,stimuli.xlsx,stimuli_new.xlsx,stimuli/Social3.png,stimuli/Social4.png,stimuli/Nonsocial3.png,stimuli/Nonsocial4.png,stimuli/Social1.png,stimuli/Social2.png,stimuli/Nonsocial1.png,stimuli/Nonsocial2.png,cs_neg_ns,"(0.7, 0.5)",,,,,,,,,0,0,0,0,,,,,,,,,0,10,10,10,,,,,,,,,,,,,,,,,,,,,,,,,,,,,,,,,,,,,,322.9324714000104,-6,none,0,,,325.93930190009996,,,,,,,,,,,,,,,,,,,,,,52,C,2024-05-22_17h37.19.217,attentional_competition_task,2022.2.4,144.00486158749985,
positions.xlsx,positions_test.xlsx,positions_test_new.xlsx,stimuli.xlsx,stimuli_new.xlsx,stimuli/Social3.png,stimuli/Social4.png,stimuli/Nonsocial3.png,stimuli/Nonsocial4.png,stimuli/Social1.png,stimuli/Social2.png,stimuli/Nonsocial1.png,stimuli/Nonsocial2.png,cs_pos_s,"(-0.7, 0.5)",,,,,,,,,0,0,0,0,,,,,,,,,0,11,11,4,,,,,,,,,,,,,,,,,,,,,,,,,,,,,,,,,,,,,,333.07791740004905,-6,none,0,,,336.08471770002507,,,,,,,,,,,,,,,,,,,,,,52,C,2024-05-22_17h37.19.217,attentional_competition_task,2022.2.4,144.00486158749985,
positions.xlsx,positions_test.xlsx,positions_test_new.xlsx,stimuli.xlsx,stimuli_new.xlsx,stimuli/Social3.png,stimuli/Social4.png,stimuli/Nonsocial3.png,stimuli/Nonsocial4.png,stimuli/Social1.png,stimuli/Social2.png,stimuli/Nonsocial1.png,stimuli/Nonsocial2.png,cs_pos_ns,"(-0.7, -0.5)",,,,,,,,,0,0,0,0,,,,,,,,,0,12,12,13,,,,,,,,,,,,,,,,,,,,,,,,,,,,,,,,,,,,,,343.5913631999865,-6,none,0,,,346.60514830006287,,,,,,,,,,,,,,,,,,,,,,52,C,2024-05-22_17h37.19.217,attentional_competition_task,2022.2.4,144.00486158749985,
positions.xlsx,positions_test.xlsx,positions_test_new.xlsx,stimuli.xlsx,stimuli_new.xlsx,stimuli/Social3.png,stimuli/Social4.png,stimuli/Nonsocial3.png,stimuli/Nonsocial4.png,stimuli/Social1.png,stimuli/Social2.png,stimuli/Nonsocial1.png,stimuli/Nonsocial2.png,cs_neg_s,"(0.7, 0.5)",,,,,,,,,0,0,0,0,,,,,,,,,0,13,13,2,,,,,,,,,,,,,,,,,,,,,,,,,,,,,,,,,,,,,,354.59089460002724,-6,none,0,,,357.59772130008787,,,,,,,,,,,,,,,,,,,,,,52,C,2024-05-22_17h37.19.217,attentional_competition_task,2022.2.4,144.00486158749985,
positions.xlsx,positions_test.xlsx,positions_test_new.xlsx,stimuli.xlsx,stimuli_new.xlsx,stimuli/Social3.png,stimuli/Social4.png,stimuli/Nonsocial3.png,stimuli/Nonsocial4.png,stimuli/Social1.png,stimuli/Social2.png,stimuli/Nonsocial1.png,stimuli/Nonsocial2.png,cs_neg_ns,"(0.7, -0.5)",,,,,,,,,0,0,0,0,,,,,,,,,0,14,14,11,,,,,,,,,,,,,,,,,,,,,,,,,,,,,,,,,,,,,,365.507154299994,-6,none,0,,,368.5139989000745,,,,,,,,,,,,,,,,,,,,,,52,C,2024-05-22_17h37.19.217,attentional_competition_task,2022.2.4,144.00486158749985,
positions.xlsx,positions_test.xlsx,positions_test_new.xlsx,stimuli.xlsx,stimuli_new.xlsx,stimuli/Social3.png,stimuli/Social4.png,stimuli/Nonsocial3.png,stimuli/Nonsocial4.png,stimuli/Social1.png,stimuli/Social2.png,stimuli/Nonsocial1.png,stimuli/Nonsocial2.png,cs_neg_ns,"(-0.7, 0.5)",,,,,,,,,0,0,0,0,,,,,,,,,0,15,15,8,,,,,,,,,,,,,,,,,,,,,,,,,,,,,,,,,,,,,,376.45811810006853,-6,none,0,,,379.4649322000332,,,,,,,,,,,,,,,,,,,,,,52,C,2024-05-22_17h37.19.217,attentional_competition_task,2022.2.4,144.00486158749985,
positions.xlsx,positions_test.xlsx,positions_test_new.xlsx,stimuli.xlsx,stimuli_new.xlsx,stimuli/Social3.png,stimuli/Social4.png,stimuli/Nonsocial3.png,stimuli/Nonsocial4.png,stimuli/Social1.png,stimuli/Social2.png,stimuli/Nonsocial1.png,stimuli/Nonsocial2.png,cs_neg_ns,"(0.7, -0.5)",,,,,,,,,0,0,0,0,,,,,,,,,1,0,16,11,,,,,,,,,,,,,,,,,,,,,,,,,,,,,,,,,,,,,,386.37438360007945,-6,none,0,,,389.38813980005216,,,,,,,,,,,,,,,,,,,,,,52,C,2024-05-22_17h37.19.217,attentional_competition_task,2022.2.4,144.00486158749985,
positions.xlsx,positions_test.xlsx,positions_test_new.xlsx,stimuli.xlsx,stimuli_new.xlsx,stimuli/Social3.png,stimuli/Social4.png,stimuli/Nonsocial3.png,stimuli/Nonsocial4.png,stimuli/Social1.png,stimuli/Social2.png,stimuli/Nonsocial1.png,stimuli/Nonsocial2.png,cs_pos_ns,"(-0.7, -0.5)",,,,,,,,,0,0,0,0,,,,,,,,,1,1,17,13,,,,,,,,,,,,,,,,,,,,,,,,,,,,,,,,,,,,,,397.2073192000389,-6,none,0,,,400.21409410005435,,,,,,,,,,,,,,,,,,,,,,52,C,2024-05-22_17h37.19.217,attentional_competition_task,2022.2.4,144.00486158749985,
positions.xlsx,positions_test.xlsx,positions_test_new.xlsx,stimuli.xlsx,stimuli_new.xlsx,stimuli/Social3.png,stimuli/Social4.png,stimuli/Nonsocial3.png,stimuli/Nonsocial4.png,stimuli/Social1.png,stimuli/Social2.png,stimuli/Nonsocial1.png,stimuli/Nonsocial2.png,cs_pos_s,"(-0.7, 0.5)",,,,,,,,,0,0,0,0,,,,,,,,,1,2,18,4,,,,,,,,,,,,,,,,,,,,,,,,,,,,,,,,,,,,,,407.5124160000123,-6,none,0,,,410.5192369000288,,,,,,,,,,,,,,,,,,,,,,52,C,2024-05-22_17h37.19.217,attentional_competition_task,2022.2.4,144.00486158749985,
positions.xlsx,positions_test.xlsx,positions_test_new.xlsx,stimuli.xlsx,stimuli_new.xlsx,stimuli/Social3.png,stimuli/Social4.png,stimuli/Nonsocial3.png,stimuli/Nonsocial4.png,stimuli/Social1.png,stimuli/Social2.png,stimuli/Nonsocial1.png,stimuli/Nonsocial2.png,cs_neg_ns,"(-0.7, -0.5)",,,,,,,,,0,0,0,0,,,,,,,,,1,3,19,9,,,,,,,,,,,,,,,,,,,,,,,,,,,,,,,,,,,,,,418.3591942000203,-6,none,0,,,421.372967400006,,,,,,,,,,,,,,,,,,,,,,52,C,2024-05-22_17h37.19.217,attentional_competition_task,2022.2.4,144.00486158749985,
positions.xlsx,positions_test.xlsx,positions_test_new.xlsx,stimuli.xlsx,stimuli_new.xlsx,stimuli/Social3.png,stimuli/Social4.png,stimuli/Nonsocial3.png,stimuli/Nonsocial4.png,stimuli/Social1.png,stimuli/Social2.png,stimuli/Nonsocial1.png,stimuli/Nonsocial2.png,cs_pos_s,"(0.7, -0.5)",,,,,,,,,0,0,0,0,,,,,,,,,1,4,20,7,,,,,,,,,,,,,,,,,,,,,,,,,,,,,,,,,,,,,,428.99069690005854,-6,none,0,,,432.00454490003176,,,,,,,,,,,,,,,,,,,,,,52,C,2024-05-22_17h37.19.217,attentional_competition_task,2022.2.4,144.00486158749985,
positions.xlsx,positions_test.xlsx,positions_test_new.xlsx,stimuli.xlsx,stimuli_new.xlsx,stimuli/Social3.png,stimuli/Social4.png,stimuli/Nonsocial3.png,stimuli/Nonsocial4.png,stimuli/Social1.png,stimuli/Social2.png,stimuli/Nonsocial1.png,stimuli/Nonsocial2.png,cs_neg_s,"(-0.7, -0.5)",,,,,,,,,0,0,0,0,,,,,,,,,1,5,21,1,,,,,,,,,,,,,,,,,,,,,,,,,,,,,,,,,,,,,,440.0736142999958,-6,none,0,,,443.0804177999962,,,,,,,,,,,,,,,,,,,,,,52,C,2024-05-22_17h37.19.217,attentional_competition_task,2022.2.4,144.00486158749985,
positions.xlsx,positions_test.xlsx,positions_test_new.xlsx,stimuli.xlsx,stimuli_new.xlsx,stimuli/Social3.png,stimuli/Social4.png,stimuli/Nonsocial3.png,stimuli/Nonsocial4.png,stimuli/Social1.png,stimuli/Social2.png,stimuli/Nonsocial1.png,stimuli/Nonsocial2.png,cs_pos_ns,"(0.7, -0.5)",,,,,,,,,0,0,0,0,,,,,,,,,1,6,22,15,,,,,,,,,,,,,,,,,,,,,,,,,,,,,,,,,,,,,,450.98290740000084,-6,none,0,,,453.9897081000963,,,,,,,,,,,,,,,,,,,,,,52,C,2024-05-22_17h37.19.217,attentional_competition_task,2022.2.4,144.00486158749985,
positions.xlsx,positions_test.xlsx,positions_test_new.xlsx,stimuli.xlsx,stimuli_new.xlsx,stimuli/Social3.png,stimuli/Social4.png,stimuli/Nonsocial3.png,stimuli/Nonsocial4.png,stimuli/Social1.png,stimuli/Social2.png,stimuli/Nonsocial1.png,stimuli/Nonsocial2.png,cs_pos_s,"(-0.7, -0.5)",,,,,,,,,0,0,0,0,,,,,,,,,1,7,23,5,,,,,,,,,,,,,,,,,,,,,,,,,,,,,,,,,,,,,,461.1422410000814,-6,none,0,,,464.1490174999926,,,,,,,,,,,,,,,,,,,,,,52,C,2024-05-22_17h37.19.217,attentional_competition_task,2022.2.4,144.00486158749985,
positions.xlsx,positions_test.xlsx,positions_test_new.xlsx,stimuli.xlsx,stimuli_new.xlsx,stimuli/Social3.png,stimuli/Social4.png,stimuli/Nonsocial3.png,stimuli/Nonsocial4.png,stimuli/Social1.png,stimuli/Social2.png,stimuli/Nonsocial1.png,stimuli/Nonsocial2.png,cs_pos_ns,"(0.7, 0.5)",,,,,,,,,0,0,0,0,,,,,,,,,1,8,24,14,,,,,,,,,,,,,,,,,,,,,,,,,,,,,,,,,,,,,,471.8987105000997,-6,none,0,,,474.9124840000877,,,,,,,,,,,,,,,,,,,,,,52,C,2024-05-22_17h37.19.217,attentional_competition_task,2022.2.4,144.00486158749985,
positions.xlsx,positions_test.xlsx,positions_test_new.xlsx,stimuli.xlsx,stimuli_new.xlsx,stimuli/Social3.png,stimuli/Social4.png,stimuli/Nonsocial3.png,stimuli/Nonsocial4.png,stimuli/Social1.png,stimuli/Social2.png,stimuli/Nonsocial1.png,stimuli/Nonsocial2.png,cs_neg_ns,"(-0.7, 0.5)",,,,,,,,,0,0,0,0,,,,,,,,,1,9,25,8,,,,,,,,,,,,,,,,,,,,,,,,,,,,,,,,,,,,,,482.6135664000176,-9,loss,1,0.4654318999964744,0.46543570002540946,483.08576460008044,,,,,,,,,,,,,,,,,,,,,,52,C,2024-05-22_17h37.19.217,attentional_competition_task,2022.2.4,144.00486158749985,
positions.xlsx,positions_test.xlsx,positions_test_new.xlsx,stimuli.xlsx,stimuli_new.xlsx,stimuli/Social3.png,stimuli/Social4.png,stimuli/Nonsocial3.png,stimuli/Nonsocial4.png,stimuli/Social1.png,stimuli/Social2.png,stimuli/Nonsocial1.png,stimuli/Nonsocial2.png,cs_pos_ns,"(-0.7, 0.5)",,,,,,,,,0,0,0,0,,,,,,,,,1,10,26,12,,,,,,,,,,,,,,,,,,,,,,,,,,,,,,,,,,,,,,490.5090844000224,-6,reward,1,0.20844140008557588,0.20844489999581128,490.72438520006835,,,,,,,,,,,,,,,,,,,,,,52,C,2024-05-22_17h37.19.217,attentional_competition_task,2022.2.4,144.00486158749985,
positions.xlsx,positions_test.xlsx,positions_test_new.xlsx,stimuli.xlsx,stimuli_new.xlsx,stimuli/Social3.png,stimuli/Social4.png,stimuli/Nonsocial3.png,stimuli/Nonsocial4.png,stimuli/Social1.png,stimuli/Social2.png,stimuli/Nonsocial1.png,stimuli/Nonsocial2.png,cs_neg_s,"(0.7, 0.5)",,,,,,,,,0,0,0,0,,,,,,,,,1,11,27,2,,,,,,,,,,,,,,,,,,,,,,,,,,,,,,,,,,,,,,498.0365748000331,-9,loss,1,0.3962441999465227,0.3962477999739349,498.4393735000631,,,,,,,,,,,,,,,,,,,,,,52,C,2024-05-22_17h37.19.217,attentional_competition_task,2022.2.4,144.00486158749985,
positions.xlsx,positions_test.xlsx,positions_test_new.xlsx,stimuli.xlsx,stimuli_new.xlsx,stimuli/Social3.png,stimuli/Social4.png,stimuli/Nonsocial3.png,stimuli/Nonsocial4.png,stimuli/Social1.png,stimuli/Social2.png,stimuli/Nonsocial1.png,stimuli/Nonsocial2.png,cs_neg_s,"(0.7, -0.5)",,,,,,,,,0,0,0,0,,,,,,,,,1,12,28,3,,,,,,,,,,,,,,,,,,,,,,,,,,,,,,,,,,,,,,505.97378160001244,-9,none,0,,,508.98754250002094,,,,,,,,,,,,,,,,,,,,,,52,C,2024-05-22_17h37.19.217,attentional_competition_task,2022.2.4,144.00486158749985,
positions.xlsx,positions_test.xlsx,positions_test_new.xlsx,stimuli.xlsx,stimuli_new.xlsx,stimuli/Social3.png,stimuli/Social4.png,stimuli/Nonsocial3.png,stimuli/Nonsocial4.png,stimuli/Social1.png,stimuli/Social2.png,stimuli/Nonsocial1.png,stimuli/Nonsocial2.png,cs_neg_ns,"(0.7, 0.5)",,,,,,,,,0,0,0,0,,,,,,,,,1,13,29,10,,,,,,,,,,,,,,,,,,,,,,,,,,,,,,,,,,,,,,516.4594519000966,-9,none,0,,,519.4662849000888,,,,,,,,,,,,,,,,,,,,,,52,C,2024-05-22_17h37.19.217,attentional_competition_task,2022.2.4,144.00486158749985,
positions.xlsx,positions_test.xlsx,positions_test_new.xlsx,stimuli.xlsx,stimuli_new.xlsx,stimuli/Social3.png,stimuli/Social4.png,stimuli/Nonsocial3.png,stimuli/Nonsocial4.png,stimuli/Social1.png,stimuli/Social2.png,stimuli/Nonsocial1.png,stimuli/Nonsocial2.png,cs_neg_s,"(-0.7, 0.5)",,,,,,,,,0,0,0,0,,,,,,,,,1,14,30,0,,,,,,,,,,,,,,,,,,,,,,,,,,,,,,,,,,,,,,526.9868102000328,-9,none,0,,,529.9936345000751,,,,,,,,,,,,,,,,,,,,,,52,C,2024-05-22_17h37.19.217,attentional_competition_task,2022.2.4,144.00486158749985,
positions.xlsx,positions_test.xlsx,positions_test_new.xlsx,stimuli.xlsx,stimuli_new.xlsx,stimuli/Social3.png,stimuli/Social4.png,stimuli/Nonsocial3.png,stimuli/Nonsocial4.png,stimuli/Social1.png,stimuli/Social2.png,stimuli/Nonsocial1.png,stimuli/Nonsocial2.png,cs_pos_s,"(0.7, 0.5)",,,,,,,,,0,0,0,0,,,,,,,,,1,15,31,6,,,,,,,,,,,,,,,,,,,,,,,,,,,,,,,,,,,,,,537.7919402000261,-6,reward,1,0.7430643999250606,0.7430683999555185,538.5419166000793,,,,,,,,,,,,,,,,,,,,,,52,C,2024-05-22_17h37.19.217,attentional_competition_task,2022.2.4,144.00486158749985,
positions.xlsx,positions_test.xlsx,positions_test_new.xlsx,stimuli.xlsx,stimuli_new.xlsx,stimuli/Social3.png,stimuli/Social4.png,stimuli/Nonsocial3.png,stimuli/Nonsocial4.png,stimuli/Social1.png,stimuli/Social2.png,stimuli/Nonsocial1.png,stimuli/Nonsocial2.png,cs_neg_ns,"(-0.7, -0.5)",,,,,,,,,0,0,0,0,,,,,,,,,,,,,0,0,0,9,,,,,,,,,,,,,,,,,,,,,,,,,,,,,,,,,,553.9718613000587,-9,loss,1,1.5068431999534369,1.5068470999831334,555.4856653000461,,,,,,,,,,,,,,,,,,,,,,52,C,2024-05-22_17h37.19.217,attentional_competition_task,2022.2.4,144.00486158749985,
positions.xlsx,positions_test.xlsx,positions_test_new.xlsx,stimuli.xlsx,stimuli_new.xlsx,stimuli/Social3.png,stimuli/Social4.png,stimuli/Nonsocial3.png,stimuli/Nonsocial4.png,stimuli/Social1.png,stimuli/Social2.png,stimuli/Nonsocial1.png,stimuli/Nonsocial2.png,cs_neg_ns,"(0.7, 0.5)",,,,,,,,,0,0,0,0,,,,,,,,,,,,,0,1,1,10,,,,,,,,,,,,,,,,,,,,,,,,,,,,,,,,,,563.3742458000779,-12,loss,0,,,563.7562625000719,,,,,,,,,,,,,,,,,,,,,,52,C,2024-05-22_17h37.19.217,attentional_competition_task,2022.2.4,144.00486158749985,
positions.xlsx,positions_test.xlsx,positions_test_new.xlsx,stimuli.xlsx,stimuli_new.xlsx,stimuli/Social3.png,stimuli/Social4.png,stimuli/Nonsocial3.png,stimuli/Nonsocial4.png,stimuli/Social1.png,stimuli/Social2.png,stimuli/Nonsocial1.png,stimuli/Nonsocial2.png,cs_neg_s,"(-0.7, 0.5)",,,,,,,,,0,0,0,0,,,,,,,,,,,,,0,2,2,0,,,,,,,,,,,,,,,,,,,,,,,,,,,,,,,,,,571.2002803999931,-12,none,0,,,574.2071288999869,,,,,,,,,,,,,,,,,,,,,,52,C,2024-05-22_17h37.19.217,attentional_competition_task,2022.2.4,144.00486158749985,
positions.xlsx,positions_test.xlsx,positions_test_new.xlsx,stimuli.xlsx,stimuli_new.xlsx,stimuli/Social3.png,stimuli/Social4.png,stimuli/Nonsocial3.png,stimuli/Nonsocial4.png,stimuli/Social1.png,stimuli/Social2.png,stimuli/Nonsocial1.png,stimuli/Nonsocial2.png,cs_pos_s,"(-0.7, 0.5)",,,,,,,,,0,0,0,0,,,,,,,,,,,,,0,3,3,4,,,,,,,,,,,,,,,,,,,,,,,,,,,,,,,,,,582.533210500027,-9,reward,1,0.5976857000496238,0.5976897000800818,583.1373525999952,,,,,,,,,,,,,,,,,,,,,,52,C,2024-05-22_17h37.19.217,attentional_competition_task,2022.2.4,144.00486158749985,
positions.xlsx,positions_test.xlsx,positions_test_new.xlsx,stimuli.xlsx,stimuli_new.xlsx,stimuli/Social3.png,stimuli/Social4.png,stimuli/Nonsocial3.png,stimuli/Nonsocial4.png,stimuli/Social1.png,stimuli/Social2.png,stimuli/Nonsocial1.png,stimuli/Nonsocial2.png,cs_neg_s,"(-0.7, -0.5)",,,,,,,,,0,0,0,0,,,,,,,,,,,,,0,4,4,1,,,,,,,,,,,,,,,,,,,,,,,,,,,,,,,,,,590.4565115000587,-9,none,0,,,593.4633192000911,,,,,,,,,,,,,,,,,,,,,,52,C,2024-05-22_17h37.19.217,attentional_competition_task,2022.2.4,144.00486158749985,
positions.xlsx,positions_test.xlsx,positions_test_new.xlsx,stimuli.xlsx,stimuli_new.xlsx,stimuli/Social3.png,stimuli/Social4.png,stimuli/Nonsocial3.png,stimuli/Nonsocial4.png,stimuli/Social1.png,stimuli/Social2.png,stimuli/Nonsocial1.png,stimuli/Nonsocial2.png,cs_neg_ns,"(-0.7, 0.5)",,,,,,,,,0,0,0,0,,,,,,,,,,,,,0,5,5,8,,,,,,,,,,,,,,,,,,,,,,,,,,,,,,,,,,601.3171895000851,-9,none,0,,,604.3309885000344,,,,,,,,,,,,,,,,,,,,,,52,C,2024-05-22_17h37.19.217,attentional_competition_task,2022.2.4,144.00486158749985,
positions.xlsx,positions_test.xlsx,positions_test_new.xlsx,stimuli.xlsx,stimuli_new.xlsx,stimuli/Social3.png,stimuli/Social4.png,stimuli/Nonsocial3.png,stimuli/Nonsocial4.png,stimuli/Social1.png,stimuli/Social2.png,stimuli/Nonsocial1.png,stimuli/Nonsocial2.png,cs_pos_ns,"(-0.7, -0.5)",,,,,,,,,0,0,0,0,,,,,,,,,,,,,0,6,6,13,,,,,,,,,,,,,,,,,,,,,,,,,,,,,,,,,,611.545964900055,-6,reward,1,0.5069289000239223,0.5069325000513345,612.0597838000394,,,,,,,,,,,,,,,,,,,,,,52,C,2024-05-22_17h37.19.217,attentional_competition_task,2022.2.4,144.00486158749985,
positions.xlsx,positions_test.xlsx,positions_test_new.xlsx,stimuli.xlsx,stimuli_new.xlsx,stimuli/Social3.png,stimuli/Social4.png,stimuli/Nonsocial3.png,stimuli/Nonsocial4.png,stimuli/Social1.png,stimuli/Social2.png,stimuli/Nonsocial1.png,stimuli/Nonsocial2.png,cs_neg_ns,"(0.7, -0.5)",,,,,,,,,0,0,0,0,,,,,,,,,,,,,0,7,7,11,,,,,,,,,,,,,,,,,,,,,,,,,,,,,,,,,,619.0664479000261,-9,loss,1,0.5073172999545932,0.5073210999835283,619.5803306000307,,,,,,,,,,,,,,,,,,,,,,52,C,2024-05-22_17h37.19.217,attentional_competition_task,2022.2.4,144.00486158749985,
positions.xlsx,positions_test.xlsx,positions_test_new.xlsx,stimuli.xlsx,stimuli_new.xlsx,stimuli/Social3.png,stimuli/Social4.png,stimuli/Nonsocial3.png,stimuli/Nonsocial4.png,stimuli/Social1.png,stimuli/Social2.png,stimuli/Nonsocial1.png,stimuli/Nonsocial2.png,cs_pos_ns,"(0.7, 0.5)",,,,,,,,,0,0,0,0,,,,,,,,,,,,,0,8,8,14,,,,,,,,,,,,,,,,,,,,,,,,,,,,,,,,,,627.7466575000435,-9,none,0,,,630.7604531000834,,,,,,,,,,,,,,,,,,,,,,52,C,2024-05-22_17h37.19.217,attentional_competition_task,2022.2.4,144.00486158749985,
positions.xlsx,positions_test.xlsx,positions_test_new.xlsx,stimuli.xlsx,stimuli_new.xlsx,stimuli/Social3.png,stimuli/Social4.png,stimuli/Nonsocial3.png,stimuli/Nonsocial4.png,stimuli/Social1.png,stimuli/Social2.png,stimuli/Nonsocial1.png,stimuli/Nonsocial2.png,cs_neg_s,"(0.7, 0.5)",,,,,,,,,0,0,0,0,,,,,,,,,,,,,0,9,9,2,,,,,,,,,,,,,,,,,,,,,,,,,,,,,,,,,,638.0309983000625,-9,none,0,,,641.0377911000978,,,,,,,,,,,,,,,,,,,,,,52,C,2024-05-22_17h37.19.217,attentional_competition_task,2022.2.4,144.00486158749985,
positions.xlsx,positions_test.xlsx,positions_test_new.xlsx,stimuli.xlsx,stimuli_new.xlsx,stimuli/Social3.png,stimuli/Social4.png,stimuli/Nonsocial3.png,stimuli/Nonsocial4.png,stimuli/Social1.png,stimuli/Social2.png,stimuli/Nonsocial1.png,stimuli/Nonsocial2.png,cs_pos_ns,"(0.7, -0.5)",,,,,,,,,0,0,0,0,,,,,,,,,,,,,0,10,10,15,,,,,,,,,,,,,,,,,,,,,,,,,,,,,,,,,,648.4194715000922,-6,reward,1,0.8268226000946015,0.8268262000055984,649.2527718000347,,,,,,,,,,,,,,,,,,,,,,52,C,2024-05-22_17h37.19.217,attentional_competition_task,2022.2.4,144.00486158749985,
positions.xlsx,positions_test.xlsx,positions_test_new.xlsx,stimuli.xlsx,stimuli_new.xlsx,stimuli/Social3.png,stimuli/Social4.png,stimuli/Nonsocial3.png,stimuli/Nonsocial4.png,stimuli/Social1.png,stimuli/Social2.png,stimuli/Nonsocial1.png,stimuli/Nonsocial2.png,cs_pos_s,"(0.7, -0.5)",,,,,,,,,0,0,0,0,,,,,,,,,,,,,0,11,11,7,,,,,,,,,,,,,,,,,,,,,,,,,,,,,,,,,,656.766333000036,-3,reward,1,0.5142932999879122,0.5212962999939919,657.2941107000224,,,,,,,,,,,,,,,,,,,,,,52,C,2024-05-22_17h37.19.217,attentional_competition_task,2022.2.4,144.00486158749985,
positions.xlsx,positions_test.xlsx,positions_test_new.xlsx,stimuli.xlsx,stimuli_new.xlsx,stimuli/Social3.png,stimuli/Social4.png,stimuli/Nonsocial3.png,stimuli/Nonsocial4.png,stimuli/Social1.png,stimuli/Social2.png,stimuli/Nonsocial1.png,stimuli/Nonsocial2.png,cs_pos_s,"(0.7, 0.5)",,,,,,,,,0,0,0,0,,,,,,,,,,,,,0,12,12,6,,,,,,,,,,,,,,,,,,,,,,,,,,,,,,,,,,665.3771225000964,0,reward,1,0.43085520004387945,0.4379880999913439,665.8216243000934,,,,,,,,,,,,,,,,,,,,,,52,C,2024-05-22_17h37.19.217,attentional_competition_task,2022.2.4,144.00486158749985,
positions.xlsx,positions_test.xlsx,positions_test_new.xlsx,stimuli.xlsx,stimuli_new.xlsx,stimuli/Social3.png,stimuli/Social4.png,stimuli/Nonsocial3.png,stimuli/Nonsocial4.png,stimuli/Social1.png,stimuli/Social2.png,stimuli/Nonsocial1.png,stimuli/Nonsocial2.png,cs_pos_s,"(-0.7, -0.5)",,,,,,,,,0,0,0,0,,,,,,,,,,,,,0,13,13,5,,,,,,,,,,,,,,,,,,,,,,,,,,,,,,,,,,673.9254029000876,3,reward,1,0.2919158000731841,0.2919197001028806,674.2240106000099,,,,,,,,,,,,,,,,,,,,,,52,C,2024-05-22_17h37.19.217,attentional_competition_task,2022.2.4,144.00486158749985,
positions.xlsx,positions_test.xlsx,positions_test_new.xlsx,stimuli.xlsx,stimuli_new.xlsx,stimuli/Social3.png,stimuli/Social4.png,stimuli/Nonsocial3.png,stimuli/Nonsocial4.png,stimuli/Social1.png,stimuli/Social2.png,stimuli/Nonsocial1.png,stimuli/Nonsocial2.png,cs_neg_s,"(0.7, -0.5)",,,,,,,,,0,0,0,0,,,,,,,,,,,,,0,14,14,3,,,,,,,,,,,,,,,,,,,,,,,,,,,,,,,,,,682.286166200065,3,none,0,,,685.2930085000116,,,,,,,,,,,,,,,,,,,,,,52,C,2024-05-22_17h37.19.217,attentional_competition_task,2022.2.4,144.00486158749985,
positions.xlsx,positions_test.xlsx,positions_test_new.xlsx,stimuli.xlsx,stimuli_new.xlsx,stimuli/Social3.png,stimuli/Social4.png,stimuli/Nonsocial3.png,stimuli/Nonsocial4.png,stimuli/Social1.png,stimuli/Social2.png,stimuli/Nonsocial1.png,stimuli/Nonsocial2.png,cs_pos_ns,"(-0.7, 0.5)",,,,,,,,,0,0,0,0,,,,,,,,,,,,,0,15,15,12,,,,,,,,,,,,,,,,,,,,,,,,,,,,,,,,,,692.8552099000663,6,reward,1,1.3128616999601945,1.312865599989891,694.1746300000232,,,,,,,,,,,,,,,,,,,,,,52,C,2024-05-22_17h37.19.217,attentional_competition_task,2022.2.4,144.00486158749985,
positions.xlsx,positions_test.xlsx,positions_test_new.xlsx,stimuli.xlsx,stimuli_new.xlsx,stimuli/Social3.png,stimuli/Social4.png,stimuli/Nonsocial3.png,stimuli/Nonsocial4.png,stimuli/Social1.png,stimuli/Social2.png,stimuli/Nonsocial1.png,stimuli/Nonsocial2.png,cs_pos_ns,"(-0.7, 0.5)",,,,,,,,,0,0,0,0,,,,,,,,,,,,,1,0,16,12,,,,,,,,,,,,,,,,,,,,,,,,,,,,,,,,,,701.7020328000654,9,reward,1,0.7013093000277877,0.7013130000559613,702.4103726000758,,,,,,,,,,,,,,,,,,,,,,52,C,2024-05-22_17h37.19.217,attentional_competition_task,2022.2.4,144.00486158749985,
positions.xlsx,positions_test.xlsx,positions_test_new.xlsx,stimuli.xlsx,stimuli_new.xlsx,stimuli/Social3.png,stimuli/Social4.png,stimuli/Nonsocial3.png,stimuli/Nonsocial4.png,stimuli/Social1.png,stimuli/Social2.png,stimuli/Nonsocial1.png,stimuli/Nonsocial2.png,cs_neg_s,"(0.7, -0.5)",,,,,,,,,0,0,0,0,,,,,,,,,,,,,1,1,17,3,,,,,,,,,,,,,,,,,,,,,,,,,,,,,,,,,,709.8197702000616,6,loss,1,1.042239399976097,1.042243400006555,710.8683521000203,,,,,,,,,,,,,,,,,,,,,,52,C,2024-05-22_17h37.19.217,attentional_competition_task,2022.2.4,144.00486158749985,
positions.xlsx,positions_test.xlsx,positions_test_new.xlsx,stimuli.xlsx,stimuli_new.xlsx,stimuli/Social3.png,stimuli/Social4.png,stimuli/Nonsocial3.png,stimuli/Nonsocial4.png,stimuli/Social1.png,stimuli/Social2.png,stimuli/Nonsocial1.png,stimuli/Nonsocial2.png,cs_neg_s,"(-0.7, -0.5)",,,,,,,,,0,0,0,0,,,,,,,,,,,,,1,2,18,1,,,,,,,,,,,,,,,,,,,,,,,,,,,,,,,,,,717.7569545999868,6,none,0,,,720.7707575000823,,,,,,,,,,,,,,,,,,,,,,52,C,2024-05-22_17h37.19.217,attentional_competition_task,2022.2.4,144.00486158749985,
positions.xlsx,positions_test.xlsx,positions_test_new.xlsx,stimuli.xlsx,stimuli_new.xlsx,stimuli/Social3.png,stimuli/Social4.png,stimuli/Nonsocial3.png,stimuli/Nonsocial4.png,stimuli/Social1.png,stimuli/Social2.png,stimuli/Nonsocial1.png,stimuli/Nonsocial2.png,cs_pos_s,"(0.7, -0.5)",,,,,,,,,0,0,0,0,,,,,,,,,,,,,1,3,19,7,,,,,,,,,,,,,,,,,,,,,,,,,,,,,,,,,,727.7010242000688,9,reward,1,0.5484877000562847,0.5484914999688044,728.2565354000544,,,,,,,,,,,,,,,,,,,,,,52,C,2024-05-22_17h37.19.217,attentional_competition_task,2022.2.4,144.00486158749985,
positions.xlsx,positions_test.xlsx,positions_test_new.xlsx,stimuli.xlsx,stimuli_new.xlsx,stimuli/Social3.png,stimuli/Social4.png,stimuli/Nonsocial3.png,stimuli/Nonsocial4.png,stimuli/Social1.png,stimuli/Social2.png,stimuli/Nonsocial1.png,stimuli/Nonsocial2.png,cs_pos_s,"(-0.7, 0.5)",,,,,,,,,0,0,0,0,,,,,,,,,,,,,1,4,20,4,,,,,,,,,,,,,,,,,,,,,,,,,,,,,,,,,,735.7770917000016,12,reward,1,0.785148199996911,0.7851521999109536,736.5687613000628,,,,,,,,,,,,,,,,,,,,,,52,C,2024-05-22_17h37.19.217,attentional_competition_task,2022.2.4,144.00486158749985,
positions.xlsx,positions_test.xlsx,positions_test_new.xlsx,stimuli.xlsx,stimuli_new.xlsx,stimuli/Social3.png,stimuli/Social4.png,stimuli/Nonsocial3.png,stimuli/Nonsocial4.png,stimuli/Social1.png,stimuli/Social2.png,stimuli/Nonsocial1.png,stimuli/Nonsocial2.png,cs_neg_ns,"(0.7, 0.5)",,,,,,,,,0,0,0,0,,,,,,,,,,,,,1,5,21,10,,,,,,,,,,,,,,,,,,,,,,,,,,,,,,,,,,744.2628455000231,9,loss,1,2.0770057999761775,2.077009500004351,746.346162800095,,,,,,,,,,,,,,,,,,,,,,52,C,2024-05-22_17h37.19.217,attentional_competition_task,2022.2.4,144.00486158749985,
positions.xlsx,positions_test.xlsx,positions_test_new.xlsx,stimuli.xlsx,stimuli_new.xlsx,stimuli/Social3.png,stimuli/Social4.png,stimuli/Nonsocial3.png,stimuli/Nonsocial4.png,stimuli/Social1.png,stimuli/Social2.png,stimuli/Nonsocial1.png,stimuli/Nonsocial2.png,cs_neg_ns,"(-0.7, -0.5)",,,,,,,,,0,0,0,0,,,,,,,,,,,,,1,6,22,9,,,,,,,,,,,,,,,,,,,,,,,,,,,,,,,,,,753.5749942000257,6,loss,1,1.2802713999990374,1.2802755000302568,754.859641600051,,,,,,,,,,,,,,,,,,,,,,52,C,2024-05-22_17h37.19.217,attentional_competition_task,2022.2.4,144.00486158749985,
positions.xlsx,positions_test.xlsx,positions_test_new.xlsx,stimuli.xlsx,stimuli_new.xlsx,stimuli/Social3.png,stimuli/Social4.png,stimuli/Nonsocial3.png,stimuli/Nonsocial4.png,stimuli/Social1.png,stimuli/Social2.png,stimuli/Nonsocial1.png,stimuli/Nonsocial2.png,cs_neg_s,"(-0.7, 0.5)",,,,,,,,,0,0,0,0,,,,,,,,,,,,,1,7,23,0,,,,,,,,,,,,,,,,,,,,,,,,,,,,,,,,,,761.810752700083,6,none,0,,,764.8176021000836,,,,,,,,,,,,,,,,,,,,,,52,C,2024-05-22_17h37.19.217,attentional_competition_task,2022.2.4,144.00486158749985,
positions.xlsx,positions_test.xlsx,positions_test_new.xlsx,stimuli.xlsx,stimuli_new.xlsx,stimuli/Social3.png,stimuli/Social4.png,stimuli/Nonsocial3.png,stimuli/Nonsocial4.png,stimuli/Social1.png,stimuli/Social2.png,stimuli/Nonsocial1.png,stimuli/Nonsocial2.png,cs_pos_s,"(-0.7, -0.5)",,,,,,,,,0,0,0,0,,,,,,,,,,,,,1,8,24,5,,,,,,,,,,,,,,,,,,,,,,,,,,,,,,,,,,772.7617624000413,9,reward,1,0.6110686999745667,0.6110723000019789,773.3797619000543,,,,,,,,,,,,,,,,,,,,,,52,C,2024-05-22_17h37.19.217,attentional_competition_task,2022.2.4,144.00486158749985,
positions.xlsx,positions_test.xlsx,positions_test_new.xlsx,stimuli.xlsx,stimuli_new.xlsx,stimuli/Social3.png,stimuli/Social4.png,stimuli/Nonsocial3.png,stimuli/Nonsocial4.png,stimuli/Social1.png,stimuli/Social2.png,stimuli/Nonsocial1.png,stimuli/Nonsocial2.png,cs_pos_s,"(0.7, 0.5)",,,,,,,,,0,0,0,0,,,,,,,,,,,,,1,9,25,6,,,,,,,,,,,,,,,,,,,,,,,,,,,,,,,,,,780.8447195000481,12,reward,1,0.20817470003385097,0.20817870006430894,781.0600276000332,,,,,,,,,,,,,,,,,,,,,,52,C,2024-05-22_17h37.19.217,attentional_competition_task,2022.2.4,144.00486158749985,
positions.xlsx,positions_test.xlsx,positions_test_new.xlsx,stimuli.xlsx,stimuli_new.xlsx,stimuli/Social3.png,stimuli/Social4.png,stimuli/Nonsocial3.png,stimuli/Nonsocial4.png,stimuli/Social1.png,stimuli/Social2.png,stimuli/Nonsocial1.png,stimuli/Nonsocial2.png,cs_pos_ns,"(0.7, -0.5)",,,,,,,,,0,0,0,0,,,,,,,,,,,,,1,10,26,15,,,,,,,,,,,,,,,,,,,,,,,,,,,,,,,,,,789.2680256000021,15,reward,1,0.7222541000228375,0.7222577000502497,789.9971610000357,,,,,,,,,,,,,,,,,,,,,,52,C,2024-05-22_17h37.19.217,attentional_competition_task,2022.2.4,144.00486158749985,
positions.xlsx,positions_test.xlsx,positions_test_new.xlsx,stimuli.xlsx,stimuli_new.xlsx,stimuli/Social3.png,stimuli/Social4.png,stimuli/Nonsocial3.png,stimuli/Nonsocial4.png,stimuli/Social1.png,stimuli/Social2.png,stimuli/Nonsocial1.png,stimuli/Nonsocial2.png,cs_pos_ns,"(-0.7, -0.5)",,,,,,,,,0,0,0,0,,,,,,,,,,,,,1,11,27,13,,,,,,,,,,,,,,,,,,,,,,,,,,,,,,,,,,797.448297200026,18,reward,1,0.4516323000425473,0.4516357999527827,797.9065348000731,,,,,,,,,,,,,,,,,,,,,,52,C,2024-05-22_17h37.19.217,attentional_competition_task,2022.2.4,144.00486158749985,
positions.xlsx,positions_test.xlsx,positions_test_new.xlsx,stimuli.xlsx,stimuli_new.xlsx,stimuli/Social3.png,stimuli/Social4.png,stimuli/Nonsocial3.png,stimuli/Nonsocial4.png,stimuli/Social1.png,stimuli/Social2.png,stimuli/Nonsocial1.png,stimuli/Nonsocial2.png,cs_pos_ns,"(0.7, 0.5)",,,,,,,,,0,0,0,0,,,,,,,,,,,,,1,12,28,14,,,,,,,,,,,,,,,,,,,,,,,,,,,,,,,,,,805.6701524000382,21,reward,2,0.9517522000242025,0.9586999999592081,806.642337199999,,,,,,,,,,,,,,,,,,,,,,52,C,2024-05-22_17h37.19.217,attentional_competition_task,2022.2.4,144.00486158749985,
positions.xlsx,positions_test.xlsx,positions_test_new.xlsx,stimuli.xlsx,stimuli_new.xlsx,stimuli/Social3.png,stimuli/Social4.png,stimuli/Nonsocial3.png,stimuli/Nonsocial4.png,stimuli/Social1.png,stimuli/Social2.png,stimuli/Nonsocial1.png,stimuli/Nonsocial2.png,cs_neg_ns,"(0.7, -0.5)",,,,,,,,,0,0,0,0,,,,,,,,,,,,,1,13,29,11,,,,,,,,,,,,,,,,,,,,,,,,,,,,,,,,,,813.8642846000148,18,loss,1,0.9313598000444472,0.9313637999584898,814.801729900064,,,,,,,,,,,,,,,,,,,,,,52,C,2024-05-22_17h37.19.217,attentional_competition_task,2022.2.4,144.00486158749985,
positions.xlsx,positions_test.xlsx,positions_test_new.xlsx,stimuli.xlsx,stimuli_new.xlsx,stimuli/Social3.png,stimuli/Social4.png,stimuli/Nonsocial3.png,stimuli/Nonsocial4.png,stimuli/Social1.png,stimuli/Social2.png,stimuli/Nonsocial1.png,stimuli/Nonsocial2.png,cs_neg_ns,"(-0.7, 0.5)",,,,,,,,,0,0,0,0,,,,,,,,,,,,,1,14,30,8,,,,,,,,,,,,,,,,,,,,,,,,,,,,,,,,,,822.5375036000041,15,loss,1,2.5834955000318587,2.583498999942094,825.1277010000776,,,,,,,,,,,,,,,,,,,,,,52,C,2024-05-22_17h37.19.217,attentional_competition_task,2022.2.4,144.00486158749985,
positions.xlsx,positions_test.xlsx,positions_test_new.xlsx,stimuli.xlsx,stimuli_new.xlsx,stimuli/Social3.png,stimuli/Social4.png,stimuli/Nonsocial3.png,stimuli/Nonsocial4.png,stimuli/Social1.png,stimuli/Social2.png,stimuli/Nonsocial1.png,stimuli/Nonsocial2.png,cs_neg_s,"(0.7, 0.5)",,,,,,,,,0,0,0,0,,,,,,,,,,,,,1,15,31,2,,,,,,,,,,,,,,,,,,,,,,,,,,,,,,,,,,832.9676537000341,15,none,0,,,835.9745046000462,,,,,,,,,,,,,,,,,,,,,,52,C,2024-05-22_17h37.19.217,attentional_competition_task,2022.2.4,144.00486158749985,
positions.xlsx,positions_test.xlsx,positions_test_new.xlsx,stimuli.xlsx,stimuli_new.xlsx,stimuli/Social3.png,stimuli/Social4.png,stimuli/Nonsocial3.png,stimuli/Nonsocial4.png,stimuli/Social1.png,stimuli/Social2.png,stimuli/Nonsocial1.png,stimuli/Nonsocial2.png,cs_neg_ns,,,,,,,,,,0,0,0,0,,,,,,,,,,,,,,,,,0,0,0,1,,,,,,,,,,,,,,,,,,,,,,,841.0298439000035,4.0,4.969689500052482,,,,,,,,,,,,,,,,,,,,,,,,,,,,,,,,,52,C,2024-05-22_17h37.19.217,attentional_competition_task,2022.2.4,144.00486158749985,
positions.xlsx,positions_test.xlsx,positions_test_new.xlsx,stimuli.xlsx,stimuli_new.xlsx,stimuli/Social3.png,stimuli/Social4.png,stimuli/Nonsocial3.png,stimuli/Nonsocial4.png,stimuli/Social1.png,stimuli/Social2.png,stimuli/Nonsocial1.png,stimuli/Nonsocial2.png,cs_pos_ns,,,,,,,,,,0,0,0,0,,,,,,,,,,,,,,,,,0,1,1,3,,,,,,,,,,,,,,,,,,,,,,,847.2240332000656,6.0,1.709729399997741,,,,,,,,,,,,,,,,,,,,,,,,,,,,,,,,,52,C,2024-05-22_17h37.19.217,attentional_competition_task,2022.2.4,144.00486158749985,
positions.xlsx,positions_test.xlsx,positions_test_new.xlsx,stimuli.xlsx,stimuli_new.xlsx,stimuli/Social3.png,stimuli/Social4.png,stimuli/Nonsocial3.png,stimuli/Nonsocial4.png,stimuli/Social1.png,stimuli/Social2.png,stimuli/Nonsocial1.png,stimuli/Nonsocial2.png,cs_pos_s,,,,,,,,,,0,0,0,0,,,,,,,,,,,,,,,,,0,2,2,2,,,,,,,,,,,,,,,,,,,,,,,849.3837033000309,6.0,1.661862500011921,,,,,,,,,,,,,,,,,,,,,,,,,,,,,,,,,52,C,2024-05-22_17h37.19.217,attentional_competition_task,2022.2.4,144.00486158749985,
positions.xlsx,positions_test.xlsx,positions_test_new.xlsx,stimuli.xlsx,stimuli_new.xlsx,stimuli/Social3.png,stimuli/Social4.png,stimuli/Nonsocial3.png,stimuli/Nonsocial4.png,stimuli/Social1.png,stimuli/Social2.png,stimuli/Nonsocial1.png,stimuli/Nonsocial2.png,cs_neg_s,,,,,,,,,,0,0,0,0,,,,,,,,,,,,,,,,,0,3,3,0,,,,,,,,,,,,,,,,,,,,,,,851.2169309000019,3.0,1.210813199984841,,,,,,,,,,,,,,,,,,,,,,,,,,,,,,,,,52,C,2024-05-22_17h37.19.217,attentional_competition_task,2022.2.4,144.00486158749985,
positions.xlsx,positions_test.xlsx,positions_test_new.xlsx,stimuli.xlsx,stimuli_new.xlsx,stimuli/Social3.png,stimuli/Social4.png,stimuli/Nonsocial3.png,stimuli/Nonsocial4.png,stimuli/Social1.png,stimuli/Social2.png,stimuli/Nonsocial1.png,stimuli/Nonsocial2.png,,,"(-0.7, -0.5)",cs_neg_ns,"(-0.7, 0.5)",cs_pos_ns,"(0.7, -0.5)",cs_neg_s,"(0.7, 0.5)",cs_pos_s,0,0,0,0,,,,,,,,,,,,,,,,,,,,,0,0,0,17,,,,,,,,,,,,,,,,,,,,,,,,,,,21,reward,,,,,852.5016396000283,860.5012848000042,860.5012848000042,860.5012848000042,860.5012848000042,0,,,1,0.738173299934715,0.7450335000175983,0,,,1,0.02958329999819398,0.6626269000116736,861.2443166000303,861.2443166000303,861.2443166000303,861.2443166000303,52,C,2024-05-22_17h37.19.217,attentional_competition_task,2022.2.4,144.00486158749985,
positions.xlsx,positions_test.xlsx,positions_test_new.xlsx,stimuli.xlsx,stimuli_new.xlsx,stimuli/Social3.png,stimuli/Social4.png,stimuli/Nonsocial3.png,stimuli/Nonsocial4.png,stimuli/Social1.png,stimuli/Social2.png,stimuli/Nonsocial1.png,stimuli/Nonsocial2.png,,,"(-0.7, -0.5)",cs_neg_s,"(-0.7, 0.5)",cs_pos_s,"(0.7, -0.5)",cs_neg_ns,"(0.7, 0.5)",cs_pos_ns,0,0,0,0,,,,,,,,,,,,,,,,,,,,,0,1,1,0,,,,,,,,,,,,,,,,,,,,,,,,,,,30,reward,,,,,,869.8272896000417,869.8272896000417,869.8272896000417,869.8272896000417,0,,,0,,,0,,,0,,,870.5217382000992,870.5217382000992,870.5217382000992,870.5217382000992,52,C,2024-05-22_17h37.19.217,attentional_competition_task,2022.2.4,144.00486158749985,
positions.xlsx,positions_test.xlsx,positions_test_new.xlsx,stimuli.xlsx,stimuli_new.xlsx,stimuli/Social3.png,stimuli/Social4.png,stimuli/Nonsocial3.png,stimuli/Nonsocial4.png,stimuli/Social1.png,stimuli/Social2.png,stimuli/Nonsocial1.png,stimuli/Nonsocial2.png,,,"(-0.7, -0.5)",cs_pos_ns,"(-0.7, 0.5)",cs_neg_ns,"(0.7, -0.5)",cs_neg_s,"(0.7, 0.5)",cs_pos_s,0,0,0,0,,,,,,,,,,,,,,,,,,,,,0,2,2,21,,,,,,,,,,,,,,,,,,,,,,,,,,,39,reward,,,,,,878.5283561000833,878.5283561000833,878.5283561000833,878.5283561000833,0,,,0,,,0,,,0,,,879.403327899985,879.403327899985,879.403327899985,879.403327899985,52,C,2024-05-22_17h37.19.217,attentional_competition_task,2022.2.4,144.00486158749985,
positions.xlsx,positions_test.xlsx,positions_test_new.xlsx,stimuli.xlsx,stimuli_new.xlsx,stimuli/Social3.png,stimuli/Social4.png,stimuli/Nonsocial3.png,stimuli/Nonsocial4.png,stimuli/Social1.png,stimuli/Social2.png,stimuli/Nonsocial1.png,stimuli/Nonsocial2.png,,,"(-0.7, -0.5)",cs_pos_s,"(-0.7, 0.5)",cs_pos_ns,"(0.7, -0.5)",cs_neg_ns,"(0.7, 0.5)",cs_neg_s,0,0,0,0,,,,,,,,,,,,,,,,,,,,,0,3,3,11,,,,,,,,,,,,,,,,,,,,,,,,,,,39,loss,,,,,,886.3613885000814,886.3613885000814,886.3613885000814,886.3613885000814,1,0.02272350003477186,0.8365617000963539,0,,,1,0.9127362000290304,0.9127400000579655,0,,,887.278027900029,887.278027900029,887.278027900029,887.278027900029,52,C,2024-05-22_17h37.19.217,attentional_competition_task,2022.2.4,144.00486158749985,
positions.xlsx,positions_test.xlsx,positions_test_new.xlsx,stimuli.xlsx,stimuli_new.xlsx,stimuli/Social3.png,stimuli/Social4.png,stimuli/Nonsocial3.png,stimuli/Nonsocial4.png,stimuli/Social1.png,stimuli/Social2.png,stimuli/Nonsocial1.png,stimuli/Nonsocial2.png,,,"(-0.7, -0.5)",cs_pos_ns,"(-0.7, 0.5)",cs_pos_s,"(0.7, -0.5)",cs_neg_s,"(0.7, 0.5)",cs_neg_ns,0,0,0,0,,,,,,,,,,,,,,,,,,,,,0,4,4,19,,,,,,,,,,,,,,,,,,,,,,,,,,,48,reward,,,,,,895.6388251000317,895.6388251000317,895.6388251000317,895.6388251000317,0,,,1,0.028096199966967106,0.0800914999563247,0,,,0,,,896.3609816000098,896.3609816000098,896.3609816000098,896.3609816000098,52,C,2024-05-22_17h37.19.217,attentional_competition_task,2022.2.4,144.00486158749985,
positions.xlsx,positions_test.xlsx,positions_test_new.xlsx,stimuli.xlsx,stimuli_new.xlsx,stimuli/Social3.png,stimuli/Social4.png,stimuli/Nonsocial3.png,stimuli/Nonsocial4.png,stimuli/Social1.png,stimuli/Social2.png,stimuli/Nonsocial1.png,stimuli/Nonsocial2.png,,,"(-0.7, -0.5)",cs_pos_ns,"(-0.7, 0.5)",cs_neg_ns,"(0.7, -0.5)",cs_pos_s,"(0.7, 0.5)",cs_neg_s,0,0,0,0,,,,,,,,,,,,,,,,,,,,,0,5,5,20,,,,,,,,,,,,,,,,,,,,,,,,,,,57,reward,,,,,,904.1731715000933,904.1731715000933,904.1731715000933,904.1731715000933,0,,,0,,,0,,,0,,,905.013420100091,905.013420100091,905.013420100091,905.013420100091,52,C,2024-05-22_17h37.19.217,attentional_competition_task,2022.2.4,144.00486158749985,
positions.xlsx,positions_test.xlsx,positions_test_new.xlsx,stimuli.xlsx,stimuli_new.xlsx,stimuli/Social3.png,stimuli/Social4.png,stimuli/Nonsocial3.png,stimuli/Nonsocial4.png,stimuli/Social1.png,stimuli/Social2.png,stimuli/Nonsocial1.png,stimuli/Nonsocial2.png,,,"(-0.7, -0.5)",cs_neg_s,"(-0.7, 0.5)",cs_pos_ns,"(0.7, -0.5)",cs_pos_s,"(0.7, 0.5)",cs_neg_ns,0,0,0,0,,,,,,,,,,,,,,,,,,,,,0,6,6,4,,,,,,,,,,,,,,,,,,,,,,,,,,,66,reward,,,,,,912.8534261999885,912.8534261999885,912.8534261999885,912.8534261999885,0,,,0,,,0,,,0,,,913.4228088000091,913.4228088000091,913.4228088000091,913.4228088000091,52,C,2024-05-22_17h37.19.217,attentional_competition_task,2022.2.4,144.00486158749985,
positions.xlsx,positions_test.xlsx,positions_test_new.xlsx,stimuli.xlsx,stimuli_new.xlsx,stimuli/Social3.png,stimuli/Social4.png,stimuli/Nonsocial3.png,stimuli/Nonsocial4.png,stimuli/Social1.png,stimuli/Social2.png,stimuli/Nonsocial1.png,stimuli/Nonsocial2.png,,,"(-0.7, -0.5)",cs_pos_s,"(-0.7, 0.5)",cs_neg_ns,"(0.7, -0.5)",cs_pos_ns,"(0.7, 0.5)",cs_neg_s,0,0,0,0,,,,,,,,,,,,,,,,,,,,,0,7,7,9,,,,,,,,,,,,,,,,,,,,,,,,,,,69,reward,,,,,,921.0960997000802,921.0960997000802,921.0960997000802,921.0960997000802,0,,,0,,,1,0.024198399973101914,0.02420210000127554,0,,,921.0960997000802,921.0960997000802,921.0960997000802,921.0960997000802,52,C,2024-05-22_17h37.19.217,attentional_competition_task,2022.2.4,144.00486158749985,
positions.xlsx,positions_test.xlsx,positions_test_new.xlsx,stimuli.xlsx,stimuli_new.xlsx,stimuli/Social3.png,stimuli/Social4.png,stimuli/Nonsocial3.png,stimuli/Nonsocial4.png,stimuli/Social1.png,stimuli/Social2.png,stimuli/Nonsocial1.png,stimuli/Nonsocial2.png,,,"(-0.7, -0.5)",cs_neg_s,"(-0.7, 0.5)",cs_pos_ns,"(0.7, -0.5)",cs_neg_ns,"(0.7, 0.5)",cs_pos_s,0,0,0,0,,,,,,,,,,,,,,,,,,,,,0,8,8,5,,,,,,,,,,,,,,,,,,,,,,,,,,,78,reward,,,,,,929.7415889000986,929.7415889000986,929.7415889000986,929.7415889000986,0,,,0,,,0,,,0,,,930.422129600076,930.422129600076,930.422129600076,930.422129600076,52,C,2024-05-22_17h37.19.217,attentional_competition_task,2022.2.4,144.00486158749985,
positions.xlsx,positions_test.xlsx,positions_test_new.xlsx,stimuli.xlsx,stimuli_new.xlsx,stimuli/Social3.png,stimuli/Social4.png,stimuli/Nonsocial3.png,stimuli/Nonsocial4.png,stimuli/Social1.png,stimuli/Social2.png,stimuli/Nonsocial1.png,stimuli/Nonsocial2.png,,,"(-0.7, -0.5)",cs_neg_s,"(-0.7, 0.5)",cs_neg_ns,"(0.7, -0.5)",cs_pos_ns,"(0.7, 0.5)",cs_pos_s,0,0,0,0,,,,,,,,,,,,,,,,,,,,,0,9,9,3,,,,,,,,,,,,,,,,,,,,,,,,,,,87,reward,,,,,,937.8107401999878,937.8107401999878,937.8107401999878,937.8107401999878,0,,,0,,,0,,,0,,,938.7273544000927,938.7273544000927,938.7273544000927,938.7273544000927,52,C,2024-05-22_17h37.19.217,attentional_competition_task,2022.2.4,144.00486158749985,
positions.xlsx,positions_test.xlsx,positions_test_new.xlsx,stimuli.xlsx,stimuli_new.xlsx,stimuli/Social3.png,stimuli/Social4.png,stimuli/Nonsocial3.png,stimuli/Nonsocial4.png,stimuli/Social1.png,stimuli/Social2.png,stimuli/Nonsocial1.png,stimuli/Nonsocial2.png,,,"(-0.7, -0.5)",cs_pos_s,"(-0.7, 0.5)",cs_neg_ns,"(0.7, -0.5)",cs_neg_s,"(0.7, 0.5)",cs_pos_ns,0,0,0,0,,,,,,,,,,,,,,,,,,,,,0,10,10,8,,,,,,,,,,,,,,,,,,,,,,,,,,,90,reward,,,,,,946.178435400012,946.178435400012,946.178435400012,946.178435400012,0,,,0,,,0,,,1,0.025239799986593425,0.025243799900636077,946.178435400012,946.178435400012,946.178435400012,946.178435400012,52,C,2024-05-22_17h37.19.217,attentional_competition_task,2022.2.4,144.00486158749985,
positions.xlsx,positions_test.xlsx,positions_test_new.xlsx,stimuli.xlsx,stimuli_new.xlsx,stimuli/Social3.png,stimuli/Social4.png,stimuli/Nonsocial3.png,stimuli/Nonsocial4.png,stimuli/Social1.png,stimuli/Social2.png,stimuli/Nonsocial1.png,stimuli/Nonsocial2.png,,,"(-0.7, -0.5)",cs_pos_s,"(-0.7, 0.5)",cs_neg_s,"(0.7, -0.5)",cs_pos_ns,"(0.7, 0.5)",cs_neg_ns,0,0,0,0,,,,,,,,,,,,,,,,,,,,,0,11,11,7,,,,,,,,,,,,,,,,,,,,,,,,,,,93,reward,,,,,,954.5253160999855,954.5253160999855,954.5253160999855,954.5253160999855,0,,,0,,,1,0.0265398999908939,0.026543900021351874,0,,,954.5253160999855,954.5253160999855,954.5253160999855,954.5253160999855,52,C,2024-05-22_17h37.19.217,attentional_competition_task,2022.2.4,144.00486158749985,
positions.xlsx,positions_test.xlsx,positions_test_new.xlsx,stimuli.xlsx,stimuli_new.xlsx,stimuli/Social3.png,stimuli/Social4.png,stimuli/Nonsocial3.png,stimuli/Nonsocial4.png,stimuli/Social1.png,stimuli/Social2.png,stimuli/Nonsocial1.png,stimuli/Nonsocial2.png,,,"(-0.7, -0.5)",cs_neg_ns,"(-0.7, 0.5)",cs_pos_ns,"(0.7, -0.5)",cs_pos_s,"(0.7, 0.5)",cs_neg_s,0,0,0,0,,,,,,,,,,,,,,,,,,,,,0,12,12,16,,,,,,,,,,,,,,,,,,,,,,,,,,,102,reward,,,,,,962.7680476000533,962.7680476000533,962.7680476000533,962.7680476000533,0,,,0,,,0,,,0,,,963.6013633999974,963.6013633999974,963.6013633999974,963.6013633999974,52,C,2024-05-22_17h37.19.217,attentional_competition_task,2022.2.4,144.00486158749985,
positions.xlsx,positions_test.xlsx,positions_test_new.xlsx,stimuli.xlsx,stimuli_new.xlsx,stimuli/Social3.png,stimuli/Social4.png,stimuli/Nonsocial3.png,stimuli/Nonsocial4.png,stimuli/Social1.png,stimuli/Social2.png,stimuli/Nonsocial1.png,stimuli/Nonsocial2.png,,,"(-0.7, -0.5)",cs_pos_s,"(-0.7, 0.5)",cs_pos_ns,"(0.7, -0.5)",cs_neg_s,"(0.7, 0.5)",cs_neg_ns,0,0,0,0,,,,,,,,,,,,,,,,,,,,,0,13,13,10,,,,,,,,,,,,,,,,,,,,,,,,,,,105,reward,,,,,,971.2607373000355,971.2607373000355,971.2607373000355,971.2607373000355,0,,,1,0.023905099951662123,0.02390859997831285,0,,,0,,,971.2607373000355,971.2607373000355,971.2607373000355,971.2607373000355,52,C,2024-05-22_17h37.19.217,attentional_competition_task,2022.2.4,144.00486158749985,
positions.xlsx,positions_test.xlsx,positions_test_new.xlsx,stimuli.xlsx,stimuli_new.xlsx,stimuli/Social3.png,stimuli/Social4.png,stimuli/Nonsocial3.png,stimuli/Nonsocial4.png,stimuli/Social1.png,stimuli/Social2.png,stimuli/Nonsocial1.png,stimuli/Nonsocial2.png,,,"(-0.7, -0.5)",cs_pos_ns,"(-0.7, 0.5)",cs_neg_s,"(0.7, -0.5)",cs_neg_ns,"(0.7, 0.5)",cs_pos_s,0,0,0,0,,,,,,,,,,,,,,,,,,,,,0,14,14,23,,,,,,,,,,,,,,,,,,,,,,,,,,,114,reward,,,,,,978.9618363000918,978.9618363000918,978.9618363000918,978.9618363000918,0,,,0,,,0,,,0,,,979.7465301000047,979.7465301000047,979.7465301000047,979.7465301000047,52,C,2024-05-22_17h37.19.217,attentional_competition_task,2022.2.4,144.00486158749985,
positions.xlsx,positions_test.xlsx,positions_test_new.xlsx,stimuli.xlsx,stimuli_new.xlsx,stimuli/Social3.png,stimuli/Social4.png,stimuli/Nonsocial3.png,stimuli/Nonsocial4.png,stimuli/Social1.png,stimuli/Social2.png,stimuli/Nonsocial1.png,stimuli/Nonsocial2.png,,,"(-0.7, -0.5)",cs_pos_ns,"(-0.7, 0.5)",cs_pos_s,"(0.7, -0.5)",cs_neg_ns,"(0.7, 0.5)",cs_neg_s,0,0,0,0,,,,,,,,,,,,,,,,,,,,,0,15,15,18,,,,,,,,,,,,,,,,,,,,,,,,,,,117,loss,,,,,,987.3781917000888,987.3781917000888,987.3781917000888,987.3781917000888,0,,,0,,,0,,,1,0.31003619998227805,0.3168139999033883,987.704560299986,987.704560299986,987.704560299986,987.704560299986,52,C,2024-05-22_17h37.19.217,attentional_competition_task,2022.2.4,144.00486158749985,
positions.xlsx,positions_test.xlsx,positions_test_new.xlsx,stimuli.xlsx,stimuli_new.xlsx,stimuli/Social3.png,stimuli/Social4.png,stimuli/Nonsocial3.png,stimuli/Nonsocial4.png,stimuli/Social1.png,stimuli/Social2.png,stimuli/Nonsocial1.png,stimuli/Nonsocial2.png,,,"(-0.7, -0.5)",cs_pos_s,"(-0.7, 0.5)",cs_neg_s,"(0.7, -0.5)",cs_neg_ns,"(0.7, 0.5)",cs_pos_ns,0,0,0,0,,,,,,,,,,,,,,,,,,,,,0,16,16,6,,,,,,,,,,,,,,,,,,,,,,,,,,,120,reward,,,,,,996.0444600000046,996.0444600000046,996.0444600000046,996.0444600000046,0,,,0,,,0,,,1,0.02371920004952699,0.02372319996356964,996.0444600000046,996.0444600000046,996.0444600000046,996.0444600000046,52,C,2024-05-22_17h37.19.217,attentional_competition_task,2022.2.4,144.00486158749985,
positions.xlsx,positions_test.xlsx,positions_test_new.xlsx,stimuli.xlsx,stimuli_new.xlsx,stimuli/Social3.png,stimuli/Social4.png,stimuli/Nonsocial3.png,stimuli/Nonsocial4.png,stimuli/Social1.png,stimuli/Social2.png,stimuli/Nonsocial1.png,stimuli/Nonsocial2.png,,,"(-0.7, -0.5)",cs_neg_ns,"(-0.7, 0.5)",cs_neg_s,"(0.7, -0.5)",cs_pos_s,"(0.7, 0.5)",cs_pos_ns,0,0,0,0,,,,,,,,,,,,,,,,,,,,,0,17,17,14,,,,,,,,,,,,,,,,,,,,,,,,,,,129,reward,,,,,,1004.9260808000108,1004.9260808000108,1004.9260808000108,1004.9260808000108,0,,,0,,,0,,,0,,,1005.8149373000488,1005.8149373000488,1005.8149373000488,1005.8149373000488,52,C,2024-05-22_17h37.19.217,attentional_competition_task,2022.2.4,144.00486158749985,
positions.xlsx,positions_test.xlsx,positions_test_new.xlsx,stimuli.xlsx,stimuli_new.xlsx,stimuli/Social3.png,stimuli/Social4.png,stimuli/Nonsocial3.png,stimuli/Nonsocial4.png,stimuli/Social1.png,stimuli/Social2.png,stimuli/Nonsocial1.png,stimuli/Nonsocial2.png,,,"(-0.7, -0.5)",cs_neg_s,"(-0.7, 0.5)",cs_pos_s,"(0.7, -0.5)",cs_pos_ns,"(0.7, 0.5)",cs_neg_ns,0,0,0,0,,,,,,,,,,,,,,,,,,,,,0,18,18,1,,,,,,,,,,,,,,,,,,,,,,,,,,,138,reward,,,,,,1013.3771414000075,1013.3771414000075,1013.3771414000075,1013.3771414000075,0,,,0,,,0,,,0,,,1014.3771486000624,1014.3771486000624,1014.3771486000624,1014.3771486000624,52,C,2024-05-22_17h37.19.217,attentional_competition_task,2022.2.4,144.00486158749985,
positions.xlsx,positions_test.xlsx,positions_test_new.xlsx,stimuli.xlsx,stimuli_new.xlsx,stimuli/Social3.png,stimuli/Social4.png,stimuli/Nonsocial3.png,stimuli/Nonsocial4.png,stimuli/Social1.png,stimuli/Social2.png,stimuli/Nonsocial1.png,stimuli/Nonsocial2.png,,,"(-0.7, -0.5)",cs_neg_s,"(-0.7, 0.5)",cs_neg_ns,"(0.7, -0.5)",cs_pos_s,"(0.7, 0.5)",cs_pos_ns,0,0,0,0,,,,,,,,,,,,,,,,,,,,,0,19,19,2,,,,,,,,,,,,,,,,,,,,,,,,,,,147,reward,,,,,,1022.3003854000708,1022.3003854000708,1022.3003854000708,1022.3003854000708,0,,,0,,,0,,,0,,,1023.0781488000648,1023.0781488000648,1023.0781488000648,1023.0781488000648,52,C,2024-05-22_17h37.19.217,attentional_competition_task,2022.2.4,144.00486158749985,
positions.xlsx,positions_test.xlsx,positions_test_new.xlsx,stimuli.xlsx,stimuli_new.xlsx,stimuli/Social3.png,stimuli/Social4.png,stimuli/Nonsocial3.png,stimuli/Nonsocial4.png,stimuli/Social1.png,stimuli/Social2.png,stimuli/Nonsocial1.png,stimuli/Nonsocial2.png,,,"(-0.7, -0.5)",cs_neg_ns,"(-0.7, 0.5)",cs_neg_s,"(0.7, -0.5)",cs_pos_ns,"(0.7, 0.5)",cs_pos_s,0,0,0,0,,,,,,,,,,,,,,,,,,,,,0,20,20,15,,,,,,,,,,,,,,,,,,,,,,,,,,,156,reward,,,,,,1031.3486400000984,1031.3486400000984,1031.3486400000984,1031.3486400000984,0,,,0,,,0,,,0,,,1032.0222013000166,1032.0222013000166,1032.0222013000166,1032.0222013000166,52,C,2024-05-22_17h37.19.217,attentional_competition_task,2022.2.4,144.00486158749985,
positions.xlsx,positions_test.xlsx,positions_test_new.xlsx,stimuli.xlsx,stimuli_new.xlsx,stimuli/Social3.png,stimuli/Social4.png,stimuli/Nonsocial3.png,stimuli/Nonsocial4.png,stimuli/Social1.png,stimuli/Social2.png,stimuli/Nonsocial1.png,stimuli/Nonsocial2.png,,,"(-0.7, -0.5)",cs_pos_ns,"(-0.7, 0.5)",cs_neg_s,"(0.7, -0.5)",cs_pos_s,"(0.7, 0.5)",cs_neg_ns,0,0,0,0,,,,,,,,,,,,,,,,,,,,,0,21,21,22,,,,,,,,,,,,,,,,,,,,,,,,,,,159,reward,,,,,,1039.3552354000276,1039.3552354000276,1039.3552354000276,1039.3552354000276,1,0.023828200064599514,0.023832199978642166,0,,,0,,,0,,,1039.3552354000276,1039.3552354000276,1039.3552354000276,1039.3552354000276,52,C,2024-05-22_17h37.19.217,attentional_competition_task,2022.2.4,144.00486158749985,
positions.xlsx,positions_test.xlsx,positions_test_new.xlsx,stimuli.xlsx,stimuli_new.xlsx,stimuli/Social3.png,stimuli/Social4.png,stimuli/Nonsocial3.png,stimuli/Nonsocial4.png,stimuli/Social1.png,stimuli/Social2.png,stimuli/Nonsocial1.png,stimuli/Nonsocial2.png,,,"(-0.7, -0.5)",cs_neg_ns,"(-0.7, 0.5)",cs_pos_s,"(0.7, -0.5)",cs_neg_s,"(0.7, 0.5)",cs_pos_ns,0,0,0,0,,,,,,,,,,,,,,,,,,,,,0,22,22,12,,,,,,,,,,,,,,,,,,,,,,,,,,,162,reward,,,,,,1048.6812758999877,1048.6812758999877,1048.6812758999877,1048.6812758999877,0,,,0,,,0,,,1,0.02598170004785061,0.02598580007907003,1048.6812758999877,1048.6812758999877,1048.6812758999877,1048.6812758999877,52,C,2024-05-22_17h37.19.217,attentional_competition_task,2022.2.4,144.00486158749985,
positions.xlsx,positions_test.xlsx,positions_test_new.xlsx,stimuli.xlsx,stimuli_new.xlsx,stimuli/Social3.png,stimuli/Social4.png,stimuli/Nonsocial3.png,stimuli/Nonsocial4.png,stimuli/Social1.png,stimuli/Social2.png,stimuli/Nonsocial1.png,stimuli/Nonsocial2.png,,,"(-0.7, -0.5)",cs_neg_ns,"(-0.7, 0.5)",cs_pos_s,"(0.7, -0.5)",cs_pos_ns,"(0.7, 0.5)",cs_neg_s,0,0,0,0,,,,,,,,,,,,,,,,,,,,,0,23,23,13,,,,,,,,,,,,,,,,,,,,,,,,,,,171,reward,,,,,,1056.3615244000684,1056.3615244000684,1056.3615244000684,1056.3615244000684,0,,,0,,,0,,,0,,,1057.3892729000654,1057.3892729000654,1057.3892729000654,1057.3892729000654,52,C,2024-05-22_17h37.19.217,attentional_competition_task,2022.2.4,144.00486158749985,
positions.xlsx,positions_test.xlsx,positions_test_new.xlsx,stimuli.xlsx,stimuli_new.xlsx,stimuli/Social3.png,stimuli/Social4.png,stimuli/Nonsocial3.png,stimuli/Nonsocial4.png,stimuli/Social1.png,stimuli/Social2.png,stimuli/Nonsocial1.png,stimuli/Nonsocial2.png,,,"(-0.7, -0.5)",cs_neg_s,"(-0.7, 0.5)",cs_pos_s,"(0.7, -0.5)",cs_neg_ns,"(0.7, 0.5)",cs_pos_ns,0,0,0,0,,,,,,,,,,,,,,,,,,,,,1,0,24,0,,,,,,,,,,,,,,,,,,,,,,,,,,,174,reward,,,,,,1064.8611931999912,1064.8611931999912,1064.8611931999912,1064.8611931999912,0,,,0,,,0,,,1,0.02440210001077503,0.024405400035902858,1064.8611931999912,1064.8611931999912,1064.8611931999912,1064.8611931999912,52,C,2024-05-22_17h37.19.217,attentional_competition_task,2022.2.4,144.00486158749985,
positions.xlsx,positions_test.xlsx,positions_test_new.xlsx,stimuli.xlsx,stimuli_new.xlsx,stimuli/Social3.png,stimuli/Social4.png,stimuli/Nonsocial3.png,stimuli/Nonsocial4.png,stimuli/Social1.png,stimuli/Social2.png,stimuli/Nonsocial1.png,stimuli/Nonsocial2.png,,,"(-0.7, -0.5)",cs_pos_ns,"(-0.7, 0.5)",cs_neg_ns,"(0.7, -0.5)",cs_pos_s,"(0.7, 0.5)",cs_neg_s,0,0,0,0,,,,,,,,,,,,,,,,,,,,,1,1,25,20,,,,,,,,,,,,,,,,,,,,,,,,,,,183,reward,,,,,,1073.2914145000977,1073.2914145000977,1073.2914145000977,1073.2914145000977,0,,,0,,,0,,,0,,,1073.985885900096,1073.985885900096,1073.985885900096,1073.985885900096,52,C,2024-05-22_17h37.19.217,attentional_competition_task,2022.2.4,144.00486158749985,
positions.xlsx,positions_test.xlsx,positions_test_new.xlsx,stimuli.xlsx,stimuli_new.xlsx,stimuli/Social3.png,stimuli/Social4.png,stimuli/Nonsocial3.png,stimuli/Nonsocial4.png,stimuli/Social1.png,stimuli/Social2.png,stimuli/Nonsocial1.png,stimuli/Nonsocial2.png,,,"(-0.7, -0.5)",cs_neg_s,"(-0.7, 0.5)",cs_neg_ns,"(0.7, -0.5)",cs_pos_ns,"(0.7, 0.5)",cs_pos_s,0,0,0,0,,,,,,,,,,,,,,,,,,,,,1,2,26,3,,,,,,,,,,,,,,,,,,,,,,,,,,,189,reward,,,,,,1083.0063059000531,1083.0063059000531,1083.0063059000531,1083.0063059000531,0,,,0,,,0,,,0,,,1083.0063059000531,1083.0063059000531,1083.0063059000531,1083.0063059000531,52,C,2024-05-22_17h37.19.217,attentional_competition_task,2022.2.4,144.00486158749985,
positions.xlsx,positions_test.xlsx,positions_test_new.xlsx,stimuli.xlsx,stimuli_new.xlsx,stimuli/Social3.png,stimuli/Social4.png,stimuli/Nonsocial3.png,stimuli/Nonsocial4.png,stimuli/Social1.png,stimuli/Social2.png,stimuli/Nonsocial1.png,stimuli/Nonsocial2.png,,,"(-0.7, -0.5)",cs_neg_ns,"(-0.7, 0.5)",cs_pos_s,"(0.7, -0.5)",cs_neg_s,"(0.7, 0.5)",cs_pos_ns,0,0,0,0,,,,,,,,,,,,,,,,,,,,,1,3,27,12,,,,,,,,,,,,,,,,,,,,,,,,,,,192,reward,,,,,,1090.6449076000135,1090.6449076000135,1090.6449076000135,1090.6449076000135,0,,,0,,,0,,,1,0.02496339997742325,0.024967200006358325,1090.6449076000135,1090.6449076000135,1090.6449076000135,1090.6449076000135,52,C,2024-05-22_17h37.19.217,attentional_competition_task,2022.2.4,144.00486158749985,
positions.xlsx,positions_test.xlsx,positions_test_new.xlsx,stimuli.xlsx,stimuli_new.xlsx,stimuli/Social3.png,stimuli/Social4.png,stimuli/Nonsocial3.png,stimuli/Nonsocial4.png,stimuli/Social1.png,stimuli/Social2.png,stimuli/Nonsocial1.png,stimuli/Nonsocial2.png,,,"(-0.7, -0.5)",cs_neg_ns,"(-0.7, 0.5)",cs_pos_s,"(0.7, -0.5)",cs_pos_ns,"(0.7, 0.5)",cs_neg_s,0,0,0,0,,,,,,,,,,,,,,,,,,,,,1,4,28,13,,,,,,,,,,,,,,,,,,,,,,,,,,,201,reward,,,,,,1098.8528565000743,1098.8528565000743,1098.8528565000743,1098.8528565000743,0,,,0,,,0,,,0,,,1099.7834164000815,1099.7834164000815,1099.7834164000815,1099.7834164000815,52,C,2024-05-22_17h37.19.217,attentional_competition_task,2022.2.4,144.00486158749985,
positions.xlsx,positions_test.xlsx,positions_test_new.xlsx,stimuli.xlsx,stimuli_new.xlsx,stimuli/Social3.png,stimuli/Social4.png,stimuli/Nonsocial3.png,stimuli/Nonsocial4.png,stimuli/Social1.png,stimuli/Social2.png,stimuli/Nonsocial1.png,stimuli/Nonsocial2.png,,,"(-0.7, -0.5)",cs_neg_ns,"(-0.7, 0.5)",cs_pos_ns,"(0.7, -0.5)",cs_pos_s,"(0.7, 0.5)",cs_neg_s,0,0,0,0,,,,,,,,,,,,,,,,,,,,,1,5,29,16,,,,,,,,,,,,,,,,,,,,,,,,,,,210,reward,,,,,,1107.2067169999937,1107.2067169999937,1107.2067169999937,1107.2067169999937,0,,,0,,,0,,,0,,,1108.074746600003,1108.074746600003,1108.074746600003,1108.074746600003,52,C,2024-05-22_17h37.19.217,attentional_competition_task,2022.2.4,144.00486158749985,
positions.xlsx,positions_test.xlsx,positions_test_new.xlsx,stimuli.xlsx,stimuli_new.xlsx,stimuli/Social3.png,stimuli/Social4.png,stimuli/Nonsocial3.png,stimuli/Nonsocial4.png,stimuli/Social1.png,stimuli/Social2.png,stimuli/Nonsocial1.png,stimuli/Nonsocial2.png,,,"(-0.7, -0.5)",cs_pos_s,"(-0.7, 0.5)",cs_neg_s,"(0.7, -0.5)",cs_neg_ns,"(0.7, 0.5)",cs_pos_ns,0,0,0,0,,,,,,,,,,,,,,,,,,,,,1,6,30,6,,,,,,,,,,,,,,,,,,,,,,,,,,,219,reward,,,,,,1116.470238000038,1116.470238000038,1116.470238000038,1116.470238000038,0,,,0,,,0,,,0,,,1117.2480267999927,1117.2480267999927,1117.2480267999927,1117.2480267999927,52,C,2024-05-22_17h37.19.217,attentional_competition_task,2022.2.4,144.00486158749985,
positions.xlsx,positions_test.xlsx,positions_test_new.xlsx,stimuli.xlsx,stimuli_new.xlsx,stimuli/Social3.png,stimuli/Social4.png,stimuli/Nonsocial3.png,stimuli/Nonsocial4.png,stimuli/Social1.png,stimuli/Social2.png,stimuli/Nonsocial1.png,stimuli/Nonsocial2.png,,,"(-0.7, -0.5)",cs_neg_ns,"(-0.7, 0.5)",cs_neg_s,"(0.7, -0.5)",cs_pos_ns,"(0.7, 0.5)",cs_pos_s,0,0,0,0,,,,,,,,,,,,,,,,,,,,,1,7,31,15,,,,,,,,,,,,,,,,,,,,,,,,,,,228,reward,,,,,,1125.164339800016,1125.164339800016,1125.164339800016,1125.164339800016,0,,,0,,,0,,,0,,,1126.053199200076,1126.053199200076,1126.053199200076,1126.053199200076,52,C,2024-05-22_17h37.19.217,attentional_competition_task,2022.2.4,144.00486158749985,
positions.xlsx,positions_test.xlsx,positions_test_new.xlsx,stimuli.xlsx,stimuli_new.xlsx,stimuli/Social3.png,stimuli/Social4.png,stimuli/Nonsocial3.png,stimuli/Nonsocial4.png,stimuli/Social1.png,stimuli/Social2.png,stimuli/Nonsocial1.png,stimuli/Nonsocial2.png,,,"(-0.7, -0.5)",cs_neg_s,"(-0.7, 0.5)",cs_neg_ns,"(0.7, -0.5)",cs_pos_s,"(0.7, 0.5)",cs_pos_ns,0,0,0,0,,,,,,,,,,,,,,,,,,,,,1,8,32,2,,,,,,,,,,,,,,,,,,,,,,,,,,,231,reward,,,,,,1134.2264714000048,1134.2264714000048,1134.2264714000048,1134.2264714000048,0,,,0,,,1,0.029336799983866513,0.029339900007471442,0,,,1134.2264714000048,1134.2264714000048,1134.2264714000048,1134.2264714000048,52,C,2024-05-22_17h37.19.217,attentional_competition_task,2022.2.4,144.00486158749985,
positions.xlsx,positions_test.xlsx,positions_test_new.xlsx,stimuli.xlsx,stimuli_new.xlsx,stimuli/Social3.png,stimuli/Social4.png,stimuli/Nonsocial3.png,stimuli/Nonsocial4.png,stimuli/Social1.png,stimuli/Social2.png,stimuli/Nonsocial1.png,stimuli/Nonsocial2.png,,,"(-0.7, -0.5)",cs_pos_ns,"(-0.7, 0.5)",cs_pos_s,"(0.7, -0.5)",cs_neg_ns,"(0.7, 0.5)",cs_neg_s,0,0,0,0,,,,,,,,,,,,,,,,,,,,,1,9,33,18,,,,,,,,,,,,,,,,,,,,,,,,,,,234,reward,,,,,,1142.3649926000508,1142.3649926000508,1142.3649926000508,1142.3649926000508,1,0.023239500005729496,0.02324329991824925,0,,,0,,,0,,,1142.3649926000508,1142.3649926000508,1142.3649926000508,1142.3649926000508,52,C,2024-05-22_17h37.19.217,attentional_competition_task,2022.2.4,144.00486158749985,
positions.xlsx,positions_test.xlsx,positions_test_new.xlsx,stimuli.xlsx,stimuli_new.xlsx,stimuli/Social3.png,stimuli/Social4.png,stimuli/Nonsocial3.png,stimuli/Nonsocial4.png,stimuli/Social1.png,stimuli/Social2.png,stimuli/Nonsocial1.png,stimuli/Nonsocial2.png,,,"(-0.7, -0.5)",cs_neg_s,"(-0.7, 0.5)",cs_pos_s,"(0.7, -0.5)",cs_pos_ns,"(0.7, 0.5)",cs_neg_ns,0,0,0,0,,,,,,,,,,,,,,,,,,,,,1,10,34,1,,,,,,,,,,,,,,,,,,,,,,,,,,,243,reward,,,,,,1150.1980445000809,1150.1980445000809,1150.1980445000809,1150.1980445000809,0,,,0,,,0,,,0,,,1151.1077489000745,1151.1077489000745,1151.1077489000745,1151.1077489000745,52,C,2024-05-22_17h37.19.217,attentional_competition_task,2022.2.4,144.00486158749985,
positions.xlsx,positions_test.xlsx,positions_test_new.xlsx,stimuli.xlsx,stimuli_new.xlsx,stimuli/Social3.png,stimuli/Social4.png,stimuli/Nonsocial3.png,stimuli/Nonsocial4.png,stimuli/Social1.png,stimuli/Social2.png,stimuli/Nonsocial1.png,stimuli/Nonsocial2.png,,,"(-0.7, -0.5)",cs_pos_s,"(-0.7, 0.5)",cs_neg_ns,"(0.7, -0.5)",cs_neg_s,"(0.7, 0.5)",cs_pos_ns,0,0,0,0,,,,,,,,,,,,,,,,,,,,,1,11,35,8,,,,,,,,,,,,,,,,,,,,,,,,,,,240,loss,,,,,,1158.7254674000433,1158.7254674000433,1158.7254674000433,1158.7254674000433,0,,,0,,,1,0.02383200009353459,0.023835800006054342,0,,,1158.7254674000433,1158.7254674000433,1158.7254674000433,1158.7254674000433,52,C,2024-05-22_17h37.19.217,attentional_competition_task,2022.2.4,144.00486158749985,
positions.xlsx,positions_test.xlsx,positions_test_new.xlsx,stimuli.xlsx,stimuli_new.xlsx,stimuli/Social3.png,stimuli/Social4.png,stimuli/Nonsocial3.png,stimuli/Nonsocial4.png,stimuli/Social1.png,stimuli/Social2.png,stimuli/Nonsocial1.png,stimuli/Nonsocial2.png,,,"(-0.7, -0.5)",cs_pos_ns,"(-0.7, 0.5)",cs_neg_s,"(0.7, -0.5)",cs_neg_ns,"(0.7, 0.5)",cs_pos_s,0,0,0,0,,,,,,,,,,,,,,,,,,,,,1,12,36,23,,,,,,,,,,,,,,,,,,,,,,,,,,,243,reward,,,,,,1167.0793335000053,1167.0793335000053,1167.0793335000053,1167.0793335000053,1,0.02309369994327426,0.023097699973732233,0,,,0,,,0,,,1167.0793335000053,1167.0793335000053,1167.0793335000053,1167.0793335000053,52,C,2024-05-22_17h37.19.217,attentional_competition_task,2022.2.4,144.00486158749985,
positions.xlsx,positions_test.xlsx,positions_test_new.xlsx,stimuli.xlsx,stimuli_new.xlsx,stimuli/Social3.png,stimuli/Social4.png,stimuli/Nonsocial3.png,stimuli/Nonsocial4.png,stimuli/Social1.png,stimuli/Social2.png,stimuli/Nonsocial1.png,stimuli/Nonsocial2.png,,,"(-0.7, -0.5)",cs_pos_s,"(-0.7, 0.5)",cs_pos_ns,"(0.7, -0.5)",cs_neg_s,"(0.7, 0.5)",cs_neg_ns,0,0,0,0,,,,,,,,,,,,,,,,,,,,,1,13,37,10,,,,,,,,,,,,,,,,,,,,,,,,,,,246,reward,,,,,,1175.7456235000864,1175.7456235000864,1175.7456235000864,1175.7456235000864,0,,,1,0.023706099949777126,0.023709799977950752,0,,,0,,,1175.7456235000864,1175.7456235000864,1175.7456235000864,1175.7456235000864,52,C,2024-05-22_17h37.19.217,attentional_competition_task,2022.2.4,144.00486158749985,
positions.xlsx,positions_test.xlsx,positions_test_new.xlsx,stimuli.xlsx,stimuli_new.xlsx,stimuli/Social3.png,stimuli/Social4.png,stimuli/Nonsocial3.png,stimuli/Nonsocial4.png,stimuli/Social1.png,stimuli/Social2.png,stimuli/Nonsocial1.png,stimuli/Nonsocial2.png,,,"(-0.7, -0.5)",cs_pos_s,"(-0.7, 0.5)",cs_pos_ns,"(0.7, -0.5)",cs_neg_ns,"(0.7, 0.5)",cs_neg_s,0,0,0,0,,,,,,,,,,,,,,,,,,,,,1,14,38,11,,,,,,,,,,,,,,,,,,,,,,,,,,,255,reward,,,,,,1184.9397276000818,1184.9397276000818,1184.9397276000818,1184.9397276000818,0,,,0,,,0,,,0,,,1185.5925070000812,1185.5925070000812,1185.5925070000812,1185.5925070000812,52,C,2024-05-22_17h37.19.217,attentional_competition_task,2022.2.4,144.00486158749985,
positions.xlsx,positions_test.xlsx,positions_test_new.xlsx,stimuli.xlsx,stimuli_new.xlsx,stimuli/Social3.png,stimuli/Social4.png,stimuli/Nonsocial3.png,stimuli/Nonsocial4.png,stimuli/Social1.png,stimuli/Social2.png,stimuli/Nonsocial1.png,stimuli/Nonsocial2.png,,,"(-0.7, -0.5)",cs_neg_s,"(-0.7, 0.5)",cs_pos_ns,"(0.7, -0.5)",cs_pos_s,"(0.7, 0.5)",cs_neg_ns,0,0,0,0,,,,,,,,,,,,,,,,,,,,,1,15,39,4,,,,,,,,,,,,,,,,,,,,,,,,,,,258,reward,,,,,,1193.0713294000598,1193.0713294000598,1193.0713294000598,1193.0713294000598,0,,,1,0.02358999999705702,0.023593500023707747,0,,,0,,,1193.0713294000598,1193.0713294000598,1193.0713294000598,1193.0713294000598,52,C,2024-05-22_17h37.19.217,attentional_competition_task,2022.2.4,144.00486158749985,
positions.xlsx,positions_test.xlsx,positions_test_new.xlsx,stimuli.xlsx,stimuli_new.xlsx,stimuli/Social3.png,stimuli/Social4.png,stimuli/Nonsocial3.png,stimuli/Nonsocial4.png,stimuli/Social1.png,stimuli/Social2.png,stimuli/Nonsocial1.png,stimuli/Nonsocial2.png,,,"(-0.7, -0.5)",cs_pos_ns,"(-0.7, 0.5)",cs_neg_s,"(0.7, -0.5)",cs_pos_s,"(0.7, 0.5)",cs_neg_ns,0,0,0,0,,,,,,,,,,,,,,,,,,,,,1,16,40,22,,,,,,,,,,,,,,,,,,,,,,,,,,,261,reward,,,,,,1201.1474178000353,1201.1474178000353,1201.1474178000353,1201.1474178000353,0,,,0,,,1,0.030764600029215217,0.030768799944780767,0,,,1201.1474178000353,1201.1474178000353,1201.1474178000353,1201.1474178000353,52,C,2024-05-22_17h37.19.217,attentional_competition_task,2022.2.4,144.00486158749985,
positions.xlsx,positions_test.xlsx,positions_test_new.xlsx,stimuli.xlsx,stimuli_new.xlsx,stimuli/Social3.png,stimuli/Social4.png,stimuli/Nonsocial3.png,stimuli/Nonsocial4.png,stimuli/Social1.png,stimuli/Social2.png,stimuli/Nonsocial1.png,stimuli/Nonsocial2.png,,,"(-0.7, -0.5)",cs_neg_ns,"(-0.7, 0.5)",cs_neg_s,"(0.7, -0.5)",cs_pos_s,"(0.7, 0.5)",cs_pos_ns,0,0,0,0,,,,,,,,,,,,,,,,,,,,,1,17,41,14,,,,,,,,,,,,,,,,,,,,,,,,,,,264,reward,,,,,,1209.5637113000266,1209.5637113000266,1209.5637113000266,1209.5637113000266,0,,,0,,,0,,,1,0.02513949992135167,0.025143699953332543,1209.5637113000266,1209.5637113000266,1209.5637113000266,1209.5637113000266,52,C,2024-05-22_17h37.19.217,attentional_competition_task,2022.2.4,144.00486158749985,
positions.xlsx,positions_test.xlsx,positions_test_new.xlsx,stimuli.xlsx,stimuli_new.xlsx,stimuli/Social3.png,stimuli/Social4.png,stimuli/Nonsocial3.png,stimuli/Nonsocial4.png,stimuli/Social1.png,stimuli/Social2.png,stimuli/Nonsocial1.png,stimuli/Nonsocial2.png,,,"(-0.7, -0.5)",cs_neg_s,"(-0.7, 0.5)",cs_pos_ns,"(0.7, -0.5)",cs_neg_ns,"(0.7, 0.5)",cs_pos_s,0,0,0,0,,,,,,,,,,,,,,,,,,,,,1,18,42,5,,,,,,,,,,,,,,,,,,,,,,,,,,,273,reward,,,,,,1218.125906500034,1218.125906500034,1218.125906500034,1218.125906500034,0,,,0,,,0,,,0,,,1218.9939406000776,1218.9939406000776,1218.9939406000776,1218.9939406000776,52,C,2024-05-22_17h37.19.217,attentional_competition_task,2022.2.4,144.00486158749985,
positions.xlsx,positions_test.xlsx,positions_test_new.xlsx,stimuli.xlsx,stimuli_new.xlsx,stimuli/Social3.png,stimuli/Social4.png,stimuli/Nonsocial3.png,stimuli/Nonsocial4.png,stimuli/Social1.png,stimuli/Social2.png,stimuli/Nonsocial1.png,stimuli/Nonsocial2.png,,,"(-0.7, -0.5)",cs_pos_ns,"(-0.7, 0.5)",cs_pos_s,"(0.7, -0.5)",cs_neg_s,"(0.7, 0.5)",cs_neg_ns,0,0,0,0,,,,,,,,,,,,,,,,,,,,,1,19,43,19,,,,,,,,,,,,,,,,,,,,,,,,,,,282,reward,,,,,,1226.3894640000071,1226.3894640000071,1226.3894640000071,1226.3894640000071,0,,,0,,,0,,,0,,,1227.2227741000243,1227.2227741000243,1227.2227741000243,1227.2227741000243,52,C,2024-05-22_17h37.19.217,attentional_competition_task,2022.2.4,144.00486158749985,
positions.xlsx,positions_test.xlsx,positions_test_new.xlsx,stimuli.xlsx,stimuli_new.xlsx,stimuli/Social3.png,stimuli/Social4.png,stimuli/Nonsocial3.png,stimuli/Nonsocial4.png,stimuli/Social1.png,stimuli/Social2.png,stimuli/Nonsocial1.png,stimuli/Nonsocial2.png,,,"(-0.7, -0.5)",cs_pos_ns,"(-0.7, 0.5)",cs_neg_ns,"(0.7, -0.5)",cs_neg_s,"(0.7, 0.5)",cs_pos_s,0,0,0,0,,,,,,,,,,,,,,,,,,,,,1,20,44,21,,,,,,,,,,,,,,,,,,,,,,,,,,,291,reward,,,,,,1234.9446910000406,1234.9446910000406,1234.9446910000406,1234.9446910000406,0,,,0,,,0,,,0,,,1235.8265960999997,1235.8265960999997,1235.8265960999997,1235.8265960999997,52,C,2024-05-22_17h37.19.217,attentional_competition_task,2022.2.4,144.00486158749985,
positions.xlsx,positions_test.xlsx,positions_test_new.xlsx,stimuli.xlsx,stimuli_new.xlsx,stimuli/Social3.png,stimuli/Social4.png,stimuli/Nonsocial3.png,stimuli/Nonsocial4.png,stimuli/Social1.png,stimuli/Social2.png,stimuli/Nonsocial1.png,stimuli/Nonsocial2.png,,,"(-0.7, -0.5)",cs_pos_s,"(-0.7, 0.5)",cs_neg_ns,"(0.7, -0.5)",cs_pos_ns,"(0.7, 0.5)",cs_neg_s,0,0,0,0,,,,,,,,,,,,,,,,,,,,,1,21,45,9,,,,,,,,,,,,,,,,,,,,,,,,,,,294,reward,,,,,,1243.6526656000642,1243.6526656000642,1243.6526656000642,1243.6526656000642,0,,,0,,,1,0.023816399974748492,0.023820300004445016,0,,,1243.6526656000642,1243.6526656000642,1243.6526656000642,1243.6526656000642,52,C,2024-05-22_17h37.19.217,attentional_competition_task,2022.2.4,144.00486158749985,
positions.xlsx,positions_test.xlsx,positions_test_new.xlsx,stimuli.xlsx,stimuli_new.xlsx,stimuli/Social3.png,stimuli/Social4.png,stimuli/Nonsocial3.png,stimuli/Nonsocial4.png,stimuli/Social1.png,stimuli/Social2.png,stimuli/Nonsocial1.png,stimuli/Nonsocial2.png,,,"(-0.7, -0.5)",cs_neg_ns,"(-0.7, 0.5)",cs_pos_ns,"(0.7, -0.5)",cs_neg_s,"(0.7, 0.5)",cs_pos_s,0,0,0,0,,,,,,,,,,,,,,,,,,,,,1,22,46,17,,,,,,,,,,,,,,,,,,,,,,,,,,,297,reward,,,,,,1251.909294800018,1251.909294800018,1251.909294800018,1251.909294800018,0,,,1,0.023072800016961992,0.023076900048181415,0,,,0,,,1251.909294800018,1251.909294800018,1251.909294800018,1251.909294800018,52,C,2024-05-22_17h37.19.217,attentional_competition_task,2022.2.4,144.00486158749985,
positions.xlsx,positions_test.xlsx,positions_test_new.xlsx,stimuli.xlsx,stimuli_new.xlsx,stimuli/Social3.png,stimuli/Social4.png,stimuli/Nonsocial3.png,stimuli/Nonsocial4.png,stimuli/Social1.png,stimuli/Social2.png,stimuli/Nonsocial1.png,stimuli/Nonsocial2.png,,,"(-0.7, -0.5)",cs_pos_s,"(-0.7, 0.5)",cs_neg_s,"(0.7, -0.5)",cs_pos_ns,"(0.7, 0.5)",cs_neg_ns,0,0,0,0,,,,,,,,,,,,,,,,,,,,,1,23,47,7,,,,,,,,,,,,,,,,,,,,,,,,,,,306,reward,,,,,,1260.5686542000622,1260.5686542000622,1260.5686542000622,1260.5686542000622,0,,,0,,,0,,,0,,,1261.3880787000526,1261.3880787000526,1261.3880787000526,1261.3880787000526,52,C,2024-05-22_17h37.19.217,attentional_competition_task,2022.2.4,144.00486158749985,
positions.xlsx,positions_test.xlsx,positions_test_new.xlsx,stimuli.xlsx,stimuli_new.xlsx,stimuli/Social3.png,stimuli/Social4.png,stimuli/Nonsocial3.png,stimuli/Nonsocial4.png,stimuli/Social1.png,stimuli/Social2.png,stimuli/Nonsocial1.png,stimuli/Nonsocial2.png,,,"(-0.7, -0.5)",cs_neg_ns,"(-0.7, 0.5)",cs_pos_s,"(0.7, -0.5)",cs_pos_ns,"(0.7, 0.5)",cs_neg_s,0,0,0,0,,,,,,,,,,,,,,,,,,,,,,,,,,,,,0,0,0,3,0,0,0,0,,,,,,,,,,,,,,,309,reward,,,,,,1267.5336623000912,1267.5336623000912,1267.5336623000912,1267.5336623000912,0,,,1,0.5296741999918595,0.5296779000200331,0,,,0,,,1268.0614593999926,1268.0614593999926,1268.0614593999926,1268.0614593999926,52,C,2024-05-22_17h37.19.217,attentional_competition_task,2022.2.4,144.00486158749985,
positions.xlsx,positions_test.xlsx,positions_test_new.xlsx,stimuli.xlsx,stimuli_new.xlsx,stimuli/Social3.png,stimuli/Social4.png,stimuli/Nonsocial3.png,stimuli/Nonsocial4.png,stimuli/Social1.png,stimuli/Social2.png,stimuli/Nonsocial1.png,stimuli/Nonsocial2.png,,,"(-0.7, -0.5)",cs_neg_ns,"(-0.7, 0.5)",cs_pos_s,"(0.7, -0.5)",cs_pos_ns,"(0.7, 0.5)",cs_neg_s,0,0,0,0,,,,,,,,,,,,,,,,,,,,,,,,,,,,,0,0,0,3,1,0,1,0,,,,,,,,,,,,,,,312,reward,,,,,,1268.5683379000984,1268.5683379000984,1268.5683379000984,1268.5683379000984,0,,,0,,,1,0.44680749997496605,0.4468112000031397,0,,,1269.0196812000358,1269.0196812000358,1269.0196812000358,1269.0196812000358,52,C,2024-05-22_17h37.19.217,attentional_competition_task,2022.2.4,144.00486158749985,
positions.xlsx,positions_test.xlsx,positions_test_new.xlsx,stimuli.xlsx,stimuli_new.xlsx,stimuli/Social3.png,stimuli/Social4.png,stimuli/Nonsocial3.png,stimuli/Nonsocial4.png,stimuli/Social1.png,stimuli/Social2.png,stimuli/Nonsocial1.png,stimuli/Nonsocial2.png,,,"(-0.7, -0.5)",cs_neg_ns,"(-0.7, 0.5)",cs_pos_s,"(0.7, -0.5)",cs_pos_ns,"(0.7, 0.5)",cs_neg_s,0,0,0,0,,,,,,,,,,,,,,,,,,,,,,,,,,,,,0,0,0,3,2,0,2,0,,,,,,,,,,,,,,,315,reward,,,,,,1270.0474655000726,1270.0474655000726,1270.0474655000726,1270.0474655000726,0,,,0,,,0,,,0,,,1270.0474655000726,1270.0474655000726,1270.0474655000726,1270.0474655000726,52,C,2024-05-22_17h37.19.217,attentional_competition_task,2022.2.4,144.00486158749985,
positions.xlsx,positions_test.xlsx,positions_test_new.xlsx,stimuli.xlsx,stimuli_new.xlsx,stimuli/Social3.png,stimuli/Social4.png,stimuli/Nonsocial3.png,stimuli/Nonsocial4.png,stimuli/Social1.png,stimuli/Social2.png,stimuli/Nonsocial1.png,stimuli/Nonsocial2.png,,,"(-0.7, -0.5)",cs_neg_ns,"(-0.7, 0.5)",cs_pos_s,"(0.7, -0.5)",cs_pos_ns,"(0.7, 0.5)",cs_neg_s,0,0,0,0,,,,,,,,,,,,,,,,,,,,,,,,,,,,,0,0,0,3,,,,,,,,,,,,,,,,,,,,,,,,,,,,,,,,,,,,,,,,,,,,,,52,C,2024-05-22_17h37.19.217,attentional_competition_task,2022.2.4,144.00486158749985,
positions.xlsx,positions_test.xlsx,positions_test_new.xlsx,stimuli.xlsx,stimuli_new.xlsx,stimuli/Social3.png,stimuli/Social4.png,stimuli/Nonsocial3.png,stimuli/Nonsocial4.png,stimuli/Social1.png,stimuli/Social2.png,stimuli/Nonsocial1.png,stimuli/Nonsocial2.png,,,"(-0.7, -0.5)",cs_neg_s,"(-0.7, 0.5)",cs_pos_ns,"(0.7, -0.5)",cs_pos_s,"(0.7, 0.5)",cs_neg_ns,0,0,0,0,,,,,,,,,,,,,,,,,,,,,,,,,,,,,0,1,1,1,0,0,0,0,,,,,,,,,,,,,,,312,loss,,,,,,1275.8319108000724,1275.8319108000724,1275.8319108000724,1275.8319108000724,0,,,0,,,0,,,1,0.5313263999996707,0.531330999918282,1276.3736346000805,1276.3736346000805,1276.3736346000805,1276.3736346000805,52,C,2024-05-22_17h37.19.217,attentional_competition_task,2022.2.4,144.00486158749985,
positions.xlsx,positions_test.xlsx,positions_test_new.xlsx,stimuli.xlsx,stimuli_new.xlsx,stimuli/Social3.png,stimuli/Social4.png,stimuli/Nonsocial3.png,stimuli/Nonsocial4.png,stimuli/Social1.png,stimuli/Social2.png,stimuli/Nonsocial1.png,stimuli/Nonsocial2.png,,,"(-0.7, -0.5)",cs_neg_s,"(-0.7, 0.5)",cs_pos_ns,"(0.7, -0.5)",cs_pos_s,"(0.7, 0.5)",cs_neg_ns,0,0,0,0,,,,,,,,,,,,,,,,,,,,,,,,,,,,,0,1,1,1,1,0,1,0,,,,,,,,,,,,,,,315,reward,,,,,,1276.9013708001003,1276.9013708001003,1276.9013708001003,1276.9013708001003,0,,,0,,,1,0.028763500042259693,0.028767599957063794,0,,,1276.9013708001003,1276.9013708001003,1276.9013708001003,1276.9013708001003,52,C,2024-05-22_17h37.19.217,attentional_competition_task,2022.2.4,144.00486158749985,
positions.xlsx,positions_test.xlsx,positions_test_new.xlsx,stimuli.xlsx,stimuli_new.xlsx,stimuli/Social3.png,stimuli/Social4.png,stimuli/Nonsocial3.png,stimuli/Nonsocial4.png,stimuli/Social1.png,stimuli/Social2.png,stimuli/Nonsocial1.png,stimuli/Nonsocial2.png,,,"(-0.7, -0.5)",cs_neg_s,"(-0.7, 0.5)",cs_pos_ns,"(0.7, -0.5)",cs_pos_s,"(0.7, 0.5)",cs_neg_ns,0,0,0,0,,,,,,,,,,,,,,,,,,,,,,,,,,,,,0,1,1,1,2,0,2,0,,,,,,,,,,,,,,,318,reward,,,,,,1277.4291460000677,1277.4291460000677,1277.4291460000677,1277.4291460000677,0,,,1,0.029116100049577653,0.029120200080797076,0,,,0,,,1277.4291460000677,1277.4291460000677,1277.4291460000677,1277.4291460000677,52,C,2024-05-22_17h37.19.217,attentional_competition_task,2022.2.4,144.00486158749985,
positions.xlsx,positions_test.xlsx,positions_test_new.xlsx,stimuli.xlsx,stimuli_new.xlsx,stimuli/Social3.png,stimuli/Social4.png,stimuli/Nonsocial3.png,stimuli/Nonsocial4.png,stimuli/Social1.png,stimuli/Social2.png,stimuli/Nonsocial1.png,stimuli/Nonsocial2.png,,,"(-0.7, -0.5)",cs_neg_s,"(-0.7, 0.5)",cs_pos_ns,"(0.7, -0.5)",cs_pos_s,"(0.7, 0.5)",cs_neg_ns,0,0,0,0,,,,,,,,,,,,,,,,,,,,,,,,,,,,,0,1,1,1,,,,,,,,,,,,,,,,,,,,,,,,,,,,,,,,,,,,,,,,,,,,,,52,C,2024-05-22_17h37.19.217,attentional_competition_task,2022.2.4,144.00486158749985,
positions.xlsx,positions_test.xlsx,positions_test_new.xlsx,stimuli.xlsx,stimuli_new.xlsx,stimuli/Social3.png,stimuli/Social4.png,stimuli/Nonsocial3.png,stimuli/Nonsocial4.png,stimuli/Social1.png,stimuli/Social2.png,stimuli/Nonsocial1.png,stimuli/Nonsocial2.png,,,"(-0.7, -0.5)",cs_neg_s_new,"(-0.7, 0.5)",cs_pos_s,"(0.7, -0.5)",cs_neg_ns,"(0.7, 0.5)",cs_pos_ns,0,0,0,0,,,,,,,,,,,,,,,,,,,,,,,,,,,,,0,2,2,11,0,0,0,0,,,,,,,,,,,,,,,321,reward,,,,,,1284.7482465000357,1284.7482465000357,1284.7482465000357,1284.7482465000357,0,,,1,0.579167400021106,0.5791713999351487,0,,,0,,,1285.331557400059,1285.331557400059,1285.331557400059,1285.331557400059,52,C,2024-05-22_17h37.19.217,attentional_competition_task,2022.2.4,144.00486158749985,
positions.xlsx,positions_test.xlsx,positions_test_new.xlsx,stimuli.xlsx,stimuli_new.xlsx,stimuli/Social3.png,stimuli/Social4.png,stimuli/Nonsocial3.png,stimuli/Nonsocial4.png,stimuli/Social1.png,stimuli/Social2.png,stimuli/Nonsocial1.png,stimuli/Nonsocial2.png,,,"(-0.7, -0.5)",cs_neg_s_new,"(-0.7, 0.5)",cs_pos_s,"(0.7, -0.5)",cs_neg_ns,"(0.7, 0.5)",cs_pos_ns,0,0,0,0,,,,,,,,,,,,,,,,,,,,,,,,,,,,,0,2,2,11,1,0,1,0,,,,,,,,,,,,,,,324,reward,,,,,,1285.831505500013,1285.831505500013,1285.831505500013,1285.831505500013,0,,,0,,,0,,,1,0.5721512000309303,0.572155199944973,1286.4078803000739,1286.4078803000739,1286.4078803000739,1286.4078803000739,52,C,2024-05-22_17h37.19.217,attentional_competition_task,2022.2.4,144.00486158749985,
positions.xlsx,positions_test.xlsx,positions_test_new.xlsx,stimuli.xlsx,stimuli_new.xlsx,stimuli/Social3.png,stimuli/Social4.png,stimuli/Nonsocial3.png,stimuli/Nonsocial4.png,stimuli/Social1.png,stimuli/Social2.png,stimuli/Nonsocial1.png,stimuli/Nonsocial2.png,,,"(-0.7, -0.5)",cs_neg_s_new,"(-0.7, 0.5)",cs_pos_s,"(0.7, -0.5)",cs_neg_ns,"(0.7, 0.5)",cs_pos_ns,0,0,0,0,,,,,,,,,,,,,,,,,,,,,,,,,,,,,0,2,2,11,,,,,,,,,,,,,,,,,,,,,,,,,,,,,,,,,,,,,,,,,,,,,,52,C,2024-05-22_17h37.19.217,attentional_competition_task,2022.2.4,144.00486158749985,
positions.xlsx,positions_test.xlsx,positions_test_new.xlsx,stimuli.xlsx,stimuli_new.xlsx,stimuli/Social3.png,stimuli/Social4.png,stimuli/Nonsocial3.png,stimuli/Nonsocial4.png,stimuli/Social1.png,stimuli/Social2.png,stimuli/Nonsocial1.png,stimuli/Nonsocial2.png,,,"(-0.7, -0.5)",cs_pos_ns,"(-0.7, 0.5)",cs_neg_ns,"(0.7, -0.5)",cs_pos_s_new,"(0.7, 0.5)",cs_neg_s,0,0,0,0,,,,,,,,,,,,,,,,,,,,,,,,,,,,,0,3,3,36,0,0,0,0,,,,,,,,,,,,,,,327,reward,,,,,,1293.567348200013,1293.567348200013,1293.567348200013,1293.567348200013,1,0.6057126000523567,0.6057162000797689,0,,,0,,,0,,,1294.1784167999867,1294.1784167999867,1294.1784167999867,1294.1784167999867,52,C,2024-05-22_17h37.19.217,attentional_competition_task,2022.2.4,144.00486158749985,
positions.xlsx,positions_test.xlsx,positions_test_new.xlsx,stimuli.xlsx,stimuli_new.xlsx,stimuli/Social3.png,stimuli/Social4.png,stimuli/Nonsocial3.png,stimuli/Nonsocial4.png,stimuli/Social1.png,stimuli/Social2.png,stimuli/Nonsocial1.png,stimuli/Nonsocial2.png,,,"(-0.7, -0.5)",cs_pos_ns,"(-0.7, 0.5)",cs_neg_ns,"(0.7, -0.5)",cs_pos_s_new,"(0.7, 0.5)",cs_neg_s,0,0,0,0,,,,,,,,,,,,,,,,,,,,,,,,,,,,,0,3,3,36,1,0,1,0,,,,,,,,,,,,,,,330,reward,,,,,,1294.7061912000645,1294.7061912000645,1294.7061912000645,1294.7061912000645,0,,,0,,,1,0.030652599991299212,0.030656400020234287,0,,,1294.7061912000645,1294.7061912000645,1294.7061912000645,1294.7061912000645,52,C,2024-05-22_17h37.19.217,attentional_competition_task,2022.2.4,144.00486158749985,
positions.xlsx,positions_test.xlsx,positions_test_new.xlsx,stimuli.xlsx,stimuli_new.xlsx,stimuli/Social3.png,stimuli/Social4.png,stimuli/Nonsocial3.png,stimuli/Nonsocial4.png,stimuli/Social1.png,stimuli/Social2.png,stimuli/Nonsocial1.png,stimuli/Nonsocial2.png,,,"(-0.7, -0.5)",cs_pos_ns,"(-0.7, 0.5)",cs_neg_ns,"(0.7, -0.5)",cs_pos_s_new,"(0.7, 0.5)",cs_neg_s,0,0,0,0,,,,,,,,,,,,,,,,,,,,,,,,,,,,,0,3,3,36,2,0,2,0,,,,,,,,,,,,,,,327,loss,,,,,,1295.247807900072,1295.247807900072,1295.247807900072,1295.247807900072,0,,,0,,,0,,,1,0.03050480003003031,0.030508600058965385,1295.247807900072,1295.247807900072,1295.247807900072,1295.247807900072,52,C,2024-05-22_17h37.19.217,attentional_competition_task,2022.2.4,144.00486158749985,
positions.xlsx,positions_test.xlsx,positions_test_new.xlsx,stimuli.xlsx,stimuli_new.xlsx,stimuli/Social3.png,stimuli/Social4.png,stimuli/Nonsocial3.png,stimuli/Nonsocial4.png,stimuli/Social1.png,stimuli/Social2.png,stimuli/Nonsocial1.png,stimuli/Nonsocial2.png,,,"(-0.7, -0.5)",cs_pos_ns,"(-0.7, 0.5)",cs_neg_ns,"(0.7, -0.5)",cs_pos_s_new,"(0.7, 0.5)",cs_neg_s,0,0,0,0,,,,,,,,,,,,,,,,,,,,,,,,,,,,,0,3,3,36,,,,,,,,,,,,,,,,,,,,,,,,,,,,,,,,,,,,,,,,,,,,,,52,C,2024-05-22_17h37.19.217,attentional_competition_task,2022.2.4,144.00486158749985,
positions.xlsx,positions_test.xlsx,positions_test_new.xlsx,stimuli.xlsx,stimuli_new.xlsx,stimuli/Social3.png,stimuli/Social4.png,stimuli/Nonsocial3.png,stimuli/Nonsocial4.png,stimuli/Social1.png,stimuli/Social2.png,stimuli/Nonsocial1.png,stimuli/Nonsocial2.png,,,"(-0.7, -0.5)",cs_pos_ns,"(-0.7, 0.5)",cs_neg_s_new,"(0.7, -0.5)",cs_neg_ns,"(0.7, 0.5)",cs_pos_s,0,0,0,0,,,,,,,,,,,,,,,,,,,,,,,,,,,,,0,4,4,8,0,0,0,0,,,,,,,,,,,,,,,330,reward,,,,,,1302.0670412000036,1302.0670412000036,1302.0670412000036,1302.0670412000036,0,,,0,,,0,,,1,0.9536386999534443,0.9536423999816179,1303.0252792000538,1303.0252792000538,1303.0252792000538,1303.0252792000538,52,C,2024-05-22_17h37.19.217,attentional_competition_task,2022.2.4,144.00486158749985,
positions.xlsx,positions_test.xlsx,positions_test_new.xlsx,stimuli.xlsx,stimuli_new.xlsx,stimuli/Social3.png,stimuli/Social4.png,stimuli/Nonsocial3.png,stimuli/Nonsocial4.png,stimuli/Social1.png,stimuli/Social2.png,stimuli/Nonsocial1.png,stimuli/Nonsocial2.png,,,"(-0.7, -0.5)",cs_pos_ns,"(-0.7, 0.5)",cs_neg_s_new,"(0.7, -0.5)",cs_neg_ns,"(0.7, 0.5)",cs_pos_s,0,0,0,0,,,,,,,,,,,,,,,,,,,,,,,,,,,,,0,4,4,8,1,0,1,0,,,,,,,,,,,,,,,327,loss,,,,,,1303.5530540000182,1303.5530540000182,1303.5530540000182,1303.5530540000182,0,,,0,,,1,0.030453699990175664,0.03045729990117252,0,,,1303.5530540000182,1303.5530540000182,1303.5530540000182,1303.5530540000182,52,C,2024-05-22_17h37.19.217,attentional_competition_task,2022.2.4,144.00486158749985,
positions.xlsx,positions_test.xlsx,positions_test_new.xlsx,stimuli.xlsx,stimuli_new.xlsx,stimuli/Social3.png,stimuli/Social4.png,stimuli/Nonsocial3.png,stimuli/Nonsocial4.png,stimuli/Social1.png,stimuli/Social2.png,stimuli/Nonsocial1.png,stimuli/Nonsocial2.png,,,"(-0.7, -0.5)",cs_pos_ns,"(-0.7, 0.5)",cs_neg_s_new,"(0.7, -0.5)",cs_neg_ns,"(0.7, 0.5)",cs_pos_s,0,0,0,0,,,,,,,,,,,,,,,,,,,,,,,,,,,,,0,4,4,8,2,0,2,0,,,,,,,,,,,,,,,330,reward,,,,,,1304.5877445000224,1304.5877445000224,1304.5877445000224,1304.5877445000224,1,0.021851900033652782,0.021855799946933985,0,,,0,,,0,,,1304.5877445000224,1304.5877445000224,1304.5877445000224,1304.5877445000224,52,C,2024-05-22_17h37.19.217,attentional_competition_task,2022.2.4,144.00486158749985,
positions.xlsx,positions_test.xlsx,positions_test_new.xlsx,stimuli.xlsx,stimuli_new.xlsx,stimuli/Social3.png,stimuli/Social4.png,stimuli/Nonsocial3.png,stimuli/Nonsocial4.png,stimuli/Social1.png,stimuli/Social2.png,stimuli/Nonsocial1.png,stimuli/Nonsocial2.png,,,"(-0.7, -0.5)",cs_pos_ns,"(-0.7, 0.5)",cs_neg_s_new,"(0.7, -0.5)",cs_neg_ns,"(0.7, 0.5)",cs_pos_s,0,0,0,0,,,,,,,,,,,,,,,,,,,,,,,,,,,,,0,4,4,8,,,,,,,,,,,,,,,,,,,,,,,,,,,,,,,,,,,,,,,,,,,,,,52,C,2024-05-22_17h37.19.217,attentional_competition_task,2022.2.4,144.00486158749985,
positions.xlsx,positions_test.xlsx,positions_test_new.xlsx,stimuli.xlsx,stimuli_new.xlsx,stimuli/Social3.png,stimuli/Social4.png,stimuli/Nonsocial3.png,stimuli/Nonsocial4.png,stimuli/Social1.png,stimuli/Social2.png,stimuli/Nonsocial1.png,stimuli/Nonsocial2.png,,,"(-0.7, -0.5)",cs_pos_ns,"(-0.7, 0.5)",cs_neg_s,"(0.7, -0.5)",cs_neg_ns,"(0.7, 0.5)",cs_pos_s_new,0,0,0,0,,,,,,,,,,,,,,,,,,,,,,,,,,,,,0,5,5,29,0,0,0,0,,,,,,,,,,,,,,,333,reward,,,,,,1310.670813600067,1310.670813600067,1310.670813600067,1310.670813600067,0,,,0,,,0,,,1,1.3632222000742331,1.3632258001016453,1312.031911100028,1312.031911100028,1312.031911100028,1312.031911100028,52,C,2024-05-22_17h37.19.217,attentional_competition_task,2022.2.4,144.00486158749985,
positions.xlsx,positions_test.xlsx,positions_test_new.xlsx,stimuli.xlsx,stimuli_new.xlsx,stimuli/Social3.png,stimuli/Social4.png,stimuli/Nonsocial3.png,stimuli/Nonsocial4.png,stimuli/Social1.png,stimuli/Social2.png,stimuli/Nonsocial1.png,stimuli/Nonsocial2.png,,,"(-0.7, -0.5)",cs_pos_ns,"(-0.7, 0.5)",cs_neg_s,"(0.7, -0.5)",cs_neg_ns,"(0.7, 0.5)",cs_pos_s_new,0,0,0,0,,,,,,,,,,,,,,,,,,,,,,,,,,,,,0,5,5,29,1,0,1,0,,,,,,,,,,,,,,,330,loss,,,,,,1312.573581200093,1312.573581200093,1312.573581200093,1312.573581200093,0,,,0,,,1,0.0313867999939248,0.03139099990949035,0,,,1312.573581200093,1312.573581200093,1312.573581200093,1312.573581200093,52,C,2024-05-22_17h37.19.217,attentional_competition_task,2022.2.4,144.00486158749985,
positions.xlsx,positions_test.xlsx,positions_test_new.xlsx,stimuli.xlsx,stimuli_new.xlsx,stimuli/Social3.png,stimuli/Social4.png,stimuli/Nonsocial3.png,stimuli/Nonsocial4.png,stimuli/Social1.png,stimuli/Social2.png,stimuli/Nonsocial1.png,stimuli/Nonsocial2.png,,,"(-0.7, -0.5)",cs_pos_ns,"(-0.7, 0.5)",cs_neg_s,"(0.7, -0.5)",cs_neg_ns,"(0.7, 0.5)",cs_pos_s_new,0,0,0,0,,,,,,,,,,,,,,,,,,,,,,,,,,,,,0,5,5,29,,,,,,,,,,,,,,,,,,,,,,,,,,,,,,,,,,,,,,,,,,,,,,52,C,2024-05-22_17h37.19.217,attentional_competition_task,2022.2.4,144.00486158749985,
positions.xlsx,positions_test.xlsx,positions_test_new.xlsx,stimuli.xlsx,stimuli_new.xlsx,stimuli/Social3.png,stimuli/Social4.png,stimuli/Nonsocial3.png,stimuli/Nonsocial4.png,stimuli/Social1.png,stimuli/Social2.png,stimuli/Nonsocial1.png,stimuli/Nonsocial2.png,,,"(-0.7, -0.5)",cs_neg_s,"(-0.7, 0.5)",cs_neg_ns_new,"(0.7, -0.5)",cs_pos_ns,"(0.7, 0.5)",cs_pos_s,0,0,0,0,,,,,,,,,,,,,,,,,,,,,,,,,,,,,0,6,6,25,0,0,0,0,,,,,,,,,,,,,,,333,reward,,,,,,1319.7607482000021,1319.7607482000021,1319.7607482000021,1319.7607482000021,0,,,0,,,0,,,1,0.675700300023891,0.6757039000513032,1320.44124439999,1320.44124439999,1320.44124439999,1320.44124439999,52,C,2024-05-22_17h37.19.217,attentional_competition_task,2022.2.4,144.00486158749985,
positions.xlsx,positions_test.xlsx,positions_test_new.xlsx,stimuli.xlsx,stimuli_new.xlsx,stimuli/Social3.png,stimuli/Social4.png,stimuli/Nonsocial3.png,stimuli/Nonsocial4.png,stimuli/Social1.png,stimuli/Social2.png,stimuli/Nonsocial1.png,stimuli/Nonsocial2.png,,,"(-0.7, -0.5)",cs_neg_s,"(-0.7, 0.5)",cs_neg_ns_new,"(0.7, -0.5)",cs_pos_ns,"(0.7, 0.5)",cs_pos_s,0,0,0,0,,,,,,,,,,,,,,,,,,,,,,,,,,,,,0,6,6,25,1,0,1,0,,,,,,,,,,,,,,,336,reward,,,,,,1320.9412517000455,1320.9412517000455,1320.9412517000455,1320.9412517000455,0,,,0,,,1,0.12841390003450215,0.12841739994473755,0,,,1321.0731943000574,1321.0731943000574,1321.0731943000574,1321.0731943000574,52,C,2024-05-22_17h37.19.217,attentional_competition_task,2022.2.4,144.00486158749985,
positions.xlsx,positions_test.xlsx,positions_test_new.xlsx,stimuli.xlsx,stimuli_new.xlsx,stimuli/Social3.png,stimuli/Social4.png,stimuli/Nonsocial3.png,stimuli/Nonsocial4.png,stimuli/Social1.png,stimuli/Social2.png,stimuli/Nonsocial1.png,stimuli/Nonsocial2.png,,,"(-0.7, -0.5)",cs_neg_s,"(-0.7, 0.5)",cs_neg_ns_new,"(0.7, -0.5)",cs_pos_ns,"(0.7, 0.5)",cs_pos_s,0,0,0,0,,,,,,,,,,,,,,,,,,,,,,,,,,,,,0,6,6,25,2,0,2,0,,,,,,,,,,,,,,,333,loss,,,,,,1321.600930100074,1321.600930100074,1321.600930100074,1321.600930100074,0,,,1,0.028796300059184432,0.028800099971704185,0,,,0,,,1321.600930100074,1321.600930100074,1321.600930100074,1321.600930100074,52,C,2024-05-22_17h37.19.217,attentional_competition_task,2022.2.4,144.00486158749985,
positions.xlsx,positions_test.xlsx,positions_test_new.xlsx,stimuli.xlsx,stimuli_new.xlsx,stimuli/Social3.png,stimuli/Social4.png,stimuli/Nonsocial3.png,stimuli/Nonsocial4.png,stimuli/Social1.png,stimuli/Social2.png,stimuli/Nonsocial1.png,stimuli/Nonsocial2.png,,,"(-0.7, -0.5)",cs_neg_s,"(-0.7, 0.5)",cs_neg_ns_new,"(0.7, -0.5)",cs_pos_ns,"(0.7, 0.5)",cs_pos_s,0,0,0,0,,,,,,,,,,,,,,,,,,,,,,,,,,,,,0,6,6,25,,,,,,,,,,,,,,,,,,,,,,,,,,,,,,,,,,,,,,,,,,,,,,52,C,2024-05-22_17h37.19.217,attentional_competition_task,2022.2.4,144.00486158749985,
positions.xlsx,positions_test.xlsx,positions_test_new.xlsx,stimuli.xlsx,stimuli_new.xlsx,stimuli/Social3.png,stimuli/Social4.png,stimuli/Nonsocial3.png,stimuli/Nonsocial4.png,stimuli/Social1.png,stimuli/Social2.png,stimuli/Nonsocial1.png,stimuli/Nonsocial2.png,,,"(-0.7, -0.5)",cs_neg_ns,"(-0.7, 0.5)",cs_pos_ns,"(0.7, -0.5)",cs_pos_s,"(0.7, 0.5)",cs_neg_s,0,0,0,0,,,,,,,,,,,,,,,,,,,,,,,,,,,,,0,7,7,0,0,0,0,0,,,,,,,,,,,,,,,336,reward,,,,,,1328.336803900078,1328.336803900078,1328.336803900078,1328.336803900078,0,,,0,,,1,0.7383677000179887,0.7383708999259397,0,,,1329.079819100094,1329.079819100094,1329.079819100094,1329.079819100094,52,C,2024-05-22_17h37.19.217,attentional_competition_task,2022.2.4,144.00486158749985,
positions.xlsx,positions_test.xlsx,positions_test_new.xlsx,stimuli.xlsx,stimuli_new.xlsx,stimuli/Social3.png,stimuli/Social4.png,stimuli/Nonsocial3.png,stimuli/Nonsocial4.png,stimuli/Social1.png,stimuli/Social2.png,stimuli/Nonsocial1.png,stimuli/Nonsocial2.png,,,"(-0.7, -0.5)",cs_neg_ns,"(-0.7, 0.5)",cs_pos_ns,"(0.7, -0.5)",cs_pos_s,"(0.7, 0.5)",cs_neg_s,0,0,0,0,,,,,,,,,,,,,,,,,,,,,,,,,,,,,0,7,7,0,1,0,1,0,,,,,,,,,,,,,,,339,reward,,,,,,1329.5797960000345,1329.5797960000345,1329.5797960000345,1329.5797960000345,0,,,1,0.27336099999956787,0.2733647000277415,0,,,0,,,1329.8575377000961,1329.8575377000961,1329.8575377000961,1329.8575377000961,52,C,2024-05-22_17h37.19.217,attentional_competition_task,2022.2.4,144.00486158749985,
positions.xlsx,positions_test.xlsx,positions_test_new.xlsx,stimuli.xlsx,stimuli_new.xlsx,stimuli/Social3.png,stimuli/Social4.png,stimuli/Nonsocial3.png,stimuli/Nonsocial4.png,stimuli/Social1.png,stimuli/Social2.png,stimuli/Nonsocial1.png,stimuli/Nonsocial2.png,,,"(-0.7, -0.5)",cs_neg_ns,"(-0.7, 0.5)",cs_pos_ns,"(0.7, -0.5)",cs_pos_s,"(0.7, 0.5)",cs_neg_s,0,0,0,0,,,,,,,,,,,,,,,,,,,,,,,,,,,,,0,7,7,0,,,,,,,,,,,,,,,,,,,,,,,,,,,,,,,,,,,,,,,,,,,,,,52,C,2024-05-22_17h37.19.217,attentional_competition_task,2022.2.4,144.00486158749985,
positions.xlsx,positions_test.xlsx,positions_test_new.xlsx,stimuli.xlsx,stimuli_new.xlsx,stimuli/Social3.png,stimuli/Social4.png,stimuli/Nonsocial3.png,stimuli/Nonsocial4.png,stimuli/Social1.png,stimuli/Social2.png,stimuli/Nonsocial1.png,stimuli/Nonsocial2.png,,,"(-0.7, -0.5)",cs_neg_ns_new,"(-0.7, 0.5)",cs_pos_ns,"(0.7, -0.5)",cs_neg_s,"(0.7, 0.5)",cs_pos_s,0,0,0,0,,,,,,,,,,,,,,,,,,,,,,,,,,,,,0,8,8,18,0,0,0,0,,,,,,,,,,,,,,,336,loss,,,,,,1337.0101229000138,1337.0101229000138,1337.0101229000138,1337.0101229000138,1,0.6405185000039637,0.6405221000313759,0,,,0,,,0,,,1337.6558457000647,1337.6558457000647,1337.6558457000647,1337.6558457000647,52,C,2024-05-22_17h37.19.217,attentional_competition_task,2022.2.4,144.00486158749985,
positions.xlsx,positions_test.xlsx,positions_test_new.xlsx,stimuli.xlsx,stimuli_new.xlsx,stimuli/Social3.png,stimuli/Social4.png,stimuli/Nonsocial3.png,stimuli/Nonsocial4.png,stimuli/Social1.png,stimuli/Social2.png,stimuli/Nonsocial1.png,stimuli/Nonsocial2.png,,,"(-0.7, -0.5)",cs_neg_ns_new,"(-0.7, 0.5)",cs_pos_ns,"(0.7, -0.5)",cs_neg_s,"(0.7, 0.5)",cs_pos_s,0,0,0,0,,,,,,,,,,,,,,,,,,,,,,,,,,,,,0,8,8,18,1,0,1,0,,,,,,,,,,,,,,,339,reward,,,,,,1338.1906042000046,1338.1906042000046,1338.1906042000046,1338.1906042000046,0,,,1,0.02967489999718964,0.029679000028409064,0,,,0,,,1338.1906042000046,1338.1906042000046,1338.1906042000046,1338.1906042000046,52,C,2024-05-22_17h37.19.217,attentional_competition_task,2022.2.4,144.00486158749985,
positions.xlsx,positions_test.xlsx,positions_test_new.xlsx,stimuli.xlsx,stimuli_new.xlsx,stimuli/Social3.png,stimuli/Social4.png,stimuli/Nonsocial3.png,stimuli/Nonsocial4.png,stimuli/Social1.png,stimuli/Social2.png,stimuli/Nonsocial1.png,stimuli/Nonsocial2.png,,,"(-0.7, -0.5)",cs_neg_ns_new,"(-0.7, 0.5)",cs_pos_ns,"(0.7, -0.5)",cs_neg_s,"(0.7, 0.5)",cs_pos_s,0,0,0,0,,,,,,,,,,,,,,,,,,,,,,,,,,,,,0,8,8,18,2,0,2,0,,,,,,,,,,,,,,,342,reward,,,,,,1338.683585699997,1338.683585699997,1338.683585699997,1338.683585699997,0,,,0,,,0,,,1,0.2189886000705883,0.21899210009723902,1338.912774000084,1338.912774000084,1338.912774000084,1338.912774000084,52,C,2024-05-22_17h37.19.217,attentional_competition_task,2022.2.4,144.00486158749985,
positions.xlsx,positions_test.xlsx,positions_test_new.xlsx,stimuli.xlsx,stimuli_new.xlsx,stimuli/Social3.png,stimuli/Social4.png,stimuli/Nonsocial3.png,stimuli/Nonsocial4.png,stimuli/Social1.png,stimuli/Social2.png,stimuli/Nonsocial1.png,stimuli/Nonsocial2.png,,,"(-0.7, -0.5)",cs_neg_ns_new,"(-0.7, 0.5)",cs_pos_ns,"(0.7, -0.5)",cs_neg_s,"(0.7, 0.5)",cs_pos_s,0,0,0,0,,,,,,,,,,,,,,,,,,,,,,,,,,,,,0,8,8,18,,,,,,,,,,,,,,,,,,,,,,,,,,,,,,,,,,,,,,,,,,,,,,52,C,2024-05-22_17h37.19.217,attentional_competition_task,2022.2.4,144.00486158749985,
positions.xlsx,positions_test.xlsx,positions_test_new.xlsx,stimuli.xlsx,stimuli_new.xlsx,stimuli/Social3.png,stimuli/Social4.png,stimuli/Nonsocial3.png,stimuli/Nonsocial4.png,stimuli/Social1.png,stimuli/Social2.png,stimuli/Nonsocial1.png,stimuli/Nonsocial2.png,,,"(-0.7, -0.5)",cs_neg_ns_new,"(-0.7, 0.5)",cs_pos_s,"(0.7, -0.5)",cs_neg_s,"(0.7, 0.5)",cs_pos_ns,0,0,0,0,,,,,,,,,,,,,,,,,,,,,,,,,,,,,0,9,9,20,0,0,0,0,,,,,,,,,,,,,,,339,loss,,,,,,1345.176370400004,1345.176370400004,1345.176370400004,1345.176370400004,1,0.7654212999623269,0.7654249999905005,0,,,0,,,0,,,1345.9472367001,1345.9472367001,1345.9472367001,1345.9472367001,52,C,2024-05-22_17h37.19.217,attentional_competition_task,2022.2.4,144.00486158749985,
