posFile,posFileTest,posFileTestNew,stimFile,stimFileNew,cs_neg_s,cs_pos_s,cs_neg_ns,cs_pos_ns,cs_neg_s_new,cs_pos_s_new,cs_neg_ns_new,cs_pos_ns_new,stim,position,position1,stim1,position2,stim2,position3,stim3,position4,stim4,blocks.thisRepN,blocks.thisTrialN,blocks.thisN,blocks.thisIndex,ratingtrials1.thisRepN,ratingtrials1.thisTrialN,ratingtrials1.thisN,ratingtrials1.thisIndex,search_task_trials.thisRepN,search_task_trials.thisTrialN,search_task_trials.thisN,search_task_trials.thisIndex,learning_trials.thisRepN,learning_trials.thisTrialN,learning_trials.thisN,learning_trials.thisIndex,trials.thisRepN,trials.thisTrialN,trials.thisN,trials.thisIndex,ratingtrials2.thisRepN,ratingtrials2.thisTrialN,ratingtrials2.thisN,ratingtrials2.thisIndex,testtrials.thisRepN,testtrials.thisTrialN,testtrials.thisN,testtrials.thisIndex,loop_test.thisRepN,loop_test.thisTrialN,loop_test.thisN,loop_test.thisIndex,testtrials_novelty.thisRepN,testtrials_novelty.thisTrialN,testtrials_novelty.thisN,testtrials_novelty.thisIndex,loop_test_novelty.thisRepN,loop_test_novelty.thisTrialN,loop_test_novelty.thisN,loop_test_novelty.thisIndex,ratingtrials3.thisRepN,ratingtrials3.thisTrialN,ratingtrials3.thisN,ratingtrials3.thisIndex,textStart.started,textStartExp.started,imageRating.started,sliderStim.response,sliderStim.rt,textStartSearch.started,target_positions,distractor_positions,textStartTask.started,image.started,score,outcome,roi.numLooks,roi.timesOn,roi.timesOff,imageFeedback.started,textTestInstr.started,test_image1.started,test_image2.started,test_image3.started,test_image4.started,test_roi1.numLooks,test_roi1.timesOn,test_roi1.timesOff,test_roi2.numLooks,test_roi2.timesOn,test_roi2.timesOff,test_roi3.numLooks,test_roi3.timesOn,test_roi3.timesOff,test_roi4.numLooks,test_roi4.timesOn,test_roi4.timesOff,test_image_feedback1.started,test_image_feedback2.started,test_iamge_feedback3.started,test_iamge_feedback4.started,participant,group,date,expName,psychopyVersion,frameRate,
positions.xlsx,positions_test.xlsx,positions_test_new.xlsx,stimuli.xlsx,stimuli_new.xlsx,stimuli/Social3.png,stimuli/Social4.png,stimuli/Nonsocial3.png,stimuli/Nonsocial4.png,stimuli/Social1.png,stimuli/Social2.png,stimuli/Nonsocial1.png,stimuli/Nonsocial2.png,cs_neg_s,,,,,,,,,,0,0,0,0,0,0,0,0,,,,,,,,,,,,,,,,,,,,,,,,,,,,,,,,,,,,,17.127918799989857,118.76791379999486,125.82374500000151,5.0,9.569302199990489,,,,,,,,,,,,,,,,,,,,,,,,,,,,,,,,,24,C,2024-05-01_09h19.21.680,attentional_competition_task,2022.2.4,143.98806627541978,
positions.xlsx,positions_test.xlsx,positions_test_new.xlsx,stimuli.xlsx,stimuli_new.xlsx,stimuli/Social3.png,stimuli/Social4.png,stimuli/Nonsocial3.png,stimuli/Nonsocial4.png,stimuli/Social1.png,stimuli/Social2.png,stimuli/Nonsocial1.png,stimuli/Nonsocial2.png,cs_pos_s,,,,,,,,,,0,0,0,0,0,1,1,2,,,,,,,,,,,,,,,,,,,,,,,,,,,,,,,,,,,,,,,136.08027379999112,6.0,3.908902199997101,,,,,,,,,,,,,,,,,,,,,,,,,,,,,,,,,24,C,2024-05-01_09h19.21.680,attentional_competition_task,2022.2.4,143.98806627541978,
positions.xlsx,positions_test.xlsx,positions_test_new.xlsx,stimuli.xlsx,stimuli_new.xlsx,stimuli/Social3.png,stimuli/Social4.png,stimuli/Nonsocial3.png,stimuli/Nonsocial4.png,stimuli/Social1.png,stimuli/Social2.png,stimuli/Nonsocial1.png,stimuli/Nonsocial2.png,cs_neg_ns,,,,,,,,,,0,0,0,0,0,2,2,1,,,,,,,,,,,,,,,,,,,,,,,,,,,,,,,,,,,,,,,140.50366839999333,6.0,11.02140800000052,,,,,,,,,,,,,,,,,,,,,,,,,,,,,,,,,24,C,2024-05-01_09h19.21.680,attentional_competition_task,2022.2.4,143.98806627541978,
positions.xlsx,positions_test.xlsx,positions_test_new.xlsx,stimuli.xlsx,stimuli_new.xlsx,stimuli/Social3.png,stimuli/Social4.png,stimuli/Nonsocial3.png,stimuli/Nonsocial4.png,stimuli/Social1.png,stimuli/Social2.png,stimuli/Nonsocial1.png,stimuli/Nonsocial2.png,cs_pos_ns,,,,,,,,,,0,0,0,0,0,3,3,3,,,,,,,,,,,,,,,,,,,,,,,,,,,,,,,,,,,,,,,151.89215099999274,5.0,3.7368508000072325,,,,,,,,,,,,,,,,,,,,,,,,,,,,,,,,,24,C,2024-05-01_09h19.21.680,attentional_competition_task,2022.2.4,143.98806627541978,
positions.xlsx,positions_test.xlsx,positions_test_new.xlsx,stimuli.xlsx,stimuli_new.xlsx,stimuli/Social3.png,stimuli/Social4.png,stimuli/Nonsocial3.png,stimuli/Nonsocial4.png,stimuli/Social1.png,stimuli/Social2.png,stimuli/Nonsocial1.png,stimuli/Nonsocial2.png,,,,,,,,,,,0,0,0,0,,,,,0,0,0,0,,,,,,,,,,,,,,,,,,,,,,,,,,,,,,,,,,,,,,155.85725739999907,"[[0.9, -0.30000000000000004], [0.6749999999999999, 0.7], [0.45000000000000007, 0.7], [0.22499999999999998, 0.7], [0.0, -0.8], [-0.9, -0.30000000000000004], [0.22499999999999998, -0.8], [0.0, 0.7], [-0.22499999999999998, -0.30000000000000004], [-0.675, -0.30000000000000004], [-0.9, 0.7], [-0.45, 0.7], [-0.675, -0.8], [-0.45, -0.30000000000000004], [0.6749999999999999, -0.8]]","[[-0.675, 0.7], [0.22499999999999998, 0.19999999999999996], [-0.675, 0.19999999999999996], [-0.22499999999999998, -0.8], [0.22499999999999998, -0.30000000000000004], [0.45000000000000007, -0.30000000000000004], [0.0, 0.19999999999999996], [0.45000000000000007, -0.8], [-0.45, -0.8], [0.9, 0.7], [0.0, -0.30000000000000004], [-0.9, -0.8], [-0.22499999999999998, 0.19999999999999996], [0.9, 0.19999999999999996], [0.6749999999999999, 0.19999999999999996]]",,,,,,,,,,,,,,,,,,,,,,,,,,,,,,24,C,2024-05-01_09h19.21.680,attentional_competition_task,2022.2.4,143.98806627541978,
positions.xlsx,positions_test.xlsx,positions_test_new.xlsx,stimuli.xlsx,stimuli_new.xlsx,stimuli/Social3.png,stimuli/Social4.png,stimuli/Nonsocial3.png,stimuli/Nonsocial4.png,stimuli/Social1.png,stimuli/Social2.png,stimuli/Nonsocial1.png,stimuli/Nonsocial2.png,,,,,,,,,,,0,0,0,0,,,,,1,0,1,0,,,,,,,,,,,,,,,,,,,,,,,,,,,,,,,,,,,,,,,"[[0.6749999999999999, -0.30000000000000004], [0.22499999999999998, -0.8], [0.6749999999999999, 0.7], [0.6749999999999999, -0.8], [-0.675, 0.7], [0.45000000000000007, 0.19999999999999996], [-0.9, 0.19999999999999996], [0.45000000000000007, -0.30000000000000004], [0.22499999999999998, -0.30000000000000004], [0.6749999999999999, 0.19999999999999996], [-0.22499999999999998, -0.30000000000000004], [-0.675, -0.30000000000000004], [-0.675, 0.19999999999999996], [-0.675, -0.8], [-0.9, -0.30000000000000004]]","[[-0.22499999999999998, 0.19999999999999996], [-0.9, 0.7], [0.45000000000000007, 0.7], [-0.45, -0.8], [0.22499999999999998, 0.19999999999999996], [-0.45, 0.19999999999999996], [0.9, 0.19999999999999996], [-0.9, -0.8], [0.0, -0.30000000000000004], [0.22499999999999998, 0.7], [0.9, -0.8], [-0.45, -0.30000000000000004], [0.0, 0.19999999999999996], [0.0, -0.8], [0.0, 0.7]]",,,,,,,,,,,,,,,,,,,,,,,,,,,,,,24,C,2024-05-01_09h19.21.680,attentional_competition_task,2022.2.4,143.98806627541978,
positions.xlsx,positions_test.xlsx,positions_test_new.xlsx,stimuli.xlsx,stimuli_new.xlsx,stimuli/Social3.png,stimuli/Social4.png,stimuli/Nonsocial3.png,stimuli/Nonsocial4.png,stimuli/Social1.png,stimuli/Social2.png,stimuli/Nonsocial1.png,stimuli/Nonsocial2.png,cs_neg_ns,"(-0.7, -0.5)",,,,,,,,,0,0,0,0,,,,,,,,,0,0,0,9,,,,,,,,,,,,,,,,,,,,,,,,,,,,,,,,,,,,,247.57577049999963,279.4494219999906,-3,loss,1,0.3128138000029139,0.3128175000019837,279.77582809999876,,,,,,,,,,,,,,,,,,,,,,24,C,2024-05-01_09h19.21.680,attentional_competition_task,2022.2.4,143.98806627541978,
positions.xlsx,positions_test.xlsx,positions_test_new.xlsx,stimuli.xlsx,stimuli_new.xlsx,stimuli/Social3.png,stimuli/Social4.png,stimuli/Nonsocial3.png,stimuli/Nonsocial4.png,stimuli/Social1.png,stimuli/Social2.png,stimuli/Nonsocial1.png,stimuli/Nonsocial2.png,cs_pos_s,"(-0.7, -0.5)",,,,,,,,,0,0,0,0,,,,,,,,,0,1,1,5,,,,,,,,,,,,,,,,,,,,,,,,,,,,,,,,,,,,,,287.24789719999535,0,reward,1,0.34731680000550114,0.34732030000304803,287.60880929999985,,,,,,,,,,,,,,,,,,,,,,24,C,2024-05-01_09h19.21.680,attentional_competition_task,2022.2.4,143.98806627541978,
positions.xlsx,positions_test.xlsx,positions_test_new.xlsx,stimuli.xlsx,stimuli_new.xlsx,stimuli/Social3.png,stimuli/Social4.png,stimuli/Nonsocial3.png,stimuli/Nonsocial4.png,stimuli/Social1.png,stimuli/Social2.png,stimuli/Nonsocial1.png,stimuli/Nonsocial2.png,cs_neg_s,"(-0.7, 0.5)",,,,,,,,,0,0,0,0,,,,,,,,,0,2,2,0,,,,,,,,,,,,,,,,,,,,,,,,,,,,,,,,,,,,,,294.98352719999093,-3,loss,1,0.4518157999991672,0.4518192999967141,295.4418941999902,,,,,,,,,,,,,,,,,,,,,,24,C,2024-05-01_09h19.21.680,attentional_competition_task,2022.2.4,143.98806627541978,
positions.xlsx,positions_test.xlsx,positions_test_new.xlsx,stimuli.xlsx,stimuli_new.xlsx,stimuli/Social3.png,stimuli/Social4.png,stimuli/Nonsocial3.png,stimuli/Nonsocial4.png,stimuli/Social1.png,stimuli/Social2.png,stimuli/Nonsocial1.png,stimuli/Nonsocial2.png,cs_neg_ns,"(-0.7, 0.5)",,,,,,,,,0,0,0,0,,,,,,,,,0,3,3,8,,,,,,,,,,,,,,,,,,,,,,,,,,,,,,,,,,,,,,302.65692480000143,-6,loss,1,0.35474059999978635,0.3547441999980947,303.01793909999833,,,,,,,,,,,,,,,,,,,,,,24,C,2024-05-01_09h19.21.680,attentional_competition_task,2022.2.4,143.98806627541978,
positions.xlsx,positions_test.xlsx,positions_test_new.xlsx,stimuli.xlsx,stimuli_new.xlsx,stimuli/Social3.png,stimuli/Social4.png,stimuli/Nonsocial3.png,stimuli/Nonsocial4.png,stimuli/Social1.png,stimuli/Social2.png,stimuli/Nonsocial1.png,stimuli/Nonsocial2.png,cs_neg_ns,"(0.7, -0.5)",,,,,,,,,0,0,0,0,,,,,,,,,0,4,4,11,,,,,,,,,,,,,,,,,,,,,,,,,,,,,,,,,,,,,,310.38570349999645,-9,loss,1,0.4237563000060618,0.4237604000081774,310.8162655999913,,,,,,,,,,,,,,,,,,,,,,24,C,2024-05-01_09h19.21.680,attentional_competition_task,2022.2.4,143.98806627541978,
positions.xlsx,positions_test.xlsx,positions_test_new.xlsx,stimuli.xlsx,stimuli_new.xlsx,stimuli/Social3.png,stimuli/Social4.png,stimuli/Nonsocial3.png,stimuli/Nonsocial4.png,stimuli/Social1.png,stimuli/Social2.png,stimuli/Nonsocial1.png,stimuli/Nonsocial2.png,cs_neg_s,"(0.7, -0.5)",,,,,,,,,0,0,0,0,,,,,,,,,0,5,5,3,,,,,,,,,,,,,,,,,,,,,,,,,,,,,,,,,,,,,,318.88536109999404,-9,none,0,,,321.906101399989,,,,,,,,,,,,,,,,,,,,,,24,C,2024-05-01_09h19.21.680,attentional_competition_task,2022.2.4,143.98806627541978,
positions.xlsx,positions_test.xlsx,positions_test_new.xlsx,stimuli.xlsx,stimuli_new.xlsx,stimuli/Social3.png,stimuli/Social4.png,stimuli/Nonsocial3.png,stimuli/Nonsocial4.png,stimuli/Social1.png,stimuli/Social2.png,stimuli/Nonsocial1.png,stimuli/Nonsocial2.png,cs_pos_ns,"(-0.7, 0.5)",,,,,,,,,0,0,0,0,,,,,,,,,0,6,6,12,,,,,,,,,,,,,,,,,,,,,,,,,,,,,,,,,,,,,,330.2182810999948,-6,reward,1,0.3266567000100622,0.32666030000837054,330.55154570000013,,,,,,,,,,,,,,,,,,,,,,24,C,2024-05-01_09h19.21.680,attentional_competition_task,2022.2.4,143.98806627541978,
positions.xlsx,positions_test.xlsx,positions_test_new.xlsx,stimuli.xlsx,stimuli_new.xlsx,stimuli/Social3.png,stimuli/Social4.png,stimuli/Nonsocial3.png,stimuli/Nonsocial4.png,stimuli/Social1.png,stimuli/Social2.png,stimuli/Nonsocial1.png,stimuli/Nonsocial2.png,cs_pos_ns,"(0.7, -0.5)",,,,,,,,,0,0,0,0,,,,,,,,,0,7,7,15,,,,,,,,,,,,,,,,,,,,,,,,,,,,,,,,,,,,,,337.78043759999855,-3,reward,1,0.3405598999961512,0.3405635000090115,338.12765959999524,,,,,,,,,,,,,,,,,,,,,,24,C,2024-05-01_09h19.21.680,attentional_competition_task,2022.2.4,143.98806627541978,
positions.xlsx,positions_test.xlsx,positions_test_new.xlsx,stimuli.xlsx,stimuli_new.xlsx,stimuli/Social3.png,stimuli/Social4.png,stimuli/Nonsocial3.png,stimuli/Nonsocial4.png,stimuli/Social1.png,stimuli/Social2.png,stimuli/Nonsocial1.png,stimuli/Nonsocial2.png,cs_neg_s,"(0.7, 0.5)",,,,,,,,,0,0,0,0,,,,,,,,,0,8,8,2,,,,,,,,,,,,,,,,,,,,,,,,,,,,,,,,,,,,,,346.05093620000116,-6,loss,1,0.2363111000013305,0.23631459999887738,346.2939939999924,,,,,,,,,,,,,,,,,,,,,,24,C,2024-05-01_09h19.21.680,attentional_competition_task,2022.2.4,143.98806627541978,
positions.xlsx,positions_test.xlsx,positions_test_new.xlsx,stimuli.xlsx,stimuli_new.xlsx,stimuli/Social3.png,stimuli/Social4.png,stimuli/Nonsocial3.png,stimuli/Nonsocial4.png,stimuli/Social1.png,stimuli/Social2.png,stimuli/Nonsocial1.png,stimuli/Nonsocial2.png,cs_pos_s,"(0.7, -0.5)",,,,,,,,,0,0,0,0,,,,,,,,,0,9,9,7,,,,,,,,,,,,,,,,,,,,,,,,,,,,,,,,,,,,,,354.0505975999986,-3,reward,1,0.48606729999301024,0.48607079999055713,354.54363190000004,,,,,,,,,,,,,,,,,,,,,,24,C,2024-05-01_09h19.21.680,attentional_competition_task,2022.2.4,143.98806627541978,
positions.xlsx,positions_test.xlsx,positions_test_new.xlsx,stimuli.xlsx,stimuli_new.xlsx,stimuli/Social3.png,stimuli/Social4.png,stimuli/Nonsocial3.png,stimuli/Nonsocial4.png,stimuli/Social1.png,stimuli/Social2.png,stimuli/Nonsocial1.png,stimuli/Nonsocial2.png,cs_pos_s,"(0.7, 0.5)",,,,,,,,,0,0,0,0,,,,,,,,,0,10,10,6,,,,,,,,,,,,,,,,,,,,,,,,,,,,,,,,,,,,,,362.3488700000016,0,reward,1,0.5140219000022626,0.5140259999898262,362.8697320999927,,,,,,,,,,,,,,,,,,,,,,24,C,2024-05-01_09h19.21.680,attentional_competition_task,2022.2.4,143.98806627541978,
positions.xlsx,positions_test.xlsx,positions_test_new.xlsx,stimuli.xlsx,stimuli_new.xlsx,stimuli/Social3.png,stimuli/Social4.png,stimuli/Nonsocial3.png,stimuli/Nonsocial4.png,stimuli/Social1.png,stimuli/Social2.png,stimuli/Nonsocial1.png,stimuli/Nonsocial2.png,cs_neg_s,"(-0.7, -0.5)",,,,,,,,,0,0,0,0,,,,,,,,,0,11,11,1,,,,,,,,,,,,,,,,,,,,,,,,,,,,,,,,,,,,,,370.7929942999908,-3,loss,1,0.2643556999973953,0.26435979999951087,371.0638795999985,,,,,,,,,,,,,,,,,,,,,,24,C,2024-05-01_09h19.21.680,attentional_competition_task,2022.2.4,143.98806627541978,
positions.xlsx,positions_test.xlsx,positions_test_new.xlsx,stimuli.xlsx,stimuli_new.xlsx,stimuli/Social3.png,stimuli/Social4.png,stimuli/Nonsocial3.png,stimuli/Nonsocial4.png,stimuli/Social1.png,stimuli/Social2.png,stimuli/Nonsocial1.png,stimuli/Nonsocial2.png,cs_neg_ns,"(0.7, 0.5)",,,,,,,,,0,0,0,0,,,,,,,,,0,12,12,10,,,,,,,,,,,,,,,,,,,,,,,,,,,,,,,,,,,,,,378.5983114999981,-6,loss,1,0.743355700004031,0.7502527000033297,379.3551538999891,,,,,,,,,,,,,,,,,,,,,,24,C,2024-05-01_09h19.21.680,attentional_competition_task,2022.2.4,143.98806627541978,
positions.xlsx,positions_test.xlsx,positions_test_new.xlsx,stimuli.xlsx,stimuli_new.xlsx,stimuli/Social3.png,stimuli/Social4.png,stimuli/Nonsocial3.png,stimuli/Nonsocial4.png,stimuli/Social1.png,stimuli/Social2.png,stimuli/Nonsocial1.png,stimuli/Nonsocial2.png,cs_pos_ns,"(0.7, 0.5)",,,,,,,,,0,0,0,0,,,,,,,,,0,13,13,14,,,,,,,,,,,,,,,,,,,,,,,,,,,,,,,,,,,,,,386.5076907999901,-6,none,0,,,389.5214045999892,,,,,,,,,,,,,,,,,,,,,,24,C,2024-05-01_09h19.21.680,attentional_competition_task,2022.2.4,143.98806627541978,
positions.xlsx,positions_test.xlsx,positions_test_new.xlsx,stimuli.xlsx,stimuli_new.xlsx,stimuli/Social3.png,stimuli/Social4.png,stimuli/Nonsocial3.png,stimuli/Nonsocial4.png,stimuli/Social1.png,stimuli/Social2.png,stimuli/Nonsocial1.png,stimuli/Nonsocial2.png,cs_pos_ns,"(-0.7, -0.5)",,,,,,,,,0,0,0,0,,,,,,,,,0,14,14,13,,,,,,,,,,,,,,,,,,,,,,,,,,,,,,,,,,,,,,396.8197739999887,-6,none,0,,,399.83352249999007,,,,,,,,,,,,,,,,,,,,,,24,C,2024-05-01_09h19.21.680,attentional_competition_task,2022.2.4,143.98806627541978,
positions.xlsx,positions_test.xlsx,positions_test_new.xlsx,stimuli.xlsx,stimuli_new.xlsx,stimuli/Social3.png,stimuli/Social4.png,stimuli/Nonsocial3.png,stimuli/Nonsocial4.png,stimuli/Social1.png,stimuli/Social2.png,stimuli/Nonsocial1.png,stimuli/Nonsocial2.png,cs_pos_s,"(-0.7, 0.5)",,,,,,,,,0,0,0,0,,,,,,,,,0,15,15,4,,,,,,,,,,,,,,,,,,,,,,,,,,,,,,,,,,,,,,407.5553942999977,-3,reward,1,0.44439190000412054,0.44439600000623614,408.0067927999917,,,,,,,,,,,,,,,,,,,,,,24,C,2024-05-01_09h19.21.680,attentional_competition_task,2022.2.4,143.98806627541978,
positions.xlsx,positions_test.xlsx,positions_test_new.xlsx,stimuli.xlsx,stimuli_new.xlsx,stimuli/Social3.png,stimuli/Social4.png,stimuli/Nonsocial3.png,stimuli/Nonsocial4.png,stimuli/Social1.png,stimuli/Social2.png,stimuli/Nonsocial1.png,stimuli/Nonsocial2.png,cs_neg_s,"(-0.7, -0.5)",,,,,,,,,0,0,0,0,,,,,,,,,1,0,16,1,,,,,,,,,,,,,,,,,,,,,,,,,,,,,,,,,,,,,,415.55508839999675,-3,none,0,,,418.5688683999906,,,,,,,,,,,,,,,,,,,,,,24,C,2024-05-01_09h19.21.680,attentional_competition_task,2022.2.4,143.98806627541978,
positions.xlsx,positions_test.xlsx,positions_test_new.xlsx,stimuli.xlsx,stimuli_new.xlsx,stimuli/Social3.png,stimuli/Social4.png,stimuli/Nonsocial3.png,stimuli/Nonsocial4.png,stimuli/Social1.png,stimuli/Social2.png,stimuli/Nonsocial1.png,stimuli/Nonsocial2.png,cs_neg_ns,"(-0.7, 0.5)",,,,,,,,,0,0,0,0,,,,,,,,,1,1,17,8,,,,,,,,,,,,,,,,,,,,,,,,,,,,,,,,,,,,,,426.90879999999015,-3,none,0,,,429.9225386999897,,,,,,,,,,,,,,,,,,,,,,24,C,2024-05-01_09h19.21.680,attentional_competition_task,2022.2.4,143.98806627541978,
positions.xlsx,positions_test.xlsx,positions_test_new.xlsx,stimuli.xlsx,stimuli_new.xlsx,stimuli/Social3.png,stimuli/Social4.png,stimuli/Nonsocial3.png,stimuli/Nonsocial4.png,stimuli/Social1.png,stimuli/Social2.png,stimuli/Nonsocial1.png,stimuli/Nonsocial2.png,cs_pos_s,"(-0.7, -0.5)",,,,,,,,,0,0,0,0,,,,,,,,,1,2,18,5,,,,,,,,,,,,,,,,,,,,,,,,,,,,,,,,,,,,,,437.42917869999656,0,reward,1,0.39609130000462756,0.39610800000082236,437.83197259998997,,,,,,,,,,,,,,,,,,,,,,24,C,2024-05-01_09h19.21.680,attentional_competition_task,2022.2.4,143.98806627541978,
positions.xlsx,positions_test.xlsx,positions_test_new.xlsx,stimuli.xlsx,stimuli_new.xlsx,stimuli/Social3.png,stimuli/Social4.png,stimuli/Nonsocial3.png,stimuli/Nonsocial4.png,stimuli/Social1.png,stimuli/Social2.png,stimuli/Nonsocial1.png,stimuli/Nonsocial2.png,cs_neg_s,"(0.7, -0.5)",,,,,,,,,0,0,0,0,,,,,,,,,1,3,19,3,,,,,,,,,,,,,,,,,,,,,,,,,,,,,,,,,,,,,,445.4497025999881,0,none,0,,,448.4565608999983,,,,,,,,,,,,,,,,,,,,,,24,C,2024-05-01_09h19.21.680,attentional_competition_task,2022.2.4,143.98806627541978,
positions.xlsx,positions_test.xlsx,positions_test_new.xlsx,stimuli.xlsx,stimuli_new.xlsx,stimuli/Social3.png,stimuli/Social4.png,stimuli/Nonsocial3.png,stimuli/Nonsocial4.png,stimuli/Social1.png,stimuli/Social2.png,stimuli/Nonsocial1.png,stimuli/Nonsocial2.png,cs_pos_s,"(-0.7, 0.5)",,,,,,,,,0,0,0,0,,,,,,,,,1,4,20,4,,,,,,,,,,,,,,,,,,,,,,,,,,,,,,,,,,,,,,456.338184799999,3,reward,1,0.4451106000051368,0.44511440000496805,456.78955779998796,,,,,,,,,,,,,,,,,,,,,,24,C,2024-05-01_09h19.21.680,attentional_competition_task,2022.2.4,143.98806627541978,
positions.xlsx,positions_test.xlsx,positions_test_new.xlsx,stimuli.xlsx,stimuli_new.xlsx,stimuli/Social3.png,stimuli/Social4.png,stimuli/Nonsocial3.png,stimuli/Nonsocial4.png,stimuli/Social1.png,stimuli/Social2.png,stimuli/Nonsocial1.png,stimuli/Nonsocial2.png,cs_neg_s,"(0.7, 0.5)",,,,,,,,,0,0,0,0,,,,,,,,,1,5,21,2,,,,,,,,,,,,,,,,,,,,,,,,,,,,,,,,,,,,,,463.9837899999984,3,none,0,,,466.9974537999951,,,,,,,,,,,,,,,,,,,,,,24,C,2024-05-01_09h19.21.680,attentional_competition_task,2022.2.4,143.98806627541978,
positions.xlsx,positions_test.xlsx,positions_test_new.xlsx,stimuli.xlsx,stimuli_new.xlsx,stimuli/Social3.png,stimuli/Social4.png,stimuli/Nonsocial3.png,stimuli/Nonsocial4.png,stimuli/Social1.png,stimuli/Social2.png,stimuli/Nonsocial1.png,stimuli/Nonsocial2.png,cs_pos_ns,"(0.7, 0.5)",,,,,,,,,0,0,0,0,,,,,,,,,1,6,22,14,,,,,,,,,,,,,,,,,,,,,,,,,,,,,,,,,,,,,,474.24023199999647,3,none,0,,,477.2539665999939,,,,,,,,,,,,,,,,,,,,,,24,C,2024-05-01_09h19.21.680,attentional_competition_task,2022.2.4,143.98806627541978,
positions.xlsx,positions_test.xlsx,positions_test_new.xlsx,stimuli.xlsx,stimuli_new.xlsx,stimuli/Social3.png,stimuli/Social4.png,stimuli/Nonsocial3.png,stimuli/Nonsocial4.png,stimuli/Social1.png,stimuli/Social2.png,stimuli/Nonsocial1.png,stimuli/Nonsocial2.png,cs_neg_ns,"(-0.7, -0.5)",,,,,,,,,0,0,0,0,,,,,,,,,1,7,23,9,,,,,,,,,,,,,,,,,,,,,,,,,,,,,,,,,,,,,,485.0800385999901,3,none,0,,,488.09387369999604,,,,,,,,,,,,,,,,,,,,,,24,C,2024-05-01_09h19.21.680,attentional_competition_task,2022.2.4,143.98806627541978,
positions.xlsx,positions_test.xlsx,positions_test_new.xlsx,stimuli.xlsx,stimuli_new.xlsx,stimuli/Social3.png,stimuli/Social4.png,stimuli/Nonsocial3.png,stimuli/Nonsocial4.png,stimuli/Social1.png,stimuli/Social2.png,stimuli/Nonsocial1.png,stimuli/Nonsocial2.png,cs_neg_ns,"(0.7, 0.5)",,,,,,,,,0,0,0,0,,,,,,,,,1,8,24,10,,,,,,,,,,,,,,,,,,,,,,,,,,,,,,,,,,,,,,495.36437849998765,3,none,0,,,498.37813939999614,,,,,,,,,,,,,,,,,,,,,,24,C,2024-05-01_09h19.21.680,attentional_competition_task,2022.2.4,143.98806627541978,
positions.xlsx,positions_test.xlsx,positions_test_new.xlsx,stimuli.xlsx,stimuli_new.xlsx,stimuli/Social3.png,stimuli/Social4.png,stimuli/Nonsocial3.png,stimuli/Nonsocial4.png,stimuli/Social1.png,stimuli/Social2.png,stimuli/Nonsocial1.png,stimuli/Nonsocial2.png,cs_pos_s,"(0.7, 0.5)",,,,,,,,,0,0,0,0,,,,,,,,,1,9,25,6,,,,,,,,,,,,,,,,,,,,,,,,,,,,,,,,,,,,,,505.9403699999966,6,reward,1,1.2860439000069164,1.286047800007509,507.23195589998795,,,,,,,,,,,,,,,,,,,,,,24,C,2024-05-01_09h19.21.680,attentional_competition_task,2022.2.4,143.98806627541978,
positions.xlsx,positions_test.xlsx,positions_test_new.xlsx,stimuli.xlsx,stimuli_new.xlsx,stimuli/Social3.png,stimuli/Social4.png,stimuli/Nonsocial3.png,stimuli/Nonsocial4.png,stimuli/Social1.png,stimuli/Social2.png,stimuli/Nonsocial1.png,stimuli/Nonsocial2.png,cs_neg_s,"(-0.7, 0.5)",,,,,,,,,0,0,0,0,,,,,,,,,1,10,26,0,,,,,,,,,,,,,,,,,,,,,,,,,,,,,,,,,,,,,,513.9469395999913,6,none,0,,,516.9537608999963,,,,,,,,,,,,,,,,,,,,,,24,C,2024-05-01_09h19.21.680,attentional_competition_task,2022.2.4,143.98806627541978,
positions.xlsx,positions_test.xlsx,positions_test_new.xlsx,stimuli.xlsx,stimuli_new.xlsx,stimuli/Social3.png,stimuli/Social4.png,stimuli/Nonsocial3.png,stimuli/Nonsocial4.png,stimuli/Social1.png,stimuli/Social2.png,stimuli/Nonsocial1.png,stimuli/Nonsocial2.png,cs_pos_ns,"(-0.7, 0.5)",,,,,,,,,0,0,0,0,,,,,,,,,1,11,27,12,,,,,,,,,,,,,,,,,,,,,,,,,,,,,,,,,,,,,,524.7312227999937,6,none,0,,,527.7380750000011,,,,,,,,,,,,,,,,,,,,,,24,C,2024-05-01_09h19.21.680,attentional_competition_task,2022.2.4,143.98806627541978,
positions.xlsx,positions_test.xlsx,positions_test_new.xlsx,stimuli.xlsx,stimuli_new.xlsx,stimuli/Social3.png,stimuli/Social4.png,stimuli/Nonsocial3.png,stimuli/Nonsocial4.png,stimuli/Social1.png,stimuli/Social2.png,stimuli/Nonsocial1.png,stimuli/Nonsocial2.png,cs_pos_s,"(0.7, -0.5)",,,,,,,,,0,0,0,0,,,,,,,,,1,12,28,7,,,,,,,,,,,,,,,,,,,,,,,,,,,,,,,,,,,,,,534.925279099989,9,reward,1,0.5483017000078689,0.5483054000069387,535.480814399998,,,,,,,,,,,,,,,,,,,,,,24,C,2024-05-01_09h19.21.680,attentional_competition_task,2022.2.4,143.98806627541978,
positions.xlsx,positions_test.xlsx,positions_test_new.xlsx,stimuli.xlsx,stimuli_new.xlsx,stimuli/Social3.png,stimuli/Social4.png,stimuli/Nonsocial3.png,stimuli/Nonsocial4.png,stimuli/Social1.png,stimuli/Social2.png,stimuli/Nonsocial1.png,stimuli/Nonsocial2.png,cs_pos_ns,"(-0.7, -0.5)",,,,,,,,,0,0,0,0,,,,,,,,,1,13,29,13,,,,,,,,,,,,,,,,,,,,,,,,,,,,,,,,,,,,,,543.5499378999957,9,none,0,,,546.5637546999933,,,,,,,,,,,,,,,,,,,,,,24,C,2024-05-01_09h19.21.680,attentional_competition_task,2022.2.4,143.98806627541978,
positions.xlsx,positions_test.xlsx,positions_test_new.xlsx,stimuli.xlsx,stimuli_new.xlsx,stimuli/Social3.png,stimuli/Social4.png,stimuli/Nonsocial3.png,stimuli/Nonsocial4.png,stimuli/Social1.png,stimuli/Social2.png,stimuli/Nonsocial1.png,stimuli/Nonsocial2.png,cs_neg_ns,"(0.7, -0.5)",,,,,,,,,0,0,0,0,,,,,,,,,1,14,30,11,,,,,,,,,,,,,,,,,,,,,,,,,,,,,,,,,,,,,,554.5286898999912,9,none,0,,,557.5424238999985,,,,,,,,,,,,,,,,,,,,,,24,C,2024-05-01_09h19.21.680,attentional_competition_task,2022.2.4,143.98806627541978,
positions.xlsx,positions_test.xlsx,positions_test_new.xlsx,stimuli.xlsx,stimuli_new.xlsx,stimuli/Social3.png,stimuli/Social4.png,stimuli/Nonsocial3.png,stimuli/Nonsocial4.png,stimuli/Social1.png,stimuli/Social2.png,stimuli/Nonsocial1.png,stimuli/Nonsocial2.png,cs_pos_ns,"(0.7, -0.5)",,,,,,,,,0,0,0,0,,,,,,,,,1,15,31,15,,,,,,,,,,,,,,,,,,,,,,,,,,,,,,,,,,,,,,565.0143225999927,9,none,0,,,568.028106999991,,,,,,,,,,,,,,,,,,,,,,24,C,2024-05-01_09h19.21.680,attentional_competition_task,2022.2.4,143.98806627541978,
positions.xlsx,positions_test.xlsx,positions_test_new.xlsx,stimuli.xlsx,stimuli_new.xlsx,stimuli/Social3.png,stimuli/Social4.png,stimuli/Nonsocial3.png,stimuli/Nonsocial4.png,stimuli/Social1.png,stimuli/Social2.png,stimuli/Nonsocial1.png,stimuli/Nonsocial2.png,cs_pos_s,"(-0.7, 0.5)",,,,,,,,,0,0,0,0,,,,,,,,,,,,,0,0,0,4,,,,,,,,,,,,,,,,,,,,,,,,,,,,,,,,,,592.1729925999971,12,reward,1,0.3681987999880221,0.36820249998709187,592.5479822999914,,,,,,,,,,,,,,,,,,,,,,24,C,2024-05-01_09h19.21.680,attentional_competition_task,2022.2.4,143.98806627541978,
positions.xlsx,positions_test.xlsx,positions_test_new.xlsx,stimuli.xlsx,stimuli_new.xlsx,stimuli/Social3.png,stimuli/Social4.png,stimuli/Nonsocial3.png,stimuli/Nonsocial4.png,stimuli/Social1.png,stimuli/Social2.png,stimuli/Nonsocial1.png,stimuli/Nonsocial2.png,cs_pos_ns,"(-0.7, 0.5)",,,,,,,,,0,0,0,0,,,,,,,,,,,,,0,1,1,12,,,,,,,,,,,,,,,,,,,,,,,,,,,,,,,,,,599.5546514000016,15,reward,1,0.5556974000064656,0.5557012000062969,600.1171090999997,,,,,,,,,,,,,,,,,,,,,,24,C,2024-05-01_09h19.21.680,attentional_competition_task,2022.2.4,143.98806627541978,
positions.xlsx,positions_test.xlsx,positions_test_new.xlsx,stimuli.xlsx,stimuli_new.xlsx,stimuli/Social3.png,stimuli/Social4.png,stimuli/Nonsocial3.png,stimuli/Nonsocial4.png,stimuli/Social1.png,stimuli/Social2.png,stimuli/Nonsocial1.png,stimuli/Nonsocial2.png,cs_pos_s,"(-0.7, -0.5)",,,,,,,,,0,0,0,0,,,,,,,,,,,,,0,2,2,5,,,,,,,,,,,,,,,,,,,,,,,,,,,,,,,,,,607.5681823999912,18,reward,1,0.6114993999945,0.6115030999935698,608.1862726999971,,,,,,,,,,,,,,,,,,,,,,24,C,2024-05-01_09h19.21.680,attentional_competition_task,2022.2.4,143.98806627541978,
positions.xlsx,positions_test.xlsx,positions_test_new.xlsx,stimuli.xlsx,stimuli_new.xlsx,stimuli/Social3.png,stimuli/Social4.png,stimuli/Nonsocial3.png,stimuli/Nonsocial4.png,stimuli/Social1.png,stimuli/Social2.png,stimuli/Nonsocial1.png,stimuli/Nonsocial2.png,cs_pos_s,"(0.7, -0.5)",,,,,,,,,0,0,0,0,,,,,,,,,,,,,0,3,3,7,,,,,,,,,,,,,,,,,,,,,,,,,,,,,,,,,,615.9150993999938,21,reward,1,0.5694976999948267,0.5695014999946579,616.4914583999926,,,,,,,,,,,,,,,,,,,,,,24,C,2024-05-01_09h19.21.680,attentional_competition_task,2022.2.4,143.98806627541978,
positions.xlsx,positions_test.xlsx,positions_test_new.xlsx,stimuli.xlsx,stimuli_new.xlsx,stimuli/Social3.png,stimuli/Social4.png,stimuli/Nonsocial3.png,stimuli/Nonsocial4.png,stimuli/Social1.png,stimuli/Social2.png,stimuli/Nonsocial1.png,stimuli/Nonsocial2.png,cs_neg_s,"(-0.7, -0.5)",,,,,,,,,0,0,0,0,,,,,,,,,,,,,0,4,4,1,,,,,,,,,,,,,,,,,,,,,,,,,,,,,,,,,,623.7480937999935,21,none,0,,,626.754972499999,,,,,,,,,,,,,,,,,,,,,,24,C,2024-05-01_09h19.21.680,attentional_competition_task,2022.2.4,143.98806627541978,
positions.xlsx,positions_test.xlsx,positions_test_new.xlsx,stimuli.xlsx,stimuli_new.xlsx,stimuli/Social3.png,stimuli/Social4.png,stimuli/Nonsocial3.png,stimuli/Nonsocial4.png,stimuli/Social1.png,stimuli/Social2.png,stimuli/Nonsocial1.png,stimuli/Nonsocial2.png,cs_neg_ns,"(-0.7, -0.5)",,,,,,,,,0,0,0,0,,,,,,,,,,,,,0,5,5,9,,,,,,,,,,,,,,,,,,,,,,,,,,,,,,,,,,634.1087837999949,18,loss,1,0.507470700002159,0.5140681999910157,634.6296667999995,,,,,,,,,,,,,,,,,,,,,,24,C,2024-05-01_09h19.21.680,attentional_competition_task,2022.2.4,143.98806627541978,
positions.xlsx,positions_test.xlsx,positions_test_new.xlsx,stimuli.xlsx,stimuli_new.xlsx,stimuli/Social3.png,stimuli/Social4.png,stimuli/Nonsocial3.png,stimuli/Nonsocial4.png,stimuli/Social1.png,stimuli/Social2.png,stimuli/Nonsocial1.png,stimuli/Nonsocial2.png,cs_pos_ns,"(-0.7, -0.5)",,,,,,,,,0,0,0,0,,,,,,,,,,,,,0,6,6,13,,,,,,,,,,,,,,,,,,,,,,,,,,,,,,,,,,642.2751209999988,21,reward,1,0.5765843999979552,0.5765877000085311,642.8653894000017,,,,,,,,,,,,,,,,,,,,,,24,C,2024-05-01_09h19.21.680,attentional_competition_task,2022.2.4,143.98806627541978,
positions.xlsx,positions_test.xlsx,positions_test_new.xlsx,stimuli.xlsx,stimuli_new.xlsx,stimuli/Social3.png,stimuli/Social4.png,stimuli/Nonsocial3.png,stimuli/Nonsocial4.png,stimuli/Social1.png,stimuli/Social2.png,stimuli/Nonsocial1.png,stimuli/Nonsocial2.png,cs_pos_ns,"(0.7, -0.5)",,,,,,,,,0,0,0,0,,,,,,,,,,,,,0,7,7,15,,,,,,,,,,,,,,,,,,,,,,,,,,,,,,,,,,650.2957215999922,24,reward,1,1.0204916999937268,1.0204953999927966,651.3234085000004,,,,,,,,,,,,,,,,,,,,,,24,C,2024-05-01_09h19.21.680,attentional_competition_task,2022.2.4,143.98806627541978,
positions.xlsx,positions_test.xlsx,positions_test_new.xlsx,stimuli.xlsx,stimuli_new.xlsx,stimuli/Social3.png,stimuli/Social4.png,stimuli/Nonsocial3.png,stimuli/Nonsocial4.png,stimuli/Social1.png,stimuli/Social2.png,stimuli/Nonsocial1.png,stimuli/Nonsocial2.png,cs_neg_s,"(0.7, 0.5)",,,,,,,,,0,0,0,0,,,,,,,,,,,,,0,8,8,2,,,,,,,,,,,,,,,,,,,,,,,,,,,,,,,,,,658.8578476999974,24,none,0,,,661.8646413999959,,,,,,,,,,,,,,,,,,,,,,24,C,2024-05-01_09h19.21.680,attentional_competition_task,2022.2.4,143.98806627541978,
positions.xlsx,positions_test.xlsx,positions_test_new.xlsx,stimuli.xlsx,stimuli_new.xlsx,stimuli/Social3.png,stimuli/Social4.png,stimuli/Nonsocial3.png,stimuli/Nonsocial4.png,stimuli/Social1.png,stimuli/Social2.png,stimuli/Nonsocial1.png,stimuli/Nonsocial2.png,cs_neg_ns,"(0.7, 0.5)",,,,,,,,,0,0,0,0,,,,,,,,,,,,,0,9,9,10,,,,,,,,,,,,,,,,,,,,,,,,,,,,,,,,,,669.1560033999995,21,loss,1,1.0349644999951124,1.0349679999926593,670.1976271999883,,,,,,,,,,,,,,,,,,,,,,24,C,2024-05-01_09h19.21.680,attentional_competition_task,2022.2.4,143.98806627541978,
positions.xlsx,positions_test.xlsx,positions_test_new.xlsx,stimuli.xlsx,stimuli_new.xlsx,stimuli/Social3.png,stimuli/Social4.png,stimuli/Nonsocial3.png,stimuli/Nonsocial4.png,stimuli/Social1.png,stimuli/Social2.png,stimuli/Nonsocial1.png,stimuli/Nonsocial2.png,cs_neg_ns,"(-0.7, 0.5)",,,,,,,,,0,0,0,0,,,,,,,,,,,,,0,10,10,8,,,,,,,,,,,,,,,,,,,,,,,,,,,,,,,,,,677.9542468,18,loss,1,0.9096134999999776,0.9096171999990474,678.8709251999971,,,,,,,,,,,,,,,,,,,,,,24,C,2024-05-01_09h19.21.680,attentional_competition_task,2022.2.4,143.98806627541978,
positions.xlsx,positions_test.xlsx,positions_test_new.xlsx,stimuli.xlsx,stimuli_new.xlsx,stimuli/Social3.png,stimuli/Social4.png,stimuli/Nonsocial3.png,stimuli/Nonsocial4.png,stimuli/Social1.png,stimuli/Social2.png,stimuli/Nonsocial1.png,stimuli/Nonsocial2.png,cs_neg_s,"(0.7, -0.5)",,,,,,,,,0,0,0,0,,,,,,,,,,,,,0,11,11,3,,,,,,,,,,,,,,,,,,,,,,,,,,,,,,,,,,686.092834199997,18,none,0,,,689.0996462999901,,,,,,,,,,,,,,,,,,,,,,24,C,2024-05-01_09h19.21.680,attentional_competition_task,2022.2.4,143.98806627541978,
positions.xlsx,positions_test.xlsx,positions_test_new.xlsx,stimuli.xlsx,stimuli_new.xlsx,stimuli/Social3.png,stimuli/Social4.png,stimuli/Nonsocial3.png,stimuli/Nonsocial4.png,stimuli/Social1.png,stimuli/Social2.png,stimuli/Nonsocial1.png,stimuli/Nonsocial2.png,cs_neg_s,"(-0.7, 0.5)",,,,,,,,,0,0,0,0,,,,,,,,,,,,,0,12,12,0,,,,,,,,,,,,,,,,,,,,,,,,,,,,,,,,,,697.3354454999935,18,none,0,,,700.3422518000007,,,,,,,,,,,,,,,,,,,,,,24,C,2024-05-01_09h19.21.680,attentional_competition_task,2022.2.4,143.98806627541978,
positions.xlsx,positions_test.xlsx,positions_test_new.xlsx,stimuli.xlsx,stimuli_new.xlsx,stimuli/Social3.png,stimuli/Social4.png,stimuli/Nonsocial3.png,stimuli/Nonsocial4.png,stimuli/Social1.png,stimuli/Social2.png,stimuli/Nonsocial1.png,stimuli/Nonsocial2.png,cs_pos_s,"(0.7, 0.5)",,,,,,,,,0,0,0,0,,,,,,,,,,,,,0,13,13,6,,,,,,,,,,,,,,,,,,,,,,,,,,,,,,,,,,707.8974956999882,21,reward,1,0.5699941000057152,0.569997800004785,708.4738858999917,,,,,,,,,,,,,,,,,,,,,,24,C,2024-05-01_09h19.21.680,attentional_competition_task,2022.2.4,143.98806627541978,
positions.xlsx,positions_test.xlsx,positions_test_new.xlsx,stimuli.xlsx,stimuli_new.xlsx,stimuli/Social3.png,stimuli/Social4.png,stimuli/Nonsocial3.png,stimuli/Nonsocial4.png,stimuli/Social1.png,stimuli/Social2.png,stimuli/Nonsocial1.png,stimuli/Nonsocial2.png,cs_pos_ns,"(0.7, 0.5)",,,,,,,,,0,0,0,0,,,,,,,,,,,,,0,14,14,14,,,,,,,,,,,,,,,,,,,,,,,,,,,,,,,,,,715.9527743999934,24,reward,1,2.444574900000589,2.444578399998136,718.4040467000013,,,,,,,,,,,,,,,,,,,,,,24,C,2024-05-01_09h19.21.680,attentional_competition_task,2022.2.4,143.98806627541978,
positions.xlsx,positions_test.xlsx,positions_test_new.xlsx,stimuli.xlsx,stimuli_new.xlsx,stimuli/Social3.png,stimuli/Social4.png,stimuli/Nonsocial3.png,stimuli/Nonsocial4.png,stimuli/Social1.png,stimuli/Social2.png,stimuli/Nonsocial1.png,stimuli/Nonsocial2.png,cs_neg_ns,"(0.7, -0.5)",,,,,,,,,0,0,0,0,,,,,,,,,,,,,0,15,15,11,,,,,,,,,,,,,,,,,,,,,,,,,,,,,,,,,,725.7162719999906,21,loss,1,0.9795179999928223,0.9795221999956993,726.7023304999893,,,,,,,,,,,,,,,,,,,,,,24,C,2024-05-01_09h19.21.680,attentional_competition_task,2022.2.4,143.98806627541978,
positions.xlsx,positions_test.xlsx,positions_test_new.xlsx,stimuli.xlsx,stimuli_new.xlsx,stimuli/Social3.png,stimuli/Social4.png,stimuli/Nonsocial3.png,stimuli/Nonsocial4.png,stimuli/Social1.png,stimuli/Social2.png,stimuli/Nonsocial1.png,stimuli/Nonsocial2.png,cs_neg_s,"(-0.7, -0.5)",,,,,,,,,0,0,0,0,,,,,,,,,,,,,1,0,16,1,,,,,,,,,,,,,,,,,,,,,,,,,,,,,,,,,,733.7090539999917,21,none,0,,,736.722763599988,,,,,,,,,,,,,,,,,,,,,,24,C,2024-05-01_09h19.21.680,attentional_competition_task,2022.2.4,143.98806627541978,
positions.xlsx,positions_test.xlsx,positions_test_new.xlsx,stimuli.xlsx,stimuli_new.xlsx,stimuli/Social3.png,stimuli/Social4.png,stimuli/Nonsocial3.png,stimuli/Nonsocial4.png,stimuli/Social1.png,stimuli/Social2.png,stimuli/Nonsocial1.png,stimuli/Nonsocial2.png,cs_pos_ns,"(0.7, 0.5)",,,,,,,,,0,0,0,0,,,,,,,,,,,,,1,1,17,14,,,,,,,,,,,,,,,,,,,,,,,,,,,,,,,,,,744.3682829999889,21,none,0,,,747.3820339999947,,,,,,,,,,,,,,,,,,,,,,24,C,2024-05-01_09h19.21.680,attentional_competition_task,2022.2.4,143.98806627541978,
positions.xlsx,positions_test.xlsx,positions_test_new.xlsx,stimuli.xlsx,stimuli_new.xlsx,stimuli/Social3.png,stimuli/Social4.png,stimuli/Nonsocial3.png,stimuli/Nonsocial4.png,stimuli/Social1.png,stimuli/Social2.png,stimuli/Nonsocial1.png,stimuli/Nonsocial2.png,cs_neg_ns,"(0.7, -0.5)",,,,,,,,,0,0,0,0,,,,,,,,,,,,,1,2,18,11,,,,,,,,,,,,,,,,,,,,,,,,,,,,,,,,,,754.4650882999995,18,loss,1,1.1599667999980738,1.1599703999963822,755.631755800001,,,,,,,,,,,,,,,,,,,,,,24,C,2024-05-01_09h19.21.680,attentional_competition_task,2022.2.4,143.98806627541978,
positions.xlsx,positions_test.xlsx,positions_test_new.xlsx,stimuli.xlsx,stimuli_new.xlsx,stimuli/Social3.png,stimuli/Social4.png,stimuli/Nonsocial3.png,stimuli/Nonsocial4.png,stimuli/Social1.png,stimuli/Social2.png,stimuli/Nonsocial1.png,stimuli/Nonsocial2.png,cs_neg_s,"(0.7, -0.5)",,,,,,,,,0,0,0,0,,,,,,,,,,,,,1,3,19,3,,,,,,,,,,,,,,,,,,,,,,,,,,,,,,,,,,763.1105992999946,18,none,0,,,766.1174610999878,,,,,,,,,,,,,,,,,,,,,,24,C,2024-05-01_09h19.21.680,attentional_competition_task,2022.2.4,143.98806627541978,
positions.xlsx,positions_test.xlsx,positions_test_new.xlsx,stimuli.xlsx,stimuli_new.xlsx,stimuli/Social3.png,stimuli/Social4.png,stimuli/Nonsocial3.png,stimuli/Nonsocial4.png,stimuli/Social1.png,stimuli/Social2.png,stimuli/Nonsocial1.png,stimuli/Nonsocial2.png,cs_pos_ns,"(-0.7, 0.5)",,,,,,,,,0,0,0,0,,,,,,,,,,,,,1,4,20,12,,,,,,,,,,,,,,,,,,,,,,,,,,,,,,,,,,773.492144399992,18,none,0,,,776.5058661999938,,,,,,,,,,,,,,,,,,,,,,24,C,2024-05-01_09h19.21.680,attentional_competition_task,2022.2.4,143.98806627541978,
positions.xlsx,positions_test.xlsx,positions_test_new.xlsx,stimuli.xlsx,stimuli_new.xlsx,stimuli/Social3.png,stimuli/Social4.png,stimuli/Nonsocial3.png,stimuli/Nonsocial4.png,stimuli/Social1.png,stimuli/Social2.png,stimuli/Nonsocial1.png,stimuli/Nonsocial2.png,cs_pos_s,"(0.7, -0.5)",,,,,,,,,0,0,0,0,,,,,,,,,,,,,1,5,21,7,,,,,,,,,,,,,,,,,,,,,,,,,,,,,,,,,,783.8459187999979,21,reward,1,0.6319393000012496,0.6319430000003194,784.4847771999921,,,,,,,,,,,,,,,,,,,,,,24,C,2024-05-01_09h19.21.680,attentional_competition_task,2022.2.4,143.98806627541978,
positions.xlsx,positions_test.xlsx,positions_test_new.xlsx,stimuli.xlsx,stimuli_new.xlsx,stimuli/Social3.png,stimuli/Social4.png,stimuli/Nonsocial3.png,stimuli/Nonsocial4.png,stimuli/Social1.png,stimuli/Social2.png,stimuli/Nonsocial1.png,stimuli/Nonsocial2.png,cs_pos_ns,"(0.7, -0.5)",,,,,,,,,0,0,0,0,,,,,,,,,,,,,1,6,22,15,,,,,,,,,,,,,,,,,,,,,,,,,,,,,,,,,,792.0538526000018,21,none,0,,,795.0676470999897,,,,,,,,,,,,,,,,,,,,,,24,C,2024-05-01_09h19.21.680,attentional_competition_task,2022.2.4,143.98806627541978,
positions.xlsx,positions_test.xlsx,positions_test_new.xlsx,stimuli.xlsx,stimuli_new.xlsx,stimuli/Social3.png,stimuli/Social4.png,stimuli/Nonsocial3.png,stimuli/Nonsocial4.png,stimuli/Social1.png,stimuli/Social2.png,stimuli/Nonsocial1.png,stimuli/Nonsocial2.png,cs_pos_ns,"(-0.7, -0.5)",,,,,,,,,0,0,0,0,,,,,,,,,,,,,1,7,23,13,,,,,,,,,,,,,,,,,,,,,,,,,,,,,,,,,,802.0673826999991,21,none,0,,,805.0811160000012,,,,,,,,,,,,,,,,,,,,,,24,C,2024-05-01_09h19.21.680,attentional_competition_task,2022.2.4,143.98806627541978,
positions.xlsx,positions_test.xlsx,positions_test_new.xlsx,stimuli.xlsx,stimuli_new.xlsx,stimuli/Social3.png,stimuli/Social4.png,stimuli/Nonsocial3.png,stimuli/Nonsocial4.png,stimuli/Social1.png,stimuli/Social2.png,stimuli/Nonsocial1.png,stimuli/Nonsocial2.png,cs_pos_s,"(-0.7, -0.5)",,,,,,,,,0,0,0,0,,,,,,,,,,,,,1,8,24,5,,,,,,,,,,,,,,,,,,,,,,,,,,,,,,,,,,813.0391756999888,24,reward,1,0.4583050999935949,0.45830889999342617,813.5044583999988,,,,,,,,,,,,,,,,,,,,,,24,C,2024-05-01_09h19.21.680,attentional_competition_task,2022.2.4,143.98806627541978,
positions.xlsx,positions_test.xlsx,positions_test_new.xlsx,stimuli.xlsx,stimuli_new.xlsx,stimuli/Social3.png,stimuli/Social4.png,stimuli/Nonsocial3.png,stimuli/Nonsocial4.png,stimuli/Social1.png,stimuli/Social2.png,stimuli/Nonsocial1.png,stimuli/Nonsocial2.png,cs_neg_ns,"(-0.7, -0.5)",,,,,,,,,0,0,0,0,,,,,,,,,,,,,1,9,25,9,,,,,,,,,,,,,,,,,,,,,,,,,,,,,,,,,,820.9693867999886,24,none,0,,,823.9831785999995,,,,,,,,,,,,,,,,,,,,,,24,C,2024-05-01_09h19.21.680,attentional_competition_task,2022.2.4,143.98806627541978,
positions.xlsx,positions_test.xlsx,positions_test_new.xlsx,stimuli.xlsx,stimuli_new.xlsx,stimuli/Social3.png,stimuli/Social4.png,stimuli/Nonsocial3.png,stimuli/Nonsocial4.png,stimuli/Social1.png,stimuli/Social2.png,stimuli/Nonsocial1.png,stimuli/Nonsocial2.png,cs_neg_s,"(-0.7, 0.5)",,,,,,,,,0,0,0,0,,,,,,,,,,,,,1,10,26,0,,,,,,,,,,,,,,,,,,,,,,,,,,,,,,,,,,831.2467809999944,24,none,0,,,834.2535803999926,,,,,,,,,,,,,,,,,,,,,,24,C,2024-05-01_09h19.21.680,attentional_competition_task,2022.2.4,143.98806627541978,
positions.xlsx,positions_test.xlsx,positions_test_new.xlsx,stimuli.xlsx,stimuli_new.xlsx,stimuli/Social3.png,stimuli/Social4.png,stimuli/Nonsocial3.png,stimuli/Nonsocial4.png,stimuli/Social1.png,stimuli/Social2.png,stimuli/Nonsocial1.png,stimuli/Nonsocial2.png,cs_neg_s,"(0.7, 0.5)",,,,,,,,,0,0,0,0,,,,,,,,,,,,,1,11,27,2,,,,,,,,,,,,,,,,,,,,,,,,,,,,,,,,,,841.9754998999997,24,none,0,,,844.9823243999999,,,,,,,,,,,,,,,,,,,,,,24,C,2024-05-01_09h19.21.680,attentional_competition_task,2022.2.4,143.98806627541978,
positions.xlsx,positions_test.xlsx,positions_test_new.xlsx,stimuli.xlsx,stimuli_new.xlsx,stimuli/Social3.png,stimuli/Social4.png,stimuli/Nonsocial3.png,stimuli/Nonsocial4.png,stimuli/Social1.png,stimuli/Social2.png,stimuli/Nonsocial1.png,stimuli/Nonsocial2.png,cs_pos_s,"(-0.7, 0.5)",,,,,,,,,0,0,0,0,,,,,,,,,,,,,1,12,28,4,,,,,,,,,,,,,,,,,,,,,,,,,,,,,,,,,,852.26676459999,27,reward,1,0.5210078999953112,0.5210117999959039,852.7945074000017,,,,,,,,,,,,,,,,,,,,,,24,C,2024-05-01_09h19.21.680,attentional_competition_task,2022.2.4,143.98806627541978,
positions.xlsx,positions_test.xlsx,positions_test_new.xlsx,stimuli.xlsx,stimuli_new.xlsx,stimuli/Social3.png,stimuli/Social4.png,stimuli/Nonsocial3.png,stimuli/Nonsocial4.png,stimuli/Social1.png,stimuli/Social2.png,stimuli/Nonsocial1.png,stimuli/Nonsocial2.png,cs_neg_ns,"(-0.7, 0.5)",,,,,,,,,0,0,0,0,,,,,,,,,,,,,1,13,29,8,,,,,,,,,,,,,,,,,,,,,,,,,,,,,,,,,,859.919213599991,27,none,0,,,862.9330117999925,,,,,,,,,,,,,,,,,,,,,,24,C,2024-05-01_09h19.21.680,attentional_competition_task,2022.2.4,143.98806627541978,
positions.xlsx,positions_test.xlsx,positions_test_new.xlsx,stimuli.xlsx,stimuli_new.xlsx,stimuli/Social3.png,stimuli/Social4.png,stimuli/Nonsocial3.png,stimuli/Nonsocial4.png,stimuli/Social1.png,stimuli/Social2.png,stimuli/Nonsocial1.png,stimuli/Nonsocial2.png,cs_neg_ns,"(0.7, 0.5)",,,,,,,,,0,0,0,0,,,,,,,,,,,,,1,14,30,10,,,,,,,,,,,,,,,,,,,,,,,,,,,,,,,,,,870.3354455999943,27,none,0,,,873.342333499997,,,,,,,,,,,,,,,,,,,,,,24,C,2024-05-01_09h19.21.680,attentional_competition_task,2022.2.4,143.98806627541978,
positions.xlsx,positions_test.xlsx,positions_test_new.xlsx,stimuli.xlsx,stimuli_new.xlsx,stimuli/Social3.png,stimuli/Social4.png,stimuli/Nonsocial3.png,stimuli/Nonsocial4.png,stimuli/Social1.png,stimuli/Social2.png,stimuli/Nonsocial1.png,stimuli/Nonsocial2.png,cs_pos_s,"(0.7, 0.5)",,,,,,,,,0,0,0,0,,,,,,,,,,,,,1,15,31,6,,,,,,,,,,,,,,,,,,,,,,,,,,,,,,,,,,881.4600108999875,30,reward,1,0.4656880000111414,0.46569160000944976,881.9322643999913,,,,,,,,,,,,,,,,,,,,,,24,C,2024-05-01_09h19.21.680,attentional_competition_task,2022.2.4,143.98806627541978,
positions.xlsx,positions_test.xlsx,positions_test_new.xlsx,stimuli.xlsx,stimuli_new.xlsx,stimuli/Social3.png,stimuli/Social4.png,stimuli/Nonsocial3.png,stimuli/Nonsocial4.png,stimuli/Social1.png,stimuli/Social2.png,stimuli/Nonsocial1.png,stimuli/Nonsocial2.png,cs_neg_s,,,,,,,,,,0,0,0,0,,,,,,,,,,,,,,,,,0,0,0,0,,,,,,,,,,,,,,,,,,,,,,,886.5224357999978,3.0,6.678973199988832,,,,,,,,,,,,,,,,,,,,,,,,,,,,,,,,,24,C,2024-05-01_09h19.21.680,attentional_competition_task,2022.2.4,143.98806627541978,
positions.xlsx,positions_test.xlsx,positions_test_new.xlsx,stimuli.xlsx,stimuli_new.xlsx,stimuli/Social3.png,stimuli/Social4.png,stimuli/Nonsocial3.png,stimuli/Nonsocial4.png,stimuli/Social1.png,stimuli/Social2.png,stimuli/Nonsocial1.png,stimuli/Nonsocial2.png,cs_pos_s,,,,,,,,,,0,0,0,0,,,,,,,,,,,,,,,,,0,1,1,2,,,,,,,,,,,,,,,,,,,,,,,896.8691356999916,10.0,6.438835299995844,,,,,,,,,,,,,,,,,,,,,,,,,,,,,,,,,24,C,2024-05-01_09h19.21.680,attentional_competition_task,2022.2.4,143.98806627541978,
positions.xlsx,positions_test.xlsx,positions_test_new.xlsx,stimuli.xlsx,stimuli_new.xlsx,stimuli/Social3.png,stimuli/Social4.png,stimuli/Nonsocial3.png,stimuli/Nonsocial4.png,stimuli/Social1.png,stimuli/Social2.png,stimuli/Nonsocial1.png,stimuli/Nonsocial2.png,cs_pos_ns,,,,,,,,,,0,0,0,0,,,,,,,,,,,,,,,,,0,2,2,3,,,,,,,,,,,,,,,,,,,,,,,903.6258347999974,3.0,5.445260799999232,,,,,,,,,,,,,,,,,,,,,,,,,,,,,,,,,24,C,2024-05-01_09h19.21.680,attentional_competition_task,2022.2.4,143.98806627541978,
positions.xlsx,positions_test.xlsx,positions_test_new.xlsx,stimuli.xlsx,stimuli_new.xlsx,stimuli/Social3.png,stimuli/Social4.png,stimuli/Nonsocial3.png,stimuli/Nonsocial4.png,stimuli/Social1.png,stimuli/Social2.png,stimuli/Nonsocial1.png,stimuli/Nonsocial2.png,cs_neg_ns,,,,,,,,,,0,0,0,0,,,,,,,,,,,,,,,,,0,3,3,1,,,,,,,,,,,,,,,,,,,,,,,912.4518590999942,4.0,4.042844299998251,,,,,,,,,,,,,,,,,,,,,,,,,,,,,,,,,24,C,2024-05-01_09h19.21.680,attentional_competition_task,2022.2.4,143.98806627541978,
positions.xlsx,positions_test.xlsx,positions_test_new.xlsx,stimuli.xlsx,stimuli_new.xlsx,stimuli/Social3.png,stimuli/Social4.png,stimuli/Nonsocial3.png,stimuli/Nonsocial4.png,stimuli/Social1.png,stimuli/Social2.png,stimuli/Nonsocial1.png,stimuli/Nonsocial2.png,,,"(-0.7, -0.5)",cs_pos_s,"(-0.7, 0.5)",cs_neg_ns,"(0.7, -0.5)",cs_pos_ns,"(0.7, 0.5)",cs_neg_s,0,0,0,0,,,,,,,,,,,,,,,,,,,,,0,0,0,9,,,,,,,,,,,,,,,,,,,,,,,,,,,33,reward,,,,,917.7641537000018,927.1040770999971,927.1040770999971,927.1040770999971,927.1040770999971,0,,,0,,,1,0.22533099999418482,0.22533499999553896,0,,,927.3193323999876,927.3193323999876,927.3193323999876,927.3193323999876,24,C,2024-05-01_09h19.21.680,attentional_competition_task,2022.2.4,143.98806627541978,
positions.xlsx,positions_test.xlsx,positions_test_new.xlsx,stimuli.xlsx,stimuli_new.xlsx,stimuli/Social3.png,stimuli/Social4.png,stimuli/Nonsocial3.png,stimuli/Nonsocial4.png,stimuli/Social1.png,stimuli/Social2.png,stimuli/Nonsocial1.png,stimuli/Nonsocial2.png,,,"(-0.7, -0.5)",cs_neg_s,"(-0.7, 0.5)",cs_neg_ns,"(0.7, -0.5)",cs_pos_s,"(0.7, 0.5)",cs_pos_ns,0,0,0,0,,,,,,,,,,,,,,,,,,,,,0,1,1,2,,,,,,,,,,,,,,,,,,,,,,,,,,,30,reward,,,,,,935.7565143999964,935.7565143999964,935.7565143999964,935.7565143999964,0,,,0,,,0,,,1,0.02512969999224879,0.02513379999436438,935.7565143999964,935.7565143999964,935.7565143999964,935.7565143999964,24,C,2024-05-01_09h19.21.680,attentional_competition_task,2022.2.4,143.98806627541978,
positions.xlsx,positions_test.xlsx,positions_test_new.xlsx,stimuli.xlsx,stimuli_new.xlsx,stimuli/Social3.png,stimuli/Social4.png,stimuli/Nonsocial3.png,stimuli/Nonsocial4.png,stimuli/Social1.png,stimuli/Social2.png,stimuli/Nonsocial1.png,stimuli/Nonsocial2.png,,,"(-0.7, -0.5)",cs_neg_ns,"(-0.7, 0.5)",cs_pos_ns,"(0.7, -0.5)",cs_pos_s,"(0.7, 0.5)",cs_neg_s,0,0,0,0,,,,,,,,,,,,,,,,,,,,,0,2,2,16,,,,,,,,,,,,,,,,,,,,,,,,,,,30,loss,,,,,,943.0201552999933,943.0201552999933,943.0201552999933,943.0201552999933,1,0.9117420999973547,0.9186549000005471,0,,,1,0.029148000001441687,0.7386468999902718,0,,,943.9367400999909,943.9367400999909,943.9367400999909,943.9367400999909,24,C,2024-05-01_09h19.21.680,attentional_competition_task,2022.2.4,143.98806627541978,
positions.xlsx,positions_test.xlsx,positions_test_new.xlsx,stimuli.xlsx,stimuli_new.xlsx,stimuli/Social3.png,stimuli/Social4.png,stimuli/Nonsocial3.png,stimuli/Nonsocial4.png,stimuli/Social1.png,stimuli/Social2.png,stimuli/Nonsocial1.png,stimuli/Nonsocial2.png,,,"(-0.7, -0.5)",cs_pos_ns,"(-0.7, 0.5)",cs_neg_s,"(0.7, -0.5)",cs_neg_ns,"(0.7, 0.5)",cs_pos_s,0,0,0,0,,,,,,,,,,,,,,,,,,,,,0,3,3,23,,,,,,,,,,,,,,,,,,,,,,,,,,,27,loss,,,,,,952.3253059999988,952.3253059999988,952.3253059999988,952.3253059999988,0,,,0,,,1,0.025210499996319413,0.2966765999881318,1,0.31745769998815376,0.47019939999154303,953.3044393000018,953.3044393000018,953.3044393000018,953.3044393000018,24,C,2024-05-01_09h19.21.680,attentional_competition_task,2022.2.4,143.98806627541978,
positions.xlsx,positions_test.xlsx,positions_test_new.xlsx,stimuli.xlsx,stimuli_new.xlsx,stimuli/Social3.png,stimuli/Social4.png,stimuli/Nonsocial3.png,stimuli/Nonsocial4.png,stimuli/Social1.png,stimuli/Social2.png,stimuli/Nonsocial1.png,stimuli/Nonsocial2.png,,,"(-0.7, -0.5)",cs_neg_ns,"(-0.7, 0.5)",cs_pos_s,"(0.7, -0.5)",cs_neg_s,"(0.7, 0.5)",cs_pos_ns,0,0,0,0,,,,,,,,,,,,,,,,,,,,,0,4,4,12,,,,,,,,,,,,,,,,,,,,,,,,,,,24,loss,,,,,,960.0749777999881,960.0749777999881,960.0749777999881,960.0749777999881,1,1.904592799997772,1.9115810000075726,0,,,0,,,0,,,961.991546499994,961.991546499994,961.991546499994,961.991546499994,24,C,2024-05-01_09h19.21.680,attentional_competition_task,2022.2.4,143.98806627541978,
positions.xlsx,positions_test.xlsx,positions_test_new.xlsx,stimuli.xlsx,stimuli_new.xlsx,stimuli/Social3.png,stimuli/Social4.png,stimuli/Nonsocial3.png,stimuli/Nonsocial4.png,stimuli/Social1.png,stimuli/Social2.png,stimuli/Nonsocial1.png,stimuli/Nonsocial2.png,,,"(-0.7, -0.5)",cs_neg_s,"(-0.7, 0.5)",cs_neg_ns,"(0.7, -0.5)",cs_pos_ns,"(0.7, 0.5)",cs_pos_s,0,0,0,0,,,,,,,,,,,,,,,,,,,,,0,5,5,3,,,,,,,,,,,,,,,,,,,,,,,,,,,33,reward,,,,,,970.8106712000008,970.8106712000008,970.8106712000008,970.8106712000008,0,,,0,,,1,0.0304108999989694,0.4186578999942867,0,,,971.7273060000007,971.7273060000007,971.7273060000007,971.7273060000007,24,C,2024-05-01_09h19.21.680,attentional_competition_task,2022.2.4,143.98806627541978,
positions.xlsx,positions_test.xlsx,positions_test_new.xlsx,stimuli.xlsx,stimuli_new.xlsx,stimuli/Social3.png,stimuli/Social4.png,stimuli/Nonsocial3.png,stimuli/Nonsocial4.png,stimuli/Social1.png,stimuli/Social2.png,stimuli/Nonsocial1.png,stimuli/Nonsocial2.png,,,"(-0.7, -0.5)",cs_pos_ns,"(-0.7, 0.5)",cs_pos_s,"(0.7, -0.5)",cs_neg_s,"(0.7, 0.5)",cs_neg_ns,0,0,0,0,,,,,,,,,,,,,,,,,,,,,0,6,6,19,,,,,,,,,,,,,,,,,,,,,,,,,,,36,reward,,,,,,977.7687403000018,977.7687403000018,977.7687403000018,977.7687403000018,0,,,0,,,0,,,0,,,980.2755762999877,980.2755762999877,980.2755762999877,980.2755762999877,24,C,2024-05-01_09h19.21.680,attentional_competition_task,2022.2.4,143.98806627541978,
positions.xlsx,positions_test.xlsx,positions_test_new.xlsx,stimuli.xlsx,stimuli_new.xlsx,stimuli/Social3.png,stimuli/Social4.png,stimuli/Nonsocial3.png,stimuli/Nonsocial4.png,stimuli/Social1.png,stimuli/Social2.png,stimuli/Nonsocial1.png,stimuli/Nonsocial2.png,,,"(-0.7, -0.5)",cs_neg_ns,"(-0.7, 0.5)",cs_neg_s,"(0.7, -0.5)",cs_pos_ns,"(0.7, 0.5)",cs_pos_s,0,0,0,0,,,,,,,,,,,,,,,,,,,,,0,7,7,15,,,,,,,,,,,,,,,,,,,,,,,,,,,42,reward,,,,,,987.1641871999891,987.1641871999891,987.1641871999891,987.1641871999891,0,,,0,,,1,0.6770477999962168,0.6833504000096582,1,0.029111900003044866,0.6697952999966219,987.851670899996,987.851670899996,987.851670899996,987.851670899996,24,C,2024-05-01_09h19.21.680,attentional_competition_task,2022.2.4,143.98806627541978,
positions.xlsx,positions_test.xlsx,positions_test_new.xlsx,stimuli.xlsx,stimuli_new.xlsx,stimuli/Social3.png,stimuli/Social4.png,stimuli/Nonsocial3.png,stimuli/Nonsocial4.png,stimuli/Social1.png,stimuli/Social2.png,stimuli/Nonsocial1.png,stimuli/Nonsocial2.png,,,"(-0.7, -0.5)",cs_pos_s,"(-0.7, 0.5)",cs_neg_s,"(0.7, -0.5)",cs_neg_ns,"(0.7, 0.5)",cs_pos_ns,0,0,0,0,,,,,,,,,,,,,,,,,,,,,0,8,8,6,,,,,,,,,,,,,,,,,,,,,,,,,,,42,reward,,,,,,996.4624566999992,996.4624566999992,996.4624566999992,996.4624566999992,1,0.19699330000730697,0.19699759999639355,0,,,0,,,0,,,996.6568661999918,996.6568661999918,996.6568661999918,996.6568661999918,24,C,2024-05-01_09h19.21.680,attentional_competition_task,2022.2.4,143.98806627541978,
positions.xlsx,positions_test.xlsx,positions_test_new.xlsx,stimuli.xlsx,stimuli_new.xlsx,stimuli/Social3.png,stimuli/Social4.png,stimuli/Nonsocial3.png,stimuli/Nonsocial4.png,stimuli/Social1.png,stimuli/Social2.png,stimuli/Nonsocial1.png,stimuli/Nonsocial2.png,,,"(-0.7, -0.5)",cs_neg_ns,"(-0.7, 0.5)",cs_neg_s,"(0.7, -0.5)",cs_pos_s,"(0.7, 0.5)",cs_pos_ns,0,0,0,0,,,,,,,,,,,,,,,,,,,,,0,9,9,14,,,,,,,,,,,,,,,,,,,,,,,,,,,48,reward,,,,,,1004.2468306999945,1004.2468306999945,1004.2468306999945,1004.2468306999945,0,,,0,,,1,0.028715799999190494,0.3698758000100497,1,0.3835825999994995,0.3835860999970464,1004.6288061999949,1004.6288061999949,1004.6288061999949,1004.6288061999949,24,C,2024-05-01_09h19.21.680,attentional_competition_task,2022.2.4,143.98806627541978,
positions.xlsx,positions_test.xlsx,positions_test_new.xlsx,stimuli.xlsx,stimuli_new.xlsx,stimuli/Social3.png,stimuli/Social4.png,stimuli/Nonsocial3.png,stimuli/Nonsocial4.png,stimuli/Social1.png,stimuli/Social2.png,stimuli/Nonsocial1.png,stimuli/Nonsocial2.png,,,"(-0.7, -0.5)",cs_neg_ns,"(-0.7, 0.5)",cs_pos_ns,"(0.7, -0.5)",cs_neg_s,"(0.7, 0.5)",cs_pos_s,0,0,0,0,,,,,,,,,,,,,,,,,,,,,0,10,10,17,,,,,,,,,,,,,,,,,,,,,,,,,,,57,reward,,,,,,1013.8992343999998,1013.8992343999998,1013.8992343999998,1013.8992343999998,0,,,0,,,0,,,1,0.024836600001435727,0.06619129999307916,1014.4686593999941,1014.4686593999941,1014.4686593999941,1014.4686593999941,24,C,2024-05-01_09h19.21.680,attentional_competition_task,2022.2.4,143.98806627541978,
positions.xlsx,positions_test.xlsx,positions_test_new.xlsx,stimuli.xlsx,stimuli_new.xlsx,stimuli/Social3.png,stimuli/Social4.png,stimuli/Nonsocial3.png,stimuli/Nonsocial4.png,stimuli/Social1.png,stimuli/Social2.png,stimuli/Nonsocial1.png,stimuli/Nonsocial2.png,,,"(-0.7, -0.5)",cs_neg_ns,"(-0.7, 0.5)",cs_pos_s,"(0.7, -0.5)",cs_pos_ns,"(0.7, 0.5)",cs_neg_s,0,0,0,0,,,,,,,,,,,,,,,,,,,,,0,11,11,13,,,,,,,,,,,,,,,,,,,,,,,,,,,66,reward,,,,,,1022.4822369999893,1022.4822369999893,1022.4822369999893,1022.4822369999893,0,,,1,0.027566699995077215,0.09133280000241939,0,,,0,,,1023.1696996999963,1023.1696996999963,1023.1696996999963,1023.1696996999963,24,C,2024-05-01_09h19.21.680,attentional_competition_task,2022.2.4,143.98806627541978,
positions.xlsx,positions_test.xlsx,positions_test_new.xlsx,stimuli.xlsx,stimuli_new.xlsx,stimuli/Social3.png,stimuli/Social4.png,stimuli/Nonsocial3.png,stimuli/Nonsocial4.png,stimuli/Social1.png,stimuli/Social2.png,stimuli/Nonsocial1.png,stimuli/Nonsocial2.png,,,"(-0.7, -0.5)",cs_pos_ns,"(-0.7, 0.5)",cs_neg_ns,"(0.7, -0.5)",cs_neg_s,"(0.7, 0.5)",cs_pos_s,0,0,0,0,,,,,,,,,,,,,,,,,,,,,0,12,12,21,,,,,,,,,,,,,,,,,,,,,,,,,,,75,reward,,,,,,1031.0930242999893,1031.0930242999893,1031.0930242999893,1031.0930242999893,0,,,0,,,0,,,1,0.0259129999903962,0.2395908999897074,1031.8776881999947,1031.8776881999947,1031.8776881999947,1031.8776881999947,24,C,2024-05-01_09h19.21.680,attentional_competition_task,2022.2.4,143.98806627541978,
positions.xlsx,positions_test.xlsx,positions_test_new.xlsx,stimuli.xlsx,stimuli_new.xlsx,stimuli/Social3.png,stimuli/Social4.png,stimuli/Nonsocial3.png,stimuli/Nonsocial4.png,stimuli/Social1.png,stimuli/Social2.png,stimuli/Nonsocial1.png,stimuli/Nonsocial2.png,,,"(-0.7, -0.5)",cs_neg_s,"(-0.7, 0.5)",cs_pos_s,"(0.7, -0.5)",cs_pos_ns,"(0.7, 0.5)",cs_neg_ns,0,0,0,0,,,,,,,,,,,,,,,,,,,,,0,13,13,1,,,,,,,,,,,,,,,,,,,,,,,,,,,78,reward,,,,,,1039.335739599992,1039.335739599992,1039.335739599992,1039.335739599992,0,,,1,0.029920100001618266,0.02992390000144951,0,,,0,,,1039.335739599992,1039.335739599992,1039.335739599992,1039.335739599992,24,C,2024-05-01_09h19.21.680,attentional_competition_task,2022.2.4,143.98806627541978,
positions.xlsx,positions_test.xlsx,positions_test_new.xlsx,stimuli.xlsx,stimuli_new.xlsx,stimuli/Social3.png,stimuli/Social4.png,stimuli/Nonsocial3.png,stimuli/Nonsocial4.png,stimuli/Social1.png,stimuli/Social2.png,stimuli/Nonsocial1.png,stimuli/Nonsocial2.png,,,"(-0.7, -0.5)",cs_pos_s,"(-0.7, 0.5)",cs_neg_ns,"(0.7, -0.5)",cs_neg_s,"(0.7, 0.5)",cs_pos_ns,0,0,0,0,,,,,,,,,,,,,,,,,,,,,0,14,14,8,,,,,,,,,,,,,,,,,,,,,,,,,,,87,reward,,,,,,1048.467260599995,1048.467260599995,1048.467260599995,1048.467260599995,1,0.022003500009304844,0.21875210000143852,0,,,0,,,0,,,1049.1964388999913,1049.1964388999913,1049.1964388999913,1049.1964388999913,24,C,2024-05-01_09h19.21.680,attentional_competition_task,2022.2.4,143.98806627541978,
positions.xlsx,positions_test.xlsx,positions_test_new.xlsx,stimuli.xlsx,stimuli_new.xlsx,stimuli/Social3.png,stimuli/Social4.png,stimuli/Nonsocial3.png,stimuli/Nonsocial4.png,stimuli/Social1.png,stimuli/Social2.png,stimuli/Nonsocial1.png,stimuli/Nonsocial2.png,,,"(-0.7, -0.5)",cs_pos_s,"(-0.7, 0.5)",cs_pos_ns,"(0.7, -0.5)",cs_neg_s,"(0.7, 0.5)",cs_neg_ns,0,0,0,0,,,,,,,,,,,,,,,,,,,,,0,15,15,10,,,,,,,,,,,,,,,,,,,,,,,,,,,96,reward,,,,,,1057.300353899991,1057.300353899991,1057.300353899991,1057.300353899991,1,0.02841120000812225,0.09195490001002327,1,0.10606630000984296,0.21005049999803305,0,,,0,,,1058.0085861999978,1058.0085861999978,1058.0085861999978,1058.0085861999978,24,C,2024-05-01_09h19.21.680,attentional_competition_task,2022.2.4,143.98806627541978,
positions.xlsx,positions_test.xlsx,positions_test_new.xlsx,stimuli.xlsx,stimuli_new.xlsx,stimuli/Social3.png,stimuli/Social4.png,stimuli/Nonsocial3.png,stimuli/Nonsocial4.png,stimuli/Social1.png,stimuli/Social2.png,stimuli/Nonsocial1.png,stimuli/Nonsocial2.png,,,"(-0.7, -0.5)",cs_pos_s,"(-0.7, 0.5)",cs_pos_ns,"(0.7, -0.5)",cs_neg_ns,"(0.7, 0.5)",cs_neg_s,0,0,0,0,,,,,,,,,,,,,,,,,,,,,0,16,16,11,,,,,,,,,,,,,,,,,,,,,,,,,,,99,loss,,,,,,1065.3068962999969,1065.3068962999969,1065.3068962999969,1065.3068962999969,0,,,1,0.027930199998081662,0.11369650000415277,1,0.3561446999956388,0.3561482000077376,0,,,1066.1680097999924,1066.1680097999924,1066.1680097999924,1066.1680097999924,24,C,2024-05-01_09h19.21.680,attentional_competition_task,2022.2.4,143.98806627541978,
positions.xlsx,positions_test.xlsx,positions_test_new.xlsx,stimuli.xlsx,stimuli_new.xlsx,stimuli/Social3.png,stimuli/Social4.png,stimuli/Nonsocial3.png,stimuli/Nonsocial4.png,stimuli/Social1.png,stimuli/Social2.png,stimuli/Nonsocial1.png,stimuli/Nonsocial2.png,,,"(-0.7, -0.5)",cs_pos_ns,"(-0.7, 0.5)",cs_neg_ns,"(0.7, -0.5)",cs_pos_s,"(0.7, 0.5)",cs_neg_s,0,0,0,0,,,,,,,,,,,,,,,,,,,,,0,17,17,20,,,,,,,,,,,,,,,,,,,,,,,,,,,108,reward,,,,,,1074.2440492999885,1074.2440492999885,1074.2440492999885,1074.2440492999885,0,,,0,,,0,,,0,,,1075.2787309999985,1075.2787309999985,1075.2787309999985,1075.2787309999985,24,C,2024-05-01_09h19.21.680,attentional_competition_task,2022.2.4,143.98806627541978,
positions.xlsx,positions_test.xlsx,positions_test_new.xlsx,stimuli.xlsx,stimuli_new.xlsx,stimuli/Social3.png,stimuli/Social4.png,stimuli/Nonsocial3.png,stimuli/Nonsocial4.png,stimuli/Social1.png,stimuli/Social2.png,stimuli/Nonsocial1.png,stimuli/Nonsocial2.png,,,"(-0.7, -0.5)",cs_pos_ns,"(-0.7, 0.5)",cs_neg_s,"(0.7, -0.5)",cs_pos_s,"(0.7, 0.5)",cs_neg_ns,0,0,0,0,,,,,,,,,,,,,,,,,,,,,0,18,18,22,,,,,,,,,,,,,,,,,,,,,,,,,,,114,reward,,,,,,1082.6395965999982,1082.6395965999982,1082.6395965999982,1082.6395965999982,1,0.40569750001304783,0.4057013000128791,0,,,1,0.030306700005894527,0.12099890000536107,0,,,1083.0492512999917,1083.0492512999917,1083.0492512999917,1083.0492512999917,24,C,2024-05-01_09h19.21.680,attentional_competition_task,2022.2.4,143.98806627541978,
positions.xlsx,positions_test.xlsx,positions_test_new.xlsx,stimuli.xlsx,stimuli_new.xlsx,stimuli/Social3.png,stimuli/Social4.png,stimuli/Nonsocial3.png,stimuli/Nonsocial4.png,stimuli/Social1.png,stimuli/Social2.png,stimuli/Nonsocial1.png,stimuli/Nonsocial2.png,,,"(-0.7, -0.5)",cs_neg_s,"(-0.7, 0.5)",cs_pos_ns,"(0.7, -0.5)",cs_pos_s,"(0.7, 0.5)",cs_neg_ns,0,0,0,0,,,,,,,,,,,,,,,,,,,,,0,19,19,4,,,,,,,,,,,,,,,,,,,,,,,,,,,111,loss,,,,,,1091.1808668999874,1091.1808668999874,1091.1808668999874,1091.1808668999874,0,,,0,,,0,,,1,0.025344400011817925,0.21240689999831375,1092.0627793999884,1092.0627793999884,1092.0627793999884,1092.0627793999884,24,C,2024-05-01_09h19.21.680,attentional_competition_task,2022.2.4,143.98806627541978,
positions.xlsx,positions_test.xlsx,positions_test_new.xlsx,stimuli.xlsx,stimuli_new.xlsx,stimuli/Social3.png,stimuli/Social4.png,stimuli/Nonsocial3.png,stimuli/Nonsocial4.png,stimuli/Social1.png,stimuli/Social2.png,stimuli/Nonsocial1.png,stimuli/Nonsocial2.png,,,"(-0.7, -0.5)",cs_neg_s,"(-0.7, 0.5)",cs_pos_ns,"(0.7, -0.5)",cs_neg_ns,"(0.7, 0.5)",cs_pos_s,0,0,0,0,,,,,,,,,,,,,,,,,,,,,0,20,20,5,,,,,,,,,,,,,,,,,,,,,,,,,,,114,reward,,,,,,1099.013930199988,1099.013930199988,1099.013930199988,1099.013930199988,0,,,0,,,0,,,0,,,1100.0069062999974,1100.0069062999974,1100.0069062999974,1100.0069062999974,24,C,2024-05-01_09h19.21.680,attentional_competition_task,2022.2.4,143.98806627541978,
positions.xlsx,positions_test.xlsx,positions_test_new.xlsx,stimuli.xlsx,stimuli_new.xlsx,stimuli/Social3.png,stimuli/Social4.png,stimuli/Nonsocial3.png,stimuli/Nonsocial4.png,stimuli/Social1.png,stimuli/Social2.png,stimuli/Nonsocial1.png,stimuli/Nonsocial2.png,,,"(-0.7, -0.5)",cs_neg_s,"(-0.7, 0.5)",cs_pos_s,"(0.7, -0.5)",cs_neg_ns,"(0.7, 0.5)",cs_pos_ns,0,0,0,0,,,,,,,,,,,,,,,,,,,,,0,21,21,0,,,,,,,,,,,,,,,,,,,,,,,,,,,120,reward,,,,,,1106.395551900001,1106.395551900001,1106.395551900001,1106.395551900001,0,,,1,0.029424000007566065,0.5508967000059783,0,,,1,0.6277588999946602,0.6277627999952529,1107.02747239999,1107.02747239999,1107.02747239999,1107.02747239999,24,C,2024-05-01_09h19.21.680,attentional_competition_task,2022.2.4,143.98806627541978,
positions.xlsx,positions_test.xlsx,positions_test_new.xlsx,stimuli.xlsx,stimuli_new.xlsx,stimuli/Social3.png,stimuli/Social4.png,stimuli/Nonsocial3.png,stimuli/Nonsocial4.png,stimuli/Social1.png,stimuli/Social2.png,stimuli/Nonsocial1.png,stimuli/Nonsocial2.png,,,"(-0.7, -0.5)",cs_pos_ns,"(-0.7, 0.5)",cs_pos_s,"(0.7, -0.5)",cs_neg_ns,"(0.7, 0.5)",cs_neg_s,0,0,0,0,,,,,,,,,,,,,,,,,,,,,0,22,22,18,,,,,,,,,,,,,,,,,,,,,,,,,,,129,reward,,,,,,1114.9993617,1114.9993617,1114.9993617,1114.9993617,0,,,0,,,0,,,0,,,1115.9646080999955,1115.9646080999955,1115.9646080999955,1115.9646080999955,24,C,2024-05-01_09h19.21.680,attentional_competition_task,2022.2.4,143.98806627541978,
positions.xlsx,positions_test.xlsx,positions_test_new.xlsx,stimuli.xlsx,stimuli_new.xlsx,stimuli/Social3.png,stimuli/Social4.png,stimuli/Nonsocial3.png,stimuli/Nonsocial4.png,stimuli/Social1.png,stimuli/Social2.png,stimuli/Nonsocial1.png,stimuli/Nonsocial2.png,,,"(-0.7, -0.5)",cs_pos_s,"(-0.7, 0.5)",cs_neg_s,"(0.7, -0.5)",cs_pos_ns,"(0.7, 0.5)",cs_neg_ns,0,0,0,0,,,,,,,,,,,,,,,,,,,,,0,23,23,7,,,,,,,,,,,,,,,,,,,,,,,,,,,138,reward,,,,,,1122.776840999999,1122.776840999999,1122.776840999999,1122.776840999999,1,0.02806579999742098,0.38355629998841323,0,,,0,,,0,,,1123.7351311999955,1123.7351311999955,1123.7351311999955,1123.7351311999955,24,C,2024-05-01_09h19.21.680,attentional_competition_task,2022.2.4,143.98806627541978,
positions.xlsx,positions_test.xlsx,positions_test_new.xlsx,stimuli.xlsx,stimuli_new.xlsx,stimuli/Social3.png,stimuli/Social4.png,stimuli/Nonsocial3.png,stimuli/Nonsocial4.png,stimuli/Social1.png,stimuli/Social2.png,stimuli/Nonsocial1.png,stimuli/Nonsocial2.png,,,"(-0.7, -0.5)",cs_pos_ns,"(-0.7, 0.5)",cs_pos_s,"(0.7, -0.5)",cs_neg_ns,"(0.7, 0.5)",cs_neg_s,0,0,0,0,,,,,,,,,,,,,,,,,,,,,1,0,24,18,,,,,,,,,,,,,,,,,,,,,,,,,,,147,reward,,,,,,1130.6376499999897,1130.6376499999897,1130.6376499999897,1130.6376499999897,0,,,1,0.028718799992930144,0.25303219999477733,0,,,0,,,1131.5890172999934,1131.5890172999934,1131.5890172999934,1131.5890172999934,24,C,2024-05-01_09h19.21.680,attentional_competition_task,2022.2.4,143.98806627541978,
positions.xlsx,positions_test.xlsx,positions_test_new.xlsx,stimuli.xlsx,stimuli_new.xlsx,stimuli/Social3.png,stimuli/Social4.png,stimuli/Nonsocial3.png,stimuli/Nonsocial4.png,stimuli/Social1.png,stimuli/Social2.png,stimuli/Nonsocial1.png,stimuli/Nonsocial2.png,,,"(-0.7, -0.5)",cs_neg_ns,"(-0.7, 0.5)",cs_pos_ns,"(0.7, -0.5)",cs_pos_s,"(0.7, 0.5)",cs_neg_s,0,0,0,0,,,,,,,,,,,,,,,,,,,,,1,1,25,16,,,,,,,,,,,,,,,,,,,,,,,,,,,156,reward,,,,,,1138.9358988999884,1138.9358988999884,1138.9358988999884,1138.9358988999884,0,,,0,,,0,,,0,,,1139.901149799989,1139.901149799989,1139.901149799989,1139.901149799989,24,C,2024-05-01_09h19.21.680,attentional_competition_task,2022.2.4,143.98806627541978,
positions.xlsx,positions_test.xlsx,positions_test_new.xlsx,stimuli.xlsx,stimuli_new.xlsx,stimuli/Social3.png,stimuli/Social4.png,stimuli/Nonsocial3.png,stimuli/Nonsocial4.png,stimuli/Social1.png,stimuli/Social2.png,stimuli/Nonsocial1.png,stimuli/Nonsocial2.png,,,"(-0.7, -0.5)",cs_neg_s,"(-0.7, 0.5)",cs_neg_ns,"(0.7, -0.5)",cs_pos_s,"(0.7, 0.5)",cs_pos_ns,0,0,0,0,,,,,,,,,,,,,,,,,,,,,1,2,26,2,,,,,,,,,,,,,,,,,,,,,,,,,,,165,reward,,,,,,1146.9842018999916,1146.9842018999916,1146.9842018999916,1146.9842018999916,0,,,0,,,0,,,1,0.029608199998619966,0.5657116000074893,1148.0466619999934,1148.0466619999934,1148.0466619999934,1148.0466619999934,24,C,2024-05-01_09h19.21.680,attentional_competition_task,2022.2.4,143.98806627541978,
positions.xlsx,positions_test.xlsx,positions_test_new.xlsx,stimuli.xlsx,stimuli_new.xlsx,stimuli/Social3.png,stimuli/Social4.png,stimuli/Nonsocial3.png,stimuli/Nonsocial4.png,stimuli/Social1.png,stimuli/Social2.png,stimuli/Nonsocial1.png,stimuli/Nonsocial2.png,,,"(-0.7, -0.5)",cs_pos_ns,"(-0.7, 0.5)",cs_neg_s,"(0.7, -0.5)",cs_neg_ns,"(0.7, 0.5)",cs_pos_s,0,0,0,0,,,,,,,,,,,,,,,,,,,,,1,3,27,23,,,,,,,,,,,,,,,,,,,,,,,,,,,168,reward,,,,,,1155.0602874999895,1155.0602874999895,1155.0602874999895,1155.0602874999895,1,0.027038200001697987,0.027041800000006333,0,,,0,,,0,,,1155.0602874999895,1155.0602874999895,1155.0602874999895,1155.0602874999895,24,C,2024-05-01_09h19.21.680,attentional_competition_task,2022.2.4,143.98806627541978,
positions.xlsx,positions_test.xlsx,positions_test_new.xlsx,stimuli.xlsx,stimuli_new.xlsx,stimuli/Social3.png,stimuli/Social4.png,stimuli/Nonsocial3.png,stimuli/Nonsocial4.png,stimuli/Social1.png,stimuli/Social2.png,stimuli/Nonsocial1.png,stimuli/Nonsocial2.png,,,"(-0.7, -0.5)",cs_pos_s,"(-0.7, 0.5)",cs_neg_ns,"(0.7, -0.5)",cs_pos_ns,"(0.7, 0.5)",cs_neg_s,0,0,0,0,,,,,,,,,,,,,,,,,,,,,1,4,28,9,,,,,,,,,,,,,,,,,,,,,,,,,,,171,reward,,,,,,1163.289067299993,1163.289067299993,1163.289067299993,1163.289067299993,0,,,0,,,1,0.023956400007591583,0.023960300008184277,0,,,1163.289067299993,1163.289067299993,1163.289067299993,1163.289067299993,24,C,2024-05-01_09h19.21.680,attentional_competition_task,2022.2.4,143.98806627541978,
positions.xlsx,positions_test.xlsx,positions_test_new.xlsx,stimuli.xlsx,stimuli_new.xlsx,stimuli/Social3.png,stimuli/Social4.png,stimuli/Nonsocial3.png,stimuli/Nonsocial4.png,stimuli/Social1.png,stimuli/Social2.png,stimuli/Nonsocial1.png,stimuli/Nonsocial2.png,,,"(-0.7, -0.5)",cs_pos_ns,"(-0.7, 0.5)",cs_pos_s,"(0.7, -0.5)",cs_neg_s,"(0.7, 0.5)",cs_neg_ns,0,0,0,0,,,,,,,,,,,,,,,,,,,,,1,5,29,19,,,,,,,,,,,,,,,,,,,,,,,,,,,174,reward,,,,,,1170.5736055000016,1170.5736055000016,1170.5736055000016,1170.5736055000016,0,,,1,1.7108666999993147,1.710870499999146,0,,,0,,,1172.30265279999,1172.30265279999,1172.30265279999,1172.30265279999,24,C,2024-05-01_09h19.21.680,attentional_competition_task,2022.2.4,143.98806627541978,
positions.xlsx,positions_test.xlsx,positions_test_new.xlsx,stimuli.xlsx,stimuli_new.xlsx,stimuli/Social3.png,stimuli/Social4.png,stimuli/Nonsocial3.png,stimuli/Nonsocial4.png,stimuli/Social1.png,stimuli/Social2.png,stimuli/Nonsocial1.png,stimuli/Nonsocial2.png,,,"(-0.7, -0.5)",cs_neg_s,"(-0.7, 0.5)",cs_neg_ns,"(0.7, -0.5)",cs_pos_ns,"(0.7, 0.5)",cs_pos_s,0,0,0,0,,,,,,,,,,,,,,,,,,,,,1,6,30,3,,,,,,,,,,,,,,,,,,,,,,,,,,,177,reward,,,,,,1180.066262399996,1180.066262399996,1180.066262399996,1180.066262399996,0,,,0,,,0,,,1,0.029160300007788464,0.029164200008381158,1180.066262399996,1180.066262399996,1180.066262399996,1180.066262399996,24,C,2024-05-01_09h19.21.680,attentional_competition_task,2022.2.4,143.98806627541978,
positions.xlsx,positions_test.xlsx,positions_test_new.xlsx,stimuli.xlsx,stimuli_new.xlsx,stimuli/Social3.png,stimuli/Social4.png,stimuli/Nonsocial3.png,stimuli/Nonsocial4.png,stimuli/Social1.png,stimuli/Social2.png,stimuli/Nonsocial1.png,stimuli/Nonsocial2.png,,,"(-0.7, -0.5)",cs_pos_s,"(-0.7, 0.5)",cs_neg_s,"(0.7, -0.5)",cs_neg_ns,"(0.7, 0.5)",cs_pos_ns,0,0,0,0,,,,,,,,,,,,,,,,,,,,,1,7,31,6,,,,,,,,,,,,,,,,,,,,,,,,,,,183,reward,,,,,,1189.1492045999912,1189.1492045999912,1189.1492045999912,1189.1492045999912,1,0.028414399988832884,0.028418499990948476,0,,,0,,,0,,,1189.1492045999912,1189.1492045999912,1189.1492045999912,1189.1492045999912,24,C,2024-05-01_09h19.21.680,attentional_competition_task,2022.2.4,143.98806627541978,
positions.xlsx,positions_test.xlsx,positions_test_new.xlsx,stimuli.xlsx,stimuli_new.xlsx,stimuli/Social3.png,stimuli/Social4.png,stimuli/Nonsocial3.png,stimuli/Nonsocial4.png,stimuli/Social1.png,stimuli/Social2.png,stimuli/Nonsocial1.png,stimuli/Nonsocial2.png,,,"(-0.7, -0.5)",cs_neg_ns,"(-0.7, 0.5)",cs_pos_s,"(0.7, -0.5)",cs_neg_s,"(0.7, 0.5)",cs_pos_ns,0,0,0,0,,,,,,,,,,,,,,,,,,,,,1,8,32,12,,,,,,,,,,,,,,,,,,,,,,,,,,,186,reward,,,,,,1197.6071864999976,1197.6071864999976,1197.6071864999976,1197.6071864999976,0,,,0,,,0,,,1,0.025828500001807697,0.02583250000316184,1197.6071864999976,1197.6071864999976,1197.6071864999976,1197.6071864999976,24,C,2024-05-01_09h19.21.680,attentional_competition_task,2022.2.4,143.98806627541978,
positions.xlsx,positions_test.xlsx,positions_test_new.xlsx,stimuli.xlsx,stimuli_new.xlsx,stimuli/Social3.png,stimuli/Social4.png,stimuli/Nonsocial3.png,stimuli/Nonsocial4.png,stimuli/Social1.png,stimuli/Social2.png,stimuli/Nonsocial1.png,stimuli/Nonsocial2.png,,,"(-0.7, -0.5)",cs_pos_s,"(-0.7, 0.5)",cs_pos_ns,"(0.7, -0.5)",cs_neg_s,"(0.7, 0.5)",cs_neg_ns,0,0,0,0,,,,,,,,,,,,,,,,,,,,,1,9,33,10,,,,,,,,,,,,,,,,,,,,,,,,,,,195,reward,,,,,,1206.773451599991,1206.773451599991,1206.773451599991,1206.773451599991,0,,,1,0.030423700009123422,0.5163649000023725,0,,,0,,,1207.7873398999945,1207.7873398999945,1207.7873398999945,1207.7873398999945,24,C,2024-05-01_09h19.21.680,attentional_competition_task,2022.2.4,143.98806627541978,
positions.xlsx,positions_test.xlsx,positions_test_new.xlsx,stimuli.xlsx,stimuli_new.xlsx,stimuli/Social3.png,stimuli/Social4.png,stimuli/Nonsocial3.png,stimuli/Nonsocial4.png,stimuli/Social1.png,stimuli/Social2.png,stimuli/Nonsocial1.png,stimuli/Nonsocial2.png,,,"(-0.7, -0.5)",cs_pos_s,"(-0.7, 0.5)",cs_pos_ns,"(0.7, -0.5)",cs_neg_ns,"(0.7, 0.5)",cs_neg_s,0,0,0,0,,,,,,,,,,,,,,,,,,,,,1,10,34,11,,,,,,,,,,,,,,,,,,,,,,,,,,,204,reward,,,,,,1216.0578323999944,1216.0578323999944,1216.0578323999944,1216.0578323999944,1,0.031815399997867644,0.13353039999492466,0,,,0,,,0,,,1216.689762199996,1216.689762199996,1216.689762199996,1216.689762199996,24,C,2024-05-01_09h19.21.680,attentional_competition_task,2022.2.4,143.98806627541978,
positions.xlsx,positions_test.xlsx,positions_test_new.xlsx,stimuli.xlsx,stimuli_new.xlsx,stimuli/Social3.png,stimuli/Social4.png,stimuli/Nonsocial3.png,stimuli/Nonsocial4.png,stimuli/Social1.png,stimuli/Social2.png,stimuli/Nonsocial1.png,stimuli/Nonsocial2.png,,,"(-0.7, -0.5)",cs_neg_s,"(-0.7, 0.5)",cs_pos_ns,"(0.7, -0.5)",cs_pos_s,"(0.7, 0.5)",cs_neg_ns,0,0,0,0,,,,,,,,,,,,,,,,,,,,,1,11,35,4,,,,,,,,,,,,,,,,,,,,,,,,,,,201,loss,,,,,,1224.918603099999,1224.918603099999,1224.918603099999,1224.918603099999,1,0.025582400005077943,0.025586100004147738,0,,,0,,,0,,,1224.918603099999,1224.918603099999,1224.918603099999,1224.918603099999,24,C,2024-05-01_09h19.21.680,attentional_competition_task,2022.2.4,143.98806627541978,
positions.xlsx,positions_test.xlsx,positions_test_new.xlsx,stimuli.xlsx,stimuli_new.xlsx,stimuli/Social3.png,stimuli/Social4.png,stimuli/Nonsocial3.png,stimuli/Nonsocial4.png,stimuli/Social1.png,stimuli/Social2.png,stimuli/Nonsocial1.png,stimuli/Nonsocial2.png,,,"(-0.7, -0.5)",cs_neg_ns,"(-0.7, 0.5)",cs_neg_s,"(0.7, -0.5)",cs_pos_ns,"(0.7, 0.5)",cs_pos_s,0,0,0,0,,,,,,,,,,,,,,,,,,,,,1,12,36,15,,,,,,,,,,,,,,,,,,,,,,,,,,,210,reward,,,,,,1233.0918794999889,1233.0918794999889,1233.0918794999889,1233.0918794999889,0,,,0,,,1,0.028902199992444366,0.06898519999231212,1,0.07735439999669325,0.5488805999921169,1234.1404580999952,1234.1404580999952,1234.1404580999952,1234.1404580999952,24,C,2024-05-01_09h19.21.680,attentional_competition_task,2022.2.4,143.98806627541978,
positions.xlsx,positions_test.xlsx,positions_test_new.xlsx,stimuli.xlsx,stimuli_new.xlsx,stimuli/Social3.png,stimuli/Social4.png,stimuli/Nonsocial3.png,stimuli/Nonsocial4.png,stimuli/Social1.png,stimuli/Social2.png,stimuli/Nonsocial1.png,stimuli/Nonsocial2.png,,,"(-0.7, -0.5)",cs_pos_ns,"(-0.7, 0.5)",cs_neg_ns,"(0.7, -0.5)",cs_neg_s,"(0.7, 0.5)",cs_pos_s,0,0,0,0,,,,,,,,,,,,,,,,,,,,,1,13,37,21,,,,,,,,,,,,,,,,,,,,,,,,,,,213,reward,,,,,,1241.785971099991,1241.785971099991,1241.785971099991,1241.785971099991,1,0.0306060000002617,0.030610100002377294,0,,,0,,,0,,,1241.785971099991,1241.785971099991,1241.785971099991,1241.785971099991,24,C,2024-05-01_09h19.21.680,attentional_competition_task,2022.2.4,143.98806627541978,
positions.xlsx,positions_test.xlsx,positions_test_new.xlsx,stimuli.xlsx,stimuli_new.xlsx,stimuli/Social3.png,stimuli/Social4.png,stimuli/Nonsocial3.png,stimuli/Nonsocial4.png,stimuli/Social1.png,stimuli/Social2.png,stimuli/Nonsocial1.png,stimuli/Nonsocial2.png,,,"(-0.7, -0.5)",cs_pos_ns,"(-0.7, 0.5)",cs_neg_s,"(0.7, -0.5)",cs_pos_s,"(0.7, 0.5)",cs_neg_ns,0,0,0,0,,,,,,,,,,,,,,,,,,,,,1,14,38,22,,,,,,,,,,,,,,,,,,,,,,,,,,,213,reward,,,,,,1250.5495157999976,1250.5495157999976,1250.5495157999976,1250.5495157999976,0,,,0,,,1,0.029551099985837936,0.02955499998643063,0,,,1250.5495157999976,1250.5495157999976,1250.5495157999976,1250.5495157999976,24,C,2024-05-01_09h19.21.680,attentional_competition_task,2022.2.4,143.98806627541978,
positions.xlsx,positions_test.xlsx,positions_test_new.xlsx,stimuli.xlsx,stimuli_new.xlsx,stimuli/Social3.png,stimuli/Social4.png,stimuli/Nonsocial3.png,stimuli/Nonsocial4.png,stimuli/Social1.png,stimuli/Social2.png,stimuli/Nonsocial1.png,stimuli/Nonsocial2.png,,,"(-0.7, -0.5)",cs_neg_s,"(-0.7, 0.5)",cs_pos_s,"(0.7, -0.5)",cs_pos_ns,"(0.7, 0.5)",cs_neg_ns,0,0,0,0,,,,,,,,,,,,,,,,,,,,,1,15,39,1,,,,,,,,,,,,,,,,,,,,,,,,,,,222,reward,,,,,,1259.0770057999907,1259.0770057999907,1259.0770057999907,1259.0770057999907,0,,,0,,,1,0.028101599993533455,0.05055430000356864,0,,,1259.6325013999885,1259.6325013999885,1259.6325013999885,1259.6325013999885,24,C,2024-05-01_09h19.21.680,attentional_competition_task,2022.2.4,143.98806627541978,
positions.xlsx,positions_test.xlsx,positions_test_new.xlsx,stimuli.xlsx,stimuli_new.xlsx,stimuli/Social3.png,stimuli/Social4.png,stimuli/Nonsocial3.png,stimuli/Nonsocial4.png,stimuli/Social1.png,stimuli/Social2.png,stimuli/Nonsocial1.png,stimuli/Nonsocial2.png,,,"(-0.7, -0.5)",cs_neg_s,"(-0.7, 0.5)",cs_pos_ns,"(0.7, -0.5)",cs_neg_ns,"(0.7, 0.5)",cs_pos_s,0,0,0,0,,,,,,,,,,,,,,,,,,,,,1,16,40,5,,,,,,,,,,,,,,,,,,,,,,,,,,,225,reward,,,,,,1267.3544032999926,1267.3544032999926,1267.3544032999926,1267.3544032999926,0,,,1,0.026358200004324317,0.026361700001871213,0,,,0,,,1267.3544032999926,1267.3544032999926,1267.3544032999926,1267.3544032999926,24,C,2024-05-01_09h19.21.680,attentional_competition_task,2022.2.4,143.98806627541978,
positions.xlsx,positions_test.xlsx,positions_test_new.xlsx,stimuli.xlsx,stimuli_new.xlsx,stimuli/Social3.png,stimuli/Social4.png,stimuli/Nonsocial3.png,stimuli/Nonsocial4.png,stimuli/Social1.png,stimuli/Social2.png,stimuli/Nonsocial1.png,stimuli/Nonsocial2.png,,,"(-0.7, -0.5)",cs_neg_ns,"(-0.7, 0.5)",cs_pos_ns,"(0.7, -0.5)",cs_neg_s,"(0.7, 0.5)",cs_pos_s,0,0,0,0,,,,,,,,,,,,,,,,,,,,,1,17,41,17,,,,,,,,,,,,,,,,,,,,,,,,,,,231,reward,,,,,,1275.7777188999898,1275.7777188999898,1275.7777188999898,1275.7777188999898,0,,,0,,,0,,,1,0.02930309998919256,0.39200789999449626,1276.6734750999894,1276.6734750999894,1276.6734750999894,1276.6734750999894,24,C,2024-05-01_09h19.21.680,attentional_competition_task,2022.2.4,143.98806627541978,
positions.xlsx,positions_test.xlsx,positions_test_new.xlsx,stimuli.xlsx,stimuli_new.xlsx,stimuli/Social3.png,stimuli/Social4.png,stimuli/Nonsocial3.png,stimuli/Nonsocial4.png,stimuli/Social1.png,stimuli/Social2.png,stimuli/Nonsocial1.png,stimuli/Nonsocial2.png,,,"(-0.7, -0.5)",cs_neg_ns,"(-0.7, 0.5)",cs_neg_s,"(0.7, -0.5)",cs_pos_s,"(0.7, 0.5)",cs_pos_ns,0,0,0,0,,,,,,,,,,,,,,,,,,,,,1,18,42,14,,,,,,,,,,,,,,,,,,,,,,,,,,,240,reward,,,,,,1285.0759243999928,1285.0759243999928,1285.0759243999928,1285.0759243999928,0,,,0,,,0,,,1,0.02322920000005979,0.371736700006295,1285.9578374999983,1285.9578374999983,1285.9578374999983,1285.9578374999983,24,C,2024-05-01_09h19.21.680,attentional_competition_task,2022.2.4,143.98806627541978,
positions.xlsx,positions_test.xlsx,positions_test_new.xlsx,stimuli.xlsx,stimuli_new.xlsx,stimuli/Social3.png,stimuli/Social4.png,stimuli/Nonsocial3.png,stimuli/Nonsocial4.png,stimuli/Social1.png,stimuli/Social2.png,stimuli/Nonsocial1.png,stimuli/Nonsocial2.png,,,"(-0.7, -0.5)",cs_pos_ns,"(-0.7, 0.5)",cs_neg_ns,"(0.7, -0.5)",cs_pos_s,"(0.7, 0.5)",cs_neg_s,0,0,0,0,,,,,,,,,,,,,,,,,,,,,1,19,43,20,,,,,,,,,,,,,,,,,,,,,,,,,,,249,reward,,,,,,1294.8602608999936,1294.8602608999936,1294.8602608999936,1294.8602608999936,0,,,0,,,0,,,0,,,1294.8602608999936,1294.8602608999936,1294.8602608999936,1294.8602608999936,24,C,2024-05-01_09h19.21.680,attentional_competition_task,2022.2.4,143.98806627541978,
positions.xlsx,positions_test.xlsx,positions_test_new.xlsx,stimuli.xlsx,stimuli_new.xlsx,stimuli/Social3.png,stimuli/Social4.png,stimuli/Nonsocial3.png,stimuli/Nonsocial4.png,stimuli/Social1.png,stimuli/Social2.png,stimuli/Nonsocial1.png,stimuli/Nonsocial2.png,,,"(-0.7, -0.5)",cs_pos_s,"(-0.7, 0.5)",cs_neg_s,"(0.7, -0.5)",cs_pos_ns,"(0.7, 0.5)",cs_neg_ns,0,0,0,0,,,,,,,,,,,,,,,,,,,,,1,20,44,7,,,,,,,,,,,,,,,,,,,,,,,,,,,258,reward,,,,,,1302.2488767999894,1302.2488767999894,1302.2488767999894,1302.2488767999894,0,,,0,,,0,,,0,,,1303.1863161999936,1303.1863161999936,1303.1863161999936,1303.1863161999936,24,C,2024-05-01_09h19.21.680,attentional_competition_task,2022.2.4,143.98806627541978,
positions.xlsx,positions_test.xlsx,positions_test_new.xlsx,stimuli.xlsx,stimuli_new.xlsx,stimuli/Social3.png,stimuli/Social4.png,stimuli/Nonsocial3.png,stimuli/Nonsocial4.png,stimuli/Social1.png,stimuli/Social2.png,stimuli/Nonsocial1.png,stimuli/Nonsocial2.png,,,"(-0.7, -0.5)",cs_pos_s,"(-0.7, 0.5)",cs_neg_ns,"(0.7, -0.5)",cs_neg_s,"(0.7, 0.5)",cs_pos_ns,0,0,0,0,,,,,,,,,,,,,,,,,,,,,1,21,45,8,,,,,,,,,,,,,,,,,,,,,,,,,,,267,reward,,,,,,1310.9776529999945,1310.9776529999945,1310.9776529999945,1310.9776529999945,0,,,0,,,0,,,1,0.04231879999861121,0.11287509999237955,1311.6651380999974,1311.6651380999974,1311.6651380999974,1311.6651380999974,24,C,2024-05-01_09h19.21.680,attentional_competition_task,2022.2.4,143.98806627541978,
positions.xlsx,positions_test.xlsx,positions_test_new.xlsx,stimuli.xlsx,stimuli_new.xlsx,stimuli/Social3.png,stimuli/Social4.png,stimuli/Nonsocial3.png,stimuli/Nonsocial4.png,stimuli/Social1.png,stimuli/Social2.png,stimuli/Nonsocial1.png,stimuli/Nonsocial2.png,,,"(-0.7, -0.5)",cs_neg_ns,"(-0.7, 0.5)",cs_pos_s,"(0.7, -0.5)",cs_pos_ns,"(0.7, 0.5)",cs_neg_s,0,0,0,0,,,,,,,,,,,,,,,,,,,,,1,22,46,13,,,,,,,,,,,,,,,,,,,,,,,,,,,276,reward,,,,,,1318.664843599996,1318.664843599996,1318.664843599996,1318.664843599996,0,,,0,,,0,,,0,,,1319.6995435999997,1319.6995435999997,1319.6995435999997,1319.6995435999997,24,C,2024-05-01_09h19.21.680,attentional_competition_task,2022.2.4,143.98806627541978,
positions.xlsx,positions_test.xlsx,positions_test_new.xlsx,stimuli.xlsx,stimuli_new.xlsx,stimuli/Social3.png,stimuli/Social4.png,stimuli/Nonsocial3.png,stimuli/Nonsocial4.png,stimuli/Social1.png,stimuli/Social2.png,stimuli/Nonsocial1.png,stimuli/Nonsocial2.png,,,"(-0.7, -0.5)",cs_neg_s,"(-0.7, 0.5)",cs_pos_s,"(0.7, -0.5)",cs_neg_ns,"(0.7, 0.5)",cs_pos_ns,0,0,0,0,,,,,,,,,,,,,,,,,,,,,1,23,47,0,,,,,,,,,,,,,,,,,,,,,,,,,,,279,reward,,,,,,1327.303434699992,1327.303434699992,1327.303434699992,1327.303434699992,0,,,1,0.024991000012960285,0.02499480001279153,0,,,0,,,1327.303434699992,1327.303434699992,1327.303434699992,1327.303434699992,24,C,2024-05-01_09h19.21.680,attentional_competition_task,2022.2.4,143.98806627541978,
positions.xlsx,positions_test.xlsx,positions_test_new.xlsx,stimuli.xlsx,stimuli_new.xlsx,stimuli/Social3.png,stimuli/Social4.png,stimuli/Nonsocial3.png,stimuli/Nonsocial4.png,stimuli/Social1.png,stimuli/Social2.png,stimuli/Nonsocial1.png,stimuli/Nonsocial2.png,,,"(-0.7, -0.5)",cs_pos_s_new,"(-0.7, 0.5)",cs_neg_ns,"(0.7, -0.5)",cs_pos_ns,"(0.7, 0.5)",cs_neg_s,0,0,0,0,,,,,,,,,,,,,,,,,,,,,,,,,,,,,0,0,0,36,0,0,0,0,,,,,,,,,,,,,,,282,reward,,,,,,1335.12258689999,1335.12258689999,1335.12258689999,1335.12258689999,0,,,0,,,1,0.5440110000054119,0.5508089000068139,0,,,1335.678036799989,1335.678036799989,1335.678036799989,1335.678036799989,24,C,2024-05-01_09h19.21.680,attentional_competition_task,2022.2.4,143.98806627541978,
positions.xlsx,positions_test.xlsx,positions_test_new.xlsx,stimuli.xlsx,stimuli_new.xlsx,stimuli/Social3.png,stimuli/Social4.png,stimuli/Nonsocial3.png,stimuli/Nonsocial4.png,stimuli/Social1.png,stimuli/Social2.png,stimuli/Nonsocial1.png,stimuli/Nonsocial2.png,,,"(-0.7, -0.5)",cs_pos_s_new,"(-0.7, 0.5)",cs_neg_ns,"(0.7, -0.5)",cs_pos_ns,"(0.7, 0.5)",cs_neg_s,0,0,0,0,,,,,,,,,,,,,,,,,,,,,,,,,,,,,0,0,0,36,1,0,1,0,,,,,,,,,,,,,,,285,reward,,,,,,1336.1780728999875,1336.1780728999875,1336.1780728999875,1336.1780728999875,1,0.14110269999946468,0.14110660000005737,0,,,1,0.02906000000075437,0.0717746000009356,0,,,1336.323891699998,1336.323891699998,1336.323891699998,1336.323891699998,24,C,2024-05-01_09h19.21.680,attentional_competition_task,2022.2.4,143.98806627541978,
positions.xlsx,positions_test.xlsx,positions_test_new.xlsx,stimuli.xlsx,stimuli_new.xlsx,stimuli/Social3.png,stimuli/Social4.png,stimuli/Nonsocial3.png,stimuli/Nonsocial4.png,stimuli/Social1.png,stimuli/Social2.png,stimuli/Nonsocial1.png,stimuli/Nonsocial2.png,,,"(-0.7, -0.5)",cs_pos_s_new,"(-0.7, 0.5)",cs_neg_ns,"(0.7, -0.5)",cs_pos_ns,"(0.7, 0.5)",cs_neg_s,0,0,0,0,,,,,,,,,,,,,,,,,,,,,,,,,,,,,0,0,0,36,2,0,2,0,,,,,,,,,,,,,,,282,loss,,,,,,1336.8238237999904,1336.8238237999904,1336.8238237999904,1336.8238237999904,1,0.02276180000626482,0.038127399995573796,0,,,0,,,1,0.10769540000183042,0.1146145999955479,1336.941911899994,1336.941911899994,1336.941911899994,1336.941911899994,24,C,2024-05-01_09h19.21.680,attentional_competition_task,2022.2.4,143.98806627541978,
positions.xlsx,positions_test.xlsx,positions_test_new.xlsx,stimuli.xlsx,stimuli_new.xlsx,stimuli/Social3.png,stimuli/Social4.png,stimuli/Nonsocial3.png,stimuli/Nonsocial4.png,stimuli/Social1.png,stimuli/Social2.png,stimuli/Nonsocial1.png,stimuli/Nonsocial2.png,,,"(-0.7, -0.5)",cs_pos_s_new,"(-0.7, 0.5)",cs_neg_ns,"(0.7, -0.5)",cs_pos_ns,"(0.7, 0.5)",cs_neg_s,0,0,0,0,,,,,,,,,,,,,,,,,,,,,,,,,,,,,0,0,0,36,,,,,,,,,,,,,,,,,,,,,,,,,,,,,,,,,,,,,,,,,,,,,,24,C,2024-05-01_09h19.21.680,attentional_competition_task,2022.2.4,143.98806627541978,
positions.xlsx,positions_test.xlsx,positions_test_new.xlsx,stimuli.xlsx,stimuli_new.xlsx,stimuli/Social3.png,stimuli/Social4.png,stimuli/Nonsocial3.png,stimuli/Nonsocial4.png,stimuli/Social1.png,stimuli/Social2.png,stimuli/Nonsocial1.png,stimuli/Nonsocial2.png,,,"(-0.7, -0.5)",cs_neg_s,"(-0.7, 0.5)",cs_pos_ns_new,"(0.7, -0.5)",cs_neg_ns,"(0.7, 0.5)",cs_pos_s,0,0,0,0,,,,,,,,,,,,,,,,,,,,,,,,,,,,,0,1,1,39,0,0,0,0,,,,,,,,,,,,,,,279,loss,,,,,,1343.5944233999908,1343.5944233999908,1343.5944233999908,1343.5944233999908,0,,,0,,,1,0.32887749999645166,0.32888139999704435,0,,,1343.927727199989,1343.927727199989,1343.927727199989,1343.927727199989,24,C,2024-05-01_09h19.21.680,attentional_competition_task,2022.2.4,143.98806627541978,
positions.xlsx,positions_test.xlsx,positions_test_new.xlsx,stimuli.xlsx,stimuli_new.xlsx,stimuli/Social3.png,stimuli/Social4.png,stimuli/Nonsocial3.png,stimuli/Nonsocial4.png,stimuli/Social1.png,stimuli/Social2.png,stimuli/Nonsocial1.png,stimuli/Nonsocial2.png,,,"(-0.7, -0.5)",cs_neg_s,"(-0.7, 0.5)",cs_pos_ns_new,"(0.7, -0.5)",cs_neg_ns,"(0.7, 0.5)",cs_pos_s,0,0,0,0,,,,,,,,,,,,,,,,,,,,,,,,,,,,,0,1,1,39,1,0,1,0,,,,,,,,,,,,,,,276,loss,,,,,,1344.4624780000013,1344.4624780000013,1344.4624780000013,1344.4624780000013,1,0.030961399999796413,0.030965300000389107,0,,,0,,,0,,,1344.4624780000013,1344.4624780000013,1344.4624780000013,1344.4624780000013,24,C,2024-05-01_09h19.21.680,attentional_competition_task,2022.2.4,143.98806627541978,
positions.xlsx,positions_test.xlsx,positions_test_new.xlsx,stimuli.xlsx,stimuli_new.xlsx,stimuli/Social3.png,stimuli/Social4.png,stimuli/Nonsocial3.png,stimuli/Nonsocial4.png,stimuli/Social1.png,stimuli/Social2.png,stimuli/Nonsocial1.png,stimuli/Nonsocial2.png,,,"(-0.7, -0.5)",cs_neg_s,"(-0.7, 0.5)",cs_pos_ns_new,"(0.7, -0.5)",cs_neg_ns,"(0.7, 0.5)",cs_pos_s,0,0,0,0,,,,,,,,,,,,,,,,,,,,,,,,,,,,,0,1,1,39,2,0,2,0,,,,,,,,,,,,,,,279,reward,,,,,,1344.9971317000018,1344.9971317000018,1344.9971317000018,1344.9971317000018,0,,,1,0.026589999994030222,0.026593899994622916,0,,,0,,,1344.9971317000018,1344.9971317000018,1344.9971317000018,1344.9971317000018,24,C,2024-05-01_09h19.21.680,attentional_competition_task,2022.2.4,143.98806627541978,
positions.xlsx,positions_test.xlsx,positions_test_new.xlsx,stimuli.xlsx,stimuli_new.xlsx,stimuli/Social3.png,stimuli/Social4.png,stimuli/Nonsocial3.png,stimuli/Nonsocial4.png,stimuli/Social1.png,stimuli/Social2.png,stimuli/Nonsocial1.png,stimuli/Nonsocial2.png,,,"(-0.7, -0.5)",cs_neg_s,"(-0.7, 0.5)",cs_pos_ns_new,"(0.7, -0.5)",cs_neg_ns,"(0.7, 0.5)",cs_pos_s,0,0,0,0,,,,,,,,,,,,,,,,,,,,,,,,,,,,,0,1,1,39,3,0,3,0,,,,,,,,,,,,,,,282,reward,,,,,,1345.5248882000014,1345.5248882000014,1345.5248882000014,1345.5248882000014,0,,,0,,,0,,,1,0.02945079999335576,0.029454599993187003,1345.5248882000014,1345.5248882000014,1345.5248882000014,1345.5248882000014,24,C,2024-05-01_09h19.21.680,attentional_competition_task,2022.2.4,143.98806627541978,
positions.xlsx,positions_test.xlsx,positions_test_new.xlsx,stimuli.xlsx,stimuli_new.xlsx,stimuli/Social3.png,stimuli/Social4.png,stimuli/Nonsocial3.png,stimuli/Nonsocial4.png,stimuli/Social1.png,stimuli/Social2.png,stimuli/Nonsocial1.png,stimuli/Nonsocial2.png,,,"(-0.7, -0.5)",cs_neg_s,"(-0.7, 0.5)",cs_pos_ns_new,"(0.7, -0.5)",cs_neg_ns,"(0.7, 0.5)",cs_pos_s,0,0,0,0,,,,,,,,,,,,,,,,,,,,,,,,,,,,,0,1,1,39,,,,,,,,,,,,,,,,,,,,,,,,,,,,,,,,,,,,,,,,,,,,,,24,C,2024-05-01_09h19.21.680,attentional_competition_task,2022.2.4,143.98806627541978,
positions.xlsx,positions_test.xlsx,positions_test_new.xlsx,stimuli.xlsx,stimuli_new.xlsx,stimuli/Social3.png,stimuli/Social4.png,stimuli/Nonsocial3.png,stimuli/Nonsocial4.png,stimuli/Social1.png,stimuli/Social2.png,stimuli/Nonsocial1.png,stimuli/Nonsocial2.png,,,"(-0.7, -0.5)",cs_neg_ns_new,"(-0.7, 0.5)",cs_pos_ns,"(0.7, -0.5)",cs_pos_s,"(0.7, 0.5)",cs_neg_s,0,0,0,0,,,,,,,,,,,,,,,,,,,,,,,,,,,,,0,2,2,20,0,0,0,0,,,,,,,,,,,,,,,285,reward,,,,,,1351.5315947999916,1351.5315947999916,1351.5315947999916,1351.5315947999916,0,,,0,,,1,0.5300962000037543,0.5300997000013012,0,,,1352.0662981999922,1352.0662981999922,1352.0662981999922,1352.0662981999922,24,C,2024-05-01_09h19.21.680,attentional_competition_task,2022.2.4,143.98806627541978,
positions.xlsx,positions_test.xlsx,positions_test_new.xlsx,stimuli.xlsx,stimuli_new.xlsx,stimuli/Social3.png,stimuli/Social4.png,stimuli/Nonsocial3.png,stimuli/Nonsocial4.png,stimuli/Social1.png,stimuli/Social2.png,stimuli/Nonsocial1.png,stimuli/Nonsocial2.png,,,"(-0.7, -0.5)",cs_neg_ns_new,"(-0.7, 0.5)",cs_pos_ns,"(0.7, -0.5)",cs_pos_s,"(0.7, 0.5)",cs_neg_s,0,0,0,0,,,,,,,,,,,,,,,,,,,,,,,,,,,,,0,2,2,20,1,0,1,0,,,,,,,,,,,,,,,288,reward,,,,,,1352.5732381999987,1352.5732381999987,1352.5732381999987,1352.5732381999987,0,,,1,0.3638016000040807,0.3712773000006564,1,0.031132400006754324,0.28151359999901615,0,,,1352.941272799988,1352.941272799988,1352.941272799988,1352.941272799988,24,C,2024-05-01_09h19.21.680,attentional_competition_task,2022.2.4,143.98806627541978,
positions.xlsx,positions_test.xlsx,positions_test_new.xlsx,stimuli.xlsx,stimuli_new.xlsx,stimuli/Social3.png,stimuli/Social4.png,stimuli/Nonsocial3.png,stimuli/Nonsocial4.png,stimuli/Social1.png,stimuli/Social2.png,stimuli/Nonsocial1.png,stimuli/Nonsocial2.png,,,"(-0.7, -0.5)",cs_neg_ns_new,"(-0.7, 0.5)",cs_pos_ns,"(0.7, -0.5)",cs_pos_s,"(0.7, 0.5)",cs_neg_s,0,0,0,0,,,,,,,,,,,,,,,,,,,,,,,,,,,,,0,2,2,20,2,0,2,0,,,,,,,,,,,,,,,285,loss,,,,,,1353.4759760999877,1353.4759760999877,1353.4759760999877,1353.4759760999877,1,0.030580599996028468,0.03058449999662116,0,,,0,,,0,,,1353.4759760999877,1353.4759760999877,1353.4759760999877,1353.4759760999877,24,C,2024-05-01_09h19.21.680,attentional_competition_task,2022.2.4,143.98806627541978,
positions.xlsx,positions_test.xlsx,positions_test_new.xlsx,stimuli.xlsx,stimuli_new.xlsx,stimuli/Social3.png,stimuli/Social4.png,stimuli/Nonsocial3.png,stimuli/Nonsocial4.png,stimuli/Social1.png,stimuli/Social2.png,stimuli/Nonsocial1.png,stimuli/Nonsocial2.png,,,"(-0.7, -0.5)",cs_neg_ns_new,"(-0.7, 0.5)",cs_pos_ns,"(0.7, -0.5)",cs_pos_s,"(0.7, 0.5)",cs_neg_s,0,0,0,0,,,,,,,,,,,,,,,,,,,,,,,,,,,,,0,2,2,20,,,,,,,,,,,,,,,,,,,,,,,,,,,,,,,,,,,,,,,,,,,,,,24,C,2024-05-01_09h19.21.680,attentional_competition_task,2022.2.4,143.98806627541978,
positions.xlsx,positions_test.xlsx,positions_test_new.xlsx,stimuli.xlsx,stimuli_new.xlsx,stimuli/Social3.png,stimuli/Social4.png,stimuli/Nonsocial3.png,stimuli/Nonsocial4.png,stimuli/Social1.png,stimuli/Social2.png,stimuli/Nonsocial1.png,stimuli/Nonsocial2.png,,,"(-0.7, -0.5)",cs_neg_ns,"(-0.7, 0.5)",cs_neg_s,"(0.7, -0.5)",cs_pos_s,"(0.7, 0.5)",cs_pos_ns,0,0,0,0,,,,,,,,,,,,,,,,,,,,,,,,,,,,,0,3,3,1,0,0,0,0,,,,,,,,,,,,,,,288,reward,,,,,,1360.1701642999979,1360.1701642999979,1360.1701642999979,1360.1701642999979,0,,,0,,,1,0.25958519999403507,0.25958889999310486,0,,,1360.4340195999976,1360.4340195999976,1360.4340195999976,1360.4340195999976,24,C,2024-05-01_09h19.21.680,attentional_competition_task,2022.2.4,143.98806627541978,
positions.xlsx,positions_test.xlsx,positions_test_new.xlsx,stimuli.xlsx,stimuli_new.xlsx,stimuli/Social3.png,stimuli/Social4.png,stimuli/Nonsocial3.png,stimuli/Nonsocial4.png,stimuli/Social1.png,stimuli/Social2.png,stimuli/Nonsocial1.png,stimuli/Nonsocial2.png,,,"(-0.7, -0.5)",cs_neg_ns,"(-0.7, 0.5)",cs_neg_s,"(0.7, -0.5)",cs_pos_s,"(0.7, 0.5)",cs_pos_ns,0,0,0,0,,,,,,,,,,,,,,,,,,,,,,,,,,,,,0,3,3,1,1,0,1,0,,,,,,,,,,,,,,,291,reward,,,,,,1360.9340143000009,1360.9340143000009,1360.9340143000009,1360.9340143000009,0,,,0,,,1,0.11594919998606201,0.14477899999474175,1,0.32297039999684785,0.32298729999456555,1361.2673481999955,1361.2673481999955,1361.2673481999955,1361.2673481999955,24,C,2024-05-01_09h19.21.680,attentional_competition_task,2022.2.4,143.98806627541978,
positions.xlsx,positions_test.xlsx,positions_test_new.xlsx,stimuli.xlsx,stimuli_new.xlsx,stimuli/Social3.png,stimuli/Social4.png,stimuli/Nonsocial3.png,stimuli/Nonsocial4.png,stimuli/Social1.png,stimuli/Social2.png,stimuli/Nonsocial1.png,stimuli/Nonsocial2.png,,,"(-0.7, -0.5)",cs_neg_ns,"(-0.7, 0.5)",cs_neg_s,"(0.7, -0.5)",cs_pos_s,"(0.7, 0.5)",cs_pos_ns,0,0,0,0,,,,,,,,,,,,,,,,,,,,,,,,,,,,,0,3,3,1,2,0,2,0,,,,,,,,,,,,,,,294,reward,,,,,,1361.7604232000012,1361.7604232000012,1361.7604232000012,1361.7604232000012,0,,,0,,,1,0.391006899997592,0.39787129999604076,1,0.029466599997249432,0.2732143999892287,1362.683950999999,1362.683950999999,1362.683950999999,1362.683950999999,24,C,2024-05-01_09h19.21.680,attentional_competition_task,2022.2.4,143.98806627541978,
positions.xlsx,positions_test.xlsx,positions_test_new.xlsx,stimuli.xlsx,stimuli_new.xlsx,stimuli/Social3.png,stimuli/Social4.png,stimuli/Nonsocial3.png,stimuli/Nonsocial4.png,stimuli/Social1.png,stimuli/Social2.png,stimuli/Nonsocial1.png,stimuli/Nonsocial2.png,,,"(-0.7, -0.5)",cs_neg_ns,"(-0.7, 0.5)",cs_neg_s,"(0.7, -0.5)",cs_pos_s,"(0.7, 0.5)",cs_pos_ns,0,0,0,0,,,,,,,,,,,,,,,,,,,,,,,,,,,,,0,3,3,1,,,,,,,,,,,,,,,,,,,,,,,,,,,,,,,,,,,,,,,,,,,,,,24,C,2024-05-01_09h19.21.680,attentional_competition_task,2022.2.4,143.98806627541978,
positions.xlsx,positions_test.xlsx,positions_test_new.xlsx,stimuli.xlsx,stimuli_new.xlsx,stimuli/Social3.png,stimuli/Social4.png,stimuli/Nonsocial3.png,stimuli/Nonsocial4.png,stimuli/Social1.png,stimuli/Social2.png,stimuli/Nonsocial1.png,stimuli/Nonsocial2.png,,,"(-0.7, -0.5)",cs_neg_ns,"(-0.7, 0.5)",cs_pos_ns,"(0.7, -0.5)",cs_pos_s,"(0.7, 0.5)",cs_neg_s_new,0,0,0,0,,,,,,,,,,,,,,,,,,,,,,,,,,,,,0,4,4,13,0,0,0,0,,,,,,,,,,,,,,,297,reward,,,,,,1368.2531598999922,1368.2531598999922,1368.2531598999922,1368.2531598999922,0,,,0,,,1,0.6556867000035709,0.6556908000056865,0,,,1368.9128846999956,1368.9128846999956,1368.9128846999956,1368.9128846999956,24,C,2024-05-01_09h19.21.680,attentional_competition_task,2022.2.4,143.98806627541978,
positions.xlsx,positions_test.xlsx,positions_test_new.xlsx,stimuli.xlsx,stimuli_new.xlsx,stimuli/Social3.png,stimuli/Social4.png,stimuli/Nonsocial3.png,stimuli/Nonsocial4.png,stimuli/Social1.png,stimuli/Social2.png,stimuli/Nonsocial1.png,stimuli/Nonsocial2.png,,,"(-0.7, -0.5)",cs_neg_ns,"(-0.7, 0.5)",cs_pos_ns,"(0.7, -0.5)",cs_pos_s,"(0.7, 0.5)",cs_neg_s_new,0,0,0,0,,,,,,,,,,,,,,,,,,,,,,,,,,,,,0,4,4,13,1,0,1,0,,,,,,,,,,,,,,,300,reward,,,,,,1369.4198097999906,1369.4198097999906,1369.4198097999906,1369.4198097999906,0,,,1,0.22441139999136794,0.2244149999896763,0,,,0,,,1369.6419916999876,1369.6419916999876,1369.6419916999876,1369.6419916999876,24,C,2024-05-01_09h19.21.680,attentional_competition_task,2022.2.4,143.98806627541978,
positions.xlsx,positions_test.xlsx,positions_test_new.xlsx,stimuli.xlsx,stimuli_new.xlsx,stimuli/Social3.png,stimuli/Social4.png,stimuli/Nonsocial3.png,stimuli/Nonsocial4.png,stimuli/Social1.png,stimuli/Social2.png,stimuli/Nonsocial1.png,stimuli/Nonsocial2.png,,,"(-0.7, -0.5)",cs_neg_ns,"(-0.7, 0.5)",cs_pos_ns,"(0.7, -0.5)",cs_pos_s,"(0.7, 0.5)",cs_neg_s_new,0,0,0,0,,,,,,,,,,,,,,,,,,,,,,,,,,,,,0,4,4,13,2,0,2,0,,,,,,,,,,,,,,,303,reward,,,,,,1370.1350381999946,1370.1350381999946,1370.1350381999946,1370.1350381999946,0,,,1,0.02305950000300072,0.07941570000548381,0,,,0,,,1370.7669559999922,1370.7669559999922,1370.7669559999922,1370.7669559999922,24,C,2024-05-01_09h19.21.680,attentional_competition_task,2022.2.4,143.98806627541978,
positions.xlsx,positions_test.xlsx,positions_test_new.xlsx,stimuli.xlsx,stimuli_new.xlsx,stimuli/Social3.png,stimuli/Social4.png,stimuli/Nonsocial3.png,stimuli/Nonsocial4.png,stimuli/Social1.png,stimuli/Social2.png,stimuli/Nonsocial1.png,stimuli/Nonsocial2.png,,,"(-0.7, -0.5)",cs_neg_ns,"(-0.7, 0.5)",cs_pos_ns,"(0.7, -0.5)",cs_pos_s,"(0.7, 0.5)",cs_neg_s_new,0,0,0,0,,,,,,,,,,,,,,,,,,,,,,,,,,,,,0,4,4,13,,,,,,,,,,,,,,,,,,,,,,,,,,,,,,,,,,,,,,,,,,,,,,24,C,2024-05-01_09h19.21.680,attentional_competition_task,2022.2.4,143.98806627541978,
positions.xlsx,positions_test.xlsx,positions_test_new.xlsx,stimuli.xlsx,stimuli_new.xlsx,stimuli/Social3.png,stimuli/Social4.png,stimuli/Nonsocial3.png,stimuli/Nonsocial4.png,stimuli/Social1.png,stimuli/Social2.png,stimuli/Nonsocial1.png,stimuli/Nonsocial2.png,,,"(-0.7, -0.5)",cs_pos_ns,"(-0.7, 0.5)",cs_neg_ns_new,"(0.7, -0.5)",cs_neg_s,"(0.7, 0.5)",cs_pos_s,0,0,0,0,,,,,,,,,,,,,,,,,,,,,,,,,,,,,0,5,5,24,0,0,0,0,,,,,,,,,,,,,,,300,loss,,,,,,1376.3222584999894,1376.3222584999894,1376.3222584999894,1376.3222584999894,0,,,1,0.4467399000131991,0.4467439000000013,0,,,0,,,1376.7736823000014,1376.7736823000014,1376.7736823000014,1376.7736823000014,24,C,2024-05-01_09h19.21.680,attentional_competition_task,2022.2.4,143.98806627541978,
positions.xlsx,positions_test.xlsx,positions_test_new.xlsx,stimuli.xlsx,stimuli_new.xlsx,stimuli/Social3.png,stimuli/Social4.png,stimuli/Nonsocial3.png,stimuli/Nonsocial4.png,stimuli/Social1.png,stimuli/Social2.png,stimuli/Nonsocial1.png,stimuli/Nonsocial2.png,,,"(-0.7, -0.5)",cs_pos_ns,"(-0.7, 0.5)",cs_neg_ns_new,"(0.7, -0.5)",cs_neg_s,"(0.7, 0.5)",cs_pos_s,0,0,0,0,,,,,,,,,,,,,,,,,,,,,,,,,,,,,0,5,5,24,1,0,1,0,,,,,,,,,,,,,,,303,reward,,,,,,1377.315270799998,1377.315270799998,1377.315270799998,1377.315270799998,1,0.03429670000332408,0.03430359999765642,0,,,0,,,0,,,1377.315270799998,1377.315270799998,1377.315270799998,1377.315270799998,24,C,2024-05-01_09h19.21.680,attentional_competition_task,2022.2.4,143.98806627541978,
positions.xlsx,positions_test.xlsx,positions_test_new.xlsx,stimuli.xlsx,stimuli_new.xlsx,stimuli/Social3.png,stimuli/Social4.png,stimuli/Nonsocial3.png,stimuli/Nonsocial4.png,stimuli/Social1.png,stimuli/Social2.png,stimuli/Nonsocial1.png,stimuli/Nonsocial2.png,,,"(-0.7, -0.5)",cs_pos_ns,"(-0.7, 0.5)",cs_neg_ns_new,"(0.7, -0.5)",cs_neg_s,"(0.7, 0.5)",cs_pos_s,0,0,0,0,,,,,,,,,,,,,,,,,,,,,,,,,,,,,0,5,5,24,2,0,2,0,,,,,,,,,,,,,,,306,reward,,,,,,1377.815262499993,1377.815262499993,1377.815262499993,1377.815262499993,0,,,0,,,0,,,1,0.0876198000041768,0.08762540000316221,1377.905567099995,1377.905567099995,1377.905567099995,1377.905567099995,24,C,2024-05-01_09h19.21.680,attentional_competition_task,2022.2.4,143.98806627541978,
positions.xlsx,positions_test.xlsx,positions_test_new.xlsx,stimuli.xlsx,stimuli_new.xlsx,stimuli/Social3.png,stimuli/Social4.png,stimuli/Nonsocial3.png,stimuli/Nonsocial4.png,stimuli/Social1.png,stimuli/Social2.png,stimuli/Nonsocial1.png,stimuli/Nonsocial2.png,,,"(-0.7, -0.5)",cs_pos_ns,"(-0.7, 0.5)",cs_neg_ns_new,"(0.7, -0.5)",cs_neg_s,"(0.7, 0.5)",cs_pos_s,0,0,0,0,,,,,,,,,,,,,,,,,,,,,,,,,,,,,0,5,5,24,,,,,,,,,,,,,,,,,,,,,,,,,,,,,,,,,,,,,,,,,,,,,,24,C,2024-05-01_09h19.21.680,attentional_competition_task,2022.2.4,143.98806627541978,
positions.xlsx,positions_test.xlsx,positions_test_new.xlsx,stimuli.xlsx,stimuli_new.xlsx,stimuli/Social3.png,stimuli/Social4.png,stimuli/Nonsocial3.png,stimuli/Nonsocial4.png,stimuli/Social1.png,stimuli/Social2.png,stimuli/Nonsocial1.png,stimuli/Nonsocial2.png,,,"(-0.7, -0.5)",cs_pos_s_new,"(-0.7, 0.5)",cs_pos_ns,"(0.7, -0.5)",cs_neg_s,"(0.7, 0.5)",cs_neg_ns,0,0,0,0,,,,,,,,,,,,,,,,,,,,,,,,,,,,,0,6,6,30,0,0,0,0,,,,,,,,,,,,,,,309,reward,,,,,,1385.1691431999934,1385.1691431999934,1385.1691431999934,1385.1691431999934,1,1.015609800000675,1.0226373000041349,0,,,0,,,0,,,1386.2038833999977,1386.2038833999977,1386.2038833999977,1386.2038833999977,24,C,2024-05-01_09h19.21.680,attentional_competition_task,2022.2.4,143.98806627541978,
positions.xlsx,positions_test.xlsx,positions_test_new.xlsx,stimuli.xlsx,stimuli_new.xlsx,stimuli/Social3.png,stimuli/Social4.png,stimuli/Nonsocial3.png,stimuli/Nonsocial4.png,stimuli/Social1.png,stimuli/Social2.png,stimuli/Nonsocial1.png,stimuli/Nonsocial2.png,,,"(-0.7, -0.5)",cs_pos_s_new,"(-0.7, 0.5)",cs_pos_ns,"(0.7, -0.5)",cs_neg_s,"(0.7, 0.5)",cs_neg_ns,0,0,0,0,,,,,,,,,,,,,,,,,,,,,,,,,,,,,0,6,6,30,1,0,1,0,,,,,,,,,,,,,,,306,loss,,,,,,1386.6968819999893,1386.6968819999893,1386.6968819999893,1386.6968819999893,0,,,0,,,0,,,1,0.24651920000906102,0.24652280000736937,1386.9468983999977,1386.9468983999977,1386.9468983999977,1386.9468983999977,24,C,2024-05-01_09h19.21.680,attentional_competition_task,2022.2.4,143.98806627541978,
positions.xlsx,positions_test.xlsx,positions_test_new.xlsx,stimuli.xlsx,stimuli_new.xlsx,stimuli/Social3.png,stimuli/Social4.png,stimuli/Nonsocial3.png,stimuli/Nonsocial4.png,stimuli/Social1.png,stimuli/Social2.png,stimuli/Nonsocial1.png,stimuli/Nonsocial2.png,,,"(-0.7, -0.5)",cs_pos_s_new,"(-0.7, 0.5)",cs_pos_ns,"(0.7, -0.5)",cs_neg_s,"(0.7, 0.5)",cs_neg_ns,0,0,0,0,,,,,,,,,,,,,,,,,,,,,,,,,,,,,0,6,6,30,,,,,,,,,,,,,,,,,,,,,,,,,,,,,,,,,,,,,,,,,,,,,,24,C,2024-05-01_09h19.21.680,attentional_competition_task,2022.2.4,143.98806627541978,
positions.xlsx,positions_test.xlsx,positions_test_new.xlsx,stimuli.xlsx,stimuli_new.xlsx,stimuli/Social3.png,stimuli/Social4.png,stimuli/Nonsocial3.png,stimuli/Nonsocial4.png,stimuli/Social1.png,stimuli/Social2.png,stimuli/Nonsocial1.png,stimuli/Nonsocial2.png,,,"(-0.7, -0.5)",cs_pos_s,"(-0.7, 0.5)",cs_neg_s,"(0.7, -0.5)",cs_neg_ns_new,"(0.7, 0.5)",cs_pos_ns,0,0,0,0,,,,,,,,,,,,,,,,,,,,,,,,,,,,,0,7,7,27,0,0,0,0,,,,,,,,,,,,,,,303,loss,,,,,,1393.8841741999931,1393.8841741999931,1393.8841741999931,1393.8841741999931,0,,,0,,,1,1.003332300009788,1.0033362000103807,0,,,1394.8910490999988,1394.8910490999988,1394.8910490999988,1394.8910490999988,24,C,2024-05-01_09h19.21.680,attentional_competition_task,2022.2.4,143.98806627541978,
positions.xlsx,positions_test.xlsx,positions_test_new.xlsx,stimuli.xlsx,stimuli_new.xlsx,stimuli/Social3.png,stimuli/Social4.png,stimuli/Nonsocial3.png,stimuli/Nonsocial4.png,stimuli/Social1.png,stimuli/Social2.png,stimuli/Nonsocial1.png,stimuli/Nonsocial2.png,,,"(-0.7, -0.5)",cs_pos_s,"(-0.7, 0.5)",cs_neg_s,"(0.7, -0.5)",cs_neg_ns_new,"(0.7, 0.5)",cs_pos_ns,0,0,0,0,,,,,,,,,,,,,,,,,,,,,,,,,,,,,0,7,7,27,1,0,1,0,,,,,,,,,,,,,,,306,reward,,,,,,1395.4326083999913,1395.4326083999913,1395.4326083999913,1395.4326083999913,0,,,0,,,0,,,1,0.03713140000763815,0.03713520000746939,1395.4326083999913,1395.4326083999913,1395.4326083999913,1395.4326083999913,24,C,2024-05-01_09h19.21.680,attentional_competition_task,2022.2.4,143.98806627541978,
positions.xlsx,positions_test.xlsx,positions_test_new.xlsx,stimuli.xlsx,stimuli_new.xlsx,stimuli/Social3.png,stimuli/Social4.png,stimuli/Nonsocial3.png,stimuli/Nonsocial4.png,stimuli/Social1.png,stimuli/Social2.png,stimuli/Nonsocial1.png,stimuli/Nonsocial2.png,,,"(-0.7, -0.5)",cs_pos_s,"(-0.7, 0.5)",cs_neg_s,"(0.7, -0.5)",cs_neg_ns_new,"(0.7, 0.5)",cs_pos_ns,0,0,0,0,,,,,,,,,,,,,,,,,,,,,,,,,,,,,0,7,7,27,,,,,,,,,,,,,,,,,,,,,,,,,,,,,,,,,,,,,,,,,,,,,,24,C,2024-05-01_09h19.21.680,attentional_competition_task,2022.2.4,143.98806627541978,
positions.xlsx,positions_test.xlsx,positions_test_new.xlsx,stimuli.xlsx,stimuli_new.xlsx,stimuli/Social3.png,stimuli/Social4.png,stimuli/Nonsocial3.png,stimuli/Nonsocial4.png,stimuli/Social1.png,stimuli/Social2.png,stimuli/Nonsocial1.png,stimuli/Nonsocial2.png,,,"(-0.7, -0.5)",cs_pos_ns,"(-0.7, 0.5)",cs_pos_s,"(0.7, -0.5)",cs_neg_s,"(0.7, 0.5)",cs_neg_ns,0,0,0,0,,,,,,,,,,,,,,,,,,,,,,,,,,,,,0,8,8,6,0,0,0,0,,,,,,,,,,,,,,,309,reward,,,,,,1402.2587832999998,1402.2587832999998,1402.2587832999998,1402.2587832999998,0,,,1,0.529557299989392,0.5295608999877004,0,,,0,,,1402.7864999999874,1402.7864999999874,1402.7864999999874,1402.7864999999874,24,C,2024-05-01_09h19.21.680,attentional_competition_task,2022.2.4,143.98806627541978,
