posFile,posFileTest,posFileTestNew,stimFile,stimFileNew,cs_neg_s,cs_pos_s,cs_neg_ns,cs_pos_ns,cs_neg_s_new,cs_pos_s_new,cs_neg_ns_new,cs_pos_ns_new,stim,position,position1,stim1,position2,stim2,position3,stim3,position4,stim4,blocks.thisRepN,blocks.thisTrialN,blocks.thisN,blocks.thisIndex,ratingtrials1.thisRepN,ratingtrials1.thisTrialN,ratingtrials1.thisN,ratingtrials1.thisIndex,search_task_trials.thisRepN,search_task_trials.thisTrialN,search_task_trials.thisN,search_task_trials.thisIndex,learning_trials.thisRepN,learning_trials.thisTrialN,learning_trials.thisN,learning_trials.thisIndex,trials.thisRepN,trials.thisTrialN,trials.thisN,trials.thisIndex,ratingtrials2.thisRepN,ratingtrials2.thisTrialN,ratingtrials2.thisN,ratingtrials2.thisIndex,testtrials.thisRepN,testtrials.thisTrialN,testtrials.thisN,testtrials.thisIndex,loop_test.thisRepN,loop_test.thisTrialN,loop_test.thisN,loop_test.thisIndex,testtrials_novelty.thisRepN,testtrials_novelty.thisTrialN,testtrials_novelty.thisN,testtrials_novelty.thisIndex,loop_test_novelty.thisRepN,loop_test_novelty.thisTrialN,loop_test_novelty.thisN,loop_test_novelty.thisIndex,ratingtrials3.thisRepN,ratingtrials3.thisTrialN,ratingtrials3.thisN,ratingtrials3.thisIndex,textStart.started,textStartExp.started,imageRating.started,sliderStim.response,sliderStim.rt,textStartSearch.started,target_positions,distractor_positions,textStartTask.started,image.started,score,outcome,roi.numLooks,roi.timesOn,roi.timesOff,imageFeedback.started,textTestInstr.started,test_image1.started,test_image2.started,test_image3.started,test_image4.started,test_roi1.numLooks,test_roi1.timesOn,test_roi1.timesOff,test_roi2.numLooks,test_roi2.timesOn,test_roi2.timesOff,test_roi3.numLooks,test_roi3.timesOn,test_roi3.timesOff,test_roi4.numLooks,test_roi4.timesOn,test_roi4.timesOff,test_image_feedback1.started,test_image_feedback2.started,test_iamge_feedback3.started,test_iamge_feedback4.started,participant,group,date,expName,psychopyVersion,frameRate,
positions.xlsx,positions_test.xlsx,positions_test_new.xlsx,stimuli.xlsx,stimuli_new.xlsx,stimuli/Social1.png,stimuli/Social2.png,stimuli/Nonsocial1.png,stimuli/Nonsocial2.png,stimuli/Social3.png,stimuli/Social4.png,stimuli/Nonsocial3.png,stimuli/Nonsocial4.png,cs_neg_s,,,,,,,,,,0,0,0,0,0,0,0,0,,,,,,,,,,,,,,,,,,,,,,,,,,,,,,,,,,,,,12.077369899954647,167.04079370002728,176.80556030001026,7.0,11.896146100014448,,,,,,,,,,,,,,,,,,,,,,,,,,,,,,,,,44,A,2024-05-21_13h26.58.253,attentional_competition_task,2022.2.4,143.96733687095227,
positions.xlsx,positions_test.xlsx,positions_test_new.xlsx,stimuli.xlsx,stimuli_new.xlsx,stimuli/Social1.png,stimuli/Social2.png,stimuli/Nonsocial1.png,stimuli/Nonsocial2.png,stimuli/Social3.png,stimuli/Social4.png,stimuli/Nonsocial3.png,stimuli/Nonsocial4.png,cs_pos_ns,,,,,,,,,,0,0,0,0,0,1,1,3,,,,,,,,,,,,,,,,,,,,,,,,,,,,,,,,,,,,,,,189.62447549996432,6.0,6.158790800021961,,,,,,,,,,,,,,,,,,,,,,,,,,,,,,,,,44,A,2024-05-21_13h26.58.253,attentional_competition_task,2022.2.4,143.96733687095227,
positions.xlsx,positions_test.xlsx,positions_test_new.xlsx,stimuli.xlsx,stimuli_new.xlsx,stimuli/Social1.png,stimuli/Social2.png,stimuli/Nonsocial1.png,stimuli/Nonsocial2.png,stimuli/Social3.png,stimuli/Social4.png,stimuli/Nonsocial3.png,stimuli/Nonsocial4.png,cs_neg_ns,,,,,,,,,,0,0,0,0,0,2,2,1,,,,,,,,,,,,,,,,,,,,,,,,,,,,,,,,,,,,,,,195.95060590002686,6.0,2.5152534999651834,,,,,,,,,,,,,,,,,,,,,,,,,,,,,,,,,44,A,2024-05-21_13h26.58.253,attentional_competition_task,2022.2.4,143.96733687095227,
positions.xlsx,positions_test.xlsx,positions_test_new.xlsx,stimuli.xlsx,stimuli_new.xlsx,stimuli/Social1.png,stimuli/Social2.png,stimuli/Nonsocial1.png,stimuli/Nonsocial2.png,stimuli/Social3.png,stimuli/Social4.png,stimuli/Nonsocial3.png,stimuli/Nonsocial4.png,cs_pos_s,,,,,,,,,,0,0,0,0,0,3,3,2,,,,,,,,,,,,,,,,,,,,,,,,,,,,,,,,,,,,,,,198.5824433999369,7.0,4.53714020003099,,,,,,,,,,,,,,,,,,,,,,,,,,,,,,,,,44,A,2024-05-21_13h26.58.253,attentional_competition_task,2022.2.4,143.96733687095227,
positions.xlsx,positions_test.xlsx,positions_test_new.xlsx,stimuli.xlsx,stimuli_new.xlsx,stimuli/Social1.png,stimuli/Social2.png,stimuli/Nonsocial1.png,stimuli/Nonsocial2.png,stimuli/Social3.png,stimuli/Social4.png,stimuli/Nonsocial3.png,stimuli/Nonsocial4.png,,,,,,,,,,,0,0,0,0,,,,,0,0,0,0,,,,,,,,,,,,,,,,,,,,,,,,,,,,,,,,,,,,,,203.49888790003024,"[[0.0, -0.30000000000000004], [0.9, -0.8], [-0.9, -0.30000000000000004], [0.6749999999999999, 0.7], [-0.9, -0.8], [-0.22499999999999998, -0.30000000000000004], [0.0, 0.19999999999999996], [-0.675, 0.7], [-0.22499999999999998, -0.8], [-0.675, -0.8], [-0.675, -0.30000000000000004], [-0.45, 0.7], [0.9, 0.19999999999999996], [-0.9, 0.7], [0.45000000000000007, -0.30000000000000004]]","[[0.22499999999999998, -0.8], [-0.45, -0.8], [-0.22499999999999998, 0.7], [0.0, -0.8], [0.6749999999999999, -0.30000000000000004], [-0.22499999999999998, 0.19999999999999996], [0.9, -0.30000000000000004], [-0.675, 0.19999999999999996], [0.22499999999999998, 0.19999999999999996], [0.45000000000000007, 0.19999999999999996], [0.6749999999999999, 0.19999999999999996], [0.9, 0.7], [0.45000000000000007, -0.8], [0.0, 0.7], [0.45000000000000007, 0.7]]",,,,,,,,,,,,,,,,,,,,,,,,,,,,,,44,A,2024-05-21_13h26.58.253,attentional_competition_task,2022.2.4,143.96733687095227,
positions.xlsx,positions_test.xlsx,positions_test_new.xlsx,stimuli.xlsx,stimuli_new.xlsx,stimuli/Social1.png,stimuli/Social2.png,stimuli/Nonsocial1.png,stimuli/Nonsocial2.png,stimuli/Social3.png,stimuli/Social4.png,stimuli/Nonsocial3.png,stimuli/Nonsocial4.png,,,,,,,,,,,0,0,0,0,,,,,1,0,1,0,,,,,,,,,,,,,,,,,,,,,,,,,,,,,,,,,,,,,,,"[[0.22499999999999998, 0.19999999999999996], [-0.675, -0.30000000000000004], [-0.675, -0.8], [-0.22499999999999998, -0.8], [-0.45, -0.8], [-0.9, -0.8], [0.6749999999999999, -0.30000000000000004], [-0.9, 0.7], [0.0, 0.7], [0.45000000000000007, 0.7], [-0.675, 0.19999999999999996], [0.45000000000000007, -0.8], [-0.45, -0.30000000000000004], [0.45000000000000007, -0.30000000000000004], [-0.22499999999999998, 0.19999999999999996]]","[[-0.675, 0.7], [0.22499999999999998, 0.7], [0.0, -0.8], [-0.45, 0.19999999999999996], [0.9, 0.7], [0.6749999999999999, 0.7], [0.9, -0.30000000000000004], [-0.45, 0.7], [-0.22499999999999998, -0.30000000000000004], [0.0, -0.30000000000000004], [0.22499999999999998, -0.30000000000000004], [0.6749999999999999, 0.19999999999999996], [0.9, -0.8], [-0.22499999999999998, 0.7], [-0.9, -0.30000000000000004]]",,,,,,,,,,,,,,,,,,,,,,,,,,,,,,44,A,2024-05-21_13h26.58.253,attentional_competition_task,2022.2.4,143.96733687095227,
positions.xlsx,positions_test.xlsx,positions_test_new.xlsx,stimuli.xlsx,stimuli_new.xlsx,stimuli/Social1.png,stimuli/Social2.png,stimuli/Nonsocial1.png,stimuli/Nonsocial2.png,stimuli/Social3.png,stimuli/Social4.png,stimuli/Nonsocial3.png,stimuli/Nonsocial4.png,cs_pos_s,"(0.7, 0.5)",,,,,,,,,0,0,0,0,,,,,,,,,0,0,0,6,,,,,,,,,,,,,,,,,,,,,,,,,,,,,,,,,,,,,283.75257210002746,308.1960754999891,3,reward,1,0.36835440003778785,0.36835829995106906,308.57796879997477,,,,,,,,,,,,,,,,,,,,,,44,A,2024-05-21_13h26.58.253,attentional_competition_task,2022.2.4,143.96733687095227,
positions.xlsx,positions_test.xlsx,positions_test_new.xlsx,stimuli.xlsx,stimuli_new.xlsx,stimuli/Social1.png,stimuli/Social2.png,stimuli/Nonsocial1.png,stimuli/Nonsocial2.png,stimuli/Social3.png,stimuli/Social4.png,stimuli/Nonsocial3.png,stimuli/Nonsocial4.png,cs_neg_s,"(-0.7, -0.5)",,,,,,,,,0,0,0,0,,,,,,,,,0,1,1,1,,,,,,,,,,,,,,,,,,,,,,,,,,,,,,,,,,,,,,316.1540597999701,0,loss,1,0.256830400088802,0.25683399999979883,316.4179697999498,,,,,,,,,,,,,,,,,,,,,,44,A,2024-05-21_13h26.58.253,attentional_competition_task,2022.2.4,143.96733687095227,
positions.xlsx,positions_test.xlsx,positions_test_new.xlsx,stimuli.xlsx,stimuli_new.xlsx,stimuli/Social1.png,stimuli/Social2.png,stimuli/Nonsocial1.png,stimuli/Nonsocial2.png,stimuli/Social3.png,stimuli/Social4.png,stimuli/Nonsocial3.png,stimuli/Nonsocial4.png,cs_neg_s,"(-0.7, 0.5)",,,,,,,,,0,0,0,0,,,,,,,,,0,2,2,0,,,,,,,,,,,,,,,,,,,,,,,,,,,,,,,,,,,,,,324.33430300001055,-3,loss,1,0.24321410001721233,0.24321800004690886,324.58431229996495,,,,,,,,,,,,,,,,,,,,,,44,A,2024-05-21_13h26.58.253,attentional_competition_task,2022.2.4,143.96733687095227,
positions.xlsx,positions_test.xlsx,positions_test_new.xlsx,stimuli.xlsx,stimuli_new.xlsx,stimuli/Social1.png,stimuli/Social2.png,stimuli/Nonsocial1.png,stimuli/Nonsocial2.png,stimuli/Social3.png,stimuli/Social4.png,stimuli/Nonsocial3.png,stimuli/Nonsocial4.png,cs_neg_ns,"(-0.7, -0.5)",,,,,,,,,0,0,0,0,,,,,,,,,0,3,3,9,,,,,,,,,,,,,,,,,,,,,,,,,,,,,,,,,,,,,,332.07704000000376,-6,loss,1,0.4868348999880254,0.4868391000200063,332.57008490001317,,,,,,,,,,,,,,,,,,,,,,44,A,2024-05-21_13h26.58.253,attentional_competition_task,2022.2.4,143.96733687095227,
positions.xlsx,positions_test.xlsx,positions_test_new.xlsx,stimuli.xlsx,stimuli_new.xlsx,stimuli/Social1.png,stimuli/Social2.png,stimuli/Nonsocial1.png,stimuli/Nonsocial2.png,stimuli/Social3.png,stimuli/Social4.png,stimuli/Nonsocial3.png,stimuli/Nonsocial4.png,cs_neg_ns,"(-0.7, 0.5)",,,,,,,,,0,0,0,0,,,,,,,,,0,4,4,8,,,,,,,,,,,,,,,,,,,,,,,,,,,,,,,,,,,,,,340.03505599999335,-9,loss,1,0.5138437999412417,0.5138478999724612,340.555869899923,,,,,,,,,,,,,,,,,,,,,,44,A,2024-05-21_13h26.58.253,attentional_competition_task,2022.2.4,143.96733687095227,
positions.xlsx,positions_test.xlsx,positions_test_new.xlsx,stimuli.xlsx,stimuli_new.xlsx,stimuli/Social1.png,stimuli/Social2.png,stimuli/Nonsocial1.png,stimuli/Nonsocial2.png,stimuli/Social3.png,stimuli/Social4.png,stimuli/Nonsocial3.png,stimuli/Nonsocial4.png,cs_neg_s,"(0.7, 0.5)",,,,,,,,,0,0,0,0,,,,,,,,,0,5,5,2,,,,,,,,,,,,,,,,,,,,,,,,,,,,,,,,,,,,,,348.19446010002866,-12,loss,1,0.31958939996547997,0.31959299999289215,348.52081829996314,,,,,,,,,,,,,,,,,,,,,,44,A,2024-05-21_13h26.58.253,attentional_competition_task,2022.2.4,143.96733687095227,
positions.xlsx,positions_test.xlsx,positions_test_new.xlsx,stimuli.xlsx,stimuli_new.xlsx,stimuli/Social1.png,stimuli/Social2.png,stimuli/Nonsocial1.png,stimuli/Nonsocial2.png,stimuli/Social3.png,stimuli/Social4.png,stimuli/Nonsocial3.png,stimuli/Nonsocial4.png,cs_pos_s,"(-0.7, 0.5)",,,,,,,,,0,0,0,0,,,,,,,,,0,6,6,4,,,,,,,,,,,,,,,,,,,,,,,,,,,,,,,,,,,,,,355.8885848999489,-9,reward,1,0.6320716000627726,0.6320754999760538,356.5274820999475,,,,,,,,,,,,,,,,,,,,,,44,A,2024-05-21_13h26.58.253,attentional_competition_task,2022.2.4,143.96733687095227,
positions.xlsx,positions_test.xlsx,positions_test_new.xlsx,stimuli.xlsx,stimuli_new.xlsx,stimuli/Social1.png,stimuli/Social2.png,stimuli/Nonsocial1.png,stimuli/Nonsocial2.png,stimuli/Social3.png,stimuli/Social4.png,stimuli/Nonsocial3.png,stimuli/Nonsocial4.png,cs_pos_ns,"(-0.7, -0.5)",,,,,,,,,0,0,0,0,,,,,,,,,0,7,7,13,,,,,,,,,,,,,,,,,,,,,,,,,,,,,,,,,,,,,,364.4021284999326,-6,reward,1,0.5485876000020653,0.555601799977012,364.96463279996533,,,,,,,,,,,,,,,,,,,,,,44,A,2024-05-21_13h26.58.253,attentional_competition_task,2022.2.4,143.96733687095227,
positions.xlsx,positions_test.xlsx,positions_test_new.xlsx,stimuli.xlsx,stimuli_new.xlsx,stimuli/Social1.png,stimuli/Social2.png,stimuli/Nonsocial1.png,stimuli/Nonsocial2.png,stimuli/Social3.png,stimuli/Social4.png,stimuli/Nonsocial3.png,stimuli/Nonsocial4.png,cs_neg_s,"(0.7, -0.5)",,,,,,,,,0,0,0,0,,,,,,,,,0,8,8,3,,,,,,,,,,,,,,,,,,,,,,,,,,,,,,,,,,,,,,372.4642974999733,-9,loss,1,1.2640222000190988,1.2640259000472724,373.7350823000306,,,,,,,,,,,,,,,,,,,,,,44,A,2024-05-21_13h26.58.253,attentional_competition_task,2022.2.4,143.96733687095227,
positions.xlsx,positions_test.xlsx,positions_test_new.xlsx,stimuli.xlsx,stimuli_new.xlsx,stimuli/Social1.png,stimuli/Social2.png,stimuli/Nonsocial1.png,stimuli/Nonsocial2.png,stimuli/Social3.png,stimuli/Social4.png,stimuli/Nonsocial3.png,stimuli/Nonsocial4.png,cs_neg_ns,"(0.7, 0.5)",,,,,,,,,0,0,0,0,,,,,,,,,0,9,9,10,,,,,,,,,,,,,,,,,,,,,,,,,,,,,,,,,,,,,,381.90836320002563,-12,loss,1,0.8477970999665558,0.8478012999985367,382.7625231000129,,,,,,,,,,,,,,,,,,,,,,44,A,2024-05-21_13h26.58.253,attentional_competition_task,2022.2.4,143.96733687095227,
positions.xlsx,positions_test.xlsx,positions_test_new.xlsx,stimuli.xlsx,stimuli_new.xlsx,stimuli/Social1.png,stimuli/Social2.png,stimuli/Nonsocial1.png,stimuli/Nonsocial2.png,stimuli/Social3.png,stimuli/Social4.png,stimuli/Nonsocial3.png,stimuli/Nonsocial4.png,cs_pos_ns,"(0.7, 0.5)",,,,,,,,,0,0,0,0,,,,,,,,,0,10,10,14,,,,,,,,,,,,,,,,,,,,,,,,,,,,,,,,,,,,,,390.4982988999691,-9,reward,1,0.6595955999800935,0.6595993000082672,391.1649736999534,,,,,,,,,,,,,,,,,,,,,,44,A,2024-05-21_13h26.58.253,attentional_competition_task,2022.2.4,143.96733687095227,
positions.xlsx,positions_test.xlsx,positions_test_new.xlsx,stimuli.xlsx,stimuli_new.xlsx,stimuli/Social1.png,stimuli/Social2.png,stimuli/Nonsocial1.png,stimuli/Nonsocial2.png,stimuli/Social3.png,stimuli/Social4.png,stimuli/Nonsocial3.png,stimuli/Nonsocial4.png,cs_neg_ns,"(0.7, -0.5)",,,,,,,,,0,0,0,0,,,,,,,,,0,11,11,11,,,,,,,,,,,,,,,,,,,,,,,,,,,,,,,,,,,,,,398.4910437000217,-12,loss,1,0.8127133999951184,0.812717100023292,399.31047219992615,,,,,,,,,,,,,,,,,,,,,,44,A,2024-05-21_13h26.58.253,attentional_competition_task,2022.2.4,143.96733687095227,
positions.xlsx,positions_test.xlsx,positions_test_new.xlsx,stimuli.xlsx,stimuli_new.xlsx,stimuli/Social1.png,stimuli/Social2.png,stimuli/Nonsocial1.png,stimuli/Nonsocial2.png,stimuli/Social3.png,stimuli/Social4.png,stimuli/Nonsocial3.png,stimuli/Nonsocial4.png,cs_pos_s,"(0.7, -0.5)",,,,,,,,,0,0,0,0,,,,,,,,,0,12,12,7,,,,,,,,,,,,,,,,,,,,,,,,,,,,,,,,,,,,,,406.9559583000373,-9,reward,1,0.639176799915731,0.6391801999416202,407.60178359993733,,,,,,,,,,,,,,,,,,,,,,44,A,2024-05-21_13h26.58.253,attentional_competition_task,2022.2.4,143.96733687095227,
positions.xlsx,positions_test.xlsx,positions_test_new.xlsx,stimuli.xlsx,stimuli_new.xlsx,stimuli/Social1.png,stimuli/Social2.png,stimuli/Nonsocial1.png,stimuli/Nonsocial2.png,stimuli/Social3.png,stimuli/Social4.png,stimuli/Nonsocial3.png,stimuli/Nonsocial4.png,cs_pos_ns,"(0.7, -0.5)",,,,,,,,,0,0,0,0,,,,,,,,,0,13,13,15,,,,,,,,,,,,,,,,,,,,,,,,,,,,,,,,,,,,,,414.5390238999389,-6,reward,1,0.7987101000035182,0.7987140000332147,415.34449909999967,,,,,,,,,,,,,,,,,,,,,,44,A,2024-05-21_13h26.58.253,attentional_competition_task,2022.2.4,143.96733687095227,
positions.xlsx,positions_test.xlsx,positions_test_new.xlsx,stimuli.xlsx,stimuli_new.xlsx,stimuli/Social1.png,stimuli/Social2.png,stimuli/Nonsocial1.png,stimuli/Nonsocial2.png,stimuli/Social3.png,stimuli/Social4.png,stimuli/Nonsocial3.png,stimuli/Nonsocial4.png,cs_pos_ns,"(-0.7, 0.5)",,,,,,,,,0,0,0,0,,,,,,,,,0,14,14,12,,,,,,,,,,,,,,,,,,,,,,,,,,,,,,,,,,,,,,422.4136814000085,-3,reward,1,1.5557273000013083,1.5557311000302434,423.9761301999679,,,,,,,,,,,,,,,,,,,,,,44,A,2024-05-21_13h26.58.253,attentional_competition_task,2022.2.4,143.96733687095227,
positions.xlsx,positions_test.xlsx,positions_test_new.xlsx,stimuli.xlsx,stimuli_new.xlsx,stimuli/Social1.png,stimuli/Social2.png,stimuli/Nonsocial1.png,stimuli/Nonsocial2.png,stimuli/Social3.png,stimuli/Social4.png,stimuli/Nonsocial3.png,stimuli/Nonsocial4.png,cs_pos_s,"(-0.7, -0.5)",,,,,,,,,0,0,0,0,,,,,,,,,0,15,15,5,,,,,,,,,,,,,,,,,,,,,,,,,,,,,,,,,,,,,,431.71883679996245,0,reward,1,0.7642278999555856,0.7642320999875665,432.48967999999877,,,,,,,,,,,,,,,,,,,,,,44,A,2024-05-21_13h26.58.253,attentional_competition_task,2022.2.4,143.96733687095227,
positions.xlsx,positions_test.xlsx,positions_test_new.xlsx,stimuli.xlsx,stimuli_new.xlsx,stimuli/Social1.png,stimuli/Social2.png,stimuli/Nonsocial1.png,stimuli/Nonsocial2.png,stimuli/Social3.png,stimuli/Social4.png,stimuli/Nonsocial3.png,stimuli/Nonsocial4.png,cs_pos_s,"(0.7, 0.5)",,,,,,,,,0,0,0,0,,,,,,,,,1,0,16,6,,,,,,,,,,,,,,,,,,,,,,,,,,,,,,,,,,,,,,440.4060152999591,3,reward,1,0.6260419000172988,0.632273800089024,441.0448824999621,,,,,,,,,,,,,,,,,,,,,,44,A,2024-05-21_13h26.58.253,attentional_competition_task,2022.2.4,143.96733687095227,
positions.xlsx,positions_test.xlsx,positions_test_new.xlsx,stimuli.xlsx,stimuli_new.xlsx,stimuli/Social1.png,stimuli/Social2.png,stimuli/Nonsocial1.png,stimuli/Nonsocial2.png,stimuli/Social3.png,stimuli/Social4.png,stimuli/Nonsocial3.png,stimuli/Nonsocial4.png,cs_pos_s,"(-0.7, 0.5)",,,,,,,,,0,0,0,0,,,,,,,,,1,1,17,4,,,,,,,,,,,,,,,,,,,,,,,,,,,,,,,,,,,,,,449.0515213999897,6,reward,1,0.7162226000800729,0.716226699994877,449.77369870000985,,,,,,,,,,,,,,,,,,,,,,44,A,2024-05-21_13h26.58.253,attentional_competition_task,2022.2.4,143.96733687095227,
positions.xlsx,positions_test.xlsx,positions_test_new.xlsx,stimuli.xlsx,stimuli_new.xlsx,stimuli/Social1.png,stimuli/Social2.png,stimuli/Nonsocial1.png,stimuli/Nonsocial2.png,stimuli/Social3.png,stimuli/Social4.png,stimuli/Nonsocial3.png,stimuli/Nonsocial4.png,cs_neg_s,"(-0.7, -0.5)",,,,,,,,,0,0,0,0,,,,,,,,,1,2,18,1,,,,,,,,,,,,,,,,,,,,,,,,,,,,,,,,,,,,,,456.91925339994486,6,none,0,,,459.92607219994534,,,,,,,,,,,,,,,,,,,,,,44,A,2024-05-21_13h26.58.253,attentional_competition_task,2022.2.4,143.96733687095227,
positions.xlsx,positions_test.xlsx,positions_test_new.xlsx,stimuli.xlsx,stimuli_new.xlsx,stimuli/Social1.png,stimuli/Social2.png,stimuli/Nonsocial1.png,stimuli/Nonsocial2.png,stimuli/Social3.png,stimuli/Social4.png,stimuli/Nonsocial3.png,stimuli/Nonsocial4.png,cs_neg_s,"(0.7, -0.5)",,,,,,,,,0,0,0,0,,,,,,,,,1,3,19,3,,,,,,,,,,,,,,,,,,,,,,,,,,,,,,,,,,,,,,467.189646899933,3,loss,1,0.6113283999729902,0.6113321000011638,467.80767000000924,,,,,,,,,,,,,,,,,,,,,,44,A,2024-05-21_13h26.58.253,attentional_competition_task,2022.2.4,143.96733687095227,
positions.xlsx,positions_test.xlsx,positions_test_new.xlsx,stimuli.xlsx,stimuli_new.xlsx,stimuli/Social1.png,stimuli/Social2.png,stimuli/Nonsocial1.png,stimuli/Nonsocial2.png,stimuli/Social3.png,stimuli/Social4.png,stimuli/Nonsocial3.png,stimuli/Nonsocial4.png,cs_pos_s,"(0.7, -0.5)",,,,,,,,,0,0,0,0,,,,,,,,,1,4,20,7,,,,,,,,,,,,,,,,,,,,,,,,,,,,,,,,,,,,,,475.6754155999515,6,reward,1,0.597431099973619,0.5974349000025541,476.2795864000218,,,,,,,,,,,,,,,,,,,,,,44,A,2024-05-21_13h26.58.253,attentional_competition_task,2022.2.4,143.96733687095227,
positions.xlsx,positions_test.xlsx,positions_test_new.xlsx,stimuli.xlsx,stimuli_new.xlsx,stimuli/Social1.png,stimuli/Social2.png,stimuli/Nonsocial1.png,stimuli/Nonsocial2.png,stimuli/Social3.png,stimuli/Social4.png,stimuli/Nonsocial3.png,stimuli/Nonsocial4.png,cs_pos_ns,"(-0.7, -0.5)",,,,,,,,,0,0,0,0,,,,,,,,,1,5,21,13,,,,,,,,,,,,,,,,,,,,,,,,,,,,,,,,,,,,,,484.00841110001784,9,reward,1,1.2639541999669746,1.2639581999974325,485.2792264999589,,,,,,,,,,,,,,,,,,,,,,44,A,2024-05-21_13h26.58.253,attentional_competition_task,2022.2.4,143.96733687095227,
positions.xlsx,positions_test.xlsx,positions_test_new.xlsx,stimuli.xlsx,stimuli_new.xlsx,stimuli/Social1.png,stimuli/Social2.png,stimuli/Nonsocial1.png,stimuli/Nonsocial2.png,stimuli/Social3.png,stimuli/Social4.png,stimuli/Nonsocial3.png,stimuli/Nonsocial4.png,cs_pos_s,"(-0.7, -0.5)",,,,,,,,,0,0,0,0,,,,,,,,,1,6,22,5,,,,,,,,,,,,,,,,,,,,,,,,,,,,,,,,,,,,,,492.0567293999484,12,reward,1,0.7639697000849992,0.763973499997519,492.8275468000211,,,,,,,,,,,,,,,,,,,,,,44,A,2024-05-21_13h26.58.253,attentional_competition_task,2022.2.4,143.96733687095227,
positions.xlsx,positions_test.xlsx,positions_test_new.xlsx,stimuli.xlsx,stimuli_new.xlsx,stimuli/Social1.png,stimuli/Social2.png,stimuli/Nonsocial1.png,stimuli/Nonsocial2.png,stimuli/Social3.png,stimuli/Social4.png,stimuli/Nonsocial3.png,stimuli/Nonsocial4.png,cs_pos_ns,"(0.7, 0.5)",,,,,,,,,0,0,0,0,,,,,,,,,1,7,23,14,,,,,,,,,,,,,,,,,,,,,,,,,,,,,,,,,,,,,,499.5702993000159,15,reward,1,0.8062022000085562,0.8062062000390142,500.3828246999765,,,,,,,,,,,,,,,,,,,,,,44,A,2024-05-21_13h26.58.253,attentional_competition_task,2022.2.4,143.96733687095227,
positions.xlsx,positions_test.xlsx,positions_test_new.xlsx,stimuli.xlsx,stimuli_new.xlsx,stimuli/Social1.png,stimuli/Social2.png,stimuli/Nonsocial1.png,stimuli/Nonsocial2.png,stimuli/Social3.png,stimuli/Social4.png,stimuli/Nonsocial3.png,stimuli/Nonsocial4.png,cs_neg_ns,"(0.7, 0.5)",,,,,,,,,0,0,0,0,,,,,,,,,1,8,24,10,,,,,,,,,,,,,,,,,,,,,,,,,,,,,,,,,,,,,,507.60473100002855,15,none,0,,,510.61848249996547,,,,,,,,,,,,,,,,,,,,,,44,A,2024-05-21_13h26.58.253,attentional_competition_task,2022.2.4,143.96733687095227,
positions.xlsx,positions_test.xlsx,positions_test_new.xlsx,stimuli.xlsx,stimuli_new.xlsx,stimuli/Social1.png,stimuli/Social2.png,stimuli/Nonsocial1.png,stimuli/Nonsocial2.png,stimuli/Social3.png,stimuli/Social4.png,stimuli/Nonsocial3.png,stimuli/Nonsocial4.png,cs_neg_ns,"(-0.7, -0.5)",,,,,,,,,0,0,0,0,,,,,,,,,1,9,25,9,,,,,,,,,,,,,,,,,,,,,,,,,,,,,,,,,,,,,,518.4931797999889,15,none,0,,,521.5485780999297,,,,,,,,,,,,,,,,,,,,,,44,A,2024-05-21_13h26.58.253,attentional_competition_task,2022.2.4,143.96733687095227,
positions.xlsx,positions_test.xlsx,positions_test_new.xlsx,stimuli.xlsx,stimuli_new.xlsx,stimuli/Social1.png,stimuli/Social2.png,stimuli/Nonsocial1.png,stimuli/Nonsocial2.png,stimuli/Social3.png,stimuli/Social4.png,stimuli/Nonsocial3.png,stimuli/Nonsocial4.png,cs_neg_s,"(-0.7, 0.5)",,,,,,,,,0,0,0,0,,,,,,,,,1,10,26,0,,,,,,,,,,,,,,,,,,,,,,,,,,,,,,,,,,,,,,528.8885716999648,15,none,0,,,531.8954022999387,,,,,,,,,,,,,,,,,,,,,,44,A,2024-05-21_13h26.58.253,attentional_competition_task,2022.2.4,143.96733687095227,
positions.xlsx,positions_test.xlsx,positions_test_new.xlsx,stimuli.xlsx,stimuli_new.xlsx,stimuli/Social1.png,stimuli/Social2.png,stimuli/Nonsocial1.png,stimuli/Nonsocial2.png,stimuli/Social3.png,stimuli/Social4.png,stimuli/Nonsocial3.png,stimuli/Nonsocial4.png,cs_pos_ns,"(-0.7, 0.5)",,,,,,,,,0,0,0,0,,,,,,,,,1,11,27,12,,,,,,,,,,,,,,,,,,,,,,,,,,,,,,,,,,,,,,538.7006792000029,18,reward,1,0.854384999955073,0.8543884999817237,539.5617971000029,,,,,,,,,,,,,,,,,,,,,,44,A,2024-05-21_13h26.58.253,attentional_competition_task,2022.2.4,143.96733687095227,
positions.xlsx,positions_test.xlsx,positions_test_new.xlsx,stimuli.xlsx,stimuli_new.xlsx,stimuli/Social1.png,stimuli/Social2.png,stimuli/Nonsocial1.png,stimuli/Nonsocial2.png,stimuli/Social3.png,stimuli/Social4.png,stimuli/Nonsocial3.png,stimuli/Nonsocial4.png,cs_pos_ns,"(0.7, -0.5)",,,,,,,,,0,0,0,0,,,,,,,,,1,12,28,15,,,,,,,,,,,,,,,,,,,,,,,,,,,,,,,,,,,,,,547.6100527999224,21,reward,1,0.6946088999975473,0.6946128999115899,548.3114684999455,,,,,,,,,,,,,,,,,,,,,,44,A,2024-05-21_13h26.58.253,attentional_competition_task,2022.2.4,143.96733687095227,
positions.xlsx,positions_test.xlsx,positions_test_new.xlsx,stimuli.xlsx,stimuli_new.xlsx,stimuli/Social1.png,stimuli/Social2.png,stimuli/Nonsocial1.png,stimuli/Nonsocial2.png,stimuli/Social3.png,stimuli/Social4.png,stimuli/Nonsocial3.png,stimuli/Nonsocial4.png,cs_neg_s,"(0.7, 0.5)",,,,,,,,,0,0,0,0,,,,,,,,,1,13,29,2,,,,,,,,,,,,,,,,,,,,,,,,,,,,,,,,,,,,,,555.3389122999506,21,none,0,,,558.3527566000121,,,,,,,,,,,,,,,,,,,,,,44,A,2024-05-21_13h26.58.253,attentional_competition_task,2022.2.4,143.96733687095227,
positions.xlsx,positions_test.xlsx,positions_test_new.xlsx,stimuli.xlsx,stimuli_new.xlsx,stimuli/Social1.png,stimuli/Social2.png,stimuli/Nonsocial1.png,stimuli/Nonsocial2.png,stimuli/Social3.png,stimuli/Social4.png,stimuli/Nonsocial3.png,stimuli/Nonsocial4.png,cs_neg_ns,"(-0.7, 0.5)",,,,,,,,,0,0,0,0,,,,,,,,,1,14,30,8,,,,,,,,,,,,,,,,,,,,,,,,,,,,,,,,,,,,,,566.102360800025,21,none,0,,,569.1161584999645,,,,,,,,,,,,,,,,,,,,,,44,A,2024-05-21_13h26.58.253,attentional_competition_task,2022.2.4,143.96733687095227,
positions.xlsx,positions_test.xlsx,positions_test_new.xlsx,stimuli.xlsx,stimuli_new.xlsx,stimuli/Social1.png,stimuli/Social2.png,stimuli/Nonsocial1.png,stimuli/Nonsocial2.png,stimuli/Social3.png,stimuli/Social4.png,stimuli/Nonsocial3.png,stimuli/Nonsocial4.png,cs_neg_ns,"(0.7, -0.5)",,,,,,,,,0,0,0,0,,,,,,,,,1,15,31,11,,,,,,,,,,,,,,,,,,,,,,,,,,,,,,,,,,,,,,576.7478012000211,21,none,0,,,579.7615584000014,,,,,,,,,,,,,,,,,,,,,,44,A,2024-05-21_13h26.58.253,attentional_competition_task,2022.2.4,143.96733687095227,
positions.xlsx,positions_test.xlsx,positions_test_new.xlsx,stimuli.xlsx,stimuli_new.xlsx,stimuli/Social1.png,stimuli/Social2.png,stimuli/Nonsocial1.png,stimuli/Nonsocial2.png,stimuli/Social3.png,stimuli/Social4.png,stimuli/Nonsocial3.png,stimuli/Nonsocial4.png,cs_neg_ns,"(-0.7, -0.5)",,,,,,,,,0,0,0,0,,,,,,,,,,,,,0,0,0,9,,,,,,,,,,,,,,,,,,,,,,,,,,,,,,,,,,596.7678397999844,18,loss,1,2.062543599982746,2.0625471000093967,598.837207900011,,,,,,,,,,,,,,,,,,,,,,44,A,2024-05-21_13h26.58.253,attentional_competition_task,2022.2.4,143.96733687095227,
positions.xlsx,positions_test.xlsx,positions_test_new.xlsx,stimuli.xlsx,stimuli_new.xlsx,stimuli/Social1.png,stimuli/Social2.png,stimuli/Nonsocial1.png,stimuli/Nonsocial2.png,stimuli/Social3.png,stimuli/Social4.png,stimuli/Nonsocial3.png,stimuli/Nonsocial4.png,cs_pos_s,"(0.7, -0.5)",,,,,,,,,0,0,0,0,,,,,,,,,,,,,0,1,1,7,,,,,,,,,,,,,,,,,,,,,,,,,,,,,,,,,,606.427184500033,21,reward,1,0.631986299995333,0.6319900000235066,607.0660499000223,,,,,,,,,,,,,,,,,,,,,,44,A,2024-05-21_13h26.58.253,attentional_competition_task,2022.2.4,143.96733687095227,
positions.xlsx,positions_test.xlsx,positions_test_new.xlsx,stimuli.xlsx,stimuli_new.xlsx,stimuli/Social1.png,stimuli/Social2.png,stimuli/Nonsocial1.png,stimuli/Nonsocial2.png,stimuli/Social3.png,stimuli/Social4.png,stimuli/Nonsocial3.png,stimuli/Nonsocial4.png,cs_pos_ns,"(-0.7, 0.5)",,,,,,,,,0,0,0,0,,,,,,,,,,,,,0,2,2,12,,,,,,,,,,,,,,,,,,,,,,,,,,,,,,,,,,614.621315299999,24,reward,1,0.8060789000010118,0.8060826000291854,615.4337372999871,,,,,,,,,,,,,,,,,,,,,,44,A,2024-05-21_13h26.58.253,attentional_competition_task,2022.2.4,143.96733687095227,
positions.xlsx,positions_test.xlsx,positions_test_new.xlsx,stimuli.xlsx,stimuli_new.xlsx,stimuli/Social1.png,stimuli/Social2.png,stimuli/Nonsocial1.png,stimuli/Nonsocial2.png,stimuli/Social3.png,stimuli/Social4.png,stimuli/Nonsocial3.png,stimuli/Nonsocial4.png,cs_pos_s,"(-0.7, -0.5)",,,,,,,,,0,0,0,0,,,,,,,,,,,,,0,3,3,5,,,,,,,,,,,,,,,,,,,,,,,,,,,,,,,,,,623.0029249000363,27,reward,1,0.771100299898535,0.7711043999297544,623.7806524999905,,,,,,,,,,,,,,,,,,,,,,44,A,2024-05-21_13h26.58.253,attentional_competition_task,2022.2.4,143.96733687095227,
positions.xlsx,positions_test.xlsx,positions_test_new.xlsx,stimuli.xlsx,stimuli_new.xlsx,stimuli/Social1.png,stimuli/Social2.png,stimuli/Nonsocial1.png,stimuli/Nonsocial2.png,stimuli/Social3.png,stimuli/Social4.png,stimuli/Nonsocial3.png,stimuli/Nonsocial4.png,cs_neg_ns,"(-0.7, 0.5)",,,,,,,,,0,0,0,0,,,,,,,,,,,,,0,4,4,8,,,,,,,,,,,,,,,,,,,,,,,,,,,,,,,,,,631.0719880999532,27,none,0,,,634.0858078999445,,,,,,,,,,,,,,,,,,,,,,44,A,2024-05-21_13h26.58.253,attentional_competition_task,2022.2.4,143.96733687095227,
positions.xlsx,positions_test.xlsx,positions_test_new.xlsx,stimuli.xlsx,stimuli_new.xlsx,stimuli/Social1.png,stimuli/Social2.png,stimuli/Nonsocial1.png,stimuli/Nonsocial2.png,stimuli/Social3.png,stimuli/Social4.png,stimuli/Nonsocial3.png,stimuli/Nonsocial4.png,cs_pos_s,"(-0.7, 0.5)",,,,,,,,,0,0,0,0,,,,,,,,,,,,,0,5,5,4,,,,,,,,,,,,,,,,,,,,,,,,,,,,,,,,,,641.0368852999527,30,reward,1,0.7018664999632165,0.7018705999944359,641.7452427999815,,,,,,,,,,,,,,,,,,,,,,44,A,2024-05-21_13h26.58.253,attentional_competition_task,2022.2.4,143.96733687095227,
positions.xlsx,positions_test.xlsx,positions_test_new.xlsx,stimuli.xlsx,stimuli_new.xlsx,stimuli/Social1.png,stimuli/Social2.png,stimuli/Nonsocial1.png,stimuli/Nonsocial2.png,stimuli/Social3.png,stimuli/Social4.png,stimuli/Nonsocial3.png,stimuli/Nonsocial4.png,cs_neg_ns,"(0.7, -0.5)",,,,,,,,,0,0,0,0,,,,,,,,,,,,,0,6,6,11,,,,,,,,,,,,,,,,,,,,,,,,,,,,,,,,,,648.7657722999575,30,none,0,,,651.7795493999729,,,,,,,,,,,,,,,,,,,,,,44,A,2024-05-21_13h26.58.253,attentional_competition_task,2022.2.4,143.96733687095227,
positions.xlsx,positions_test.xlsx,positions_test_new.xlsx,stimuli.xlsx,stimuli_new.xlsx,stimuli/Social1.png,stimuli/Social2.png,stimuli/Nonsocial1.png,stimuli/Nonsocial2.png,stimuli/Social3.png,stimuli/Social4.png,stimuli/Nonsocial3.png,stimuli/Nonsocial4.png,cs_neg_s,"(0.7, 0.5)",,,,,,,,,0,0,0,0,,,,,,,,,,,,,0,7,7,2,,,,,,,,,,,,,,,,,,,,,,,,,,,,,,,,,,659.494510199991,30,none,0,,,662.5013055999298,,,,,,,,,,,,,,,,,,,,,,44,A,2024-05-21_13h26.58.253,attentional_competition_task,2022.2.4,143.96733687095227,
positions.xlsx,positions_test.xlsx,positions_test_new.xlsx,stimuli.xlsx,stimuli_new.xlsx,stimuli/Social1.png,stimuli/Social2.png,stimuli/Nonsocial1.png,stimuli/Nonsocial2.png,stimuli/Social3.png,stimuli/Social4.png,stimuli/Nonsocial3.png,stimuli/Nonsocial4.png,cs_pos_s,"(0.7, 0.5)",,,,,,,,,0,0,0,0,,,,,,,,,,,,,0,8,8,6,,,,,,,,,,,,,,,,,,,,,,,,,,,,,,,,,,670.3621797999367,33,reward,1,0.8122062000911683,0.8122101000044495,671.1815438999329,,,,,,,,,,,,,,,,,,,,,,44,A,2024-05-21_13h26.58.253,attentional_competition_task,2022.2.4,143.96733687095227,
positions.xlsx,positions_test.xlsx,positions_test_new.xlsx,stimuli.xlsx,stimuli_new.xlsx,stimuli/Social1.png,stimuli/Social2.png,stimuli/Nonsocial1.png,stimuli/Nonsocial2.png,stimuli/Social3.png,stimuli/Social4.png,stimuli/Nonsocial3.png,stimuli/Nonsocial4.png,cs_neg_s,"(-0.7, 0.5)",,,,,,,,,0,0,0,0,,,,,,,,,,,,,0,9,9,0,,,,,,,,,,,,,,,,,,,,,,,,,,,,,,,,,,678.76454559993,33,none,0,,,681.7783142999979,,,,,,,,,,,,,,,,,,,,,,44,A,2024-05-21_13h26.58.253,attentional_competition_task,2022.2.4,143.96733687095227,
positions.xlsx,positions_test.xlsx,positions_test_new.xlsx,stimuli.xlsx,stimuli_new.xlsx,stimuli/Social1.png,stimuli/Social2.png,stimuli/Nonsocial1.png,stimuli/Nonsocial2.png,stimuli/Social3.png,stimuli/Social4.png,stimuli/Nonsocial3.png,stimuli/Nonsocial4.png,cs_pos_ns,"(0.7, -0.5)",,,,,,,,,0,0,0,0,,,,,,,,,,,,,0,10,10,15,,,,,,,,,,,,,,,,,,,,,,,,,,,,,,,,,,689.4377513999352,36,reward,1,0.8473231999669224,0.8473271999973804,690.2918842999497,,,,,,,,,,,,,,,,,,,,,,44,A,2024-05-21_13h26.58.253,attentional_competition_task,2022.2.4,143.96733687095227,
positions.xlsx,positions_test.xlsx,positions_test_new.xlsx,stimuli.xlsx,stimuli_new.xlsx,stimuli/Social1.png,stimuli/Social2.png,stimuli/Nonsocial1.png,stimuli/Nonsocial2.png,stimuli/Social3.png,stimuli/Social4.png,stimuli/Nonsocial3.png,stimuli/Nonsocial4.png,cs_neg_s,"(0.7, -0.5)",,,,,,,,,0,0,0,0,,,,,,,,,,,,,0,11,11,3,,,,,,,,,,,,,,,,,,,,,,,,,,,,,,,,,,697.8540855000028,36,none,0,,,700.8608820999507,,,,,,,,,,,,,,,,,,,,,,44,A,2024-05-21_13h26.58.253,attentional_competition_task,2022.2.4,143.96733687095227,
positions.xlsx,positions_test.xlsx,positions_test_new.xlsx,stimuli.xlsx,stimuli_new.xlsx,stimuli/Social1.png,stimuli/Social2.png,stimuli/Nonsocial1.png,stimuli/Nonsocial2.png,stimuli/Social3.png,stimuli/Social4.png,stimuli/Nonsocial3.png,stimuli/Nonsocial4.png,cs_pos_ns,"(0.7, 0.5)",,,,,,,,,0,0,0,0,,,,,,,,,,,,,0,12,12,14,,,,,,,,,,,,,,,,,,,,,,,,,,,,,,,,,,707.7217542999424,39,reward,1,0.653113599983044,0.6531176000135019,708.3814256000333,,,,,,,,,,,,,,,,,,,,,,44,A,2024-05-21_13h26.58.253,attentional_competition_task,2022.2.4,143.96733687095227,
positions.xlsx,positions_test.xlsx,positions_test_new.xlsx,stimuli.xlsx,stimuli_new.xlsx,stimuli/Social1.png,stimuli/Social2.png,stimuli/Nonsocial1.png,stimuli/Nonsocial2.png,stimuli/Social3.png,stimuli/Social4.png,stimuli/Nonsocial3.png,stimuli/Nonsocial4.png,cs_pos_ns,"(-0.7, -0.5)",,,,,,,,,0,0,0,0,,,,,,,,,,,,,0,13,13,13,,,,,,,,,,,,,,,,,,,,,,,,,,,,,,,,,,716.3533460999606,42,reward,1,0.6810074999229982,0.6810114999534562,717.040810400038,,,,,,,,,,,,,,,,,,,,,,44,A,2024-05-21_13h26.58.253,attentional_competition_task,2022.2.4,143.96733687095227,
positions.xlsx,positions_test.xlsx,positions_test_new.xlsx,stimuli.xlsx,stimuli_new.xlsx,stimuli/Social1.png,stimuli/Social2.png,stimuli/Nonsocial1.png,stimuli/Nonsocial2.png,stimuli/Social3.png,stimuli/Social4.png,stimuli/Nonsocial3.png,stimuli/Nonsocial4.png,cs_neg_s,"(-0.7, -0.5)",,,,,,,,,0,0,0,0,,,,,,,,,,,,,0,14,14,1,,,,,,,,,,,,,,,,,,,,,,,,,,,,,,,,,,724.1586091000354,39,loss,1,0.4792042999761179,0.4792083000065759,724.6447192999767,,,,,,,,,,,,,,,,,,,,,,44,A,2024-05-21_13h26.58.253,attentional_competition_task,2022.2.4,143.96733687095227,
positions.xlsx,positions_test.xlsx,positions_test_new.xlsx,stimuli.xlsx,stimuli_new.xlsx,stimuli/Social1.png,stimuli/Social2.png,stimuli/Nonsocial1.png,stimuli/Nonsocial2.png,stimuli/Social3.png,stimuli/Social4.png,stimuli/Nonsocial3.png,stimuli/Nonsocial4.png,cs_neg_ns,"(0.7, 0.5)",,,,,,,,,0,0,0,0,,,,,,,,,,,,,0,15,15,10,,,,,,,,,,,,,,,,,,,,,,,,,,,,,,,,,,732.3874318000162,39,none,0,,,735.4012229000218,,,,,,,,,,,,,,,,,,,,,,44,A,2024-05-21_13h26.58.253,attentional_competition_task,2022.2.4,143.96733687095227,
positions.xlsx,positions_test.xlsx,positions_test_new.xlsx,stimuli.xlsx,stimuli_new.xlsx,stimuli/Social1.png,stimuli/Social2.png,stimuli/Nonsocial1.png,stimuli/Nonsocial2.png,stimuli/Social3.png,stimuli/Social4.png,stimuli/Nonsocial3.png,stimuli/Nonsocial4.png,cs_neg_ns,"(-0.7, 0.5)",,,,,,,,,0,0,0,0,,,,,,,,,,,,,1,0,16,8,,,,,,,,,,,,,,,,,,,,,,,,,,,,,,,,,,743.3453207999701,39,none,0,,,746.3591284999857,,,,,,,,,,,,,,,,,,,,,,44,A,2024-05-21_13h26.58.253,attentional_competition_task,2022.2.4,143.96733687095227,
positions.xlsx,positions_test.xlsx,positions_test_new.xlsx,stimuli.xlsx,stimuli_new.xlsx,stimuli/Social1.png,stimuli/Social2.png,stimuli/Nonsocial1.png,stimuli/Nonsocial2.png,stimuli/Social3.png,stimuli/Social4.png,stimuli/Nonsocial3.png,stimuli/Nonsocial4.png,cs_neg_s,"(-0.7, 0.5)",,,,,,,,,0,0,0,0,,,,,,,,,,,,,1,1,17,0,,,,,,,,,,,,,,,,,,,,,,,,,,,,,,,,,,753.8726654000347,39,none,0,,,756.8795160999289,,,,,,,,,,,,,,,,,,,,,,44,A,2024-05-21_13h26.58.253,attentional_competition_task,2022.2.4,143.96733687095227,
positions.xlsx,positions_test.xlsx,positions_test_new.xlsx,stimuli.xlsx,stimuli_new.xlsx,stimuli/Social1.png,stimuli/Social2.png,stimuli/Nonsocial1.png,stimuli/Nonsocial2.png,stimuli/Social3.png,stimuli/Social4.png,stimuli/Nonsocial3.png,stimuli/Nonsocial4.png,cs_neg_ns,"(-0.7, -0.5)",,,,,,,,,0,0,0,0,,,,,,,,,,,,,1,2,18,9,,,,,,,,,,,,,,,,,,,,,,,,,,,,,,,,,,764.90007470001,36,loss,1,0.5344715999672189,0.5344752999953926,765.4416663999436,,,,,,,,,,,,,,,,,,,,,,44,A,2024-05-21_13h26.58.253,attentional_competition_task,2022.2.4,143.96733687095227,
positions.xlsx,positions_test.xlsx,positions_test_new.xlsx,stimuli.xlsx,stimuli_new.xlsx,stimuli/Social1.png,stimuli/Social2.png,stimuli/Nonsocial1.png,stimuli/Nonsocial2.png,stimuli/Social3.png,stimuli/Social4.png,stimuli/Nonsocial3.png,stimuli/Nonsocial4.png,cs_pos_s,"(-0.7, -0.5)",,,,,,,,,0,0,0,0,,,,,,,,,,,,,1,3,19,5,,,,,,,,,,,,,,,,,,,,,,,,,,,,,,,,,,773.024682899937,39,reward,1,0.8612534999847412,0.8612575998995453,773.8927047000034,,,,,,,,,,,,,,,,,,,,,,44,A,2024-05-21_13h26.58.253,attentional_competition_task,2022.2.4,143.96733687095227,
positions.xlsx,positions_test.xlsx,positions_test_new.xlsx,stimuli.xlsx,stimuli_new.xlsx,stimuli/Social1.png,stimuli/Social2.png,stimuli/Nonsocial1.png,stimuli/Nonsocial2.png,stimuli/Social3.png,stimuli/Social4.png,stimuli/Nonsocial3.png,stimuli/Nonsocial4.png,cs_pos_ns,"(-0.7, -0.5)",,,,,,,,,0,0,0,0,,,,,,,,,,,,,1,4,20,13,,,,,,,,,,,,,,,,,,,,,,,,,,,,,,,,,,781.8993609999306,42,reward,1,0.8127580999862403,0.8127617000136524,782.7187425999437,,,,,,,,,,,,,,,,,,,,,,44,A,2024-05-21_13h26.58.253,attentional_competition_task,2022.2.4,143.96733687095227,
positions.xlsx,positions_test.xlsx,positions_test_new.xlsx,stimuli.xlsx,stimuli_new.xlsx,stimuli/Social1.png,stimuli/Social2.png,stimuli/Nonsocial1.png,stimuli/Nonsocial2.png,stimuli/Social3.png,stimuli/Social4.png,stimuli/Nonsocial3.png,stimuli/Nonsocial4.png,cs_neg_ns,"(0.7, -0.5)",,,,,,,,,0,0,0,0,,,,,,,,,,,,,1,5,21,11,,,,,,,,,,,,,,,,,,,,,,,,,,,,,,,,,,790.2254135999829,42,none,0,,,793.2391646000324,,,,,,,,,,,,,,,,,,,,,,44,A,2024-05-21_13h26.58.253,attentional_competition_task,2022.2.4,143.96733687095227,
positions.xlsx,positions_test.xlsx,positions_test_new.xlsx,stimuli.xlsx,stimuli_new.xlsx,stimuli/Social1.png,stimuli/Social2.png,stimuli/Nonsocial1.png,stimuli/Nonsocial2.png,stimuli/Social3.png,stimuli/Social4.png,stimuli/Nonsocial3.png,stimuli/Nonsocial4.png,cs_pos_s,"(0.7, 0.5)",,,,,,,,,0,0,0,0,,,,,,,,,,,,,1,6,22,6,,,,,,,,,,,,,,,,,,,,,,,,,,,,,,,,,,800.3916772999801,45,reward,1,0.7224944999907166,0.7224983999039978,801.1208104999969,,,,,,,,,,,,,,,,,,,,,,44,A,2024-05-21_13h26.58.253,attentional_competition_task,2022.2.4,143.96733687095227,
positions.xlsx,positions_test.xlsx,positions_test_new.xlsx,stimuli.xlsx,stimuli_new.xlsx,stimuli/Social1.png,stimuli/Social2.png,stimuli/Nonsocial1.png,stimuli/Nonsocial2.png,stimuli/Social3.png,stimuli/Social4.png,stimuli/Nonsocial3.png,stimuli/Nonsocial4.png,cs_pos_s,"(-0.7, 0.5)",,,,,,,,,0,0,0,0,,,,,,,,,,,,,1,7,23,4,,,,,,,,,,,,,,,,,,,,,,,,,,,,,,,,,,808.6344163999893,48,reward,1,0.6394240000518039,0.6394279999658465,809.2802100999979,,,,,,,,,,,,,,,,,,,,,,44,A,2024-05-21_13h26.58.253,attentional_competition_task,2022.2.4,143.96733687095227,
positions.xlsx,positions_test.xlsx,positions_test_new.xlsx,stimuli.xlsx,stimuli_new.xlsx,stimuli/Social1.png,stimuli/Social2.png,stimuli/Nonsocial1.png,stimuli/Nonsocial2.png,stimuli/Social3.png,stimuli/Social4.png,stimuli/Nonsocial3.png,stimuli/Nonsocial4.png,cs_neg_s,"(0.7, 0.5)",,,,,,,,,0,0,0,0,,,,,,,,,,,,,1,8,24,2,,,,,,,,,,,,,,,,,,,,,,,,,,,,,,,,,,816.7659982999321,48,none,0,,,819.7797767999582,,,,,,,,,,,,,,,,,,,,,,44,A,2024-05-21_13h26.58.253,attentional_competition_task,2022.2.4,143.96733687095227,
positions.xlsx,positions_test.xlsx,positions_test_new.xlsx,stimuli.xlsx,stimuli_new.xlsx,stimuli/Social1.png,stimuli/Social2.png,stimuli/Nonsocial1.png,stimuli/Nonsocial2.png,stimuli/Social3.png,stimuli/Social4.png,stimuli/Nonsocial3.png,stimuli/Nonsocial4.png,cs_pos_ns,"(0.7, -0.5)",,,,,,,,,0,0,0,0,,,,,,,,,,,,,1,9,25,15,,,,,,,,,,,,,,,,,,,,,,,,,,,,,,,,,,826.8975977000082,51,reward,1,0.6667158000636846,0.6667195999762043,827.5711491999682,,,,,,,,,,,,,,,,,,,,,,44,A,2024-05-21_13h26.58.253,attentional_competition_task,2022.2.4,143.96733687095227,
positions.xlsx,positions_test.xlsx,positions_test_new.xlsx,stimuli.xlsx,stimuli_new.xlsx,stimuli/Social1.png,stimuli/Social2.png,stimuli/Nonsocial1.png,stimuli/Nonsocial2.png,stimuli/Social3.png,stimuli/Social4.png,stimuli/Nonsocial3.png,stimuli/Nonsocial4.png,cs_neg_s,"(0.7, -0.5)",,,,,,,,,0,0,0,0,,,,,,,,,,,,,1,10,26,3,,,,,,,,,,,,,,,,,,,,,,,,,,,,,,,,,,834.8208589999704,51,none,0,,,837.8346171999583,,,,,,,,,,,,,,,,,,,,,,44,A,2024-05-21_13h26.58.253,attentional_competition_task,2022.2.4,143.96733687095227,
positions.xlsx,positions_test.xlsx,positions_test_new.xlsx,stimuli.xlsx,stimuli_new.xlsx,stimuli/Social1.png,stimuli/Social2.png,stimuli/Nonsocial1.png,stimuli/Nonsocial2.png,stimuli/Social3.png,stimuli/Social4.png,stimuli/Nonsocial3.png,stimuli/Nonsocial4.png,cs_neg_s,"(-0.7, -0.5)",,,,,,,,,0,0,0,0,,,,,,,,,,,,,1,11,27,1,,,,,,,,,,,,,,,,,,,,,,,,,,,,,,,,,,845.0982287999941,48,loss,1,0.27788629999849945,0.27788990002591163,845.3829483999871,,,,,,,,,,,,,,,,,,,,,,44,A,2024-05-21_13h26.58.253,attentional_competition_task,2022.2.4,143.96733687095227,
positions.xlsx,positions_test.xlsx,positions_test_new.xlsx,stimuli.xlsx,stimuli_new.xlsx,stimuli/Social1.png,stimuli/Social2.png,stimuli/Nonsocial1.png,stimuli/Nonsocial2.png,stimuli/Social3.png,stimuli/Social4.png,stimuli/Nonsocial3.png,stimuli/Nonsocial4.png,cs_neg_ns,"(0.7, 0.5)",,,,,,,,,0,0,0,0,,,,,,,,,,,,,1,12,28,10,,,,,,,,,,,,,,,,,,,,,,,,,,,,,,,,,,852.9312236999394,48,none,0,,,855.944996300037,,,,,,,,,,,,,,,,,,,,,,44,A,2024-05-21_13h26.58.253,attentional_competition_task,2022.2.4,143.96733687095227,
positions.xlsx,positions_test.xlsx,positions_test_new.xlsx,stimuli.xlsx,stimuli_new.xlsx,stimuli/Social1.png,stimuli/Social2.png,stimuli/Nonsocial1.png,stimuli/Nonsocial2.png,stimuli/Social3.png,stimuli/Social4.png,stimuli/Nonsocial3.png,stimuli/Nonsocial4.png,cs_pos_ns,"(-0.7, 0.5)",,,,,,,,,0,0,0,0,,,,,,,,,,,,,1,13,29,12,,,,,,,,,,,,,,,,,,,,,,,,,,,,,,,,,,863.1530751999235,51,reward,1,0.902809000108391,0.9028260000050068,864.0628035999835,,,,,,,,,,,,,,,,,,,,,,44,A,2024-05-21_13h26.58.253,attentional_competition_task,2022.2.4,143.96733687095227,
positions.xlsx,positions_test.xlsx,positions_test_new.xlsx,stimuli.xlsx,stimuli_new.xlsx,stimuli/Social1.png,stimuli/Social2.png,stimuli/Nonsocial1.png,stimuli/Nonsocial2.png,stimuli/Social3.png,stimuli/Social4.png,stimuli/Nonsocial3.png,stimuli/Nonsocial4.png,cs_pos_ns,"(0.7, 0.5)",,,,,,,,,0,0,0,0,,,,,,,,,,,,,1,14,30,14,,,,,,,,,,,,,,,,,,,,,,,,,,,,,,,,,,871.9443923999788,54,reward,1,0.902923799934797,0.9029276999644935,872.8541040000273,,,,,,,,,,,,,,,,,,,,,,44,A,2024-05-21_13h26.58.253,attentional_competition_task,2022.2.4,143.96733687095227,
positions.xlsx,positions_test.xlsx,positions_test_new.xlsx,stimuli.xlsx,stimuli_new.xlsx,stimuli/Social1.png,stimuli/Social2.png,stimuli/Nonsocial1.png,stimuli/Nonsocial2.png,stimuli/Social3.png,stimuli/Social4.png,stimuli/Nonsocial3.png,stimuli/Nonsocial4.png,cs_pos_s,"(0.7, -0.5)",,,,,,,,,0,0,0,0,,,,,,,,,,,,,1,15,31,7,,,,,,,,,,,,,,,,,,,,,,,,,,,,,,,,,,880.0899001000216,57,reward,1,0.6387060000561178,0.6387095999671146,880.7357074000174,,,,,,,,,,,,,,,,,,,,,,44,A,2024-05-21_13h26.58.253,attentional_competition_task,2022.2.4,143.96733687095227,
positions.xlsx,positions_test.xlsx,positions_test_new.xlsx,stimuli.xlsx,stimuli_new.xlsx,stimuli/Social1.png,stimuli/Social2.png,stimuli/Nonsocial1.png,stimuli/Nonsocial2.png,stimuli/Social3.png,stimuli/Social4.png,stimuli/Nonsocial3.png,stimuli/Nonsocial4.png,cs_pos_ns,,,,,,,,,,0,0,0,0,,,,,,,,,,,,,,,,,0,0,0,3,,,,,,,,,,,,,,,,,,,,,,,885.402188399923,8.0,5.3375680999597535,,,,,,,,,,,,,,,,,,,,,,,,,,,,,,,,,44,A,2024-05-21_13h26.58.253,attentional_competition_task,2022.2.4,143.96733687095227,
positions.xlsx,positions_test.xlsx,positions_test_new.xlsx,stimuli.xlsx,stimuli_new.xlsx,stimuli/Social1.png,stimuli/Social2.png,stimuli/Nonsocial1.png,stimuli/Nonsocial2.png,stimuli/Social3.png,stimuli/Social4.png,stimuli/Nonsocial3.png,stimuli/Nonsocial4.png,cs_neg_ns,,,,,,,,,,0,0,0,0,,,,,,,,,,,,,,,,,0,1,1,1,,,,,,,,,,,,,,,,,,,,,,,893.5199104000349,5.0,5.66095209994819,,,,,,,,,,,,,,,,,,,,,,,,,,,,,,,,,44,A,2024-05-21_13h26.58.253,attentional_competition_task,2022.2.4,143.96733687095227,
positions.xlsx,positions_test.xlsx,positions_test_new.xlsx,stimuli.xlsx,stimuli_new.xlsx,stimuli/Social1.png,stimuli/Social2.png,stimuli/Nonsocial1.png,stimuli/Nonsocial2.png,stimuli/Social3.png,stimuli/Social4.png,stimuli/Nonsocial3.png,stimuli/Nonsocial4.png,cs_neg_s,,,,,,,,,,0,0,0,0,,,,,,,,,,,,,,,,,0,2,2,0,,,,,,,,,,,,,,,,,,,,,,,899.4085861999774,5.0,1.7246957999886945,,,,,,,,,,,,,,,,,,,,,,,,,,,,,,,,,44,A,2024-05-21_13h26.58.253,attentional_competition_task,2022.2.4,143.96733687095227,
positions.xlsx,positions_test.xlsx,positions_test_new.xlsx,stimuli.xlsx,stimuli_new.xlsx,stimuli/Social1.png,stimuli/Social2.png,stimuli/Nonsocial1.png,stimuli/Nonsocial2.png,stimuli/Social3.png,stimuli/Social4.png,stimuli/Nonsocial3.png,stimuli/Nonsocial4.png,cs_pos_s,,,,,,,,,,0,0,0,0,,,,,,,,,,,,,,,,,0,3,3,2,,,,,,,,,,,,,,,,,,,,,,,901.3043570999289,7.0,1.8565247000660747,,,,,,,,,,,,,,,,,,,,,,,,,,,,,,,,,44,A,2024-05-21_13h26.58.253,attentional_competition_task,2022.2.4,143.96733687095227,
positions.xlsx,positions_test.xlsx,positions_test_new.xlsx,stimuli.xlsx,stimuli_new.xlsx,stimuli/Social1.png,stimuli/Social2.png,stimuli/Nonsocial1.png,stimuli/Nonsocial2.png,stimuli/Social3.png,stimuli/Social4.png,stimuli/Nonsocial3.png,stimuli/Nonsocial4.png,,,"(-0.7, -0.5)",cs_pos_s,"(-0.7, 0.5)",cs_neg_s,"(0.7, -0.5)",cs_neg_ns,"(0.7, 0.5)",cs_pos_ns,0,0,0,0,,,,,,,,,,,,,,,,,,,,,0,0,0,6,,,,,,,,,,,,,,,,,,,,,,,,,,,57,loss,,,,,903.2903950000182,912.4983275999548,912.4983275999548,912.4983275999548,912.4983275999548,0,,,1,0.3143886000616476,0.3143922999734059,0,,,0,,,912.8178291999502,912.8178291999502,912.8178291999502,912.8178291999502,44,A,2024-05-21_13h26.58.253,attentional_competition_task,2022.2.4,143.96733687095227,
positions.xlsx,positions_test.xlsx,positions_test_new.xlsx,stimuli.xlsx,stimuli_new.xlsx,stimuli/Social1.png,stimuli/Social2.png,stimuli/Nonsocial1.png,stimuli/Nonsocial2.png,stimuli/Social3.png,stimuli/Social4.png,stimuli/Nonsocial3.png,stimuli/Nonsocial4.png,,,"(-0.7, -0.5)",cs_neg_s,"(-0.7, 0.5)",cs_pos_ns,"(0.7, -0.5)",cs_pos_s,"(0.7, 0.5)",cs_neg_ns,0,0,0,0,,,,,,,,,,,,,,,,,,,,,0,1,1,4,,,,,,,,,,,,,,,,,,,,,,,,,,,66,reward,,,,,,922.1229298999533,922.1229298999533,922.1229298999533,922.1229298999533,0,,,0,,,0,,,0,,,922.7896273999941,922.7896273999941,922.7896273999941,922.7896273999941,44,A,2024-05-21_13h26.58.253,attentional_competition_task,2022.2.4,143.96733687095227,
positions.xlsx,positions_test.xlsx,positions_test_new.xlsx,stimuli.xlsx,stimuli_new.xlsx,stimuli/Social1.png,stimuli/Social2.png,stimuli/Nonsocial1.png,stimuli/Nonsocial2.png,stimuli/Social3.png,stimuli/Social4.png,stimuli/Nonsocial3.png,stimuli/Nonsocial4.png,,,"(-0.7, -0.5)",cs_neg_ns,"(-0.7, 0.5)",cs_neg_s,"(0.7, -0.5)",cs_pos_ns,"(0.7, 0.5)",cs_pos_s,0,0,0,0,,,,,,,,,,,,,,,,,,,,,0,2,2,15,,,,,,,,,,,,,,,,,,,,,,,,,,,72,reward,,,,,,930.851785399951,930.851785399951,930.851785399951,930.851785399951,0,,,0,,,0,,,1,0.03003209992311895,0.03003639995586127,930.851785399951,930.851785399951,930.851785399951,930.851785399951,44,A,2024-05-21_13h26.58.253,attentional_competition_task,2022.2.4,143.96733687095227,
positions.xlsx,positions_test.xlsx,positions_test_new.xlsx,stimuli.xlsx,stimuli_new.xlsx,stimuli/Social1.png,stimuli/Social2.png,stimuli/Nonsocial1.png,stimuli/Nonsocial2.png,stimuli/Social3.png,stimuli/Social4.png,stimuli/Nonsocial3.png,stimuli/Nonsocial4.png,,,"(-0.7, -0.5)",cs_neg_s,"(-0.7, 0.5)",cs_neg_ns,"(0.7, -0.5)",cs_pos_ns,"(0.7, 0.5)",cs_pos_s,0,0,0,0,,,,,,,,,,,,,,,,,,,,,0,3,3,3,,,,,,,,,,,,,,,,,,,,,,,,,,,75,reward,,,,,,939.5944833999965,939.5944833999965,939.5944833999965,939.5944833999965,0,,,0,,,1,0.1835735000204295,0.18357750005088747,0,,,939.7750542999711,939.7750542999711,939.7750542999711,939.7750542999711,44,A,2024-05-21_13h26.58.253,attentional_competition_task,2022.2.4,143.96733687095227,
positions.xlsx,positions_test.xlsx,positions_test_new.xlsx,stimuli.xlsx,stimuli_new.xlsx,stimuli/Social1.png,stimuli/Social2.png,stimuli/Nonsocial1.png,stimuli/Nonsocial2.png,stimuli/Social3.png,stimuli/Social4.png,stimuli/Nonsocial3.png,stimuli/Nonsocial4.png,,,"(-0.7, -0.5)",cs_pos_s,"(-0.7, 0.5)",cs_neg_ns,"(0.7, -0.5)",cs_neg_s,"(0.7, 0.5)",cs_pos_ns,0,0,0,0,,,,,,,,,,,,,,,,,,,,,0,4,4,8,,,,,,,,,,,,,,,,,,,,,,,,,,,84,reward,,,,,,948.9830223999452,948.9830223999452,948.9830223999452,948.9830223999452,0,,,0,,,0,,,1,0.024087600060738623,0.06649540003854781,949.5593812000006,949.5593812000006,949.5593812000006,949.5593812000006,44,A,2024-05-21_13h26.58.253,attentional_competition_task,2022.2.4,143.96733687095227,
positions.xlsx,positions_test.xlsx,positions_test_new.xlsx,stimuli.xlsx,stimuli_new.xlsx,stimuli/Social1.png,stimuli/Social2.png,stimuli/Nonsocial1.png,stimuli/Nonsocial2.png,stimuli/Social3.png,stimuli/Social4.png,stimuli/Nonsocial3.png,stimuli/Nonsocial4.png,,,"(-0.7, -0.5)",cs_pos_ns,"(-0.7, 0.5)",cs_pos_s,"(0.7, -0.5)",cs_neg_s,"(0.7, 0.5)",cs_neg_ns,0,0,0,0,,,,,,,,,,,,,,,,,,,,,0,5,5,19,,,,,,,,,,,,,,,,,,,,,,,,,,,90,reward,,,,,,957.5173696000129,957.5173696000129,957.5173696000129,957.5173696000129,1,0.028528599999845028,0.0285328000318259,0,,,0,,,0,,,957.5173696000129,957.5173696000129,957.5173696000129,957.5173696000129,44,A,2024-05-21_13h26.58.253,attentional_competition_task,2022.2.4,143.96733687095227,
positions.xlsx,positions_test.xlsx,positions_test_new.xlsx,stimuli.xlsx,stimuli_new.xlsx,stimuli/Social1.png,stimuli/Social2.png,stimuli/Nonsocial1.png,stimuli/Nonsocial2.png,stimuli/Social3.png,stimuli/Social4.png,stimuli/Nonsocial3.png,stimuli/Nonsocial4.png,,,"(-0.7, -0.5)",cs_pos_s,"(-0.7, 0.5)",cs_neg_ns,"(0.7, -0.5)",cs_pos_ns,"(0.7, 0.5)",cs_neg_s,0,0,0,0,,,,,,,,,,,,,,,,,,,,,0,6,6,9,,,,,,,,,,,,,,,,,,,,,,,,,,,96,reward,,,,,,965.9684402999701,965.9684402999701,965.9684402999701,965.9684402999701,0,,,0,,,0,,,0,,,966.9059179000324,966.9059179000324,966.9059179000324,966.9059179000324,44,A,2024-05-21_13h26.58.253,attentional_competition_task,2022.2.4,143.96733687095227,
positions.xlsx,positions_test.xlsx,positions_test_new.xlsx,stimuli.xlsx,stimuli_new.xlsx,stimuli/Social1.png,stimuli/Social2.png,stimuli/Nonsocial1.png,stimuli/Nonsocial2.png,stimuli/Social3.png,stimuli/Social4.png,stimuli/Nonsocial3.png,stimuli/Nonsocial4.png,,,"(-0.7, -0.5)",cs_pos_s,"(-0.7, 0.5)",cs_neg_s,"(0.7, -0.5)",cs_pos_ns,"(0.7, 0.5)",cs_neg_ns,0,0,0,0,,,,,,,,,,,,,,,,,,,,,0,7,7,7,,,,,,,,,,,,,,,,,,,,,,,,,,,102,reward,,,,,,974.4750451999716,974.4750451999716,974.4750451999716,974.4750451999716,1,0.02775459992699325,0.32819949998520315,0,,,1,0.39783369994256645,0.4047681000083685,0,,,974.877796899993,974.877796899993,974.877796899993,974.877796899993,44,A,2024-05-21_13h26.58.253,attentional_competition_task,2022.2.4,143.96733687095227,
positions.xlsx,positions_test.xlsx,positions_test_new.xlsx,stimuli.xlsx,stimuli_new.xlsx,stimuli/Social1.png,stimuli/Social2.png,stimuli/Nonsocial1.png,stimuli/Nonsocial2.png,stimuli/Social3.png,stimuli/Social4.png,stimuli/Nonsocial3.png,stimuli/Nonsocial4.png,,,"(-0.7, -0.5)",cs_pos_ns,"(-0.7, 0.5)",cs_neg_ns,"(0.7, -0.5)",cs_neg_s,"(0.7, 0.5)",cs_pos_s,0,0,0,0,,,,,,,,,,,,,,,,,,,,,0,8,8,21,,,,,,,,,,,,,,,,,,,,,,,,,,,108,reward,,,,,,983.4677496999502,983.4677496999502,983.4677496999502,983.4677496999502,3,0.3413089000387117,0.34807720000389963,0,,,0,,,1,0.028175299987196922,0.18916730000637472,983.9051762999734,983.9051762999734,983.9051762999734,983.9051762999734,44,A,2024-05-21_13h26.58.253,attentional_competition_task,2022.2.4,143.96733687095227,
positions.xlsx,positions_test.xlsx,positions_test_new.xlsx,stimuli.xlsx,stimuli_new.xlsx,stimuli/Social1.png,stimuli/Social2.png,stimuli/Nonsocial1.png,stimuli/Nonsocial2.png,stimuli/Social3.png,stimuli/Social4.png,stimuli/Nonsocial3.png,stimuli/Nonsocial4.png,,,"(-0.7, -0.5)",cs_pos_ns,"(-0.7, 0.5)",cs_neg_s,"(0.7, -0.5)",cs_neg_ns,"(0.7, 0.5)",cs_pos_s,0,0,0,0,,,,,,,,,,,,,,,,,,,,,0,9,9,23,,,,,,,,,,,,,,,,,,,,,,,,,,,111,reward,,,,,,992.2590424999362,992.2590424999362,992.2590424999362,992.2590424999362,1,0.02325369999743998,0.023257100023329258,0,,,0,,,0,,,992.2590424999362,992.2590424999362,992.2590424999362,992.2590424999362,44,A,2024-05-21_13h26.58.253,attentional_competition_task,2022.2.4,143.96733687095227,
positions.xlsx,positions_test.xlsx,positions_test_new.xlsx,stimuli.xlsx,stimuli_new.xlsx,stimuli/Social1.png,stimuli/Social2.png,stimuli/Nonsocial1.png,stimuli/Nonsocial2.png,stimuli/Social3.png,stimuli/Social4.png,stimuli/Nonsocial3.png,stimuli/Nonsocial4.png,,,"(-0.7, -0.5)",cs_neg_s,"(-0.7, 0.5)",cs_pos_s,"(0.7, -0.5)",cs_pos_ns,"(0.7, 0.5)",cs_neg_ns,0,0,0,0,,,,,,,,,,,,,,,,,,,,,0,10,10,1,,,,,,,,,,,,,,,,,,,,,,,,,,,120,reward,,,,,,1000.5712253999664,1000.5712253999664,1000.5712253999664,1000.5712253999664,0,,,0,,,0,,,0,,,1001.2170494999737,1001.2170494999737,1001.2170494999737,1001.2170494999737,44,A,2024-05-21_13h26.58.253,attentional_competition_task,2022.2.4,143.96733687095227,
positions.xlsx,positions_test.xlsx,positions_test_new.xlsx,stimuli.xlsx,stimuli_new.xlsx,stimuli/Social1.png,stimuli/Social2.png,stimuli/Nonsocial1.png,stimuli/Nonsocial2.png,stimuli/Social3.png,stimuli/Social4.png,stimuli/Nonsocial3.png,stimuli/Nonsocial4.png,,,"(-0.7, -0.5)",cs_neg_ns,"(-0.7, 0.5)",cs_neg_s,"(0.7, -0.5)",cs_pos_s,"(0.7, 0.5)",cs_pos_ns,0,0,0,0,,,,,,,,,,,,,,,,,,,,,0,11,11,14,,,,,,,,,,,,,,,,,,,,,,,,,,,129,reward,,,,,,1009.2861599000171,1009.2861599000171,1009.2861599000171,1009.2861599000171,0,,,0,,,0,,,1,0.024491299991495907,0.03333150001708418,1010.0569771999726,1010.0569771999726,1010.0569771999726,1010.0569771999726,44,A,2024-05-21_13h26.58.253,attentional_competition_task,2022.2.4,143.96733687095227,
positions.xlsx,positions_test.xlsx,positions_test_new.xlsx,stimuli.xlsx,stimuli_new.xlsx,stimuli/Social1.png,stimuli/Social2.png,stimuli/Nonsocial1.png,stimuli/Nonsocial2.png,stimuli/Social3.png,stimuli/Social4.png,stimuli/Nonsocial3.png,stimuli/Nonsocial4.png,,,"(-0.7, -0.5)",cs_pos_ns,"(-0.7, 0.5)",cs_neg_ns,"(0.7, -0.5)",cs_pos_s,"(0.7, 0.5)",cs_neg_s,0,0,0,0,,,,,,,,,,,,,,,,,,,,,0,12,12,20,,,,,,,,,,,,,,,,,,,,,,,,,,,135,reward,,,,,,1017.3483106000349,1017.3483106000349,1017.3483106000349,1017.3483106000349,0,,,0,,,1,0.022162500070407987,0.022166200098581612,0,,,1017.3483106000349,1017.3483106000349,1017.3483106000349,1017.3483106000349,44,A,2024-05-21_13h26.58.253,attentional_competition_task,2022.2.4,143.96733687095227,
positions.xlsx,positions_test.xlsx,positions_test_new.xlsx,stimuli.xlsx,stimuli_new.xlsx,stimuli/Social1.png,stimuli/Social2.png,stimuli/Nonsocial1.png,stimuli/Nonsocial2.png,stimuli/Social3.png,stimuli/Social4.png,stimuli/Nonsocial3.png,stimuli/Nonsocial4.png,,,"(-0.7, -0.5)",cs_neg_ns,"(-0.7, 0.5)",cs_pos_s,"(0.7, -0.5)",cs_neg_s,"(0.7, 0.5)",cs_pos_ns,0,0,0,0,,,,,,,,,,,,,,,,,,,,,0,13,13,12,,,,,,,,,,,,,,,,,,,,,,,,,,,138,reward,,,,,,1026.4521475000074,1026.4521475000074,1026.4521475000074,1026.4521475000074,0,,,0,,,0,,,1,0.024838399956934154,0.024842399987392128,1026.4521475000074,1026.4521475000074,1026.4521475000074,1026.4521475000074,44,A,2024-05-21_13h26.58.253,attentional_competition_task,2022.2.4,143.96733687095227,
positions.xlsx,positions_test.xlsx,positions_test_new.xlsx,stimuli.xlsx,stimuli_new.xlsx,stimuli/Social1.png,stimuli/Social2.png,stimuli/Nonsocial1.png,stimuli/Nonsocial2.png,stimuli/Social3.png,stimuli/Social4.png,stimuli/Nonsocial3.png,stimuli/Nonsocial4.png,,,"(-0.7, -0.5)",cs_pos_ns,"(-0.7, 0.5)",cs_pos_s,"(0.7, -0.5)",cs_neg_ns,"(0.7, 0.5)",cs_neg_s,0,0,0,0,,,,,,,,,,,,,,,,,,,,,0,14,14,18,,,,,,,,,,,,,,,,,,,,,,,,,,,147,reward,,,,,,1034.7226474999916,1034.7226474999916,1034.7226474999916,1034.7226474999916,0,,,0,,,0,,,0,,,1035.37544600002,1035.37544600002,1035.37544600002,1035.37544600002,44,A,2024-05-21_13h26.58.253,attentional_competition_task,2022.2.4,143.96733687095227,
positions.xlsx,positions_test.xlsx,positions_test_new.xlsx,stimuli.xlsx,stimuli_new.xlsx,stimuli/Social1.png,stimuli/Social2.png,stimuli/Nonsocial1.png,stimuli/Nonsocial2.png,stimuli/Social3.png,stimuli/Social4.png,stimuli/Nonsocial3.png,stimuli/Nonsocial4.png,,,"(-0.7, -0.5)",cs_neg_s,"(-0.7, 0.5)",cs_pos_s,"(0.7, -0.5)",cs_neg_ns,"(0.7, 0.5)",cs_pos_ns,0,0,0,0,,,,,,,,,,,,,,,,,,,,,0,15,15,0,,,,,,,,,,,,,,,,,,,,,,,,,,,150,loss,,,,,,1043.430631199968,1043.430631199968,1043.430631199968,1043.430631199968,1,0.2533030000049621,0.25330700003542006,0,,,0,,,0,,,1043.6945146999788,1043.6945146999788,1043.6945146999788,1043.6945146999788,44,A,2024-05-21_13h26.58.253,attentional_competition_task,2022.2.4,143.96733687095227,
positions.xlsx,positions_test.xlsx,positions_test_new.xlsx,stimuli.xlsx,stimuli_new.xlsx,stimuli/Social1.png,stimuli/Social2.png,stimuli/Nonsocial1.png,stimuli/Nonsocial2.png,stimuli/Social3.png,stimuli/Social4.png,stimuli/Nonsocial3.png,stimuli/Nonsocial4.png,,,"(-0.7, -0.5)",cs_neg_ns,"(-0.7, 0.5)",cs_pos_ns,"(0.7, -0.5)",cs_neg_s,"(0.7, 0.5)",cs_pos_s,0,0,0,0,,,,,,,,,,,,,,,,,,,,,0,16,16,17,,,,,,,,,,,,,,,,,,,,,,,,,,,159,reward,,,,,,1052.0830752999755,1052.0830752999755,1052.0830752999755,1052.0830752999755,0,,,0,,,0,,,5,0.18452710006386042,0.1911878000246361,1052.9372113000136,1052.9372113000136,1052.9372113000136,1052.9372113000136,44,A,2024-05-21_13h26.58.253,attentional_competition_task,2022.2.4,143.96733687095227,
positions.xlsx,positions_test.xlsx,positions_test_new.xlsx,stimuli.xlsx,stimuli_new.xlsx,stimuli/Social1.png,stimuli/Social2.png,stimuli/Nonsocial1.png,stimuli/Nonsocial2.png,stimuli/Social3.png,stimuli/Social4.png,stimuli/Nonsocial3.png,stimuli/Nonsocial4.png,,,"(-0.7, -0.5)",cs_neg_ns,"(-0.7, 0.5)",cs_pos_ns,"(0.7, -0.5)",cs_pos_s,"(0.7, 0.5)",cs_neg_s,0,0,0,0,,,,,,,,,,,,,,,,,,,,,0,17,17,16,,,,,,,,,,,,,,,,,,,,,,,,,,,156,loss,,,,,,1060.1730278999312,1060.1730278999312,1060.1730278999312,1060.1730278999312,1,0.02404629997909069,0.024050000007264316,0,,,0,,,0,,,1060.1730278999312,1060.1730278999312,1060.1730278999312,1060.1730278999312,44,A,2024-05-21_13h26.58.253,attentional_competition_task,2022.2.4,143.96733687095227,
positions.xlsx,positions_test.xlsx,positions_test_new.xlsx,stimuli.xlsx,stimuli_new.xlsx,stimuli/Social1.png,stimuli/Social2.png,stimuli/Nonsocial1.png,stimuli/Nonsocial2.png,stimuli/Social3.png,stimuli/Social4.png,stimuli/Nonsocial3.png,stimuli/Nonsocial4.png,,,"(-0.7, -0.5)",cs_neg_ns,"(-0.7, 0.5)",cs_pos_s,"(0.7, -0.5)",cs_pos_ns,"(0.7, 0.5)",cs_neg_s,0,0,0,0,,,,,,,,,,,,,,,,,,,,,0,18,18,13,,,,,,,,,,,,,,,,,,,,,,,,,,,165,reward,,,,,,1069.2143907999853,1069.2143907999853,1069.2143907999853,1069.2143907999853,0,,,1,0.2957045999355614,0.39254489995073527,0,,,0,,,1070.1101387999952,1070.1101387999952,1070.1101387999952,1070.1101387999952,44,A,2024-05-21_13h26.58.253,attentional_competition_task,2022.2.4,143.96733687095227,
positions.xlsx,positions_test.xlsx,positions_test_new.xlsx,stimuli.xlsx,stimuli_new.xlsx,stimuli/Social1.png,stimuli/Social2.png,stimuli/Nonsocial1.png,stimuli/Nonsocial2.png,stimuli/Social3.png,stimuli/Social4.png,stimuli/Nonsocial3.png,stimuli/Nonsocial4.png,,,"(-0.7, -0.5)",cs_neg_s,"(-0.7, 0.5)",cs_neg_ns,"(0.7, -0.5)",cs_pos_s,"(0.7, 0.5)",cs_pos_ns,0,0,0,0,,,,,,,,,,,,,,,,,,,,,0,19,19,2,,,,,,,,,,,,,,,,,,,,,,,,,,,174,reward,,,,,,1078.3736735000275,1078.3736735000275,1078.3736735000275,1078.3736735000275,0,,,0,,,0,,,0,,,1079.1722685999703,1079.1722685999703,1079.1722685999703,1079.1722685999703,44,A,2024-05-21_13h26.58.253,attentional_competition_task,2022.2.4,143.96733687095227,
positions.xlsx,positions_test.xlsx,positions_test_new.xlsx,stimuli.xlsx,stimuli_new.xlsx,stimuli/Social1.png,stimuli/Social2.png,stimuli/Nonsocial1.png,stimuli/Nonsocial2.png,stimuli/Social3.png,stimuli/Social4.png,stimuli/Nonsocial3.png,stimuli/Nonsocial4.png,,,"(-0.7, -0.5)",cs_pos_s,"(-0.7, 0.5)",cs_pos_ns,"(0.7, -0.5)",cs_neg_s,"(0.7, 0.5)",cs_neg_ns,0,0,0,0,,,,,,,,,,,,,,,,,,,,,0,20,20,10,,,,,,,,,,,,,,,,,,,,,,,,,,,183,reward,,,,,,1087.6996841999935,1087.6996841999935,1087.6996841999935,1087.6996841999935,0,,,0,,,0,,,0,,,1088.4775251999963,1088.4775251999963,1088.4775251999963,1088.4775251999963,44,A,2024-05-21_13h26.58.253,attentional_competition_task,2022.2.4,143.96733687095227,
positions.xlsx,positions_test.xlsx,positions_test_new.xlsx,stimuli.xlsx,stimuli_new.xlsx,stimuli/Social1.png,stimuli/Social2.png,stimuli/Nonsocial1.png,stimuli/Nonsocial2.png,stimuli/Social3.png,stimuli/Social4.png,stimuli/Nonsocial3.png,stimuli/Nonsocial4.png,,,"(-0.7, -0.5)",cs_pos_ns,"(-0.7, 0.5)",cs_neg_s,"(0.7, -0.5)",cs_pos_s,"(0.7, 0.5)",cs_neg_ns,0,0,0,0,,,,,,,,,,,,,,,,,,,,,0,21,21,22,,,,,,,,,,,,,,,,,,,,,,,,,,,186,loss,,,,,,1096.0882592999842,1096.0882592999842,1096.0882592999842,1096.0882592999842,0,,,0,,,0,,,1,0.16950409999117255,0.16950760001782328,1096.261863599997,1096.261863599997,1096.261863599997,1096.261863599997,44,A,2024-05-21_13h26.58.253,attentional_competition_task,2022.2.4,143.96733687095227,
positions.xlsx,positions_test.xlsx,positions_test_new.xlsx,stimuli.xlsx,stimuli_new.xlsx,stimuli/Social1.png,stimuli/Social2.png,stimuli/Nonsocial1.png,stimuli/Nonsocial2.png,stimuli/Social3.png,stimuli/Social4.png,stimuli/Nonsocial3.png,stimuli/Nonsocial4.png,,,"(-0.7, -0.5)",cs_neg_s,"(-0.7, 0.5)",cs_pos_ns,"(0.7, -0.5)",cs_neg_ns,"(0.7, 0.5)",cs_pos_s,0,0,0,0,,,,,,,,,,,,,,,,,,,,,0,22,22,5,,,,,,,,,,,,,,,,,,,,,,,,,,,186,reward,,,,,,1104.2892876999686,1104.2892876999686,1104.2892876999686,1104.2892876999686,0,,,0,,,0,,,1,0.6003354000858963,0.6213007000042126,1104.9142970999237,1104.9142970999237,1104.9142970999237,1104.9142970999237,44,A,2024-05-21_13h26.58.253,attentional_competition_task,2022.2.4,143.96733687095227,
positions.xlsx,positions_test.xlsx,positions_test_new.xlsx,stimuli.xlsx,stimuli_new.xlsx,stimuli/Social1.png,stimuli/Social2.png,stimuli/Nonsocial1.png,stimuli/Nonsocial2.png,stimuli/Social3.png,stimuli/Social4.png,stimuli/Nonsocial3.png,stimuli/Nonsocial4.png,,,"(-0.7, -0.5)",cs_pos_s,"(-0.7, 0.5)",cs_pos_ns,"(0.7, -0.5)",cs_neg_ns,"(0.7, 0.5)",cs_neg_s,0,0,0,0,,,,,,,,,,,,,,,,,,,,,0,23,23,11,,,,,,,,,,,,,,,,,,,,,,,,,,,195,reward,,,,,,1113.0389514999697,1113.0389514999697,1113.0389514999697,1113.0389514999697,0,,,1,0.3237654999829829,0.45604840002488345,0,,,0,,,1114.0042312999722,1114.0042312999722,1114.0042312999722,1114.0042312999722,44,A,2024-05-21_13h26.58.253,attentional_competition_task,2022.2.4,143.96733687095227,
positions.xlsx,positions_test.xlsx,positions_test_new.xlsx,stimuli.xlsx,stimuli_new.xlsx,stimuli/Social1.png,stimuli/Social2.png,stimuli/Nonsocial1.png,stimuli/Nonsocial2.png,stimuli/Social3.png,stimuli/Social4.png,stimuli/Nonsocial3.png,stimuli/Nonsocial4.png,,,"(-0.7, -0.5)",cs_neg_s,"(-0.7, 0.5)",cs_pos_ns,"(0.7, -0.5)",cs_pos_s,"(0.7, 0.5)",cs_neg_ns,0,0,0,0,,,,,,,,,,,,,,,,,,,,,1,0,24,4,,,,,,,,,,,,,,,,,,,,,,,,,,,204,reward,,,,,,1121.3580733999843,1121.3580733999843,1121.3580733999843,1121.3580733999843,0,,,0,,,0,,,0,,,1122.1219635999296,1122.1219635999296,1122.1219635999296,1122.1219635999296,44,A,2024-05-21_13h26.58.253,attentional_competition_task,2022.2.4,143.96733687095227,
positions.xlsx,positions_test.xlsx,positions_test_new.xlsx,stimuli.xlsx,stimuli_new.xlsx,stimuli/Social1.png,stimuli/Social2.png,stimuli/Nonsocial1.png,stimuli/Nonsocial2.png,stimuli/Social3.png,stimuli/Social4.png,stimuli/Nonsocial3.png,stimuli/Nonsocial4.png,,,"(-0.7, -0.5)",cs_pos_ns,"(-0.7, 0.5)",cs_neg_s,"(0.7, -0.5)",cs_neg_ns,"(0.7, 0.5)",cs_pos_s,0,0,0,0,,,,,,,,,,,,,,,,,,,,,1,1,25,23,,,,,,,,,,,,,,,,,,,,,,,,,,,213,reward,,,,,,1129.0591568000382,1129.0591568000382,1129.0591568000382,1129.0591568000382,0,,,0,,,0,,,0,,,1130.0036229999969,1130.0036229999969,1130.0036229999969,1130.0036229999969,44,A,2024-05-21_13h26.58.253,attentional_competition_task,2022.2.4,143.96733687095227,
positions.xlsx,positions_test.xlsx,positions_test_new.xlsx,stimuli.xlsx,stimuli_new.xlsx,stimuli/Social1.png,stimuli/Social2.png,stimuli/Nonsocial1.png,stimuli/Nonsocial2.png,stimuli/Social3.png,stimuli/Social4.png,stimuli/Nonsocial3.png,stimuli/Nonsocial4.png,,,"(-0.7, -0.5)",cs_neg_s,"(-0.7, 0.5)",cs_neg_ns,"(0.7, -0.5)",cs_pos_s,"(0.7, 0.5)",cs_pos_ns,0,0,0,0,,,,,,,,,,,,,,,,,,,,,1,2,26,2,,,,,,,,,,,,,,,,,,,,,,,,,,,222,reward,,,,,,1138.0588177000172,1138.0588177000172,1138.0588177000172,1138.0588177000172,0,,,0,,,0,,,1,0.030036899959668517,0.09976500004995614,1138.739354499965,1138.739354499965,1138.739354499965,1138.739354499965,44,A,2024-05-21_13h26.58.253,attentional_competition_task,2022.2.4,143.96733687095227,
positions.xlsx,positions_test.xlsx,positions_test_new.xlsx,stimuli.xlsx,stimuli_new.xlsx,stimuli/Social1.png,stimuli/Social2.png,stimuli/Nonsocial1.png,stimuli/Nonsocial2.png,stimuli/Social3.png,stimuli/Social4.png,stimuli/Nonsocial3.png,stimuli/Nonsocial4.png,,,"(-0.7, -0.5)",cs_pos_ns,"(-0.7, 0.5)",cs_neg_ns,"(0.7, -0.5)",cs_neg_s,"(0.7, 0.5)",cs_pos_s,0,0,0,0,,,,,,,,,,,,,,,,,,,,,1,3,27,21,,,,,,,,,,,,,,,,,,,,,,,,,,,231,reward,,,,,,1145.8015593999298,1145.8015593999298,1145.8015593999298,1145.8015593999298,0,,,0,,,0,,,0,,,1146.593211599975,1146.593211599975,1146.593211599975,1146.593211599975,44,A,2024-05-21_13h26.58.253,attentional_competition_task,2022.2.4,143.96733687095227,
positions.xlsx,positions_test.xlsx,positions_test_new.xlsx,stimuli.xlsx,stimuli_new.xlsx,stimuli/Social1.png,stimuli/Social2.png,stimuli/Nonsocial1.png,stimuli/Nonsocial2.png,stimuli/Social3.png,stimuli/Social4.png,stimuli/Nonsocial3.png,stimuli/Nonsocial4.png,,,"(-0.7, -0.5)",cs_neg_ns,"(-0.7, 0.5)",cs_pos_ns,"(0.7, -0.5)",cs_pos_s,"(0.7, 0.5)",cs_neg_s,0,0,0,0,,,,,,,,,,,,,,,,,,,,,1,4,28,16,,,,,,,,,,,,,,,,,,,,,,,,,,,237,reward,,,,,,1153.8498759999638,1153.8498759999638,1153.8498759999638,1153.8498759999638,0,,,1,0.5656115999445319,0.5728897999506444,0,,,0,,,1154.4331303000217,1154.4331303000217,1154.4331303000217,1154.4331303000217,44,A,2024-05-21_13h26.58.253,attentional_competition_task,2022.2.4,143.96733687095227,
positions.xlsx,positions_test.xlsx,positions_test_new.xlsx,stimuli.xlsx,stimuli_new.xlsx,stimuli/Social1.png,stimuli/Social2.png,stimuli/Nonsocial1.png,stimuli/Nonsocial2.png,stimuli/Social3.png,stimuli/Social4.png,stimuli/Nonsocial3.png,stimuli/Nonsocial4.png,,,"(-0.7, -0.5)",cs_neg_ns,"(-0.7, 0.5)",cs_pos_ns,"(0.7, -0.5)",cs_neg_s,"(0.7, 0.5)",cs_pos_s,0,0,0,0,,,,,,,,,,,,,,,,,,,,,1,5,29,17,,,,,,,,,,,,,,,,,,,,,,,,,,,246,reward,,,,,,1163.7036269999808,1163.7036269999808,1163.7036269999808,1163.7036269999808,0,,,1,0.0253017001086846,0.3797643000725657,0,,,0,,,1164.5855462999316,1164.5855462999316,1164.5855462999316,1164.5855462999316,44,A,2024-05-21_13h26.58.253,attentional_competition_task,2022.2.4,143.96733687095227,
positions.xlsx,positions_test.xlsx,positions_test_new.xlsx,stimuli.xlsx,stimuli_new.xlsx,stimuli/Social1.png,stimuli/Social2.png,stimuli/Nonsocial1.png,stimuli/Nonsocial2.png,stimuli/Social3.png,stimuli/Social4.png,stimuli/Nonsocial3.png,stimuli/Nonsocial4.png,,,"(-0.7, -0.5)",cs_pos_s,"(-0.7, 0.5)",cs_pos_ns,"(0.7, -0.5)",cs_neg_s,"(0.7, 0.5)",cs_neg_ns,0,0,0,0,,,,,,,,,,,,,,,,,,,,,1,6,30,10,,,,,,,,,,,,,,,,,,,,,,,,,,,255,reward,,,,,,1173.1615956999594,1173.1615956999594,1173.1615956999594,1173.1615956999594,0,,,0,,,0,,,0,,,1174.0018396999221,1174.0018396999221,1174.0018396999221,1174.0018396999221,44,A,2024-05-21_13h26.58.253,attentional_competition_task,2022.2.4,143.96733687095227,
positions.xlsx,positions_test.xlsx,positions_test_new.xlsx,stimuli.xlsx,stimuli_new.xlsx,stimuli/Social1.png,stimuli/Social2.png,stimuli/Nonsocial1.png,stimuli/Nonsocial2.png,stimuli/Social3.png,stimuli/Social4.png,stimuli/Nonsocial3.png,stimuli/Nonsocial4.png,,,"(-0.7, -0.5)",cs_pos_s,"(-0.7, 0.5)",cs_neg_s,"(0.7, -0.5)",cs_neg_ns,"(0.7, 0.5)",cs_pos_ns,0,0,0,0,,,,,,,,,,,,,,,,,,,,,1,7,31,6,,,,,,,,,,,,,,,,,,,,,,,,,,,264,reward,,,,,,1182.2723358999938,1182.2723358999938,1182.2723358999938,1182.2723358999938,0,,,0,,,0,,,1,0.023728400003165007,0.38531489996239543,1183.1681498999242,1183.1681498999242,1183.1681498999242,1183.1681498999242,44,A,2024-05-21_13h26.58.253,attentional_competition_task,2022.2.4,143.96733687095227,
positions.xlsx,positions_test.xlsx,positions_test_new.xlsx,stimuli.xlsx,stimuli_new.xlsx,stimuli/Social1.png,stimuli/Social2.png,stimuli/Nonsocial1.png,stimuli/Nonsocial2.png,stimuli/Social3.png,stimuli/Social4.png,stimuli/Nonsocial3.png,stimuli/Nonsocial4.png,,,"(-0.7, -0.5)",cs_pos_ns,"(-0.7, 0.5)",cs_neg_s,"(0.7, -0.5)",cs_pos_s,"(0.7, 0.5)",cs_neg_ns,0,0,0,0,,,,,,,,,,,,,,,,,,,,,1,8,32,22,,,,,,,,,,,,,,,,,,,,,,,,,,,270,reward,,,,,,1190.6817932999693,1190.6817932999693,1190.6817932999693,1190.6817932999693,0,,,0,,,1,0.028691599960438907,0.02869559999089688,0,,,1190.6817932999693,1190.6817932999693,1190.6817932999693,1190.6817932999693,44,A,2024-05-21_13h26.58.253,attentional_competition_task,2022.2.4,143.96733687095227,
positions.xlsx,positions_test.xlsx,positions_test_new.xlsx,stimuli.xlsx,stimuli_new.xlsx,stimuli/Social1.png,stimuli/Social2.png,stimuli/Nonsocial1.png,stimuli/Nonsocial2.png,stimuli/Social3.png,stimuli/Social4.png,stimuli/Nonsocial3.png,stimuli/Nonsocial4.png,,,"(-0.7, -0.5)",cs_pos_ns,"(-0.7, 0.5)",cs_neg_ns,"(0.7, -0.5)",cs_pos_s,"(0.7, 0.5)",cs_neg_s,0,0,0,0,,,,,,,,,,,,,,,,,,,,,1,9,33,20,,,,,,,,,,,,,,,,,,,,,,,,,,,279,reward,,,,,,1199.6257858999306,1199.6257858999306,1199.6257858999306,1199.6257858999306,1,0.023610200034454465,0.18400520004797727,0,,,0,,,0,,,1200.313300199923,1200.313300199923,1200.313300199923,1200.313300199923,44,A,2024-05-21_13h26.58.253,attentional_competition_task,2022.2.4,143.96733687095227,
positions.xlsx,positions_test.xlsx,positions_test_new.xlsx,stimuli.xlsx,stimuli_new.xlsx,stimuli/Social1.png,stimuli/Social2.png,stimuli/Nonsocial1.png,stimuli/Nonsocial2.png,stimuli/Social3.png,stimuli/Social4.png,stimuli/Nonsocial3.png,stimuli/Nonsocial4.png,,,"(-0.7, -0.5)",cs_neg_s,"(-0.7, 0.5)",cs_pos_s,"(0.7, -0.5)",cs_neg_ns,"(0.7, 0.5)",cs_pos_ns,0,0,0,0,,,,,,,,,,,,,,,,,,,,,1,10,34,0,,,,,,,,,,,,,,,,,,,,,,,,,,,288,reward,,,,,,1208.5282240000088,1208.5282240000088,1208.5282240000088,1208.5282240000088,0,,,0,,,0,,,0,,,1209.153231299948,1209.153231299948,1209.153231299948,1209.153231299948,44,A,2024-05-21_13h26.58.253,attentional_competition_task,2022.2.4,143.96733687095227,
positions.xlsx,positions_test.xlsx,positions_test_new.xlsx,stimuli.xlsx,stimuli_new.xlsx,stimuli/Social1.png,stimuli/Social2.png,stimuli/Nonsocial1.png,stimuli/Nonsocial2.png,stimuli/Social3.png,stimuli/Social4.png,stimuli/Nonsocial3.png,stimuli/Nonsocial4.png,,,"(-0.7, -0.5)",cs_neg_ns,"(-0.7, 0.5)",cs_neg_s,"(0.7, -0.5)",cs_pos_ns,"(0.7, 0.5)",cs_pos_s,0,0,0,0,,,,,,,,,,,,,,,,,,,,,1,11,35,15,,,,,,,,,,,,,,,,,,,,,,,,,,,294,reward,,,,,,1216.458490399993,1216.458490399993,1216.458490399993,1216.458490399993,0,,,0,,,1,0.3640574000310153,0.3640615000622347,1,0.028580900048837066,0.3432959000347182,1216.826498099952,1216.826498099952,1216.826498099952,1216.826498099952,44,A,2024-05-21_13h26.58.253,attentional_competition_task,2022.2.4,143.96733687095227,
positions.xlsx,positions_test.xlsx,positions_test_new.xlsx,stimuli.xlsx,stimuli_new.xlsx,stimuli/Social1.png,stimuli/Social2.png,stimuli/Nonsocial1.png,stimuli/Nonsocial2.png,stimuli/Social3.png,stimuli/Social4.png,stimuli/Nonsocial3.png,stimuli/Nonsocial4.png,,,"(-0.7, -0.5)",cs_neg_ns,"(-0.7, 0.5)",cs_pos_s,"(0.7, -0.5)",cs_neg_s,"(0.7, 0.5)",cs_pos_ns,0,0,0,0,,,,,,,,,,,,,,,,,,,,,1,12,36,12,,,,,,,,,,,,,,,,,,,,,,,,,,,303,reward,,,,,,1225.4789828000357,1225.4789828000357,1225.4789828000357,1225.4789828000357,0,,,0,,,0,,,0,,,1226.2428303000052,1226.2428303000052,1226.2428303000052,1226.2428303000052,44,A,2024-05-21_13h26.58.253,attentional_competition_task,2022.2.4,143.96733687095227,
positions.xlsx,positions_test.xlsx,positions_test_new.xlsx,stimuli.xlsx,stimuli_new.xlsx,stimuli/Social1.png,stimuli/Social2.png,stimuli/Nonsocial1.png,stimuli/Nonsocial2.png,stimuli/Social3.png,stimuli/Social4.png,stimuli/Nonsocial3.png,stimuli/Nonsocial4.png,,,"(-0.7, -0.5)",cs_neg_s,"(-0.7, 0.5)",cs_pos_s,"(0.7, -0.5)",cs_pos_ns,"(0.7, 0.5)",cs_neg_ns,0,0,0,0,,,,,,,,,,,,,,,,,,,,,1,13,37,1,,,,,,,,,,,,,,,,,,,,,,,,,,,306,loss,,,,,,1233.9925239000004,1233.9925239000004,1233.9925239000004,1233.9925239000004,1,0.23589709994848818,0.2359011999797076,0,,,0,,,0,,,1234.2286558999913,1234.2286558999913,1234.2286558999913,1234.2286558999913,44,A,2024-05-21_13h26.58.253,attentional_competition_task,2022.2.4,143.96733687095227,
positions.xlsx,positions_test.xlsx,positions_test_new.xlsx,stimuli.xlsx,stimuli_new.xlsx,stimuli/Social1.png,stimuli/Social2.png,stimuli/Nonsocial1.png,stimuli/Nonsocial2.png,stimuli/Social3.png,stimuli/Social4.png,stimuli/Nonsocial3.png,stimuli/Nonsocial4.png,,,"(-0.7, -0.5)",cs_pos_ns,"(-0.7, 0.5)",cs_pos_s,"(0.7, -0.5)",cs_neg_s,"(0.7, 0.5)",cs_neg_ns,0,0,0,0,,,,,,,,,,,,,,,,,,,,,1,14,38,19,,,,,,,,,,,,,,,,,,,,,,,,,,,315,reward,,,,,,1242.3741428999929,1242.3741428999929,1242.3741428999929,1242.3741428999929,0,,,0,,,0,,,0,,,1243.068624299951,1243.068624299951,1243.068624299951,1243.068624299951,44,A,2024-05-21_13h26.58.253,attentional_competition_task,2022.2.4,143.96733687095227,
positions.xlsx,positions_test.xlsx,positions_test_new.xlsx,stimuli.xlsx,stimuli_new.xlsx,stimuli/Social1.png,stimuli/Social2.png,stimuli/Nonsocial1.png,stimuli/Nonsocial2.png,stimuli/Social3.png,stimuli/Social4.png,stimuli/Nonsocial3.png,stimuli/Nonsocial4.png,,,"(-0.7, -0.5)",cs_pos_s,"(-0.7, 0.5)",cs_pos_ns,"(0.7, -0.5)",cs_neg_ns,"(0.7, 0.5)",cs_neg_s,0,0,0,0,,,,,,,,,,,,,,,,,,,,,1,15,39,11,,,,,,,,,,,,,,,,,,,,,,,,,,,324,reward,,,,,,1251.2001595000038,1251.2001595000038,1251.2001595000038,1251.2001595000038,0,,,0,,,0,,,0,,,1251.8598628999898,1251.8598628999898,1251.8598628999898,1251.8598628999898,44,A,2024-05-21_13h26.58.253,attentional_competition_task,2022.2.4,143.96733687095227,
positions.xlsx,positions_test.xlsx,positions_test_new.xlsx,stimuli.xlsx,stimuli_new.xlsx,stimuli/Social1.png,stimuli/Social2.png,stimuli/Nonsocial1.png,stimuli/Nonsocial2.png,stimuli/Social3.png,stimuli/Social4.png,stimuli/Nonsocial3.png,stimuli/Nonsocial4.png,,,"(-0.7, -0.5)",cs_pos_ns,"(-0.7, 0.5)",cs_pos_s,"(0.7, -0.5)",cs_neg_ns,"(0.7, 0.5)",cs_neg_s,0,0,0,0,,,,,,,,,,,,,,,,,,,,,1,16,40,18,,,,,,,,,,,,,,,,,,,,,,,,,,,333,reward,,,,,,1259.8178719999269,1259.8178719999269,1259.8178719999269,1259.8178719999269,0,,,1,0.1492807000176981,0.3852495999308303,0,,,0,,,1260.7067415999481,1260.7067415999481,1260.7067415999481,1260.7067415999481,44,A,2024-05-21_13h26.58.253,attentional_competition_task,2022.2.4,143.96733687095227,
positions.xlsx,positions_test.xlsx,positions_test_new.xlsx,stimuli.xlsx,stimuli_new.xlsx,stimuli/Social1.png,stimuli/Social2.png,stimuli/Nonsocial1.png,stimuli/Nonsocial2.png,stimuli/Social3.png,stimuli/Social4.png,stimuli/Nonsocial3.png,stimuli/Nonsocial4.png,,,"(-0.7, -0.5)",cs_neg_ns,"(-0.7, 0.5)",cs_pos_s,"(0.7, -0.5)",cs_pos_ns,"(0.7, 0.5)",cs_neg_s,0,0,0,0,,,,,,,,,,,,,,,,,,,,,1,17,41,13,,,,,,,,,,,,,,,,,,,,,,,,,,,339,reward,,,,,,1268.3383445999352,1268.3383445999352,1268.3383445999352,1268.3383445999352,0,,,1,0.08622489997651428,0.09419199998956174,0,,,0,,,1268.4425187000306,1268.4425187000306,1268.4425187000306,1268.4425187000306,44,A,2024-05-21_13h26.58.253,attentional_competition_task,2022.2.4,143.96733687095227,
positions.xlsx,positions_test.xlsx,positions_test_new.xlsx,stimuli.xlsx,stimuli_new.xlsx,stimuli/Social1.png,stimuli/Social2.png,stimuli/Nonsocial1.png,stimuli/Nonsocial2.png,stimuli/Social3.png,stimuli/Social4.png,stimuli/Nonsocial3.png,stimuli/Nonsocial4.png,,,"(-0.7, -0.5)",cs_neg_s,"(-0.7, 0.5)",cs_pos_ns,"(0.7, -0.5)",cs_neg_ns,"(0.7, 0.5)",cs_pos_s,0,0,0,0,,,,,,,,,,,,,,,,,,,,,1,18,42,5,,,,,,,,,,,,,,,,,,,,,,,,,,,348,reward,,,,,,1277.581043699989,1277.581043699989,1277.581043699989,1277.581043699989,0,,,0,,,0,,,0,,,1278.150493199937,1278.150493199937,1278.150493199937,1278.150493199937,44,A,2024-05-21_13h26.58.253,attentional_competition_task,2022.2.4,143.96733687095227,
positions.xlsx,positions_test.xlsx,positions_test_new.xlsx,stimuli.xlsx,stimuli_new.xlsx,stimuli/Social1.png,stimuli/Social2.png,stimuli/Nonsocial1.png,stimuli/Nonsocial2.png,stimuli/Social3.png,stimuli/Social4.png,stimuli/Nonsocial3.png,stimuli/Nonsocial4.png,,,"(-0.7, -0.5)",cs_neg_ns,"(-0.7, 0.5)",cs_neg_s,"(0.7, -0.5)",cs_pos_s,"(0.7, 0.5)",cs_pos_ns,0,0,0,0,,,,,,,,,,,,,,,,,,,,,1,19,43,14,,,,,,,,,,,,,,,,,,,,,,,,,,,357,reward,,,,,,1285.9348850999959,1285.9348850999959,1285.9348850999959,1285.9348850999959,0,,,0,,,0,,,0,,,1286.5459931000369,1286.5459931000369,1286.5459931000369,1286.5459931000369,44,A,2024-05-21_13h26.58.253,attentional_competition_task,2022.2.4,143.96733687095227,
positions.xlsx,positions_test.xlsx,positions_test_new.xlsx,stimuli.xlsx,stimuli_new.xlsx,stimuli/Social1.png,stimuli/Social2.png,stimuli/Nonsocial1.png,stimuli/Nonsocial2.png,stimuli/Social3.png,stimuli/Social4.png,stimuli/Nonsocial3.png,stimuli/Nonsocial4.png,,,"(-0.7, -0.5)",cs_pos_s,"(-0.7, 0.5)",cs_neg_ns,"(0.7, -0.5)",cs_neg_s,"(0.7, 0.5)",cs_pos_ns,0,0,0,0,,,,,,,,,,,,,,,,,,,,,1,20,44,8,,,,,,,,,,,,,,,,,,,,,,,,,,,363,reward,,,,,,1294.1429156999802,1294.1429156999802,1294.1429156999802,1294.1429156999802,0,,,0,,,0,,,1,0.023103200015611947,0.02310709992889315,1294.1429156999802,1294.1429156999802,1294.1429156999802,1294.1429156999802,44,A,2024-05-21_13h26.58.253,attentional_competition_task,2022.2.4,143.96733687095227,
positions.xlsx,positions_test.xlsx,positions_test_new.xlsx,stimuli.xlsx,stimuli_new.xlsx,stimuli/Social1.png,stimuli/Social2.png,stimuli/Nonsocial1.png,stimuli/Nonsocial2.png,stimuli/Social3.png,stimuli/Social4.png,stimuli/Nonsocial3.png,stimuli/Nonsocial4.png,,,"(-0.7, -0.5)",cs_pos_s,"(-0.7, 0.5)",cs_neg_ns,"(0.7, -0.5)",cs_pos_ns,"(0.7, 0.5)",cs_neg_s,0,0,0,0,,,,,,,,,,,,,,,,,,,,,1,21,45,9,,,,,,,,,,,,,,,,,,,,,,,,,,,366,loss,,,,,,1303.1634176999796,1303.1634176999796,1303.1634176999796,1303.1634176999796,0,,,0,,,0,,,1,0.03019959991797805,0.03020369994919747,1303.1634176999796,1303.1634176999796,1303.1634176999796,1303.1634176999796,44,A,2024-05-21_13h26.58.253,attentional_competition_task,2022.2.4,143.96733687095227,
positions.xlsx,positions_test.xlsx,positions_test_new.xlsx,stimuli.xlsx,stimuli_new.xlsx,stimuli/Social1.png,stimuli/Social2.png,stimuli/Nonsocial1.png,stimuli/Nonsocial2.png,stimuli/Social3.png,stimuli/Social4.png,stimuli/Nonsocial3.png,stimuli/Nonsocial4.png,,,"(-0.7, -0.5)",cs_pos_s,"(-0.7, 0.5)",cs_neg_s,"(0.7, -0.5)",cs_pos_ns,"(0.7, 0.5)",cs_neg_ns,0,0,0,0,,,,,,,,,,,,,,,,,,,,,1,22,46,7,,,,,,,,,,,,,,,,,,,,,,,,,,,375,reward,,,,,,1311.8782811999554,1311.8782811999554,1311.8782811999554,1311.8782811999554,0,,,0,,,1,0.02364329993724823,0.08028709993232042,0,,,1312.4685671000043,1312.4685671000043,1312.4685671000043,1312.4685671000043,44,A,2024-05-21_13h26.58.253,attentional_competition_task,2022.2.4,143.96733687095227,
positions.xlsx,positions_test.xlsx,positions_test_new.xlsx,stimuli.xlsx,stimuli_new.xlsx,stimuli/Social1.png,stimuli/Social2.png,stimuli/Nonsocial1.png,stimuli/Nonsocial2.png,stimuli/Social3.png,stimuli/Social4.png,stimuli/Nonsocial3.png,stimuli/Nonsocial4.png,,,"(-0.7, -0.5)",cs_neg_s,"(-0.7, 0.5)",cs_neg_ns,"(0.7, -0.5)",cs_pos_ns,"(0.7, 0.5)",cs_pos_s,0,0,0,0,,,,,,,,,,,,,,,,,,,,,1,23,47,3,,,,,,,,,,,,,,,,,,,,,,,,,,,384,reward,,,,,,1320.864090799936,1320.864090799936,1320.864090799936,1320.864090799936,0,,,0,,,0,,,1,0.02497130003757775,0.19337270001415163,1321.5654337999877,1321.5654337999877,1321.5654337999877,1321.5654337999877,44,A,2024-05-21_13h26.58.253,attentional_competition_task,2022.2.4,143.96733687095227,
positions.xlsx,positions_test.xlsx,positions_test_new.xlsx,stimuli.xlsx,stimuli_new.xlsx,stimuli/Social1.png,stimuli/Social2.png,stimuli/Nonsocial1.png,stimuli/Nonsocial2.png,stimuli/Social3.png,stimuli/Social4.png,stimuli/Nonsocial3.png,stimuli/Nonsocial4.png,,,"(-0.7, -0.5)",cs_pos_ns_new,"(-0.7, 0.5)",cs_neg_ns,"(0.7, -0.5)",cs_pos_s,"(0.7, 0.5)",cs_neg_s,0,0,0,0,,,,,,,,,,,,,,,,,,,,,,,,,,,,,0,0,0,44,0,0,0,0,,,,,,,,,,,,,,,387,reward,,,,,,1327.3291011999827,1327.3291011999827,1327.3291011999827,1327.3291011999827,1,0.8555812999838963,0.855584800010547,0,,,0,,,0,,,1328.1901938000228,1328.1901938000228,1328.1901938000228,1328.1901938000228,44,A,2024-05-21_13h26.58.253,attentional_competition_task,2022.2.4,143.96733687095227,
positions.xlsx,positions_test.xlsx,positions_test_new.xlsx,stimuli.xlsx,stimuli_new.xlsx,stimuli/Social1.png,stimuli/Social2.png,stimuli/Nonsocial1.png,stimuli/Nonsocial2.png,stimuli/Social3.png,stimuli/Social4.png,stimuli/Nonsocial3.png,stimuli/Nonsocial4.png,,,"(-0.7, -0.5)",cs_pos_ns_new,"(-0.7, 0.5)",cs_neg_ns,"(0.7, -0.5)",cs_pos_s,"(0.7, 0.5)",cs_neg_s,0,0,0,0,,,,,,,,,,,,,,,,,,,,,,,,,,,,,0,0,0,44,1,0,1,0,,,,,,,,,,,,,,,384,loss,,,,,,1328.6970970999682,1328.6970970999682,1328.6970970999682,1328.6970970999682,1,0.022365799988619983,0.20431930001359433,1,0.22525499993935227,0.2252582999644801,0,,,0,,,1328.9262620999943,1328.9262620999943,1328.9262620999943,1328.9262620999943,44,A,2024-05-21_13h26.58.253,attentional_competition_task,2022.2.4,143.96733687095227,
positions.xlsx,positions_test.xlsx,positions_test_new.xlsx,stimuli.xlsx,stimuli_new.xlsx,stimuli/Social1.png,stimuli/Social2.png,stimuli/Nonsocial1.png,stimuli/Nonsocial2.png,stimuli/Social3.png,stimuli/Social4.png,stimuli/Nonsocial3.png,stimuli/Nonsocial4.png,,,"(-0.7, -0.5)",cs_pos_ns_new,"(-0.7, 0.5)",cs_neg_ns,"(0.7, -0.5)",cs_pos_s,"(0.7, 0.5)",cs_neg_s,0,0,0,0,,,,,,,,,,,,,,,,,,,,,,,,,,,,,0,0,0,44,,,,,,,,,,,,,,,,,,,,,,,,,,,,,,,,,,,,,,,,,,,,,,44,A,2024-05-21_13h26.58.253,attentional_competition_task,2022.2.4,143.96733687095227,
positions.xlsx,positions_test.xlsx,positions_test_new.xlsx,stimuli.xlsx,stimuli_new.xlsx,stimuli/Social1.png,stimuli/Social2.png,stimuli/Nonsocial1.png,stimuli/Nonsocial2.png,stimuli/Social3.png,stimuli/Social4.png,stimuli/Nonsocial3.png,stimuli/Nonsocial4.png,,,"(-0.7, -0.5)",cs_pos_ns,"(-0.7, 0.5)",cs_pos_s,"(0.7, -0.5)",cs_neg_s_new,"(0.7, 0.5)",cs_neg_ns,0,0,0,0,,,,,,,,,,,,,,,,,,,,,,,,,,,,,0,1,1,11,0,0,0,0,,,,,,,,,,,,,,,387,reward,,,,,,1336.5162093000254,1336.5162093000254,1336.5162093000254,1336.5162093000254,1,0.4394568999996409,0.43946050002705306,0,,,0,,,0,,,1336.9606396999443,1336.9606396999443,1336.9606396999443,1336.9606396999443,44,A,2024-05-21_13h26.58.253,attentional_competition_task,2022.2.4,143.96733687095227,
positions.xlsx,positions_test.xlsx,positions_test_new.xlsx,stimuli.xlsx,stimuli_new.xlsx,stimuli/Social1.png,stimuli/Social2.png,stimuli/Nonsocial1.png,stimuli/Nonsocial2.png,stimuli/Social3.png,stimuli/Social4.png,stimuli/Nonsocial3.png,stimuli/Nonsocial4.png,,,"(-0.7, -0.5)",cs_pos_ns,"(-0.7, 0.5)",cs_pos_s,"(0.7, -0.5)",cs_neg_s_new,"(0.7, 0.5)",cs_neg_ns,0,0,0,0,,,,,,,,,,,,,,,,,,,,,,,,,,,,,0,1,1,11,1,0,1,0,,,,,,,,,,,,,,,390,reward,,,,,,1337.4953621999593,1337.4953621999593,1337.4953621999593,1337.4953621999593,0,,,1,0.030919400043785572,0.030923500075004995,0,,,0,,,1337.4953621999593,1337.4953621999593,1337.4953621999593,1337.4953621999593,44,A,2024-05-21_13h26.58.253,attentional_competition_task,2022.2.4,143.96733687095227,
positions.xlsx,positions_test.xlsx,positions_test_new.xlsx,stimuli.xlsx,stimuli_new.xlsx,stimuli/Social1.png,stimuli/Social2.png,stimuli/Nonsocial1.png,stimuli/Nonsocial2.png,stimuli/Social3.png,stimuli/Social4.png,stimuli/Nonsocial3.png,stimuli/Nonsocial4.png,,,"(-0.7, -0.5)",cs_pos_ns,"(-0.7, 0.5)",cs_pos_s,"(0.7, -0.5)",cs_neg_s_new,"(0.7, 0.5)",cs_neg_ns,0,0,0,0,,,,,,,,,,,,,,,,,,,,,,,,,,,,,0,1,1,11,2,0,2,0,,,,,,,,,,,,,,,387,loss,,,,,,1337.9953640999738,1337.9953640999738,1337.9953640999738,1337.9953640999738,1,0.02830419992096722,0.057731700013391674,0,,,0,,,1,0.1350708999671042,0.13507459999527782,1338.1272945000092,1338.1272945000092,1338.1272945000092,1338.1272945000092,44,A,2024-05-21_13h26.58.253,attentional_competition_task,2022.2.4,143.96733687095227,
positions.xlsx,positions_test.xlsx,positions_test_new.xlsx,stimuli.xlsx,stimuli_new.xlsx,stimuli/Social1.png,stimuli/Social2.png,stimuli/Nonsocial1.png,stimuli/Nonsocial2.png,stimuli/Social3.png,stimuli/Social4.png,stimuli/Nonsocial3.png,stimuli/Nonsocial4.png,,,"(-0.7, -0.5)",cs_pos_ns,"(-0.7, 0.5)",cs_pos_s,"(0.7, -0.5)",cs_neg_s_new,"(0.7, 0.5)",cs_neg_ns,0,0,0,0,,,,,,,,,,,,,,,,,,,,,,,,,,,,,0,1,1,11,,,,,,,,,,,,,,,,,,,,,,,,,,,,,,,,,,,,,,,,,,,,,,44,A,2024-05-21_13h26.58.253,attentional_competition_task,2022.2.4,143.96733687095227,
positions.xlsx,positions_test.xlsx,positions_test_new.xlsx,stimuli.xlsx,stimuli_new.xlsx,stimuli/Social1.png,stimuli/Social2.png,stimuli/Nonsocial1.png,stimuli/Nonsocial2.png,stimuli/Social3.png,stimuli/Social4.png,stimuli/Nonsocial3.png,stimuli/Nonsocial4.png,,,"(-0.7, -0.5)",cs_pos_ns,"(-0.7, 0.5)",cs_neg_ns,"(0.7, -0.5)",cs_pos_s,"(0.7, 0.5)",cs_neg_s_new,0,0,0,0,,,,,,,,,,,,,,,,,,,,,,,,,,,,,0,2,2,8,0,0,0,0,,,,,,,,,,,,,,,390,reward,,,,,,1344.8631100000348,1344.8631100000348,1344.8631100000348,1344.8631100000348,1,0.6195078999735415,0.6264252999098971,0,,,0,,,0,,,1345.4950161000015,1345.4950161000015,1345.4950161000015,1345.4950161000015,44,A,2024-05-21_13h26.58.253,attentional_competition_task,2022.2.4,143.96733687095227,
positions.xlsx,positions_test.xlsx,positions_test_new.xlsx,stimuli.xlsx,stimuli_new.xlsx,stimuli/Social1.png,stimuli/Social2.png,stimuli/Nonsocial1.png,stimuli/Nonsocial2.png,stimuli/Social3.png,stimuli/Social4.png,stimuli/Nonsocial3.png,stimuli/Nonsocial4.png,,,"(-0.7, -0.5)",cs_pos_ns,"(-0.7, 0.5)",cs_neg_ns,"(0.7, -0.5)",cs_pos_s,"(0.7, 0.5)",cs_neg_s_new,0,0,0,0,,,,,,,,,,,,,,,,,,,,,,,,,,,,,0,2,2,8,1,0,1,0,,,,,,,,,,,,,,,387,loss,,,,,,1346.0227579999482,1346.0227579999482,1346.0227579999482,1346.0227579999482,0,,,0,,,0,,,1,0.029555500019341707,0.02955940004903823,1346.0227579999482,1346.0227579999482,1346.0227579999482,1346.0227579999482,44,A,2024-05-21_13h26.58.253,attentional_competition_task,2022.2.4,143.96733687095227,
positions.xlsx,positions_test.xlsx,positions_test_new.xlsx,stimuli.xlsx,stimuli_new.xlsx,stimuli/Social1.png,stimuli/Social2.png,stimuli/Nonsocial1.png,stimuli/Nonsocial2.png,stimuli/Social3.png,stimuli/Social4.png,stimuli/Nonsocial3.png,stimuli/Nonsocial4.png,,,"(-0.7, -0.5)",cs_pos_ns,"(-0.7, 0.5)",cs_neg_ns,"(0.7, -0.5)",cs_pos_s,"(0.7, 0.5)",cs_neg_s_new,0,0,0,0,,,,,,,,,,,,,,,,,,,,,,,,,,,,,0,2,2,8,2,0,2,0,,,,,,,,,,,,,,,390,reward,,,,,,1346.5505184000358,1346.5505184000358,1346.5505184000358,1346.5505184000358,0,,,0,,,1,0.02373499993700534,0.023738799965940416,0,,,1346.5505184000358,1346.5505184000358,1346.5505184000358,1346.5505184000358,44,A,2024-05-21_13h26.58.253,attentional_competition_task,2022.2.4,143.96733687095227,
positions.xlsx,positions_test.xlsx,positions_test_new.xlsx,stimuli.xlsx,stimuli_new.xlsx,stimuli/Social1.png,stimuli/Social2.png,stimuli/Nonsocial1.png,stimuli/Nonsocial2.png,stimuli/Social3.png,stimuli/Social4.png,stimuli/Nonsocial3.png,stimuli/Nonsocial4.png,,,"(-0.7, -0.5)",cs_pos_ns,"(-0.7, 0.5)",cs_neg_ns,"(0.7, -0.5)",cs_pos_s,"(0.7, 0.5)",cs_neg_s_new,0,0,0,0,,,,,,,,,,,,,,,,,,,,,,,,,,,,,0,2,2,8,,,,,,,,,,,,,,,,,,,,,,,,,,,,,,,,,,,,,,,,,,,,,,44,A,2024-05-21_13h26.58.253,attentional_competition_task,2022.2.4,143.96733687095227,
positions.xlsx,positions_test.xlsx,positions_test_new.xlsx,stimuli.xlsx,stimuli_new.xlsx,stimuli/Social1.png,stimuli/Social2.png,stimuli/Nonsocial1.png,stimuli/Nonsocial2.png,stimuli/Social3.png,stimuli/Social4.png,stimuli/Nonsocial3.png,stimuli/Nonsocial4.png,,,"(-0.7, -0.5)",cs_neg_s,"(-0.7, 0.5)",cs_pos_ns,"(0.7, -0.5)",cs_pos_s_new,"(0.7, 0.5)",cs_neg_ns,0,0,0,0,,,,,,,,,,,,,,,,,,,,,,,,,,,,,0,3,3,30,0,0,0,0,,,,,,,,,,,,,,,387,loss,,,,,,1353.3488864999963,1353.3488864999963,1353.3488864999963,1353.3488864999963,1,0.9601073999656364,0.9601113999960944,0,,,0,,,0,,,1354.314166199998,1354.314166199998,1354.314166199998,1354.314166199998,44,A,2024-05-21_13h26.58.253,attentional_competition_task,2022.2.4,143.96733687095227,
positions.xlsx,positions_test.xlsx,positions_test_new.xlsx,stimuli.xlsx,stimuli_new.xlsx,stimuli/Social1.png,stimuli/Social2.png,stimuli/Nonsocial1.png,stimuli/Nonsocial2.png,stimuli/Social3.png,stimuli/Social4.png,stimuli/Nonsocial3.png,stimuli/Nonsocial4.png,,,"(-0.7, -0.5)",cs_neg_s,"(-0.7, 0.5)",cs_pos_ns,"(0.7, -0.5)",cs_pos_s_new,"(0.7, 0.5)",cs_neg_ns,0,0,0,0,,,,,,,,,,,,,,,,,,,,,,,,,,,,,0,3,3,30,1,0,1,0,,,,,,,,,,,,,,,390,reward,,,,,,1354.84879129997,1354.84879129997,1354.84879129997,1354.84879129997,0,,,0,,,1,0.028783499961718917,0.028786999988369644,0,,,1354.84879129997,1354.84879129997,1354.84879129997,1354.84879129997,44,A,2024-05-21_13h26.58.253,attentional_competition_task,2022.2.4,143.96733687095227,
positions.xlsx,positions_test.xlsx,positions_test_new.xlsx,stimuli.xlsx,stimuli_new.xlsx,stimuli/Social1.png,stimuli/Social2.png,stimuli/Nonsocial1.png,stimuli/Nonsocial2.png,stimuli/Social3.png,stimuli/Social4.png,stimuli/Nonsocial3.png,stimuli/Nonsocial4.png,,,"(-0.7, -0.5)",cs_neg_s,"(-0.7, 0.5)",cs_pos_ns,"(0.7, -0.5)",cs_pos_s_new,"(0.7, 0.5)",cs_neg_ns,0,0,0,0,,,,,,,,,,,,,,,,,,,,,,,,,,,,,0,3,3,30,2,0,2,0,,,,,,,,,,,,,,,387,loss,,,,,,1355.8765705999685,1355.8765705999685,1355.8765705999685,1355.8765705999685,0,,,0,,,0,,,1,0.025566899916157126,0.0255706999450922,1355.8765705999685,1355.8765705999685,1355.8765705999685,1355.8765705999685,44,A,2024-05-21_13h26.58.253,attentional_competition_task,2022.2.4,143.96733687095227,
positions.xlsx,positions_test.xlsx,positions_test_new.xlsx,stimuli.xlsx,stimuli_new.xlsx,stimuli/Social1.png,stimuli/Social2.png,stimuli/Nonsocial1.png,stimuli/Nonsocial2.png,stimuli/Social3.png,stimuli/Social4.png,stimuli/Nonsocial3.png,stimuli/Nonsocial4.png,,,"(-0.7, -0.5)",cs_neg_s,"(-0.7, 0.5)",cs_pos_ns,"(0.7, -0.5)",cs_pos_s_new,"(0.7, 0.5)",cs_neg_ns,0,0,0,0,,,,,,,,,,,,,,,,,,,,,,,,,,,,,0,3,3,30,,,,,,,,,,,,,,,,,,,,,,,,,,,,,,,,,,,,,,,,,,,,,,44,A,2024-05-21_13h26.58.253,attentional_competition_task,2022.2.4,143.96733687095227,
positions.xlsx,positions_test.xlsx,positions_test_new.xlsx,stimuli.xlsx,stimuli_new.xlsx,stimuli/Social1.png,stimuli/Social2.png,stimuli/Nonsocial1.png,stimuli/Nonsocial2.png,stimuli/Social3.png,stimuli/Social4.png,stimuli/Nonsocial3.png,stimuli/Nonsocial4.png,,,"(-0.7, -0.5)",cs_pos_s,"(-0.7, 0.5)",cs_neg_s,"(0.7, -0.5)",cs_neg_ns,"(0.7, 0.5)",cs_pos_ns_new,0,0,0,0,,,,,,,,,,,,,,,,,,,,,,,,,,,,,0,4,4,39,0,0,0,0,,,,,,,,,,,,,,,384,loss,,,,,,1361.6749392999336,1361.6749392999336,1361.6749392999336,1361.6749392999336,0,,,1,0.904795499984175,0.9116911999881268,0,,,0,,,1362.5915655000135,1362.5915655000135,1362.5915655000135,1362.5915655000135,44,A,2024-05-21_13h26.58.253,attentional_competition_task,2022.2.4,143.96733687095227,
positions.xlsx,positions_test.xlsx,positions_test_new.xlsx,stimuli.xlsx,stimuli_new.xlsx,stimuli/Social1.png,stimuli/Social2.png,stimuli/Nonsocial1.png,stimuli/Nonsocial2.png,stimuli/Social3.png,stimuli/Social4.png,stimuli/Nonsocial3.png,stimuli/Nonsocial4.png,,,"(-0.7, -0.5)",cs_pos_s,"(-0.7, 0.5)",cs_neg_s,"(0.7, -0.5)",cs_neg_ns,"(0.7, 0.5)",cs_pos_ns_new,0,0,0,0,,,,,,,,,,,,,,,,,,,,,,,,,,,,,0,4,4,39,1,0,1,0,,,,,,,,,,,,,,,387,reward,,,,,,1363.1262695000041,1363.1262695000041,1363.1262695000041,1363.1262695000041,1,0.028327500098384917,0.02833150001242757,0,,,0,,,0,,,1363.1262695000041,1363.1262695000041,1363.1262695000041,1363.1262695000041,44,A,2024-05-21_13h26.58.253,attentional_competition_task,2022.2.4,143.96733687095227,
positions.xlsx,positions_test.xlsx,positions_test_new.xlsx,stimuli.xlsx,stimuli_new.xlsx,stimuli/Social1.png,stimuli/Social2.png,stimuli/Nonsocial1.png,stimuli/Nonsocial2.png,stimuli/Social3.png,stimuli/Social4.png,stimuli/Nonsocial3.png,stimuli/Nonsocial4.png,,,"(-0.7, -0.5)",cs_pos_s,"(-0.7, 0.5)",cs_neg_s,"(0.7, -0.5)",cs_neg_ns,"(0.7, 0.5)",cs_pos_ns_new,0,0,0,0,,,,,,,,,,,,,,,,,,,,,,,,,,,,,0,4,4,39,2,0,2,0,,,,,,,,,,,,,,,390,reward,,,,,,1363.6262525999919,1363.6262525999919,1363.6262525999919,1363.6262525999919,0,,,0,,,0,,,0,,,1364.1887616999447,1364.1887616999447,1364.1887616999447,1364.1887616999447,44,A,2024-05-21_13h26.58.253,attentional_competition_task,2022.2.4,143.96733687095227,
positions.xlsx,positions_test.xlsx,positions_test_new.xlsx,stimuli.xlsx,stimuli_new.xlsx,stimuli/Social1.png,stimuli/Social2.png,stimuli/Nonsocial1.png,stimuli/Nonsocial2.png,stimuli/Social3.png,stimuli/Social4.png,stimuli/Nonsocial3.png,stimuli/Nonsocial4.png,,,"(-0.7, -0.5)",cs_pos_s,"(-0.7, 0.5)",cs_neg_s,"(0.7, -0.5)",cs_neg_ns,"(0.7, 0.5)",cs_pos_ns_new,0,0,0,0,,,,,,,,,,,,,,,,,,,,,,,,,,,,,0,4,4,39,,,,,,,,,,,,,,,,,,,,,,,,,,,,,,,,,,,,,,,,,,,,,,44,A,2024-05-21_13h26.58.253,attentional_competition_task,2022.2.4,143.96733687095227,
positions.xlsx,positions_test.xlsx,positions_test_new.xlsx,stimuli.xlsx,stimuli_new.xlsx,stimuli/Social1.png,stimuli/Social2.png,stimuli/Nonsocial1.png,stimuli/Nonsocial2.png,stimuli/Social3.png,stimuli/Social4.png,stimuli/Nonsocial3.png,stimuli/Nonsocial4.png,,,"(-0.7, -0.5)",cs_pos_ns,"(-0.7, 0.5)",cs_pos_s,"(0.7, -0.5)",cs_neg_ns,"(0.7, 0.5)",cs_neg_s_new,0,0,0,0,,,,,,,,,,,,,,,,,,,,,,,,,,,,,0,5,5,14,0,0,0,0,,,,,,,,,,,,,,,387,loss,,,,,,1369.9871008000337,1369.9871008000337,1369.9871008000337,1369.9871008000337,0,,,0,,,0,,,1,0.8147930999984965,0.8147968000266701,1370.8134582999628,1370.8134582999628,1370.8134582999628,1370.8134582999628,44,A,2024-05-21_13h26.58.253,attentional_competition_task,2022.2.4,143.96733687095227,
positions.xlsx,positions_test.xlsx,positions_test_new.xlsx,stimuli.xlsx,stimuli_new.xlsx,stimuli/Social1.png,stimuli/Social2.png,stimuli/Nonsocial1.png,stimuli/Nonsocial2.png,stimuli/Social3.png,stimuli/Social4.png,stimuli/Nonsocial3.png,stimuli/Nonsocial4.png,,,"(-0.7, -0.5)",cs_pos_ns,"(-0.7, 0.5)",cs_pos_s,"(0.7, -0.5)",cs_neg_ns,"(0.7, 0.5)",cs_neg_s_new,0,0,0,0,,,,,,,,,,,,,,,,,,,,,,,,,,,,,0,5,5,14,1,0,1,0,,,,,,,,,,,,,,,390,reward,,,,,,1371.341233199928,1371.341233199928,1371.341233199928,1371.341233199928,0,,,1,0.029246399994008243,0.029250400024466217,0,,,0,,,1371.341233199928,1371.341233199928,1371.341233199928,1371.341233199928,44,A,2024-05-21_13h26.58.253,attentional_competition_task,2022.2.4,143.96733687095227,
positions.xlsx,positions_test.xlsx,positions_test_new.xlsx,stimuli.xlsx,stimuli_new.xlsx,stimuli/Social1.png,stimuli/Social2.png,stimuli/Nonsocial1.png,stimuli/Nonsocial2.png,stimuli/Social3.png,stimuli/Social4.png,stimuli/Nonsocial3.png,stimuli/Nonsocial4.png,,,"(-0.7, -0.5)",cs_pos_ns,"(-0.7, 0.5)",cs_pos_s,"(0.7, -0.5)",cs_neg_ns,"(0.7, 0.5)",cs_neg_s_new,0,0,0,0,,,,,,,,,,,,,,,,,,,,,,,,,,,,,0,5,5,14,2,0,2,0,,,,,,,,,,,,,,,393,reward,,,,,,1371.8689819999272,1371.8689819999272,1371.8689819999272,1371.8689819999272,1,0.022425999981351197,0.022430099896155298,0,,,0,,,0,,,1371.8689819999272,1371.8689819999272,1371.8689819999272,1371.8689819999272,44,A,2024-05-21_13h26.58.253,attentional_competition_task,2022.2.4,143.96733687095227,
positions.xlsx,positions_test.xlsx,positions_test_new.xlsx,stimuli.xlsx,stimuli_new.xlsx,stimuli/Social1.png,stimuli/Social2.png,stimuli/Nonsocial1.png,stimuli/Nonsocial2.png,stimuli/Social3.png,stimuli/Social4.png,stimuli/Nonsocial3.png,stimuli/Nonsocial4.png,,,"(-0.7, -0.5)",cs_pos_ns,"(-0.7, 0.5)",cs_pos_s,"(0.7, -0.5)",cs_neg_ns,"(0.7, 0.5)",cs_neg_s_new,0,0,0,0,,,,,,,,,,,,,,,,,,,,,,,,,,,,,0,5,5,14,,,,,,,,,,,,,,,,,,,,,,,,,,,,,,,,,,,,,,,,,,,,,,44,A,2024-05-21_13h26.58.253,attentional_competition_task,2022.2.4,143.96733687095227,
positions.xlsx,positions_test.xlsx,positions_test_new.xlsx,stimuli.xlsx,stimuli_new.xlsx,stimuli/Social1.png,stimuli/Social2.png,stimuli/Nonsocial1.png,stimuli/Nonsocial2.png,stimuli/Social3.png,stimuli/Social4.png,stimuli/Nonsocial3.png,stimuli/Nonsocial4.png,,,"(-0.7, -0.5)",cs_neg_ns,"(-0.7, 0.5)",cs_neg_s,"(0.7, -0.5)",cs_pos_ns,"(0.7, 0.5)",cs_pos_s,0,0,0,0,,,,,,,,,,,,,,,,,,,,,,,,,,,,,0,6,6,2,0,0,0,0,,,,,,,,,,,,,,,390,loss,,,,,,1378.1256741000107,1378.1256741000107,1378.1256741000107,1378.1256741000107,0,,,1,0.2036951999180019,0.20369919994845986,0,,,0,,,1378.3340119000059,1378.3340119000059,1378.3340119000059,1378.3340119000059,44,A,2024-05-21_13h26.58.253,attentional_competition_task,2022.2.4,143.96733687095227,
positions.xlsx,positions_test.xlsx,positions_test_new.xlsx,stimuli.xlsx,stimuli_new.xlsx,stimuli/Social1.png,stimuli/Social2.png,stimuli/Nonsocial1.png,stimuli/Nonsocial2.png,stimuli/Social3.png,stimuli/Social4.png,stimuli/Nonsocial3.png,stimuli/Nonsocial4.png,,,"(-0.7, -0.5)",cs_neg_ns,"(-0.7, 0.5)",cs_neg_s,"(0.7, -0.5)",cs_pos_ns,"(0.7, 0.5)",cs_pos_s,0,0,0,0,,,,,,,,,,,,,,,,,,,,,,,,,,,,,0,6,6,2,1,0,1,0,,,,,,,,,,,,,,,393,reward,,,,,,1378.868680399959,1378.868680399959,1378.868680399959,1378.868680399959,0,,,0,,,0,,,1,0.030157400062307715,0.030161699978634715,1378.868680399959,1378.868680399959,1378.868680399959,1378.868680399959,44,A,2024-05-21_13h26.58.253,attentional_competition_task,2022.2.4,143.96733687095227,
positions.xlsx,positions_test.xlsx,positions_test_new.xlsx,stimuli.xlsx,stimuli_new.xlsx,stimuli/Social1.png,stimuli/Social2.png,stimuli/Nonsocial1.png,stimuli/Nonsocial2.png,stimuli/Social3.png,stimuli/Social4.png,stimuli/Nonsocial3.png,stimuli/Nonsocial4.png,,,"(-0.7, -0.5)",cs_neg_ns,"(-0.7, 0.5)",cs_neg_s,"(0.7, -0.5)",cs_pos_ns,"(0.7, 0.5)",cs_pos_s,0,0,0,0,,,,,,,,,,,,,,,,,,,,,,,,,,,,,0,6,6,2,2,0,2,0,,,,,,,,,,,,,,,390,loss,,,,,,1379.368684199988,1379.368684199988,1379.368684199988,1379.368684199988,1,0.06537820002995431,0.07205420010723174,0,,,0,,,0,,,1379.4450716000283,1379.4450716000283,1379.4450716000283,1379.4450716000283,44,A,2024-05-21_13h26.58.253,attentional_competition_task,2022.2.4,143.96733687095227,
positions.xlsx,positions_test.xlsx,positions_test_new.xlsx,stimuli.xlsx,stimuli_new.xlsx,stimuli/Social1.png,stimuli/Social2.png,stimuli/Nonsocial1.png,stimuli/Nonsocial2.png,stimuli/Social3.png,stimuli/Social4.png,stimuli/Nonsocial3.png,stimuli/Nonsocial4.png,,,"(-0.7, -0.5)",cs_neg_ns,"(-0.7, 0.5)",cs_neg_s,"(0.7, -0.5)",cs_pos_ns,"(0.7, 0.5)",cs_pos_s,0,0,0,0,,,,,,,,,,,,,,,,,,,,,,,,,,,,,0,6,6,2,3,0,3,0,,,,,,,,,,,,,,,393,reward,,,,,,1379.9658898999915,1379.9658898999915,1379.9658898999915,1379.9658898999915,0,,,0,,,1,0.02311730000656098,0.023121200036257505,0,,,1379.9658898999915,1379.9658898999915,1379.9658898999915,1379.9658898999915,44,A,2024-05-21_13h26.58.253,attentional_competition_task,2022.2.4,143.96733687095227,
positions.xlsx,positions_test.xlsx,positions_test_new.xlsx,stimuli.xlsx,stimuli_new.xlsx,stimuli/Social1.png,stimuli/Social2.png,stimuli/Nonsocial1.png,stimuli/Nonsocial2.png,stimuli/Social3.png,stimuli/Social4.png,stimuli/Nonsocial3.png,stimuli/Nonsocial4.png,,,"(-0.7, -0.5)",cs_neg_ns,"(-0.7, 0.5)",cs_neg_s,"(0.7, -0.5)",cs_pos_ns,"(0.7, 0.5)",cs_pos_s,0,0,0,0,,,,,,,,,,,,,,,,,,,,,,,,,,,,,0,6,6,2,,,,,,,,,,,,,,,,,,,,,,,,,,,,,,,,,,,,,,,,,,,,,,44,A,2024-05-21_13h26.58.253,attentional_competition_task,2022.2.4,143.96733687095227,
positions.xlsx,positions_test.xlsx,positions_test_new.xlsx,stimuli.xlsx,stimuli_new.xlsx,stimuli/Social1.png,stimuli/Social2.png,stimuli/Nonsocial1.png,stimuli/Nonsocial2.png,stimuli/Social3.png,stimuli/Social4.png,stimuli/Nonsocial3.png,stimuli/Nonsocial4.png,,,"(-0.7, -0.5)",cs_neg_ns,"(-0.7, 0.5)",cs_neg_s_new,"(0.7, -0.5)",cs_pos_s,"(0.7, 0.5)",cs_pos_ns,0,0,0,0,,,,,,,,,,,,,,,,,,,,,,,,,,,,,0,7,7,16,0,0,0,0,,,,,,,,,,,,,,,396,reward,,,,,,1386.9308911999688,1386.9308911999688,1386.9308911999688,1386.9308911999688,0,,,0,,,1,1.1066418999107555,1.1137597999768332,0,,,1388.0489486999577,1388.0489486999577,1388.0489486999577,1388.0489486999577,44,A,2024-05-21_13h26.58.253,attentional_competition_task,2022.2.4,143.96733687095227,
positions.xlsx,positions_test.xlsx,positions_test_new.xlsx,stimuli.xlsx,stimuli_new.xlsx,stimuli/Social1.png,stimuli/Social2.png,stimuli/Nonsocial1.png,stimuli/Nonsocial2.png,stimuli/Social3.png,stimuli/Social4.png,stimuli/Nonsocial3.png,stimuli/Nonsocial4.png,,,"(-0.7, -0.5)",cs_neg_ns,"(-0.7, 0.5)",cs_neg_s_new,"(0.7, -0.5)",cs_pos_s,"(0.7, 0.5)",cs_pos_ns,0,0,0,0,,,,,,,,,,,,,,,,,,,,,,,,,,,,,0,7,7,16,1,0,1,0,,,,,,,,,,,,,,,399,reward,,,,,,1388.5766515999567,1388.5766515999567,1388.5766515999567,1388.5766515999567,0,,,0,,,0,,,1,0.028667000005953014,0.028671100037172437,1388.5766515999567,1388.5766515999567,1388.5766515999567,1388.5766515999567,44,A,2024-05-21_13h26.58.253,attentional_competition_task,2022.2.4,143.96733687095227,
positions.xlsx,positions_test.xlsx,positions_test_new.xlsx,stimuli.xlsx,stimuli_new.xlsx,stimuli/Social1.png,stimuli/Social2.png,stimuli/Nonsocial1.png,stimuli/Nonsocial2.png,stimuli/Social3.png,stimuli/Social4.png,stimuli/Nonsocial3.png,stimuli/Nonsocial4.png,,,"(-0.7, -0.5)",cs_neg_ns,"(-0.7, 0.5)",cs_neg_s_new,"(0.7, -0.5)",cs_pos_s,"(0.7, 0.5)",cs_pos_ns,0,0,0,0,,,,,,,,,,,,,,,,,,,,,,,,,,,,,0,7,7,16,,,,,,,,,,,,,,,,,,,,,,,,,,,,,,,,,,,,,,,,,,,,,,44,A,2024-05-21_13h26.58.253,attentional_competition_task,2022.2.4,143.96733687095227,
positions.xlsx,positions_test.xlsx,positions_test_new.xlsx,stimuli.xlsx,stimuli_new.xlsx,stimuli/Social1.png,stimuli/Social2.png,stimuli/Nonsocial1.png,stimuli/Nonsocial2.png,stimuli/Social3.png,stimuli/Social4.png,stimuli/Nonsocial3.png,stimuli/Nonsocial4.png,,,"(-0.7, -0.5)",cs_neg_ns,"(-0.7, 0.5)",cs_pos_s,"(0.7, -0.5)",cs_pos_ns_new,"(0.7, 0.5)",cs_neg_s,0,0,0,0,,,,,,,,,,,,,,,,,,,,,,,,,,,,,0,8,8,47,0,0,0,0,,,,,,,,,,,,,,,396,loss,,,,,,1396.29162179993,1396.29162179993,1396.29162179993,1396.29162179993,1,1.3144755000248551,1.321343999938108,0,,,0,,,0,,,1397.6249558000127,1397.6249558000127,1397.6249558000127,1397.6249558000127,44,A,2024-05-21_13h26.58.253,attentional_competition_task,2022.2.4,143.96733687095227,
positions.xlsx,positions_test.xlsx,positions_test_new.xlsx,stimuli.xlsx,stimuli_new.xlsx,stimuli/Social1.png,stimuli/Social2.png,stimuli/Nonsocial1.png,stimuli/Nonsocial2.png,stimuli/Social3.png,stimuli/Social4.png,stimuli/Nonsocial3.png,stimuli/Nonsocial4.png,,,"(-0.7, -0.5)",cs_neg_ns,"(-0.7, 0.5)",cs_pos_s,"(0.7, -0.5)",cs_pos_ns_new,"(0.7, 0.5)",cs_neg_s,0,0,0,0,,,,,,,,,,,,,,,,,,,,,,,,,,,,,0,8,8,47,1,0,1,0,,,,,,,,,,,,,,,399,reward,,,,,,1398.1526618000353,1398.1526618000353,1398.1526618000353,1398.1526618000353,0,,,0,,,1,0.030330899986438453,0.030334800016134977,0,,,1398.1526618000353,1398.1526618000353,1398.1526618000353,1398.1526618000353,44,A,2024-05-21_13h26.58.253,attentional_competition_task,2022.2.4,143.96733687095227,
