posFile,posFileTest,posFileTestNew,stimFile,stimFileNew,cs_neg_s,cs_pos_s,cs_neg_ns,cs_pos_ns,cs_neg_s_new,cs_pos_s_new,cs_neg_ns_new,cs_pos_ns_new,stim,position,position1,stim1,position2,stim2,position3,stim3,position4,stim4,blocks.thisRepN,blocks.thisTrialN,blocks.thisN,blocks.thisIndex,ratingtrials1.thisRepN,ratingtrials1.thisTrialN,ratingtrials1.thisN,ratingtrials1.thisIndex,search_task_trials.thisRepN,search_task_trials.thisTrialN,search_task_trials.thisN,search_task_trials.thisIndex,learning_trials.thisRepN,learning_trials.thisTrialN,learning_trials.thisN,learning_trials.thisIndex,trials.thisRepN,trials.thisTrialN,trials.thisN,trials.thisIndex,ratingtrials2.thisRepN,ratingtrials2.thisTrialN,ratingtrials2.thisN,ratingtrials2.thisIndex,testtrials.thisRepN,testtrials.thisTrialN,testtrials.thisN,testtrials.thisIndex,loop_test.thisRepN,loop_test.thisTrialN,loop_test.thisN,loop_test.thisIndex,testtrials_novelty.thisRepN,testtrials_novelty.thisTrialN,testtrials_novelty.thisN,testtrials_novelty.thisIndex,loop_test_novelty.thisRepN,loop_test_novelty.thisTrialN,loop_test_novelty.thisN,loop_test_novelty.thisIndex,ratingtrials3.thisRepN,ratingtrials3.thisTrialN,ratingtrials3.thisN,ratingtrials3.thisIndex,textStart.started,textStartExp.started,imageRating.started,sliderStim.response,sliderStim.rt,textStartSearch.started,target_positions,distractor_positions,textStartTask.started,image.started,score,outcome,roi.numLooks,roi.timesOn,roi.timesOff,imageFeedback.started,textTestInstr.started,test_image1.started,test_image2.started,test_image3.started,test_image4.started,test_roi1.numLooks,test_roi1.timesOn,test_roi1.timesOff,test_roi2.numLooks,test_roi2.timesOn,test_roi2.timesOff,test_roi3.numLooks,test_roi3.timesOn,test_roi3.timesOff,test_roi4.numLooks,test_roi4.timesOn,test_roi4.timesOff,test_image_feedback1.started,test_image_feedback2.started,test_iamge_feedback3.started,test_iamge_feedback4.started,participant,group,date,expName,psychopyVersion,frameRate,
positions.xlsx,positions_test.xlsx,positions_test_new.xlsx,stimuli.xlsx,stimuli_new.xlsx,stimuli/Social3.png,stimuli/Social4.png,stimuli/Nonsocial3.png,stimuli/Nonsocial4.png,stimuli/Social1.png,stimuli/Social2.png,stimuli/Nonsocial1.png,stimuli/Nonsocial2.png,cs_neg_s,,,,,,,,,,0,0,0,0,0,0,0,0,,,,,,,,,,,,,,,,,,,,,,,,,,,,,,,,,,,,,12.96147799999926,170.17123939999874,174.43953059999876,5.0,6.417376699999295,,,,,,,,,,,,,,,,,,,,,,,,,,,,,,,,,29,C,2024-05-08_10h25.05.635,attentional_competition_task,2022.2.4,143.82136236111725,
positions.xlsx,positions_test.xlsx,positions_test_new.xlsx,stimuli.xlsx,stimuli_new.xlsx,stimuli/Social3.png,stimuli/Social4.png,stimuli/Nonsocial3.png,stimuli/Nonsocial4.png,stimuli/Social1.png,stimuli/Social2.png,stimuli/Nonsocial1.png,stimuli/Nonsocial2.png,cs_neg_ns,,,,,,,,,,0,0,0,0,0,1,1,1,,,,,,,,,,,,,,,,,,,,,,,,,,,,,,,,,,,,,,,181.98089639999853,7.0,4.24365570000009,,,,,,,,,,,,,,,,,,,,,,,,,,,,,,,,,29,C,2024-05-08_10h25.05.635,attentional_competition_task,2022.2.4,143.82136236111725,
positions.xlsx,positions_test.xlsx,positions_test_new.xlsx,stimuli.xlsx,stimuli_new.xlsx,stimuli/Social3.png,stimuli/Social4.png,stimuli/Nonsocial3.png,stimuli/Nonsocial4.png,stimuli/Social1.png,stimuli/Social2.png,stimuli/Nonsocial1.png,stimuli/Nonsocial2.png,cs_pos_s,,,,,,,,,,0,0,0,0,0,2,2,2,,,,,,,,,,,,,,,,,,,,,,,,,,,,,,,,,,,,,,,187.86953819999871,4.0,2.3496040999998513,,,,,,,,,,,,,,,,,,,,,,,,,,,,,,,,,29,C,2024-05-08_10h25.05.635,attentional_competition_task,2022.2.4,143.82136236111725,
positions.xlsx,positions_test.xlsx,positions_test_new.xlsx,stimuli.xlsx,stimuli_new.xlsx,stimuli/Social3.png,stimuli/Social4.png,stimuli/Nonsocial3.png,stimuli/Nonsocial4.png,stimuli/Social1.png,stimuli/Social2.png,stimuli/Nonsocial1.png,stimuli/Nonsocial2.png,cs_pos_ns,,,,,,,,,,0,0,0,0,0,3,3,3,,,,,,,,,,,,,,,,,,,,,,,,,,,,,,,,,,,,,,,190.42498429999978,6.0,2.042769399999088,,,,,,,,,,,,,,,,,,,,,,,,,,,,,,,,,29,C,2024-05-08_10h25.05.635,attentional_competition_task,2022.2.4,143.82136236111725,
positions.xlsx,positions_test.xlsx,positions_test_new.xlsx,stimuli.xlsx,stimuli_new.xlsx,stimuli/Social3.png,stimuli/Social4.png,stimuli/Nonsocial3.png,stimuli/Nonsocial4.png,stimuli/Social1.png,stimuli/Social2.png,stimuli/Nonsocial1.png,stimuli/Nonsocial2.png,,,,,,,,,,,0,0,0,0,,,,,0,0,0,0,,,,,,,,,,,,,,,,,,,,,,,,,,,,,,,,,,,,,,192.66099769999892,"[[0.9, -0.30000000000000004], [0.9, 0.19999999999999996], [-0.9, 0.7], [0.9, -0.8], [-0.45, 0.7], [0.45000000000000007, 0.7], [0.6749999999999999, -0.8], [0.22499999999999998, 0.19999999999999996], [-0.45, -0.30000000000000004], [-0.675, 0.7], [0.6749999999999999, -0.30000000000000004], [-0.9, -0.8], [0.22499999999999998, -0.8], [-0.675, 0.19999999999999996], [-0.22499999999999998, 0.19999999999999996]]","[[0.22499999999999998, -0.30000000000000004], [0.0, -0.30000000000000004], [0.6749999999999999, 0.7], [-0.675, -0.30000000000000004], [-0.45, 0.19999999999999996], [-0.22499999999999998, 0.7], [0.0, 0.19999999999999996], [0.45000000000000007, -0.8], [0.22499999999999998, 0.7], [0.9, 0.7], [0.45000000000000007, -0.30000000000000004], [0.45000000000000007, 0.19999999999999996], [-0.22499999999999998, -0.30000000000000004], [0.6749999999999999, 0.19999999999999996], [-0.45, -0.8]]",,,,,,,,,,,,,,,,,,,,,,,,,,,,,,29,C,2024-05-08_10h25.05.635,attentional_competition_task,2022.2.4,143.82136236111725,
positions.xlsx,positions_test.xlsx,positions_test_new.xlsx,stimuli.xlsx,stimuli_new.xlsx,stimuli/Social3.png,stimuli/Social4.png,stimuli/Nonsocial3.png,stimuli/Nonsocial4.png,stimuli/Social1.png,stimuli/Social2.png,stimuli/Nonsocial1.png,stimuli/Nonsocial2.png,,,,,,,,,,,0,0,0,0,,,,,1,0,1,0,,,,,,,,,,,,,,,,,,,,,,,,,,,,,,,,,,,,,,,"[[-0.22499999999999998, -0.8], [0.45000000000000007, 0.7], [0.22499999999999998, 0.7], [0.9, -0.30000000000000004], [0.9, 0.7], [0.22499999999999998, 0.19999999999999996], [-0.45, -0.8], [-0.9, -0.30000000000000004], [0.45000000000000007, 0.19999999999999996], [0.9, -0.8], [-0.22499999999999998, 0.19999999999999996], [-0.45, 0.7], [-0.675, 0.7], [-0.675, -0.8], [0.45000000000000007, -0.30000000000000004]]","[[-0.9, 0.7], [0.0, 0.7], [0.22499999999999998, -0.8], [0.6749999999999999, -0.30000000000000004], [-0.22499999999999998, 0.7], [0.0, 0.19999999999999996], [-0.45, -0.30000000000000004], [0.45000000000000007, -0.8], [0.9, 0.19999999999999996], [0.22499999999999998, -0.30000000000000004], [0.6749999999999999, 0.7], [-0.45, 0.19999999999999996], [0.0, -0.8], [0.6749999999999999, -0.8], [-0.9, 0.19999999999999996]]",,,,,,,,,,,,,,,,,,,,,,,,,,,,,,29,C,2024-05-08_10h25.05.635,attentional_competition_task,2022.2.4,143.82136236111725,
positions.xlsx,positions_test.xlsx,positions_test_new.xlsx,stimuli.xlsx,stimuli_new.xlsx,stimuli/Social3.png,stimuli/Social4.png,stimuli/Nonsocial3.png,stimuli/Nonsocial4.png,stimuli/Social1.png,stimuli/Social2.png,stimuli/Nonsocial1.png,stimuli/Nonsocial2.png,cs_neg_ns,"(0.7, -0.5)",,,,,,,,,0,0,0,0,,,,,,,,,0,0,0,11,,,,,,,,,,,,,,,,,,,,,,,,,,,,,,,,,,,,,272.3867943999994,287.91392669999914,-3,loss,1,0.5211866999998165,0.5211902999999438,288.44168419999914,,,,,,,,,,,,,,,,,,,,,,29,C,2024-05-08_10h25.05.635,attentional_competition_task,2022.2.4,143.82136236111725,
positions.xlsx,positions_test.xlsx,positions_test_new.xlsx,stimuli.xlsx,stimuli_new.xlsx,stimuli/Social3.png,stimuli/Social4.png,stimuli/Nonsocial3.png,stimuli/Nonsocial4.png,stimuli/Social1.png,stimuli/Social2.png,stimuli/Nonsocial1.png,stimuli/Nonsocial2.png,cs_pos_ns,"(0.7, 0.5)",,,,,,,,,0,0,0,0,,,,,,,,,0,1,1,14,,,,,,,,,,,,,,,,,,,,,,,,,,,,,,,,,,,,,,295.7330301999991,0,reward,1,0.5629157000003033,0.5629198000005999,296.30945489999976,,,,,,,,,,,,,,,,,,,,,,29,C,2024-05-08_10h25.05.635,attentional_competition_task,2022.2.4,143.82136236111725,
positions.xlsx,positions_test.xlsx,positions_test_new.xlsx,stimuli.xlsx,stimuli_new.xlsx,stimuli/Social3.png,stimuli/Social4.png,stimuli/Nonsocial3.png,stimuli/Nonsocial4.png,stimuli/Social1.png,stimuli/Social2.png,stimuli/Nonsocial1.png,stimuli/Nonsocial2.png,cs_pos_s,"(-0.7, -0.5)",,,,,,,,,0,0,0,0,,,,,,,,,0,2,2,5,,,,,,,,,,,,,,,,,,,,,,,,,,,,,,,,,,,,,,304.13548159999846,3,reward,1,0.5282375999995566,0.5282415000001492,304.67019719999917,,,,,,,,,,,,,,,,,,,,,,29,C,2024-05-08_10h25.05.635,attentional_competition_task,2022.2.4,143.82136236111725,
positions.xlsx,positions_test.xlsx,positions_test_new.xlsx,stimuli.xlsx,stimuli_new.xlsx,stimuli/Social3.png,stimuli/Social4.png,stimuli/Nonsocial3.png,stimuli/Nonsocial4.png,stimuli/Social1.png,stimuli/Social2.png,stimuli/Nonsocial1.png,stimuli/Nonsocial2.png,cs_pos_ns,"(-0.7, 0.5)",,,,,,,,,0,0,0,0,,,,,,,,,0,3,3,12,,,,,,,,,,,,,,,,,,,,,,,,,,,,,,,,,,,,,,312.1073680999998,6,reward,1,0.4030344000002515,0.4030383000008442,312.517100699999,,,,,,,,,,,,,,,,,,,,,,29,C,2024-05-08_10h25.05.635,attentional_competition_task,2022.2.4,143.82136236111725,
positions.xlsx,positions_test.xlsx,positions_test_new.xlsx,stimuli.xlsx,stimuli_new.xlsx,stimuli/Social3.png,stimuli/Social4.png,stimuli/Nonsocial3.png,stimuli/Nonsocial4.png,stimuli/Social1.png,stimuli/Social2.png,stimuli/Nonsocial1.png,stimuli/Nonsocial2.png,cs_pos_s,"(0.7, 0.5)",,,,,,,,,0,0,0,0,,,,,,,,,0,4,4,6,,,,,,,,,,,,,,,,,,,,,,,,,,,,,,,,,,,,,,320.05840369999896,9,reward,1,0.681078499999785,0.6810821999988548,320.745866199999,,,,,,,,,,,,,,,,,,,,,,29,C,2024-05-08_10h25.05.635,attentional_competition_task,2022.2.4,143.82136236111725,
positions.xlsx,positions_test.xlsx,positions_test_new.xlsx,stimuli.xlsx,stimuli_new.xlsx,stimuli/Social3.png,stimuli/Social4.png,stimuli/Nonsocial3.png,stimuli/Nonsocial4.png,stimuli/Social1.png,stimuli/Social2.png,stimuli/Nonsocial1.png,stimuli/Nonsocial2.png,cs_neg_s,"(-0.7, -0.5)",,,,,,,,,0,0,0,0,,,,,,,,,0,5,5,1,,,,,,,,,,,,,,,,,,,,,,,,,,,,,,,,,,,,,,328.64833369999906,9,none,0,,,331.6551430999989,,,,,,,,,,,,,,,,,,,,,,29,C,2024-05-08_10h25.05.635,attentional_competition_task,2022.2.4,143.82136236111725,
positions.xlsx,positions_test.xlsx,positions_test_new.xlsx,stimuli.xlsx,stimuli_new.xlsx,stimuli/Social3.png,stimuli/Social4.png,stimuli/Nonsocial3.png,stimuli/Nonsocial4.png,stimuli/Social1.png,stimuli/Social2.png,stimuli/Nonsocial1.png,stimuli/Nonsocial2.png,cs_pos_s,"(-0.7, 0.5)",,,,,,,,,0,0,0,0,,,,,,,,,0,6,6,4,,,,,,,,,,,,,,,,,,,,,,,,,,,,,,,,,,,,,,339.41177849999985,12,reward,1,0.5278926999999385,0.5278968000002351,339.9464937999983,,,,,,,,,,,,,,,,,,,,,,29,C,2024-05-08_10h25.05.635,attentional_competition_task,2022.2.4,143.82136236111725,
positions.xlsx,positions_test.xlsx,positions_test_new.xlsx,stimuli.xlsx,stimuli_new.xlsx,stimuli/Social3.png,stimuli/Social4.png,stimuli/Nonsocial3.png,stimuli/Nonsocial4.png,stimuli/Social1.png,stimuli/Social2.png,stimuli/Nonsocial1.png,stimuli/Nonsocial2.png,cs_neg_s,"(-0.7, 0.5)",,,,,,,,,0,0,0,0,,,,,,,,,0,7,7,0,,,,,,,,,,,,,,,,,,,,,,,,,,,,,,,,,,,,,,347.7377936999983,9,loss,1,0.6528100999985327,0.6528137999994215,348.39750359999925,,,,,,,,,,,,,,,,,,,,,,29,C,2024-05-08_10h25.05.635,attentional_competition_task,2022.2.4,143.82136236111725,
positions.xlsx,positions_test.xlsx,positions_test_new.xlsx,stimuli.xlsx,stimuli_new.xlsx,stimuli/Social3.png,stimuli/Social4.png,stimuli/Nonsocial3.png,stimuli/Nonsocial4.png,stimuli/Social1.png,stimuli/Social2.png,stimuli/Nonsocial1.png,stimuli/Nonsocial2.png,cs_pos_ns,"(0.7, -0.5)",,,,,,,,,0,0,0,0,,,,,,,,,0,8,8,15,,,,,,,,,,,,,,,,,,,,,,,,,,,,,,,,,,,,,,355.6263758999994,12,reward,1,1.3685574000010092,1.3685612000008405,357.0012893999992,,,,,,,,,,,,,,,,,,,,,,29,C,2024-05-08_10h25.05.635,attentional_competition_task,2022.2.4,143.82136236111725,
positions.xlsx,positions_test.xlsx,positions_test_new.xlsx,stimuli.xlsx,stimuli_new.xlsx,stimuli/Social3.png,stimuli/Social4.png,stimuli/Nonsocial3.png,stimuli/Nonsocial4.png,stimuli/Social1.png,stimuli/Social2.png,stimuli/Nonsocial1.png,stimuli/Nonsocial2.png,cs_neg_s,"(0.7, 0.5)",,,,,,,,,0,0,0,0,,,,,,,,,0,9,9,2,,,,,,,,,,,,,,,,,,,,,,,,,,,,,,,,,,,,,,364.3621199999998,9,loss,1,0.6387271999992663,0.6387307999993936,365.0078952999993,,,,,,,,,,,,,,,,,,,,,,29,C,2024-05-08_10h25.05.635,attentional_competition_task,2022.2.4,143.82136236111725,
positions.xlsx,positions_test.xlsx,positions_test_new.xlsx,stimuli.xlsx,stimuli_new.xlsx,stimuli/Social3.png,stimuli/Social4.png,stimuli/Nonsocial3.png,stimuli/Nonsocial4.png,stimuli/Social1.png,stimuli/Social2.png,stimuli/Nonsocial1.png,stimuli/Nonsocial2.png,cs_pos_ns,"(-0.7, -0.5)",,,,,,,,,0,0,0,0,,,,,,,,,0,10,10,13,,,,,,,,,,,,,,,,,,,,,,,,,,,,,,,,,,,,,,372.1534673999995,12,reward,1,0.7639162999985274,0.7639201000001776,372.9242613999995,,,,,,,,,,,,,,,,,,,,,,29,C,2024-05-08_10h25.05.635,attentional_competition_task,2022.2.4,143.82136236111725,
positions.xlsx,positions_test.xlsx,positions_test_new.xlsx,stimuli.xlsx,stimuli_new.xlsx,stimuli/Social3.png,stimuli/Social4.png,stimuli/Nonsocial3.png,stimuli/Nonsocial4.png,stimuli/Social1.png,stimuli/Social2.png,stimuli/Nonsocial1.png,stimuli/Nonsocial2.png,cs_neg_ns,"(-0.7, 0.5)",,,,,,,,,0,0,0,0,,,,,,,,,0,11,11,8,,,,,,,,,,,,,,,,,,,,,,,,,,,,,,,,,,,,,,379.90311289999954,12,none,0,,,382.9168888999993,,,,,,,,,,,,,,,,,,,,,,29,C,2024-05-08_10h25.05.635,attentional_competition_task,2022.2.4,143.82136236111725,
positions.xlsx,positions_test.xlsx,positions_test_new.xlsx,stimuli.xlsx,stimuli_new.xlsx,stimuli/Social3.png,stimuli/Social4.png,stimuli/Nonsocial3.png,stimuli/Nonsocial4.png,stimuli/Social1.png,stimuli/Social2.png,stimuli/Nonsocial1.png,stimuli/Nonsocial2.png,cs_neg_s,"(0.7, -0.5)",,,,,,,,,0,0,0,0,,,,,,,,,0,12,12,3,,,,,,,,,,,,,,,,,,,,,,,,,,,,,,,,,,,,,,390.97211629999947,12,none,0,,,393.978925899999,,,,,,,,,,,,,,,,,,,,,,29,C,2024-05-08_10h25.05.635,attentional_competition_task,2022.2.4,143.82136236111725,
positions.xlsx,positions_test.xlsx,positions_test_new.xlsx,stimuli.xlsx,stimuli_new.xlsx,stimuli/Social3.png,stimuli/Social4.png,stimuli/Nonsocial3.png,stimuli/Nonsocial4.png,stimuli/Social1.png,stimuli/Social2.png,stimuli/Nonsocial1.png,stimuli/Nonsocial2.png,cs_pos_s,"(0.7, -0.5)",,,,,,,,,0,0,0,0,,,,,,,,,0,13,13,7,,,,,,,,,,,,,,,,,,,,,,,,,,,,,,,,,,,,,,402.2286028999988,15,reward,1,1.0139125999994576,1.0139163999992888,403.24936049999997,,,,,,,,,,,,,,,,,,,,,,29,C,2024-05-08_10h25.05.635,attentional_competition_task,2022.2.4,143.82136236111725,
positions.xlsx,positions_test.xlsx,positions_test_new.xlsx,stimuli.xlsx,stimuli_new.xlsx,stimuli/Social3.png,stimuli/Social4.png,stimuli/Nonsocial3.png,stimuli/Nonsocial4.png,stimuli/Social1.png,stimuli/Social2.png,stimuli/Nonsocial1.png,stimuli/Nonsocial2.png,cs_neg_ns,"(0.7, 0.5)",,,,,,,,,0,0,0,0,,,,,,,,,0,14,14,10,,,,,,,,,,,,,,,,,,,,,,,,,,,,,,,,,,,,,,410.8046233999994,15,none,0,,,413.8184078999984,,,,,,,,,,,,,,,,,,,,,,29,C,2024-05-08_10h25.05.635,attentional_competition_task,2022.2.4,143.82136236111725,
positions.xlsx,positions_test.xlsx,positions_test_new.xlsx,stimuli.xlsx,stimuli_new.xlsx,stimuli/Social3.png,stimuli/Social4.png,stimuli/Nonsocial3.png,stimuli/Nonsocial4.png,stimuli/Social1.png,stimuli/Social2.png,stimuli/Nonsocial1.png,stimuli/Nonsocial2.png,cs_neg_ns,"(-0.7, -0.5)",,,,,,,,,0,0,0,0,,,,,,,,,0,15,15,9,,,,,,,,,,,,,,,,,,,,,,,,,,,,,,,,,,,,,,421.4499898999984,12,loss,1,1.5624740999992355,1.5624781000005896,423.0194543999987,,,,,,,,,,,,,,,,,,,,,,29,C,2024-05-08_10h25.05.635,attentional_competition_task,2022.2.4,143.82136236111725,
positions.xlsx,positions_test.xlsx,positions_test_new.xlsx,stimuli.xlsx,stimuli_new.xlsx,stimuli/Social3.png,stimuli/Social4.png,stimuli/Nonsocial3.png,stimuli/Nonsocial4.png,stimuli/Social1.png,stimuli/Social2.png,stimuli/Nonsocial1.png,stimuli/Nonsocial2.png,cs_pos_ns,"(0.7, 0.5)",,,,,,,,,0,0,0,0,,,,,,,,,1,0,16,14,,,,,,,,,,,,,,,,,,,,,,,,,,,,,,,,,,,,,,429.7760728999983,15,reward,1,0.7708421000006638,0.7708461000001989,430.55379919999905,,,,,,,,,,,,,,,,,,,,,,29,C,2024-05-08_10h25.05.635,attentional_competition_task,2022.2.4,143.82136236111725,
positions.xlsx,positions_test.xlsx,positions_test_new.xlsx,stimuli.xlsx,stimuli_new.xlsx,stimuli/Social3.png,stimuli/Social4.png,stimuli/Nonsocial3.png,stimuli/Nonsocial4.png,stimuli/Social1.png,stimuli/Social2.png,stimuli/Nonsocial1.png,stimuli/Nonsocial2.png,cs_neg_s,"(-0.7, -0.5)",,,,,,,,,0,0,0,0,,,,,,,,,1,1,17,1,,,,,,,,,,,,,,,,,,,,,,,,,,,,,,,,,,,,,,438.91457569999875,15,none,0,,,441.92140219999965,,,,,,,,,,,,,,,,,,,,,,29,C,2024-05-08_10h25.05.635,attentional_competition_task,2022.2.4,143.82136236111725,
positions.xlsx,positions_test.xlsx,positions_test_new.xlsx,stimuli.xlsx,stimuli_new.xlsx,stimuli/Social3.png,stimuli/Social4.png,stimuli/Nonsocial3.png,stimuli/Nonsocial4.png,stimuli/Social1.png,stimuli/Social2.png,stimuli/Nonsocial1.png,stimuli/Nonsocial2.png,cs_neg_ns,"(-0.7, 0.5)",,,,,,,,,0,0,0,0,,,,,,,,,1,2,18,8,,,,,,,,,,,,,,,,,,,,,,,,,,,,,,,,,,,,,,448.7960979999989,15,none,0,,,451.8098408999995,,,,,,,,,,,,,,,,,,,,,,29,C,2024-05-08_10h25.05.635,attentional_competition_task,2022.2.4,143.82136236111725,
positions.xlsx,positions_test.xlsx,positions_test_new.xlsx,stimuli.xlsx,stimuli_new.xlsx,stimuli/Social3.png,stimuli/Social4.png,stimuli/Nonsocial3.png,stimuli/Nonsocial4.png,stimuli/Social1.png,stimuli/Social2.png,stimuli/Nonsocial1.png,stimuli/Nonsocial2.png,cs_neg_ns,"(0.7, 0.5)",,,,,,,,,0,0,0,0,,,,,,,,,1,3,19,10,,,,,,,,,,,,,,,,,,,,,,,,,,,,,,,,,,,,,,459.7192551999997,15,none,0,,,462.72609829999965,,,,,,,,,,,,,,,,,,,,,,29,C,2024-05-08_10h25.05.635,attentional_competition_task,2022.2.4,143.82136236111725,
positions.xlsx,positions_test.xlsx,positions_test_new.xlsx,stimuli.xlsx,stimuli_new.xlsx,stimuli/Social3.png,stimuli/Social4.png,stimuli/Nonsocial3.png,stimuli/Nonsocial4.png,stimuli/Social1.png,stimuli/Social2.png,stimuli/Nonsocial1.png,stimuli/Nonsocial2.png,cs_pos_ns,"(0.7, -0.5)",,,,,,,,,0,0,0,0,,,,,,,,,1,4,20,15,,,,,,,,,,,,,,,,,,,,,,,,,,,,,,,,,,,,,,470.14937179999833,18,reward,1,0.5005999000004522,0.5006035000005795,470.6632166999989,,,,,,,,,,,,,,,,,,,,,,29,C,2024-05-08_10h25.05.635,attentional_competition_task,2022.2.4,143.82136236111725,
positions.xlsx,positions_test.xlsx,positions_test_new.xlsx,stimuli.xlsx,stimuli_new.xlsx,stimuli/Social3.png,stimuli/Social4.png,stimuli/Nonsocial3.png,stimuli/Nonsocial4.png,stimuli/Social1.png,stimuli/Social2.png,stimuli/Nonsocial1.png,stimuli/Nonsocial2.png,cs_pos_s,"(0.7, 0.5)",,,,,,,,,0,0,0,0,,,,,,,,,1,5,21,6,,,,,,,,,,,,,,,,,,,,,,,,,,,,,,,,,,,,,,477.66294689999995,21,reward,1,0.7776673999997001,0.7776713999992353,478.4476354999988,,,,,,,,,,,,,,,,,,,,,,29,C,2024-05-08_10h25.05.635,attentional_competition_task,2022.2.4,143.82136236111725,
positions.xlsx,positions_test.xlsx,positions_test_new.xlsx,stimuli.xlsx,stimuli_new.xlsx,stimuli/Social3.png,stimuli/Social4.png,stimuli/Nonsocial3.png,stimuli/Nonsocial4.png,stimuli/Social1.png,stimuli/Social2.png,stimuli/Nonsocial1.png,stimuli/Nonsocial2.png,cs_pos_ns,"(-0.7, 0.5)",,,,,,,,,0,0,0,0,,,,,,,,,1,6,22,12,,,,,,,,,,,,,,,,,,,,,,,,,,,,,,,,,,,,,,485.45429199999853,24,reward,1,0.7709445999989839,0.7709481999991112,486.2320962999984,,,,,,,,,,,,,,,,,,,,,,29,C,2024-05-08_10h25.05.635,attentional_competition_task,2022.2.4,143.82136236111725,
positions.xlsx,positions_test.xlsx,positions_test_new.xlsx,stimuli.xlsx,stimuli_new.xlsx,stimuli/Social3.png,stimuli/Social4.png,stimuli/Nonsocial3.png,stimuli/Nonsocial4.png,stimuli/Social1.png,stimuli/Social2.png,stimuli/Nonsocial1.png,stimuli/Nonsocial2.png,cs_neg_ns,"(0.7, -0.5)",,,,,,,,,0,0,0,0,,,,,,,,,1,7,23,11,,,,,,,,,,,,,,,,,,,,,,,,,,,,,,,,,,,,,,493.82202209999923,21,loss,1,1.2434004999995523,1.2434040999996796,495.07196589999876,,,,,,,,,,,,,,,,,,,,,,29,C,2024-05-08_10h25.05.635,attentional_competition_task,2022.2.4,143.82136236111725,
positions.xlsx,positions_test.xlsx,positions_test_new.xlsx,stimuli.xlsx,stimuli_new.xlsx,stimuli/Social3.png,stimuli/Social4.png,stimuli/Nonsocial3.png,stimuli/Nonsocial4.png,stimuli/Social1.png,stimuli/Social2.png,stimuli/Nonsocial1.png,stimuli/Nonsocial2.png,cs_neg_s,"(0.7, -0.5)",,,,,,,,,0,0,0,0,,,,,,,,,1,8,24,3,,,,,,,,,,,,,,,,,,,,,,,,,,,,,,,,,,,,,,501.73835119999967,21,none,0,,,504.7520920999996,,,,,,,,,,,,,,,,,,,,,,29,C,2024-05-08_10h25.05.635,attentional_competition_task,2022.2.4,143.82136236111725,
positions.xlsx,positions_test.xlsx,positions_test_new.xlsx,stimuli.xlsx,stimuli_new.xlsx,stimuli/Social3.png,stimuli/Social4.png,stimuli/Nonsocial3.png,stimuli/Nonsocial4.png,stimuli/Social1.png,stimuli/Social2.png,stimuli/Nonsocial1.png,stimuli/Nonsocial2.png,cs_pos_s,"(-0.7, -0.5)",,,,,,,,,0,0,0,0,,,,,,,,,1,9,25,5,,,,,,,,,,,,,,,,,,,,,,,,,,,,,,,,,,,,,,512.3698550999998,24,reward,1,0.5902382999993279,0.5902420999991591,512.9670064999991,,,,,,,,,,,,,,,,,,,,,,29,C,2024-05-08_10h25.05.635,attentional_competition_task,2022.2.4,143.82136236111725,
positions.xlsx,positions_test.xlsx,positions_test_new.xlsx,stimuli.xlsx,stimuli_new.xlsx,stimuli/Social3.png,stimuli/Social4.png,stimuli/Nonsocial3.png,stimuli/Nonsocial4.png,stimuli/Social1.png,stimuli/Social2.png,stimuli/Nonsocial1.png,stimuli/Nonsocial2.png,cs_pos_ns,"(-0.7, -0.5)",,,,,,,,,0,0,0,0,,,,,,,,,1,10,26,13,,,,,,,,,,,,,,,,,,,,,,,,,,,,,,,,,,,,,,521.029224599999,27,reward,1,0.6393400999986625,0.6393618999991304,521.6750408999997,,,,,,,,,,,,,,,,,,,,,,29,C,2024-05-08_10h25.05.635,attentional_competition_task,2022.2.4,143.82136236111725,
positions.xlsx,positions_test.xlsx,positions_test_new.xlsx,stimuli.xlsx,stimuli_new.xlsx,stimuli/Social3.png,stimuli/Social4.png,stimuli/Nonsocial3.png,stimuli/Nonsocial4.png,stimuli/Social1.png,stimuli/Social2.png,stimuli/Nonsocial1.png,stimuli/Nonsocial2.png,cs_neg_s,"(0.7, 0.5)",,,,,,,,,0,0,0,0,,,,,,,,,1,11,27,2,,,,,,,,,,,,,,,,,,,,,,,,,,,,,,,,,,,,,,529.0427713999998,27,none,0,,,532.0565486999985,,,,,,,,,,,,,,,,,,,,,,29,C,2024-05-08_10h25.05.635,attentional_competition_task,2022.2.4,143.82136236111725,
positions.xlsx,positions_test.xlsx,positions_test_new.xlsx,stimuli.xlsx,stimuli_new.xlsx,stimuli/Social3.png,stimuli/Social4.png,stimuli/Nonsocial3.png,stimuli/Nonsocial4.png,stimuli/Social1.png,stimuli/Social2.png,stimuli/Nonsocial1.png,stimuli/Nonsocial2.png,cs_pos_s,"(0.7, -0.5)",,,,,,,,,0,0,0,0,,,,,,,,,1,12,28,7,,,,,,,,,,,,,,,,,,,,,,,,,,,,,,,,,,,,,,539.8131211999989,30,reward,1,0.7640196000011201,0.7640232000012475,540.5839604999983,,,,,,,,,,,,,,,,,,,,,,29,C,2024-05-08_10h25.05.635,attentional_competition_task,2022.2.4,143.82136236111725,
positions.xlsx,positions_test.xlsx,positions_test_new.xlsx,stimuli.xlsx,stimuli_new.xlsx,stimuli/Social3.png,stimuli/Social4.png,stimuli/Nonsocial3.png,stimuli/Nonsocial4.png,stimuli/Social1.png,stimuli/Social2.png,stimuli/Nonsocial1.png,stimuli/Nonsocial2.png,cs_neg_ns,"(-0.7, -0.5)",,,,,,,,,0,0,0,0,,,,,,,,,1,13,29,9,,,,,,,,,,,,,,,,,,,,,,,,,,,,,,,,,,,,,,548.7572063999996,30,none,0,,,551.7709921999995,,,,,,,,,,,,,,,,,,,,,,29,C,2024-05-08_10h25.05.635,attentional_competition_task,2022.2.4,143.82136236111725,
positions.xlsx,positions_test.xlsx,positions_test_new.xlsx,stimuli.xlsx,stimuli_new.xlsx,stimuli/Social3.png,stimuli/Social4.png,stimuli/Nonsocial3.png,stimuli/Nonsocial4.png,stimuli/Social1.png,stimuli/Social2.png,stimuli/Nonsocial1.png,stimuli/Nonsocial2.png,cs_pos_s,"(-0.7, 0.5)",,,,,,,,,0,0,0,0,,,,,,,,,1,14,30,4,,,,,,,,,,,,,,,,,,,,,,,,,,,,,,,,,,,,,,558.8887943999998,33,reward,1,0.6736983000009786,0.6737154000002192,559.5692510999997,,,,,,,,,,,,,,,,,,,,,,29,C,2024-05-08_10h25.05.635,attentional_competition_task,2022.2.4,143.82136236111725,
positions.xlsx,positions_test.xlsx,positions_test_new.xlsx,stimuli.xlsx,stimuli_new.xlsx,stimuli/Social3.png,stimuli/Social4.png,stimuli/Nonsocial3.png,stimuli/Nonsocial4.png,stimuli/Social1.png,stimuli/Social2.png,stimuli/Nonsocial1.png,stimuli/Nonsocial2.png,cs_neg_s,"(-0.7, 0.5)",,,,,,,,,0,0,0,0,,,,,,,,,1,15,31,0,,,,,,,,,,,,,,,,,,,,,,,,,,,,,,,,,,,,,,566.6037112999984,33,none,0,,,569.6174813999987,,,,,,,,,,,,,,,,,,,,,,29,C,2024-05-08_10h25.05.635,attentional_competition_task,2022.2.4,143.82136236111725,
positions.xlsx,positions_test.xlsx,positions_test_new.xlsx,stimuli.xlsx,stimuli_new.xlsx,stimuli/Social3.png,stimuli/Social4.png,stimuli/Nonsocial3.png,stimuli/Nonsocial4.png,stimuli/Social1.png,stimuli/Social2.png,stimuli/Nonsocial1.png,stimuli/Nonsocial2.png,cs_neg_ns,"(0.7, 0.5)",,,,,,,,,0,0,0,0,,,,,,,,,,,,,0,0,0,10,,,,,,,,,,,,,,,,,,,,,,,,,,,,,,,,,,582.5197200999992,33,none,0,,,585.5334506999989,,,,,,,,,,,,,,,,,,,,,,29,C,2024-05-08_10h25.05.635,attentional_competition_task,2022.2.4,143.82136236111725,
positions.xlsx,positions_test.xlsx,positions_test_new.xlsx,stimuli.xlsx,stimuli_new.xlsx,stimuli/Social3.png,stimuli/Social4.png,stimuli/Nonsocial3.png,stimuli/Nonsocial4.png,stimuli/Social1.png,stimuli/Social2.png,stimuli/Nonsocial1.png,stimuli/Nonsocial2.png,cs_pos_ns,"(0.7, -0.5)",,,,,,,,,0,0,0,0,,,,,,,,,,,,,0,1,1,15,,,,,,,,,,,,,,,,,,,,,,,,,,,,,,,,,,593.1998556999988,36,reward,1,0.31247330000041984,0.3124771000002511,593.5192567999984,,,,,,,,,,,,,,,,,,,,,,29,C,2024-05-08_10h25.05.635,attentional_competition_task,2022.2.4,143.82136236111725,
positions.xlsx,positions_test.xlsx,positions_test_new.xlsx,stimuli.xlsx,stimuli_new.xlsx,stimuli/Social3.png,stimuli/Social4.png,stimuli/Nonsocial3.png,stimuli/Nonsocial4.png,stimuli/Social1.png,stimuli/Social2.png,stimuli/Nonsocial1.png,stimuli/Nonsocial2.png,cs_pos_s,"(-0.7, -0.5)",,,,,,,,,0,0,0,0,,,,,,,,,,,,,0,2,2,5,,,,,,,,,,,,,,,,,,,,,,,,,,,,,,,,,,600.4773476999999,39,reward,1,0.6249136999995244,0.6249171999988903,601.1092101999984,,,,,,,,,,,,,,,,,,,,,,29,C,2024-05-08_10h25.05.635,attentional_competition_task,2022.2.4,143.82136236111725,
positions.xlsx,positions_test.xlsx,positions_test_new.xlsx,stimuli.xlsx,stimuli_new.xlsx,stimuli/Social3.png,stimuli/Social4.png,stimuli/Nonsocial3.png,stimuli/Nonsocial4.png,stimuli/Social1.png,stimuli/Social2.png,stimuli/Nonsocial1.png,stimuli/Nonsocial2.png,cs_neg_s,"(0.7, 0.5)",,,,,,,,,0,0,0,0,,,,,,,,,,,,,0,3,3,2,,,,,,,,,,,,,,,,,,,,,,,,,,,,,,,,,,608.726955099999,39,none,0,,,611.7407179999991,,,,,,,,,,,,,,,,,,,,,,29,C,2024-05-08_10h25.05.635,attentional_competition_task,2022.2.4,143.82136236111725,
positions.xlsx,positions_test.xlsx,positions_test_new.xlsx,stimuli.xlsx,stimuli_new.xlsx,stimuli/Social3.png,stimuli/Social4.png,stimuli/Nonsocial3.png,stimuli/Nonsocial4.png,stimuli/Social1.png,stimuli/Social2.png,stimuli/Nonsocial1.png,stimuli/Nonsocial2.png,cs_pos_ns,"(0.7, 0.5)",,,,,,,,,0,0,0,0,,,,,,,,,,,,,0,4,4,14,,,,,,,,,,,,,,,,,,,,,,,,,,,,,,,,,,619.5806514999986,42,reward,1,0.6321117999996204,0.6390585999997711,620.2264811999994,,,,,,,,,,,,,,,,,,,,,,29,C,2024-05-08_10h25.05.635,attentional_competition_task,2022.2.4,143.82136236111725,
positions.xlsx,positions_test.xlsx,positions_test_new.xlsx,stimuli.xlsx,stimuli_new.xlsx,stimuli/Social3.png,stimuli/Social4.png,stimuli/Nonsocial3.png,stimuli/Nonsocial4.png,stimuli/Social1.png,stimuli/Social2.png,stimuli/Nonsocial1.png,stimuli/Nonsocial2.png,cs_pos_s,"(0.7, -0.5)",,,,,,,,,0,0,0,0,,,,,,,,,,,,,0,5,5,7,,,,,,,,,,,,,,,,,,,,,,,,,,,,,,,,,,627.8303346999983,45,reward,1,0.5621283000000403,0.562132200000633,628.3997812999987,,,,,,,,,,,,,,,,,,,,,,29,C,2024-05-08_10h25.05.635,attentional_competition_task,2022.2.4,143.82136236111725,
positions.xlsx,positions_test.xlsx,positions_test_new.xlsx,stimuli.xlsx,stimuli_new.xlsx,stimuli/Social3.png,stimuli/Social4.png,stimuli/Nonsocial3.png,stimuli/Nonsocial4.png,stimuli/Social1.png,stimuli/Social2.png,stimuli/Nonsocial1.png,stimuli/Nonsocial2.png,cs_neg_ns,"(-0.7, 0.5)",,,,,,,,,0,0,0,0,,,,,,,,,,,,,0,6,6,8,,,,,,,,,,,,,,,,,,,,,,,,,,,,,,,,,,636.2536058999995,42,loss,1,0.5346009999993839,0.5346191999997245,636.7952837999983,,,,,,,,,,,,,,,,,,,,,,29,C,2024-05-08_10h25.05.635,attentional_competition_task,2022.2.4,143.82136236111725,
positions.xlsx,positions_test.xlsx,positions_test_new.xlsx,stimuli.xlsx,stimuli_new.xlsx,stimuli/Social3.png,stimuli/Social4.png,stimuli/Nonsocial3.png,stimuli/Nonsocial4.png,stimuli/Social1.png,stimuli/Social2.png,stimuli/Nonsocial1.png,stimuli/Nonsocial2.png,cs_pos_ns,"(-0.7, -0.5)",,,,,,,,,0,0,0,0,,,,,,,,,,,,,0,7,7,13,,,,,,,,,,,,,,,,,,,,,,,,,,,,,,,,,,644.232409799999,45,reward,1,0.6182489000002533,0.62487770000007,644.8644009,,,,,,,,,,,,,,,,,,,,,,29,C,2024-05-08_10h25.05.635,attentional_competition_task,2022.2.4,143.82136236111725,
positions.xlsx,positions_test.xlsx,positions_test_new.xlsx,stimuli.xlsx,stimuli_new.xlsx,stimuli/Social3.png,stimuli/Social4.png,stimuli/Nonsocial3.png,stimuli/Nonsocial4.png,stimuli/Social1.png,stimuli/Social2.png,stimuli/Nonsocial1.png,stimuli/Nonsocial2.png,cs_pos_s,"(0.7, 0.5)",,,,,,,,,0,0,0,0,,,,,,,,,,,,,0,8,8,6,,,,,,,,,,,,,,,,,,,,,,,,,,,,,,,,,,652.2459973999994,48,reward,1,0.5280732000010175,0.5350950000010926,652.7876433999991,,,,,,,,,,,,,,,,,,,,,,29,C,2024-05-08_10h25.05.635,attentional_competition_task,2022.2.4,143.82136236111725,
positions.xlsx,positions_test.xlsx,positions_test_new.xlsx,stimuli.xlsx,stimuli_new.xlsx,stimuli/Social3.png,stimuli/Social4.png,stimuli/Nonsocial3.png,stimuli/Nonsocial4.png,stimuli/Social1.png,stimuli/Social2.png,stimuli/Nonsocial1.png,stimuli/Nonsocial2.png,cs_pos_ns,"(-0.7, 0.5)",,,,,,,,,0,0,0,0,,,,,,,,,,,,,0,9,9,12,,,,,,,,,,,,,,,,,,,,,,,,,,,,,,,,,,660.4887173999996,51,reward,1,0.6597682999999961,0.659771800001181,661.1553984999991,,,,,,,,,,,,,,,,,,,,,,29,C,2024-05-08_10h25.05.635,attentional_competition_task,2022.2.4,143.82136236111725,
positions.xlsx,positions_test.xlsx,positions_test_new.xlsx,stimuli.xlsx,stimuli_new.xlsx,stimuli/Social3.png,stimuli/Social4.png,stimuli/Nonsocial3.png,stimuli/Nonsocial4.png,stimuli/Social1.png,stimuli/Social2.png,stimuli/Nonsocial1.png,stimuli/Nonsocial2.png,cs_pos_s,"(-0.7, 0.5)",,,,,,,,,0,0,0,0,,,,,,,,,,,,,0,10,10,4,,,,,,,,,,,,,,,,,,,,,,,,,,,,,,,,,,668.3772788999995,54,reward,1,0.6601786000010179,0.6601826000005531,669.0439700999996,,,,,,,,,,,,,,,,,,,,,,29,C,2024-05-08_10h25.05.635,attentional_competition_task,2022.2.4,143.82136236111725,
positions.xlsx,positions_test.xlsx,positions_test_new.xlsx,stimuli.xlsx,stimuli_new.xlsx,stimuli/Social3.png,stimuli/Social4.png,stimuli/Nonsocial3.png,stimuli/Nonsocial4.png,stimuli/Social1.png,stimuli/Social2.png,stimuli/Nonsocial1.png,stimuli/Nonsocial2.png,cs_neg_ns,"(0.7, -0.5)",,,,,,,,,0,0,0,0,,,,,,,,,,,,,0,11,11,11,,,,,,,,,,,,,,,,,,,,,,,,,,,,,,,,,,676.3908005999983,54,none,0,,,679.4046139999991,,,,,,,,,,,,,,,,,,,,,,29,C,2024-05-08_10h25.05.635,attentional_competition_task,2022.2.4,143.82136236111725,
positions.xlsx,positions_test.xlsx,positions_test_new.xlsx,stimuli.xlsx,stimuli_new.xlsx,stimuli/Social3.png,stimuli/Social4.png,stimuli/Nonsocial3.png,stimuli/Nonsocial4.png,stimuli/Social1.png,stimuli/Social2.png,stimuli/Nonsocial1.png,stimuli/Nonsocial2.png,cs_neg_s,"(-0.7, 0.5)",,,,,,,,,0,0,0,0,,,,,,,,,,,,,0,12,12,0,,,,,,,,,,,,,,,,,,,,,,,,,,,,,,,,,,686.9181767999999,54,none,0,,,689.9250536,,,,,,,,,,,,,,,,,,,,,,29,C,2024-05-08_10h25.05.635,attentional_competition_task,2022.2.4,143.82136236111725,
positions.xlsx,positions_test.xlsx,positions_test_new.xlsx,stimuli.xlsx,stimuli_new.xlsx,stimuli/Social3.png,stimuli/Social4.png,stimuli/Nonsocial3.png,stimuli/Nonsocial4.png,stimuli/Social1.png,stimuli/Social2.png,stimuli/Nonsocial1.png,stimuli/Nonsocial2.png,cs_neg_s,"(0.7, -0.5)",,,,,,,,,0,0,0,0,,,,,,,,,,,,,0,13,13,3,,,,,,,,,,,,,,,,,,,,,,,,,,,,,,,,,,697.8135734999996,54,none,0,,,700.8203570999995,,,,,,,,,,,,,,,,,,,,,,29,C,2024-05-08_10h25.05.635,attentional_competition_task,2022.2.4,143.82136236111725,
positions.xlsx,positions_test.xlsx,positions_test_new.xlsx,stimuli.xlsx,stimuli_new.xlsx,stimuli/Social3.png,stimuli/Social4.png,stimuli/Nonsocial3.png,stimuli/Nonsocial4.png,stimuli/Social1.png,stimuli/Social2.png,stimuli/Nonsocial1.png,stimuli/Nonsocial2.png,cs_neg_s,"(-0.7, -0.5)",,,,,,,,,0,0,0,0,,,,,,,,,,,,,0,14,14,1,,,,,,,,,,,,,,,,,,,,,,,,,,,,,,,,,,708.5561738999986,54,none,0,,,711.5629688999998,,,,,,,,,,,,,,,,,,,,,,29,C,2024-05-08_10h25.05.635,attentional_competition_task,2022.2.4,143.82136236111725,
positions.xlsx,positions_test.xlsx,positions_test_new.xlsx,stimuli.xlsx,stimuli_new.xlsx,stimuli/Social3.png,stimuli/Social4.png,stimuli/Nonsocial3.png,stimuli/Nonsocial4.png,stimuli/Social1.png,stimuli/Social2.png,stimuli/Nonsocial1.png,stimuli/Nonsocial2.png,cs_neg_ns,"(-0.7, -0.5)",,,,,,,,,0,0,0,0,,,,,,,,,,,,,0,15,15,9,,,,,,,,,,,,,,,,,,,,,,,,,,,,,,,,,,718.8960332999995,54,none,0,,,721.9097977999991,,,,,,,,,,,,,,,,,,,,,,29,C,2024-05-08_10h25.05.635,attentional_competition_task,2022.2.4,143.82136236111725,
positions.xlsx,positions_test.xlsx,positions_test_new.xlsx,stimuli.xlsx,stimuli_new.xlsx,stimuli/Social3.png,stimuli/Social4.png,stimuli/Nonsocial3.png,stimuli/Nonsocial4.png,stimuli/Social1.png,stimuli/Social2.png,stimuli/Nonsocial1.png,stimuli/Nonsocial2.png,cs_neg_ns,"(-0.7, -0.5)",,,,,,,,,0,0,0,0,,,,,,,,,,,,,1,0,16,9,,,,,,,,,,,,,,,,,,,,,,,,,,,,,,,,,,728.7775267999987,54,none,0,,,731.7913275999999,,,,,,,,,,,,,,,,,,,,,,29,C,2024-05-08_10h25.05.635,attentional_competition_task,2022.2.4,143.82136236111725,
positions.xlsx,positions_test.xlsx,positions_test_new.xlsx,stimuli.xlsx,stimuli_new.xlsx,stimuli/Social3.png,stimuli/Social4.png,stimuli/Nonsocial3.png,stimuli/Nonsocial4.png,stimuli/Social1.png,stimuli/Social2.png,stimuli/Nonsocial1.png,stimuli/Nonsocial2.png,cs_neg_s,"(-0.7, 0.5)",,,,,,,,,0,0,0,0,,,,,,,,,,,,,1,1,17,0,,,,,,,,,,,,,,,,,,,,,,,,,,,,,,,,,,738.4993538999988,54,none,0,,,741.5061872999995,,,,,,,,,,,,,,,,,,,,,,29,C,2024-05-08_10h25.05.635,attentional_competition_task,2022.2.4,143.82136236111725,
positions.xlsx,positions_test.xlsx,positions_test_new.xlsx,stimuli.xlsx,stimuli_new.xlsx,stimuli/Social3.png,stimuli/Social4.png,stimuli/Nonsocial3.png,stimuli/Nonsocial4.png,stimuli/Social1.png,stimuli/Social2.png,stimuli/Nonsocial1.png,stimuli/Nonsocial2.png,cs_pos_ns,"(0.7, 0.5)",,,,,,,,,0,0,0,0,,,,,,,,,,,,,1,2,18,14,,,,,,,,,,,,,,,,,,,,,,,,,,,,,,,,,,749.2142048999995,57,reward,1,0.7082186000006914,0.7082222999997612,749.9294854,,,,,,,,,,,,,,,,,,,,,,29,C,2024-05-08_10h25.05.635,attentional_competition_task,2022.2.4,143.82136236111725,
positions.xlsx,positions_test.xlsx,positions_test_new.xlsx,stimuli.xlsx,stimuli_new.xlsx,stimuli/Social3.png,stimuli/Social4.png,stimuli/Nonsocial3.png,stimuli/Nonsocial4.png,stimuli/Social1.png,stimuli/Social2.png,stimuli/Nonsocial1.png,stimuli/Nonsocial2.png,cs_pos_s,"(0.7, 0.5)",,,,,,,,,0,0,0,0,,,,,,,,,,,,,1,3,19,6,,,,,,,,,,,,,,,,,,,,,,,,,,,,,,,,,,757.1444062999999,60,reward,1,1.5002266999999847,1.500230499999816,758.6513152999996,,,,,,,,,,,,,,,,,,,,,,29,C,2024-05-08_10h25.05.635,attentional_competition_task,2022.2.4,143.82136236111725,
positions.xlsx,positions_test.xlsx,positions_test_new.xlsx,stimuli.xlsx,stimuli_new.xlsx,stimuli/Social3.png,stimuli/Social4.png,stimuli/Nonsocial3.png,stimuli/Nonsocial4.png,stimuli/Social1.png,stimuli/Social2.png,stimuli/Nonsocial1.png,stimuli/Nonsocial2.png,cs_neg_ns,"(0.7, -0.5)",,,,,,,,,0,0,0,0,,,,,,,,,,,,,1,4,20,11,,,,,,,,,,,,,,,,,,,,,,,,,,,,,,,,,,766.255177699999,60,none,0,,,769.2689384999994,,,,,,,,,,,,,,,,,,,,,,29,C,2024-05-08_10h25.05.635,attentional_competition_task,2022.2.4,143.82136236111725,
positions.xlsx,positions_test.xlsx,positions_test_new.xlsx,stimuli.xlsx,stimuli_new.xlsx,stimuli/Social3.png,stimuli/Social4.png,stimuli/Nonsocial3.png,stimuli/Nonsocial4.png,stimuli/Social1.png,stimuli/Social2.png,stimuli/Nonsocial1.png,stimuli/Nonsocial2.png,cs_neg_s,"(-0.7, -0.5)",,,,,,,,,0,0,0,0,,,,,,,,,,,,,1,5,21,1,,,,,,,,,,,,,,,,,,,,,,,,,,,,,,,,,,776.6575482999997,57,loss,1,0.16002470000057656,0.16002879999905417,776.8241616999985,,,,,,,,,,,,,,,,,,,,,,29,C,2024-05-08_10h25.05.635,attentional_competition_task,2022.2.4,143.82136236111725,
positions.xlsx,positions_test.xlsx,positions_test_new.xlsx,stimuli.xlsx,stimuli_new.xlsx,stimuli/Social3.png,stimuli/Social4.png,stimuli/Nonsocial3.png,stimuli/Nonsocial4.png,stimuli/Social1.png,stimuli/Social2.png,stimuli/Nonsocial1.png,stimuli/Nonsocial2.png,cs_pos_ns,"(-0.7, 0.5)",,,,,,,,,0,0,0,0,,,,,,,,,,,,,1,6,22,12,,,,,,,,,,,,,,,,,,,,,,,,,,,,,,,,,,784.3655262999982,60,reward,1,0.7991199999996752,0.7991239999992104,785.1710364999999,,,,,,,,,,,,,,,,,,,,,,29,C,2024-05-08_10h25.05.635,attentional_competition_task,2022.2.4,143.82136236111725,
positions.xlsx,positions_test.xlsx,positions_test_new.xlsx,stimuli.xlsx,stimuli_new.xlsx,stimuli/Social3.png,stimuli/Social4.png,stimuli/Nonsocial3.png,stimuli/Nonsocial4.png,stimuli/Social1.png,stimuli/Social2.png,stimuli/Nonsocial1.png,stimuli/Nonsocial2.png,cs_pos_ns,"(-0.7, -0.5)",,,,,,,,,0,0,0,0,,,,,,,,,,,,,1,7,23,13,,,,,,,,,,,,,,,,,,,,,,,,,,,,,,,,,,792.3860175999998,63,reward,1,0.6664467999999033,0.6664505999997345,793.0596542999992,,,,,,,,,,,,,,,,,,,,,,29,C,2024-05-08_10h25.05.635,attentional_competition_task,2022.2.4,143.82136236111725,
positions.xlsx,positions_test.xlsx,positions_test_new.xlsx,stimuli.xlsx,stimuli_new.xlsx,stimuli/Social3.png,stimuli/Social4.png,stimuli/Nonsocial3.png,stimuli/Nonsocial4.png,stimuli/Social1.png,stimuli/Social2.png,stimuli/Nonsocial1.png,stimuli/Nonsocial2.png,cs_neg_s,"(0.7, 0.5)",,,,,,,,,0,0,0,0,,,,,,,,,,,,,1,8,24,2,,,,,,,,,,,,,,,,,,,,,,,,,,,,,,,,,,800.6843106999986,63,none,0,,,803.6981050999984,,,,,,,,,,,,,,,,,,,,,,29,C,2024-05-08_10h25.05.635,attentional_competition_task,2022.2.4,143.82136236111725,
positions.xlsx,positions_test.xlsx,positions_test_new.xlsx,stimuli.xlsx,stimuli_new.xlsx,stimuli/Social3.png,stimuli/Social4.png,stimuli/Nonsocial3.png,stimuli/Nonsocial4.png,stimuli/Social1.png,stimuli/Social2.png,stimuli/Nonsocial1.png,stimuli/Nonsocial2.png,cs_pos_s,"(0.7, -0.5)",,,,,,,,,0,0,0,0,,,,,,,,,,,,,1,9,25,7,,,,,,,,,,,,,,,,,,,,,,,,,,,,,,,,,,811.2116357999985,66,reward,1,0.4795552999985375,0.47955910000018775,811.6977138999991,,,,,,,,,,,,,,,,,,,,,,29,C,2024-05-08_10h25.05.635,attentional_competition_task,2022.2.4,143.82136236111725,
positions.xlsx,positions_test.xlsx,positions_test_new.xlsx,stimuli.xlsx,stimuli_new.xlsx,stimuli/Social3.png,stimuli/Social4.png,stimuli/Nonsocial3.png,stimuli/Nonsocial4.png,stimuli/Social1.png,stimuli/Social2.png,stimuli/Nonsocial1.png,stimuli/Nonsocial2.png,cs_pos_s,"(-0.7, -0.5)",,,,,,,,,0,0,0,0,,,,,,,,,,,,,1,10,26,5,,,,,,,,,,,,,,,,,,,,,,,,,,,,,,,,,,818.6905088999993,69,reward,1,0.4863385999997263,0.48634230000061507,819.1835345,,,,,,,,,,,,,,,,,,,,,,29,C,2024-05-08_10h25.05.635,attentional_competition_task,2022.2.4,143.82136236111725,
positions.xlsx,positions_test.xlsx,positions_test_new.xlsx,stimuli.xlsx,stimuli_new.xlsx,stimuli/Social3.png,stimuli/Social4.png,stimuli/Nonsocial3.png,stimuli/Nonsocial4.png,stimuli/Social1.png,stimuli/Social2.png,stimuli/Nonsocial1.png,stimuli/Nonsocial2.png,cs_pos_ns,"(0.7, -0.5)",,,,,,,,,0,0,0,0,,,,,,,,,,,,,1,11,27,15,,,,,,,,,,,,,,,,,,,,,,,,,,,,,,,,,,827.363752199999,72,reward,1,0.7086654000013368,0.708671400001549,828.0789986999989,,,,,,,,,,,,,,,,,,,,,,29,C,2024-05-08_10h25.05.635,attentional_competition_task,2022.2.4,143.82136236111725,
positions.xlsx,positions_test.xlsx,positions_test_new.xlsx,stimuli.xlsx,stimuli_new.xlsx,stimuli/Social3.png,stimuli/Social4.png,stimuli/Nonsocial3.png,stimuli/Nonsocial4.png,stimuli/Social1.png,stimuli/Social2.png,stimuli/Nonsocial1.png,stimuli/Nonsocial2.png,cs_pos_s,"(-0.7, 0.5)",,,,,,,,,0,0,0,0,,,,,,,,,,,,,1,12,28,4,,,,,,,,,,,,,,,,,,,,,,,,,,,,,,,,,,835.2453766999988,75,reward,1,0.5627182999996876,0.5627220000005764,835.8148002999988,,,,,,,,,,,,,,,,,,,,,,29,C,2024-05-08_10h25.05.635,attentional_competition_task,2022.2.4,143.82136236111725,
positions.xlsx,positions_test.xlsx,positions_test_new.xlsx,stimuli.xlsx,stimuli_new.xlsx,stimuli/Social3.png,stimuli/Social4.png,stimuli/Nonsocial3.png,stimuli/Nonsocial4.png,stimuli/Social1.png,stimuli/Social2.png,stimuli/Nonsocial1.png,stimuli/Nonsocial2.png,cs_neg_ns,"(-0.7, 0.5)",,,,,,,,,0,0,0,0,,,,,,,,,,,,,1,13,29,8,,,,,,,,,,,,,,,,,,,,,,,,,,,,,,,,,,843.2936308999997,75,none,0,,,846.3074822999988,,,,,,,,,,,,,,,,,,,,,,29,C,2024-05-08_10h25.05.635,attentional_competition_task,2022.2.4,143.82136236111725,
positions.xlsx,positions_test.xlsx,positions_test_new.xlsx,stimuli.xlsx,stimuli_new.xlsx,stimuli/Social3.png,stimuli/Social4.png,stimuli/Nonsocial3.png,stimuli/Nonsocial4.png,stimuli/Social1.png,stimuli/Social2.png,stimuli/Nonsocial1.png,stimuli/Nonsocial2.png,cs_neg_s,"(0.7, -0.5)",,,,,,,,,0,0,0,0,,,,,,,,,,,,,1,14,30,3,,,,,,,,,,,,,,,,,,,,,,,,,,,,,,,,,,853.7863033999984,75,none,0,,,856.7930987999989,,,,,,,,,,,,,,,,,,,,,,29,C,2024-05-08_10h25.05.635,attentional_competition_task,2022.2.4,143.82136236111725,
positions.xlsx,positions_test.xlsx,positions_test_new.xlsx,stimuli.xlsx,stimuli_new.xlsx,stimuli/Social3.png,stimuli/Social4.png,stimuli/Nonsocial3.png,stimuli/Nonsocial4.png,stimuli/Social1.png,stimuli/Social2.png,stimuli/Nonsocial1.png,stimuli/Nonsocial2.png,cs_neg_ns,"(0.7, 0.5)",,,,,,,,,0,0,0,0,,,,,,,,,,,,,1,15,31,10,,,,,,,,,,,,,,,,,,,,,,,,,,,,,,,,,,863.8136381999993,75,none,0,,,866.8204653999983,,,,,,,,,,,,,,,,,,,,,,29,C,2024-05-08_10h25.05.635,attentional_competition_task,2022.2.4,143.82136236111725,
positions.xlsx,positions_test.xlsx,positions_test_new.xlsx,stimuli.xlsx,stimuli_new.xlsx,stimuli/Social3.png,stimuli/Social4.png,stimuli/Nonsocial3.png,stimuli/Nonsocial4.png,stimuli/Social1.png,stimuli/Social2.png,stimuli/Nonsocial1.png,stimuli/Nonsocial2.png,cs_neg_ns,,,,,,,,,,0,0,0,0,,,,,,,,,,,,,,,,,0,0,0,1,,,,,,,,,,,,,,,,,,,,,,,871.3619595,5.0,6.10181139999986,,,,,,,,,,,,,,,,,,,,,,,,,,,,,,,,,29,C,2024-05-08_10h25.05.635,attentional_competition_task,2022.2.4,143.82136236111725,
positions.xlsx,positions_test.xlsx,positions_test_new.xlsx,stimuli.xlsx,stimuli_new.xlsx,stimuli/Social3.png,stimuli/Social4.png,stimuli/Nonsocial3.png,stimuli/Nonsocial4.png,stimuli/Social1.png,stimuli/Social2.png,stimuli/Nonsocial1.png,stimuli/Nonsocial2.png,cs_neg_s,,,,,,,,,,0,0,0,0,,,,,,,,,,,,,,,,,0,1,1,0,,,,,,,,,,,,,,,,,,,,,,,878.4519444999987,5.0,1.2312070000007225,,,,,,,,,,,,,,,,,,,,,,,,,,,,,,,,,29,C,2024-05-08_10h25.05.635,attentional_competition_task,2022.2.4,143.82136236111725,
positions.xlsx,positions_test.xlsx,positions_test_new.xlsx,stimuli.xlsx,stimuli_new.xlsx,stimuli/Social3.png,stimuli/Social4.png,stimuli/Nonsocial3.png,stimuli/Nonsocial4.png,stimuli/Social1.png,stimuli/Social2.png,stimuli/Nonsocial1.png,stimuli/Nonsocial2.png,cs_pos_ns,,,,,,,,,,0,0,0,0,,,,,,,,,,,,,,,,,0,2,2,3,,,,,,,,,,,,,,,,,,,,,,,879.7435842999985,7.0,1.4735020999996777,,,,,,,,,,,,,,,,,,,,,,,,,,,,,,,,,29,C,2024-05-08_10h25.05.635,attentional_competition_task,2022.2.4,143.82136236111725,
positions.xlsx,positions_test.xlsx,positions_test_new.xlsx,stimuli.xlsx,stimuli_new.xlsx,stimuli/Social3.png,stimuli/Social4.png,stimuli/Nonsocial3.png,stimuli/Nonsocial4.png,stimuli/Social1.png,stimuli/Social2.png,stimuli/Nonsocial1.png,stimuli/Nonsocial2.png,cs_pos_s,,,,,,,,,,0,0,0,0,,,,,,,,,,,,,,,,,0,3,3,2,,,,,,,,,,,,,,,,,,,,,,,881.2920916999992,6.0,2.6203345999983867,,,,,,,,,,,,,,,,,,,,,,,,,,,,,,,,,29,C,2024-05-08_10h25.05.635,attentional_competition_task,2022.2.4,143.82136236111725,
positions.xlsx,positions_test.xlsx,positions_test_new.xlsx,stimuli.xlsx,stimuli_new.xlsx,stimuli/Social3.png,stimuli/Social4.png,stimuli/Nonsocial3.png,stimuli/Nonsocial4.png,stimuli/Social1.png,stimuli/Social2.png,stimuli/Nonsocial1.png,stimuli/Nonsocial2.png,,,"(-0.7, -0.5)",cs_neg_s,"(-0.7, 0.5)",cs_pos_s,"(0.7, -0.5)",cs_pos_ns,"(0.7, 0.5)",cs_neg_ns,0,0,0,0,,,,,,,,,,,,,,,,,,,,,0,0,0,1,,,,,,,,,,,,,,,,,,,,,,,,,,,69,loss,,,,,884.0419745999989,890.5000440999993,890.5000440999993,890.5000440999993,890.5000440999993,0,,,0,,,0,,,0,,,891.7708336999985,891.7708336999985,891.7708336999985,891.7708336999985,29,C,2024-05-08_10h25.05.635,attentional_competition_task,2022.2.4,143.82136236111725,
positions.xlsx,positions_test.xlsx,positions_test_new.xlsx,stimuli.xlsx,stimuli_new.xlsx,stimuli/Social3.png,stimuli/Social4.png,stimuli/Nonsocial3.png,stimuli/Nonsocial4.png,stimuli/Social1.png,stimuli/Social2.png,stimuli/Nonsocial1.png,stimuli/Nonsocial2.png,,,"(-0.7, -0.5)",cs_pos_s,"(-0.7, 0.5)",cs_neg_s,"(0.7, -0.5)",cs_neg_ns,"(0.7, 0.5)",cs_pos_ns,0,0,0,0,,,,,,,,,,,,,,,,,,,,,0,1,1,6,,,,,,,,,,,,,,,,,,,,,,,,,,,75,reward,,,,,,899.2149735999992,899.2149735999992,899.2149735999992,899.2149735999992,0,,,0,,,0,,,0,,,900.1038318999999,900.1038318999999,900.1038318999999,900.1038318999999,29,C,2024-05-08_10h25.05.635,attentional_competition_task,2022.2.4,143.82136236111725,
positions.xlsx,positions_test.xlsx,positions_test_new.xlsx,stimuli.xlsx,stimuli_new.xlsx,stimuli/Social3.png,stimuli/Social4.png,stimuli/Nonsocial3.png,stimuli/Nonsocial4.png,stimuli/Social1.png,stimuli/Social2.png,stimuli/Nonsocial1.png,stimuli/Nonsocial2.png,,,"(-0.7, -0.5)",cs_neg_ns,"(-0.7, 0.5)",cs_pos_s,"(0.7, -0.5)",cs_pos_ns,"(0.7, 0.5)",cs_neg_s,0,0,0,0,,,,,,,,,,,,,,,,,,,,,0,2,2,13,,,,,,,,,,,,,,,,,,,,,,,,,,,81,reward,,,,,,907.4854514999988,907.4854514999988,907.4854514999988,907.4854514999988,0,,,0,,,0,,,0,,,908.6243117999984,908.6243117999984,908.6243117999984,908.6243117999984,29,C,2024-05-08_10h25.05.635,attentional_competition_task,2022.2.4,143.82136236111725,
positions.xlsx,positions_test.xlsx,positions_test_new.xlsx,stimuli.xlsx,stimuli_new.xlsx,stimuli/Social3.png,stimuli/Social4.png,stimuli/Nonsocial3.png,stimuli/Nonsocial4.png,stimuli/Social1.png,stimuli/Social2.png,stimuli/Nonsocial1.png,stimuli/Nonsocial2.png,,,"(-0.7, -0.5)",cs_neg_s,"(-0.7, 0.5)",cs_neg_ns,"(0.7, -0.5)",cs_pos_ns,"(0.7, 0.5)",cs_pos_s,0,0,0,0,,,,,,,,,,,,,,,,,,,,,0,3,3,3,,,,,,,,,,,,,,,,,,,,,,,,,,,90,reward,,,,,,916.9989806999984,916.9989806999984,916.9989806999984,916.9989806999984,0,,,0,,,0,,,0,,,917.7767117999992,917.7767117999992,917.7767117999992,917.7767117999992,29,C,2024-05-08_10h25.05.635,attentional_competition_task,2022.2.4,143.82136236111725,
positions.xlsx,positions_test.xlsx,positions_test_new.xlsx,stimuli.xlsx,stimuli_new.xlsx,stimuli/Social3.png,stimuli/Social4.png,stimuli/Nonsocial3.png,stimuli/Nonsocial4.png,stimuli/Social1.png,stimuli/Social2.png,stimuli/Nonsocial1.png,stimuli/Nonsocial2.png,,,"(-0.7, -0.5)",cs_pos_s,"(-0.7, 0.5)",cs_pos_ns,"(0.7, -0.5)",cs_neg_s,"(0.7, 0.5)",cs_neg_ns,0,0,0,0,,,,,,,,,,,,,,,,,,,,,0,4,4,10,,,,,,,,,,,,,,,,,,,,,,,,,,,99,reward,,,,,,926.061104299999,926.061104299999,926.061104299999,926.061104299999,0,,,0,,,0,,,0,,,926.769393999999,926.769393999999,926.769393999999,926.769393999999,29,C,2024-05-08_10h25.05.635,attentional_competition_task,2022.2.4,143.82136236111725,
positions.xlsx,positions_test.xlsx,positions_test_new.xlsx,stimuli.xlsx,stimuli_new.xlsx,stimuli/Social3.png,stimuli/Social4.png,stimuli/Nonsocial3.png,stimuli/Nonsocial4.png,stimuli/Social1.png,stimuli/Social2.png,stimuli/Nonsocial1.png,stimuli/Nonsocial2.png,,,"(-0.7, -0.5)",cs_neg_s,"(-0.7, 0.5)",cs_pos_ns,"(0.7, -0.5)",cs_pos_s,"(0.7, 0.5)",cs_neg_ns,0,0,0,0,,,,,,,,,,,,,,,,,,,,,0,5,5,4,,,,,,,,,,,,,,,,,,,,,,,,,,,102,reward,,,,,,934.3176715999998,934.3176715999998,934.3176715999998,934.3176715999998,0,,,0,,,1,0.15515210000012303,0.15515579999919282,0,,,934.4704728999986,934.4704728999986,934.4704728999986,934.4704728999986,29,C,2024-05-08_10h25.05.635,attentional_competition_task,2022.2.4,143.82136236111725,
positions.xlsx,positions_test.xlsx,positions_test_new.xlsx,stimuli.xlsx,stimuli_new.xlsx,stimuli/Social3.png,stimuli/Social4.png,stimuli/Nonsocial3.png,stimuli/Nonsocial4.png,stimuli/Social1.png,stimuli/Social2.png,stimuli/Nonsocial1.png,stimuli/Nonsocial2.png,,,"(-0.7, -0.5)",cs_pos_s,"(-0.7, 0.5)",cs_pos_ns,"(0.7, -0.5)",cs_neg_ns,"(0.7, 0.5)",cs_neg_s,0,0,0,0,,,,,,,,,,,,,,,,,,,,,0,6,6,11,,,,,,,,,,,,,,,,,,,,,,,,,,,111,reward,,,,,,942.4840382999992,942.4840382999992,942.4840382999992,942.4840382999992,0,,,0,,,0,,,0,,,943.1923260999993,943.1923260999993,943.1923260999993,943.1923260999993,29,C,2024-05-08_10h25.05.635,attentional_competition_task,2022.2.4,143.82136236111725,
positions.xlsx,positions_test.xlsx,positions_test_new.xlsx,stimuli.xlsx,stimuli_new.xlsx,stimuli/Social3.png,stimuli/Social4.png,stimuli/Nonsocial3.png,stimuli/Nonsocial4.png,stimuli/Social1.png,stimuli/Social2.png,stimuli/Nonsocial1.png,stimuli/Nonsocial2.png,,,"(-0.7, -0.5)",cs_pos_s,"(-0.7, 0.5)",cs_neg_ns,"(0.7, -0.5)",cs_neg_s,"(0.7, 0.5)",cs_pos_ns,0,0,0,0,,,,,,,,,,,,,,,,,,,,,0,7,7,8,,,,,,,,,,,,,,,,,,,,,,,,,,,114,reward,,,,,,950.4975944999987,950.4975944999987,950.4975944999987,950.4975944999987,1,0.021846399999049027,0.02185009999993781,0,,,0,,,0,,,950.4975944999987,950.4975944999987,950.4975944999987,950.4975944999987,29,C,2024-05-08_10h25.05.635,attentional_competition_task,2022.2.4,143.82136236111725,
positions.xlsx,positions_test.xlsx,positions_test_new.xlsx,stimuli.xlsx,stimuli_new.xlsx,stimuli/Social3.png,stimuli/Social4.png,stimuli/Nonsocial3.png,stimuli/Nonsocial4.png,stimuli/Social1.png,stimuli/Social2.png,stimuli/Nonsocial1.png,stimuli/Nonsocial2.png,,,"(-0.7, -0.5)",cs_neg_ns,"(-0.7, 0.5)",cs_pos_ns,"(0.7, -0.5)",cs_neg_s,"(0.7, 0.5)",cs_pos_s,0,0,0,0,,,,,,,,,,,,,,,,,,,,,0,8,8,17,,,,,,,,,,,,,,,,,,,,,,,,,,,123,reward,,,,,,958.7472581999991,958.7472581999991,958.7472581999991,958.7472581999991,0,,,0,,,0,,,1,0.024950999999418855,0.08792299999913666,959.337496099999,959.337496099999,959.337496099999,959.337496099999,29,C,2024-05-08_10h25.05.635,attentional_competition_task,2022.2.4,143.82136236111725,
positions.xlsx,positions_test.xlsx,positions_test_new.xlsx,stimuli.xlsx,stimuli_new.xlsx,stimuli/Social3.png,stimuli/Social4.png,stimuli/Nonsocial3.png,stimuli/Nonsocial4.png,stimuli/Social1.png,stimuli/Social2.png,stimuli/Nonsocial1.png,stimuli/Nonsocial2.png,,,"(-0.7, -0.5)",cs_pos_ns,"(-0.7, 0.5)",cs_neg_s,"(0.7, -0.5)",cs_pos_s,"(0.7, 0.5)",cs_neg_ns,0,0,0,0,,,,,,,,,,,,,,,,,,,,,0,9,9,22,,,,,,,,,,,,,,,,,,,,,,,,,,,129,reward,,,,,,967.6704710999984,967.6704710999984,967.6704710999984,967.6704710999984,0,,,0,,,0,,,0,,,968.5662838999997,968.5662838999997,968.5662838999997,968.5662838999997,29,C,2024-05-08_10h25.05.635,attentional_competition_task,2022.2.4,143.82136236111725,
positions.xlsx,positions_test.xlsx,positions_test_new.xlsx,stimuli.xlsx,stimuli_new.xlsx,stimuli/Social3.png,stimuli/Social4.png,stimuli/Nonsocial3.png,stimuli/Nonsocial4.png,stimuli/Social1.png,stimuli/Social2.png,stimuli/Nonsocial1.png,stimuli/Nonsocial2.png,,,"(-0.7, -0.5)",cs_pos_s,"(-0.7, 0.5)",cs_neg_ns,"(0.7, -0.5)",cs_pos_ns,"(0.7, 0.5)",cs_neg_s,0,0,0,0,,,,,,,,,,,,,,,,,,,,,0,10,10,9,,,,,,,,,,,,,,,,,,,,,,,,,,,138,reward,,,,,,976.9756748,976.9756748,976.9756748,976.9756748,0,,,0,,,0,,,0,,,977.802001,977.802001,977.802001,977.802001,29,C,2024-05-08_10h25.05.635,attentional_competition_task,2022.2.4,143.82136236111725,
positions.xlsx,positions_test.xlsx,positions_test_new.xlsx,stimuli.xlsx,stimuli_new.xlsx,stimuli/Social3.png,stimuli/Social4.png,stimuli/Nonsocial3.png,stimuli/Nonsocial4.png,stimuli/Social1.png,stimuli/Social2.png,stimuli/Nonsocial1.png,stimuli/Nonsocial2.png,,,"(-0.7, -0.5)",cs_neg_ns,"(-0.7, 0.5)",cs_pos_ns,"(0.7, -0.5)",cs_pos_s,"(0.7, 0.5)",cs_neg_s,0,0,0,0,,,,,,,,,,,,,,,,,,,,,0,11,11,16,,,,,,,,,,,,,,,,,,,,,,,,,,,147,reward,,,,,,985.3364321999998,985.3364321999998,985.3364321999998,985.3364321999998,0,,,0,,,0,,,0,,,985.9961219999986,985.9961219999986,985.9961219999986,985.9961219999986,29,C,2024-05-08_10h25.05.635,attentional_competition_task,2022.2.4,143.82136236111725,
positions.xlsx,positions_test.xlsx,positions_test_new.xlsx,stimuli.xlsx,stimuli_new.xlsx,stimuli/Social3.png,stimuli/Social4.png,stimuli/Nonsocial3.png,stimuli/Nonsocial4.png,stimuli/Social1.png,stimuli/Social2.png,stimuli/Nonsocial1.png,stimuli/Nonsocial2.png,,,"(-0.7, -0.5)",cs_neg_s,"(-0.7, 0.5)",cs_pos_s,"(0.7, -0.5)",cs_neg_ns,"(0.7, 0.5)",cs_pos_ns,0,0,0,0,,,,,,,,,,,,,,,,,,,,,0,12,12,0,,,,,,,,,,,,,,,,,,,,,,,,,,,156,reward,,,,,,993.5027172999999,993.5027172999999,993.5027172999999,993.5027172999999,0,,,0,,,0,,,0,,,994.3638192999988,994.3638192999988,994.3638192999988,994.3638192999988,29,C,2024-05-08_10h25.05.635,attentional_competition_task,2022.2.4,143.82136236111725,
positions.xlsx,positions_test.xlsx,positions_test_new.xlsx,stimuli.xlsx,stimuli_new.xlsx,stimuli/Social3.png,stimuli/Social4.png,stimuli/Nonsocial3.png,stimuli/Nonsocial4.png,stimuli/Social1.png,stimuli/Social2.png,stimuli/Nonsocial1.png,stimuli/Nonsocial2.png,,,"(-0.7, -0.5)",cs_pos_ns,"(-0.7, 0.5)",cs_neg_s,"(0.7, -0.5)",cs_neg_ns,"(0.7, 0.5)",cs_pos_s,0,0,0,0,,,,,,,,,,,,,,,,,,,,,0,13,13,23,,,,,,,,,,,,,,,,,,,,,,,,,,,165,reward,,,,,,1001.9329549999984,1001.9329549999984,1001.9329549999984,1001.9329549999984,0,,,0,,,0,,,0,,,1002.6134884999992,1002.6134884999992,1002.6134884999992,1002.6134884999992,29,C,2024-05-08_10h25.05.635,attentional_competition_task,2022.2.4,143.82136236111725,
positions.xlsx,positions_test.xlsx,positions_test_new.xlsx,stimuli.xlsx,stimuli_new.xlsx,stimuli/Social3.png,stimuli/Social4.png,stimuli/Nonsocial3.png,stimuli/Nonsocial4.png,stimuli/Social1.png,stimuli/Social2.png,stimuli/Nonsocial1.png,stimuli/Nonsocial2.png,,,"(-0.7, -0.5)",cs_pos_ns,"(-0.7, 0.5)",cs_pos_s,"(0.7, -0.5)",cs_neg_ns,"(0.7, 0.5)",cs_neg_s,0,0,0,0,,,,,,,,,,,,,,,,,,,,,0,14,14,18,,,,,,,,,,,,,,,,,,,,,,,,,,,174,reward,,,,,,1010.8979016999983,1010.8979016999983,1010.8979016999983,1010.8979016999983,0,,,0,,,0,,,0,,,1011.5506301999994,1011.5506301999994,1011.5506301999994,1011.5506301999994,29,C,2024-05-08_10h25.05.635,attentional_competition_task,2022.2.4,143.82136236111725,
positions.xlsx,positions_test.xlsx,positions_test_new.xlsx,stimuli.xlsx,stimuli_new.xlsx,stimuli/Social3.png,stimuli/Social4.png,stimuli/Nonsocial3.png,stimuli/Nonsocial4.png,stimuli/Social1.png,stimuli/Social2.png,stimuli/Nonsocial1.png,stimuli/Nonsocial2.png,,,"(-0.7, -0.5)",cs_neg_s,"(-0.7, 0.5)",cs_pos_ns,"(0.7, -0.5)",cs_neg_ns,"(0.7, 0.5)",cs_pos_s,0,0,0,0,,,,,,,,,,,,,,,,,,,,,0,15,15,5,,,,,,,,,,,,,,,,,,,,,,,,,,,183,reward,,,,,,1018.4530890999995,1018.4530890999995,1018.4530890999995,1018.4530890999995,0,,,0,,,0,,,0,,,1019.3627620999996,1019.3627620999996,1019.3627620999996,1019.3627620999996,29,C,2024-05-08_10h25.05.635,attentional_competition_task,2022.2.4,143.82136236111725,
positions.xlsx,positions_test.xlsx,positions_test_new.xlsx,stimuli.xlsx,stimuli_new.xlsx,stimuli/Social3.png,stimuli/Social4.png,stimuli/Nonsocial3.png,stimuli/Nonsocial4.png,stimuli/Social1.png,stimuli/Social2.png,stimuli/Nonsocial1.png,stimuli/Nonsocial2.png,,,"(-0.7, -0.5)",cs_pos_ns,"(-0.7, 0.5)",cs_neg_ns,"(0.7, -0.5)",cs_pos_s,"(0.7, 0.5)",cs_neg_s,0,0,0,0,,,,,,,,,,,,,,,,,,,,,0,16,16,20,,,,,,,,,,,,,,,,,,,,,,,,,,,192,reward,,,,,,1027.5430072,1027.5430072,1027.5430072,1027.5430072,0,,,0,,,0,,,0,,,1028.3971446999985,1028.3971446999985,1028.3971446999985,1028.3971446999985,29,C,2024-05-08_10h25.05.635,attentional_competition_task,2022.2.4,143.82136236111725,
positions.xlsx,positions_test.xlsx,positions_test_new.xlsx,stimuli.xlsx,stimuli_new.xlsx,stimuli/Social3.png,stimuli/Social4.png,stimuli/Nonsocial3.png,stimuli/Nonsocial4.png,stimuli/Social1.png,stimuli/Social2.png,stimuli/Nonsocial1.png,stimuli/Nonsocial2.png,,,"(-0.7, -0.5)",cs_neg_ns,"(-0.7, 0.5)",cs_neg_s,"(0.7, -0.5)",cs_pos_ns,"(0.7, 0.5)",cs_pos_s,0,0,0,0,,,,,,,,,,,,,,,,,,,,,0,17,17,15,,,,,,,,,,,,,,,,,,,,,,,,,,,201,reward,,,,,,1035.3412685999992,1035.3412685999992,1035.3412685999992,1035.3412685999992,0,,,0,,,0,,,0,,,1036.1051631999999,1036.1051631999999,1036.1051631999999,1036.1051631999999,29,C,2024-05-08_10h25.05.635,attentional_competition_task,2022.2.4,143.82136236111725,
positions.xlsx,positions_test.xlsx,positions_test_new.xlsx,stimuli.xlsx,stimuli_new.xlsx,stimuli/Social3.png,stimuli/Social4.png,stimuli/Nonsocial3.png,stimuli/Nonsocial4.png,stimuli/Social1.png,stimuli/Social2.png,stimuli/Nonsocial1.png,stimuli/Nonsocial2.png,,,"(-0.7, -0.5)",cs_pos_ns,"(-0.7, 0.5)",cs_pos_s,"(0.7, -0.5)",cs_neg_s,"(0.7, 0.5)",cs_neg_ns,0,0,0,0,,,,,,,,,,,,,,,,,,,,,0,18,18,19,,,,,,,,,,,,,,,,,,,,,,,,,,,210,reward,,,,,,1044.2020435999984,1044.2020435999984,1044.2020435999984,1044.2020435999984,0,,,0,,,0,,,0,,,1045.19506,1045.19506,1045.19506,1045.19506,29,C,2024-05-08_10h25.05.635,attentional_competition_task,2022.2.4,143.82136236111725,
positions.xlsx,positions_test.xlsx,positions_test_new.xlsx,stimuli.xlsx,stimuli_new.xlsx,stimuli/Social3.png,stimuli/Social4.png,stimuli/Nonsocial3.png,stimuli/Nonsocial4.png,stimuli/Social1.png,stimuli/Social2.png,stimuli/Nonsocial1.png,stimuli/Nonsocial2.png,,,"(-0.7, -0.5)",cs_neg_ns,"(-0.7, 0.5)",cs_neg_s,"(0.7, -0.5)",cs_pos_s,"(0.7, 0.5)",cs_pos_ns,0,0,0,0,,,,,,,,,,,,,,,,,,,,,0,19,19,14,,,,,,,,,,,,,,,,,,,,,,,,,,,219,reward,,,,,,1052.8128238999998,1052.8128238999998,1052.8128238999998,1052.8128238999998,0,,,0,,,0,,,0,,,1053.7086338999998,1053.7086338999998,1053.7086338999998,1053.7086338999998,29,C,2024-05-08_10h25.05.635,attentional_competition_task,2022.2.4,143.82136236111725,
positions.xlsx,positions_test.xlsx,positions_test_new.xlsx,stimuli.xlsx,stimuli_new.xlsx,stimuli/Social3.png,stimuli/Social4.png,stimuli/Nonsocial3.png,stimuli/Nonsocial4.png,stimuli/Social1.png,stimuli/Social2.png,stimuli/Nonsocial1.png,stimuli/Nonsocial2.png,,,"(-0.7, -0.5)",cs_pos_ns,"(-0.7, 0.5)",cs_neg_ns,"(0.7, -0.5)",cs_neg_s,"(0.7, 0.5)",cs_pos_s,0,0,0,0,,,,,,,,,,,,,,,,,,,,,0,20,20,21,,,,,,,,,,,,,,,,,,,,,,,,,,,228,reward,,,,,,1060.8402842999985,1060.8402842999985,1060.8402842999985,1060.8402842999985,0,,,0,,,0,,,0,,,1061.7291077999998,1061.7291077999998,1061.7291077999998,1061.7291077999998,29,C,2024-05-08_10h25.05.635,attentional_competition_task,2022.2.4,143.82136236111725,
positions.xlsx,positions_test.xlsx,positions_test_new.xlsx,stimuli.xlsx,stimuli_new.xlsx,stimuli/Social3.png,stimuli/Social4.png,stimuli/Nonsocial3.png,stimuli/Nonsocial4.png,stimuli/Social1.png,stimuli/Social2.png,stimuli/Nonsocial1.png,stimuli/Nonsocial2.png,,,"(-0.7, -0.5)",cs_neg_ns,"(-0.7, 0.5)",cs_pos_s,"(0.7, -0.5)",cs_neg_s,"(0.7, 0.5)",cs_pos_ns,0,0,0,0,,,,,,,,,,,,,,,,,,,,,0,21,21,12,,,,,,,,,,,,,,,,,,,,,,,,,,,237,reward,,,,,,1069.0482245999992,1069.0482245999992,1069.0482245999992,1069.0482245999992,0,,,0,,,0,,,0,,,1069.8607175999987,1069.8607175999987,1069.8607175999987,1069.8607175999987,29,C,2024-05-08_10h25.05.635,attentional_competition_task,2022.2.4,143.82136236111725,
positions.xlsx,positions_test.xlsx,positions_test_new.xlsx,stimuli.xlsx,stimuli_new.xlsx,stimuli/Social3.png,stimuli/Social4.png,stimuli/Nonsocial3.png,stimuli/Nonsocial4.png,stimuli/Social1.png,stimuli/Social2.png,stimuli/Nonsocial1.png,stimuli/Nonsocial2.png,,,"(-0.7, -0.5)",cs_pos_s,"(-0.7, 0.5)",cs_neg_s,"(0.7, -0.5)",cs_pos_ns,"(0.7, 0.5)",cs_neg_ns,0,0,0,0,,,,,,,,,,,,,,,,,,,,,0,22,22,7,,,,,,,,,,,,,,,,,,,,,,,,,,,246,reward,,,,,,1077.0479145999998,1077.0479145999998,1077.0479145999998,1077.0479145999998,0,,,0,,,0,,,0,,,1077.9367711999985,1077.9367711999985,1077.9367711999985,1077.9367711999985,29,C,2024-05-08_10h25.05.635,attentional_competition_task,2022.2.4,143.82136236111725,
positions.xlsx,positions_test.xlsx,positions_test_new.xlsx,stimuli.xlsx,stimuli_new.xlsx,stimuli/Social3.png,stimuli/Social4.png,stimuli/Nonsocial3.png,stimuli/Nonsocial4.png,stimuli/Social1.png,stimuli/Social2.png,stimuli/Nonsocial1.png,stimuli/Nonsocial2.png,,,"(-0.7, -0.5)",cs_neg_s,"(-0.7, 0.5)",cs_neg_ns,"(0.7, -0.5)",cs_pos_s,"(0.7, 0.5)",cs_pos_ns,0,0,0,0,,,,,,,,,,,,,,,,,,,,,0,23,23,2,,,,,,,,,,,,,,,,,,,,,,,,,,,255,reward,,,,,,1085.4225884999996,1085.4225884999996,1085.4225884999996,1085.4225884999996,0,,,0,,,0,,,0,,,1086.089216299999,1086.089216299999,1086.089216299999,1086.089216299999,29,C,2024-05-08_10h25.05.635,attentional_competition_task,2022.2.4,143.82136236111725,
positions.xlsx,positions_test.xlsx,positions_test_new.xlsx,stimuli.xlsx,stimuli_new.xlsx,stimuli/Social3.png,stimuli/Social4.png,stimuli/Nonsocial3.png,stimuli/Nonsocial4.png,stimuli/Social1.png,stimuli/Social2.png,stimuli/Nonsocial1.png,stimuli/Nonsocial2.png,,,"(-0.7, -0.5)",cs_pos_s,"(-0.7, 0.5)",cs_pos_ns,"(0.7, -0.5)",cs_neg_s,"(0.7, 0.5)",cs_neg_ns,0,0,0,0,,,,,,,,,,,,,,,,,,,,,1,0,24,10,,,,,,,,,,,,,,,,,,,,,,,,,,,264,reward,,,,,,1093.963851299999,1093.963851299999,1093.963851299999,1093.963851299999,0,,,0,,,0,,,0,,,1094.6791998999997,1094.6791998999997,1094.6791998999997,1094.6791998999997,29,C,2024-05-08_10h25.05.635,attentional_competition_task,2022.2.4,143.82136236111725,
positions.xlsx,positions_test.xlsx,positions_test_new.xlsx,stimuli.xlsx,stimuli_new.xlsx,stimuli/Social3.png,stimuli/Social4.png,stimuli/Nonsocial3.png,stimuli/Nonsocial4.png,stimuli/Social1.png,stimuli/Social2.png,stimuli/Nonsocial1.png,stimuli/Nonsocial2.png,,,"(-0.7, -0.5)",cs_pos_ns,"(-0.7, 0.5)",cs_neg_ns,"(0.7, -0.5)",cs_pos_s,"(0.7, 0.5)",cs_neg_s,0,0,0,0,,,,,,,,,,,,,,,,,,,,,1,1,25,20,,,,,,,,,,,,,,,,,,,,,,,,,,,273,reward,,,,,,1101.9288392999988,1101.9288392999988,1101.9288392999988,1101.9288392999988,0,,,0,,,0,,,0,,,1102.7690801999997,1102.7690801999997,1102.7690801999997,1102.7690801999997,29,C,2024-05-08_10h25.05.635,attentional_competition_task,2022.2.4,143.82136236111725,
positions.xlsx,positions_test.xlsx,positions_test_new.xlsx,stimuli.xlsx,stimuli_new.xlsx,stimuli/Social3.png,stimuli/Social4.png,stimuli/Nonsocial3.png,stimuli/Nonsocial4.png,stimuli/Social1.png,stimuli/Social2.png,stimuli/Nonsocial1.png,stimuli/Nonsocial2.png,,,"(-0.7, -0.5)",cs_neg_ns,"(-0.7, 0.5)",cs_neg_s,"(0.7, -0.5)",cs_pos_ns,"(0.7, 0.5)",cs_pos_s,0,0,0,0,,,,,,,,,,,,,,,,,,,,,1,2,26,15,,,,,,,,,,,,,,,,,,,,,,,,,,,282,reward,,,,,,1110.442340399999,1110.442340399999,1110.442340399999,1110.442340399999,0,,,0,,,0,,,0,,,1111.2826198999992,1111.2826198999992,1111.2826198999992,1111.2826198999992,29,C,2024-05-08_10h25.05.635,attentional_competition_task,2022.2.4,143.82136236111725,
positions.xlsx,positions_test.xlsx,positions_test_new.xlsx,stimuli.xlsx,stimuli_new.xlsx,stimuli/Social3.png,stimuli/Social4.png,stimuli/Nonsocial3.png,stimuli/Nonsocial4.png,stimuli/Social1.png,stimuli/Social2.png,stimuli/Nonsocial1.png,stimuli/Nonsocial2.png,,,"(-0.7, -0.5)",cs_pos_s,"(-0.7, 0.5)",cs_pos_ns,"(0.7, -0.5)",cs_neg_ns,"(0.7, 0.5)",cs_neg_s,0,0,0,0,,,,,,,,,,,,,,,,,,,,,1,3,27,11,,,,,,,,,,,,,,,,,,,,,,,,,,,291,reward,,,,,,1119.7267156999987,1119.7267156999987,1119.7267156999987,1119.7267156999987,0,,,0,,,0,,,0,,,1120.4072848999986,1120.4072848999986,1120.4072848999986,1120.4072848999986,29,C,2024-05-08_10h25.05.635,attentional_competition_task,2022.2.4,143.82136236111725,
positions.xlsx,positions_test.xlsx,positions_test_new.xlsx,stimuli.xlsx,stimuli_new.xlsx,stimuli/Social3.png,stimuli/Social4.png,stimuli/Nonsocial3.png,stimuli/Nonsocial4.png,stimuli/Social1.png,stimuli/Social2.png,stimuli/Nonsocial1.png,stimuli/Nonsocial2.png,,,"(-0.7, -0.5)",cs_neg_s,"(-0.7, 0.5)",cs_pos_s,"(0.7, -0.5)",cs_neg_ns,"(0.7, 0.5)",cs_pos_ns,0,0,0,0,,,,,,,,,,,,,,,,,,,,,1,4,28,0,,,,,,,,,,,,,,,,,,,,,,,,,,,300,reward,,,,,,1128.6290796999983,1128.6290796999983,1128.6290796999983,1128.6290796999983,0,,,0,,,0,,,0,,,1129.3999349999995,1129.3999349999995,1129.3999349999995,1129.3999349999995,29,C,2024-05-08_10h25.05.635,attentional_competition_task,2022.2.4,143.82136236111725,
positions.xlsx,positions_test.xlsx,positions_test_new.xlsx,stimuli.xlsx,stimuli_new.xlsx,stimuli/Social3.png,stimuli/Social4.png,stimuli/Nonsocial3.png,stimuli/Nonsocial4.png,stimuli/Social1.png,stimuli/Social2.png,stimuli/Nonsocial1.png,stimuli/Nonsocial2.png,,,"(-0.7, -0.5)",cs_pos_s,"(-0.7, 0.5)",cs_neg_s,"(0.7, -0.5)",cs_pos_ns,"(0.7, 0.5)",cs_neg_ns,0,0,0,0,,,,,,,,,,,,,,,,,,,,,1,5,29,7,,,,,,,,,,,,,,,,,,,,,,,,,,,309,reward,,,,,,1137.4690380999982,1137.4690380999982,1137.4690380999982,1137.4690380999982,0,,,0,,,0,,,0,,,1137.4690380999982,1137.4690380999982,1137.4690380999982,1137.4690380999982,29,C,2024-05-08_10h25.05.635,attentional_competition_task,2022.2.4,143.82136236111725,
positions.xlsx,positions_test.xlsx,positions_test_new.xlsx,stimuli.xlsx,stimuli_new.xlsx,stimuli/Social3.png,stimuli/Social4.png,stimuli/Nonsocial3.png,stimuli/Nonsocial4.png,stimuli/Social1.png,stimuli/Social2.png,stimuli/Nonsocial1.png,stimuli/Nonsocial2.png,,,"(-0.7, -0.5)",cs_neg_ns,"(-0.7, 0.5)",cs_pos_s,"(0.7, -0.5)",cs_neg_s,"(0.7, 0.5)",cs_pos_ns,0,0,0,0,,,,,,,,,,,,,,,,,,,,,1,6,30,12,,,,,,,,,,,,,,,,,,,,,,,,,,,312,loss,,,,,,1145.6145332999986,1145.6145332999986,1145.6145332999986,1145.6145332999986,1,0.0294302999991487,0.029434199999741395,0,,,0,,,0,,,1145.6145332999986,1145.6145332999986,1145.6145332999986,1145.6145332999986,29,C,2024-05-08_10h25.05.635,attentional_competition_task,2022.2.4,143.82136236111725,
positions.xlsx,positions_test.xlsx,positions_test_new.xlsx,stimuli.xlsx,stimuli_new.xlsx,stimuli/Social3.png,stimuli/Social4.png,stimuli/Nonsocial3.png,stimuli/Nonsocial4.png,stimuli/Social1.png,stimuli/Social2.png,stimuli/Nonsocial1.png,stimuli/Nonsocial2.png,,,"(-0.7, -0.5)",cs_pos_ns,"(-0.7, 0.5)",cs_pos_s,"(0.7, -0.5)",cs_neg_ns,"(0.7, 0.5)",cs_neg_s,0,0,0,0,,,,,,,,,,,,,,,,,,,,,1,7,31,18,,,,,,,,,,,,,,,,,,,,,,,,,,,321,reward,,,,,,1154.0933282999995,1154.0933282999995,1154.0933282999995,1154.0933282999995,0,,,0,,,0,,,0,,,1154.8711472999985,1154.8711472999985,1154.8711472999985,1154.8711472999985,29,C,2024-05-08_10h25.05.635,attentional_competition_task,2022.2.4,143.82136236111725,
positions.xlsx,positions_test.xlsx,positions_test_new.xlsx,stimuli.xlsx,stimuli_new.xlsx,stimuli/Social3.png,stimuli/Social4.png,stimuli/Nonsocial3.png,stimuli/Nonsocial4.png,stimuli/Social1.png,stimuli/Social2.png,stimuli/Nonsocial1.png,stimuli/Nonsocial2.png,,,"(-0.7, -0.5)",cs_neg_ns,"(-0.7, 0.5)",cs_pos_ns,"(0.7, -0.5)",cs_pos_s,"(0.7, 0.5)",cs_neg_s,0,0,0,0,,,,,,,,,,,,,,,,,,,,,1,8,32,16,,,,,,,,,,,,,,,,,,,,,,,,,,,330,reward,,,,,,1162.6554953999985,1162.6554953999985,1162.6554953999985,1162.6554953999985,0,,,0,,,0,,,0,,,1163.495743899999,1163.495743899999,1163.495743899999,1163.495743899999,29,C,2024-05-08_10h25.05.635,attentional_competition_task,2022.2.4,143.82136236111725,
positions.xlsx,positions_test.xlsx,positions_test_new.xlsx,stimuli.xlsx,stimuli_new.xlsx,stimuli/Social3.png,stimuli/Social4.png,stimuli/Nonsocial3.png,stimuli/Nonsocial4.png,stimuli/Social1.png,stimuli/Social2.png,stimuli/Nonsocial1.png,stimuli/Nonsocial2.png,,,"(-0.7, -0.5)",cs_neg_ns,"(-0.7, 0.5)",cs_pos_s,"(0.7, -0.5)",cs_pos_ns,"(0.7, 0.5)",cs_neg_s,0,0,0,0,,,,,,,,,,,,,,,,,,,,,1,9,33,13,,,,,,,,,,,,,,,,,,,,,,,,,,,339,reward,,,,,,1172.0231482999989,1172.0231482999989,1172.0231482999989,1172.0231482999989,0,,,0,,,0,,,0,,,1172.5648158999993,1172.5648158999993,1172.5648158999993,1172.5648158999993,29,C,2024-05-08_10h25.05.635,attentional_competition_task,2022.2.4,143.82136236111725,
positions.xlsx,positions_test.xlsx,positions_test_new.xlsx,stimuli.xlsx,stimuli_new.xlsx,stimuli/Social3.png,stimuli/Social4.png,stimuli/Nonsocial3.png,stimuli/Nonsocial4.png,stimuli/Social1.png,stimuli/Social2.png,stimuli/Nonsocial1.png,stimuli/Nonsocial2.png,,,"(-0.7, -0.5)",cs_pos_s,"(-0.7, 0.5)",cs_neg_ns,"(0.7, -0.5)",cs_pos_ns,"(0.7, 0.5)",cs_neg_s,0,0,0,0,,,,,,,,,,,,,,,,,,,,,1,10,34,9,,,,,,,,,,,,,,,,,,,,,,,,,,,348,reward,,,,,,1180.6616993999996,1180.6616993999996,1180.6616993999996,1180.6616993999996,0,,,0,,,0,,,0,,,1181.2519556999996,1181.2519556999996,1181.2519556999996,1181.2519556999996,29,C,2024-05-08_10h25.05.635,attentional_competition_task,2022.2.4,143.82136236111725,
positions.xlsx,positions_test.xlsx,positions_test_new.xlsx,stimuli.xlsx,stimuli_new.xlsx,stimuli/Social3.png,stimuli/Social4.png,stimuli/Nonsocial3.png,stimuli/Nonsocial4.png,stimuli/Social1.png,stimuli/Social2.png,stimuli/Nonsocial1.png,stimuli/Nonsocial2.png,,,"(-0.7, -0.5)",cs_neg_s,"(-0.7, 0.5)",cs_neg_ns,"(0.7, -0.5)",cs_pos_s,"(0.7, 0.5)",cs_pos_ns,0,0,0,0,,,,,,,,,,,,,,,,,,,,,1,11,35,2,,,,,,,,,,,,,,,,,,,,,,,,,,,357,reward,,,,,,1188.307189699999,1188.307189699999,1188.307189699999,1188.307189699999,0,,,0,,,0,,,0,,,1189.0988578999986,1189.0988578999986,1189.0988578999986,1189.0988578999986,29,C,2024-05-08_10h25.05.635,attentional_competition_task,2022.2.4,143.82136236111725,
positions.xlsx,positions_test.xlsx,positions_test_new.xlsx,stimuli.xlsx,stimuli_new.xlsx,stimuli/Social3.png,stimuli/Social4.png,stimuli/Nonsocial3.png,stimuli/Nonsocial4.png,stimuli/Social1.png,stimuli/Social2.png,stimuli/Nonsocial1.png,stimuli/Nonsocial2.png,,,"(-0.7, -0.5)",cs_neg_s,"(-0.7, 0.5)",cs_pos_ns,"(0.7, -0.5)",cs_pos_s,"(0.7, 0.5)",cs_neg_ns,0,0,0,0,,,,,,,,,,,,,,,,,,,,,1,12,36,4,,,,,,,,,,,,,,,,,,,,,,,,,,,366,reward,,,,,,1196.8416595999988,1196.8416595999988,1196.8416595999988,1196.8416595999988,0,,,0,,,0,,,0,,,1197.5429406999992,1197.5429406999992,1197.5429406999992,1197.5429406999992,29,C,2024-05-08_10h25.05.635,attentional_competition_task,2022.2.4,143.82136236111725,
positions.xlsx,positions_test.xlsx,positions_test_new.xlsx,stimuli.xlsx,stimuli_new.xlsx,stimuli/Social3.png,stimuli/Social4.png,stimuli/Nonsocial3.png,stimuli/Nonsocial4.png,stimuli/Social1.png,stimuli/Social2.png,stimuli/Nonsocial1.png,stimuli/Nonsocial2.png,,,"(-0.7, -0.5)",cs_pos_ns,"(-0.7, 0.5)",cs_neg_ns,"(0.7, -0.5)",cs_neg_s,"(0.7, 0.5)",cs_pos_s,0,0,0,0,,,,,,,,,,,,,,,,,,,,,1,13,37,21,,,,,,,,,,,,,,,,,,,,,,,,,,,369,reward,,,,,,1204.6885409999995,1204.6885409999995,1204.6885409999995,1204.6885409999995,0,,,0,,,0,,,1,0.025248100000681006,0.02525190000051225,1204.6885409999995,1204.6885409999995,1204.6885409999995,1204.6885409999995,29,C,2024-05-08_10h25.05.635,attentional_competition_task,2022.2.4,143.82136236111725,
positions.xlsx,positions_test.xlsx,positions_test_new.xlsx,stimuli.xlsx,stimuli_new.xlsx,stimuli/Social3.png,stimuli/Social4.png,stimuli/Nonsocial3.png,stimuli/Nonsocial4.png,stimuli/Social1.png,stimuli/Social2.png,stimuli/Nonsocial1.png,stimuli/Nonsocial2.png,,,"(-0.7, -0.5)",cs_neg_s,"(-0.7, 0.5)",cs_pos_s,"(0.7, -0.5)",cs_pos_ns,"(0.7, 0.5)",cs_neg_ns,0,0,0,0,,,,,,,,,,,,,,,,,,,,,1,14,38,1,,,,,,,,,,,,,,,,,,,,,,,,,,,378,reward,,,,,,1213.090898999999,1213.090898999999,1213.090898999999,1213.090898999999,0,,,0,,,0,,,0,,,1213.9519962999984,1213.9519962999984,1213.9519962999984,1213.9519962999984,29,C,2024-05-08_10h25.05.635,attentional_competition_task,2022.2.4,143.82136236111725,
positions.xlsx,positions_test.xlsx,positions_test_new.xlsx,stimuli.xlsx,stimuli_new.xlsx,stimuli/Social3.png,stimuli/Social4.png,stimuli/Nonsocial3.png,stimuli/Nonsocial4.png,stimuli/Social1.png,stimuli/Social2.png,stimuli/Nonsocial1.png,stimuli/Nonsocial2.png,,,"(-0.7, -0.5)",cs_neg_s,"(-0.7, 0.5)",cs_pos_ns,"(0.7, -0.5)",cs_neg_ns,"(0.7, 0.5)",cs_pos_s,0,0,0,0,,,,,,,,,,,,,,,,,,,,,1,15,39,5,,,,,,,,,,,,,,,,,,,,,,,,,,,387,reward,,,,,,1221.7294463999988,1221.7294463999988,1221.7294463999988,1221.7294463999988,0,,,0,,,0,,,0,,,1222.4863747,1222.4863747,1222.4863747,1222.4863747,29,C,2024-05-08_10h25.05.635,attentional_competition_task,2022.2.4,143.82136236111725,
positions.xlsx,positions_test.xlsx,positions_test_new.xlsx,stimuli.xlsx,stimuli_new.xlsx,stimuli/Social3.png,stimuli/Social4.png,stimuli/Nonsocial3.png,stimuli/Nonsocial4.png,stimuli/Social1.png,stimuli/Social2.png,stimuli/Nonsocial1.png,stimuli/Nonsocial2.png,,,"(-0.7, -0.5)",cs_pos_ns,"(-0.7, 0.5)",cs_pos_s,"(0.7, -0.5)",cs_neg_s,"(0.7, 0.5)",cs_neg_ns,0,0,0,0,,,,,,,,,,,,,,,,,,,,,1,16,40,19,,,,,,,,,,,,,,,,,,,,,,,,,,,396,reward,,,,,,1230.1874181999992,1230.1874181999992,1230.1874181999992,1230.1874181999992,0,,,0,,,0,,,0,,,1230.9304666999997,1230.9304666999997,1230.9304666999997,1230.9304666999997,29,C,2024-05-08_10h25.05.635,attentional_competition_task,2022.2.4,143.82136236111725,
positions.xlsx,positions_test.xlsx,positions_test_new.xlsx,stimuli.xlsx,stimuli_new.xlsx,stimuli/Social3.png,stimuli/Social4.png,stimuli/Nonsocial3.png,stimuli/Nonsocial4.png,stimuli/Social1.png,stimuli/Social2.png,stimuli/Nonsocial1.png,stimuli/Nonsocial2.png,,,"(-0.7, -0.5)",cs_pos_ns,"(-0.7, 0.5)",cs_neg_s,"(0.7, -0.5)",cs_neg_ns,"(0.7, 0.5)",cs_pos_s,0,0,0,0,,,,,,,,,,,,,,,,,,,,,1,17,41,23,,,,,,,,,,,,,,,,,,,,,,,,,,,405,reward,,,,,,1238.6107457999988,1238.6107457999988,1238.6107457999988,1238.6107457999988,0,,,0,,,0,,,0,,,1239.4440173999992,1239.4440173999992,1239.4440173999992,1239.4440173999992,29,C,2024-05-08_10h25.05.635,attentional_competition_task,2022.2.4,143.82136236111725,
positions.xlsx,positions_test.xlsx,positions_test_new.xlsx,stimuli.xlsx,stimuli_new.xlsx,stimuli/Social3.png,stimuli/Social4.png,stimuli/Nonsocial3.png,stimuli/Nonsocial4.png,stimuli/Social1.png,stimuli/Social2.png,stimuli/Nonsocial1.png,stimuli/Nonsocial2.png,,,"(-0.7, -0.5)",cs_pos_ns,"(-0.7, 0.5)",cs_neg_s,"(0.7, -0.5)",cs_pos_s,"(0.7, 0.5)",cs_neg_ns,0,0,0,0,,,,,,,,,,,,,,,,,,,,,1,18,42,22,,,,,,,,,,,,,,,,,,,,,,,,,,,414,reward,,,,,,1246.6172643999998,1246.6172643999998,1246.6172643999998,1246.6172643999998,0,,,0,,,0,,,0,,,1247.3950704,1247.3950704,1247.3950704,1247.3950704,29,C,2024-05-08_10h25.05.635,attentional_competition_task,2022.2.4,143.82136236111725,
positions.xlsx,positions_test.xlsx,positions_test_new.xlsx,stimuli.xlsx,stimuli_new.xlsx,stimuli/Social3.png,stimuli/Social4.png,stimuli/Nonsocial3.png,stimuli/Nonsocial4.png,stimuli/Social1.png,stimuli/Social2.png,stimuli/Nonsocial1.png,stimuli/Nonsocial2.png,,,"(-0.7, -0.5)",cs_pos_s,"(-0.7, 0.5)",cs_neg_ns,"(0.7, -0.5)",cs_neg_s,"(0.7, 0.5)",cs_pos_ns,0,0,0,0,,,,,,,,,,,,,,,,,,,,,1,19,43,8,,,,,,,,,,,,,,,,,,,,,,,,,,,417,reward,,,,,,1254.8877944999986,1254.8877944999986,1254.8877944999986,1254.8877944999986,0,,,0,,,0,,,1,0.023374099999273312,0.023377999999866006,1254.8877944999986,1254.8877944999986,1254.8877944999986,1254.8877944999986,29,C,2024-05-08_10h25.05.635,attentional_competition_task,2022.2.4,143.82136236111725,
positions.xlsx,positions_test.xlsx,positions_test_new.xlsx,stimuli.xlsx,stimuli_new.xlsx,stimuli/Social3.png,stimuli/Social4.png,stimuli/Nonsocial3.png,stimuli/Nonsocial4.png,stimuli/Social1.png,stimuli/Social2.png,stimuli/Nonsocial1.png,stimuli/Nonsocial2.png,,,"(-0.7, -0.5)",cs_neg_ns,"(-0.7, 0.5)",cs_pos_ns,"(0.7, -0.5)",cs_neg_s,"(0.7, 0.5)",cs_pos_s,0,0,0,0,,,,,,,,,,,,,,,,,,,,,1,20,44,17,,,,,,,,,,,,,,,,,,,,,,,,,,,426,reward,,,,,,1263.3527391999996,1263.3527391999996,1263.3527391999996,1263.3527391999996,0,,,0,,,0,,,0,,,1264.0124358999983,1264.0124358999983,1264.0124358999983,1264.0124358999983,29,C,2024-05-08_10h25.05.635,attentional_competition_task,2022.2.4,143.82136236111725,
positions.xlsx,positions_test.xlsx,positions_test_new.xlsx,stimuli.xlsx,stimuli_new.xlsx,stimuli/Social3.png,stimuli/Social4.png,stimuli/Nonsocial3.png,stimuli/Nonsocial4.png,stimuli/Social1.png,stimuli/Social2.png,stimuli/Nonsocial1.png,stimuli/Nonsocial2.png,,,"(-0.7, -0.5)",cs_pos_s,"(-0.7, 0.5)",cs_neg_s,"(0.7, -0.5)",cs_neg_ns,"(0.7, 0.5)",cs_pos_ns,0,0,0,0,,,,,,,,,,,,,,,,,,,,,1,21,45,6,,,,,,,,,,,,,,,,,,,,,,,,,,,435,reward,,,,,,1272.102324399999,1272.102324399999,1272.102324399999,1272.102324399999,0,,,0,,,0,,,0,,,1272.8870623999992,1272.8870623999992,1272.8870623999992,1272.8870623999992,29,C,2024-05-08_10h25.05.635,attentional_competition_task,2022.2.4,143.82136236111725,
positions.xlsx,positions_test.xlsx,positions_test_new.xlsx,stimuli.xlsx,stimuli_new.xlsx,stimuli/Social3.png,stimuli/Social4.png,stimuli/Nonsocial3.png,stimuli/Nonsocial4.png,stimuli/Social1.png,stimuli/Social2.png,stimuli/Nonsocial1.png,stimuli/Nonsocial2.png,,,"(-0.7, -0.5)",cs_neg_s,"(-0.7, 0.5)",cs_neg_ns,"(0.7, -0.5)",cs_pos_ns,"(0.7, 0.5)",cs_pos_s,0,0,0,0,,,,,,,,,,,,,,,,,,,,,1,22,46,3,,,,,,,,,,,,,,,,,,,,,,,,,,,444,reward,,,,,,1280.4770242999984,1280.4770242999984,1280.4770242999984,1280.4770242999984,0,,,0,,,0,,,0,,,1281.3103325999982,1281.3103325999982,1281.3103325999982,1281.3103325999982,29,C,2024-05-08_10h25.05.635,attentional_competition_task,2022.2.4,143.82136236111725,
positions.xlsx,positions_test.xlsx,positions_test_new.xlsx,stimuli.xlsx,stimuli_new.xlsx,stimuli/Social3.png,stimuli/Social4.png,stimuli/Nonsocial3.png,stimuli/Nonsocial4.png,stimuli/Social1.png,stimuli/Social2.png,stimuli/Nonsocial1.png,stimuli/Nonsocial2.png,,,"(-0.7, -0.5)",cs_neg_ns,"(-0.7, 0.5)",cs_neg_s,"(0.7, -0.5)",cs_pos_s,"(0.7, 0.5)",cs_pos_ns,0,0,0,0,,,,,,,,,,,,,,,,,,,,,1,23,47,14,,,,,,,,,,,,,,,,,,,,,,,,,,,453,reward,,,,,,1288.775340099999,1288.775340099999,1288.775340099999,1288.775340099999,0,,,0,,,0,,,0,,,1289.6711553999994,1289.6711553999994,1289.6711553999994,1289.6711553999994,29,C,2024-05-08_10h25.05.635,attentional_competition_task,2022.2.4,143.82136236111725,
positions.xlsx,positions_test.xlsx,positions_test_new.xlsx,stimuli.xlsx,stimuli_new.xlsx,stimuli/Social3.png,stimuli/Social4.png,stimuli/Nonsocial3.png,stimuli/Nonsocial4.png,stimuli/Social1.png,stimuli/Social2.png,stimuli/Nonsocial1.png,stimuli/Nonsocial2.png,,,"(-0.7, -0.5)",cs_pos_s,"(-0.7, 0.5)",cs_neg_ns_new,"(0.7, -0.5)",cs_pos_ns,"(0.7, 0.5)",cs_neg_s,0,0,0,0,,,,,,,,,,,,,,,,,,,,,,,,,,,,,0,0,0,24,0,0,0,0,,,,,,,,,,,,,,,456,reward,,,,,,1296.1847573999985,1296.1847573999985,1296.1847573999985,1296.1847573999985,0,,,0,,,1,0.8633021000005101,0.8633057999995799,0,,,1297.045795599999,1297.045795599999,1297.045795599999,1297.045795599999,29,C,2024-05-08_10h25.05.635,attentional_competition_task,2022.2.4,143.82136236111725,
positions.xlsx,positions_test.xlsx,positions_test_new.xlsx,stimuli.xlsx,stimuli_new.xlsx,stimuli/Social3.png,stimuli/Social4.png,stimuli/Nonsocial3.png,stimuli/Nonsocial4.png,stimuli/Social1.png,stimuli/Social2.png,stimuli/Nonsocial1.png,stimuli/Nonsocial2.png,,,"(-0.7, -0.5)",cs_pos_s,"(-0.7, 0.5)",cs_neg_ns_new,"(0.7, -0.5)",cs_pos_ns,"(0.7, 0.5)",cs_neg_s,0,0,0,0,,,,,,,,,,,,,,,,,,,,,,,,,,,,,0,0,0,24,1,0,1,0,,,,,,,,,,,,,,,459,reward,,,,,,1297.5458044999996,1297.5458044999996,1297.5458044999996,1297.5458044999996,1,0.5231349000005139,0.5300680000000284,0,,,0,,,0,,,1298.0804706,1298.0804706,1298.0804706,1298.0804706,29,C,2024-05-08_10h25.05.635,attentional_competition_task,2022.2.4,143.82136236111725,
positions.xlsx,positions_test.xlsx,positions_test_new.xlsx,stimuli.xlsx,stimuli_new.xlsx,stimuli/Social3.png,stimuli/Social4.png,stimuli/Nonsocial3.png,stimuli/Nonsocial4.png,stimuli/Social1.png,stimuli/Social2.png,stimuli/Nonsocial1.png,stimuli/Nonsocial2.png,,,"(-0.7, -0.5)",cs_pos_s,"(-0.7, 0.5)",cs_neg_ns_new,"(0.7, -0.5)",cs_pos_ns,"(0.7, 0.5)",cs_neg_s,0,0,0,0,,,,,,,,,,,,,,,,,,,,,,,,,,,,,0,0,0,24,,,,,,,,,,,,,,,,,,,,,,,,,,,,,,,,,,,,,,,,,,,,,,29,C,2024-05-08_10h25.05.635,attentional_competition_task,2022.2.4,143.82136236111725,
positions.xlsx,positions_test.xlsx,positions_test_new.xlsx,stimuli.xlsx,stimuli_new.xlsx,stimuli/Social3.png,stimuli/Social4.png,stimuli/Nonsocial3.png,stimuli/Nonsocial4.png,stimuli/Social1.png,stimuli/Social2.png,stimuli/Nonsocial1.png,stimuli/Nonsocial2.png,,,"(-0.7, -0.5)",cs_pos_ns,"(-0.7, 0.5)",cs_neg_s,"(0.7, -0.5)",cs_neg_ns,"(0.7, 0.5)",cs_pos_s,0,0,0,0,,,,,,,,,,,,,,,,,,,,,,,,,,,,,0,1,1,0,0,0,0,0,,,,,,,,,,,,,,,462,reward,,,,,,1304.601026799999,1304.601026799999,1304.601026799999,1304.601026799999,1,0.501492600000347,0.5014962000004743,0,,,0,,,0,,,1305.1079590999998,1305.1079590999998,1305.1079590999998,1305.1079590999998,29,C,2024-05-08_10h25.05.635,attentional_competition_task,2022.2.4,143.82136236111725,
positions.xlsx,positions_test.xlsx,positions_test_new.xlsx,stimuli.xlsx,stimuli_new.xlsx,stimuli/Social3.png,stimuli/Social4.png,stimuli/Nonsocial3.png,stimuli/Nonsocial4.png,stimuli/Social1.png,stimuli/Social2.png,stimuli/Nonsocial1.png,stimuli/Nonsocial2.png,,,"(-0.7, -0.5)",cs_pos_ns,"(-0.7, 0.5)",cs_neg_s,"(0.7, -0.5)",cs_neg_ns,"(0.7, 0.5)",cs_pos_s,0,0,0,0,,,,,,,,,,,,,,,,,,,,,,,,,,,,,0,1,1,0,1,0,1,0,,,,,,,,,,,,,,,459,loss,,,,,,1305.6426728999995,1305.6426728999995,1305.6426728999995,1305.6426728999995,0,,,0,,,1,0.029719000000113738,0.029722799999944982,0,,,1305.6426728999995,1305.6426728999995,1305.6426728999995,1305.6426728999995,29,C,2024-05-08_10h25.05.635,attentional_competition_task,2022.2.4,143.82136236111725,
positions.xlsx,positions_test.xlsx,positions_test_new.xlsx,stimuli.xlsx,stimuli_new.xlsx,stimuli/Social3.png,stimuli/Social4.png,stimuli/Nonsocial3.png,stimuli/Nonsocial4.png,stimuli/Social1.png,stimuli/Social2.png,stimuli/Nonsocial1.png,stimuli/Nonsocial2.png,,,"(-0.7, -0.5)",cs_pos_ns,"(-0.7, 0.5)",cs_neg_s,"(0.7, -0.5)",cs_neg_ns,"(0.7, 0.5)",cs_pos_s,0,0,0,0,,,,,,,,,,,,,,,,,,,,,,,,,,,,,0,1,1,0,2,0,2,0,,,,,,,,,,,,,,,462,reward,,,,,,1306.1703943999983,1306.1703943999983,1306.1703943999983,1306.1703943999983,0,,,0,,,0,,,1,0.025084000000788365,0.02508780000061961,1306.1703943999983,1306.1703943999983,1306.1703943999983,1306.1703943999983,29,C,2024-05-08_10h25.05.635,attentional_competition_task,2022.2.4,143.82136236111725,
positions.xlsx,positions_test.xlsx,positions_test_new.xlsx,stimuli.xlsx,stimuli_new.xlsx,stimuli/Social3.png,stimuli/Social4.png,stimuli/Nonsocial3.png,stimuli/Nonsocial4.png,stimuli/Social1.png,stimuli/Social2.png,stimuli/Nonsocial1.png,stimuli/Nonsocial2.png,,,"(-0.7, -0.5)",cs_pos_ns,"(-0.7, 0.5)",cs_neg_s,"(0.7, -0.5)",cs_neg_ns,"(0.7, 0.5)",cs_pos_s,0,0,0,0,,,,,,,,,,,,,,,,,,,,,,,,,,,,,0,1,1,0,,,,,,,,,,,,,,,,,,,,,,,,,,,,,,,,,,,,,,,,,,,,,,29,C,2024-05-08_10h25.05.635,attentional_competition_task,2022.2.4,143.82136236111725,
positions.xlsx,positions_test.xlsx,positions_test_new.xlsx,stimuli.xlsx,stimuli_new.xlsx,stimuli/Social3.png,stimuli/Social4.png,stimuli/Nonsocial3.png,stimuli/Nonsocial4.png,stimuli/Social1.png,stimuli/Social2.png,stimuli/Nonsocial1.png,stimuli/Nonsocial2.png,,,"(-0.7, -0.5)",cs_neg_ns,"(-0.7, 0.5)",cs_pos_s_new,"(0.7, -0.5)",cs_neg_s,"(0.7, 0.5)",cs_pos_ns,0,0,0,0,,,,,,,,,,,,,,,,,,,,,,,,,,,,,0,2,2,33,0,0,0,0,,,,,,,,,,,,,,,465,reward,,,,,,1313.7464836,1313.7464836,1313.7464836,1313.7464836,0,,,0,,,0,,,1,0.6970842000009725,0.6970875000006345,1314.4478353999984,1314.4478353999984,1314.4478353999984,1314.4478353999984,29,C,2024-05-08_10h25.05.635,attentional_competition_task,2022.2.4,143.82136236111725,
positions.xlsx,positions_test.xlsx,positions_test_new.xlsx,stimuli.xlsx,stimuli_new.xlsx,stimuli/Social3.png,stimuli/Social4.png,stimuli/Nonsocial3.png,stimuli/Nonsocial4.png,stimuli/Social1.png,stimuli/Social2.png,stimuli/Nonsocial1.png,stimuli/Nonsocial2.png,,,"(-0.7, -0.5)",cs_neg_ns,"(-0.7, 0.5)",cs_pos_s_new,"(0.7, -0.5)",cs_neg_s,"(0.7, 0.5)",cs_pos_ns,0,0,0,0,,,,,,,,,,,,,,,,,,,,,,,,,,,,,0,2,2,33,1,0,1,0,,,,,,,,,,,,,,,468,reward,,,,,,1314.9825748999992,1314.9825748999992,1314.9825748999992,1314.9825748999992,0,,,1,0.030007900000782683,0.030012100000021746,0,,,0,,,1314.9825748999992,1314.9825748999992,1314.9825748999992,1314.9825748999992,29,C,2024-05-08_10h25.05.635,attentional_competition_task,2022.2.4,143.82136236111725,
positions.xlsx,positions_test.xlsx,positions_test_new.xlsx,stimuli.xlsx,stimuli_new.xlsx,stimuli/Social3.png,stimuli/Social4.png,stimuli/Nonsocial3.png,stimuli/Nonsocial4.png,stimuli/Social1.png,stimuli/Social2.png,stimuli/Nonsocial1.png,stimuli/Nonsocial2.png,,,"(-0.7, -0.5)",cs_neg_ns,"(-0.7, 0.5)",cs_pos_s_new,"(0.7, -0.5)",cs_neg_s,"(0.7, 0.5)",cs_pos_ns,0,0,0,0,,,,,,,,,,,,,,,,,,,,,,,,,,,,,0,2,2,33,2,0,2,0,,,,,,,,,,,,,,,465,loss,,,,,,1315.5172829999992,1315.5172829999992,1315.5172829999992,1315.5172829999992,1,0.027580599999055266,0.02758479999829433,0,,,0,,,0,,,1315.5172829999992,1315.5172829999992,1315.5172829999992,1315.5172829999992,29,C,2024-05-08_10h25.05.635,attentional_competition_task,2022.2.4,143.82136236111725,
positions.xlsx,positions_test.xlsx,positions_test_new.xlsx,stimuli.xlsx,stimuli_new.xlsx,stimuli/Social3.png,stimuli/Social4.png,stimuli/Nonsocial3.png,stimuli/Nonsocial4.png,stimuli/Social1.png,stimuli/Social2.png,stimuli/Nonsocial1.png,stimuli/Nonsocial2.png,,,"(-0.7, -0.5)",cs_neg_ns,"(-0.7, 0.5)",cs_pos_s_new,"(0.7, -0.5)",cs_neg_s,"(0.7, 0.5)",cs_pos_ns,0,0,0,0,,,,,,,,,,,,,,,,,,,,,,,,,,,,,0,2,2,33,,,,,,,,,,,,,,,,,,,,,,,,,,,,,,,,,,,,,,,,,,,,,,29,C,2024-05-08_10h25.05.635,attentional_competition_task,2022.2.4,143.82136236111725,
positions.xlsx,positions_test.xlsx,positions_test_new.xlsx,stimuli.xlsx,stimuli_new.xlsx,stimuli/Social3.png,stimuli/Social4.png,stimuli/Nonsocial3.png,stimuli/Nonsocial4.png,stimuli/Social1.png,stimuli/Social2.png,stimuli/Nonsocial1.png,stimuli/Nonsocial2.png,,,"(-0.7, -0.5)",cs_neg_s,"(-0.7, 0.5)",cs_pos_ns,"(0.7, -0.5)",cs_neg_ns_new,"(0.7, 0.5)",cs_pos_s,0,0,0,0,,,,,,,,,,,,,,,,,,,,,,,,,,,,,0,3,3,26,0,0,0,0,,,,,,,,,,,,,,,468,reward,,,,,,1321.6003349999992,1321.6003349999992,1321.6003349999992,1321.6003349999992,0,,,0,,,0,,,1,1.0377772000010737,1.0377810999998474,1322.6419087999984,1322.6419087999984,1322.6419087999984,1322.6419087999984,29,C,2024-05-08_10h25.05.635,attentional_competition_task,2022.2.4,143.82136236111725,
positions.xlsx,positions_test.xlsx,positions_test_new.xlsx,stimuli.xlsx,stimuli_new.xlsx,stimuli/Social3.png,stimuli/Social4.png,stimuli/Nonsocial3.png,stimuli/Nonsocial4.png,stimuli/Social1.png,stimuli/Social2.png,stimuli/Nonsocial1.png,stimuli/Nonsocial2.png,,,"(-0.7, -0.5)",cs_neg_s,"(-0.7, 0.5)",cs_pos_ns,"(0.7, -0.5)",cs_neg_ns_new,"(0.7, 0.5)",cs_pos_s,0,0,0,0,,,,,,,,,,,,,,,,,,,,,,,,,,,,,0,3,3,26,1,0,1,0,,,,,,,,,,,,,,,471,reward,,,,,,1323.1488582999991,1323.1488582999991,1323.1488582999991,1323.1488582999991,0,,,1,0.07873189999918395,0.07874179999998887,0,,,0,,,1323.2252792999989,1323.2252792999989,1323.2252792999989,1323.2252792999989,29,C,2024-05-08_10h25.05.635,attentional_competition_task,2022.2.4,143.82136236111725,
positions.xlsx,positions_test.xlsx,positions_test_new.xlsx,stimuli.xlsx,stimuli_new.xlsx,stimuli/Social3.png,stimuli/Social4.png,stimuli/Nonsocial3.png,stimuli/Nonsocial4.png,stimuli/Social1.png,stimuli/Social2.png,stimuli/Nonsocial1.png,stimuli/Nonsocial2.png,,,"(-0.7, -0.5)",cs_neg_s,"(-0.7, 0.5)",cs_pos_ns,"(0.7, -0.5)",cs_neg_ns_new,"(0.7, 0.5)",cs_pos_s,0,0,0,0,,,,,,,,,,,,,,,,,,,,,,,,,,,,,0,3,3,26,,,,,,,,,,,,,,,,,,,,,,,,,,,,,,,,,,,,,,,,,,,,,,29,C,2024-05-08_10h25.05.635,attentional_competition_task,2022.2.4,143.82136236111725,
positions.xlsx,positions_test.xlsx,positions_test_new.xlsx,stimuli.xlsx,stimuli_new.xlsx,stimuli/Social3.png,stimuli/Social4.png,stimuli/Nonsocial3.png,stimuli/Nonsocial4.png,stimuli/Social1.png,stimuli/Social2.png,stimuli/Nonsocial1.png,stimuli/Nonsocial2.png,,,"(-0.7, -0.5)",cs_pos_s,"(-0.7, 0.5)",cs_pos_ns,"(0.7, -0.5)",cs_neg_ns_new,"(0.7, 0.5)",cs_neg_s,0,0,0,0,,,,,,,,,,,,,,,,,,,,,,,,,,,,,0,4,4,18,0,0,0,0,,,,,,,,,,,,,,,468,loss,,,,,,1330.3985536,1330.3985536,1330.3985536,1330.3985536,0,,,0,,,1,0.6901121999999305,0.6901163000002271,0,,,1331.0999448999992,1331.0999448999992,1331.0999448999992,1331.0999448999992,29,C,2024-05-08_10h25.05.635,attentional_competition_task,2022.2.4,143.82136236111725,
positions.xlsx,positions_test.xlsx,positions_test_new.xlsx,stimuli.xlsx,stimuli_new.xlsx,stimuli/Social3.png,stimuli/Social4.png,stimuli/Nonsocial3.png,stimuli/Nonsocial4.png,stimuli/Social1.png,stimuli/Social2.png,stimuli/Nonsocial1.png,stimuli/Nonsocial2.png,,,"(-0.7, -0.5)",cs_pos_s,"(-0.7, 0.5)",cs_pos_ns,"(0.7, -0.5)",cs_neg_ns_new,"(0.7, 0.5)",cs_neg_s,0,0,0,0,,,,,,,,,,,,,,,,,,,,,,,,,,,,,0,4,4,18,1,0,1,0,,,,,,,,,,,,,,,465,loss,,,,,,1331.634616199999,1331.634616199999,1331.634616199999,1331.634616199999,0,,,0,,,0,,,1,0.03225609999935841,0.032260099998893565,1331.634616199999,1331.634616199999,1331.634616199999,1331.634616199999,29,C,2024-05-08_10h25.05.635,attentional_competition_task,2022.2.4,143.82136236111725,
positions.xlsx,positions_test.xlsx,positions_test_new.xlsx,stimuli.xlsx,stimuli_new.xlsx,stimuli/Social3.png,stimuli/Social4.png,stimuli/Nonsocial3.png,stimuli/Nonsocial4.png,stimuli/Social1.png,stimuli/Social2.png,stimuli/Nonsocial1.png,stimuli/Nonsocial2.png,,,"(-0.7, -0.5)",cs_pos_s,"(-0.7, 0.5)",cs_pos_ns,"(0.7, -0.5)",cs_neg_ns_new,"(0.7, 0.5)",cs_neg_s,0,0,0,0,,,,,,,,,,,,,,,,,,,,,,,,,,,,,0,4,4,18,2,0,2,0,,,,,,,,,,,,,,,468,reward,,,,,,1332.1693597999983,1332.1693597999983,1332.1693597999983,1332.1693597999983,0,,,1,0.028341199998976663,0.028358199999274802,0,,,0,,,1332.1693597999983,1332.1693597999983,1332.1693597999983,1332.1693597999983,29,C,2024-05-08_10h25.05.635,attentional_competition_task,2022.2.4,143.82136236111725,
positions.xlsx,positions_test.xlsx,positions_test_new.xlsx,stimuli.xlsx,stimuli_new.xlsx,stimuli/Social3.png,stimuli/Social4.png,stimuli/Nonsocial3.png,stimuli/Nonsocial4.png,stimuli/Social1.png,stimuli/Social2.png,stimuli/Nonsocial1.png,stimuli/Nonsocial2.png,,,"(-0.7, -0.5)",cs_pos_s,"(-0.7, 0.5)",cs_pos_ns,"(0.7, -0.5)",cs_neg_ns_new,"(0.7, 0.5)",cs_neg_s,0,0,0,0,,,,,,,,,,,,,,,,,,,,,,,,,,,,,0,4,4,18,,,,,,,,,,,,,,,,,,,,,,,,,,,,,,,,,,,,,,,,,,,,,,29,C,2024-05-08_10h25.05.635,attentional_competition_task,2022.2.4,143.82136236111725,
positions.xlsx,positions_test.xlsx,positions_test_new.xlsx,stimuli.xlsx,stimuli_new.xlsx,stimuli/Social3.png,stimuli/Social4.png,stimuli/Nonsocial3.png,stimuli/Nonsocial4.png,stimuli/Social1.png,stimuli/Social2.png,stimuli/Nonsocial1.png,stimuli/Nonsocial2.png,,,"(-0.7, -0.5)",cs_neg_s,"(-0.7, 0.5)",cs_pos_ns,"(0.7, -0.5)",cs_neg_ns,"(0.7, 0.5)",cs_pos_s_new,0,0,0,0,,,,,,,,,,,,,,,,,,,,,,,,,,,,,0,5,5,36,0,0,0,0,,,,,,,,,,,,,,,471,reward,,,,,,1338.7732340999992,1338.7732340999992,1338.7732340999992,1338.7732340999992,0,,,0,,,0,,,1,1.1624358000008215,1.1624393999991298,1339.9398331999982,1339.9398331999982,1339.9398331999982,1339.9398331999982,29,C,2024-05-08_10h25.05.635,attentional_competition_task,2022.2.4,143.82136236111725,
positions.xlsx,positions_test.xlsx,positions_test_new.xlsx,stimuli.xlsx,stimuli_new.xlsx,stimuli/Social3.png,stimuli/Social4.png,stimuli/Nonsocial3.png,stimuli/Nonsocial4.png,stimuli/Social1.png,stimuli/Social2.png,stimuli/Nonsocial1.png,stimuli/Nonsocial2.png,,,"(-0.7, -0.5)",cs_neg_s,"(-0.7, 0.5)",cs_pos_ns,"(0.7, -0.5)",cs_neg_ns,"(0.7, 0.5)",cs_pos_s_new,0,0,0,0,,,,,,,,,,,,,,,,,,,,,,,,,,,,,0,5,5,36,1,0,1,0,,,,,,,,,,,,,,,468,loss,,,,,,1340.4745533999994,1340.4745533999994,1340.4745533999994,1340.4745533999994,0,,,0,,,1,0.029504599999199854,0.029508499999792548,0,,,1340.4745533999994,1340.4745533999994,1340.4745533999994,1340.4745533999994,29,C,2024-05-08_10h25.05.635,attentional_competition_task,2022.2.4,143.82136236111725,
positions.xlsx,positions_test.xlsx,positions_test_new.xlsx,stimuli.xlsx,stimuli_new.xlsx,stimuli/Social3.png,stimuli/Social4.png,stimuli/Nonsocial3.png,stimuli/Nonsocial4.png,stimuli/Social1.png,stimuli/Social2.png,stimuli/Nonsocial1.png,stimuli/Nonsocial2.png,,,"(-0.7, -0.5)",cs_neg_s,"(-0.7, 0.5)",cs_pos_ns,"(0.7, -0.5)",cs_neg_ns,"(0.7, 0.5)",cs_pos_s_new,0,0,0,0,,,,,,,,,,,,,,,,,,,,,,,,,,,,,0,5,5,36,,,,,,,,,,,,,,,,,,,,,,,,,,,,,,,,,,,,,,,,,,,,,,29,C,2024-05-08_10h25.05.635,attentional_competition_task,2022.2.4,143.82136236111725,
positions.xlsx,positions_test.xlsx,positions_test_new.xlsx,stimuli.xlsx,stimuli_new.xlsx,stimuli/Social3.png,stimuli/Social4.png,stimuli/Nonsocial3.png,stimuli/Nonsocial4.png,stimuli/Social1.png,stimuli/Social2.png,stimuli/Nonsocial1.png,stimuli/Nonsocial2.png,,,"(-0.7, -0.5)",cs_pos_ns,"(-0.7, 0.5)",cs_pos_s_new,"(0.7, -0.5)",cs_neg_s,"(0.7, 0.5)",cs_neg_ns,0,0,0,0,,,,,,,,,,,,,,,,,,,,,,,,,,,,,0,6,6,34,0,0,0,0,,,,,,,,,,,,,,,471,reward,,,,,,1347.2520357999983,1347.2520357999983,1347.2520357999983,1347.2520357999983,1,0.4327479999992647,0.4327517000001535,0,,,0,,,0,,,1347.696447299999,1347.696447299999,1347.696447299999,1347.696447299999,29,C,2024-05-08_10h25.05.635,attentional_competition_task,2022.2.4,143.82136236111725,
positions.xlsx,positions_test.xlsx,positions_test_new.xlsx,stimuli.xlsx,stimuli_new.xlsx,stimuli/Social3.png,stimuli/Social4.png,stimuli/Nonsocial3.png,stimuli/Nonsocial4.png,stimuli/Social1.png,stimuli/Social2.png,stimuli/Nonsocial1.png,stimuli/Nonsocial2.png,,,"(-0.7, -0.5)",cs_pos_ns,"(-0.7, 0.5)",cs_pos_s_new,"(0.7, -0.5)",cs_neg_s,"(0.7, 0.5)",cs_neg_ns,0,0,0,0,,,,,,,,,,,,,,,,,,,,,,,,,,,,,0,6,6,34,1,0,1,0,,,,,,,,,,,,,,,474,reward,,,,,,1348.1964518999994,1348.1964518999994,1348.1964518999994,1348.1964518999994,1,0.029356300001381896,0.05087470000034955,1,0.30802500000027067,0.30802870000115945,0,,,0,,,1348.502047099999,1348.502047099999,1348.502047099999,1348.502047099999,29,C,2024-05-08_10h25.05.635,attentional_competition_task,2022.2.4,143.82136236111725,
positions.xlsx,positions_test.xlsx,positions_test_new.xlsx,stimuli.xlsx,stimuli_new.xlsx,stimuli/Social3.png,stimuli/Social4.png,stimuli/Nonsocial3.png,stimuli/Nonsocial4.png,stimuli/Social1.png,stimuli/Social2.png,stimuli/Nonsocial1.png,stimuli/Nonsocial2.png,,,"(-0.7, -0.5)",cs_pos_ns,"(-0.7, 0.5)",cs_pos_s_new,"(0.7, -0.5)",cs_neg_s,"(0.7, 0.5)",cs_neg_ns,0,0,0,0,,,,,,,,,,,,,,,,,,,,,,,,,,,,,0,6,6,34,2,0,2,0,,,,,,,,,,,,,,,471,loss,,,,,,1349.001961,1349.001961,1349.001961,1349.001961,0,,,0,,,0,,,1,0.12305030000061379,0.12305390000074112,1349.1408833999994,1349.1408833999994,1349.1408833999994,1349.1408833999994,29,C,2024-05-08_10h25.05.635,attentional_competition_task,2022.2.4,143.82136236111725,
positions.xlsx,positions_test.xlsx,positions_test_new.xlsx,stimuli.xlsx,stimuli_new.xlsx,stimuli/Social3.png,stimuli/Social4.png,stimuli/Nonsocial3.png,stimuli/Nonsocial4.png,stimuli/Social1.png,stimuli/Social2.png,stimuli/Nonsocial1.png,stimuli/Nonsocial2.png,,,"(-0.7, -0.5)",cs_pos_ns,"(-0.7, 0.5)",cs_pos_s_new,"(0.7, -0.5)",cs_neg_s,"(0.7, 0.5)",cs_neg_ns,0,0,0,0,,,,,,,,,,,,,,,,,,,,,,,,,,,,,0,6,6,34,,,,,,,,,,,,,,,,,,,,,,,,,,,,,,,,,,,,,,,,,,,,,,29,C,2024-05-08_10h25.05.635,attentional_competition_task,2022.2.4,143.82136236111725,
positions.xlsx,positions_test.xlsx,positions_test_new.xlsx,stimuli.xlsx,stimuli_new.xlsx,stimuli/Social3.png,stimuli/Social4.png,stimuli/Nonsocial3.png,stimuli/Nonsocial4.png,stimuli/Social1.png,stimuli/Social2.png,stimuli/Nonsocial1.png,stimuli/Nonsocial2.png,,,"(-0.7, -0.5)",cs_neg_s,"(-0.7, 0.5)",cs_pos_s,"(0.7, -0.5)",cs_pos_ns,"(0.7, 0.5)",cs_neg_ns_new,0,0,0,0,,,,,,,,,,,,,,,,,,,,,,,,,,,,,0,7,7,22,0,0,0,0,,,,,,,,,,,,,,,474,reward,,,,,,1355.3489659999996,1355.3489659999996,1355.3489659999996,1355.3489659999996,0,,,0,,,1,0.6411366000011185,0.6411404999998922,0,,,1356.0017124999995,1356.0017124999995,1356.0017124999995,1356.0017124999995,29,C,2024-05-08_10h25.05.635,attentional_competition_task,2022.2.4,143.82136236111725,
positions.xlsx,positions_test.xlsx,positions_test_new.xlsx,stimuli.xlsx,stimuli_new.xlsx,stimuli/Social3.png,stimuli/Social4.png,stimuli/Nonsocial3.png,stimuli/Nonsocial4.png,stimuli/Social1.png,stimuli/Social2.png,stimuli/Nonsocial1.png,stimuli/Nonsocial2.png,,,"(-0.7, -0.5)",cs_neg_s,"(-0.7, 0.5)",cs_pos_s,"(0.7, -0.5)",cs_pos_ns,"(0.7, 0.5)",cs_neg_ns_new,0,0,0,0,,,,,,,,,,,,,,,,,,,,,,,,,,,,,0,7,7,22,1,0,1,0,,,,,,,,,,,,,,,471,loss,,,,,,1356.5086179999998,1356.5086179999998,1356.5086179999998,1356.5086179999998,1,0.48189580000143906,0.4886482000001706,0,,,0,,,0,,,1356.9947158999985,1356.9947158999985,1356.9947158999985,1356.9947158999985,29,C,2024-05-08_10h25.05.635,attentional_competition_task,2022.2.4,143.82136236111725,
positions.xlsx,positions_test.xlsx,positions_test_new.xlsx,stimuli.xlsx,stimuli_new.xlsx,stimuli/Social3.png,stimuli/Social4.png,stimuli/Nonsocial3.png,stimuli/Nonsocial4.png,stimuli/Social1.png,stimuli/Social2.png,stimuli/Nonsocial1.png,stimuli/Nonsocial2.png,,,"(-0.7, -0.5)",cs_neg_s,"(-0.7, 0.5)",cs_pos_s,"(0.7, -0.5)",cs_pos_ns,"(0.7, 0.5)",cs_neg_ns_new,0,0,0,0,,,,,,,,,,,,,,,,,,,,,,,,,,,,,0,7,7,22,,,,,,,,,,,,,,,,,,,,,,,,,,,,,,,,,,,,,,,,,,,,,,29,C,2024-05-08_10h25.05.635,attentional_competition_task,2022.2.4,143.82136236111725,
positions.xlsx,positions_test.xlsx,positions_test_new.xlsx,stimuli.xlsx,stimuli_new.xlsx,stimuli/Social3.png,stimuli/Social4.png,stimuli/Nonsocial3.png,stimuli/Nonsocial4.png,stimuli/Social1.png,stimuli/Social2.png,stimuli/Nonsocial1.png,stimuli/Nonsocial2.png,,,"(-0.7, -0.5)",cs_pos_s,"(-0.7, 0.5)",cs_neg_ns,"(0.7, -0.5)",cs_pos_ns,"(0.7, 0.5)",cs_neg_s_new,0,0,0,0,,,,,,,,,,,,,,,,,,,,,,,,,,,,,0,8,8,10,0,0,0,0,,,,,,,,,,,,,,,474,reward,,,,,,1363.0916657999987,1363.0916657999987,1363.0916657999987,1363.0916657999987,1,0.7931177000009484,0.8001936000000569,0,,,0,,,0,,,1363.8972089999988,1363.8972089999988,1363.8972089999988,1363.8972089999988,29,C,2024-05-08_10h25.05.635,attentional_competition_task,2022.2.4,143.82136236111725,
positions.xlsx,positions_test.xlsx,positions_test_new.xlsx,stimuli.xlsx,stimuli_new.xlsx,stimuli/Social3.png,stimuli/Social4.png,stimuli/Nonsocial3.png,stimuli/Nonsocial4.png,stimuli/Social1.png,stimuli/Social2.png,stimuli/Nonsocial1.png,stimuli/Nonsocial2.png,,,"(-0.7, -0.5)",cs_pos_s,"(-0.7, 0.5)",cs_neg_ns,"(0.7, -0.5)",cs_pos_ns,"(0.7, 0.5)",cs_neg_s_new,0,0,0,0,,,,,,,,,,,,,,,,,,,,,,,,,,,,,0,8,8,10,1,0,1,0,,,,,,,,,,,,,,,477,reward,,,,,,1364.4041336999999,1364.4041336999999,1364.4041336999999,1364.4041336999999,0,,,0,,,1,0.12089240000022983,0.12089589999959571,0,,,1364.5221600999994,1364.5221600999994,1364.5221600999994,1364.5221600999994,29,C,2024-05-08_10h25.05.635,attentional_competition_task,2022.2.4,143.82136236111725,
positions.xlsx,positions_test.xlsx,positions_test_new.xlsx,stimuli.xlsx,stimuli_new.xlsx,stimuli/Social3.png,stimuli/Social4.png,stimuli/Nonsocial3.png,stimuli/Nonsocial4.png,stimuli/Social1.png,stimuli/Social2.png,stimuli/Nonsocial1.png,stimuli/Nonsocial2.png,,,"(-0.7, -0.5)",cs_pos_s,"(-0.7, 0.5)",cs_neg_ns,"(0.7, -0.5)",cs_pos_ns,"(0.7, 0.5)",cs_neg_s_new,0,0,0,0,,,,,,,,,,,,,,,,,,,,,,,,,,,,,0,8,8,10,2,0,2,0,,,,,,,,,,,,,,,480,reward,,,,,,1365.0291636999991,1365.0291636999991,1365.0291636999991,1365.0291636999991,0,,,0,,,0,,,0,,,1365.6054765999997,1365.6054765999997,1365.6054765999997,1365.6054765999997,29,C,2024-05-08_10h25.05.635,attentional_competition_task,2022.2.4,143.82136236111725,
positions.xlsx,positions_test.xlsx,positions_test_new.xlsx,stimuli.xlsx,stimuli_new.xlsx,stimuli/Social3.png,stimuli/Social4.png,stimuli/Nonsocial3.png,stimuli/Nonsocial4.png,stimuli/Social1.png,stimuli/Social2.png,stimuli/Nonsocial1.png,stimuli/Nonsocial2.png,,,"(-0.7, -0.5)",cs_pos_s,"(-0.7, 0.5)",cs_neg_ns,"(0.7, -0.5)",cs_pos_ns,"(0.7, 0.5)",cs_neg_s_new,0,0,0,0,,,,,,,,,,,,,,,,,,,,,,,,,,,,,0,8,8,10,,,,,,,,,,,,,,,,,,,,,,,,,,,,,,,,,,,,,,,,,,,,,,29,C,2024-05-08_10h25.05.635,attentional_competition_task,2022.2.4,143.82136236111725,
positions.xlsx,positions_test.xlsx,positions_test_new.xlsx,stimuli.xlsx,stimuli_new.xlsx,stimuli/Social3.png,stimuli/Social4.png,stimuli/Nonsocial3.png,stimuli/Nonsocial4.png,stimuli/Social1.png,stimuli/Social2.png,stimuli/Nonsocial1.png,stimuli/Nonsocial2.png,,,"(-0.7, -0.5)",cs_pos_ns_new,"(-0.7, 0.5)",cs_neg_s,"(0.7, -0.5)",cs_pos_s,"(0.7, 0.5)",cs_neg_ns,0,0,0,0,,,,,,,,,,,,,,,,,,,,,,,,,,,,,0,9,9,40,0,0,0,0,,,,,,,,,,,,,,,483,reward,,,,,,1371.6468692999988,1371.6468692999988,1371.6468692999988,1371.6468692999988,0,,,0,,,1,0.8908934000010049,0.8908969000003708,0,,,1372.5426788999994,1372.5426788999994,1372.5426788999994,1372.5426788999994,29,C,2024-05-08_10h25.05.635,attentional_competition_task,2022.2.4,143.82136236111725,
positions.xlsx,positions_test.xlsx,positions_test_new.xlsx,stimuli.xlsx,stimuli_new.xlsx,stimuli/Social3.png,stimuli/Social4.png,stimuli/Nonsocial3.png,stimuli/Nonsocial4.png,stimuli/Social1.png,stimuli/Social2.png,stimuli/Nonsocial1.png,stimuli/Nonsocial2.png,,,"(-0.7, -0.5)",cs_pos_ns_new,"(-0.7, 0.5)",cs_neg_s,"(0.7, -0.5)",cs_pos_s,"(0.7, 0.5)",cs_neg_ns,0,0,0,0,,,,,,,,,,,,,,,,,,,,,,,,,,,,,0,9,9,40,1,0,1,0,,,,,,,,,,,,,,,480,loss,,,,,,1373.0704026999992,1373.0704026999992,1373.0704026999992,1373.0704026999992,0,,,0,,,0,,,1,0.025475700000242796,0.02547919999960868,1373.0704026999992,1373.0704026999992,1373.0704026999992,1373.0704026999992,29,C,2024-05-08_10h25.05.635,attentional_competition_task,2022.2.4,143.82136236111725,
positions.xlsx,positions_test.xlsx,positions_test_new.xlsx,stimuli.xlsx,stimuli_new.xlsx,stimuli/Social3.png,stimuli/Social4.png,stimuli/Nonsocial3.png,stimuli/Nonsocial4.png,stimuli/Social1.png,stimuli/Social2.png,stimuli/Nonsocial1.png,stimuli/Nonsocial2.png,,,"(-0.7, -0.5)",cs_pos_ns_new,"(-0.7, 0.5)",cs_neg_s,"(0.7, -0.5)",cs_pos_s,"(0.7, 0.5)",cs_neg_ns,0,0,0,0,,,,,,,,,,,,,,,,,,,,,,,,,,,,,0,9,9,40,2,0,2,0,,,,,,,,,,,,,,,483,reward,,,,,,1373.6051783999992,1373.6051783999992,1373.6051783999992,1373.6051783999992,1,0.031105500000194297,0.0311096000004909,0,,,0,,,0,,,1373.6051783999992,1373.6051783999992,1373.6051783999992,1373.6051783999992,29,C,2024-05-08_10h25.05.635,attentional_competition_task,2022.2.4,143.82136236111725,
