posFile,posFileTest,posFileTestNew,stimFile,stimFileNew,cs_neg_s,cs_pos_s,cs_neg_ns,cs_pos_ns,cs_neg_s_new,cs_pos_s_new,cs_neg_ns_new,cs_pos_ns_new,stim,position,position1,stim1,position2,stim2,position3,stim3,position4,stim4,blocks.thisRepN,blocks.thisTrialN,blocks.thisN,blocks.thisIndex,ratingtrials1.thisRepN,ratingtrials1.thisTrialN,ratingtrials1.thisN,ratingtrials1.thisIndex,search_task_trials.thisRepN,search_task_trials.thisTrialN,search_task_trials.thisN,search_task_trials.thisIndex,learning_trials.thisRepN,learning_trials.thisTrialN,learning_trials.thisN,learning_trials.thisIndex,trials.thisRepN,trials.thisTrialN,trials.thisN,trials.thisIndex,ratingtrials2.thisRepN,ratingtrials2.thisTrialN,ratingtrials2.thisN,ratingtrials2.thisIndex,testtrials.thisRepN,testtrials.thisTrialN,testtrials.thisN,testtrials.thisIndex,loop_test.thisRepN,loop_test.thisTrialN,loop_test.thisN,loop_test.thisIndex,testtrials_novelty.thisRepN,testtrials_novelty.thisTrialN,testtrials_novelty.thisN,testtrials_novelty.thisIndex,loop_test_novelty.thisRepN,loop_test_novelty.thisTrialN,loop_test_novelty.thisN,loop_test_novelty.thisIndex,ratingtrials3.thisRepN,ratingtrials3.thisTrialN,ratingtrials3.thisN,ratingtrials3.thisIndex,textStart.started,textStartExp.started,imageRating.started,sliderStim.response,sliderStim.rt,textStartSearch.started,target_positions,distractor_positions,textStartTask.started,image.started,score,outcome,roi.numLooks,roi.timesOn,roi.timesOff,imageFeedback.started,textTestInstr.started,test_image1.started,test_image2.started,test_image3.started,test_image4.started,test_roi1.numLooks,test_roi1.timesOn,test_roi1.timesOff,test_roi2.numLooks,test_roi2.timesOn,test_roi2.timesOff,test_roi3.numLooks,test_roi3.timesOn,test_roi3.timesOff,test_roi4.numLooks,test_roi4.timesOn,test_roi4.timesOff,test_image_feedback1.started,test_image_feedback2.started,test_iamge_feedback3.started,test_iamge_feedback4.started,participant,group,date,expName,psychopyVersion,frameRate,
positions.xlsx,positions_test.xlsx,positions_test_new.xlsx,stimuli.xlsx,stimuli_new.xlsx,stimuli/Social2.png,stimuli/Social1.png,stimuli/Nonsocial2.png,stimuli/Nonsocial1.png,stimuli/Social4.png,stimuli/Social3.png,stimuli/Nonsocial4.png,stimuli/Nonsocial3.png,cs_neg_ns,,,,,,,,,,0,0,0,0,0,0,0,1,,,,,,,,,,,,,,,,,,,,,,,,,,,,,,,,,,,,,13.665710600002058,151.21286229999896,165.18602789999932,6.0,11.971499499999481,,,,,,,,,,,,,,,,,,,,,,,,,,,,,,,,,37,B,2024-05-15_15h58.35.352,attentional_competition_task,2022.2.4,144.00154369992094,
positions.xlsx,positions_test.xlsx,positions_test_new.xlsx,stimuli.xlsx,stimuli_new.xlsx,stimuli/Social2.png,stimuli/Social1.png,stimuli/Nonsocial2.png,stimuli/Nonsocial1.png,stimuli/Social4.png,stimuli/Social3.png,stimuli/Nonsocial4.png,stimuli/Nonsocial3.png,cs_pos_ns,,,,,,,,,,0,0,0,0,0,1,1,3,,,,,,,,,,,,,,,,,,,,,,,,,,,,,,,,,,,,,,,178.17162409999946,6.0,3.303662500002247,,,,,,,,,,,,,,,,,,,,,,,,,,,,,,,,,37,B,2024-05-15_15h58.35.352,attentional_competition_task,2022.2.4,144.00154369992094,
positions.xlsx,positions_test.xlsx,positions_test_new.xlsx,stimuli.xlsx,stimuli_new.xlsx,stimuli/Social2.png,stimuli/Social1.png,stimuli/Nonsocial2.png,stimuli/Nonsocial1.png,stimuli/Social4.png,stimuli/Social3.png,stimuli/Nonsocial4.png,stimuli/Nonsocial3.png,cs_neg_s,,,,,,,,,,0,0,0,0,0,2,2,0,,,,,,,,,,,,,,,,,,,,,,,,,,,,,,,,,,,,,,,183.2547201999987,4.0,6.279728400000749,,,,,,,,,,,,,,,,,,,,,,,,,,,,,,,,,37,B,2024-05-15_15h58.35.352,attentional_competition_task,2022.2.4,144.00154369992094,
positions.xlsx,positions_test.xlsx,positions_test_new.xlsx,stimuli.xlsx,stimuli_new.xlsx,stimuli/Social2.png,stimuli/Social1.png,stimuli/Nonsocial2.png,stimuli/Nonsocial1.png,stimuli/Social4.png,stimuli/Social3.png,stimuli/Nonsocial4.png,stimuli/Nonsocial3.png,cs_pos_s,,,,,,,,,,0,0,0,0,0,3,3,2,,,,,,,,,,,,,,,,,,,,,,,,,,,,,,,,,,,,,,,192.7821342999996,3.0,2.0020632000014302,,,,,,,,,,,,,,,,,,,,,,,,,,,,,,,,,37,B,2024-05-15_15h58.35.352,attentional_competition_task,2022.2.4,144.00154369992094,
positions.xlsx,positions_test.xlsx,positions_test_new.xlsx,stimuli.xlsx,stimuli_new.xlsx,stimuli/Social2.png,stimuli/Social1.png,stimuli/Nonsocial2.png,stimuli/Nonsocial1.png,stimuli/Social4.png,stimuli/Social3.png,stimuli/Nonsocial4.png,stimuli/Nonsocial3.png,,,,,,,,,,,0,0,0,0,,,,,0,0,0,0,,,,,,,,,,,,,,,,,,,,,,,,,,,,,,,,,,,,,,195.06673919999957,"[[0.45000000000000007, 0.7], [0.45000000000000007, -0.30000000000000004], [-0.675, -0.8], [0.45000000000000007, 0.19999999999999996], [0.0, -0.30000000000000004], [-0.22499999999999998, 0.19999999999999996], [0.6749999999999999, -0.8], [-0.45, 0.7], [0.22499999999999998, -0.8], [0.22499999999999998, 0.19999999999999996], [-0.22499999999999998, 0.7], [-0.9, 0.7], [-0.22499999999999998, -0.30000000000000004], [-0.45, -0.8], [0.0, 0.7]]","[[-0.675, 0.7], [0.0, 0.19999999999999996], [0.9, 0.19999999999999996], [-0.9, -0.8], [0.9, -0.30000000000000004], [0.22499999999999998, -0.30000000000000004], [-0.9, -0.30000000000000004], [-0.45, -0.30000000000000004], [-0.675, -0.30000000000000004], [0.9, -0.8], [-0.45, 0.19999999999999996], [-0.675, 0.19999999999999996], [0.9, 0.7], [-0.9, 0.19999999999999996], [0.6749999999999999, 0.7]]",,,,,,,,,,,,,,,,,,,,,,,,,,,,,,37,B,2024-05-15_15h58.35.352,attentional_competition_task,2022.2.4,144.00154369992094,
positions.xlsx,positions_test.xlsx,positions_test_new.xlsx,stimuli.xlsx,stimuli_new.xlsx,stimuli/Social2.png,stimuli/Social1.png,stimuli/Nonsocial2.png,stimuli/Nonsocial1.png,stimuli/Social4.png,stimuli/Social3.png,stimuli/Nonsocial4.png,stimuli/Nonsocial3.png,,,,,,,,,,,0,0,0,0,,,,,1,0,1,0,,,,,,,,,,,,,,,,,,,,,,,,,,,,,,,,,,,,,,,"[[0.0, -0.30000000000000004], [0.9, -0.30000000000000004], [0.6749999999999999, 0.7], [0.22499999999999998, -0.30000000000000004], [-0.9, -0.30000000000000004], [0.9, 0.7], [-0.45, -0.30000000000000004], [0.45000000000000007, -0.30000000000000004], [0.0, 0.19999999999999996], [-0.22499999999999998, -0.30000000000000004], [0.22499999999999998, 0.7], [0.22499999999999998, -0.8], [0.45000000000000007, 0.7], [-0.9, 0.7], [0.9, 0.19999999999999996]]","[[-0.22499999999999998, -0.8], [-0.45, 0.19999999999999996], [-0.675, -0.8], [0.45000000000000007, -0.8], [-0.675, 0.7], [0.9, -0.8], [0.6749999999999999, -0.30000000000000004], [0.0, 0.7], [-0.9, 0.19999999999999996], [0.22499999999999998, 0.19999999999999996], [-0.22499999999999998, 0.19999999999999996], [0.45000000000000007, 0.19999999999999996], [0.0, -0.8], [-0.45, -0.8], [-0.675, -0.30000000000000004]]",,,,,,,,,,,,,,,,,,,,,,,,,,,,,,37,B,2024-05-15_15h58.35.352,attentional_competition_task,2022.2.4,144.00154369992094,
positions.xlsx,positions_test.xlsx,positions_test_new.xlsx,stimuli.xlsx,stimuli_new.xlsx,stimuli/Social2.png,stimuli/Social1.png,stimuli/Nonsocial2.png,stimuli/Nonsocial1.png,stimuli/Social4.png,stimuli/Social3.png,stimuli/Nonsocial4.png,stimuli/Nonsocial3.png,cs_neg_ns,"(0.7, 0.5)",,,,,,,,,0,0,0,0,,,,,,,,,0,0,0,10,,,,,,,,,,,,,,,,,,,,,,,,,,,,,,,,,,,,,283.87562270000126,313.76331310000023,-3,loss,1,0.3124573000022792,0.31246090000058757,314.0896763000019,,,,,,,,,,,,,,,,,,,,,,37,B,2024-05-15_15h58.35.352,attentional_competition_task,2022.2.4,144.00154369992094,
positions.xlsx,positions_test.xlsx,positions_test_new.xlsx,stimuli.xlsx,stimuli_new.xlsx,stimuli/Social2.png,stimuli/Social1.png,stimuli/Nonsocial2.png,stimuli/Nonsocial1.png,stimuli/Social4.png,stimuli/Social3.png,stimuli/Nonsocial4.png,stimuli/Nonsocial3.png,cs_pos_ns,"(0.7, 0.5)",,,,,,,,,0,0,0,0,,,,,,,,,0,1,1,14,,,,,,,,,,,,,,,,,,,,,,,,,,,,,,,,,,,,,,321.4226961000022,-3,none,0,,,324.4364831999992,,,,,,,,,,,,,,,,,,,,,,37,B,2024-05-15_15h58.35.352,attentional_competition_task,2022.2.4,144.00154369992094,
positions.xlsx,positions_test.xlsx,positions_test_new.xlsx,stimuli.xlsx,stimuli_new.xlsx,stimuli/Social2.png,stimuli/Social1.png,stimuli/Nonsocial2.png,stimuli/Nonsocial1.png,stimuli/Social4.png,stimuli/Social3.png,stimuli/Nonsocial4.png,stimuli/Nonsocial3.png,cs_neg_s,"(0.7, -0.5)",,,,,,,,,0,0,0,0,,,,,,,,,0,2,2,3,,,,,,,,,,,,,,,,,,,,,,,,,,,,,,,,,,,,,,332.63755650000166,-6,loss,1,2.7640557999984594,2.764059699999052,335.4082406999987,,,,,,,,,,,,,,,,,,,,,,37,B,2024-05-15_15h58.35.352,attentional_competition_task,2022.2.4,144.00154369992094,
positions.xlsx,positions_test.xlsx,positions_test_new.xlsx,stimuli.xlsx,stimuli_new.xlsx,stimuli/Social2.png,stimuli/Social1.png,stimuli/Nonsocial2.png,stimuli/Nonsocial1.png,stimuli/Social4.png,stimuli/Social3.png,stimuli/Nonsocial4.png,stimuli/Nonsocial3.png,cs_pos_s,"(-0.7, -0.5)",,,,,,,,,0,0,0,0,,,,,,,,,0,3,3,5,,,,,,,,,,,,,,,,,,,,,,,,,,,,,,,,,,,,,,342.7065342999995,-6,none,0,,,345.72032430000036,,,,,,,,,,,,,,,,,,,,,,37,B,2024-05-15_15h58.35.352,attentional_competition_task,2022.2.4,144.00154369992094,
positions.xlsx,positions_test.xlsx,positions_test_new.xlsx,stimuli.xlsx,stimuli_new.xlsx,stimuli/Social2.png,stimuli/Social1.png,stimuli/Nonsocial2.png,stimuli/Nonsocial1.png,stimuli/Social4.png,stimuli/Social3.png,stimuli/Nonsocial4.png,stimuli/Nonsocial3.png,cs_pos_ns,"(0.7, -0.5)",,,,,,,,,0,0,0,0,,,,,,,,,0,4,4,15,,,,,,,,,,,,,,,,,,,,,,,,,,,,,,,,,,,,,,353.5325010999986,-6,none,0,,,356.5393296000002,,,,,,,,,,,,,,,,,,,,,,37,B,2024-05-15_15h58.35.352,attentional_competition_task,2022.2.4,144.00154369992094,
positions.xlsx,positions_test.xlsx,positions_test_new.xlsx,stimuli.xlsx,stimuli_new.xlsx,stimuli/Social2.png,stimuli/Social1.png,stimuli/Nonsocial2.png,stimuli/Nonsocial1.png,stimuli/Social4.png,stimuli/Social3.png,stimuli/Nonsocial4.png,stimuli/Nonsocial3.png,cs_pos_s,"(0.7, 0.5)",,,,,,,,,0,0,0,0,,,,,,,,,0,5,5,6,,,,,,,,,,,,,,,,,,,,,,,,,,,,,,,,,,,,,,364.11541360000047,-6,none,0,,,367.12222230000043,,,,,,,,,,,,,,,,,,,,,,37,B,2024-05-15_15h58.35.352,attentional_competition_task,2022.2.4,144.00154369992094,
positions.xlsx,positions_test.xlsx,positions_test_new.xlsx,stimuli.xlsx,stimuli_new.xlsx,stimuli/Social2.png,stimuli/Social1.png,stimuli/Nonsocial2.png,stimuli/Nonsocial1.png,stimuli/Social4.png,stimuli/Social3.png,stimuli/Nonsocial4.png,stimuli/Nonsocial3.png,cs_pos_s,"(0.7, -0.5)",,,,,,,,,0,0,0,0,,,,,,,,,0,6,6,7,,,,,,,,,,,,,,,,,,,,,,,,,,,,,,,,,,,,,,374.62890940000216,-6,none,0,,,377.6356687000007,,,,,,,,,,,,,,,,,,,,,,37,B,2024-05-15_15h58.35.352,attentional_competition_task,2022.2.4,144.00154369992094,
positions.xlsx,positions_test.xlsx,positions_test_new.xlsx,stimuli.xlsx,stimuli_new.xlsx,stimuli/Social2.png,stimuli/Social1.png,stimuli/Nonsocial2.png,stimuli/Nonsocial1.png,stimuli/Social4.png,stimuli/Social3.png,stimuli/Nonsocial4.png,stimuli/Nonsocial3.png,cs_neg_ns,"(-0.7, 0.5)",,,,,,,,,0,0,0,0,,,,,,,,,0,7,7,8,,,,,,,,,,,,,,,,,,,,,,,,,,,,,,,,,,,,,,385.1770285999992,-6,none,0,,,388.19079989999955,,,,,,,,,,,,,,,,,,,,,,37,B,2024-05-15_15h58.35.352,attentional_competition_task,2022.2.4,144.00154369992094,
positions.xlsx,positions_test.xlsx,positions_test_new.xlsx,stimuli.xlsx,stimuli_new.xlsx,stimuli/Social2.png,stimuli/Social1.png,stimuli/Nonsocial2.png,stimuli/Nonsocial1.png,stimuli/Social4.png,stimuli/Social3.png,stimuli/Nonsocial4.png,stimuli/Nonsocial3.png,cs_pos_ns,"(-0.7, 0.5)",,,,,,,,,0,0,0,0,,,,,,,,,0,8,8,12,,,,,,,,,,,,,,,,,,,,,,,,,,,,,,,,,,,,,,395.4613805000008,-6,none,0,,,398.47513230000186,,,,,,,,,,,,,,,,,,,,,,37,B,2024-05-15_15h58.35.352,attentional_competition_task,2022.2.4,144.00154369992094,
positions.xlsx,positions_test.xlsx,positions_test_new.xlsx,stimuli.xlsx,stimuli_new.xlsx,stimuli/Social2.png,stimuli/Social1.png,stimuli/Nonsocial2.png,stimuli/Nonsocial1.png,stimuli/Social4.png,stimuli/Social3.png,stimuli/Nonsocial4.png,stimuli/Nonsocial3.png,cs_neg_s,"(0.7, 0.5)",,,,,,,,,0,0,0,0,,,,,,,,,0,9,9,2,,,,,,,,,,,,,,,,,,,,,,,,,,,,,,,,,,,,,,406.62759690000166,-6,none,0,,,409.6344013000016,,,,,,,,,,,,,,,,,,,,,,37,B,2024-05-15_15h58.35.352,attentional_competition_task,2022.2.4,144.00154369992094,
positions.xlsx,positions_test.xlsx,positions_test_new.xlsx,stimuli.xlsx,stimuli_new.xlsx,stimuli/Social2.png,stimuli/Social1.png,stimuli/Nonsocial2.png,stimuli/Nonsocial1.png,stimuli/Social4.png,stimuli/Social3.png,stimuli/Nonsocial4.png,stimuli/Nonsocial3.png,cs_neg_ns,"(-0.7, -0.5)",,,,,,,,,0,0,0,0,,,,,,,,,0,10,10,9,,,,,,,,,,,,,,,,,,,,,,,,,,,,,,,,,,,,,,416.4605468000009,-6,none,0,,,419.4742535000005,,,,,,,,,,,,,,,,,,,,,,37,B,2024-05-15_15h58.35.352,attentional_competition_task,2022.2.4,144.00154369992094,
positions.xlsx,positions_test.xlsx,positions_test_new.xlsx,stimuli.xlsx,stimuli_new.xlsx,stimuli/Social2.png,stimuli/Social1.png,stimuli/Nonsocial2.png,stimuli/Nonsocial1.png,stimuli/Social4.png,stimuli/Social3.png,stimuli/Nonsocial4.png,stimuli/Nonsocial3.png,cs_neg_ns,"(0.7, -0.5)",,,,,,,,,0,0,0,0,,,,,,,,,0,11,11,11,,,,,,,,,,,,,,,,,,,,,,,,,,,,,,,,,,,,,,426.81425690000106,-9,loss,1,0.22992190000150003,0.2364458999982162,427.0573050000021,,,,,,,,,,,,,,,,,,,,,,37,B,2024-05-15_15h58.35.352,attentional_competition_task,2022.2.4,144.00154369992094,
positions.xlsx,positions_test.xlsx,positions_test_new.xlsx,stimuli.xlsx,stimuli_new.xlsx,stimuli/Social2.png,stimuli/Social1.png,stimuli/Nonsocial2.png,stimuli/Nonsocial1.png,stimuli/Social4.png,stimuli/Social3.png,stimuli/Nonsocial4.png,stimuli/Nonsocial3.png,cs_pos_ns,"(-0.7, -0.5)",,,,,,,,,0,0,0,0,,,,,,,,,0,12,12,13,,,,,,,,,,,,,,,,,,,,,,,,,,,,,,,,,,,,,,434.14727309999944,-9,none,0,,,437.16106070000023,,,,,,,,,,,,,,,,,,,,,,37,B,2024-05-15_15h58.35.352,attentional_competition_task,2022.2.4,144.00154369992094,
positions.xlsx,positions_test.xlsx,positions_test_new.xlsx,stimuli.xlsx,stimuli_new.xlsx,stimuli/Social2.png,stimuli/Social1.png,stimuli/Nonsocial2.png,stimuli/Nonsocial1.png,stimuli/Social4.png,stimuli/Social3.png,stimuli/Nonsocial4.png,stimuli/Nonsocial3.png,cs_neg_s,"(-0.7, -0.5)",,,,,,,,,0,0,0,0,,,,,,,,,0,13,13,1,,,,,,,,,,,,,,,,,,,,,,,,,,,,,,,,,,,,,,444.7996757000001,-9,none,0,,,447.8064412999993,,,,,,,,,,,,,,,,,,,,,,37,B,2024-05-15_15h58.35.352,attentional_competition_task,2022.2.4,144.00154369992094,
positions.xlsx,positions_test.xlsx,positions_test_new.xlsx,stimuli.xlsx,stimuli_new.xlsx,stimuli/Social2.png,stimuli/Social1.png,stimuli/Nonsocial2.png,stimuli/Nonsocial1.png,stimuli/Social4.png,stimuli/Social3.png,stimuli/Nonsocial4.png,stimuli/Nonsocial3.png,cs_neg_s,"(-0.7, 0.5)",,,,,,,,,0,0,0,0,,,,,,,,,0,14,14,0,,,,,,,,,,,,,,,,,,,,,,,,,,,,,,,,,,,,,,455.4033946999989,-9,none,0,,,458.4102316999997,,,,,,,,,,,,,,,,,,,,,,37,B,2024-05-15_15h58.35.352,attentional_competition_task,2022.2.4,144.00154369992094,
positions.xlsx,positions_test.xlsx,positions_test_new.xlsx,stimuli.xlsx,stimuli_new.xlsx,stimuli/Social2.png,stimuli/Social1.png,stimuli/Nonsocial2.png,stimuli/Nonsocial1.png,stimuli/Social4.png,stimuli/Social3.png,stimuli/Nonsocial4.png,stimuli/Nonsocial3.png,cs_pos_s,"(-0.7, 0.5)",,,,,,,,,0,0,0,0,,,,,,,,,0,15,15,4,,,,,,,,,,,,,,,,,,,,,,,,,,,,,,,,,,,,,,466.0002114000017,-6,reward,1,0.21549030000096536,0.22236720000000787,466.2293041000012,,,,,,,,,,,,,,,,,,,,,,37,B,2024-05-15_15h58.35.352,attentional_competition_task,2022.2.4,144.00154369992094,
positions.xlsx,positions_test.xlsx,positions_test_new.xlsx,stimuli.xlsx,stimuli_new.xlsx,stimuli/Social2.png,stimuli/Social1.png,stimuli/Nonsocial2.png,stimuli/Nonsocial1.png,stimuli/Social4.png,stimuli/Social3.png,stimuli/Nonsocial4.png,stimuli/Nonsocial3.png,cs_pos_ns,"(-0.7, -0.5)",,,,,,,,,0,0,0,0,,,,,,,,,1,0,16,13,,,,,,,,,,,,,,,,,,,,,,,,,,,,,,,,,,,,,,474.1803746000005,-3,reward,1,0.5836566999969364,0.5836605999975291,474.7706557999991,,,,,,,,,,,,,,,,,,,,,,37,B,2024-05-15_15h58.35.352,attentional_competition_task,2022.2.4,144.00154369992094,
positions.xlsx,positions_test.xlsx,positions_test_new.xlsx,stimuli.xlsx,stimuli_new.xlsx,stimuli/Social2.png,stimuli/Social1.png,stimuli/Nonsocial2.png,stimuli/Nonsocial1.png,stimuli/Social4.png,stimuli/Social3.png,stimuli/Nonsocial4.png,stimuli/Nonsocial3.png,cs_pos_ns,"(0.7, 0.5)",,,,,,,,,0,0,0,0,,,,,,,,,1,1,17,14,,,,,,,,,,,,,,,,,,,,,,,,,,,,,,,,,,,,,,481.707879900001,0,reward,1,0.4514947999996366,0.4514987000002293,482.1662037999995,,,,,,,,,,,,,,,,,,,,,,37,B,2024-05-15_15h58.35.352,attentional_competition_task,2022.2.4,144.00154369992094,
positions.xlsx,positions_test.xlsx,positions_test_new.xlsx,stimuli.xlsx,stimuli_new.xlsx,stimuli/Social2.png,stimuli/Social1.png,stimuli/Nonsocial2.png,stimuli/Nonsocial1.png,stimuli/Social4.png,stimuli/Social3.png,stimuli/Nonsocial4.png,stimuli/Nonsocial3.png,cs_neg_s,"(0.7, 0.5)",,,,,,,,,0,0,0,0,,,,,,,,,1,2,18,2,,,,,,,,,,,,,,,,,,,,,,,,,,,,,,,,,,,,,,489.4714619000006,-3,loss,1,0.3336103000001458,0.3336144000022614,489.8116962000022,,,,,,,,,,,,,,,,,,,,,,37,B,2024-05-15_15h58.35.352,attentional_competition_task,2022.2.4,144.00154369992094,
positions.xlsx,positions_test.xlsx,positions_test_new.xlsx,stimuli.xlsx,stimuli_new.xlsx,stimuli/Social2.png,stimuli/Social1.png,stimuli/Nonsocial2.png,stimuli/Nonsocial1.png,stimuli/Social4.png,stimuli/Social3.png,stimuli/Nonsocial4.png,stimuli/Nonsocial3.png,cs_neg_s,"(-0.7, -0.5)",,,,,,,,,0,0,0,0,,,,,,,,,1,3,19,1,,,,,,,,,,,,,,,,,,,,,,,,,,,,,,,,,,,,,,497.811424800002,-6,loss,1,0.4097619999993185,0.4097661000014341,498.22807269999976,,,,,,,,,,,,,,,,,,,,,,37,B,2024-05-15_15h58.35.352,attentional_competition_task,2022.2.4,144.00154369992094,
positions.xlsx,positions_test.xlsx,positions_test_new.xlsx,stimuli.xlsx,stimuli_new.xlsx,stimuli/Social2.png,stimuli/Social1.png,stimuli/Nonsocial2.png,stimuli/Nonsocial1.png,stimuli/Social4.png,stimuli/Social3.png,stimuli/Nonsocial4.png,stimuli/Nonsocial3.png,cs_pos_ns,"(-0.7, 0.5)",,,,,,,,,0,0,0,0,,,,,,,,,1,4,20,12,,,,,,,,,,,,,,,,,,,,,,,,,,,,,,,,,,,,,,504.93609690000085,-6,none,0,,,507.94990659999894,,,,,,,,,,,,,,,,,,,,,,37,B,2024-05-15_15h58.35.352,attentional_competition_task,2022.2.4,144.00154369992094,
positions.xlsx,positions_test.xlsx,positions_test_new.xlsx,stimuli.xlsx,stimuli_new.xlsx,stimuli/Social2.png,stimuli/Social1.png,stimuli/Nonsocial2.png,stimuli/Nonsocial1.png,stimuli/Social4.png,stimuli/Social3.png,stimuli/Nonsocial4.png,stimuli/Nonsocial3.png,cs_neg_ns,"(-0.7, -0.5)",,,,,,,,,0,0,0,0,,,,,,,,,1,5,21,9,,,,,,,,,,,,,,,,,,,,,,,,,,,,,,,,,,,,,,514.7968546000011,-9,loss,1,0.5065740999998525,0.5135534000000916,515.3106549000004,,,,,,,,,,,,,,,,,,,,,,37,B,2024-05-15_15h58.35.352,attentional_competition_task,2022.2.4,144.00154369992094,
positions.xlsx,positions_test.xlsx,positions_test_new.xlsx,stimuli.xlsx,stimuli_new.xlsx,stimuli/Social2.png,stimuli/Social1.png,stimuli/Nonsocial2.png,stimuli/Nonsocial1.png,stimuli/Social4.png,stimuli/Social3.png,stimuli/Nonsocial4.png,stimuli/Nonsocial3.png,cs_pos_s,"(0.7, 0.5)",,,,,,,,,0,0,0,0,,,,,,,,,1,6,22,6,,,,,,,,,,,,,,,,,,,,,,,,,,,,,,,,,,,,,,522.796469500001,-6,reward,1,0.41671649999989313,0.4167200999982015,523.2200623999997,,,,,,,,,,,,,,,,,,,,,,37,B,2024-05-15_15h58.35.352,attentional_competition_task,2022.2.4,144.00154369992094,
positions.xlsx,positions_test.xlsx,positions_test_new.xlsx,stimuli.xlsx,stimuli_new.xlsx,stimuli/Social2.png,stimuli/Social1.png,stimuli/Nonsocial2.png,stimuli/Nonsocial1.png,stimuli/Social4.png,stimuli/Social3.png,stimuli/Nonsocial4.png,stimuli/Nonsocial3.png,cs_neg_ns,"(-0.7, 0.5)",,,,,,,,,0,0,0,0,,,,,,,,,1,7,23,8,,,,,,,,,,,,,,,,,,,,,,,,,,,,,,,,,,,,,,530.9975611000009,-9,loss,1,0.736355500001082,0.7363592000001518,531.7405752000013,,,,,,,,,,,,,,,,,,,,,,37,B,2024-05-15_15h58.35.352,attentional_competition_task,2022.2.4,144.00154369992094,
positions.xlsx,positions_test.xlsx,positions_test_new.xlsx,stimuli.xlsx,stimuli_new.xlsx,stimuli/Social2.png,stimuli/Social1.png,stimuli/Nonsocial2.png,stimuli/Nonsocial1.png,stimuli/Social4.png,stimuli/Social3.png,stimuli/Nonsocial4.png,stimuli/Nonsocial3.png,cs_neg_ns,"(0.7, -0.5)",,,,,,,,,0,0,0,0,,,,,,,,,1,8,24,11,,,,,,,,,,,,,,,,,,,,,,,,,,,,,,,,,,,,,,539.656915800002,-12,loss,1,2.5279339000007894,2.527937800001382,542.1915656000019,,,,,,,,,,,,,,,,,,,,,,37,B,2024-05-15_15h58.35.352,attentional_competition_task,2022.2.4,144.00154369992094,
positions.xlsx,positions_test.xlsx,positions_test_new.xlsx,stimuli.xlsx,stimuli_new.xlsx,stimuli/Social2.png,stimuli/Social1.png,stimuli/Nonsocial2.png,stimuli/Nonsocial1.png,stimuli/Social4.png,stimuli/Social3.png,stimuli/Nonsocial4.png,stimuli/Nonsocial3.png,cs_neg_s,"(0.7, -0.5)",,,,,,,,,0,0,0,0,,,,,,,,,1,9,25,3,,,,,,,,,,,,,,,,,,,,,,,,,,,,,,,,,,,,,,549.6982317000002,-12,none,0,,,552.711965800001,,,,,,,,,,,,,,,,,,,,,,37,B,2024-05-15_15h58.35.352,attentional_competition_task,2022.2.4,144.00154369992094,
positions.xlsx,positions_test.xlsx,positions_test_new.xlsx,stimuli.xlsx,stimuli_new.xlsx,stimuli/Social2.png,stimuli/Social1.png,stimuli/Nonsocial2.png,stimuli/Nonsocial1.png,stimuli/Social4.png,stimuli/Social3.png,stimuli/Nonsocial4.png,stimuli/Nonsocial3.png,cs_pos_ns,"(0.7, -0.5)",,,,,,,,,0,0,0,0,,,,,,,,,1,10,26,15,,,,,,,,,,,,,,,,,,,,,,,,,,,,,,,,,,,,,,559.3297195000014,-9,reward,1,2.5763938999989477,2.5763977999995404,561.9129622,,,,,,,,,,,,,,,,,,,,,,37,B,2024-05-15_15h58.35.352,attentional_competition_task,2022.2.4,144.00154369992094,
positions.xlsx,positions_test.xlsx,positions_test_new.xlsx,stimuli.xlsx,stimuli_new.xlsx,stimuli/Social2.png,stimuli/Social1.png,stimuli/Nonsocial2.png,stimuli/Nonsocial1.png,stimuli/Social4.png,stimuli/Social3.png,stimuli/Nonsocial4.png,stimuli/Nonsocial3.png,cs_neg_ns,"(0.7, 0.5)",,,,,,,,,0,0,0,0,,,,,,,,,1,11,27,10,,,,,,,,,,,,,,,,,,,,,,,,,,,,,,,,,,,,,,569.780705600002,-9,none,0,,,572.7944515000017,,,,,,,,,,,,,,,,,,,,,,37,B,2024-05-15_15h58.35.352,attentional_competition_task,2022.2.4,144.00154369992094,
positions.xlsx,positions_test.xlsx,positions_test_new.xlsx,stimuli.xlsx,stimuli_new.xlsx,stimuli/Social2.png,stimuli/Social1.png,stimuli/Nonsocial2.png,stimuli/Nonsocial1.png,stimuli/Social4.png,stimuli/Social3.png,stimuli/Nonsocial4.png,stimuli/Nonsocial3.png,cs_neg_s,"(-0.7, 0.5)",,,,,,,,,0,0,0,0,,,,,,,,,1,12,28,0,,,,,,,,,,,,,,,,,,,,,,,,,,,,,,,,,,,,,,580.2942249000007,-9,none,0,,,583.3009798000021,,,,,,,,,,,,,,,,,,,,,,37,B,2024-05-15_15h58.35.352,attentional_competition_task,2022.2.4,144.00154369992094,
positions.xlsx,positions_test.xlsx,positions_test_new.xlsx,stimuli.xlsx,stimuli_new.xlsx,stimuli/Social2.png,stimuli/Social1.png,stimuli/Nonsocial2.png,stimuli/Nonsocial1.png,stimuli/Social4.png,stimuli/Social3.png,stimuli/Nonsocial4.png,stimuli/Nonsocial3.png,cs_pos_s,"(0.7, -0.5)",,,,,,,,,0,0,0,0,,,,,,,,,1,13,29,7,,,,,,,,,,,,,,,,,,,,,,,,,,,,,,,,,,,,,,590.8006986,-6,reward,1,0.6113058999981149,0.6113095000000612,591.418725800002,,,,,,,,,,,,,,,,,,,,,,37,B,2024-05-15_15h58.35.352,attentional_competition_task,2022.2.4,144.00154369992094,
positions.xlsx,positions_test.xlsx,positions_test_new.xlsx,stimuli.xlsx,stimuli_new.xlsx,stimuli/Social2.png,stimuli/Social1.png,stimuli/Nonsocial2.png,stimuli/Nonsocial1.png,stimuli/Social4.png,stimuli/Social3.png,stimuli/Nonsocial4.png,stimuli/Nonsocial3.png,cs_pos_s,"(-0.7, 0.5)",,,,,,,,,0,0,0,0,,,,,,,,,1,14,30,4,,,,,,,,,,,,,,,,,,,,,,,,,,,,,,,,,,,,,,598.6892449000006,-3,reward,1,0.7014382000015758,0.7014423000000534,599.3976235000009,,,,,,,,,,,,,,,,,,,,,,37,B,2024-05-15_15h58.35.352,attentional_competition_task,2022.2.4,144.00154369992094,
positions.xlsx,positions_test.xlsx,positions_test_new.xlsx,stimuli.xlsx,stimuli_new.xlsx,stimuli/Social2.png,stimuli/Social1.png,stimuli/Nonsocial2.png,stimuli/Nonsocial1.png,stimuli/Social4.png,stimuli/Social3.png,stimuli/Nonsocial4.png,stimuli/Nonsocial3.png,cs_pos_s,"(-0.7, -0.5)",,,,,,,,,0,0,0,0,,,,,,,,,1,15,31,5,,,,,,,,,,,,,,,,,,,,,,,,,,,,,,,,,,,,,,606.4528170000012,0,reward,1,0.6110544999974081,0.618005299998913,607.0778252000018,,,,,,,,,,,,,,,,,,,,,,37,B,2024-05-15_15h58.35.352,attentional_competition_task,2022.2.4,144.00154369992094,
positions.xlsx,positions_test.xlsx,positions_test_new.xlsx,stimuli.xlsx,stimuli_new.xlsx,stimuli/Social2.png,stimuli/Social1.png,stimuli/Nonsocial2.png,stimuli/Nonsocial1.png,stimuli/Social4.png,stimuli/Social3.png,stimuli/Nonsocial4.png,stimuli/Nonsocial3.png,cs_pos_s,"(-0.7, 0.5)",,,,,,,,,0,0,0,0,,,,,,,,,,,,,0,0,0,4,,,,,,,,,,,,,,,,,,,,,,,,,,,,,,,,,,676.9291884000013,3,reward,1,0.4240230999967025,0.4310031999993953,677.3666755000013,,,,,,,,,,,,,,,,,,,,,,37,B,2024-05-15_15h58.35.352,attentional_competition_task,2022.2.4,144.00154369992094,
positions.xlsx,positions_test.xlsx,positions_test_new.xlsx,stimuli.xlsx,stimuli_new.xlsx,stimuli/Social2.png,stimuli/Social1.png,stimuli/Nonsocial2.png,stimuli/Nonsocial1.png,stimuli/Social4.png,stimuli/Social3.png,stimuli/Nonsocial4.png,stimuli/Nonsocial3.png,cs_pos_ns,"(0.7, 0.5)",,,,,,,,,0,0,0,0,,,,,,,,,,,,,0,1,1,14,,,,,,,,,,,,,,,,,,,,,,,,,,,,,,,,,,684.3455484000006,6,reward,1,0.3613361999996414,0.36134020000099554,684.7136027000015,,,,,,,,,,,,,,,,,,,,,,37,B,2024-05-15_15h58.35.352,attentional_competition_task,2022.2.4,144.00154369992094,
positions.xlsx,positions_test.xlsx,positions_test_new.xlsx,stimuli.xlsx,stimuli_new.xlsx,stimuli/Social2.png,stimuli/Social1.png,stimuli/Nonsocial2.png,stimuli/Nonsocial1.png,stimuli/Social4.png,stimuli/Social3.png,stimuli/Nonsocial4.png,stimuli/Nonsocial3.png,cs_pos_s,"(0.7, -0.5)",,,,,,,,,0,0,0,0,,,,,,,,,,,,,0,2,2,7,,,,,,,,,,,,,,,,,,,,,,,,,,,,,,,,,,691.8174913000003,9,reward,1,0.25047600000107195,0.25047990000166465,692.0744403999997,,,,,,,,,,,,,,,,,,,,,,37,B,2024-05-15_15h58.35.352,attentional_competition_task,2022.2.4,144.00154369992094,
positions.xlsx,positions_test.xlsx,positions_test_new.xlsx,stimuli.xlsx,stimuli_new.xlsx,stimuli/Social2.png,stimuli/Social1.png,stimuli/Nonsocial2.png,stimuli/Nonsocial1.png,stimuli/Social4.png,stimuli/Social3.png,stimuli/Nonsocial4.png,stimuli/Nonsocial3.png,cs_neg_ns,"(-0.7, -0.5)",,,,,,,,,0,0,0,0,,,,,,,,,,,,,0,3,3,9,,,,,,,,,,,,,,,,,,,,,,,,,,,,,,,,,,700.1921307000011,6,loss,1,0.5768523000006098,0.5768558999989182,700.7754717999997,,,,,,,,,,,,,,,,,,,,,,37,B,2024-05-15_15h58.35.352,attentional_competition_task,2022.2.4,144.00154369992094,
positions.xlsx,positions_test.xlsx,positions_test_new.xlsx,stimuli.xlsx,stimuli_new.xlsx,stimuli/Social2.png,stimuli/Social1.png,stimuli/Nonsocial2.png,stimuli/Nonsocial1.png,stimuli/Social4.png,stimuli/Social3.png,stimuli/Nonsocial4.png,stimuli/Nonsocial3.png,cs_neg_s,"(0.7, -0.5)",,,,,,,,,0,0,0,0,,,,,,,,,,,,,0,4,4,3,,,,,,,,,,,,,,,,,,,,,,,,,,,,,,,,,,708.5737527000019,3,loss,1,0.5351291999977548,0.5351326999989396,709.1154050000005,,,,,,,,,,,,,,,,,,,,,,37,B,2024-05-15_15h58.35.352,attentional_competition_task,2022.2.4,144.00154369992094,
positions.xlsx,positions_test.xlsx,positions_test_new.xlsx,stimuli.xlsx,stimuli_new.xlsx,stimuli/Social2.png,stimuli/Social1.png,stimuli/Nonsocial2.png,stimuli/Nonsocial1.png,stimuli/Social4.png,stimuli/Social3.png,stimuli/Nonsocial4.png,stimuli/Nonsocial3.png,cs_pos_ns,"(-0.7, 0.5)",,,,,,,,,0,0,0,0,,,,,,,,,,,,,0,5,5,12,,,,,,,,,,,,,,,,,,,,,,,,,,,,,,,,,,716.3511994,6,reward,1,0.8404137999968952,0.8404176999974879,717.1984526000015,,,,,,,,,,,,,,,,,,,,,,37,B,2024-05-15_15h58.35.352,attentional_competition_task,2022.2.4,144.00154369992094,
positions.xlsx,positions_test.xlsx,positions_test_new.xlsx,stimuli.xlsx,stimuli_new.xlsx,stimuli/Social2.png,stimuli/Social1.png,stimuli/Nonsocial2.png,stimuli/Nonsocial1.png,stimuli/Social4.png,stimuli/Social3.png,stimuli/Nonsocial4.png,stimuli/Nonsocial3.png,cs_pos_ns,"(-0.7, -0.5)",,,,,,,,,0,0,0,0,,,,,,,,,,,,,0,6,6,13,,,,,,,,,,,,,,,,,,,,,,,,,,,,,,,,,,725.6286350000009,9,reward,1,0.9165388000001258,0.9165424000020721,726.5522506000016,,,,,,,,,,,,,,,,,,,,,,37,B,2024-05-15_15h58.35.352,attentional_competition_task,2022.2.4,144.00154369992094,
positions.xlsx,positions_test.xlsx,positions_test_new.xlsx,stimuli.xlsx,stimuli_new.xlsx,stimuli/Social2.png,stimuli/Social1.png,stimuli/Nonsocial2.png,stimuli/Nonsocial1.png,stimuli/Social4.png,stimuli/Social3.png,stimuli/Nonsocial4.png,stimuli/Nonsocial3.png,cs_neg_ns,"(-0.7, 0.5)",,,,,,,,,0,0,0,0,,,,,,,,,,,,,0,7,7,8,,,,,,,,,,,,,,,,,,,,,,,,,,,,,,,,,,734.4546661999993,6,loss,1,0.7571089999983087,0.7571123999987321,735.2185024999999,,,,,,,,,,,,,,,,,,,,,,37,B,2024-05-15_15h58.35.352,attentional_competition_task,2022.2.4,144.00154369992094,
positions.xlsx,positions_test.xlsx,positions_test_new.xlsx,stimuli.xlsx,stimuli_new.xlsx,stimuli/Social2.png,stimuli/Social1.png,stimuli/Nonsocial2.png,stimuli/Nonsocial1.png,stimuli/Social4.png,stimuli/Social3.png,stimuli/Nonsocial4.png,stimuli/Nonsocial3.png,cs_pos_ns,"(0.7, -0.5)",,,,,,,,,0,0,0,0,,,,,,,,,,,,,0,8,8,15,,,,,,,,,,,,,,,,,,,,,,,,,,,,,,,,,,742.968211899999,9,reward,1,0.9166922000003979,0.9166961000009906,743.8917543999996,,,,,,,,,,,,,,,,,,,,,,37,B,2024-05-15_15h58.35.352,attentional_competition_task,2022.2.4,144.00154369992094,
positions.xlsx,positions_test.xlsx,positions_test_new.xlsx,stimuli.xlsx,stimuli_new.xlsx,stimuli/Social2.png,stimuli/Social1.png,stimuli/Nonsocial2.png,stimuli/Nonsocial1.png,stimuli/Social4.png,stimuli/Social3.png,stimuli/Nonsocial4.png,stimuli/Nonsocial3.png,cs_neg_s,"(0.7, 0.5)",,,,,,,,,0,0,0,0,,,,,,,,,,,,,0,9,9,2,,,,,,,,,,,,,,,,,,,,,,,,,,,,,,,,,,751.1692779000005,9,none,0,,,754.183035500002,,,,,,,,,,,,,,,,,,,,,,37,B,2024-05-15_15h58.35.352,attentional_competition_task,2022.2.4,144.00154369992094,
positions.xlsx,positions_test.xlsx,positions_test_new.xlsx,stimuli.xlsx,stimuli_new.xlsx,stimuli/Social2.png,stimuli/Social1.png,stimuli/Nonsocial2.png,stimuli/Nonsocial1.png,stimuli/Social4.png,stimuli/Social3.png,stimuli/Nonsocial4.png,stimuli/Nonsocial3.png,cs_neg_s,"(-0.7, -0.5)",,,,,,,,,0,0,0,0,,,,,,,,,,,,,0,10,10,1,,,,,,,,,,,,,,,,,,,,,,,,,,,,,,,,,,761.3563661000007,9,none,0,,,764.3632471000019,,,,,,,,,,,,,,,,,,,,,,37,B,2024-05-15_15h58.35.352,attentional_competition_task,2022.2.4,144.00154369992094,
positions.xlsx,positions_test.xlsx,positions_test_new.xlsx,stimuli.xlsx,stimuli_new.xlsx,stimuli/Social2.png,stimuli/Social1.png,stimuli/Nonsocial2.png,stimuli/Nonsocial1.png,stimuli/Social4.png,stimuli/Social3.png,stimuli/Nonsocial4.png,stimuli/Nonsocial3.png,cs_pos_s,"(-0.7, -0.5)",,,,,,,,,0,0,0,0,,,,,,,,,,,,,0,11,11,5,,,,,,,,,,,,,,,,,,,,,,,,,,,,,,,,,,771.5087308000002,12,reward,1,0.6805297999999311,0.6805334999990009,772.1961757999998,,,,,,,,,,,,,,,,,,,,,,37,B,2024-05-15_15h58.35.352,attentional_competition_task,2022.2.4,144.00154369992094,
positions.xlsx,positions_test.xlsx,positions_test_new.xlsx,stimuli.xlsx,stimuli_new.xlsx,stimuli/Social2.png,stimuli/Social1.png,stimuli/Nonsocial2.png,stimuli/Nonsocial1.png,stimuli/Social4.png,stimuli/Social3.png,stimuli/Nonsocial4.png,stimuli/Nonsocial3.png,cs_neg_ns,"(0.7, 0.5)",,,,,,,,,0,0,0,0,,,,,,,,,,,,,0,12,12,10,,,,,,,,,,,,,,,,,,,,,,,,,,,,,,,,,,779.2653702999996,12,none,0,,,782.279129999999,,,,,,,,,,,,,,,,,,,,,,37,B,2024-05-15_15h58.35.352,attentional_competition_task,2022.2.4,144.00154369992094,
positions.xlsx,positions_test.xlsx,positions_test_new.xlsx,stimuli.xlsx,stimuli_new.xlsx,stimuli/Social2.png,stimuli/Social1.png,stimuli/Nonsocial2.png,stimuli/Nonsocial1.png,stimuli/Social4.png,stimuli/Social3.png,stimuli/Nonsocial4.png,stimuli/Nonsocial3.png,cs_neg_s,"(-0.7, 0.5)",,,,,,,,,0,0,0,0,,,,,,,,,,,,,0,13,13,0,,,,,,,,,,,,,,,,,,,,,,,,,,,,,,,,,,789.6121535999991,12,none,0,,,792.6259133000021,,,,,,,,,,,,,,,,,,,,,,37,B,2024-05-15_15h58.35.352,attentional_competition_task,2022.2.4,144.00154369992094,
positions.xlsx,positions_test.xlsx,positions_test_new.xlsx,stimuli.xlsx,stimuli_new.xlsx,stimuli/Social2.png,stimuli/Social1.png,stimuli/Nonsocial2.png,stimuli/Nonsocial1.png,stimuli/Social4.png,stimuli/Social3.png,stimuli/Nonsocial4.png,stimuli/Nonsocial3.png,cs_neg_ns,"(0.7, -0.5)",,,,,,,,,0,0,0,0,,,,,,,,,,,,,0,14,14,11,,,,,,,,,,,,,,,,,,,,,,,,,,,,,,,,,,800.4381302000002,9,loss,1,0.6461199000004854,0.6461234000016702,801.0908832999994,,,,,,,,,,,,,,,,,,,,,,37,B,2024-05-15_15h58.35.352,attentional_competition_task,2022.2.4,144.00154369992094,
positions.xlsx,positions_test.xlsx,positions_test_new.xlsx,stimuli.xlsx,stimuli_new.xlsx,stimuli/Social2.png,stimuli/Social1.png,stimuli/Nonsocial2.png,stimuli/Nonsocial1.png,stimuli/Social4.png,stimuli/Social3.png,stimuli/Nonsocial4.png,stimuli/Nonsocial3.png,cs_pos_s,"(0.7, 0.5)",,,,,,,,,0,0,0,0,,,,,,,,,,,,,0,15,15,6,,,,,,,,,,,,,,,,,,,,,,,,,,,,,,,,,,808.5280549000017,12,reward,1,0.2639563000011549,0.2639597000015783,808.7989497999988,,,,,,,,,,,,,,,,,,,,,,37,B,2024-05-15_15h58.35.352,attentional_competition_task,2022.2.4,144.00154369992094,
positions.xlsx,positions_test.xlsx,positions_test_new.xlsx,stimuli.xlsx,stimuli_new.xlsx,stimuli/Social2.png,stimuli/Social1.png,stimuli/Nonsocial2.png,stimuli/Nonsocial1.png,stimuli/Social4.png,stimuli/Social3.png,stimuli/Nonsocial4.png,stimuli/Nonsocial3.png,cs_neg_ns,"(-0.7, -0.5)",,,,,,,,,0,0,0,0,,,,,,,,,,,,,1,0,16,9,,,,,,,,,,,,,,,,,,,,,,,,,,,,,,,,,,816.1180297999999,9,loss,1,0.45224509999752627,0.4522488999973575,816.5833232000005,,,,,,,,,,,,,,,,,,,,,,37,B,2024-05-15_15h58.35.352,attentional_competition_task,2022.2.4,144.00154369992094,
positions.xlsx,positions_test.xlsx,positions_test_new.xlsx,stimuli.xlsx,stimuli_new.xlsx,stimuli/Social2.png,stimuli/Social1.png,stimuli/Nonsocial2.png,stimuli/Nonsocial1.png,stimuli/Social4.png,stimuli/Social3.png,stimuli/Nonsocial4.png,stimuli/Nonsocial3.png,cs_neg_ns,"(0.7, 0.5)",,,,,,,,,0,0,0,0,,,,,,,,,,,,,1,1,17,10,,,,,,,,,,,,,,,,,,,,,,,,,,,,,,,,,,823.360805700002,9,none,0,,,826.3745755000018,,,,,,,,,,,,,,,,,,,,,,37,B,2024-05-15_15h58.35.352,attentional_competition_task,2022.2.4,144.00154369992094,
positions.xlsx,positions_test.xlsx,positions_test_new.xlsx,stimuli.xlsx,stimuli_new.xlsx,stimuli/Social2.png,stimuli/Social1.png,stimuli/Nonsocial2.png,stimuli/Nonsocial1.png,stimuli/Social4.png,stimuli/Social3.png,stimuli/Nonsocial4.png,stimuli/Nonsocial3.png,cs_pos_s,"(0.7, 0.5)",,,,,,,,,0,0,0,0,,,,,,,,,,,,,1,2,18,6,,,,,,,,,,,,,,,,,,,,,,,,,,,,,,,,,,833.2631911999997,12,reward,1,1.0073045000026468,1.0073082000017166,834.2770239999991,,,,,,,,,,,,,,,,,,,,,,37,B,2024-05-15_15h58.35.352,attentional_competition_task,2022.2.4,144.00154369992094,
positions.xlsx,positions_test.xlsx,positions_test_new.xlsx,stimuli.xlsx,stimuli_new.xlsx,stimuli/Social2.png,stimuli/Social1.png,stimuli/Nonsocial2.png,stimuli/Nonsocial1.png,stimuli/Social4.png,stimuli/Social3.png,stimuli/Nonsocial4.png,stimuli/Nonsocial3.png,cs_neg_s,"(-0.7, -0.5)",,,,,,,,,0,0,0,0,,,,,,,,,,,,,1,3,19,1,,,,,,,,,,,,,,,,,,,,,,,,,,,,,,,,,,842.4503393000014,12,none,0,,,845.4571566000013,,,,,,,,,,,,,,,,,,,,,,37,B,2024-05-15_15h58.35.352,attentional_competition_task,2022.2.4,144.00154369992094,
positions.xlsx,positions_test.xlsx,positions_test_new.xlsx,stimuli.xlsx,stimuli_new.xlsx,stimuli/Social2.png,stimuli/Social1.png,stimuli/Nonsocial2.png,stimuli/Nonsocial1.png,stimuli/Social4.png,stimuli/Social3.png,stimuli/Nonsocial4.png,stimuli/Nonsocial3.png,cs_neg_s,"(-0.7, 0.5)",,,,,,,,,0,0,0,0,,,,,,,,,,,,,1,4,20,0,,,,,,,,,,,,,,,,,,,,,,,,,,,,,,,,,,853.5471049000007,12,none,0,,,856.5539250000002,,,,,,,,,,,,,,,,,,,,,,37,B,2024-05-15_15h58.35.352,attentional_competition_task,2022.2.4,144.00154369992094,
positions.xlsx,positions_test.xlsx,positions_test_new.xlsx,stimuli.xlsx,stimuli_new.xlsx,stimuli/Social2.png,stimuli/Social1.png,stimuli/Nonsocial2.png,stimuli/Nonsocial1.png,stimuli/Social4.png,stimuli/Social3.png,stimuli/Nonsocial4.png,stimuli/Nonsocial3.png,cs_pos_ns,"(-0.7, 0.5)",,,,,,,,,0,0,0,0,,,,,,,,,,,,,1,5,21,12,,,,,,,,,,,,,,,,,,,,,,,,,,,,,,,,,,863.7272276000003,15,reward,1,0.854463299998315,0.8544799999981478,864.5953082000015,,,,,,,,,,,,,,,,,,,,,,37,B,2024-05-15_15h58.35.352,attentional_competition_task,2022.2.4,144.00154369992094,
positions.xlsx,positions_test.xlsx,positions_test_new.xlsx,stimuli.xlsx,stimuli_new.xlsx,stimuli/Social2.png,stimuli/Social1.png,stimuli/Nonsocial2.png,stimuli/Nonsocial1.png,stimuli/Social4.png,stimuli/Social3.png,stimuli/Nonsocial4.png,stimuli/Nonsocial3.png,cs_neg_s,"(0.7, 0.5)",,,,,,,,,0,0,0,0,,,,,,,,,,,,,1,6,22,2,,,,,,,,,,,,,,,,,,,,,,,,,,,,,,,,,,872.1921892999999,15,none,0,,,875.1990131999992,,,,,,,,,,,,,,,,,,,,,,37,B,2024-05-15_15h58.35.352,attentional_competition_task,2022.2.4,144.00154369992094,
positions.xlsx,positions_test.xlsx,positions_test_new.xlsx,stimuli.xlsx,stimuli_new.xlsx,stimuli/Social2.png,stimuli/Social1.png,stimuli/Nonsocial2.png,stimuli/Nonsocial1.png,stimuli/Social4.png,stimuli/Social3.png,stimuli/Nonsocial4.png,stimuli/Nonsocial3.png,cs_neg_ns,"(0.7, -0.5)",,,,,,,,,0,0,0,0,,,,,,,,,,,,,1,7,23,11,,,,,,,,,,,,,,,,,,,,,,,,,,,,,,,,,,882.5876506999994,15,none,0,,,885.5944291000014,,,,,,,,,,,,,,,,,,,,,,37,B,2024-05-15_15h58.35.352,attentional_competition_task,2022.2.4,144.00154369992094,
positions.xlsx,positions_test.xlsx,positions_test_new.xlsx,stimuli.xlsx,stimuli_new.xlsx,stimuli/Social2.png,stimuli/Social1.png,stimuli/Nonsocial2.png,stimuli/Nonsocial1.png,stimuli/Social4.png,stimuli/Social3.png,stimuli/Nonsocial4.png,stimuli/Nonsocial3.png,cs_pos_ns,"(-0.7, -0.5)",,,,,,,,,0,0,0,0,,,,,,,,,,,,,1,8,24,13,,,,,,,,,,,,,,,,,,,,,,,,,,,,,,,,,,893.3718814000022,18,reward,1,0.6319782999999006,0.6319822000004933,894.010768600001,,,,,,,,,,,,,,,,,,,,,,37,B,2024-05-15_15h58.35.352,attentional_competition_task,2022.2.4,144.00154369992094,
positions.xlsx,positions_test.xlsx,positions_test_new.xlsx,stimuli.xlsx,stimuli_new.xlsx,stimuli/Social2.png,stimuli/Social1.png,stimuli/Nonsocial2.png,stimuli/Nonsocial1.png,stimuli/Social4.png,stimuli/Social3.png,stimuli/Nonsocial4.png,stimuli/Nonsocial3.png,cs_neg_s,"(0.7, -0.5)",,,,,,,,,0,0,0,0,,,,,,,,,,,,,1,9,25,3,,,,,,,,,,,,,,,,,,,,,,,,,,,,,,,,,,901.7951729000015,15,loss,1,0.20854510000208393,0.2085490999998001,902.0104457000016,,,,,,,,,,,,,,,,,,,,,,37,B,2024-05-15_15h58.35.352,attentional_competition_task,2022.2.4,144.00154369992094,
positions.xlsx,positions_test.xlsx,positions_test_new.xlsx,stimuli.xlsx,stimuli_new.xlsx,stimuli/Social2.png,stimuli/Social1.png,stimuli/Nonsocial2.png,stimuli/Nonsocial1.png,stimuli/Social4.png,stimuli/Social3.png,stimuli/Nonsocial4.png,stimuli/Nonsocial3.png,cs_pos_s,"(-0.7, 0.5)",,,,,,,,,0,0,0,0,,,,,,,,,,,,,1,10,26,4,,,,,,,,,,,,,,,,,,,,,,,,,,,,,,,,,,910.1559562000002,18,reward,1,0.7365145000003395,0.7365183000001707,910.8989809000013,,,,,,,,,,,,,,,,,,,,,,37,B,2024-05-15_15h58.35.352,attentional_competition_task,2022.2.4,144.00154369992094,
positions.xlsx,positions_test.xlsx,positions_test_new.xlsx,stimuli.xlsx,stimuli_new.xlsx,stimuli/Social2.png,stimuli/Social1.png,stimuli/Nonsocial2.png,stimuli/Nonsocial1.png,stimuli/Social4.png,stimuli/Social3.png,stimuli/Nonsocial4.png,stimuli/Nonsocial3.png,cs_pos_ns,"(0.7, 0.5)",,,,,,,,,0,0,0,0,,,,,,,,,,,,,1,11,27,14,,,,,,,,,,,,,,,,,,,,,,,,,,,,,,,,,,917.6000758000009,21,reward,1,1.2157807000003231,1.2157845000001544,918.8222913999998,,,,,,,,,,,,,,,,,,,,,,37,B,2024-05-15_15h58.35.352,attentional_competition_task,2022.2.4,144.00154369992094,
positions.xlsx,positions_test.xlsx,positions_test_new.xlsx,stimuli.xlsx,stimuli_new.xlsx,stimuli/Social2.png,stimuli/Social1.png,stimuli/Nonsocial2.png,stimuli/Nonsocial1.png,stimuli/Social4.png,stimuli/Social3.png,stimuli/Nonsocial4.png,stimuli/Nonsocial3.png,cs_pos_ns,"(0.7, -0.5)",,,,,,,,,0,0,0,0,,,,,,,,,,,,,1,12,28,15,,,,,,,,,,,,,,,,,,,,,,,,,,,,,,,,,,926.370580499999,24,reward,1,1.0353912000027776,1.0353947000003245,927.412228000001,,,,,,,,,,,,,,,,,,,,,,37,B,2024-05-15_15h58.35.352,attentional_competition_task,2022.2.4,144.00154369992094,
positions.xlsx,positions_test.xlsx,positions_test_new.xlsx,stimuli.xlsx,stimuli_new.xlsx,stimuli/Social2.png,stimuli/Social1.png,stimuli/Nonsocial2.png,stimuli/Nonsocial1.png,stimuli/Social4.png,stimuli/Social3.png,stimuli/Nonsocial4.png,stimuli/Nonsocial3.png,cs_neg_ns,"(-0.7, 0.5)",,,,,,,,,0,0,0,0,,,,,,,,,,,,,1,13,29,8,,,,,,,,,,,,,,,,,,,,,,,,,,,,,,,,,,934.8494046000014,24,none,0,,,937.8632049000007,,,,,,,,,,,,,,,,,,,,,,37,B,2024-05-15_15h58.35.352,attentional_competition_task,2022.2.4,144.00154369992094,
positions.xlsx,positions_test.xlsx,positions_test_new.xlsx,stimuli.xlsx,stimuli_new.xlsx,stimuli/Social2.png,stimuli/Social1.png,stimuli/Nonsocial2.png,stimuli/Nonsocial1.png,stimuli/Social4.png,stimuli/Social3.png,stimuli/Nonsocial4.png,stimuli/Nonsocial3.png,cs_pos_s,"(-0.7, -0.5)",,,,,,,,,0,0,0,0,,,,,,,,,,,,,1,14,30,5,,,,,,,,,,,,,,,,,,,,,,,,,,,,,,,,,,945.1128552000009,27,reward,1,0.819429900002433,0.8194337999993877,945.9392091000009,,,,,,,,,,,,,,,,,,,,,,37,B,2024-05-15_15h58.35.352,attentional_competition_task,2022.2.4,144.00154369992094,
positions.xlsx,positions_test.xlsx,positions_test_new.xlsx,stimuli.xlsx,stimuli_new.xlsx,stimuli/Social2.png,stimuli/Social1.png,stimuli/Nonsocial2.png,stimuli/Nonsocial1.png,stimuli/Social4.png,stimuli/Social3.png,stimuli/Nonsocial4.png,stimuli/Nonsocial3.png,cs_pos_s,"(0.7, -0.5)",,,,,,,,,0,0,0,0,,,,,,,,,,,,,1,15,31,7,,,,,,,,,,,,,,,,,,,,,,,,,,,,,,,,,,952.9805868000003,30,reward,1,1.0068922999998904,1.0068960999997216,953.9945350000016,,,,,,,,,,,,,,,,,,,,,,37,B,2024-05-15_15h58.35.352,attentional_competition_task,2022.2.4,144.00154369992094,
positions.xlsx,positions_test.xlsx,positions_test_new.xlsx,stimuli.xlsx,stimuli_new.xlsx,stimuli/Social2.png,stimuli/Social1.png,stimuli/Nonsocial2.png,stimuli/Nonsocial1.png,stimuli/Social4.png,stimuli/Social3.png,stimuli/Nonsocial4.png,stimuli/Nonsocial3.png,cs_pos_s,,,,,,,,,,0,0,0,0,,,,,,,,,,,,,,,,,0,0,0,2,,,,,,,,,,,,,,,,,,,,,,,959.4803757000009,7.0,3.7761231000004045,,,,,,,,,,,,,,,,,,,,,,,,,,,,,,,,,37,B,2024-05-15_15h58.35.352,attentional_competition_task,2022.2.4,144.00154369992094,
positions.xlsx,positions_test.xlsx,positions_test_new.xlsx,stimuli.xlsx,stimuli_new.xlsx,stimuli/Social2.png,stimuli/Social1.png,stimuli/Nonsocial2.png,stimuli/Nonsocial1.png,stimuli/Social4.png,stimuli/Social3.png,stimuli/Nonsocial4.png,stimuli/Nonsocial3.png,cs_neg_ns,,,,,,,,,,0,0,0,0,,,,,,,,,,,,,,,,,0,1,1,1,,,,,,,,,,,,,,,,,,,,,,,964.6745845000005,3.0,1.9872737000005145,,,,,,,,,,,,,,,,,,,,,,,,,,,,,,,,,37,B,2024-05-15_15h58.35.352,attentional_competition_task,2022.2.4,144.00154369992094,
positions.xlsx,positions_test.xlsx,positions_test_new.xlsx,stimuli.xlsx,stimuli_new.xlsx,stimuli/Social2.png,stimuli/Social1.png,stimuli/Nonsocial2.png,stimuli/Nonsocial1.png,stimuli/Social4.png,stimuli/Social3.png,stimuli/Nonsocial4.png,stimuli/Nonsocial3.png,cs_neg_s,,,,,,,,,,0,0,0,0,,,,,,,,,,,,,,,,,0,2,2,0,,,,,,,,,,,,,,,,,,,,,,,967.9452998000015,1.0,2.1972077999998874,,,,,,,,,,,,,,,,,,,,,,,,,,,,,,,,,37,B,2024-05-15_15h58.35.352,attentional_competition_task,2022.2.4,144.00154369992094,
positions.xlsx,positions_test.xlsx,positions_test_new.xlsx,stimuli.xlsx,stimuli_new.xlsx,stimuli/Social2.png,stimuli/Social1.png,stimuli/Nonsocial2.png,stimuli/Nonsocial1.png,stimuli/Social4.png,stimuli/Social3.png,stimuli/Nonsocial4.png,stimuli/Nonsocial3.png,cs_pos_ns,,,,,,,,,,0,0,0,0,,,,,,,,,,,,,,,,,0,3,3,3,,,,,,,,,,,,,,,,,,,,,,,971.0493494000002,8.0,2.397269499997492,,,,,,,,,,,,,,,,,,,,,,,,,,,,,,,,,37,B,2024-05-15_15h58.35.352,attentional_competition_task,2022.2.4,144.00154369992094,
positions.xlsx,positions_test.xlsx,positions_test_new.xlsx,stimuli.xlsx,stimuli_new.xlsx,stimuli/Social2.png,stimuli/Social1.png,stimuli/Nonsocial2.png,stimuli/Nonsocial1.png,stimuli/Social4.png,stimuli/Social3.png,stimuli/Nonsocial4.png,stimuli/Nonsocial3.png,,,"(-0.7, -0.5)",cs_neg_ns,"(-0.7, 0.5)",cs_pos_s,"(0.7, -0.5)",cs_pos_ns,"(0.7, 0.5)",cs_neg_s,0,0,0,0,,,,,,,,,,,,,,,,,,,,,0,0,0,13,,,,,,,,,,,,,,,,,,,,,,,,,,,30,loss,,,,,973.7158889999992,981.3267419000003,981.3267419000003,981.3267419000003,981.3267419000003,1,0.48847160000150325,0.4884754000013345,1,0.029734200001257705,0.07900599999993574,0,,,0,,,981.8127941999992,981.8127941999992,981.8127941999992,981.8127941999992,37,B,2024-05-15_15h58.35.352,attentional_competition_task,2022.2.4,144.00154369992094,
positions.xlsx,positions_test.xlsx,positions_test_new.xlsx,stimuli.xlsx,stimuli_new.xlsx,stimuli/Social2.png,stimuli/Social1.png,stimuli/Nonsocial2.png,stimuli/Nonsocial1.png,stimuli/Social4.png,stimuli/Social3.png,stimuli/Nonsocial4.png,stimuli/Nonsocial3.png,,,"(-0.7, -0.5)",cs_neg_ns,"(-0.7, 0.5)",cs_pos_s,"(0.7, -0.5)",cs_neg_s,"(0.7, 0.5)",cs_pos_ns,0,0,0,0,,,,,,,,,,,,,,,,,,,,,0,1,1,12,,,,,,,,,,,,,,,,,,,,,,,,,,,27,loss,,,,,,989.5347417000012,989.5347417000012,989.5347417000012,989.5347417000012,0,,,0,,,1,0.0745667000010144,0.07457090000025346,0,,,989.6111469999996,989.6111469999996,989.6111469999996,989.6111469999996,37,B,2024-05-15_15h58.35.352,attentional_competition_task,2022.2.4,144.00154369992094,
positions.xlsx,positions_test.xlsx,positions_test_new.xlsx,stimuli.xlsx,stimuli_new.xlsx,stimuli/Social2.png,stimuli/Social1.png,stimuli/Nonsocial2.png,stimuli/Nonsocial1.png,stimuli/Social4.png,stimuli/Social3.png,stimuli/Nonsocial4.png,stimuli/Nonsocial3.png,,,"(-0.7, -0.5)",cs_neg_ns,"(-0.7, 0.5)",cs_pos_ns,"(0.7, -0.5)",cs_pos_s,"(0.7, 0.5)",cs_neg_s,0,0,0,0,,,,,,,,,,,,,,,,,,,,,0,2,2,16,,,,,,,,,,,,,,,,,,,,,,,,,,,33,reward,,,,,,998.4024099000017,998.4024099000017,998.4024099000017,998.4024099000017,0,,,1,0.029376399998000124,0.029380299998592818,0,,,0,,,998.4024099000017,998.4024099000017,998.4024099000017,998.4024099000017,37,B,2024-05-15_15h58.35.352,attentional_competition_task,2022.2.4,144.00154369992094,
positions.xlsx,positions_test.xlsx,positions_test_new.xlsx,stimuli.xlsx,stimuli_new.xlsx,stimuli/Social2.png,stimuli/Social1.png,stimuli/Nonsocial2.png,stimuli/Nonsocial1.png,stimuli/Social4.png,stimuli/Social3.png,stimuli/Nonsocial4.png,stimuli/Nonsocial3.png,,,"(-0.7, -0.5)",cs_pos_ns,"(-0.7, 0.5)",cs_neg_ns,"(0.7, -0.5)",cs_neg_s,"(0.7, 0.5)",cs_pos_s,0,0,0,0,,,,,,,,,,,,,,,,,,,,,0,3,3,21,,,,,,,,,,,,,,,,,,,,,,,,,,,39,reward,,,,,,1007.3187265000015,1007.3187265000015,1007.3187265000015,1007.3187265000015,1,0.02976200000193785,0.029765999999654014,0,,,0,,,0,,,1007.3187265000015,1007.3187265000015,1007.3187265000015,1007.3187265000015,37,B,2024-05-15_15h58.35.352,attentional_competition_task,2022.2.4,144.00154369992094,
positions.xlsx,positions_test.xlsx,positions_test_new.xlsx,stimuli.xlsx,stimuli_new.xlsx,stimuli/Social2.png,stimuli/Social1.png,stimuli/Nonsocial2.png,stimuli/Nonsocial1.png,stimuli/Social4.png,stimuli/Social3.png,stimuli/Nonsocial4.png,stimuli/Nonsocial3.png,,,"(-0.7, -0.5)",cs_neg_ns,"(-0.7, 0.5)",cs_neg_s,"(0.7, -0.5)",cs_pos_ns,"(0.7, 0.5)",cs_pos_s,0,0,0,0,,,,,,,,,,,,,,,,,,,,,0,4,4,15,,,,,,,,,,,,,,,,,,,,,,,,,,,45,reward,,,,,,1015.9642390000008,1015.9642390000008,1015.9642390000008,1015.9642390000008,0,,,0,,,1,0.2523704999985057,0.2595078999984253,1,0.12057759999879636,0.23875399999815272,1016.2280963000012,1016.2280963000012,1016.2280963000012,1016.2280963000012,37,B,2024-05-15_15h58.35.352,attentional_competition_task,2022.2.4,144.00154369992094,
positions.xlsx,positions_test.xlsx,positions_test_new.xlsx,stimuli.xlsx,stimuli_new.xlsx,stimuli/Social2.png,stimuli/Social1.png,stimuli/Nonsocial2.png,stimuli/Nonsocial1.png,stimuli/Social4.png,stimuli/Social3.png,stimuli/Nonsocial4.png,stimuli/Nonsocial3.png,,,"(-0.7, -0.5)",cs_neg_s,"(-0.7, 0.5)",cs_pos_s,"(0.7, -0.5)",cs_pos_ns,"(0.7, 0.5)",cs_neg_ns,0,0,0,0,,,,,,,,,,,,,,,,,,,,,0,5,5,1,,,,,,,,,,,,,,,,,,,,,,,,,,,54,reward,,,,,,1024.8735794000022,1024.8735794000022,1024.8735794000022,1024.8735794000022,0,,,0,,,0,,,0,,,1025.4499934000014,1025.4499934000014,1025.4499934000014,1025.4499934000014,37,B,2024-05-15_15h58.35.352,attentional_competition_task,2022.2.4,144.00154369992094,
positions.xlsx,positions_test.xlsx,positions_test_new.xlsx,stimuli.xlsx,stimuli_new.xlsx,stimuli/Social2.png,stimuli/Social1.png,stimuli/Nonsocial2.png,stimuli/Nonsocial1.png,stimuli/Social4.png,stimuli/Social3.png,stimuli/Nonsocial4.png,stimuli/Nonsocial3.png,,,"(-0.7, -0.5)",cs_pos_s,"(-0.7, 0.5)",cs_neg_ns,"(0.7, -0.5)",cs_neg_s,"(0.7, 0.5)",cs_pos_ns,0,0,0,0,,,,,,,,,,,,,,,,,,,,,0,6,6,8,,,,,,,,,,,,,,,,,,,,,,,,,,,57,reward,,,,,,1033.6301719000003,1033.6301719000003,1033.6301719000003,1033.6301719000003,0,,,0,,,0,,,1,0.031131199997616932,0.031135400000493973,1033.6301719000003,1033.6301719000003,1033.6301719000003,1033.6301719000003,37,B,2024-05-15_15h58.35.352,attentional_competition_task,2022.2.4,144.00154369992094,
positions.xlsx,positions_test.xlsx,positions_test_new.xlsx,stimuli.xlsx,stimuli_new.xlsx,stimuli/Social2.png,stimuli/Social1.png,stimuli/Nonsocial2.png,stimuli/Nonsocial1.png,stimuli/Social4.png,stimuli/Social3.png,stimuli/Nonsocial4.png,stimuli/Nonsocial3.png,,,"(-0.7, -0.5)",cs_pos_s,"(-0.7, 0.5)",cs_pos_ns,"(0.7, -0.5)",cs_neg_s,"(0.7, 0.5)",cs_neg_ns,0,0,0,0,,,,,,,,,,,,,,,,,,,,,0,7,7,10,,,,,,,,,,,,,,,,,,,,,,,,,,,60,reward,,,,,,1042.2478455000019,1042.2478455000019,1042.2478455000019,1042.2478455000019,0,,,1,0.023204699999041623,0.023208599999634316,0,,,0,,,1042.2478455000019,1042.2478455000019,1042.2478455000019,1042.2478455000019,37,B,2024-05-15_15h58.35.352,attentional_competition_task,2022.2.4,144.00154369992094,
positions.xlsx,positions_test.xlsx,positions_test_new.xlsx,stimuli.xlsx,stimuli_new.xlsx,stimuli/Social2.png,stimuli/Social1.png,stimuli/Nonsocial2.png,stimuli/Nonsocial1.png,stimuli/Social4.png,stimuli/Social3.png,stimuli/Nonsocial4.png,stimuli/Nonsocial3.png,,,"(-0.7, -0.5)",cs_neg_ns,"(-0.7, 0.5)",cs_neg_s,"(0.7, -0.5)",cs_pos_s,"(0.7, 0.5)",cs_pos_ns,0,0,0,0,,,,,,,,,,,,,,,,,,,,,0,8,8,14,,,,,,,,,,,,,,,,,,,,,,,,,,,66,reward,,,,,,1050.2128469000018,1050.2128469000018,1050.2128469000018,1050.2128469000018,0,,,0,,,1,0.02872439999919152,0.028727900000376394,0,,,1050.2128469000018,1050.2128469000018,1050.2128469000018,1050.2128469000018,37,B,2024-05-15_15h58.35.352,attentional_competition_task,2022.2.4,144.00154369992094,
positions.xlsx,positions_test.xlsx,positions_test_new.xlsx,stimuli.xlsx,stimuli_new.xlsx,stimuli/Social2.png,stimuli/Social1.png,stimuli/Nonsocial2.png,stimuli/Nonsocial1.png,stimuli/Social4.png,stimuli/Social3.png,stimuli/Nonsocial4.png,stimuli/Nonsocial3.png,,,"(-0.7, -0.5)",cs_pos_ns,"(-0.7, 0.5)",cs_pos_s,"(0.7, -0.5)",cs_neg_ns,"(0.7, 0.5)",cs_neg_s,0,0,0,0,,,,,,,,,,,,,,,,,,,,,0,9,9,18,,,,,,,,,,,,,,,,,,,,,,,,,,,72,reward,,,,,,1057.781979700001,1057.781979700001,1057.781979700001,1057.781979700001,1,0.28765389999898616,0.2876579000003403,1,0.03084110000054352,0.2658086000010371,0,,,0,,,1058.0736375000015,1058.0736375000015,1058.0736375000015,1058.0736375000015,37,B,2024-05-15_15h58.35.352,attentional_competition_task,2022.2.4,144.00154369992094,
positions.xlsx,positions_test.xlsx,positions_test_new.xlsx,stimuli.xlsx,stimuli_new.xlsx,stimuli/Social2.png,stimuli/Social1.png,stimuli/Nonsocial2.png,stimuli/Nonsocial1.png,stimuli/Social4.png,stimuli/Social3.png,stimuli/Nonsocial4.png,stimuli/Nonsocial3.png,,,"(-0.7, -0.5)",cs_pos_s,"(-0.7, 0.5)",cs_pos_ns,"(0.7, -0.5)",cs_neg_ns,"(0.7, 0.5)",cs_neg_s,0,0,0,0,,,,,,,,,,,,,,,,,,,,,0,10,10,11,,,,,,,,,,,,,,,,,,,,,,,,,,,81,reward,,,,,,1066.4274609999993,1066.4274609999993,1066.4274609999993,1066.4274609999993,0,,,0,,,0,,,0,,,1067.0454971,1067.0454971,1067.0454971,1067.0454971,37,B,2024-05-15_15h58.35.352,attentional_competition_task,2022.2.4,144.00154369992094,
positions.xlsx,positions_test.xlsx,positions_test_new.xlsx,stimuli.xlsx,stimuli_new.xlsx,stimuli/Social2.png,stimuli/Social1.png,stimuli/Nonsocial2.png,stimuli/Nonsocial1.png,stimuli/Social4.png,stimuli/Social3.png,stimuli/Nonsocial4.png,stimuli/Nonsocial3.png,,,"(-0.7, -0.5)",cs_neg_s,"(-0.7, 0.5)",cs_neg_ns,"(0.7, -0.5)",cs_pos_s,"(0.7, 0.5)",cs_pos_ns,0,0,0,0,,,,,,,,,,,,,,,,,,,,,0,11,11,2,,,,,,,,,,,,,,,,,,,,,,,,,,,84,reward,,,,,,1074.635481600002,1074.635481600002,1074.635481600002,1074.635481600002,0,,,0,,,1,0.026446600000781473,0.026450299999851268,0,,,1074.635481600002,1074.635481600002,1074.635481600002,1074.635481600002,37,B,2024-05-15_15h58.35.352,attentional_competition_task,2022.2.4,144.00154369992094,
positions.xlsx,positions_test.xlsx,positions_test_new.xlsx,stimuli.xlsx,stimuli_new.xlsx,stimuli/Social2.png,stimuli/Social1.png,stimuli/Nonsocial2.png,stimuli/Nonsocial1.png,stimuli/Social4.png,stimuli/Social3.png,stimuli/Nonsocial4.png,stimuli/Nonsocial3.png,,,"(-0.7, -0.5)",cs_pos_ns,"(-0.7, 0.5)",cs_neg_s,"(0.7, -0.5)",cs_neg_ns,"(0.7, 0.5)",cs_pos_s,0,0,0,0,,,,,,,,,,,,,,,,,,,,,0,12,12,23,,,,,,,,,,,,,,,,,,,,,,,,,,,93,reward,,,,,,1082.7948217000012,1082.7948217000012,1082.7948217000012,1082.7948217000012,0,,,0,,,0,,,0,,,1083.4337314000004,1083.4337314000004,1083.4337314000004,1083.4337314000004,37,B,2024-05-15_15h58.35.352,attentional_competition_task,2022.2.4,144.00154369992094,
positions.xlsx,positions_test.xlsx,positions_test_new.xlsx,stimuli.xlsx,stimuli_new.xlsx,stimuli/Social2.png,stimuli/Social1.png,stimuli/Nonsocial2.png,stimuli/Nonsocial1.png,stimuli/Social4.png,stimuli/Social3.png,stimuli/Nonsocial4.png,stimuli/Nonsocial3.png,,,"(-0.7, -0.5)",cs_pos_ns,"(-0.7, 0.5)",cs_pos_s,"(0.7, -0.5)",cs_neg_s,"(0.7, 0.5)",cs_neg_ns,0,0,0,0,,,,,,,,,,,,,,,,,,,,,0,13,13,19,,,,,,,,,,,,,,,,,,,,,,,,,,,102,reward,,,,,,1092.016747400001,1092.016747400001,1092.016747400001,1092.016747400001,0,,,0,,,0,,,0,,,1092.662529000001,1092.662529000001,1092.662529000001,1092.662529000001,37,B,2024-05-15_15h58.35.352,attentional_competition_task,2022.2.4,144.00154369992094,
positions.xlsx,positions_test.xlsx,positions_test_new.xlsx,stimuli.xlsx,stimuli_new.xlsx,stimuli/Social2.png,stimuli/Social1.png,stimuli/Nonsocial2.png,stimuli/Nonsocial1.png,stimuli/Social4.png,stimuli/Social3.png,stimuli/Nonsocial4.png,stimuli/Nonsocial3.png,,,"(-0.7, -0.5)",cs_neg_s,"(-0.7, 0.5)",cs_neg_ns,"(0.7, -0.5)",cs_pos_ns,"(0.7, 0.5)",cs_pos_s,0,0,0,0,,,,,,,,,,,,,,,,,,,,,0,14,14,3,,,,,,,,,,,,,,,,,,,,,,,,,,,111,reward,,,,,,1101.6622271000015,1101.6622271000015,1101.6622271000015,1101.6622271000015,0,,,0,,,0,,,0,,,1101.6622271000015,1101.6622271000015,1101.6622271000015,1101.6622271000015,37,B,2024-05-15_15h58.35.352,attentional_competition_task,2022.2.4,144.00154369992094,
positions.xlsx,positions_test.xlsx,positions_test_new.xlsx,stimuli.xlsx,stimuli_new.xlsx,stimuli/Social2.png,stimuli/Social1.png,stimuli/Nonsocial2.png,stimuli/Nonsocial1.png,stimuli/Social4.png,stimuli/Social3.png,stimuli/Nonsocial4.png,stimuli/Nonsocial3.png,,,"(-0.7, -0.5)",cs_pos_s,"(-0.7, 0.5)",cs_neg_s,"(0.7, -0.5)",cs_neg_ns,"(0.7, 0.5)",cs_pos_ns,0,0,0,0,,,,,,,,,,,,,,,,,,,,,0,15,15,6,,,,,,,,,,,,,,,,,,,,,,,,,,,117,reward,,,,,,1108.6688188000007,1108.6688188000007,1108.6688188000007,1108.6688188000007,0,,,0,,,0,,,1,0.029883800001698546,0.02988770000229124,1108.6688188000007,1108.6688188000007,1108.6688188000007,1108.6688188000007,37,B,2024-05-15_15h58.35.352,attentional_competition_task,2022.2.4,144.00154369992094,
positions.xlsx,positions_test.xlsx,positions_test_new.xlsx,stimuli.xlsx,stimuli_new.xlsx,stimuli/Social2.png,stimuli/Social1.png,stimuli/Nonsocial2.png,stimuli/Nonsocial1.png,stimuli/Social4.png,stimuli/Social3.png,stimuli/Nonsocial4.png,stimuli/Nonsocial3.png,,,"(-0.7, -0.5)",cs_pos_ns,"(-0.7, 0.5)",cs_neg_ns,"(0.7, -0.5)",cs_pos_s,"(0.7, 0.5)",cs_neg_s,0,0,0,0,,,,,,,,,,,,,,,,,,,,,0,16,16,20,,,,,,,,,,,,,,,,,,,,,,,,,,,123,reward,,,,,,1116.925422100001,1116.925422100001,1116.925422100001,1116.925422100001,1,0.02993369999967399,0.029937899998913053,0,,,0,,,0,,,1116.925422100001,1116.925422100001,1116.925422100001,1116.925422100001,37,B,2024-05-15_15h58.35.352,attentional_competition_task,2022.2.4,144.00154369992094,
positions.xlsx,positions_test.xlsx,positions_test_new.xlsx,stimuli.xlsx,stimuli_new.xlsx,stimuli/Social2.png,stimuli/Social1.png,stimuli/Nonsocial2.png,stimuli/Nonsocial1.png,stimuli/Social4.png,stimuli/Social3.png,stimuli/Nonsocial4.png,stimuli/Nonsocial3.png,,,"(-0.7, -0.5)",cs_neg_s,"(-0.7, 0.5)",cs_pos_ns,"(0.7, -0.5)",cs_neg_ns,"(0.7, 0.5)",cs_pos_s,0,0,0,0,,,,,,,,,,,,,,,,,,,,,0,17,17,5,,,,,,,,,,,,,,,,,,,,,,,,,,,129,reward,,,,,,1125.1959358999993,1125.1959358999993,1125.1959358999993,1125.1959358999993,0,,,1,0.029283899999427376,0.02928790000078152,0,,,0,,,1125.1959358999993,1125.1959358999993,1125.1959358999993,1125.1959358999993,37,B,2024-05-15_15h58.35.352,attentional_competition_task,2022.2.4,144.00154369992094,
positions.xlsx,positions_test.xlsx,positions_test_new.xlsx,stimuli.xlsx,stimuli_new.xlsx,stimuli/Social2.png,stimuli/Social1.png,stimuli/Nonsocial2.png,stimuli/Nonsocial1.png,stimuli/Social4.png,stimuli/Social3.png,stimuli/Nonsocial4.png,stimuli/Nonsocial3.png,,,"(-0.7, -0.5)",cs_pos_s,"(-0.7, 0.5)",cs_neg_ns,"(0.7, -0.5)",cs_pos_ns,"(0.7, 0.5)",cs_neg_s,0,0,0,0,,,,,,,,,,,,,,,,,,,,,0,18,18,9,,,,,,,,,,,,,,,,,,,,,,,,,,,138,reward,,,,,,1133.5080937999992,1133.5080937999992,1133.5080937999992,1133.5080937999992,0,,,0,,,0,,,0,,,1134.1122802999998,1134.1122802999998,1134.1122802999998,1134.1122802999998,37,B,2024-05-15_15h58.35.352,attentional_competition_task,2022.2.4,144.00154369992094,
positions.xlsx,positions_test.xlsx,positions_test_new.xlsx,stimuli.xlsx,stimuli_new.xlsx,stimuli/Social2.png,stimuli/Social1.png,stimuli/Nonsocial2.png,stimuli/Nonsocial1.png,stimuli/Social4.png,stimuli/Social3.png,stimuli/Nonsocial4.png,stimuli/Nonsocial3.png,,,"(-0.7, -0.5)",cs_neg_s,"(-0.7, 0.5)",cs_pos_ns,"(0.7, -0.5)",cs_pos_s,"(0.7, 0.5)",cs_neg_ns,0,0,0,0,,,,,,,,,,,,,,,,,,,,,0,19,19,4,,,,,,,,,,,,,,,,,,,,,,,,,,,147,reward,,,,,,1142.5355626000019,1142.5355626000019,1142.5355626000019,1142.5355626000019,0,,,1,0.022701399997458793,0.031468999997741776,0,,,0,,,1143.0910550000008,1143.0910550000008,1143.0910550000008,1143.0910550000008,37,B,2024-05-15_15h58.35.352,attentional_competition_task,2022.2.4,144.00154369992094,
positions.xlsx,positions_test.xlsx,positions_test_new.xlsx,stimuli.xlsx,stimuli_new.xlsx,stimuli/Social2.png,stimuli/Social1.png,stimuli/Nonsocial2.png,stimuli/Nonsocial1.png,stimuli/Social4.png,stimuli/Social3.png,stimuli/Nonsocial4.png,stimuli/Nonsocial3.png,,,"(-0.7, -0.5)",cs_neg_s,"(-0.7, 0.5)",cs_pos_s,"(0.7, -0.5)",cs_neg_ns,"(0.7, 0.5)",cs_pos_ns,0,0,0,0,,,,,,,,,,,,,,,,,,,,,0,20,20,0,,,,,,,,,,,,,,,,,,,,,,,,,,,150,reward,,,,,,1148.660279300002,1148.660279300002,1148.660279300002,1148.660279300002,0,,,0,,,0,,,1,1.5933929000020726,1.5933977999993658,1150.2574714000002,1150.2574714000002,1150.2574714000002,1150.2574714000002,37,B,2024-05-15_15h58.35.352,attentional_competition_task,2022.2.4,144.00154369992094,
positions.xlsx,positions_test.xlsx,positions_test_new.xlsx,stimuli.xlsx,stimuli_new.xlsx,stimuli/Social2.png,stimuli/Social1.png,stimuli/Nonsocial2.png,stimuli/Nonsocial1.png,stimuli/Social4.png,stimuli/Social3.png,stimuli/Nonsocial4.png,stimuli/Nonsocial3.png,,,"(-0.7, -0.5)",cs_pos_s,"(-0.7, 0.5)",cs_neg_s,"(0.7, -0.5)",cs_pos_ns,"(0.7, 0.5)",cs_neg_ns,0,0,0,0,,,,,,,,,,,,,,,,,,,,,0,21,21,7,,,,,,,,,,,,,,,,,,,,,,,,,,,159,reward,,,,,,1159.333471599999,1159.333471599999,1159.333471599999,1159.333471599999,0,,,0,,,0,,,0,,,1160.0556560000005,1160.0556560000005,1160.0556560000005,1160.0556560000005,37,B,2024-05-15_15h58.35.352,attentional_competition_task,2022.2.4,144.00154369992094,
positions.xlsx,positions_test.xlsx,positions_test_new.xlsx,stimuli.xlsx,stimuli_new.xlsx,stimuli/Social2.png,stimuli/Social1.png,stimuli/Nonsocial2.png,stimuli/Nonsocial1.png,stimuli/Social4.png,stimuli/Social3.png,stimuli/Nonsocial4.png,stimuli/Nonsocial3.png,,,"(-0.7, -0.5)",cs_neg_ns,"(-0.7, 0.5)",cs_pos_ns,"(0.7, -0.5)",cs_neg_s,"(0.7, 0.5)",cs_pos_s,0,0,0,0,,,,,,,,,,,,,,,,,,,,,0,22,22,17,,,,,,,,,,,,,,,,,,,,,,,,,,,162,loss,,,,,,1168.346978900001,1168.346978900001,1168.346978900001,1168.346978900001,1,0.34320309999748133,0.34321249999993597,0,,,0,,,0,,,1169.194248300002,1169.194248300002,1169.194248300002,1169.194248300002,37,B,2024-05-15_15h58.35.352,attentional_competition_task,2022.2.4,144.00154369992094,
positions.xlsx,positions_test.xlsx,positions_test_new.xlsx,stimuli.xlsx,stimuli_new.xlsx,stimuli/Social2.png,stimuli/Social1.png,stimuli/Nonsocial2.png,stimuli/Nonsocial1.png,stimuli/Social4.png,stimuli/Social3.png,stimuli/Nonsocial4.png,stimuli/Nonsocial3.png,,,"(-0.7, -0.5)",cs_pos_ns,"(-0.7, 0.5)",cs_neg_s,"(0.7, -0.5)",cs_pos_s,"(0.7, 0.5)",cs_neg_ns,0,0,0,0,,,,,,,,,,,,,,,,,,,,,0,23,23,22,,,,,,,,,,,,,,,,,,,,,,,,,,,171,reward,,,,,,1178.4576994000017,1178.4576994000017,1178.4576994000017,1178.4576994000017,1,0.022248400000535185,0.02225209999960498,0,,,0,,,0,,,1178.4576994000017,1178.4576994000017,1178.4576994000017,1178.4576994000017,37,B,2024-05-15_15h58.35.352,attentional_competition_task,2022.2.4,144.00154369992094,
positions.xlsx,positions_test.xlsx,positions_test_new.xlsx,stimuli.xlsx,stimuli_new.xlsx,stimuli/Social2.png,stimuli/Social1.png,stimuli/Nonsocial2.png,stimuli/Nonsocial1.png,stimuli/Social4.png,stimuli/Social3.png,stimuli/Nonsocial4.png,stimuli/Nonsocial3.png,,,"(-0.7, -0.5)",cs_neg_s,"(-0.7, 0.5)",cs_neg_ns,"(0.7, -0.5)",cs_pos_ns,"(0.7, 0.5)",cs_pos_s,0,0,0,0,,,,,,,,,,,,,,,,,,,,,1,0,24,3,,,,,,,,,,,,,,,,,,,,,,,,,,,180,reward,,,,,,1187.3670278999998,1187.3670278999998,1187.3670278999998,1187.3670278999998,0,,,0,,,0,,,0,,,1187.3670278999998,1187.3670278999998,1187.3670278999998,1187.3670278999998,37,B,2024-05-15_15h58.35.352,attentional_competition_task,2022.2.4,144.00154369992094,
positions.xlsx,positions_test.xlsx,positions_test_new.xlsx,stimuli.xlsx,stimuli_new.xlsx,stimuli/Social2.png,stimuli/Social1.png,stimuli/Nonsocial2.png,stimuli/Nonsocial1.png,stimuli/Social4.png,stimuli/Social3.png,stimuli/Nonsocial4.png,stimuli/Nonsocial3.png,,,"(-0.7, -0.5)",cs_neg_s,"(-0.7, 0.5)",cs_pos_ns,"(0.7, -0.5)",cs_neg_ns,"(0.7, 0.5)",cs_pos_s,0,0,0,0,,,,,,,,,,,,,,,,,,,,,1,1,25,5,,,,,,,,,,,,,,,,,,,,,,,,,,,183,loss,,,,,,1195.8250894000012,1195.8250894000012,1195.8250894000012,1195.8250894000012,1,0.024681899998540757,0.024687299999641255,0,,,0,,,0,,,1195.8250894000012,1195.8250894000012,1195.8250894000012,1195.8250894000012,37,B,2024-05-15_15h58.35.352,attentional_competition_task,2022.2.4,144.00154369992094,
positions.xlsx,positions_test.xlsx,positions_test_new.xlsx,stimuli.xlsx,stimuli_new.xlsx,stimuli/Social2.png,stimuli/Social1.png,stimuli/Nonsocial2.png,stimuli/Nonsocial1.png,stimuli/Social4.png,stimuli/Social3.png,stimuli/Nonsocial4.png,stimuli/Nonsocial3.png,,,"(-0.7, -0.5)",cs_neg_ns,"(-0.7, 0.5)",cs_neg_s,"(0.7, -0.5)",cs_pos_ns,"(0.7, 0.5)",cs_pos_s,0,0,0,0,,,,,,,,,,,,,,,,,,,,,1,2,26,15,,,,,,,,,,,,,,,,,,,,,,,,,,,189,reward,,,,,,1204.401110400002,1204.401110400002,1204.401110400002,1204.401110400002,0,,,0,,,0,,,1,0.03600259999802802,0.03600649999862071,1204.401110400002,1204.401110400002,1204.401110400002,1204.401110400002,37,B,2024-05-15_15h58.35.352,attentional_competition_task,2022.2.4,144.00154369992094,
positions.xlsx,positions_test.xlsx,positions_test_new.xlsx,stimuli.xlsx,stimuli_new.xlsx,stimuli/Social2.png,stimuli/Social1.png,stimuli/Nonsocial2.png,stimuli/Nonsocial1.png,stimuli/Social4.png,stimuli/Social3.png,stimuli/Nonsocial4.png,stimuli/Nonsocial3.png,,,"(-0.7, -0.5)",cs_pos_ns,"(-0.7, 0.5)",cs_pos_s,"(0.7, -0.5)",cs_neg_s,"(0.7, 0.5)",cs_neg_ns,0,0,0,0,,,,,,,,,,,,,,,,,,,,,1,3,27,19,,,,,,,,,,,,,,,,,,,,,,,,,,,198,reward,,,,,,1212.6091094000003,1212.6091094000003,1212.6091094000003,1212.6091094000003,0,,,0,,,0,,,0,,,1213.164672400002,1213.164672400002,1213.164672400002,1213.164672400002,37,B,2024-05-15_15h58.35.352,attentional_competition_task,2022.2.4,144.00154369992094,
positions.xlsx,positions_test.xlsx,positions_test_new.xlsx,stimuli.xlsx,stimuli_new.xlsx,stimuli/Social2.png,stimuli/Social1.png,stimuli/Nonsocial2.png,stimuli/Nonsocial1.png,stimuli/Social4.png,stimuli/Social3.png,stimuli/Nonsocial4.png,stimuli/Nonsocial3.png,,,"(-0.7, -0.5)",cs_pos_ns,"(-0.7, 0.5)",cs_neg_ns,"(0.7, -0.5)",cs_pos_s,"(0.7, 0.5)",cs_neg_s,0,0,0,0,,,,,,,,,,,,,,,,,,,,,1,4,28,20,,,,,,,,,,,,,,,,,,,,,,,,,,,204,reward,,,,,,1220.5809786999998,1220.5809786999998,1220.5809786999998,1220.5809786999998,0,,,0,,,1,0.07923769999979413,0.07924170000114827,0,,,1220.6643431000011,1220.6643431000011,1220.6643431000011,1220.6643431000011,37,B,2024-05-15_15h58.35.352,attentional_competition_task,2022.2.4,144.00154369992094,
positions.xlsx,positions_test.xlsx,positions_test_new.xlsx,stimuli.xlsx,stimuli_new.xlsx,stimuli/Social2.png,stimuli/Social1.png,stimuli/Nonsocial2.png,stimuli/Nonsocial1.png,stimuli/Social4.png,stimuli/Social3.png,stimuli/Nonsocial4.png,stimuli/Nonsocial3.png,,,"(-0.7, -0.5)",cs_pos_ns,"(-0.7, 0.5)",cs_neg_ns,"(0.7, -0.5)",cs_neg_s,"(0.7, 0.5)",cs_pos_s,0,0,0,0,,,,,,,,,,,,,,,,,,,,,1,5,29,21,,,,,,,,,,,,,,,,,,,,,,,,,,,204,loss,,,,,,1228.8167954000019,1228.8167954000019,1228.8167954000019,1228.8167954000019,1,0.027973000000201864,0.23930570000084117,0,,,1,0.30835040000238223,0.30835429999933694,0,,,1229.1292925000016,1229.1292925000016,1229.1292925000016,1229.1292925000016,37,B,2024-05-15_15h58.35.352,attentional_competition_task,2022.2.4,144.00154369992094,
positions.xlsx,positions_test.xlsx,positions_test_new.xlsx,stimuli.xlsx,stimuli_new.xlsx,stimuli/Social2.png,stimuli/Social1.png,stimuli/Nonsocial2.png,stimuli/Nonsocial1.png,stimuli/Social4.png,stimuli/Social3.png,stimuli/Nonsocial4.png,stimuli/Nonsocial3.png,,,"(-0.7, -0.5)",cs_pos_ns,"(-0.7, 0.5)",cs_neg_s,"(0.7, -0.5)",cs_neg_ns,"(0.7, 0.5)",cs_pos_s,0,0,0,0,,,,,,,,,,,,,,,,,,,,,1,6,30,23,,,,,,,,,,,,,,,,,,,,,,,,,,,207,loss,,,,,,1236.934511200001,1236.934511200001,1236.934511200001,1236.934511200001,0,,,0,,,1,0.022427899999456713,0.022431800000049407,0,,,1236.934511200001,1236.934511200001,1236.934511200001,1236.934511200001,37,B,2024-05-15_15h58.35.352,attentional_competition_task,2022.2.4,144.00154369992094,
positions.xlsx,positions_test.xlsx,positions_test_new.xlsx,stimuli.xlsx,stimuli_new.xlsx,stimuli/Social2.png,stimuli/Social1.png,stimuli/Nonsocial2.png,stimuli/Nonsocial1.png,stimuli/Social4.png,stimuli/Social3.png,stimuli/Nonsocial4.png,stimuli/Nonsocial3.png,,,"(-0.7, -0.5)",cs_pos_s,"(-0.7, 0.5)",cs_neg_s,"(0.7, -0.5)",cs_neg_ns,"(0.7, 0.5)",cs_pos_ns,0,0,0,0,,,,,,,,,,,,,,,,,,,,,1,7,31,6,,,,,,,,,,,,,,,,,,,,,,,,,,,213,reward,,,,,,1244.8716712999994,1244.8716712999994,1244.8716712999994,1244.8716712999994,1,0.02785250000306405,0.04387560000031954,0,,,0,,,0,,,1246.0244359999997,1246.0244359999997,1246.0244359999997,1246.0244359999997,37,B,2024-05-15_15h58.35.352,attentional_competition_task,2022.2.4,144.00154369992094,
positions.xlsx,positions_test.xlsx,positions_test_new.xlsx,stimuli.xlsx,stimuli_new.xlsx,stimuli/Social2.png,stimuli/Social1.png,stimuli/Nonsocial2.png,stimuli/Nonsocial1.png,stimuli/Social4.png,stimuli/Social3.png,stimuli/Nonsocial4.png,stimuli/Nonsocial3.png,,,"(-0.7, -0.5)",cs_neg_ns,"(-0.7, 0.5)",cs_neg_s,"(0.7, -0.5)",cs_pos_s,"(0.7, 0.5)",cs_pos_ns,0,0,0,0,,,,,,,,,,,,,,,,,,,,,1,8,32,14,,,,,,,,,,,,,,,,,,,,,,,,,,,219,reward,,,,,,1253.3088415999991,1253.3088415999991,1253.3088415999991,1253.3088415999991,0,,,0,,,1,0.028802100001485087,0.028805800000554882,0,,,1253.3088415999991,1253.3088415999991,1253.3088415999991,1253.3088415999991,37,B,2024-05-15_15h58.35.352,attentional_competition_task,2022.2.4,144.00154369992094,
positions.xlsx,positions_test.xlsx,positions_test_new.xlsx,stimuli.xlsx,stimuli_new.xlsx,stimuli/Social2.png,stimuli/Social1.png,stimuli/Nonsocial2.png,stimuli/Nonsocial1.png,stimuli/Social4.png,stimuli/Social3.png,stimuli/Nonsocial4.png,stimuli/Nonsocial3.png,,,"(-0.7, -0.5)",cs_pos_s,"(-0.7, 0.5)",cs_pos_ns,"(0.7, -0.5)",cs_neg_ns,"(0.7, 0.5)",cs_neg_s,0,0,0,0,,,,,,,,,,,,,,,,,,,,,1,9,33,11,,,,,,,,,,,,,,,,,,,,,,,,,,,228,reward,,,,,,1261.7043621000012,1261.7043621000012,1261.7043621000012,1261.7043621000012,0,,,0,,,0,,,0,,,1262.336279700001,1262.336279700001,1262.336279700001,1262.336279700001,37,B,2024-05-15_15h58.35.352,attentional_competition_task,2022.2.4,144.00154369992094,
positions.xlsx,positions_test.xlsx,positions_test_new.xlsx,stimuli.xlsx,stimuli_new.xlsx,stimuli/Social2.png,stimuli/Social1.png,stimuli/Nonsocial2.png,stimuli/Nonsocial1.png,stimuli/Social4.png,stimuli/Social3.png,stimuli/Nonsocial4.png,stimuli/Nonsocial3.png,,,"(-0.7, -0.5)",cs_pos_s,"(-0.7, 0.5)",cs_pos_ns,"(0.7, -0.5)",cs_neg_s,"(0.7, 0.5)",cs_neg_ns,0,0,0,0,,,,,,,,,,,,,,,,,,,,,1,10,34,10,,,,,,,,,,,,,,,,,,,,,,,,,,,237,reward,,,,,,1269.5443422999997,1269.5443422999997,1269.5443422999997,1269.5443422999997,0,,,0,,,0,,,0,,,1270.7526375999987,1270.7526375999987,1270.7526375999987,1270.7526375999987,37,B,2024-05-15_15h58.35.352,attentional_competition_task,2022.2.4,144.00154369992094,
positions.xlsx,positions_test.xlsx,positions_test_new.xlsx,stimuli.xlsx,stimuli_new.xlsx,stimuli/Social2.png,stimuli/Social1.png,stimuli/Nonsocial2.png,stimuli/Nonsocial1.png,stimuli/Social4.png,stimuli/Social3.png,stimuli/Nonsocial4.png,stimuli/Nonsocial3.png,,,"(-0.7, -0.5)",cs_neg_ns,"(-0.7, 0.5)",cs_pos_ns,"(0.7, -0.5)",cs_pos_s,"(0.7, 0.5)",cs_neg_s,0,0,0,0,,,,,,,,,,,,,,,,,,,,,1,11,35,16,,,,,,,,,,,,,,,,,,,,,,,,,,,243,reward,,,,,,1279.1898179000018,1279.1898179000018,1279.1898179000018,1279.1898179000018,0,,,0,,,1,0.02920779999840306,0.029211599998234306,0,,,1279.1898179000018,1279.1898179000018,1279.1898179000018,1279.1898179000018,37,B,2024-05-15_15h58.35.352,attentional_competition_task,2022.2.4,144.00154369992094,
positions.xlsx,positions_test.xlsx,positions_test_new.xlsx,stimuli.xlsx,stimuli_new.xlsx,stimuli/Social2.png,stimuli/Social1.png,stimuli/Nonsocial2.png,stimuli/Nonsocial1.png,stimuli/Social4.png,stimuli/Social3.png,stimuli/Nonsocial4.png,stimuli/Nonsocial3.png,,,"(-0.7, -0.5)",cs_neg_ns,"(-0.7, 0.5)",cs_pos_s,"(0.7, -0.5)",cs_neg_s,"(0.7, 0.5)",cs_pos_ns,0,0,0,0,,,,,,,,,,,,,,,,,,,,,1,12,36,12,,,,,,,,,,,,,,,,,,,,,,,,,,,252,reward,,,,,,1287.2380362000004,1287.2380362000004,1287.2380362000004,1287.2380362000004,0,,,0,,,0,,,0,,,1287.8977622999992,1287.8977622999992,1287.8977622999992,1287.8977622999992,37,B,2024-05-15_15h58.35.352,attentional_competition_task,2022.2.4,144.00154369992094,
positions.xlsx,positions_test.xlsx,positions_test_new.xlsx,stimuli.xlsx,stimuli_new.xlsx,stimuli/Social2.png,stimuli/Social1.png,stimuli/Nonsocial2.png,stimuli/Nonsocial1.png,stimuli/Social4.png,stimuli/Social3.png,stimuli/Nonsocial4.png,stimuli/Nonsocial3.png,,,"(-0.7, -0.5)",cs_pos_ns,"(-0.7, 0.5)",cs_neg_s,"(0.7, -0.5)",cs_pos_s,"(0.7, 0.5)",cs_neg_ns,0,0,0,0,,,,,,,,,,,,,,,,,,,,,1,13,37,22,,,,,,,,,,,,,,,,,,,,,,,,,,,261,reward,,,,,,1296.4877631000018,1296.4877631000018,1296.4877631000018,1296.4877631000018,0,,,0,,,1,0.024068000002444023,0.024071900003036717,0,,,1296.4877631000018,1296.4877631000018,1296.4877631000018,1296.4877631000018,37,B,2024-05-15_15h58.35.352,attentional_competition_task,2022.2.4,144.00154369992094,
positions.xlsx,positions_test.xlsx,positions_test_new.xlsx,stimuli.xlsx,stimuli_new.xlsx,stimuli/Social2.png,stimuli/Social1.png,stimuli/Nonsocial2.png,stimuli/Nonsocial1.png,stimuli/Social4.png,stimuli/Social3.png,stimuli/Nonsocial4.png,stimuli/Nonsocial3.png,,,"(-0.7, -0.5)",cs_pos_s,"(-0.7, 0.5)",cs_neg_ns,"(0.7, -0.5)",cs_neg_s,"(0.7, 0.5)",cs_pos_ns,0,0,0,0,,,,,,,,,,,,,,,,,,,,,1,14,38,8,,,,,,,,,,,,,,,,,,,,,,,,,,,270,reward,,,,,,1304.2582122999993,1304.2582122999993,1304.2582122999993,1304.2582122999993,0,,,0,,,0,,,1,0.022817599998234073,0.066513899997517,1304.966521800001,1304.966521800001,1304.966521800001,1304.966521800001,37,B,2024-05-15_15h58.35.352,attentional_competition_task,2022.2.4,144.00154369992094,
positions.xlsx,positions_test.xlsx,positions_test_new.xlsx,stimuli.xlsx,stimuli_new.xlsx,stimuli/Social2.png,stimuli/Social1.png,stimuli/Nonsocial2.png,stimuli/Nonsocial1.png,stimuli/Social4.png,stimuli/Social3.png,stimuli/Nonsocial4.png,stimuli/Nonsocial3.png,,,"(-0.7, -0.5)",cs_neg_s,"(-0.7, 0.5)",cs_pos_s,"(0.7, -0.5)",cs_pos_ns,"(0.7, 0.5)",cs_neg_ns,0,0,0,0,,,,,,,,,,,,,,,,,,,,,1,15,39,1,,,,,,,,,,,,,,,,,,,,,,,,,,,279,reward,,,,,,1312.8064766999996,1312.8064766999996,1312.8064766999996,1312.8064766999996,0,,,0,,,0,,,0,,,1313.521772,1313.521772,1313.521772,1313.521772,37,B,2024-05-15_15h58.35.352,attentional_competition_task,2022.2.4,144.00154369992094,
positions.xlsx,positions_test.xlsx,positions_test_new.xlsx,stimuli.xlsx,stimuli_new.xlsx,stimuli/Social2.png,stimuli/Social1.png,stimuli/Nonsocial2.png,stimuli/Nonsocial1.png,stimuli/Social4.png,stimuli/Social3.png,stimuli/Nonsocial4.png,stimuli/Nonsocial3.png,,,"(-0.7, -0.5)",cs_neg_s,"(-0.7, 0.5)",cs_pos_ns,"(0.7, -0.5)",cs_pos_s,"(0.7, 0.5)",cs_neg_ns,0,0,0,0,,,,,,,,,,,,,,,,,,,,,1,16,40,4,,,,,,,,,,,,,,,,,,,,,,,,,,,288,reward,,,,,,1322.0492085000005,1322.0492085000005,1322.0492085000005,1322.0492085000005,0,,,1,0.023736299997835886,0.164192299998831,0,,,0,,,1322.7227381000012,1322.7227381000012,1322.7227381000012,1322.7227381000012,37,B,2024-05-15_15h58.35.352,attentional_competition_task,2022.2.4,144.00154369992094,
positions.xlsx,positions_test.xlsx,positions_test_new.xlsx,stimuli.xlsx,stimuli_new.xlsx,stimuli/Social2.png,stimuli/Social1.png,stimuli/Nonsocial2.png,stimuli/Nonsocial1.png,stimuli/Social4.png,stimuli/Social3.png,stimuli/Nonsocial4.png,stimuli/Nonsocial3.png,,,"(-0.7, -0.5)",cs_pos_s,"(-0.7, 0.5)",cs_neg_s,"(0.7, -0.5)",cs_pos_ns,"(0.7, 0.5)",cs_neg_ns,0,0,0,0,,,,,,,,,,,,,,,,,,,,,1,17,41,7,,,,,,,,,,,,,,,,,,,,,,,,,,,294,reward,,,,,,1329.3891781999992,1329.3891781999992,1329.3891781999992,1329.3891781999992,1,0.5161836000006588,0.5229345000007015,0,,,1,0.03396690000226954,0.08584870000049705,0,,,1329.9100274000011,1329.9100274000011,1329.9100274000011,1329.9100274000011,37,B,2024-05-15_15h58.35.352,attentional_competition_task,2022.2.4,144.00154369992094,
positions.xlsx,positions_test.xlsx,positions_test_new.xlsx,stimuli.xlsx,stimuli_new.xlsx,stimuli/Social2.png,stimuli/Social1.png,stimuli/Nonsocial2.png,stimuli/Nonsocial1.png,stimuli/Social4.png,stimuli/Social3.png,stimuli/Nonsocial4.png,stimuli/Nonsocial3.png,,,"(-0.7, -0.5)",cs_neg_s,"(-0.7, 0.5)",cs_pos_s,"(0.7, -0.5)",cs_neg_ns,"(0.7, 0.5)",cs_pos_ns,0,0,0,0,,,,,,,,,,,,,,,,,,,,,1,18,42,0,,,,,,,,,,,,,,,,,,,,,,,,,,,303,reward,,,,,,1338.9582163000014,1338.9582163000014,1338.9582163000014,1338.9582163000014,0,,,0,,,0,,,0,,,1339.5971129999998,1339.5971129999998,1339.5971129999998,1339.5971129999998,37,B,2024-05-15_15h58.35.352,attentional_competition_task,2022.2.4,144.00154369992094,
positions.xlsx,positions_test.xlsx,positions_test_new.xlsx,stimuli.xlsx,stimuli_new.xlsx,stimuli/Social2.png,stimuli/Social1.png,stimuli/Nonsocial2.png,stimuli/Nonsocial1.png,stimuli/Social4.png,stimuli/Social3.png,stimuli/Nonsocial4.png,stimuli/Nonsocial3.png,,,"(-0.7, -0.5)",cs_pos_ns,"(-0.7, 0.5)",cs_pos_s,"(0.7, -0.5)",cs_neg_ns,"(0.7, 0.5)",cs_neg_s,0,0,0,0,,,,,,,,,,,,,,,,,,,,,1,19,43,18,,,,,,,,,,,,,,,,,,,,,,,,,,,312,reward,,,,,,1347.8467674999993,1347.8467674999993,1347.8467674999993,1347.8467674999993,0,,,0,,,0,,,0,,,1347.8467674999993,1347.8467674999993,1347.8467674999993,1347.8467674999993,37,B,2024-05-15_15h58.35.352,attentional_competition_task,2022.2.4,144.00154369992094,
positions.xlsx,positions_test.xlsx,positions_test_new.xlsx,stimuli.xlsx,stimuli_new.xlsx,stimuli/Social2.png,stimuli/Social1.png,stimuli/Nonsocial2.png,stimuli/Nonsocial1.png,stimuli/Social4.png,stimuli/Social3.png,stimuli/Nonsocial4.png,stimuli/Nonsocial3.png,,,"(-0.7, -0.5)",cs_neg_ns,"(-0.7, 0.5)",cs_pos_s,"(0.7, -0.5)",cs_pos_ns,"(0.7, 0.5)",cs_neg_s,0,0,0,0,,,,,,,,,,,,,,,,,,,,,1,20,44,13,,,,,,,,,,,,,,,,,,,,,,,,,,,321,reward,,,,,,1356.332526000002,1356.332526000002,1356.332526000002,1356.332526000002,0,,,0,,,0,,,0,,,1356.901944000001,1356.901944000001,1356.901944000001,1356.901944000001,37,B,2024-05-15_15h58.35.352,attentional_competition_task,2022.2.4,144.00154369992094,
positions.xlsx,positions_test.xlsx,positions_test_new.xlsx,stimuli.xlsx,stimuli_new.xlsx,stimuli/Social2.png,stimuli/Social1.png,stimuli/Nonsocial2.png,stimuli/Nonsocial1.png,stimuli/Social4.png,stimuli/Social3.png,stimuli/Nonsocial4.png,stimuli/Nonsocial3.png,,,"(-0.7, -0.5)",cs_neg_s,"(-0.7, 0.5)",cs_neg_ns,"(0.7, -0.5)",cs_pos_s,"(0.7, 0.5)",cs_pos_ns,0,0,0,0,,,,,,,,,,,,,,,,,,,,,1,21,45,2,,,,,,,,,,,,,,,,,,,,,,,,,,,327,reward,,,,,,1363.741967599999,1363.741967599999,1363.741967599999,1363.741967599999,0,,,0,,,1,0.31906200000230456,0.3190656000006129,0,,,1364.0683376999987,1364.0683376999987,1364.0683376999987,1364.0683376999987,37,B,2024-05-15_15h58.35.352,attentional_competition_task,2022.2.4,144.00154369992094,
positions.xlsx,positions_test.xlsx,positions_test_new.xlsx,stimuli.xlsx,stimuli_new.xlsx,stimuli/Social2.png,stimuli/Social1.png,stimuli/Nonsocial2.png,stimuli/Nonsocial1.png,stimuli/Social4.png,stimuli/Social3.png,stimuli/Nonsocial4.png,stimuli/Nonsocial3.png,,,"(-0.7, -0.5)",cs_neg_ns,"(-0.7, 0.5)",cs_pos_ns,"(0.7, -0.5)",cs_neg_s,"(0.7, 0.5)",cs_pos_s,0,0,0,0,,,,,,,,,,,,,,,,,,,,,1,22,46,17,,,,,,,,,,,,,,,,,,,,,,,,,,,336,reward,,,,,,1372.7137952000012,1372.7137952000012,1372.7137952000012,1372.7137952000012,0,,,0,,,0,,,0,,,1373.283250700002,1373.283250700002,1373.283250700002,1373.283250700002,37,B,2024-05-15_15h58.35.352,attentional_competition_task,2022.2.4,144.00154369992094,
positions.xlsx,positions_test.xlsx,positions_test_new.xlsx,stimuli.xlsx,stimuli_new.xlsx,stimuli/Social2.png,stimuli/Social1.png,stimuli/Nonsocial2.png,stimuli/Nonsocial1.png,stimuli/Social4.png,stimuli/Social3.png,stimuli/Nonsocial4.png,stimuli/Nonsocial3.png,,,"(-0.7, -0.5)",cs_pos_s,"(-0.7, 0.5)",cs_neg_ns,"(0.7, -0.5)",cs_pos_ns,"(0.7, 0.5)",cs_neg_s,0,0,0,0,,,,,,,,,,,,,,,,,,,,,1,23,47,9,,,,,,,,,,,,,,,,,,,,,,,,,,,345,reward,,,,,,1381.1579496000013,1381.1579496000013,1381.1579496000013,1381.1579496000013,1,0.024627499999041902,0.11443979999967269,0,,,0,,,0,,,1381.7759847000016,1381.7759847000016,1381.7759847000016,1381.7759847000016,37,B,2024-05-15_15h58.35.352,attentional_competition_task,2022.2.4,144.00154369992094,
positions.xlsx,positions_test.xlsx,positions_test_new.xlsx,stimuli.xlsx,stimuli_new.xlsx,stimuli/Social2.png,stimuli/Social1.png,stimuli/Nonsocial2.png,stimuli/Nonsocial1.png,stimuli/Social4.png,stimuli/Social3.png,stimuli/Nonsocial4.png,stimuli/Nonsocial3.png,,,"(-0.7, -0.5)",cs_neg_s,"(-0.7, 0.5)",cs_neg_ns,"(0.7, -0.5)",cs_pos_s,"(0.7, 0.5)",cs_pos_ns_new,0,0,0,0,,,,,,,,,,,,,,,,,,,,,,,,,,,,,0,0,0,42,0,0,0,0,,,,,,,,,,,,,,,342,loss,,,,,,1386.9215542999991,1386.9215542999991,1386.9215542999991,1386.9215542999991,1,1.251987100000406,1.2519907000023522,0,,,0,,,0,,,1388.1854306999994,1388.1854306999994,1388.1854306999994,1388.1854306999994,37,B,2024-05-15_15h58.35.352,attentional_competition_task,2022.2.4,144.00154369992094,
positions.xlsx,positions_test.xlsx,positions_test_new.xlsx,stimuli.xlsx,stimuli_new.xlsx,stimuli/Social2.png,stimuli/Social1.png,stimuli/Nonsocial2.png,stimuli/Nonsocial1.png,stimuli/Social4.png,stimuli/Social3.png,stimuli/Nonsocial4.png,stimuli/Nonsocial3.png,,,"(-0.7, -0.5)",cs_neg_s,"(-0.7, 0.5)",cs_neg_ns,"(0.7, -0.5)",cs_pos_s,"(0.7, 0.5)",cs_pos_ns_new,0,0,0,0,,,,,,,,,,,,,,,,,,,,,,,,,,,,,0,0,0,42,1,0,1,0,,,,,,,,,,,,,,,339,loss,,,,,,1388.7201419000012,1388.7201419000012,1388.7201419000012,1388.7201419000012,0,,,1,0.029270200000610203,0.029274199998326367,0,,,0,,,1388.7201419000012,1388.7201419000012,1388.7201419000012,1388.7201419000012,37,B,2024-05-15_15h58.35.352,attentional_competition_task,2022.2.4,144.00154369992094,
positions.xlsx,positions_test.xlsx,positions_test_new.xlsx,stimuli.xlsx,stimuli_new.xlsx,stimuli/Social2.png,stimuli/Social1.png,stimuli/Nonsocial2.png,stimuli/Nonsocial1.png,stimuli/Social4.png,stimuli/Social3.png,stimuli/Nonsocial4.png,stimuli/Nonsocial3.png,,,"(-0.7, -0.5)",cs_neg_s,"(-0.7, 0.5)",cs_neg_ns,"(0.7, -0.5)",cs_pos_s,"(0.7, 0.5)",cs_pos_ns_new,0,0,0,0,,,,,,,,,,,,,,,,,,,,,,,,,,,,,0,0,0,42,,,,,,,,,,,,,,,,,,,,,,,,,,,,,,,,,,,,,,,,,,,,,,37,B,2024-05-15_15h58.35.352,attentional_competition_task,2022.2.4,144.00154369992094,
positions.xlsx,positions_test.xlsx,positions_test_new.xlsx,stimuli.xlsx,stimuli_new.xlsx,stimuli/Social2.png,stimuli/Social1.png,stimuli/Nonsocial2.png,stimuli/Nonsocial1.png,stimuli/Social4.png,stimuli/Social3.png,stimuli/Nonsocial4.png,stimuli/Nonsocial3.png,,,"(-0.7, -0.5)",cs_neg_s,"(-0.7, 0.5)",cs_pos_s,"(0.7, -0.5)",cs_pos_ns,"(0.7, 0.5)",cs_neg_ns,0,0,0,0,,,,,,,,,,,,,,,,,,,,,,,,,,,,,0,1,1,1,0,0,0,0,,,,,,,,,,,,,,,342,reward,,,,,,1395.4420582999992,1395.4420582999992,1395.4420582999992,1395.4420582999992,0,,,1,1.0016002000011213,1.0087845999987621,0,,,0,,,1396.4489815999987,1396.4489815999987,1396.4489815999987,1396.4489815999987,37,B,2024-05-15_15h58.35.352,attentional_competition_task,2022.2.4,144.00154369992094,
positions.xlsx,positions_test.xlsx,positions_test_new.xlsx,stimuli.xlsx,stimuli_new.xlsx,stimuli/Social2.png,stimuli/Social1.png,stimuli/Nonsocial2.png,stimuli/Nonsocial1.png,stimuli/Social4.png,stimuli/Social3.png,stimuli/Nonsocial4.png,stimuli/Nonsocial3.png,,,"(-0.7, -0.5)",cs_neg_s,"(-0.7, 0.5)",cs_pos_s,"(0.7, -0.5)",cs_pos_ns,"(0.7, 0.5)",cs_neg_ns,0,0,0,0,,,,,,,,,,,,,,,,,,,,,,,,,,,,,0,1,1,1,1,0,1,0,,,,,,,,,,,,,,,345,reward,,,,,,1396.990631200002,1396.990631200002,1396.990631200002,1396.990631200002,0,,,0,,,1,0.029667000002518762,0.029671400003280723,0,,,1396.990631200002,1396.990631200002,1396.990631200002,1396.990631200002,37,B,2024-05-15_15h58.35.352,attentional_competition_task,2022.2.4,144.00154369992094,
positions.xlsx,positions_test.xlsx,positions_test_new.xlsx,stimuli.xlsx,stimuli_new.xlsx,stimuli/Social2.png,stimuli/Social1.png,stimuli/Nonsocial2.png,stimuli/Nonsocial1.png,stimuli/Social4.png,stimuli/Social3.png,stimuli/Nonsocial4.png,stimuli/Nonsocial3.png,,,"(-0.7, -0.5)",cs_neg_s,"(-0.7, 0.5)",cs_pos_s,"(0.7, -0.5)",cs_pos_ns,"(0.7, 0.5)",cs_neg_ns,0,0,0,0,,,,,,,,,,,,,,,,,,,,,,,,,,,,,0,1,1,1,,,,,,,,,,,,,,,,,,,,,,,,,,,,,,,,,,,,,,,,,,,,,,37,B,2024-05-15_15h58.35.352,attentional_competition_task,2022.2.4,144.00154369992094,
positions.xlsx,positions_test.xlsx,positions_test_new.xlsx,stimuli.xlsx,stimuli_new.xlsx,stimuli/Social2.png,stimuli/Social1.png,stimuli/Nonsocial2.png,stimuli/Nonsocial1.png,stimuli/Social4.png,stimuli/Social3.png,stimuli/Nonsocial4.png,stimuli/Nonsocial3.png,,,"(-0.7, -0.5)",cs_pos_s,"(-0.7, 0.5)",cs_neg_s_new,"(0.7, -0.5)",cs_neg_ns,"(0.7, 0.5)",cs_pos_ns,0,0,0,0,,,,,,,,,,,,,,,,,,,,,,,,,,,,,0,2,2,15,0,0,0,0,,,,,,,,,,,,,,,348,reward,,,,,,1403.7264724000015,1403.7264724000015,1403.7264724000015,1403.7264724000015,1,1.1127201999988756,1.1127239000015834,0,,,0,,,0,,,1404.8375412999994,1404.8375412999994,1404.8375412999994,1404.8375412999994,37,B,2024-05-15_15h58.35.352,attentional_competition_task,2022.2.4,144.00154369992094,
positions.xlsx,positions_test.xlsx,positions_test_new.xlsx,stimuli.xlsx,stimuli_new.xlsx,stimuli/Social2.png,stimuli/Social1.png,stimuli/Nonsocial2.png,stimuli/Nonsocial1.png,stimuli/Social4.png,stimuli/Social3.png,stimuli/Nonsocial4.png,stimuli/Nonsocial3.png,,,"(-0.7, -0.5)",cs_pos_s,"(-0.7, 0.5)",cs_neg_s_new,"(0.7, -0.5)",cs_neg_ns,"(0.7, 0.5)",cs_pos_ns,0,0,0,0,,,,,,,,,,,,,,,,,,,,,,,,,,,,,0,2,2,15,1,0,1,0,,,,,,,,,,,,,,,345,loss,,,,,,1405.3792238999995,1405.3792238999995,1405.3792238999995,1405.3792238999995,0,,,0,,,1,0.028263300002436154,0.028267400000913767,0,,,1405.3792238999995,1405.3792238999995,1405.3792238999995,1405.3792238999995,37,B,2024-05-15_15h58.35.352,attentional_competition_task,2022.2.4,144.00154369992094,
positions.xlsx,positions_test.xlsx,positions_test_new.xlsx,stimuli.xlsx,stimuli_new.xlsx,stimuli/Social2.png,stimuli/Social1.png,stimuli/Nonsocial2.png,stimuli/Nonsocial1.png,stimuli/Social4.png,stimuli/Social3.png,stimuli/Nonsocial4.png,stimuli/Nonsocial3.png,,,"(-0.7, -0.5)",cs_pos_s,"(-0.7, 0.5)",cs_neg_s_new,"(0.7, -0.5)",cs_neg_ns,"(0.7, 0.5)",cs_pos_ns,0,0,0,0,,,,,,,,,,,,,,,,,,,,,,,,,,,,,0,2,2,15,,,,,,,,,,,,,,,,,,,,,,,,,,,,,,,,,,,,,,,,,,,,,,37,B,2024-05-15_15h58.35.352,attentional_competition_task,2022.2.4,144.00154369992094,
positions.xlsx,positions_test.xlsx,positions_test_new.xlsx,stimuli.xlsx,stimuli_new.xlsx,stimuli/Social2.png,stimuli/Social1.png,stimuli/Nonsocial2.png,stimuli/Nonsocial1.png,stimuli/Social4.png,stimuli/Social3.png,stimuli/Nonsocial4.png,stimuli/Nonsocial3.png,,,"(-0.7, -0.5)",cs_pos_s,"(-0.7, 0.5)",cs_neg_ns_new,"(0.7, -0.5)",cs_pos_ns,"(0.7, 0.5)",cs_neg_s,0,0,0,0,,,,,,,,,,,,,,,,,,,,,,,,,,,,,0,3,3,25,0,0,0,0,,,,,,,,,,,,,,,348,reward,,,,,,1412.4830669000003,1412.4830669000003,1412.4830669000003,1412.4830669000003,1,1.2306774000026053,1.2306809000001522,0,,,0,,,0,,,1413.719127100001,1413.719127100001,1413.719127100001,1413.719127100001,37,B,2024-05-15_15h58.35.352,attentional_competition_task,2022.2.4,144.00154369992094,
positions.xlsx,positions_test.xlsx,positions_test_new.xlsx,stimuli.xlsx,stimuli_new.xlsx,stimuli/Social2.png,stimuli/Social1.png,stimuli/Nonsocial2.png,stimuli/Nonsocial1.png,stimuli/Social4.png,stimuli/Social3.png,stimuli/Nonsocial4.png,stimuli/Nonsocial3.png,,,"(-0.7, -0.5)",cs_pos_s,"(-0.7, 0.5)",cs_neg_ns_new,"(0.7, -0.5)",cs_pos_ns,"(0.7, 0.5)",cs_neg_s,0,0,0,0,,,,,,,,,,,,,,,,,,,,,,,,,,,,,0,3,3,25,1,0,1,0,,,,,,,,,,,,,,,351,reward,,,,,,1414.2191043999992,1414.2191043999992,1414.2191043999992,1414.2191043999992,0,,,0,,,1,0.238977299999533,0.23898089999784133,0,,,1414.4621574000012,1414.4621574000012,1414.4621574000012,1414.4621574000012,37,B,2024-05-15_15h58.35.352,attentional_competition_task,2022.2.4,144.00154369992094,
positions.xlsx,positions_test.xlsx,positions_test_new.xlsx,stimuli.xlsx,stimuli_new.xlsx,stimuli/Social2.png,stimuli/Social1.png,stimuli/Nonsocial2.png,stimuli/Nonsocial1.png,stimuli/Social4.png,stimuli/Social3.png,stimuli/Nonsocial4.png,stimuli/Nonsocial3.png,,,"(-0.7, -0.5)",cs_pos_s,"(-0.7, 0.5)",cs_neg_ns_new,"(0.7, -0.5)",cs_pos_ns,"(0.7, 0.5)",cs_neg_s,0,0,0,0,,,,,,,,,,,,,,,,,,,,,,,,,,,,,0,3,3,25,,,,,,,,,,,,,,,,,,,,,,,,,,,,,,,,,,,,,,,,,,,,,,37,B,2024-05-15_15h58.35.352,attentional_competition_task,2022.2.4,144.00154369992094,
positions.xlsx,positions_test.xlsx,positions_test_new.xlsx,stimuli.xlsx,stimuli_new.xlsx,stimuli/Social2.png,stimuli/Social1.png,stimuli/Nonsocial2.png,stimuli/Nonsocial1.png,stimuli/Social4.png,stimuli/Social3.png,stimuli/Nonsocial4.png,stimuli/Nonsocial3.png,,,"(-0.7, -0.5)",cs_pos_ns,"(-0.7, 0.5)",cs_neg_ns,"(0.7, -0.5)",cs_neg_s,"(0.7, 0.5)",cs_pos_s_new,0,0,0,0,,,,,,,,,,,,,,,,,,,,,,,,,,,,,0,4,4,36,0,0,0,0,,,,,,,,,,,,,,,354,reward,,,,,,1420.4202243,1420.4202243,1420.4202243,1420.4202243,1,1.0642231999991054,1.0642270999996981,0,,,0,,,0,,,1421.4896193000022,1421.4896193000022,1421.4896193000022,1421.4896193000022,37,B,2024-05-15_15h58.35.352,attentional_competition_task,2022.2.4,144.00154369992094,
positions.xlsx,positions_test.xlsx,positions_test_new.xlsx,stimuli.xlsx,stimuli_new.xlsx,stimuli/Social2.png,stimuli/Social1.png,stimuli/Nonsocial2.png,stimuli/Nonsocial1.png,stimuli/Social4.png,stimuli/Social3.png,stimuli/Nonsocial4.png,stimuli/Nonsocial3.png,,,"(-0.7, -0.5)",cs_pos_ns,"(-0.7, 0.5)",cs_neg_ns,"(0.7, -0.5)",cs_neg_s,"(0.7, 0.5)",cs_pos_s_new,0,0,0,0,,,,,,,,,,,,,,,,,,,,,,,,,,,,,0,4,4,36,1,0,1,0,,,,,,,,,,,,,,,357,reward,,,,,,1421.9965964000003,1421.9965964000003,1421.9965964000003,1421.9965964000003,1,0.029743700000835815,0.07107670000186772,0,,,0,,,0,,,1422.9340465999994,1422.9340465999994,1422.9340465999994,1422.9340465999994,37,B,2024-05-15_15h58.35.352,attentional_competition_task,2022.2.4,144.00154369992094,
positions.xlsx,positions_test.xlsx,positions_test_new.xlsx,stimuli.xlsx,stimuli_new.xlsx,stimuli/Social2.png,stimuli/Social1.png,stimuli/Nonsocial2.png,stimuli/Nonsocial1.png,stimuli/Social4.png,stimuli/Social3.png,stimuli/Nonsocial4.png,stimuli/Nonsocial3.png,,,"(-0.7, -0.5)",cs_pos_ns,"(-0.7, 0.5)",cs_neg_ns,"(0.7, -0.5)",cs_neg_s,"(0.7, 0.5)",cs_pos_s_new,0,0,0,0,,,,,,,,,,,,,,,,,,,,,,,,,,,,,0,4,4,36,,,,,,,,,,,,,,,,,,,,,,,,,,,,,,,,,,,,,,,,,,,,,,37,B,2024-05-15_15h58.35.352,attentional_competition_task,2022.2.4,144.00154369992094,
positions.xlsx,positions_test.xlsx,positions_test_new.xlsx,stimuli.xlsx,stimuli_new.xlsx,stimuli/Social2.png,stimuli/Social1.png,stimuli/Nonsocial2.png,stimuli/Nonsocial1.png,stimuli/Social4.png,stimuli/Social3.png,stimuli/Nonsocial4.png,stimuli/Nonsocial3.png,,,"(-0.7, -0.5)",cs_pos_ns,"(-0.7, 0.5)",cs_pos_s,"(0.7, -0.5)",cs_neg_s,"(0.7, 0.5)",cs_neg_ns,0,0,0,0,,,,,,,,,,,,,,,,,,,,,,,,,,,,,0,5,5,4,0,0,0,0,,,,,,,,,,,,,,,360,reward,,,,,,1429.4337607000016,1429.4337607000016,1429.4337607000016,1429.4337607000016,0,,,1,1.0082459000004746,1.0082497999974294,0,,,0,,,1430.4476682999993,1430.4476682999993,1430.4476682999993,1430.4476682999993,37,B,2024-05-15_15h58.35.352,attentional_competition_task,2022.2.4,144.00154369992094,
positions.xlsx,positions_test.xlsx,positions_test_new.xlsx,stimuli.xlsx,stimuli_new.xlsx,stimuli/Social2.png,stimuli/Social1.png,stimuli/Nonsocial2.png,stimuli/Nonsocial1.png,stimuli/Social4.png,stimuli/Social3.png,stimuli/Nonsocial4.png,stimuli/Nonsocial3.png,,,"(-0.7, -0.5)",cs_pos_ns,"(-0.7, 0.5)",cs_pos_s,"(0.7, -0.5)",cs_neg_s,"(0.7, 0.5)",cs_neg_ns,0,0,0,0,,,,,,,,,,,,,,,,,,,,,,,,,,,,,0,5,5,4,1,0,1,0,,,,,,,,,,,,,,,363,reward,,,,,,1430.9823732000004,1430.9823732000004,1430.9823732000004,1430.9823732000004,1,0.02969419999863021,0.029698299997107824,0,,,0,,,0,,,1430.9823732000004,1430.9823732000004,1430.9823732000004,1430.9823732000004,37,B,2024-05-15_15h58.35.352,attentional_competition_task,2022.2.4,144.00154369992094,
positions.xlsx,positions_test.xlsx,positions_test_new.xlsx,stimuli.xlsx,stimuli_new.xlsx,stimuli/Social2.png,stimuli/Social1.png,stimuli/Nonsocial2.png,stimuli/Nonsocial1.png,stimuli/Social4.png,stimuli/Social3.png,stimuli/Nonsocial4.png,stimuli/Nonsocial3.png,,,"(-0.7, -0.5)",cs_pos_ns,"(-0.7, 0.5)",cs_pos_s,"(0.7, -0.5)",cs_neg_s,"(0.7, 0.5)",cs_neg_ns,0,0,0,0,,,,,,,,,,,,,,,,,,,,,,,,,,,,,0,5,5,4,,,,,,,,,,,,,,,,,,,,,,,,,,,,,,,,,,,,,,,,,,,,,,37,B,2024-05-15_15h58.35.352,attentional_competition_task,2022.2.4,144.00154369992094,
positions.xlsx,positions_test.xlsx,positions_test_new.xlsx,stimuli.xlsx,stimuli_new.xlsx,stimuli/Social2.png,stimuli/Social1.png,stimuli/Nonsocial2.png,stimuli/Nonsocial1.png,stimuli/Social4.png,stimuli/Social3.png,stimuli/Nonsocial4.png,stimuli/Nonsocial3.png,,,"(-0.7, -0.5)",cs_neg_ns_new,"(-0.7, 0.5)",cs_pos_s,"(0.7, -0.5)",cs_pos_ns,"(0.7, 0.5)",cs_neg_s,0,0,0,0,,,,,,,,,,,,,,,,,,,,,,,,,,,,,0,6,6,19,0,0,0,0,,,,,,,,,,,,,,,366,reward,,,,,,1437.343166999999,1437.343166999999,1437.343166999999,1437.343166999999,0,,,0,,,1,0.828358599999774,0.8283621000009589,0,,,1438.1764857000016,1438.1764857000016,1438.1764857000016,1438.1764857000016,37,B,2024-05-15_15h58.35.352,attentional_competition_task,2022.2.4,144.00154369992094,
positions.xlsx,positions_test.xlsx,positions_test_new.xlsx,stimuli.xlsx,stimuli_new.xlsx,stimuli/Social2.png,stimuli/Social1.png,stimuli/Nonsocial2.png,stimuli/Nonsocial1.png,stimuli/Social4.png,stimuli/Social3.png,stimuli/Nonsocial4.png,stimuli/Nonsocial3.png,,,"(-0.7, -0.5)",cs_neg_ns_new,"(-0.7, 0.5)",cs_pos_s,"(0.7, -0.5)",cs_pos_ns,"(0.7, 0.5)",cs_neg_s,0,0,0,0,,,,,,,,,,,,,,,,,,,,,,,,,,,,,0,6,6,19,1,0,1,0,,,,,,,,,,,,,,,369,reward,,,,,,1438.704247400001,1438.704247400001,1438.704247400001,1438.704247400001,0,,,1,0.028347799998300616,0.02835169999889331,0,,,0,,,1438.704247400001,1438.704247400001,1438.704247400001,1438.704247400001,37,B,2024-05-15_15h58.35.352,attentional_competition_task,2022.2.4,144.00154369992094,
positions.xlsx,positions_test.xlsx,positions_test_new.xlsx,stimuli.xlsx,stimuli_new.xlsx,stimuli/Social2.png,stimuli/Social1.png,stimuli/Nonsocial2.png,stimuli/Nonsocial1.png,stimuli/Social4.png,stimuli/Social3.png,stimuli/Nonsocial4.png,stimuli/Nonsocial3.png,,,"(-0.7, -0.5)",cs_neg_ns_new,"(-0.7, 0.5)",cs_pos_s,"(0.7, -0.5)",cs_pos_ns,"(0.7, 0.5)",cs_neg_s,0,0,0,0,,,,,,,,,,,,,,,,,,,,,,,,,,,,,0,6,6,19,2,0,2,0,,,,,,,,,,,,,,,372,reward,,,,,,1439.2111766999988,1439.2111766999988,1439.2111766999988,1439.2111766999988,0,,,0,,,0,,,0,,,1439.8569701000015,1439.8569701000015,1439.8569701000015,1439.8569701000015,37,B,2024-05-15_15h58.35.352,attentional_competition_task,2022.2.4,144.00154369992094,
positions.xlsx,positions_test.xlsx,positions_test_new.xlsx,stimuli.xlsx,stimuli_new.xlsx,stimuli/Social2.png,stimuli/Social1.png,stimuli/Nonsocial2.png,stimuli/Nonsocial1.png,stimuli/Social4.png,stimuli/Social3.png,stimuli/Nonsocial4.png,stimuli/Nonsocial3.png,,,"(-0.7, -0.5)",cs_neg_ns_new,"(-0.7, 0.5)",cs_pos_s,"(0.7, -0.5)",cs_pos_ns,"(0.7, 0.5)",cs_neg_s,0,0,0,0,,,,,,,,,,,,,,,,,,,,,,,,,,,,,0,6,6,19,,,,,,,,,,,,,,,,,,,,,,,,,,,,,,,,,,,,,,,,,,,,,,37,B,2024-05-15_15h58.35.352,attentional_competition_task,2022.2.4,144.00154369992094,
positions.xlsx,positions_test.xlsx,positions_test_new.xlsx,stimuli.xlsx,stimuli_new.xlsx,stimuli/Social2.png,stimuli/Social1.png,stimuli/Nonsocial2.png,stimuli/Nonsocial1.png,stimuli/Social4.png,stimuli/Social3.png,stimuli/Nonsocial4.png,stimuli/Nonsocial3.png,,,"(-0.7, -0.5)",cs_neg_s,"(-0.7, 0.5)",cs_pos_s,"(0.7, -0.5)",cs_pos_ns,"(0.7, 0.5)",cs_neg_ns_new,0,0,0,0,,,,,,,,,,,,,,,,,,,,,,,,,,,,,0,7,7,27,0,0,0,0,,,,,,,,,,,,,,,375,reward,,,,,,1445.9470151999994,1445.9470151999994,1445.9470151999994,1445.9470151999994,0,,,0,,,1,0.5647691000012856,0.5647728000003553,0,,,1446.5164307000014,1446.5164307000014,1446.5164307000014,1446.5164307000014,37,B,2024-05-15_15h58.35.352,attentional_competition_task,2022.2.4,144.00154369992094,
positions.xlsx,positions_test.xlsx,positions_test_new.xlsx,stimuli.xlsx,stimuli_new.xlsx,stimuli/Social2.png,stimuli/Social1.png,stimuli/Nonsocial2.png,stimuli/Nonsocial1.png,stimuli/Social4.png,stimuli/Social3.png,stimuli/Nonsocial4.png,stimuli/Nonsocial3.png,,,"(-0.7, -0.5)",cs_neg_s,"(-0.7, 0.5)",cs_pos_s,"(0.7, -0.5)",cs_pos_ns,"(0.7, 0.5)",cs_neg_ns_new,0,0,0,0,,,,,,,,,,,,,,,,,,,,,,,,,,,,,0,7,7,27,1,0,1,0,,,,,,,,,,,,,,,378,reward,,,,,,1447.0511306000008,1447.0511306000008,1447.0511306000008,1447.0511306000008,0,,,1,0.031519800002570264,0.03152400000180933,0,,,0,,,1447.0511306000008,1447.0511306000008,1447.0511306000008,1447.0511306000008,37,B,2024-05-15_15h58.35.352,attentional_competition_task,2022.2.4,144.00154369992094,
positions.xlsx,positions_test.xlsx,positions_test_new.xlsx,stimuli.xlsx,stimuli_new.xlsx,stimuli/Social2.png,stimuli/Social1.png,stimuli/Nonsocial2.png,stimuli/Nonsocial1.png,stimuli/Social4.png,stimuli/Social3.png,stimuli/Nonsocial4.png,stimuli/Nonsocial3.png,,,"(-0.7, -0.5)",cs_neg_s,"(-0.7, 0.5)",cs_pos_s,"(0.7, -0.5)",cs_pos_ns,"(0.7, 0.5)",cs_neg_ns_new,0,0,0,0,,,,,,,,,,,,,,,,,,,,,,,,,,,,,0,7,7,27,2,0,2,0,,,,,,,,,,,,,,,375,loss,,,,,,1447.5858509999998,1447.5858509999998,1447.5858509999998,1447.5858509999998,1,0.027864100000442704,0.02787030000035884,0,,,0,,,0,,,1447.5858509999998,1447.5858509999998,1447.5858509999998,1447.5858509999998,37,B,2024-05-15_15h58.35.352,attentional_competition_task,2022.2.4,144.00154369992094,
positions.xlsx,positions_test.xlsx,positions_test_new.xlsx,stimuli.xlsx,stimuli_new.xlsx,stimuli/Social2.png,stimuli/Social1.png,stimuli/Nonsocial2.png,stimuli/Nonsocial1.png,stimuli/Social4.png,stimuli/Social3.png,stimuli/Nonsocial4.png,stimuli/Nonsocial3.png,,,"(-0.7, -0.5)",cs_neg_s,"(-0.7, 0.5)",cs_pos_s,"(0.7, -0.5)",cs_pos_ns,"(0.7, 0.5)",cs_neg_ns_new,0,0,0,0,,,,,,,,,,,,,,,,,,,,,,,,,,,,,0,7,7,27,,,,,,,,,,,,,,,,,,,,,,,,,,,,,,,,,,,,,,,,,,,,,,37,B,2024-05-15_15h58.35.352,attentional_competition_task,2022.2.4,144.00154369992094,
positions.xlsx,positions_test.xlsx,positions_test_new.xlsx,stimuli.xlsx,stimuli_new.xlsx,stimuli/Social2.png,stimuli/Social1.png,stimuli/Nonsocial2.png,stimuli/Nonsocial1.png,stimuli/Social4.png,stimuli/Social3.png,stimuli/Nonsocial4.png,stimuli/Nonsocial3.png,,,"(-0.7, -0.5)",cs_neg_s,"(-0.7, 0.5)",cs_pos_ns,"(0.7, -0.5)",cs_pos_s_new,"(0.7, 0.5)",cs_neg_ns,0,0,0,0,,,,,,,,,,,,,,,,,,,,,,,,,,,,,0,8,8,32,0,0,0,0,,,,,,,,,,,,,,,378,reward,,,,,,1453.9119950999993,1453.9119950999993,1453.9119950999993,1453.9119950999993,0,,,2,0.9394705000013346,0.9470879000000423,0,,,0,,,1455.335536300001,1455.335536300001,1455.335536300001,1455.335536300001,37,B,2024-05-15_15h58.35.352,attentional_competition_task,2022.2.4,144.00154369992094,
positions.xlsx,positions_test.xlsx,positions_test_new.xlsx,stimuli.xlsx,stimuli_new.xlsx,stimuli/Social2.png,stimuli/Social1.png,stimuli/Nonsocial2.png,stimuli/Nonsocial1.png,stimuli/Social4.png,stimuli/Social3.png,stimuli/Nonsocial4.png,stimuli/Nonsocial3.png,,,"(-0.7, -0.5)",cs_neg_s,"(-0.7, 0.5)",cs_pos_ns,"(0.7, -0.5)",cs_pos_s_new,"(0.7, 0.5)",cs_neg_ns,0,0,0,0,,,,,,,,,,,,,,,,,,,,,,,,,,,,,0,8,8,32,1,0,1,0,,,,,,,,,,,,,,,381,reward,,,,,,1455.8702225000015,1455.8702225000015,1455.8702225000015,1455.8702225000015,0,,,0,,,1,0.03162240000165184,0.031626299998606555,0,,,1455.8702225000015,1455.8702225000015,1455.8702225000015,1455.8702225000015,37,B,2024-05-15_15h58.35.352,attentional_competition_task,2022.2.4,144.00154369992094,
positions.xlsx,positions_test.xlsx,positions_test_new.xlsx,stimuli.xlsx,stimuli_new.xlsx,stimuli/Social2.png,stimuli/Social1.png,stimuli/Nonsocial2.png,stimuli/Nonsocial1.png,stimuli/Social4.png,stimuli/Social3.png,stimuli/Nonsocial4.png,stimuli/Nonsocial3.png,,,"(-0.7, -0.5)",cs_neg_s,"(-0.7, 0.5)",cs_pos_ns,"(0.7, -0.5)",cs_pos_s_new,"(0.7, 0.5)",cs_neg_ns,0,0,0,0,,,,,,,,,,,,,,,,,,,,,,,,,,,,,0,8,8,32,,,,,,,,,,,,,,,,,,,,,,,,,,,,,,,,,,,,,,,,,,,,,,37,B,2024-05-15_15h58.35.352,attentional_competition_task,2022.2.4,144.00154369992094,
positions.xlsx,positions_test.xlsx,positions_test_new.xlsx,stimuli.xlsx,stimuli_new.xlsx,stimuli/Social2.png,stimuli/Social1.png,stimuli/Nonsocial2.png,stimuli/Nonsocial1.png,stimuli/Social4.png,stimuli/Social3.png,stimuli/Nonsocial4.png,stimuli/Nonsocial3.png,,,"(-0.7, -0.5)",cs_neg_ns,"(-0.7, 0.5)",cs_pos_s,"(0.7, -0.5)",cs_pos_ns,"(0.7, 0.5)",cs_neg_s_new,0,0,0,0,,,,,,,,,,,,,,,,,,,,,,,,,,,,,0,9,9,8,0,0,0,0,,,,,,,,,,,,,,,384,reward,,,,,,1461.9116439999998,1461.9116439999998,1461.9116439999998,1461.9116439999998,0,,,1,0.876918800000567,0.8769224999996368,0,,,0,,,1462.7935672000021,1462.7935672000021,1462.7935672000021,1462.7935672000021,37,B,2024-05-15_15h58.35.352,attentional_competition_task,2022.2.4,144.00154369992094,
positions.xlsx,positions_test.xlsx,positions_test_new.xlsx,stimuli.xlsx,stimuli_new.xlsx,stimuli/Social2.png,stimuli/Social1.png,stimuli/Nonsocial2.png,stimuli/Nonsocial1.png,stimuli/Social4.png,stimuli/Social3.png,stimuli/Nonsocial4.png,stimuli/Nonsocial3.png,,,"(-0.7, -0.5)",cs_neg_ns,"(-0.7, 0.5)",cs_pos_s,"(0.7, -0.5)",cs_pos_ns,"(0.7, 0.5)",cs_neg_s_new,0,0,0,0,,,,,,,,,,,,,,,,,,,,,,,,,,,,,0,9,9,8,1,0,1,0,,,,,,,,,,,,,,,381,loss,,,,,,1463.3282648999993,1463.3282648999993,1463.3282648999993,1463.3282648999993,1,0.030108700000710087,0.03011250000054133,0,,,0,,,0,,,1463.3282648999993,1463.3282648999993,1463.3282648999993,1463.3282648999993,37,B,2024-05-15_15h58.35.352,attentional_competition_task,2022.2.4,144.00154369992094,
positions.xlsx,positions_test.xlsx,positions_test_new.xlsx,stimuli.xlsx,stimuli_new.xlsx,stimuli/Social2.png,stimuli/Social1.png,stimuli/Nonsocial2.png,stimuli/Nonsocial1.png,stimuli/Social4.png,stimuli/Social3.png,stimuli/Nonsocial4.png,stimuli/Nonsocial3.png,,,"(-0.7, -0.5)",cs_neg_ns,"(-0.7, 0.5)",cs_pos_s,"(0.7, -0.5)",cs_pos_ns,"(0.7, 0.5)",cs_neg_s_new,0,0,0,0,,,,,,,,,,,,,,,,,,,,,,,,,,,,,0,9,9,8,2,0,2,0,,,,,,,,,,,,,,,384,reward,,,,,,1463.8629795999987,1463.8629795999987,1463.8629795999987,1463.8629795999987,0,,,0,,,1,0.029210900000180118,0.02921480000077281,0,,,1463.8629795999987,1463.8629795999987,1463.8629795999987,1463.8629795999987,37,B,2024-05-15_15h58.35.352,attentional_competition_task,2022.2.4,144.00154369992094,
positions.xlsx,positions_test.xlsx,positions_test_new.xlsx,stimuli.xlsx,stimuli_new.xlsx,stimuli/Social2.png,stimuli/Social1.png,stimuli/Nonsocial2.png,stimuli/Nonsocial1.png,stimuli/Social4.png,stimuli/Social3.png,stimuli/Nonsocial4.png,stimuli/Nonsocial3.png,,,"(-0.7, -0.5)",cs_neg_ns,"(-0.7, 0.5)",cs_pos_s,"(0.7, -0.5)",cs_pos_ns,"(0.7, 0.5)",cs_neg_s_new,0,0,0,0,,,,,,,,,,,,,,,,,,,,,,,,,,,,,0,9,9,8,,,,,,,,,,,,,,,,,,,,,,,,,,,,,,,,,,,,,,,,,,,,,,37,B,2024-05-15_15h58.35.352,attentional_competition_task,2022.2.4,144.00154369992094,
