posFile,posFileTest,posFileTestNew,stimFile,stimFileNew,cs_neg_s,cs_pos_s,cs_neg_ns,cs_pos_ns,cs_neg_s_new,cs_pos_s_new,cs_neg_ns_new,cs_pos_ns_new,stim,position,position1,stim1,position2,stim2,position3,stim3,position4,stim4,blocks.thisRepN,blocks.thisTrialN,blocks.thisN,blocks.thisIndex,ratingtrials1.thisRepN,ratingtrials1.thisTrialN,ratingtrials1.thisN,ratingtrials1.thisIndex,search_task_trials.thisRepN,search_task_trials.thisTrialN,search_task_trials.thisN,search_task_trials.thisIndex,learning_trials.thisRepN,learning_trials.thisTrialN,learning_trials.thisN,learning_trials.thisIndex,trials.thisRepN,trials.thisTrialN,trials.thisN,trials.thisIndex,ratingtrials2.thisRepN,ratingtrials2.thisTrialN,ratingtrials2.thisN,ratingtrials2.thisIndex,testtrials.thisRepN,testtrials.thisTrialN,testtrials.thisN,testtrials.thisIndex,loop_test.thisRepN,loop_test.thisTrialN,loop_test.thisN,loop_test.thisIndex,testtrials_novelty.thisRepN,testtrials_novelty.thisTrialN,testtrials_novelty.thisN,testtrials_novelty.thisIndex,loop_test_novelty.thisRepN,loop_test_novelty.thisTrialN,loop_test_novelty.thisN,loop_test_novelty.thisIndex,ratingtrials3.thisRepN,ratingtrials3.thisTrialN,ratingtrials3.thisN,ratingtrials3.thisIndex,textStart.started,textStartExp.started,imageRating.started,sliderStim.response,sliderStim.rt,textStartSearch.started,target_positions,distractor_positions,textStartTask.started,image.started,score,outcome,roi.numLooks,roi.timesOn,roi.timesOff,imageFeedback.started,textTestInstr.started,test_image1.started,test_image2.started,test_image3.started,test_image4.started,test_roi1.numLooks,test_roi1.timesOn,test_roi1.timesOff,test_roi2.numLooks,test_roi2.timesOn,test_roi2.timesOff,test_roi3.numLooks,test_roi3.timesOn,test_roi3.timesOff,test_roi4.numLooks,test_roi4.timesOn,test_roi4.timesOff,test_image_feedback1.started,test_image_feedback2.started,test_iamge_feedback3.started,test_iamge_feedback4.started,participant,group,date,expName,psychopyVersion,frameRate,
positions.xlsx,positions_test.xlsx,positions_test_new.xlsx,stimuli.xlsx,stimuli_new.xlsx,stimuli/Social1.png,stimuli/Social2.png,stimuli/Nonsocial1.png,stimuli/Nonsocial2.png,stimuli/Social3.png,stimuli/Social4.png,stimuli/Nonsocial3.png,stimuli/Nonsocial4.png,cs_neg_s,,,,,,,,,,0,0,0,0,0,0,0,0,,,,,,,,,,,,,,,,,,,,,,,,,,,,,,,,,,,,,12.071483199999989,190.4504879000001,207.7498577,7.0,95.50001229999998,,,,,,,,,,,,,,,,,,,,,,,,,,,,,,,,,17,A,2024-04-24_16h37.45.263,attentional_competition_task,2022.2.4,144.10530062531902,
positions.xlsx,positions_test.xlsx,positions_test_new.xlsx,stimuli.xlsx,stimuli_new.xlsx,stimuli/Social1.png,stimuli/Social2.png,stimuli/Nonsocial1.png,stimuli/Nonsocial2.png,stimuli/Social3.png,stimuli/Social4.png,stimuli/Nonsocial3.png,stimuli/Nonsocial4.png,cs_pos_s,,,,,,,,,,0,0,0,0,0,1,1,2,,,,,,,,,,,,,,,,,,,,,,,,,,,,,,,,,,,,,,,306.1626767,6.0,3.9110812000000124,,,,,,,,,,,,,,,,,,,,,,,,,,,,,,,,,17,A,2024-04-24_16h37.45.263,attentional_competition_task,2022.2.4,144.10530062531902,
positions.xlsx,positions_test.xlsx,positions_test_new.xlsx,stimuli.xlsx,stimuli_new.xlsx,stimuli/Social1.png,stimuli/Social2.png,stimuli/Nonsocial1.png,stimuli/Nonsocial2.png,stimuli/Social3.png,stimuli/Social4.png,stimuli/Nonsocial3.png,stimuli/Nonsocial4.png,cs_pos_ns,,,,,,,,,,0,0,0,0,0,2,2,3,,,,,,,,,,,,,,,,,,,,,,,,,,,,,,,,,,,,,,,310.25970170000005,8.0,2.0486114999999927,,,,,,,,,,,,,,,,,,,,,,,,,,,,,,,,,17,A,2024-04-24_16h37.45.263,attentional_competition_task,2022.2.4,144.10530062531902,
positions.xlsx,positions_test.xlsx,positions_test_new.xlsx,stimuli.xlsx,stimuli_new.xlsx,stimuli/Social1.png,stimuli/Social2.png,stimuli/Nonsocial1.png,stimuli/Nonsocial2.png,stimuli/Social3.png,stimuli/Social4.png,stimuli/Nonsocial3.png,stimuli/Nonsocial4.png,cs_neg_ns,,,,,,,,,,0,0,0,0,0,3,3,1,,,,,,,,,,,,,,,,,,,,,,,,,,,,,,,,,,,,,,,312.5166025000001,9.0,2.178133700000103,,,,,,,,,,,,,,,,,,,,,,,,,,,,,,,,,17,A,2024-04-24_16h37.45.263,attentional_competition_task,2022.2.4,144.10530062531902,
positions.xlsx,positions_test.xlsx,positions_test_new.xlsx,stimuli.xlsx,stimuli_new.xlsx,stimuli/Social1.png,stimuli/Social2.png,stimuli/Nonsocial1.png,stimuli/Nonsocial2.png,stimuli/Social3.png,stimuli/Social4.png,stimuli/Nonsocial3.png,stimuli/Nonsocial4.png,,,,,,,,,,,0,0,0,0,,,,,0,0,0,0,,,,,,,,,,,,,,,,,,,,,,,,,,,,,,,,,,,,,,314.83590960000004,"[[-0.675, -0.30000000000000004], [-0.9, -0.30000000000000004], [-0.9, 0.19999999999999996], [0.0, 0.19999999999999996], [0.0, 0.7], [-0.9, -0.8], [0.0, -0.8], [-0.22499999999999998, 0.7], [-0.22499999999999998, -0.8], [0.6749999999999999, 0.19999999999999996], [0.45000000000000007, -0.8], [-0.45, 0.7], [0.22499999999999998, -0.8], [0.45000000000000007, -0.30000000000000004], [-0.45, -0.30000000000000004]]","[[0.6749999999999999, 0.7], [-0.9, 0.7], [0.9, -0.8], [0.0, -0.30000000000000004], [0.22499999999999998, -0.30000000000000004], [-0.675, -0.8], [-0.22499999999999998, 0.19999999999999996], [-0.22499999999999998, -0.30000000000000004], [0.9, 0.19999999999999996], [0.45000000000000007, 0.19999999999999996], [0.22499999999999998, 0.7], [0.45000000000000007, 0.7], [-0.45, 0.19999999999999996], [-0.45, -0.8], [-0.675, 0.19999999999999996]]",,,,,,,,,,,,,,,,,,,,,,,,,,,,,,17,A,2024-04-24_16h37.45.263,attentional_competition_task,2022.2.4,144.10530062531902,
positions.xlsx,positions_test.xlsx,positions_test_new.xlsx,stimuli.xlsx,stimuli_new.xlsx,stimuli/Social1.png,stimuli/Social2.png,stimuli/Nonsocial1.png,stimuli/Nonsocial2.png,stimuli/Social3.png,stimuli/Social4.png,stimuli/Nonsocial3.png,stimuli/Nonsocial4.png,,,,,,,,,,,0,0,0,0,,,,,1,0,1,0,,,,,,,,,,,,,,,,,,,,,,,,,,,,,,,,,,,,,,,"[[0.45000000000000007, 0.7], [0.9, 0.19999999999999996], [0.9, -0.30000000000000004], [0.45000000000000007, 0.19999999999999996], [0.9, -0.8], [-0.22499999999999998, -0.8], [-0.9, -0.30000000000000004], [0.22499999999999998, -0.8], [0.9, 0.7], [0.0, -0.8], [-0.22499999999999998, 0.7], [0.6749999999999999, -0.30000000000000004], [0.45000000000000007, -0.30000000000000004], [-0.45, 0.7], [0.22499999999999998, 0.7]]","[[0.22499999999999998, 0.19999999999999996], [0.0, -0.30000000000000004], [0.22499999999999998, -0.30000000000000004], [-0.45, 0.19999999999999996], [-0.675, -0.8], [-0.22499999999999998, -0.30000000000000004], [0.45000000000000007, -0.8], [0.0, 0.7], [-0.45, -0.8], [0.6749999999999999, -0.8], [-0.45, -0.30000000000000004], [-0.22499999999999998, 0.19999999999999996], [0.0, 0.19999999999999996], [-0.9, 0.7], [0.6749999999999999, 0.7]]",,,,,,,,,,,,,,,,,,,,,,,,,,,,,,17,A,2024-04-24_16h37.45.263,attentional_competition_task,2022.2.4,144.10530062531902,
positions.xlsx,positions_test.xlsx,positions_test_new.xlsx,stimuli.xlsx,stimuli_new.xlsx,stimuli/Social1.png,stimuli/Social2.png,stimuli/Nonsocial1.png,stimuli/Nonsocial2.png,stimuli/Social3.png,stimuli/Social4.png,stimuli/Nonsocial3.png,stimuli/Nonsocial4.png,cs_neg_s,"(-0.7, 0.5)",,,,,,,,,0,0,0,0,,,,,,,,,0,0,0,0,,,,,,,,,,,,,,,,,,,,,,,,,,,,,,,,,,,,,394.86053620000007,420.0886676,-3,loss,1,0.2498939000001883,0.24989750000008826,420.3526101,,,,,,,,,,,,,,,,,,,,,,17,A,2024-04-24_16h37.45.263,attentional_competition_task,2022.2.4,144.10530062531902,
positions.xlsx,positions_test.xlsx,positions_test_new.xlsx,stimuli.xlsx,stimuli_new.xlsx,stimuli/Social1.png,stimuli/Social2.png,stimuli/Nonsocial1.png,stimuli/Nonsocial2.png,stimuli/Social3.png,stimuli/Social4.png,stimuli/Nonsocial3.png,stimuli/Nonsocial4.png,cs_neg_ns,"(-0.7, 0.5)",,,,,,,,,0,0,0,0,,,,,,,,,0,1,1,8,,,,,,,,,,,,,,,,,,,,,,,,,,,,,,,,,,,,,,427.10923160000016,-6,loss,1,0.20860420000008162,0.20860820000007152,427.32453080000005,,,,,,,,,,,,,,,,,,,,,,17,A,2024-04-24_16h37.45.263,attentional_competition_task,2022.2.4,144.10530062531902,
positions.xlsx,positions_test.xlsx,positions_test_new.xlsx,stimuli.xlsx,stimuli_new.xlsx,stimuli/Social1.png,stimuli/Social2.png,stimuli/Nonsocial1.png,stimuli/Nonsocial2.png,stimuli/Social3.png,stimuli/Social4.png,stimuli/Nonsocial3.png,stimuli/Nonsocial4.png,cs_neg_s,"(0.7, -0.5)",,,,,,,,,0,0,0,0,,,,,,,,,0,2,2,3,,,,,,,,,,,,,,,,,,,,,,,,,,,,,,,,,,,,,,434.99781269999994,-9,loss,1,2.7986825999998928,2.79868620000002,437.80325519999997,,,,,,,,,,,,,,,,,,,,,,17,A,2024-04-24_16h37.45.263,attentional_competition_task,2022.2.4,144.10530062531902,
positions.xlsx,positions_test.xlsx,positions_test_new.xlsx,stimuli.xlsx,stimuli_new.xlsx,stimuli/Social1.png,stimuli/Social2.png,stimuli/Nonsocial1.png,stimuli/Nonsocial2.png,stimuli/Social3.png,stimuli/Social4.png,stimuli/Nonsocial3.png,stimuli/Nonsocial4.png,cs_pos_ns,"(-0.7, -0.5)",,,,,,,,,0,0,0,0,,,,,,,,,0,3,3,13,,,,,,,,,,,,,,,,,,,,,,,,,,,,,,,,,,,,,,444.94887070000004,-6,reward,1,0.514294800000016,0.5142986999999266,445.48349110000004,,,,,,,,,,,,,,,,,,,,,,17,A,2024-04-24_16h37.45.263,attentional_competition_task,2022.2.4,144.10530062531902,
positions.xlsx,positions_test.xlsx,positions_test_new.xlsx,stimuli.xlsx,stimuli_new.xlsx,stimuli/Social1.png,stimuli/Social2.png,stimuli/Nonsocial1.png,stimuli/Nonsocial2.png,stimuli/Social3.png,stimuli/Social4.png,stimuli/Nonsocial3.png,stimuli/Nonsocial4.png,cs_pos_s,"(-0.7, 0.5)",,,,,,,,,0,0,0,0,,,,,,,,,0,4,4,4,,,,,,,,,,,,,,,,,,,,,,,,,,,,,,,,,,,,,,452.5665478000001,-3,reward,1,0.687805199999957,0.6878088999999363,453.2610049,,,,,,,,,,,,,,,,,,,,,,17,A,2024-04-24_16h37.45.263,attentional_competition_task,2022.2.4,144.10530062531902,
positions.xlsx,positions_test.xlsx,positions_test_new.xlsx,stimuli.xlsx,stimuli_new.xlsx,stimuli/Social1.png,stimuli/Social2.png,stimuli/Nonsocial1.png,stimuli/Nonsocial2.png,stimuli/Social3.png,stimuli/Social4.png,stimuli/Nonsocial3.png,stimuli/Nonsocial4.png,cs_pos_s,"(0.7, -0.5)",,,,,,,,,0,0,0,0,,,,,,,,,0,5,5,7,,,,,,,,,,,,,,,,,,,,,,,,,,,,,,,,,,,,,,460.93429420000007,0,reward,1,0.361419000000069,0.3614230000000589,461.30234960000007,,,,,,,,,,,,,,,,,,,,,,17,A,2024-04-24_16h37.45.263,attentional_competition_task,2022.2.4,144.10530062531902,
positions.xlsx,positions_test.xlsx,positions_test_new.xlsx,stimuli.xlsx,stimuli_new.xlsx,stimuli/Social1.png,stimuli/Social2.png,stimuli/Nonsocial1.png,stimuli/Nonsocial2.png,stimuli/Social3.png,stimuli/Social4.png,stimuli/Nonsocial3.png,stimuli/Nonsocial4.png,cs_neg_s,"(-0.7, -0.5)",,,,,,,,,0,0,0,0,,,,,,,,,0,6,6,1,,,,,,,,,,,,,,,,,,,,,,,,,,,,,,,,,,,,,,468.64927690000013,-3,loss,1,1.4238820999999007,1.4307632000000012,470.08669039999995,,,,,,,,,,,,,,,,,,,,,,17,A,2024-04-24_16h37.45.263,attentional_competition_task,2022.2.4,144.10530062531902,
positions.xlsx,positions_test.xlsx,positions_test_new.xlsx,stimuli.xlsx,stimuli_new.xlsx,stimuli/Social1.png,stimuli/Social2.png,stimuli/Nonsocial1.png,stimuli/Nonsocial2.png,stimuli/Social3.png,stimuli/Social4.png,stimuli/Nonsocial3.png,stimuli/Nonsocial4.png,cs_pos_ns,"(0.7, -0.5)",,,,,,,,,0,0,0,0,,,,,,,,,0,7,7,15,,,,,,,,,,,,,,,,,,,,,,,,,,,,,,,,,,,,,,477.5725069,0,reward,1,0.5625720000000456,0.5625754999998662,478.1419582000001,,,,,,,,,,,,,,,,,,,,,,17,A,2024-04-24_16h37.45.263,attentional_competition_task,2022.2.4,144.10530062531902,
positions.xlsx,positions_test.xlsx,positions_test_new.xlsx,stimuli.xlsx,stimuli_new.xlsx,stimuli/Social1.png,stimuli/Social2.png,stimuli/Nonsocial1.png,stimuli/Nonsocial2.png,stimuli/Social3.png,stimuli/Social4.png,stimuli/Nonsocial3.png,stimuli/Nonsocial4.png,cs_neg_ns,"(-0.7, -0.5)",,,,,,,,,0,0,0,0,,,,,,,,,0,8,8,9,,,,,,,,,,,,,,,,,,,,,,,,,,,,,,,,,,,,,,486.43331979999994,0,none,0,,,489.46794150000005,,,,,,,,,,,,,,,,,,,,,,17,A,2024-04-24_16h37.45.263,attentional_competition_task,2022.2.4,144.10530062531902,
positions.xlsx,positions_test.xlsx,positions_test_new.xlsx,stimuli.xlsx,stimuli_new.xlsx,stimuli/Social1.png,stimuli/Social2.png,stimuli/Nonsocial1.png,stimuli/Nonsocial2.png,stimuli/Social3.png,stimuli/Social4.png,stimuli/Nonsocial3.png,stimuli/Nonsocial4.png,cs_pos_ns,"(0.7, 0.5)",,,,,,,,,0,0,0,0,,,,,,,,,0,9,9,14,,,,,,,,,,,,,,,,,,,,,,,,,,,,,,,,,,,,,,496.9398195000001,3,reward,1,0.5349717999999939,0.5349756999999045,497.48145109999996,,,,,,,,,,,,,,,,,,,,,,17,A,2024-04-24_16h37.45.263,attentional_competition_task,2022.2.4,144.10530062531902,
positions.xlsx,positions_test.xlsx,positions_test_new.xlsx,stimuli.xlsx,stimuli_new.xlsx,stimuli/Social1.png,stimuli/Social2.png,stimuli/Nonsocial1.png,stimuli/Nonsocial2.png,stimuli/Social3.png,stimuli/Social4.png,stimuli/Nonsocial3.png,stimuli/Nonsocial4.png,cs_pos_ns,"(-0.7, 0.5)",,,,,,,,,0,0,0,0,,,,,,,,,0,10,10,12,,,,,,,,,,,,,,,,,,,,,,,,,,,,,,,,,,,,,,505.3561698000001,6,reward,1,0.5350261999999475,0.5350301999999374,505.89781730000004,,,,,,,,,,,,,,,,,,,,,,17,A,2024-04-24_16h37.45.263,attentional_competition_task,2022.2.4,144.10530062531902,
positions.xlsx,positions_test.xlsx,positions_test_new.xlsx,stimuli.xlsx,stimuli_new.xlsx,stimuli/Social1.png,stimuli/Social2.png,stimuli/Nonsocial1.png,stimuli/Nonsocial2.png,stimuli/Social3.png,stimuli/Social4.png,stimuli/Nonsocial3.png,stimuli/Nonsocial4.png,cs_neg_s,"(0.7, 0.5)",,,,,,,,,0,0,0,0,,,,,,,,,0,11,11,2,,,,,,,,,,,,,,,,,,,,,,,,,,,,,,,,,,,,,,513.6613488,3,loss,1,0.5980030999999144,0.5980071999999836,514.26557,,,,,,,,,,,,,,,,,,,,,,17,A,2024-04-24_16h37.45.263,attentional_competition_task,2022.2.4,144.10530062531902,
positions.xlsx,positions_test.xlsx,positions_test_new.xlsx,stimuli.xlsx,stimuli_new.xlsx,stimuli/Social1.png,stimuli/Social2.png,stimuli/Nonsocial1.png,stimuli/Nonsocial2.png,stimuli/Social3.png,stimuli/Social4.png,stimuli/Nonsocial3.png,stimuli/Nonsocial4.png,cs_pos_s,"(-0.7, -0.5)",,,,,,,,,0,0,0,0,,,,,,,,,0,12,12,5,,,,,,,,,,,,,,,,,,,,,,,,,,,,,,,,,,,,,,521.7930263000001,6,reward,1,0.5695232000000487,0.5695272000000386,522.3693740000001,,,,,,,,,,,,,,,,,,,,,,17,A,2024-04-24_16h37.45.263,attentional_competition_task,2022.2.4,144.10530062531902,
positions.xlsx,positions_test.xlsx,positions_test_new.xlsx,stimuli.xlsx,stimuli_new.xlsx,stimuli/Social1.png,stimuli/Social2.png,stimuli/Nonsocial1.png,stimuli/Nonsocial2.png,stimuli/Social3.png,stimuli/Social4.png,stimuli/Nonsocial3.png,stimuli/Nonsocial4.png,cs_neg_ns,"(0.7, -0.5)",,,,,,,,,0,0,0,0,,,,,,,,,0,13,13,11,,,,,,,,,,,,,,,,,,,,,,,,,,,,,,,,,,,,,,529.9732370000002,3,loss,1,1.6876800999998522,1.6876967999999124,531.6675979000001,,,,,,,,,,,,,,,,,,,,,,17,A,2024-04-24_16h37.45.263,attentional_competition_task,2022.2.4,144.10530062531902,
positions.xlsx,positions_test.xlsx,positions_test_new.xlsx,stimuli.xlsx,stimuli_new.xlsx,stimuli/Social1.png,stimuli/Social2.png,stimuli/Nonsocial1.png,stimuli/Nonsocial2.png,stimuli/Social3.png,stimuli/Social4.png,stimuli/Nonsocial3.png,stimuli/Nonsocial4.png,cs_neg_ns,"(0.7, 0.5)",,,,,,,,,0,0,0,0,,,,,,,,,0,14,14,10,,,,,,,,,,,,,,,,,,,,,,,,,,,,,,,,,,,,,,539.4173214,3,none,0,,,542.4310965,,,,,,,,,,,,,,,,,,,,,,17,A,2024-04-24_16h37.45.263,attentional_competition_task,2022.2.4,144.10530062531902,
positions.xlsx,positions_test.xlsx,positions_test_new.xlsx,stimuli.xlsx,stimuli_new.xlsx,stimuli/Social1.png,stimuli/Social2.png,stimuli/Nonsocial1.png,stimuli/Nonsocial2.png,stimuli/Social3.png,stimuli/Social4.png,stimuli/Nonsocial3.png,stimuli/Nonsocial4.png,cs_pos_s,"(0.7, 0.5)",,,,,,,,,0,0,0,0,,,,,,,,,0,15,15,6,,,,,,,,,,,,,,,,,,,,,,,,,,,,,,,,,,,,,,550.3266383,3,none,0,,,553.3334402,,,,,,,,,,,,,,,,,,,,,,17,A,2024-04-24_16h37.45.263,attentional_competition_task,2022.2.4,144.10530062531902,
positions.xlsx,positions_test.xlsx,positions_test_new.xlsx,stimuli.xlsx,stimuli_new.xlsx,stimuli/Social1.png,stimuli/Social2.png,stimuli/Nonsocial1.png,stimuli/Nonsocial2.png,stimuli/Social3.png,stimuli/Social4.png,stimuli/Nonsocial3.png,stimuli/Nonsocial4.png,cs_neg_ns,"(0.7, -0.5)",,,,,,,,,0,0,0,0,,,,,,,,,1,0,16,11,,,,,,,,,,,,,,,,,,,,,,,,,,,,,,,,,,,,,,561.0136704000001,3,none,0,,,564.0205289,,,,,,,,,,,,,,,,,,,,,,17,A,2024-04-24_16h37.45.263,attentional_competition_task,2022.2.4,144.10530062531902,
positions.xlsx,positions_test.xlsx,positions_test_new.xlsx,stimuli.xlsx,stimuli_new.xlsx,stimuli/Social1.png,stimuli/Social2.png,stimuli/Nonsocial1.png,stimuli/Nonsocial2.png,stimuli/Social3.png,stimuli/Social4.png,stimuli/Nonsocial3.png,stimuli/Nonsocial4.png,cs_pos_s,"(-0.7, 0.5)",,,,,,,,,0,0,0,0,,,,,,,,,1,1,17,4,,,,,,,,,,,,,,,,,,,,,,,,,,,,,,,,,,,,,,571.0827404000001,6,reward,1,0.5833685999998579,0.5833720999999059,571.6729709000001,,,,,,,,,,,,,,,,,,,,,,17,A,2024-04-24_16h37.45.263,attentional_competition_task,2022.2.4,144.10530062531902,
positions.xlsx,positions_test.xlsx,positions_test_new.xlsx,stimuli.xlsx,stimuli_new.xlsx,stimuli/Social1.png,stimuli/Social2.png,stimuli/Nonsocial1.png,stimuli/Nonsocial2.png,stimuli/Social3.png,stimuli/Social4.png,stimuli/Nonsocial3.png,stimuli/Nonsocial4.png,cs_neg_ns,"(0.7, 0.5)",,,,,,,,,0,0,0,0,,,,,,,,,1,2,18,10,,,,,,,,,,,,,,,,,,,,,,,,,,,,,,,,,,,,,,579.5962934000001,6,none,0,,,582.6100746,,,,,,,,,,,,,,,,,,,,,,17,A,2024-04-24_16h37.45.263,attentional_competition_task,2022.2.4,144.10530062531902,
positions.xlsx,positions_test.xlsx,positions_test_new.xlsx,stimuli.xlsx,stimuli_new.xlsx,stimuli/Social1.png,stimuli/Social2.png,stimuli/Nonsocial1.png,stimuli/Nonsocial2.png,stimuli/Social3.png,stimuli/Social4.png,stimuli/Nonsocial3.png,stimuli/Nonsocial4.png,cs_neg_ns,"(-0.7, -0.5)",,,,,,,,,0,0,0,0,,,,,,,,,1,3,19,9,,,,,,,,,,,,,,,,,,,,,,,,,,,,,,,,,,,,,,590.359768,6,none,0,,,593.3665583,,,,,,,,,,,,,,,,,,,,,,17,A,2024-04-24_16h37.45.263,attentional_competition_task,2022.2.4,144.10530062531902,
positions.xlsx,positions_test.xlsx,positions_test_new.xlsx,stimuli.xlsx,stimuli_new.xlsx,stimuli/Social1.png,stimuli/Social2.png,stimuli/Nonsocial1.png,stimuli/Nonsocial2.png,stimuli/Social3.png,stimuli/Social4.png,stimuli/Nonsocial3.png,stimuli/Nonsocial4.png,cs_neg_s,"(0.7, 0.5)",,,,,,,,,0,0,0,0,,,,,,,,,1,4,20,2,,,,,,,,,,,,,,,,,,,,,,,,,,,,,,,,,,,,,,601.1926695,6,none,0,,,604.1994955,,,,,,,,,,,,,,,,,,,,,,17,A,2024-04-24_16h37.45.263,attentional_competition_task,2022.2.4,144.10530062531902,
positions.xlsx,positions_test.xlsx,positions_test_new.xlsx,stimuli.xlsx,stimuli_new.xlsx,stimuli/Social1.png,stimuli/Social2.png,stimuli/Nonsocial1.png,stimuli/Nonsocial2.png,stimuli/Social3.png,stimuli/Social4.png,stimuli/Nonsocial3.png,stimuli/Nonsocial4.png,cs_neg_s,"(-0.7, 0.5)",,,,,,,,,0,0,0,0,,,,,,,,,1,5,21,0,,,,,,,,,,,,,,,,,,,,,,,,,,,,,,,,,,,,,,611.7200384,6,none,0,,,614.7268996,,,,,,,,,,,,,,,,,,,,,,17,A,2024-04-24_16h37.45.263,attentional_competition_task,2022.2.4,144.10530062531902,
positions.xlsx,positions_test.xlsx,positions_test_new.xlsx,stimuli.xlsx,stimuli_new.xlsx,stimuli/Social1.png,stimuli/Social2.png,stimuli/Nonsocial1.png,stimuli/Nonsocial2.png,stimuli/Social3.png,stimuli/Social4.png,stimuli/Nonsocial3.png,stimuli/Nonsocial4.png,cs_pos_s,"(0.7, 0.5)",,,,,,,,,0,0,0,0,,,,,,,,,1,6,22,6,,,,,,,,,,,,,,,,,,,,,,,,,,,,,,,,,,,,,,622.7404040000001,9,reward,1,0.6530216999999539,0.6530256999999438,623.4001552,,,,,,,,,,,,,,,,,,,,,,17,A,2024-04-24_16h37.45.263,attentional_competition_task,2022.2.4,144.10530062531902,
positions.xlsx,positions_test.xlsx,positions_test_new.xlsx,stimuli.xlsx,stimuli_new.xlsx,stimuli/Social1.png,stimuli/Social2.png,stimuli/Nonsocial1.png,stimuli/Nonsocial2.png,stimuli/Social3.png,stimuli/Social4.png,stimuli/Nonsocial3.png,stimuli/Nonsocial4.png,cs_pos_s,"(0.7, -0.5)",,,,,,,,,0,0,0,0,,,,,,,,,1,7,23,7,,,,,,,,,,,,,,,,,,,,,,,,,,,,,,,,,,,,,,631.0804003000001,12,reward,1,0.7213508999998339,0.7213547999999719,631.8094860000001,,,,,,,,,,,,,,,,,,,,,,17,A,2024-04-24_16h37.45.263,attentional_competition_task,2022.2.4,144.10530062531902,
positions.xlsx,positions_test.xlsx,positions_test_new.xlsx,stimuli.xlsx,stimuli_new.xlsx,stimuli/Social1.png,stimuli/Social2.png,stimuli/Nonsocial1.png,stimuli/Nonsocial2.png,stimuli/Social3.png,stimuli/Social4.png,stimuli/Nonsocial3.png,stimuli/Nonsocial4.png,cs_pos_ns,"(0.7, 0.5)",,,,,,,,,0,0,0,0,,,,,,,,,1,8,24,14,,,,,,,,,,,,,,,,,,,,,,,,,,,,,,,,,,,,,,639.1633776000001,15,reward,1,0.5002445999998599,0.5002483999999185,639.670337,,,,,,,,,,,,,,,,,,,,,,17,A,2024-04-24_16h37.45.263,attentional_competition_task,2022.2.4,144.10530062531902,
positions.xlsx,positions_test.xlsx,positions_test_new.xlsx,stimuli.xlsx,stimuli_new.xlsx,stimuli/Social1.png,stimuli/Social2.png,stimuli/Nonsocial1.png,stimuli/Nonsocial2.png,stimuli/Social3.png,stimuli/Social4.png,stimuli/Nonsocial3.png,stimuli/Nonsocial4.png,cs_pos_s,"(-0.7, -0.5)",,,,,,,,,0,0,0,0,,,,,,,,,1,9,25,5,,,,,,,,,,,,,,,,,,,,,,,,,,,,,,,,,,,,,,647.0311357,18,reward,1,0.7435009000000719,0.7435047000001305,647.7811102000001,,,,,,,,,,,,,,,,,,,,,,17,A,2024-04-24_16h37.45.263,attentional_competition_task,2022.2.4,144.10530062531902,
positions.xlsx,positions_test.xlsx,positions_test_new.xlsx,stimuli.xlsx,stimuli_new.xlsx,stimuli/Social1.png,stimuli/Social2.png,stimuli/Nonsocial1.png,stimuli/Nonsocial2.png,stimuli/Social3.png,stimuli/Social4.png,stimuli/Nonsocial3.png,stimuli/Nonsocial4.png,cs_neg_ns,"(-0.7, 0.5)",,,,,,,,,0,0,0,0,,,,,,,,,1,10,26,8,,,,,,,,,,,,,,,,,,,,,,,,,,,,,,,,,,,,,,654.7600007000001,18,none,0,,,657.7737494,,,,,,,,,,,,,,,,,,,,,,17,A,2024-04-24_16h37.45.263,attentional_competition_task,2022.2.4,144.10530062531902,
positions.xlsx,positions_test.xlsx,positions_test_new.xlsx,stimuli.xlsx,stimuli_new.xlsx,stimuli/Social1.png,stimuli/Social2.png,stimuli/Nonsocial1.png,stimuli/Nonsocial2.png,stimuli/Social3.png,stimuli/Social4.png,stimuli/Nonsocial3.png,stimuli/Nonsocial4.png,cs_pos_ns,"(-0.7, 0.5)",,,,,,,,,0,0,0,0,,,,,,,,,1,11,27,12,,,,,,,,,,,,,,,,,,,,,,,,,,,,,,,,,,,,,,665.2804209999999,21,reward,1,0.6180699999999888,0.6180733999999575,665.9054102,,,,,,,,,,,,,,,,,,,,,,17,A,2024-04-24_16h37.45.263,attentional_competition_task,2022.2.4,144.10530062531902,
positions.xlsx,positions_test.xlsx,positions_test_new.xlsx,stimuli.xlsx,stimuli_new.xlsx,stimuli/Social1.png,stimuli/Social2.png,stimuli/Nonsocial1.png,stimuli/Nonsocial2.png,stimuli/Social3.png,stimuli/Social4.png,stimuli/Nonsocial3.png,stimuli/Nonsocial4.png,cs_pos_ns,"(-0.7, -0.5)",,,,,,,,,0,0,0,0,,,,,,,,,1,12,28,13,,,,,,,,,,,,,,,,,,,,,,,,,,,,,,,,,,,,,,673.3287015999999,24,reward,1,0.5143725999998878,0.5143763999999464,673.8495148,,,,,,,,,,,,,,,,,,,,,,17,A,2024-04-24_16h37.45.263,attentional_competition_task,2022.2.4,144.10530062531902,
positions.xlsx,positions_test.xlsx,positions_test_new.xlsx,stimuli.xlsx,stimuli_new.xlsx,stimuli/Social1.png,stimuli/Social2.png,stimuli/Nonsocial1.png,stimuli/Nonsocial2.png,stimuli/Social3.png,stimuli/Social4.png,stimuli/Nonsocial3.png,stimuli/Nonsocial4.png,cs_neg_s,"(-0.7, -0.5)",,,,,,,,,0,0,0,0,,,,,,,,,1,13,29,1,,,,,,,,,,,,,,,,,,,,,,,,,,,,,,,,,,,,,,681.4533813,21,loss,1,0.4858024000000114,0.48580599999991136,681.9394978,,,,,,,,,,,,,,,,,,,,,,17,A,2024-04-24_16h37.45.263,attentional_competition_task,2022.2.4,144.10530062531902,
positions.xlsx,positions_test.xlsx,positions_test_new.xlsx,stimuli.xlsx,stimuli_new.xlsx,stimuli/Social1.png,stimuli/Social2.png,stimuli/Nonsocial1.png,stimuli/Nonsocial2.png,stimuli/Social3.png,stimuli/Social4.png,stimuli/Nonsocial3.png,stimuli/Nonsocial4.png,cs_pos_ns,"(0.7, -0.5)",,,,,,,,,0,0,0,0,,,,,,,,,1,14,30,15,,,,,,,,,,,,,,,,,,,,,,,,,,,,,,,,,,,,,,689.1614434,24,reward,1,0.48618150000015703,0.4861852000001363,689.6545281000001,,,,,,,,,,,,,,,,,,,,,,17,A,2024-04-24_16h37.45.263,attentional_competition_task,2022.2.4,144.10530062531902,
positions.xlsx,positions_test.xlsx,positions_test_new.xlsx,stimuli.xlsx,stimuli_new.xlsx,stimuli/Social1.png,stimuli/Social2.png,stimuli/Nonsocial1.png,stimuli/Nonsocial2.png,stimuli/Social3.png,stimuli/Social4.png,stimuli/Nonsocial3.png,stimuli/Nonsocial4.png,cs_neg_s,"(0.7, -0.5)",,,,,,,,,0,0,0,0,,,,,,,,,1,15,31,3,,,,,,,,,,,,,,,,,,,,,,,,,,,,,,,,,,,,,,698.1194236000001,24,none,0,,,701.133163,,,,,,,,,,,,,,,,,,,,,,17,A,2024-04-24_16h37.45.263,attentional_competition_task,2022.2.4,144.10530062531902,
positions.xlsx,positions_test.xlsx,positions_test_new.xlsx,stimuli.xlsx,stimuli_new.xlsx,stimuli/Social1.png,stimuli/Social2.png,stimuli/Nonsocial1.png,stimuli/Nonsocial2.png,stimuli/Social3.png,stimuli/Social4.png,stimuli/Nonsocial3.png,stimuli/Nonsocial4.png,cs_pos_ns,"(-0.7, 0.5)",,,,,,,,,0,0,0,0,,,,,,,,,,,,,0,0,0,12,,,,,,,,,,,,,,,,,,,,,,,,,,,,,,,,,,721.7435539,27,reward,1,0.555970200000047,0.555974100000185,722.3129262,,,,,,,,,,,,,,,,,,,,,,17,A,2024-04-24_16h37.45.263,attentional_competition_task,2022.2.4,144.10530062531902,
positions.xlsx,positions_test.xlsx,positions_test_new.xlsx,stimuli.xlsx,stimuli_new.xlsx,stimuli/Social1.png,stimuli/Social2.png,stimuli/Nonsocial1.png,stimuli/Nonsocial2.png,stimuli/Social3.png,stimuli/Social4.png,stimuli/Nonsocial3.png,stimuli/Nonsocial4.png,cs_neg_ns,"(-0.7, -0.5)",,,,,,,,,0,0,0,0,,,,,,,,,,,,,0,1,1,9,,,,,,,,,,,,,,,,,,,,,,,,,,,,,,,,,,730.0903781,24,loss,1,1.5906228999999712,1.5972708000001603,731.6945008,,,,,,,,,,,,,,,,,,,,,,17,A,2024-04-24_16h37.45.263,attentional_competition_task,2022.2.4,144.10530062531902,
positions.xlsx,positions_test.xlsx,positions_test_new.xlsx,stimuli.xlsx,stimuli_new.xlsx,stimuli/Social1.png,stimuli/Social2.png,stimuli/Nonsocial1.png,stimuli/Nonsocial2.png,stimuli/Social3.png,stimuli/Social4.png,stimuli/Nonsocial3.png,stimuli/Nonsocial4.png,cs_neg_s,"(0.7, 0.5)",,,,,,,,,0,0,0,0,,,,,,,,,,,,,0,2,2,2,,,,,,,,,,,,,,,,,,,,,,,,,,,,,,,,,,739.9441772,24,none,0,,,742.9579791000001,,,,,,,,,,,,,,,,,,,,,,17,A,2024-04-24_16h37.45.263,attentional_competition_task,2022.2.4,144.10530062531902,
positions.xlsx,positions_test.xlsx,positions_test_new.xlsx,stimuli.xlsx,stimuli_new.xlsx,stimuli/Social1.png,stimuli/Social2.png,stimuli/Nonsocial1.png,stimuli/Nonsocial2.png,stimuli/Social3.png,stimuli/Social4.png,stimuli/Nonsocial3.png,stimuli/Nonsocial4.png,cs_neg_s,"(0.7, -0.5)",,,,,,,,,0,0,0,0,,,,,,,,,,,,,0,3,3,3,,,,,,,,,,,,,,,,,,,,,,,,,,,,,,,,,,750.5756888999999,21,loss,1,0.3406440000001112,0.34064740000007987,750.9228889999999,,,,,,,,,,,,,,,,,,,,,,17,A,2024-04-24_16h37.45.263,attentional_competition_task,2022.2.4,144.10530062531902,
positions.xlsx,positions_test.xlsx,positions_test_new.xlsx,stimuli.xlsx,stimuli_new.xlsx,stimuli/Social1.png,stimuli/Social2.png,stimuli/Nonsocial1.png,stimuli/Nonsocial2.png,stimuli/Social3.png,stimuli/Social4.png,stimuli/Nonsocial3.png,stimuli/Nonsocial4.png,cs_pos_s,"(-0.7, -0.5)",,,,,,,,,0,0,0,0,,,,,,,,,,,,,0,4,4,5,,,,,,,,,,,,,,,,,,,,,,,,,,,,,,,,,,758.5545834,24,reward,1,0.6944812000001548,0.6944848000000547,759.255899,,,,,,,,,,,,,,,,,,,,,,17,A,2024-04-24_16h37.45.263,attentional_competition_task,2022.2.4,144.10530062531902,
positions.xlsx,positions_test.xlsx,positions_test_new.xlsx,stimuli.xlsx,stimuli_new.xlsx,stimuli/Social1.png,stimuli/Social2.png,stimuli/Nonsocial1.png,stimuli/Nonsocial2.png,stimuli/Social3.png,stimuli/Social4.png,stimuli/Nonsocial3.png,stimuli/Nonsocial4.png,cs_pos_ns,"(0.7, -0.5)",,,,,,,,,0,0,0,0,,,,,,,,,,,,,0,5,5,15,,,,,,,,,,,,,,,,,,,,,,,,,,,,,,,,,,766.7833959,27,reward,1,0.7503810999999132,0.7503850999999031,767.5403151,,,,,,,,,,,,,,,,,,,,,,17,A,2024-04-24_16h37.45.263,attentional_competition_task,2022.2.4,144.10530062531902,
positions.xlsx,positions_test.xlsx,positions_test_new.xlsx,stimuli.xlsx,stimuli_new.xlsx,stimuli/Social1.png,stimuli/Social2.png,stimuli/Nonsocial1.png,stimuli/Nonsocial2.png,stimuli/Social3.png,stimuli/Social4.png,stimuli/Nonsocial3.png,stimuli/Nonsocial4.png,cs_pos_ns,"(-0.7, -0.5)",,,,,,,,,0,0,0,0,,,,,,,,,,,,,0,6,6,13,,,,,,,,,,,,,,,,,,,,,,,,,,,,,,,,,,774.9566643,30,reward,1,0.6252916000000823,0.6252953999999136,775.5886264000001,,,,,,,,,,,,,,,,,,,,,,17,A,2024-04-24_16h37.45.263,attentional_competition_task,2022.2.4,144.10530062531902,
positions.xlsx,positions_test.xlsx,positions_test_new.xlsx,stimuli.xlsx,stimuli_new.xlsx,stimuli/Social1.png,stimuli/Social2.png,stimuli/Nonsocial1.png,stimuli/Nonsocial2.png,stimuli/Social3.png,stimuli/Social4.png,stimuli/Nonsocial3.png,stimuli/Nonsocial4.png,cs_pos_s,"(0.7, -0.5)",,,,,,,,,0,0,0,0,,,,,,,,,,,,,0,7,7,7,,,,,,,,,,,,,,,,,,,,,,,,,,,,,,,,,,783.2202594,33,reward,1,0.590391899999986,0.5903955999999653,783.8174265,,,,,,,,,,,,,,,,,,,,,,17,A,2024-04-24_16h37.45.263,attentional_competition_task,2022.2.4,144.10530062531902,
positions.xlsx,positions_test.xlsx,positions_test_new.xlsx,stimuli.xlsx,stimuli_new.xlsx,stimuli/Social1.png,stimuli/Social2.png,stimuli/Nonsocial1.png,stimuli/Nonsocial2.png,stimuli/Social3.png,stimuli/Social4.png,stimuli/Nonsocial3.png,stimuli/Nonsocial4.png,cs_pos_ns,"(0.7, 0.5)",,,,,,,,,0,0,0,0,,,,,,,,,,,,,0,8,8,14,,,,,,,,,,,,,,,,,,,,,,,,,,,,,,,,,,791.7060013,36,reward,1,0.43090860000006614,0.43091260000005605,792.1435097000001,,,,,,,,,,,,,,,,,,,,,,17,A,2024-04-24_16h37.45.263,attentional_competition_task,2022.2.4,144.10530062531902,
positions.xlsx,positions_test.xlsx,positions_test_new.xlsx,stimuli.xlsx,stimuli_new.xlsx,stimuli/Social1.png,stimuli/Social2.png,stimuli/Nonsocial1.png,stimuli/Nonsocial2.png,stimuli/Social3.png,stimuli/Social4.png,stimuli/Nonsocial3.png,stimuli/Nonsocial4.png,cs_neg_ns,"(0.7, -0.5)",,,,,,,,,0,0,0,0,,,,,,,,,,,,,0,9,9,11,,,,,,,,,,,,,,,,,,,,,,,,,,,,,,,,,,799.7404978,33,loss,1,0.5003752000000077,0.5003785999999764,800.2473921000001,,,,,,,,,,,,,,,,,,,,,,17,A,2024-04-24_16h37.45.263,attentional_competition_task,2022.2.4,144.10530062531902,
positions.xlsx,positions_test.xlsx,positions_test_new.xlsx,stimuli.xlsx,stimuli_new.xlsx,stimuli/Social1.png,stimuli/Social2.png,stimuli/Nonsocial1.png,stimuli/Nonsocial2.png,stimuli/Social3.png,stimuli/Social4.png,stimuli/Nonsocial3.png,stimuli/Nonsocial4.png,cs_pos_s,"(-0.7, 0.5)",,,,,,,,,0,0,0,0,,,,,,,,,,,,,0,10,10,4,,,,,,,,,,,,,,,,,,,,,,,,,,,,,,,,,,807.8581759000001,36,reward,1,1.0417377999999644,1.0417413000000124,808.90672,,,,,,,,,,,,,,,,,,,,,,17,A,2024-04-24_16h37.45.263,attentional_competition_task,2022.2.4,144.10530062531902,
positions.xlsx,positions_test.xlsx,positions_test_new.xlsx,stimuli.xlsx,stimuli_new.xlsx,stimuli/Social1.png,stimuli/Social2.png,stimuli/Nonsocial1.png,stimuli/Nonsocial2.png,stimuli/Social3.png,stimuli/Social4.png,stimuli/Nonsocial3.png,stimuli/Nonsocial4.png,cs_pos_s,"(0.7, 0.5)",,,,,,,,,0,0,0,0,,,,,,,,,,,,,0,11,11,6,,,,,,,,,,,,,,,,,,,,,,,,,,,,,,,,,,817.0383472000001,39,reward,1,0.8128558999999314,0.81285969999999,817.8578083,,,,,,,,,,,,,,,,,,,,,,17,A,2024-04-24_16h37.45.263,attentional_competition_task,2022.2.4,144.10530062531902,
positions.xlsx,positions_test.xlsx,positions_test_new.xlsx,stimuli.xlsx,stimuli_new.xlsx,stimuli/Social1.png,stimuli/Social2.png,stimuli/Nonsocial1.png,stimuli/Nonsocial2.png,stimuli/Social3.png,stimuli/Social4.png,stimuli/Nonsocial3.png,stimuli/Nonsocial4.png,cs_neg_s,"(-0.7, 0.5)",,,,,,,,,0,0,0,0,,,,,,,,,,,,,0,12,12,0,,,,,,,,,,,,,,,,,,,,,,,,,,,,,,,,,,825.4686009,36,loss,1,0.41044090000013966,0.41044480000005024,825.8852449999999,,,,,,,,,,,,,,,,,,,,,,17,A,2024-04-24_16h37.45.263,attentional_competition_task,2022.2.4,144.10530062531902,
positions.xlsx,positions_test.xlsx,positions_test_new.xlsx,stimuli.xlsx,stimuli_new.xlsx,stimuli/Social1.png,stimuli/Social2.png,stimuli/Nonsocial1.png,stimuli/Nonsocial2.png,stimuli/Social3.png,stimuli/Social4.png,stimuli/Nonsocial3.png,stimuli/Nonsocial4.png,cs_neg_s,"(-0.7, -0.5)",,,,,,,,,0,0,0,0,,,,,,,,,,,,,0,13,13,1,,,,,,,,,,,,,,,,,,,,,,,,,,,,,,,,,,832.7599699,36,none,0,,,835.7668294,,,,,,,,,,,,,,,,,,,,,,17,A,2024-04-24_16h37.45.263,attentional_competition_task,2022.2.4,144.10530062531902,
positions.xlsx,positions_test.xlsx,positions_test_new.xlsx,stimuli.xlsx,stimuli_new.xlsx,stimuli/Social1.png,stimuli/Social2.png,stimuli/Nonsocial1.png,stimuli/Nonsocial2.png,stimuli/Social3.png,stimuli/Social4.png,stimuli/Nonsocial3.png,stimuli/Nonsocial4.png,cs_neg_ns,"(-0.7, 0.5)",,,,,,,,,0,0,0,0,,,,,,,,,,,,,0,14,14,8,,,,,,,,,,,,,,,,,,,,,,,,,,,,,,,,,,842.8637446,36,none,0,,,845.8775338,,,,,,,,,,,,,,,,,,,,,,17,A,2024-04-24_16h37.45.263,attentional_competition_task,2022.2.4,144.10530062531902,
positions.xlsx,positions_test.xlsx,positions_test_new.xlsx,stimuli.xlsx,stimuli_new.xlsx,stimuli/Social1.png,stimuli/Social2.png,stimuli/Nonsocial1.png,stimuli/Nonsocial2.png,stimuli/Social3.png,stimuli/Social4.png,stimuli/Nonsocial3.png,stimuli/Nonsocial4.png,cs_neg_ns,"(0.7, 0.5)",,,,,,,,,0,0,0,0,,,,,,,,,,,,,0,15,15,10,,,,,,,,,,,,,,,,,,,,,,,,,,,,,,,,,,852.6689040000001,36,none,0,,,855.6826863000001,,,,,,,,,,,,,,,,,,,,,,17,A,2024-04-24_16h37.45.263,attentional_competition_task,2022.2.4,144.10530062531902,
positions.xlsx,positions_test.xlsx,positions_test_new.xlsx,stimuli.xlsx,stimuli_new.xlsx,stimuli/Social1.png,stimuli/Social2.png,stimuli/Nonsocial1.png,stimuli/Nonsocial2.png,stimuli/Social3.png,stimuli/Social4.png,stimuli/Nonsocial3.png,stimuli/Nonsocial4.png,cs_neg_ns,"(0.7, 0.5)",,,,,,,,,0,0,0,0,,,,,,,,,,,,,1,0,16,10,,,,,,,,,,,,,,,,,,,,,,,,,,,,,,,,,,862.6338236000001,36,none,0,,,865.6475800000001,,,,,,,,,,,,,,,,,,,,,,17,A,2024-04-24_16h37.45.263,attentional_competition_task,2022.2.4,144.10530062531902,
positions.xlsx,positions_test.xlsx,positions_test_new.xlsx,stimuli.xlsx,stimuli_new.xlsx,stimuli/Social1.png,stimuli/Social2.png,stimuli/Nonsocial1.png,stimuli/Nonsocial2.png,stimuli/Social3.png,stimuli/Social4.png,stimuli/Nonsocial3.png,stimuli/Nonsocial4.png,cs_neg_s,"(-0.7, -0.5)",,,,,,,,,0,0,0,0,,,,,,,,,,,,,1,1,17,1,,,,,,,,,,,,,,,,,,,,,,,,,,,,,,,,,,872.5014569,33,loss,1,1.702020100000027,1.7020241999998689,874.2097516000001,,,,,,,,,,,,,,,,,,,,,,17,A,2024-04-24_16h37.45.263,attentional_competition_task,2022.2.4,144.10530062531902,
positions.xlsx,positions_test.xlsx,positions_test_new.xlsx,stimuli.xlsx,stimuli_new.xlsx,stimuli/Social1.png,stimuli/Social2.png,stimuli/Nonsocial1.png,stimuli/Nonsocial2.png,stimuli/Social3.png,stimuli/Social4.png,stimuli/Nonsocial3.png,stimuli/Nonsocial4.png,cs_neg_ns,"(0.7, -0.5)",,,,,,,,,0,0,0,0,,,,,,,,,,,,,1,2,18,11,,,,,,,,,,,,,,,,,,,,,,,,,,,,,,,,,,881.6608376000001,33,none,0,,,884.6746238000001,,,,,,,,,,,,,,,,,,,,,,17,A,2024-04-24_16h37.45.263,attentional_competition_task,2022.2.4,144.10530062531902,
positions.xlsx,positions_test.xlsx,positions_test_new.xlsx,stimuli.xlsx,stimuli_new.xlsx,stimuli/Social1.png,stimuli/Social2.png,stimuli/Nonsocial1.png,stimuli/Nonsocial2.png,stimuli/Social3.png,stimuli/Social4.png,stimuli/Nonsocial3.png,stimuli/Nonsocial4.png,cs_neg_s,"(0.7, -0.5)",,,,,,,,,0,0,0,0,,,,,,,,,,,,,1,3,19,3,,,,,,,,,,,,,,,,,,,,,,,,,,,,,,,,,,892.8548498,30,loss,1,1.611663500000077,1.6116678000000775,894.4797992000001,,,,,,,,,,,,,,,,,,,,,,17,A,2024-04-24_16h37.45.263,attentional_competition_task,2022.2.4,144.10530062531902,
positions.xlsx,positions_test.xlsx,positions_test_new.xlsx,stimuli.xlsx,stimuli_new.xlsx,stimuli/Social1.png,stimuli/Social2.png,stimuli/Nonsocial1.png,stimuli/Nonsocial2.png,stimuli/Social3.png,stimuli/Social4.png,stimuli/Nonsocial3.png,stimuli/Nonsocial4.png,cs_pos_ns,"(0.7, -0.5)",,,,,,,,,0,0,0,0,,,,,,,,,,,,,1,4,20,15,,,,,,,,,,,,,,,,,,,,,,,,,,,,,,,,,,901.6045153,33,reward,1,0.854276900000059,0.8542807000001176,902.4656125000001,,,,,,,,,,,,,,,,,,,,,,17,A,2024-04-24_16h37.45.263,attentional_competition_task,2022.2.4,144.10530062531902,
positions.xlsx,positions_test.xlsx,positions_test_new.xlsx,stimuli.xlsx,stimuli_new.xlsx,stimuli/Social1.png,stimuli/Social2.png,stimuli/Nonsocial1.png,stimuli/Nonsocial2.png,stimuli/Social3.png,stimuli/Social4.png,stimuli/Nonsocial3.png,stimuli/Nonsocial4.png,cs_pos_s,"(0.7, -0.5)",,,,,,,,,0,0,0,0,,,,,,,,,,,,,1,5,21,7,,,,,,,,,,,,,,,,,,,,,,,,,,,,,,,,,,909.6736353000001,36,reward,1,0.8546203999999307,0.8546241999999893,910.5347251000001,,,,,,,,,,,,,,,,,,,,,,17,A,2024-04-24_16h37.45.263,attentional_competition_task,2022.2.4,144.10530062531902,
positions.xlsx,positions_test.xlsx,positions_test_new.xlsx,stimuli.xlsx,stimuli_new.xlsx,stimuli/Social1.png,stimuli/Social2.png,stimuli/Nonsocial1.png,stimuli/Nonsocial2.png,stimuli/Social3.png,stimuli/Social4.png,stimuli/Nonsocial3.png,stimuli/Nonsocial4.png,cs_pos_ns,"(-0.7, 0.5)",,,,,,,,,0,0,0,0,,,,,,,,,,,,,1,6,22,12,,,,,,,,,,,,,,,,,,,,,,,,,,,,,,,,,,918.5344071,39,reward,1,0.6461008999999649,0.6461046999997961,919.1871853,,,,,,,,,,,,,,,,,,,,,,17,A,2024-04-24_16h37.45.263,attentional_competition_task,2022.2.4,144.10530062531902,
positions.xlsx,positions_test.xlsx,positions_test_new.xlsx,stimuli.xlsx,stimuli_new.xlsx,stimuli/Social1.png,stimuli/Social2.png,stimuli/Nonsocial1.png,stimuli/Nonsocial2.png,stimuli/Social3.png,stimuli/Social4.png,stimuli/Nonsocial3.png,stimuli/Nonsocial4.png,cs_neg_s,"(0.7, 0.5)",,,,,,,,,0,0,0,0,,,,,,,,,,,,,1,7,23,2,,,,,,,,,,,,,,,,,,,,,,,,,,,,,,,,,,926.4507398000001,39,none,0,,,929.4576326000001,,,,,,,,,,,,,,,,,,,,,,17,A,2024-04-24_16h37.45.263,attentional_competition_task,2022.2.4,144.10530062531902,
positions.xlsx,positions_test.xlsx,positions_test_new.xlsx,stimuli.xlsx,stimuli_new.xlsx,stimuli/Social1.png,stimuli/Social2.png,stimuli/Nonsocial1.png,stimuli/Nonsocial2.png,stimuli/Social3.png,stimuli/Social4.png,stimuli/Nonsocial3.png,stimuli/Nonsocial4.png,cs_neg_ns,"(-0.7, 0.5)",,,,,,,,,0,0,0,0,,,,,,,,,,,,,1,8,24,8,,,,,,,,,,,,,,,,,,,,,,,,,,,,,,,,,,936.4573176000001,39,none,0,,,939.4710853000001,,,,,,,,,,,,,,,,,,,,,,17,A,2024-04-24_16h37.45.263,attentional_competition_task,2022.2.4,144.10530062531902,
positions.xlsx,positions_test.xlsx,positions_test_new.xlsx,stimuli.xlsx,stimuli_new.xlsx,stimuli/Social1.png,stimuli/Social2.png,stimuli/Nonsocial1.png,stimuli/Nonsocial2.png,stimuli/Social3.png,stimuli/Social4.png,stimuli/Nonsocial3.png,stimuli/Nonsocial4.png,cs_pos_s,"(-0.7, 0.5)",,,,,,,,,0,0,0,0,,,,,,,,,,,,,1,9,25,4,,,,,,,,,,,,,,,,,,,,,,,,,,,,,,,,,,946.9985719000001,42,reward,1,0.8056477999998606,0.8056513999999879,947.8110882999999,,,,,,,,,,,,,,,,,,,,,,17,A,2024-04-24_16h37.45.263,attentional_competition_task,2022.2.4,144.10530062531902,
positions.xlsx,positions_test.xlsx,positions_test_new.xlsx,stimuli.xlsx,stimuli_new.xlsx,stimuli/Social1.png,stimuli/Social2.png,stimuli/Nonsocial1.png,stimuli/Nonsocial2.png,stimuli/Social3.png,stimuli/Social4.png,stimuli/Nonsocial3.png,stimuli/Nonsocial4.png,cs_neg_ns,"(-0.7, -0.5)",,,,,,,,,0,0,0,0,,,,,,,,,,,,,1,10,26,9,,,,,,,,,,,,,,,,,,,,,,,,,,,,,,,,,,955.6996154000001,42,none,0,,,958.7133813,,,,,,,,,,,,,,,,,,,,,,17,A,2024-04-24_16h37.45.263,attentional_competition_task,2022.2.4,144.10530062531902,
positions.xlsx,positions_test.xlsx,positions_test_new.xlsx,stimuli.xlsx,stimuli_new.xlsx,stimuli/Social1.png,stimuli/Social2.png,stimuli/Nonsocial1.png,stimuli/Nonsocial2.png,stimuli/Social3.png,stimuli/Social4.png,stimuli/Nonsocial3.png,stimuli/Nonsocial4.png,cs_pos_ns,"(0.7, 0.5)",,,,,,,,,0,0,0,0,,,,,,,,,,,,,1,11,27,14,,,,,,,,,,,,,,,,,,,,,,,,,,,,,,,,,,966.7963872,45,reward,1,0.7708717000000433,0.7778494000001501,967.5811062,,,,,,,,,,,,,,,,,,,,,,17,A,2024-04-24_16h37.45.263,attentional_competition_task,2022.2.4,144.10530062531902,
positions.xlsx,positions_test.xlsx,positions_test_new.xlsx,stimuli.xlsx,stimuli_new.xlsx,stimuli/Social1.png,stimuli/Social2.png,stimuli/Nonsocial1.png,stimuli/Nonsocial2.png,stimuli/Social3.png,stimuli/Social4.png,stimuli/Nonsocial3.png,stimuli/Nonsocial4.png,cs_pos_s,"(-0.7, -0.5)",,,,,,,,,0,0,0,0,,,,,,,,,,,,,1,12,28,5,,,,,,,,,,,,,,,,,,,,,,,,,,,,,,,,,,975.0877355,48,reward,1,0.6598293000001831,0.6598332000000937,975.7543808,,,,,,,,,,,,,,,,,,,,,,17,A,2024-04-24_16h37.45.263,attentional_competition_task,2022.2.4,144.10530062531902,
positions.xlsx,positions_test.xlsx,positions_test_new.xlsx,stimuli.xlsx,stimuli_new.xlsx,stimuli/Social1.png,stimuli/Social2.png,stimuli/Nonsocial1.png,stimuli/Nonsocial2.png,stimuli/Social3.png,stimuli/Social4.png,stimuli/Nonsocial3.png,stimuli/Nonsocial4.png,cs_pos_ns,"(-0.7, -0.5)",,,,,,,,,0,0,0,0,,,,,,,,,,,,,1,13,29,13,,,,,,,,,,,,,,,,,,,,,,,,,,,,,,,,,,983.6012601,51,reward,1,0.5486375000000407,0.5486408000001575,984.1568388000001,,,,,,,,,,,,,,,,,,,,,,17,A,2024-04-24_16h37.45.263,attentional_competition_task,2022.2.4,144.10530062531902,
positions.xlsx,positions_test.xlsx,positions_test_new.xlsx,stimuli.xlsx,stimuli_new.xlsx,stimuli/Social1.png,stimuli/Social2.png,stimuli/Nonsocial1.png,stimuli/Nonsocial2.png,stimuli/Social3.png,stimuli/Social4.png,stimuli/Nonsocial3.png,stimuli/Nonsocial4.png,cs_pos_s,"(0.7, 0.5)",,,,,,,,,0,0,0,0,,,,,,,,,,,,,1,14,30,6,,,,,,,,,,,,,,,,,,,,,,,,,,,,,,,,,,992.1495856000001,54,reward,1,0.9654488000001038,0.9654524000000038,993.121817,,,,,,,,,,,,,,,,,,,,,,17,A,2024-04-24_16h37.45.263,attentional_competition_task,2022.2.4,144.10530062531902,
positions.xlsx,positions_test.xlsx,positions_test_new.xlsx,stimuli.xlsx,stimuli_new.xlsx,stimuli/Social1.png,stimuli/Social2.png,stimuli/Nonsocial1.png,stimuli/Nonsocial2.png,stimuli/Social3.png,stimuli/Social4.png,stimuli/Nonsocial3.png,stimuli/Nonsocial4.png,cs_neg_s,"(-0.7, 0.5)",,,,,,,,,0,0,0,0,,,,,,,,,,,,,1,15,31,0,,,,,,,,,,,,,,,,,,,,,,,,,,,,,,,,,,1001.3853389000001,54,none,0,,,1004.3921855000001,,,,,,,,,,,,,,,,,,,,,,17,A,2024-04-24_16h37.45.263,attentional_competition_task,2022.2.4,144.10530062531902,
positions.xlsx,positions_test.xlsx,positions_test_new.xlsx,stimuli.xlsx,stimuli_new.xlsx,stimuli/Social1.png,stimuli/Social2.png,stimuli/Nonsocial1.png,stimuli/Nonsocial2.png,stimuli/Social3.png,stimuli/Social4.png,stimuli/Nonsocial3.png,stimuli/Nonsocial4.png,cs_neg_s,,,,,,,,,,0,0,0,0,,,,,,,,,,,,,,,,,0,0,0,0,,,,,,,,,,,,,,,,,,,,,,,1009.5030973,4.0,7.615431100000023,,,,,,,,,,,,,,,,,,,,,,,,,,,,,,,,,17,A,2024-04-24_16h37.45.263,attentional_competition_task,2022.2.4,144.10530062531902,
positions.xlsx,positions_test.xlsx,positions_test_new.xlsx,stimuli.xlsx,stimuli_new.xlsx,stimuli/Social1.png,stimuli/Social2.png,stimuli/Nonsocial1.png,stimuli/Nonsocial2.png,stimuli/Social3.png,stimuli/Social4.png,stimuli/Nonsocial3.png,stimuli/Nonsocial4.png,cs_pos_s,,,,,,,,,,0,0,0,0,,,,,,,,,,,,,,,,,0,1,1,2,,,,,,,,,,,,,,,,,,,,,,,1017.7180473000001,7.0,5.335719100000006,,,,,,,,,,,,,,,,,,,,,,,,,,,,,,,,,17,A,2024-04-24_16h37.45.263,attentional_competition_task,2022.2.4,144.10530062531902,
positions.xlsx,positions_test.xlsx,positions_test_new.xlsx,stimuli.xlsx,stimuli_new.xlsx,stimuli/Social1.png,stimuli/Social2.png,stimuli/Nonsocial1.png,stimuli/Nonsocial2.png,stimuli/Social3.png,stimuli/Social4.png,stimuli/Nonsocial3.png,stimuli/Nonsocial4.png,cs_neg_ns,,,,,,,,,,0,0,0,0,,,,,,,,,,,,,,,,,0,2,2,1,,,,,,,,,,,,,,,,,,,,,,,1023.2942128,7.0,6.9106318999999985,,,,,,,,,,,,,,,,,,,,,,,,,,,,,,,,,17,A,2024-04-24_16h37.45.263,attentional_competition_task,2022.2.4,144.10530062531902,
positions.xlsx,positions_test.xlsx,positions_test_new.xlsx,stimuli.xlsx,stimuli_new.xlsx,stimuli/Social1.png,stimuli/Social2.png,stimuli/Nonsocial1.png,stimuli/Nonsocial2.png,stimuli/Social3.png,stimuli/Social4.png,stimuli/Nonsocial3.png,stimuli/Nonsocial4.png,cs_pos_ns,,,,,,,,,,0,0,0,0,,,,,,,,,,,,,,,,,0,3,3,3,,,,,,,,,,,,,,,,,,,,,,,1030.3634117000001,9.0,2.3416747000001124,,,,,,,,,,,,,,,,,,,,,,,,,,,,,,,,,17,A,2024-04-24_16h37.45.263,attentional_competition_task,2022.2.4,144.10530062531902,
positions.xlsx,positions_test.xlsx,positions_test_new.xlsx,stimuli.xlsx,stimuli_new.xlsx,stimuli/Social1.png,stimuli/Social2.png,stimuli/Nonsocial1.png,stimuli/Nonsocial2.png,stimuli/Social3.png,stimuli/Social4.png,stimuli/Nonsocial3.png,stimuli/Nonsocial4.png,,,"(-0.7, -0.5)",cs_pos_s,"(-0.7, 0.5)",cs_neg_ns,"(0.7, -0.5)",cs_neg_s,"(0.7, 0.5)",cs_pos_ns,0,0,0,0,,,,,,,,,,,,,,,,,,,,,0,0,0,8,,,,,,,,,,,,,,,,,,,,,,,,,,,51,loss,,,,,1032.9605159,1051.2653918,1051.2653918,1051.2653918,1051.2653918,0,,,0,,,1,0.22599590000004355,0.22599970000010217,1,0.024362200000041412,0.21241359999999077,1051.9945699,1051.9945699,1051.9945699,1051.9945699,17,A,2024-04-24_16h37.45.263,attentional_competition_task,2022.2.4,144.10530062531902,
positions.xlsx,positions_test.xlsx,positions_test_new.xlsx,stimuli.xlsx,stimuli_new.xlsx,stimuli/Social1.png,stimuli/Social2.png,stimuli/Nonsocial1.png,stimuli/Nonsocial2.png,stimuli/Social3.png,stimuli/Social4.png,stimuli/Nonsocial3.png,stimuli/Nonsocial4.png,,,"(-0.7, -0.5)",cs_neg_ns,"(-0.7, 0.5)",cs_neg_s,"(0.7, -0.5)",cs_pos_s,"(0.7, 0.5)",cs_pos_ns,0,0,0,0,,,,,,,,,,,,,,,,,,,,,0,1,1,14,,,,,,,,,,,,,,,,,,,,,,,,,,,57,reward,,,,,,1059.5011977000001,1059.5011977000001,1059.5011977000001,1059.5011977000001,0,,,0,,,0,,,0,,,1060.6261276,1060.6261276,1060.6261276,1060.6261276,17,A,2024-04-24_16h37.45.263,attentional_competition_task,2022.2.4,144.10530062531902,
positions.xlsx,positions_test.xlsx,positions_test_new.xlsx,stimuli.xlsx,stimuli_new.xlsx,stimuli/Social1.png,stimuli/Social2.png,stimuli/Nonsocial1.png,stimuli/Nonsocial2.png,stimuli/Social3.png,stimuli/Social4.png,stimuli/Nonsocial3.png,stimuli/Nonsocial4.png,,,"(-0.7, -0.5)",cs_pos_ns,"(-0.7, 0.5)",cs_pos_s,"(0.7, -0.5)",cs_neg_s,"(0.7, 0.5)",cs_neg_ns,0,0,0,0,,,,,,,,,,,,,,,,,,,,,0,2,2,19,,,,,,,,,,,,,,,,,,,,,,,,,,,66,reward,,,,,,1068.2924866,1068.2924866,1068.2924866,1068.2924866,0,,,1,0.022371199999952296,0.031843200000139404,0,,,0,,,1068.9383081,1068.9383081,1068.9383081,1068.9383081,17,A,2024-04-24_16h37.45.263,attentional_competition_task,2022.2.4,144.10530062531902,
positions.xlsx,positions_test.xlsx,positions_test_new.xlsx,stimuli.xlsx,stimuli_new.xlsx,stimuli/Social1.png,stimuli/Social2.png,stimuli/Nonsocial1.png,stimuli/Nonsocial2.png,stimuli/Social3.png,stimuli/Social4.png,stimuli/Nonsocial3.png,stimuli/Nonsocial4.png,,,"(-0.7, -0.5)",cs_neg_s,"(-0.7, 0.5)",cs_pos_s,"(0.7, -0.5)",cs_pos_ns,"(0.7, 0.5)",cs_neg_ns,0,0,0,0,,,,,,,,,,,,,,,,,,,,,0,3,3,1,,,,,,,,,,,,,,,,,,,,,,,,,,,75,reward,,,,,,1077.2713066000001,1077.2713066000001,1077.2713066000001,1077.2713066000001,0,,,0,,,1,0.024128199999950084,0.20468579999987924,0,,,1077.98657,1077.98657,1077.98657,1077.98657,17,A,2024-04-24_16h37.45.263,attentional_competition_task,2022.2.4,144.10530062531902,
positions.xlsx,positions_test.xlsx,positions_test_new.xlsx,stimuli.xlsx,stimuli_new.xlsx,stimuli/Social1.png,stimuli/Social2.png,stimuli/Nonsocial1.png,stimuli/Nonsocial2.png,stimuli/Social3.png,stimuli/Social4.png,stimuli/Nonsocial3.png,stimuli/Nonsocial4.png,,,"(-0.7, -0.5)",cs_neg_ns,"(-0.7, 0.5)",cs_pos_s,"(0.7, -0.5)",cs_pos_ns,"(0.7, 0.5)",cs_neg_s,0,0,0,0,,,,,,,,,,,,,,,,,,,,,0,4,4,13,,,,,,,,,,,,,,,,,,,,,,,,,,,84,reward,,,,,,1085.9098706,1085.9098706,1085.9098706,1085.9098706,0,,,1,0.024724900000137495,0.04568910000011783,0,,,0,,,1086.4584674,1086.4584674,1086.4584674,1086.4584674,17,A,2024-04-24_16h37.45.263,attentional_competition_task,2022.2.4,144.10530062531902,
positions.xlsx,positions_test.xlsx,positions_test_new.xlsx,stimuli.xlsx,stimuli_new.xlsx,stimuli/Social1.png,stimuli/Social2.png,stimuli/Nonsocial1.png,stimuli/Nonsocial2.png,stimuli/Social3.png,stimuli/Social4.png,stimuli/Nonsocial3.png,stimuli/Nonsocial4.png,,,"(-0.7, -0.5)",cs_pos_ns,"(-0.7, 0.5)",cs_neg_s,"(0.7, -0.5)",cs_neg_ns,"(0.7, 0.5)",cs_pos_s,0,0,0,0,,,,,,,,,,,,,,,,,,,,,0,5,5,23,,,,,,,,,,,,,,,,,,,,,,,,,,,87,reward,,,,,,1094.4303592,1094.4303592,1094.4303592,1094.4303592,1,0.3080817999998544,0.30808539999998175,0,,,0,,,0,,,1094.7428369000002,1094.7428369000002,1094.7428369000002,1094.7428369000002,17,A,2024-04-24_16h37.45.263,attentional_competition_task,2022.2.4,144.10530062531902,
positions.xlsx,positions_test.xlsx,positions_test_new.xlsx,stimuli.xlsx,stimuli_new.xlsx,stimuli/Social1.png,stimuli/Social2.png,stimuli/Nonsocial1.png,stimuli/Nonsocial2.png,stimuli/Social3.png,stimuli/Social4.png,stimuli/Nonsocial3.png,stimuli/Nonsocial4.png,,,"(-0.7, -0.5)",cs_pos_ns,"(-0.7, 0.5)",cs_neg_ns,"(0.7, -0.5)",cs_pos_s,"(0.7, 0.5)",cs_neg_s,0,0,0,0,,,,,,,,,,,,,,,,,,,,,0,6,6,20,,,,,,,,,,,,,,,,,,,,,,,,,,,93,reward,,,,,,1102.7217267,1102.7217267,1102.7217267,1102.7217267,1,0.022634100000004764,0.02263819999984662,0,,,0,,,0,,,1102.7217267,1102.7217267,1102.7217267,1102.7217267,17,A,2024-04-24_16h37.45.263,attentional_competition_task,2022.2.4,144.10530062531902,
positions.xlsx,positions_test.xlsx,positions_test_new.xlsx,stimuli.xlsx,stimuli_new.xlsx,stimuli/Social1.png,stimuli/Social2.png,stimuli/Nonsocial1.png,stimuli/Nonsocial2.png,stimuli/Social3.png,stimuli/Social4.png,stimuli/Nonsocial3.png,stimuli/Nonsocial4.png,,,"(-0.7, -0.5)",cs_neg_ns,"(-0.7, 0.5)",cs_neg_s,"(0.7, -0.5)",cs_pos_ns,"(0.7, 0.5)",cs_pos_s,0,0,0,0,,,,,,,,,,,,,,,,,,,,,0,7,7,15,,,,,,,,,,,,,,,,,,,,,,,,,,,102,reward,,,,,,1111.4158427,1111.4158427,1111.4158427,1111.4158427,0,,,0,,,0,,,0,,,1112.3324724000001,1112.3324724000001,1112.3324724000001,1112.3324724000001,17,A,2024-04-24_16h37.45.263,attentional_competition_task,2022.2.4,144.10530062531902,
positions.xlsx,positions_test.xlsx,positions_test_new.xlsx,stimuli.xlsx,stimuli_new.xlsx,stimuli/Social1.png,stimuli/Social2.png,stimuli/Nonsocial1.png,stimuli/Nonsocial2.png,stimuli/Social3.png,stimuli/Social4.png,stimuli/Nonsocial3.png,stimuli/Nonsocial4.png,,,"(-0.7, -0.5)",cs_neg_ns,"(-0.7, 0.5)",cs_pos_s,"(0.7, -0.5)",cs_neg_s,"(0.7, 0.5)",cs_pos_ns,0,0,0,0,,,,,,,,,,,,,,,,,,,,,0,8,8,12,,,,,,,,,,,,,,,,,,,,,,,,,,,111,reward,,,,,,1120.2140986,1120.2140986,1120.2140986,1120.2140986,0,,,1,0.022398199999997814,0.13667770000006385,0,,,0,,,1121.0474048,1121.0474048,1121.0474048,1121.0474048,17,A,2024-04-24_16h37.45.263,attentional_competition_task,2022.2.4,144.10530062531902,
positions.xlsx,positions_test.xlsx,positions_test_new.xlsx,stimuli.xlsx,stimuli_new.xlsx,stimuli/Social1.png,stimuli/Social2.png,stimuli/Nonsocial1.png,stimuli/Nonsocial2.png,stimuli/Social3.png,stimuli/Social4.png,stimuli/Nonsocial3.png,stimuli/Nonsocial4.png,,,"(-0.7, -0.5)",cs_pos_s,"(-0.7, 0.5)",cs_neg_ns,"(0.7, -0.5)",cs_pos_ns,"(0.7, 0.5)",cs_neg_s,0,0,0,0,,,,,,,,,,,,,,,,,,,,,0,9,9,9,,,,,,,,,,,,,,,,,,,,,,,,,,,120,reward,,,,,,1128.6095919,1128.6095919,1128.6095919,1128.6095919,1,0.02418020000004617,0.38569250000000466,0,,,0,,,0,,,1129.4984604,1129.4984604,1129.4984604,1129.4984604,17,A,2024-04-24_16h37.45.263,attentional_competition_task,2022.2.4,144.10530062531902,
positions.xlsx,positions_test.xlsx,positions_test_new.xlsx,stimuli.xlsx,stimuli_new.xlsx,stimuli/Social1.png,stimuli/Social2.png,stimuli/Nonsocial1.png,stimuli/Nonsocial2.png,stimuli/Social3.png,stimuli/Social4.png,stimuli/Nonsocial3.png,stimuli/Nonsocial4.png,,,"(-0.7, -0.5)",cs_neg_s,"(-0.7, 0.5)",cs_pos_ns,"(0.7, -0.5)",cs_neg_ns,"(0.7, 0.5)",cs_pos_s,0,0,0,0,,,,,,,,,,,,,,,,,,,,,0,10,10,5,,,,,,,,,,,,,,,,,,,,,,,,,,,123,reward,,,,,,1137.1578542,1137.1578542,1137.1578542,1137.1578542,0,,,0,,,0,,,1,0.023984300000165604,0.023988099999996848,1137.1578542,1137.1578542,1137.1578542,1137.1578542,17,A,2024-04-24_16h37.45.263,attentional_competition_task,2022.2.4,144.10530062531902,
positions.xlsx,positions_test.xlsx,positions_test_new.xlsx,stimuli.xlsx,stimuli_new.xlsx,stimuli/Social1.png,stimuli/Social2.png,stimuli/Nonsocial1.png,stimuli/Nonsocial2.png,stimuli/Social3.png,stimuli/Social4.png,stimuli/Nonsocial3.png,stimuli/Nonsocial4.png,,,"(-0.7, -0.5)",cs_neg_ns,"(-0.7, 0.5)",cs_pos_ns,"(0.7, -0.5)",cs_pos_s,"(0.7, 0.5)",cs_neg_s,0,0,0,0,,,,,,,,,,,,,,,,,,,,,0,11,11,16,,,,,,,,,,,,,,,,,,,,,,,,,,,132,reward,,,,,,1146.1297684,1146.1297684,1146.1297684,1146.1297684,0,,,1,0.028947099999868442,0.2525491999999758,0,,,0,,,1146.8867054,1146.8867054,1146.8867054,1146.8867054,17,A,2024-04-24_16h37.45.263,attentional_competition_task,2022.2.4,144.10530062531902,
positions.xlsx,positions_test.xlsx,positions_test_new.xlsx,stimuli.xlsx,stimuli_new.xlsx,stimuli/Social1.png,stimuli/Social2.png,stimuli/Nonsocial1.png,stimuli/Nonsocial2.png,stimuli/Social3.png,stimuli/Social4.png,stimuli/Nonsocial3.png,stimuli/Nonsocial4.png,,,"(-0.7, -0.5)",cs_neg_ns,"(-0.7, 0.5)",cs_pos_ns,"(0.7, -0.5)",cs_neg_s,"(0.7, 0.5)",cs_pos_s,0,0,0,0,,,,,,,,,,,,,,,,,,,,,0,12,12,17,,,,,,,,,,,,,,,,,,,,,,,,,,,135,loss,,,,,,1155.1085905,1155.1085905,1155.1085905,1155.1085905,0,,,0,,,1,0.1546186000000489,0.15462249999995947,1,0.028348000000050888,0.14824889999999868,1155.268293,1155.268293,1155.268293,1155.268293,17,A,2024-04-24_16h37.45.263,attentional_competition_task,2022.2.4,144.10530062531902,
positions.xlsx,positions_test.xlsx,positions_test_new.xlsx,stimuli.xlsx,stimuli_new.xlsx,stimuli/Social1.png,stimuli/Social2.png,stimuli/Nonsocial1.png,stimuli/Nonsocial2.png,stimuli/Social3.png,stimuli/Social4.png,stimuli/Nonsocial3.png,stimuli/Nonsocial4.png,,,"(-0.7, -0.5)",cs_neg_s,"(-0.7, 0.5)",cs_pos_ns,"(0.7, -0.5)",cs_pos_s,"(0.7, 0.5)",cs_neg_ns,0,0,0,0,,,,,,,,,,,,,,,,,,,,,0,13,13,4,,,,,,,,,,,,,,,,,,,,,,,,,,,144,reward,,,,,,1163.9623998,1163.9623998,1163.9623998,1163.9623998,0,,,0,,,1,0.03226519999998345,0.25283630000012636,0,,,1164.7610021,1164.7610021,1164.7610021,1164.7610021,17,A,2024-04-24_16h37.45.263,attentional_competition_task,2022.2.4,144.10530062531902,
positions.xlsx,positions_test.xlsx,positions_test_new.xlsx,stimuli.xlsx,stimuli_new.xlsx,stimuli/Social1.png,stimuli/Social2.png,stimuli/Nonsocial1.png,stimuli/Nonsocial2.png,stimuli/Social3.png,stimuli/Social4.png,stimuli/Nonsocial3.png,stimuli/Nonsocial4.png,,,"(-0.7, -0.5)",cs_pos_ns,"(-0.7, 0.5)",cs_neg_ns,"(0.7, -0.5)",cs_neg_s,"(0.7, 0.5)",cs_pos_s,0,0,0,0,,,,,,,,,,,,,,,,,,,,,0,14,14,21,,,,,,,,,,,,,,,,,,,,,,,,,,,147,reward,,,,,,1172.6148574000001,1172.6148574000001,1172.6148574000001,1172.6148574000001,0,,,0,,,0,,,1,0.02927149999982248,0.029275099999949816,1172.6148574000001,1172.6148574000001,1172.6148574000001,1172.6148574000001,17,A,2024-04-24_16h37.45.263,attentional_competition_task,2022.2.4,144.10530062531902,
positions.xlsx,positions_test.xlsx,positions_test_new.xlsx,stimuli.xlsx,stimuli_new.xlsx,stimuli/Social1.png,stimuli/Social2.png,stimuli/Nonsocial1.png,stimuli/Nonsocial2.png,stimuli/Social3.png,stimuli/Social4.png,stimuli/Nonsocial3.png,stimuli/Nonsocial4.png,,,"(-0.7, -0.5)",cs_pos_s,"(-0.7, 0.5)",cs_pos_ns,"(0.7, -0.5)",cs_neg_s,"(0.7, 0.5)",cs_neg_ns,0,0,0,0,,,,,,,,,,,,,,,,,,,,,0,15,15,10,,,,,,,,,,,,,,,,,,,,,,,,,,,156,reward,,,,,,1181.9339051,1181.9339051,1181.9339051,1181.9339051,1,0.029423600000200167,0.25962650000019494,0,,,0,,,0,,,1182.6978185,1182.6978185,1182.6978185,1182.6978185,17,A,2024-04-24_16h37.45.263,attentional_competition_task,2022.2.4,144.10530062531902,
positions.xlsx,positions_test.xlsx,positions_test_new.xlsx,stimuli.xlsx,stimuli_new.xlsx,stimuli/Social1.png,stimuli/Social2.png,stimuli/Nonsocial1.png,stimuli/Nonsocial2.png,stimuli/Social3.png,stimuli/Social4.png,stimuli/Nonsocial3.png,stimuli/Nonsocial4.png,,,"(-0.7, -0.5)",cs_neg_s,"(-0.7, 0.5)",cs_pos_s,"(0.7, -0.5)",cs_neg_ns,"(0.7, 0.5)",cs_pos_ns,0,0,0,0,,,,,,,,,,,,,,,,,,,,,0,16,16,0,,,,,,,,,,,,,,,,,,,,,,,,,,,165,reward,,,,,,1190.3919186,1190.3919186,1190.3919186,1190.3919186,0,,,1,0.02179719999980989,0.09349950000000717,0,,,0,,,1191.2460742,1191.2460742,1191.2460742,1191.2460742,17,A,2024-04-24_16h37.45.263,attentional_competition_task,2022.2.4,144.10530062531902,
positions.xlsx,positions_test.xlsx,positions_test_new.xlsx,stimuli.xlsx,stimuli_new.xlsx,stimuli/Social1.png,stimuli/Social2.png,stimuli/Nonsocial1.png,stimuli/Nonsocial2.png,stimuli/Social3.png,stimuli/Social4.png,stimuli/Nonsocial3.png,stimuli/Nonsocial4.png,,,"(-0.7, -0.5)",cs_pos_s,"(-0.7, 0.5)",cs_neg_s,"(0.7, -0.5)",cs_pos_ns,"(0.7, 0.5)",cs_neg_ns,0,0,0,0,,,,,,,,,,,,,,,,,,,,,0,17,17,7,,,,,,,,,,,,,,,,,,,,,,,,,,,174,reward,,,,,,1198.9124157,1198.9124157,1198.9124157,1198.9124157,1,0.02706909999983509,0.4439241000000038,0,,,0,,,0,,,1199.8568268000001,1199.8568268000001,1199.8568268000001,1199.8568268000001,17,A,2024-04-24_16h37.45.263,attentional_competition_task,2022.2.4,144.10530062531902,
positions.xlsx,positions_test.xlsx,positions_test_new.xlsx,stimuli.xlsx,stimuli_new.xlsx,stimuli/Social1.png,stimuli/Social2.png,stimuli/Nonsocial1.png,stimuli/Nonsocial2.png,stimuli/Social3.png,stimuli/Social4.png,stimuli/Nonsocial3.png,stimuli/Nonsocial4.png,,,"(-0.7, -0.5)",cs_pos_ns,"(-0.7, 0.5)",cs_neg_s,"(0.7, -0.5)",cs_pos_s,"(0.7, 0.5)",cs_neg_ns,0,0,0,0,,,,,,,,,,,,,,,,,,,,,0,18,18,22,,,,,,,,,,,,,,,,,,,,,,,,,,,183,reward,,,,,,1207.5509693000001,1207.5509693000001,1207.5509693000001,1207.5509693000001,0,,,0,,,0,,,0,,,1208.3773315,1208.3773315,1208.3773315,1208.3773315,17,A,2024-04-24_16h37.45.263,attentional_competition_task,2022.2.4,144.10530062531902,
positions.xlsx,positions_test.xlsx,positions_test_new.xlsx,stimuli.xlsx,stimuli_new.xlsx,stimuli/Social1.png,stimuli/Social2.png,stimuli/Nonsocial1.png,stimuli/Nonsocial2.png,stimuli/Social3.png,stimuli/Social4.png,stimuli/Nonsocial3.png,stimuli/Nonsocial4.png,,,"(-0.7, -0.5)",cs_neg_s,"(-0.7, 0.5)",cs_neg_ns,"(0.7, -0.5)",cs_pos_ns,"(0.7, 0.5)",cs_pos_s,0,0,0,0,,,,,,,,,,,,,,,,,,,,,0,19,19,3,,,,,,,,,,,,,,,,,,,,,,,,,,,192,reward,,,,,,1216.1409146,1216.1409146,1216.1409146,1216.1409146,0,,,0,,,0,,,1,0.024910200000022087,0.3239266000000498,1216.9672643000001,1216.9672643000001,1216.9672643000001,1216.9672643000001,17,A,2024-04-24_16h37.45.263,attentional_competition_task,2022.2.4,144.10530062531902,
positions.xlsx,positions_test.xlsx,positions_test_new.xlsx,stimuli.xlsx,stimuli_new.xlsx,stimuli/Social1.png,stimuli/Social2.png,stimuli/Nonsocial1.png,stimuli/Nonsocial2.png,stimuli/Social3.png,stimuli/Social4.png,stimuli/Nonsocial3.png,stimuli/Nonsocial4.png,,,"(-0.7, -0.5)",cs_pos_s,"(-0.7, 0.5)",cs_pos_ns,"(0.7, -0.5)",cs_neg_ns,"(0.7, 0.5)",cs_neg_s,0,0,0,0,,,,,,,,,,,,,,,,,,,,,0,20,20,11,,,,,,,,,,,,,,,,,,,,,,,,,,,201,reward,,,,,,1224.8836378,1224.8836378,1224.8836378,1224.8836378,1,0.027963499999941632,0.13866329999996196,0,,,0,,,0,,,1225.7586171,1225.7586171,1225.7586171,1225.7586171,17,A,2024-04-24_16h37.45.263,attentional_competition_task,2022.2.4,144.10530062531902,
positions.xlsx,positions_test.xlsx,positions_test_new.xlsx,stimuli.xlsx,stimuli_new.xlsx,stimuli/Social1.png,stimuli/Social2.png,stimuli/Nonsocial1.png,stimuli/Nonsocial2.png,stimuli/Social3.png,stimuli/Social4.png,stimuli/Nonsocial3.png,stimuli/Nonsocial4.png,,,"(-0.7, -0.5)",cs_pos_ns,"(-0.7, 0.5)",cs_pos_s,"(0.7, -0.5)",cs_neg_ns,"(0.7, 0.5)",cs_neg_s,0,0,0,0,,,,,,,,,,,,,,,,,,,,,0,21,21,18,,,,,,,,,,,,,,,,,,,,,,,,,,,210,reward,,,,,,1233.5221709,1233.5221709,1233.5221709,1233.5221709,1,0.023836800000026415,0.1279575000000932,0,,,0,,,0,,,1234.6541241,1234.6541241,1234.6541241,1234.6541241,17,A,2024-04-24_16h37.45.263,attentional_competition_task,2022.2.4,144.10530062531902,
positions.xlsx,positions_test.xlsx,positions_test_new.xlsx,stimuli.xlsx,stimuli_new.xlsx,stimuli/Social1.png,stimuli/Social2.png,stimuli/Nonsocial1.png,stimuli/Nonsocial2.png,stimuli/Social3.png,stimuli/Social4.png,stimuli/Nonsocial3.png,stimuli/Nonsocial4.png,,,"(-0.7, -0.5)",cs_neg_s,"(-0.7, 0.5)",cs_neg_ns,"(0.7, -0.5)",cs_pos_s,"(0.7, 0.5)",cs_pos_ns,0,0,0,0,,,,,,,,,,,,,,,,,,,,,0,22,22,2,,,,,,,,,,,,,,,,,,,,,,,,,,,219,reward,,,,,,1241.9871409,1241.9871409,1241.9871409,1241.9871409,0,,,0,,,0,,,0,,,1242.9732268,1242.9732268,1242.9732268,1242.9732268,17,A,2024-04-24_16h37.45.263,attentional_competition_task,2022.2.4,144.10530062531902,
positions.xlsx,positions_test.xlsx,positions_test_new.xlsx,stimuli.xlsx,stimuli_new.xlsx,stimuli/Social1.png,stimuli/Social2.png,stimuli/Nonsocial1.png,stimuli/Nonsocial2.png,stimuli/Social3.png,stimuli/Social4.png,stimuli/Nonsocial3.png,stimuli/Nonsocial4.png,,,"(-0.7, -0.5)",cs_pos_s,"(-0.7, 0.5)",cs_neg_s,"(0.7, -0.5)",cs_neg_ns,"(0.7, 0.5)",cs_pos_ns,0,0,0,0,,,,,,,,,,,,,,,,,,,,,0,23,23,6,,,,,,,,,,,,,,,,,,,,,,,,,,,222,reward,,,,,,1250.0632638,1250.0632638,1250.0632638,1250.0632638,1,0.02512109999997847,0.025124900000037087,0,,,0,,,0,,,1250.0632638,1250.0632638,1250.0632638,1250.0632638,17,A,2024-04-24_16h37.45.263,attentional_competition_task,2022.2.4,144.10530062531902,
positions.xlsx,positions_test.xlsx,positions_test_new.xlsx,stimuli.xlsx,stimuli_new.xlsx,stimuli/Social1.png,stimuli/Social2.png,stimuli/Nonsocial1.png,stimuli/Nonsocial2.png,stimuli/Social3.png,stimuli/Social4.png,stimuli/Nonsocial3.png,stimuli/Nonsocial4.png,,,"(-0.7, -0.5)",cs_neg_s,"(-0.7, 0.5)",cs_pos_ns,"(0.7, -0.5)",cs_pos_s,"(0.7, 0.5)",cs_neg_ns,0,0,0,0,,,,,,,,,,,,,,,,,,,,,1,0,24,4,,,,,,,,,,,,,,,,,,,,,,,,,,,231,reward,,,,,,1258.6323343000001,1258.6323343000001,1258.6323343000001,1258.6323343000001,0,,,0,,,0,,,0,,,1259.4170311,1259.4170311,1259.4170311,1259.4170311,17,A,2024-04-24_16h37.45.263,attentional_competition_task,2022.2.4,144.10530062531902,
positions.xlsx,positions_test.xlsx,positions_test_new.xlsx,stimuli.xlsx,stimuli_new.xlsx,stimuli/Social1.png,stimuli/Social2.png,stimuli/Nonsocial1.png,stimuli/Nonsocial2.png,stimuli/Social3.png,stimuli/Social4.png,stimuli/Nonsocial3.png,stimuli/Nonsocial4.png,,,"(-0.7, -0.5)",cs_pos_s,"(-0.7, 0.5)",cs_pos_ns,"(0.7, -0.5)",cs_neg_s,"(0.7, 0.5)",cs_neg_ns,0,0,0,0,,,,,,,,,,,,,,,,,,,,,1,1,25,10,,,,,,,,,,,,,,,,,,,,,,,,,,,240,reward,,,,,,1268.0139089,1268.0139089,1268.0139089,1268.0139089,0,,,1,0.0240404999999555,0.0936193000000003,0,,,0,,,1268.8472208,1268.8472208,1268.8472208,1268.8472208,17,A,2024-04-24_16h37.45.263,attentional_competition_task,2022.2.4,144.10530062531902,
positions.xlsx,positions_test.xlsx,positions_test_new.xlsx,stimuli.xlsx,stimuli_new.xlsx,stimuli/Social1.png,stimuli/Social2.png,stimuli/Nonsocial1.png,stimuli/Nonsocial2.png,stimuli/Social3.png,stimuli/Social4.png,stimuli/Nonsocial3.png,stimuli/Nonsocial4.png,,,"(-0.7, -0.5)",cs_pos_ns,"(-0.7, 0.5)",cs_neg_s,"(0.7, -0.5)",cs_pos_s,"(0.7, 0.5)",cs_neg_ns,0,0,0,0,,,,,,,,,,,,,,,,,,,,,1,2,26,22,,,,,,,,,,,,,,,,,,,,,,,,,,,243,reward,,,,,,1276.534405,1276.534405,1276.534405,1276.534405,0,,,0,,,1,0.023103499999933774,0.02310740000007172,0,,,1276.534405,1276.534405,1276.534405,1276.534405,17,A,2024-04-24_16h37.45.263,attentional_competition_task,2022.2.4,144.10530062531902,
positions.xlsx,positions_test.xlsx,positions_test_new.xlsx,stimuli.xlsx,stimuli_new.xlsx,stimuli/Social1.png,stimuli/Social2.png,stimuli/Nonsocial1.png,stimuli/Nonsocial2.png,stimuli/Social3.png,stimuli/Social4.png,stimuli/Nonsocial3.png,stimuli/Nonsocial4.png,,,"(-0.7, -0.5)",cs_pos_ns,"(-0.7, 0.5)",cs_neg_ns,"(0.7, -0.5)",cs_neg_s,"(0.7, 0.5)",cs_pos_s,0,0,0,0,,,,,,,,,,,,,,,,,,,,,1,3,27,21,,,,,,,,,,,,,,,,,,,,,,,,,,,252,reward,,,,,,1285.5201759000001,1285.5201759000001,1285.5201759000001,1285.5201759000001,0,,,0,,,0,,,1,0.026106900000058886,0.37996930000008433,1286.4021256,1286.4021256,1286.4021256,1286.4021256,17,A,2024-04-24_16h37.45.263,attentional_competition_task,2022.2.4,144.10530062531902,
positions.xlsx,positions_test.xlsx,positions_test_new.xlsx,stimuli.xlsx,stimuli_new.xlsx,stimuli/Social1.png,stimuli/Social2.png,stimuli/Nonsocial1.png,stimuli/Nonsocial2.png,stimuli/Social3.png,stimuli/Social4.png,stimuli/Nonsocial3.png,stimuli/Nonsocial4.png,,,"(-0.7, -0.5)",cs_pos_s,"(-0.7, 0.5)",cs_neg_s,"(0.7, -0.5)",cs_neg_ns,"(0.7, 0.5)",cs_pos_ns,0,0,0,0,,,,,,,,,,,,,,,,,,,,,1,4,28,6,,,,,,,,,,,,,,,,,,,,,,,,,,,255,reward,,,,,,1295.1309421,1295.1309421,1295.1309421,1295.1309421,1,0.022480600000108097,0.02248450000001867,0,,,0,,,0,,,1295.1309421,1295.1309421,1295.1309421,1295.1309421,17,A,2024-04-24_16h37.45.263,attentional_competition_task,2022.2.4,144.10530062531902,
positions.xlsx,positions_test.xlsx,positions_test_new.xlsx,stimuli.xlsx,stimuli_new.xlsx,stimuli/Social1.png,stimuli/Social2.png,stimuli/Nonsocial1.png,stimuli/Nonsocial2.png,stimuli/Social3.png,stimuli/Social4.png,stimuli/Nonsocial3.png,stimuli/Nonsocial4.png,,,"(-0.7, -0.5)",cs_neg_s,"(-0.7, 0.5)",cs_neg_ns,"(0.7, -0.5)",cs_pos_s,"(0.7, 0.5)",cs_pos_ns,0,0,0,0,,,,,,,,,,,,,,,,,,,,,1,5,29,2,,,,,,,,,,,,,,,,,,,,,,,,,,,264,reward,,,,,,1303.2347353,1303.2347353,1303.2347353,1303.2347353,0,,,0,,,0,,,0,,,1304.1652879,1304.1652879,1304.1652879,1304.1652879,17,A,2024-04-24_16h37.45.263,attentional_competition_task,2022.2.4,144.10530062531902,
positions.xlsx,positions_test.xlsx,positions_test_new.xlsx,stimuli.xlsx,stimuli_new.xlsx,stimuli/Social1.png,stimuli/Social2.png,stimuli/Nonsocial1.png,stimuli/Nonsocial2.png,stimuli/Social3.png,stimuli/Social4.png,stimuli/Nonsocial3.png,stimuli/Nonsocial4.png,,,"(-0.7, -0.5)",cs_neg_s,"(-0.7, 0.5)",cs_pos_s,"(0.7, -0.5)",cs_pos_ns,"(0.7, 0.5)",cs_neg_ns,0,0,0,0,,,,,,,,,,,,,,,,,,,,,1,6,30,1,,,,,,,,,,,,,,,,,,,,,,,,,,,273,reward,,,,,,1311.6302486,1311.6302486,1311.6302486,1311.6302486,0,,,1,0.030962900000076843,0.5025450000000546,0,,,0,,,1312.6649622,1312.6649622,1312.6649622,1312.6649622,17,A,2024-04-24_16h37.45.263,attentional_competition_task,2022.2.4,144.10530062531902,
positions.xlsx,positions_test.xlsx,positions_test_new.xlsx,stimuli.xlsx,stimuli_new.xlsx,stimuli/Social1.png,stimuli/Social2.png,stimuli/Nonsocial1.png,stimuli/Nonsocial2.png,stimuli/Social3.png,stimuli/Social4.png,stimuli/Nonsocial3.png,stimuli/Nonsocial4.png,,,"(-0.7, -0.5)",cs_neg_ns,"(-0.7, 0.5)",cs_pos_ns,"(0.7, -0.5)",cs_pos_s,"(0.7, 0.5)",cs_neg_s,0,0,0,0,,,,,,,,,,,,,,,,,,,,,1,7,31,16,,,,,,,,,,,,,,,,,,,,,,,,,,,282,reward,,,,,,1320.2341294,1320.2341294,1320.2341294,1320.2341294,0,,,0,,,1,0.031079000000090673,0.23285359999999855,0,,,1321.1160625,1321.1160625,1321.1160625,1321.1160625,17,A,2024-04-24_16h37.45.263,attentional_competition_task,2022.2.4,144.10530062531902,
positions.xlsx,positions_test.xlsx,positions_test_new.xlsx,stimuli.xlsx,stimuli_new.xlsx,stimuli/Social1.png,stimuli/Social2.png,stimuli/Nonsocial1.png,stimuli/Nonsocial2.png,stimuli/Social3.png,stimuli/Social4.png,stimuli/Nonsocial3.png,stimuli/Nonsocial4.png,,,"(-0.7, -0.5)",cs_neg_ns,"(-0.7, 0.5)",cs_pos_s,"(0.7, -0.5)",cs_neg_s,"(0.7, 0.5)",cs_pos_ns,0,0,0,0,,,,,,,,,,,,,,,,,,,,,1,8,32,12,,,,,,,,,,,,,,,,,,,,,,,,,,,291,reward,,,,,,1329.2059736,1329.2059736,1329.2059736,1329.2059736,0,,,0,,,0,,,1,0.0256189000001541,0.17816519999996672,1329.8865175,1329.8865175,1329.8865175,1329.8865175,17,A,2024-04-24_16h37.45.263,attentional_competition_task,2022.2.4,144.10530062531902,
positions.xlsx,positions_test.xlsx,positions_test_new.xlsx,stimuli.xlsx,stimuli_new.xlsx,stimuli/Social1.png,stimuli/Social2.png,stimuli/Nonsocial1.png,stimuli/Nonsocial2.png,stimuli/Social3.png,stimuli/Social4.png,stimuli/Nonsocial3.png,stimuli/Nonsocial4.png,,,"(-0.7, -0.5)",cs_neg_s,"(-0.7, 0.5)",cs_pos_s,"(0.7, -0.5)",cs_neg_ns,"(0.7, 0.5)",cs_pos_ns,0,0,0,0,,,,,,,,,,,,,,,,,,,,,1,9,33,0,,,,,,,,,,,,,,,,,,,,,,,,,,,300,reward,,,,,,1337.3514863,1337.3514863,1337.3514863,1337.3514863,0,,,1,0.023946699999896737,0.08124109999994289,0,,,0,,,1338.3097735000001,1338.3097735000001,1338.3097735000001,1338.3097735000001,17,A,2024-04-24_16h37.45.263,attentional_competition_task,2022.2.4,144.10530062531902,
positions.xlsx,positions_test.xlsx,positions_test_new.xlsx,stimuli.xlsx,stimuli_new.xlsx,stimuli/Social1.png,stimuli/Social2.png,stimuli/Nonsocial1.png,stimuli/Nonsocial2.png,stimuli/Social3.png,stimuli/Social4.png,stimuli/Nonsocial3.png,stimuli/Nonsocial4.png,,,"(-0.7, -0.5)",cs_pos_s,"(-0.7, 0.5)",cs_pos_ns,"(0.7, -0.5)",cs_neg_ns,"(0.7, 0.5)",cs_neg_s,0,0,0,0,,,,,,,,,,,,,,,,,,,,,1,10,34,11,,,,,,,,,,,,,,,,,,,,,,,,,,,309,reward,,,,,,1346.2469791,1346.2469791,1346.2469791,1346.2469791,0,,,0,,,0,,,0,,,1347.1566679,1347.1566679,1347.1566679,1347.1566679,17,A,2024-04-24_16h37.45.263,attentional_competition_task,2022.2.4,144.10530062531902,
positions.xlsx,positions_test.xlsx,positions_test_new.xlsx,stimuli.xlsx,stimuli_new.xlsx,stimuli/Social1.png,stimuli/Social2.png,stimuli/Nonsocial1.png,stimuli/Nonsocial2.png,stimuli/Social3.png,stimuli/Social4.png,stimuli/Nonsocial3.png,stimuli/Nonsocial4.png,,,"(-0.7, -0.5)",cs_neg_s,"(-0.7, 0.5)",cs_pos_ns,"(0.7, -0.5)",cs_neg_ns,"(0.7, 0.5)",cs_pos_s,0,0,0,0,,,,,,,,,,,,,,,,,,,,,1,11,35,5,,,,,,,,,,,,,,,,,,,,,,,,,,,318,reward,,,,,,1354.4133293,1354.4133293,1354.4133293,1354.4133293,0,,,0,,,0,,,0,,,1355.3508093,1355.3508093,1355.3508093,1355.3508093,17,A,2024-04-24_16h37.45.263,attentional_competition_task,2022.2.4,144.10530062531902,
positions.xlsx,positions_test.xlsx,positions_test_new.xlsx,stimuli.xlsx,stimuli_new.xlsx,stimuli/Social1.png,stimuli/Social2.png,stimuli/Nonsocial1.png,stimuli/Nonsocial2.png,stimuli/Social3.png,stimuli/Social4.png,stimuli/Nonsocial3.png,stimuli/Nonsocial4.png,,,"(-0.7, -0.5)",cs_pos_ns,"(-0.7, 0.5)",cs_neg_ns,"(0.7, -0.5)",cs_pos_s,"(0.7, 0.5)",cs_neg_s,0,0,0,0,,,,,,,,,,,,,,,,,,,,,1,12,36,20,,,,,,,,,,,,,,,,,,,,,,,,,,,321,reward,,,,,,1363.1698926000001,1363.1698926000001,1363.1698926000001,1363.1698926000001,0,,,0,,,1,0.02918509999994967,0.029188400000066395,0,,,1363.1698926000001,1363.1698926000001,1363.1698926000001,1363.1698926000001,17,A,2024-04-24_16h37.45.263,attentional_competition_task,2022.2.4,144.10530062531902,
positions.xlsx,positions_test.xlsx,positions_test_new.xlsx,stimuli.xlsx,stimuli_new.xlsx,stimuli/Social1.png,stimuli/Social2.png,stimuli/Nonsocial1.png,stimuli/Nonsocial2.png,stimuli/Social3.png,stimuli/Social4.png,stimuli/Nonsocial3.png,stimuli/Nonsocial4.png,,,"(-0.7, -0.5)",cs_pos_ns,"(-0.7, 0.5)",cs_pos_s,"(0.7, -0.5)",cs_neg_s,"(0.7, 0.5)",cs_neg_ns,0,0,0,0,,,,,,,,,,,,,,,,,,,,,1,13,37,19,,,,,,,,,,,,,,,,,,,,,,,,,,,330,reward,,,,,,1372.065405,1372.065405,1372.065405,1372.065405,0,,,1,0.023984100000006947,0.18499140000017178,0,,,0,,,1372.9334410000001,1372.9334410000001,1372.9334410000001,1372.9334410000001,17,A,2024-04-24_16h37.45.263,attentional_competition_task,2022.2.4,144.10530062531902,
positions.xlsx,positions_test.xlsx,positions_test_new.xlsx,stimuli.xlsx,stimuli_new.xlsx,stimuli/Social1.png,stimuli/Social2.png,stimuli/Nonsocial1.png,stimuli/Nonsocial2.png,stimuli/Social3.png,stimuli/Social4.png,stimuli/Nonsocial3.png,stimuli/Nonsocial4.png,,,"(-0.7, -0.5)",cs_neg_s,"(-0.7, 0.5)",cs_neg_ns,"(0.7, -0.5)",cs_pos_ns,"(0.7, 0.5)",cs_pos_s,0,0,0,0,,,,,,,,,,,,,,,,,,,,,1,14,38,3,,,,,,,,,,,,,,,,,,,,,,,,,,,339,reward,,,,,,1381.2178191,1381.2178191,1381.2178191,1381.2178191,0,,,0,,,0,,,1,0.024730000000090513,0.1159807000001365,1382.0164324,1382.0164324,1382.0164324,1382.0164324,17,A,2024-04-24_16h37.45.263,attentional_competition_task,2022.2.4,144.10530062531902,
positions.xlsx,positions_test.xlsx,positions_test_new.xlsx,stimuli.xlsx,stimuli_new.xlsx,stimuli/Social1.png,stimuli/Social2.png,stimuli/Nonsocial1.png,stimuli/Nonsocial2.png,stimuli/Social3.png,stimuli/Social4.png,stimuli/Nonsocial3.png,stimuli/Nonsocial4.png,,,"(-0.7, -0.5)",cs_neg_ns,"(-0.7, 0.5)",cs_pos_ns,"(0.7, -0.5)",cs_neg_s,"(0.7, 0.5)",cs_pos_s,0,0,0,0,,,,,,,,,,,,,,,,,,,,,1,15,39,17,,,,,,,,,,,,,,,,,,,,,,,,,,,348,reward,,,,,,1389.8216721000001,1389.8216721000001,1389.8216721000001,1389.8216721000001,0,,,0,,,0,,,0,,,1390.7174824,1390.7174824,1390.7174824,1390.7174824,17,A,2024-04-24_16h37.45.263,attentional_competition_task,2022.2.4,144.10530062531902,
positions.xlsx,positions_test.xlsx,positions_test_new.xlsx,stimuli.xlsx,stimuli_new.xlsx,stimuli/Social1.png,stimuli/Social2.png,stimuli/Nonsocial1.png,stimuli/Nonsocial2.png,stimuli/Social3.png,stimuli/Social4.png,stimuli/Nonsocial3.png,stimuli/Nonsocial4.png,,,"(-0.7, -0.5)",cs_neg_ns,"(-0.7, 0.5)",cs_neg_s,"(0.7, -0.5)",cs_pos_s,"(0.7, 0.5)",cs_pos_ns,0,0,0,0,,,,,,,,,,,,,,,,,,,,,1,16,40,14,,,,,,,,,,,,,,,,,,,,,,,,,,,351,loss,,,,,,1397.7380288000002,1397.7380288000002,1397.7380288000002,1397.7380288000002,1,0.3732395000001816,0.3802915999999641,0,,,0,,,0,,,1398.1199681,1398.1199681,1398.1199681,1398.1199681,17,A,2024-04-24_16h37.45.263,attentional_competition_task,2022.2.4,144.10530062531902,
positions.xlsx,positions_test.xlsx,positions_test_new.xlsx,stimuli.xlsx,stimuli_new.xlsx,stimuli/Social1.png,stimuli/Social2.png,stimuli/Nonsocial1.png,stimuli/Nonsocial2.png,stimuli/Social3.png,stimuli/Social4.png,stimuli/Nonsocial3.png,stimuli/Nonsocial4.png,,,"(-0.7, -0.5)",cs_neg_ns,"(-0.7, 0.5)",cs_pos_s,"(0.7, -0.5)",cs_pos_ns,"(0.7, 0.5)",cs_neg_s,0,0,0,0,,,,,,,,,,,,,,,,,,,,,1,17,41,13,,,,,,,,,,,,,,,,,,,,,,,,,,,354,reward,,,,,,1406.1960080000001,1406.1960080000001,1406.1960080000001,1406.1960080000001,0,,,1,0.026204300000244984,0.02620810000007623,0,,,0,,,1406.1960080000001,1406.1960080000001,1406.1960080000001,1406.1960080000001,17,A,2024-04-24_16h37.45.263,attentional_competition_task,2022.2.4,144.10530062531902,
positions.xlsx,positions_test.xlsx,positions_test_new.xlsx,stimuli.xlsx,stimuli_new.xlsx,stimuli/Social1.png,stimuli/Social2.png,stimuli/Nonsocial1.png,stimuli/Nonsocial2.png,stimuli/Social3.png,stimuli/Social4.png,stimuli/Nonsocial3.png,stimuli/Nonsocial4.png,,,"(-0.7, -0.5)",cs_pos_s,"(-0.7, 0.5)",cs_neg_ns,"(0.7, -0.5)",cs_pos_ns,"(0.7, 0.5)",cs_neg_s,0,0,0,0,,,,,,,,,,,,,,,,,,,,,1,18,42,9,,,,,,,,,,,,,,,,,,,,,,,,,,,357,reward,,,,,,1414.2512481,1414.2512481,1414.2512481,1414.2512481,1,0.027940400000261434,0.027944200000092678,0,,,0,,,0,,,1414.2512481,1414.2512481,1414.2512481,1414.2512481,17,A,2024-04-24_16h37.45.263,attentional_competition_task,2022.2.4,144.10530062531902,
positions.xlsx,positions_test.xlsx,positions_test_new.xlsx,stimuli.xlsx,stimuli_new.xlsx,stimuli/Social1.png,stimuli/Social2.png,stimuli/Nonsocial1.png,stimuli/Nonsocial2.png,stimuli/Social3.png,stimuli/Social4.png,stimuli/Nonsocial3.png,stimuli/Nonsocial4.png,,,"(-0.7, -0.5)",cs_pos_s,"(-0.7, 0.5)",cs_neg_ns,"(0.7, -0.5)",cs_neg_s,"(0.7, 0.5)",cs_pos_ns,0,0,0,0,,,,,,,,,,,,,,,,,,,,,1,19,43,8,,,,,,,,,,,,,,,,,,,,,,,,,,,366,reward,,,,,,1423.0981506,1423.0981506,1423.0981506,1423.0981506,1,0.026012399999672198,0.33104370000000927,0,,,0,,,0,,,1423.93146,1423.93146,1423.93146,1423.93146,17,A,2024-04-24_16h37.45.263,attentional_competition_task,2022.2.4,144.10530062531902,
positions.xlsx,positions_test.xlsx,positions_test_new.xlsx,stimuli.xlsx,stimuli_new.xlsx,stimuli/Social1.png,stimuli/Social2.png,stimuli/Nonsocial1.png,stimuli/Nonsocial2.png,stimuli/Social3.png,stimuli/Social4.png,stimuli/Nonsocial3.png,stimuli/Nonsocial4.png,,,"(-0.7, -0.5)",cs_neg_ns,"(-0.7, 0.5)",cs_neg_s,"(0.7, -0.5)",cs_pos_ns,"(0.7, 0.5)",cs_pos_s,0,0,0,0,,,,,,,,,,,,,,,,,,,,,1,20,44,15,,,,,,,,,,,,,,,,,,,,,,,,,,,375,reward,,,,,,1431.3130872,1431.3130872,1431.3130872,1431.3130872,0,,,0,,,0,,,1,0.0287279999997736,0.49569100000007893,1432.3130795,1432.3130795,1432.3130795,1432.3130795,17,A,2024-04-24_16h37.45.263,attentional_competition_task,2022.2.4,144.10530062531902,
positions.xlsx,positions_test.xlsx,positions_test_new.xlsx,stimuli.xlsx,stimuli_new.xlsx,stimuli/Social1.png,stimuli/Social2.png,stimuli/Nonsocial1.png,stimuli/Nonsocial2.png,stimuli/Social3.png,stimuli/Social4.png,stimuli/Nonsocial3.png,stimuli/Nonsocial4.png,,,"(-0.7, -0.5)",cs_pos_ns,"(-0.7, 0.5)",cs_neg_s,"(0.7, -0.5)",cs_neg_ns,"(0.7, 0.5)",cs_pos_s,0,0,0,0,,,,,,,,,,,,,,,,,,,,,1,21,45,23,,,,,,,,,,,,,,,,,,,,,,,,,,,381,reward,,,,,,1440.3058671000001,1440.3058671000001,1440.3058671000001,1440.3058671000001,0,,,0,,,0,,,0,,,1440.937787,1440.937787,1440.937787,1440.937787,17,A,2024-04-24_16h37.45.263,attentional_competition_task,2022.2.4,144.10530062531902,
positions.xlsx,positions_test.xlsx,positions_test_new.xlsx,stimuli.xlsx,stimuli_new.xlsx,stimuli/Social1.png,stimuli/Social2.png,stimuli/Nonsocial1.png,stimuli/Nonsocial2.png,stimuli/Social3.png,stimuli/Social4.png,stimuli/Nonsocial3.png,stimuli/Nonsocial4.png,,,"(-0.7, -0.5)",cs_pos_ns,"(-0.7, 0.5)",cs_pos_s,"(0.7, -0.5)",cs_neg_ns,"(0.7, 0.5)",cs_neg_s,0,0,0,0,,,,,,,,,,,,,,,,,,,,,1,22,46,18,,,,,,,,,,,,,,,,,,,,,,,,,,,390,reward,,,,,,1448.4374304,1448.4374304,1448.4374304,1448.4374304,0,,,1,0.02209359999960725,0.260369399999945,0,,,0,,,1449.4304746,1449.4304746,1449.4304746,1449.4304746,17,A,2024-04-24_16h37.45.263,attentional_competition_task,2022.2.4,144.10530062531902,
positions.xlsx,positions_test.xlsx,positions_test_new.xlsx,stimuli.xlsx,stimuli_new.xlsx,stimuli/Social1.png,stimuli/Social2.png,stimuli/Nonsocial1.png,stimuli/Nonsocial2.png,stimuli/Social3.png,stimuli/Social4.png,stimuli/Nonsocial3.png,stimuli/Nonsocial4.png,,,"(-0.7, -0.5)",cs_pos_s,"(-0.7, 0.5)",cs_neg_s,"(0.7, -0.5)",cs_pos_ns,"(0.7, 0.5)",cs_neg_ns,0,0,0,0,,,,,,,,,,,,,,,,,,,,,1,23,47,7,,,,,,,,,,,,,,,,,,,,,,,,,,,399,reward,,,,,,1456.9440317,1456.9440317,1456.9440317,1456.9440317,1,0.02382800000032148,0.038700100000369275,0,,,0,,,0,,,1457.9162542000001,1457.9162542000001,1457.9162542000001,1457.9162542000001,17,A,2024-04-24_16h37.45.263,attentional_competition_task,2022.2.4,144.10530062531902,
positions.xlsx,positions_test.xlsx,positions_test_new.xlsx,stimuli.xlsx,stimuli_new.xlsx,stimuli/Social1.png,stimuli/Social2.png,stimuli/Nonsocial1.png,stimuli/Nonsocial2.png,stimuli/Social3.png,stimuli/Social4.png,stimuli/Nonsocial3.png,stimuli/Nonsocial4.png,,,"(-0.7, -0.5)",cs_pos_s,"(-0.7, 0.5)",cs_neg_ns,"(0.7, -0.5)",cs_pos_ns,"(0.7, 0.5)",cs_neg_s,0,0,0,0,,,,,,,,,,,,,,,,,,,,,,,,,,,,,0,0,0,2,0,0,0,0,,,,,,,,,,,,,,,402,reward,,,,,,1464.4368021000002,1464.4368021000002,1464.4368021000002,1464.4368021000002,0,,,0,,,1,0.47451809999984107,0.4816734999999426,0,,,1464.9298849,1464.9298849,1464.9298849,1464.9298849,17,A,2024-04-24_16h37.45.263,attentional_competition_task,2022.2.4,144.10530062531902,
positions.xlsx,positions_test.xlsx,positions_test_new.xlsx,stimuli.xlsx,stimuli_new.xlsx,stimuli/Social1.png,stimuli/Social2.png,stimuli/Nonsocial1.png,stimuli/Nonsocial2.png,stimuli/Social3.png,stimuli/Social4.png,stimuli/Nonsocial3.png,stimuli/Nonsocial4.png,,,"(-0.7, -0.5)",cs_pos_s,"(-0.7, 0.5)",cs_neg_ns,"(0.7, -0.5)",cs_pos_ns,"(0.7, 0.5)",cs_neg_s,0,0,0,0,,,,,,,,,,,,,,,,,,,,,,,,,,,,,0,0,0,2,1,0,1,0,,,,,,,,,,,,,,,405,reward,,,,,,1465.4576106000002,1465.4576106000002,1465.4576106000002,1465.4576106000002,1,0.02349610000010216,0.02349980000008145,0,,,0,,,0,,,1465.4576106000002,1465.4576106000002,1465.4576106000002,1465.4576106000002,17,A,2024-04-24_16h37.45.263,attentional_competition_task,2022.2.4,144.10530062531902,
positions.xlsx,positions_test.xlsx,positions_test_new.xlsx,stimuli.xlsx,stimuli_new.xlsx,stimuli/Social1.png,stimuli/Social2.png,stimuli/Nonsocial1.png,stimuli/Nonsocial2.png,stimuli/Social3.png,stimuli/Social4.png,stimuli/Nonsocial3.png,stimuli/Nonsocial4.png,,,"(-0.7, -0.5)",cs_pos_s,"(-0.7, 0.5)",cs_neg_ns,"(0.7, -0.5)",cs_pos_ns,"(0.7, 0.5)",cs_neg_s,0,0,0,0,,,,,,,,,,,,,,,,,,,,,,,,,,,,,0,0,0,2,2,0,2,0,,,,,,,,,,,,,,,408,reward,,,,,,1465.9575766,1465.9575766,1465.9575766,1465.9575766,1,0.027836899999783782,0.2174420999999711,0,,,0,,,0,,,1466.9506451,1466.9506451,1466.9506451,1466.9506451,17,A,2024-04-24_16h37.45.263,attentional_competition_task,2022.2.4,144.10530062531902,
positions.xlsx,positions_test.xlsx,positions_test_new.xlsx,stimuli.xlsx,stimuli_new.xlsx,stimuli/Social1.png,stimuli/Social2.png,stimuli/Nonsocial1.png,stimuli/Nonsocial2.png,stimuli/Social3.png,stimuli/Social4.png,stimuli/Nonsocial3.png,stimuli/Nonsocial4.png,,,"(-0.7, -0.5)",cs_pos_s,"(-0.7, 0.5)",cs_neg_ns,"(0.7, -0.5)",cs_pos_ns,"(0.7, 0.5)",cs_neg_s,0,0,0,0,,,,,,,,,,,,,,,,,,,,,,,,,,,,,0,0,0,2,,,,,,,,,,,,,,,,,,,,,,,,,,,,,,,,,,,,,,,,,,,,,,17,A,2024-04-24_16h37.45.263,attentional_competition_task,2022.2.4,144.10530062531902,
positions.xlsx,positions_test.xlsx,positions_test_new.xlsx,stimuli.xlsx,stimuli_new.xlsx,stimuli/Social1.png,stimuli/Social2.png,stimuli/Nonsocial1.png,stimuli/Nonsocial2.png,stimuli/Social3.png,stimuli/Social4.png,stimuli/Nonsocial3.png,stimuli/Nonsocial4.png,,,"(-0.7, -0.5)",cs_neg_s,"(-0.7, 0.5)",cs_pos_s_new,"(0.7, -0.5)",cs_neg_ns,"(0.7, 0.5)",cs_pos_ns,0,0,0,0,,,,,,,,,,,,,,,,,,,,,,,,,,,,,0,1,1,29,0,0,0,0,,,,,,,,,,,,,,,411,reward,,,,,,1473.4503622,1473.4503622,1473.4503622,1473.4503622,0,,,0,,,0,,,1,0.6273670999999013,0.6273707000000286,1474.0823155,1474.0823155,1474.0823155,1474.0823155,17,A,2024-04-24_16h37.45.263,attentional_competition_task,2022.2.4,144.10530062531902,
positions.xlsx,positions_test.xlsx,positions_test_new.xlsx,stimuli.xlsx,stimuli_new.xlsx,stimuli/Social1.png,stimuli/Social2.png,stimuli/Nonsocial1.png,stimuli/Nonsocial2.png,stimuli/Social3.png,stimuli/Social4.png,stimuli/Nonsocial3.png,stimuli/Nonsocial4.png,,,"(-0.7, -0.5)",cs_neg_s,"(-0.7, 0.5)",cs_pos_s_new,"(0.7, -0.5)",cs_neg_ns,"(0.7, 0.5)",cs_pos_ns,0,0,0,0,,,,,,,,,,,,,,,,,,,,,,,,,,,,,0,1,1,29,1,0,1,0,,,,,,,,,,,,,,,414,reward,,,,,,1474.6169615000001,1474.6169615000001,1474.6169615000001,1474.6169615000001,0,,,1,0.02952529999993203,0.029529200000069977,0,,,0,,,1474.6169615000001,1474.6169615000001,1474.6169615000001,1474.6169615000001,17,A,2024-04-24_16h37.45.263,attentional_competition_task,2022.2.4,144.10530062531902,
positions.xlsx,positions_test.xlsx,positions_test_new.xlsx,stimuli.xlsx,stimuli_new.xlsx,stimuli/Social1.png,stimuli/Social2.png,stimuli/Nonsocial1.png,stimuli/Nonsocial2.png,stimuli/Social3.png,stimuli/Social4.png,stimuli/Nonsocial3.png,stimuli/Nonsocial4.png,,,"(-0.7, -0.5)",cs_neg_s,"(-0.7, 0.5)",cs_pos_s_new,"(0.7, -0.5)",cs_neg_ns,"(0.7, 0.5)",cs_pos_ns,0,0,0,0,,,,,,,,,,,,,,,,,,,,,,,,,,,,,0,1,1,29,2,0,2,0,,,,,,,,,,,,,,,411,loss,,,,,,1475.1169188000001,1475.1169188000001,1475.1169188000001,1475.1169188000001,1,0.2607474000001275,0.2677966999999626,1,0.024886100000003353,0.2609526999999616,0,,,0,,,1475.3877571,1475.3877571,1475.3877571,1475.3877571,17,A,2024-04-24_16h37.45.263,attentional_competition_task,2022.2.4,144.10530062531902,
positions.xlsx,positions_test.xlsx,positions_test_new.xlsx,stimuli.xlsx,stimuli_new.xlsx,stimuli/Social1.png,stimuli/Social2.png,stimuli/Nonsocial1.png,stimuli/Nonsocial2.png,stimuli/Social3.png,stimuli/Social4.png,stimuli/Nonsocial3.png,stimuli/Nonsocial4.png,,,"(-0.7, -0.5)",cs_neg_s,"(-0.7, 0.5)",cs_pos_s_new,"(0.7, -0.5)",cs_neg_ns,"(0.7, 0.5)",cs_pos_ns,0,0,0,0,,,,,,,,,,,,,,,,,,,,,,,,,,,,,0,1,1,29,,,,,,,,,,,,,,,,,,,,,,,,,,,,,,,,,,,,,,,,,,,,,,17,A,2024-04-24_16h37.45.263,attentional_competition_task,2022.2.4,144.10530062531902,
positions.xlsx,positions_test.xlsx,positions_test_new.xlsx,stimuli.xlsx,stimuli_new.xlsx,stimuli/Social1.png,stimuli/Social2.png,stimuli/Nonsocial1.png,stimuli/Nonsocial2.png,stimuli/Social3.png,stimuli/Social4.png,stimuli/Nonsocial3.png,stimuli/Nonsocial4.png,,,"(-0.7, -0.5)",cs_pos_ns,"(-0.7, 0.5)",cs_neg_s,"(0.7, -0.5)",cs_pos_s,"(0.7, 0.5)",cs_neg_ns_new,0,0,0,0,,,,,,,,,,,,,,,,,,,,,,,,,,,,,0,2,2,22,0,0,0,0,,,,,,,,,,,,,,,408,loss,,,,,,1482.6514097000002,1482.6514097000002,1482.6514097000002,1482.6514097000002,0,,,0,,,0,,,1,0.34303819999968255,0.3430423999998311,1482.9986129000001,1482.9986129000001,1482.9986129000001,1482.9986129000001,17,A,2024-04-24_16h37.45.263,attentional_competition_task,2022.2.4,144.10530062531902,
positions.xlsx,positions_test.xlsx,positions_test_new.xlsx,stimuli.xlsx,stimuli_new.xlsx,stimuli/Social1.png,stimuli/Social2.png,stimuli/Nonsocial1.png,stimuli/Nonsocial2.png,stimuli/Social3.png,stimuli/Social4.png,stimuli/Nonsocial3.png,stimuli/Nonsocial4.png,,,"(-0.7, -0.5)",cs_pos_ns,"(-0.7, 0.5)",cs_neg_s,"(0.7, -0.5)",cs_pos_s,"(0.7, 0.5)",cs_neg_ns_new,0,0,0,0,,,,,,,,,,,,,,,,,,,,,,,,,,,,,0,2,2,22,1,0,1,0,,,,,,,,,,,,,,,411,reward,,,,,,1483.5263714,1483.5263714,1483.5263714,1483.5263714,0,,,0,,,1,0.028829899999891495,0.028833700000177487,0,,,1483.5263714,1483.5263714,1483.5263714,1483.5263714,17,A,2024-04-24_16h37.45.263,attentional_competition_task,2022.2.4,144.10530062531902,
positions.xlsx,positions_test.xlsx,positions_test_new.xlsx,stimuli.xlsx,stimuli_new.xlsx,stimuli/Social1.png,stimuli/Social2.png,stimuli/Nonsocial1.png,stimuli/Nonsocial2.png,stimuli/Social3.png,stimuli/Social4.png,stimuli/Nonsocial3.png,stimuli/Nonsocial4.png,,,"(-0.7, -0.5)",cs_pos_ns,"(-0.7, 0.5)",cs_neg_s,"(0.7, -0.5)",cs_pos_s,"(0.7, 0.5)",cs_neg_ns_new,0,0,0,0,,,,,,,,,,,,,,,,,,,,,,,,,,,,,0,2,2,22,2,0,2,0,,,,,,,,,,,,,,,408,loss,,,,,,1484.0263401999998,1484.0263401999998,1484.0263401999998,1484.0263401999998,0,,,1,0.03237429999990127,0.046183100000234845,0,,,0,,,1484.0749793000002,1484.0749793000002,1484.0749793000002,1484.0749793000002,17,A,2024-04-24_16h37.45.263,attentional_competition_task,2022.2.4,144.10530062531902,
positions.xlsx,positions_test.xlsx,positions_test_new.xlsx,stimuli.xlsx,stimuli_new.xlsx,stimuli/Social1.png,stimuli/Social2.png,stimuli/Nonsocial1.png,stimuli/Nonsocial2.png,stimuli/Social3.png,stimuli/Social4.png,stimuli/Nonsocial3.png,stimuli/Nonsocial4.png,,,"(-0.7, -0.5)",cs_pos_ns,"(-0.7, 0.5)",cs_neg_s,"(0.7, -0.5)",cs_pos_s,"(0.7, 0.5)",cs_neg_ns_new,0,0,0,0,,,,,,,,,,,,,,,,,,,,,,,,,,,,,0,2,2,22,3,0,3,0,,,,,,,,,,,,,,,411,reward,,,,,,1484.6165947000002,1484.6165947000002,1484.6165947000002,1484.6165947000002,1,0.028738499999690248,0.02874249999968015,0,,,0,,,0,,,1484.6165947000002,1484.6165947000002,1484.6165947000002,1484.6165947000002,17,A,2024-04-24_16h37.45.263,attentional_competition_task,2022.2.4,144.10530062531902,
positions.xlsx,positions_test.xlsx,positions_test_new.xlsx,stimuli.xlsx,stimuli_new.xlsx,stimuli/Social1.png,stimuli/Social2.png,stimuli/Nonsocial1.png,stimuli/Nonsocial2.png,stimuli/Social3.png,stimuli/Social4.png,stimuli/Nonsocial3.png,stimuli/Nonsocial4.png,,,"(-0.7, -0.5)",cs_pos_ns,"(-0.7, 0.5)",cs_neg_s,"(0.7, -0.5)",cs_pos_s,"(0.7, 0.5)",cs_neg_ns_new,0,0,0,0,,,,,,,,,,,,,,,,,,,,,,,,,,,,,0,2,2,22,,,,,,,,,,,,,,,,,,,,,,,,,,,,,,,,,,,,,,,,,,,,,,17,A,2024-04-24_16h37.45.263,attentional_competition_task,2022.2.4,144.10530062531902,
positions.xlsx,positions_test.xlsx,positions_test_new.xlsx,stimuli.xlsx,stimuli_new.xlsx,stimuli/Social1.png,stimuli/Social2.png,stimuli/Nonsocial1.png,stimuli/Nonsocial2.png,stimuli/Social3.png,stimuli/Social4.png,stimuli/Nonsocial3.png,stimuli/Nonsocial4.png,,,"(-0.7, -0.5)",cs_neg_s,"(-0.7, 0.5)",cs_neg_ns,"(0.7, -0.5)",cs_pos_ns,"(0.7, 0.5)",cs_pos_s_new,0,0,0,0,,,,,,,,,,,,,,,,,,,,,,,,,,,,,0,3,3,37,0,0,0,0,,,,,,,,,,,,,,,414,reward,,,,,,1491.0538343,1491.0538343,1491.0538343,1491.0538343,0,,,0,,,0,,,1,0.8011744999998882,0.8011784999998781,1491.8594079000002,1491.8594079000002,1491.8594079000002,1491.8594079000002,17,A,2024-04-24_16h37.45.263,attentional_competition_task,2022.2.4,144.10530062531902,
positions.xlsx,positions_test.xlsx,positions_test_new.xlsx,stimuli.xlsx,stimuli_new.xlsx,stimuli/Social1.png,stimuli/Social2.png,stimuli/Nonsocial1.png,stimuli/Nonsocial2.png,stimuli/Social3.png,stimuli/Social4.png,stimuli/Nonsocial3.png,stimuli/Nonsocial4.png,,,"(-0.7, -0.5)",cs_neg_s,"(-0.7, 0.5)",cs_neg_ns,"(0.7, -0.5)",cs_pos_ns,"(0.7, 0.5)",cs_pos_s_new,0,0,0,0,,,,,,,,,,,,,,,,,,,,,,,,,,,,,0,3,3,37,1,0,1,0,,,,,,,,,,,,,,,417,reward,,,,,,1492.3940639,1492.3940639,1492.3940639,1492.3940639,0,,,0,,,1,0.030123400000320544,0.03012699999999313,0,,,1492.3940639,1492.3940639,1492.3940639,1492.3940639,17,A,2024-04-24_16h37.45.263,attentional_competition_task,2022.2.4,144.10530062531902,
positions.xlsx,positions_test.xlsx,positions_test_new.xlsx,stimuli.xlsx,stimuli_new.xlsx,stimuli/Social1.png,stimuli/Social2.png,stimuli/Nonsocial1.png,stimuli/Nonsocial2.png,stimuli/Social3.png,stimuli/Social4.png,stimuli/Nonsocial3.png,stimuli/Nonsocial4.png,,,"(-0.7, -0.5)",cs_neg_s,"(-0.7, 0.5)",cs_neg_ns,"(0.7, -0.5)",cs_pos_ns,"(0.7, 0.5)",cs_pos_s_new,0,0,0,0,,,,,,,,,,,,,,,,,,,,,,,,,,,,,0,3,3,37,2,0,2,0,,,,,,,,,,,,,,,414,loss,,,,,,1492.9218075,1492.9218075,1492.9218075,1492.9218075,1,0.02940069999976913,0.029404299999896466,0,,,0,,,0,,,1492.9218075,1492.9218075,1492.9218075,1492.9218075,17,A,2024-04-24_16h37.45.263,attentional_competition_task,2022.2.4,144.10530062531902,
positions.xlsx,positions_test.xlsx,positions_test_new.xlsx,stimuli.xlsx,stimuli_new.xlsx,stimuli/Social1.png,stimuli/Social2.png,stimuli/Nonsocial1.png,stimuli/Nonsocial2.png,stimuli/Social3.png,stimuli/Social4.png,stimuli/Nonsocial3.png,stimuli/Nonsocial4.png,,,"(-0.7, -0.5)",cs_neg_s,"(-0.7, 0.5)",cs_neg_ns,"(0.7, -0.5)",cs_pos_ns,"(0.7, 0.5)",cs_pos_s_new,0,0,0,0,,,,,,,,,,,,,,,,,,,,,,,,,,,,,0,3,3,37,,,,,,,,,,,,,,,,,,,,,,,,,,,,,,,,,,,,,,,,,,,,,,17,A,2024-04-24_16h37.45.263,attentional_competition_task,2022.2.4,144.10530062531902,
positions.xlsx,positions_test.xlsx,positions_test_new.xlsx,stimuli.xlsx,stimuli_new.xlsx,stimuli/Social1.png,stimuli/Social2.png,stimuli/Nonsocial1.png,stimuli/Nonsocial2.png,stimuli/Social3.png,stimuli/Social4.png,stimuli/Nonsocial3.png,stimuli/Nonsocial4.png,,,"(-0.7, -0.5)",cs_pos_ns,"(-0.7, 0.5)",cs_pos_s,"(0.7, -0.5)",cs_neg_ns_new,"(0.7, 0.5)",cs_neg_s,0,0,0,0,,,,,,,,,,,,,,,,,,,,,,,,,,,,,0,4,4,19,0,0,0,0,,,,,,,,,,,,,,,417,reward,,,,,,1499.3868525,1499.3868525,1499.3868525,1499.3868525,0,,,1,0.7449541000000863,0.7449579999997695,0,,,0,,,1500.1368822000002,1500.1368822000002,1500.1368822000002,1500.1368822000002,17,A,2024-04-24_16h37.45.263,attentional_competition_task,2022.2.4,144.10530062531902,
positions.xlsx,positions_test.xlsx,positions_test_new.xlsx,stimuli.xlsx,stimuli_new.xlsx,stimuli/Social1.png,stimuli/Social2.png,stimuli/Nonsocial1.png,stimuli/Nonsocial2.png,stimuli/Social3.png,stimuli/Social4.png,stimuli/Nonsocial3.png,stimuli/Nonsocial4.png,,,"(-0.7, -0.5)",cs_pos_ns,"(-0.7, 0.5)",cs_pos_s,"(0.7, -0.5)",cs_neg_ns_new,"(0.7, 0.5)",cs_neg_s,0,0,0,0,,,,,,,,,,,,,,,,,,,,,,,,,,,,,0,4,4,19,1,0,1,0,,,,,,,,,,,,,,,420,reward,,,,,,1500.6368079000001,1500.6368079000001,1500.6368079000001,1500.6368079000001,1,0.3915944000000309,0.39159810000001016,0,,,0,,,0,,,1501.0326298000002,1501.0326298000002,1501.0326298000002,1501.0326298000002,17,A,2024-04-24_16h37.45.263,attentional_competition_task,2022.2.4,144.10530062531902,
positions.xlsx,positions_test.xlsx,positions_test_new.xlsx,stimuli.xlsx,stimuli_new.xlsx,stimuli/Social1.png,stimuli/Social2.png,stimuli/Nonsocial1.png,stimuli/Nonsocial2.png,stimuli/Social3.png,stimuli/Social4.png,stimuli/Nonsocial3.png,stimuli/Nonsocial4.png,,,"(-0.7, -0.5)",cs_pos_ns,"(-0.7, 0.5)",cs_pos_s,"(0.7, -0.5)",cs_neg_ns_new,"(0.7, 0.5)",cs_neg_s,0,0,0,0,,,,,,,,,,,,,,,,,,,,,,,,,,,,,0,4,4,19,,,,,,,,,,,,,,,,,,,,,,,,,,,,,,,,,,,,,,,,,,,,,,17,A,2024-04-24_16h37.45.263,attentional_competition_task,2022.2.4,144.10530062531902,
positions.xlsx,positions_test.xlsx,positions_test_new.xlsx,stimuli.xlsx,stimuli_new.xlsx,stimuli/Social1.png,stimuli/Social2.png,stimuli/Nonsocial1.png,stimuli/Nonsocial2.png,stimuli/Social3.png,stimuli/Social4.png,stimuli/Nonsocial3.png,stimuli/Nonsocial4.png,,,"(-0.7, -0.5)",cs_neg_s_new,"(-0.7, 0.5)",cs_pos_ns,"(0.7, -0.5)",cs_neg_ns,"(0.7, 0.5)",cs_pos_s,0,0,0,0,,,,,,,,,,,,,,,,,,,,,,,,,,,,,0,5,5,12,0,0,0,0,,,,,,,,,,,,,,,423,reward,,,,,,1507.7267946,1507.7267946,1507.7267946,1507.7267946,0,,,1,0.8007989000002453,0.8008026000002246,0,,,0,,,1508.5253902000002,1508.5253902000002,1508.5253902000002,1508.5253902000002,17,A,2024-04-24_16h37.45.263,attentional_competition_task,2022.2.4,144.10530062531902,
positions.xlsx,positions_test.xlsx,positions_test_new.xlsx,stimuli.xlsx,stimuli_new.xlsx,stimuli/Social1.png,stimuli/Social2.png,stimuli/Nonsocial1.png,stimuli/Nonsocial2.png,stimuli/Social3.png,stimuli/Social4.png,stimuli/Nonsocial3.png,stimuli/Nonsocial4.png,,,"(-0.7, -0.5)",cs_neg_s_new,"(-0.7, 0.5)",cs_pos_ns,"(0.7, -0.5)",cs_neg_ns,"(0.7, 0.5)",cs_pos_s,0,0,0,0,,,,,,,,,,,,,,,,,,,,,,,,,,,,,0,5,5,12,1,0,1,0,,,,,,,,,,,,,,,420,loss,,,,,,1509.0600898999999,1509.0600898999999,1509.0600898999999,1509.0600898999999,1,0.03009550000024319,0.030099600000085047,0,,,0,,,0,,,1509.0600898999999,1509.0600898999999,1509.0600898999999,1509.0600898999999,17,A,2024-04-24_16h37.45.263,attentional_competition_task,2022.2.4,144.10530062531902,
positions.xlsx,positions_test.xlsx,positions_test_new.xlsx,stimuli.xlsx,stimuli_new.xlsx,stimuli/Social1.png,stimuli/Social2.png,stimuli/Nonsocial1.png,stimuli/Nonsocial2.png,stimuli/Social3.png,stimuli/Social4.png,stimuli/Nonsocial3.png,stimuli/Nonsocial4.png,,,"(-0.7, -0.5)",cs_neg_s_new,"(-0.7, 0.5)",cs_pos_ns,"(0.7, -0.5)",cs_neg_ns,"(0.7, 0.5)",cs_pos_s,0,0,0,0,,,,,,,,,,,,,,,,,,,,,,,,,,,,,0,5,5,12,2,0,2,0,,,,,,,,,,,,,,,423,reward,,,,,,1509.5600769,1509.5600769,1509.5600769,1509.5600769,1,0.022868199999720673,0.044455199999902106,0,,,0,,,1,0.10725559999991674,0.10725929999989603,1509.6711612000001,1509.6711612000001,1509.6711612000001,1509.6711612000001,17,A,2024-04-24_16h37.45.263,attentional_competition_task,2022.2.4,144.10530062531902,
positions.xlsx,positions_test.xlsx,positions_test_new.xlsx,stimuli.xlsx,stimuli_new.xlsx,stimuli/Social1.png,stimuli/Social2.png,stimuli/Nonsocial1.png,stimuli/Nonsocial2.png,stimuli/Social3.png,stimuli/Social4.png,stimuli/Nonsocial3.png,stimuli/Nonsocial4.png,,,"(-0.7, -0.5)",cs_neg_s_new,"(-0.7, 0.5)",cs_pos_ns,"(0.7, -0.5)",cs_neg_ns,"(0.7, 0.5)",cs_pos_s,0,0,0,0,,,,,,,,,,,,,,,,,,,,,,,,,,,,,0,5,5,12,,,,,,,,,,,,,,,,,,,,,,,,,,,,,,,,,,,,,,,,,,,,,,17,A,2024-04-24_16h37.45.263,attentional_competition_task,2022.2.4,144.10530062531902,
positions.xlsx,positions_test.xlsx,positions_test_new.xlsx,stimuli.xlsx,stimuli_new.xlsx,stimuli/Social1.png,stimuli/Social2.png,stimuli/Nonsocial1.png,stimuli/Nonsocial2.png,stimuli/Social3.png,stimuli/Social4.png,stimuli/Nonsocial3.png,stimuli/Nonsocial4.png,,,"(-0.7, -0.5)",cs_pos_ns,"(-0.7, 0.5)",cs_neg_s_new,"(0.7, -0.5)",cs_pos_s,"(0.7, 0.5)",cs_neg_ns,0,0,0,0,,,,,,,,,,,,,,,,,,,,,,,,,,,,,0,6,6,13,0,0,0,0,,,,,,,,,,,,,,,426,reward,,,,,,1515.9556258,1515.9556258,1515.9556258,1515.9556258,1,0.5224673999996412,0.5224713999996311,0,,,0,,,0,,,1516.4834106,1516.4834106,1516.4834106,1516.4834106,17,A,2024-04-24_16h37.45.263,attentional_competition_task,2022.2.4,144.10530062531902,
positions.xlsx,positions_test.xlsx,positions_test_new.xlsx,stimuli.xlsx,stimuli_new.xlsx,stimuli/Social1.png,stimuli/Social2.png,stimuli/Nonsocial1.png,stimuli/Nonsocial2.png,stimuli/Social3.png,stimuli/Social4.png,stimuli/Nonsocial3.png,stimuli/Nonsocial4.png,,,"(-0.7, -0.5)",cs_pos_ns,"(-0.7, 0.5)",cs_neg_s_new,"(0.7, -0.5)",cs_pos_s,"(0.7, 0.5)",cs_neg_ns,0,0,0,0,,,,,,,,,,,,,,,,,,,,,,,,,,,,,0,6,6,13,1,0,1,0,,,,,,,,,,,,,,,423,loss,,,,,,1517.0111702000002,1517.0111702000002,1517.0111702000002,1517.0111702000002,0,,,1,0.028584399999999732,0.028588199999830977,0,,,0,,,1517.0111702000002,1517.0111702000002,1517.0111702000002,1517.0111702000002,17,A,2024-04-24_16h37.45.263,attentional_competition_task,2022.2.4,144.10530062531902,
positions.xlsx,positions_test.xlsx,positions_test_new.xlsx,stimuli.xlsx,stimuli_new.xlsx,stimuli/Social1.png,stimuli/Social2.png,stimuli/Nonsocial1.png,stimuli/Nonsocial2.png,stimuli/Social3.png,stimuli/Social4.png,stimuli/Nonsocial3.png,stimuli/Nonsocial4.png,,,"(-0.7, -0.5)",cs_pos_ns,"(-0.7, 0.5)",cs_neg_s_new,"(0.7, -0.5)",cs_pos_s,"(0.7, 0.5)",cs_neg_ns,0,0,0,0,,,,,,,,,,,,,,,,,,,,,,,,,,,,,0,6,6,13,2,0,2,0,,,,,,,,,,,,,,,426,reward,,,,,,1517.5180662,1517.5180662,1517.5180662,1517.5180662,0,,,1,0.026689100000112376,0.039377999999942404,1,0.09565539999994144,0.10313799999994444,0,,,1517.6222601000002,1517.6222601000002,1517.6222601000002,1517.6222601000002,17,A,2024-04-24_16h37.45.263,attentional_competition_task,2022.2.4,144.10530062531902,
positions.xlsx,positions_test.xlsx,positions_test_new.xlsx,stimuli.xlsx,stimuli_new.xlsx,stimuli/Social1.png,stimuli/Social2.png,stimuli/Nonsocial1.png,stimuli/Nonsocial2.png,stimuli/Social3.png,stimuli/Social4.png,stimuli/Nonsocial3.png,stimuli/Nonsocial4.png,,,"(-0.7, -0.5)",cs_pos_ns,"(-0.7, 0.5)",cs_neg_s_new,"(0.7, -0.5)",cs_pos_s,"(0.7, 0.5)",cs_neg_ns,0,0,0,0,,,,,,,,,,,,,,,,,,,,,,,,,,,,,0,6,6,13,,,,,,,,,,,,,,,,,,,,,,,,,,,,,,,,,,,,,,,,,,,,,,17,A,2024-04-24_16h37.45.263,attentional_competition_task,2022.2.4,144.10530062531902,
positions.xlsx,positions_test.xlsx,positions_test_new.xlsx,stimuli.xlsx,stimuli_new.xlsx,stimuli/Social1.png,stimuli/Social2.png,stimuli/Nonsocial1.png,stimuli/Nonsocial2.png,stimuli/Social3.png,stimuli/Social4.png,stimuli/Nonsocial3.png,stimuli/Nonsocial4.png,,,"(-0.7, -0.5)",cs_pos_s,"(-0.7, 0.5)",cs_neg_ns,"(0.7, -0.5)",cs_neg_s,"(0.7, 0.5)",cs_pos_ns,0,0,0,0,,,,,,,,,,,,,,,,,,,,,,,,,,,,,0,7,7,3,0,0,0,0,,,,,,,,,,,,,,,429,reward,,,,,,1524.4970584999999,1524.4970584999999,1524.4970584999999,1524.4970584999999,1,0.5993831000000682,0.6064542999997684,0,,,0,,,0,,,1525.1081070000002,1525.1081070000002,1525.1081070000002,1525.1081070000002,17,A,2024-04-24_16h37.45.263,attentional_competition_task,2022.2.4,144.10530062531902,
positions.xlsx,positions_test.xlsx,positions_test_new.xlsx,stimuli.xlsx,stimuli_new.xlsx,stimuli/Social1.png,stimuli/Social2.png,stimuli/Nonsocial1.png,stimuli/Nonsocial2.png,stimuli/Social3.png,stimuli/Social4.png,stimuli/Nonsocial3.png,stimuli/Nonsocial4.png,,,"(-0.7, -0.5)",cs_pos_s,"(-0.7, 0.5)",cs_neg_ns,"(0.7, -0.5)",cs_neg_s,"(0.7, 0.5)",cs_pos_ns,0,0,0,0,,,,,,,,,,,,,,,,,,,,,,,,,,,,,0,7,7,3,1,0,1,0,,,,,,,,,,,,,,,426,loss,,,,,,1525.6358722000002,1525.6358722000002,1525.6358722000002,1525.6358722000002,0,,,1,0.028121700000156125,0.02812560000029407,0,,,0,,,1525.6358722000002,1525.6358722000002,1525.6358722000002,1525.6358722000002,17,A,2024-04-24_16h37.45.263,attentional_competition_task,2022.2.4,144.10530062531902,
positions.xlsx,positions_test.xlsx,positions_test_new.xlsx,stimuli.xlsx,stimuli_new.xlsx,stimuli/Social1.png,stimuli/Social2.png,stimuli/Nonsocial1.png,stimuli/Nonsocial2.png,stimuli/Social3.png,stimuli/Social4.png,stimuli/Nonsocial3.png,stimuli/Nonsocial4.png,,,"(-0.7, -0.5)",cs_pos_s,"(-0.7, 0.5)",cs_neg_ns,"(0.7, -0.5)",cs_neg_s,"(0.7, 0.5)",cs_pos_ns,0,0,0,0,,,,,,,,,,,,,,,,,,,,,,,,,,,,,0,7,7,3,2,0,2,0,,,,,,,,,,,,,,,429,reward,,,,,,1526.1358201,1526.1358201,1526.1358201,1526.1358201,0,,,0,,,0,,,1,0.02384329999995316,0.0323551999999836,1526.1774857000003,1526.1774857000003,1526.1774857000003,1526.1774857000003,17,A,2024-04-24_16h37.45.263,attentional_competition_task,2022.2.4,144.10530062531902,
positions.xlsx,positions_test.xlsx,positions_test_new.xlsx,stimuli.xlsx,stimuli_new.xlsx,stimuli/Social1.png,stimuli/Social2.png,stimuli/Nonsocial1.png,stimuli/Nonsocial2.png,stimuli/Social3.png,stimuli/Social4.png,stimuli/Nonsocial3.png,stimuli/Nonsocial4.png,,,"(-0.7, -0.5)",cs_pos_s,"(-0.7, 0.5)",cs_neg_ns,"(0.7, -0.5)",cs_neg_s,"(0.7, 0.5)",cs_pos_ns,0,0,0,0,,,,,,,,,,,,,,,,,,,,,,,,,,,,,0,7,7,3,,,,,,,,,,,,,,,,,,,,,,,,,,,,,,,,,,,,,,,,,,,,,,17,A,2024-04-24_16h37.45.263,attentional_competition_task,2022.2.4,144.10530062531902,
positions.xlsx,positions_test.xlsx,positions_test_new.xlsx,stimuli.xlsx,stimuli_new.xlsx,stimuli/Social1.png,stimuli/Social2.png,stimuli/Nonsocial1.png,stimuli/Nonsocial2.png,stimuli/Social3.png,stimuli/Social4.png,stimuli/Nonsocial3.png,stimuli/Nonsocial4.png,,,"(-0.7, -0.5)",cs_neg_s_new,"(-0.7, 0.5)",cs_neg_ns,"(0.7, -0.5)",cs_pos_s,"(0.7, 0.5)",cs_pos_ns,0,0,0,0,,,,,,,,,,,,,,,,,,,,,,,,,,,,,0,8,8,10,0,0,0,0,,,,,,,,,,,,,,,432,reward,,,,,,1532.6702923999999,1532.6702923999999,1532.6702923999999,1532.6702923999999,0,,,0,,,0,,,1,0.592781400000149,0.5927851999999803,1533.2674574999999,1533.2674574999999,1533.2674574999999,1533.2674574999999,17,A,2024-04-24_16h37.45.263,attentional_competition_task,2022.2.4,144.10530062531902,
positions.xlsx,positions_test.xlsx,positions_test_new.xlsx,stimuli.xlsx,stimuli_new.xlsx,stimuli/Social1.png,stimuli/Social2.png,stimuli/Nonsocial1.png,stimuli/Nonsocial2.png,stimuli/Social3.png,stimuli/Social4.png,stimuli/Nonsocial3.png,stimuli/Nonsocial4.png,,,"(-0.7, -0.5)",cs_neg_s_new,"(-0.7, 0.5)",cs_neg_ns,"(0.7, -0.5)",cs_pos_s,"(0.7, 0.5)",cs_pos_ns,0,0,0,0,,,,,,,,,,,,,,,,,,,,,,,,,,,,,0,8,8,10,1,0,1,0,,,,,,,,,,,,,,,435,reward,,,,,,1533.7952259,1533.7952259,1533.7952259,1533.7952259,0,,,0,,,1,0.0294861000002129,0.029490200000054756,0,,,1533.7952259,1533.7952259,1533.7952259,1533.7952259,17,A,2024-04-24_16h37.45.263,attentional_competition_task,2022.2.4,144.10530062531902,
positions.xlsx,positions_test.xlsx,positions_test_new.xlsx,stimuli.xlsx,stimuli_new.xlsx,stimuli/Social1.png,stimuli/Social2.png,stimuli/Nonsocial1.png,stimuli/Nonsocial2.png,stimuli/Social3.png,stimuli/Social4.png,stimuli/Nonsocial3.png,stimuli/Nonsocial4.png,,,"(-0.7, -0.5)",cs_neg_s_new,"(-0.7, 0.5)",cs_neg_ns,"(0.7, -0.5)",cs_pos_s,"(0.7, 0.5)",cs_pos_ns,0,0,0,0,,,,,,,,,,,,,,,,,,,,,,,,,,,,,0,8,8,10,2,0,2,0,,,,,,,,,,,,,,,438,reward,,,,,,1534.3021514,1534.3021514,1534.3021514,1534.3021514,0,,,0,,,1,0.024096000000099593,0.3791240000000471,0,,,1535.1840872,1535.1840872,1535.1840872,1535.1840872,17,A,2024-04-24_16h37.45.263,attentional_competition_task,2022.2.4,144.10530062531902,
positions.xlsx,positions_test.xlsx,positions_test_new.xlsx,stimuli.xlsx,stimuli_new.xlsx,stimuli/Social1.png,stimuli/Social2.png,stimuli/Nonsocial1.png,stimuli/Nonsocial2.png,stimuli/Social3.png,stimuli/Social4.png,stimuli/Nonsocial3.png,stimuli/Nonsocial4.png,,,"(-0.7, -0.5)",cs_neg_s_new,"(-0.7, 0.5)",cs_neg_ns,"(0.7, -0.5)",cs_pos_s,"(0.7, 0.5)",cs_pos_ns,0,0,0,0,,,,,,,,,,,,,,,,,,,,,,,,,,,,,0,8,8,10,,,,,,,,,,,,,,,,,,,,,,,,,,,,,,,,,,,,,,,,,,,,,,17,A,2024-04-24_16h37.45.263,attentional_competition_task,2022.2.4,144.10530062531902,
