posFile,posFileTest,posFileTestNew,stimFile,stimFileNew,cs_neg_s,cs_pos_s,cs_neg_ns,cs_pos_ns,cs_neg_s_new,cs_pos_s_new,cs_neg_ns_new,cs_pos_ns_new,stim,position,position1,stim1,position2,stim2,position3,stim3,position4,stim4,blocks.thisRepN,blocks.thisTrialN,blocks.thisN,blocks.thisIndex,ratingtrials1.thisRepN,ratingtrials1.thisTrialN,ratingtrials1.thisN,ratingtrials1.thisIndex,search_task_trials.thisRepN,search_task_trials.thisTrialN,search_task_trials.thisN,search_task_trials.thisIndex,learning_trials.thisRepN,learning_trials.thisTrialN,learning_trials.thisN,learning_trials.thisIndex,trials.thisRepN,trials.thisTrialN,trials.thisN,trials.thisIndex,ratingtrials2.thisRepN,ratingtrials2.thisTrialN,ratingtrials2.thisN,ratingtrials2.thisIndex,testtrials.thisRepN,testtrials.thisTrialN,testtrials.thisN,testtrials.thisIndex,loop_test.thisRepN,loop_test.thisTrialN,loop_test.thisN,loop_test.thisIndex,testtrials_novelty.thisRepN,testtrials_novelty.thisTrialN,testtrials_novelty.thisN,testtrials_novelty.thisIndex,loop_test_novelty.thisRepN,loop_test_novelty.thisTrialN,loop_test_novelty.thisN,loop_test_novelty.thisIndex,ratingtrials3.thisRepN,ratingtrials3.thisTrialN,ratingtrials3.thisN,ratingtrials3.thisIndex,textStart.started,textStartExp.started,imageRating.started,sliderStim.response,sliderStim.rt,textStartSearch.started,target_positions,distractor_positions,textStartTask.started,image.started,score,outcome,roi.numLooks,roi.timesOn,roi.timesOff,imageFeedback.started,textTestInstr.started,test_image1.started,test_image2.started,test_image3.started,test_image4.started,test_roi1.numLooks,test_roi1.timesOn,test_roi1.timesOff,test_roi2.numLooks,test_roi2.timesOn,test_roi2.timesOff,test_roi3.numLooks,test_roi3.timesOn,test_roi3.timesOff,test_roi4.numLooks,test_roi4.timesOn,test_roi4.timesOff,test_image_feedback1.started,test_image_feedback2.started,test_iamge_feedback3.started,test_iamge_feedback4.started,participant,group,date,expName,psychopyVersion,frameRate,
positions.xlsx,positions_test.xlsx,positions_test_new.xlsx,stimuli.xlsx,stimuli_new.xlsx,stimuli/Social3.png,stimuli/Social4.png,stimuli/Nonsocial3.png,stimuli/Nonsocial4.png,stimuli/Social1.png,stimuli/Social2.png,stimuli/Nonsocial1.png,stimuli/Nonsocial2.png,cs_pos_s,,,,,,,,,,0,0,0,0,0,0,0,2,,,,,,,,,,,,,,,,,,,,,,,,,,,,,,,,,,,,,11.004126399988309,101.5328527999809,109.3876697999658,5.0,6.944475700031035,,,,,,,,,,,,,,,,,,,,,,,,,,,,,,,,,43,C,2024-05-21_12h18.04.978,attentional_competition_task,2022.2.4,143.98309068480623,
positions.xlsx,positions_test.xlsx,positions_test_new.xlsx,stimuli.xlsx,stimuli_new.xlsx,stimuli/Social3.png,stimuli/Social4.png,stimuli/Nonsocial3.png,stimuli/Nonsocial4.png,stimuli/Social1.png,stimuli/Social2.png,stimuli/Nonsocial1.png,stimuli/Nonsocial2.png,cs_neg_s,,,,,,,,,,0,0,0,0,0,1,1,0,,,,,,,,,,,,,,,,,,,,,,,,,,,,,,,,,,,,,,,117.22765699995216,4.0,5.043827699963003,,,,,,,,,,,,,,,,,,,,,,,,,,,,,,,,,43,C,2024-05-21_12h18.04.978,attentional_competition_task,2022.2.4,143.98309068480623,
positions.xlsx,positions_test.xlsx,positions_test_new.xlsx,stimuli.xlsx,stimuli_new.xlsx,stimuli/Social3.png,stimuli/Social4.png,stimuli/Nonsocial3.png,stimuli/Nonsocial4.png,stimuli/Social1.png,stimuli/Social2.png,stimuli/Nonsocial1.png,stimuli/Nonsocial2.png,cs_pos_ns,,,,,,,,,,0,0,0,0,0,2,2,3,,,,,,,,,,,,,,,,,,,,,,,,,,,,,,,,,,,,,,,123.3871062999824,5.0,2.924229299998842,,,,,,,,,,,,,,,,,,,,,,,,,,,,,,,,,43,C,2024-05-21_12h18.04.978,attentional_competition_task,2022.2.4,143.98309068480623,
positions.xlsx,positions_test.xlsx,positions_test_new.xlsx,stimuli.xlsx,stimuli_new.xlsx,stimuli/Social3.png,stimuli/Social4.png,stimuli/Nonsocial3.png,stimuli/Nonsocial4.png,stimuli/Social1.png,stimuli/Social2.png,stimuli/Nonsocial1.png,stimuli/Nonsocial2.png,cs_neg_ns,,,,,,,,,,0,0,0,0,0,3,3,1,,,,,,,,,,,,,,,,,,,,,,,,,,,,,,,,,,,,,,,126.51198219996877,6.0,1.4666928999358788,,,,,,,,,,,,,,,,,,,,,,,,,,,,,,,,,43,C,2024-05-21_12h18.04.978,attentional_competition_task,2022.2.4,143.98309068480623,
positions.xlsx,positions_test.xlsx,positions_test_new.xlsx,stimuli.xlsx,stimuli_new.xlsx,stimuli/Social3.png,stimuli/Social4.png,stimuli/Nonsocial3.png,stimuli/Nonsocial4.png,stimuli/Social1.png,stimuli/Social2.png,stimuli/Nonsocial1.png,stimuli/Nonsocial2.png,,,,,,,,,,,0,0,0,0,,,,,0,0,0,0,,,,,,,,,,,,,,,,,,,,,,,,,,,,,,,,,,,,,,128.10912989999633,"[[-0.45, -0.8], [0.6749999999999999, -0.8], [0.9, 0.7], [-0.675, 0.7], [-0.22499999999999998, 0.7], [0.0, -0.30000000000000004], [0.45000000000000007, -0.8], [0.9, -0.30000000000000004], [0.45000000000000007, -0.30000000000000004], [0.6749999999999999, 0.7], [-0.675, -0.8], [0.6749999999999999, 0.19999999999999996], [-0.22499999999999998, -0.8], [0.9, -0.8], [-0.45, 0.19999999999999996]]","[[-0.675, -0.30000000000000004], [0.6749999999999999, -0.30000000000000004], [0.22499999999999998, -0.30000000000000004], [0.22499999999999998, 0.7], [-0.9, 0.7], [-0.22499999999999998, 0.19999999999999996], [0.9, 0.19999999999999996], [0.22499999999999998, 0.19999999999999996], [-0.22499999999999998, -0.30000000000000004], [-0.45, 0.7], [0.0, 0.7], [0.0, 0.19999999999999996], [0.0, -0.8], [-0.675, 0.19999999999999996], [0.45000000000000007, 0.19999999999999996]]",,,,,,,,,,,,,,,,,,,,,,,,,,,,,,43,C,2024-05-21_12h18.04.978,attentional_competition_task,2022.2.4,143.98309068480623,
positions.xlsx,positions_test.xlsx,positions_test_new.xlsx,stimuli.xlsx,stimuli_new.xlsx,stimuli/Social3.png,stimuli/Social4.png,stimuli/Nonsocial3.png,stimuli/Nonsocial4.png,stimuli/Social1.png,stimuli/Social2.png,stimuli/Nonsocial1.png,stimuli/Nonsocial2.png,,,,,,,,,,,0,0,0,0,,,,,1,0,1,0,,,,,,,,,,,,,,,,,,,,,,,,,,,,,,,,,,,,,,,"[[0.6749999999999999, -0.30000000000000004], [-0.675, -0.30000000000000004], [0.9, 0.19999999999999996], [-0.675, -0.8], [0.45000000000000007, 0.19999999999999996], [0.6749999999999999, -0.8], [0.22499999999999998, 0.19999999999999996], [-0.675, 0.7], [-0.22499999999999998, -0.8], [-0.22499999999999998, -0.30000000000000004], [-0.9, -0.8], [-0.22499999999999998, 0.19999999999999996], [0.0, 0.7], [-0.22499999999999998, 0.7], [0.45000000000000007, -0.8]]","[[0.45000000000000007, -0.30000000000000004], [-0.45, -0.30000000000000004], [0.0, 0.19999999999999996], [0.6749999999999999, 0.19999999999999996], [0.22499999999999998, -0.8], [-0.45, 0.19999999999999996], [0.22499999999999998, -0.30000000000000004], [0.9, 0.7], [-0.9, -0.30000000000000004], [0.0, -0.30000000000000004], [-0.9, 0.19999999999999996], [0.45000000000000007, 0.7], [0.22499999999999998, 0.7], [0.0, -0.8], [-0.45, 0.7]]",,,,,,,,,,,,,,,,,,,,,,,,,,,,,,43,C,2024-05-21_12h18.04.978,attentional_competition_task,2022.2.4,143.98309068480623,
positions.xlsx,positions_test.xlsx,positions_test_new.xlsx,stimuli.xlsx,stimuli_new.xlsx,stimuli/Social3.png,stimuli/Social4.png,stimuli/Nonsocial3.png,stimuli/Nonsocial4.png,stimuli/Social1.png,stimuli/Social2.png,stimuli/Nonsocial1.png,stimuli/Nonsocial2.png,cs_neg_ns,"(0.7, -0.5)",,,,,,,,,0,0,0,0,,,,,,,,,0,0,0,11,,,,,,,,,,,,,,,,,,,,,,,,,,,,,,,,,,,,,209.79333649994805,227.82036639994476,-3,loss,1,0.3408785000210628,0.3408822000492364,228.16758959996514,,,,,,,,,,,,,,,,,,,,,,43,C,2024-05-21_12h18.04.978,attentional_competition_task,2022.2.4,143.98309068480623,
positions.xlsx,positions_test.xlsx,positions_test_new.xlsx,stimuli.xlsx,stimuli_new.xlsx,stimuli/Social3.png,stimuli/Social4.png,stimuli/Nonsocial3.png,stimuli/Nonsocial4.png,stimuli/Social1.png,stimuli/Social2.png,stimuli/Nonsocial1.png,stimuli/Nonsocial2.png,cs_pos_ns,"(0.7, 0.5)",,,,,,,,,0,0,0,0,,,,,,,,,0,1,1,14,,,,,,,,,,,,,,,,,,,,,,,,,,,,,,,,,,,,,,235.6117042999249,0,reward,1,0.7222120000515133,0.7222157000796869,236.34084299998358,,,,,,,,,,,,,,,,,,,,,,43,C,2024-05-21_12h18.04.978,attentional_competition_task,2022.2.4,143.98309068480623,
positions.xlsx,positions_test.xlsx,positions_test_new.xlsx,stimuli.xlsx,stimuli_new.xlsx,stimuli/Social3.png,stimuli/Social4.png,stimuli/Nonsocial3.png,stimuli/Nonsocial4.png,stimuli/Social1.png,stimuli/Social2.png,stimuli/Nonsocial1.png,stimuli/Nonsocial2.png,cs_neg_ns,"(-0.7, -0.5)",,,,,,,,,0,0,0,0,,,,,,,,,0,2,2,9,,,,,,,,,,,,,,,,,,,,,,,,,,,,,,,,,,,,,,244.27110259991605,-3,loss,1,0.7577254000352696,0.7577296000672504,245.04198859992903,,,,,,,,,,,,,,,,,,,,,,43,C,2024-05-21_12h18.04.978,attentional_competition_task,2022.2.4,143.98309068480623,
positions.xlsx,positions_test.xlsx,positions_test_new.xlsx,stimuli.xlsx,stimuli_new.xlsx,stimuli/Social3.png,stimuli/Social4.png,stimuli/Nonsocial3.png,stimuli/Nonsocial4.png,stimuli/Social1.png,stimuli/Social2.png,stimuli/Nonsocial1.png,stimuli/Nonsocial2.png,cs_neg_ns,"(0.7, 0.5)",,,,,,,,,0,0,0,0,,,,,,,,,0,3,3,10,,,,,,,,,,,,,,,,,,,,,,,,,,,,,,,,,,,,,,252.90272129990626,-6,loss,1,0.33365519996732473,0.3336589999962598,253.24296329997014,,,,,,,,,,,,,,,,,,,,,,43,C,2024-05-21_12h18.04.978,attentional_competition_task,2022.2.4,143.98309068480623,
positions.xlsx,positions_test.xlsx,positions_test_new.xlsx,stimuli.xlsx,stimuli_new.xlsx,stimuli/Social3.png,stimuli/Social4.png,stimuli/Nonsocial3.png,stimuli/Nonsocial4.png,stimuli/Social1.png,stimuli/Social2.png,stimuli/Nonsocial1.png,stimuli/Nonsocial2.png,cs_neg_s,"(-0.7, -0.5)",,,,,,,,,0,0,0,0,,,,,,,,,0,4,4,1,,,,,,,,,,,,,,,,,,,,,,,,,,,,,,,,,,,,,,260.54825459991116,-9,loss,1,0.7844793000258505,0.7844827999360859,261.3398659999948,,,,,,,,,,,,,,,,,,,,,,43,C,2024-05-21_12h18.04.978,attentional_competition_task,2022.2.4,143.98309068480623,
positions.xlsx,positions_test.xlsx,positions_test_new.xlsx,stimuli.xlsx,stimuli_new.xlsx,stimuli/Social3.png,stimuli/Social4.png,stimuli/Nonsocial3.png,stimuli/Nonsocial4.png,stimuli/Social1.png,stimuli/Social2.png,stimuli/Nonsocial1.png,stimuli/Nonsocial2.png,cs_pos_ns,"(0.7, -0.5)",,,,,,,,,0,0,0,0,,,,,,,,,0,5,5,15,,,,,,,,,,,,,,,,,,,,,,,,,,,,,,,,,,,,,,268.91592359996866,-6,reward,1,0.6246538000414148,0.6315966000547633,269.55484469991643,,,,,,,,,,,,,,,,,,,,,,43,C,2024-05-21_12h18.04.978,attentional_competition_task,2022.2.4,143.98309068480623,
positions.xlsx,positions_test.xlsx,positions_test_new.xlsx,stimuli.xlsx,stimuli_new.xlsx,stimuli/Social3.png,stimuli/Social4.png,stimuli/Nonsocial3.png,stimuli/Nonsocial4.png,stimuli/Social1.png,stimuli/Social2.png,stimuli/Nonsocial1.png,stimuli/Nonsocial2.png,cs_neg_s,"(0.7, 0.5)",,,,,,,,,0,0,0,0,,,,,,,,,0,6,6,2,,,,,,,,,,,,,,,,,,,,,,,,,,,,,,,,,,,,,,277.02670609997585,-6,none,0,,,280.04049619997386,,,,,,,,,,,,,,,,,,,,,,43,C,2024-05-21_12h18.04.978,attentional_competition_task,2022.2.4,143.98309068480623,
positions.xlsx,positions_test.xlsx,positions_test_new.xlsx,stimuli.xlsx,stimuli_new.xlsx,stimuli/Social3.png,stimuli/Social4.png,stimuli/Nonsocial3.png,stimuli/Nonsocial4.png,stimuli/Social1.png,stimuli/Social2.png,stimuli/Nonsocial1.png,stimuli/Nonsocial2.png,cs_neg_s,"(0.7, -0.5)",,,,,,,,,0,0,0,0,,,,,,,,,0,7,7,3,,,,,,,,,,,,,,,,,,,,,,,,,,,,,,,,,,,,,,287.94294729991816,-9,loss,1,0.6115381000563502,0.6186058000894263,288.5679262999911,,,,,,,,,,,,,,,,,,,,,,43,C,2024-05-21_12h18.04.978,attentional_competition_task,2022.2.4,143.98309068480623,
positions.xlsx,positions_test.xlsx,positions_test_new.xlsx,stimuli.xlsx,stimuli_new.xlsx,stimuli/Social3.png,stimuli/Social4.png,stimuli/Nonsocial3.png,stimuli/Nonsocial4.png,stimuli/Social1.png,stimuli/Social2.png,stimuli/Nonsocial1.png,stimuli/Nonsocial2.png,cs_pos_ns,"(-0.7, 0.5)",,,,,,,,,0,0,0,0,,,,,,,,,0,8,8,12,,,,,,,,,,,,,,,,,,,,,,,,,,,,,,,,,,,,,,295.34545669995714,-6,reward,1,0.6459819000447169,0.6459856000728905,295.9981929999776,,,,,,,,,,,,,,,,,,,,,,43,C,2024-05-21_12h18.04.978,attentional_competition_task,2022.2.4,143.98309068480623,
positions.xlsx,positions_test.xlsx,positions_test_new.xlsx,stimuli.xlsx,stimuli_new.xlsx,stimuli/Social3.png,stimuli/Social4.png,stimuli/Nonsocial3.png,stimuli/Nonsocial4.png,stimuli/Social1.png,stimuli/Social2.png,stimuli/Nonsocial1.png,stimuli/Nonsocial2.png,cs_pos_ns,"(-0.7, -0.5)",,,,,,,,,0,0,0,0,,,,,,,,,0,9,9,13,,,,,,,,,,,,,,,,,,,,,,,,,,,,,,,,,,,,,,304.025638799998,-3,reward,1,0.8961927999043837,0.896197099937126,304.9284225999145,,,,,,,,,,,,,,,,,,,,,,43,C,2024-05-21_12h18.04.978,attentional_competition_task,2022.2.4,143.98309068480623,
positions.xlsx,positions_test.xlsx,positions_test_new.xlsx,stimuli.xlsx,stimuli_new.xlsx,stimuli/Social3.png,stimuli/Social4.png,stimuli/Nonsocial3.png,stimuli/Nonsocial4.png,stimuli/Social1.png,stimuli/Social2.png,stimuli/Nonsocial1.png,stimuli/Nonsocial2.png,cs_pos_s,"(-0.7, 0.5)",,,,,,,,,0,0,0,0,,,,,,,,,0,10,10,4,,,,,,,,,,,,,,,,,,,,,,,,,,,,,,,,,,,,,,312.66419279994443,0,reward,1,0.763445199932903,0.7634485999587923,313.4349962999113,,,,,,,,,,,,,,,,,,,,,,43,C,2024-05-21_12h18.04.978,attentional_competition_task,2022.2.4,143.98309068480623,
positions.xlsx,positions_test.xlsx,positions_test_new.xlsx,stimuli.xlsx,stimuli_new.xlsx,stimuli/Social3.png,stimuli/Social4.png,stimuli/Nonsocial3.png,stimuli/Nonsocial4.png,stimuli/Social1.png,stimuli/Social2.png,stimuli/Nonsocial1.png,stimuli/Nonsocial2.png,cs_neg_ns,"(-0.7, 0.5)",,,,,,,,,0,0,0,0,,,,,,,,,0,11,11,8,,,,,,,,,,,,,,,,,,,,,,,,,,,,,,,,,,,,,,320.9832994999597,-3,loss,1,0.6945759999798611,0.6945797000080347,321.68464609992225,,,,,,,,,,,,,,,,,,,,,,43,C,2024-05-21_12h18.04.978,attentional_competition_task,2022.2.4,143.98309068480623,
positions.xlsx,positions_test.xlsx,positions_test_new.xlsx,stimuli.xlsx,stimuli_new.xlsx,stimuli/Social3.png,stimuli/Social4.png,stimuli/Nonsocial3.png,stimuli/Nonsocial4.png,stimuli/Social1.png,stimuli/Social2.png,stimuli/Nonsocial1.png,stimuli/Nonsocial2.png,cs_neg_s,"(-0.7, 0.5)",,,,,,,,,0,0,0,0,,,,,,,,,0,12,12,0,,,,,,,,,,,,,,,,,,,,,,,,,,,,,,,,,,,,,,329.36489709990565,-3,none,0,,,332.37861709995195,,,,,,,,,,,,,,,,,,,,,,43,C,2024-05-21_12h18.04.978,attentional_competition_task,2022.2.4,143.98309068480623,
positions.xlsx,positions_test.xlsx,positions_test_new.xlsx,stimuli.xlsx,stimuli_new.xlsx,stimuli/Social3.png,stimuli/Social4.png,stimuli/Nonsocial3.png,stimuli/Nonsocial4.png,stimuli/Social1.png,stimuli/Social2.png,stimuli/Nonsocial1.png,stimuli/Nonsocial2.png,cs_pos_s,"(0.7, -0.5)",,,,,,,,,0,0,0,0,,,,,,,,,0,13,13,7,,,,,,,,,,,,,,,,,,,,,,,,,,,,,,,,,,,,,,340.6838974999264,0,reward,1,0.5629683999577537,0.5629722999874502,341.2533325999975,,,,,,,,,,,,,,,,,,,,,,43,C,2024-05-21_12h18.04.978,attentional_competition_task,2022.2.4,143.98309068480623,
positions.xlsx,positions_test.xlsx,positions_test_new.xlsx,stimuli.xlsx,stimuli_new.xlsx,stimuli/Social3.png,stimuli/Social4.png,stimuli/Nonsocial3.png,stimuli/Nonsocial4.png,stimuli/Social1.png,stimuli/Social2.png,stimuli/Nonsocial1.png,stimuli/Nonsocial2.png,cs_pos_s,"(0.7, 0.5)",,,,,,,,,0,0,0,0,,,,,,,,,0,14,14,6,,,,,,,,,,,,,,,,,,,,,,,,,,,,,,,,,,,,,,348.419698099955,3,reward,1,0.6392160999821499,0.6392198000103235,349.0654757999582,,,,,,,,,,,,,,,,,,,,,,43,C,2024-05-21_12h18.04.978,attentional_competition_task,2022.2.4,143.98309068480623,
positions.xlsx,positions_test.xlsx,positions_test_new.xlsx,stimuli.xlsx,stimuli_new.xlsx,stimuli/Social3.png,stimuli/Social4.png,stimuli/Nonsocial3.png,stimuli/Nonsocial4.png,stimuli/Social1.png,stimuli/Social2.png,stimuli/Nonsocial1.png,stimuli/Nonsocial2.png,cs_pos_s,"(-0.7, -0.5)",,,,,,,,,0,0,0,0,,,,,,,,,0,15,15,5,,,,,,,,,,,,,,,,,,,,,,,,,,,,,,,,,,,,,,355.78050449991133,6,reward,1,0.6805678000673652,0.6805714999791235,356.46797369990963,,,,,,,,,,,,,,,,,,,,,,43,C,2024-05-21_12h18.04.978,attentional_competition_task,2022.2.4,143.98309068480623,
positions.xlsx,positions_test.xlsx,positions_test_new.xlsx,stimuli.xlsx,stimuli_new.xlsx,stimuli/Social3.png,stimuli/Social4.png,stimuli/Nonsocial3.png,stimuli/Nonsocial4.png,stimuli/Social1.png,stimuli/Social2.png,stimuli/Nonsocial1.png,stimuli/Nonsocial2.png,cs_pos_ns,"(-0.7, -0.5)",,,,,,,,,0,0,0,0,,,,,,,,,1,0,16,13,,,,,,,,,,,,,,,,,,,,,,,,,,,,,,,,,,,,,,364.6204060999444,9,reward,1,1.0003421999281272,1.0003457999555394,365.6273286999203,,,,,,,,,,,,,,,,,,,,,,43,C,2024-05-21_12h18.04.978,attentional_competition_task,2022.2.4,143.98309068480623,
positions.xlsx,positions_test.xlsx,positions_test_new.xlsx,stimuli.xlsx,stimuli_new.xlsx,stimuli/Social3.png,stimuli/Social4.png,stimuli/Nonsocial3.png,stimuli/Nonsocial4.png,stimuli/Social1.png,stimuli/Social2.png,stimuli/Nonsocial1.png,stimuli/Nonsocial2.png,cs_pos_s,"(-0.7, -0.5)",,,,,,,,,0,0,0,0,,,,,,,,,1,1,17,5,,,,,,,,,,,,,,,,,,,,,,,,,,,,,,,,,,,,,,373.29370389995165,12,reward,1,0.514206700026989,0.5142105999402702,373.8145122999558,,,,,,,,,,,,,,,,,,,,,,43,C,2024-05-21_12h18.04.978,attentional_competition_task,2022.2.4,143.98309068480623,
positions.xlsx,positions_test.xlsx,positions_test_new.xlsx,stimuli.xlsx,stimuli_new.xlsx,stimuli/Social3.png,stimuli/Social4.png,stimuli/Nonsocial3.png,stimuli/Nonsocial4.png,stimuli/Social1.png,stimuli/Social2.png,stimuli/Nonsocial1.png,stimuli/Nonsocial2.png,cs_neg_ns,"(0.7, -0.5)",,,,,,,,,0,0,0,0,,,,,,,,,1,2,18,11,,,,,,,,,,,,,,,,,,,,,,,,,,,,,,,,,,,,,,380.8489513999084,12,none,0,,,383.8627063999884,,,,,,,,,,,,,,,,,,,,,,43,C,2024-05-21_12h18.04.978,attentional_competition_task,2022.2.4,143.98309068480623,
positions.xlsx,positions_test.xlsx,positions_test_new.xlsx,stimuli.xlsx,stimuli_new.xlsx,stimuli/Social3.png,stimuli/Social4.png,stimuli/Nonsocial3.png,stimuli/Nonsocial4.png,stimuli/Social1.png,stimuli/Social2.png,stimuli/Nonsocial1.png,stimuli/Nonsocial2.png,cs_neg_ns,"(-0.7, 0.5)",,,,,,,,,0,0,0,0,,,,,,,,,1,3,19,8,,,,,,,,,,,,,,,,,,,,,,,,,,,,,,,,,,,,,,391.0013271999778,12,none,0,,,394.0150886999909,,,,,,,,,,,,,,,,,,,,,,43,C,2024-05-21_12h18.04.978,attentional_competition_task,2022.2.4,143.98309068480623,
positions.xlsx,positions_test.xlsx,positions_test_new.xlsx,stimuli.xlsx,stimuli_new.xlsx,stimuli/Social3.png,stimuli/Social4.png,stimuli/Nonsocial3.png,stimuli/Nonsocial4.png,stimuli/Social1.png,stimuli/Social2.png,stimuli/Nonsocial1.png,stimuli/Nonsocial2.png,cs_pos_s,"(-0.7, 0.5)",,,,,,,,,0,0,0,0,,,,,,,,,1,4,20,4,,,,,,,,,,,,,,,,,,,,,,,,,,,,,,,,,,,,,,402.2578138000099,15,reward,1,0.6043668000493199,0.6043705999618396,402.86891989992,,,,,,,,,,,,,,,,,,,,,,43,C,2024-05-21_12h18.04.978,attentional_competition_task,2022.2.4,143.98309068480623,
positions.xlsx,positions_test.xlsx,positions_test_new.xlsx,stimuli.xlsx,stimuli_new.xlsx,stimuli/Social3.png,stimuli/Social4.png,stimuli/Nonsocial3.png,stimuli/Nonsocial4.png,stimuli/Social1.png,stimuli/Social2.png,stimuli/Nonsocial1.png,stimuli/Nonsocial2.png,cs_neg_s,"(-0.7, 0.5)",,,,,,,,,0,0,0,0,,,,,,,,,1,5,21,0,,,,,,,,,,,,,,,,,,,,,,,,,,,,,,,,,,,,,,410.2297180999303,15,none,0,,,413.24358649994247,,,,,,,,,,,,,,,,,,,,,,43,C,2024-05-21_12h18.04.978,attentional_competition_task,2022.2.4,143.98309068480623,
positions.xlsx,positions_test.xlsx,positions_test_new.xlsx,stimuli.xlsx,stimuli_new.xlsx,stimuli/Social3.png,stimuli/Social4.png,stimuli/Nonsocial3.png,stimuli/Nonsocial4.png,stimuli/Social1.png,stimuli/Social2.png,stimuli/Nonsocial1.png,stimuli/Nonsocial2.png,cs_neg_s,"(0.7, -0.5)",,,,,,,,,0,0,0,0,,,,,,,,,1,6,22,3,,,,,,,,,,,,,,,,,,,,,,,,,,,,,,,,,,,,,,420.43066899990663,15,none,0,,,423.43755319993943,,,,,,,,,,,,,,,,,,,,,,43,C,2024-05-21_12h18.04.978,attentional_competition_task,2022.2.4,143.98309068480623,
positions.xlsx,positions_test.xlsx,positions_test_new.xlsx,stimuli.xlsx,stimuli_new.xlsx,stimuli/Social3.png,stimuli/Social4.png,stimuli/Nonsocial3.png,stimuli/Nonsocial4.png,stimuli/Social1.png,stimuli/Social2.png,stimuli/Nonsocial1.png,stimuli/Nonsocial2.png,cs_pos_ns,"(0.7, -0.5)",,,,,,,,,0,0,0,0,,,,,,,,,1,7,23,15,,,,,,,,,,,,,,,,,,,,,,,,,,,,,,,,,,,,,,430.30527589994017,18,reward,1,0.6874966999748722,0.6875005000038072,431.00663179997355,,,,,,,,,,,,,,,,,,,,,,43,C,2024-05-21_12h18.04.978,attentional_competition_task,2022.2.4,143.98309068480623,
positions.xlsx,positions_test.xlsx,positions_test_new.xlsx,stimuli.xlsx,stimuli_new.xlsx,stimuli/Social3.png,stimuli/Social4.png,stimuli/Nonsocial3.png,stimuli/Nonsocial4.png,stimuli/Social1.png,stimuli/Social2.png,stimuli/Nonsocial1.png,stimuli/Nonsocial2.png,cs_pos_ns,"(0.7, 0.5)",,,,,,,,,0,0,0,0,,,,,,,,,1,8,24,14,,,,,,,,,,,,,,,,,,,,,,,,,,,,,,,,,,,,,,437.9299727999605,21,reward,1,0.6390552999218926,0.6390591999515891,438.5758017000044,,,,,,,,,,,,,,,,,,,,,,43,C,2024-05-21_12h18.04.978,attentional_competition_task,2022.2.4,143.98309068480623,
positions.xlsx,positions_test.xlsx,positions_test_new.xlsx,stimuli.xlsx,stimuli_new.xlsx,stimuli/Social3.png,stimuli/Social4.png,stimuli/Nonsocial3.png,stimuli/Nonsocial4.png,stimuli/Social1.png,stimuli/Social2.png,stimuli/Nonsocial1.png,stimuli/Nonsocial2.png,cs_neg_ns,"(-0.7, -0.5)",,,,,,,,,0,0,0,0,,,,,,,,,1,9,25,9,,,,,,,,,,,,,,,,,,,,,,,,,,,,,,,,,,,,,,445.71438119991217,18,loss,1,0.6117005000123754,0.6117040000390261,446.3324527000077,,,,,,,,,,,,,,,,,,,,,,43,C,2024-05-21_12h18.04.978,attentional_competition_task,2022.2.4,143.98309068480623,
positions.xlsx,positions_test.xlsx,positions_test_new.xlsx,stimuli.xlsx,stimuli_new.xlsx,stimuli/Social3.png,stimuli/Social4.png,stimuli/Nonsocial3.png,stimuli/Nonsocial4.png,stimuli/Social1.png,stimuli/Social2.png,stimuli/Nonsocial1.png,stimuli/Nonsocial2.png,cs_neg_s,"(0.7, 0.5)",,,,,,,,,0,0,0,0,,,,,,,,,1,10,26,2,,,,,,,,,,,,,,,,,,,,,,,,,,,,,,,,,,,,,,453.74186909990385,18,none,0,,,456.7487063999288,,,,,,,,,,,,,,,,,,,,,,43,C,2024-05-21_12h18.04.978,attentional_competition_task,2022.2.4,143.98309068480623,
positions.xlsx,positions_test.xlsx,positions_test_new.xlsx,stimuli.xlsx,stimuli_new.xlsx,stimuli/Social3.png,stimuli/Social4.png,stimuli/Nonsocial3.png,stimuli/Nonsocial4.png,stimuli/Social1.png,stimuli/Social2.png,stimuli/Nonsocial1.png,stimuli/Nonsocial2.png,cs_neg_ns,"(0.7, 0.5)",,,,,,,,,0,0,0,0,,,,,,,,,1,11,27,10,,,,,,,,,,,,,,,,,,,,,,,,,,,,,,,,,,,,,,464.04005800001323,15,loss,1,1.2158735999837518,1.2158774000126868,465.262256899965,,,,,,,,,,,,,,,,,,,,,,43,C,2024-05-21_12h18.04.978,attentional_competition_task,2022.2.4,143.98309068480623,
positions.xlsx,positions_test.xlsx,positions_test_new.xlsx,stimuli.xlsx,stimuli_new.xlsx,stimuli/Social3.png,stimuli/Social4.png,stimuli/Nonsocial3.png,stimuli/Nonsocial4.png,stimuli/Social1.png,stimuli/Social2.png,stimuli/Nonsocial1.png,stimuli/Nonsocial2.png,cs_pos_ns,"(-0.7, 0.5)",,,,,,,,,0,0,0,0,,,,,,,,,1,12,28,12,,,,,,,,,,,,,,,,,,,,,,,,,,,,,,,,,,,,,,472.6438921999652,18,reward,1,0.7572015000041574,0.757205400033854,473.40778099989984,,,,,,,,,,,,,,,,,,,,,,43,C,2024-05-21_12h18.04.978,attentional_competition_task,2022.2.4,143.98309068480623,
positions.xlsx,positions_test.xlsx,positions_test_new.xlsx,stimuli.xlsx,stimuli_new.xlsx,stimuli/Social3.png,stimuli/Social4.png,stimuli/Nonsocial3.png,stimuli/Nonsocial4.png,stimuli/Social1.png,stimuli/Social2.png,stimuli/Nonsocial1.png,stimuli/Nonsocial2.png,cs_pos_s,"(0.7, -0.5)",,,,,,,,,0,0,0,0,,,,,,,,,1,13,29,7,,,,,,,,,,,,,,,,,,,,,,,,,,,,,,,,,,,,,,481.5671336000087,21,reward,1,0.45181230001617223,0.4518159000435844,482.0254611999262,,,,,,,,,,,,,,,,,,,,,,43,C,2024-05-21_12h18.04.978,attentional_competition_task,2022.2.4,143.98309068480623,
positions.xlsx,positions_test.xlsx,positions_test_new.xlsx,stimuli.xlsx,stimuli_new.xlsx,stimuli/Social3.png,stimuli/Social4.png,stimuli/Nonsocial3.png,stimuli/Nonsocial4.png,stimuli/Social1.png,stimuli/Social2.png,stimuli/Nonsocial1.png,stimuli/Nonsocial2.png,cs_neg_s,"(-0.7, -0.5)",,,,,,,,,0,0,0,0,,,,,,,,,1,14,30,1,,,,,,,,,,,,,,,,,,,,,,,,,,,,,,,,,,,,,,489.86541229998693,21,none,0,,,492.8722753999755,,,,,,,,,,,,,,,,,,,,,,43,C,2024-05-21_12h18.04.978,attentional_competition_task,2022.2.4,143.98309068480623,
positions.xlsx,positions_test.xlsx,positions_test_new.xlsx,stimuli.xlsx,stimuli_new.xlsx,stimuli/Social3.png,stimuli/Social4.png,stimuli/Nonsocial3.png,stimuli/Nonsocial4.png,stimuli/Social1.png,stimuli/Social2.png,stimuli/Nonsocial1.png,stimuli/Nonsocial2.png,cs_pos_s,"(0.7, 0.5)",,,,,,,,,0,0,0,0,,,,,,,,,1,15,31,6,,,,,,,,,,,,,,,,,,,,,,,,,,,,,,,,,,,,,,500.63583759998437,24,reward,1,0.5972948999842629,0.5972985000116751,501.23997389990836,,,,,,,,,,,,,,,,,,,,,,43,C,2024-05-21_12h18.04.978,attentional_competition_task,2022.2.4,143.98309068480623,
positions.xlsx,positions_test.xlsx,positions_test_new.xlsx,stimuli.xlsx,stimuli_new.xlsx,stimuli/Social3.png,stimuli/Social4.png,stimuli/Nonsocial3.png,stimuli/Nonsocial4.png,stimuli/Social1.png,stimuli/Social2.png,stimuli/Nonsocial1.png,stimuli/Nonsocial2.png,cs_neg_ns,"(-0.7, 0.5)",,,,,,,,,0,0,0,0,,,,,,,,,,,,,0,0,0,8,,,,,,,,,,,,,,,,,,,,,,,,,,,,,,,,,,531.1137909999816,24,none,0,,,534.1275330999633,,,,,,,,,,,,,,,,,,,,,,43,C,2024-05-21_12h18.04.978,attentional_competition_task,2022.2.4,143.98309068480623,
positions.xlsx,positions_test.xlsx,positions_test_new.xlsx,stimuli.xlsx,stimuli_new.xlsx,stimuli/Social3.png,stimuli/Social4.png,stimuli/Nonsocial3.png,stimuli/Nonsocial4.png,stimuli/Social1.png,stimuli/Social2.png,stimuli/Nonsocial1.png,stimuli/Nonsocial2.png,cs_pos_s,"(0.7, -0.5)",,,,,,,,,0,0,0,0,,,,,,,,,,,,,0,1,1,7,,,,,,,,,,,,,,,,,,,,,,,,,,,,,,,,,,542.2661332999123,27,reward,1,0.6807957999408245,0.6807994999689981,542.9535919999471,,,,,,,,,,,,,,,,,,,,,,43,C,2024-05-21_12h18.04.978,attentional_competition_task,2022.2.4,143.98309068480623,
positions.xlsx,positions_test.xlsx,positions_test_new.xlsx,stimuli.xlsx,stimuli_new.xlsx,stimuli/Social3.png,stimuli/Social4.png,stimuli/Nonsocial3.png,stimuli/Nonsocial4.png,stimuli/Social1.png,stimuli/Social2.png,stimuli/Nonsocial1.png,stimuli/Nonsocial2.png,cs_pos_ns,"(-0.7, -0.5)",,,,,,,,,0,0,0,0,,,,,,,,,,,,,0,2,2,13,,,,,,,,,,,,,,,,,,,,,,,,,,,,,,,,,,550.633822600008,30,reward,1,1.0906232999404892,1.09062679996714,551.7309770999709,,,,,,,,,,,,,,,,,,,,,,43,C,2024-05-21_12h18.04.978,attentional_competition_task,2022.2.4,143.98309068480623,
positions.xlsx,positions_test.xlsx,positions_test_new.xlsx,stimuli.xlsx,stimuli_new.xlsx,stimuli/Social3.png,stimuli/Social4.png,stimuli/Nonsocial3.png,stimuli/Nonsocial4.png,stimuli/Social1.png,stimuli/Social2.png,stimuli/Nonsocial1.png,stimuli/Nonsocial2.png,cs_pos_s,"(-0.7, 0.5)",,,,,,,,,0,0,0,0,,,,,,,,,,,,,0,3,3,4,,,,,,,,,,,,,,,,,,,,,,,,,,,,,,,,,,559.5779544999823,33,reward,1,0.5206076999893412,0.5206114000175148,560.1056866999716,,,,,,,,,,,,,,,,,,,,,,43,C,2024-05-21_12h18.04.978,attentional_competition_task,2022.2.4,143.98309068480623,
positions.xlsx,positions_test.xlsx,positions_test_new.xlsx,stimuli.xlsx,stimuli_new.xlsx,stimuli/Social3.png,stimuli/Social4.png,stimuli/Nonsocial3.png,stimuli/Nonsocial4.png,stimuli/Social1.png,stimuli/Social2.png,stimuli/Nonsocial1.png,stimuli/Nonsocial2.png,cs_neg_s,"(-0.7, -0.5)",,,,,,,,,0,0,0,0,,,,,,,,,,,,,0,4,4,1,,,,,,,,,,,,,,,,,,,,,,,,,,,,,,,,,,567.8553908999311,33,none,0,,,570.862216199981,,,,,,,,,,,,,,,,,,,,,,43,C,2024-05-21_12h18.04.978,attentional_competition_task,2022.2.4,143.98309068480623,
positions.xlsx,positions_test.xlsx,positions_test_new.xlsx,stimuli.xlsx,stimuli_new.xlsx,stimuli/Social3.png,stimuli/Social4.png,stimuli/Nonsocial3.png,stimuli/Nonsocial4.png,stimuli/Social1.png,stimuli/Social2.png,stimuli/Nonsocial1.png,stimuli/Nonsocial2.png,cs_neg_ns,"(-0.7, -0.5)",,,,,,,,,0,0,0,0,,,,,,,,,,,,,0,5,5,9,,,,,,,,,,,,,,,,,,,,,,,,,,,,,,,,,,578.056384800002,33,none,0,,,581.0701642999193,,,,,,,,,,,,,,,,,,,,,,43,C,2024-05-21_12h18.04.978,attentional_competition_task,2022.2.4,143.98309068480623,
positions.xlsx,positions_test.xlsx,positions_test_new.xlsx,stimuli.xlsx,stimuli_new.xlsx,stimuli/Social3.png,stimuli/Social4.png,stimuli/Nonsocial3.png,stimuli/Nonsocial4.png,stimuli/Social1.png,stimuli/Social2.png,stimuli/Nonsocial1.png,stimuli/Nonsocial2.png,cs_pos_s,"(0.7, 0.5)",,,,,,,,,0,0,0,0,,,,,,,,,,,,,0,6,6,6,,,,,,,,,,,,,,,,,,,,,,,,,,,,,,,,,,588.5351074999198,36,reward,1,0.5489749999251217,0.5489788999548182,589.0906462999992,,,,,,,,,,,,,,,,,,,,,,43,C,2024-05-21_12h18.04.978,attentional_competition_task,2022.2.4,143.98309068480623,
positions.xlsx,positions_test.xlsx,positions_test_new.xlsx,stimuli.xlsx,stimuli_new.xlsx,stimuli/Social3.png,stimuli/Social4.png,stimuli/Nonsocial3.png,stimuli/Nonsocial4.png,stimuli/Social1.png,stimuli/Social2.png,stimuli/Nonsocial1.png,stimuli/Nonsocial2.png,cs_pos_ns,"(-0.7, 0.5)",,,,,,,,,0,0,0,0,,,,,,,,,,,,,0,7,7,12,,,,,,,,,,,,,,,,,,,,,,,,,,,,,,,,,,597.402818899951,39,reward,1,0.8471867000916973,0.847190500004217,598.2569221999729,,,,,,,,,,,,,,,,,,,,,,43,C,2024-05-21_12h18.04.978,attentional_competition_task,2022.2.4,143.98309068480623,
positions.xlsx,positions_test.xlsx,positions_test_new.xlsx,stimuli.xlsx,stimuli_new.xlsx,stimuli/Social3.png,stimuli/Social4.png,stimuli/Nonsocial3.png,stimuli/Nonsocial4.png,stimuli/Social1.png,stimuli/Social2.png,stimuli/Nonsocial1.png,stimuli/Nonsocial2.png,cs_neg_s,"(0.7, -0.5)",,,,,,,,,0,0,0,0,,,,,,,,,,,,,0,8,8,3,,,,,,,,,,,,,,,,,,,,,,,,,,,,,,,,,,605.0900123999454,39,none,0,,,608.1038116000127,,,,,,,,,,,,,,,,,,,,,,43,C,2024-05-21_12h18.04.978,attentional_competition_task,2022.2.4,143.98309068480623,
positions.xlsx,positions_test.xlsx,positions_test_new.xlsx,stimuli.xlsx,stimuli_new.xlsx,stimuli/Social3.png,stimuli/Social4.png,stimuli/Nonsocial3.png,stimuli/Nonsocial4.png,stimuli/Social1.png,stimuli/Social2.png,stimuli/Nonsocial1.png,stimuli/Nonsocial2.png,cs_neg_ns,"(0.7, -0.5)",,,,,,,,,0,0,0,0,,,,,,,,,,,,,0,9,9,11,,,,,,,,,,,,,,,,,,,,,,,,,,,,,,,,,,615.7631637000013,39,none,0,,,618.7699951999821,,,,,,,,,,,,,,,,,,,,,,43,C,2024-05-21_12h18.04.978,attentional_competition_task,2022.2.4,143.98309068480623,
positions.xlsx,positions_test.xlsx,positions_test_new.xlsx,stimuli.xlsx,stimuli_new.xlsx,stimuli/Social3.png,stimuli/Social4.png,stimuli/Nonsocial3.png,stimuli/Nonsocial4.png,stimuli/Social1.png,stimuli/Social2.png,stimuli/Nonsocial1.png,stimuli/Nonsocial2.png,cs_neg_ns,"(0.7, 0.5)",,,,,,,,,0,0,0,0,,,,,,,,,,,,,0,10,10,10,,,,,,,,,,,,,,,,,,,,,,,,,,,,,,,,,,626.1724707999965,39,none,0,,,629.186274799984,,,,,,,,,,,,,,,,,,,,,,43,C,2024-05-21_12h18.04.978,attentional_competition_task,2022.2.4,143.98309068480623,
positions.xlsx,positions_test.xlsx,positions_test_new.xlsx,stimuli.xlsx,stimuli_new.xlsx,stimuli/Social3.png,stimuli/Social4.png,stimuli/Nonsocial3.png,stimuli/Nonsocial4.png,stimuli/Social1.png,stimuli/Social2.png,stimuli/Nonsocial1.png,stimuli/Nonsocial2.png,cs_pos_s,"(-0.7, -0.5)",,,,,,,,,0,0,0,0,,,,,,,,,,,,,0,11,11,5,,,,,,,,,,,,,,,,,,,,,,,,,,,,,,,,,,636.8456876999699,42,reward,1,0.6183679999085143,0.6183850999223068,637.4706587999826,,,,,,,,,,,,,,,,,,,,,,43,C,2024-05-21_12h18.04.978,attentional_competition_task,2022.2.4,143.98309068480623,
positions.xlsx,positions_test.xlsx,positions_test_new.xlsx,stimuli.xlsx,stimuli_new.xlsx,stimuli/Social3.png,stimuli/Social4.png,stimuli/Nonsocial3.png,stimuli/Nonsocial4.png,stimuli/Social1.png,stimuli/Social2.png,stimuli/Nonsocial1.png,stimuli/Nonsocial2.png,cs_neg_s,"(-0.7, 0.5)",,,,,,,,,0,0,0,0,,,,,,,,,,,,,0,12,12,0,,,,,,,,,,,,,,,,,,,,,,,,,,,,,,,,,,645.7481217999011,42,none,0,,,648.7618843999226,,,,,,,,,,,,,,,,,,,,,,43,C,2024-05-21_12h18.04.978,attentional_competition_task,2022.2.4,143.98309068480623,
positions.xlsx,positions_test.xlsx,positions_test_new.xlsx,stimuli.xlsx,stimuli_new.xlsx,stimuli/Social3.png,stimuli/Social4.png,stimuli/Nonsocial3.png,stimuli/Nonsocial4.png,stimuli/Social1.png,stimuli/Social2.png,stimuli/Nonsocial1.png,stimuli/Nonsocial2.png,cs_pos_ns,"(0.7, 0.5)",,,,,,,,,0,0,0,0,,,,,,,,,,,,,0,13,13,14,,,,,,,,,,,,,,,,,,,,,,,,,,,,,,,,,,655.6366213000147,45,reward,1,0.8682688999688253,0.8682726999977604,656.5115674999543,,,,,,,,,,,,,,,,,,,,,,43,C,2024-05-21_12h18.04.978,attentional_competition_task,2022.2.4,143.98309068480623,
positions.xlsx,positions_test.xlsx,positions_test_new.xlsx,stimuli.xlsx,stimuli_new.xlsx,stimuli/Social3.png,stimuli/Social4.png,stimuli/Nonsocial3.png,stimuli/Nonsocial4.png,stimuli/Social1.png,stimuli/Social2.png,stimuli/Nonsocial1.png,stimuli/Nonsocial2.png,cs_pos_ns,"(0.7, -0.5)",,,,,,,,,0,0,0,0,,,,,,,,,,,,,0,14,14,15,,,,,,,,,,,,,,,,,,,,,,,,,,,,,,,,,,663.9209929999197,48,reward,1,0.6256829999620095,0.6256865999894217,664.55296859995,,,,,,,,,,,,,,,,,,,,,,43,C,2024-05-21_12h18.04.978,attentional_competition_task,2022.2.4,143.98309068480623,
positions.xlsx,positions_test.xlsx,positions_test_new.xlsx,stimuli.xlsx,stimuli_new.xlsx,stimuli/Social3.png,stimuli/Social4.png,stimuli/Nonsocial3.png,stimuli/Nonsocial4.png,stimuli/Social1.png,stimuli/Social2.png,stimuli/Nonsocial1.png,stimuli/Nonsocial2.png,cs_neg_s,"(0.7, 0.5)",,,,,,,,,0,0,0,0,,,,,,,,,,,,,0,15,15,2,,,,,,,,,,,,,,,,,,,,,,,,,,,,,,,,,,671.9415113999275,48,none,0,,,674.9552728999406,,,,,,,,,,,,,,,,,,,,,,43,C,2024-05-21_12h18.04.978,attentional_competition_task,2022.2.4,143.98309068480623,
positions.xlsx,positions_test.xlsx,positions_test_new.xlsx,stimuli.xlsx,stimuli_new.xlsx,stimuli/Social3.png,stimuli/Social4.png,stimuli/Nonsocial3.png,stimuli/Nonsocial4.png,stimuli/Social1.png,stimuli/Social2.png,stimuli/Nonsocial1.png,stimuli/Nonsocial2.png,cs_pos_ns,"(-0.7, -0.5)",,,,,,,,,0,0,0,0,,,,,,,,,,,,,1,0,16,13,,,,,,,,,,,,,,,,,,,,,,,,,,,,,,,,,,682.142497099936,51,reward,1,0.26446640002541244,0.26447030005510896,682.4133214999456,,,,,,,,,,,,,,,,,,,,,,43,C,2024-05-21_12h18.04.978,attentional_competition_task,2022.2.4,143.98309068480623,
positions.xlsx,positions_test.xlsx,positions_test_new.xlsx,stimuli.xlsx,stimuli_new.xlsx,stimuli/Social3.png,stimuli/Social4.png,stimuli/Nonsocial3.png,stimuli/Nonsocial4.png,stimuli/Social1.png,stimuli/Social2.png,stimuli/Nonsocial1.png,stimuli/Nonsocial2.png,cs_neg_s,"(-0.7, 0.5)",,,,,,,,,0,0,0,0,,,,,,,,,,,,,1,1,17,0,,,,,,,,,,,,,,,,,,,,,,,,,,,,,,,,,,689.406101499917,51,none,0,,,692.4129320000065,,,,,,,,,,,,,,,,,,,,,,43,C,2024-05-21_12h18.04.978,attentional_competition_task,2022.2.4,143.98309068480623,
positions.xlsx,positions_test.xlsx,positions_test_new.xlsx,stimuli.xlsx,stimuli_new.xlsx,stimuli/Social3.png,stimuli/Social4.png,stimuli/Nonsocial3.png,stimuli/Nonsocial4.png,stimuli/Social1.png,stimuli/Social2.png,stimuli/Nonsocial1.png,stimuli/Nonsocial2.png,cs_pos_s,"(0.7, -0.5)",,,,,,,,,0,0,0,0,,,,,,,,,,,,,1,2,18,7,,,,,,,,,,,,,,,,,,,,,,,,,,,,,,,,,,700.1486970999977,54,reward,1,0.6250432999804616,0.6250470000086352,700.7806346999714,,,,,,,,,,,,,,,,,,,,,,43,C,2024-05-21_12h18.04.978,attentional_competition_task,2022.2.4,143.98309068480623,
positions.xlsx,positions_test.xlsx,positions_test_new.xlsx,stimuli.xlsx,stimuli_new.xlsx,stimuli/Social3.png,stimuli/Social4.png,stimuli/Nonsocial3.png,stimuli/Nonsocial4.png,stimuli/Social1.png,stimuli/Social2.png,stimuli/Nonsocial1.png,stimuli/Nonsocial2.png,cs_neg_ns,"(0.7, 0.5)",,,,,,,,,0,0,0,0,,,,,,,,,,,,,1,3,19,10,,,,,,,,,,,,,,,,,,,,,,,,,,,,,,,,,,708.2456306999084,54,none,0,,,711.2593896999024,,,,,,,,,,,,,,,,,,,,,,43,C,2024-05-21_12h18.04.978,attentional_competition_task,2022.2.4,143.98309068480623,
positions.xlsx,positions_test.xlsx,positions_test_new.xlsx,stimuli.xlsx,stimuli_new.xlsx,stimuli/Social3.png,stimuli/Social4.png,stimuli/Nonsocial3.png,stimuli/Nonsocial4.png,stimuli/Social1.png,stimuli/Social2.png,stimuli/Nonsocial1.png,stimuli/Nonsocial2.png,cs_pos_ns,"(-0.7, 0.5)",,,,,,,,,0,0,0,0,,,,,,,,,,,,,1,4,20,12,,,,,,,,,,,,,,,,,,,,,,,,,,,,,,,,,,718.891049399972,57,reward,1,0.5833758999360725,0.5833795999642462,719.4812773999292,,,,,,,,,,,,,,,,,,,,,,43,C,2024-05-21_12h18.04.978,attentional_competition_task,2022.2.4,143.98309068480623,
positions.xlsx,positions_test.xlsx,positions_test_new.xlsx,stimuli.xlsx,stimuli_new.xlsx,stimuli/Social3.png,stimuli/Social4.png,stimuli/Nonsocial3.png,stimuli/Nonsocial4.png,stimuli/Social1.png,stimuli/Social2.png,stimuli/Nonsocial1.png,stimuli/Nonsocial2.png,cs_neg_ns,"(0.7, -0.5)",,,,,,,,,0,0,0,0,,,,,,,,,,,,,1,5,21,11,,,,,,,,,,,,,,,,,,,,,,,,,,,,,,,,,,727.3351363999536,57,none,0,,,730.3489045999013,,,,,,,,,,,,,,,,,,,,,,43,C,2024-05-21_12h18.04.978,attentional_competition_task,2022.2.4,143.98309068480623,
positions.xlsx,positions_test.xlsx,positions_test_new.xlsx,stimuli.xlsx,stimuli_new.xlsx,stimuli/Social3.png,stimuli/Social4.png,stimuli/Nonsocial3.png,stimuli/Nonsocial4.png,stimuli/Social1.png,stimuli/Social2.png,stimuli/Nonsocial1.png,stimuli/Nonsocial2.png,cs_pos_ns,"(0.7, -0.5)",,,,,,,,,0,0,0,0,,,,,,,,,,,,,1,6,22,15,,,,,,,,,,,,,,,,,,,,,,,,,,,,,,,,,,738.1750303999288,60,reward,1,0.604273600038141,0.6113793000113219,738.793021599995,,,,,,,,,,,,,,,,,,,,,,43,C,2024-05-21_12h18.04.978,attentional_competition_task,2022.2.4,143.98309068480623,
positions.xlsx,positions_test.xlsx,positions_test_new.xlsx,stimuli.xlsx,stimuli_new.xlsx,stimuli/Social3.png,stimuli/Social4.png,stimuli/Nonsocial3.png,stimuli/Nonsocial4.png,stimuli/Social1.png,stimuli/Social2.png,stimuli/Nonsocial1.png,stimuli/Nonsocial2.png,cs_pos_s,"(-0.7, 0.5)",,,,,,,,,0,0,0,0,,,,,,,,,,,,,1,7,23,4,,,,,,,,,,,,,,,,,,,,,,,,,,,,,,,,,,745.5704983999021,63,reward,1,0.5629372000694275,0.56294049997814,746.1399317999603,,,,,,,,,,,,,,,,,,,,,,43,C,2024-05-21_12h18.04.978,attentional_competition_task,2022.2.4,143.98309068480623,
positions.xlsx,positions_test.xlsx,positions_test_new.xlsx,stimuli.xlsx,stimuli_new.xlsx,stimuli/Social3.png,stimuli/Social4.png,stimuli/Nonsocial3.png,stimuli/Nonsocial4.png,stimuli/Social1.png,stimuli/Social2.png,stimuli/Nonsocial1.png,stimuli/Nonsocial2.png,cs_pos_s,"(-0.7, -0.5)",,,,,,,,,0,0,0,0,,,,,,,,,,,,,1,8,24,5,,,,,,,,,,,,,,,,,,,,,,,,,,,,,,,,,,753.5146534999367,66,reward,1,0.5004234999651089,0.5004270999925211,754.0215611999156,,,,,,,,,,,,,,,,,,,,,,43,C,2024-05-21_12h18.04.978,attentional_competition_task,2022.2.4,143.98309068480623,
positions.xlsx,positions_test.xlsx,positions_test_new.xlsx,stimuli.xlsx,stimuli_new.xlsx,stimuli/Social3.png,stimuli/Social4.png,stimuli/Nonsocial3.png,stimuli/Nonsocial4.png,stimuli/Social1.png,stimuli/Social2.png,stimuli/Nonsocial1.png,stimuli/Nonsocial2.png,cs_neg_s,"(0.7, 0.5)",,,,,,,,,0,0,0,0,,,,,,,,,,,,,1,9,25,2,,,,,,,,,,,,,,,,,,,,,,,,,,,,,,,,,,761.15327349992,66,none,0,,,764.1600638999371,,,,,,,,,,,,,,,,,,,,,,43,C,2024-05-21_12h18.04.978,attentional_competition_task,2022.2.4,143.98309068480623,
positions.xlsx,positions_test.xlsx,positions_test_new.xlsx,stimuli.xlsx,stimuli_new.xlsx,stimuli/Social3.png,stimuli/Social4.png,stimuli/Nonsocial3.png,stimuli/Nonsocial4.png,stimuli/Social1.png,stimuli/Social2.png,stimuli/Nonsocial1.png,stimuli/Nonsocial2.png,cs_pos_ns,"(0.7, 0.5)",,,,,,,,,0,0,0,0,,,,,,,,,,,,,1,10,26,14,,,,,,,,,,,,,,,,,,,,,,,,,,,,,,,,,,771.7084052999271,69,reward,1,0.4653637999435887,0.46536759997252375,772.1805528999539,,,,,,,,,,,,,,,,,,,,,,43,C,2024-05-21_12h18.04.978,attentional_competition_task,2022.2.4,143.98309068480623,
positions.xlsx,positions_test.xlsx,positions_test_new.xlsx,stimuli.xlsx,stimuli_new.xlsx,stimuli/Social3.png,stimuli/Social4.png,stimuli/Nonsocial3.png,stimuli/Nonsocial4.png,stimuli/Social1.png,stimuli/Social2.png,stimuli/Nonsocial1.png,stimuli/Nonsocial2.png,cs_neg_s,"(-0.7, -0.5)",,,,,,,,,0,0,0,0,,,,,,,,,,,,,1,11,27,1,,,,,,,,,,,,,,,,,,,,,,,,,,,,,,,,,,779.9788859999971,69,none,0,,,782.985680499929,,,,,,,,,,,,,,,,,,,,,,43,C,2024-05-21_12h18.04.978,attentional_competition_task,2022.2.4,143.98309068480623,
positions.xlsx,positions_test.xlsx,positions_test_new.xlsx,stimuli.xlsx,stimuli_new.xlsx,stimuli/Social3.png,stimuli/Social4.png,stimuli/Nonsocial3.png,stimuli/Nonsocial4.png,stimuli/Social1.png,stimuli/Social2.png,stimuli/Nonsocial1.png,stimuli/Nonsocial2.png,cs_neg_ns,"(-0.7, 0.5)",,,,,,,,,0,0,0,0,,,,,,,,,,,,,1,12,28,8,,,,,,,,,,,,,,,,,,,,,,,,,,,,,,,,,,790.7353919999441,69,none,0,,,793.742216099985,,,,,,,,,,,,,,,,,,,,,,43,C,2024-05-21_12h18.04.978,attentional_competition_task,2022.2.4,143.98309068480623,
positions.xlsx,positions_test.xlsx,positions_test_new.xlsx,stimuli.xlsx,stimuli_new.xlsx,stimuli/Social3.png,stimuli/Social4.png,stimuli/Nonsocial3.png,stimuli/Nonsocial4.png,stimuli/Social1.png,stimuli/Social2.png,stimuli/Nonsocial1.png,stimuli/Nonsocial2.png,cs_neg_ns,"(-0.7, -0.5)",,,,,,,,,0,0,0,0,,,,,,,,,,,,,1,13,29,9,,,,,,,,,,,,,,,,,,,,,,,,,,,,,,,,,,801.922430299921,66,loss,1,0.798645899980329,0.8054365999996662,802.734913699911,,,,,,,,,,,,,,,,,,,,,,43,C,2024-05-21_12h18.04.978,attentional_competition_task,2022.2.4,143.98309068480623,
positions.xlsx,positions_test.xlsx,positions_test_new.xlsx,stimuli.xlsx,stimuli_new.xlsx,stimuli/Social3.png,stimuli/Social4.png,stimuli/Nonsocial3.png,stimuli/Nonsocial4.png,stimuli/Social1.png,stimuli/Social2.png,stimuli/Nonsocial1.png,stimuli/Nonsocial2.png,cs_pos_s,"(0.7, 0.5)",,,,,,,,,0,0,0,0,,,,,,,,,,,,,1,14,30,6,,,,,,,,,,,,,,,,,,,,,,,,,,,,,,,,,,810.7484968999634,69,reward,1,0.5346708000870422,0.534674399998039,811.2901647000108,,,,,,,,,,,,,,,,,,,,,,43,C,2024-05-21_12h18.04.978,attentional_competition_task,2022.2.4,143.98309068480623,
positions.xlsx,positions_test.xlsx,positions_test_new.xlsx,stimuli.xlsx,stimuli_new.xlsx,stimuli/Social3.png,stimuli/Social4.png,stimuli/Nonsocial3.png,stimuli/Nonsocial4.png,stimuli/Social1.png,stimuli/Social2.png,stimuli/Nonsocial1.png,stimuli/Nonsocial2.png,cs_neg_s,"(0.7, -0.5)",,,,,,,,,0,0,0,0,,,,,,,,,,,,,1,15,31,3,,,,,,,,,,,,,,,,,,,,,,,,,,,,,,,,,,819.3106282999506,66,loss,1,1.7432633999269456,1.743267499958165,821.0605769999092,,,,,,,,,,,,,,,,,,,,,,43,C,2024-05-21_12h18.04.978,attentional_competition_task,2022.2.4,143.98309068480623,
positions.xlsx,positions_test.xlsx,positions_test_new.xlsx,stimuli.xlsx,stimuli_new.xlsx,stimuli/Social3.png,stimuli/Social4.png,stimuli/Nonsocial3.png,stimuli/Nonsocial4.png,stimuli/Social1.png,stimuli/Social2.png,stimuli/Nonsocial1.png,stimuli/Nonsocial2.png,cs_pos_ns,,,,,,,,,,0,0,0,0,,,,,,,,,,,,,,,,,0,0,0,3,,,,,,,,,,,,,,,,,,,,,,,825.775663599954,7.0,5.441652399953455,,,,,,,,,,,,,,,,,,,,,,,,,,,,,,,,,43,C,2024-05-21_12h18.04.978,attentional_competition_task,2022.2.4,143.98309068480623,
positions.xlsx,positions_test.xlsx,positions_test_new.xlsx,stimuli.xlsx,stimuli_new.xlsx,stimuli/Social3.png,stimuli/Social4.png,stimuli/Nonsocial3.png,stimuli/Nonsocial4.png,stimuli/Social1.png,stimuli/Social2.png,stimuli/Nonsocial1.png,stimuli/Nonsocial2.png,cs_neg_ns,,,,,,,,,,0,0,0,0,,,,,,,,,,,,,,,,,0,1,1,1,,,,,,,,,,,,,,,,,,,,,,,831.4560378999449,4.0,2.4178375999908894,,,,,,,,,,,,,,,,,,,,,,,,,,,,,,,,,43,C,2024-05-21_12h18.04.978,attentional_competition_task,2022.2.4,143.98309068480623,
positions.xlsx,positions_test.xlsx,positions_test_new.xlsx,stimuli.xlsx,stimuli_new.xlsx,stimuli/Social3.png,stimuli/Social4.png,stimuli/Nonsocial3.png,stimuli/Nonsocial4.png,stimuli/Social1.png,stimuli/Social2.png,stimuli/Nonsocial1.png,stimuli/Nonsocial2.png,cs_pos_s,,,,,,,,,,0,0,0,0,,,,,,,,,,,,,,,,,0,2,2,2,,,,,,,,,,,,,,,,,,,,,,,834.1017537999433,8.0,2.099351500044577,,,,,,,,,,,,,,,,,,,,,,,,,,,,,,,,,43,C,2024-05-21_12h18.04.978,attentional_competition_task,2022.2.4,143.98309068480623,
positions.xlsx,positions_test.xlsx,positions_test_new.xlsx,stimuli.xlsx,stimuli_new.xlsx,stimuli/Social3.png,stimuli/Social4.png,stimuli/Nonsocial3.png,stimuli/Nonsocial4.png,stimuli/Social1.png,stimuli/Social2.png,stimuli/Nonsocial1.png,stimuli/Nonsocial2.png,cs_neg_s,,,,,,,,,,0,0,0,0,,,,,,,,,,,,,,,,,0,3,3,0,,,,,,,,,,,,,,,,,,,,,,,836.6780222000089,2.0,1.322408500011079,,,,,,,,,,,,,,,,,,,,,,,,,,,,,,,,,43,C,2024-05-21_12h18.04.978,attentional_competition_task,2022.2.4,143.98309068480623,
positions.xlsx,positions_test.xlsx,positions_test_new.xlsx,stimuli.xlsx,stimuli_new.xlsx,stimuli/Social3.png,stimuli/Social4.png,stimuli/Nonsocial3.png,stimuli/Nonsocial4.png,stimuli/Social1.png,stimuli/Social2.png,stimuli/Nonsocial1.png,stimuli/Nonsocial2.png,,,"(-0.7, -0.5)",cs_neg_s,"(-0.7, 0.5)",cs_pos_ns,"(0.7, -0.5)",cs_neg_ns,"(0.7, 0.5)",cs_pos_s,0,0,0,0,,,,,,,,,,,,,,,,,,,,,0,0,0,5,,,,,,,,,,,,,,,,,,,,,,,,,,,72,reward,,,,,838.1987992000068,845.1082680999534,845.1082680999534,845.1082680999534,845.1082680999534,0,,,1,0.023258800036273897,0.3917908000294119,0,,,0,,,846.0109934000066,846.0109934000066,846.0109934000066,846.0109934000066,43,C,2024-05-21_12h18.04.978,attentional_competition_task,2022.2.4,143.98309068480623,
positions.xlsx,positions_test.xlsx,positions_test_new.xlsx,stimuli.xlsx,stimuli_new.xlsx,stimuli/Social3.png,stimuli/Social4.png,stimuli/Nonsocial3.png,stimuli/Nonsocial4.png,stimuli/Social1.png,stimuli/Social2.png,stimuli/Nonsocial1.png,stimuli/Nonsocial2.png,,,"(-0.7, -0.5)",cs_pos_s,"(-0.7, 0.5)",cs_pos_ns,"(0.7, -0.5)",cs_neg_ns,"(0.7, 0.5)",cs_neg_s,0,0,0,0,,,,,,,,,,,,,,,,,,,,,0,1,1,11,,,,,,,,,,,,,,,,,,,,,,,,,,,81,reward,,,,,,853.8439988999162,853.8439988999162,853.8439988999162,853.8439988999162,0,,,1,0.02297990000806749,0.08689180004876107,0,,,0,,,854.7051370999543,854.7051370999543,854.7051370999543,854.7051370999543,43,C,2024-05-21_12h18.04.978,attentional_competition_task,2022.2.4,143.98309068480623,
positions.xlsx,positions_test.xlsx,positions_test_new.xlsx,stimuli.xlsx,stimuli_new.xlsx,stimuli/Social3.png,stimuli/Social4.png,stimuli/Nonsocial3.png,stimuli/Nonsocial4.png,stimuli/Social1.png,stimuli/Social2.png,stimuli/Nonsocial1.png,stimuli/Nonsocial2.png,,,"(-0.7, -0.5)",cs_neg_ns,"(-0.7, 0.5)",cs_pos_s,"(0.7, -0.5)",cs_neg_s,"(0.7, 0.5)",cs_pos_ns,0,0,0,0,,,,,,,,,,,,,,,,,,,,,0,2,2,12,,,,,,,,,,,,,,,,,,,,,,,,,,,90,reward,,,,,,862.9547557999613,862.9547557999613,862.9547557999613,862.9547557999613,0,,,0,,,0,,,1,0.03144160006195307,0.07907560002058744,863.9338933000108,863.9338933000108,863.9338933000108,863.9338933000108,43,C,2024-05-21_12h18.04.978,attentional_competition_task,2022.2.4,143.98309068480623,
positions.xlsx,positions_test.xlsx,positions_test_new.xlsx,stimuli.xlsx,stimuli_new.xlsx,stimuli/Social3.png,stimuli/Social4.png,stimuli/Nonsocial3.png,stimuli/Nonsocial4.png,stimuli/Social1.png,stimuli/Social2.png,stimuli/Nonsocial1.png,stimuli/Nonsocial2.png,,,"(-0.7, -0.5)",cs_neg_s,"(-0.7, 0.5)",cs_neg_ns,"(0.7, -0.5)",cs_pos_s,"(0.7, 0.5)",cs_pos_ns,0,0,0,0,,,,,,,,,,,,,,,,,,,,,0,3,3,2,,,,,,,,,,,,,,,,,,,,,,,,,,,99,reward,,,,,,872.1071651999373,872.1071651999373,872.1071651999373,872.1071651999373,0,,,0,,,0,,,1,0.024335899972356856,0.36526399990543723,873.0585621999344,873.0585621999344,873.0585621999344,873.0585621999344,43,C,2024-05-21_12h18.04.978,attentional_competition_task,2022.2.4,143.98309068480623,
positions.xlsx,positions_test.xlsx,positions_test_new.xlsx,stimuli.xlsx,stimuli_new.xlsx,stimuli/Social3.png,stimuli/Social4.png,stimuli/Nonsocial3.png,stimuli/Nonsocial4.png,stimuli/Social1.png,stimuli/Social2.png,stimuli/Nonsocial1.png,stimuli/Nonsocial2.png,,,"(-0.7, -0.5)",cs_pos_s,"(-0.7, 0.5)",cs_neg_ns,"(0.7, -0.5)",cs_neg_s,"(0.7, 0.5)",cs_pos_ns,0,0,0,0,,,,,,,,,,,,,,,,,,,,,0,4,4,8,,,,,,,,,,,,,,,,,,,,,,,,,,,102,reward,,,,,,880.5374038999435,880.5374038999435,880.5374038999435,880.5374038999435,0,,,0,,,0,,,1,0.024123799987137318,0.024127400014549494,880.5374038999435,880.5374038999435,880.5374038999435,880.5374038999435,43,C,2024-05-21_12h18.04.978,attentional_competition_task,2022.2.4,143.98309068480623,
positions.xlsx,positions_test.xlsx,positions_test_new.xlsx,stimuli.xlsx,stimuli_new.xlsx,stimuli/Social3.png,stimuli/Social4.png,stimuli/Nonsocial3.png,stimuli/Nonsocial4.png,stimuli/Social1.png,stimuli/Social2.png,stimuli/Nonsocial1.png,stimuli/Nonsocial2.png,,,"(-0.7, -0.5)",cs_pos_ns,"(-0.7, 0.5)",cs_neg_s,"(0.7, -0.5)",cs_pos_s,"(0.7, 0.5)",cs_neg_ns,0,0,0,0,,,,,,,,,,,,,,,,,,,,,0,5,5,22,,,,,,,,,,,,,,,,,,,,,,,,,,,102,loss,,,,,,888.6829087999649,888.6829087999649,888.6829087999649,888.6829087999649,0,,,0,,,1,0.02420640003401786,0.34466770000290126,1,0.3449377999641001,0.3449417999945581,889.0300825999584,889.0300825999584,889.0300825999584,889.0300825999584,43,C,2024-05-21_12h18.04.978,attentional_competition_task,2022.2.4,143.98309068480623,
positions.xlsx,positions_test.xlsx,positions_test_new.xlsx,stimuli.xlsx,stimuli_new.xlsx,stimuli/Social3.png,stimuli/Social4.png,stimuli/Nonsocial3.png,stimuli/Nonsocial4.png,stimuli/Social1.png,stimuli/Social2.png,stimuli/Nonsocial1.png,stimuli/Nonsocial2.png,,,"(-0.7, -0.5)",cs_neg_s,"(-0.7, 0.5)",cs_pos_s,"(0.7, -0.5)",cs_pos_ns,"(0.7, 0.5)",cs_neg_ns,0,0,0,0,,,,,,,,,,,,,,,,,,,,,0,6,6,1,,,,,,,,,,,,,,,,,,,,,,,,,,,111,reward,,,,,,898.4394614999183,898.4394614999183,898.4394614999183,898.4394614999183,0,,,0,,,0,,,0,,,899.2380828999449,899.2380828999449,899.2380828999449,899.2380828999449,43,C,2024-05-21_12h18.04.978,attentional_competition_task,2022.2.4,143.98309068480623,
positions.xlsx,positions_test.xlsx,positions_test_new.xlsx,stimuli.xlsx,stimuli_new.xlsx,stimuli/Social3.png,stimuli/Social4.png,stimuli/Nonsocial3.png,stimuli/Nonsocial4.png,stimuli/Social1.png,stimuli/Social2.png,stimuli/Nonsocial1.png,stimuli/Nonsocial2.png,,,"(-0.7, -0.5)",cs_pos_ns,"(-0.7, 0.5)",cs_pos_s,"(0.7, -0.5)",cs_neg_s,"(0.7, 0.5)",cs_neg_ns,0,0,0,0,,,,,,,,,,,,,,,,,,,,,0,7,7,19,,,,,,,,,,,,,,,,,,,,,,,,,,,120,reward,,,,,,906.5085574999684,906.5085574999684,906.5085574999684,906.5085574999684,1,0.022658500005491078,0.26690470008179545,0,,,0,,,0,,,907.5224426999921,907.5224426999921,907.5224426999921,907.5224426999921,43,C,2024-05-21_12h18.04.978,attentional_competition_task,2022.2.4,143.98309068480623,
positions.xlsx,positions_test.xlsx,positions_test_new.xlsx,stimuli.xlsx,stimuli_new.xlsx,stimuli/Social3.png,stimuli/Social4.png,stimuli/Nonsocial3.png,stimuli/Nonsocial4.png,stimuli/Social1.png,stimuli/Social2.png,stimuli/Nonsocial1.png,stimuli/Nonsocial2.png,,,"(-0.7, -0.5)",cs_pos_s,"(-0.7, 0.5)",cs_neg_s,"(0.7, -0.5)",cs_neg_ns,"(0.7, 0.5)",cs_pos_ns,0,0,0,0,,,,,,,,,,,,,,,,,,,,,0,8,8,6,,,,,,,,,,,,,,,,,,,,,,,,,,,123,reward,,,,,,914.9943644999294,914.9943644999294,914.9943644999294,914.9943644999294,0,,,0,,,0,,,1,0.024168299976736307,0.024171900004148483,914.9943644999294,914.9943644999294,914.9943644999294,914.9943644999294,43,C,2024-05-21_12h18.04.978,attentional_competition_task,2022.2.4,143.98309068480623,
positions.xlsx,positions_test.xlsx,positions_test_new.xlsx,stimuli.xlsx,stimuli_new.xlsx,stimuli/Social3.png,stimuli/Social4.png,stimuli/Nonsocial3.png,stimuli/Nonsocial4.png,stimuli/Social1.png,stimuli/Social2.png,stimuli/Nonsocial1.png,stimuli/Nonsocial2.png,,,"(-0.7, -0.5)",cs_pos_s,"(-0.7, 0.5)",cs_neg_s,"(0.7, -0.5)",cs_pos_ns,"(0.7, 0.5)",cs_neg_ns,0,0,0,0,,,,,,,,,,,,,,,,,,,,,0,9,9,7,,,,,,,,,,,,,,,,,,,,,,,,,,,132,reward,,,,,,923.3273396999575,923.3273396999575,923.3273396999575,923.3273396999575,0,,,0,,,1,0.031231499975547194,0.25863489997573197,0,,,924.2578894000035,924.2578894000035,924.2578894000035,924.2578894000035,43,C,2024-05-21_12h18.04.978,attentional_competition_task,2022.2.4,143.98309068480623,
positions.xlsx,positions_test.xlsx,positions_test_new.xlsx,stimuli.xlsx,stimuli_new.xlsx,stimuli/Social3.png,stimuli/Social4.png,stimuli/Nonsocial3.png,stimuli/Nonsocial4.png,stimuli/Social1.png,stimuli/Social2.png,stimuli/Nonsocial1.png,stimuli/Nonsocial2.png,,,"(-0.7, -0.5)",cs_neg_s,"(-0.7, 0.5)",cs_pos_s,"(0.7, -0.5)",cs_neg_ns,"(0.7, 0.5)",cs_pos_ns,0,0,0,0,,,,,,,,,,,,,,,,,,,,,0,10,10,0,,,,,,,,,,,,,,,,,,,,,,,,,,,135,reward,,,,,,932.6186318999389,932.6186318999389,932.6186318999389,932.6186318999389,0,,,0,,,0,,,1,0.02862879994791001,0.028632499976083636,932.6186318999389,932.6186318999389,932.6186318999389,932.6186318999389,43,C,2024-05-21_12h18.04.978,attentional_competition_task,2022.2.4,143.98309068480623,
positions.xlsx,positions_test.xlsx,positions_test_new.xlsx,stimuli.xlsx,stimuli_new.xlsx,stimuli/Social3.png,stimuli/Social4.png,stimuli/Nonsocial3.png,stimuli/Nonsocial4.png,stimuli/Social1.png,stimuli/Social2.png,stimuli/Nonsocial1.png,stimuli/Nonsocial2.png,,,"(-0.7, -0.5)",cs_pos_ns,"(-0.7, 0.5)",cs_neg_ns,"(0.7, -0.5)",cs_pos_s,"(0.7, 0.5)",cs_neg_s,0,0,0,0,,,,,,,,,,,,,,,,,,,,,0,11,11,20,,,,,,,,,,,,,,,,,,,,,,,,,,,144,reward,,,,,,941.6669358999934,941.6669358999934,941.6669358999934,941.6669358999934,1,0.02238400001078844,0.10700830002315342,0,,,0,,,0,,,942.7224281999515,942.7224281999515,942.7224281999515,942.7224281999515,43,C,2024-05-21_12h18.04.978,attentional_competition_task,2022.2.4,143.98309068480623,
positions.xlsx,positions_test.xlsx,positions_test_new.xlsx,stimuli.xlsx,stimuli_new.xlsx,stimuli/Social3.png,stimuli/Social4.png,stimuli/Nonsocial3.png,stimuli/Nonsocial4.png,stimuli/Social1.png,stimuli/Social2.png,stimuli/Nonsocial1.png,stimuli/Nonsocial2.png,,,"(-0.7, -0.5)",cs_neg_ns,"(-0.7, 0.5)",cs_pos_s,"(0.7, -0.5)",cs_pos_ns,"(0.7, 0.5)",cs_neg_s,0,0,0,0,,,,,,,,,,,,,,,,,,,,,0,12,12,13,,,,,,,,,,,,,,,,,,,,,,,,,,,150,reward,,,,,,951.0831984999822,951.0831984999822,951.0831984999822,951.0831984999822,0,,,0,,,0,,,0,,,951.6387418999802,951.6387418999802,951.6387418999802,951.6387418999802,43,C,2024-05-21_12h18.04.978,attentional_competition_task,2022.2.4,143.98309068480623,
positions.xlsx,positions_test.xlsx,positions_test_new.xlsx,stimuli.xlsx,stimuli_new.xlsx,stimuli/Social3.png,stimuli/Social4.png,stimuli/Nonsocial3.png,stimuli/Nonsocial4.png,stimuli/Social1.png,stimuli/Social2.png,stimuli/Nonsocial1.png,stimuli/Nonsocial2.png,,,"(-0.7, -0.5)",cs_neg_ns,"(-0.7, 0.5)",cs_pos_ns,"(0.7, -0.5)",cs_neg_s,"(0.7, 0.5)",cs_pos_s,0,0,0,0,,,,,,,,,,,,,,,,,,,,,0,13,13,17,,,,,,,,,,,,,,,,,,,,,,,,,,,153,reward,,,,,,958.7287257999415,958.7287257999415,958.7287257999415,958.7287257999415,0,,,1,0.024657699977979064,0.024661599891260266,0,,,0,,,958.7287257999415,958.7287257999415,958.7287257999415,958.7287257999415,43,C,2024-05-21_12h18.04.978,attentional_competition_task,2022.2.4,143.98309068480623,
positions.xlsx,positions_test.xlsx,positions_test_new.xlsx,stimuli.xlsx,stimuli_new.xlsx,stimuli/Social3.png,stimuli/Social4.png,stimuli/Nonsocial3.png,stimuli/Nonsocial4.png,stimuli/Social1.png,stimuli/Social2.png,stimuli/Nonsocial1.png,stimuli/Nonsocial2.png,,,"(-0.7, -0.5)",cs_pos_ns,"(-0.7, 0.5)",cs_neg_ns,"(0.7, -0.5)",cs_neg_s,"(0.7, 0.5)",cs_pos_s,0,0,0,0,,,,,,,,,,,,,,,,,,,,,0,14,14,21,,,,,,,,,,,,,,,,,,,,,,,,,,,162,reward,,,,,,967.374249799992,967.374249799992,967.374249799992,967.374249799992,1,0.025276900036260486,0.18341509997844696,0,,,0,,,0,,,968.2283605999546,968.2283605999546,968.2283605999546,968.2283605999546,43,C,2024-05-21_12h18.04.978,attentional_competition_task,2022.2.4,143.98309068480623,
positions.xlsx,positions_test.xlsx,positions_test_new.xlsx,stimuli.xlsx,stimuli_new.xlsx,stimuli/Social3.png,stimuli/Social4.png,stimuli/Nonsocial3.png,stimuli/Nonsocial4.png,stimuli/Social1.png,stimuli/Social2.png,stimuli/Nonsocial1.png,stimuli/Nonsocial2.png,,,"(-0.7, -0.5)",cs_pos_ns,"(-0.7, 0.5)",cs_pos_s,"(0.7, -0.5)",cs_neg_ns,"(0.7, 0.5)",cs_neg_s,0,0,0,0,,,,,,,,,,,,,,,,,,,,,0,15,15,18,,,,,,,,,,,,,,,,,,,,,,,,,,,165,reward,,,,,,975.55448349996,975.55448349996,975.55448349996,975.55448349996,1,0.02969839994329959,0.029702099971473217,0,,,0,,,0,,,975.55448349996,975.55448349996,975.55448349996,975.55448349996,43,C,2024-05-21_12h18.04.978,attentional_competition_task,2022.2.4,143.98309068480623,
positions.xlsx,positions_test.xlsx,positions_test_new.xlsx,stimuli.xlsx,stimuli_new.xlsx,stimuli/Social3.png,stimuli/Social4.png,stimuli/Nonsocial3.png,stimuli/Nonsocial4.png,stimuli/Social1.png,stimuli/Social2.png,stimuli/Nonsocial1.png,stimuli/Nonsocial2.png,,,"(-0.7, -0.5)",cs_neg_ns,"(-0.7, 0.5)",cs_pos_ns,"(0.7, -0.5)",cs_pos_s,"(0.7, 0.5)",cs_neg_s,0,0,0,0,,,,,,,,,,,,,,,,,,,,,0,16,16,16,,,,,,,,,,,,,,,,,,,,,,,,,,,168,reward,,,,,,985.6651716999477,985.6651716999477,985.6651716999477,985.6651716999477,0,,,1,0.023031000047922134,0.02303480007685721,0,,,0,,,985.6651716999477,985.6651716999477,985.6651716999477,985.6651716999477,43,C,2024-05-21_12h18.04.978,attentional_competition_task,2022.2.4,143.98309068480623,
positions.xlsx,positions_test.xlsx,positions_test_new.xlsx,stimuli.xlsx,stimuli_new.xlsx,stimuli/Social3.png,stimuli/Social4.png,stimuli/Nonsocial3.png,stimuli/Nonsocial4.png,stimuli/Social1.png,stimuli/Social2.png,stimuli/Nonsocial1.png,stimuli/Nonsocial2.png,,,"(-0.7, -0.5)",cs_neg_ns,"(-0.7, 0.5)",cs_neg_s,"(0.7, -0.5)",cs_pos_s,"(0.7, 0.5)",cs_pos_ns,0,0,0,0,,,,,,,,,,,,,,,,,,,,,0,17,17,14,,,,,,,,,,,,,,,,,,,,,,,,,,,171,reward,,,,,,993.5676385000115,993.5676385000115,993.5676385000115,993.5676385000115,0,,,0,,,1,0.023015799932181835,0.03161429997999221,0,,,993.6092941999668,993.6092941999668,993.6092941999668,993.6092941999668,43,C,2024-05-21_12h18.04.978,attentional_competition_task,2022.2.4,143.98309068480623,
positions.xlsx,positions_test.xlsx,positions_test_new.xlsx,stimuli.xlsx,stimuli_new.xlsx,stimuli/Social3.png,stimuli/Social4.png,stimuli/Nonsocial3.png,stimuli/Nonsocial4.png,stimuli/Social1.png,stimuli/Social2.png,stimuli/Nonsocial1.png,stimuli/Nonsocial2.png,,,"(-0.7, -0.5)",cs_neg_ns,"(-0.7, 0.5)",cs_neg_s,"(0.7, -0.5)",cs_pos_ns,"(0.7, 0.5)",cs_pos_s,0,0,0,0,,,,,,,,,,,,,,,,,,,,,0,18,18,15,,,,,,,,,,,,,,,,,,,,,,,,,,,180,reward,,,,,,1002.3034357000142,1002.3034357000142,1002.3034357000142,1002.3034357000142,0,,,0,,,0,,,1,0.024626499973237514,0.038759700022637844,1003.3450286999578,1003.3450286999578,1003.3450286999578,1003.3450286999578,43,C,2024-05-21_12h18.04.978,attentional_competition_task,2022.2.4,143.98309068480623,
positions.xlsx,positions_test.xlsx,positions_test_new.xlsx,stimuli.xlsx,stimuli_new.xlsx,stimuli/Social3.png,stimuli/Social4.png,stimuli/Nonsocial3.png,stimuli/Nonsocial4.png,stimuli/Social1.png,stimuli/Social2.png,stimuli/Nonsocial1.png,stimuli/Nonsocial2.png,,,"(-0.7, -0.5)",cs_pos_ns,"(-0.7, 0.5)",cs_neg_s,"(0.7, -0.5)",cs_neg_ns,"(0.7, 0.5)",cs_pos_s,0,0,0,0,,,,,,,,,,,,,,,,,,,,,0,19,19,23,,,,,,,,,,,,,,,,,,,,,,,,,,,186,reward,,,,,,1012.1988420999842,1012.1988420999842,1012.1988420999842,1012.1988420999842,0,,,0,,,0,,,0,,,1012.1988420999842,1012.1988420999842,1012.1988420999842,1012.1988420999842,43,C,2024-05-21_12h18.04.978,attentional_competition_task,2022.2.4,143.98309068480623,
positions.xlsx,positions_test.xlsx,positions_test_new.xlsx,stimuli.xlsx,stimuli_new.xlsx,stimuli/Social3.png,stimuli/Social4.png,stimuli/Nonsocial3.png,stimuli/Nonsocial4.png,stimuli/Social1.png,stimuli/Social2.png,stimuli/Nonsocial1.png,stimuli/Nonsocial2.png,,,"(-0.7, -0.5)",cs_neg_s,"(-0.7, 0.5)",cs_neg_ns,"(0.7, -0.5)",cs_pos_ns,"(0.7, 0.5)",cs_pos_s,0,0,0,0,,,,,,,,,,,,,,,,,,,,,0,20,20,3,,,,,,,,,,,,,,,,,,,,,,,,,,,195,reward,,,,,,1020.5040503999917,1020.5040503999917,1020.5040503999917,1020.5040503999917,0,,,0,,,0,,,0,,,1021.3582007999066,1021.3582007999066,1021.3582007999066,1021.3582007999066,43,C,2024-05-21_12h18.04.978,attentional_competition_task,2022.2.4,143.98309068480623,
positions.xlsx,positions_test.xlsx,positions_test_new.xlsx,stimuli.xlsx,stimuli_new.xlsx,stimuli/Social3.png,stimuli/Social4.png,stimuli/Nonsocial3.png,stimuli/Nonsocial4.png,stimuli/Social1.png,stimuli/Social2.png,stimuli/Nonsocial1.png,stimuli/Nonsocial2.png,,,"(-0.7, -0.5)",cs_pos_s,"(-0.7, 0.5)",cs_neg_ns,"(0.7, -0.5)",cs_pos_ns,"(0.7, 0.5)",cs_neg_s,0,0,0,0,,,,,,,,,,,,,,,,,,,,,0,21,21,9,,,,,,,,,,,,,,,,,,,,,,,,,,,198,loss,,,,,,1029.5592850999674,1029.5592850999674,1029.5592850999674,1029.5592850999674,0,,,1,0.023743199999444187,0.02374710002914071,0,,,0,,,1029.5592850999674,1029.5592850999674,1029.5592850999674,1029.5592850999674,43,C,2024-05-21_12h18.04.978,attentional_competition_task,2022.2.4,143.98309068480623,
positions.xlsx,positions_test.xlsx,positions_test_new.xlsx,stimuli.xlsx,stimuli_new.xlsx,stimuli/Social3.png,stimuli/Social4.png,stimuli/Nonsocial3.png,stimuli/Nonsocial4.png,stimuli/Social1.png,stimuli/Social2.png,stimuli/Nonsocial1.png,stimuli/Nonsocial2.png,,,"(-0.7, -0.5)",cs_pos_s,"(-0.7, 0.5)",cs_pos_ns,"(0.7, -0.5)",cs_neg_s,"(0.7, 0.5)",cs_neg_ns,0,0,0,0,,,,,,,,,,,,,,,,,,,,,0,22,22,10,,,,,,,,,,,,,,,,,,,,,,,,,,,201,reward,,,,,,1039.3852626999142,1039.3852626999142,1039.3852626999142,1039.3852626999142,1,0.02598580007907003,0.025989599991589785,0,,,0,,,0,,,1039.3852626999142,1039.3852626999142,1039.3852626999142,1039.3852626999142,43,C,2024-05-21_12h18.04.978,attentional_competition_task,2022.2.4,143.98309068480623,
positions.xlsx,positions_test.xlsx,positions_test_new.xlsx,stimuli.xlsx,stimuli_new.xlsx,stimuli/Social3.png,stimuli/Social4.png,stimuli/Nonsocial3.png,stimuli/Nonsocial4.png,stimuli/Social1.png,stimuli/Social2.png,stimuli/Nonsocial1.png,stimuli/Nonsocial2.png,,,"(-0.7, -0.5)",cs_neg_s,"(-0.7, 0.5)",cs_pos_ns,"(0.7, -0.5)",cs_pos_s,"(0.7, 0.5)",cs_neg_ns,0,0,0,0,,,,,,,,,,,,,,,,,,,,,0,23,23,4,,,,,,,,,,,,,,,,,,,,,,,,,,,210,reward,,,,,,1047.2738101999275,1047.2738101999275,1047.2738101999275,1047.2738101999275,0,,,1,0.02538130001630634,0.10104690003208816,0,,,0,,,1048.3154846999096,1048.3154846999096,1048.3154846999096,1048.3154846999096,43,C,2024-05-21_12h18.04.978,attentional_competition_task,2022.2.4,143.98309068480623,
positions.xlsx,positions_test.xlsx,positions_test_new.xlsx,stimuli.xlsx,stimuli_new.xlsx,stimuli/Social3.png,stimuli/Social4.png,stimuli/Nonsocial3.png,stimuli/Nonsocial4.png,stimuli/Social1.png,stimuli/Social2.png,stimuli/Nonsocial1.png,stimuli/Nonsocial2.png,,,"(-0.7, -0.5)",cs_pos_ns,"(-0.7, 0.5)",cs_neg_ns,"(0.7, -0.5)",cs_pos_s,"(0.7, 0.5)",cs_neg_s,0,0,0,0,,,,,,,,,,,,,,,,,,,,,1,0,24,20,,,,,,,,,,,,,,,,,,,,,,,,,,,219,reward,,,,,,1056.1693067000015,1056.1693067000015,1056.1693067000015,1056.1693067000015,0,,,0,,,0,,,0,,,1057.2526109999744,1057.2526109999744,1057.2526109999744,1057.2526109999744,43,C,2024-05-21_12h18.04.978,attentional_competition_task,2022.2.4,143.98309068480623,
positions.xlsx,positions_test.xlsx,positions_test_new.xlsx,stimuli.xlsx,stimuli_new.xlsx,stimuli/Social3.png,stimuli/Social4.png,stimuli/Nonsocial3.png,stimuli/Nonsocial4.png,stimuli/Social1.png,stimuli/Social2.png,stimuli/Nonsocial1.png,stimuli/Nonsocial2.png,,,"(-0.7, -0.5)",cs_neg_s,"(-0.7, 0.5)",cs_pos_ns,"(0.7, -0.5)",cs_pos_s,"(0.7, 0.5)",cs_neg_ns,0,0,0,0,,,,,,,,,,,,,,,,,,,,,1,1,25,4,,,,,,,,,,,,,,,,,,,,,,,,,,,225,reward,,,,,,1065.425858899951,1065.425858899951,1065.425858899951,1065.425858899951,0,,,0,,,0,,,0,,,1066.043930899934,1066.043930899934,1066.043930899934,1066.043930899934,43,C,2024-05-21_12h18.04.978,attentional_competition_task,2022.2.4,143.98309068480623,
positions.xlsx,positions_test.xlsx,positions_test_new.xlsx,stimuli.xlsx,stimuli_new.xlsx,stimuli/Social3.png,stimuli/Social4.png,stimuli/Nonsocial3.png,stimuli/Nonsocial4.png,stimuli/Social1.png,stimuli/Social2.png,stimuli/Nonsocial1.png,stimuli/Nonsocial2.png,,,"(-0.7, -0.5)",cs_pos_s,"(-0.7, 0.5)",cs_neg_s,"(0.7, -0.5)",cs_neg_ns,"(0.7, 0.5)",cs_pos_ns,0,0,0,0,,,,,,,,,,,,,,,,,,,,,1,2,26,6,,,,,,,,,,,,,,,,,,,,,,,,,,,228,reward,,,,,,1073.6408168999478,1073.6408168999478,1073.6408168999478,1073.6408168999478,0,,,0,,,0,,,1,0.02962149993982166,0.029625299968756735,1073.6408168999478,1073.6408168999478,1073.6408168999478,1073.6408168999478,43,C,2024-05-21_12h18.04.978,attentional_competition_task,2022.2.4,143.98309068480623,
positions.xlsx,positions_test.xlsx,positions_test_new.xlsx,stimuli.xlsx,stimuli_new.xlsx,stimuli/Social3.png,stimuli/Social4.png,stimuli/Nonsocial3.png,stimuli/Nonsocial4.png,stimuli/Social1.png,stimuli/Social2.png,stimuli/Nonsocial1.png,stimuli/Nonsocial2.png,,,"(-0.7, -0.5)",cs_neg_ns,"(-0.7, 0.5)",cs_pos_ns,"(0.7, -0.5)",cs_neg_s,"(0.7, 0.5)",cs_pos_s,0,0,0,0,,,,,,,,,,,,,,,,,,,,,1,3,27,17,,,,,,,,,,,,,,,,,,,,,,,,,,,231,reward,,,,,,1081.2863403999945,1081.2863403999945,1081.2863403999945,1081.2863403999945,0,,,1,0.025272500002756715,0.025276600033976138,0,,,0,,,1081.2863403999945,1081.2863403999945,1081.2863403999945,1081.2863403999945,43,C,2024-05-21_12h18.04.978,attentional_competition_task,2022.2.4,143.98309068480623,
positions.xlsx,positions_test.xlsx,positions_test_new.xlsx,stimuli.xlsx,stimuli_new.xlsx,stimuli/Social3.png,stimuli/Social4.png,stimuli/Nonsocial3.png,stimuli/Nonsocial4.png,stimuli/Social1.png,stimuli/Social2.png,stimuli/Nonsocial1.png,stimuli/Nonsocial2.png,,,"(-0.7, -0.5)",cs_neg_s,"(-0.7, 0.5)",cs_neg_ns,"(0.7, -0.5)",cs_pos_s,"(0.7, 0.5)",cs_pos_ns,0,0,0,0,,,,,,,,,,,,,,,,,,,,,1,4,28,2,,,,,,,,,,,,,,,,,,,,,,,,,,,240,reward,,,,,,1089.5568880999926,1089.5568880999926,1089.5568880999926,1089.5568880999926,0,,,0,,,1,0.03269450005609542,0.10806500003673136,0,,,1090.4318461999064,1090.4318461999064,1090.4318461999064,1090.4318461999064,43,C,2024-05-21_12h18.04.978,attentional_competition_task,2022.2.4,143.98309068480623,
positions.xlsx,positions_test.xlsx,positions_test_new.xlsx,stimuli.xlsx,stimuli_new.xlsx,stimuli/Social3.png,stimuli/Social4.png,stimuli/Nonsocial3.png,stimuli/Nonsocial4.png,stimuli/Social1.png,stimuli/Social2.png,stimuli/Nonsocial1.png,stimuli/Nonsocial2.png,,,"(-0.7, -0.5)",cs_neg_s,"(-0.7, 0.5)",cs_pos_s,"(0.7, -0.5)",cs_neg_ns,"(0.7, 0.5)",cs_pos_ns,0,0,0,0,,,,,,,,,,,,,,,,,,,,,1,5,29,0,,,,,,,,,,,,,,,,,,,,,,,,,,,249,reward,,,,,,1098.4454000999685,1098.4454000999685,1098.4454000999685,1098.4454000999685,0,,,1,0.02376040001399815,0.21163469995371997,0,,,0,,,1099.5842610999243,1099.5842610999243,1099.5842610999243,1099.5842610999243,43,C,2024-05-21_12h18.04.978,attentional_competition_task,2022.2.4,143.98309068480623,
positions.xlsx,positions_test.xlsx,positions_test_new.xlsx,stimuli.xlsx,stimuli_new.xlsx,stimuli/Social3.png,stimuli/Social4.png,stimuli/Nonsocial3.png,stimuli/Nonsocial4.png,stimuli/Social1.png,stimuli/Social2.png,stimuli/Nonsocial1.png,stimuli/Nonsocial2.png,,,"(-0.7, -0.5)",cs_pos_s,"(-0.7, 0.5)",cs_neg_s,"(0.7, -0.5)",cs_pos_ns,"(0.7, 0.5)",cs_neg_ns,0,0,0,0,,,,,,,,,,,,,,,,,,,,,1,6,30,7,,,,,,,,,,,,,,,,,,,,,,,,,,,252,reward,,,,,,1106.4589894999517,1106.4589894999517,1106.4589894999517,1106.4589894999517,1,0.028351300046779215,0.028354800073429942,0,,,0,,,0,,,1106.4589894999517,1106.4589894999517,1106.4589894999517,1106.4589894999517,43,C,2024-05-21_12h18.04.978,attentional_competition_task,2022.2.4,143.98309068480623,
positions.xlsx,positions_test.xlsx,positions_test_new.xlsx,stimuli.xlsx,stimuli_new.xlsx,stimuli/Social3.png,stimuli/Social4.png,stimuli/Nonsocial3.png,stimuli/Nonsocial4.png,stimuli/Social1.png,stimuli/Social2.png,stimuli/Nonsocial1.png,stimuli/Nonsocial2.png,,,"(-0.7, -0.5)",cs_pos_s,"(-0.7, 0.5)",cs_neg_ns,"(0.7, -0.5)",cs_neg_s,"(0.7, 0.5)",cs_pos_ns,0,0,0,0,,,,,,,,,,,,,,,,,,,,,1,7,31,8,,,,,,,,,,,,,,,,,,,,,,,,,,,261,reward,,,,,,1114.91005029995,1114.91005029995,1114.91005029995,1114.91005029995,0,,,0,,,0,,,0,,,1115.8474972000113,1115.8474972000113,1115.8474972000113,1115.8474972000113,43,C,2024-05-21_12h18.04.978,attentional_competition_task,2022.2.4,143.98309068480623,
positions.xlsx,positions_test.xlsx,positions_test_new.xlsx,stimuli.xlsx,stimuli_new.xlsx,stimuli/Social3.png,stimuli/Social4.png,stimuli/Nonsocial3.png,stimuli/Nonsocial4.png,stimuli/Social1.png,stimuli/Social2.png,stimuli/Nonsocial1.png,stimuli/Nonsocial2.png,,,"(-0.7, -0.5)",cs_pos_s,"(-0.7, 0.5)",cs_pos_ns,"(0.7, -0.5)",cs_neg_ns,"(0.7, 0.5)",cs_neg_s,0,0,0,0,,,,,,,,,,,,,,,,,,,,,1,8,32,11,,,,,,,,,,,,,,,,,,,,,,,,,,,264,reward,,,,,,1124.8610409999965,1124.8610409999965,1124.8610409999965,1124.8610409999965,1,0.024939400027506053,0.02494300005491823,0,,,0,,,0,,,1124.8610409999965,1124.8610409999965,1124.8610409999965,1124.8610409999965,43,C,2024-05-21_12h18.04.978,attentional_competition_task,2022.2.4,143.98309068480623,
positions.xlsx,positions_test.xlsx,positions_test_new.xlsx,stimuli.xlsx,stimuli_new.xlsx,stimuli/Social3.png,stimuli/Social4.png,stimuli/Nonsocial3.png,stimuli/Nonsocial4.png,stimuli/Social1.png,stimuli/Social2.png,stimuli/Nonsocial1.png,stimuli/Nonsocial2.png,,,"(-0.7, -0.5)",cs_neg_ns,"(-0.7, 0.5)",cs_pos_ns,"(0.7, -0.5)",cs_pos_s,"(0.7, 0.5)",cs_neg_s,0,0,0,0,,,,,,,,,,,,,,,,,,,,,1,9,33,16,,,,,,,,,,,,,,,,,,,,,,,,,,,273,reward,,,,,,1132.6801606999943,1132.6801606999943,1132.6801606999943,1132.6801606999943,0,,,0,,,0,,,0,,,1133.6940620999085,1133.6940620999085,1133.6940620999085,1133.6940620999085,43,C,2024-05-21_12h18.04.978,attentional_competition_task,2022.2.4,143.98309068480623,
positions.xlsx,positions_test.xlsx,positions_test_new.xlsx,stimuli.xlsx,stimuli_new.xlsx,stimuli/Social3.png,stimuli/Social4.png,stimuli/Nonsocial3.png,stimuli/Nonsocial4.png,stimuli/Social1.png,stimuli/Social2.png,stimuli/Nonsocial1.png,stimuli/Nonsocial2.png,,,"(-0.7, -0.5)",cs_pos_ns,"(-0.7, 0.5)",cs_neg_s,"(0.7, -0.5)",cs_pos_s,"(0.7, 0.5)",cs_neg_ns,0,0,0,0,,,,,,,,,,,,,,,,,,,,,1,10,34,22,,,,,,,,,,,,,,,,,,,,,,,,,,,279,reward,,,,,,1142.3742274999386,1142.3742274999386,1142.3742274999386,1142.3742274999386,0,,,0,,,0,,,0,,,1142.9366863999749,1142.9366863999749,1142.9366863999749,1142.9366863999749,43,C,2024-05-21_12h18.04.978,attentional_competition_task,2022.2.4,143.98309068480623,
positions.xlsx,positions_test.xlsx,positions_test_new.xlsx,stimuli.xlsx,stimuli_new.xlsx,stimuli/Social3.png,stimuli/Social4.png,stimuli/Nonsocial3.png,stimuli/Nonsocial4.png,stimuli/Social1.png,stimuli/Social2.png,stimuli/Nonsocial1.png,stimuli/Nonsocial2.png,,,"(-0.7, -0.5)",cs_neg_ns,"(-0.7, 0.5)",cs_pos_s,"(0.7, -0.5)",cs_neg_s,"(0.7, 0.5)",cs_pos_ns,0,0,0,0,,,,,,,,,,,,,,,,,,,,,1,11,35,12,,,,,,,,,,,,,,,,,,,,,,,,,,,282,reward,,,,,,1149.9364134999923,1149.9364134999923,1149.9364134999923,1149.9364134999923,0,,,1,0.03304030001163483,0.0330445000436157,0,,,0,,,1149.9364134999923,1149.9364134999923,1149.9364134999923,1149.9364134999923,43,C,2024-05-21_12h18.04.978,attentional_competition_task,2022.2.4,143.98309068480623,
positions.xlsx,positions_test.xlsx,positions_test_new.xlsx,stimuli.xlsx,stimuli_new.xlsx,stimuli/Social3.png,stimuli/Social4.png,stimuli/Nonsocial3.png,stimuli/Nonsocial4.png,stimuli/Social1.png,stimuli/Social2.png,stimuli/Nonsocial1.png,stimuli/Nonsocial2.png,,,"(-0.7, -0.5)",cs_pos_s,"(-0.7, 0.5)",cs_pos_ns,"(0.7, -0.5)",cs_neg_s,"(0.7, 0.5)",cs_neg_ns,0,0,0,0,,,,,,,,,,,,,,,,,,,,,1,12,36,10,,,,,,,,,,,,,,,,,,,,,,,,,,,291,reward,,,,,,1157.7625109999208,1157.7625109999208,1157.7625109999208,1157.7625109999208,0,,,0,,,0,,,0,,,1158.7347227999708,1158.7347227999708,1158.7347227999708,1158.7347227999708,43,C,2024-05-21_12h18.04.978,attentional_competition_task,2022.2.4,143.98309068480623,
positions.xlsx,positions_test.xlsx,positions_test_new.xlsx,stimuli.xlsx,stimuli_new.xlsx,stimuli/Social3.png,stimuli/Social4.png,stimuli/Nonsocial3.png,stimuli/Nonsocial4.png,stimuli/Social1.png,stimuli/Social2.png,stimuli/Nonsocial1.png,stimuli/Nonsocial2.png,,,"(-0.7, -0.5)",cs_pos_ns,"(-0.7, 0.5)",cs_neg_ns,"(0.7, -0.5)",cs_neg_s,"(0.7, 0.5)",cs_pos_s,0,0,0,0,,,,,,,,,,,,,,,,,,,,,1,13,37,21,,,,,,,,,,,,,,,,,,,,,,,,,,,300,reward,,,,,,1166.1371811999707,1166.1371811999707,1166.1371811999707,1166.1371811999707,0,,,0,,,0,,,0,,,1167.1996363999788,1167.1996363999788,1167.1996363999788,1167.1996363999788,43,C,2024-05-21_12h18.04.978,attentional_competition_task,2022.2.4,143.98309068480623,
positions.xlsx,positions_test.xlsx,positions_test_new.xlsx,stimuli.xlsx,stimuli_new.xlsx,stimuli/Social3.png,stimuli/Social4.png,stimuli/Nonsocial3.png,stimuli/Nonsocial4.png,stimuli/Social1.png,stimuli/Social2.png,stimuli/Nonsocial1.png,stimuli/Nonsocial2.png,,,"(-0.7, -0.5)",cs_neg_s,"(-0.7, 0.5)",cs_pos_ns,"(0.7, -0.5)",cs_neg_ns,"(0.7, 0.5)",cs_pos_s,0,0,0,0,,,,,,,,,,,,,,,,,,,,,1,14,38,5,,,,,,,,,,,,,,,,,,,,,,,,,,,303,reward,,,,,,1175.4562292000046,1175.4562292000046,1175.4562292000046,1175.4562292000046,0,,,1,0.024282700032927096,0.02428660006262362,0,,,0,,,1175.4562292000046,1175.4562292000046,1175.4562292000046,1175.4562292000046,43,C,2024-05-21_12h18.04.978,attentional_competition_task,2022.2.4,143.98309068480623,
positions.xlsx,positions_test.xlsx,positions_test_new.xlsx,stimuli.xlsx,stimuli_new.xlsx,stimuli/Social3.png,stimuli/Social4.png,stimuli/Nonsocial3.png,stimuli/Nonsocial4.png,stimuli/Social1.png,stimuli/Social2.png,stimuli/Nonsocial1.png,stimuli/Nonsocial2.png,,,"(-0.7, -0.5)",cs_pos_s,"(-0.7, 0.5)",cs_neg_ns,"(0.7, -0.5)",cs_pos_ns,"(0.7, 0.5)",cs_neg_s,0,0,0,0,,,,,,,,,,,,,,,,,,,,,1,15,39,9,,,,,,,,,,,,,,,,,,,,,,,,,,,312,reward,,,,,,1184.6364442999475,1184.6364442999475,1184.6364442999475,1184.6364442999475,0,,,0,,,1,0.02942020003683865,0.11322130006738007,0,,,1185.3516963999718,1185.3516963999718,1185.3516963999718,1185.3516963999718,43,C,2024-05-21_12h18.04.978,attentional_competition_task,2022.2.4,143.98309068480623,
positions.xlsx,positions_test.xlsx,positions_test_new.xlsx,stimuli.xlsx,stimuli_new.xlsx,stimuli/Social3.png,stimuli/Social4.png,stimuli/Nonsocial3.png,stimuli/Nonsocial4.png,stimuli/Social1.png,stimuli/Social2.png,stimuli/Nonsocial1.png,stimuli/Nonsocial2.png,,,"(-0.7, -0.5)",cs_pos_ns,"(-0.7, 0.5)",cs_neg_s,"(0.7, -0.5)",cs_neg_ns,"(0.7, 0.5)",cs_pos_s,0,0,0,0,,,,,,,,,,,,,,,,,,,,,1,16,40,23,,,,,,,,,,,,,,,,,,,,,,,,,,,315,reward,,,,,,1193.6847335000057,1193.6847335000057,1193.6847335000057,1193.6847335000057,1,0.028808900038711727,0.0288127000676468,0,,,0,,,0,,,1193.6847335000057,1193.6847335000057,1193.6847335000057,1193.6847335000057,43,C,2024-05-21_12h18.04.978,attentional_competition_task,2022.2.4,143.98309068480623,
positions.xlsx,positions_test.xlsx,positions_test_new.xlsx,stimuli.xlsx,stimuli_new.xlsx,stimuli/Social3.png,stimuli/Social4.png,stimuli/Nonsocial3.png,stimuli/Nonsocial4.png,stimuli/Social1.png,stimuli/Social2.png,stimuli/Nonsocial1.png,stimuli/Nonsocial2.png,,,"(-0.7, -0.5)",cs_neg_ns,"(-0.7, 0.5)",cs_neg_s,"(0.7, -0.5)",cs_pos_s,"(0.7, 0.5)",cs_pos_ns,0,0,0,0,,,,,,,,,,,,,,,,,,,,,1,17,41,14,,,,,,,,,,,,,,,,,,,,,,,,,,,324,reward,,,,,,1202.2815625999356,1202.2815625999356,1202.2815625999356,1202.2815625999356,0,,,0,,,0,,,1,0.026164299924857914,0.08014909992925823,1203.1843748999527,1203.1843748999527,1203.1843748999527,1203.1843748999527,43,C,2024-05-21_12h18.04.978,attentional_competition_task,2022.2.4,143.98309068480623,
positions.xlsx,positions_test.xlsx,positions_test_new.xlsx,stimuli.xlsx,stimuli_new.xlsx,stimuli/Social3.png,stimuli/Social4.png,stimuli/Nonsocial3.png,stimuli/Nonsocial4.png,stimuli/Social1.png,stimuli/Social2.png,stimuli/Nonsocial1.png,stimuli/Nonsocial2.png,,,"(-0.7, -0.5)",cs_pos_ns,"(-0.7, 0.5)",cs_pos_s,"(0.7, -0.5)",cs_neg_ns,"(0.7, 0.5)",cs_neg_s,0,0,0,0,,,,,,,,,,,,,,,,,,,,,1,18,42,18,,,,,,,,,,,,,,,,,,,,,,,,,,,333,reward,,,,,,1210.2535025000107,1210.2535025000107,1210.2535025000107,1210.2535025000107,1,0.02950009994674474,0.10852709994651377,0,,,0,,,0,,,1211.1006719999714,1211.1006719999714,1211.1006719999714,1211.1006719999714,43,C,2024-05-21_12h18.04.978,attentional_competition_task,2022.2.4,143.98309068480623,
positions.xlsx,positions_test.xlsx,positions_test_new.xlsx,stimuli.xlsx,stimuli_new.xlsx,stimuli/Social3.png,stimuli/Social4.png,stimuli/Nonsocial3.png,stimuli/Nonsocial4.png,stimuli/Social1.png,stimuli/Social2.png,stimuli/Nonsocial1.png,stimuli/Nonsocial2.png,,,"(-0.7, -0.5)",cs_neg_s,"(-0.7, 0.5)",cs_neg_ns,"(0.7, -0.5)",cs_pos_ns,"(0.7, 0.5)",cs_pos_s,0,0,0,0,,,,,,,,,,,,,,,,,,,,,1,19,43,3,,,,,,,,,,,,,,,,,,,,,,,,,,,342,reward,,,,,,1218.6142480999697,1218.6142480999697,1218.6142480999697,1218.6142480999697,0,,,0,,,1,0.02382280002348125,0.10793759999796748,0,,,1219.232296400005,1219.232296400005,1219.232296400005,1219.232296400005,43,C,2024-05-21_12h18.04.978,attentional_competition_task,2022.2.4,143.98309068480623,
positions.xlsx,positions_test.xlsx,positions_test_new.xlsx,stimuli.xlsx,stimuli_new.xlsx,stimuli/Social3.png,stimuli/Social4.png,stimuli/Nonsocial3.png,stimuli/Nonsocial4.png,stimuli/Social1.png,stimuli/Social2.png,stimuli/Nonsocial1.png,stimuli/Nonsocial2.png,,,"(-0.7, -0.5)",cs_neg_ns,"(-0.7, 0.5)",cs_neg_s,"(0.7, -0.5)",cs_pos_ns,"(0.7, 0.5)",cs_pos_s,0,0,0,0,,,,,,,,,,,,,,,,,,,,,1,20,44,15,,,,,,,,,,,,,,,,,,,,,,,,,,,351,reward,,,,,,1226.037577399984,1226.037577399984,1226.037577399984,1226.037577399984,0,,,0,,,0,,,0,,,1227.1139276999747,1227.1139276999747,1227.1139276999747,1227.1139276999747,43,C,2024-05-21_12h18.04.978,attentional_competition_task,2022.2.4,143.98309068480623,
positions.xlsx,positions_test.xlsx,positions_test_new.xlsx,stimuli.xlsx,stimuli_new.xlsx,stimuli/Social3.png,stimuli/Social4.png,stimuli/Nonsocial3.png,stimuli/Nonsocial4.png,stimuli/Social1.png,stimuli/Social2.png,stimuli/Nonsocial1.png,stimuli/Nonsocial2.png,,,"(-0.7, -0.5)",cs_neg_ns,"(-0.7, 0.5)",cs_pos_s,"(0.7, -0.5)",cs_pos_ns,"(0.7, 0.5)",cs_neg_s,0,0,0,0,,,,,,,,,,,,,,,,,,,,,1,21,45,13,,,,,,,,,,,,,,,,,,,,,,,,,,,360,reward,,,,,,1234.8705949999858,1234.8705949999858,1234.8705949999858,1234.8705949999858,0,,,0,,,0,,,0,,,1235.79414179991,1235.79414179991,1235.79414179991,1235.79414179991,43,C,2024-05-21_12h18.04.978,attentional_competition_task,2022.2.4,143.98309068480623,
positions.xlsx,positions_test.xlsx,positions_test_new.xlsx,stimuli.xlsx,stimuli_new.xlsx,stimuli/Social3.png,stimuli/Social4.png,stimuli/Nonsocial3.png,stimuli/Nonsocial4.png,stimuli/Social1.png,stimuli/Social2.png,stimuli/Nonsocial1.png,stimuli/Nonsocial2.png,,,"(-0.7, -0.5)",cs_neg_s,"(-0.7, 0.5)",cs_pos_s,"(0.7, -0.5)",cs_pos_ns,"(0.7, 0.5)",cs_neg_ns,0,0,0,0,,,,,,,,,,,,,,,,,,,,,1,22,46,1,,,,,,,,,,,,,,,,,,,,,,,,,,,369,reward,,,,,,1242.6897318999982,1242.6897318999982,1242.6897318999982,1242.6897318999982,0,,,0,,,0,,,0,,,1243.682716100011,1243.682716100011,1243.682716100011,1243.682716100011,43,C,2024-05-21_12h18.04.978,attentional_competition_task,2022.2.4,143.98309068480623,
positions.xlsx,positions_test.xlsx,positions_test_new.xlsx,stimuli.xlsx,stimuli_new.xlsx,stimuli/Social3.png,stimuli/Social4.png,stimuli/Nonsocial3.png,stimuli/Nonsocial4.png,stimuli/Social1.png,stimuli/Social2.png,stimuli/Nonsocial1.png,stimuli/Nonsocial2.png,,,"(-0.7, -0.5)",cs_pos_ns,"(-0.7, 0.5)",cs_pos_s,"(0.7, -0.5)",cs_neg_s,"(0.7, 0.5)",cs_neg_ns,0,0,0,0,,,,,,,,,,,,,,,,,,,,,1,23,47,19,,,,,,,,,,,,,,,,,,,,,,,,,,,378,reward,,,,,,1250.710162699921,1250.710162699921,1250.710162699921,1250.710162699921,0,,,0,,,0,,,0,,,1251.7240657999646,1251.7240657999646,1251.7240657999646,1251.7240657999646,43,C,2024-05-21_12h18.04.978,attentional_competition_task,2022.2.4,143.98309068480623,
positions.xlsx,positions_test.xlsx,positions_test_new.xlsx,stimuli.xlsx,stimuli_new.xlsx,stimuli/Social3.png,stimuli/Social4.png,stimuli/Nonsocial3.png,stimuli/Nonsocial4.png,stimuli/Social1.png,stimuli/Social2.png,stimuli/Nonsocial1.png,stimuli/Nonsocial2.png,,,"(-0.7, -0.5)",cs_pos_ns,"(-0.7, 0.5)",cs_neg_s,"(0.7, -0.5)",cs_pos_s_new,"(0.7, 0.5)",cs_neg_ns,0,0,0,0,,,,,,,,,,,,,,,,,,,,,,,,,,,,,0,0,0,35,0,0,0,0,,,,,,,,,,,,,,,381,reward,,,,,,1258.0224176999182,1258.0224176999182,1258.0224176999182,1258.0224176999182,0,,,0,,,1,0.550407400005497,0.5504109000321478,0,,,1258.5779464999214,1258.5779464999214,1258.5779464999214,1258.5779464999214,43,C,2024-05-21_12h18.04.978,attentional_competition_task,2022.2.4,143.98309068480623,
positions.xlsx,positions_test.xlsx,positions_test_new.xlsx,stimuli.xlsx,stimuli_new.xlsx,stimuli/Social3.png,stimuli/Social4.png,stimuli/Nonsocial3.png,stimuli/Nonsocial4.png,stimuli/Social1.png,stimuli/Social2.png,stimuli/Nonsocial1.png,stimuli/Nonsocial2.png,,,"(-0.7, -0.5)",cs_pos_ns,"(-0.7, 0.5)",cs_neg_s,"(0.7, -0.5)",cs_pos_s_new,"(0.7, 0.5)",cs_neg_ns,0,0,0,0,,,,,,,,,,,,,,,,,,,,,,,,,,,,,0,0,0,35,1,0,1,0,,,,,,,,,,,,,,,378,loss,,,,,,1259.0987514998997,1259.0987514998997,1259.0987514998997,1259.0987514998997,0,,,1,0.02206240000668913,0.022066099918447435,0,,,0,,,1259.0987514998997,1259.0987514998997,1259.0987514998997,1259.0987514998997,43,C,2024-05-21_12h18.04.978,attentional_competition_task,2022.2.4,143.98309068480623,
positions.xlsx,positions_test.xlsx,positions_test_new.xlsx,stimuli.xlsx,stimuli_new.xlsx,stimuli/Social3.png,stimuli/Social4.png,stimuli/Nonsocial3.png,stimuli/Nonsocial4.png,stimuli/Social1.png,stimuli/Social2.png,stimuli/Nonsocial1.png,stimuli/Nonsocial2.png,,,"(-0.7, -0.5)",cs_pos_ns,"(-0.7, 0.5)",cs_neg_s,"(0.7, -0.5)",cs_pos_s_new,"(0.7, 0.5)",cs_neg_ns,0,0,0,0,,,,,,,,,,,,,,,,,,,,,,,,,,,,,0,0,0,35,2,0,2,0,,,,,,,,,,,,,,,381,reward,,,,,,1259.6334648999618,1259.6334648999618,1259.6334648999618,1259.6334648999618,1,0.02449540002271533,0.024499000050127506,0,,,0,,,0,,,1259.6334648999618,1259.6334648999618,1259.6334648999618,1259.6334648999618,43,C,2024-05-21_12h18.04.978,attentional_competition_task,2022.2.4,143.98309068480623,
positions.xlsx,positions_test.xlsx,positions_test_new.xlsx,stimuli.xlsx,stimuli_new.xlsx,stimuli/Social3.png,stimuli/Social4.png,stimuli/Nonsocial3.png,stimuli/Nonsocial4.png,stimuli/Social1.png,stimuli/Social2.png,stimuli/Nonsocial1.png,stimuli/Nonsocial2.png,,,"(-0.7, -0.5)",cs_pos_ns,"(-0.7, 0.5)",cs_neg_s,"(0.7, -0.5)",cs_pos_s_new,"(0.7, 0.5)",cs_neg_ns,0,0,0,0,,,,,,,,,,,,,,,,,,,,,,,,,,,,,0,0,0,35,,,,,,,,,,,,,,,,,,,,,,,,,,,,,,,,,,,,,,,,,,,,,,43,C,2024-05-21_12h18.04.978,attentional_competition_task,2022.2.4,143.98309068480623,
positions.xlsx,positions_test.xlsx,positions_test_new.xlsx,stimuli.xlsx,stimuli_new.xlsx,stimuli/Social3.png,stimuli/Social4.png,stimuli/Nonsocial3.png,stimuli/Nonsocial4.png,stimuli/Social1.png,stimuli/Social2.png,stimuli/Nonsocial1.png,stimuli/Nonsocial2.png,,,"(-0.7, -0.5)",cs_pos_s,"(-0.7, 0.5)",cs_pos_ns,"(0.7, -0.5)",cs_neg_ns_new,"(0.7, 0.5)",cs_neg_s,0,0,0,0,,,,,,,,,,,,,,,,,,,,,,,,,,,,,0,1,1,27,0,0,0,0,,,,,,,,,,,,,,,384,reward,,,,,,1266.0359698999673,1266.0359698999673,1266.0359698999673,1266.0359698999673,1,0.4671696999575943,0.4671733999857679,0,,,0,,,0,,,1266.5081714999396,1266.5081714999396,1266.5081714999396,1266.5081714999396,43,C,2024-05-21_12h18.04.978,attentional_competition_task,2022.2.4,143.98309068480623,
positions.xlsx,positions_test.xlsx,positions_test_new.xlsx,stimuli.xlsx,stimuli_new.xlsx,stimuli/Social3.png,stimuli/Social4.png,stimuli/Nonsocial3.png,stimuli/Nonsocial4.png,stimuli/Social1.png,stimuli/Social2.png,stimuli/Nonsocial1.png,stimuli/Nonsocial2.png,,,"(-0.7, -0.5)",cs_pos_s,"(-0.7, 0.5)",cs_pos_ns,"(0.7, -0.5)",cs_neg_ns_new,"(0.7, 0.5)",cs_neg_s,0,0,0,0,,,,,,,,,,,,,,,,,,,,,,,,,,,,,0,1,1,27,1,0,1,0,,,,,,,,,,,,,,,387,reward,,,,,,1267.0429081999464,1267.0429081999464,1267.0429081999464,1267.0429081999464,0,,,1,0.031110999989323318,0.031114700017496943,0,,,0,,,1267.0429081999464,1267.0429081999464,1267.0429081999464,1267.0429081999464,43,C,2024-05-21_12h18.04.978,attentional_competition_task,2022.2.4,143.98309068480623,
positions.xlsx,positions_test.xlsx,positions_test_new.xlsx,stimuli.xlsx,stimuli_new.xlsx,stimuli/Social3.png,stimuli/Social4.png,stimuli/Nonsocial3.png,stimuli/Nonsocial4.png,stimuli/Social1.png,stimuli/Social2.png,stimuli/Nonsocial1.png,stimuli/Nonsocial2.png,,,"(-0.7, -0.5)",cs_pos_s,"(-0.7, 0.5)",cs_pos_ns,"(0.7, -0.5)",cs_neg_ns_new,"(0.7, 0.5)",cs_neg_s,0,0,0,0,,,,,,,,,,,,,,,,,,,,,,,,,,,,,0,1,1,27,2,0,2,0,,,,,,,,,,,,,,,384,loss,,,,,,1267.5775671999436,1267.5775671999436,1267.5775671999436,1267.5775671999436,0,,,0,,,1,0.031663899892009795,0.03166749991942197,0,,,1267.5775671999436,1267.5775671999436,1267.5775671999436,1267.5775671999436,43,C,2024-05-21_12h18.04.978,attentional_competition_task,2022.2.4,143.98309068480623,
positions.xlsx,positions_test.xlsx,positions_test_new.xlsx,stimuli.xlsx,stimuli_new.xlsx,stimuli/Social3.png,stimuli/Social4.png,stimuli/Nonsocial3.png,stimuli/Nonsocial4.png,stimuli/Social1.png,stimuli/Social2.png,stimuli/Nonsocial1.png,stimuli/Nonsocial2.png,,,"(-0.7, -0.5)",cs_pos_s,"(-0.7, 0.5)",cs_pos_ns,"(0.7, -0.5)",cs_neg_ns_new,"(0.7, 0.5)",cs_neg_s,0,0,0,0,,,,,,,,,,,,,,,,,,,,,,,,,,,,,0,1,1,27,,,,,,,,,,,,,,,,,,,,,,,,,,,,,,,,,,,,,,,,,,,,,,43,C,2024-05-21_12h18.04.978,attentional_competition_task,2022.2.4,143.98309068480623,
positions.xlsx,positions_test.xlsx,positions_test_new.xlsx,stimuli.xlsx,stimuli_new.xlsx,stimuli/Social3.png,stimuli/Social4.png,stimuli/Nonsocial3.png,stimuli/Nonsocial4.png,stimuli/Social1.png,stimuli/Social2.png,stimuli/Nonsocial1.png,stimuli/Nonsocial2.png,,,"(-0.7, -0.5)",cs_neg_ns_new,"(-0.7, 0.5)",cs_pos_ns,"(0.7, -0.5)",cs_neg_s,"(0.7, 0.5)",cs_pos_s,0,0,0,0,,,,,,,,,,,,,,,,,,,,,,,,,,,,,0,2,2,20,0,0,0,0,,,,,,,,,,,,,,,387,reward,,,,,,1274.3342694999883,1274.3342694999883,1274.3342694999883,1274.3342694999883,0,,,0,,,0,,,1,0.36343430005945265,0.3634382000891492,1274.7023134999909,1274.7023134999909,1274.7023134999909,1274.7023134999909,43,C,2024-05-21_12h18.04.978,attentional_competition_task,2022.2.4,143.98309068480623,
positions.xlsx,positions_test.xlsx,positions_test_new.xlsx,stimuli.xlsx,stimuli_new.xlsx,stimuli/Social3.png,stimuli/Social4.png,stimuli/Nonsocial3.png,stimuli/Nonsocial4.png,stimuli/Social1.png,stimuli/Social2.png,stimuli/Nonsocial1.png,stimuli/Nonsocial2.png,,,"(-0.7, -0.5)",cs_neg_ns_new,"(-0.7, 0.5)",cs_pos_ns,"(0.7, -0.5)",cs_neg_s,"(0.7, 0.5)",cs_pos_s,0,0,0,0,,,,,,,,,,,,,,,,,,,,,,,,,,,,,0,2,2,20,1,0,1,0,,,,,,,,,,,,,,,390,reward,,,,,,1275.2022693000035,1275.2022693000035,1275.2022693000035,1275.2022693000035,0,,,1,0.12812959996517748,0.12813319999258965,0,,,1,0.030072999885305762,0.058737499988637865,1275.3342278999044,1275.3342278999044,1275.3342278999044,1275.3342278999044,43,C,2024-05-21_12h18.04.978,attentional_competition_task,2022.2.4,143.98309068480623,
positions.xlsx,positions_test.xlsx,positions_test_new.xlsx,stimuli.xlsx,stimuli_new.xlsx,stimuli/Social3.png,stimuli/Social4.png,stimuli/Nonsocial3.png,stimuli/Nonsocial4.png,stimuli/Social1.png,stimuli/Social2.png,stimuli/Nonsocial1.png,stimuli/Nonsocial2.png,,,"(-0.7, -0.5)",cs_neg_ns_new,"(-0.7, 0.5)",cs_pos_ns,"(0.7, -0.5)",cs_neg_s,"(0.7, 0.5)",cs_pos_s,0,0,0,0,,,,,,,,,,,,,,,,,,,,,,,,,,,,,0,2,2,20,2,0,2,0,,,,,,,,,,,,,,,393,reward,,,,,,1275.834248399944,1275.834248399944,1275.834248399944,1275.834248399944,0,,,1,0.028395299916155636,0.08698599995113909,0,,,0,,,1276.8481619999511,1276.8481619999511,1276.8481619999511,1276.8481619999511,43,C,2024-05-21_12h18.04.978,attentional_competition_task,2022.2.4,143.98309068480623,
positions.xlsx,positions_test.xlsx,positions_test_new.xlsx,stimuli.xlsx,stimuli_new.xlsx,stimuli/Social3.png,stimuli/Social4.png,stimuli/Nonsocial3.png,stimuli/Nonsocial4.png,stimuli/Social1.png,stimuli/Social2.png,stimuli/Nonsocial1.png,stimuli/Nonsocial2.png,,,"(-0.7, -0.5)",cs_neg_ns_new,"(-0.7, 0.5)",cs_pos_ns,"(0.7, -0.5)",cs_neg_s,"(0.7, 0.5)",cs_pos_s,0,0,0,0,,,,,,,,,,,,,,,,,,,,,,,,,,,,,0,2,2,20,,,,,,,,,,,,,,,,,,,,,,,,,,,,,,,,,,,,,,,,,,,,,,43,C,2024-05-21_12h18.04.978,attentional_competition_task,2022.2.4,143.98309068480623,
positions.xlsx,positions_test.xlsx,positions_test_new.xlsx,stimuli.xlsx,stimuli_new.xlsx,stimuli/Social3.png,stimuli/Social4.png,stimuli/Nonsocial3.png,stimuli/Nonsocial4.png,stimuli/Social1.png,stimuli/Social2.png,stimuli/Nonsocial1.png,stimuli/Nonsocial2.png,,,"(-0.7, -0.5)",cs_neg_s,"(-0.7, 0.5)",cs_pos_s,"(0.7, -0.5)",cs_pos_ns,"(0.7, 0.5)",cs_neg_ns,0,0,0,0,,,,,,,,,,,,,,,,,,,,,,,,,,,,,0,3,3,0,0,0,0,0,,,,,,,,,,,,,,,396,reward,,,,,,1282.6394859999418,1282.6394859999418,1282.6394859999418,1282.6394859999418,0,,,1,0.6130103000905365,0.6130143000045791,0,,,0,,,1283.2644242999377,1283.2644242999377,1283.2644242999377,1283.2644242999377,43,C,2024-05-21_12h18.04.978,attentional_competition_task,2022.2.4,143.98309068480623,
positions.xlsx,positions_test.xlsx,positions_test_new.xlsx,stimuli.xlsx,stimuli_new.xlsx,stimuli/Social3.png,stimuli/Social4.png,stimuli/Nonsocial3.png,stimuli/Nonsocial4.png,stimuli/Social1.png,stimuli/Social2.png,stimuli/Nonsocial1.png,stimuli/Nonsocial2.png,,,"(-0.7, -0.5)",cs_neg_s,"(-0.7, 0.5)",cs_pos_s,"(0.7, -0.5)",cs_pos_ns,"(0.7, 0.5)",cs_neg_ns,0,0,0,0,,,,,,,,,,,,,,,,,,,,,,,,,,,,,0,3,3,0,1,0,1,0,,,,,,,,,,,,,,,399,reward,,,,,,1283.7714078999124,1283.7714078999124,1283.7714078999124,1283.7714078999124,0,,,1,0.03150619997177273,0.1275387000059709,1,0.20416899991687387,0.20417279994580895,0,,,1283.97275429999,1283.97275429999,1283.97275429999,1283.97275429999,43,C,2024-05-21_12h18.04.978,attentional_competition_task,2022.2.4,143.98309068480623,
positions.xlsx,positions_test.xlsx,positions_test_new.xlsx,stimuli.xlsx,stimuli_new.xlsx,stimuli/Social3.png,stimuli/Social4.png,stimuli/Nonsocial3.png,stimuli/Nonsocial4.png,stimuli/Social1.png,stimuli/Social2.png,stimuli/Nonsocial1.png,stimuli/Nonsocial2.png,,,"(-0.7, -0.5)",cs_neg_s,"(-0.7, 0.5)",cs_pos_s,"(0.7, -0.5)",cs_pos_ns,"(0.7, 0.5)",cs_neg_ns,0,0,0,0,,,,,,,,,,,,,,,,,,,,,,,,,,,,,0,3,3,0,2,0,2,0,,,,,,,,,,,,,,,402,reward,,,,,,1284.4658164000139,1284.4658164000139,1284.4658164000139,1284.4658164000139,0,,,0,,,0,,,0,,,1285.153318299912,1285.153318299912,1285.153318299912,1285.153318299912,43,C,2024-05-21_12h18.04.978,attentional_competition_task,2022.2.4,143.98309068480623,
positions.xlsx,positions_test.xlsx,positions_test_new.xlsx,stimuli.xlsx,stimuli_new.xlsx,stimuli/Social3.png,stimuli/Social4.png,stimuli/Nonsocial3.png,stimuli/Nonsocial4.png,stimuli/Social1.png,stimuli/Social2.png,stimuli/Nonsocial1.png,stimuli/Nonsocial2.png,,,"(-0.7, -0.5)",cs_neg_s,"(-0.7, 0.5)",cs_pos_s,"(0.7, -0.5)",cs_pos_ns,"(0.7, 0.5)",cs_neg_ns,0,0,0,0,,,,,,,,,,,,,,,,,,,,,,,,,,,,,0,3,3,0,,,,,,,,,,,,,,,,,,,,,,,,,,,,,,,,,,,,,,,,,,,,,,43,C,2024-05-21_12h18.04.978,attentional_competition_task,2022.2.4,143.98309068480623,
positions.xlsx,positions_test.xlsx,positions_test_new.xlsx,stimuli.xlsx,stimuli_new.xlsx,stimuli/Social3.png,stimuli/Social4.png,stimuli/Nonsocial3.png,stimuli/Nonsocial4.png,stimuli/Social1.png,stimuli/Social2.png,stimuli/Nonsocial1.png,stimuli/Nonsocial2.png,,,"(-0.7, -0.5)",cs_neg_s,"(-0.7, 0.5)",cs_pos_ns,"(0.7, -0.5)",cs_neg_ns,"(0.7, 0.5)",cs_pos_s,0,0,0,0,,,,,,,,,,,,,,,,,,,,,,,,,,,,,0,4,4,1,0,0,0,0,,,,,,,,,,,,,,,405,reward,,,,,,1290.972476099967,1290.972476099967,1290.972476099967,1290.972476099967,0,,,0,,,0,,,1,0.4465994000202045,0.4466030999319628,1291.4238658999093,1291.4238658999093,1291.4238658999093,1291.4238658999093,43,C,2024-05-21_12h18.04.978,attentional_competition_task,2022.2.4,143.98309068480623,
positions.xlsx,positions_test.xlsx,positions_test_new.xlsx,stimuli.xlsx,stimuli_new.xlsx,stimuli/Social3.png,stimuli/Social4.png,stimuli/Nonsocial3.png,stimuli/Nonsocial4.png,stimuli/Social1.png,stimuli/Social2.png,stimuli/Nonsocial1.png,stimuli/Nonsocial2.png,,,"(-0.7, -0.5)",cs_neg_s,"(-0.7, 0.5)",cs_pos_ns,"(0.7, -0.5)",cs_neg_ns,"(0.7, 0.5)",cs_pos_s,0,0,0,0,,,,,,,,,,,,,,,,,,,,,,,,,,,,,0,4,4,1,1,0,1,0,,,,,,,,,,,,,,,408,reward,,,,,,1291.9238452999853,1291.9238452999853,1291.9238452999853,1291.9238452999853,0,,,1,0.05103069997858256,0.051034400006756186,0,,,0,,,1291.9724606999662,1291.9724606999662,1291.9724606999662,1291.9724606999662,43,C,2024-05-21_12h18.04.978,attentional_competition_task,2022.2.4,143.98309068480623,
positions.xlsx,positions_test.xlsx,positions_test_new.xlsx,stimuli.xlsx,stimuli_new.xlsx,stimuli/Social3.png,stimuli/Social4.png,stimuli/Nonsocial3.png,stimuli/Nonsocial4.png,stimuli/Social1.png,stimuli/Social2.png,stimuli/Nonsocial1.png,stimuli/Nonsocial2.png,,,"(-0.7, -0.5)",cs_neg_s,"(-0.7, 0.5)",cs_pos_ns,"(0.7, -0.5)",cs_neg_ns,"(0.7, 0.5)",cs_pos_s,0,0,0,0,,,,,,,,,,,,,,,,,,,,,,,,,,,,,0,4,4,1,2,0,2,0,,,,,,,,,,,,,,,411,reward,,,,,,1292.4724128999515,1292.4724128999515,1292.4724128999515,1292.4724128999515,0,,,1,0.023321399930864573,0.04531339998356998,0,,,0,,,1293.4862991999835,1293.4862991999835,1293.4862991999835,1293.4862991999835,43,C,2024-05-21_12h18.04.978,attentional_competition_task,2022.2.4,143.98309068480623,
positions.xlsx,positions_test.xlsx,positions_test_new.xlsx,stimuli.xlsx,stimuli_new.xlsx,stimuli/Social3.png,stimuli/Social4.png,stimuli/Nonsocial3.png,stimuli/Nonsocial4.png,stimuli/Social1.png,stimuli/Social2.png,stimuli/Nonsocial1.png,stimuli/Nonsocial2.png,,,"(-0.7, -0.5)",cs_neg_s,"(-0.7, 0.5)",cs_pos_ns,"(0.7, -0.5)",cs_neg_ns,"(0.7, 0.5)",cs_pos_s,0,0,0,0,,,,,,,,,,,,,,,,,,,,,,,,,,,,,0,4,4,1,,,,,,,,,,,,,,,,,,,,,,,,,,,,,,,,,,,,,,,,,,,,,,43,C,2024-05-21_12h18.04.978,attentional_competition_task,2022.2.4,143.98309068480623,
positions.xlsx,positions_test.xlsx,positions_test_new.xlsx,stimuli.xlsx,stimuli_new.xlsx,stimuli/Social3.png,stimuli/Social4.png,stimuli/Nonsocial3.png,stimuli/Nonsocial4.png,stimuli/Social1.png,stimuli/Social2.png,stimuli/Nonsocial1.png,stimuli/Nonsocial2.png,,,"(-0.7, -0.5)",cs_pos_ns,"(-0.7, 0.5)",cs_neg_s_new,"(0.7, -0.5)",cs_neg_ns,"(0.7, 0.5)",cs_pos_s,0,0,0,0,,,,,,,,,,,,,,,,,,,,,,,,,,,,,0,5,5,13,0,0,0,0,,,,,,,,,,,,,,,414,reward,,,,,,1300.21516589995,1300.21516589995,1300.21516589995,1300.21516589995,0,,,0,,,0,,,1,0.46819619997404516,0.46820000000298023,1300.687409200007,1300.687409200007,1300.687409200007,1300.687409200007,43,C,2024-05-21_12h18.04.978,attentional_competition_task,2022.2.4,143.98309068480623,
positions.xlsx,positions_test.xlsx,positions_test_new.xlsx,stimuli.xlsx,stimuli_new.xlsx,stimuli/Social3.png,stimuli/Social4.png,stimuli/Nonsocial3.png,stimuli/Nonsocial4.png,stimuli/Social1.png,stimuli/Social2.png,stimuli/Nonsocial1.png,stimuli/Nonsocial2.png,,,"(-0.7, -0.5)",cs_pos_ns,"(-0.7, 0.5)",cs_neg_s_new,"(0.7, -0.5)",cs_neg_ns,"(0.7, 0.5)",cs_pos_s,0,0,0,0,,,,,,,,,,,,,,,,,,,,,,,,,,,,,0,5,5,13,1,0,1,0,,,,,,,,,,,,,,,417,reward,,,,,,1301.1873523999238,1301.1873523999238,1301.1873523999238,1301.1873523999238,1,0.15399090002756566,0.15399459993932396,0,,,0,,,1,0.030069399974308908,0.08523329999297857,1301.3470762999495,1301.3470762999495,1301.3470762999495,1301.3470762999495,43,C,2024-05-21_12h18.04.978,attentional_competition_task,2022.2.4,143.98309068480623,
positions.xlsx,positions_test.xlsx,positions_test_new.xlsx,stimuli.xlsx,stimuli_new.xlsx,stimuli/Social3.png,stimuli/Social4.png,stimuli/Nonsocial3.png,stimuli/Nonsocial4.png,stimuli/Social1.png,stimuli/Social2.png,stimuli/Nonsocial1.png,stimuli/Nonsocial2.png,,,"(-0.7, -0.5)",cs_pos_ns,"(-0.7, 0.5)",cs_neg_s_new,"(0.7, -0.5)",cs_neg_ns,"(0.7, 0.5)",cs_pos_s,0,0,0,0,,,,,,,,,,,,,,,,,,,,,,,,,,,,,0,5,5,13,2,0,2,0,,,,,,,,,,,,,,,420,reward,,,,,,1301.840170999989,1301.840170999989,1301.840170999989,1301.840170999989,1,0.022726699942722917,0.05871689994819462,0,,,0,,,0,,,1302.7289941000054,1302.7289941000054,1302.7289941000054,1302.7289941000054,43,C,2024-05-21_12h18.04.978,attentional_competition_task,2022.2.4,143.98309068480623,
positions.xlsx,positions_test.xlsx,positions_test_new.xlsx,stimuli.xlsx,stimuli_new.xlsx,stimuli/Social3.png,stimuli/Social4.png,stimuli/Nonsocial3.png,stimuli/Nonsocial4.png,stimuli/Social1.png,stimuli/Social2.png,stimuli/Nonsocial1.png,stimuli/Nonsocial2.png,,,"(-0.7, -0.5)",cs_pos_ns,"(-0.7, 0.5)",cs_neg_s_new,"(0.7, -0.5)",cs_neg_ns,"(0.7, 0.5)",cs_pos_s,0,0,0,0,,,,,,,,,,,,,,,,,,,,,,,,,,,,,0,5,5,13,,,,,,,,,,,,,,,,,,,,,,,,,,,,,,,,,,,,,,,,,,,,,,43,C,2024-05-21_12h18.04.978,attentional_competition_task,2022.2.4,143.98309068480623,
positions.xlsx,positions_test.xlsx,positions_test_new.xlsx,stimuli.xlsx,stimuli_new.xlsx,stimuli/Social3.png,stimuli/Social4.png,stimuli/Nonsocial3.png,stimuli/Nonsocial4.png,stimuli/Social1.png,stimuli/Social2.png,stimuli/Nonsocial1.png,stimuli/Nonsocial2.png,,,"(-0.7, -0.5)",cs_neg_s,"(-0.7, 0.5)",cs_pos_s,"(0.7, -0.5)",cs_pos_ns,"(0.7, 0.5)",cs_neg_ns_new,0,0,0,0,,,,,,,,,,,,,,,,,,,,,,,,,,,,,0,6,6,18,0,0,0,0,,,,,,,,,,,,,,,423,reward,,,,,,1308.29820249998,1308.29820249998,1308.29820249998,1308.29820249998,0,,,1,0.46009559999220073,0.4600996000226587,0,,,0,,,1308.7634930999484,1308.7634930999484,1308.7634930999484,1308.7634930999484,43,C,2024-05-21_12h18.04.978,attentional_competition_task,2022.2.4,143.98309068480623,
positions.xlsx,positions_test.xlsx,positions_test_new.xlsx,stimuli.xlsx,stimuli_new.xlsx,stimuli/Social3.png,stimuli/Social4.png,stimuli/Nonsocial3.png,stimuli/Nonsocial4.png,stimuli/Social1.png,stimuli/Social2.png,stimuli/Nonsocial1.png,stimuli/Nonsocial2.png,,,"(-0.7, -0.5)",cs_neg_s,"(-0.7, 0.5)",cs_pos_s,"(0.7, -0.5)",cs_pos_ns,"(0.7, 0.5)",cs_neg_ns_new,0,0,0,0,,,,,,,,,,,,,,,,,,,,,,,,,,,,,0,6,6,18,1,0,1,0,,,,,,,,,,,,,,,426,reward,,,,,,1309.2981909000082,1309.2981909000082,1309.2981909000082,1309.2981909000082,0,,,0,,,1,0.030834499979391694,0.030844699940644205,0,,,1309.2981909000082,1309.2981909000082,1309.2981909000082,1309.2981909000082,43,C,2024-05-21_12h18.04.978,attentional_competition_task,2022.2.4,143.98309068480623,
positions.xlsx,positions_test.xlsx,positions_test_new.xlsx,stimuli.xlsx,stimuli_new.xlsx,stimuli/Social3.png,stimuli/Social4.png,stimuli/Nonsocial3.png,stimuli/Nonsocial4.png,stimuli/Social1.png,stimuli/Social2.png,stimuli/Nonsocial1.png,stimuli/Nonsocial2.png,,,"(-0.7, -0.5)",cs_neg_s,"(-0.7, 0.5)",cs_pos_s,"(0.7, -0.5)",cs_pos_ns,"(0.7, 0.5)",cs_neg_ns_new,0,0,0,0,,,,,,,,,,,,,,,,,,,,,,,,,,,,,0,6,6,18,2,0,2,0,,,,,,,,,,,,,,,429,reward,,,,,,1309.798159900005,1309.798159900005,1309.798159900005,1309.798159900005,0,,,0,,,0,,,0,,,1310.8120028999401,1310.8120028999401,1310.8120028999401,1310.8120028999401,43,C,2024-05-21_12h18.04.978,attentional_competition_task,2022.2.4,143.98309068480623,
positions.xlsx,positions_test.xlsx,positions_test_new.xlsx,stimuli.xlsx,stimuli_new.xlsx,stimuli/Social3.png,stimuli/Social4.png,stimuli/Nonsocial3.png,stimuli/Nonsocial4.png,stimuli/Social1.png,stimuli/Social2.png,stimuli/Nonsocial1.png,stimuli/Nonsocial2.png,,,"(-0.7, -0.5)",cs_neg_s,"(-0.7, 0.5)",cs_pos_s,"(0.7, -0.5)",cs_pos_ns,"(0.7, 0.5)",cs_neg_ns_new,0,0,0,0,,,,,,,,,,,,,,,,,,,,,,,,,,,,,0,6,6,18,,,,,,,,,,,,,,,,,,,,,,,,,,,,,,,,,,,,,,,,,,,,,,43,C,2024-05-21_12h18.04.978,attentional_competition_task,2022.2.4,143.98309068480623,
positions.xlsx,positions_test.xlsx,positions_test_new.xlsx,stimuli.xlsx,stimuli_new.xlsx,stimuli/Social3.png,stimuli/Social4.png,stimuli/Nonsocial3.png,stimuli/Nonsocial4.png,stimuli/Social1.png,stimuli/Social2.png,stimuli/Nonsocial1.png,stimuli/Nonsocial2.png,,,"(-0.7, -0.5)",cs_pos_ns,"(-0.7, 0.5)",cs_pos_s,"(0.7, -0.5)",cs_neg_s,"(0.7, 0.5)",cs_neg_ns,0,0,0,0,,,,,,,,,,,,,,,,,,,,,,,,,,,,,0,7,7,5,0,0,0,0,,,,,,,,,,,,,,,432,reward,,,,,,1316.693721299991,1316.693721299991,1316.693721299991,1316.693721299991,0,,,1,0.47457269998267293,0.4745767000131309,0,,,0,,,1317.1728505999781,1317.1728505999781,1317.1728505999781,1317.1728505999781,43,C,2024-05-21_12h18.04.978,attentional_competition_task,2022.2.4,143.98309068480623,
positions.xlsx,positions_test.xlsx,positions_test_new.xlsx,stimuli.xlsx,stimuli_new.xlsx,stimuli/Social3.png,stimuli/Social4.png,stimuli/Nonsocial3.png,stimuli/Nonsocial4.png,stimuli/Social1.png,stimuli/Social2.png,stimuli/Nonsocial1.png,stimuli/Nonsocial2.png,,,"(-0.7, -0.5)",cs_pos_ns,"(-0.7, 0.5)",cs_pos_s,"(0.7, -0.5)",cs_neg_s,"(0.7, 0.5)",cs_neg_ns,0,0,0,0,,,,,,,,,,,,,,,,,,,,,,,,,,,,,0,7,7,5,1,0,1,0,,,,,,,,,,,,,,,435,reward,,,,,,1317.7006394999335,1317.7006394999335,1317.7006394999335,1317.7006394999335,1,0.028441299917176366,0.028444599942304194,0,,,0,,,0,,,1317.7006394999335,1317.7006394999335,1317.7006394999335,1317.7006394999335,43,C,2024-05-21_12h18.04.978,attentional_competition_task,2022.2.4,143.98309068480623,
positions.xlsx,positions_test.xlsx,positions_test_new.xlsx,stimuli.xlsx,stimuli_new.xlsx,stimuli/Social3.png,stimuli/Social4.png,stimuli/Nonsocial3.png,stimuli/Nonsocial4.png,stimuli/Social1.png,stimuli/Social2.png,stimuli/Nonsocial1.png,stimuli/Nonsocial2.png,,,"(-0.7, -0.5)",cs_pos_ns,"(-0.7, 0.5)",cs_pos_s,"(0.7, -0.5)",cs_neg_s,"(0.7, 0.5)",cs_neg_ns,0,0,0,0,,,,,,,,,,,,,,,,,,,,,,,,,,,,,0,7,7,5,2,0,2,0,,,,,,,,,,,,,,,438,reward,,,,,,1318.2005611999193,1318.2005611999193,1318.2005611999193,1318.2005611999193,0,,,0,,,0,,,0,,,1319.2075234999647,1319.2075234999647,1319.2075234999647,1319.2075234999647,43,C,2024-05-21_12h18.04.978,attentional_competition_task,2022.2.4,143.98309068480623,
positions.xlsx,positions_test.xlsx,positions_test_new.xlsx,stimuli.xlsx,stimuli_new.xlsx,stimuli/Social3.png,stimuli/Social4.png,stimuli/Nonsocial3.png,stimuli/Nonsocial4.png,stimuli/Social1.png,stimuli/Social2.png,stimuli/Nonsocial1.png,stimuli/Nonsocial2.png,,,"(-0.7, -0.5)",cs_pos_ns,"(-0.7, 0.5)",cs_pos_s,"(0.7, -0.5)",cs_neg_s,"(0.7, 0.5)",cs_neg_ns,0,0,0,0,,,,,,,,,,,,,,,,,,,,,,,,,,,,,0,7,7,5,,,,,,,,,,,,,,,,,,,,,,,,,,,,,,,,,,,,,,,,,,,,,,43,C,2024-05-21_12h18.04.978,attentional_competition_task,2022.2.4,143.98309068480623,
positions.xlsx,positions_test.xlsx,positions_test_new.xlsx,stimuli.xlsx,stimuli_new.xlsx,stimuli/Social3.png,stimuli/Social4.png,stimuli/Nonsocial3.png,stimuli/Nonsocial4.png,stimuli/Social1.png,stimuli/Social2.png,stimuli/Nonsocial1.png,stimuli/Nonsocial2.png,,,"(-0.7, -0.5)",cs_neg_s,"(-0.7, 0.5)",cs_pos_s_new,"(0.7, -0.5)",cs_pos_ns,"(0.7, 0.5)",cs_neg_ns,0,0,0,0,,,,,,,,,,,,,,,,,,,,,,,,,,,,,0,8,8,28,0,0,0,0,,,,,,,,,,,,,,,441,reward,,,,,,1325.8114132999908,1325.8114132999908,1325.8114132999908,1325.8114132999908,0,,,0,,,1,1.0994922999525443,1.0994961999822408,0,,,1326.9155626000138,1326.9155626000138,1326.9155626000138,1326.9155626000138,43,C,2024-05-21_12h18.04.978,attentional_competition_task,2022.2.4,143.98309068480623,
