posFile,posFileTest,posFileTestNew,stimFile,stimFileNew,cs_neg_s,cs_pos_s,cs_neg_ns,cs_pos_ns,cs_neg_s_new,cs_pos_s_new,cs_neg_ns_new,cs_pos_ns_new,stim,position,position1,stim1,position2,stim2,position3,stim3,position4,stim4,blocks.thisRepN,blocks.thisTrialN,blocks.thisN,blocks.thisIndex,ratingtrials1.thisRepN,ratingtrials1.thisTrialN,ratingtrials1.thisN,ratingtrials1.thisIndex,search_task_trials.thisRepN,search_task_trials.thisTrialN,search_task_trials.thisN,search_task_trials.thisIndex,learning_trials.thisRepN,learning_trials.thisTrialN,learning_trials.thisN,learning_trials.thisIndex,trials.thisRepN,trials.thisTrialN,trials.thisN,trials.thisIndex,ratingtrials2.thisRepN,ratingtrials2.thisTrialN,ratingtrials2.thisN,ratingtrials2.thisIndex,testtrials.thisRepN,testtrials.thisTrialN,testtrials.thisN,testtrials.thisIndex,loop_test.thisRepN,loop_test.thisTrialN,loop_test.thisN,loop_test.thisIndex,testtrials_novelty.thisRepN,testtrials_novelty.thisTrialN,testtrials_novelty.thisN,testtrials_novelty.thisIndex,loop_test_novelty.thisRepN,loop_test_novelty.thisTrialN,loop_test_novelty.thisN,loop_test_novelty.thisIndex,ratingtrials3.thisRepN,ratingtrials3.thisTrialN,ratingtrials3.thisN,ratingtrials3.thisIndex,textStart.started,textStartExp.started,imageRating.started,sliderStim.response,sliderStim.rt,textStartSearch.started,target_positions,distractor_positions,textStartTask.started,image.started,score,outcome,roi.numLooks,roi.timesOn,roi.timesOff,imageFeedback.started,textTestInstr.started,test_image1.started,test_image2.started,test_image3.started,test_image4.started,test_roi1.numLooks,test_roi1.timesOn,test_roi1.timesOff,test_roi2.numLooks,test_roi2.timesOn,test_roi2.timesOff,test_roi3.numLooks,test_roi3.timesOn,test_roi3.timesOff,test_roi4.numLooks,test_roi4.timesOn,test_roi4.timesOff,test_image_feedback1.started,test_image_feedback2.started,test_iamge_feedback3.started,test_iamge_feedback4.started,participant,group,date,expName,psychopyVersion,frameRate,
positions.xlsx,positions_test.xlsx,positions_test_new.xlsx,stimuli.xlsx,stimuli_new.xlsx,stimuli/Social1.png,stimuli/Social2.png,stimuli/Nonsocial1.png,stimuli/Nonsocial2.png,stimuli/Social3.png,stimuli/Social4.png,stimuli/Nonsocial3.png,stimuli/Nonsocial4.png,cs_pos_ns,,,,,,,,,,0,0,0,0,0,0,0,3,,,,,,,,,,,,,,,,,,,,,,,,,,,,,,,,,,,,,12.850799699983327,87.30017239999142,96.81130329999723,7.0,28.67872600001283,,,,,,,,,,,,,,,,,,,,,,,,,,,,,,,,,41,A,2024-05-17_14h20.40.267,attentional_competition_task,2022.2.4,143.9650567833869,
positions.xlsx,positions_test.xlsx,positions_test_new.xlsx,stimuli.xlsx,stimuli_new.xlsx,stimuli/Social1.png,stimuli/Social2.png,stimuli/Nonsocial1.png,stimuli/Nonsocial2.png,stimuli/Social3.png,stimuli/Social4.png,stimuli/Nonsocial3.png,stimuli/Nonsocial4.png,cs_neg_ns,,,,,,,,,,0,0,0,0,0,1,1,1,,,,,,,,,,,,,,,,,,,,,,,,,,,,,,,,,,,,,,,127.90733240000554,6.0,2.292831099999603,,,,,,,,,,,,,,,,,,,,,,,,,,,,,,,,,41,A,2024-05-17_14h20.40.267,attentional_competition_task,2022.2.4,143.9650567833869,
positions.xlsx,positions_test.xlsx,positions_test_new.xlsx,stimuli.xlsx,stimuli_new.xlsx,stimuli/Social1.png,stimuli/Social2.png,stimuli/Nonsocial1.png,stimuli/Nonsocial2.png,stimuli/Social3.png,stimuli/Social4.png,stimuli/Nonsocial3.png,stimuli/Nonsocial4.png,cs_neg_s,,,,,,,,,,0,0,0,0,0,2,2,0,,,,,,,,,,,,,,,,,,,,,,,,,,,,,,,,,,,,,,,131.5113371000043,5.0,5.578417999990052,,,,,,,,,,,,,,,,,,,,,,,,,,,,,,,,,41,A,2024-05-17_14h20.40.267,attentional_competition_task,2022.2.4,143.9650567833869,
positions.xlsx,positions_test.xlsx,positions_test_new.xlsx,stimuli.xlsx,stimuli_new.xlsx,stimuli/Social1.png,stimuli/Social2.png,stimuli/Nonsocial1.png,stimuli/Nonsocial2.png,stimuli/Social3.png,stimuli/Social4.png,stimuli/Nonsocial3.png,stimuli/Nonsocial4.png,cs_pos_s,,,,,,,,,,0,0,0,0,0,3,3,2,,,,,,,,,,,,,,,,,,,,,,,,,,,,,,,,,,,,,,,139.42768749999232,6.0,6.877523799979826,,,,,,,,,,,,,,,,,,,,,,,,,,,,,,,,,41,A,2024-05-17_14h20.40.267,attentional_competition_task,2022.2.4,143.9650567833869,
positions.xlsx,positions_test.xlsx,positions_test_new.xlsx,stimuli.xlsx,stimuli_new.xlsx,stimuli/Social1.png,stimuli/Social2.png,stimuli/Nonsocial1.png,stimuli/Nonsocial2.png,stimuli/Social3.png,stimuli/Social4.png,stimuli/Nonsocial3.png,stimuli/Nonsocial4.png,,,,,,,,,,,0,0,0,0,,,,,0,0,0,0,,,,,,,,,,,,,,,,,,,,,,,,,,,,,,,,,,,,,,146.6843738000025,"[[-0.22499999999999998, 0.19999999999999996], [-0.675, -0.8], [-0.9, -0.30000000000000004], [-0.22499999999999998, -0.8], [0.9, -0.30000000000000004], [-0.22499999999999998, -0.30000000000000004], [0.0, 0.19999999999999996], [-0.675, 0.19999999999999996], [0.45000000000000007, -0.30000000000000004], [0.0, 0.7], [0.9, 0.19999999999999996], [0.0, -0.30000000000000004], [0.22499999999999998, -0.8], [-0.22499999999999998, 0.7], [0.45000000000000007, 0.7]]","[[0.6749999999999999, -0.30000000000000004], [-0.675, -0.30000000000000004], [0.45000000000000007, -0.8], [0.0, -0.8], [0.22499999999999998, -0.30000000000000004], [0.6749999999999999, 0.19999999999999996], [0.9, 0.7], [-0.675, 0.7], [-0.45, 0.7], [0.6749999999999999, -0.8], [-0.9, 0.19999999999999996], [-0.45, -0.30000000000000004], [0.9, -0.8], [0.22499999999999998, 0.19999999999999996], [-0.45, 0.19999999999999996]]",,,,,,,,,,,,,,,,,,,,,,,,,,,,,,41,A,2024-05-17_14h20.40.267,attentional_competition_task,2022.2.4,143.9650567833869,
positions.xlsx,positions_test.xlsx,positions_test_new.xlsx,stimuli.xlsx,stimuli_new.xlsx,stimuli/Social1.png,stimuli/Social2.png,stimuli/Nonsocial1.png,stimuli/Nonsocial2.png,stimuli/Social3.png,stimuli/Social4.png,stimuli/Nonsocial3.png,stimuli/Nonsocial4.png,,,,,,,,,,,0,0,0,0,,,,,1,0,1,0,,,,,,,,,,,,,,,,,,,,,,,,,,,,,,,,,,,,,,,"[[-0.675, -0.8], [0.0, -0.30000000000000004], [0.9, -0.30000000000000004], [-0.9, 0.19999999999999996], [-0.45, -0.8], [-0.45, 0.7], [0.6749999999999999, -0.8], [0.9, -0.8], [0.0, 0.7], [-0.45, -0.30000000000000004], [-0.9, -0.8], [-0.675, -0.30000000000000004], [-0.9, -0.30000000000000004], [0.6749999999999999, 0.7], [0.45000000000000007, -0.8]]","[[-0.45, 0.19999999999999996], [-0.22499999999999998, -0.8], [0.22499999999999998, 0.19999999999999996], [0.9, 0.7], [0.0, 0.19999999999999996], [-0.22499999999999998, 0.19999999999999996], [-0.675, 0.19999999999999996], [0.22499999999999998, -0.8], [0.22499999999999998, -0.30000000000000004], [0.6749999999999999, -0.30000000000000004], [0.45000000000000007, 0.19999999999999996], [-0.9, 0.7], [-0.675, 0.7], [0.45000000000000007, 0.7], [-0.22499999999999998, 0.7]]",,,,,,,,,,,,,,,,,,,,,,,,,,,,,,41,A,2024-05-17_14h20.40.267,attentional_competition_task,2022.2.4,143.9650567833869,
positions.xlsx,positions_test.xlsx,positions_test_new.xlsx,stimuli.xlsx,stimuli_new.xlsx,stimuli/Social1.png,stimuli/Social2.png,stimuli/Nonsocial1.png,stimuli/Nonsocial2.png,stimuli/Social3.png,stimuli/Social4.png,stimuli/Nonsocial3.png,stimuli/Nonsocial4.png,cs_pos_s,"(-0.7, -0.5)",,,,,,,,,0,0,0,0,,,,,,,,,0,0,0,5,,,,,,,,,,,,,,,,,,,,,,,,,,,,,,,,,,,,,227.71583020000253,246.8539660999959,3,reward,1,0.30564949999097735,0.3056530999892857,247.166444100003,,,,,,,,,,,,,,,,,,,,,,41,A,2024-05-17_14h20.40.267,attentional_competition_task,2022.2.4,143.9650567833869,
positions.xlsx,positions_test.xlsx,positions_test_new.xlsx,stimuli.xlsx,stimuli_new.xlsx,stimuli/Social1.png,stimuli/Social2.png,stimuli/Nonsocial1.png,stimuli/Nonsocial2.png,stimuli/Social3.png,stimuli/Social4.png,stimuli/Nonsocial3.png,stimuli/Nonsocial4.png,cs_pos_ns,"(-0.7, -0.5)",,,,,,,,,0,0,0,0,,,,,,,,,0,1,1,13,,,,,,,,,,,,,,,,,,,,,,,,,,,,,,,,,,,,,,255.17998849999276,6,reward,1,0.284970600012457,0.2849765999999363,255.47166449998622,,,,,,,,,,,,,,,,,,,,,,41,A,2024-05-17_14h20.40.267,attentional_competition_task,2022.2.4,143.9650567833869,
positions.xlsx,positions_test.xlsx,positions_test_new.xlsx,stimuli.xlsx,stimuli_new.xlsx,stimuli/Social1.png,stimuli/Social2.png,stimuli/Nonsocial1.png,stimuli/Nonsocial2.png,stimuli/Social3.png,stimuli/Social4.png,stimuli/Nonsocial3.png,stimuli/Nonsocial4.png,cs_pos_ns,"(-0.7, 0.5)",,,,,,,,,0,0,0,0,,,,,,,,,0,2,2,12,,,,,,,,,,,,,,,,,,,,,,,,,,,,,,,,,,,,,,263.2769002999994,9,reward,1,0.3061569999845233,0.3061609999858774,263.5893947999866,,,,,,,,,,,,,,,,,,,,,,41,A,2024-05-17_14h20.40.267,attentional_competition_task,2022.2.4,143.9650567833869,
positions.xlsx,positions_test.xlsx,positions_test_new.xlsx,stimuli.xlsx,stimuli_new.xlsx,stimuli/Social1.png,stimuli/Social2.png,stimuli/Nonsocial1.png,stimuli/Nonsocial2.png,stimuli/Social3.png,stimuli/Social4.png,stimuli/Nonsocial3.png,stimuli/Nonsocial4.png,cs_neg_s,"(0.7, 0.5)",,,,,,,,,0,0,0,0,,,,,,,,,0,3,3,2,,,,,,,,,,,,,,,,,,,,,,,,,,,,,,,,,,,,,,271.09601139998995,6,loss,1,0.20205120000173338,0.20205500000156462,271.304358399997,,,,,,,,,,,,,,,,,,,,,,41,A,2024-05-17_14h20.40.267,attentional_competition_task,2022.2.4,143.9650567833869,
positions.xlsx,positions_test.xlsx,positions_test_new.xlsx,stimuli.xlsx,stimuli_new.xlsx,stimuli/Social1.png,stimuli/Social2.png,stimuli/Nonsocial1.png,stimuli/Nonsocial2.png,stimuli/Social3.png,stimuli/Social4.png,stimuli/Nonsocial3.png,stimuli/Nonsocial4.png,cs_neg_s,"(-0.7, 0.5)",,,,,,,,,0,0,0,0,,,,,,,,,0,4,4,0,,,,,,,,,,,,,,,,,,,,,,,,,,,,,,,,,,,,,,279.07485199999064,3,loss,1,0.20858279999811202,0.20858679999946617,279.29014880000614,,,,,,,,,,,,,,,,,,,,,,41,A,2024-05-17_14h20.40.267,attentional_competition_task,2022.2.4,143.9650567833869,
positions.xlsx,positions_test.xlsx,positions_test_new.xlsx,stimuli.xlsx,stimuli_new.xlsx,stimuli/Social1.png,stimuli/Social2.png,stimuli/Nonsocial1.png,stimuli/Nonsocial2.png,stimuli/Social3.png,stimuli/Social4.png,stimuli/Nonsocial3.png,stimuli/Nonsocial4.png,cs_pos_s,"(0.7, 0.5)",,,,,,,,,0,0,0,0,,,,,,,,,0,5,5,6,,,,,,,,,,,,,,,,,,,,,,,,,,,,,,,,,,,,,,286.9842810999835,6,reward,1,0.5349247999838553,0.5349285999836866,287.52594259998295,,,,,,,,,,,,,,,,,,,,,,41,A,2024-05-17_14h20.40.267,attentional_competition_task,2022.2.4,143.9650567833869,
positions.xlsx,positions_test.xlsx,positions_test_new.xlsx,stimuli.xlsx,stimuli_new.xlsx,stimuli/Social1.png,stimuli/Social2.png,stimuli/Nonsocial1.png,stimuli/Nonsocial2.png,stimuli/Social3.png,stimuli/Social4.png,stimuli/Nonsocial3.png,stimuli/Nonsocial4.png,cs_pos_s,"(0.7, -0.5)",,,,,,,,,0,0,0,0,,,,,,,,,0,6,6,7,,,,,,,,,,,,,,,,,,,,,,,,,,,,,,,,,,,,,,295.18538660000195,9,reward,1,0.5626919000060298,0.562695700005861,295.7547784000053,,,,,,,,,,,,,,,,,,,,,,41,A,2024-05-17_14h20.40.267,attentional_competition_task,2022.2.4,143.9650567833869,
positions.xlsx,positions_test.xlsx,positions_test_new.xlsx,stimuli.xlsx,stimuli_new.xlsx,stimuli/Social1.png,stimuli/Social2.png,stimuli/Nonsocial1.png,stimuli/Nonsocial2.png,stimuli/Social3.png,stimuli/Social4.png,stimuli/Nonsocial3.png,stimuli/Nonsocial4.png,cs_neg_ns,"(0.7, -0.5)",,,,,,,,,0,0,0,0,,,,,,,,,0,7,7,11,,,,,,,,,,,,,,,,,,,,,,,,,,,,,,,,,,,,,,302.5531059000059,6,loss,1,0.47932440001750365,0.47932810001657344,303.0391944999865,,,,,,,,,,,,,,,,,,,,,,41,A,2024-05-17_14h20.40.267,attentional_competition_task,2022.2.4,143.9650567833869,
positions.xlsx,positions_test.xlsx,positions_test_new.xlsx,stimuli.xlsx,stimuli_new.xlsx,stimuli/Social1.png,stimuli/Social2.png,stimuli/Nonsocial1.png,stimuli/Nonsocial2.png,stimuli/Social3.png,stimuli/Social4.png,stimuli/Nonsocial3.png,stimuli/Nonsocial4.png,cs_pos_s,"(-0.7, 0.5)",,,,,,,,,0,0,0,0,,,,,,,,,0,8,8,4,,,,,,,,,,,,,,,,,,,,,,,,,,,,,,,,,,,,,,311.1777315000072,9,reward,1,0.5210598999983631,0.5210632999951486,311.70555610000156,,,,,,,,,,,,,,,,,,,,,,41,A,2024-05-17_14h20.40.267,attentional_competition_task,2022.2.4,143.9650567833869,
positions.xlsx,positions_test.xlsx,positions_test_new.xlsx,stimuli.xlsx,stimuli_new.xlsx,stimuli/Social1.png,stimuli/Social2.png,stimuli/Nonsocial1.png,stimuli/Nonsocial2.png,stimuli/Social3.png,stimuli/Social4.png,stimuli/Nonsocial3.png,stimuli/Nonsocial4.png,cs_neg_s,"(-0.7, -0.5)",,,,,,,,,0,0,0,0,,,,,,,,,0,9,9,1,,,,,,,,,,,,,,,,,,,,,,,,,,,,,,,,,,,,,,318.91356559999986,9,none,0,,,321.92036240000743,,,,,,,,,,,,,,,,,,,,,,41,A,2024-05-17_14h20.40.267,attentional_competition_task,2022.2.4,143.9650567833869,
positions.xlsx,positions_test.xlsx,positions_test_new.xlsx,stimuli.xlsx,stimuli_new.xlsx,stimuli/Social1.png,stimuli/Social2.png,stimuli/Nonsocial1.png,stimuli/Nonsocial2.png,stimuli/Social3.png,stimuli/Social4.png,stimuli/Nonsocial3.png,stimuli/Nonsocial4.png,cs_neg_ns,"(-0.7, -0.5)",,,,,,,,,0,0,0,0,,,,,,,,,0,10,10,9,,,,,,,,,,,,,,,,,,,,,,,,,,,,,,,,,,,,,,330.0936911999888,9,none,0,,,333.1005019999866,,,,,,,,,,,,,,,,,,,,,,41,A,2024-05-17_14h20.40.267,attentional_competition_task,2022.2.4,143.9650567833869,
positions.xlsx,positions_test.xlsx,positions_test_new.xlsx,stimuli.xlsx,stimuli_new.xlsx,stimuli/Social1.png,stimuli/Social2.png,stimuli/Nonsocial1.png,stimuli/Nonsocial2.png,stimuli/Social3.png,stimuli/Social4.png,stimuli/Nonsocial3.png,stimuli/Nonsocial4.png,cs_neg_ns,"(-0.7, 0.5)",,,,,,,,,0,0,0,0,,,,,,,,,0,11,11,8,,,,,,,,,,,,,,,,,,,,,,,,,,,,,,,,,,,,,,339.89883940000436,6,loss,1,1.8401842000021134,1.8401875999988988,341.7459891999897,,,,,,,,,,,,,,,,,,,,,,41,A,2024-05-17_14h20.40.267,attentional_competition_task,2022.2.4,143.9650567833869,
positions.xlsx,positions_test.xlsx,positions_test_new.xlsx,stimuli.xlsx,stimuli_new.xlsx,stimuli/Social1.png,stimuli/Social2.png,stimuli/Nonsocial1.png,stimuli/Nonsocial2.png,stimuli/Social3.png,stimuli/Social4.png,stimuli/Nonsocial3.png,stimuli/Nonsocial4.png,cs_neg_ns,"(0.7, 0.5)",,,,,,,,,0,0,0,0,,,,,,,,,0,12,12,10,,,,,,,,,,,,,,,,,,,,,,,,,,,,,,,,,,,,,,348.37069829998654,6,none,0,,,351.3844981000002,,,,,,,,,,,,,,,,,,,,,,41,A,2024-05-17_14h20.40.267,attentional_competition_task,2022.2.4,143.9650567833869,
positions.xlsx,positions_test.xlsx,positions_test_new.xlsx,stimuli.xlsx,stimuli_new.xlsx,stimuli/Social1.png,stimuli/Social2.png,stimuli/Nonsocial1.png,stimuli/Nonsocial2.png,stimuli/Social3.png,stimuli/Social4.png,stimuli/Nonsocial3.png,stimuli/Nonsocial4.png,cs_neg_s,"(0.7, -0.5)",,,,,,,,,0,0,0,0,,,,,,,,,0,13,13,3,,,,,,,,,,,,,,,,,,,,,,,,,,,,,,,,,,,,,,358.77309169998625,6,none,0,,,361.77990480000153,,,,,,,,,,,,,,,,,,,,,,41,A,2024-05-17_14h20.40.267,attentional_competition_task,2022.2.4,143.9650567833869,
positions.xlsx,positions_test.xlsx,positions_test_new.xlsx,stimuli.xlsx,stimuli_new.xlsx,stimuli/Social1.png,stimuli/Social2.png,stimuli/Nonsocial1.png,stimuli/Nonsocial2.png,stimuli/Social3.png,stimuli/Social4.png,stimuli/Nonsocial3.png,stimuli/Nonsocial4.png,cs_pos_ns,"(0.7, -0.5)",,,,,,,,,0,0,0,0,,,,,,,,,0,14,14,15,,,,,,,,,,,,,,,,,,,,,,,,,,,,,,,,,,,,,,370.01569030000246,9,reward,1,0.5766434000106528,0.5766468000074383,370.5990157999913,,,,,,,,,,,,,,,,,,,,,,41,A,2024-05-17_14h20.40.267,attentional_competition_task,2022.2.4,143.9650567833869,
positions.xlsx,positions_test.xlsx,positions_test_new.xlsx,stimuli.xlsx,stimuli_new.xlsx,stimuli/Social1.png,stimuli/Social2.png,stimuli/Nonsocial1.png,stimuli/Nonsocial2.png,stimuli/Social3.png,stimuli/Social4.png,stimuli/Nonsocial3.png,stimuli/Nonsocial4.png,cs_pos_ns,"(0.7, 0.5)",,,,,,,,,0,0,0,0,,,,,,,,,0,15,15,14,,,,,,,,,,,,,,,,,,,,,,,,,,,,,,,,,,,,,,377.6612138999917,12,reward,1,0.7156735000025947,0.7156767999986187,378.3834130000032,,,,,,,,,,,,,,,,,,,,,,41,A,2024-05-17_14h20.40.267,attentional_competition_task,2022.2.4,143.9650567833869,
positions.xlsx,positions_test.xlsx,positions_test_new.xlsx,stimuli.xlsx,stimuli_new.xlsx,stimuli/Social1.png,stimuli/Social2.png,stimuli/Nonsocial1.png,stimuli/Nonsocial2.png,stimuli/Social3.png,stimuli/Social4.png,stimuli/Nonsocial3.png,stimuli/Nonsocial4.png,cs_neg_s,"(-0.7, 0.5)",,,,,,,,,0,0,0,0,,,,,,,,,1,0,16,0,,,,,,,,,,,,,,,,,,,,,,,,,,,,,,,,,,,,,,386.21640790000674,12,none,0,,,389.2301937000011,,,,,,,,,,,,,,,,,,,,,,41,A,2024-05-17_14h20.40.267,attentional_competition_task,2022.2.4,143.9650567833869,
positions.xlsx,positions_test.xlsx,positions_test_new.xlsx,stimuli.xlsx,stimuli_new.xlsx,stimuli/Social1.png,stimuli/Social2.png,stimuli/Nonsocial1.png,stimuli/Nonsocial2.png,stimuli/Social3.png,stimuli/Social4.png,stimuli/Nonsocial3.png,stimuli/Nonsocial4.png,cs_pos_ns,"(-0.7, -0.5)",,,,,,,,,0,0,0,0,,,,,,,,,1,1,17,13,,,,,,,,,,,,,,,,,,,,,,,,,,,,,,,,,,,,,,396.7785384999879,15,reward,1,0.5210891999886371,0.5210928999877069,397.3132113000029,,,,,,,,,,,,,,,,,,,,,,41,A,2024-05-17_14h20.40.267,attentional_competition_task,2022.2.4,143.9650567833869,
positions.xlsx,positions_test.xlsx,positions_test_new.xlsx,stimuli.xlsx,stimuli_new.xlsx,stimuli/Social1.png,stimuli/Social2.png,stimuli/Nonsocial1.png,stimuli/Nonsocial2.png,stimuli/Social3.png,stimuli/Social4.png,stimuli/Nonsocial3.png,stimuli/Nonsocial4.png,cs_pos_s,"(-0.7, -0.5)",,,,,,,,,0,0,0,0,,,,,,,,,1,2,18,5,,,,,,,,,,,,,,,,,,,,,,,,,,,,,,,,,,,,,,404.68789309999556,18,reward,1,0.5974266999983229,0.6043364999932237,405.29900060000364,,,,,,,,,,,,,,,,,,,,,,41,A,2024-05-17_14h20.40.267,attentional_competition_task,2022.2.4,143.9650567833869,
positions.xlsx,positions_test.xlsx,positions_test_new.xlsx,stimuli.xlsx,stimuli_new.xlsx,stimuli/Social1.png,stimuli/Social2.png,stimuli/Nonsocial1.png,stimuli/Nonsocial2.png,stimuli/Social3.png,stimuli/Social4.png,stimuli/Nonsocial3.png,stimuli/Nonsocial4.png,cs_pos_ns,"(0.7, -0.5)",,,,,,,,,0,0,0,0,,,,,,,,,1,3,19,15,,,,,,,,,,,,,,,,,,,,,,,,,,,,,,,,,,,,,,413.3750691000023,21,reward,1,0.4586282999953255,0.4586321999959182,413.8403045999876,,,,,,,,,,,,,,,,,,,,,,41,A,2024-05-17_14h20.40.267,attentional_competition_task,2022.2.4,143.9650567833869,
positions.xlsx,positions_test.xlsx,positions_test_new.xlsx,stimuli.xlsx,stimuli_new.xlsx,stimuli/Social1.png,stimuli/Social2.png,stimuli/Nonsocial1.png,stimuli/Nonsocial2.png,stimuli/Social3.png,stimuli/Social4.png,stimuli/Nonsocial3.png,stimuli/Nonsocial4.png,cs_pos_s,"(0.7, 0.5)",,,,,,,,,0,0,0,0,,,,,,,,,1,4,20,6,,,,,,,,,,,,,,,,,,,,,,,,,,,,,,,,,,,,,,420.7914404000039,24,reward,1,0.4445679000054952,0.4445715000038035,421.2428190000064,,,,,,,,,,,,,,,,,,,,,,41,A,2024-05-17_14h20.40.267,attentional_competition_task,2022.2.4,143.9650567833869,
positions.xlsx,positions_test.xlsx,positions_test_new.xlsx,stimuli.xlsx,stimuli_new.xlsx,stimuli/Social1.png,stimuli/Social2.png,stimuli/Nonsocial1.png,stimuli/Nonsocial2.png,stimuli/Social3.png,stimuli/Social4.png,stimuli/Nonsocial3.png,stimuli/Nonsocial4.png,cs_neg_ns,"(-0.7, 0.5)",,,,,,,,,0,0,0,0,,,,,,,,,1,5,21,8,,,,,,,,,,,,,,,,,,,,,,,,,,,,,,,,,,,,,,428.87445499998285,21,loss,1,0.5976763999788091,0.5976804999809247,429.4785924000025,,,,,,,,,,,,,,,,,,,,,,41,A,2024-05-17_14h20.40.267,attentional_competition_task,2022.2.4,143.9650567833869,
positions.xlsx,positions_test.xlsx,positions_test_new.xlsx,stimuli.xlsx,stimuli_new.xlsx,stimuli/Social1.png,stimuli/Social2.png,stimuli/Nonsocial1.png,stimuli/Nonsocial2.png,stimuli/Social3.png,stimuli/Social4.png,stimuli/Nonsocial3.png,stimuli/Nonsocial4.png,cs_neg_ns,"(-0.7, -0.5)",,,,,,,,,0,0,0,0,,,,,,,,,1,6,22,9,,,,,,,,,,,,,,,,,,,,,,,,,,,,,,,,,,,,,,437.513009199989,21,none,0,,,440.5267831000092,,,,,,,,,,,,,,,,,,,,,,41,A,2024-05-17_14h20.40.267,attentional_competition_task,2022.2.4,143.9650567833869,
positions.xlsx,positions_test.xlsx,positions_test_new.xlsx,stimuli.xlsx,stimuli_new.xlsx,stimuli/Social1.png,stimuli/Social2.png,stimuli/Nonsocial1.png,stimuli/Nonsocial2.png,stimuli/Social3.png,stimuli/Social4.png,stimuli/Nonsocial3.png,stimuli/Nonsocial4.png,cs_neg_s,"(0.7, 0.5)",,,,,,,,,0,0,0,0,,,,,,,,,1,7,23,2,,,,,,,,,,,,,,,,,,,,,,,,,,,,,,,,,,,,,,447.4014542000077,21,none,0,,,450.40838149999036,,,,,,,,,,,,,,,,,,,,,,41,A,2024-05-17_14h20.40.267,attentional_competition_task,2022.2.4,143.9650567833869,
positions.xlsx,positions_test.xlsx,positions_test_new.xlsx,stimuli.xlsx,stimuli_new.xlsx,stimuli/Social1.png,stimuli/Social2.png,stimuli/Nonsocial1.png,stimuli/Nonsocial2.png,stimuli/Social3.png,stimuli/Social4.png,stimuli/Nonsocial3.png,stimuli/Nonsocial4.png,cs_neg_s,"(-0.7, -0.5)",,,,,,,,,0,0,0,0,,,,,,,,,1,8,24,1,,,,,,,,,,,,,,,,,,,,,,,,,,,,,,,,,,,,,,458.0121455999906,21,none,0,,,461.02594369999133,,,,,,,,,,,,,,,,,,,,,,41,A,2024-05-17_14h20.40.267,attentional_competition_task,2022.2.4,143.9650567833869,
positions.xlsx,positions_test.xlsx,positions_test_new.xlsx,stimuli.xlsx,stimuli_new.xlsx,stimuli/Social1.png,stimuli/Social2.png,stimuli/Nonsocial1.png,stimuli/Nonsocial2.png,stimuli/Social3.png,stimuli/Social4.png,stimuli/Nonsocial3.png,stimuli/Nonsocial4.png,cs_pos_ns,"(-0.7, 0.5)",,,,,,,,,0,0,0,0,,,,,,,,,1,9,25,12,,,,,,,,,,,,,,,,,,,,,,,,,,,,,,,,,,,,,,468.78951770000276,24,reward,1,0.7015420999960043,0.7015458999958355,469.49779600001057,,,,,,,,,,,,,,,,,,,,,,41,A,2024-05-17_14h20.40.267,attentional_competition_task,2022.2.4,143.9650567833869,
positions.xlsx,positions_test.xlsx,positions_test_new.xlsx,stimuli.xlsx,stimuli_new.xlsx,stimuli/Social1.png,stimuli/Social2.png,stimuli/Nonsocial1.png,stimuli/Nonsocial2.png,stimuli/Social3.png,stimuli/Social4.png,stimuli/Nonsocial3.png,stimuli/Nonsocial4.png,cs_pos_ns,"(0.7, 0.5)",,,,,,,,,0,0,0,0,,,,,,,,,1,10,26,14,,,,,,,,,,,,,,,,,,,,,,,,,,,,,,,,,,,,,,477.76140369998757,27,reward,1,0.5905849999981001,0.5905888999986928,478.35858860000735,,,,,,,,,,,,,,,,,,,,,,41,A,2024-05-17_14h20.40.267,attentional_competition_task,2022.2.4,143.9650567833869,
positions.xlsx,positions_test.xlsx,positions_test_new.xlsx,stimuli.xlsx,stimuli_new.xlsx,stimuli/Social1.png,stimuli/Social2.png,stimuli/Nonsocial1.png,stimuli/Nonsocial2.png,stimuli/Social3.png,stimuli/Social4.png,stimuli/Nonsocial3.png,stimuli/Nonsocial4.png,cs_neg_ns,"(0.7, 0.5)",,,,,,,,,0,0,0,0,,,,,,,,,1,11,27,10,,,,,,,,,,,,,,,,,,,,,,,,,,,,,,,,,,,,,,485.33052709998447,27,none,0,,,488.3443476000102,,,,,,,,,,,,,,,,,,,,,,41,A,2024-05-17_14h20.40.267,attentional_competition_task,2022.2.4,143.9650567833869,
positions.xlsx,positions_test.xlsx,positions_test_new.xlsx,stimuli.xlsx,stimuli_new.xlsx,stimuli/Social1.png,stimuli/Social2.png,stimuli/Nonsocial1.png,stimuli/Nonsocial2.png,stimuli/Social3.png,stimuli/Social4.png,stimuli/Nonsocial3.png,stimuli/Nonsocial4.png,cs_pos_s,"(-0.7, 0.5)",,,,,,,,,0,0,0,0,,,,,,,,,1,12,28,4,,,,,,,,,,,,,,,,,,,,,,,,,,,,,,,,,,,,,,495.53842409999925,30,reward,1,0.6529186999832746,0.65292209998006,496.1981555999955,,,,,,,,,,,,,,,,,,,,,,41,A,2024-05-17_14h20.40.267,attentional_competition_task,2022.2.4,143.9650567833869,
positions.xlsx,positions_test.xlsx,positions_test_new.xlsx,stimuli.xlsx,stimuli_new.xlsx,stimuli/Social1.png,stimuli/Social2.png,stimuli/Nonsocial1.png,stimuli/Nonsocial2.png,stimuli/Social3.png,stimuli/Social4.png,stimuli/Nonsocial3.png,stimuli/Nonsocial4.png,cs_pos_s,"(0.7, -0.5)",,,,,,,,,0,0,0,0,,,,,,,,,1,13,29,7,,,,,,,,,,,,,,,,,,,,,,,,,,,,,,,,,,,,,,504.04503069998464,33,reward,1,0.47890909999841824,0.4789126999967266,504.53112329999567,,,,,,,,,,,,,,,,,,,,,,41,A,2024-05-17_14h20.40.267,attentional_competition_task,2022.2.4,143.9650567833869,
positions.xlsx,positions_test.xlsx,positions_test_new.xlsx,stimuli.xlsx,stimuli_new.xlsx,stimuli/Social1.png,stimuli/Social2.png,stimuli/Nonsocial1.png,stimuli/Nonsocial2.png,stimuli/Social3.png,stimuli/Social4.png,stimuli/Nonsocial3.png,stimuli/Nonsocial4.png,cs_neg_s,"(0.7, -0.5)",,,,,,,,,0,0,0,0,,,,,,,,,1,14,30,3,,,,,,,,,,,,,,,,,,,,,,,,,,,,,,,,,,,,,,512.3572176999878,30,loss,1,0.22229219999280758,0.22229619999416173,512.5863784000103,,,,,,,,,,,,,,,,,,,,,,41,A,2024-05-17_14h20.40.267,attentional_competition_task,2022.2.4,143.9650567833869,
positions.xlsx,positions_test.xlsx,positions_test_new.xlsx,stimuli.xlsx,stimuli_new.xlsx,stimuli/Social1.png,stimuli/Social2.png,stimuli/Nonsocial1.png,stimuli/Nonsocial2.png,stimuli/Social3.png,stimuli/Social4.png,stimuli/Nonsocial3.png,stimuli/Nonsocial4.png,cs_neg_ns,"(0.7, -0.5)",,,,,,,,,0,0,0,0,,,,,,,,,1,15,31,11,,,,,,,,,,,,,,,,,,,,,,,,,,,,,,,,,,,,,,520.7388249000069,30,none,0,,,523.7526332999987,,,,,,,,,,,,,,,,,,,,,,41,A,2024-05-17_14h20.40.267,attentional_competition_task,2022.2.4,143.9650567833869,
positions.xlsx,positions_test.xlsx,positions_test_new.xlsx,stimuli.xlsx,stimuli_new.xlsx,stimuli/Social1.png,stimuli/Social2.png,stimuli/Nonsocial1.png,stimuli/Nonsocial2.png,stimuli/Social3.png,stimuli/Social4.png,stimuli/Nonsocial3.png,stimuli/Nonsocial4.png,cs_neg_s,"(-0.7, -0.5)",,,,,,,,,0,0,0,0,,,,,,,,,,,,,0,0,0,1,,,,,,,,,,,,,,,,,,,,,,,,,,,,,,,,,,545.0781682000088,30,none,0,,,548.0850114999921,,,,,,,,,,,,,,,,,,,,,,41,A,2024-05-17_14h20.40.267,attentional_competition_task,2022.2.4,143.9650567833869,
positions.xlsx,positions_test.xlsx,positions_test_new.xlsx,stimuli.xlsx,stimuli_new.xlsx,stimuli/Social1.png,stimuli/Social2.png,stimuli/Nonsocial1.png,stimuli/Nonsocial2.png,stimuli/Social3.png,stimuli/Social4.png,stimuli/Nonsocial3.png,stimuli/Nonsocial4.png,cs_pos_ns,"(-0.7, -0.5)",,,,,,,,,0,0,0,0,,,,,,,,,,,,,0,1,1,13,,,,,,,,,,,,,,,,,,,,,,,,,,,,,,,,,,555.8346541000064,33,reward,1,0.49320639998768456,0.4932099999859929,556.3346325999883,,,,,,,,,,,,,,,,,,,,,,41,A,2024-05-17_14h20.40.267,attentional_competition_task,2022.2.4,143.9650567833869,
positions.xlsx,positions_test.xlsx,positions_test_new.xlsx,stimuli.xlsx,stimuli_new.xlsx,stimuli/Social1.png,stimuli/Social2.png,stimuli/Nonsocial1.png,stimuli/Nonsocial2.png,stimuli/Social3.png,stimuli/Social4.png,stimuli/Nonsocial3.png,stimuli/Nonsocial4.png,cs_pos_s,"(0.7, -0.5)",,,,,,,,,0,0,0,0,,,,,,,,,,,,,0,2,2,7,,,,,,,,,,,,,,,,,,,,,,,,,,,,,,,,,,563.5426818999986,36,reward,1,0.6316612999944482,0.6316647000203375,564.1815510999877,,,,,,,,,,,,,,,,,,,,,,41,A,2024-05-17_14h20.40.267,attentional_competition_task,2022.2.4,143.9650567833869,
positions.xlsx,positions_test.xlsx,positions_test_new.xlsx,stimuli.xlsx,stimuli_new.xlsx,stimuli/Social1.png,stimuli/Social2.png,stimuli/Nonsocial1.png,stimuli/Nonsocial2.png,stimuli/Social3.png,stimuli/Social4.png,stimuli/Nonsocial3.png,stimuli/Nonsocial4.png,cs_pos_s,"(-0.7, 0.5)",,,,,,,,,0,0,0,0,,,,,,,,,,,,,0,3,3,4,,,,,,,,,,,,,,,,,,,,,,,,,,,,,,,,,,572.1186826000048,39,reward,1,0.5213976000086404,0.5214015000092331,572.6464972000103,,,,,,,,,,,,,,,,,,,,,,41,A,2024-05-17_14h20.40.267,attentional_competition_task,2022.2.4,143.9650567833869,
positions.xlsx,positions_test.xlsx,positions_test_new.xlsx,stimuli.xlsx,stimuli_new.xlsx,stimuli/Social1.png,stimuli/Social2.png,stimuli/Nonsocial1.png,stimuli/Nonsocial2.png,stimuli/Social3.png,stimuli/Social4.png,stimuli/Nonsocial3.png,stimuli/Nonsocial4.png,cs_neg_s,"(-0.7, 0.5)",,,,,,,,,0,0,0,0,,,,,,,,,,,,,0,4,4,0,,,,,,,,,,,,,,,,,,,,,,,,,,,,,,,,,,580.6947966000007,36,loss,1,0.18818630001624115,0.18819600000279024,580.8892304000037,,,,,,,,,,,,,,,,,,,,,,41,A,2024-05-17_14h20.40.267,attentional_competition_task,2022.2.4,143.9650567833869,
positions.xlsx,positions_test.xlsx,positions_test_new.xlsx,stimuli.xlsx,stimuli_new.xlsx,stimuli/Social1.png,stimuli/Social2.png,stimuli/Nonsocial1.png,stimuli/Nonsocial2.png,stimuli/Social3.png,stimuli/Social4.png,stimuli/Nonsocial3.png,stimuli/Nonsocial4.png,cs_neg_ns,"(-0.7, -0.5)",,,,,,,,,0,0,0,0,,,,,,,,,,,,,0,5,5,9,,,,,,,,,,,,,,,,,,,,,,,,,,,,,,,,,,588.1319609000057,36,none,0,,,591.1457327999815,,,,,,,,,,,,,,,,,,,,,,41,A,2024-05-17_14h20.40.267,attentional_competition_task,2022.2.4,143.9650567833869,
positions.xlsx,positions_test.xlsx,positions_test_new.xlsx,stimuli.xlsx,stimuli_new.xlsx,stimuli/Social1.png,stimuli/Social2.png,stimuli/Nonsocial1.png,stimuli/Nonsocial2.png,stimuli/Social3.png,stimuli/Social4.png,stimuli/Nonsocial3.png,stimuli/Nonsocial4.png,cs_neg_s,"(0.7, -0.5)",,,,,,,,,0,0,0,0,,,,,,,,,,,,,0,6,6,3,,,,,,,,,,,,,,,,,,,,,,,,,,,,,,,,,,598.6176966000057,36,none,0,,,601.6245123999834,,,,,,,,,,,,,,,,,,,,,,41,A,2024-05-17_14h20.40.267,attentional_competition_task,2022.2.4,143.9650567833869,
positions.xlsx,positions_test.xlsx,positions_test_new.xlsx,stimuli.xlsx,stimuli_new.xlsx,stimuli/Social1.png,stimuli/Social2.png,stimuli/Nonsocial1.png,stimuli/Nonsocial2.png,stimuli/Social3.png,stimuli/Social4.png,stimuli/Nonsocial3.png,stimuli/Nonsocial4.png,cs_neg_ns,"(0.7, -0.5)",,,,,,,,,0,0,0,0,,,,,,,,,,,,,0,7,7,11,,,,,,,,,,,,,,,,,,,,,,,,,,,,,,,,,,608.9714381000085,36,none,0,,,611.9852133000095,,,,,,,,,,,,,,,,,,,,,,41,A,2024-05-17_14h20.40.267,attentional_competition_task,2022.2.4,143.9650567833869,
positions.xlsx,positions_test.xlsx,positions_test_new.xlsx,stimuli.xlsx,stimuli_new.xlsx,stimuli/Social1.png,stimuli/Social2.png,stimuli/Nonsocial1.png,stimuli/Nonsocial2.png,stimuli/Social3.png,stimuli/Social4.png,stimuli/Nonsocial3.png,stimuli/Nonsocial4.png,cs_pos_ns,"(-0.7, 0.5)",,,,,,,,,0,0,0,0,,,,,,,,,,,,,0,8,8,12,,,,,,,,,,,,,,,,,,,,,,,,,,,,,,,,,,619.9154379999964,39,reward,1,0.6322153999935836,0.6322191999934148,620.5543081999931,,,,,,,,,,,,,,,,,,,,,,41,A,2024-05-17_14h20.40.267,attentional_competition_task,2022.2.4,143.9650567833869,
positions.xlsx,positions_test.xlsx,positions_test_new.xlsx,stimuli.xlsx,stimuli_new.xlsx,stimuli/Social1.png,stimuli/Social2.png,stimuli/Nonsocial1.png,stimuli/Nonsocial2.png,stimuli/Social3.png,stimuli/Social4.png,stimuli/Nonsocial3.png,stimuli/Nonsocial4.png,cs_pos_s,"(0.7, 0.5)",,,,,,,,,0,0,0,0,,,,,,,,,,,,,0,9,9,6,,,,,,,,,,,,,,,,,,,,,,,,,,,,,,,,,,628.4220244000026,42,reward,1,0.6601891000173055,0.6601929000171367,629.0886744000018,,,,,,,,,,,,,,,,,,,,,,41,A,2024-05-17_14h20.40.267,attentional_competition_task,2022.2.4,143.9650567833869,
positions.xlsx,positions_test.xlsx,positions_test_new.xlsx,stimuli.xlsx,stimuli_new.xlsx,stimuli/Social1.png,stimuli/Social2.png,stimuli/Nonsocial1.png,stimuli/Nonsocial2.png,stimuli/Social3.png,stimuli/Social4.png,stimuli/Nonsocial3.png,stimuli/Nonsocial4.png,cs_neg_ns,"(-0.7, 0.5)",,,,,,,,,0,0,0,0,,,,,,,,,,,,,0,10,10,8,,,,,,,,,,,,,,,,,,,,,,,,,,,,,,,,,,636.4356189999962,39,loss,1,0.4377510999911465,0.43775499999173917,636.880064099998,,,,,,,,,,,,,,,,,,,,,,41,A,2024-05-17_14h20.40.267,attentional_competition_task,2022.2.4,143.9650567833869,
positions.xlsx,positions_test.xlsx,positions_test_new.xlsx,stimuli.xlsx,stimuli_new.xlsx,stimuli/Social1.png,stimuli/Social2.png,stimuli/Nonsocial1.png,stimuli/Nonsocial2.png,stimuli/Social3.png,stimuli/Social4.png,stimuli/Nonsocial3.png,stimuli/Nonsocial4.png,cs_neg_s,"(0.7, 0.5)",,,,,,,,,0,0,0,0,,,,,,,,,,,,,0,11,11,2,,,,,,,,,,,,,,,,,,,,,,,,,,,,,,,,,,644.4700225999986,39,none,0,,,647.4768331999949,,,,,,,,,,,,,,,,,,,,,,41,A,2024-05-17_14h20.40.267,attentional_competition_task,2022.2.4,143.9650567833869,
positions.xlsx,positions_test.xlsx,positions_test_new.xlsx,stimuli.xlsx,stimuli_new.xlsx,stimuli/Social1.png,stimuli/Social2.png,stimuli/Nonsocial1.png,stimuli/Nonsocial2.png,stimuli/Social3.png,stimuli/Social4.png,stimuli/Nonsocial3.png,stimuli/Nonsocial4.png,cs_pos_s,"(-0.7, -0.5)",,,,,,,,,0,0,0,0,,,,,,,,,,,,,0,12,12,5,,,,,,,,,,,,,,,,,,,,,,,,,,,,,,,,,,655.407089699991,42,reward,1,0.4723457999934908,0.47234939999179915,655.8862286999938,,,,,,,,,,,,,,,,,,,,,,41,A,2024-05-17_14h20.40.267,attentional_competition_task,2022.2.4,143.9650567833869,
positions.xlsx,positions_test.xlsx,positions_test_new.xlsx,stimuli.xlsx,stimuli_new.xlsx,stimuli/Social1.png,stimuli/Social2.png,stimuli/Nonsocial1.png,stimuli/Nonsocial2.png,stimuli/Social3.png,stimuli/Social4.png,stimuli/Nonsocial3.png,stimuli/Nonsocial4.png,cs_pos_ns,"(0.7, 0.5)",,,,,,,,,0,0,0,0,,,,,,,,,,,,,0,13,13,14,,,,,,,,,,,,,,,,,,,,,,,,,,,,,,,,,,663.5456403999997,45,reward,1,0.6253866000042763,0.6253902000025846,664.1775387999951,,,,,,,,,,,,,,,,,,,,,,41,A,2024-05-17_14h20.40.267,attentional_competition_task,2022.2.4,143.9650567833869,
positions.xlsx,positions_test.xlsx,positions_test_new.xlsx,stimuli.xlsx,stimuli_new.xlsx,stimuli/Social1.png,stimuli/Social2.png,stimuli/Nonsocial1.png,stimuli/Nonsocial2.png,stimuli/Social3.png,stimuli/Social4.png,stimuli/Nonsocial3.png,stimuli/Nonsocial4.png,cs_neg_ns,"(0.7, 0.5)",,,,,,,,,0,0,0,0,,,,,,,,,,,,,0,14,14,10,,,,,,,,,,,,,,,,,,,,,,,,,,,,,,,,,,671.7675567999831,45,none,0,,,674.7813038000022,,,,,,,,,,,,,,,,,,,,,,41,A,2024-05-17_14h20.40.267,attentional_competition_task,2022.2.4,143.9650567833869,
positions.xlsx,positions_test.xlsx,positions_test_new.xlsx,stimuli.xlsx,stimuli_new.xlsx,stimuli/Social1.png,stimuli/Social2.png,stimuli/Nonsocial1.png,stimuli/Nonsocial2.png,stimuli/Social3.png,stimuli/Social4.png,stimuli/Nonsocial3.png,stimuli/Nonsocial4.png,cs_pos_ns,"(0.7, -0.5)",,,,,,,,,0,0,0,0,,,,,,,,,,,,,0,15,15,15,,,,,,,,,,,,,,,,,,,,,,,,,,,,,,,,,,681.8713092999824,48,reward,1,0.6112279000226408,0.611231900023995,682.4893227999855,,,,,,,,,,,,,,,,,,,,,,41,A,2024-05-17_14h20.40.267,attentional_competition_task,2022.2.4,143.9650567833869,
positions.xlsx,positions_test.xlsx,positions_test_new.xlsx,stimuli.xlsx,stimuli_new.xlsx,stimuli/Social1.png,stimuli/Social2.png,stimuli/Nonsocial1.png,stimuli/Nonsocial2.png,stimuli/Social3.png,stimuli/Social4.png,stimuli/Nonsocial3.png,stimuli/Nonsocial4.png,cs_pos_s,"(-0.7, 0.5)",,,,,,,,,0,0,0,0,,,,,,,,,,,,,1,0,16,4,,,,,,,,,,,,,,,,,,,,,,,,,,,,,,,,,,689.9543041999859,51,reward,1,0.4791173000121489,0.4791214000142645,690.4403996999899,,,,,,,,,,,,,,,,,,,,,,41,A,2024-05-17_14h20.40.267,attentional_competition_task,2022.2.4,143.9650567833869,
positions.xlsx,positions_test.xlsx,positions_test_new.xlsx,stimuli.xlsx,stimuli_new.xlsx,stimuli/Social1.png,stimuli/Social2.png,stimuli/Nonsocial1.png,stimuli/Nonsocial2.png,stimuli/Social3.png,stimuli/Social4.png,stimuli/Nonsocial3.png,stimuli/Nonsocial4.png,cs_neg_s,"(0.7, -0.5)",,,,,,,,,0,0,0,0,,,,,,,,,,,,,1,1,17,3,,,,,,,,,,,,,,,,,,,,,,,,,,,,,,,,,,698.0025991000002,51,none,0,,,701.0094010999892,,,,,,,,,,,,,,,,,,,,,,41,A,2024-05-17_14h20.40.267,attentional_competition_task,2022.2.4,143.9650567833869,
positions.xlsx,positions_test.xlsx,positions_test_new.xlsx,stimuli.xlsx,stimuli_new.xlsx,stimuli/Social1.png,stimuli/Social2.png,stimuli/Nonsocial1.png,stimuli/Nonsocial2.png,stimuli/Social3.png,stimuli/Social4.png,stimuli/Nonsocial3.png,stimuli/Nonsocial4.png,cs_neg_ns,"(0.7, -0.5)",,,,,,,,,0,0,0,0,,,,,,,,,,,,,1,2,18,11,,,,,,,,,,,,,,,,,,,,,,,,,,,,,,,,,,708.1341164000041,51,none,0,,,711.1479060999991,,,,,,,,,,,,,,,,,,,,,,41,A,2024-05-17_14h20.40.267,attentional_competition_task,2022.2.4,143.9650567833869,
positions.xlsx,positions_test.xlsx,positions_test_new.xlsx,stimuli.xlsx,stimuli_new.xlsx,stimuli/Social1.png,stimuli/Social2.png,stimuli/Nonsocial1.png,stimuli/Nonsocial2.png,stimuli/Social3.png,stimuli/Social4.png,stimuli/Nonsocial3.png,stimuli/Nonsocial4.png,cs_pos_ns,"(-0.7, 0.5)",,,,,,,,,0,0,0,0,,,,,,,,,,,,,1,3,19,12,,,,,,,,,,,,,,,,,,,,,,,,,,,,,,,,,,719.4948173000012,54,reward,1,0.5768452999764122,0.5768487000023015,720.0781244999962,,,,,,,,,,,,,,,,,,,,,,41,A,2024-05-17_14h20.40.267,attentional_competition_task,2022.2.4,143.9650567833869,
positions.xlsx,positions_test.xlsx,positions_test_new.xlsx,stimuli.xlsx,stimuli_new.xlsx,stimuli/Social1.png,stimuli/Social2.png,stimuli/Nonsocial1.png,stimuli/Nonsocial2.png,stimuli/Social3.png,stimuli/Social4.png,stimuli/Nonsocial3.png,stimuli/Nonsocial4.png,cs_pos_s,"(0.7, -0.5)",,,,,,,,,0,0,0,0,,,,,,,,,,,,,1,4,20,7,,,,,,,,,,,,,,,,,,,,,,,,,,,,,,,,,,727.904195399984,57,reward,1,0.5832078999956138,0.5832116999954451,728.4944523999875,,,,,,,,,,,,,,,,,,,,,,41,A,2024-05-17_14h20.40.267,attentional_competition_task,2022.2.4,143.9650567833869,
positions.xlsx,positions_test.xlsx,positions_test_new.xlsx,stimuli.xlsx,stimuli_new.xlsx,stimuli/Social1.png,stimuli/Social2.png,stimuli/Nonsocial1.png,stimuli/Nonsocial2.png,stimuli/Social3.png,stimuli/Social4.png,stimuli/Nonsocial3.png,stimuli/Nonsocial4.png,cs_pos_s,"(0.7, 0.5)",,,,,,,,,0,0,0,0,,,,,,,,,,,,,1,5,21,6,,,,,,,,,,,,,,,,,,,,,,,,,,,,,,,,,,736.7163276000065,60,reward,1,0.5555715000082273,0.5555751000065356,737.278797899984,,,,,,,,,,,,,,,,,,,,,,41,A,2024-05-17_14h20.40.267,attentional_competition_task,2022.2.4,143.9650567833869,
positions.xlsx,positions_test.xlsx,positions_test_new.xlsx,stimuli.xlsx,stimuli_new.xlsx,stimuli/Social1.png,stimuli/Social2.png,stimuli/Nonsocial1.png,stimuli/Nonsocial2.png,stimuli/Social3.png,stimuli/Social4.png,stimuli/Nonsocial3.png,stimuli/Nonsocial4.png,cs_pos_s,"(-0.7, -0.5)",,,,,,,,,0,0,0,0,,,,,,,,,,,,,1,6,22,5,,,,,,,,,,,,,,,,,,,,,,,,,,,,,,,,,,744.8756996000011,63,reward,1,0.47192229999927804,0.4719263000006322,745.3548714999924,,,,,,,,,,,,,,,,,,,,,,41,A,2024-05-17_14h20.40.267,attentional_competition_task,2022.2.4,143.9650567833869,
positions.xlsx,positions_test.xlsx,positions_test_new.xlsx,stimuli.xlsx,stimuli_new.xlsx,stimuli/Social1.png,stimuli/Social2.png,stimuli/Nonsocial1.png,stimuli/Nonsocial2.png,stimuli/Social3.png,stimuli/Social4.png,stimuli/Nonsocial3.png,stimuli/Nonsocial4.png,cs_neg_s,"(0.7, 0.5)",,,,,,,,,0,0,0,0,,,,,,,,,,,,,1,7,23,2,,,,,,,,,,,,,,,,,,,,,,,,,,,,,,,,,,752.7504393999989,63,none,0,,,755.7572322000051,,,,,,,,,,,,,,,,,,,,,,41,A,2024-05-17_14h20.40.267,attentional_competition_task,2022.2.4,143.9650567833869,
positions.xlsx,positions_test.xlsx,positions_test_new.xlsx,stimuli.xlsx,stimuli_new.xlsx,stimuli/Social1.png,stimuli/Social2.png,stimuli/Nonsocial1.png,stimuli/Nonsocial2.png,stimuli/Social3.png,stimuli/Social4.png,stimuli/Nonsocial3.png,stimuli/Nonsocial4.png,cs_neg_s,"(-0.7, 0.5)",,,,,,,,,0,0,0,0,,,,,,,,,,,,,1,8,24,0,,,,,,,,,,,,,,,,,,,,,,,,,,,,,,,,,,762.7638628999994,63,none,0,,,765.7707664000045,,,,,,,,,,,,,,,,,,,,,,41,A,2024-05-17_14h20.40.267,attentional_competition_task,2022.2.4,143.9650567833869,
positions.xlsx,positions_test.xlsx,positions_test_new.xlsx,stimuli.xlsx,stimuli_new.xlsx,stimuli/Social1.png,stimuli/Social2.png,stimuli/Nonsocial1.png,stimuli/Nonsocial2.png,stimuli/Social3.png,stimuli/Social4.png,stimuli/Nonsocial3.png,stimuli/Nonsocial4.png,cs_neg_ns,"(-0.7, 0.5)",,,,,,,,,0,0,0,0,,,,,,,,,,,,,1,9,25,8,,,,,,,,,,,,,,,,,,,,,,,,,,,,,,,,,,773.9440086999966,63,none,0,,,776.9508351999975,,,,,,,,,,,,,,,,,,,,,,41,A,2024-05-17_14h20.40.267,attentional_competition_task,2022.2.4,143.9650567833869,
positions.xlsx,positions_test.xlsx,positions_test_new.xlsx,stimuli.xlsx,stimuli_new.xlsx,stimuli/Social1.png,stimuli/Social2.png,stimuli/Nonsocial1.png,stimuli/Nonsocial2.png,stimuli/Social3.png,stimuli/Social4.png,stimuli/Nonsocial3.png,stimuli/Nonsocial4.png,cs_neg_ns,"(0.7, 0.5)",,,,,,,,,0,0,0,0,,,,,,,,,,,,,1,10,26,10,,,,,,,,,,,,,,,,,,,,,,,,,,,,,,,,,,784.6796788999927,63,none,0,,,787.6934218000097,,,,,,,,,,,,,,,,,,,,,,41,A,2024-05-17_14h20.40.267,attentional_competition_task,2022.2.4,143.9650567833869,
positions.xlsx,positions_test.xlsx,positions_test_new.xlsx,stimuli.xlsx,stimuli_new.xlsx,stimuli/Social1.png,stimuli/Social2.png,stimuli/Nonsocial1.png,stimuli/Nonsocial2.png,stimuli/Social3.png,stimuli/Social4.png,stimuli/Nonsocial3.png,stimuli/Nonsocial4.png,cs_neg_s,"(-0.7, -0.5)",,,,,,,,,0,0,0,0,,,,,,,,,,,,,1,11,27,1,,,,,,,,,,,,,,,,,,,,,,,,,,,,,,,,,,794.8320527999895,63,none,0,,,797.8388919999998,,,,,,,,,,,,,,,,,,,,,,41,A,2024-05-17_14h20.40.267,attentional_competition_task,2022.2.4,143.9650567833869,
positions.xlsx,positions_test.xlsx,positions_test_new.xlsx,stimuli.xlsx,stimuli_new.xlsx,stimuli/Social1.png,stimuli/Social2.png,stimuli/Nonsocial1.png,stimuli/Nonsocial2.png,stimuli/Social3.png,stimuli/Social4.png,stimuli/Nonsocial3.png,stimuli/Nonsocial4.png,cs_pos_ns,"(0.7, 0.5)",,,,,,,,,0,0,0,0,,,,,,,,,,,,,1,12,28,14,,,,,,,,,,,,,,,,,,,,,,,,,,,,,,,,,,805.4219536999881,66,reward,1,0.5141472999821417,0.5141511999827344,805.9427080999885,,,,,,,,,,,,,,,,,,,,,,41,A,2024-05-17_14h20.40.267,attentional_competition_task,2022.2.4,143.9650567833869,
positions.xlsx,positions_test.xlsx,positions_test_new.xlsx,stimuli.xlsx,stimuli_new.xlsx,stimuli/Social1.png,stimuli/Social2.png,stimuli/Nonsocial1.png,stimuli/Nonsocial2.png,stimuli/Social3.png,stimuli/Social4.png,stimuli/Nonsocial3.png,stimuli/Nonsocial4.png,cs_pos_ns,"(0.7, -0.5)",,,,,,,,,0,0,0,0,,,,,,,,,,,,,1,13,29,15,,,,,,,,,,,,,,,,,,,,,,,,,,,,,,,,,,813.6299080000026,69,reward,1,0.4726391999865882,0.47264279998489656,814.1090958999994,,,,,,,,,,,,,,,,,,,,,,41,A,2024-05-17_14h20.40.267,attentional_competition_task,2022.2.4,143.9650567833869,
positions.xlsx,positions_test.xlsx,positions_test_new.xlsx,stimuli.xlsx,stimuli_new.xlsx,stimuli/Social1.png,stimuli/Social2.png,stimuli/Nonsocial1.png,stimuli/Nonsocial2.png,stimuli/Social3.png,stimuli/Social4.png,stimuli/Nonsocial3.png,stimuli/Nonsocial4.png,cs_neg_ns,"(-0.7, -0.5)",,,,,,,,,0,0,0,0,,,,,,,,,,,,,1,14,30,9,,,,,,,,,,,,,,,,,,,,,,,,,,,,,,,,,,821.1712732999877,69,none,0,,,824.1850276000041,,,,,,,,,,,,,,,,,,,,,,41,A,2024-05-17_14h20.40.267,attentional_competition_task,2022.2.4,143.9650567833869,
positions.xlsx,positions_test.xlsx,positions_test_new.xlsx,stimuli.xlsx,stimuli_new.xlsx,stimuli/Social1.png,stimuli/Social2.png,stimuli/Nonsocial1.png,stimuli/Nonsocial2.png,stimuli/Social3.png,stimuli/Social4.png,stimuli/Nonsocial3.png,stimuli/Nonsocial4.png,cs_pos_ns,"(-0.7, -0.5)",,,,,,,,,0,0,0,0,,,,,,,,,,,,,1,15,31,13,,,,,,,,,,,,,,,,,,,,,,,,,,,,,,,,,,831.9972202999925,72,reward,1,0.5625227999989875,0.5695682000077795,832.5736234000069,,,,,,,,,,,,,,,,,,,,,,41,A,2024-05-17_14h20.40.267,attentional_competition_task,2022.2.4,143.9650567833869,
positions.xlsx,positions_test.xlsx,positions_test_new.xlsx,stimuli.xlsx,stimuli_new.xlsx,stimuli/Social1.png,stimuli/Social2.png,stimuli/Nonsocial1.png,stimuli/Nonsocial2.png,stimuli/Social3.png,stimuli/Social4.png,stimuli/Nonsocial3.png,stimuli/Nonsocial4.png,cs_pos_ns,,,,,,,,,,0,0,0,0,,,,,,,,,,,,,,,,,0,0,0,3,,,,,,,,,,,,,,,,,,,,,,,837.4067838999908,7.0,8.823429100011708,,,,,,,,,,,,,,,,,,,,,,,,,,,,,,,,,41,A,2024-05-17_14h20.40.267,attentional_competition_task,2022.2.4,143.9650567833869,
positions.xlsx,positions_test.xlsx,positions_test_new.xlsx,stimuli.xlsx,stimuli_new.xlsx,stimuli/Social1.png,stimuli/Social2.png,stimuli/Nonsocial1.png,stimuli/Nonsocial2.png,stimuli/Social3.png,stimuli/Social4.png,stimuli/Nonsocial3.png,stimuli/Nonsocial4.png,cs_neg_ns,,,,,,,,,,0,0,0,0,,,,,,,,,,,,,,,,,0,1,1,1,,,,,,,,,,,,,,,,,,,,,,,846.4966851999925,5.0,4.438829999999143,,,,,,,,,,,,,,,,,,,,,,,,,,,,,,,,,41,A,2024-05-17_14h20.40.267,attentional_competition_task,2022.2.4,143.9650567833869,
positions.xlsx,positions_test.xlsx,positions_test_new.xlsx,stimuli.xlsx,stimuli_new.xlsx,stimuli/Social1.png,stimuli/Social2.png,stimuli/Nonsocial1.png,stimuli/Nonsocial2.png,stimuli/Social3.png,stimuli/Social4.png,stimuli/Nonsocial3.png,stimuli/Nonsocial4.png,cs_pos_s,,,,,,,,,,0,0,0,0,,,,,,,,,,,,,,,,,0,2,2,2,,,,,,,,,,,,,,,,,,,,,,,851.2881135999924,7.0,2.939768600015668,,,,,,,,,,,,,,,,,,,,,,,,,,,,,,,,,41,A,2024-05-17_14h20.40.267,attentional_competition_task,2022.2.4,143.9650567833869,
positions.xlsx,positions_test.xlsx,positions_test_new.xlsx,stimuli.xlsx,stimuli_new.xlsx,stimuli/Social1.png,stimuli/Social2.png,stimuli/Nonsocial1.png,stimuli/Nonsocial2.png,stimuli/Social3.png,stimuli/Social4.png,stimuli/Nonsocial3.png,stimuli/Nonsocial4.png,cs_neg_s,,,,,,,,,,0,0,0,0,,,,,,,,,,,,,,,,,0,3,3,0,,,,,,,,,,,,,,,,,,,,,,,854.551916700002,5.0,7.370155000011437,,,,,,,,,,,,,,,,,,,,,,,,,,,,,,,,,41,A,2024-05-17_14h20.40.267,attentional_competition_task,2022.2.4,143.9650567833869,
positions.xlsx,positions_test.xlsx,positions_test_new.xlsx,stimuli.xlsx,stimuli_new.xlsx,stimuli/Social1.png,stimuli/Social2.png,stimuli/Nonsocial1.png,stimuli/Nonsocial2.png,stimuli/Social3.png,stimuli/Social4.png,stimuli/Nonsocial3.png,stimuli/Nonsocial4.png,,,"(-0.7, -0.5)",cs_pos_ns,"(-0.7, 0.5)",cs_neg_ns,"(0.7, -0.5)",cs_pos_s,"(0.7, 0.5)",cs_neg_s,0,0,0,0,,,,,,,,,,,,,,,,,,,,,0,0,0,20,,,,,,,,,,,,,,,,,,,,,,,,,,,66,loss,,,,,862.4821952999919,868.4471871999849,868.4471871999849,868.4471871999849,868.4471871999849,0,,,0,,,0,,,0,,,869.8985210999963,869.8985210999963,869.8985210999963,869.8985210999963,41,A,2024-05-17_14h20.40.267,attentional_competition_task,2022.2.4,143.9650567833869,
positions.xlsx,positions_test.xlsx,positions_test_new.xlsx,stimuli.xlsx,stimuli_new.xlsx,stimuli/Social1.png,stimuli/Social2.png,stimuli/Nonsocial1.png,stimuli/Nonsocial2.png,stimuli/Social3.png,stimuli/Social4.png,stimuli/Nonsocial3.png,stimuli/Nonsocial4.png,,,"(-0.7, -0.5)",cs_pos_ns,"(-0.7, 0.5)",cs_neg_s,"(0.7, -0.5)",cs_neg_ns,"(0.7, 0.5)",cs_pos_s,0,0,0,0,,,,,,,,,,,,,,,,,,,,,0,1,1,23,,,,,,,,,,,,,,,,,,,,,,,,,,,72,reward,,,,,,877.544021299982,877.544021299982,877.544021299982,877.544021299982,1,0.029047799995169044,0.439628599997377,0,,,0,,,0,,,878.6620449000038,878.6620449000038,878.6620449000038,878.6620449000038,41,A,2024-05-17_14h20.40.267,attentional_competition_task,2022.2.4,143.9650567833869,
positions.xlsx,positions_test.xlsx,positions_test_new.xlsx,stimuli.xlsx,stimuli_new.xlsx,stimuli/Social1.png,stimuli/Social2.png,stimuli/Nonsocial1.png,stimuli/Nonsocial2.png,stimuli/Social3.png,stimuli/Social4.png,stimuli/Nonsocial3.png,stimuli/Nonsocial4.png,,,"(-0.7, -0.5)",cs_pos_s,"(-0.7, 0.5)",cs_neg_ns,"(0.7, -0.5)",cs_pos_ns,"(0.7, 0.5)",cs_neg_s,0,0,0,0,,,,,,,,,,,,,,,,,,,,,0,2,2,9,,,,,,,,,,,,,,,,,,,,,,,,,,,78,reward,,,,,,886.3561961000087,886.3561961000087,886.3561961000087,886.3561961000087,0,,,0,,,0,,,0,,,887.7658793999872,887.7658793999872,887.7658793999872,887.7658793999872,41,A,2024-05-17_14h20.40.267,attentional_competition_task,2022.2.4,143.9650567833869,
positions.xlsx,positions_test.xlsx,positions_test_new.xlsx,stimuli.xlsx,stimuli_new.xlsx,stimuli/Social1.png,stimuli/Social2.png,stimuli/Nonsocial1.png,stimuli/Nonsocial2.png,stimuli/Social3.png,stimuli/Social4.png,stimuli/Nonsocial3.png,stimuli/Nonsocial4.png,,,"(-0.7, -0.5)",cs_neg_ns,"(-0.7, 0.5)",cs_neg_s,"(0.7, -0.5)",cs_pos_s,"(0.7, 0.5)",cs_pos_ns,0,0,0,0,,,,,,,,,,,,,,,,,,,,,0,3,3,14,,,,,,,,,,,,,,,,,,,,,,,,,,,84,reward,,,,,,895.53638949999,895.53638949999,895.53638949999,895.53638949999,0,,,0,,,0,,,0,,,896.9530066000007,896.9530066000007,896.9530066000007,896.9530066000007,41,A,2024-05-17_14h20.40.267,attentional_competition_task,2022.2.4,143.9650567833869,
positions.xlsx,positions_test.xlsx,positions_test_new.xlsx,stimuli.xlsx,stimuli_new.xlsx,stimuli/Social1.png,stimuli/Social2.png,stimuli/Nonsocial1.png,stimuli/Nonsocial2.png,stimuli/Social3.png,stimuli/Social4.png,stimuli/Nonsocial3.png,stimuli/Nonsocial4.png,,,"(-0.7, -0.5)",cs_pos_s,"(-0.7, 0.5)",cs_neg_s,"(0.7, -0.5)",cs_neg_ns,"(0.7, 0.5)",cs_pos_ns,0,0,0,0,,,,,,,,,,,,,,,,,,,,,0,4,4,6,,,,,,,,,,,,,,,,,,,,,,,,,,,90,reward,,,,,,903.9388311000075,903.9388311000075,903.9388311000075,903.9388311000075,0,,,0,,,0,,,0,,,905.4526678999828,905.4526678999828,905.4526678999828,905.4526678999828,41,A,2024-05-17_14h20.40.267,attentional_competition_task,2022.2.4,143.9650567833869,
positions.xlsx,positions_test.xlsx,positions_test_new.xlsx,stimuli.xlsx,stimuli_new.xlsx,stimuli/Social1.png,stimuli/Social2.png,stimuli/Nonsocial1.png,stimuli/Nonsocial2.png,stimuli/Social3.png,stimuli/Social4.png,stimuli/Nonsocial3.png,stimuli/Nonsocial4.png,,,"(-0.7, -0.5)",cs_pos_ns,"(-0.7, 0.5)",cs_neg_s,"(0.7, -0.5)",cs_pos_s,"(0.7, 0.5)",cs_neg_ns,0,0,0,0,,,,,,,,,,,,,,,,,,,,,0,5,5,22,,,,,,,,,,,,,,,,,,,,,,,,,,,96,reward,,,,,,912.2371677999909,912.2371677999909,912.2371677999909,912.2371677999909,0,,,0,,,0,,,0,,,913.5218513,913.5218513,913.5218513,913.5218513,41,A,2024-05-17_14h20.40.267,attentional_competition_task,2022.2.4,143.9650567833869,
positions.xlsx,positions_test.xlsx,positions_test_new.xlsx,stimuli.xlsx,stimuli_new.xlsx,stimuli/Social1.png,stimuli/Social2.png,stimuli/Nonsocial1.png,stimuli/Nonsocial2.png,stimuli/Social3.png,stimuli/Social4.png,stimuli/Nonsocial3.png,stimuli/Nonsocial4.png,,,"(-0.7, -0.5)",cs_pos_s,"(-0.7, 0.5)",cs_pos_ns,"(0.7, -0.5)",cs_neg_ns,"(0.7, 0.5)",cs_neg_s,0,0,0,0,,,,,,,,,,,,,,,,,,,,,0,6,6,11,,,,,,,,,,,,,,,,,,,,,,,,,,,102,reward,,,,,,920.2645704000024,920.2645704000024,920.2645704000024,920.2645704000024,0,,,0,,,0,,,0,,,921.7853507999971,921.7853507999971,921.7853507999971,921.7853507999971,41,A,2024-05-17_14h20.40.267,attentional_competition_task,2022.2.4,143.9650567833869,
positions.xlsx,positions_test.xlsx,positions_test_new.xlsx,stimuli.xlsx,stimuli_new.xlsx,stimuli/Social1.png,stimuli/Social2.png,stimuli/Nonsocial1.png,stimuli/Nonsocial2.png,stimuli/Social3.png,stimuli/Social4.png,stimuli/Nonsocial3.png,stimuli/Nonsocial4.png,,,"(-0.7, -0.5)",cs_neg_ns,"(-0.7, 0.5)",cs_pos_s,"(0.7, -0.5)",cs_pos_ns,"(0.7, 0.5)",cs_neg_s,0,0,0,0,,,,,,,,,,,,,,,,,,,,,0,7,7,13,,,,,,,,,,,,,,,,,,,,,,,,,,,108,reward,,,,,,929.2780958999938,929.2780958999938,929.2780958999938,929.2780958999938,0,,,0,,,1,0.03749160000006668,0.058125600015046075,0,,,930.8683195000049,930.8683195000049,930.8683195000049,930.8683195000049,41,A,2024-05-17_14h20.40.267,attentional_competition_task,2022.2.4,143.9650567833869,
positions.xlsx,positions_test.xlsx,positions_test_new.xlsx,stimuli.xlsx,stimuli_new.xlsx,stimuli/Social1.png,stimuli/Social2.png,stimuli/Nonsocial1.png,stimuli/Nonsocial2.png,stimuli/Social3.png,stimuli/Social4.png,stimuli/Nonsocial3.png,stimuli/Nonsocial4.png,,,"(-0.7, -0.5)",cs_pos_s,"(-0.7, 0.5)",cs_pos_ns,"(0.7, -0.5)",cs_neg_s,"(0.7, 0.5)",cs_neg_ns,0,0,0,0,,,,,,,,,,,,,,,,,,,,,0,8,8,10,,,,,,,,,,,,,,,,,,,,,,,,,,,114,reward,,,,,,937.722203399986,937.722203399986,937.722203399986,937.722203399986,0,,,0,,,0,,,0,,,939.2429862999998,939.2429862999998,939.2429862999998,939.2429862999998,41,A,2024-05-17_14h20.40.267,attentional_competition_task,2022.2.4,143.9650567833869,
positions.xlsx,positions_test.xlsx,positions_test_new.xlsx,stimuli.xlsx,stimuli_new.xlsx,stimuli/Social1.png,stimuli/Social2.png,stimuli/Nonsocial1.png,stimuli/Nonsocial2.png,stimuli/Social3.png,stimuli/Social4.png,stimuli/Nonsocial3.png,stimuli/Nonsocial4.png,,,"(-0.7, -0.5)",cs_pos_ns,"(-0.7, 0.5)",cs_pos_s,"(0.7, -0.5)",cs_neg_s,"(0.7, 0.5)",cs_neg_ns,0,0,0,0,,,,,,,,,,,,,,,,,,,,,0,9,9,19,,,,,,,,,,,,,,,,,,,,,,,,,,,120,reward,,,,,,946.4649086999998,946.4649086999998,946.4649086999998,946.4649086999998,0,,,0,,,0,,,0,,,947.8954152000078,947.8954152000078,947.8954152000078,947.8954152000078,41,A,2024-05-17_14h20.40.267,attentional_competition_task,2022.2.4,143.9650567833869,
positions.xlsx,positions_test.xlsx,positions_test_new.xlsx,stimuli.xlsx,stimuli_new.xlsx,stimuli/Social1.png,stimuli/Social2.png,stimuli/Nonsocial1.png,stimuli/Nonsocial2.png,stimuli/Social3.png,stimuli/Social4.png,stimuli/Nonsocial3.png,stimuli/Nonsocial4.png,,,"(-0.7, -0.5)",cs_neg_s,"(-0.7, 0.5)",cs_neg_ns,"(0.7, -0.5)",cs_pos_ns,"(0.7, 0.5)",cs_pos_s,0,0,0,0,,,,,,,,,,,,,,,,,,,,,0,10,10,3,,,,,,,,,,,,,,,,,,,,,,,,,,,126,reward,,,,,,955.034018300008,955.034018300008,955.034018300008,955.034018300008,0,,,0,,,0,,,0,,,956.5131264000083,956.5131264000083,956.5131264000083,956.5131264000083,41,A,2024-05-17_14h20.40.267,attentional_competition_task,2022.2.4,143.9650567833869,
positions.xlsx,positions_test.xlsx,positions_test_new.xlsx,stimuli.xlsx,stimuli_new.xlsx,stimuli/Social1.png,stimuli/Social2.png,stimuli/Nonsocial1.png,stimuli/Nonsocial2.png,stimuli/Social3.png,stimuli/Social4.png,stimuli/Nonsocial3.png,stimuli/Nonsocial4.png,,,"(-0.7, -0.5)",cs_neg_ns,"(-0.7, 0.5)",cs_pos_ns,"(0.7, -0.5)",cs_pos_s,"(0.7, 0.5)",cs_neg_s,0,0,0,0,,,,,,,,,,,,,,,,,,,,,0,11,11,16,,,,,,,,,,,,,,,,,,,,,,,,,,,132,reward,,,,,,964.3252735999995,964.3252735999995,964.3252735999995,964.3252735999995,0,,,1,0.03012420001323335,0.16933060000883415,0,,,0,,,965.8321906999918,965.8321906999918,965.8321906999918,965.8321906999918,41,A,2024-05-17_14h20.40.267,attentional_competition_task,2022.2.4,143.9650567833869,
positions.xlsx,positions_test.xlsx,positions_test_new.xlsx,stimuli.xlsx,stimuli_new.xlsx,stimuli/Social1.png,stimuli/Social2.png,stimuli/Nonsocial1.png,stimuli/Nonsocial2.png,stimuli/Social3.png,stimuli/Social4.png,stimuli/Nonsocial3.png,stimuli/Nonsocial4.png,,,"(-0.7, -0.5)",cs_neg_ns,"(-0.7, 0.5)",cs_pos_s,"(0.7, -0.5)",cs_neg_s,"(0.7, 0.5)",cs_pos_ns,0,0,0,0,,,,,,,,,,,,,,,,,,,,,0,12,12,12,,,,,,,,,,,,,,,,,,,,,,,,,,,138,reward,,,,,,972.6861007999978,972.6861007999978,972.6861007999978,972.6861007999978,0,,,0,,,0,,,0,,,974.2693561000051,974.2693561000051,974.2693561000051,974.2693561000051,41,A,2024-05-17_14h20.40.267,attentional_competition_task,2022.2.4,143.9650567833869,
positions.xlsx,positions_test.xlsx,positions_test_new.xlsx,stimuli.xlsx,stimuli_new.xlsx,stimuli/Social1.png,stimuli/Social2.png,stimuli/Nonsocial1.png,stimuli/Nonsocial2.png,stimuli/Social3.png,stimuli/Social4.png,stimuli/Nonsocial3.png,stimuli/Nonsocial4.png,,,"(-0.7, -0.5)",cs_neg_ns,"(-0.7, 0.5)",cs_pos_ns,"(0.7, -0.5)",cs_neg_s,"(0.7, 0.5)",cs_pos_s,0,0,0,0,,,,,,,,,,,,,,,,,,,,,0,13,13,17,,,,,,,,,,,,,,,,,,,,,,,,,,,144,reward,,,,,,980.6927091999969,980.6927091999969,980.6927091999969,980.6927091999969,0,,,0,,,0,,,0,,,982.2759652000095,982.2759652000095,982.2759652000095,982.2759652000095,41,A,2024-05-17_14h20.40.267,attentional_competition_task,2022.2.4,143.9650567833869,
positions.xlsx,positions_test.xlsx,positions_test_new.xlsx,stimuli.xlsx,stimuli_new.xlsx,stimuli/Social1.png,stimuli/Social2.png,stimuli/Nonsocial1.png,stimuli/Nonsocial2.png,stimuli/Social3.png,stimuli/Social4.png,stimuli/Nonsocial3.png,stimuli/Nonsocial4.png,,,"(-0.7, -0.5)",cs_neg_ns,"(-0.7, 0.5)",cs_neg_s,"(0.7, -0.5)",cs_pos_ns,"(0.7, 0.5)",cs_pos_s,0,0,0,0,,,,,,,,,,,,,,,,,,,,,0,14,14,15,,,,,,,,,,,,,,,,,,,,,,,,,,,150,reward,,,,,,988.9284573000041,988.9284573000041,988.9284573000041,988.9284573000041,0,,,0,,,0,,,0,,,990.525627199997,990.525627199997,990.525627199997,990.525627199997,41,A,2024-05-17_14h20.40.267,attentional_competition_task,2022.2.4,143.9650567833869,
positions.xlsx,positions_test.xlsx,positions_test_new.xlsx,stimuli.xlsx,stimuli_new.xlsx,stimuli/Social1.png,stimuli/Social2.png,stimuli/Nonsocial1.png,stimuli/Nonsocial2.png,stimuli/Social3.png,stimuli/Social4.png,stimuli/Nonsocial3.png,stimuli/Nonsocial4.png,,,"(-0.7, -0.5)",cs_pos_s,"(-0.7, 0.5)",cs_neg_ns,"(0.7, -0.5)",cs_neg_s,"(0.7, 0.5)",cs_pos_ns,0,0,0,0,,,,,,,,,,,,,,,,,,,,,0,15,15,8,,,,,,,,,,,,,,,,,,,,,,,,,,,156,reward,,,,,,997.9350545000052,997.9350545000052,997.9350545000052,997.9350545000052,0,,,0,,,0,,,0,,,999.5044749999943,999.5044749999943,999.5044749999943,999.5044749999943,41,A,2024-05-17_14h20.40.267,attentional_competition_task,2022.2.4,143.9650567833869,
positions.xlsx,positions_test.xlsx,positions_test_new.xlsx,stimuli.xlsx,stimuli_new.xlsx,stimuli/Social1.png,stimuli/Social2.png,stimuli/Nonsocial1.png,stimuli/Nonsocial2.png,stimuli/Social3.png,stimuli/Social4.png,stimuli/Nonsocial3.png,stimuli/Nonsocial4.png,,,"(-0.7, -0.5)",cs_neg_s,"(-0.7, 0.5)",cs_pos_s,"(0.7, -0.5)",cs_neg_ns,"(0.7, 0.5)",cs_pos_ns,0,0,0,0,,,,,,,,,,,,,,,,,,,,,0,16,16,0,,,,,,,,,,,,,,,,,,,,,,,,,,,162,reward,,,,,,1006.7611150000012,1006.7611150000012,1006.7611150000012,1006.7611150000012,0,,,0,,,0,,,1,0.030268300004536286,0.058857700001681224,1008.3652111999982,1008.3652111999982,1008.3652111999982,1008.3652111999982,41,A,2024-05-17_14h20.40.267,attentional_competition_task,2022.2.4,143.9650567833869,
positions.xlsx,positions_test.xlsx,positions_test_new.xlsx,stimuli.xlsx,stimuli_new.xlsx,stimuli/Social1.png,stimuli/Social2.png,stimuli/Nonsocial1.png,stimuli/Nonsocial2.png,stimuli/Social3.png,stimuli/Social4.png,stimuli/Nonsocial3.png,stimuli/Nonsocial4.png,,,"(-0.7, -0.5)",cs_pos_ns,"(-0.7, 0.5)",cs_pos_s,"(0.7, -0.5)",cs_neg_ns,"(0.7, 0.5)",cs_neg_s,0,0,0,0,,,,,,,,,,,,,,,,,,,,,0,17,17,18,,,,,,,,,,,,,,,,,,,,,,,,,,,168,reward,,,,,,1015.3857650999853,1015.3857650999853,1015.3857650999853,1015.3857650999853,0,,,0,,,0,,,0,,,1016.9204239000101,1016.9204239000101,1016.9204239000101,1016.9204239000101,41,A,2024-05-17_14h20.40.267,attentional_competition_task,2022.2.4,143.9650567833869,
positions.xlsx,positions_test.xlsx,positions_test_new.xlsx,stimuli.xlsx,stimuli_new.xlsx,stimuli/Social1.png,stimuli/Social2.png,stimuli/Nonsocial1.png,stimuli/Nonsocial2.png,stimuli/Social3.png,stimuli/Social4.png,stimuli/Nonsocial3.png,stimuli/Nonsocial4.png,,,"(-0.7, -0.5)",cs_neg_s,"(-0.7, 0.5)",cs_pos_ns,"(0.7, -0.5)",cs_pos_s,"(0.7, 0.5)",cs_neg_ns,0,0,0,0,,,,,,,,,,,,,,,,,,,,,0,18,18,4,,,,,,,,,,,,,,,,,,,,,,,,,,,174,reward,,,,,,1024.0798515999923,1024.0798515999923,1024.0798515999923,1024.0798515999923,0,,,0,,,0,,,0,,,1025.6700913000095,1025.6700913000095,1025.6700913000095,1025.6700913000095,41,A,2024-05-17_14h20.40.267,attentional_competition_task,2022.2.4,143.9650567833869,
positions.xlsx,positions_test.xlsx,positions_test_new.xlsx,stimuli.xlsx,stimuli_new.xlsx,stimuli/Social1.png,stimuli/Social2.png,stimuli/Nonsocial1.png,stimuli/Nonsocial2.png,stimuli/Social3.png,stimuli/Social4.png,stimuli/Nonsocial3.png,stimuli/Nonsocial4.png,,,"(-0.7, -0.5)",cs_neg_s,"(-0.7, 0.5)",cs_neg_ns,"(0.7, -0.5)",cs_pos_s,"(0.7, 0.5)",cs_pos_ns,0,0,0,0,,,,,,,,,,,,,,,,,,,,,0,19,19,2,,,,,,,,,,,,,,,,,,,,,,,,,,,174,loss,,,,,,1032.6420579999976,1032.6420579999976,1032.6420579999976,1032.6420579999976,1,0.6692353000107687,0.6692392000113614,0,,,0,,,0,,,1033.3086563999823,1033.3086563999823,1033.3086563999823,1033.3086563999823,41,A,2024-05-17_14h20.40.267,attentional_competition_task,2022.2.4,143.9650567833869,
positions.xlsx,positions_test.xlsx,positions_test_new.xlsx,stimuli.xlsx,stimuli_new.xlsx,stimuli/Social1.png,stimuli/Social2.png,stimuli/Nonsocial1.png,stimuli/Nonsocial2.png,stimuli/Social3.png,stimuli/Social4.png,stimuli/Nonsocial3.png,stimuli/Nonsocial4.png,,,"(-0.7, -0.5)",cs_pos_ns,"(-0.7, 0.5)",cs_neg_ns,"(0.7, -0.5)",cs_neg_s,"(0.7, 0.5)",cs_pos_s,0,0,0,0,,,,,,,,,,,,,,,,,,,,,0,20,20,21,,,,,,,,,,,,,,,,,,,,,,,,,,,180,reward,,,,,,1041.7319301000098,1041.7319301000098,1041.7319301000098,1041.7319301000098,0,,,0,,,0,,,0,,,1042.9679950999853,1042.9679950999853,1042.9679950999853,1042.9679950999853,41,A,2024-05-17_14h20.40.267,attentional_competition_task,2022.2.4,143.9650567833869,
positions.xlsx,positions_test.xlsx,positions_test_new.xlsx,stimuli.xlsx,stimuli_new.xlsx,stimuli/Social1.png,stimuli/Social2.png,stimuli/Nonsocial1.png,stimuli/Nonsocial2.png,stimuli/Social3.png,stimuli/Social4.png,stimuli/Nonsocial3.png,stimuli/Nonsocial4.png,,,"(-0.7, -0.5)",cs_pos_s,"(-0.7, 0.5)",cs_neg_s,"(0.7, -0.5)",cs_pos_ns,"(0.7, 0.5)",cs_neg_ns,0,0,0,0,,,,,,,,,,,,,,,,,,,,,0,21,21,7,,,,,,,,,,,,,,,,,,,,,,,,,,,189,reward,,,,,,1050.3843532000028,1050.3843532000028,1050.3843532000028,1050.3843532000028,0,,,0,,,0,,,0,,,1051.2176615000062,1051.2176615000062,1051.2176615000062,1051.2176615000062,41,A,2024-05-17_14h20.40.267,attentional_competition_task,2022.2.4,143.9650567833869,
positions.xlsx,positions_test.xlsx,positions_test_new.xlsx,stimuli.xlsx,stimuli_new.xlsx,stimuli/Social1.png,stimuli/Social2.png,stimuli/Nonsocial1.png,stimuli/Nonsocial2.png,stimuli/Social3.png,stimuli/Social4.png,stimuli/Nonsocial3.png,stimuli/Nonsocial4.png,,,"(-0.7, -0.5)",cs_neg_s,"(-0.7, 0.5)",cs_pos_s,"(0.7, -0.5)",cs_pos_ns,"(0.7, 0.5)",cs_neg_ns,0,0,0,0,,,,,,,,,,,,,,,,,,,,,0,22,22,1,,,,,,,,,,,,,,,,,,,,,,,,,,,192,reward,,,,,,1058.0298691999924,1058.0298691999924,1058.0298691999924,1058.0298691999924,1,0.18916219999664463,0.20318769998266362,0,,,0,,,0,,,1058.8354109000065,1058.8354109000065,1058.8354109000065,1058.8354109000065,41,A,2024-05-17_14h20.40.267,attentional_competition_task,2022.2.4,143.9650567833869,
positions.xlsx,positions_test.xlsx,positions_test_new.xlsx,stimuli.xlsx,stimuli_new.xlsx,stimuli/Social1.png,stimuli/Social2.png,stimuli/Nonsocial1.png,stimuli/Nonsocial2.png,stimuli/Social3.png,stimuli/Social4.png,stimuli/Nonsocial3.png,stimuli/Nonsocial4.png,,,"(-0.7, -0.5)",cs_neg_s,"(-0.7, 0.5)",cs_pos_ns,"(0.7, -0.5)",cs_neg_ns,"(0.7, 0.5)",cs_pos_s,0,0,0,0,,,,,,,,,,,,,,,,,,,,,0,23,23,5,,,,,,,,,,,,,,,,,,,,,,,,,,,201,reward,,,,,,1066.5712002000073,1066.5712002000073,1066.5712002000073,1066.5712002000073,0,,,0,,,0,,,0,,,1067.619792499987,1067.619792499987,1067.619792499987,1067.619792499987,41,A,2024-05-17_14h20.40.267,attentional_competition_task,2022.2.4,143.9650567833869,
positions.xlsx,positions_test.xlsx,positions_test_new.xlsx,stimuli.xlsx,stimuli_new.xlsx,stimuli/Social1.png,stimuli/Social2.png,stimuli/Nonsocial1.png,stimuli/Nonsocial2.png,stimuli/Social3.png,stimuli/Social4.png,stimuli/Nonsocial3.png,stimuli/Nonsocial4.png,,,"(-0.7, -0.5)",cs_pos_ns,"(-0.7, 0.5)",cs_pos_s,"(0.7, -0.5)",cs_neg_ns,"(0.7, 0.5)",cs_neg_s,0,0,0,0,,,,,,,,,,,,,,,,,,,,,1,0,24,18,,,,,,,,,,,,,,,,,,,,,,,,,,,210,reward,,,,,,1075.4736235000018,1075.4736235000018,1075.4736235000018,1075.4736235000018,0,,,0,,,0,,,0,,,1076.2583264999848,1076.2583264999848,1076.2583264999848,1076.2583264999848,41,A,2024-05-17_14h20.40.267,attentional_competition_task,2022.2.4,143.9650567833869,
positions.xlsx,positions_test.xlsx,positions_test_new.xlsx,stimuli.xlsx,stimuli_new.xlsx,stimuli/Social1.png,stimuli/Social2.png,stimuli/Nonsocial1.png,stimuli/Nonsocial2.png,stimuli/Social3.png,stimuli/Social4.png,stimuli/Nonsocial3.png,stimuli/Nonsocial4.png,,,"(-0.7, -0.5)",cs_neg_ns,"(-0.7, 0.5)",cs_pos_s,"(0.7, -0.5)",cs_neg_s,"(0.7, 0.5)",cs_pos_ns,0,0,0,0,,,,,,,,,,,,,,,,,,,,,1,1,25,12,,,,,,,,,,,,,,,,,,,,,,,,,,,219,reward,,,,,,1084.2371373999922,1084.2371373999922,1084.2371373999922,1084.2371373999922,0,,,0,,,0,,,0,,,1085.1676916999859,1085.1676916999859,1085.1676916999859,1085.1676916999859,41,A,2024-05-17_14h20.40.267,attentional_competition_task,2022.2.4,143.9650567833869,
positions.xlsx,positions_test.xlsx,positions_test_new.xlsx,stimuli.xlsx,stimuli_new.xlsx,stimuli/Social1.png,stimuli/Social2.png,stimuli/Nonsocial1.png,stimuli/Nonsocial2.png,stimuli/Social3.png,stimuli/Social4.png,stimuli/Nonsocial3.png,stimuli/Nonsocial4.png,,,"(-0.7, -0.5)",cs_neg_s,"(-0.7, 0.5)",cs_pos_ns,"(0.7, -0.5)",cs_neg_ns,"(0.7, 0.5)",cs_pos_s,0,0,0,0,,,,,,,,,,,,,,,,,,,,,1,2,26,5,,,,,,,,,,,,,,,,,,,,,,,,,,,228,reward,,,,,,1092.7160282999976,1092.7160282999976,1092.7160282999976,1092.7160282999976,0,,,0,,,0,,,0,,,1093.660403099988,1093.660403099988,1093.660403099988,1093.660403099988,41,A,2024-05-17_14h20.40.267,attentional_competition_task,2022.2.4,143.9650567833869,
positions.xlsx,positions_test.xlsx,positions_test_new.xlsx,stimuli.xlsx,stimuli_new.xlsx,stimuli/Social1.png,stimuli/Social2.png,stimuli/Nonsocial1.png,stimuli/Nonsocial2.png,stimuli/Social3.png,stimuli/Social4.png,stimuli/Nonsocial3.png,stimuli/Nonsocial4.png,,,"(-0.7, -0.5)",cs_neg_ns,"(-0.7, 0.5)",cs_pos_ns,"(0.7, -0.5)",cs_pos_s,"(0.7, 0.5)",cs_neg_s,0,0,0,0,,,,,,,,,,,,,,,,,,,,,1,3,27,16,,,,,,,,,,,,,,,,,,,,,,,,,,,237,reward,,,,,,1101.4308945999946,1101.4308945999946,1101.4308945999946,1101.4308945999946,0,,,0,,,1,0.02442890001111664,0.03828199999406934,0,,,1102.451737700001,1102.451737700001,1102.451737700001,1102.451737700001,41,A,2024-05-17_14h20.40.267,attentional_competition_task,2022.2.4,143.9650567833869,
positions.xlsx,positions_test.xlsx,positions_test_new.xlsx,stimuli.xlsx,stimuli_new.xlsx,stimuli/Social1.png,stimuli/Social2.png,stimuli/Nonsocial1.png,stimuli/Nonsocial2.png,stimuli/Social3.png,stimuli/Social4.png,stimuli/Nonsocial3.png,stimuli/Nonsocial4.png,,,"(-0.7, -0.5)",cs_pos_s,"(-0.7, 0.5)",cs_neg_ns,"(0.7, -0.5)",cs_neg_s,"(0.7, 0.5)",cs_pos_ns,0,0,0,0,,,,,,,,,,,,,,,,,,,,,1,4,28,8,,,,,,,,,,,,,,,,,,,,,,,,,,,246,reward,,,,,,1110.2569521999976,1110.2569521999976,1110.2569521999976,1110.2569521999976,0,,,0,,,0,,,0,,,1111.1388763999857,1111.1388763999857,1111.1388763999857,1111.1388763999857,41,A,2024-05-17_14h20.40.267,attentional_competition_task,2022.2.4,143.9650567833869,
positions.xlsx,positions_test.xlsx,positions_test_new.xlsx,stimuli.xlsx,stimuli_new.xlsx,stimuli/Social1.png,stimuli/Social2.png,stimuli/Nonsocial1.png,stimuli/Nonsocial2.png,stimuli/Social3.png,stimuli/Social4.png,stimuli/Nonsocial3.png,stimuli/Nonsocial4.png,,,"(-0.7, -0.5)",cs_neg_ns,"(-0.7, 0.5)",cs_neg_s,"(0.7, -0.5)",cs_pos_ns,"(0.7, 0.5)",cs_pos_s,0,0,0,0,,,,,,,,,,,,,,,,,,,,,1,5,29,15,,,,,,,,,,,,,,,,,,,,,,,,,,,255,reward,,,,,,1119.062159299996,1119.062159299996,1119.062159299996,1119.062159299996,0,,,0,,,0,,,0,,,1119.9440771999944,1119.9440771999944,1119.9440771999944,1119.9440771999944,41,A,2024-05-17_14h20.40.267,attentional_competition_task,2022.2.4,143.9650567833869,
positions.xlsx,positions_test.xlsx,positions_test_new.xlsx,stimuli.xlsx,stimuli_new.xlsx,stimuli/Social1.png,stimuli/Social2.png,stimuli/Nonsocial1.png,stimuli/Nonsocial2.png,stimuli/Social3.png,stimuli/Social4.png,stimuli/Nonsocial3.png,stimuli/Nonsocial4.png,,,"(-0.7, -0.5)",cs_neg_s,"(-0.7, 0.5)",cs_pos_ns,"(0.7, -0.5)",cs_pos_s,"(0.7, 0.5)",cs_neg_ns,0,0,0,0,,,,,,,,,,,,,,,,,,,,,1,6,30,4,,,,,,,,,,,,,,,,,,,,,,,,,,,264,reward,,,,,,1128.1451273999992,1128.1451273999992,1128.1451273999992,1128.1451273999992,0,,,0,,,0,,,0,,,1129.2075948999845,1129.2075948999845,1129.2075948999845,1129.2075948999845,41,A,2024-05-17_14h20.40.267,attentional_competition_task,2022.2.4,143.9650567833869,
positions.xlsx,positions_test.xlsx,positions_test_new.xlsx,stimuli.xlsx,stimuli_new.xlsx,stimuli/Social1.png,stimuli/Social2.png,stimuli/Nonsocial1.png,stimuli/Nonsocial2.png,stimuli/Social3.png,stimuli/Social4.png,stimuli/Nonsocial3.png,stimuli/Nonsocial4.png,,,"(-0.7, -0.5)",cs_pos_s,"(-0.7, 0.5)",cs_neg_ns,"(0.7, -0.5)",cs_pos_ns,"(0.7, 0.5)",cs_neg_s,0,0,0,0,,,,,,,,,,,,,,,,,,,,,1,7,31,9,,,,,,,,,,,,,,,,,,,,,,,,,,,273,reward,,,,,,1136.3461948999902,1136.3461948999902,1136.3461948999902,1136.3461948999902,0,,,0,,,0,,,0,,,1137.3461685999937,1137.3461685999937,1137.3461685999937,1137.3461685999937,41,A,2024-05-17_14h20.40.267,attentional_competition_task,2022.2.4,143.9650567833869,
positions.xlsx,positions_test.xlsx,positions_test_new.xlsx,stimuli.xlsx,stimuli_new.xlsx,stimuli/Social1.png,stimuli/Social2.png,stimuli/Nonsocial1.png,stimuli/Nonsocial2.png,stimuli/Social3.png,stimuli/Social4.png,stimuli/Nonsocial3.png,stimuli/Nonsocial4.png,,,"(-0.7, -0.5)",cs_pos_ns,"(-0.7, 0.5)",cs_neg_s,"(0.7, -0.5)",cs_neg_ns,"(0.7, 0.5)",cs_pos_s,0,0,0,0,,,,,,,,,,,,,,,,,,,,,1,8,32,23,,,,,,,,,,,,,,,,,,,,,,,,,,,282,reward,,,,,,1144.2348274999822,1144.2348274999822,1144.2348274999822,1144.2348274999822,0,,,0,,,0,,,0,,,1145.2763938999851,1145.2763938999851,1145.2763938999851,1145.2763938999851,41,A,2024-05-17_14h20.40.267,attentional_competition_task,2022.2.4,143.9650567833869,
positions.xlsx,positions_test.xlsx,positions_test_new.xlsx,stimuli.xlsx,stimuli_new.xlsx,stimuli/Social1.png,stimuli/Social2.png,stimuli/Nonsocial1.png,stimuli/Nonsocial2.png,stimuli/Social3.png,stimuli/Social4.png,stimuli/Nonsocial3.png,stimuli/Nonsocial4.png,,,"(-0.7, -0.5)",cs_neg_ns,"(-0.7, 0.5)",cs_pos_ns,"(0.7, -0.5)",cs_neg_s,"(0.7, 0.5)",cs_pos_s,0,0,0,0,,,,,,,,,,,,,,,,,,,,,1,9,33,17,,,,,,,,,,,,,,,,,,,,,,,,,,,291,reward,,,,,,1152.2969566000102,1152.2969566000102,1152.2969566000102,1152.2969566000102,0,,,0,,,0,,,0,,,1153.1857818999852,1153.1857818999852,1153.1857818999852,1153.1857818999852,41,A,2024-05-17_14h20.40.267,attentional_competition_task,2022.2.4,143.9650567833869,
positions.xlsx,positions_test.xlsx,positions_test_new.xlsx,stimuli.xlsx,stimuli_new.xlsx,stimuli/Social1.png,stimuli/Social2.png,stimuli/Nonsocial1.png,stimuli/Nonsocial2.png,stimuli/Social3.png,stimuli/Social4.png,stimuli/Nonsocial3.png,stimuli/Nonsocial4.png,,,"(-0.7, -0.5)",cs_neg_s,"(-0.7, 0.5)",cs_pos_s,"(0.7, -0.5)",cs_neg_ns,"(0.7, 0.5)",cs_pos_ns,0,0,0,0,,,,,,,,,,,,,,,,,,,,,1,10,34,0,,,,,,,,,,,,,,,,,,,,,,,,,,,300,reward,,,,,,1161.1576929999865,1161.1576929999865,1161.1576929999865,1161.1576929999865,0,,,1,0.0246906999964267,0.13644540001405403,0,,,1,0.5187749000033364,0.5742584000108764,1162.2340606999933,1162.2340606999933,1162.2340606999933,1162.2340606999933,41,A,2024-05-17_14h20.40.267,attentional_competition_task,2022.2.4,143.9650567833869,
positions.xlsx,positions_test.xlsx,positions_test_new.xlsx,stimuli.xlsx,stimuli_new.xlsx,stimuli/Social1.png,stimuli/Social2.png,stimuli/Nonsocial1.png,stimuli/Nonsocial2.png,stimuli/Social3.png,stimuli/Social4.png,stimuli/Nonsocial3.png,stimuli/Nonsocial4.png,,,"(-0.7, -0.5)",cs_pos_ns,"(-0.7, 0.5)",cs_neg_ns,"(0.7, -0.5)",cs_neg_s,"(0.7, 0.5)",cs_pos_s,0,0,0,0,,,,,,,,,,,,,,,,,,,,,1,11,35,21,,,,,,,,,,,,,,,,,,,,,,,,,,,309,reward,,,,,,1169.6434340999986,1169.6434340999986,1169.6434340999986,1169.6434340999986,0,,,0,,,0,,,0,,,1170.594813600008,1170.594813600008,1170.594813600008,1170.594813600008,41,A,2024-05-17_14h20.40.267,attentional_competition_task,2022.2.4,143.9650567833869,
positions.xlsx,positions_test.xlsx,positions_test_new.xlsx,stimuli.xlsx,stimuli_new.xlsx,stimuli/Social1.png,stimuli/Social2.png,stimuli/Nonsocial1.png,stimuli/Nonsocial2.png,stimuli/Social3.png,stimuli/Social4.png,stimuli/Nonsocial3.png,stimuli/Nonsocial4.png,,,"(-0.7, -0.5)",cs_neg_ns,"(-0.7, 0.5)",cs_neg_s,"(0.7, -0.5)",cs_pos_s,"(0.7, 0.5)",cs_pos_ns,0,0,0,0,,,,,,,,,,,,,,,,,,,,,1,12,36,14,,,,,,,,,,,,,,,,,,,,,,,,,,,318,reward,,,,,,1178.698702900001,1178.698702900001,1178.698702900001,1178.698702900001,0,,,0,,,1,0.02898479998111725,0.20327420000103302,0,,,1179.4069667999865,1179.4069667999865,1179.4069667999865,1179.4069667999865,41,A,2024-05-17_14h20.40.267,attentional_competition_task,2022.2.4,143.9650567833869,
positions.xlsx,positions_test.xlsx,positions_test_new.xlsx,stimuli.xlsx,stimuli_new.xlsx,stimuli/Social1.png,stimuli/Social2.png,stimuli/Nonsocial1.png,stimuli/Nonsocial2.png,stimuli/Social3.png,stimuli/Social4.png,stimuli/Nonsocial3.png,stimuli/Nonsocial4.png,,,"(-0.7, -0.5)",cs_pos_s,"(-0.7, 0.5)",cs_pos_ns,"(0.7, -0.5)",cs_neg_s,"(0.7, 0.5)",cs_neg_ns,0,0,0,0,,,,,,,,,,,,,,,,,,,,,1,13,37,10,,,,,,,,,,,,,,,,,,,,,,,,,,,321,loss,,,,,,1186.6358413999842,1186.6358413999842,1186.6358413999842,1186.6358413999842,0,,,0,,,1,0.32209469997906126,0.32209859997965395,0,,,1186.9622551999928,1186.9622551999928,1186.9622551999928,1186.9622551999928,41,A,2024-05-17_14h20.40.267,attentional_competition_task,2022.2.4,143.9650567833869,
positions.xlsx,positions_test.xlsx,positions_test_new.xlsx,stimuli.xlsx,stimuli_new.xlsx,stimuli/Social1.png,stimuli/Social2.png,stimuli/Nonsocial1.png,stimuli/Nonsocial2.png,stimuli/Social3.png,stimuli/Social4.png,stimuli/Nonsocial3.png,stimuli/Nonsocial4.png,,,"(-0.7, -0.5)",cs_neg_ns,"(-0.7, 0.5)",cs_pos_s,"(0.7, -0.5)",cs_pos_ns,"(0.7, 0.5)",cs_neg_s,0,0,0,0,,,,,,,,,,,,,,,,,,,,,1,14,38,13,,,,,,,,,,,,,,,,,,,,,,,,,,,330,reward,,,,,,1195.2882659999887,1195.2882659999887,1195.2882659999887,1195.2882659999887,0,,,1,0.028878499986603856,0.27282260000356473,0,,,0,,,1196.3090586999897,1196.3090586999897,1196.3090586999897,1196.3090586999897,41,A,2024-05-17_14h20.40.267,attentional_competition_task,2022.2.4,143.9650567833869,
positions.xlsx,positions_test.xlsx,positions_test_new.xlsx,stimuli.xlsx,stimuli_new.xlsx,stimuli/Social1.png,stimuli/Social2.png,stimuli/Nonsocial1.png,stimuli/Nonsocial2.png,stimuli/Social3.png,stimuli/Social4.png,stimuli/Nonsocial3.png,stimuli/Nonsocial4.png,,,"(-0.7, -0.5)",cs_pos_s,"(-0.7, 0.5)",cs_neg_s,"(0.7, -0.5)",cs_pos_ns,"(0.7, 0.5)",cs_neg_ns,0,0,0,0,,,,,,,,,,,,,,,,,,,,,1,15,39,7,,,,,,,,,,,,,,,,,,,,,,,,,,,339,reward,,,,,,1203.7254413999908,1203.7254413999908,1203.7254413999908,1203.7254413999908,0,,,0,,,1,0.028467199997976422,0.5505615999863949,0,,,1204.7809446000028,1204.7809446000028,1204.7809446000028,1204.7809446000028,41,A,2024-05-17_14h20.40.267,attentional_competition_task,2022.2.4,143.9650567833869,
positions.xlsx,positions_test.xlsx,positions_test_new.xlsx,stimuli.xlsx,stimuli_new.xlsx,stimuli/Social1.png,stimuli/Social2.png,stimuli/Nonsocial1.png,stimuli/Nonsocial2.png,stimuli/Social3.png,stimuli/Social4.png,stimuli/Nonsocial3.png,stimuli/Nonsocial4.png,,,"(-0.7, -0.5)",cs_pos_ns,"(-0.7, 0.5)",cs_pos_s,"(0.7, -0.5)",cs_neg_s,"(0.7, 0.5)",cs_neg_ns,0,0,0,0,,,,,,,,,,,,,,,,,,,,,1,16,40,19,,,,,,,,,,,,,,,,,,,,,,,,,,,348,reward,,,,,,1212.6139704000088,1212.6139704000088,1212.6139704000088,1212.6139704000088,1,0.023343300010310486,0.2948485999950208,1,0.30895170001895167,0.433840700017754,0,,,0,,,1213.558368099999,1213.558368099999,1213.558368099999,1213.558368099999,41,A,2024-05-17_14h20.40.267,attentional_competition_task,2022.2.4,143.9650567833869,
positions.xlsx,positions_test.xlsx,positions_test_new.xlsx,stimuli.xlsx,stimuli_new.xlsx,stimuli/Social1.png,stimuli/Social2.png,stimuli/Nonsocial1.png,stimuli/Nonsocial2.png,stimuli/Social3.png,stimuli/Social4.png,stimuli/Nonsocial3.png,stimuli/Nonsocial4.png,,,"(-0.7, -0.5)",cs_neg_s,"(-0.7, 0.5)",cs_neg_ns,"(0.7, -0.5)",cs_pos_ns,"(0.7, 0.5)",cs_pos_s,0,0,0,0,,,,,,,,,,,,,,,,,,,,,1,17,41,3,,,,,,,,,,,,,,,,,,,,,,,,,,,351,loss,,,,,,1220.4608857999847,1220.4608857999847,1220.4608857999847,1220.4608857999847,1,0.44663370001944713,0.4466375000192784,0,,,1,0.1351664000249002,0.14185670000733808,1,0.0297240000218153,0.12118430002010427,1220.898354999983,1220.898354999983,1220.898354999983,1220.898354999983,41,A,2024-05-17_14h20.40.267,attentional_competition_task,2022.2.4,143.9650567833869,
positions.xlsx,positions_test.xlsx,positions_test_new.xlsx,stimuli.xlsx,stimuli_new.xlsx,stimuli/Social1.png,stimuli/Social2.png,stimuli/Nonsocial1.png,stimuli/Nonsocial2.png,stimuli/Social3.png,stimuli/Social4.png,stimuli/Nonsocial3.png,stimuli/Nonsocial4.png,,,"(-0.7, -0.5)",cs_neg_s,"(-0.7, 0.5)",cs_pos_s,"(0.7, -0.5)",cs_pos_ns,"(0.7, 0.5)",cs_neg_ns,0,0,0,0,,,,,,,,,,,,,,,,,,,,,1,18,42,1,,,,,,,,,,,,,,,,,,,,,,,,,,,360,reward,,,,,,1229.3077410999977,1229.3077410999977,1229.3077410999977,1229.3077410999977,0,,,0,,,1,0.027552399988053367,0.15510529998573475,0,,,1230.3008217999886,1230.3008217999886,1230.3008217999886,1230.3008217999886,41,A,2024-05-17_14h20.40.267,attentional_competition_task,2022.2.4,143.9650567833869,
positions.xlsx,positions_test.xlsx,positions_test_new.xlsx,stimuli.xlsx,stimuli_new.xlsx,stimuli/Social1.png,stimuli/Social2.png,stimuli/Nonsocial1.png,stimuli/Nonsocial2.png,stimuli/Social3.png,stimuli/Social4.png,stimuli/Nonsocial3.png,stimuli/Nonsocial4.png,,,"(-0.7, -0.5)",cs_neg_s,"(-0.7, 0.5)",cs_neg_ns,"(0.7, -0.5)",cs_pos_s,"(0.7, 0.5)",cs_pos_ns,0,0,0,0,,,,,,,,,,,,,,,,,,,,,1,19,43,2,,,,,,,,,,,,,,,,,,,,,,,,,,,369,reward,,,,,,1238.0296319999907,1238.0296319999907,1238.0296319999907,1238.0296319999907,0,,,0,,,0,,,1,0.023039499996230006,0.48293339999509044,1239.0156951999816,1239.0156951999816,1239.0156951999816,1239.0156951999816,41,A,2024-05-17_14h20.40.267,attentional_competition_task,2022.2.4,143.9650567833869,
positions.xlsx,positions_test.xlsx,positions_test_new.xlsx,stimuli.xlsx,stimuli_new.xlsx,stimuli/Social1.png,stimuli/Social2.png,stimuli/Nonsocial1.png,stimuli/Nonsocial2.png,stimuli/Social3.png,stimuli/Social4.png,stimuli/Nonsocial3.png,stimuli/Nonsocial4.png,,,"(-0.7, -0.5)",cs_pos_s,"(-0.7, 0.5)",cs_pos_ns,"(0.7, -0.5)",cs_neg_ns,"(0.7, 0.5)",cs_neg_s,0,0,0,0,,,,,,,,,,,,,,,,,,,,,1,20,44,11,,,,,,,,,,,,,,,,,,,,,,,,,,,378,reward,,,,,,1246.6195210999867,1246.6195210999867,1246.6195210999867,1246.6195210999867,0,,,1,0.03015679999953136,0.1005418999993708,0,,,0,,,1247.5500691999914,1247.5500691999914,1247.5500691999914,1247.5500691999914,41,A,2024-05-17_14h20.40.267,attentional_competition_task,2022.2.4,143.9650567833869,
positions.xlsx,positions_test.xlsx,positions_test_new.xlsx,stimuli.xlsx,stimuli_new.xlsx,stimuli/Social1.png,stimuli/Social2.png,stimuli/Nonsocial1.png,stimuli/Nonsocial2.png,stimuli/Social3.png,stimuli/Social4.png,stimuli/Nonsocial3.png,stimuli/Nonsocial4.png,,,"(-0.7, -0.5)",cs_pos_ns,"(-0.7, 0.5)",cs_neg_s,"(0.7, -0.5)",cs_pos_s,"(0.7, 0.5)",cs_neg_ns,0,0,0,0,,,,,,,,,,,,,,,,,,,,,1,21,45,22,,,,,,,,,,,,,,,,,,,,,,,,,,,387,reward,,,,,,1255.2858461999858,1255.2858461999858,1255.2858461999858,1255.2858461999858,0,,,0,,,1,0.028471300000092015,0.5086136000172701,0,,,1256.2997167999856,1256.2997167999856,1256.2997167999856,1256.2997167999856,41,A,2024-05-17_14h20.40.267,attentional_competition_task,2022.2.4,143.9650567833869,
positions.xlsx,positions_test.xlsx,positions_test_new.xlsx,stimuli.xlsx,stimuli_new.xlsx,stimuli/Social1.png,stimuli/Social2.png,stimuli/Nonsocial1.png,stimuli/Nonsocial2.png,stimuli/Social3.png,stimuli/Social4.png,stimuli/Nonsocial3.png,stimuli/Nonsocial4.png,,,"(-0.7, -0.5)",cs_pos_s,"(-0.7, 0.5)",cs_neg_s,"(0.7, -0.5)",cs_neg_ns,"(0.7, 0.5)",cs_pos_ns,0,0,0,0,,,,,,,,,,,,,,,,,,,,,1,22,46,6,,,,,,,,,,,,,,,,,,,,,,,,,,,396,reward,,,,,,1263.9521884999995,1263.9521884999995,1263.9521884999995,1263.9521884999995,0,,,0,,,0,,,1,0.023522499977843836,0.4478637999854982,1264.8966256999993,1264.8966256999993,1264.8966256999993,1264.8966256999993,41,A,2024-05-17_14h20.40.267,attentional_competition_task,2022.2.4,143.9650567833869,
positions.xlsx,positions_test.xlsx,positions_test_new.xlsx,stimuli.xlsx,stimuli_new.xlsx,stimuli/Social1.png,stimuli/Social2.png,stimuli/Nonsocial1.png,stimuli/Nonsocial2.png,stimuli/Social3.png,stimuli/Social4.png,stimuli/Nonsocial3.png,stimuli/Nonsocial4.png,,,"(-0.7, -0.5)",cs_pos_ns,"(-0.7, 0.5)",cs_neg_ns,"(0.7, -0.5)",cs_pos_s,"(0.7, 0.5)",cs_neg_s,0,0,0,0,,,,,,,,,,,,,,,,,,,,,1,23,47,20,,,,,,,,,,,,,,,,,,,,,,,,,,,405,reward,,,,,,1271.7782739000104,1271.7782739000104,1271.7782739000104,1271.7782739000104,0,,,0,,,0,,,0,,,1272.8337819000008,1272.8337819000008,1272.8337819000008,1272.8337819000008,41,A,2024-05-17_14h20.40.267,attentional_competition_task,2022.2.4,143.9650567833869,
positions.xlsx,positions_test.xlsx,positions_test_new.xlsx,stimuli.xlsx,stimuli_new.xlsx,stimuli/Social1.png,stimuli/Social2.png,stimuli/Nonsocial1.png,stimuli/Nonsocial2.png,stimuli/Social3.png,stimuli/Social4.png,stimuli/Nonsocial3.png,stimuli/Nonsocial4.png,,,"(-0.7, -0.5)",cs_pos_ns,"(-0.7, 0.5)",cs_pos_s,"(0.7, -0.5)",cs_neg_ns,"(0.7, 0.5)",cs_neg_s,0,0,0,0,,,,,,,,,,,,,,,,,,,,,,,,,,,,,0,0,0,6,0,0,0,0,,,,,,,,,,,,,,,408,reward,,,,,,1279.4862742999976,1279.4862742999976,1279.4862742999976,1279.4862742999976,1,0.40446849999716505,0.4044724999985192,0,,,0,,,0,,,1279.902900999994,1279.902900999994,1279.902900999994,1279.902900999994,41,A,2024-05-17_14h20.40.267,attentional_competition_task,2022.2.4,143.9650567833869,
positions.xlsx,positions_test.xlsx,positions_test_new.xlsx,stimuli.xlsx,stimuli_new.xlsx,stimuli/Social1.png,stimuli/Social2.png,stimuli/Nonsocial1.png,stimuli/Nonsocial2.png,stimuli/Social3.png,stimuli/Social4.png,stimuli/Nonsocial3.png,stimuli/Nonsocial4.png,,,"(-0.7, -0.5)",cs_pos_ns,"(-0.7, 0.5)",cs_pos_s,"(0.7, -0.5)",cs_neg_ns,"(0.7, 0.5)",cs_neg_s,0,0,0,0,,,,,,,,,,,,,,,,,,,,,,,,,,,,,0,0,0,6,1,0,1,0,,,,,,,,,,,,,,,411,reward,,,,,,1280.437620199984,1280.437620199984,1280.437620199984,1280.437620199984,0,,,1,0.028403000003891066,0.02840680000372231,0,,,0,,,1280.437620199984,1280.437620199984,1280.437620199984,1280.437620199984,41,A,2024-05-17_14h20.40.267,attentional_competition_task,2022.2.4,143.9650567833869,
positions.xlsx,positions_test.xlsx,positions_test_new.xlsx,stimuli.xlsx,stimuli_new.xlsx,stimuli/Social1.png,stimuli/Social2.png,stimuli/Nonsocial1.png,stimuli/Nonsocial2.png,stimuli/Social3.png,stimuli/Social4.png,stimuli/Nonsocial3.png,stimuli/Nonsocial4.png,,,"(-0.7, -0.5)",cs_pos_ns,"(-0.7, 0.5)",cs_pos_s,"(0.7, -0.5)",cs_neg_ns,"(0.7, 0.5)",cs_neg_s,0,0,0,0,,,,,,,,,,,,,,,,,,,,,,,,,,,,,0,0,0,6,2,0,2,0,,,,,,,,,,,,,,,414,reward,,,,,,1280.9445500999864,1280.9445500999864,1280.9445500999864,1280.9445500999864,0,,,0,,,0,,,0,,,1282.0070019999985,1282.0070019999985,1282.0070019999985,1282.0070019999985,41,A,2024-05-17_14h20.40.267,attentional_competition_task,2022.2.4,143.9650567833869,
positions.xlsx,positions_test.xlsx,positions_test_new.xlsx,stimuli.xlsx,stimuli_new.xlsx,stimuli/Social1.png,stimuli/Social2.png,stimuli/Nonsocial1.png,stimuli/Nonsocial2.png,stimuli/Social3.png,stimuli/Social4.png,stimuli/Nonsocial3.png,stimuli/Nonsocial4.png,,,"(-0.7, -0.5)",cs_pos_ns,"(-0.7, 0.5)",cs_pos_s,"(0.7, -0.5)",cs_neg_ns,"(0.7, 0.5)",cs_neg_s,0,0,0,0,,,,,,,,,,,,,,,,,,,,,,,,,,,,,0,0,0,6,,,,,,,,,,,,,,,,,,,,,,,,,,,,,,,,,,,,,,,,,,,,,,41,A,2024-05-17_14h20.40.267,attentional_competition_task,2022.2.4,143.9650567833869,
positions.xlsx,positions_test.xlsx,positions_test_new.xlsx,stimuli.xlsx,stimuli_new.xlsx,stimuli/Social1.png,stimuli/Social2.png,stimuli/Nonsocial1.png,stimuli/Nonsocial2.png,stimuli/Social3.png,stimuli/Social4.png,stimuli/Nonsocial3.png,stimuli/Nonsocial4.png,,,"(-0.7, -0.5)",cs_neg_s_new,"(-0.7, 0.5)",cs_pos_s,"(0.7, -0.5)",cs_neg_ns,"(0.7, 0.5)",cs_pos_ns,0,0,0,0,,,,,,,,,,,,,,,,,,,,,,,,,,,,,0,1,1,11,0,0,0,0,,,,,,,,,,,,,,,417,reward,,,,,,1288.6872730999894,1288.6872730999894,1288.6872730999894,1288.6872730999894,0,,,1,0.5715796000149567,0.5792462000099476,0,,,0,,,1289.2775198000018,1289.2775198000018,1289.2775198000018,1289.2775198000018,41,A,2024-05-17_14h20.40.267,attentional_competition_task,2022.2.4,143.9650567833869,
positions.xlsx,positions_test.xlsx,positions_test_new.xlsx,stimuli.xlsx,stimuli_new.xlsx,stimuli/Social1.png,stimuli/Social2.png,stimuli/Nonsocial1.png,stimuli/Nonsocial2.png,stimuli/Social3.png,stimuli/Social4.png,stimuli/Nonsocial3.png,stimuli/Nonsocial4.png,,,"(-0.7, -0.5)",cs_neg_s_new,"(-0.7, 0.5)",cs_pos_s,"(0.7, -0.5)",cs_neg_ns,"(0.7, 0.5)",cs_pos_ns,0,0,0,0,,,,,,,,,,,,,,,,,,,,,,,,,,,,,0,1,1,11,1,0,1,0,,,,,,,,,,,,,,,420,reward,,,,,,1289.8122373000078,1289.8122373000078,1289.8122373000078,1289.8122373000078,0,,,0,,,0,,,1,0.02914490000694059,0.029148600006010383,1289.8122373000078,1289.8122373000078,1289.8122373000078,1289.8122373000078,41,A,2024-05-17_14h20.40.267,attentional_competition_task,2022.2.4,143.9650567833869,
positions.xlsx,positions_test.xlsx,positions_test_new.xlsx,stimuli.xlsx,stimuli_new.xlsx,stimuli/Social1.png,stimuli/Social2.png,stimuli/Nonsocial1.png,stimuli/Nonsocial2.png,stimuli/Social3.png,stimuli/Social4.png,stimuli/Nonsocial3.png,stimuli/Nonsocial4.png,,,"(-0.7, -0.5)",cs_neg_s_new,"(-0.7, 0.5)",cs_pos_s,"(0.7, -0.5)",cs_neg_ns,"(0.7, 0.5)",cs_pos_ns,0,0,0,0,,,,,,,,,,,,,,,,,,,,,,,,,,,,,0,1,1,11,2,0,2,0,,,,,,,,,,,,,,,423,reward,,,,,,1290.3122374000086,1290.3122374000086,1290.3122374000086,1290.3122374000086,0,,,0,,,0,,,0,,,1291.2080296000058,1291.2080296000058,1291.2080296000058,1291.2080296000058,41,A,2024-05-17_14h20.40.267,attentional_competition_task,2022.2.4,143.9650567833869,
positions.xlsx,positions_test.xlsx,positions_test_new.xlsx,stimuli.xlsx,stimuli_new.xlsx,stimuli/Social1.png,stimuli/Social2.png,stimuli/Nonsocial1.png,stimuli/Nonsocial2.png,stimuli/Social3.png,stimuli/Social4.png,stimuli/Nonsocial3.png,stimuli/Nonsocial4.png,,,"(-0.7, -0.5)",cs_neg_s_new,"(-0.7, 0.5)",cs_pos_s,"(0.7, -0.5)",cs_neg_ns,"(0.7, 0.5)",cs_pos_ns,0,0,0,0,,,,,,,,,,,,,,,,,,,,,,,,,,,,,0,1,1,11,,,,,,,,,,,,,,,,,,,,,,,,,,,,,,,,,,,,,,,,,,,,,,41,A,2024-05-17_14h20.40.267,attentional_competition_task,2022.2.4,143.9650567833869,
positions.xlsx,positions_test.xlsx,positions_test_new.xlsx,stimuli.xlsx,stimuli_new.xlsx,stimuli/Social1.png,stimuli/Social2.png,stimuli/Nonsocial1.png,stimuli/Nonsocial2.png,stimuli/Social3.png,stimuli/Social4.png,stimuli/Nonsocial3.png,stimuli/Nonsocial4.png,,,"(-0.7, -0.5)",cs_pos_s,"(-0.7, 0.5)",cs_neg_s,"(0.7, -0.5)",cs_pos_ns,"(0.7, 0.5)",cs_neg_ns_new,0,0,0,0,,,,,,,,,,,,,,,,,,,,,,,,,,,,,0,2,2,24,0,0,0,0,,,,,,,,,,,,,,,426,reward,,,,,,1297.735515599983,1297.735515599983,1297.735515599983,1297.735515599983,0,,,0,,,1,0.39107750001130626,0.3910813000111375,0,,,1298.138304299995,1298.138304299995,1298.138304299995,1298.138304299995,41,A,2024-05-17_14h20.40.267,attentional_competition_task,2022.2.4,143.9650567833869,
positions.xlsx,positions_test.xlsx,positions_test_new.xlsx,stimuli.xlsx,stimuli_new.xlsx,stimuli/Social1.png,stimuli/Social2.png,stimuli/Nonsocial1.png,stimuli/Nonsocial2.png,stimuli/Social3.png,stimuli/Social4.png,stimuli/Nonsocial3.png,stimuli/Nonsocial4.png,,,"(-0.7, -0.5)",cs_pos_s,"(-0.7, 0.5)",cs_neg_s,"(0.7, -0.5)",cs_pos_ns,"(0.7, 0.5)",cs_neg_ns_new,0,0,0,0,,,,,,,,,,,,,,,,,,,,,,,,,,,,,0,2,2,24,1,0,1,0,,,,,,,,,,,,,,,429,reward,,,,,,1298.6660682999936,1298.6660682999936,1298.6660682999936,1298.6660682999936,1,0.028762900008587167,0.02876680000917986,0,,,0,,,0,,,1298.6660682999936,1298.6660682999936,1298.6660682999936,1298.6660682999936,41,A,2024-05-17_14h20.40.267,attentional_competition_task,2022.2.4,143.9650567833869,
positions.xlsx,positions_test.xlsx,positions_test_new.xlsx,stimuli.xlsx,stimuli_new.xlsx,stimuli/Social1.png,stimuli/Social2.png,stimuli/Nonsocial1.png,stimuli/Nonsocial2.png,stimuli/Social3.png,stimuli/Social4.png,stimuli/Nonsocial3.png,stimuli/Nonsocial4.png,,,"(-0.7, -0.5)",cs_pos_s,"(-0.7, 0.5)",cs_neg_s,"(0.7, -0.5)",cs_pos_ns,"(0.7, 0.5)",cs_neg_ns_new,0,0,0,0,,,,,,,,,,,,,,,,,,,,,,,,,,,,,0,2,2,24,2,0,2,0,,,,,,,,,,,,,,,432,reward,,,,,,1299.1729622999846,1299.1729622999846,1299.1729622999846,1299.1729622999846,1,0.022934500011615455,0.28097490000072867,0,,,0,,,0,,,1300.2493707000103,1300.2493707000103,1300.2493707000103,1300.2493707000103,41,A,2024-05-17_14h20.40.267,attentional_competition_task,2022.2.4,143.9650567833869,
positions.xlsx,positions_test.xlsx,positions_test_new.xlsx,stimuli.xlsx,stimuli_new.xlsx,stimuli/Social1.png,stimuli/Social2.png,stimuli/Nonsocial1.png,stimuli/Nonsocial2.png,stimuli/Social3.png,stimuli/Social4.png,stimuli/Nonsocial3.png,stimuli/Nonsocial4.png,,,"(-0.7, -0.5)",cs_pos_s,"(-0.7, 0.5)",cs_neg_s,"(0.7, -0.5)",cs_pos_ns,"(0.7, 0.5)",cs_neg_ns_new,0,0,0,0,,,,,,,,,,,,,,,,,,,,,,,,,,,,,0,2,2,24,,,,,,,,,,,,,,,,,,,,,,,,,,,,,,,,,,,,,,,,,,,,,,41,A,2024-05-17_14h20.40.267,attentional_competition_task,2022.2.4,143.9650567833869,
positions.xlsx,positions_test.xlsx,positions_test_new.xlsx,stimuli.xlsx,stimuli_new.xlsx,stimuli/Social1.png,stimuli/Social2.png,stimuli/Nonsocial1.png,stimuli/Nonsocial2.png,stimuli/Social3.png,stimuli/Social4.png,stimuli/Nonsocial3.png,stimuli/Nonsocial4.png,,,"(-0.7, -0.5)",cs_pos_s,"(-0.7, 0.5)",cs_neg_ns,"(0.7, -0.5)",cs_pos_ns,"(0.7, 0.5)",cs_neg_s_new,0,0,0,0,,,,,,,,,,,,,,,,,,,,,,,,,,,,,0,3,3,8,0,0,0,0,,,,,,,,,,,,,,,435,reward,,,,,,1305.818553899997,1305.818553899997,1305.818553899997,1305.818553899997,0,,,0,,,1,0.40498019999358803,0.4049839999934193,0,,,1306.2282564000052,1306.2282564000052,1306.2282564000052,1306.2282564000052,41,A,2024-05-17_14h20.40.267,attentional_competition_task,2022.2.4,143.9650567833869,
positions.xlsx,positions_test.xlsx,positions_test_new.xlsx,stimuli.xlsx,stimuli_new.xlsx,stimuli/Social1.png,stimuli/Social2.png,stimuli/Nonsocial1.png,stimuli/Nonsocial2.png,stimuli/Social3.png,stimuli/Social4.png,stimuli/Nonsocial3.png,stimuli/Nonsocial4.png,,,"(-0.7, -0.5)",cs_pos_s,"(-0.7, 0.5)",cs_neg_ns,"(0.7, -0.5)",cs_pos_ns,"(0.7, 0.5)",cs_neg_s_new,0,0,0,0,,,,,,,,,,,,,,,,,,,,,,,,,,,,,0,3,3,8,1,0,1,0,,,,,,,,,,,,,,,438,reward,,,,,,1306.7560978999827,1306.7560978999827,1306.7560978999827,1306.7560978999827,1,0.028634099988266826,0.02863779998733662,0,,,0,,,0,,,1306.7560978999827,1306.7560978999827,1306.7560978999827,1306.7560978999827,41,A,2024-05-17_14h20.40.267,attentional_competition_task,2022.2.4,143.9650567833869,
positions.xlsx,positions_test.xlsx,positions_test_new.xlsx,stimuli.xlsx,stimuli_new.xlsx,stimuli/Social1.png,stimuli/Social2.png,stimuli/Nonsocial1.png,stimuli/Nonsocial2.png,stimuli/Social3.png,stimuli/Social4.png,stimuli/Nonsocial3.png,stimuli/Nonsocial4.png,,,"(-0.7, -0.5)",cs_pos_s,"(-0.7, 0.5)",cs_neg_ns,"(0.7, -0.5)",cs_pos_ns,"(0.7, 0.5)",cs_neg_s_new,0,0,0,0,,,,,,,,,,,,,,,,,,,,,,,,,,,,,0,3,3,8,2,0,2,0,,,,,,,,,,,,,,,441,reward,,,,,,1307.2559770999942,1307.2559770999942,1307.2559770999942,1307.2559770999942,1,0.0222211999935098,0.3851225999824237,0,,,0,,,0,,,1308.3323290999979,1308.3323290999979,1308.3323290999979,1308.3323290999979,41,A,2024-05-17_14h20.40.267,attentional_competition_task,2022.2.4,143.9650567833869,
positions.xlsx,positions_test.xlsx,positions_test_new.xlsx,stimuli.xlsx,stimuli_new.xlsx,stimuli/Social1.png,stimuli/Social2.png,stimuli/Nonsocial1.png,stimuli/Nonsocial2.png,stimuli/Social3.png,stimuli/Social4.png,stimuli/Nonsocial3.png,stimuli/Nonsocial4.png,,,"(-0.7, -0.5)",cs_pos_s,"(-0.7, 0.5)",cs_neg_ns,"(0.7, -0.5)",cs_pos_ns,"(0.7, 0.5)",cs_neg_s_new,0,0,0,0,,,,,,,,,,,,,,,,,,,,,,,,,,,,,0,3,3,8,,,,,,,,,,,,,,,,,,,,,,,,,,,,,,,,,,,,,,,,,,,,,,41,A,2024-05-17_14h20.40.267,attentional_competition_task,2022.2.4,143.9650567833869,
positions.xlsx,positions_test.xlsx,positions_test_new.xlsx,stimuli.xlsx,stimuli_new.xlsx,stimuli/Social1.png,stimuli/Social2.png,stimuli/Nonsocial1.png,stimuli/Nonsocial2.png,stimuli/Social3.png,stimuli/Social4.png,stimuli/Nonsocial3.png,stimuli/Nonsocial4.png,,,"(-0.7, -0.5)",cs_pos_ns_new,"(-0.7, 0.5)",cs_pos_s,"(0.7, -0.5)",cs_neg_ns,"(0.7, 0.5)",cs_neg_s,0,0,0,0,,,,,,,,,,,,,,,,,,,,,,,,,,,,,0,4,4,41,0,0,0,0,,,,,,,,,,,,,,,444,reward,,,,,,1314.5126527999819,1314.5126527999819,1314.5126527999819,1314.5126527999819,1,0.4816679999930784,0.4948721000109799,1,0.599485500017181,0.5994894000177737,0,,,0,,,1315.1237355000048,1315.1237355000048,1315.1237355000048,1315.1237355000048,41,A,2024-05-17_14h20.40.267,attentional_competition_task,2022.2.4,143.9650567833869,
positions.xlsx,positions_test.xlsx,positions_test_new.xlsx,stimuli.xlsx,stimuli_new.xlsx,stimuli/Social1.png,stimuli/Social2.png,stimuli/Nonsocial1.png,stimuli/Nonsocial2.png,stimuli/Social3.png,stimuli/Social4.png,stimuli/Nonsocial3.png,stimuli/Nonsocial4.png,,,"(-0.7, -0.5)",cs_pos_ns_new,"(-0.7, 0.5)",cs_pos_s,"(0.7, -0.5)",cs_neg_ns,"(0.7, 0.5)",cs_neg_s,0,0,0,0,,,,,,,,,,,,,,,,,,,,,,,,,,,,,0,4,4,41,1,0,1,0,,,,,,,,,,,,,,,441,loss,,,,,,1315.6584288000013,1315.6584288000013,1315.6584288000013,1315.6584288000013,0,,,0,,,1,0.02914450000389479,0.029148500005248934,0,,,1315.6584288000013,1315.6584288000013,1315.6584288000013,1315.6584288000013,41,A,2024-05-17_14h20.40.267,attentional_competition_task,2022.2.4,143.9650567833869,
positions.xlsx,positions_test.xlsx,positions_test_new.xlsx,stimuli.xlsx,stimuli_new.xlsx,stimuli/Social1.png,stimuli/Social2.png,stimuli/Nonsocial1.png,stimuli/Nonsocial2.png,stimuli/Social3.png,stimuli/Social4.png,stimuli/Nonsocial3.png,stimuli/Nonsocial4.png,,,"(-0.7, -0.5)",cs_pos_ns_new,"(-0.7, 0.5)",cs_pos_s,"(0.7, -0.5)",cs_neg_ns,"(0.7, 0.5)",cs_neg_s,0,0,0,0,,,,,,,,,,,,,,,,,,,,,,,,,,,,,0,4,4,41,2,0,2,0,,,,,,,,,,,,,,,438,loss,,,,,,1316.158412299992,1316.158412299992,1316.158412299992,1316.158412299992,0,,,0,,,0,,,0,,,1317.0334011999948,1317.0334011999948,1317.0334011999948,1317.0334011999948,41,A,2024-05-17_14h20.40.267,attentional_competition_task,2022.2.4,143.9650567833869,
positions.xlsx,positions_test.xlsx,positions_test_new.xlsx,stimuli.xlsx,stimuli_new.xlsx,stimuli/Social1.png,stimuli/Social2.png,stimuli/Nonsocial1.png,stimuli/Nonsocial2.png,stimuli/Social3.png,stimuli/Social4.png,stimuli/Nonsocial3.png,stimuli/Nonsocial4.png,,,"(-0.7, -0.5)",cs_pos_ns_new,"(-0.7, 0.5)",cs_pos_s,"(0.7, -0.5)",cs_neg_ns,"(0.7, 0.5)",cs_neg_s,0,0,0,0,,,,,,,,,,,,,,,,,,,,,,,,,,,,,0,4,4,41,,,,,,,,,,,,,,,,,,,,,,,,,,,,,,,,,,,,,,,,,,,,,,41,A,2024-05-17_14h20.40.267,attentional_competition_task,2022.2.4,143.9650567833869,
positions.xlsx,positions_test.xlsx,positions_test_new.xlsx,stimuli.xlsx,stimuli_new.xlsx,stimuli/Social1.png,stimuli/Social2.png,stimuli/Nonsocial1.png,stimuli/Nonsocial2.png,stimuli/Social3.png,stimuli/Social4.png,stimuli/Nonsocial3.png,stimuli/Nonsocial4.png,,,"(-0.7, -0.5)",cs_neg_ns,"(-0.7, 0.5)",cs_neg_s,"(0.7, -0.5)",cs_pos_s_new,"(0.7, 0.5)",cs_pos_ns,0,0,0,0,,,,,,,,,,,,,,,,,,,,,,,,,,,,,0,5,5,35,0,0,0,0,,,,,,,,,,,,,,,435,loss,,,,,,1323.470639999985,1323.470639999985,1323.470639999985,1323.470639999985,0,,,1,0.599799499992514,0.5998040999984369,0,,,0,,,1324.0747600999894,1324.0747600999894,1324.0747600999894,1324.0747600999894,41,A,2024-05-17_14h20.40.267,attentional_competition_task,2022.2.4,143.9650567833869,
positions.xlsx,positions_test.xlsx,positions_test_new.xlsx,stimuli.xlsx,stimuli_new.xlsx,stimuli/Social1.png,stimuli/Social2.png,stimuli/Nonsocial1.png,stimuli/Nonsocial2.png,stimuli/Social3.png,stimuli/Social4.png,stimuli/Nonsocial3.png,stimuli/Nonsocial4.png,,,"(-0.7, -0.5)",cs_neg_ns,"(-0.7, 0.5)",cs_neg_s,"(0.7, -0.5)",cs_pos_s_new,"(0.7, 0.5)",cs_pos_ns,0,0,0,0,,,,,,,,,,,,,,,,,,,,,,,,,,,,,0,5,5,35,1,0,1,0,,,,,,,,,,,,,,,432,loss,,,,,,1324.58164270001,1324.58164270001,1324.58164270001,1324.58164270001,0,,,0,,,0,,,0,,,1325.9844217000064,1325.9844217000064,1325.9844217000064,1325.9844217000064,41,A,2024-05-17_14h20.40.267,attentional_competition_task,2022.2.4,143.9650567833869,
positions.xlsx,positions_test.xlsx,positions_test_new.xlsx,stimuli.xlsx,stimuli_new.xlsx,stimuli/Social1.png,stimuli/Social2.png,stimuli/Nonsocial1.png,stimuli/Nonsocial2.png,stimuli/Social3.png,stimuli/Social4.png,stimuli/Nonsocial3.png,stimuli/Nonsocial4.png,,,"(-0.7, -0.5)",cs_neg_ns,"(-0.7, 0.5)",cs_neg_s,"(0.7, -0.5)",cs_pos_s_new,"(0.7, 0.5)",cs_pos_ns,0,0,0,0,,,,,,,,,,,,,,,,,,,,,,,,,,,,,0,5,5,35,,,,,,,,,,,,,,,,,,,,,,,,,,,,,,,,,,,,,,,,,,,,,,41,A,2024-05-17_14h20.40.267,attentional_competition_task,2022.2.4,143.9650567833869,
positions.xlsx,positions_test.xlsx,positions_test_new.xlsx,stimuli.xlsx,stimuli_new.xlsx,stimuli/Social1.png,stimuli/Social2.png,stimuli/Nonsocial1.png,stimuli/Nonsocial2.png,stimuli/Social3.png,stimuli/Social4.png,stimuli/Nonsocial3.png,stimuli/Nonsocial4.png,,,"(-0.7, -0.5)",cs_neg_s_new,"(-0.7, 0.5)",cs_neg_ns,"(0.7, -0.5)",cs_pos_ns,"(0.7, 0.5)",cs_pos_s,0,0,0,0,,,,,,,,,,,,,,,,,,,,,,,,,,,,,0,6,6,12,0,0,0,0,,,,,,,,,,,,,,,435,reward,,,,,,1331.442520599987,1331.442520599987,1331.442520599987,1331.442520599987,0,,,0,,,0,,,1,0.7044461000186857,0.7114720000245143,1332.1647407999844,1332.1647407999844,1332.1647407999844,1332.1647407999844,41,A,2024-05-17_14h20.40.267,attentional_competition_task,2022.2.4,143.9650567833869,
positions.xlsx,positions_test.xlsx,positions_test_new.xlsx,stimuli.xlsx,stimuli_new.xlsx,stimuli/Social1.png,stimuli/Social2.png,stimuli/Nonsocial1.png,stimuli/Nonsocial2.png,stimuli/Social3.png,stimuli/Social4.png,stimuli/Nonsocial3.png,stimuli/Nonsocial4.png,,,"(-0.7, -0.5)",cs_neg_s_new,"(-0.7, 0.5)",cs_neg_ns,"(0.7, -0.5)",cs_pos_ns,"(0.7, 0.5)",cs_pos_s,0,0,0,0,,,,,,,,,,,,,,,,,,,,,,,,,,,,,0,6,6,12,1,0,1,0,,,,,,,,,,,,,,,438,reward,,,,,,1332.6646862000052,1332.6646862000052,1332.6646862000052,1332.6646862000052,0,,,0,,,0,,,1,0.030154599982779473,0.12089079999714158,1333.9632512999815,1333.9632512999815,1333.9632512999815,1333.9632512999815,41,A,2024-05-17_14h20.40.267,attentional_competition_task,2022.2.4,143.9650567833869,
positions.xlsx,positions_test.xlsx,positions_test_new.xlsx,stimuli.xlsx,stimuli_new.xlsx,stimuli/Social1.png,stimuli/Social2.png,stimuli/Nonsocial1.png,stimuli/Nonsocial2.png,stimuli/Social3.png,stimuli/Social4.png,stimuli/Nonsocial3.png,stimuli/Nonsocial4.png,,,"(-0.7, -0.5)",cs_neg_s_new,"(-0.7, 0.5)",cs_neg_ns,"(0.7, -0.5)",cs_pos_ns,"(0.7, 0.5)",cs_pos_s,0,0,0,0,,,,,,,,,,,,,,,,,,,,,,,,,,,,,0,6,6,12,,,,,,,,,,,,,,,,,,,,,,,,,,,,,,,,,,,,,,,,,,,,,,41,A,2024-05-17_14h20.40.267,attentional_competition_task,2022.2.4,143.9650567833869,
positions.xlsx,positions_test.xlsx,positions_test_new.xlsx,stimuli.xlsx,stimuli_new.xlsx,stimuli/Social1.png,stimuli/Social2.png,stimuli/Nonsocial1.png,stimuli/Nonsocial2.png,stimuli/Social3.png,stimuli/Social4.png,stimuli/Nonsocial3.png,stimuli/Nonsocial4.png,,,"(-0.7, -0.5)",cs_pos_s_new,"(-0.7, 0.5)",cs_neg_s,"(0.7, -0.5)",cs_neg_ns,"(0.7, 0.5)",cs_pos_ns,0,0,0,0,,,,,,,,,,,,,,,,,,,,,,,,,,,,,0,7,7,31,0,0,0,0,,,,,,,,,,,,,,,441,reward,,,,,,1340.3449513000087,1340.3449513000087,1340.3449513000087,1340.3449513000087,0,,,0,,,0,,,1,0.5232534999959171,0.5232568999927025,1340.872713299992,1340.872713299992,1340.872713299992,1340.872713299992,41,A,2024-05-17_14h20.40.267,attentional_competition_task,2022.2.4,143.9650567833869,
positions.xlsx,positions_test.xlsx,positions_test_new.xlsx,stimuli.xlsx,stimuli_new.xlsx,stimuli/Social1.png,stimuli/Social2.png,stimuli/Nonsocial1.png,stimuli/Nonsocial2.png,stimuli/Social3.png,stimuli/Social4.png,stimuli/Nonsocial3.png,stimuli/Nonsocial4.png,,,"(-0.7, -0.5)",cs_pos_s_new,"(-0.7, 0.5)",cs_neg_s,"(0.7, -0.5)",cs_neg_ns,"(0.7, 0.5)",cs_pos_ns,0,0,0,0,,,,,,,,,,,,,,,,,,,,,,,,,,,,,0,7,7,31,1,0,1,0,,,,,,,,,,,,,,,444,reward,,,,,,1341.3726924000075,1341.3726924000075,1341.3726924000075,1341.3726924000075,0,,,0,,,0,,,0,,,1342.8587429999898,1342.8587429999898,1342.8587429999898,1342.8587429999898,41,A,2024-05-17_14h20.40.267,attentional_competition_task,2022.2.4,143.9650567833869,
positions.xlsx,positions_test.xlsx,positions_test_new.xlsx,stimuli.xlsx,stimuli_new.xlsx,stimuli/Social1.png,stimuli/Social2.png,stimuli/Nonsocial1.png,stimuli/Nonsocial2.png,stimuli/Social3.png,stimuli/Social4.png,stimuli/Nonsocial3.png,stimuli/Nonsocial4.png,,,"(-0.7, -0.5)",cs_pos_s_new,"(-0.7, 0.5)",cs_neg_s,"(0.7, -0.5)",cs_neg_ns,"(0.7, 0.5)",cs_pos_ns,0,0,0,0,,,,,,,,,,,,,,,,,,,,,,,,,,,,,0,7,7,31,,,,,,,,,,,,,,,,,,,,,,,,,,,,,,,,,,,,,,,,,,,,,,41,A,2024-05-17_14h20.40.267,attentional_competition_task,2022.2.4,143.9650567833869,
positions.xlsx,positions_test.xlsx,positions_test_new.xlsx,stimuli.xlsx,stimuli_new.xlsx,stimuli/Social1.png,stimuli/Social2.png,stimuli/Nonsocial1.png,stimuli/Nonsocial2.png,stimuli/Social3.png,stimuli/Social4.png,stimuli/Nonsocial3.png,stimuli/Nonsocial4.png,,,"(-0.7, -0.5)",cs_neg_s,"(-0.7, 0.5)",cs_neg_ns_new,"(0.7, -0.5)",cs_pos_s,"(0.7, 0.5)",cs_pos_ns,0,0,0,0,,,,,,,,,,,,,,,,,,,,,,,,,,,,,0,8,8,25,0,0,0,0,,,,,,,,,,,,,,,447,reward,,,,,,1348.8862696999859,1348.8862696999859,1348.8862696999859,1348.8862696999859,0,,,0,,,0,,,1,0.5718544000119437,0.5718582000117749,1349.4695517999935,1349.4695517999935,1349.4695517999935,1349.4695517999935,41,A,2024-05-17_14h20.40.267,attentional_competition_task,2022.2.4,143.9650567833869,
positions.xlsx,positions_test.xlsx,positions_test_new.xlsx,stimuli.xlsx,stimuli_new.xlsx,stimuli/Social1.png,stimuli/Social2.png,stimuli/Nonsocial1.png,stimuli/Nonsocial2.png,stimuli/Social3.png,stimuli/Social4.png,stimuli/Nonsocial3.png,stimuli/Nonsocial4.png,,,"(-0.7, -0.5)",cs_neg_s,"(-0.7, 0.5)",cs_neg_ns_new,"(0.7, -0.5)",cs_pos_s,"(0.7, 0.5)",cs_pos_ns,0,0,0,0,,,,,,,,,,,,,,,,,,,,,,,,,,,,,0,8,8,25,1,0,1,0,,,,,,,,,,,,,,,450,reward,,,,,,1349.969534600008,1349.969534600008,1349.969534600008,1349.969534600008,0,,,0,,,1,0.037806800013640895,0.03781050001271069,0,,,1350.0112270999816,1350.0112270999816,1350.0112270999816,1350.0112270999816,41,A,2024-05-17_14h20.40.267,attentional_competition_task,2022.2.4,143.9650567833869,
positions.xlsx,positions_test.xlsx,positions_test_new.xlsx,stimuli.xlsx,stimuli_new.xlsx,stimuli/Social1.png,stimuli/Social2.png,stimuli/Nonsocial1.png,stimuli/Nonsocial2.png,stimuli/Social3.png,stimuli/Social4.png,stimuli/Nonsocial3.png,stimuli/Nonsocial4.png,,,"(-0.7, -0.5)",cs_neg_s,"(-0.7, 0.5)",cs_neg_ns_new,"(0.7, -0.5)",cs_pos_s,"(0.7, 0.5)",cs_pos_ns,0,0,0,0,,,,,,,,,,,,,,,,,,,,,,,,,,,,,0,8,8,25,2,0,2,0,,,,,,,,,,,,,,,453,reward,,,,,,1350.511203400005,1350.511203400005,1350.511203400005,1350.511203400005,0,,,0,,,0,,,0,,,1351.4070101999969,1351.4070101999969,1351.4070101999969,1351.4070101999969,41,A,2024-05-17_14h20.40.267,attentional_competition_task,2022.2.4,143.9650567833869,
positions.xlsx,positions_test.xlsx,positions_test_new.xlsx,stimuli.xlsx,stimuli_new.xlsx,stimuli/Social1.png,stimuli/Social2.png,stimuli/Nonsocial1.png,stimuli/Nonsocial2.png,stimuli/Social3.png,stimuli/Social4.png,stimuli/Nonsocial3.png,stimuli/Nonsocial4.png,,,"(-0.7, -0.5)",cs_neg_s,"(-0.7, 0.5)",cs_neg_ns_new,"(0.7, -0.5)",cs_pos_s,"(0.7, 0.5)",cs_pos_ns,0,0,0,0,,,,,,,,,,,,,,,,,,,,,,,,,,,,,0,8,8,25,,,,,,,,,,,,,,,,,,,,,,,,,,,,,,,,,,,,,,,,,,,,,,41,A,2024-05-17_14h20.40.267,attentional_competition_task,2022.2.4,143.9650567833869,
positions.xlsx,positions_test.xlsx,positions_test_new.xlsx,stimuli.xlsx,stimuli_new.xlsx,stimuli/Social1.png,stimuli/Social2.png,stimuli/Nonsocial1.png,stimuli/Nonsocial2.png,stimuli/Social3.png,stimuli/Social4.png,stimuli/Nonsocial3.png,stimuli/Nonsocial4.png,,,"(-0.7, -0.5)",cs_pos_s,"(-0.7, 0.5)",cs_pos_ns,"(0.7, -0.5)",cs_neg_ns_new,"(0.7, 0.5)",cs_neg_s,0,0,0,0,,,,,,,,,,,,,,,,,,,,,,,,,,,,,0,9,9,23,0,0,0,0,,,,,,,,,,,,,,,456,reward,,,,,,1357.3442439000064,1357.3442439000064,1357.3442439000064,1357.3442439000064,0,,,1,0.4880791000032332,0.49501310000778176,0,,,0,,,1357.8511615000025,1357.8511615000025,1357.8511615000025,1357.8511615000025,41,A,2024-05-17_14h20.40.267,attentional_competition_task,2022.2.4,143.9650567833869,
