posFile,posFileTest,posFileTestNew,stimFile,stimFileNew,cs_neg_s,cs_pos_s,cs_neg_ns,cs_pos_ns,cs_neg_s_new,cs_pos_s_new,cs_neg_ns_new,cs_pos_ns_new,stim,position,position1,stim1,position2,stim2,position3,stim3,position4,stim4,blocks.thisRepN,blocks.thisTrialN,blocks.thisN,blocks.thisIndex,ratingtrials1.thisRepN,ratingtrials1.thisTrialN,ratingtrials1.thisN,ratingtrials1.thisIndex,search_task_trials.thisRepN,search_task_trials.thisTrialN,search_task_trials.thisN,search_task_trials.thisIndex,learning_trials.thisRepN,learning_trials.thisTrialN,learning_trials.thisN,learning_trials.thisIndex,trials.thisRepN,trials.thisTrialN,trials.thisN,trials.thisIndex,ratingtrials2.thisRepN,ratingtrials2.thisTrialN,ratingtrials2.thisN,ratingtrials2.thisIndex,testtrials.thisRepN,testtrials.thisTrialN,testtrials.thisN,testtrials.thisIndex,loop_test.thisRepN,loop_test.thisTrialN,loop_test.thisN,loop_test.thisIndex,testtrials_novelty.thisRepN,testtrials_novelty.thisTrialN,testtrials_novelty.thisN,testtrials_novelty.thisIndex,loop_test_novelty.thisRepN,loop_test_novelty.thisTrialN,loop_test_novelty.thisN,loop_test_novelty.thisIndex,ratingtrials3.thisRepN,ratingtrials3.thisTrialN,ratingtrials3.thisN,ratingtrials3.thisIndex,textStart.started,textStartExp.started,imageRating.started,sliderStim.response,sliderStim.rt,textStartSearch.started,target_positions,distractor_positions,textStartTask.started,image.started,score,outcome,roi.numLooks,roi.timesOn,roi.timesOff,imageFeedback.started,textTestInstr.started,test_image1.started,test_image2.started,test_image3.started,test_image4.started,test_roi1.numLooks,test_roi1.timesOn,test_roi1.timesOff,test_roi2.numLooks,test_roi2.timesOn,test_roi2.timesOff,test_roi3.numLooks,test_roi3.timesOn,test_roi3.timesOff,test_roi4.numLooks,test_roi4.timesOn,test_roi4.timesOff,test_image_feedback1.started,test_image_feedback2.started,test_iamge_feedback3.started,test_iamge_feedback4.started,participant,group,date,expName,psychopyVersion,frameRate,
positions.xlsx,positions_test.xlsx,positions_test_new.xlsx,stimuli.xlsx,stimuli_new.xlsx,stimuli/Social2.png,stimuli/Social1.png,stimuli/Nonsocial2.png,stimuli/Nonsocial1.png,stimuli/Social4.png,stimuli/Social3.png,stimuli/Nonsocial4.png,stimuli/Nonsocial3.png,cs_neg_s,,,,,,,,,,0,0,0,0,0,0,0,0,,,,,,,,,,,,,,,,,,,,,,,,,,,,,,,,,,,,,13.221107400022447,156.99756609997712,166.53308700001799,8.0,8.75723929994274,,,,,,,,,,,,,,,,,,,,,,,,,,,,,,,,,47,B,2024-05-22_10h19.16.229,attentional_competition_task,2022.2.4,143.93501039820237,
positions.xlsx,positions_test.xlsx,positions_test_new.xlsx,stimuli.xlsx,stimuli_new.xlsx,stimuli/Social2.png,stimuli/Social1.png,stimuli/Nonsocial2.png,stimuli/Nonsocial1.png,stimuli/Social4.png,stimuli/Social3.png,stimuli/Nonsocial4.png,stimuli/Nonsocial3.png,cs_neg_ns,,,,,,,,,,0,0,0,0,0,1,1,1,,,,,,,,,,,,,,,,,,,,,,,,,,,,,,,,,,,,,,,177.85207460005768,10.0,2.888106899918057,,,,,,,,,,,,,,,,,,,,,,,,,,,,,,,,,47,B,2024-05-22_10h19.16.229,attentional_competition_task,2022.2.4,143.93501039820237,
positions.xlsx,positions_test.xlsx,positions_test_new.xlsx,stimuli.xlsx,stimuli_new.xlsx,stimuli/Social2.png,stimuli/Social1.png,stimuli/Nonsocial2.png,stimuli/Nonsocial1.png,stimuli/Social4.png,stimuli/Social3.png,stimuli/Nonsocial4.png,stimuli/Nonsocial3.png,cs_pos_ns,,,,,,,,,,0,0,0,0,0,2,2,3,,,,,,,,,,,,,,,,,,,,,,,,,,,,,,,,,,,,,,,181.01862139999866,10.0,1.2998188000638038,,,,,,,,,,,,,,,,,,,,,,,,,,,,,,,,,47,B,2024-05-22_10h19.16.229,attentional_competition_task,2022.2.4,143.93501039820237,
positions.xlsx,positions_test.xlsx,positions_test_new.xlsx,stimuli.xlsx,stimuli_new.xlsx,stimuli/Social2.png,stimuli/Social1.png,stimuli/Nonsocial2.png,stimuli/Nonsocial1.png,stimuli/Social4.png,stimuli/Social3.png,stimuli/Nonsocial4.png,stimuli/Nonsocial3.png,cs_pos_s,,,,,,,,,,0,0,0,0,0,3,3,2,,,,,,,,,,,,,,,,,,,,,,,,,,,,,,,,,,,,,,,182.74078049999662,5.0,3.613309200038202,,,,,,,,,,,,,,,,,,,,,,,,,,,,,,,,,47,B,2024-05-22_10h19.16.229,attentional_competition_task,2022.2.4,143.93501039820237,
positions.xlsx,positions_test.xlsx,positions_test_new.xlsx,stimuli.xlsx,stimuli_new.xlsx,stimuli/Social2.png,stimuli/Social1.png,stimuli/Nonsocial2.png,stimuli/Nonsocial1.png,stimuli/Social4.png,stimuli/Social3.png,stimuli/Nonsocial4.png,stimuli/Nonsocial3.png,,,,,,,,,,,0,0,0,0,,,,,0,0,0,0,,,,,,,,,,,,,,,,,,,,,,,,,,,,,,,,,,,,,,186.60863879998215,"[[-0.9, 0.7], [0.6749999999999999, -0.30000000000000004], [-0.45, 0.19999999999999996], [0.9, -0.30000000000000004], [-0.9, -0.30000000000000004], [0.0, -0.30000000000000004], [-0.45, -0.30000000000000004], [0.0, 0.7], [0.22499999999999998, 0.7], [0.22499999999999998, 0.19999999999999996], [-0.675, 0.19999999999999996], [-0.675, -0.30000000000000004], [0.45000000000000007, 0.19999999999999996], [0.0, 0.19999999999999996], [-0.22499999999999998, -0.8]]","[[-0.9, -0.8], [0.0, -0.8], [0.9, 0.19999999999999996], [-0.22499999999999998, -0.30000000000000004], [-0.45, -0.8], [-0.675, -0.8], [0.22499999999999998, -0.30000000000000004], [0.45000000000000007, 0.7], [0.6749999999999999, 0.7], [0.45000000000000007, -0.8], [0.22499999999999998, -0.8], [-0.22499999999999998, 0.19999999999999996], [0.6749999999999999, -0.8], [-0.675, 0.7], [0.9, 0.7]]",,,,,,,,,,,,,,,,,,,,,,,,,,,,,,47,B,2024-05-22_10h19.16.229,attentional_competition_task,2022.2.4,143.93501039820237,
positions.xlsx,positions_test.xlsx,positions_test_new.xlsx,stimuli.xlsx,stimuli_new.xlsx,stimuli/Social2.png,stimuli/Social1.png,stimuli/Nonsocial2.png,stimuli/Nonsocial1.png,stimuli/Social4.png,stimuli/Social3.png,stimuli/Nonsocial4.png,stimuli/Nonsocial3.png,,,,,,,,,,,0,0,0,0,,,,,1,0,1,0,,,,,,,,,,,,,,,,,,,,,,,,,,,,,,,,,,,,,,,"[[-0.9, 0.7], [0.45000000000000007, -0.30000000000000004], [0.9, 0.19999999999999996], [0.6749999999999999, -0.30000000000000004], [-0.9, 0.19999999999999996], [0.0, -0.8], [0.0, -0.30000000000000004], [0.0, 0.19999999999999996], [-0.45, -0.8], [0.22499999999999998, -0.30000000000000004], [-0.22499999999999998, 0.19999999999999996], [-0.675, 0.19999999999999996], [0.6749999999999999, 0.7], [0.0, 0.7], [0.6749999999999999, -0.8]]","[[0.45000000000000007, -0.8], [-0.22499999999999998, -0.30000000000000004], [-0.9, -0.30000000000000004], [0.6749999999999999, 0.19999999999999996], [0.9, 0.7], [0.9, -0.8], [-0.675, -0.30000000000000004], [0.22499999999999998, 0.19999999999999996], [-0.675, -0.8], [0.22499999999999998, -0.8], [0.22499999999999998, 0.7], [-0.45, 0.19999999999999996], [-0.9, -0.8], [-0.22499999999999998, 0.7], [-0.45, -0.30000000000000004]]",,,,,,,,,,,,,,,,,,,,,,,,,,,,,,47,B,2024-05-22_10h19.16.229,attentional_competition_task,2022.2.4,143.93501039820237,
positions.xlsx,positions_test.xlsx,positions_test_new.xlsx,stimuli.xlsx,stimuli_new.xlsx,stimuli/Social2.png,stimuli/Social1.png,stimuli/Nonsocial2.png,stimuli/Nonsocial1.png,stimuli/Social4.png,stimuli/Social3.png,stimuli/Nonsocial4.png,stimuli/Nonsocial3.png,cs_pos_s,"(-0.7, -0.5)",,,,,,,,,0,0,0,0,,,,,,,,,0,0,0,5,,,,,,,,,,,,,,,,,,,,,,,,,,,,,,,,,,,,,269.75807009998243,285.9310733000748,3,reward,1,0.36739999998826534,0.36740389990154654,286.30598160007503,,,,,,,,,,,,,,,,,,,,,,47,B,2024-05-22_10h19.16.229,attentional_competition_task,2022.2.4,143.93501039820237,
positions.xlsx,positions_test.xlsx,positions_test_new.xlsx,stimuli.xlsx,stimuli_new.xlsx,stimuli/Social2.png,stimuli/Social1.png,stimuli/Nonsocial2.png,stimuli/Nonsocial1.png,stimuli/Social4.png,stimuli/Social3.png,stimuli/Nonsocial4.png,stimuli/Nonsocial3.png,cs_pos_s,"(0.7, 0.5)",,,,,,,,,0,0,0,0,,,,,,,,,0,1,1,6,,,,,,,,,,,,,,,,,,,,,,,,,,,,,,,,,,,,,,293.9515116000548,6,reward,1,0.4582398000638932,0.45824339997489005,294.4167951999698,,,,,,,,,,,,,,,,,,,,,,47,B,2024-05-22_10h19.16.229,attentional_competition_task,2022.2.4,143.93501039820237,
positions.xlsx,positions_test.xlsx,positions_test_new.xlsx,stimuli.xlsx,stimuli_new.xlsx,stimuli/Social2.png,stimuli/Social1.png,stimuli/Nonsocial2.png,stimuli/Nonsocial1.png,stimuli/Social4.png,stimuli/Social3.png,stimuli/Nonsocial4.png,stimuli/Nonsocial3.png,cs_pos_s,"(-0.7, 0.5)",,,,,,,,,0,0,0,0,,,,,,,,,0,2,2,4,,,,,,,,,,,,,,,,,,,,,,,,,,,,,,,,,,,,,,301.79843450000044,9,reward,1,0.3130675000138581,0.31308490002993494,302.11785180005245,,,,,,,,,,,,,,,,,,,,,,47,B,2024-05-22_10h19.16.229,attentional_competition_task,2022.2.4,143.93501039820237,
positions.xlsx,positions_test.xlsx,positions_test_new.xlsx,stimuli.xlsx,stimuli_new.xlsx,stimuli/Social2.png,stimuli/Social1.png,stimuli/Nonsocial2.png,stimuli/Nonsocial1.png,stimuli/Social4.png,stimuli/Social3.png,stimuli/Nonsocial4.png,stimuli/Nonsocial3.png,cs_neg_s,"(-0.7, 0.5)",,,,,,,,,0,0,0,0,,,,,,,,,0,3,3,0,,,,,,,,,,,,,,,,,,,,,,,,,,,,,,,,,,,,,,310.21480479999445,6,loss,1,0.375112000037916,0.37511579995043576,310.59670900006313,,,,,,,,,,,,,,,,,,,,,,47,B,2024-05-22_10h19.16.229,attentional_competition_task,2022.2.4,143.93501039820237,
positions.xlsx,positions_test.xlsx,positions_test_new.xlsx,stimuli.xlsx,stimuli_new.xlsx,stimuli/Social2.png,stimuli/Social1.png,stimuli/Nonsocial2.png,stimuli/Nonsocial1.png,stimuli/Social4.png,stimuli/Social3.png,stimuli/Nonsocial4.png,stimuli/Nonsocial3.png,cs_pos_s,"(0.7, -0.5)",,,,,,,,,0,0,0,0,,,,,,,,,0,4,4,7,,,,,,,,,,,,,,,,,,,,,,,,,,,,,,,,,,,,,,317.33946100005414,9,reward,1,0.5003912999527529,0.500395099981688,317.8464508999605,,,,,,,,,,,,,,,,,,,,,,47,B,2024-05-22_10h19.16.229,attentional_competition_task,2022.2.4,143.93501039820237,
positions.xlsx,positions_test.xlsx,positions_test_new.xlsx,stimuli.xlsx,stimuli_new.xlsx,stimuli/Social2.png,stimuli/Social1.png,stimuli/Nonsocial2.png,stimuli/Nonsocial1.png,stimuli/Social4.png,stimuli/Social3.png,stimuli/Nonsocial4.png,stimuli/Nonsocial3.png,cs_neg_ns,"(0.7, -0.5)",,,,,,,,,0,0,0,0,,,,,,,,,0,5,5,11,,,,,,,,,,,,,,,,,,,,,,,,,,,,,,,,,,,,,,325.43635630002245,6,loss,1,0.5211870999773964,0.5211907000048086,325.96414609998465,,,,,,,,,,,,,,,,,,,,,,47,B,2024-05-22_10h19.16.229,attentional_competition_task,2022.2.4,143.93501039820237,
positions.xlsx,positions_test.xlsx,positions_test_new.xlsx,stimuli.xlsx,stimuli_new.xlsx,stimuli/Social2.png,stimuli/Social1.png,stimuli/Nonsocial2.png,stimuli/Nonsocial1.png,stimuli/Social4.png,stimuli/Social3.png,stimuli/Nonsocial4.png,stimuli/Nonsocial3.png,cs_pos_ns,"(0.7, -0.5)",,,,,,,,,0,0,0,0,,,,,,,,,0,6,6,15,,,,,,,,,,,,,,,,,,,,,,,,,,,,,,,,,,,,,,333.88742729998194,9,reward,1,0.47957289998885244,0.47958959999959916,334.3735116000753,,,,,,,,,,,,,,,,,,,,,,47,B,2024-05-22_10h19.16.229,attentional_competition_task,2022.2.4,143.93501039820237,
positions.xlsx,positions_test.xlsx,positions_test_new.xlsx,stimuli.xlsx,stimuli_new.xlsx,stimuli/Social2.png,stimuli/Social1.png,stimuli/Nonsocial2.png,stimuli/Nonsocial1.png,stimuli/Social4.png,stimuli/Social3.png,stimuli/Nonsocial4.png,stimuli/Nonsocial3.png,cs_neg_ns,"(-0.7, -0.5)",,,,,,,,,0,0,0,0,,,,,,,,,0,7,7,9,,,,,,,,,,,,,,,,,,,,,,,,,,,,,,,,,,,,,,341.69961290003266,6,loss,1,1.951737100025639,1.9517406999366358,343.65784680005163,,,,,,,,,,,,,,,,,,,,,,47,B,2024-05-22_10h19.16.229,attentional_competition_task,2022.2.4,143.93501039820237,
positions.xlsx,positions_test.xlsx,positions_test_new.xlsx,stimuli.xlsx,stimuli_new.xlsx,stimuli/Social2.png,stimuli/Social1.png,stimuli/Nonsocial2.png,stimuli/Nonsocial1.png,stimuli/Social4.png,stimuli/Social3.png,stimuli/Nonsocial4.png,stimuli/Nonsocial3.png,cs_pos_ns,"(-0.7, -0.5)",,,,,,,,,0,0,0,0,,,,,,,,,0,8,8,13,,,,,,,,,,,,,,,,,,,,,,,,,,,,,,,,,,,,,,351.102000300074,9,reward,1,0.4860780999297276,0.4860816999571398,351.5950705000432,,,,,,,,,,,,,,,,,,,,,,47,B,2024-05-22_10h19.16.229,attentional_competition_task,2022.2.4,143.93501039820237,
positions.xlsx,positions_test.xlsx,positions_test_new.xlsx,stimuli.xlsx,stimuli_new.xlsx,stimuli/Social2.png,stimuli/Social1.png,stimuli/Nonsocial2.png,stimuli/Nonsocial1.png,stimuli/Social4.png,stimuli/Social3.png,stimuli/Nonsocial4.png,stimuli/Nonsocial3.png,cs_pos_ns,"(-0.7, 0.5)",,,,,,,,,0,0,0,0,,,,,,,,,0,9,9,12,,,,,,,,,,,,,,,,,,,,,,,,,,,,,,,,,,,,,,358.9697500000475,12,reward,1,0.6742466000141576,0.6811444000340998,359.66419789998326,,,,,,,,,,,,,,,,,,,,,,47,B,2024-05-22_10h19.16.229,attentional_competition_task,2022.2.4,143.93501039820237,
positions.xlsx,positions_test.xlsx,positions_test_new.xlsx,stimuli.xlsx,stimuli_new.xlsx,stimuli/Social2.png,stimuli/Social1.png,stimuli/Nonsocial2.png,stimuli/Nonsocial1.png,stimuli/Social4.png,stimuli/Social3.png,stimuli/Nonsocial4.png,stimuli/Nonsocial3.png,cs_neg_ns,"(-0.7, 0.5)",,,,,,,,,0,0,0,0,,,,,,,,,0,10,10,8,,,,,,,,,,,,,,,,,,,,,,,,,,,,,,,,,,,,,,367.83050879999064,12,none,0,,,370.8442813999718,,,,,,,,,,,,,,,,,,,,,,47,B,2024-05-22_10h19.16.229,attentional_competition_task,2022.2.4,143.93501039820237,
positions.xlsx,positions_test.xlsx,positions_test_new.xlsx,stimuli.xlsx,stimuli_new.xlsx,stimuli/Social2.png,stimuli/Social1.png,stimuli/Nonsocial2.png,stimuli/Nonsocial1.png,stimuli/Social4.png,stimuli/Social3.png,stimuli/Nonsocial4.png,stimuli/Nonsocial3.png,cs_pos_ns,"(0.7, 0.5)",,,,,,,,,0,0,0,0,,,,,,,,,0,11,11,14,,,,,,,,,,,,,,,,,,,,,,,,,,,,,,,,,,,,,,378.78840309998486,15,reward,1,0.7433197000063956,0.7433235000353307,379.5383787000319,,,,,,,,,,,,,,,,,,,,,,47,B,2024-05-22_10h19.16.229,attentional_competition_task,2022.2.4,143.93501039820237,
positions.xlsx,positions_test.xlsx,positions_test_new.xlsx,stimuli.xlsx,stimuli_new.xlsx,stimuli/Social2.png,stimuli/Social1.png,stimuli/Nonsocial2.png,stimuli/Nonsocial1.png,stimuli/Social4.png,stimuli/Social3.png,stimuli/Nonsocial4.png,stimuli/Nonsocial3.png,cs_neg_s,"(-0.7, -0.5)",,,,,,,,,0,0,0,0,,,,,,,,,0,12,12,1,,,,,,,,,,,,,,,,,,,,,,,,,,,,,,,,,,,,,,387.32972430007067,15,none,0,,,390.3434700999642,,,,,,,,,,,,,,,,,,,,,,47,B,2024-05-22_10h19.16.229,attentional_competition_task,2022.2.4,143.93501039820237,
positions.xlsx,positions_test.xlsx,positions_test_new.xlsx,stimuli.xlsx,stimuli_new.xlsx,stimuli/Social2.png,stimuli/Social1.png,stimuli/Nonsocial2.png,stimuli/Nonsocial1.png,stimuli/Social4.png,stimuli/Social3.png,stimuli/Nonsocial4.png,stimuli/Nonsocial3.png,cs_neg_ns,"(0.7, 0.5)",,,,,,,,,0,0,0,0,,,,,,,,,0,13,13,10,,,,,,,,,,,,,,,,,,,,,,,,,,,,,,,,,,,,,,397.8292953000637,15,none,0,,,400.8361078000162,,,,,,,,,,,,,,,,,,,,,,47,B,2024-05-22_10h19.16.229,attentional_competition_task,2022.2.4,143.93501039820237,
positions.xlsx,positions_test.xlsx,positions_test_new.xlsx,stimuli.xlsx,stimuli_new.xlsx,stimuli/Social2.png,stimuli/Social1.png,stimuli/Nonsocial2.png,stimuli/Nonsocial1.png,stimuli/Social4.png,stimuli/Social3.png,stimuli/Nonsocial4.png,stimuli/Nonsocial3.png,cs_neg_s,"(0.7, 0.5)",,,,,,,,,0,0,0,0,,,,,,,,,0,14,14,2,,,,,,,,,,,,,,,,,,,,,,,,,,,,,,,,,,,,,,408.6552365999669,15,none,0,,,411.66208160005044,,,,,,,,,,,,,,,,,,,,,,47,B,2024-05-22_10h19.16.229,attentional_competition_task,2022.2.4,143.93501039820237,
positions.xlsx,positions_test.xlsx,positions_test_new.xlsx,stimuli.xlsx,stimuli_new.xlsx,stimuli/Social2.png,stimuli/Social1.png,stimuli/Nonsocial2.png,stimuli/Nonsocial1.png,stimuli/Social4.png,stimuli/Social3.png,stimuli/Nonsocial4.png,stimuli/Nonsocial3.png,cs_neg_s,"(0.7, -0.5)",,,,,,,,,0,0,0,0,,,,,,,,,0,15,15,3,,,,,,,,,,,,,,,,,,,,,,,,,,,,,,,,,,,,,,419.9187088999897,15,none,0,,,422.9254963999847,,,,,,,,,,,,,,,,,,,,,,47,B,2024-05-22_10h19.16.229,attentional_competition_task,2022.2.4,143.93501039820237,
positions.xlsx,positions_test.xlsx,positions_test_new.xlsx,stimuli.xlsx,stimuli_new.xlsx,stimuli/Social2.png,stimuli/Social1.png,stimuli/Nonsocial2.png,stimuli/Nonsocial1.png,stimuli/Social4.png,stimuli/Social3.png,stimuli/Nonsocial4.png,stimuli/Nonsocial3.png,cs_neg_ns,"(-0.7, -0.5)",,,,,,,,,0,0,0,0,,,,,,,,,1,0,16,9,,,,,,,,,,,,,,,,,,,,,,,,,,,,,,,,,,,,,,430.52242080005817,15,none,0,,,433.5362075000303,,,,,,,,,,,,,,,,,,,,,,47,B,2024-05-22_10h19.16.229,attentional_competition_task,2022.2.4,143.93501039820237,
positions.xlsx,positions_test.xlsx,positions_test_new.xlsx,stimuli.xlsx,stimuli_new.xlsx,stimuli/Social2.png,stimuli/Social1.png,stimuli/Nonsocial2.png,stimuli/Nonsocial1.png,stimuli/Social4.png,stimuli/Social3.png,stimuli/Nonsocial4.png,stimuli/Nonsocial3.png,cs_pos_ns,"(-0.7, -0.5)",,,,,,,,,0,0,0,0,,,,,,,,,1,1,17,13,,,,,,,,,,,,,,,,,,,,,,,,,,,,,,,,,,,,,,440.4942597000627,18,reward,1,0.6460928999586031,0.6460968999890611,441.15401599998586,,,,,,,,,,,,,,,,,,,,,,47,B,2024-05-22_10h19.16.229,attentional_competition_task,2022.2.4,143.93501039820237,
positions.xlsx,positions_test.xlsx,positions_test_new.xlsx,stimuli.xlsx,stimuli_new.xlsx,stimuli/Social2.png,stimuli/Social1.png,stimuli/Nonsocial2.png,stimuli/Nonsocial1.png,stimuli/Social4.png,stimuli/Social3.png,stimuli/Nonsocial4.png,stimuli/Nonsocial3.png,cs_neg_s,"(0.7, 0.5)",,,,,,,,,0,0,0,0,,,,,,,,,1,2,18,2,,,,,,,,,,,,,,,,,,,,,,,,,,,,,,,,,,,,,,448.61895989999175,18,none,0,,,451.62580190005247,,,,,,,,,,,,,,,,,,,,,,47,B,2024-05-22_10h19.16.229,attentional_competition_task,2022.2.4,143.93501039820237,
positions.xlsx,positions_test.xlsx,positions_test_new.xlsx,stimuli.xlsx,stimuli_new.xlsx,stimuli/Social2.png,stimuli/Social1.png,stimuli/Nonsocial2.png,stimuli/Nonsocial1.png,stimuli/Social4.png,stimuli/Social3.png,stimuli/Nonsocial4.png,stimuli/Nonsocial3.png,cs_neg_ns,"(0.7, 0.5)",,,,,,,,,0,0,0,0,,,,,,,,,1,3,19,10,,,,,,,,,,,,,,,,,,,,,,,,,,,,,,,,,,,,,,459.2087904000655,18,none,0,,,462.2225557999918,,,,,,,,,,,,,,,,,,,,,,47,B,2024-05-22_10h19.16.229,attentional_competition_task,2022.2.4,143.93501039820237,
positions.xlsx,positions_test.xlsx,positions_test_new.xlsx,stimuli.xlsx,stimuli_new.xlsx,stimuli/Social2.png,stimuli/Social1.png,stimuli/Nonsocial2.png,stimuli/Nonsocial1.png,stimuli/Social4.png,stimuli/Social3.png,stimuli/Nonsocial4.png,stimuli/Nonsocial3.png,cs_neg_s,"(0.7, -0.5)",,,,,,,,,0,0,0,0,,,,,,,,,1,4,20,3,,,,,,,,,,,,,,,,,,,,,,,,,,,,,,,,,,,,,,469.59727989998646,18,none,0,,,472.6040653999662,,,,,,,,,,,,,,,,,,,,,,47,B,2024-05-22_10h19.16.229,attentional_competition_task,2022.2.4,143.93501039820237,
positions.xlsx,positions_test.xlsx,positions_test_new.xlsx,stimuli.xlsx,stimuli_new.xlsx,stimuli/Social2.png,stimuli/Social1.png,stimuli/Nonsocial2.png,stimuli/Nonsocial1.png,stimuli/Social4.png,stimuli/Social3.png,stimuli/Nonsocial4.png,stimuli/Nonsocial3.png,cs_pos_s,"(-0.7, 0.5)",,,,,,,,,0,0,0,0,,,,,,,,,1,5,21,4,,,,,,,,,,,,,,,,,,,,,,,,,,,,,,,,,,,,,,480.5621149999788,21,reward,1,0.5628541000187397,0.5628580000484362,481.13153060001787,,,,,,,,,,,,,,,,,,,,,,47,B,2024-05-22_10h19.16.229,attentional_competition_task,2022.2.4,143.93501039820237,
positions.xlsx,positions_test.xlsx,positions_test_new.xlsx,stimuli.xlsx,stimuli_new.xlsx,stimuli/Social2.png,stimuli/Social1.png,stimuli/Nonsocial2.png,stimuli/Nonsocial1.png,stimuli/Social4.png,stimuli/Social3.png,stimuli/Nonsocial4.png,stimuli/Nonsocial3.png,cs_pos_s,"(-0.7, -0.5)",,,,,,,,,0,0,0,0,,,,,,,,,1,6,22,5,,,,,,,,,,,,,,,,,,,,,,,,,,,,,,,,,,,,,,488.36039759998675,24,reward,1,0.5978403999470174,0.5978444999782369,488.96455460006837,,,,,,,,,,,,,,,,,,,,,,47,B,2024-05-22_10h19.16.229,attentional_competition_task,2022.2.4,143.93501039820237,
positions.xlsx,positions_test.xlsx,positions_test_new.xlsx,stimuli.xlsx,stimuli_new.xlsx,stimuli/Social2.png,stimuli/Social1.png,stimuli/Nonsocial2.png,stimuli/Nonsocial1.png,stimuli/Social4.png,stimuli/Social3.png,stimuli/Nonsocial4.png,stimuli/Nonsocial3.png,cs_neg_s,"(-0.7, -0.5)",,,,,,,,,0,0,0,0,,,,,,,,,1,7,23,1,,,,,,,,,,,,,,,,,,,,,,,,,,,,,,,,,,,,,,496.99895689997356,24,none,0,,,500.00580310006626,,,,,,,,,,,,,,,,,,,,,,47,B,2024-05-22_10h19.16.229,attentional_competition_task,2022.2.4,143.93501039820237,
positions.xlsx,positions_test.xlsx,positions_test_new.xlsx,stimuli.xlsx,stimuli_new.xlsx,stimuli/Social2.png,stimuli/Social1.png,stimuli/Nonsocial2.png,stimuli/Nonsocial1.png,stimuli/Social4.png,stimuli/Social3.png,stimuli/Nonsocial4.png,stimuli/Nonsocial3.png,cs_pos_ns,"(0.7, -0.5)",,,,,,,,,0,0,0,0,,,,,,,,,1,8,24,15,,,,,,,,,,,,,,,,,,,,,,,,,,,,,,,,,,,,,,508.19296160002705,27,reward,1,1.3750814000377432,1.3750850999495015,509.5748857000144,,,,,,,,,,,,,,,,,,,,,,47,B,2024-05-22_10h19.16.229,attentional_competition_task,2022.2.4,143.93501039820237,
positions.xlsx,positions_test.xlsx,positions_test_new.xlsx,stimuli.xlsx,stimuli_new.xlsx,stimuli/Social2.png,stimuli/Social1.png,stimuli/Nonsocial2.png,stimuli/Nonsocial1.png,stimuli/Social4.png,stimuli/Social3.png,stimuli/Nonsocial4.png,stimuli/Nonsocial3.png,cs_neg_s,"(-0.7, 0.5)",,,,,,,,,0,0,0,0,,,,,,,,,1,9,25,0,,,,,,,,,,,,,,,,,,,,,,,,,,,,,,,,,,,,,,517.1786995000439,27,none,0,,,520.1924987999955,,,,,,,,,,,,,,,,,,,,,,47,B,2024-05-22_10h19.16.229,attentional_competition_task,2022.2.4,143.93501039820237,
positions.xlsx,positions_test.xlsx,positions_test_new.xlsx,stimuli.xlsx,stimuli_new.xlsx,stimuli/Social2.png,stimuli/Social1.png,stimuli/Nonsocial2.png,stimuli/Nonsocial1.png,stimuli/Social4.png,stimuli/Social3.png,stimuli/Nonsocial4.png,stimuli/Nonsocial3.png,cs_pos_s,"(0.7, -0.5)",,,,,,,,,0,0,0,0,,,,,,,,,1,10,26,7,,,,,,,,,,,,,,,,,,,,,,,,,,,,,,,,,,,,,,528.0740885999985,30,reward,1,0.4721080999588594,0.47211169998627156,528.5532268000534,,,,,,,,,,,,,,,,,,,,,,47,B,2024-05-22_10h19.16.229,attentional_competition_task,2022.2.4,143.93501039820237,
positions.xlsx,positions_test.xlsx,positions_test_new.xlsx,stimuli.xlsx,stimuli_new.xlsx,stimuli/Social2.png,stimuli/Social1.png,stimuli/Nonsocial2.png,stimuli/Nonsocial1.png,stimuli/Social4.png,stimuli/Social3.png,stimuli/Nonsocial4.png,stimuli/Nonsocial3.png,cs_pos_ns,"(-0.7, 0.5)",,,,,,,,,0,0,0,0,,,,,,,,,1,11,27,12,,,,,,,,,,,,,,,,,,,,,,,,,,,,,,,,,,,,,,535.9001526000211,33,reward,1,0.6047033999348059,0.6047069999622181,536.5112586000469,,,,,,,,,,,,,,,,,,,,,,47,B,2024-05-22_10h19.16.229,attentional_competition_task,2022.2.4,143.93501039820237,
positions.xlsx,positions_test.xlsx,positions_test_new.xlsx,stimuli.xlsx,stimuli_new.xlsx,stimuli/Social2.png,stimuli/Social1.png,stimuli/Nonsocial2.png,stimuli/Nonsocial1.png,stimuli/Social4.png,stimuli/Social3.png,stimuli/Nonsocial4.png,stimuli/Nonsocial3.png,cs_pos_ns,"(0.7, 0.5)",,,,,,,,,0,0,0,0,,,,,,,,,1,12,28,14,,,,,,,,,,,,,,,,,,,,,,,,,,,,,,,,,,,,,,543.7123409999767,36,reward,1,0.6881527999648824,0.6881563999922946,544.4067803999642,,,,,,,,,,,,,,,,,,,,,,47,B,2024-05-22_10h19.16.229,attentional_competition_task,2022.2.4,143.93501039820237,
positions.xlsx,positions_test.xlsx,positions_test_new.xlsx,stimuli.xlsx,stimuli_new.xlsx,stimuli/Social2.png,stimuli/Social1.png,stimuli/Nonsocial2.png,stimuli/Nonsocial1.png,stimuli/Social4.png,stimuli/Social3.png,stimuli/Nonsocial4.png,stimuli/Nonsocial3.png,cs_pos_s,"(0.7, 0.5)",,,,,,,,,0,0,0,0,,,,,,,,,1,13,29,6,,,,,,,,,,,,,,,,,,,,,,,,,,,,,,,,,,,,,,552.4411462000571,39,reward,1,0.548666000016965,0.5486697000451386,552.9967378000729,,,,,,,,,,,,,,,,,,,,,,47,B,2024-05-22_10h19.16.229,attentional_competition_task,2022.2.4,143.93501039820237,
positions.xlsx,positions_test.xlsx,positions_test_new.xlsx,stimuli.xlsx,stimuli_new.xlsx,stimuli/Social2.png,stimuli/Social1.png,stimuli/Nonsocial2.png,stimuli/Nonsocial1.png,stimuli/Social4.png,stimuli/Social3.png,stimuli/Nonsocial4.png,stimuli/Nonsocial3.png,cs_neg_ns,"(0.7, -0.5)",,,,,,,,,0,0,0,0,,,,,,,,,1,14,30,11,,,,,,,,,,,,,,,,,,,,,,,,,,,,,,,,,,,,,,560.1769807999954,39,none,0,,,563.1907558999956,,,,,,,,,,,,,,,,,,,,,,47,B,2024-05-22_10h19.16.229,attentional_competition_task,2022.2.4,143.93501039820237,
positions.xlsx,positions_test.xlsx,positions_test_new.xlsx,stimuli.xlsx,stimuli_new.xlsx,stimuli/Social2.png,stimuli/Social1.png,stimuli/Nonsocial2.png,stimuli/Nonsocial1.png,stimuli/Social4.png,stimuli/Social3.png,stimuli/Nonsocial4.png,stimuli/Nonsocial3.png,cs_neg_ns,"(-0.7, 0.5)",,,,,,,,,0,0,0,0,,,,,,,,,1,15,31,8,,,,,,,,,,,,,,,,,,,,,,,,,,,,,,,,,,,,,,570.6765684999991,39,none,0,,,573.6903464000206,,,,,,,,,,,,,,,,,,,,,,47,B,2024-05-22_10h19.16.229,attentional_competition_task,2022.2.4,143.93501039820237,
positions.xlsx,positions_test.xlsx,positions_test_new.xlsx,stimuli.xlsx,stimuli_new.xlsx,stimuli/Social2.png,stimuli/Social1.png,stimuli/Nonsocial2.png,stimuli/Nonsocial1.png,stimuli/Social4.png,stimuli/Social3.png,stimuli/Nonsocial4.png,stimuli/Nonsocial3.png,cs_neg_s,"(0.7, -0.5)",,,,,,,,,0,0,0,0,,,,,,,,,,,,,0,0,0,3,,,,,,,,,,,,,,,,,,,,,,,,,,,,,,,,,,631.903302700026,36,loss,1,0.3473621999146417,0.3473658999428153,632.2574971000431,,,,,,,,,,,,,,,,,,,,,,47,B,2024-05-22_10h19.16.229,attentional_competition_task,2022.2.4,143.93501039820237,
positions.xlsx,positions_test.xlsx,positions_test_new.xlsx,stimuli.xlsx,stimuli_new.xlsx,stimuli/Social2.png,stimuli/Social1.png,stimuli/Nonsocial2.png,stimuli/Nonsocial1.png,stimuli/Social4.png,stimuli/Social3.png,stimuli/Nonsocial4.png,stimuli/Nonsocial3.png,cs_neg_s,"(0.7, 0.5)",,,,,,,,,0,0,0,0,,,,,,,,,,,,,0,1,1,2,,,,,,,,,,,,,,,,,,,,,,,,,,,,,,,,,,639.1947083000559,36,none,0,,,642.2015220000176,,,,,,,,,,,,,,,,,,,,,,47,B,2024-05-22_10h19.16.229,attentional_competition_task,2022.2.4,143.93501039820237,
positions.xlsx,positions_test.xlsx,positions_test_new.xlsx,stimuli.xlsx,stimuli_new.xlsx,stimuli/Social2.png,stimuli/Social1.png,stimuli/Nonsocial2.png,stimuli/Nonsocial1.png,stimuli/Social4.png,stimuli/Social3.png,stimuli/Nonsocial4.png,stimuli/Nonsocial3.png,cs_pos_ns,"(-0.7, -0.5)",,,,,,,,,0,0,0,0,,,,,,,,,,,,,0,2,2,13,,,,,,,,,,,,,,,,,,,,,,,,,,,,,,,,,,649.5901050000684,39,reward,1,0.6040919999359176,0.6110731000080705,650.208150899969,,,,,,,,,,,,,,,,,,,,,,47,B,2024-05-22_10h19.16.229,attentional_competition_task,2022.2.4,143.93501039820237,
positions.xlsx,positions_test.xlsx,positions_test_new.xlsx,stimuli.xlsx,stimuli_new.xlsx,stimuli/Social2.png,stimuli/Social1.png,stimuli/Nonsocial2.png,stimuli/Nonsocial1.png,stimuli/Social4.png,stimuli/Social3.png,stimuli/Nonsocial4.png,stimuli/Nonsocial3.png,cs_neg_ns,"(0.7, 0.5)",,,,,,,,,0,0,0,0,,,,,,,,,,,,,0,3,3,10,,,,,,,,,,,,,,,,,,,,,,,,,,,,,,,,,,657.6939952999819,39,none,0,,,660.7076964000007,,,,,,,,,,,,,,,,,,,,,,47,B,2024-05-22_10h19.16.229,attentional_competition_task,2022.2.4,143.93501039820237,
positions.xlsx,positions_test.xlsx,positions_test_new.xlsx,stimuli.xlsx,stimuli_new.xlsx,stimuli/Social2.png,stimuli/Social1.png,stimuli/Nonsocial2.png,stimuli/Nonsocial1.png,stimuli/Social4.png,stimuli/Social3.png,stimuli/Nonsocial4.png,stimuli/Nonsocial3.png,cs_neg_s,"(-0.7, -0.5)",,,,,,,,,0,0,0,0,,,,,,,,,,,,,0,4,4,1,,,,,,,,,,,,,,,,,,,,,,,,,,,,,,,,,,668.401857299963,39,none,0,,,671.4086790999863,,,,,,,,,,,,,,,,,,,,,,47,B,2024-05-22_10h19.16.229,attentional_competition_task,2022.2.4,143.93501039820237,
positions.xlsx,positions_test.xlsx,positions_test_new.xlsx,stimuli.xlsx,stimuli_new.xlsx,stimuli/Social2.png,stimuli/Social1.png,stimuli/Nonsocial2.png,stimuli/Nonsocial1.png,stimuli/Social4.png,stimuli/Social3.png,stimuli/Nonsocial4.png,stimuli/Nonsocial3.png,cs_pos_ns,"(0.7, -0.5)",,,,,,,,,0,0,0,0,,,,,,,,,,,,,0,5,5,15,,,,,,,,,,,,,,,,,,,,,,,,,,,,,,,,,,679.2000480999704,42,reward,1,0.6600141000235453,0.6600175000494346,679.866681799991,,,,,,,,,,,,,,,,,,,,,,47,B,2024-05-22_10h19.16.229,attentional_competition_task,2022.2.4,143.93501039820237,
positions.xlsx,positions_test.xlsx,positions_test_new.xlsx,stimuli.xlsx,stimuli_new.xlsx,stimuli/Social2.png,stimuli/Social1.png,stimuli/Nonsocial2.png,stimuli/Nonsocial1.png,stimuli/Social4.png,stimuli/Social3.png,stimuli/Nonsocial4.png,stimuli/Nonsocial3.png,cs_neg_ns,"(-0.7, -0.5)",,,,,,,,,0,0,0,0,,,,,,,,,,,,,0,6,6,9,,,,,,,,,,,,,,,,,,,,,,,,,,,,,,,,,,687.5955689999973,39,loss,1,0.5135881999740377,0.5135918000014499,688.116329499986,,,,,,,,,,,,,,,,,,,,,,47,B,2024-05-22_10h19.16.229,attentional_competition_task,2022.2.4,143.93501039820237,
positions.xlsx,positions_test.xlsx,positions_test_new.xlsx,stimuli.xlsx,stimuli_new.xlsx,stimuli/Social2.png,stimuli/Social1.png,stimuli/Nonsocial2.png,stimuli/Nonsocial1.png,stimuli/Social4.png,stimuli/Social3.png,stimuli/Nonsocial4.png,stimuli/Nonsocial3.png,cs_pos_s,"(-0.7, 0.5)",,,,,,,,,0,0,0,0,,,,,,,,,,,,,0,7,7,4,,,,,,,,,,,,,,,,,,,,,,,,,,,,,,,,,,695.3868867000565,42,reward,1,0.6808384999167174,0.6808420999441296,696.0743751999689,,,,,,,,,,,,,,,,,,,,,,47,B,2024-05-22_10h19.16.229,attentional_competition_task,2022.2.4,143.93501039820237,
positions.xlsx,positions_test.xlsx,positions_test_new.xlsx,stimuli.xlsx,stimuli_new.xlsx,stimuli/Social2.png,stimuli/Social1.png,stimuli/Nonsocial2.png,stimuli/Nonsocial1.png,stimuli/Social4.png,stimuli/Social3.png,stimuli/Nonsocial4.png,stimuli/Nonsocial3.png,cs_neg_ns,"(-0.7, 0.5)",,,,,,,,,0,0,0,0,,,,,,,,,,,,,0,8,8,8,,,,,,,,,,,,,,,,,,,,,,,,,,,,,,,,,,703.8935050000437,42,none,0,,,706.9072544999653,,,,,,,,,,,,,,,,,,,,,,47,B,2024-05-22_10h19.16.229,attentional_competition_task,2022.2.4,143.93501039820237,
positions.xlsx,positions_test.xlsx,positions_test_new.xlsx,stimuli.xlsx,stimuli_new.xlsx,stimuli/Social2.png,stimuli/Social1.png,stimuli/Nonsocial2.png,stimuli/Nonsocial1.png,stimuli/Social4.png,stimuli/Social3.png,stimuli/Nonsocial4.png,stimuli/Nonsocial3.png,cs_neg_ns,"(0.7, -0.5)",,,,,,,,,0,0,0,0,,,,,,,,,,,,,0,9,9,11,,,,,,,,,,,,,,,,,,,,,,,,,,,,,,,,,,713.6709003000287,42,none,0,,,716.6846653000684,,,,,,,,,,,,,,,,,,,,,,47,B,2024-05-22_10h19.16.229,attentional_competition_task,2022.2.4,143.93501039820237,
positions.xlsx,positions_test.xlsx,positions_test_new.xlsx,stimuli.xlsx,stimuli_new.xlsx,stimuli/Social2.png,stimuli/Social1.png,stimuli/Nonsocial2.png,stimuli/Nonsocial1.png,stimuli/Social4.png,stimuli/Social3.png,stimuli/Nonsocial4.png,stimuli/Nonsocial3.png,cs_pos_s,"(0.7, 0.5)",,,,,,,,,0,0,0,0,,,,,,,,,,,,,0,10,10,6,,,,,,,,,,,,,,,,,,,,,,,,,,,,,,,,,,723.7329686000012,45,reward,1,0.5490696999477223,0.5490733999758959,724.2885508000618,,,,,,,,,,,,,,,,,,,,,,47,B,2024-05-22_10h19.16.229,attentional_competition_task,2022.2.4,143.93501039820237,
positions.xlsx,positions_test.xlsx,positions_test_new.xlsx,stimuli.xlsx,stimuli_new.xlsx,stimuli/Social2.png,stimuli/Social1.png,stimuli/Nonsocial2.png,stimuli/Nonsocial1.png,stimuli/Social4.png,stimuli/Social3.png,stimuli/Nonsocial4.png,stimuli/Nonsocial3.png,cs_pos_s,"(-0.7, -0.5)",,,,,,,,,0,0,0,0,,,,,,,,,,,,,0,11,11,5,,,,,,,,,,,,,,,,,,,,,,,,,,,,,,,,,,732.1284918000456,48,reward,1,0.5069680999731645,0.506972000002861,732.6423621000722,,,,,,,,,,,,,,,,,,,,,,47,B,2024-05-22_10h19.16.229,attentional_competition_task,2022.2.4,143.93501039820237,
positions.xlsx,positions_test.xlsx,positions_test_new.xlsx,stimuli.xlsx,stimuli_new.xlsx,stimuli/Social2.png,stimuli/Social1.png,stimuli/Nonsocial2.png,stimuli/Nonsocial1.png,stimuli/Social4.png,stimuli/Social3.png,stimuli/Nonsocial4.png,stimuli/Nonsocial3.png,cs_pos_ns,"(-0.7, 0.5)",,,,,,,,,0,0,0,0,,,,,,,,,,,,,0,12,12,12,,,,,,,,,,,,,,,,,,,,,,,,,,,,,,,,,,740.2670571999624,51,reward,1,1.0699774000095204,1.0699808000354096,741.3433720000321,,,,,,,,,,,,,,,,,,,,,,47,B,2024-05-22_10h19.16.229,attentional_competition_task,2022.2.4,143.93501039820237,
positions.xlsx,positions_test.xlsx,positions_test_new.xlsx,stimuli.xlsx,stimuli_new.xlsx,stimuli/Social2.png,stimuli/Social1.png,stimuli/Nonsocial2.png,stimuli/Nonsocial1.png,stimuli/Social4.png,stimuli/Social3.png,stimuli/Nonsocial4.png,stimuli/Nonsocial3.png,cs_pos_s,"(0.7, -0.5)",,,,,,,,,0,0,0,0,,,,,,,,,,,,,0,13,13,7,,,,,,,,,,,,,,,,,,,,,,,,,,,,,,,,,,748.7944736999925,54,reward,1,0.6252416999777779,0.6252452000044286,749.4264001999982,,,,,,,,,,,,,,,,,,,,,,47,B,2024-05-22_10h19.16.229,attentional_competition_task,2022.2.4,143.93501039820237,
positions.xlsx,positions_test.xlsx,positions_test_new.xlsx,stimuli.xlsx,stimuli_new.xlsx,stimuli/Social2.png,stimuli/Social1.png,stimuli/Nonsocial2.png,stimuli/Nonsocial1.png,stimuli/Social4.png,stimuli/Social3.png,stimuli/Nonsocial4.png,stimuli/Nonsocial3.png,cs_neg_s,"(-0.7, 0.5)",,,,,,,,,0,0,0,0,,,,,,,,,,,,,0,14,14,0,,,,,,,,,,,,,,,,,,,,,,,,,,,,,,,,,,757.0997284000041,54,none,0,,,760.1065518000396,,,,,,,,,,,,,,,,,,,,,,47,B,2024-05-22_10h19.16.229,attentional_competition_task,2022.2.4,143.93501039820237,
positions.xlsx,positions_test.xlsx,positions_test_new.xlsx,stimuli.xlsx,stimuli_new.xlsx,stimuli/Social2.png,stimuli/Social1.png,stimuli/Nonsocial2.png,stimuli/Nonsocial1.png,stimuli/Social4.png,stimuli/Social3.png,stimuli/Nonsocial4.png,stimuli/Nonsocial3.png,cs_pos_ns,"(0.7, 0.5)",,,,,,,,,0,0,0,0,,,,,,,,,,,,,0,15,15,14,,,,,,,,,,,,,,,,,,,,,,,,,,,,,,,,,,767.8215123000555,57,reward,1,0.9237122000195086,0.9237159999320284,768.7589752000058,,,,,,,,,,,,,,,,,,,,,,47,B,2024-05-22_10h19.16.229,attentional_competition_task,2022.2.4,143.93501039820237,
positions.xlsx,positions_test.xlsx,positions_test_new.xlsx,stimuli.xlsx,stimuli_new.xlsx,stimuli/Social2.png,stimuli/Social1.png,stimuli/Nonsocial2.png,stimuli/Nonsocial1.png,stimuli/Social4.png,stimuli/Social3.png,stimuli/Nonsocial4.png,stimuli/Nonsocial3.png,cs_pos_s,"(0.7, 0.5)",,,,,,,,,0,0,0,0,,,,,,,,,,,,,1,0,16,6,,,,,,,,,,,,,,,,,,,,,,,,,,,,,,,,,,775.4670453000581,60,reward,1,0.7570971999084577,0.7571008999366313,776.2308801000472,,,,,,,,,,,,,,,,,,,,,,47,B,2024-05-22_10h19.16.229,attentional_competition_task,2022.2.4,143.93501039820237,
positions.xlsx,positions_test.xlsx,positions_test_new.xlsx,stimuli.xlsx,stimuli_new.xlsx,stimuli/Social2.png,stimuli/Social1.png,stimuli/Nonsocial2.png,stimuli/Nonsocial1.png,stimuli/Social4.png,stimuli/Social3.png,stimuli/Nonsocial4.png,stimuli/Nonsocial3.png,cs_neg_ns,"(0.7, -0.5)",,,,,,,,,0,0,0,0,,,,,,,,,,,,,1,1,17,11,,,,,,,,,,,,,,,,,,,,,,,,,,,,,,,,,,783.7028446999611,60,none,0,,,786.7166369999759,,,,,,,,,,,,,,,,,,,,,,47,B,2024-05-22_10h19.16.229,attentional_competition_task,2022.2.4,143.93501039820237,
positions.xlsx,positions_test.xlsx,positions_test_new.xlsx,stimuli.xlsx,stimuli_new.xlsx,stimuli/Social2.png,stimuli/Social1.png,stimuli/Nonsocial2.png,stimuli/Nonsocial1.png,stimuli/Social4.png,stimuli/Social3.png,stimuli/Nonsocial4.png,stimuli/Nonsocial3.png,cs_pos_ns,"(-0.7, 0.5)",,,,,,,,,0,0,0,0,,,,,,,,,,,,,1,2,18,12,,,,,,,,,,,,,,,,,,,,,,,,,,,,,,,,,,794.5982376000611,63,reward,1,0.3336212000576779,0.3336252000881359,794.9384938000003,,,,,,,,,,,,,,,,,,,,,,47,B,2024-05-22_10h19.16.229,attentional_competition_task,2022.2.4,143.93501039820237,
positions.xlsx,positions_test.xlsx,positions_test_new.xlsx,stimuli.xlsx,stimuli_new.xlsx,stimuli/Social2.png,stimuli/Social1.png,stimuli/Nonsocial2.png,stimuli/Nonsocial1.png,stimuli/Social4.png,stimuli/Social3.png,stimuli/Nonsocial4.png,stimuli/Nonsocial3.png,cs_neg_s,"(0.7, -0.5)",,,,,,,,,0,0,0,0,,,,,,,,,,,,,1,3,19,3,,,,,,,,,,,,,,,,,,,,,,,,,,,,,,,,,,802.2853730999632,63,none,0,,,805.2991980999941,,,,,,,,,,,,,,,,,,,,,,47,B,2024-05-22_10h19.16.229,attentional_competition_task,2022.2.4,143.93501039820237,
positions.xlsx,positions_test.xlsx,positions_test_new.xlsx,stimuli.xlsx,stimuli_new.xlsx,stimuli/Social2.png,stimuli/Social1.png,stimuli/Nonsocial2.png,stimuli/Nonsocial1.png,stimuli/Social4.png,stimuli/Social3.png,stimuli/Nonsocial4.png,stimuli/Nonsocial3.png,cs_pos_s,"(0.7, -0.5)",,,,,,,,,0,0,0,0,,,,,,,,,,,,,1,4,20,7,,,,,,,,,,,,,,,,,,,,,,,,,,,,,,,,,,812.5072489000158,66,reward,1,0.548825400066562,0.5488293000962585,813.0627680000616,,,,,,,,,,,,,,,,,,,,,,47,B,2024-05-22_10h19.16.229,attentional_competition_task,2022.2.4,143.93501039820237,
positions.xlsx,positions_test.xlsx,positions_test_new.xlsx,stimuli.xlsx,stimuli_new.xlsx,stimuli/Social2.png,stimuli/Social1.png,stimuli/Nonsocial2.png,stimuli/Nonsocial1.png,stimuli/Social4.png,stimuli/Social3.png,stimuli/Nonsocial4.png,stimuli/Nonsocial3.png,cs_neg_s,"(-0.7, -0.5)",,,,,,,,,0,0,0,0,,,,,,,,,,,,,1,5,21,1,,,,,,,,,,,,,,,,,,,,,,,,,,,,,,,,,,821.4652226000326,66,none,0,,,824.4789935000008,,,,,,,,,,,,,,,,,,,,,,47,B,2024-05-22_10h19.16.229,attentional_competition_task,2022.2.4,143.93501039820237,
positions.xlsx,positions_test.xlsx,positions_test_new.xlsx,stimuli.xlsx,stimuli_new.xlsx,stimuli/Social2.png,stimuli/Social1.png,stimuli/Nonsocial2.png,stimuli/Nonsocial1.png,stimuli/Social4.png,stimuli/Social3.png,stimuli/Nonsocial4.png,stimuli/Nonsocial3.png,cs_pos_ns,"(0.7, -0.5)",,,,,,,,,0,0,0,0,,,,,,,,,,,,,1,6,22,15,,,,,,,,,,,,,,,,,,,,,,,,,,,,,,,,,,832.4370025000535,69,reward,1,0.8756167000392452,0.8756202000658959,833.3189127000514,,,,,,,,,,,,,,,,,,,,,,47,B,2024-05-22_10h19.16.229,attentional_competition_task,2022.2.4,143.93501039820237,
positions.xlsx,positions_test.xlsx,positions_test_new.xlsx,stimuli.xlsx,stimuli_new.xlsx,stimuli/Social2.png,stimuli/Social1.png,stimuli/Nonsocial2.png,stimuli/Nonsocial1.png,stimuli/Social4.png,stimuli/Social3.png,stimuli/Nonsocial4.png,stimuli/Nonsocial3.png,cs_neg_s,"(0.7, 0.5)",,,,,,,,,0,0,0,0,,,,,,,,,,,,,1,7,23,2,,,,,,,,,,,,,,,,,,,,,,,,,,,,,,,,,,839.915875100065,69,none,0,,,842.9227225000504,,,,,,,,,,,,,,,,,,,,,,47,B,2024-05-22_10h19.16.229,attentional_competition_task,2022.2.4,143.93501039820237,
positions.xlsx,positions_test.xlsx,positions_test_new.xlsx,stimuli.xlsx,stimuli_new.xlsx,stimuli/Social2.png,stimuli/Social1.png,stimuli/Nonsocial2.png,stimuli/Nonsocial1.png,stimuli/Social4.png,stimuli/Social3.png,stimuli/Nonsocial4.png,stimuli/Nonsocial3.png,cs_neg_ns,"(-0.7, -0.5)",,,,,,,,,0,0,0,0,,,,,,,,,,,,,1,8,24,9,,,,,,,,,,,,,,,,,,,,,,,,,,,,,,,,,,849.8182595999679,69,none,0,,,852.825079799979,,,,,,,,,,,,,,,,,,,,,,47,B,2024-05-22_10h19.16.229,attentional_competition_task,2022.2.4,143.93501039820237,
positions.xlsx,positions_test.xlsx,positions_test_new.xlsx,stimuli.xlsx,stimuli_new.xlsx,stimuli/Social2.png,stimuli/Social1.png,stimuli/Nonsocial2.png,stimuli/Nonsocial1.png,stimuli/Social4.png,stimuli/Social3.png,stimuli/Nonsocial4.png,stimuli/Nonsocial3.png,cs_pos_s,"(-0.7, 0.5)",,,,,,,,,0,0,0,0,,,,,,,,,,,,,1,9,25,4,,,,,,,,,,,,,,,,,,,,,,,,,,,,,,,,,,860.1928599000676,72,reward,1,0.5003364000003785,0.500340300030075,860.6997700000647,,,,,,,,,,,,,,,,,,,,,,47,B,2024-05-22_10h19.16.229,attentional_competition_task,2022.2.4,143.93501039820237,
positions.xlsx,positions_test.xlsx,positions_test_new.xlsx,stimuli.xlsx,stimuli_new.xlsx,stimuli/Social2.png,stimuli/Social1.png,stimuli/Nonsocial2.png,stimuli/Nonsocial1.png,stimuli/Social4.png,stimuli/Social3.png,stimuli/Nonsocial4.png,stimuli/Nonsocial3.png,cs_neg_s,"(-0.7, 0.5)",,,,,,,,,0,0,0,0,,,,,,,,,,,,,1,10,26,0,,,,,,,,,,,,,,,,,,,,,,,,,,,,,,,,,,868.8661109000677,72,none,0,,,871.879856799962,,,,,,,,,,,,,,,,,,,,,,47,B,2024-05-22_10h19.16.229,attentional_competition_task,2022.2.4,143.93501039820237,
positions.xlsx,positions_test.xlsx,positions_test_new.xlsx,stimuli.xlsx,stimuli_new.xlsx,stimuli/Social2.png,stimuli/Social1.png,stimuli/Nonsocial2.png,stimuli/Nonsocial1.png,stimuli/Social4.png,stimuli/Social3.png,stimuli/Nonsocial4.png,stimuli/Nonsocial3.png,cs_pos_ns,"(0.7, 0.5)",,,,,,,,,0,0,0,0,,,,,,,,,,,,,1,11,27,14,,,,,,,,,,,,,,,,,,,,,,,,,,,,,,,,,,879.7754036000697,75,reward,1,0.7152197000104934,0.7152233000379056,880.4975931000663,,,,,,,,,,,,,,,,,,,,,,47,B,2024-05-22_10h19.16.229,attentional_competition_task,2022.2.4,143.93501039820237,
positions.xlsx,positions_test.xlsx,positions_test_new.xlsx,stimuli.xlsx,stimuli_new.xlsx,stimuli/Social2.png,stimuli/Social1.png,stimuli/Nonsocial2.png,stimuli/Nonsocial1.png,stimuli/Social4.png,stimuli/Social3.png,stimuli/Nonsocial4.png,stimuli/Nonsocial3.png,cs_neg_ns,"(0.7, 0.5)",,,,,,,,,0,0,0,0,,,,,,,,,,,,,1,12,28,10,,,,,,,,,,,,,,,,,,,,,,,,,,,,,,,,,,888.7333551000338,75,none,0,,,891.7471455000341,,,,,,,,,,,,,,,,,,,,,,47,B,2024-05-22_10h19.16.229,attentional_competition_task,2022.2.4,143.93501039820237,
positions.xlsx,positions_test.xlsx,positions_test_new.xlsx,stimuli.xlsx,stimuli_new.xlsx,stimuli/Social2.png,stimuli/Social1.png,stimuli/Nonsocial2.png,stimuli/Nonsocial1.png,stimuli/Social4.png,stimuli/Social3.png,stimuli/Nonsocial4.png,stimuli/Nonsocial3.png,cs_neg_ns,"(-0.7, 0.5)",,,,,,,,,0,0,0,0,,,,,,,,,,,,,1,13,29,8,,,,,,,,,,,,,,,,,,,,,,,,,,,,,,,,,,899.4898951000068,75,none,0,,,902.503657400026,,,,,,,,,,,,,,,,,,,,,,47,B,2024-05-22_10h19.16.229,attentional_competition_task,2022.2.4,143.93501039820237,
positions.xlsx,positions_test.xlsx,positions_test_new.xlsx,stimuli.xlsx,stimuli_new.xlsx,stimuli/Social2.png,stimuli/Social1.png,stimuli/Nonsocial2.png,stimuli/Nonsocial1.png,stimuli/Social4.png,stimuli/Social3.png,stimuli/Nonsocial4.png,stimuli/Nonsocial3.png,cs_pos_ns,"(-0.7, -0.5)",,,,,,,,,0,0,0,0,,,,,,,,,,,,,1,14,30,13,,,,,,,,,,,,,,,,,,,,,,,,,,,,,,,,,,910.1770020000404,78,reward,1,0.618324700044468,0.6183285000734031,910.8019204000011,,,,,,,,,,,,,,,,,,,,,,47,B,2024-05-22_10h19.16.229,attentional_competition_task,2022.2.4,143.93501039820237,
positions.xlsx,positions_test.xlsx,positions_test_new.xlsx,stimuli.xlsx,stimuli_new.xlsx,stimuli/Social2.png,stimuli/Social1.png,stimuli/Nonsocial2.png,stimuli/Nonsocial1.png,stimuli/Social4.png,stimuli/Social3.png,stimuli/Nonsocial4.png,stimuli/Nonsocial3.png,cs_pos_s,"(-0.7, -0.5)",,,,,,,,,0,0,0,0,,,,,,,,,,,,,1,15,31,5,,,,,,,,,,,,,,,,,,,,,,,,,,,,,,,,,,918.6904948999872,81,reward,1,0.4932895000092685,0.4932931000366807,919.1905252999859,,,,,,,,,,,,,,,,,,,,,,47,B,2024-05-22_10h19.16.229,attentional_competition_task,2022.2.4,143.93501039820237,
positions.xlsx,positions_test.xlsx,positions_test_new.xlsx,stimuli.xlsx,stimuli_new.xlsx,stimuli/Social2.png,stimuli/Social1.png,stimuli/Nonsocial2.png,stimuli/Nonsocial1.png,stimuli/Social4.png,stimuli/Social3.png,stimuli/Nonsocial4.png,stimuli/Nonsocial3.png,cs_pos_s,,,,,,,,,,0,0,0,0,,,,,,,,,,,,,,,,,0,0,0,2,,,,,,,,,,,,,,,,,,,,,,,924.252827999997,10.0,3.6719770000781864,,,,,,,,,,,,,,,,,,,,,,,,,,,,,,,,,47,B,2024-05-22_10h19.16.229,attentional_competition_task,2022.2.4,143.93501039820237,
positions.xlsx,positions_test.xlsx,positions_test_new.xlsx,stimuli.xlsx,stimuli_new.xlsx,stimuli/Social2.png,stimuli/Social1.png,stimuli/Nonsocial2.png,stimuli/Nonsocial1.png,stimuli/Social4.png,stimuli/Social3.png,stimuli/Nonsocial4.png,stimuli/Nonsocial3.png,cs_pos_ns,,,,,,,,,,0,0,0,0,,,,,,,,,,,,,,,,,0,1,1,3,,,,,,,,,,,,,,,,,,,,,,,929.2734574000351,9.0,1.1263461000053212,,,,,,,,,,,,,,,,,,,,,,,,,,,,,,,,,47,B,2024-05-22_10h19.16.229,attentional_competition_task,2022.2.4,143.93501039820237,
positions.xlsx,positions_test.xlsx,positions_test_new.xlsx,stimuli.xlsx,stimuli_new.xlsx,stimuli/Social2.png,stimuli/Social1.png,stimuli/Nonsocial2.png,stimuli/Nonsocial1.png,stimuli/Social4.png,stimuli/Social3.png,stimuli/Nonsocial4.png,stimuli/Nonsocial3.png,cs_neg_s,,,,,,,,,,0,0,0,0,,,,,,,,,,,,,,,,,0,2,2,0,,,,,,,,,,,,,,,,,,,,,,,931.3080918999622,1.0,1.8777865000301972,,,,,,,,,,,,,,,,,,,,,,,,,,,,,,,,,47,B,2024-05-22_10h19.16.229,attentional_competition_task,2022.2.4,143.93501039820237,
positions.xlsx,positions_test.xlsx,positions_test_new.xlsx,stimuli.xlsx,stimuli_new.xlsx,stimuli/Social2.png,stimuli/Social1.png,stimuli/Nonsocial2.png,stimuli/Nonsocial1.png,stimuli/Social4.png,stimuli/Social3.png,stimuli/Nonsocial4.png,stimuli/Nonsocial3.png,cs_neg_ns,,,,,,,,,,0,0,0,0,,,,,,,,,,,,,,,,,0,3,3,1,,,,,,,,,,,,,,,,,,,,,,,933.5232571000233,3.0,2.1121202000649646,,,,,,,,,,,,,,,,,,,,,,,,,,,,,,,,,47,B,2024-05-22_10h19.16.229,attentional_competition_task,2022.2.4,143.93501039820237,
positions.xlsx,positions_test.xlsx,positions_test_new.xlsx,stimuli.xlsx,stimuli_new.xlsx,stimuli/Social2.png,stimuli/Social1.png,stimuli/Nonsocial2.png,stimuli/Nonsocial1.png,stimuli/Social4.png,stimuli/Social3.png,stimuli/Nonsocial4.png,stimuli/Nonsocial3.png,,,"(-0.7, -0.5)",cs_neg_s,"(-0.7, 0.5)",cs_pos_s,"(0.7, -0.5)",cs_pos_ns,"(0.7, 0.5)",cs_neg_ns,0,0,0,0,,,,,,,,,,,,,,,,,,,,,0,0,0,1,,,,,,,,,,,,,,,,,,,,,,,,,,,87,reward,,,,,937.2453331999714,944.3839498000452,944.3839498000452,944.3839498000452,944.3839498000452,0,,,1,0.029699699953198433,0.3921558998990804,1,0.5731766999233514,0.5731802999507636,0,,,944.9603265000042,944.9603265000042,944.9603265000042,944.9603265000042,47,B,2024-05-22_10h19.16.229,attentional_competition_task,2022.2.4,143.93501039820237,
positions.xlsx,positions_test.xlsx,positions_test_new.xlsx,stimuli.xlsx,stimuli_new.xlsx,stimuli/Social2.png,stimuli/Social1.png,stimuli/Nonsocial2.png,stimuli/Nonsocial1.png,stimuli/Social4.png,stimuli/Social3.png,stimuli/Nonsocial4.png,stimuli/Nonsocial3.png,,,"(-0.7, -0.5)",cs_pos_s,"(-0.7, 0.5)",cs_neg_s,"(0.7, -0.5)",cs_pos_ns,"(0.7, 0.5)",cs_neg_ns,0,0,0,0,,,,,,,,,,,,,,,,,,,,,0,1,1,7,,,,,,,,,,,,,,,,,,,,,,,,,,,93,reward,,,,,,952.5919572999701,952.5919572999701,952.5919572999701,952.5919572999701,1,0.022466100053861737,0.155328500084579,0,,,0,,,0,,,953.8697246999945,953.8697246999945,953.8697246999945,953.8697246999945,47,B,2024-05-22_10h19.16.229,attentional_competition_task,2022.2.4,143.93501039820237,
positions.xlsx,positions_test.xlsx,positions_test_new.xlsx,stimuli.xlsx,stimuli_new.xlsx,stimuli/Social2.png,stimuli/Social1.png,stimuli/Nonsocial2.png,stimuli/Nonsocial1.png,stimuli/Social4.png,stimuli/Social3.png,stimuli/Nonsocial4.png,stimuli/Nonsocial3.png,,,"(-0.7, -0.5)",cs_neg_s,"(-0.7, 0.5)",cs_pos_s,"(0.7, -0.5)",cs_neg_ns,"(0.7, 0.5)",cs_pos_ns,0,0,0,0,,,,,,,,,,,,,,,,,,,,,0,2,2,0,,,,,,,,,,,,,,,,,,,,,,,,,,,102,reward,,,,,,962.2512996000005,962.2512996000005,962.2512996000005,962.2512996000005,0,,,0,,,0,,,1,0.023211500025354326,0.13586909999139607,962.8971147000557,962.8971147000557,962.8971147000557,962.8971147000557,47,B,2024-05-22_10h19.16.229,attentional_competition_task,2022.2.4,143.93501039820237,
positions.xlsx,positions_test.xlsx,positions_test_new.xlsx,stimuli.xlsx,stimuli_new.xlsx,stimuli/Social2.png,stimuli/Social1.png,stimuli/Nonsocial2.png,stimuli/Nonsocial1.png,stimuli/Social4.png,stimuli/Social3.png,stimuli/Nonsocial4.png,stimuli/Nonsocial3.png,,,"(-0.7, -0.5)",cs_neg_ns,"(-0.7, 0.5)",cs_pos_s,"(0.7, -0.5)",cs_neg_s,"(0.7, 0.5)",cs_pos_ns,0,0,0,0,,,,,,,,,,,,,,,,,,,,,0,3,3,12,,,,,,,,,,,,,,,,,,,,,,,,,,,111,reward,,,,,,970.3482112999773,970.3482112999773,970.3482112999773,970.3482112999773,0,,,0,,,0,,,1,0.03127110004425049,0.30105809995438904,971.1467848999891,971.1467848999891,971.1467848999891,971.1467848999891,47,B,2024-05-22_10h19.16.229,attentional_competition_task,2022.2.4,143.93501039820237,
positions.xlsx,positions_test.xlsx,positions_test_new.xlsx,stimuli.xlsx,stimuli_new.xlsx,stimuli/Social2.png,stimuli/Social1.png,stimuli/Nonsocial2.png,stimuli/Nonsocial1.png,stimuli/Social4.png,stimuli/Social3.png,stimuli/Nonsocial4.png,stimuli/Nonsocial3.png,,,"(-0.7, -0.5)",cs_neg_ns,"(-0.7, 0.5)",cs_pos_ns,"(0.7, -0.5)",cs_neg_s,"(0.7, 0.5)",cs_pos_s,0,0,0,0,,,,,,,,,,,,,,,,,,,,,0,4,4,17,,,,,,,,,,,,,,,,,,,,,,,,,,,120,reward,,,,,,979.1256305000279,979.1256305000279,979.1256305000279,979.1256305000279,0,,,0,,,0,,,0,,,980.0144667000277,980.0144667000277,980.0144667000277,980.0144667000277,47,B,2024-05-22_10h19.16.229,attentional_competition_task,2022.2.4,143.93501039820237,
positions.xlsx,positions_test.xlsx,positions_test_new.xlsx,stimuli.xlsx,stimuli_new.xlsx,stimuli/Social2.png,stimuli/Social1.png,stimuli/Nonsocial2.png,stimuli/Nonsocial1.png,stimuli/Social4.png,stimuli/Social3.png,stimuli/Nonsocial4.png,stimuli/Nonsocial3.png,,,"(-0.7, -0.5)",cs_neg_s,"(-0.7, 0.5)",cs_neg_ns,"(0.7, -0.5)",cs_pos_ns,"(0.7, 0.5)",cs_pos_s,0,0,0,0,,,,,,,,,,,,,,,,,,,,,0,5,5,3,,,,,,,,,,,,,,,,,,,,,,,,,,,129,reward,,,,,,987.3128320999676,987.3128320999676,987.3128320999676,987.3128320999676,0,,,0,,,1,0.0246286999899894,0.33772970002610236,0,,,988.1600368999643,988.1600368999643,988.1600368999643,988.1600368999643,47,B,2024-05-22_10h19.16.229,attentional_competition_task,2022.2.4,143.93501039820237,
positions.xlsx,positions_test.xlsx,positions_test_new.xlsx,stimuli.xlsx,stimuli_new.xlsx,stimuli/Social2.png,stimuli/Social1.png,stimuli/Nonsocial2.png,stimuli/Nonsocial1.png,stimuli/Social4.png,stimuli/Social3.png,stimuli/Nonsocial4.png,stimuli/Nonsocial3.png,,,"(-0.7, -0.5)",cs_neg_s,"(-0.7, 0.5)",cs_pos_ns,"(0.7, -0.5)",cs_neg_ns,"(0.7, 0.5)",cs_pos_s,0,0,0,0,,,,,,,,,,,,,,,,,,,,,0,6,6,5,,,,,,,,,,,,,,,,,,,,,,,,,,,138,reward,,,,,,995.8471868999768,995.8471868999768,995.8471868999768,995.8471868999768,0,,,1,0.026750900084152818,0.23695280007086694,0,,,1,0.29314720002003014,0.4106253000209108,996.7638285000576,996.7638285000576,996.7638285000576,996.7638285000576,47,B,2024-05-22_10h19.16.229,attentional_competition_task,2022.2.4,143.93501039820237,
positions.xlsx,positions_test.xlsx,positions_test_new.xlsx,stimuli.xlsx,stimuli_new.xlsx,stimuli/Social2.png,stimuli/Social1.png,stimuli/Nonsocial2.png,stimuli/Nonsocial1.png,stimuli/Social4.png,stimuli/Social3.png,stimuli/Nonsocial4.png,stimuli/Nonsocial3.png,,,"(-0.7, -0.5)",cs_pos_s,"(-0.7, 0.5)",cs_pos_ns,"(0.7, -0.5)",cs_neg_ns,"(0.7, 0.5)",cs_neg_s,0,0,0,0,,,,,,,,,,,,,,,,,,,,,0,7,7,11,,,,,,,,,,,,,,,,,,,,,,,,,,,147,reward,,,,,,1004.4093311000615,1004.4093311000615,1004.4093311000615,1004.4093311000615,0,,,1,0.02351460000500083,0.24699919996783137,0,,,0,,,1005.166273000068,1005.166273000068,1005.166273000068,1005.166273000068,47,B,2024-05-22_10h19.16.229,attentional_competition_task,2022.2.4,143.93501039820237,
positions.xlsx,positions_test.xlsx,positions_test_new.xlsx,stimuli.xlsx,stimuli_new.xlsx,stimuli/Social2.png,stimuli/Social1.png,stimuli/Nonsocial2.png,stimuli/Nonsocial1.png,stimuli/Social4.png,stimuli/Social3.png,stimuli/Nonsocial4.png,stimuli/Nonsocial3.png,,,"(-0.7, -0.5)",cs_pos_ns,"(-0.7, 0.5)",cs_neg_ns,"(0.7, -0.5)",cs_neg_s,"(0.7, 0.5)",cs_pos_s,0,0,0,0,,,,,,,,,,,,,,,,,,,,,0,8,8,21,,,,,,,,,,,,,,,,,,,,,,,,,,,156,reward,,,,,,1012.6729186000302,1012.6729186000302,1012.6729186000302,1012.6729186000302,1,0.02662729995790869,0.23992630001157522,0,,,0,,,0,,,1013.5895689000608,1013.5895689000608,1013.5895689000608,1013.5895689000608,47,B,2024-05-22_10h19.16.229,attentional_competition_task,2022.2.4,143.93501039820237,
positions.xlsx,positions_test.xlsx,positions_test_new.xlsx,stimuli.xlsx,stimuli_new.xlsx,stimuli/Social2.png,stimuli/Social1.png,stimuli/Nonsocial2.png,stimuli/Nonsocial1.png,stimuli/Social4.png,stimuli/Social3.png,stimuli/Nonsocial4.png,stimuli/Nonsocial3.png,,,"(-0.7, -0.5)",cs_pos_ns,"(-0.7, 0.5)",cs_neg_s,"(0.7, -0.5)",cs_neg_ns,"(0.7, 0.5)",cs_pos_s,0,0,0,0,,,,,,,,,,,,,,,,,,,,,0,9,9,23,,,,,,,,,,,,,,,,,,,,,,,,,,,165,reward,,,,,,1020.8323540000711,1020.8323540000711,1020.8323540000711,1020.8323540000711,1,0.02921280008740723,0.29426200001034886,0,,,0,,,0,,,1021.7489454000024,1021.7489454000024,1021.7489454000024,1021.7489454000024,47,B,2024-05-22_10h19.16.229,attentional_competition_task,2022.2.4,143.93501039820237,
positions.xlsx,positions_test.xlsx,positions_test_new.xlsx,stimuli.xlsx,stimuli_new.xlsx,stimuli/Social2.png,stimuli/Social1.png,stimuli/Nonsocial2.png,stimuli/Nonsocial1.png,stimuli/Social4.png,stimuli/Social3.png,stimuli/Nonsocial4.png,stimuli/Nonsocial3.png,,,"(-0.7, -0.5)",cs_pos_ns,"(-0.7, 0.5)",cs_neg_ns,"(0.7, -0.5)",cs_pos_s,"(0.7, 0.5)",cs_neg_s,0,0,0,0,,,,,,,,,,,,,,,,,,,,,0,10,10,20,,,,,,,,,,,,,,,,,,,,,,,,,,,174,reward,,,,,,1029.9985644000117,1029.9985644000117,1029.9985644000117,1029.9985644000117,1,0.022079299902543426,0.05110809998586774,0,,,0,,,0,,,1030.7485877000727,1030.7485877000727,1030.7485877000727,1030.7485877000727,47,B,2024-05-22_10h19.16.229,attentional_competition_task,2022.2.4,143.93501039820237,
positions.xlsx,positions_test.xlsx,positions_test_new.xlsx,stimuli.xlsx,stimuli_new.xlsx,stimuli/Social2.png,stimuli/Social1.png,stimuli/Nonsocial2.png,stimuli/Nonsocial1.png,stimuli/Social4.png,stimuli/Social3.png,stimuli/Nonsocial4.png,stimuli/Nonsocial3.png,,,"(-0.7, -0.5)",cs_pos_ns,"(-0.7, 0.5)",cs_neg_s,"(0.7, -0.5)",cs_pos_s,"(0.7, 0.5)",cs_neg_ns,0,0,0,0,,,,,,,,,,,,,,,,,,,,,0,11,11,22,,,,,,,,,,,,,,,,,,,,,,,,,,,183,reward,,,,,,1037.9010846000165,1037.9010846000165,1037.9010846000165,1037.9010846000165,1,0.029897899948991835,0.3567126999842003,0,,,0,,,0,,,1038.8038241000613,1038.8038241000613,1038.8038241000613,1038.8038241000613,47,B,2024-05-22_10h19.16.229,attentional_competition_task,2022.2.4,143.93501039820237,
positions.xlsx,positions_test.xlsx,positions_test_new.xlsx,stimuli.xlsx,stimuli_new.xlsx,stimuli/Social2.png,stimuli/Social1.png,stimuli/Nonsocial2.png,stimuli/Nonsocial1.png,stimuli/Social4.png,stimuli/Social3.png,stimuli/Nonsocial4.png,stimuli/Nonsocial3.png,,,"(-0.7, -0.5)",cs_neg_ns,"(-0.7, 0.5)",cs_pos_ns,"(0.7, -0.5)",cs_pos_s,"(0.7, 0.5)",cs_neg_s,0,0,0,0,,,,,,,,,,,,,,,,,,,,,0,12,12,16,,,,,,,,,,,,,,,,,,,,,,,,,,,192,reward,,,,,,1046.0673819000367,1046.0673819000367,1046.0673819000367,1046.0673819000367,0,,,0,,,1,0.024254299933090806,0.1363001000136137,0,,,1046.9076652000658,1046.9076652000658,1046.9076652000658,1046.9076652000658,47,B,2024-05-22_10h19.16.229,attentional_competition_task,2022.2.4,143.93501039820237,
positions.xlsx,positions_test.xlsx,positions_test_new.xlsx,stimuli.xlsx,stimuli_new.xlsx,stimuli/Social2.png,stimuli/Social1.png,stimuli/Nonsocial2.png,stimuli/Nonsocial1.png,stimuli/Social4.png,stimuli/Social3.png,stimuli/Nonsocial4.png,stimuli/Nonsocial3.png,,,"(-0.7, -0.5)",cs_neg_ns,"(-0.7, 0.5)",cs_pos_s,"(0.7, -0.5)",cs_pos_ns,"(0.7, 0.5)",cs_neg_s,0,0,0,0,,,,,,,,,,,,,,,,,,,,,0,13,13,13,,,,,,,,,,,,,,,,,,,,,,,,,,,195,reward,,,,,,1055.4073088000296,1055.4073088000296,1055.4073088000296,1055.4073088000296,0,,,1,0.022812600014731288,0.022816500044427812,0,,,0,,,1055.4073088000296,1055.4073088000296,1055.4073088000296,1055.4073088000296,47,B,2024-05-22_10h19.16.229,attentional_competition_task,2022.2.4,143.93501039820237,
positions.xlsx,positions_test.xlsx,positions_test_new.xlsx,stimuli.xlsx,stimuli_new.xlsx,stimuli/Social2.png,stimuli/Social1.png,stimuli/Nonsocial2.png,stimuli/Nonsocial1.png,stimuli/Social4.png,stimuli/Social3.png,stimuli/Nonsocial4.png,stimuli/Nonsocial3.png,,,"(-0.7, -0.5)",cs_neg_ns,"(-0.7, 0.5)",cs_neg_s,"(0.7, -0.5)",cs_pos_ns,"(0.7, 0.5)",cs_pos_s,0,0,0,0,,,,,,,,,,,,,,,,,,,,,0,14,14,15,,,,,,,,,,,,,,,,,,,,,,,,,,,204,reward,,,,,,1064.691722700023,1064.691722700023,1064.691722700023,1064.691722700023,0,,,0,,,1,0.024420600035227835,0.37846690008882433,0,,,1065.5735885000322,1065.5735885000322,1065.5735885000322,1065.5735885000322,47,B,2024-05-22_10h19.16.229,attentional_competition_task,2022.2.4,143.93501039820237,
positions.xlsx,positions_test.xlsx,positions_test_new.xlsx,stimuli.xlsx,stimuli_new.xlsx,stimuli/Social2.png,stimuli/Social1.png,stimuli/Nonsocial2.png,stimuli/Nonsocial1.png,stimuli/Social4.png,stimuli/Social3.png,stimuli/Nonsocial4.png,stimuli/Nonsocial3.png,,,"(-0.7, -0.5)",cs_pos_s,"(-0.7, 0.5)",cs_neg_ns,"(0.7, -0.5)",cs_pos_ns,"(0.7, 0.5)",cs_neg_s,0,0,0,0,,,,,,,,,,,,,,,,,,,,,0,15,15,9,,,,,,,,,,,,,,,,,,,,,,,,,,,213,reward,,,,,,1072.7747038999805,1072.7747038999805,1072.7747038999805,1072.7747038999805,0,,,0,,,1,0.02380940003786236,0.2252975000301376,0,,,1073.5385468000313,1073.5385468000313,1073.5385468000313,1073.5385468000313,47,B,2024-05-22_10h19.16.229,attentional_competition_task,2022.2.4,143.93501039820237,
positions.xlsx,positions_test.xlsx,positions_test_new.xlsx,stimuli.xlsx,stimuli_new.xlsx,stimuli/Social2.png,stimuli/Social1.png,stimuli/Nonsocial2.png,stimuli/Nonsocial1.png,stimuli/Social4.png,stimuli/Social3.png,stimuli/Nonsocial4.png,stimuli/Nonsocial3.png,,,"(-0.7, -0.5)",cs_pos_s,"(-0.7, 0.5)",cs_pos_ns,"(0.7, -0.5)",cs_neg_s,"(0.7, 0.5)",cs_neg_ns,0,0,0,0,,,,,,,,,,,,,,,,,,,,,0,16,16,10,,,,,,,,,,,,,,,,,,,,,,,,,,,210,loss,,,,,,1081.3924046000466,1081.3924046000466,1081.3924046000466,1081.3924046000466,0,,,0,,,0,,,0,,,1082.0034830999793,1082.0034830999793,1082.0034830999793,1082.0034830999793,47,B,2024-05-22_10h19.16.229,attentional_competition_task,2022.2.4,143.93501039820237,
positions.xlsx,positions_test.xlsx,positions_test_new.xlsx,stimuli.xlsx,stimuli_new.xlsx,stimuli/Social2.png,stimuli/Social1.png,stimuli/Nonsocial2.png,stimuli/Nonsocial1.png,stimuli/Social4.png,stimuli/Social3.png,stimuli/Nonsocial4.png,stimuli/Nonsocial3.png,,,"(-0.7, -0.5)",cs_pos_s,"(-0.7, 0.5)",cs_neg_s,"(0.7, -0.5)",cs_neg_ns,"(0.7, 0.5)",cs_pos_ns,0,0,0,0,,,,,,,,,,,,,,,,,,,,,0,17,17,6,,,,,,,,,,,,,,,,,,,,,,,,,,,216,reward,,,,,,1088.7323801000603,1088.7323801000603,1088.7323801000603,1088.7323801000603,1,0.029174900031648576,0.11972159997094423,0,,,0,,,1,0.48145319998729974,0.48145690001547337,1089.2115281000733,1089.2115281000733,1089.2115281000733,1089.2115281000733,47,B,2024-05-22_10h19.16.229,attentional_competition_task,2022.2.4,143.93501039820237,
positions.xlsx,positions_test.xlsx,positions_test_new.xlsx,stimuli.xlsx,stimuli_new.xlsx,stimuli/Social2.png,stimuli/Social1.png,stimuli/Nonsocial2.png,stimuli/Nonsocial1.png,stimuli/Social4.png,stimuli/Social3.png,stimuli/Nonsocial4.png,stimuli/Nonsocial3.png,,,"(-0.7, -0.5)",cs_pos_ns,"(-0.7, 0.5)",cs_pos_s,"(0.7, -0.5)",cs_neg_ns,"(0.7, 0.5)",cs_neg_s,0,0,0,0,,,,,,,,,,,,,,,,,,,,,0,18,18,18,,,,,,,,,,,,,,,,,,,,,,,,,,,225,reward,,,,,,1098.2111887000501,1098.2111887000501,1098.2111887000501,1098.2111887000501,1,0.02329979999922216,0.1779448000015691,0,,,0,,,0,,,1099.0861192999873,1099.0861192999873,1099.0861192999873,1099.0861192999873,47,B,2024-05-22_10h19.16.229,attentional_competition_task,2022.2.4,143.93501039820237,
positions.xlsx,positions_test.xlsx,positions_test_new.xlsx,stimuli.xlsx,stimuli_new.xlsx,stimuli/Social2.png,stimuli/Social1.png,stimuli/Nonsocial2.png,stimuli/Nonsocial1.png,stimuli/Social4.png,stimuli/Social3.png,stimuli/Nonsocial4.png,stimuli/Nonsocial3.png,,,"(-0.7, -0.5)",cs_neg_ns,"(-0.7, 0.5)",cs_neg_s,"(0.7, -0.5)",cs_pos_s,"(0.7, 0.5)",cs_pos_ns,0,0,0,0,,,,,,,,,,,,,,,,,,,,,0,19,19,14,,,,,,,,,,,,,,,,,,,,,,,,,,,234,reward,,,,,,1106.3983084000647,1106.3983084000647,1106.3983084000647,1106.3983084000647,0,,,0,,,0,,,1,0.02386279997881502,0.33765000000130385,1107.252480300027,1107.252480300027,1107.252480300027,1107.252480300027,47,B,2024-05-22_10h19.16.229,attentional_competition_task,2022.2.4,143.93501039820237,
positions.xlsx,positions_test.xlsx,positions_test_new.xlsx,stimuli.xlsx,stimuli_new.xlsx,stimuli/Social2.png,stimuli/Social1.png,stimuli/Nonsocial2.png,stimuli/Nonsocial1.png,stimuli/Social4.png,stimuli/Social3.png,stimuli/Nonsocial4.png,stimuli/Nonsocial3.png,,,"(-0.7, -0.5)",cs_neg_s,"(-0.7, 0.5)",cs_pos_ns,"(0.7, -0.5)",cs_pos_s,"(0.7, 0.5)",cs_neg_ns,0,0,0,0,,,,,,,,,,,,,,,,,,,,,0,20,20,4,,,,,,,,,,,,,,,,,,,,,,,,,,,243,reward,,,,,,1115.2174390000291,1115.2174390000291,1115.2174390000291,1115.2174390000291,0,,,1,0.029545199940912426,0.3215493999887258,0,,,0,,,1116.0438013999956,1116.0438013999956,1116.0438013999956,1116.0438013999956,47,B,2024-05-22_10h19.16.229,attentional_competition_task,2022.2.4,143.93501039820237,
positions.xlsx,positions_test.xlsx,positions_test_new.xlsx,stimuli.xlsx,stimuli_new.xlsx,stimuli/Social2.png,stimuli/Social1.png,stimuli/Nonsocial2.png,stimuli/Nonsocial1.png,stimuli/Social4.png,stimuli/Social3.png,stimuli/Nonsocial4.png,stimuli/Nonsocial3.png,,,"(-0.7, -0.5)",cs_pos_ns,"(-0.7, 0.5)",cs_pos_s,"(0.7, -0.5)",cs_neg_s,"(0.7, 0.5)",cs_neg_ns,0,0,0,0,,,,,,,,,,,,,,,,,,,,,0,21,21,19,,,,,,,,,,,,,,,,,,,,,,,,,,,252,reward,,,,,,1123.9671150000067,1123.9671150000067,1123.9671150000067,1123.9671150000067,1,0.023594999918714166,0.12268849997781217,0,,,0,,,0,,,1124.8351065000752,1124.8351065000752,1124.8351065000752,1124.8351065000752,47,B,2024-05-22_10h19.16.229,attentional_competition_task,2022.2.4,143.93501039820237,
positions.xlsx,positions_test.xlsx,positions_test_new.xlsx,stimuli.xlsx,stimuli_new.xlsx,stimuli/Social2.png,stimuli/Social1.png,stimuli/Nonsocial2.png,stimuli/Nonsocial1.png,stimuli/Social4.png,stimuli/Social3.png,stimuli/Nonsocial4.png,stimuli/Nonsocial3.png,,,"(-0.7, -0.5)",cs_pos_s,"(-0.7, 0.5)",cs_neg_ns,"(0.7, -0.5)",cs_neg_s,"(0.7, 0.5)",cs_pos_ns,0,0,0,0,,,,,,,,,,,,,,,,,,,,,0,22,22,8,,,,,,,,,,,,,,,,,,,,,,,,,,,255,reward,,,,,,1132.772311800043,1132.772311800043,1132.772311800043,1132.772311800043,0,,,0,,,0,,,1,0.023441799916327,0.023445699946023524,1132.772311800043,1132.772311800043,1132.772311800043,1132.772311800043,47,B,2024-05-22_10h19.16.229,attentional_competition_task,2022.2.4,143.93501039820237,
positions.xlsx,positions_test.xlsx,positions_test_new.xlsx,stimuli.xlsx,stimuli_new.xlsx,stimuli/Social2.png,stimuli/Social1.png,stimuli/Nonsocial2.png,stimuli/Nonsocial1.png,stimuli/Social4.png,stimuli/Social3.png,stimuli/Nonsocial4.png,stimuli/Nonsocial3.png,,,"(-0.7, -0.5)",cs_neg_s,"(-0.7, 0.5)",cs_neg_ns,"(0.7, -0.5)",cs_pos_s,"(0.7, 0.5)",cs_pos_ns,0,0,0,0,,,,,,,,,,,,,,,,,,,,,0,23,23,2,,,,,,,,,,,,,,,,,,,,,,,,,,,264,reward,,,,,,1141.85525709996,1141.85525709996,1141.85525709996,1141.85525709996,0,,,0,,,0,,,1,0.023052899981848896,0.22029480000492185,1142.723301299964,1142.723301299964,1142.723301299964,1142.723301299964,47,B,2024-05-22_10h19.16.229,attentional_competition_task,2022.2.4,143.93501039820237,
positions.xlsx,positions_test.xlsx,positions_test_new.xlsx,stimuli.xlsx,stimuli_new.xlsx,stimuli/Social2.png,stimuli/Social1.png,stimuli/Nonsocial2.png,stimuli/Nonsocial1.png,stimuli/Social4.png,stimuli/Social3.png,stimuli/Nonsocial4.png,stimuli/Nonsocial3.png,,,"(-0.7, -0.5)",cs_pos_ns,"(-0.7, 0.5)",cs_neg_s,"(0.7, -0.5)",cs_pos_s,"(0.7, 0.5)",cs_neg_ns,0,0,0,0,,,,,,,,,,,,,,,,,,,,,1,0,24,22,,,,,,,,,,,,,,,,,,,,,,,,,,,273,reward,,,,,,1151.1396324000088,1151.1396324000088,1151.1396324000088,1151.1396324000088,2,0.02424530009739101,0.21883790008723736,0,,,0,,,0,,,1151.9034898000536,1151.9034898000536,1151.9034898000536,1151.9034898000536,47,B,2024-05-22_10h19.16.229,attentional_competition_task,2022.2.4,143.93501039820237,
positions.xlsx,positions_test.xlsx,positions_test_new.xlsx,stimuli.xlsx,stimuli_new.xlsx,stimuli/Social2.png,stimuli/Social1.png,stimuli/Nonsocial2.png,stimuli/Nonsocial1.png,stimuli/Social4.png,stimuli/Social3.png,stimuli/Nonsocial4.png,stimuli/Nonsocial3.png,,,"(-0.7, -0.5)",cs_neg_ns,"(-0.7, 0.5)",cs_neg_s,"(0.7, -0.5)",cs_pos_s,"(0.7, 0.5)",cs_pos_ns,0,0,0,0,,,,,,,,,,,,,,,,,,,,,1,1,25,14,,,,,,,,,,,,,,,,,,,,,,,,,,,282,reward,,,,,,1158.924038700061,1158.924038700061,1158.924038700061,1158.924038700061,0,,,0,,,1,0.17621259996667504,0.1831306000240147,1,0.031131200026720762,0.16958540002815425,1159.8476427000714,1159.8476427000714,1159.8476427000714,1159.8476427000714,47,B,2024-05-22_10h19.16.229,attentional_competition_task,2022.2.4,143.93501039820237,
positions.xlsx,positions_test.xlsx,positions_test_new.xlsx,stimuli.xlsx,stimuli_new.xlsx,stimuli/Social2.png,stimuli/Social1.png,stimuli/Nonsocial2.png,stimuli/Nonsocial1.png,stimuli/Social4.png,stimuli/Social3.png,stimuli/Nonsocial4.png,stimuli/Nonsocial3.png,,,"(-0.7, -0.5)",cs_pos_s,"(-0.7, 0.5)",cs_pos_ns,"(0.7, -0.5)",cs_neg_ns,"(0.7, 0.5)",cs_neg_s,0,0,0,0,,,,,,,,,,,,,,,,,,,,,1,2,26,11,,,,,,,,,,,,,,,,,,,,,,,,,,,291,reward,,,,,,1168.0903504000744,1168.0903504000744,1168.0903504000744,1168.0903504000744,0,,,1,0.02939789998345077,0.14839370001573116,0,,,0,,,1169.0000358000398,1169.0000358000398,1169.0000358000398,1169.0000358000398,47,B,2024-05-22_10h19.16.229,attentional_competition_task,2022.2.4,143.93501039820237,
positions.xlsx,positions_test.xlsx,positions_test_new.xlsx,stimuli.xlsx,stimuli_new.xlsx,stimuli/Social2.png,stimuli/Social1.png,stimuli/Nonsocial2.png,stimuli/Nonsocial1.png,stimuli/Social4.png,stimuli/Social3.png,stimuli/Nonsocial4.png,stimuli/Nonsocial3.png,,,"(-0.7, -0.5)",cs_pos_s,"(-0.7, 0.5)",cs_neg_ns,"(0.7, -0.5)",cs_pos_ns,"(0.7, 0.5)",cs_neg_s,0,0,0,0,,,,,,,,,,,,,,,,,,,,,1,3,27,9,,,,,,,,,,,,,,,,,,,,,,,,,,,300,reward,,,,,,1176.7844806000357,1176.7844806000357,1176.7844806000357,1176.7844806000357,0,,,0,,,1,0.028979699942283332,0.07221629994455725,0,,,1177.6733003000263,1177.6733003000263,1177.6733003000263,1177.6733003000263,47,B,2024-05-22_10h19.16.229,attentional_competition_task,2022.2.4,143.93501039820237,
positions.xlsx,positions_test.xlsx,positions_test_new.xlsx,stimuli.xlsx,stimuli_new.xlsx,stimuli/Social2.png,stimuli/Social1.png,stimuli/Nonsocial2.png,stimuli/Nonsocial1.png,stimuli/Social4.png,stimuli/Social3.png,stimuli/Nonsocial4.png,stimuli/Nonsocial3.png,,,"(-0.7, -0.5)",cs_pos_ns,"(-0.7, 0.5)",cs_pos_s,"(0.7, -0.5)",cs_neg_s,"(0.7, 0.5)",cs_neg_ns,0,0,0,0,,,,,,,,,,,,,,,,,,,,,1,4,28,19,,,,,,,,,,,,,,,,,,,,,,,,,,,309,reward,,,,,,1185.3257440000307,1185.3257440000307,1185.3257440000307,1185.3257440000307,1,0.029754100018180907,0.2870795000344515,0,,,0,,,0,,,1186.1938186000334,1186.1938186000334,1186.1938186000334,1186.1938186000334,47,B,2024-05-22_10h19.16.229,attentional_competition_task,2022.2.4,143.93501039820237,
positions.xlsx,positions_test.xlsx,positions_test_new.xlsx,stimuli.xlsx,stimuli_new.xlsx,stimuli/Social2.png,stimuli/Social1.png,stimuli/Nonsocial2.png,stimuli/Nonsocial1.png,stimuli/Social4.png,stimuli/Social3.png,stimuli/Nonsocial4.png,stimuli/Nonsocial3.png,,,"(-0.7, -0.5)",cs_pos_ns,"(-0.7, 0.5)",cs_neg_ns,"(0.7, -0.5)",cs_pos_s,"(0.7, 0.5)",cs_neg_s,0,0,0,0,,,,,,,,,,,,,,,,,,,,,1,5,29,20,,,,,,,,,,,,,,,,,,,,,,,,,,,318,reward,,,,,,1193.4296258999966,1193.4296258999966,1193.4296258999966,1193.4296258999966,0,,,0,,,0,,,0,,,1194.290699300007,1194.290699300007,1194.290699300007,1194.290699300007,47,B,2024-05-22_10h19.16.229,attentional_competition_task,2022.2.4,143.93501039820237,
positions.xlsx,positions_test.xlsx,positions_test_new.xlsx,stimuli.xlsx,stimuli_new.xlsx,stimuli/Social2.png,stimuli/Social1.png,stimuli/Nonsocial2.png,stimuli/Nonsocial1.png,stimuli/Social4.png,stimuli/Social3.png,stimuli/Nonsocial4.png,stimuli/Nonsocial3.png,,,"(-0.7, -0.5)",cs_neg_ns,"(-0.7, 0.5)",cs_neg_s,"(0.7, -0.5)",cs_pos_ns,"(0.7, 0.5)",cs_pos_s,0,0,0,0,,,,,,,,,,,,,,,,,,,,,1,6,30,15,,,,,,,,,,,,,,,,,,,,,,,,,,,327,reward,,,,,,1202.1723766999785,1202.1723766999785,1202.1723766999785,1202.1723766999785,0,,,0,,,1,0.024501599953509867,0.053308699978515506,0,,,1203.109792400035,1203.109792400035,1203.109792400035,1203.109792400035,47,B,2024-05-22_10h19.16.229,attentional_competition_task,2022.2.4,143.93501039820237,
positions.xlsx,positions_test.xlsx,positions_test_new.xlsx,stimuli.xlsx,stimuli_new.xlsx,stimuli/Social2.png,stimuli/Social1.png,stimuli/Nonsocial2.png,stimuli/Nonsocial1.png,stimuli/Social4.png,stimuli/Social3.png,stimuli/Nonsocial4.png,stimuli/Nonsocial3.png,,,"(-0.7, -0.5)",cs_pos_s,"(-0.7, 0.5)",cs_pos_ns,"(0.7, -0.5)",cs_neg_s,"(0.7, 0.5)",cs_neg_ns,0,0,0,0,,,,,,,,,,,,,,,,,,,,,1,7,31,10,,,,,,,,,,,,,,,,,,,,,,,,,,,336,reward,,,,,,1210.6511655000504,1210.6511655000504,1210.6511655000504,1210.6511655000504,1,0.12128179997671396,0.12753509997855872,1,0.0233557999599725,0.11451470002066344,0,,,0,,,1211.6441657000687,1211.6441657000687,1211.6441657000687,1211.6441657000687,47,B,2024-05-22_10h19.16.229,attentional_competition_task,2022.2.4,143.93501039820237,
positions.xlsx,positions_test.xlsx,positions_test_new.xlsx,stimuli.xlsx,stimuli_new.xlsx,stimuli/Social2.png,stimuli/Social1.png,stimuli/Nonsocial2.png,stimuli/Nonsocial1.png,stimuli/Social4.png,stimuli/Social3.png,stimuli/Nonsocial4.png,stimuli/Nonsocial3.png,,,"(-0.7, -0.5)",cs_neg_s,"(-0.7, 0.5)",cs_pos_ns,"(0.7, -0.5)",cs_neg_ns,"(0.7, 0.5)",cs_pos_s,0,0,0,0,,,,,,,,,,,,,,,,,,,,,1,8,32,5,,,,,,,,,,,,,,,,,,,,,,,,,,,339,loss,,,,,,1219.3868949000025,1219.3868949000025,1219.3868949000025,1219.3868949000025,1,0.19847659999504685,0.19848050002474338,1,0.024893000023439527,0.18450979993212968,0,,,0,,,1219.58826270001,1219.58826270001,1219.58826270001,1219.58826270001,47,B,2024-05-22_10h19.16.229,attentional_competition_task,2022.2.4,143.93501039820237,
positions.xlsx,positions_test.xlsx,positions_test_new.xlsx,stimuli.xlsx,stimuli_new.xlsx,stimuli/Social2.png,stimuli/Social1.png,stimuli/Nonsocial2.png,stimuli/Nonsocial1.png,stimuli/Social4.png,stimuli/Social3.png,stimuli/Nonsocial4.png,stimuli/Nonsocial3.png,,,"(-0.7, -0.5)",cs_pos_ns,"(-0.7, 0.5)",cs_pos_s,"(0.7, -0.5)",cs_neg_ns,"(0.7, 0.5)",cs_neg_s,0,0,0,0,,,,,,,,,,,,,,,,,,,,,1,9,33,18,,,,,,,,,,,,,,,,,,,,,,,,,,,348,reward,,,,,,1227.1782429000596,1227.1782429000596,1227.1782429000596,1227.1782429000596,1,0.02286989998538047,0.07988830003887415,0,,,0,,,0,,,1228.1574120000005,1228.1574120000005,1228.1574120000005,1228.1574120000005,47,B,2024-05-22_10h19.16.229,attentional_competition_task,2022.2.4,143.93501039820237,
positions.xlsx,positions_test.xlsx,positions_test_new.xlsx,stimuli.xlsx,stimuli_new.xlsx,stimuli/Social2.png,stimuli/Social1.png,stimuli/Nonsocial2.png,stimuli/Nonsocial1.png,stimuli/Social4.png,stimuli/Social3.png,stimuli/Nonsocial4.png,stimuli/Nonsocial3.png,,,"(-0.7, -0.5)",cs_neg_ns,"(-0.7, 0.5)",cs_pos_ns,"(0.7, -0.5)",cs_pos_s,"(0.7, 0.5)",cs_neg_s,0,0,0,0,,,,,,,,,,,,,,,,,,,,,1,10,34,16,,,,,,,,,,,,,,,,,,,,,,,,,,,348,loss,,,,,,1235.92789479997,1235.92789479997,1235.92789479997,1235.92789479997,0,,,0,,,1,0.02899230003822595,0.14798220002558082,0,,,1236.164014799986,1236.164014799986,1236.164014799986,1236.164014799986,47,B,2024-05-22_10h19.16.229,attentional_competition_task,2022.2.4,143.93501039820237,
positions.xlsx,positions_test.xlsx,positions_test_new.xlsx,stimuli.xlsx,stimuli_new.xlsx,stimuli/Social2.png,stimuli/Social1.png,stimuli/Nonsocial2.png,stimuli/Nonsocial1.png,stimuli/Social4.png,stimuli/Social3.png,stimuli/Nonsocial4.png,stimuli/Nonsocial3.png,,,"(-0.7, -0.5)",cs_neg_ns,"(-0.7, 0.5)",cs_pos_s,"(0.7, -0.5)",cs_neg_s,"(0.7, 0.5)",cs_pos_ns,0,0,0,0,,,,,,,,,,,,,,,,,,,,,1,11,35,12,,,,,,,,,,,,,,,,,,,,,,,,,,,351,loss,,,,,,1244.8164427999873,1244.8164427999873,1244.8164427999873,1244.8164427999873,0,,,0,,,1,0.06575030006933957,0.07262640004046261,1,0.0289180000545457,0.05916599999181926,1244.892876100028,1244.892876100028,1244.892876100028,1244.892876100028,47,B,2024-05-22_10h19.16.229,attentional_competition_task,2022.2.4,143.93501039820237,
positions.xlsx,positions_test.xlsx,positions_test_new.xlsx,stimuli.xlsx,stimuli_new.xlsx,stimuli/Social2.png,stimuli/Social1.png,stimuli/Nonsocial2.png,stimuli/Nonsocial1.png,stimuli/Social4.png,stimuli/Social3.png,stimuli/Nonsocial4.png,stimuli/Nonsocial3.png,,,"(-0.7, -0.5)",cs_pos_s,"(-0.7, 0.5)",cs_neg_s,"(0.7, -0.5)",cs_neg_ns,"(0.7, 0.5)",cs_pos_ns,0,0,0,0,,,,,,,,,,,,,,,,,,,,,1,12,36,6,,,,,,,,,,,,,,,,,,,,,,,,,,,360,reward,,,,,,1253.1286210999824,1253.1286210999824,1253.1286210999824,1253.1286210999824,0,,,0,,,0,,,1,0.025103699997998774,0.3250656999880448,1253.9619287999813,1253.9619287999813,1253.9619287999813,1253.9619287999813,47,B,2024-05-22_10h19.16.229,attentional_competition_task,2022.2.4,143.93501039820237,
positions.xlsx,positions_test.xlsx,positions_test_new.xlsx,stimuli.xlsx,stimuli_new.xlsx,stimuli/Social2.png,stimuli/Social1.png,stimuli/Nonsocial2.png,stimuli/Nonsocial1.png,stimuli/Social4.png,stimuli/Social3.png,stimuli/Nonsocial4.png,stimuli/Nonsocial3.png,,,"(-0.7, -0.5)",cs_neg_s,"(-0.7, 0.5)",cs_pos_s,"(0.7, -0.5)",cs_neg_ns,"(0.7, 0.5)",cs_pos_ns,0,0,0,0,,,,,,,,,,,,,,,,,,,,,1,13,37,0,,,,,,,,,,,,,,,,,,,,,,,,,,,369,reward,,,,,,1262.2532726000063,1262.2532726000063,1262.2532726000063,1262.2532726000063,0,,,0,,,0,,,1,0.022565099992789328,0.022568900021724403,1262.2532726000063,1262.2532726000063,1262.2532726000063,1262.2532726000063,47,B,2024-05-22_10h19.16.229,attentional_competition_task,2022.2.4,143.93501039820237,
positions.xlsx,positions_test.xlsx,positions_test_new.xlsx,stimuli.xlsx,stimuli_new.xlsx,stimuli/Social2.png,stimuli/Social1.png,stimuli/Nonsocial2.png,stimuli/Nonsocial1.png,stimuli/Social4.png,stimuli/Social3.png,stimuli/Nonsocial4.png,stimuli/Nonsocial3.png,,,"(-0.7, -0.5)",cs_neg_s,"(-0.7, 0.5)",cs_pos_ns,"(0.7, -0.5)",cs_pos_s,"(0.7, 0.5)",cs_neg_ns,0,0,0,0,,,,,,,,,,,,,,,,,,,,,1,14,38,4,,,,,,,,,,,,,,,,,,,,,,,,,,,375,reward,,,,,,1269.2043654000154,1269.2043654000154,1269.2043654000154,1269.2043654000154,0,,,1,0.43310140003450215,0.44015469995792955,0,,,0,,,1269.648799299961,1269.648799299961,1269.648799299961,1269.648799299961,47,B,2024-05-22_10h19.16.229,attentional_competition_task,2022.2.4,143.93501039820237,
positions.xlsx,positions_test.xlsx,positions_test_new.xlsx,stimuli.xlsx,stimuli_new.xlsx,stimuli/Social2.png,stimuli/Social1.png,stimuli/Nonsocial2.png,stimuli/Nonsocial1.png,stimuli/Social4.png,stimuli/Social3.png,stimuli/Nonsocial4.png,stimuli/Nonsocial3.png,,,"(-0.7, -0.5)",cs_neg_s,"(-0.7, 0.5)",cs_neg_ns,"(0.7, -0.5)",cs_pos_ns,"(0.7, 0.5)",cs_pos_s,0,0,0,0,,,,,,,,,,,,,,,,,,,,,1,15,39,3,,,,,,,,,,,,,,,,,,,,,,,,,,,384,reward,,,,,,1279.0442636000225,1279.0442636000225,1279.0442636000225,1279.0442636000225,0,,,0,,,1,0.022767400019802153,0.2531300000846386,0,,,1279.808133100043,1279.808133100043,1279.808133100043,1279.808133100043,47,B,2024-05-22_10h19.16.229,attentional_competition_task,2022.2.4,143.93501039820237,
positions.xlsx,positions_test.xlsx,positions_test_new.xlsx,stimuli.xlsx,stimuli_new.xlsx,stimuli/Social2.png,stimuli/Social1.png,stimuli/Nonsocial2.png,stimuli/Nonsocial1.png,stimuli/Social4.png,stimuli/Social3.png,stimuli/Nonsocial4.png,stimuli/Nonsocial3.png,,,"(-0.7, -0.5)",cs_neg_s,"(-0.7, 0.5)",cs_neg_ns,"(0.7, -0.5)",cs_pos_s,"(0.7, 0.5)",cs_pos_ns,0,0,0,0,,,,,,,,,,,,,,,,,,,,,1,16,40,2,,,,,,,,,,,,,,,,,,,,,,,,,,,393,reward,,,,,,1287.6966914000222,1287.6966914000222,1287.6966914000222,1287.6966914000222,0,,,0,,,0,,,1,0.02408060000743717,0.03222749999258667,1288.6202755999984,1288.6202755999984,1288.6202755999984,1288.6202755999984,47,B,2024-05-22_10h19.16.229,attentional_competition_task,2022.2.4,143.93501039820237,
positions.xlsx,positions_test.xlsx,positions_test_new.xlsx,stimuli.xlsx,stimuli_new.xlsx,stimuli/Social2.png,stimuli/Social1.png,stimuli/Nonsocial2.png,stimuli/Nonsocial1.png,stimuli/Social4.png,stimuli/Social3.png,stimuli/Nonsocial4.png,stimuli/Nonsocial3.png,,,"(-0.7, -0.5)",cs_neg_ns,"(-0.7, 0.5)",cs_pos_ns,"(0.7, -0.5)",cs_neg_s,"(0.7, 0.5)",cs_pos_s,0,0,0,0,,,,,,,,,,,,,,,,,,,,,1,17,41,17,,,,,,,,,,,,,,,,,,,,,,,,,,,402,reward,,,,,,1295.7310943000484,1295.7310943000484,1295.7310943000484,1295.7310943000484,0,,,1,0.02399490005336702,0.045758599997498095,0,,,0,,,1296.4880112999817,1296.4880112999817,1296.4880112999817,1296.4880112999817,47,B,2024-05-22_10h19.16.229,attentional_competition_task,2022.2.4,143.93501039820237,
positions.xlsx,positions_test.xlsx,positions_test_new.xlsx,stimuli.xlsx,stimuli_new.xlsx,stimuli/Social2.png,stimuli/Social1.png,stimuli/Nonsocial2.png,stimuli/Nonsocial1.png,stimuli/Social4.png,stimuli/Social3.png,stimuli/Nonsocial4.png,stimuli/Nonsocial3.png,,,"(-0.7, -0.5)",cs_neg_ns,"(-0.7, 0.5)",cs_pos_s,"(0.7, -0.5)",cs_pos_ns,"(0.7, 0.5)",cs_neg_s,0,0,0,0,,,,,,,,,,,,,,,,,,,,,1,18,42,13,,,,,,,,,,,,,,,,,,,,,,,,,,,408,reward,,,,,,1304.0363269000081,1304.0363269000081,1304.0363269000081,1304.0363269000081,0,,,1,0.030027300002984703,0.09315490000881255,1,0.6213716000784189,0.6213752999901772,0,,,1304.6613040000666,1304.6613040000666,1304.6613040000666,1304.6613040000666,47,B,2024-05-22_10h19.16.229,attentional_competition_task,2022.2.4,143.93501039820237,
positions.xlsx,positions_test.xlsx,positions_test_new.xlsx,stimuli.xlsx,stimuli_new.xlsx,stimuli/Social2.png,stimuli/Social1.png,stimuli/Nonsocial2.png,stimuli/Nonsocial1.png,stimuli/Social4.png,stimuli/Social3.png,stimuli/Nonsocial4.png,stimuli/Nonsocial3.png,,,"(-0.7, -0.5)",cs_pos_ns,"(-0.7, 0.5)",cs_neg_s,"(0.7, -0.5)",cs_neg_ns,"(0.7, 0.5)",cs_pos_s,0,0,0,0,,,,,,,,,,,,,,,,,,,,,1,19,43,23,,,,,,,,,,,,,,,,,,,,,,,,,,,417,reward,,,,,,1314.056763599976,1314.056763599976,1314.056763599976,1314.056763599976,1,0.02282160008326173,0.08683470007963479,0,,,0,,,0,,,1314.6539645000594,1314.6539645000594,1314.6539645000594,1314.6539645000594,47,B,2024-05-22_10h19.16.229,attentional_competition_task,2022.2.4,143.93501039820237,
positions.xlsx,positions_test.xlsx,positions_test_new.xlsx,stimuli.xlsx,stimuli_new.xlsx,stimuli/Social2.png,stimuli/Social1.png,stimuli/Nonsocial2.png,stimuli/Nonsocial1.png,stimuli/Social4.png,stimuli/Social3.png,stimuli/Nonsocial4.png,stimuli/Nonsocial3.png,,,"(-0.7, -0.5)",cs_pos_s,"(-0.7, 0.5)",cs_neg_s,"(0.7, -0.5)",cs_pos_ns,"(0.7, 0.5)",cs_neg_ns,0,0,0,0,,,,,,,,,,,,,,,,,,,,,1,20,44,7,,,,,,,,,,,,,,,,,,,,,,,,,,,426,reward,,,,,,1322.7022450000513,1322.7022450000513,1322.7022450000513,1322.7022450000513,0,,,0,,,1,0.0278245999943465,0.14119170000776649,0,,,1323.3480663000373,1323.3480663000373,1323.3480663000373,1323.3480663000373,47,B,2024-05-22_10h19.16.229,attentional_competition_task,2022.2.4,143.93501039820237,
positions.xlsx,positions_test.xlsx,positions_test_new.xlsx,stimuli.xlsx,stimuli_new.xlsx,stimuli/Social2.png,stimuli/Social1.png,stimuli/Nonsocial2.png,stimuli/Nonsocial1.png,stimuli/Social4.png,stimuli/Social3.png,stimuli/Nonsocial4.png,stimuli/Nonsocial3.png,,,"(-0.7, -0.5)",cs_pos_s,"(-0.7, 0.5)",cs_neg_ns,"(0.7, -0.5)",cs_neg_s,"(0.7, 0.5)",cs_pos_ns,0,0,0,0,,,,,,,,,,,,,,,,,,,,,1,21,45,8,,,,,,,,,,,,,,,,,,,,,,,,,,,435,reward,,,,,,1330.9658315000124,1330.9658315000124,1330.9658315000124,1330.9658315000124,0,,,0,,,0,,,1,0.029573599924333394,0.1556408000178635,1331.625539300032,1331.625539300032,1331.625539300032,1331.625539300032,47,B,2024-05-22_10h19.16.229,attentional_competition_task,2022.2.4,143.93501039820237,
positions.xlsx,positions_test.xlsx,positions_test_new.xlsx,stimuli.xlsx,stimuli_new.xlsx,stimuli/Social2.png,stimuli/Social1.png,stimuli/Nonsocial2.png,stimuli/Nonsocial1.png,stimuli/Social4.png,stimuli/Social3.png,stimuli/Nonsocial4.png,stimuli/Nonsocial3.png,,,"(-0.7, -0.5)",cs_pos_ns,"(-0.7, 0.5)",cs_neg_ns,"(0.7, -0.5)",cs_neg_s,"(0.7, 0.5)",cs_pos_s,0,0,0,0,,,,,,,,,,,,,,,,,,,,,1,22,46,21,,,,,,,,,,,,,,,,,,,,,,,,,,,444,reward,,,,,,1339.514050800004,1339.514050800004,1339.514050800004,1339.514050800004,0,,,0,,,0,,,0,,,1340.1807300000219,1340.1807300000219,1340.1807300000219,1340.1807300000219,47,B,2024-05-22_10h19.16.229,attentional_competition_task,2022.2.4,143.93501039820237,
positions.xlsx,positions_test.xlsx,positions_test_new.xlsx,stimuli.xlsx,stimuli_new.xlsx,stimuli/Social2.png,stimuli/Social1.png,stimuli/Nonsocial2.png,stimuli/Nonsocial1.png,stimuli/Social4.png,stimuli/Social3.png,stimuli/Nonsocial4.png,stimuli/Nonsocial3.png,,,"(-0.7, -0.5)",cs_neg_s,"(-0.7, 0.5)",cs_pos_s,"(0.7, -0.5)",cs_pos_ns,"(0.7, 0.5)",cs_neg_ns,0,0,0,0,,,,,,,,,,,,,,,,,,,,,1,23,47,1,,,,,,,,,,,,,,,,,,,,,,,,,,,453,reward,,,,,,1347.867974700057,1347.867974700057,1347.867974700057,1347.867974700057,0,,,0,,,1,0.02374269999563694,0.09420360007788986,0,,,1348.7012937000254,1348.7012937000254,1348.7012937000254,1348.7012937000254,47,B,2024-05-22_10h19.16.229,attentional_competition_task,2022.2.4,143.93501039820237,
positions.xlsx,positions_test.xlsx,positions_test_new.xlsx,stimuli.xlsx,stimuli_new.xlsx,stimuli/Social2.png,stimuli/Social1.png,stimuli/Nonsocial2.png,stimuli/Nonsocial1.png,stimuli/Social4.png,stimuli/Social3.png,stimuli/Nonsocial4.png,stimuli/Nonsocial3.png,,,"(-0.7, -0.5)",cs_neg_s,"(-0.7, 0.5)",cs_pos_ns,"(0.7, -0.5)",cs_pos_s,"(0.7, 0.5)",cs_neg_ns,0,0,0,0,,,,,,,,,,,,,,,,,,,,,,,,,,,,,0,0,0,5,0,0,0,0,,,,,,,,,,,,,,,456,reward,,,,,,1354.9162335,1354.9162335,1354.9162335,1354.9162335,0,,,0,,,1,0.5506169999716803,0.550620699999854,0,,,1355.4787214000244,1355.4787214000244,1355.4787214000244,1355.4787214000244,47,B,2024-05-22_10h19.16.229,attentional_competition_task,2022.2.4,143.93501039820237,
positions.xlsx,positions_test.xlsx,positions_test_new.xlsx,stimuli.xlsx,stimuli_new.xlsx,stimuli/Social2.png,stimuli/Social1.png,stimuli/Nonsocial2.png,stimuli/Nonsocial1.png,stimuli/Social4.png,stimuli/Social3.png,stimuli/Nonsocial4.png,stimuli/Nonsocial3.png,,,"(-0.7, -0.5)",cs_neg_s,"(-0.7, 0.5)",cs_pos_ns,"(0.7, -0.5)",cs_pos_s,"(0.7, 0.5)",cs_neg_ns,0,0,0,0,,,,,,,,,,,,,,,,,,,,,,,,,,,,,0,0,0,5,1,0,1,0,,,,,,,,,,,,,,,459,reward,,,,,,1355.971776099992,1355.971776099992,1355.971776099992,1355.971776099992,0,,,1,0.23938889999408275,0.23939300002530217,0,,,0,,,1356.221762000001,1356.221762000001,1356.221762000001,1356.221762000001,47,B,2024-05-22_10h19.16.229,attentional_competition_task,2022.2.4,143.93501039820237,
positions.xlsx,positions_test.xlsx,positions_test_new.xlsx,stimuli.xlsx,stimuli_new.xlsx,stimuli/Social2.png,stimuli/Social1.png,stimuli/Nonsocial2.png,stimuli/Nonsocial1.png,stimuli/Social4.png,stimuli/Social3.png,stimuli/Nonsocial4.png,stimuli/Nonsocial3.png,,,"(-0.7, -0.5)",cs_neg_s,"(-0.7, 0.5)",cs_pos_ns,"(0.7, -0.5)",cs_pos_s,"(0.7, 0.5)",cs_neg_ns,0,0,0,0,,,,,,,,,,,,,,,,,,,,,,,,,,,,,0,0,0,5,2,0,2,0,,,,,,,,,,,,,,,462,reward,,,,,,1356.721734700026,1356.721734700026,1356.721734700026,1356.721734700026,0,,,0,,,0,,,0,,,1357.4370186000597,1357.4370186000597,1357.4370186000597,1357.4370186000597,47,B,2024-05-22_10h19.16.229,attentional_competition_task,2022.2.4,143.93501039820237,
positions.xlsx,positions_test.xlsx,positions_test_new.xlsx,stimuli.xlsx,stimuli_new.xlsx,stimuli/Social2.png,stimuli/Social1.png,stimuli/Nonsocial2.png,stimuli/Nonsocial1.png,stimuli/Social4.png,stimuli/Social3.png,stimuli/Nonsocial4.png,stimuli/Nonsocial3.png,,,"(-0.7, -0.5)",cs_neg_s,"(-0.7, 0.5)",cs_pos_ns,"(0.7, -0.5)",cs_pos_s,"(0.7, 0.5)",cs_neg_ns,0,0,0,0,,,,,,,,,,,,,,,,,,,,,,,,,,,,,0,0,0,5,,,,,,,,,,,,,,,,,,,,,,,,,,,,,,,,,,,,,,,,,,,,,,47,B,2024-05-22_10h19.16.229,attentional_competition_task,2022.2.4,143.93501039820237,
positions.xlsx,positions_test.xlsx,positions_test_new.xlsx,stimuli.xlsx,stimuli_new.xlsx,stimuli/Social2.png,stimuli/Social1.png,stimuli/Nonsocial2.png,stimuli/Nonsocial1.png,stimuli/Social4.png,stimuli/Social3.png,stimuli/Nonsocial4.png,stimuli/Nonsocial3.png,,,"(-0.7, -0.5)",cs_neg_ns,"(-0.7, 0.5)",cs_pos_s,"(0.7, -0.5)",cs_pos_ns,"(0.7, 0.5)",cs_neg_s_new,0,0,0,0,,,,,,,,,,,,,,,,,,,,,,,,,,,,,0,1,1,13,0,0,0,0,,,,,,,,,,,,,,,465,reward,,,,,,1363.4784243999748,1363.4784243999748,1363.4784243999748,1363.4784243999748,0,,,1,0.5646560000022873,0.5646599000319839,0,,,0,,,1364.0478328999598,1364.0478328999598,1364.0478328999598,1364.0478328999598,47,B,2024-05-22_10h19.16.229,attentional_competition_task,2022.2.4,143.93501039820237,
positions.xlsx,positions_test.xlsx,positions_test_new.xlsx,stimuli.xlsx,stimuli_new.xlsx,stimuli/Social2.png,stimuli/Social1.png,stimuli/Nonsocial2.png,stimuli/Nonsocial1.png,stimuli/Social4.png,stimuli/Social3.png,stimuli/Nonsocial4.png,stimuli/Nonsocial3.png,,,"(-0.7, -0.5)",cs_neg_ns,"(-0.7, 0.5)",cs_pos_s,"(0.7, -0.5)",cs_pos_ns,"(0.7, 0.5)",cs_neg_s_new,0,0,0,0,,,,,,,,,,,,,,,,,,,,,,,,,,,,,0,1,1,13,1,0,1,0,,,,,,,,,,,,,,,468,reward,,,,,,1364.554762899992,1364.554762899992,1364.554762899992,1364.554762899992,0,,,0,,,1,0.0790127000072971,0.07901669992133975,0,,,1364.6311490000226,1364.6311490000226,1364.6311490000226,1364.6311490000226,47,B,2024-05-22_10h19.16.229,attentional_competition_task,2022.2.4,143.93501039820237,
positions.xlsx,positions_test.xlsx,positions_test_new.xlsx,stimuli.xlsx,stimuli_new.xlsx,stimuli/Social2.png,stimuli/Social1.png,stimuli/Nonsocial2.png,stimuli/Nonsocial1.png,stimuli/Social4.png,stimuli/Social3.png,stimuli/Nonsocial4.png,stimuli/Nonsocial3.png,,,"(-0.7, -0.5)",cs_neg_ns,"(-0.7, 0.5)",cs_pos_s,"(0.7, -0.5)",cs_pos_ns,"(0.7, 0.5)",cs_neg_s_new,0,0,0,0,,,,,,,,,,,,,,,,,,,,,,,,,,,,,0,1,1,13,2,0,2,0,,,,,,,,,,,,,,,471,reward,,,,,,1365.1310863000108,1365.1310863000108,1365.1310863000108,1365.1310863000108,0,,,0,,,0,,,0,,,1365.992207000032,1365.992207000032,1365.992207000032,1365.992207000032,47,B,2024-05-22_10h19.16.229,attentional_competition_task,2022.2.4,143.93501039820237,
positions.xlsx,positions_test.xlsx,positions_test_new.xlsx,stimuli.xlsx,stimuli_new.xlsx,stimuli/Social2.png,stimuli/Social1.png,stimuli/Nonsocial2.png,stimuli/Nonsocial1.png,stimuli/Social4.png,stimuli/Social3.png,stimuli/Nonsocial4.png,stimuli/Nonsocial3.png,,,"(-0.7, -0.5)",cs_neg_ns,"(-0.7, 0.5)",cs_pos_s,"(0.7, -0.5)",cs_pos_ns,"(0.7, 0.5)",cs_neg_s_new,0,0,0,0,,,,,,,,,,,,,,,,,,,,,,,,,,,,,0,1,1,13,,,,,,,,,,,,,,,,,,,,,,,,,,,,,,,,,,,,,,,,,,,,,,47,B,2024-05-22_10h19.16.229,attentional_competition_task,2022.2.4,143.93501039820237,
positions.xlsx,positions_test.xlsx,positions_test_new.xlsx,stimuli.xlsx,stimuli_new.xlsx,stimuli/Social2.png,stimuli/Social1.png,stimuli/Nonsocial2.png,stimuli/Nonsocial1.png,stimuli/Social4.png,stimuli/Social3.png,stimuli/Nonsocial4.png,stimuli/Nonsocial3.png,,,"(-0.7, -0.5)",cs_pos_s,"(-0.7, 0.5)",cs_pos_ns,"(0.7, -0.5)",cs_neg_s,"(0.7, 0.5)",cs_neg_ns_new,0,0,0,0,,,,,,,,,,,,,,,,,,,,,,,,,,,,,0,2,2,27,0,0,0,0,,,,,,,,,,,,,,,474,reward,,,,,,1371.8739533000626,1371.8739533000626,1371.8739533000626,1371.8739533000626,1,0.5226411999901757,0.5291695999912918,0,,,0,,,0,,,1372.4086115000537,1372.4086115000537,1372.4086115000537,1372.4086115000537,47,B,2024-05-22_10h19.16.229,attentional_competition_task,2022.2.4,143.93501039820237,
positions.xlsx,positions_test.xlsx,positions_test_new.xlsx,stimuli.xlsx,stimuli_new.xlsx,stimuli/Social2.png,stimuli/Social1.png,stimuli/Nonsocial2.png,stimuli/Nonsocial1.png,stimuli/Social4.png,stimuli/Social3.png,stimuli/Nonsocial4.png,stimuli/Nonsocial3.png,,,"(-0.7, -0.5)",cs_pos_s,"(-0.7, 0.5)",cs_pos_ns,"(0.7, -0.5)",cs_neg_s,"(0.7, 0.5)",cs_neg_ns_new,0,0,0,0,,,,,,,,,,,,,,,,,,,,,,,,,,,,,0,2,2,27,1,0,1,0,,,,,,,,,,,,,,,477,reward,,,,,,1372.9155242000706,1372.9155242000706,1372.9155242000706,1372.9155242000706,1,0.028832800104282796,0.043992500053718686,1,0.06481870007701218,0.06482250010594726,0,,,0,,,1372.978003700031,1372.978003700031,1372.978003700031,1372.978003700031,47,B,2024-05-22_10h19.16.229,attentional_competition_task,2022.2.4,143.93501039820237,
positions.xlsx,positions_test.xlsx,positions_test_new.xlsx,stimuli.xlsx,stimuli_new.xlsx,stimuli/Social2.png,stimuli/Social1.png,stimuli/Nonsocial2.png,stimuli/Nonsocial1.png,stimuli/Social4.png,stimuli/Social3.png,stimuli/Nonsocial4.png,stimuli/Nonsocial3.png,,,"(-0.7, -0.5)",cs_pos_s,"(-0.7, 0.5)",cs_pos_ns,"(0.7, -0.5)",cs_neg_s,"(0.7, 0.5)",cs_neg_ns_new,0,0,0,0,,,,,,,,,,,,,,,,,,,,,,,,,,,,,0,2,2,27,2,0,2,0,,,,,,,,,,,,,,,480,reward,,,,,,1373.4710675000679,1373.4710675000679,1373.4710675000679,1373.4710675000679,0,,,1,0.022656399989500642,0.17018899996764958,0,,,0,,,1374.387698500068,1374.387698500068,1374.387698500068,1374.387698500068,47,B,2024-05-22_10h19.16.229,attentional_competition_task,2022.2.4,143.93501039820237,
positions.xlsx,positions_test.xlsx,positions_test_new.xlsx,stimuli.xlsx,stimuli_new.xlsx,stimuli/Social2.png,stimuli/Social1.png,stimuli/Nonsocial2.png,stimuli/Nonsocial1.png,stimuli/Social4.png,stimuli/Social3.png,stimuli/Nonsocial4.png,stimuli/Nonsocial3.png,,,"(-0.7, -0.5)",cs_pos_s,"(-0.7, 0.5)",cs_pos_ns,"(0.7, -0.5)",cs_neg_s,"(0.7, 0.5)",cs_neg_ns_new,0,0,0,0,,,,,,,,,,,,,,,,,,,,,,,,,,,,,0,2,2,27,,,,,,,,,,,,,,,,,,,,,,,,,,,,,,,,,,,,,,,,,,,,,,47,B,2024-05-22_10h19.16.229,attentional_competition_task,2022.2.4,143.93501039820237,
positions.xlsx,positions_test.xlsx,positions_test_new.xlsx,stimuli.xlsx,stimuli_new.xlsx,stimuli/Social2.png,stimuli/Social1.png,stimuli/Nonsocial2.png,stimuli/Nonsocial1.png,stimuli/Social4.png,stimuli/Social3.png,stimuli/Nonsocial4.png,stimuli/Nonsocial3.png,,,"(-0.7, -0.5)",cs_pos_ns,"(-0.7, 0.5)",cs_neg_s,"(0.7, -0.5)",cs_pos_s,"(0.7, 0.5)",cs_neg_ns_new,0,0,0,0,,,,,,,,,,,,,,,,,,,,,,,,,,,,,0,3,3,23,0,0,0,0,,,,,,,,,,,,,,,483,reward,,,,,,1380.1235601999797,1380.1235601999797,1380.1235601999797,1380.1235601999797,0,,,0,,,1,0.481110000051558,0.481114000082016,0,,,1380.609666000004,1380.609666000004,1380.609666000004,1380.609666000004,47,B,2024-05-22_10h19.16.229,attentional_competition_task,2022.2.4,143.93501039820237,
positions.xlsx,positions_test.xlsx,positions_test_new.xlsx,stimuli.xlsx,stimuli_new.xlsx,stimuli/Social2.png,stimuli/Social1.png,stimuli/Nonsocial2.png,stimuli/Nonsocial1.png,stimuli/Social4.png,stimuli/Social3.png,stimuli/Nonsocial4.png,stimuli/Nonsocial3.png,,,"(-0.7, -0.5)",cs_pos_ns,"(-0.7, 0.5)",cs_neg_s,"(0.7, -0.5)",cs_pos_s,"(0.7, 0.5)",cs_neg_ns_new,0,0,0,0,,,,,,,,,,,,,,,,,,,,,,,,,,,,,0,3,3,23,1,0,1,0,,,,,,,,,,,,,,,486,reward,,,,,,1381.116605099989,1381.116605099989,1381.116605099989,1381.116605099989,1,0.044499099953100085,0.04450289998203516,0,,,0,,,0,,,1381.151367100072,1381.151367100072,1381.151367100072,1381.151367100072,47,B,2024-05-22_10h19.16.229,attentional_competition_task,2022.2.4,143.93501039820237,
positions.xlsx,positions_test.xlsx,positions_test_new.xlsx,stimuli.xlsx,stimuli_new.xlsx,stimuli/Social2.png,stimuli/Social1.png,stimuli/Nonsocial2.png,stimuli/Nonsocial1.png,stimuli/Social4.png,stimuli/Social3.png,stimuli/Nonsocial4.png,stimuli/Nonsocial3.png,,,"(-0.7, -0.5)",cs_pos_ns,"(-0.7, 0.5)",cs_neg_s,"(0.7, -0.5)",cs_pos_s,"(0.7, 0.5)",cs_neg_ns_new,0,0,0,0,,,,,,,,,,,,,,,,,,,,,,,,,,,,,0,3,3,23,2,0,2,0,,,,,,,,,,,,,,,489,reward,,,,,,1381.6582269000355,1381.6582269000355,1381.6582269000355,1381.6582269000355,1,0.029235700028948486,0.0851674999576062,0,,,0,,,0,,,1382.6373794999672,1382.6373794999672,1382.6373794999672,1382.6373794999672,47,B,2024-05-22_10h19.16.229,attentional_competition_task,2022.2.4,143.93501039820237,
positions.xlsx,positions_test.xlsx,positions_test_new.xlsx,stimuli.xlsx,stimuli_new.xlsx,stimuli/Social2.png,stimuli/Social1.png,stimuli/Nonsocial2.png,stimuli/Nonsocial1.png,stimuli/Social4.png,stimuli/Social3.png,stimuli/Nonsocial4.png,stimuli/Nonsocial3.png,,,"(-0.7, -0.5)",cs_pos_ns,"(-0.7, 0.5)",cs_neg_s,"(0.7, -0.5)",cs_pos_s,"(0.7, 0.5)",cs_neg_ns_new,0,0,0,0,,,,,,,,,,,,,,,,,,,,,,,,,,,,,0,3,3,23,,,,,,,,,,,,,,,,,,,,,,,,,,,,,,,,,,,,,,,,,,,,,,47,B,2024-05-22_10h19.16.229,attentional_competition_task,2022.2.4,143.93501039820237,
positions.xlsx,positions_test.xlsx,positions_test_new.xlsx,stimuli.xlsx,stimuli_new.xlsx,stimuli/Social2.png,stimuli/Social1.png,stimuli/Nonsocial2.png,stimuli/Nonsocial1.png,stimuli/Social4.png,stimuli/Social3.png,stimuli/Nonsocial4.png,stimuli/Nonsocial3.png,,,"(-0.7, -0.5)",cs_pos_s,"(-0.7, 0.5)",cs_neg_s,"(0.7, -0.5)",cs_neg_ns_new,"(0.7, 0.5)",cs_pos_ns,0,0,0,0,,,,,,,,,,,,,,,,,,,,,,,,,,,,,0,4,4,25,0,0,0,0,,,,,,,,,,,,,,,492,reward,,,,,,1388.7413013000041,1388.7413013000041,1388.7413013000041,1388.7413013000041,1,0.7445788000477478,0.7445823999587446,0,,,0,,,0,,,1389.4912643000716,1389.4912643000716,1389.4912643000716,1389.4912643000716,47,B,2024-05-22_10h19.16.229,attentional_competition_task,2022.2.4,143.93501039820237,
positions.xlsx,positions_test.xlsx,positions_test_new.xlsx,stimuli.xlsx,stimuli_new.xlsx,stimuli/Social2.png,stimuli/Social1.png,stimuli/Nonsocial2.png,stimuli/Nonsocial1.png,stimuli/Social4.png,stimuli/Social3.png,stimuli/Nonsocial4.png,stimuli/Nonsocial3.png,,,"(-0.7, -0.5)",cs_pos_s,"(-0.7, 0.5)",cs_neg_s,"(0.7, -0.5)",cs_neg_ns_new,"(0.7, 0.5)",cs_pos_ns,0,0,0,0,,,,,,,,,,,,,,,,,,,,,,,,,,,,,0,4,4,25,1,0,1,0,,,,,,,,,,,,,,,495,reward,,,,,,1389.9912661999697,1389.9912661999697,1389.9912661999697,1389.9912661999697,0,,,0,,,0,,,1,0.06542599992826581,0.07272189995273948,1390.0676302000647,1390.0676302000647,1390.0676302000647,1390.0676302000647,47,B,2024-05-22_10h19.16.229,attentional_competition_task,2022.2.4,143.93501039820237,
positions.xlsx,positions_test.xlsx,positions_test_new.xlsx,stimuli.xlsx,stimuli_new.xlsx,stimuli/Social2.png,stimuli/Social1.png,stimuli/Nonsocial2.png,stimuli/Nonsocial1.png,stimuli/Social4.png,stimuli/Social3.png,stimuli/Nonsocial4.png,stimuli/Nonsocial3.png,,,"(-0.7, -0.5)",cs_pos_s,"(-0.7, 0.5)",cs_neg_s,"(0.7, -0.5)",cs_neg_ns_new,"(0.7, 0.5)",cs_pos_ns,0,0,0,0,,,,,,,,,,,,,,,,,,,,,,,,,,,,,0,4,4,25,2,0,2,0,,,,,,,,,,,,,,,498,reward,,,,,,1390.5675798000302,1390.5675798000302,1390.5675798000302,1390.5675798000302,0,,,0,,,0,,,1,0.024775200057774782,0.18449770007282495,1391.2550917000044,1391.2550917000044,1391.2550917000044,1391.2550917000044,47,B,2024-05-22_10h19.16.229,attentional_competition_task,2022.2.4,143.93501039820237,
positions.xlsx,positions_test.xlsx,positions_test_new.xlsx,stimuli.xlsx,stimuli_new.xlsx,stimuli/Social2.png,stimuli/Social1.png,stimuli/Nonsocial2.png,stimuli/Nonsocial1.png,stimuli/Social4.png,stimuli/Social3.png,stimuli/Nonsocial4.png,stimuli/Nonsocial3.png,,,"(-0.7, -0.5)",cs_pos_s,"(-0.7, 0.5)",cs_neg_s,"(0.7, -0.5)",cs_neg_ns_new,"(0.7, 0.5)",cs_pos_ns,0,0,0,0,,,,,,,,,,,,,,,,,,,,,,,,,,,,,0,4,4,25,,,,,,,,,,,,,,,,,,,,,,,,,,,,,,,,,,,,,,,,,,,,,,47,B,2024-05-22_10h19.16.229,attentional_competition_task,2022.2.4,143.93501039820237,
positions.xlsx,positions_test.xlsx,positions_test_new.xlsx,stimuli.xlsx,stimuli_new.xlsx,stimuli/Social2.png,stimuli/Social1.png,stimuli/Nonsocial2.png,stimuli/Nonsocial1.png,stimuli/Social4.png,stimuli/Social3.png,stimuli/Nonsocial4.png,stimuli/Nonsocial3.png,,,"(-0.7, -0.5)",cs_neg_ns,"(-0.7, 0.5)",cs_neg_s,"(0.7, -0.5)",cs_pos_ns,"(0.7, 0.5)",cs_pos_s_new,0,0,0,0,,,,,,,,,,,,,,,,,,,,,,,,,,,,,0,5,5,28,0,0,0,0,,,,,,,,,,,,,,,501,reward,,,,,,1397.4701100999955,1397.4701100999955,1397.4701100999955,1397.4701100999955,0,,,0,,,0,,,1,1.1144222000148147,1.1211790000088513,1398.5950729000615,1398.5950729000615,1398.5950729000615,1398.5950729000615,47,B,2024-05-22_10h19.16.229,attentional_competition_task,2022.2.4,143.93501039820237,
positions.xlsx,positions_test.xlsx,positions_test_new.xlsx,stimuli.xlsx,stimuli_new.xlsx,stimuli/Social2.png,stimuli/Social1.png,stimuli/Nonsocial2.png,stimuli/Nonsocial1.png,stimuli/Social4.png,stimuli/Social3.png,stimuli/Nonsocial4.png,stimuli/Nonsocial3.png,,,"(-0.7, -0.5)",cs_neg_ns,"(-0.7, 0.5)",cs_neg_s,"(0.7, -0.5)",cs_pos_ns,"(0.7, 0.5)",cs_pos_s_new,0,0,0,0,,,,,,,,,,,,,,,,,,,,,,,,,,,,,0,5,5,28,1,0,1,0,,,,,,,,,,,,,,,504,reward,,,,,,1399.0950414000545,1399.0950414000545,1399.0950414000545,1399.0950414000545,0,,,0,,,0,,,1,0.029717299970798194,0.0854352000169456,1399.9769777000183,1399.9769777000183,1399.9769777000183,1399.9769777000183,47,B,2024-05-22_10h19.16.229,attentional_competition_task,2022.2.4,143.93501039820237,
positions.xlsx,positions_test.xlsx,positions_test_new.xlsx,stimuli.xlsx,stimuli_new.xlsx,stimuli/Social2.png,stimuli/Social1.png,stimuli/Nonsocial2.png,stimuli/Nonsocial1.png,stimuli/Social4.png,stimuli/Social3.png,stimuli/Nonsocial4.png,stimuli/Nonsocial3.png,,,"(-0.7, -0.5)",cs_neg_ns,"(-0.7, 0.5)",cs_neg_s,"(0.7, -0.5)",cs_pos_ns,"(0.7, 0.5)",cs_pos_s_new,0,0,0,0,,,,,,,,,,,,,,,,,,,,,,,,,,,,,0,5,5,28,,,,,,,,,,,,,,,,,,,,,,,,,,,,,,,,,,,,,,,,,,,,,,47,B,2024-05-22_10h19.16.229,attentional_competition_task,2022.2.4,143.93501039820237,
positions.xlsx,positions_test.xlsx,positions_test_new.xlsx,stimuli.xlsx,stimuli_new.xlsx,stimuli/Social2.png,stimuli/Social1.png,stimuli/Nonsocial2.png,stimuli/Nonsocial1.png,stimuli/Social4.png,stimuli/Social3.png,stimuli/Nonsocial4.png,stimuli/Nonsocial3.png,,,"(-0.7, -0.5)",cs_neg_s,"(-0.7, 0.5)",cs_neg_ns,"(0.7, -0.5)",cs_pos_s,"(0.7, 0.5)",cs_pos_ns,0,0,0,0,,,,,,,,,,,,,,,,,,,,,,,,,,,,,0,6,6,3,0,0,0,0,,,,,,,,,,,,,,,507,reward,,,,,,1406.7336486000568,1406.7336486000568,1406.7336486000568,1406.7336486000568,0,,,0,,,1,0.947219799971208,0.947223600000143,0,,,1407.6850092000095,1407.6850092000095,1407.6850092000095,1407.6850092000095,47,B,2024-05-22_10h19.16.229,attentional_competition_task,2022.2.4,143.93501039820237,
positions.xlsx,positions_test.xlsx,positions_test_new.xlsx,stimuli.xlsx,stimuli_new.xlsx,stimuli/Social2.png,stimuli/Social1.png,stimuli/Nonsocial2.png,stimuli/Nonsocial1.png,stimuli/Social4.png,stimuli/Social3.png,stimuli/Nonsocial4.png,stimuli/Nonsocial3.png,,,"(-0.7, -0.5)",cs_neg_s,"(-0.7, 0.5)",cs_neg_ns,"(0.7, -0.5)",cs_pos_s,"(0.7, 0.5)",cs_pos_ns,0,0,0,0,,,,,,,,,,,,,,,,,,,,,,,,,,,,,0,6,6,3,1,0,1,0,,,,,,,,,,,,,,,510,reward,,,,,,1408.184984600055,1408.184984600055,1408.184984600055,1408.184984600055,0,,,0,,,1,0.028994200052693486,0.16174100001808256,1,0.21775790001265705,0.21776180004235357,1408.4002305000322,1408.4002305000322,1408.4002305000322,1408.4002305000322,47,B,2024-05-22_10h19.16.229,attentional_competition_task,2022.2.4,143.93501039820237,
positions.xlsx,positions_test.xlsx,positions_test_new.xlsx,stimuli.xlsx,stimuli_new.xlsx,stimuli/Social2.png,stimuli/Social1.png,stimuli/Nonsocial2.png,stimuli/Nonsocial1.png,stimuli/Social4.png,stimuli/Social3.png,stimuli/Nonsocial4.png,stimuli/Nonsocial3.png,,,"(-0.7, -0.5)",cs_neg_s,"(-0.7, 0.5)",cs_neg_ns,"(0.7, -0.5)",cs_pos_s,"(0.7, 0.5)",cs_pos_ns,0,0,0,0,,,,,,,,,,,,,,,,,,,,,,,,,,,,,0,6,6,3,,,,,,,,,,,,,,,,,,,,,,,,,,,,,,,,,,,,,,,,,,,,,,47,B,2024-05-22_10h19.16.229,attentional_competition_task,2022.2.4,143.93501039820237,
positions.xlsx,positions_test.xlsx,positions_test_new.xlsx,stimuli.xlsx,stimuli_new.xlsx,stimuli/Social2.png,stimuli/Social1.png,stimuli/Nonsocial2.png,stimuli/Nonsocial1.png,stimuli/Social4.png,stimuli/Social3.png,stimuli/Nonsocial4.png,stimuli/Nonsocial3.png,,,"(-0.7, -0.5)",cs_neg_s,"(-0.7, 0.5)",cs_pos_ns,"(0.7, -0.5)",cs_neg_ns_new,"(0.7, 0.5)",cs_pos_s,0,0,0,0,,,,,,,,,,,,,,,,,,,,,,,,,,,,,0,7,7,21,0,0,0,0,,,,,,,,,,,,,,,513,reward,,,,,,1414.518047700054,1414.518047700054,1414.518047700054,1414.518047700054,0,,,0,,,0,,,1,0.6211350000230595,0.6211550999432802,1415.1430173000554,1415.1430173000554,1415.1430173000554,1415.1430173000554,47,B,2024-05-22_10h19.16.229,attentional_competition_task,2022.2.4,143.93501039820237,
positions.xlsx,positions_test.xlsx,positions_test_new.xlsx,stimuli.xlsx,stimuli_new.xlsx,stimuli/Social2.png,stimuli/Social1.png,stimuli/Nonsocial2.png,stimuli/Nonsocial1.png,stimuli/Social4.png,stimuli/Social3.png,stimuli/Nonsocial4.png,stimuli/Nonsocial3.png,,,"(-0.7, -0.5)",cs_neg_s,"(-0.7, 0.5)",cs_pos_ns,"(0.7, -0.5)",cs_neg_ns_new,"(0.7, 0.5)",cs_pos_s,0,0,0,0,,,,,,,,,,,,,,,,,,,,,,,,,,,,,0,7,7,21,1,0,1,0,,,,,,,,,,,,,,,510,loss,,,,,,1415.6707673000637,1415.6707673000637,1415.6707673000637,1415.6707673000637,0,,,0,,,1,0.02752550004515797,0.027529100072570145,0,,,1415.6707673000637,1415.6707673000637,1415.6707673000637,1415.6707673000637,47,B,2024-05-22_10h19.16.229,attentional_competition_task,2022.2.4,143.93501039820237,
positions.xlsx,positions_test.xlsx,positions_test_new.xlsx,stimuli.xlsx,stimuli_new.xlsx,stimuli/Social2.png,stimuli/Social1.png,stimuli/Nonsocial2.png,stimuli/Nonsocial1.png,stimuli/Social4.png,stimuli/Social3.png,stimuli/Nonsocial4.png,stimuli/Nonsocial3.png,,,"(-0.7, -0.5)",cs_neg_s,"(-0.7, 0.5)",cs_pos_ns,"(0.7, -0.5)",cs_neg_ns_new,"(0.7, 0.5)",cs_pos_s,0,0,0,0,,,,,,,,,,,,,,,,,,,,,,,,,,,,,0,7,7,21,2,0,2,0,,,,,,,,,,,,,,,513,reward,,,,,,1416.1986220000545,1416.1986220000545,1416.1986220000545,1416.1986220000545,0,,,1,0.023765500052832067,0.023769699968397617,0,,,0,,,1416.1986220000545,1416.1986220000545,1416.1986220000545,1416.1986220000545,47,B,2024-05-22_10h19.16.229,attentional_competition_task,2022.2.4,143.93501039820237,
positions.xlsx,positions_test.xlsx,positions_test_new.xlsx,stimuli.xlsx,stimuli_new.xlsx,stimuli/Social2.png,stimuli/Social1.png,stimuli/Nonsocial2.png,stimuli/Nonsocial1.png,stimuli/Social4.png,stimuli/Social3.png,stimuli/Nonsocial4.png,stimuli/Nonsocial3.png,,,"(-0.7, -0.5)",cs_neg_s,"(-0.7, 0.5)",cs_pos_ns,"(0.7, -0.5)",cs_neg_ns_new,"(0.7, 0.5)",cs_pos_s,0,0,0,0,,,,,,,,,,,,,,,,,,,,,,,,,,,,,0,7,7,21,,,,,,,,,,,,,,,,,,,,,,,,,,,,,,,,,,,,,,,,,,,,,,47,B,2024-05-22_10h19.16.229,attentional_competition_task,2022.2.4,143.93501039820237,
positions.xlsx,positions_test.xlsx,positions_test_new.xlsx,stimuli.xlsx,stimuli_new.xlsx,stimuli/Social2.png,stimuli/Social1.png,stimuli/Nonsocial2.png,stimuli/Nonsocial1.png,stimuli/Social4.png,stimuli/Social3.png,stimuli/Nonsocial4.png,stimuli/Nonsocial3.png,,,"(-0.7, -0.5)",cs_neg_s,"(-0.7, 0.5)",cs_pos_ns,"(0.7, -0.5)",cs_neg_ns,"(0.7, 0.5)",cs_pos_s,0,0,0,0,,,,,,,,,,,,,,,,,,,,,,,,,,,,,0,8,8,1,0,0,0,0,,,,,,,,,,,,,,,516,reward,,,,,,1423.2885070999619,1423.2885070999619,1423.2885070999619,1423.2885070999619,0,,,0,,,0,,,1,0.6278654999332502,0.6278691999614239,1423.9204386000056,1423.9204386000056,1423.9204386000056,1423.9204386000056,47,B,2024-05-22_10h19.16.229,attentional_competition_task,2022.2.4,143.93501039820237,
positions.xlsx,positions_test.xlsx,positions_test_new.xlsx,stimuli.xlsx,stimuli_new.xlsx,stimuli/Social2.png,stimuli/Social1.png,stimuli/Nonsocial2.png,stimuli/Nonsocial1.png,stimuli/Social4.png,stimuli/Social3.png,stimuli/Nonsocial4.png,stimuli/Nonsocial3.png,,,"(-0.7, -0.5)",cs_neg_s,"(-0.7, 0.5)",cs_pos_ns,"(0.7, -0.5)",cs_neg_ns,"(0.7, 0.5)",cs_pos_s,0,0,0,0,,,,,,,,,,,,,,,,,,,,,,,,,,,,,0,8,8,1,1,0,1,0,,,,,,,,,,,,,,,519,reward,,,,,,1424.4551585000008,1424.4551585000008,1424.4551585000008,1424.4551585000008,0,,,1,0.029924099915660918,0.029927999945357442,0,,,0,,,1424.4551585000008,1424.4551585000008,1424.4551585000008,1424.4551585000008,47,B,2024-05-22_10h19.16.229,attentional_competition_task,2022.2.4,143.93501039820237,
