posFile,posFileTest,posFileTestNew,stimFile,stimFileNew,cs_neg_s,cs_pos_s,cs_neg_ns,cs_pos_ns,cs_neg_s_new,cs_pos_s_new,cs_neg_ns_new,cs_pos_ns_new,stim,position,position1,stim1,position2,stim2,position3,stim3,position4,stim4,blocks.thisRepN,blocks.thisTrialN,blocks.thisN,blocks.thisIndex,ratingtrials1.thisRepN,ratingtrials1.thisTrialN,ratingtrials1.thisN,ratingtrials1.thisIndex,search_task_trials.thisRepN,search_task_trials.thisTrialN,search_task_trials.thisN,search_task_trials.thisIndex,learning_trials.thisRepN,learning_trials.thisTrialN,learning_trials.thisN,learning_trials.thisIndex,trials.thisRepN,trials.thisTrialN,trials.thisN,trials.thisIndex,ratingtrials2.thisRepN,ratingtrials2.thisTrialN,ratingtrials2.thisN,ratingtrials2.thisIndex,testtrials.thisRepN,testtrials.thisTrialN,testtrials.thisN,testtrials.thisIndex,loop_test.thisRepN,loop_test.thisTrialN,loop_test.thisN,loop_test.thisIndex,testtrials_novelty.thisRepN,testtrials_novelty.thisTrialN,testtrials_novelty.thisN,testtrials_novelty.thisIndex,loop_test_novelty.thisRepN,loop_test_novelty.thisTrialN,loop_test_novelty.thisN,loop_test_novelty.thisIndex,ratingtrials3.thisRepN,ratingtrials3.thisTrialN,ratingtrials3.thisN,ratingtrials3.thisIndex,textStart.started,textStartExp.started,imageRating.started,sliderStim.response,sliderStim.rt,textStartSearch.started,target_positions,distractor_positions,textStartTask.started,image.started,score,outcome,roi.numLooks,roi.timesOn,roi.timesOff,imageFeedback.started,textTestInstr.started,test_image1.started,test_image2.started,test_image3.started,test_image4.started,test_roi1.numLooks,test_roi1.timesOn,test_roi1.timesOff,test_roi2.numLooks,test_roi2.timesOn,test_roi2.timesOff,test_roi3.numLooks,test_roi3.timesOn,test_roi3.timesOff,test_roi4.numLooks,test_roi4.timesOn,test_roi4.timesOff,test_image_feedback1.started,test_image_feedback2.started,test_iamge_feedback3.started,test_iamge_feedback4.started,participant,group,date,expName,psychopyVersion,frameRate,
positions.xlsx,positions_test.xlsx,positions_test_new.xlsx,stimuli.xlsx,stimuli_new.xlsx,stimuli/Social3.png,stimuli/Social4.png,stimuli/Nonsocial3.png,stimuli/Nonsocial4.png,stimuli/Social1.png,stimuli/Social2.png,stimuli/Nonsocial1.png,stimuli/Nonsocial2.png,cs_neg_ns,,,,,,,,,,0,0,0,0,0,0,0,1,,,,,,,,,,,,,,,,,,,,,,,,,,,,,,,,,,,,,15.015133399982005,93.54477259982377,111.71824409998953,7.0,13.15854710014537,,,,,,,,,,,,,,,,,,,,,,,,,,,,,,,,,13,C,2024-04-22_11h17.54.969,attentional_competition_task,2022.2.4,143.97645673689073,
positions.xlsx,positions_test.xlsx,positions_test_new.xlsx,stimuli.xlsx,stimuli_new.xlsx,stimuli/Social3.png,stimuli/Social4.png,stimuli/Nonsocial3.png,stimuli/Nonsocial4.png,stimuli/Social1.png,stimuli/Social2.png,stimuli/Nonsocial1.png,stimuli/Nonsocial2.png,cs_neg_s,,,,,,,,,,0,0,0,0,0,1,1,0,,,,,,,,,,,,,,,,,,,,,,,,,,,,,,,,,,,,,,,128.0161876999773,3.0,4.3707836996763945,,,,,,,,,,,,,,,,,,,,,,,,,,,,,,,,,13,C,2024-04-22_11h17.54.969,attentional_competition_task,2022.2.4,143.97645673689073,
positions.xlsx,positions_test.xlsx,positions_test_new.xlsx,stimuli.xlsx,stimuli_new.xlsx,stimuli/Social3.png,stimuli/Social4.png,stimuli/Nonsocial3.png,stimuli/Nonsocial4.png,stimuli/Social1.png,stimuli/Social2.png,stimuli/Nonsocial1.png,stimuli/Nonsocial2.png,cs_pos_s,,,,,,,,,,0,0,0,0,0,2,2,2,,,,,,,,,,,,,,,,,,,,,,,,,,,,,,,,,,,,,,,133.2381867999211,5.0,4.73084510024637,,,,,,,,,,,,,,,,,,,,,,,,,,,,,,,,,13,C,2024-04-22_11h17.54.969,attentional_competition_task,2022.2.4,143.97645673689073,
positions.xlsx,positions_test.xlsx,positions_test_new.xlsx,stimuli.xlsx,stimuli_new.xlsx,stimuli/Social3.png,stimuli/Social4.png,stimuli/Nonsocial3.png,stimuli/Nonsocial4.png,stimuli/Social1.png,stimuli/Social2.png,stimuli/Nonsocial1.png,stimuli/Nonsocial2.png,cs_pos_ns,,,,,,,,,,0,0,0,0,0,3,3,3,,,,,,,,,,,,,,,,,,,,,,,,,,,,,,,,,,,,,,,138.20324310008436,9.0,3.6749259997159243,,,,,,,,,,,,,,,,,,,,,,,,,,,,,,,,,13,C,2024-04-22_11h17.54.969,attentional_competition_task,2022.2.4,143.97645673689073,
positions.xlsx,positions_test.xlsx,positions_test_new.xlsx,stimuli.xlsx,stimuli_new.xlsx,stimuli/Social3.png,stimuli/Social4.png,stimuli/Nonsocial3.png,stimuli/Nonsocial4.png,stimuli/Social1.png,stimuli/Social2.png,stimuli/Nonsocial1.png,stimuli/Nonsocial2.png,,,,,,,,,,,0,0,0,0,,,,,0,0,0,0,,,,,,,,,,,,,,,,,,,,,,,,,,,,,,,,,,,,,,142.07812299998477,"[[-0.45, -0.8], [-0.9, -0.8], [-0.9, 0.7], [0.45000000000000007, 0.7], [0.22499999999999998, 0.19999999999999996], [0.9, 0.19999999999999996], [-0.675, 0.19999999999999996], [-0.45, 0.19999999999999996], [0.0, -0.8], [-0.22499999999999998, 0.19999999999999996], [0.6749999999999999, -0.30000000000000004], [-0.675, -0.8], [0.0, 0.7], [0.45000000000000007, 0.19999999999999996], [0.9, -0.30000000000000004]]","[[0.6749999999999999, -0.8], [0.22499999999999998, 0.7], [0.9, 0.7], [-0.45, 0.7], [0.9, -0.8], [0.0, 0.19999999999999996], [0.6749999999999999, 0.7], [0.0, -0.30000000000000004], [-0.22499999999999998, -0.30000000000000004], [-0.45, -0.30000000000000004], [0.22499999999999998, -0.30000000000000004], [-0.675, -0.30000000000000004], [0.22499999999999998, -0.8], [-0.9, -0.30000000000000004], [-0.22499999999999998, -0.8]]",,,,,,,,,,,,,,,,,,,,,,,,,,,,,,13,C,2024-04-22_11h17.54.969,attentional_competition_task,2022.2.4,143.97645673689073,
positions.xlsx,positions_test.xlsx,positions_test_new.xlsx,stimuli.xlsx,stimuli_new.xlsx,stimuli/Social3.png,stimuli/Social4.png,stimuli/Nonsocial3.png,stimuli/Nonsocial4.png,stimuli/Social1.png,stimuli/Social2.png,stimuli/Nonsocial1.png,stimuli/Nonsocial2.png,,,,,,,,,,,0,0,0,0,,,,,1,0,1,0,,,,,,,,,,,,,,,,,,,,,,,,,,,,,,,,,,,,,,,"[[0.0, 0.19999999999999996], [0.45000000000000007, 0.19999999999999996], [-0.9, -0.30000000000000004], [0.0, -0.30000000000000004], [0.6749999999999999, -0.8], [-0.22499999999999998, 0.7], [-0.9, 0.19999999999999996], [-0.675, -0.30000000000000004], [0.9, 0.19999999999999996], [0.45000000000000007, 0.7], [0.9, -0.8], [-0.675, 0.19999999999999996], [-0.675, -0.8], [0.6749999999999999, -0.30000000000000004], [0.45000000000000007, -0.30000000000000004]]","[[0.0, -0.8], [0.6749999999999999, 0.19999999999999996], [-0.45, -0.8], [-0.45, 0.19999999999999996], [-0.9, 0.7], [-0.675, 0.7], [-0.22499999999999998, -0.30000000000000004], [0.22499999999999998, -0.30000000000000004], [0.9, 0.7], [-0.45, 0.7], [0.6749999999999999, 0.7], [0.22499999999999998, 0.7], [-0.9, -0.8], [0.22499999999999998, -0.8], [-0.45, -0.30000000000000004]]",,,,,,,,,,,,,,,,,,,,,,,,,,,,,,13,C,2024-04-22_11h17.54.969,attentional_competition_task,2022.2.4,143.97645673689073,
positions.xlsx,positions_test.xlsx,positions_test_new.xlsx,stimuli.xlsx,stimuli_new.xlsx,stimuli/Social3.png,stimuli/Social4.png,stimuli/Nonsocial3.png,stimuli/Nonsocial4.png,stimuli/Social1.png,stimuli/Social2.png,stimuli/Nonsocial1.png,stimuli/Nonsocial2.png,cs_neg_s,"(-0.7, 0.5)",,,,,,,,,0,0,0,0,,,,,,,,,0,0,0,0,,,,,,,,,,,,,,,,,,,,,,,,,,,,,,,,,,,,,221.17212679982185,241.9767960999161,-3,loss,1,0.30569150019437075,0.3056951002217829,242.28930770000443,,,,,,,,,,,,,,,,,,,,,,13,C,2024-04-22_11h17.54.969,attentional_competition_task,2022.2.4,143.97645673689073,
positions.xlsx,positions_test.xlsx,positions_test_new.xlsx,stimuli.xlsx,stimuli_new.xlsx,stimuli/Social3.png,stimuli/Social4.png,stimuli/Nonsocial3.png,stimuli/Nonsocial4.png,stimuli/Social1.png,stimuli/Social2.png,stimuli/Nonsocial1.png,stimuli/Nonsocial2.png,cs_pos_s,"(-0.7, 0.5)",,,,,,,,,0,0,0,0,,,,,,,,,0,1,1,4,,,,,,,,,,,,,,,,,,,,,,,,,,,,,,,,,,,,,,249.52509489981458,0,reward,1,0.7083882000297308,0.7083919998258352,250.24041819991544,,,,,,,,,,,,,,,,,,,,,,13,C,2024-04-22_11h17.54.969,attentional_competition_task,2022.2.4,143.97645673689073,
positions.xlsx,positions_test.xlsx,positions_test_new.xlsx,stimuli.xlsx,stimuli_new.xlsx,stimuli/Social3.png,stimuli/Social4.png,stimuli/Nonsocial3.png,stimuli/Nonsocial4.png,stimuli/Social1.png,stimuli/Social2.png,stimuli/Nonsocial1.png,stimuli/Nonsocial2.png,cs_neg_ns,"(0.7, 0.5)",,,,,,,,,0,0,0,0,,,,,,,,,0,2,2,10,,,,,,,,,,,,,,,,,,,,,,,,,,,,,,,,,,,,,,257.4692424000241,-3,loss,1,0.44485830003395677,0.44486179994419217,257.92056440003216,,,,,,,,,,,,,,,,,,,,,,13,C,2024-04-22_11h17.54.969,attentional_competition_task,2022.2.4,143.97645673689073,
positions.xlsx,positions_test.xlsx,positions_test_new.xlsx,stimuli.xlsx,stimuli_new.xlsx,stimuli/Social3.png,stimuli/Social4.png,stimuli/Nonsocial3.png,stimuli/Nonsocial4.png,stimuli/Social1.png,stimuli/Social2.png,stimuli/Nonsocial1.png,stimuli/Nonsocial2.png,cs_pos_s,"(-0.7, -0.5)",,,,,,,,,0,0,0,0,,,,,,,,,0,3,3,5,,,,,,,,,,,,,,,,,,,,,,,,,,,,,,,,,,,,,,265.5452527999878,0,reward,1,0.6669124001637101,0.6669160998426378,266.21883990010247,,,,,,,,,,,,,,,,,,,,,,13,C,2024-04-22_11h17.54.969,attentional_competition_task,2022.2.4,143.97645673689073,
positions.xlsx,positions_test.xlsx,positions_test_new.xlsx,stimuli.xlsx,stimuli_new.xlsx,stimuli/Social3.png,stimuli/Social4.png,stimuli/Nonsocial3.png,stimuli/Nonsocial4.png,stimuli/Social1.png,stimuli/Social2.png,stimuli/Nonsocial1.png,stimuli/Nonsocial2.png,cs_pos_s,"(0.7, 0.5)",,,,,,,,,0,0,0,0,,,,,,,,,0,4,4,6,,,,,,,,,,,,,,,,,,,,,,,,,,,,,,,,,,,,,,273.93381020007655,3,reward,1,0.6877140998840332,0.6877179001457989,274.62827169988304,,,,,,,,,,,,,,,,,,,,,,13,C,2024-04-22_11h17.54.969,attentional_competition_task,2022.2.4,143.97645673689073,
positions.xlsx,positions_test.xlsx,positions_test_new.xlsx,stimuli.xlsx,stimuli_new.xlsx,stimuli/Social3.png,stimuli/Social4.png,stimuli/Nonsocial3.png,stimuli/Nonsocial4.png,stimuli/Social1.png,stimuli/Social2.png,stimuli/Nonsocial1.png,stimuli/Nonsocial2.png,cs_neg_s,"(-0.7, -0.5)",,,,,,,,,0,0,0,0,,,,,,,,,0,5,5,1,,,,,,,,,,,,,,,,,,,,,,,,,,,,,,,,,,,,,,281.92660429980606,3,none,0,,,284.93337079975754,,,,,,,,,,,,,,,,,,,,,,13,C,2024-04-22_11h17.54.969,attentional_competition_task,2022.2.4,143.97645673689073,
positions.xlsx,positions_test.xlsx,positions_test_new.xlsx,stimuli.xlsx,stimuli_new.xlsx,stimuli/Social3.png,stimuli/Social4.png,stimuli/Nonsocial3.png,stimuli/Nonsocial4.png,stimuli/Social1.png,stimuli/Social2.png,stimuli/Nonsocial1.png,stimuli/Nonsocial2.png,cs_neg_ns,"(-0.7, 0.5)",,,,,,,,,0,0,0,0,,,,,,,,,0,6,6,8,,,,,,,,,,,,,,,,,,,,,,,,,,,,,,,,,,,,,,291.4956092000939,3,none,0,,,294.50938949966803,,,,,,,,,,,,,,,,,,,,,,13,C,2024-04-22_11h17.54.969,attentional_competition_task,2022.2.4,143.97645673689073,
positions.xlsx,positions_test.xlsx,positions_test_new.xlsx,stimuli.xlsx,stimuli_new.xlsx,stimuli/Social3.png,stimuli/Social4.png,stimuli/Nonsocial3.png,stimuli/Nonsocial4.png,stimuli/Social1.png,stimuli/Social2.png,stimuli/Nonsocial1.png,stimuli/Nonsocial2.png,cs_neg_s,"(0.7, 0.5)",,,,,,,,,0,0,0,0,,,,,,,,,0,7,7,2,,,,,,,,,,,,,,,,,,,,,,,,,,,,,,,,,,,,,,302.6409705998376,3,none,0,,,305.64784049987793,,,,,,,,,,,,,,,,,,,,,,13,C,2024-04-22_11h17.54.969,attentional_competition_task,2022.2.4,143.97645673689073,
positions.xlsx,positions_test.xlsx,positions_test_new.xlsx,stimuli.xlsx,stimuli_new.xlsx,stimuli/Social3.png,stimuli/Social4.png,stimuli/Nonsocial3.png,stimuli/Nonsocial4.png,stimuli/Social1.png,stimuli/Social2.png,stimuli/Nonsocial1.png,stimuli/Nonsocial2.png,cs_neg_ns,"(-0.7, -0.5)",,,,,,,,,0,0,0,0,,,,,,,,,0,8,8,9,,,,,,,,,,,,,,,,,,,,,,,,,,,,,,,,,,,,,,313.8210880998522,0,loss,1,0.4652218003757298,0.465225400403142,314.293279199861,,,,,,,,,,,,,,,,,,,,,,13,C,2024-04-22_11h17.54.969,attentional_competition_task,2022.2.4,143.97645673689073,
positions.xlsx,positions_test.xlsx,positions_test_new.xlsx,stimuli.xlsx,stimuli_new.xlsx,stimuli/Social3.png,stimuli/Social4.png,stimuli/Nonsocial3.png,stimuli/Nonsocial4.png,stimuli/Social1.png,stimuli/Social2.png,stimuli/Nonsocial1.png,stimuli/Nonsocial2.png,cs_pos_ns,"(0.7, 0.5)",,,,,,,,,0,0,0,0,,,,,,,,,0,9,9,14,,,,,,,,,,,,,,,,,,,,,,,,,,,,,,,,,,,,,,321.32770439982414,3,reward,1,0.6251642000861466,0.6251679002307355,321.95961209991947,,,,,,,,,,,,,,,,,,,,,,13,C,2024-04-22_11h17.54.969,attentional_competition_task,2022.2.4,143.97645673689073,
positions.xlsx,positions_test.xlsx,positions_test_new.xlsx,stimuli.xlsx,stimuli_new.xlsx,stimuli/Social3.png,stimuli/Social4.png,stimuli/Nonsocial3.png,stimuli/Nonsocial4.png,stimuli/Social1.png,stimuli/Social2.png,stimuli/Nonsocial1.png,stimuli/Nonsocial2.png,cs_neg_s,"(0.7, -0.5)",,,,,,,,,0,0,0,0,,,,,,,,,0,10,10,3,,,,,,,,,,,,,,,,,,,,,,,,,,,,,,,,,,,,,,329.3413196997717,3,none,0,,,332.355043400079,,,,,,,,,,,,,,,,,,,,,,13,C,2024-04-22_11h17.54.969,attentional_competition_task,2022.2.4,143.97645673689073,
positions.xlsx,positions_test.xlsx,positions_test_new.xlsx,stimuli.xlsx,stimuli_new.xlsx,stimuli/Social3.png,stimuli/Social4.png,stimuli/Nonsocial3.png,stimuli/Nonsocial4.png,stimuli/Social1.png,stimuli/Social2.png,stimuli/Nonsocial1.png,stimuli/Nonsocial2.png,cs_pos_ns,"(-0.7, 0.5)",,,,,,,,,0,0,0,0,,,,,,,,,0,11,11,12,,,,,,,,,,,,,,,,,,,,,,,,,,,,,,,,,,,,,,340.58386390004307,6,reward,1,1.3058480001054704,1.3058516001328826,341.8963238997385,,,,,,,,,,,,,,,,,,,,,,13,C,2024-04-22_11h17.54.969,attentional_competition_task,2022.2.4,143.97645673689073,
positions.xlsx,positions_test.xlsx,positions_test_new.xlsx,stimuli.xlsx,stimuli_new.xlsx,stimuli/Social3.png,stimuli/Social4.png,stimuli/Nonsocial3.png,stimuli/Nonsocial4.png,stimuli/Social1.png,stimuli/Social2.png,stimuli/Nonsocial1.png,stimuli/Nonsocial2.png,cs_pos_ns,"(0.7, -0.5)",,,,,,,,,0,0,0,0,,,,,,,,,0,12,12,15,,,,,,,,,,,,,,,,,,,,,,,,,,,,,,,,,,,,,,349.34744519973174,9,reward,1,0.8746377001516521,0.8746414999477565,350.2293149000034,,,,,,,,,,,,,,,,,,,,,,13,C,2024-04-22_11h17.54.969,attentional_competition_task,2022.2.4,143.97645673689073,
positions.xlsx,positions_test.xlsx,positions_test_new.xlsx,stimuli.xlsx,stimuli_new.xlsx,stimuli/Social3.png,stimuli/Social4.png,stimuli/Nonsocial3.png,stimuli/Nonsocial4.png,stimuli/Social1.png,stimuli/Social2.png,stimuli/Nonsocial1.png,stimuli/Nonsocial2.png,cs_neg_ns,"(0.7, -0.5)",,,,,,,,,0,0,0,0,,,,,,,,,0,13,13,11,,,,,,,,,,,,,,,,,,,,,,,,,,,,,,,,,,,,,,358.0345658999868,9,none,0,,,361.04832259984687,,,,,,,,,,,,,,,,,,,,,,13,C,2024-04-22_11h17.54.969,attentional_competition_task,2022.2.4,143.97645673689073,
positions.xlsx,positions_test.xlsx,positions_test_new.xlsx,stimuli.xlsx,stimuli_new.xlsx,stimuli/Social3.png,stimuli/Social4.png,stimuli/Nonsocial3.png,stimuli/Nonsocial4.png,stimuli/Social1.png,stimuli/Social2.png,stimuli/Nonsocial1.png,stimuli/Nonsocial2.png,cs_pos_s,"(0.7, -0.5)",,,,,,,,,0,0,0,0,,,,,,,,,0,14,14,7,,,,,,,,,,,,,,,,,,,,,,,,,,,,,,,,,,,,,,368.79799359990284,12,reward,1,0.6392990997992456,0.6393026998266578,369.4507561000064,,,,,,,,,,,,,,,,,,,,,,13,C,2024-04-22_11h17.54.969,attentional_competition_task,2022.2.4,143.97645673689073,
positions.xlsx,positions_test.xlsx,positions_test_new.xlsx,stimuli.xlsx,stimuli_new.xlsx,stimuli/Social3.png,stimuli/Social4.png,stimuli/Nonsocial3.png,stimuli/Nonsocial4.png,stimuli/Social1.png,stimuli/Social2.png,stimuli/Nonsocial1.png,stimuli/Nonsocial2.png,cs_pos_ns,"(-0.7, -0.5)",,,,,,,,,0,0,0,0,,,,,,,,,0,15,15,13,,,,,,,,,,,,,,,,,,,,,,,,,,,,,,,,,,,,,,377.7420683996752,15,reward,1,0.7568740998394787,0.7568775000981987,378.5059265997261,,,,,,,,,,,,,,,,,,,,,,13,C,2024-04-22_11h17.54.969,attentional_competition_task,2022.2.4,143.97645673689073,
positions.xlsx,positions_test.xlsx,positions_test_new.xlsx,stimuli.xlsx,stimuli_new.xlsx,stimuli/Social3.png,stimuli/Social4.png,stimuli/Nonsocial3.png,stimuli/Nonsocial4.png,stimuli/Social1.png,stimuli/Social2.png,stimuli/Nonsocial1.png,stimuli/Nonsocial2.png,cs_neg_ns,"(0.7, 0.5)",,,,,,,,,0,0,0,0,,,,,,,,,1,0,16,10,,,,,,,,,,,,,,,,,,,,,,,,,,,,,,,,,,,,,,386.04036809969693,15,none,0,,,389.054118799977,,,,,,,,,,,,,,,,,,,,,,13,C,2024-04-22_11h17.54.969,attentional_competition_task,2022.2.4,143.97645673689073,
positions.xlsx,positions_test.xlsx,positions_test_new.xlsx,stimuli.xlsx,stimuli_new.xlsx,stimuli/Social3.png,stimuli/Social4.png,stimuli/Nonsocial3.png,stimuli/Nonsocial4.png,stimuli/Social1.png,stimuli/Social2.png,stimuli/Nonsocial1.png,stimuli/Nonsocial2.png,cs_pos_ns,"(-0.7, 0.5)",,,,,,,,,0,0,0,0,,,,,,,,,1,1,17,12,,,,,,,,,,,,,,,,,,,,,,,,,,,,,,,,,,,,,,397.0190825997852,18,reward,1,1.729506999719888,1.7364405998960137,398.76902040001005,,,,,,,,,,,,,,,,,,,,,,13,C,2024-04-22_11h17.54.969,attentional_competition_task,2022.2.4,143.97645673689073,
positions.xlsx,positions_test.xlsx,positions_test_new.xlsx,stimuli.xlsx,stimuli_new.xlsx,stimuli/Social3.png,stimuli/Social4.png,stimuli/Nonsocial3.png,stimuli/Nonsocial4.png,stimuli/Social1.png,stimuli/Social2.png,stimuli/Nonsocial1.png,stimuli/Nonsocial2.png,cs_neg_ns,"(-0.7, 0.5)",,,,,,,,,0,0,0,0,,,,,,,,,1,2,18,8,,,,,,,,,,,,,,,,,,,,,,,,,,,,,,,,,,,,,,405.9423305997625,18,none,0,,,408.95609059976414,,,,,,,,,,,,,,,,,,,,,,13,C,2024-04-22_11h17.54.969,attentional_competition_task,2022.2.4,143.97645673689073,
positions.xlsx,positions_test.xlsx,positions_test_new.xlsx,stimuli.xlsx,stimuli_new.xlsx,stimuli/Social3.png,stimuli/Social4.png,stimuli/Nonsocial3.png,stimuli/Nonsocial4.png,stimuli/Social1.png,stimuli/Social2.png,stimuli/Nonsocial1.png,stimuli/Nonsocial2.png,cs_pos_s,"(0.7, 0.5)",,,,,,,,,0,0,0,0,,,,,,,,,1,3,19,6,,,,,,,,,,,,,,,,,,,,,,,,,,,,,,,,,,,,,,415.8516412000172,21,reward,1,0.597280299756676,0.597297600004822,416.4558371999301,,,,,,,,,,,,,,,,,,,,,,13,C,2024-04-22_11h17.54.969,attentional_competition_task,2022.2.4,143.97645673689073,
positions.xlsx,positions_test.xlsx,positions_test_new.xlsx,stimuli.xlsx,stimuli_new.xlsx,stimuli/Social3.png,stimuli/Social4.png,stimuli/Nonsocial3.png,stimuli/Nonsocial4.png,stimuli/Social1.png,stimuli/Social2.png,stimuli/Nonsocial1.png,stimuli/Nonsocial2.png,cs_neg_s,"(-0.7, -0.5)",,,,,,,,,0,0,0,0,,,,,,,,,1,4,20,1,,,,,,,,,,,,,,,,,,,,,,,,,,,,,,,,,,,,,,423.80964319966733,21,none,0,,,426.82346029998735,,,,,,,,,,,,,,,,,,,,,,13,C,2024-04-22_11h17.54.969,attentional_competition_task,2022.2.4,143.97645673689073,
positions.xlsx,positions_test.xlsx,positions_test_new.xlsx,stimuli.xlsx,stimuli_new.xlsx,stimuli/Social3.png,stimuli/Social4.png,stimuli/Nonsocial3.png,stimuli/Nonsocial4.png,stimuli/Social1.png,stimuli/Social2.png,stimuli/Nonsocial1.png,stimuli/Nonsocial2.png,cs_neg_ns,"(-0.7, -0.5)",,,,,,,,,0,0,0,0,,,,,,,,,1,5,21,9,,,,,,,,,,,,,,,,,,,,,,,,,,,,,,,,,,,,,,433.96201179968193,21,none,0,,,436.9757810998708,,,,,,,,,,,,,,,,,,,,,,13,C,2024-04-22_11h17.54.969,attentional_competition_task,2022.2.4,143.97645673689073,
positions.xlsx,positions_test.xlsx,positions_test_new.xlsx,stimuli.xlsx,stimuli_new.xlsx,stimuli/Social3.png,stimuli/Social4.png,stimuli/Nonsocial3.png,stimuli/Nonsocial4.png,stimuli/Social1.png,stimuli/Social2.png,stimuli/Nonsocial1.png,stimuli/Nonsocial2.png,cs_pos_s,"(-0.7, -0.5)",,,,,,,,,0,0,0,0,,,,,,,,,1,6,22,5,,,,,,,,,,,,,,,,,,,,,,,,,,,,,,,,,,,,,,444.49633549991995,24,reward,1,0.5690817004069686,0.5690851002000272,445.07267239969224,,,,,,,,,,,,,,,,,,,,,,13,C,2024-04-22_11h17.54.969,attentional_competition_task,2022.2.4,143.97645673689073,
positions.xlsx,positions_test.xlsx,positions_test_new.xlsx,stimuli.xlsx,stimuli_new.xlsx,stimuli/Social3.png,stimuli/Social4.png,stimuli/Nonsocial3.png,stimuli/Nonsocial4.png,stimuli/Social1.png,stimuli/Social2.png,stimuli/Nonsocial1.png,stimuli/Nonsocial2.png,cs_pos_s,"(0.7, -0.5)",,,,,,,,,0,0,0,0,,,,,,,,,1,7,23,7,,,,,,,,,,,,,,,,,,,,,,,,,,,,,,,,,,,,,,452.7529116999358,27,reward,1,0.653165599796921,0.6531690997071564,453.4126197998412,,,,,,,,,,,,,,,,,,,,,,13,C,2024-04-22_11h17.54.969,attentional_competition_task,2022.2.4,143.97645673689073,
positions.xlsx,positions_test.xlsx,positions_test_new.xlsx,stimuli.xlsx,stimuli_new.xlsx,stimuli/Social3.png,stimuli/Social4.png,stimuli/Nonsocial3.png,stimuli/Nonsocial4.png,stimuli/Social1.png,stimuli/Social2.png,stimuli/Nonsocial1.png,stimuli/Nonsocial2.png,cs_pos_ns,"(-0.7, -0.5)",,,,,,,,,0,0,0,0,,,,,,,,,1,8,24,13,,,,,,,,,,,,,,,,,,,,,,,,,,,,,,,,,,,,,,460.60683619976044,30,reward,1,0.5490044998005033,0.5490080998279154,461.1623001000844,,,,,,,,,,,,,,,,,,,,,,13,C,2024-04-22_11h17.54.969,attentional_competition_task,2022.2.4,143.97645673689073,
positions.xlsx,positions_test.xlsx,positions_test_new.xlsx,stimuli.xlsx,stimuli_new.xlsx,stimuli/Social3.png,stimuli/Social4.png,stimuli/Nonsocial3.png,stimuli/Nonsocial4.png,stimuli/Social1.png,stimuli/Social2.png,stimuli/Nonsocial1.png,stimuli/Nonsocial2.png,cs_pos_ns,"(0.7, -0.5)",,,,,,,,,0,0,0,0,,,,,,,,,1,9,25,15,,,,,,,,,,,,,,,,,,,,,,,,,,,,,,,,,,,,,,468.66200309991837,33,reward,1,0.5699832001700997,0.5699868001975119,469.23838200001046,,,,,,,,,,,,,,,,,,,,,,13,C,2024-04-22_11h17.54.969,attentional_competition_task,2022.2.4,143.97645673689073,
positions.xlsx,positions_test.xlsx,positions_test_new.xlsx,stimuli.xlsx,stimuli_new.xlsx,stimuli/Social3.png,stimuli/Social4.png,stimuli/Nonsocial3.png,stimuli/Nonsocial4.png,stimuli/Social1.png,stimuli/Social2.png,stimuli/Nonsocial1.png,stimuli/Nonsocial2.png,cs_neg_s,"(0.7, 0.5)",,,,,,,,,0,0,0,0,,,,,,,,,1,10,26,2,,,,,,,,,,,,,,,,,,,,,,,,,,,,,,,,,,,,,,476.9463801998645,33,none,0,,,479.9601945998147,,,,,,,,,,,,,,,,,,,,,,13,C,2024-04-22_11h17.54.969,attentional_competition_task,2022.2.4,143.97645673689073,
positions.xlsx,positions_test.xlsx,positions_test_new.xlsx,stimuli.xlsx,stimuli_new.xlsx,stimuli/Social3.png,stimuli/Social4.png,stimuli/Nonsocial3.png,stimuli/Nonsocial4.png,stimuli/Social1.png,stimuli/Social2.png,stimuli/Nonsocial1.png,stimuli/Nonsocial2.png,cs_neg_s,"(0.7, -0.5)",,,,,,,,,0,0,0,0,,,,,,,,,1,11,27,3,,,,,,,,,,,,,,,,,,,,,,,,,,,,,,,,,,,,,,487.6473713000305,33,none,0,,,490.6541984998621,,,,,,,,,,,,,,,,,,,,,,13,C,2024-04-22_11h17.54.969,attentional_competition_task,2022.2.4,143.97645673689073,
positions.xlsx,positions_test.xlsx,positions_test_new.xlsx,stimuli.xlsx,stimuli_new.xlsx,stimuli/Social3.png,stimuli/Social4.png,stimuli/Nonsocial3.png,stimuli/Nonsocial4.png,stimuli/Social1.png,stimuli/Social2.png,stimuli/Nonsocial1.png,stimuli/Nonsocial2.png,cs_pos_s,"(-0.7, 0.5)",,,,,,,,,0,0,0,0,,,,,,,,,1,12,28,4,,,,,,,,,,,,,,,,,,,,,,,,,,,,,,,,,,,,,,498.02196689974517,36,reward,1,0.604447599966079,0.6044511003419757,498.63306119991466,,,,,,,,,,,,,,,,,,,,,,13,C,2024-04-22_11h17.54.969,attentional_competition_task,2022.2.4,143.97645673689073,
positions.xlsx,positions_test.xlsx,positions_test_new.xlsx,stimuli.xlsx,stimuli_new.xlsx,stimuli/Social3.png,stimuli/Social4.png,stimuli/Nonsocial3.png,stimuli/Nonsocial4.png,stimuli/Social1.png,stimuli/Social2.png,stimuli/Nonsocial1.png,stimuli/Nonsocial2.png,cs_neg_ns,"(0.7, -0.5)",,,,,,,,,0,0,0,0,,,,,,,,,1,13,29,11,,,,,,,,,,,,,,,,,,,,,,,,,,,,,,,,,,,,,,505.53555519971997,36,none,0,,,508.5562577000819,,,,,,,,,,,,,,,,,,,,,,13,C,2024-04-22_11h17.54.969,attentional_competition_task,2022.2.4,143.97645673689073,
positions.xlsx,positions_test.xlsx,positions_test_new.xlsx,stimuli.xlsx,stimuli_new.xlsx,stimuli/Social3.png,stimuli/Social4.png,stimuli/Nonsocial3.png,stimuli/Nonsocial4.png,stimuli/Social1.png,stimuli/Social2.png,stimuli/Nonsocial1.png,stimuli/Nonsocial2.png,cs_pos_ns,"(0.7, 0.5)",,,,,,,,,0,0,0,0,,,,,,,,,1,14,30,14,,,,,,,,,,,,,,,,,,,,,,,,,,,,,,,,,,,,,,516.9170164000243,39,reward,1,1.2708874000236392,1.2778505999594927,518.2016731998883,,,,,,,,,,,,,,,,,,,,,,13,C,2024-04-22_11h17.54.969,attentional_competition_task,2022.2.4,143.97645673689073,
positions.xlsx,positions_test.xlsx,positions_test_new.xlsx,stimuli.xlsx,stimuli_new.xlsx,stimuli/Social3.png,stimuli/Social4.png,stimuli/Nonsocial3.png,stimuli/Nonsocial4.png,stimuli/Social1.png,stimuli/Social2.png,stimuli/Nonsocial1.png,stimuli/Nonsocial2.png,cs_neg_s,"(-0.7, 0.5)",,,,,,,,,0,0,0,0,,,,,,,,,1,15,31,0,,,,,,,,,,,,,,,,,,,,,,,,,,,,,,,,,,,,,,526.4444110998884,39,none,0,,,529.4581276997924,,,,,,,,,,,,,,,,,,,,,,13,C,2024-04-22_11h17.54.969,attentional_competition_task,2022.2.4,143.97645673689073,
positions.xlsx,positions_test.xlsx,positions_test_new.xlsx,stimuli.xlsx,stimuli_new.xlsx,stimuli/Social3.png,stimuli/Social4.png,stimuli/Nonsocial3.png,stimuli/Nonsocial4.png,stimuli/Social1.png,stimuli/Social2.png,stimuli/Nonsocial1.png,stimuli/Nonsocial2.png,cs_pos_ns,"(-0.7, 0.5)",,,,,,,,,0,0,0,0,,,,,,,,,,,,,0,0,0,12,,,,,,,,,,,,,,,,,,,,,,,,,,,,,,,,,,546.4852607999928,42,reward,1,0.6251181000843644,0.6251217001117766,547.1171574997716,,,,,,,,,,,,,,,,,,,,,,13,C,2024-04-22_11h17.54.969,attentional_competition_task,2022.2.4,143.97645673689073,
positions.xlsx,positions_test.xlsx,positions_test_new.xlsx,stimuli.xlsx,stimuli_new.xlsx,stimuli/Social3.png,stimuli/Social4.png,stimuli/Nonsocial3.png,stimuli/Nonsocial4.png,stimuli/Social1.png,stimuli/Social2.png,stimuli/Nonsocial1.png,stimuli/Nonsocial2.png,cs_pos_ns,"(0.7, -0.5)",,,,,,,,,0,0,0,0,,,,,,,,,,,,,0,1,1,15,,,,,,,,,,,,,,,,,,,,,,,,,,,,,,,,,,554.2002437999472,45,reward,1,0.47950470028445125,0.4795087003149092,554.6863599000499,,,,,,,,,,,,,,,,,,,,,,13,C,2024-04-22_11h17.54.969,attentional_competition_task,2022.2.4,143.97645673689073,
positions.xlsx,positions_test.xlsx,positions_test_new.xlsx,stimuli.xlsx,stimuli_new.xlsx,stimuli/Social3.png,stimuli/Social4.png,stimuli/Nonsocial3.png,stimuli/Nonsocial4.png,stimuli/Social1.png,stimuli/Social2.png,stimuli/Nonsocial1.png,stimuli/Nonsocial2.png,cs_pos_s,"(-0.7, 0.5)",,,,,,,,,0,0,0,0,,,,,,,,,,,,,0,2,2,4,,,,,,,,,,,,,,,,,,,,,,,,,,,,,,,,,,562.5748763997108,48,reward,1,0.49326099967584014,0.49326439993456006,563.0748536996543,,,,,,,,,,,,,,,,,,,,,,13,C,2024-04-22_11h17.54.969,attentional_competition_task,2022.2.4,143.97645673689073,
positions.xlsx,positions_test.xlsx,positions_test_new.xlsx,stimuli.xlsx,stimuli_new.xlsx,stimuli/Social3.png,stimuli/Social4.png,stimuli/Nonsocial3.png,stimuli/Nonsocial4.png,stimuli/Social1.png,stimuli/Social2.png,stimuli/Nonsocial1.png,stimuli/Nonsocial2.png,cs_neg_s,"(-0.7, 0.5)",,,,,,,,,0,0,0,0,,,,,,,,,,,,,0,3,3,0,,,,,,,,,,,,,,,,,,,,,,,,,,,,,,,,,,570.3592964997515,48,none,0,,,573.3661076999269,,,,,,,,,,,,,,,,,,,,,,13,C,2024-04-22_11h17.54.969,attentional_competition_task,2022.2.4,143.97645673689073,
positions.xlsx,positions_test.xlsx,positions_test_new.xlsx,stimuli.xlsx,stimuli_new.xlsx,stimuli/Social3.png,stimuli/Social4.png,stimuli/Nonsocial3.png,stimuli/Nonsocial4.png,stimuli/Social1.png,stimuli/Social2.png,stimuli/Nonsocial1.png,stimuli/Nonsocial2.png,cs_neg_ns,"(-0.7, -0.5)",,,,,,,,,0,0,0,0,,,,,,,,,,,,,0,4,4,9,,,,,,,,,,,,,,,,,,,,,,,,,,,,,,,,,,580.0325686000288,48,none,0,,,583.0462696999311,,,,,,,,,,,,,,,,,,,,,,13,C,2024-04-22_11h17.54.969,attentional_competition_task,2022.2.4,143.97645673689073,
positions.xlsx,positions_test.xlsx,positions_test_new.xlsx,stimuli.xlsx,stimuli_new.xlsx,stimuli/Social3.png,stimuli/Social4.png,stimuli/Nonsocial3.png,stimuli/Nonsocial4.png,stimuli/Social1.png,stimuli/Social2.png,stimuli/Nonsocial1.png,stimuli/Nonsocial2.png,cs_pos_ns,"(0.7, 0.5)",,,,,,,,,0,0,0,0,,,,,,,,,,,,,0,5,5,14,,,,,,,,,,,,,,,,,,,,,,,,,,,,,,,,,,590.1084815999493,51,reward,1,0.576549899764359,0.5765534997917712,590.6918215998448,,,,,,,,,,,,,,,,,,,,,,13,C,2024-04-22_11h17.54.969,attentional_competition_task,2022.2.4,143.97645673689073,
positions.xlsx,positions_test.xlsx,positions_test_new.xlsx,stimuli.xlsx,stimuli_new.xlsx,stimuli/Social3.png,stimuli/Social4.png,stimuli/Nonsocial3.png,stimuli/Nonsocial4.png,stimuli/Social1.png,stimuli/Social2.png,stimuli/Nonsocial1.png,stimuli/Nonsocial2.png,cs_neg_s,"(0.7, 0.5)",,,,,,,,,0,0,0,0,,,,,,,,,,,,,0,6,6,2,,,,,,,,,,,,,,,,,,,,,,,,,,,,,,,,,,598.2539961999282,51,none,0,,,601.2677575000562,,,,,,,,,,,,,,,,,,,,,,13,C,2024-04-22_11h17.54.969,attentional_competition_task,2022.2.4,143.97645673689073,
positions.xlsx,positions_test.xlsx,positions_test_new.xlsx,stimuli.xlsx,stimuli_new.xlsx,stimuli/Social3.png,stimuli/Social4.png,stimuli/Nonsocial3.png,stimuli/Nonsocial4.png,stimuli/Social1.png,stimuli/Social2.png,stimuli/Nonsocial1.png,stimuli/Nonsocial2.png,cs_neg_ns,"(0.7, -0.5)",,,,,,,,,0,0,0,0,,,,,,,,,,,,,0,7,7,11,,,,,,,,,,,,,,,,,,,,,,,,,,,,,,,,,,608.5938748996705,51,none,0,,,611.6007220996544,,,,,,,,,,,,,,,,,,,,,,13,C,2024-04-22_11h17.54.969,attentional_competition_task,2022.2.4,143.97645673689073,
positions.xlsx,positions_test.xlsx,positions_test_new.xlsx,stimuli.xlsx,stimuli_new.xlsx,stimuli/Social3.png,stimuli/Social4.png,stimuli/Nonsocial3.png,stimuli/Nonsocial4.png,stimuli/Social1.png,stimuli/Social2.png,stimuli/Nonsocial1.png,stimuli/Nonsocial2.png,cs_neg_ns,"(0.7, 0.5)",,,,,,,,,0,0,0,0,,,,,,,,,,,,,0,8,8,10,,,,,,,,,,,,,,,,,,,,,,,,,,,,,,,,,,619.4476342997514,51,none,0,,,622.4614156000316,,,,,,,,,,,,,,,,,,,,,,13,C,2024-04-22_11h17.54.969,attentional_competition_task,2022.2.4,143.97645673689073,
positions.xlsx,positions_test.xlsx,positions_test_new.xlsx,stimuli.xlsx,stimuli_new.xlsx,stimuli/Social3.png,stimuli/Social4.png,stimuli/Nonsocial3.png,stimuli/Nonsocial4.png,stimuli/Social1.png,stimuli/Social2.png,stimuli/Nonsocial1.png,stimuli/Nonsocial2.png,cs_pos_s,"(-0.7, -0.5)",,,,,,,,,0,0,0,0,,,,,,,,,,,,,0,9,9,5,,,,,,,,,,,,,,,,,,,,,,,,,,,,,,,,,,630.0165976998396,54,reward,1,0.6673461999744177,0.6673500998876989,630.6902240999043,,,,,,,,,,,,,,,,,,,,,,13,C,2024-04-22_11h17.54.969,attentional_competition_task,2022.2.4,143.97645673689073,
positions.xlsx,positions_test.xlsx,positions_test_new.xlsx,stimuli.xlsx,stimuli_new.xlsx,stimuli/Social3.png,stimuli/Social4.png,stimuli/Nonsocial3.png,stimuli/Nonsocial4.png,stimuli/Social1.png,stimuli/Social2.png,stimuli/Nonsocial1.png,stimuli/Nonsocial2.png,cs_pos_s,"(0.7, -0.5)",,,,,,,,,0,0,0,0,,,,,,,,,,,,,0,10,10,7,,,,,,,,,,,,,,,,,,,,,,,,,,,,,,,,,,637.9190591000952,57,reward,1,0.5144839999265969,0.5144874998368323,638.4399089999497,,,,,,,,,,,,,,,,,,,,,,13,C,2024-04-22_11h17.54.969,attentional_competition_task,2022.2.4,143.97645673689073,
positions.xlsx,positions_test.xlsx,positions_test_new.xlsx,stimuli.xlsx,stimuli_new.xlsx,stimuli/Social3.png,stimuli/Social4.png,stimuli/Nonsocial3.png,stimuli/Nonsocial4.png,stimuli/Social1.png,stimuli/Social2.png,stimuli/Nonsocial1.png,stimuli/Nonsocial2.png,cs_neg_s,"(0.7, -0.5)",,,,,,,,,0,0,0,0,,,,,,,,,,,,,0,11,11,3,,,,,,,,,,,,,,,,,,,,,,,,,,,,,,,,,,645.6409758999944,57,none,0,,,648.6547332000919,,,,,,,,,,,,,,,,,,,,,,13,C,2024-04-22_11h17.54.969,attentional_competition_task,2022.2.4,143.97645673689073,
positions.xlsx,positions_test.xlsx,positions_test_new.xlsx,stimuli.xlsx,stimuli_new.xlsx,stimuli/Social3.png,stimuli/Social4.png,stimuli/Nonsocial3.png,stimuli/Nonsocial4.png,stimuli/Social1.png,stimuli/Social2.png,stimuli/Nonsocial1.png,stimuli/Nonsocial2.png,cs_neg_ns,"(-0.7, 0.5)",,,,,,,,,0,0,0,0,,,,,,,,,,,,,0,12,12,8,,,,,,,,,,,,,,,,,,,,,,,,,,,,,,,,,,656.0225295997225,57,none,0,,,659.0362676996738,,,,,,,,,,,,,,,,,,,,,,13,C,2024-04-22_11h17.54.969,attentional_competition_task,2022.2.4,143.97645673689073,
positions.xlsx,positions_test.xlsx,positions_test_new.xlsx,stimuli.xlsx,stimuli_new.xlsx,stimuli/Social3.png,stimuli/Social4.png,stimuli/Nonsocial3.png,stimuli/Nonsocial4.png,stimuli/Social1.png,stimuli/Social2.png,stimuli/Nonsocial1.png,stimuli/Nonsocial2.png,cs_neg_s,"(-0.7, -0.5)",,,,,,,,,0,0,0,0,,,,,,,,,,,,,0,13,13,1,,,,,,,,,,,,,,,,,,,,,,,,,,,,,,,,,,667.2651096000336,57,none,0,,,670.2719311998226,,,,,,,,,,,,,,,,,,,,,,13,C,2024-04-22_11h17.54.969,attentional_competition_task,2022.2.4,143.97645673689073,
positions.xlsx,positions_test.xlsx,positions_test_new.xlsx,stimuli.xlsx,stimuli_new.xlsx,stimuli/Social3.png,stimuli/Social4.png,stimuli/Nonsocial3.png,stimuli/Nonsocial4.png,stimuli/Social1.png,stimuli/Social2.png,stimuli/Nonsocial1.png,stimuli/Nonsocial2.png,cs_pos_ns,"(-0.7, -0.5)",,,,,,,,,0,0,0,0,,,,,,,,,,,,,0,14,14,13,,,,,,,,,,,,,,,,,,,,,,,,,,,,,,,,,,678.0216470998712,60,reward,1,0.673910400364548,0.6739142001606524,678.7022029999644,,,,,,,,,,,,,,,,,,,,,,13,C,2024-04-22_11h17.54.969,attentional_competition_task,2022.2.4,143.97645673689073,
positions.xlsx,positions_test.xlsx,positions_test_new.xlsx,stimuli.xlsx,stimuli_new.xlsx,stimuli/Social3.png,stimuli/Social4.png,stimuli/Nonsocial3.png,stimuli/Nonsocial4.png,stimuli/Social1.png,stimuli/Social2.png,stimuli/Nonsocial1.png,stimuli/Nonsocial2.png,cs_pos_s,"(0.7, 0.5)",,,,,,,,,0,0,0,0,,,,,,,,,,,,,0,15,15,6,,,,,,,,,,,,,,,,,,,,,,,,,,,,,,,,,,686.3407418997958,63,reward,1,0.5273925000801682,0.5273959999904037,686.8754281997681,,,,,,,,,,,,,,,,,,,,,,13,C,2024-04-22_11h17.54.969,attentional_competition_task,2022.2.4,143.97645673689073,
positions.xlsx,positions_test.xlsx,positions_test_new.xlsx,stimuli.xlsx,stimuli_new.xlsx,stimuli/Social3.png,stimuli/Social4.png,stimuli/Nonsocial3.png,stimuli/Nonsocial4.png,stimuli/Social1.png,stimuli/Social2.png,stimuli/Nonsocial1.png,stimuli/Nonsocial2.png,cs_pos_ns,"(-0.7, 0.5)",,,,,,,,,0,0,0,0,,,,,,,,,,,,,1,0,16,12,,,,,,,,,,,,,,,,,,,,,,,,,,,,,,,,,,694.2223808998242,66,reward,1,0.5630683000199497,0.5630719000473619,694.7918118000962,,,,,,,,,,,,,,,,,,,,,,13,C,2024-04-22_11h17.54.969,attentional_competition_task,2022.2.4,143.97645673689073,
positions.xlsx,positions_test.xlsx,positions_test_new.xlsx,stimuli.xlsx,stimuli_new.xlsx,stimuli/Social3.png,stimuli/Social4.png,stimuli/Nonsocial3.png,stimuli/Nonsocial4.png,stimuli/Social1.png,stimuli/Social2.png,stimuli/Nonsocial1.png,stimuli/Nonsocial2.png,cs_pos_s,"(0.7, -0.5)",,,,,,,,,0,0,0,0,,,,,,,,,,,,,1,1,17,7,,,,,,,,,,,,,,,,,,,,,,,,,,,,,,,,,,702.7289582998492,69,reward,1,0.5486971000209451,0.5487007000483572,703.2845091000199,,,,,,,,,,,,,,,,,,,,,,13,C,2024-04-22_11h17.54.969,attentional_competition_task,2022.2.4,143.97645673689073,
positions.xlsx,positions_test.xlsx,positions_test_new.xlsx,stimuli.xlsx,stimuli_new.xlsx,stimuli/Social3.png,stimuli/Social4.png,stimuli/Nonsocial3.png,stimuli/Nonsocial4.png,stimuli/Social1.png,stimuli/Social2.png,stimuli/Nonsocial1.png,stimuli/Nonsocial2.png,cs_pos_ns,"(0.7, 0.5)",,,,,,,,,0,0,0,0,,,,,,,,,,,,,1,2,18,14,,,,,,,,,,,,,,,,,,,,,,,,,,,,,,,,,,710.1800647997297,72,reward,1,0.5210572998039424,0.5210608998313546,710.707801300101,,,,,,,,,,,,,,,,,,,,,,13,C,2024-04-22_11h17.54.969,attentional_competition_task,2022.2.4,143.97645673689073,
positions.xlsx,positions_test.xlsx,positions_test_new.xlsx,stimuli.xlsx,stimuli_new.xlsx,stimuli/Social3.png,stimuli/Social4.png,stimuli/Nonsocial3.png,stimuli/Nonsocial4.png,stimuli/Social1.png,stimuli/Social2.png,stimuli/Nonsocial1.png,stimuli/Nonsocial2.png,cs_neg_ns,"(-0.7, 0.5)",,,,,,,,,0,0,0,0,,,,,,,,,,,,,1,3,19,8,,,,,,,,,,,,,,,,,,,,,,,,,,,,,,,,,,718.2283457997255,72,none,0,,,721.2420994997956,,,,,,,,,,,,,,,,,,,,,,13,C,2024-04-22_11h17.54.969,attentional_competition_task,2022.2.4,143.97645673689073,
positions.xlsx,positions_test.xlsx,positions_test_new.xlsx,stimuli.xlsx,stimuli_new.xlsx,stimuli/Social3.png,stimuli/Social4.png,stimuli/Nonsocial3.png,stimuli/Nonsocial4.png,stimuli/Social1.png,stimuli/Social2.png,stimuli/Nonsocial1.png,stimuli/Nonsocial2.png,cs_neg_s,"(0.7, -0.5)",,,,,,,,,0,0,0,0,,,,,,,,,,,,,1,4,20,3,,,,,,,,,,,,,,,,,,,,,,,,,,,,,,,,,,728.9501126999967,72,none,0,,,731.9569358997978,,,,,,,,,,,,,,,,,,,,,,13,C,2024-04-22_11h17.54.969,attentional_competition_task,2022.2.4,143.97645673689073,
positions.xlsx,positions_test.xlsx,positions_test_new.xlsx,stimuli.xlsx,stimuli_new.xlsx,stimuli/Social3.png,stimuli/Social4.png,stimuli/Nonsocial3.png,stimuli/Nonsocial4.png,stimuli/Social1.png,stimuli/Social2.png,stimuli/Nonsocial1.png,stimuli/Nonsocial2.png,cs_pos_s,"(-0.7, -0.5)",,,,,,,,,0,0,0,0,,,,,,,,,,,,,1,5,21,5,,,,,,,,,,,,,,,,,,,,,,,,,,,,,,,,,,739.4497571000829,75,reward,1,0.5210500000976026,0.5210533998906612,739.9774565999396,,,,,,,,,,,,,,,,,,,,,,13,C,2024-04-22_11h17.54.969,attentional_competition_task,2022.2.4,143.97645673689073,
positions.xlsx,positions_test.xlsx,positions_test_new.xlsx,stimuli.xlsx,stimuli_new.xlsx,stimuli/Social3.png,stimuli/Social4.png,stimuli/Nonsocial3.png,stimuli/Nonsocial4.png,stimuli/Social1.png,stimuli/Social2.png,stimuli/Nonsocial1.png,stimuli/Nonsocial2.png,cs_pos_ns,"(-0.7, -0.5)",,,,,,,,,0,0,0,0,,,,,,,,,,,,,1,6,22,13,,,,,,,,,,,,,,,,,,,,,,,,,,,,,,,,,,747.8452264997177,78,reward,1,0.5699096000753343,0.5699133002199233,748.4215583000332,,,,,,,,,,,,,,,,,,,,,,13,C,2024-04-22_11h17.54.969,attentional_competition_task,2022.2.4,143.97645673689073,
positions.xlsx,positions_test.xlsx,positions_test_new.xlsx,stimuli.xlsx,stimuli_new.xlsx,stimuli/Social3.png,stimuli/Social4.png,stimuli/Nonsocial3.png,stimuli/Nonsocial4.png,stimuli/Social1.png,stimuli/Social2.png,stimuli/Nonsocial1.png,stimuli/Nonsocial2.png,cs_neg_s,"(-0.7, 0.5)",,,,,,,,,0,0,0,0,,,,,,,,,,,,,1,7,23,0,,,,,,,,,,,,,,,,,,,,,,,,,,,,,,,,,,755.8518333998509,78,none,0,,,758.865627199877,,,,,,,,,,,,,,,,,,,,,,13,C,2024-04-22_11h17.54.969,attentional_competition_task,2022.2.4,143.97645673689073,
positions.xlsx,positions_test.xlsx,positions_test_new.xlsx,stimuli.xlsx,stimuli_new.xlsx,stimuli/Social3.png,stimuli/Social4.png,stimuli/Nonsocial3.png,stimuli/Nonsocial4.png,stimuli/Social1.png,stimuli/Social2.png,stimuli/Nonsocial1.png,stimuli/Nonsocial2.png,cs_neg_ns,"(0.7, -0.5)",,,,,,,,,0,0,0,0,,,,,,,,,,,,,1,8,24,11,,,,,,,,,,,,,,,,,,,,,,,,,,,,,,,,,,766.5736555000767,78,none,0,,,769.587368699722,,,,,,,,,,,,,,,,,,,,,,13,C,2024-04-22_11h17.54.969,attentional_competition_task,2022.2.4,143.97645673689073,
positions.xlsx,positions_test.xlsx,positions_test_new.xlsx,stimuli.xlsx,stimuli_new.xlsx,stimuli/Social3.png,stimuli/Social4.png,stimuli/Nonsocial3.png,stimuli/Nonsocial4.png,stimuli/Social1.png,stimuli/Social2.png,stimuli/Nonsocial1.png,stimuli/Nonsocial2.png,cs_neg_ns,"(-0.7, -0.5)",,,,,,,,,0,0,0,0,,,,,,,,,,,,,1,9,25,9,,,,,,,,,,,,,,,,,,,,,,,,,,,,,,,,,,777.1982239000499,78,none,0,,,780.204998199828,,,,,,,,,,,,,,,,,,,,,,13,C,2024-04-22_11h17.54.969,attentional_competition_task,2022.2.4,143.97645673689073,
positions.xlsx,positions_test.xlsx,positions_test_new.xlsx,stimuli.xlsx,stimuli_new.xlsx,stimuli/Social3.png,stimuli/Social4.png,stimuli/Nonsocial3.png,stimuli/Nonsocial4.png,stimuli/Social1.png,stimuli/Social2.png,stimuli/Nonsocial1.png,stimuli/Nonsocial2.png,cs_neg_s,"(-0.7, -0.5)",,,,,,,,,0,0,0,0,,,,,,,,,,,,,1,10,26,1,,,,,,,,,,,,,,,,,,,,,,,,,,,,,,,,,,787.6422822000459,78,none,0,,,790.6560808997601,,,,,,,,,,,,,,,,,,,,,,13,C,2024-04-22_11h17.54.969,attentional_competition_task,2022.2.4,143.97645673689073,
positions.xlsx,positions_test.xlsx,positions_test_new.xlsx,stimuli.xlsx,stimuli_new.xlsx,stimuli/Social3.png,stimuli/Social4.png,stimuli/Nonsocial3.png,stimuli/Nonsocial4.png,stimuli/Social1.png,stimuli/Social2.png,stimuli/Nonsocial1.png,stimuli/Nonsocial2.png,cs_pos_ns,"(0.7, -0.5)",,,,,,,,,0,0,0,0,,,,,,,,,,,,,1,11,27,15,,,,,,,,,,,,,,,,,,,,,,,,,,,,,,,,,,798.4404243999161,81,reward,1,0.7361664003692567,0.7361703002825379,799.1834124997258,,,,,,,,,,,,,,,,,,,,,,13,C,2024-04-22_11h17.54.969,attentional_competition_task,2022.2.4,143.97645673689073,
positions.xlsx,positions_test.xlsx,positions_test_new.xlsx,stimuli.xlsx,stimuli_new.xlsx,stimuli/Social3.png,stimuli/Social4.png,stimuli/Nonsocial3.png,stimuli/Nonsocial4.png,stimuli/Social1.png,stimuli/Social2.png,stimuli/Nonsocial1.png,stimuli/Nonsocial2.png,cs_neg_ns,"(0.7, 0.5)",,,,,,,,,0,0,0,0,,,,,,,,,,,,,1,12,28,10,,,,,,,,,,,,,,,,,,,,,,,,,,,,,,,,,,806.6206776998006,81,none,0,,,809.6343992999755,,,,,,,,,,,,,,,,,,,,,,13,C,2024-04-22_11h17.54.969,attentional_competition_task,2022.2.4,143.97645673689073,
positions.xlsx,positions_test.xlsx,positions_test_new.xlsx,stimuli.xlsx,stimuli_new.xlsx,stimuli/Social3.png,stimuli/Social4.png,stimuli/Nonsocial3.png,stimuli/Nonsocial4.png,stimuli/Social1.png,stimuli/Social2.png,stimuli/Nonsocial1.png,stimuli/Nonsocial2.png,cs_pos_s,"(-0.7, 0.5)",,,,,,,,,0,0,0,0,,,,,,,,,,,,,1,13,29,4,,,,,,,,,,,,,,,,,,,,,,,,,,,,,,,,,,817.7174217998981,84,reward,1,0.5349106998182833,0.5349142998456955,818.2590501001105,,,,,,,,,,,,,,,,,,,,,,13,C,2024-04-22_11h17.54.969,attentional_competition_task,2022.2.4,143.97645673689073,
positions.xlsx,positions_test.xlsx,positions_test_new.xlsx,stimuli.xlsx,stimuli_new.xlsx,stimuli/Social3.png,stimuli/Social4.png,stimuli/Nonsocial3.png,stimuli/Nonsocial4.png,stimuli/Social1.png,stimuli/Social2.png,stimuli/Nonsocial1.png,stimuli/Nonsocial2.png,cs_pos_s,"(0.7, 0.5)",,,,,,,,,0,0,0,0,,,,,,,,,,,,,1,14,30,6,,,,,,,,,,,,,,,,,,,,,,,,,,,,,,,,,,825.8559564999305,87,reward,1,0.4166032001376152,0.41660659993067384,826.2795524001122,,,,,,,,,,,,,,,,,,,,,,13,C,2024-04-22_11h17.54.969,attentional_competition_task,2022.2.4,143.97645673689073,
positions.xlsx,positions_test.xlsx,positions_test_new.xlsx,stimuli.xlsx,stimuli_new.xlsx,stimuli/Social3.png,stimuli/Social4.png,stimuli/Nonsocial3.png,stimuli/Nonsocial4.png,stimuli/Social1.png,stimuli/Social2.png,stimuli/Nonsocial1.png,stimuli/Nonsocial2.png,cs_neg_s,"(0.7, 0.5)",,,,,,,,,0,0,0,0,,,,,,,,,,,,,1,15,31,2,,,,,,,,,,,,,,,,,,,,,,,,,,,,,,,,,,833.7375791999511,87,none,0,,,836.7513747997582,,,,,,,,,,,,,,,,,,,,,,13,C,2024-04-22_11h17.54.969,attentional_competition_task,2022.2.4,143.97645673689073,
positions.xlsx,positions_test.xlsx,positions_test_new.xlsx,stimuli.xlsx,stimuli_new.xlsx,stimuli/Social3.png,stimuli/Social4.png,stimuli/Nonsocial3.png,stimuli/Nonsocial4.png,stimuli/Social1.png,stimuli/Social2.png,stimuli/Nonsocial1.png,stimuli/Nonsocial2.png,cs_neg_s,,,,,,,,,,0,0,0,0,,,,,,,,,,,,,,,,,0,0,0,0,,,,,,,,,,,,,,,,,,,,,,,842.1678069997579,1.0,7.095573700033128,,,,,,,,,,,,,,,,,,,,,,,,,,,,,,,,,13,C,2024-04-22_11h17.54.969,attentional_competition_task,2022.2.4,143.97645673689073,
positions.xlsx,positions_test.xlsx,positions_test_new.xlsx,stimuli.xlsx,stimuli_new.xlsx,stimuli/Social3.png,stimuli/Social4.png,stimuli/Nonsocial3.png,stimuli/Nonsocial4.png,stimuli/Social1.png,stimuli/Social2.png,stimuli/Nonsocial1.png,stimuli/Nonsocial2.png,cs_neg_ns,,,,,,,,,,0,0,0,0,,,,,,,,,,,,,,,,,0,1,1,1,,,,,,,,,,,,,,,,,,,,,,,849.4661341998726,4.0,2.146754799876362,,,,,,,,,,,,,,,,,,,,,,,,,,,,,,,,,13,C,2024-04-22_11h17.54.969,attentional_competition_task,2022.2.4,143.97645673689073,
positions.xlsx,positions_test.xlsx,positions_test_new.xlsx,stimuli.xlsx,stimuli_new.xlsx,stimuli/Social3.png,stimuli/Social4.png,stimuli/Nonsocial3.png,stimuli/Nonsocial4.png,stimuli/Social1.png,stimuli/Social2.png,stimuli/Nonsocial1.png,stimuli/Nonsocial2.png,cs_pos_ns,,,,,,,,,,0,0,0,0,,,,,,,,,,,,,,,,,0,2,2,3,,,,,,,,,,,,,,,,,,,,,,,851.7507766000926,9.0,1.466768099926412,,,,,,,,,,,,,,,,,,,,,,,,,,,,,,,,,13,C,2024-04-22_11h17.54.969,attentional_competition_task,2022.2.4,143.97645673689073,
positions.xlsx,positions_test.xlsx,positions_test_new.xlsx,stimuli.xlsx,stimuli_new.xlsx,stimuli/Social3.png,stimuli/Social4.png,stimuli/Nonsocial3.png,stimuli/Nonsocial4.png,stimuli/Social1.png,stimuli/Social2.png,stimuli/Nonsocial1.png,stimuli/Nonsocial2.png,cs_pos_s,,,,,,,,,,0,0,0,0,,,,,,,,,,,,,,,,,0,3,3,2,,,,,,,,,,,,,,,,,,,,,,,853.3757134000771,5.0,2.043630000203848,,,,,,,,,,,,,,,,,,,,,,,,,,,,,,,,,13,C,2024-04-22_11h17.54.969,attentional_competition_task,2022.2.4,143.97645673689073,
positions.xlsx,positions_test.xlsx,positions_test_new.xlsx,stimuli.xlsx,stimuli_new.xlsx,stimuli/Social3.png,stimuli/Social4.png,stimuli/Nonsocial3.png,stimuli/Nonsocial4.png,stimuli/Social1.png,stimuli/Social2.png,stimuli/Nonsocial1.png,stimuli/Nonsocial2.png,,,"(-0.7, -0.5)",cs_neg_s,"(-0.7, 0.5)",cs_neg_ns,"(0.7, -0.5)",cs_pos_s,"(0.7, 0.5)",cs_pos_ns,0,0,0,0,,,,,,,,,,,,,,,,,,,,,0,0,0,2,,,,,,,,,,,,,,,,,,,,,,,,,,,90,reward,,,,,855.5492194998078,862.229497499764,862.229497499764,862.229497499764,862.229497499764,0,,,0,,,0,,,1,0.21849150024354458,0.21849500015377998,862.451747899875,862.451747899875,862.451747899875,862.451747899875,13,C,2024-04-22_11h17.54.969,attentional_competition_task,2022.2.4,143.97645673689073,
positions.xlsx,positions_test.xlsx,positions_test_new.xlsx,stimuli.xlsx,stimuli_new.xlsx,stimuli/Social3.png,stimuli/Social4.png,stimuli/Nonsocial3.png,stimuli/Nonsocial4.png,stimuli/Social1.png,stimuli/Social2.png,stimuli/Nonsocial1.png,stimuli/Nonsocial2.png,,,"(-0.7, -0.5)",cs_neg_ns,"(-0.7, 0.5)",cs_neg_s,"(0.7, -0.5)",cs_pos_ns,"(0.7, 0.5)",cs_pos_s,0,0,0,0,,,,,,,,,,,,,,,,,,,,,0,1,1,15,,,,,,,,,,,,,,,,,,,,,,,,,,,99,reward,,,,,,870.6111395996995,870.6111395996995,870.6111395996995,870.6111395996995,0,,,0,,,0,,,0,,,871.479146100115,871.479146100115,871.479146100115,871.479146100115,13,C,2024-04-22_11h17.54.969,attentional_competition_task,2022.2.4,143.97645673689073,
positions.xlsx,positions_test.xlsx,positions_test_new.xlsx,stimuli.xlsx,stimuli_new.xlsx,stimuli/Social3.png,stimuli/Social4.png,stimuli/Nonsocial3.png,stimuli/Nonsocial4.png,stimuli/Social1.png,stimuli/Social2.png,stimuli/Nonsocial1.png,stimuli/Nonsocial2.png,,,"(-0.7, -0.5)",cs_pos_s,"(-0.7, 0.5)",cs_pos_ns,"(0.7, -0.5)",cs_neg_ns,"(0.7, 0.5)",cs_neg_s,0,0,0,0,,,,,,,,,,,,,,,,,,,,,0,2,2,11,,,,,,,,,,,,,,,,,,,,,,,,,,,108,reward,,,,,,879.6941325999796,879.6941325999796,879.6941325999796,879.6941325999796,1,0.11309629958122969,0.12671379977837205,1,0.14085289975628257,0.3628060999326408,0,,,0,,,880.5621164999902,880.5621164999902,880.5621164999902,880.5621164999902,13,C,2024-04-22_11h17.54.969,attentional_competition_task,2022.2.4,143.97645673689073,
positions.xlsx,positions_test.xlsx,positions_test_new.xlsx,stimuli.xlsx,stimuli_new.xlsx,stimuli/Social3.png,stimuli/Social4.png,stimuli/Nonsocial3.png,stimuli/Nonsocial4.png,stimuli/Social1.png,stimuli/Social2.png,stimuli/Nonsocial1.png,stimuli/Nonsocial2.png,,,"(-0.7, -0.5)",cs_pos_ns,"(-0.7, 0.5)",cs_neg_s,"(0.7, -0.5)",cs_pos_s,"(0.7, 0.5)",cs_neg_ns,0,0,0,0,,,,,,,,,,,,,,,,,,,,,0,3,3,22,,,,,,,,,,,,,,,,,,,,,,,,,,,117,reward,,,,,,887.8465108997189,887.8465108997189,887.8465108997189,887.8465108997189,0,,,0,,,0,,,0,,,888.6520731998608,888.6520731998608,888.6520731998608,888.6520731998608,13,C,2024-04-22_11h17.54.969,attentional_competition_task,2022.2.4,143.97645673689073,
positions.xlsx,positions_test.xlsx,positions_test_new.xlsx,stimuli.xlsx,stimuli_new.xlsx,stimuli/Social3.png,stimuli/Social4.png,stimuli/Nonsocial3.png,stimuli/Nonsocial4.png,stimuli/Social1.png,stimuli/Social2.png,stimuli/Nonsocial1.png,stimuli/Nonsocial2.png,,,"(-0.7, -0.5)",cs_pos_ns,"(-0.7, 0.5)",cs_pos_s,"(0.7, -0.5)",cs_neg_s,"(0.7, 0.5)",cs_neg_ns,0,0,0,0,,,,,,,,,,,,,,,,,,,,,0,4,4,19,,,,,,,,,,,,,,,,,,,,,,,,,,,126,reward,,,,,,896.3600572999567,896.3600572999567,896.3600572999567,896.3600572999567,0,,,1,0.02996069984510541,0.30098489997908473,0,,,0,,,897.1656102999114,897.1656102999114,897.1656102999114,897.1656102999114,13,C,2024-04-22_11h17.54.969,attentional_competition_task,2022.2.4,143.97645673689073,
positions.xlsx,positions_test.xlsx,positions_test_new.xlsx,stimuli.xlsx,stimuli_new.xlsx,stimuli/Social3.png,stimuli/Social4.png,stimuli/Nonsocial3.png,stimuli/Nonsocial4.png,stimuli/Social1.png,stimuli/Social2.png,stimuli/Nonsocial1.png,stimuli/Nonsocial2.png,,,"(-0.7, -0.5)",cs_neg_ns,"(-0.7, 0.5)",cs_pos_ns,"(0.7, -0.5)",cs_neg_s,"(0.7, 0.5)",cs_pos_s,0,0,0,0,,,,,,,,,,,,,,,,,,,,,0,5,5,17,,,,,,,,,,,,,,,,,,,,,,,,,,,132,reward,,,,,,904.2000469998457,904.2000469998457,904.2000469998457,904.2000469998457,0,,,1,0.3982975999824703,0.3983013997785747,0,,,1,0.030445499811321497,0.3222332000732422,904.6028466001153,904.6028466001153,904.6028466001153,904.6028466001153,13,C,2024-04-22_11h17.54.969,attentional_competition_task,2022.2.4,143.97645673689073,
positions.xlsx,positions_test.xlsx,positions_test_new.xlsx,stimuli.xlsx,stimuli_new.xlsx,stimuli/Social3.png,stimuli/Social4.png,stimuli/Nonsocial3.png,stimuli/Nonsocial4.png,stimuli/Social1.png,stimuli/Social2.png,stimuli/Nonsocial1.png,stimuli/Nonsocial2.png,,,"(-0.7, -0.5)",cs_neg_s,"(-0.7, 0.5)",cs_pos_ns,"(0.7, -0.5)",cs_neg_ns,"(0.7, 0.5)",cs_pos_s,0,0,0,0,,,,,,,,,,,,,,,,,,,,,0,6,6,5,,,,,,,,,,,,,,,,,,,,,,,,,,,141,reward,,,,,,913.060781700071,913.060781700071,913.060781700071,913.060781700071,0,,,0,,,0,,,0,,,913.901031000074,913.901031000074,913.901031000074,913.901031000074,13,C,2024-04-22_11h17.54.969,attentional_competition_task,2022.2.4,143.97645673689073,
positions.xlsx,positions_test.xlsx,positions_test_new.xlsx,stimuli.xlsx,stimuli_new.xlsx,stimuli/Social3.png,stimuli/Social4.png,stimuli/Nonsocial3.png,stimuli/Nonsocial4.png,stimuli/Social1.png,stimuli/Social2.png,stimuli/Nonsocial1.png,stimuli/Nonsocial2.png,,,"(-0.7, -0.5)",cs_neg_s,"(-0.7, 0.5)",cs_pos_ns,"(0.7, -0.5)",cs_pos_s,"(0.7, 0.5)",cs_neg_ns,0,0,0,0,,,,,,,,,,,,,,,,,,,,,0,7,7,4,,,,,,,,,,,,,,,,,,,,,,,,,,,150,reward,,,,,,922.3868621997535,922.3868621997535,922.3868621997535,922.3868621997535,0,,,1,0.03429649956524372,0.04474399983882904,0,,,0,,,923.2757059996948,923.2757059996948,923.2757059996948,923.2757059996948,13,C,2024-04-22_11h17.54.969,attentional_competition_task,2022.2.4,143.97645673689073,
positions.xlsx,positions_test.xlsx,positions_test_new.xlsx,stimuli.xlsx,stimuli_new.xlsx,stimuli/Social3.png,stimuli/Social4.png,stimuli/Nonsocial3.png,stimuli/Nonsocial4.png,stimuli/Social1.png,stimuli/Social2.png,stimuli/Nonsocial1.png,stimuli/Nonsocial2.png,,,"(-0.7, -0.5)",cs_pos_s,"(-0.7, 0.5)",cs_neg_ns,"(0.7, -0.5)",cs_pos_ns,"(0.7, 0.5)",cs_neg_s,0,0,0,0,,,,,,,,,,,,,,,,,,,,,0,8,8,9,,,,,,,,,,,,,,,,,,,,,,,,,,,159,reward,,,,,,931.1642188997939,931.1642188997939,931.1642188997939,931.1642188997939,0,,,0,,,0,,,0,,,931.9142199000344,931.9142199000344,931.9142199000344,931.9142199000344,13,C,2024-04-22_11h17.54.969,attentional_competition_task,2022.2.4,143.97645673689073,
positions.xlsx,positions_test.xlsx,positions_test_new.xlsx,stimuli.xlsx,stimuli_new.xlsx,stimuli/Social3.png,stimuli/Social4.png,stimuli/Nonsocial3.png,stimuli/Nonsocial4.png,stimuli/Social1.png,stimuli/Social2.png,stimuli/Nonsocial1.png,stimuli/Nonsocial2.png,,,"(-0.7, -0.5)",cs_neg_ns,"(-0.7, 0.5)",cs_pos_ns,"(0.7, -0.5)",cs_pos_s,"(0.7, 0.5)",cs_neg_s,0,0,0,0,,,,,,,,,,,,,,,,,,,,,0,9,9,16,,,,,,,,,,,,,,,,,,,,,,,,,,,165,reward,,,,,,939.3930758000351,939.3930758000351,939.3930758000351,939.3930758000351,0,,,1,0.2534400001168251,0.2534439000301063,0,,,0,,,939.6500363997184,939.6500363997184,939.6500363997184,939.6500363997184,13,C,2024-04-22_11h17.54.969,attentional_competition_task,2022.2.4,143.97645673689073,
positions.xlsx,positions_test.xlsx,positions_test_new.xlsx,stimuli.xlsx,stimuli_new.xlsx,stimuli/Social3.png,stimuli/Social4.png,stimuli/Nonsocial3.png,stimuli/Nonsocial4.png,stimuli/Social1.png,stimuli/Social2.png,stimuli/Nonsocial1.png,stimuli/Nonsocial2.png,,,"(-0.7, -0.5)",cs_pos_ns,"(-0.7, 0.5)",cs_neg_ns,"(0.7, -0.5)",cs_pos_s,"(0.7, 0.5)",cs_neg_s,0,0,0,0,,,,,,,,,,,,,,,,,,,,,0,10,10,20,,,,,,,,,,,,,,,,,,,,,,,,,,,174,reward,,,,,,948.5107438997366,948.5107438997366,948.5107438997366,948.5107438997366,0,,,0,,,0,,,0,,,949.22602429986,949.22602429986,949.22602429986,949.22602429986,13,C,2024-04-22_11h17.54.969,attentional_competition_task,2022.2.4,143.97645673689073,
positions.xlsx,positions_test.xlsx,positions_test_new.xlsx,stimuli.xlsx,stimuli_new.xlsx,stimuli/Social3.png,stimuli/Social4.png,stimuli/Nonsocial3.png,stimuli/Nonsocial4.png,stimuli/Social1.png,stimuli/Social2.png,stimuli/Nonsocial1.png,stimuli/Nonsocial2.png,,,"(-0.7, -0.5)",cs_pos_s,"(-0.7, 0.5)",cs_pos_ns,"(0.7, -0.5)",cs_neg_s,"(0.7, 0.5)",cs_neg_ns,0,0,0,0,,,,,,,,,,,,,,,,,,,,,0,11,11,10,,,,,,,,,,,,,,,,,,,,,,,,,,,183,reward,,,,,,956.670167400036,956.670167400036,956.670167400036,956.670167400036,1,0.16884149983525276,0.3075592997483909,0,,,0,,,0,,,957.4826146997511,957.4826146997511,957.4826146997511,957.4826146997511,13,C,2024-04-22_11h17.54.969,attentional_competition_task,2022.2.4,143.97645673689073,
positions.xlsx,positions_test.xlsx,positions_test_new.xlsx,stimuli.xlsx,stimuli_new.xlsx,stimuli/Social3.png,stimuli/Social4.png,stimuli/Nonsocial3.png,stimuli/Nonsocial4.png,stimuli/Social1.png,stimuli/Social2.png,stimuli/Nonsocial1.png,stimuli/Nonsocial2.png,,,"(-0.7, -0.5)",cs_neg_s,"(-0.7, 0.5)",cs_neg_ns,"(0.7, -0.5)",cs_pos_ns,"(0.7, 0.5)",cs_pos_s,0,0,0,0,,,,,,,,,,,,,,,,,,,,,0,12,12,3,,,,,,,,,,,,,,,,,,,,,,,,,,,192,reward,,,,,,964.3434631996788,964.3434631996788,964.3434631996788,964.3434631996788,0,,,0,,,0,,,0,,,965.1767624998465,965.1767624998465,965.1767624998465,965.1767624998465,13,C,2024-04-22_11h17.54.969,attentional_competition_task,2022.2.4,143.97645673689073,
positions.xlsx,positions_test.xlsx,positions_test_new.xlsx,stimuli.xlsx,stimuli_new.xlsx,stimuli/Social3.png,stimuli/Social4.png,stimuli/Nonsocial3.png,stimuli/Nonsocial4.png,stimuli/Social1.png,stimuli/Social2.png,stimuli/Nonsocial1.png,stimuli/Nonsocial2.png,,,"(-0.7, -0.5)",cs_neg_ns,"(-0.7, 0.5)",cs_pos_s,"(0.7, -0.5)",cs_neg_s,"(0.7, 0.5)",cs_pos_ns,0,0,0,0,,,,,,,,,,,,,,,,,,,,,0,13,13,12,,,,,,,,,,,,,,,,,,,,,,,,,,,201,reward,,,,,,973.0236629000865,973.0236629000865,973.0236629000865,973.0236629000865,0,,,0,,,0,,,0,,,973.9055685000494,973.9055685000494,973.9055685000494,973.9055685000494,13,C,2024-04-22_11h17.54.969,attentional_competition_task,2022.2.4,143.97645673689073,
positions.xlsx,positions_test.xlsx,positions_test_new.xlsx,stimuli.xlsx,stimuli_new.xlsx,stimuli/Social3.png,stimuli/Social4.png,stimuli/Nonsocial3.png,stimuli/Nonsocial4.png,stimuli/Social1.png,stimuli/Social2.png,stimuli/Nonsocial1.png,stimuli/Nonsocial2.png,,,"(-0.7, -0.5)",cs_pos_ns,"(-0.7, 0.5)",cs_pos_s,"(0.7, -0.5)",cs_neg_ns,"(0.7, 0.5)",cs_neg_s,0,0,0,0,,,,,,,,,,,,,,,,,,,,,0,14,14,18,,,,,,,,,,,,,,,,,,,,,,,,,,,210,reward,,,,,,981.5510642998852,981.5510642998852,981.5510642998852,981.5510642998852,0,,,0,,,0,,,0,,,982.3149640997872,982.3149640997872,982.3149640997872,982.3149640997872,13,C,2024-04-22_11h17.54.969,attentional_competition_task,2022.2.4,143.97645673689073,
positions.xlsx,positions_test.xlsx,positions_test_new.xlsx,stimuli.xlsx,stimuli_new.xlsx,stimuli/Social3.png,stimuli/Social4.png,stimuli/Nonsocial3.png,stimuli/Nonsocial4.png,stimuli/Social1.png,stimuli/Social2.png,stimuli/Nonsocial1.png,stimuli/Nonsocial2.png,,,"(-0.7, -0.5)",cs_pos_ns,"(-0.7, 0.5)",cs_neg_ns,"(0.7, -0.5)",cs_neg_s,"(0.7, 0.5)",cs_pos_s,0,0,0,0,,,,,,,,,,,,,,,,,,,,,0,15,15,21,,,,,,,,,,,,,,,,,,,,,,,,,,,219,reward,,,,,,991.0228896997869,991.0228896997869,991.0228896997869,991.0228896997869,0,,,0,,,0,,,1,0.03179690008983016,0.14879869995638728,991.6687547001056,991.6687547001056,991.6687547001056,991.6687547001056,13,C,2024-04-22_11h17.54.969,attentional_competition_task,2022.2.4,143.97645673689073,
positions.xlsx,positions_test.xlsx,positions_test_new.xlsx,stimuli.xlsx,stimuli_new.xlsx,stimuli/Social3.png,stimuli/Social4.png,stimuli/Nonsocial3.png,stimuli/Nonsocial4.png,stimuli/Social1.png,stimuli/Social2.png,stimuli/Nonsocial1.png,stimuli/Nonsocial2.png,,,"(-0.7, -0.5)",cs_neg_ns,"(-0.7, 0.5)",cs_pos_s,"(0.7, -0.5)",cs_pos_ns,"(0.7, 0.5)",cs_neg_s,0,0,0,0,,,,,,,,,,,,,,,,,,,,,0,16,16,13,,,,,,,,,,,,,,,,,,,,,,,,,,,228,reward,,,,,,998.9809244000353,998.9809244000353,998.9809244000353,998.9809244000353,0,,,0,,,0,,,0,,,999.9600816001184,999.9600816001184,999.9600816001184,999.9600816001184,13,C,2024-04-22_11h17.54.969,attentional_competition_task,2022.2.4,143.97645673689073,
positions.xlsx,positions_test.xlsx,positions_test_new.xlsx,stimuli.xlsx,stimuli_new.xlsx,stimuli/Social3.png,stimuli/Social4.png,stimuli/Nonsocial3.png,stimuli/Nonsocial4.png,stimuli/Social1.png,stimuli/Social2.png,stimuli/Nonsocial1.png,stimuli/Nonsocial2.png,,,"(-0.7, -0.5)",cs_pos_s,"(-0.7, 0.5)",cs_neg_ns,"(0.7, -0.5)",cs_neg_s,"(0.7, 0.5)",cs_pos_ns,0,0,0,0,,,,,,,,,,,,,,,,,,,,,0,17,17,8,,,,,,,,,,,,,,,,,,,,,,,,,,,237,reward,,,,,,1007.9598039998673,1007.9598039998673,1007.9598039998673,1007.9598039998673,0,,,0,,,0,,,0,,,1008.6541924998164,1008.6541924998164,1008.6541924998164,1008.6541924998164,13,C,2024-04-22_11h17.54.969,attentional_competition_task,2022.2.4,143.97645673689073,
positions.xlsx,positions_test.xlsx,positions_test_new.xlsx,stimuli.xlsx,stimuli_new.xlsx,stimuli/Social3.png,stimuli/Social4.png,stimuli/Nonsocial3.png,stimuli/Nonsocial4.png,stimuli/Social1.png,stimuli/Social2.png,stimuli/Nonsocial1.png,stimuli/Nonsocial2.png,,,"(-0.7, -0.5)",cs_neg_s,"(-0.7, 0.5)",cs_pos_s,"(0.7, -0.5)",cs_pos_ns,"(0.7, 0.5)",cs_neg_ns,0,0,0,0,,,,,,,,,,,,,,,,,,,,,0,18,18,1,,,,,,,,,,,,,,,,,,,,,,,,,,,243,reward,,,,,,1017.1191332000308,1017.1191332000308,1017.1191332000308,1017.1191332000308,0,,,1,0.030284800101071596,0.030288100242614746,0,,,0,,,1017.1191332000308,1017.1191332000308,1017.1191332000308,1017.1191332000308,13,C,2024-04-22_11h17.54.969,attentional_competition_task,2022.2.4,143.97645673689073,
positions.xlsx,positions_test.xlsx,positions_test_new.xlsx,stimuli.xlsx,stimuli_new.xlsx,stimuli/Social3.png,stimuli/Social4.png,stimuli/Nonsocial3.png,stimuli/Nonsocial4.png,stimuli/Social1.png,stimuli/Social2.png,stimuli/Nonsocial1.png,stimuli/Nonsocial2.png,,,"(-0.7, -0.5)",cs_pos_s,"(-0.7, 0.5)",cs_neg_s,"(0.7, -0.5)",cs_neg_ns,"(0.7, 0.5)",cs_pos_ns,0,0,0,0,,,,,,,,,,,,,,,,,,,,,0,19,19,6,,,,,,,,,,,,,,,,,,,,,,,,,,,252,reward,,,,,,1025.8131662998348,1025.8131662998348,1025.8131662998348,1025.8131662998348,0,,,0,,,0,,,0,,,1026.7367811999284,1026.7367811999284,1026.7367811999284,1026.7367811999284,13,C,2024-04-22_11h17.54.969,attentional_competition_task,2022.2.4,143.97645673689073,
positions.xlsx,positions_test.xlsx,positions_test_new.xlsx,stimuli.xlsx,stimuli_new.xlsx,stimuli/Social3.png,stimuli/Social4.png,stimuli/Nonsocial3.png,stimuli/Nonsocial4.png,stimuli/Social1.png,stimuli/Social2.png,stimuli/Nonsocial1.png,stimuli/Nonsocial2.png,,,"(-0.7, -0.5)",cs_neg_s,"(-0.7, 0.5)",cs_pos_s,"(0.7, -0.5)",cs_neg_ns,"(0.7, 0.5)",cs_pos_ns,0,0,0,0,,,,,,,,,,,,,,,,,,,,,0,20,20,0,,,,,,,,,,,,,,,,,,,,,,,,,,,255,loss,,,,,,1034.2850648998283,1034.2850648998283,1034.2850648998283,1034.2850648998283,1,0.030077400151640177,0.030081000179052353,0,,,0,,,0,,,1034.2850648998283,1034.2850648998283,1034.2850648998283,1034.2850648998283,13,C,2024-04-22_11h17.54.969,attentional_competition_task,2022.2.4,143.97645673689073,
positions.xlsx,positions_test.xlsx,positions_test_new.xlsx,stimuli.xlsx,stimuli_new.xlsx,stimuli/Social3.png,stimuli/Social4.png,stimuli/Nonsocial3.png,stimuli/Nonsocial4.png,stimuli/Social1.png,stimuli/Social2.png,stimuli/Nonsocial1.png,stimuli/Nonsocial2.png,,,"(-0.7, -0.5)",cs_neg_ns,"(-0.7, 0.5)",cs_neg_s,"(0.7, -0.5)",cs_pos_s,"(0.7, 0.5)",cs_pos_ns,0,0,0,0,,,,,,,,,,,,,,,,,,,,,0,21,21,14,,,,,,,,,,,,,,,,,,,,,,,,,,,264,reward,,,,,,1043.145813500043,1043.145813500043,1043.145813500043,1043.145813500043,0,,,0,,,0,,,1,0.029780100099742413,0.06542110024020076,1043.9027565000579,1043.9027565000579,1043.9027565000579,1043.9027565000579,13,C,2024-04-22_11h17.54.969,attentional_competition_task,2022.2.4,143.97645673689073,
positions.xlsx,positions_test.xlsx,positions_test_new.xlsx,stimuli.xlsx,stimuli_new.xlsx,stimuli/Social3.png,stimuli/Social4.png,stimuli/Nonsocial3.png,stimuli/Nonsocial4.png,stimuli/Social1.png,stimuli/Social2.png,stimuli/Nonsocial1.png,stimuli/Nonsocial2.png,,,"(-0.7, -0.5)",cs_pos_ns,"(-0.7, 0.5)",cs_neg_s,"(0.7, -0.5)",cs_neg_ns,"(0.7, 0.5)",cs_pos_s,0,0,0,0,,,,,,,,,,,,,,,,,,,,,0,22,22,23,,,,,,,,,,,,,,,,,,,,,,,,,,,273,reward,,,,,,1051.5135574997403,1051.5135574997403,1051.5135574997403,1051.5135574997403,0,,,0,,,0,,,0,,,1052.4926825999282,1052.4926825999282,1052.4926825999282,1052.4926825999282,13,C,2024-04-22_11h17.54.969,attentional_competition_task,2022.2.4,143.97645673689073,
positions.xlsx,positions_test.xlsx,positions_test_new.xlsx,stimuli.xlsx,stimuli_new.xlsx,stimuli/Social3.png,stimuli/Social4.png,stimuli/Nonsocial3.png,stimuli/Nonsocial4.png,stimuli/Social1.png,stimuli/Social2.png,stimuli/Nonsocial1.png,stimuli/Nonsocial2.png,,,"(-0.7, -0.5)",cs_pos_s,"(-0.7, 0.5)",cs_neg_s,"(0.7, -0.5)",cs_pos_ns,"(0.7, 0.5)",cs_neg_ns,0,0,0,0,,,,,,,,,,,,,,,,,,,,,0,23,23,7,,,,,,,,,,,,,,,,,,,,,,,,,,,282,reward,,,,,,1060.4159645000473,1060.4159645000473,1060.4159645000473,1060.4159645000473,0,,,0,,,0,,,0,,,1061.2284464999102,1061.2284464999102,1061.2284464999102,1061.2284464999102,13,C,2024-04-22_11h17.54.969,attentional_competition_task,2022.2.4,143.97645673689073,
positions.xlsx,positions_test.xlsx,positions_test_new.xlsx,stimuli.xlsx,stimuli_new.xlsx,stimuli/Social3.png,stimuli/Social4.png,stimuli/Nonsocial3.png,stimuli/Nonsocial4.png,stimuli/Social1.png,stimuli/Social2.png,stimuli/Nonsocial1.png,stimuli/Nonsocial2.png,,,"(-0.7, -0.5)",cs_neg_s,"(-0.7, 0.5)",cs_pos_s,"(0.7, -0.5)",cs_pos_ns,"(0.7, 0.5)",cs_neg_ns,0,0,0,0,,,,,,,,,,,,,,,,,,,,,1,0,24,1,,,,,,,,,,,,,,,,,,,,,,,,,,,291,reward,,,,,,1068.8322946000844,1068.8322946000844,1068.8322946000844,1068.8322946000844,0,,,0,,,0,,,0,,,1069.6517415000126,1069.6517415000126,1069.6517415000126,1069.6517415000126,13,C,2024-04-22_11h17.54.969,attentional_competition_task,2022.2.4,143.97645673689073,
positions.xlsx,positions_test.xlsx,positions_test_new.xlsx,stimuli.xlsx,stimuli_new.xlsx,stimuli/Social3.png,stimuli/Social4.png,stimuli/Nonsocial3.png,stimuli/Nonsocial4.png,stimuli/Social1.png,stimuli/Social2.png,stimuli/Nonsocial1.png,stimuli/Nonsocial2.png,,,"(-0.7, -0.5)",cs_pos_ns,"(-0.7, 0.5)",cs_neg_s,"(0.7, -0.5)",cs_pos_s,"(0.7, 0.5)",cs_neg_ns,0,0,0,0,,,,,,,,,,,,,,,,,,,,,1,1,25,22,,,,,,,,,,,,,,,,,,,,,,,,,,,300,reward,,,,,,1078.0332863000222,1078.0332863000222,1078.0332863000222,1078.0332863000222,0,,,0,,,1,0.02373020024970174,0.15590350003913045,0,,,1078.69301789999,1078.69301789999,1078.69301789999,1078.69301789999,13,C,2024-04-22_11h17.54.969,attentional_competition_task,2022.2.4,143.97645673689073,
positions.xlsx,positions_test.xlsx,positions_test_new.xlsx,stimuli.xlsx,stimuli_new.xlsx,stimuli/Social3.png,stimuli/Social4.png,stimuli/Nonsocial3.png,stimuli/Nonsocial4.png,stimuli/Social1.png,stimuli/Social2.png,stimuli/Nonsocial1.png,stimuli/Nonsocial2.png,,,"(-0.7, -0.5)",cs_pos_s,"(-0.7, 0.5)",cs_neg_s,"(0.7, -0.5)",cs_neg_ns,"(0.7, 0.5)",cs_pos_ns,0,0,0,0,,,,,,,,,,,,,,,,,,,,,1,2,26,6,,,,,,,,,,,,,,,,,,,,,,,,,,,309,reward,,,,,,1086.9773888997734,1086.9773888997734,1086.9773888997734,1086.9773888997734,0,,,0,,,0,,,0,,,1087.6093286001123,1087.6093286001123,1087.6093286001123,1087.6093286001123,13,C,2024-04-22_11h17.54.969,attentional_competition_task,2022.2.4,143.97645673689073,
positions.xlsx,positions_test.xlsx,positions_test_new.xlsx,stimuli.xlsx,stimuli_new.xlsx,stimuli/Social3.png,stimuli/Social4.png,stimuli/Nonsocial3.png,stimuli/Nonsocial4.png,stimuli/Social1.png,stimuli/Social2.png,stimuli/Nonsocial1.png,stimuli/Nonsocial2.png,,,"(-0.7, -0.5)",cs_pos_s,"(-0.7, 0.5)",cs_neg_s,"(0.7, -0.5)",cs_pos_ns,"(0.7, 0.5)",cs_neg_ns,0,0,0,0,,,,,,,,,,,,,,,,,,,,,1,3,27,7,,,,,,,,,,,,,,,,,,,,,,,,,,,318,reward,,,,,,1095.7062094998546,1095.7062094998546,1095.7062094998546,1095.7062094998546,0,,,0,,,0,,,0,,,1096.671473399736,1096.671473399736,1096.671473399736,1096.671473399736,13,C,2024-04-22_11h17.54.969,attentional_competition_task,2022.2.4,143.97645673689073,
positions.xlsx,positions_test.xlsx,positions_test_new.xlsx,stimuli.xlsx,stimuli_new.xlsx,stimuli/Social3.png,stimuli/Social4.png,stimuli/Nonsocial3.png,stimuli/Nonsocial4.png,stimuli/Social1.png,stimuli/Social2.png,stimuli/Nonsocial1.png,stimuli/Nonsocial2.png,,,"(-0.7, -0.5)",cs_neg_ns,"(-0.7, 0.5)",cs_pos_ns,"(0.7, -0.5)",cs_neg_s,"(0.7, 0.5)",cs_pos_s,0,0,0,0,,,,,,,,,,,,,,,,,,,,,1,4,28,17,,,,,,,,,,,,,,,,,,,,,,,,,,,321,loss,,,,,,1104.1780544999056,1104.1780544999056,1104.1780544999056,1104.1780544999056,1,0.028222499880939722,0.028226199559867382,0,,,0,,,0,,,1104.1780544999056,1104.1780544999056,1104.1780544999056,1104.1780544999056,13,C,2024-04-22_11h17.54.969,attentional_competition_task,2022.2.4,143.97645673689073,
positions.xlsx,positions_test.xlsx,positions_test_new.xlsx,stimuli.xlsx,stimuli_new.xlsx,stimuli/Social3.png,stimuli/Social4.png,stimuli/Nonsocial3.png,stimuli/Nonsocial4.png,stimuli/Social1.png,stimuli/Social2.png,stimuli/Nonsocial1.png,stimuli/Nonsocial2.png,,,"(-0.7, -0.5)",cs_neg_ns,"(-0.7, 0.5)",cs_pos_s,"(0.7, -0.5)",cs_neg_s,"(0.7, 0.5)",cs_pos_ns,0,0,0,0,,,,,,,,,,,,,,,,,,,,,1,5,29,12,,,,,,,,,,,,,,,,,,,,,,,,,,,330,reward,,,,,,1113.1361064999364,1113.1361064999364,1113.1361064999364,1113.1361064999364,0,,,0,,,0,,,1,0.024598799645900726,0.03970489976927638,1113.7402164000086,1113.7402164000086,1113.7402164000086,1113.7402164000086,13,C,2024-04-22_11h17.54.969,attentional_competition_task,2022.2.4,143.97645673689073,
positions.xlsx,positions_test.xlsx,positions_test_new.xlsx,stimuli.xlsx,stimuli_new.xlsx,stimuli/Social3.png,stimuli/Social4.png,stimuli/Nonsocial3.png,stimuli/Nonsocial4.png,stimuli/Social1.png,stimuli/Social2.png,stimuli/Nonsocial1.png,stimuli/Nonsocial2.png,,,"(-0.7, -0.5)",cs_neg_s,"(-0.7, 0.5)",cs_pos_ns,"(0.7, -0.5)",cs_pos_s,"(0.7, 0.5)",cs_neg_ns,0,0,0,0,,,,,,,,,,,,,,,,,,,,,1,6,30,4,,,,,,,,,,,,,,,,,,,,,,,,,,,339,reward,,,,,,1121.4204535000026,1121.4204535000026,1121.4204535000026,1121.4204535000026,0,,,1,0.03723690006881952,0.0858754999935627,0,,,0,,,1121.9968272997066,1121.9968272997066,1121.9968272997066,1121.9968272997066,13,C,2024-04-22_11h17.54.969,attentional_competition_task,2022.2.4,143.97645673689073,
positions.xlsx,positions_test.xlsx,positions_test_new.xlsx,stimuli.xlsx,stimuli_new.xlsx,stimuli/Social3.png,stimuli/Social4.png,stimuli/Nonsocial3.png,stimuli/Nonsocial4.png,stimuli/Social1.png,stimuli/Social2.png,stimuli/Nonsocial1.png,stimuli/Nonsocial2.png,,,"(-0.7, -0.5)",cs_pos_ns,"(-0.7, 0.5)",cs_neg_s,"(0.7, -0.5)",cs_neg_ns,"(0.7, 0.5)",cs_pos_s,0,0,0,0,,,,,,,,,,,,,,,,,,,,,1,7,31,23,,,,,,,,,,,,,,,,,,,,,,,,,,,348,reward,,,,,,1128.9201374999247,1128.9201374999247,1128.9201374999247,1128.9201374999247,0,,,0,,,0,,,0,,,1129.7187274000607,1129.7187274000607,1129.7187274000607,1129.7187274000607,13,C,2024-04-22_11h17.54.969,attentional_competition_task,2022.2.4,143.97645673689073,
positions.xlsx,positions_test.xlsx,positions_test_new.xlsx,stimuli.xlsx,stimuli_new.xlsx,stimuli/Social3.png,stimuli/Social4.png,stimuli/Nonsocial3.png,stimuli/Nonsocial4.png,stimuli/Social1.png,stimuli/Social2.png,stimuli/Nonsocial1.png,stimuli/Nonsocial2.png,,,"(-0.7, -0.5)",cs_neg_s,"(-0.7, 0.5)",cs_pos_ns,"(0.7, -0.5)",cs_neg_ns,"(0.7, 0.5)",cs_pos_s,0,0,0,0,,,,,,,,,,,,,,,,,,,,,1,8,32,5,,,,,,,,,,,,,,,,,,,,,,,,,,,357,reward,,,,,,1137.4475748999976,1137.4475748999976,1137.4475748999976,1137.4475748999976,0,,,0,,,0,,,0,,,1138.3433889998123,1138.3433889998123,1138.3433889998123,1138.3433889998123,13,C,2024-04-22_11h17.54.969,attentional_competition_task,2022.2.4,143.97645673689073,
positions.xlsx,positions_test.xlsx,positions_test_new.xlsx,stimuli.xlsx,stimuli_new.xlsx,stimuli/Social3.png,stimuli/Social4.png,stimuli/Nonsocial3.png,stimuli/Nonsocial4.png,stimuli/Social1.png,stimuli/Social2.png,stimuli/Nonsocial1.png,stimuli/Nonsocial2.png,,,"(-0.7, -0.5)",cs_pos_ns,"(-0.7, 0.5)",cs_neg_ns,"(0.7, -0.5)",cs_pos_s,"(0.7, 0.5)",cs_neg_s,0,0,0,0,,,,,,,,,,,,,,,,,,,,,1,9,33,20,,,,,,,,,,,,,,,,,,,,,,,,,,,363,reward,,,,,,1145.8430730998516,1145.8430730998516,1145.8430730998516,1145.8430730998516,1,0.029717400204390287,0.04370449995622039,0,,,1,0.10682640038430691,0.11349850008264184,0,,,1145.9541829996742,1145.9541829996742,1145.9541829996742,1145.9541829996742,13,C,2024-04-22_11h17.54.969,attentional_competition_task,2022.2.4,143.97645673689073,
positions.xlsx,positions_test.xlsx,positions_test_new.xlsx,stimuli.xlsx,stimuli_new.xlsx,stimuli/Social3.png,stimuli/Social4.png,stimuli/Nonsocial3.png,stimuli/Nonsocial4.png,stimuli/Social1.png,stimuli/Social2.png,stimuli/Nonsocial1.png,stimuli/Nonsocial2.png,,,"(-0.7, -0.5)",cs_neg_ns,"(-0.7, 0.5)",cs_pos_s,"(0.7, -0.5)",cs_pos_ns,"(0.7, 0.5)",cs_neg_s,0,0,0,0,,,,,,,,,,,,,,,,,,,,,1,10,34,13,,,,,,,,,,,,,,,,,,,,,,,,,,,372,reward,,,,,,1154.676042099949,1154.676042099949,1154.676042099949,1154.676042099949,0,,,1,0.030906399711966515,0.08577719982713461,0,,,0,,,1155.3982237000018,1155.3982237000018,1155.3982237000018,1155.3982237000018,13,C,2024-04-22_11h17.54.969,attentional_competition_task,2022.2.4,143.97645673689073,
positions.xlsx,positions_test.xlsx,positions_test_new.xlsx,stimuli.xlsx,stimuli_new.xlsx,stimuli/Social3.png,stimuli/Social4.png,stimuli/Nonsocial3.png,stimuli/Nonsocial4.png,stimuli/Social1.png,stimuli/Social2.png,stimuli/Nonsocial1.png,stimuli/Nonsocial2.png,,,"(-0.7, -0.5)",cs_pos_ns,"(-0.7, 0.5)",cs_pos_s,"(0.7, -0.5)",cs_neg_s,"(0.7, 0.5)",cs_neg_ns,0,0,0,0,,,,,,,,,,,,,,,,,,,,,1,11,35,19,,,,,,,,,,,,,,,,,,,,,,,,,,,381,reward,,,,,,1163.4604412997141,1163.4604412997141,1163.4604412997141,1163.4604412997141,0,,,1,0.02966810017824173,0.07917199982330203,0,,,0,,,1164.03683729982,1164.03683729982,1164.03683729982,1164.03683729982,13,C,2024-04-22_11h17.54.969,attentional_competition_task,2022.2.4,143.97645673689073,
positions.xlsx,positions_test.xlsx,positions_test_new.xlsx,stimuli.xlsx,stimuli_new.xlsx,stimuli/Social3.png,stimuli/Social4.png,stimuli/Nonsocial3.png,stimuli/Nonsocial4.png,stimuli/Social1.png,stimuli/Social2.png,stimuli/Nonsocial1.png,stimuli/Nonsocial2.png,,,"(-0.7, -0.5)",cs_neg_s,"(-0.7, 0.5)",cs_neg_ns,"(0.7, -0.5)",cs_pos_ns,"(0.7, 0.5)",cs_pos_s,0,0,0,0,,,,,,,,,,,,,,,,,,,,,1,12,36,3,,,,,,,,,,,,,,,,,,,,,,,,,,,390,reward,,,,,,1172.008747200016,1172.008747200016,1172.008747200016,1172.008747200016,0,,,0,,,1,0.21253629960119724,0.2196905999444425,1,0.023831899743527174,0.21282519958913326,1172.7725510997698,1172.7725510997698,1172.7725510997698,1172.7725510997698,13,C,2024-04-22_11h17.54.969,attentional_competition_task,2022.2.4,143.97645673689073,
positions.xlsx,positions_test.xlsx,positions_test_new.xlsx,stimuli.xlsx,stimuli_new.xlsx,stimuli/Social3.png,stimuli/Social4.png,stimuli/Nonsocial3.png,stimuli/Nonsocial4.png,stimuli/Social1.png,stimuli/Social2.png,stimuli/Nonsocial1.png,stimuli/Nonsocial2.png,,,"(-0.7, -0.5)",cs_pos_s,"(-0.7, 0.5)",cs_pos_ns,"(0.7, -0.5)",cs_neg_ns,"(0.7, 0.5)",cs_neg_s,0,0,0,0,,,,,,,,,,,,,,,,,,,,,1,13,37,11,,,,,,,,,,,,,,,,,,,,,,,,,,,399,reward,,,,,,1180.8347426000983,1180.8347426000983,1180.8347426000983,1180.8347426000983,1,0.027615400031208992,0.24412580020725727,0,,,0,,,0,,,1181.5777628999203,1181.5777628999203,1181.5777628999203,1181.5777628999203,13,C,2024-04-22_11h17.54.969,attentional_competition_task,2022.2.4,143.97645673689073,
positions.xlsx,positions_test.xlsx,positions_test_new.xlsx,stimuli.xlsx,stimuli_new.xlsx,stimuli/Social3.png,stimuli/Social4.png,stimuli/Nonsocial3.png,stimuli/Nonsocial4.png,stimuli/Social1.png,stimuli/Social2.png,stimuli/Nonsocial1.png,stimuli/Nonsocial2.png,,,"(-0.7, -0.5)",cs_neg_s,"(-0.7, 0.5)",cs_pos_s,"(0.7, -0.5)",cs_neg_ns,"(0.7, 0.5)",cs_pos_ns,0,0,0,0,,,,,,,,,,,,,,,,,,,,,1,14,38,0,,,,,,,,,,,,,,,,,,,,,,,,,,,408,reward,,,,,,1189.6538454000838,1189.6538454000838,1189.6538454000838,1189.6538454000838,0,,,0,,,0,,,0,,,1190.4037994998507,1190.4037994998507,1190.4037994998507,1190.4037994998507,13,C,2024-04-22_11h17.54.969,attentional_competition_task,2022.2.4,143.97645673689073,
positions.xlsx,positions_test.xlsx,positions_test_new.xlsx,stimuli.xlsx,stimuli_new.xlsx,stimuli/Social3.png,stimuli/Social4.png,stimuli/Nonsocial3.png,stimuli/Nonsocial4.png,stimuli/Social1.png,stimuli/Social2.png,stimuli/Nonsocial1.png,stimuli/Nonsocial2.png,,,"(-0.7, -0.5)",cs_pos_s,"(-0.7, 0.5)",cs_neg_ns,"(0.7, -0.5)",cs_neg_s,"(0.7, 0.5)",cs_pos_ns,0,0,0,0,,,,,,,,,,,,,,,,,,,,,1,15,39,8,,,,,,,,,,,,,,,,,,,,,,,,,,,417,reward,,,,,,1197.5771107999608,1197.5771107999608,1197.5771107999608,1197.5771107999608,0,,,0,,,0,,,0,,,1198.7923559998162,1198.7923559998162,1198.7923559998162,1198.7923559998162,13,C,2024-04-22_11h17.54.969,attentional_competition_task,2022.2.4,143.97645673689073,
positions.xlsx,positions_test.xlsx,positions_test_new.xlsx,stimuli.xlsx,stimuli_new.xlsx,stimuli/Social3.png,stimuli/Social4.png,stimuli/Nonsocial3.png,stimuli/Nonsocial4.png,stimuli/Social1.png,stimuli/Social2.png,stimuli/Nonsocial1.png,stimuli/Nonsocial2.png,,,"(-0.7, -0.5)",cs_pos_ns,"(-0.7, 0.5)",cs_pos_s,"(0.7, -0.5)",cs_neg_ns,"(0.7, 0.5)",cs_neg_s,0,0,0,0,,,,,,,,,,,,,,,,,,,,,1,16,40,18,,,,,,,,,,,,,,,,,,,,,,,,,,,426,reward,,,,,,1206.6947894999757,1206.6947894999757,1206.6947894999757,1206.6947894999757,0,,,0,,,0,,,0,,,1207.5558817000128,1207.5558817000128,1207.5558817000128,1207.5558817000128,13,C,2024-04-22_11h17.54.969,attentional_competition_task,2022.2.4,143.97645673689073,
positions.xlsx,positions_test.xlsx,positions_test_new.xlsx,stimuli.xlsx,stimuli_new.xlsx,stimuli/Social3.png,stimuli/Social4.png,stimuli/Nonsocial3.png,stimuli/Nonsocial4.png,stimuli/Social1.png,stimuli/Social2.png,stimuli/Nonsocial1.png,stimuli/Nonsocial2.png,,,"(-0.7, -0.5)",cs_neg_ns,"(-0.7, 0.5)",cs_pos_ns,"(0.7, -0.5)",cs_pos_s,"(0.7, 0.5)",cs_neg_s,0,0,0,0,,,,,,,,,,,,,,,,,,,,,1,17,41,16,,,,,,,,,,,,,,,,,,,,,,,,,,,435,reward,,,,,,1215.3958463999443,1215.3958463999443,1215.3958463999443,1215.3958463999443,0,,,0,,,0,,,0,,,1216.0209017996676,1216.0209017996676,1216.0209017996676,1216.0209017996676,13,C,2024-04-22_11h17.54.969,attentional_competition_task,2022.2.4,143.97645673689073,
positions.xlsx,positions_test.xlsx,positions_test_new.xlsx,stimuli.xlsx,stimuli_new.xlsx,stimuli/Social3.png,stimuli/Social4.png,stimuli/Nonsocial3.png,stimuli/Nonsocial4.png,stimuli/Social1.png,stimuli/Social2.png,stimuli/Nonsocial1.png,stimuli/Nonsocial2.png,,,"(-0.7, -0.5)",cs_neg_ns,"(-0.7, 0.5)",cs_neg_s,"(0.7, -0.5)",cs_pos_ns,"(0.7, 0.5)",cs_pos_s,0,0,0,0,,,,,,,,,,,,,,,,,,,,,1,18,42,15,,,,,,,,,,,,,,,,,,,,,,,,,,,444,reward,,,,,,1222.9164705998264,1222.9164705998264,1222.9164705998264,1222.9164705998264,0,,,0,,,0,,,0,,,1223.7219112999737,1223.7219112999737,1223.7219112999737,1223.7219112999737,13,C,2024-04-22_11h17.54.969,attentional_competition_task,2022.2.4,143.97645673689073,
positions.xlsx,positions_test.xlsx,positions_test_new.xlsx,stimuli.xlsx,stimuli_new.xlsx,stimuli/Social3.png,stimuli/Social4.png,stimuli/Nonsocial3.png,stimuli/Nonsocial4.png,stimuli/Social1.png,stimuli/Social2.png,stimuli/Nonsocial1.png,stimuli/Nonsocial2.png,,,"(-0.7, -0.5)",cs_pos_ns,"(-0.7, 0.5)",cs_neg_ns,"(0.7, -0.5)",cs_neg_s,"(0.7, 0.5)",cs_pos_s,0,0,0,0,,,,,,,,,,,,,,,,,,,,,1,19,43,21,,,,,,,,,,,,,,,,,,,,,,,,,,,453,reward,,,,,,1231.5062794000842,1231.5062794000842,1231.5062794000842,1231.5062794000842,0,,,0,,,0,,,0,,,1232.4298962997273,1232.4298962997273,1232.4298962997273,1232.4298962997273,13,C,2024-04-22_11h17.54.969,attentional_competition_task,2022.2.4,143.97645673689073,
positions.xlsx,positions_test.xlsx,positions_test_new.xlsx,stimuli.xlsx,stimuli_new.xlsx,stimuli/Social3.png,stimuli/Social4.png,stimuli/Nonsocial3.png,stimuli/Nonsocial4.png,stimuli/Social1.png,stimuli/Social2.png,stimuli/Nonsocial1.png,stimuli/Nonsocial2.png,,,"(-0.7, -0.5)",cs_neg_ns,"(-0.7, 0.5)",cs_neg_s,"(0.7, -0.5)",cs_pos_s,"(0.7, 0.5)",cs_pos_ns,0,0,0,0,,,,,,,,,,,,,,,,,,,,,1,20,44,14,,,,,,,,,,,,,,,,,,,,,,,,,,,462,reward,,,,,,1240.6586962998845,1240.6586962998845,1240.6586962998845,1240.6586962998845,0,,,0,,,1,0.02413170039653778,0.19093600008636713,0,,,1241.3531427998096,1241.3531427998096,1241.3531427998096,1241.3531427998096,13,C,2024-04-22_11h17.54.969,attentional_competition_task,2022.2.4,143.97645673689073,
positions.xlsx,positions_test.xlsx,positions_test_new.xlsx,stimuli.xlsx,stimuli_new.xlsx,stimuli/Social3.png,stimuli/Social4.png,stimuli/Nonsocial3.png,stimuli/Nonsocial4.png,stimuli/Social1.png,stimuli/Social2.png,stimuli/Nonsocial1.png,stimuli/Nonsocial2.png,,,"(-0.7, -0.5)",cs_pos_s,"(-0.7, 0.5)",cs_neg_ns,"(0.7, -0.5)",cs_pos_ns,"(0.7, 0.5)",cs_neg_s,0,0,0,0,,,,,,,,,,,,,,,,,,,,,1,21,45,9,,,,,,,,,,,,,,,,,,,,,,,,,,,471,reward,,,,,,1248.811172799673,1248.811172799673,1248.811172799673,1248.811172799673,0,,,0,,,0,,,0,,,1249.5194854997098,1249.5194854997098,1249.5194854997098,1249.5194854997098,13,C,2024-04-22_11h17.54.969,attentional_competition_task,2022.2.4,143.97645673689073,
positions.xlsx,positions_test.xlsx,positions_test_new.xlsx,stimuli.xlsx,stimuli_new.xlsx,stimuli/Social3.png,stimuli/Social4.png,stimuli/Nonsocial3.png,stimuli/Nonsocial4.png,stimuli/Social1.png,stimuli/Social2.png,stimuli/Nonsocial1.png,stimuli/Nonsocial2.png,,,"(-0.7, -0.5)",cs_neg_s,"(-0.7, 0.5)",cs_neg_ns,"(0.7, -0.5)",cs_pos_s,"(0.7, 0.5)",cs_pos_ns,0,0,0,0,,,,,,,,,,,,,,,,,,,,,1,22,46,2,,,,,,,,,,,,,,,,,,,,,,,,,,,480,reward,,,,,,1256.5538999000564,1256.5538999000564,1256.5538999000564,1256.5538999000564,0,,,0,,,0,,,0,,,1257.4566526999697,1257.4566526999697,1257.4566526999697,1257.4566526999697,13,C,2024-04-22_11h17.54.969,attentional_competition_task,2022.2.4,143.97645673689073,
positions.xlsx,positions_test.xlsx,positions_test_new.xlsx,stimuli.xlsx,stimuli_new.xlsx,stimuli/Social3.png,stimuli/Social4.png,stimuli/Nonsocial3.png,stimuli/Nonsocial4.png,stimuli/Social1.png,stimuli/Social2.png,stimuli/Nonsocial1.png,stimuli/Nonsocial2.png,,,"(-0.7, -0.5)",cs_pos_s,"(-0.7, 0.5)",cs_pos_ns,"(0.7, -0.5)",cs_neg_s,"(0.7, 0.5)",cs_neg_ns,0,0,0,0,,,,,,,,,,,,,,,,,,,,,1,23,47,10,,,,,,,,,,,,,,,,,,,,,,,,,,,489,reward,,,,,,1265.0882973000407,1265.0882973000407,1265.0882973000407,1265.0882973000407,0,,,0,,,0,,,0,,,1265.9632667000405,1265.9632667000405,1265.9632667000405,1265.9632667000405,13,C,2024-04-22_11h17.54.969,attentional_competition_task,2022.2.4,143.97645673689073,
positions.xlsx,positions_test.xlsx,positions_test_new.xlsx,stimuli.xlsx,stimuli_new.xlsx,stimuli/Social3.png,stimuli/Social4.png,stimuli/Nonsocial3.png,stimuli/Nonsocial4.png,stimuli/Social1.png,stimuli/Social2.png,stimuli/Nonsocial1.png,stimuli/Nonsocial2.png,,,"(-0.7, -0.5)",cs_pos_s_new,"(-0.7, 0.5)",cs_neg_ns,"(0.7, -0.5)",cs_pos_ns,"(0.7, 0.5)",cs_neg_s,0,0,0,0,,,,,,,,,,,,,,,,,,,,,,,,,,,,,0,0,0,36,0,0,0,0,,,,,,,,,,,,,,,492,reward,,,,,,1271.8379899999127,1271.8379899999127,1271.8379899999127,1271.8379899999127,0,,,0,,,1,0.6689963000826538,0.6690004002302885,0,,,1272.5116097996943,1272.5116097996943,1272.5116097996943,1272.5116097996943,13,C,2024-04-22_11h17.54.969,attentional_competition_task,2022.2.4,143.97645673689073,
positions.xlsx,positions_test.xlsx,positions_test_new.xlsx,stimuli.xlsx,stimuli_new.xlsx,stimuli/Social3.png,stimuli/Social4.png,stimuli/Nonsocial3.png,stimuli/Nonsocial4.png,stimuli/Social1.png,stimuli/Social2.png,stimuli/Nonsocial1.png,stimuli/Nonsocial2.png,,,"(-0.7, -0.5)",cs_pos_s_new,"(-0.7, 0.5)",cs_neg_ns,"(0.7, -0.5)",cs_pos_ns,"(0.7, 0.5)",cs_neg_s,0,0,0,0,,,,,,,,,,,,,,,,,,,,,,,,,,,,,0,0,0,36,1,0,1,0,,,,,,,,,,,,,,,495,reward,,,,,,1273.0393387000076,1273.0393387000076,1273.0393387000076,1273.0393387000076,1,0.028284099884331226,0.02828759979456663,0,,,0,,,0,,,1273.0393387000076,1273.0393387000076,1273.0393387000076,1273.0393387000076,13,C,2024-04-22_11h17.54.969,attentional_competition_task,2022.2.4,143.97645673689073,
positions.xlsx,positions_test.xlsx,positions_test_new.xlsx,stimuli.xlsx,stimuli_new.xlsx,stimuli/Social3.png,stimuli/Social4.png,stimuli/Nonsocial3.png,stimuli/Nonsocial4.png,stimuli/Social1.png,stimuli/Social2.png,stimuli/Nonsocial1.png,stimuli/Nonsocial2.png,,,"(-0.7, -0.5)",cs_pos_s_new,"(-0.7, 0.5)",cs_neg_ns,"(0.7, -0.5)",cs_pos_ns,"(0.7, 0.5)",cs_neg_s,0,0,0,0,,,,,,,,,,,,,,,,,,,,,,,,,,,,,0,0,0,36,2,0,2,0,,,,,,,,,,,,,,,498,reward,,,,,,1273.546256300062,1273.546256300062,1273.546256300062,1273.546256300062,0,,,0,,,0,,,0,,,1274.3518138998188,1274.3518138998188,1274.3518138998188,1274.3518138998188,13,C,2024-04-22_11h17.54.969,attentional_competition_task,2022.2.4,143.97645673689073,
positions.xlsx,positions_test.xlsx,positions_test_new.xlsx,stimuli.xlsx,stimuli_new.xlsx,stimuli/Social3.png,stimuli/Social4.png,stimuli/Nonsocial3.png,stimuli/Nonsocial4.png,stimuli/Social1.png,stimuli/Social2.png,stimuli/Nonsocial1.png,stimuli/Nonsocial2.png,,,"(-0.7, -0.5)",cs_pos_s_new,"(-0.7, 0.5)",cs_neg_ns,"(0.7, -0.5)",cs_pos_ns,"(0.7, 0.5)",cs_neg_s,0,0,0,0,,,,,,,,,,,,,,,,,,,,,,,,,,,,,0,0,0,36,,,,,,,,,,,,,,,,,,,,,,,,,,,,,,,,,,,,,,,,,,,,,,13,C,2024-04-22_11h17.54.969,attentional_competition_task,2022.2.4,143.97645673689073,
positions.xlsx,positions_test.xlsx,positions_test_new.xlsx,stimuli.xlsx,stimuli_new.xlsx,stimuli/Social3.png,stimuli/Social4.png,stimuli/Nonsocial3.png,stimuli/Nonsocial4.png,stimuli/Social1.png,stimuli/Social2.png,stimuli/Nonsocial1.png,stimuli/Nonsocial2.png,,,"(-0.7, -0.5)",cs_pos_s,"(-0.7, 0.5)",cs_neg_ns,"(0.7, -0.5)",cs_pos_ns_new,"(0.7, 0.5)",cs_neg_s,0,0,0,0,,,,,,,,,,,,,,,,,,,,,,,,,,,,,0,1,1,45,0,0,0,0,,,,,,,,,,,,,,,501,reward,,,,,,1280.1154855997302,1280.1154855997302,1280.1154855997302,1280.1154855997302,1,0.703545999713242,0.7109261997975409,0,,,0,,,0,,,1280.8307162998244,1280.8307162998244,1280.8307162998244,1280.8307162998244,13,C,2024-04-22_11h17.54.969,attentional_competition_task,2022.2.4,143.97645673689073,
positions.xlsx,positions_test.xlsx,positions_test_new.xlsx,stimuli.xlsx,stimuli_new.xlsx,stimuli/Social3.png,stimuli/Social4.png,stimuli/Nonsocial3.png,stimuli/Nonsocial4.png,stimuli/Social1.png,stimuli/Social2.png,stimuli/Nonsocial1.png,stimuli/Nonsocial2.png,,,"(-0.7, -0.5)",cs_pos_s,"(-0.7, 0.5)",cs_neg_ns,"(0.7, -0.5)",cs_pos_ns_new,"(0.7, 0.5)",cs_neg_s,0,0,0,0,,,,,,,,,,,,,,,,,,,,,,,,,,,,,0,1,1,45,1,0,1,0,,,,,,,,,,,,,,,498,loss,,,,,,1281.3653677999973,1281.3653677999973,1281.3653677999973,1281.3653677999973,0,,,1,0.030114700086414814,0.03011880023404956,0,,,0,,,1281.3653677999973,1281.3653677999973,1281.3653677999973,1281.3653677999973,13,C,2024-04-22_11h17.54.969,attentional_competition_task,2022.2.4,143.97645673689073,
positions.xlsx,positions_test.xlsx,positions_test_new.xlsx,stimuli.xlsx,stimuli_new.xlsx,stimuli/Social3.png,stimuli/Social4.png,stimuli/Nonsocial3.png,stimuli/Nonsocial4.png,stimuli/Social1.png,stimuli/Social2.png,stimuli/Nonsocial1.png,stimuli/Nonsocial2.png,,,"(-0.7, -0.5)",cs_pos_s,"(-0.7, 0.5)",cs_neg_ns,"(0.7, -0.5)",cs_pos_ns_new,"(0.7, 0.5)",cs_neg_s,0,0,0,0,,,,,,,,,,,,,,,,,,,,,,,,,,,,,0,1,1,45,2,0,2,0,,,,,,,,,,,,,,,501,reward,,,,,,1281.9001321000978,1281.9001321000978,1281.9001321000978,1281.9001321000978,0,,,0,,,1,0.03095669997856021,0.030960900243371725,0,,,1281.9001321000978,1281.9001321000978,1281.9001321000978,1281.9001321000978,13,C,2024-04-22_11h17.54.969,attentional_competition_task,2022.2.4,143.97645673689073,
positions.xlsx,positions_test.xlsx,positions_test_new.xlsx,stimuli.xlsx,stimuli_new.xlsx,stimuli/Social3.png,stimuli/Social4.png,stimuli/Nonsocial3.png,stimuli/Nonsocial4.png,stimuli/Social1.png,stimuli/Social2.png,stimuli/Nonsocial1.png,stimuli/Nonsocial2.png,,,"(-0.7, -0.5)",cs_pos_s,"(-0.7, 0.5)",cs_neg_ns,"(0.7, -0.5)",cs_pos_ns_new,"(0.7, 0.5)",cs_neg_s,0,0,0,0,,,,,,,,,,,,,,,,,,,,,,,,,,,,,0,1,1,45,,,,,,,,,,,,,,,,,,,,,,,,,,,,,,,,,,,,,,,,,,,,,,13,C,2024-04-22_11h17.54.969,attentional_competition_task,2022.2.4,143.97645673689073,
positions.xlsx,positions_test.xlsx,positions_test_new.xlsx,stimuli.xlsx,stimuli_new.xlsx,stimuli/Social3.png,stimuli/Social4.png,stimuli/Nonsocial3.png,stimuli/Nonsocial4.png,stimuli/Social1.png,stimuli/Social2.png,stimuli/Nonsocial1.png,stimuli/Nonsocial2.png,,,"(-0.7, -0.5)",cs_neg_s,"(-0.7, 0.5)",cs_pos_s_new,"(0.7, -0.5)",cs_pos_ns,"(0.7, 0.5)",cs_neg_ns,0,0,0,0,,,,,,,,,,,,,,,,,,,,,,,,,,,,,0,2,2,29,0,0,0,0,,,,,,,,,,,,,,,498,loss,,,,,,1287.9415273997001,1287.9415273997001,1287.9415273997001,1287.9415273997001,1,0.8841299000196159,0.8841339000500739,0,,,0,,,0,,,1288.837385599967,1288.837385599967,1288.837385599967,1288.837385599967,13,C,2024-04-22_11h17.54.969,attentional_competition_task,2022.2.4,143.97645673689073,
positions.xlsx,positions_test.xlsx,positions_test_new.xlsx,stimuli.xlsx,stimuli_new.xlsx,stimuli/Social3.png,stimuli/Social4.png,stimuli/Nonsocial3.png,stimuli/Nonsocial4.png,stimuli/Social1.png,stimuli/Social2.png,stimuli/Nonsocial1.png,stimuli/Nonsocial2.png,,,"(-0.7, -0.5)",cs_neg_s,"(-0.7, 0.5)",cs_pos_s_new,"(0.7, -0.5)",cs_pos_ns,"(0.7, 0.5)",cs_neg_ns,0,0,0,0,,,,,,,,,,,,,,,,,,,,,,,,,,,,,0,2,2,29,1,0,1,0,,,,,,,,,,,,,,,501,reward,,,,,,1289.372075600084,1289.372075600084,1289.372075600084,1289.372075600084,0,,,1,0.02782159997150302,0.027825300116091967,0,,,0,,,1289.372075600084,1289.372075600084,1289.372075600084,1289.372075600084,13,C,2024-04-22_11h17.54.969,attentional_competition_task,2022.2.4,143.97645673689073,
positions.xlsx,positions_test.xlsx,positions_test_new.xlsx,stimuli.xlsx,stimuli_new.xlsx,stimuli/Social3.png,stimuli/Social4.png,stimuli/Nonsocial3.png,stimuli/Nonsocial4.png,stimuli/Social1.png,stimuli/Social2.png,stimuli/Nonsocial1.png,stimuli/Nonsocial2.png,,,"(-0.7, -0.5)",cs_neg_s,"(-0.7, 0.5)",cs_pos_s_new,"(0.7, -0.5)",cs_pos_ns,"(0.7, 0.5)",cs_neg_ns,0,0,0,0,,,,,,,,,,,,,,,,,,,,,,,,,,,,,0,2,2,29,2,0,2,0,,,,,,,,,,,,,,,498,loss,,,,,,1289.8998038996942,1289.8998038996942,1289.8998038996942,1289.8998038996942,0,,,0,,,0,,,1,0.026144299656152725,0.026148099917918444,1289.8998038996942,1289.8998038996942,1289.8998038996942,1289.8998038996942,13,C,2024-04-22_11h17.54.969,attentional_competition_task,2022.2.4,143.97645673689073,
positions.xlsx,positions_test.xlsx,positions_test_new.xlsx,stimuli.xlsx,stimuli_new.xlsx,stimuli/Social3.png,stimuli/Social4.png,stimuli/Nonsocial3.png,stimuli/Nonsocial4.png,stimuli/Social1.png,stimuli/Social2.png,stimuli/Nonsocial1.png,stimuli/Nonsocial2.png,,,"(-0.7, -0.5)",cs_neg_s,"(-0.7, 0.5)",cs_pos_s_new,"(0.7, -0.5)",cs_pos_ns,"(0.7, 0.5)",cs_neg_ns,0,0,0,0,,,,,,,,,,,,,,,,,,,,,,,,,,,,,0,2,2,29,,,,,,,,,,,,,,,,,,,,,,,,,,,,,,,,,,,,,,,,,,,,,,13,C,2024-04-22_11h17.54.969,attentional_competition_task,2022.2.4,143.97645673689073,
positions.xlsx,positions_test.xlsx,positions_test_new.xlsx,stimuli.xlsx,stimuli_new.xlsx,stimuli/Social3.png,stimuli/Social4.png,stimuli/Nonsocial3.png,stimuli/Nonsocial4.png,stimuli/Social1.png,stimuli/Social2.png,stimuli/Nonsocial1.png,stimuli/Nonsocial2.png,,,"(-0.7, -0.5)",cs_neg_s_new,"(-0.7, 0.5)",cs_neg_ns,"(0.7, -0.5)",cs_pos_s,"(0.7, 0.5)",cs_pos_ns,0,0,0,0,,,,,,,,,,,,,,,,,,,,,,,,,,,,,0,3,3,16,0,0,0,0,,,,,,,,,,,,,,,501,reward,,,,,,1297.2814396000467,1297.2814396000467,1297.2814396000467,1297.2814396000467,0,,,0,,,1,0.9329311000183225,0.9329345999285579,0,,,1298.2189503996633,1298.2189503996633,1298.2189503996633,1298.2189503996633,13,C,2024-04-22_11h17.54.969,attentional_competition_task,2022.2.4,143.97645673689073,
positions.xlsx,positions_test.xlsx,positions_test_new.xlsx,stimuli.xlsx,stimuli_new.xlsx,stimuli/Social3.png,stimuli/Social4.png,stimuli/Nonsocial3.png,stimuli/Nonsocial4.png,stimuli/Social1.png,stimuli/Social2.png,stimuli/Nonsocial1.png,stimuli/Nonsocial2.png,,,"(-0.7, -0.5)",cs_neg_s_new,"(-0.7, 0.5)",cs_neg_ns,"(0.7, -0.5)",cs_pos_s,"(0.7, 0.5)",cs_pos_ns,0,0,0,0,,,,,,,,,,,,,,,,,,,,,,,,,,,,,0,3,3,16,1,0,1,0,,,,,,,,,,,,,,,504,reward,,,,,,1298.7536271996796,1298.7536271996796,1298.7536271996796,1298.7536271996796,0,,,0,,,0,,,1,0.030773000326007605,0.030777100007981062,1298.7536271996796,1298.7536271996796,1298.7536271996796,1298.7536271996796,13,C,2024-04-22_11h17.54.969,attentional_competition_task,2022.2.4,143.97645673689073,
positions.xlsx,positions_test.xlsx,positions_test_new.xlsx,stimuli.xlsx,stimuli_new.xlsx,stimuli/Social3.png,stimuli/Social4.png,stimuli/Nonsocial3.png,stimuli/Nonsocial4.png,stimuli/Social1.png,stimuli/Social2.png,stimuli/Nonsocial1.png,stimuli/Nonsocial2.png,,,"(-0.7, -0.5)",cs_neg_s_new,"(-0.7, 0.5)",cs_neg_ns,"(0.7, -0.5)",cs_pos_s,"(0.7, 0.5)",cs_pos_ns,0,0,0,0,,,,,,,,,,,,,,,,,,,,,,,,,,,,,0,3,3,16,2,0,2,0,,,,,,,,,,,,,,,501,loss,,,,,,1299.7882985998876,1299.7882985998876,1299.7882985998876,1299.7882985998876,0,,,1,0.030730099882930517,0.03073350014165044,0,,,0,,,1299.7882985998876,1299.7882985998876,1299.7882985998876,1299.7882985998876,13,C,2024-04-22_11h17.54.969,attentional_competition_task,2022.2.4,143.97645673689073,
positions.xlsx,positions_test.xlsx,positions_test_new.xlsx,stimuli.xlsx,stimuli_new.xlsx,stimuli/Social3.png,stimuli/Social4.png,stimuli/Nonsocial3.png,stimuli/Nonsocial4.png,stimuli/Social1.png,stimuli/Social2.png,stimuli/Nonsocial1.png,stimuli/Nonsocial2.png,,,"(-0.7, -0.5)",cs_neg_s_new,"(-0.7, 0.5)",cs_neg_ns,"(0.7, -0.5)",cs_pos_s,"(0.7, 0.5)",cs_pos_ns,0,0,0,0,,,,,,,,,,,,,,,,,,,,,,,,,,,,,0,3,3,16,,,,,,,,,,,,,,,,,,,,,,,,,,,,,,,,,,,,,,,,,,,,,,13,C,2024-04-22_11h17.54.969,attentional_competition_task,2022.2.4,143.97645673689073,
positions.xlsx,positions_test.xlsx,positions_test_new.xlsx,stimuli.xlsx,stimuli_new.xlsx,stimuli/Social3.png,stimuli/Social4.png,stimuli/Nonsocial3.png,stimuli/Nonsocial4.png,stimuli/Social1.png,stimuli/Social2.png,stimuli/Nonsocial1.png,stimuli/Nonsocial2.png,,,"(-0.7, -0.5)",cs_pos_s_new,"(-0.7, 0.5)",cs_pos_ns,"(0.7, -0.5)",cs_neg_ns,"(0.7, 0.5)",cs_neg_s,0,0,0,0,,,,,,,,,,,,,,,,,,,,,,,,,,,,,0,4,4,28,0,0,0,0,,,,,,,,,,,,,,,504,reward,,,,,,1306.1005110996775,1306.1005110996775,1306.1005110996775,1306.1005110996775,1,1.1476830998435616,1.1476872996427119,0,,,0,,,0,,,1307.2532973997295,1307.2532973997295,1307.2532973997295,1307.2532973997295,13,C,2024-04-22_11h17.54.969,attentional_competition_task,2022.2.4,143.97645673689073,
positions.xlsx,positions_test.xlsx,positions_test_new.xlsx,stimuli.xlsx,stimuli_new.xlsx,stimuli/Social3.png,stimuli/Social4.png,stimuli/Nonsocial3.png,stimuli/Nonsocial4.png,stimuli/Social1.png,stimuli/Social2.png,stimuli/Nonsocial1.png,stimuli/Nonsocial2.png,,,"(-0.7, -0.5)",cs_pos_s_new,"(-0.7, 0.5)",cs_pos_ns,"(0.7, -0.5)",cs_neg_ns,"(0.7, 0.5)",cs_neg_s,0,0,0,0,,,,,,,,,,,,,,,,,,,,,,,,,,,,,0,4,4,28,1,0,1,0,,,,,,,,,,,,,,,507,reward,,,,,,1307.7879675999284,1307.7879675999284,1307.7879675999284,1307.7879675999284,0,,,1,0.027701300103217363,0.027705200016498566,0,,,0,,,1307.7879675999284,1307.7879675999284,1307.7879675999284,1307.7879675999284,13,C,2024-04-22_11h17.54.969,attentional_competition_task,2022.2.4,143.97645673689073,
positions.xlsx,positions_test.xlsx,positions_test_new.xlsx,stimuli.xlsx,stimuli_new.xlsx,stimuli/Social3.png,stimuli/Social4.png,stimuli/Nonsocial3.png,stimuli/Nonsocial4.png,stimuli/Social1.png,stimuli/Social2.png,stimuli/Nonsocial1.png,stimuli/Nonsocial2.png,,,"(-0.7, -0.5)",cs_pos_s_new,"(-0.7, 0.5)",cs_pos_ns,"(0.7, -0.5)",cs_neg_ns,"(0.7, 0.5)",cs_neg_s,0,0,0,0,,,,,,,,,,,,,,,,,,,,,,,,,,,,,0,4,4,28,,,,,,,,,,,,,,,,,,,,,,,,,,,,,,,,,,,,,,,,,,,,,,13,C,2024-04-22_11h17.54.969,attentional_competition_task,2022.2.4,143.97645673689073,
positions.xlsx,positions_test.xlsx,positions_test_new.xlsx,stimuli.xlsx,stimuli_new.xlsx,stimuli/Social3.png,stimuli/Social4.png,stimuli/Nonsocial3.png,stimuli/Nonsocial4.png,stimuli/Social1.png,stimuli/Social2.png,stimuli/Nonsocial1.png,stimuli/Nonsocial2.png,,,"(-0.7, -0.5)",cs_neg_ns,"(-0.7, 0.5)",cs_pos_ns_new,"(0.7, -0.5)",cs_neg_s,"(0.7, 0.5)",cs_pos_s,0,0,0,0,,,,,,,,,,,,,,,,,,,,,,,,,,,,,0,5,5,40,0,0,0,0,,,,,,,,,,,,,,,510,reward,,,,,,1313.9266176996753,1313.9266176996753,1313.9266176996753,1313.9266176996753,0,,,0,,,0,,,1,0.9056063001044095,0.9056095001287758,1314.8362912996672,1314.8362912996672,1314.8362912996672,1314.8362912996672,13,C,2024-04-22_11h17.54.969,attentional_competition_task,2022.2.4,143.97645673689073,
positions.xlsx,positions_test.xlsx,positions_test_new.xlsx,stimuli.xlsx,stimuli_new.xlsx,stimuli/Social3.png,stimuli/Social4.png,stimuli/Nonsocial3.png,stimuli/Nonsocial4.png,stimuli/Social1.png,stimuli/Social2.png,stimuli/Nonsocial1.png,stimuli/Nonsocial2.png,,,"(-0.7, -0.5)",cs_neg_ns,"(-0.7, 0.5)",cs_pos_ns_new,"(0.7, -0.5)",cs_neg_s,"(0.7, 0.5)",cs_pos_s,0,0,0,0,,,,,,,,,,,,,,,,,,,,,,,,,,,,,0,5,5,40,1,0,1,0,,,,,,,,,,,,,,,513,reward,,,,,,1315.3362964997068,1315.3362964997068,1315.3362964997068,1315.3362964997068,0,,,0,,,0,,,0,,,1316.4404198997654,1316.4404198997654,1316.4404198997654,1316.4404198997654,13,C,2024-04-22_11h17.54.969,attentional_competition_task,2022.2.4,143.97645673689073,
positions.xlsx,positions_test.xlsx,positions_test_new.xlsx,stimuli.xlsx,stimuli_new.xlsx,stimuli/Social3.png,stimuli/Social4.png,stimuli/Nonsocial3.png,stimuli/Nonsocial4.png,stimuli/Social1.png,stimuli/Social2.png,stimuli/Nonsocial1.png,stimuli/Nonsocial2.png,,,"(-0.7, -0.5)",cs_neg_ns,"(-0.7, 0.5)",cs_pos_ns_new,"(0.7, -0.5)",cs_neg_s,"(0.7, 0.5)",cs_pos_s,0,0,0,0,,,,,,,,,,,,,,,,,,,,,,,,,,,,,0,5,5,40,,,,,,,,,,,,,,,,,,,,,,,,,,,,,,,,,,,,,,,,,,,,,,13,C,2024-04-22_11h17.54.969,attentional_competition_task,2022.2.4,143.97645673689073,
positions.xlsx,positions_test.xlsx,positions_test_new.xlsx,stimuli.xlsx,stimuli_new.xlsx,stimuli/Social3.png,stimuli/Social4.png,stimuli/Nonsocial3.png,stimuli/Nonsocial4.png,stimuli/Social1.png,stimuli/Social2.png,stimuli/Nonsocial1.png,stimuli/Nonsocial2.png,,,"(-0.7, -0.5)",cs_neg_ns,"(-0.7, 0.5)",cs_pos_ns,"(0.7, -0.5)",cs_neg_s,"(0.7, 0.5)",cs_pos_s_new,0,0,0,0,,,,,,,,,,,,,,,,,,,,,,,,,,,,,0,6,6,33,0,0,0,0,,,,,,,,,,,,,,,516,reward,,,,,,1323.2179934000596,1323.2179934000596,1323.2179934000596,1323.2179934000596,0,,,0,,,0,,,1,0.565527300350368,0.5655309003777802,1323.794322699774,1323.794322699774,1323.794322699774,1323.794322699774,13,C,2024-04-22_11h17.54.969,attentional_competition_task,2022.2.4,143.97645673689073,
positions.xlsx,positions_test.xlsx,positions_test_new.xlsx,stimuli.xlsx,stimuli_new.xlsx,stimuli/Social3.png,stimuli/Social4.png,stimuli/Nonsocial3.png,stimuli/Nonsocial4.png,stimuli/Social1.png,stimuli/Social2.png,stimuli/Nonsocial1.png,stimuli/Nonsocial2.png,,,"(-0.7, -0.5)",cs_neg_ns,"(-0.7, 0.5)",cs_pos_ns,"(0.7, -0.5)",cs_neg_s,"(0.7, 0.5)",cs_pos_s_new,0,0,0,0,,,,,,,,,,,,,,,,,,,,,,,,,,,,,0,6,6,33,1,0,1,0,,,,,,,,,,,,,,,519,reward,,,,,,1324.294231500011,1324.294231500011,1324.294231500011,1324.294231500011,0,,,1,0.3703300002962351,0.3774304003454745,0,,,0,,,1324.6761920000426,1324.6761920000426,1324.6761920000426,1324.6761920000426,13,C,2024-04-22_11h17.54.969,attentional_competition_task,2022.2.4,143.97645673689073,
positions.xlsx,positions_test.xlsx,positions_test_new.xlsx,stimuli.xlsx,stimuli_new.xlsx,stimuli/Social3.png,stimuli/Social4.png,stimuli/Nonsocial3.png,stimuli/Nonsocial4.png,stimuli/Social1.png,stimuli/Social2.png,stimuli/Nonsocial1.png,stimuli/Nonsocial2.png,,,"(-0.7, -0.5)",cs_neg_ns,"(-0.7, 0.5)",cs_pos_ns,"(0.7, -0.5)",cs_neg_s,"(0.7, 0.5)",cs_pos_s_new,0,0,0,0,,,,,,,,,,,,,,,,,,,,,,,,,,,,,0,6,6,33,2,0,2,0,,,,,,,,,,,,,,,522,reward,,,,,,1325.169206999708,1325.169206999708,1325.169206999708,1325.169206999708,0,,,0,,,0,,,0,,,1325.7386516998522,1325.7386516998522,1325.7386516998522,1325.7386516998522,13,C,2024-04-22_11h17.54.969,attentional_competition_task,2022.2.4,143.97645673689073,
positions.xlsx,positions_test.xlsx,positions_test_new.xlsx,stimuli.xlsx,stimuli_new.xlsx,stimuli/Social3.png,stimuli/Social4.png,stimuli/Nonsocial3.png,stimuli/Nonsocial4.png,stimuli/Social1.png,stimuli/Social2.png,stimuli/Nonsocial1.png,stimuli/Nonsocial2.png,,,"(-0.7, -0.5)",cs_neg_ns,"(-0.7, 0.5)",cs_pos_ns,"(0.7, -0.5)",cs_neg_s,"(0.7, 0.5)",cs_pos_s_new,0,0,0,0,,,,,,,,,,,,,,,,,,,,,,,,,,,,,0,6,6,33,,,,,,,,,,,,,,,,,,,,,,,,,,,,,,,,,,,,,,,,,,,,,,13,C,2024-04-22_11h17.54.969,attentional_competition_task,2022.2.4,143.97645673689073,
positions.xlsx,positions_test.xlsx,positions_test_new.xlsx,stimuli.xlsx,stimuli_new.xlsx,stimuli/Social3.png,stimuli/Social4.png,stimuli/Nonsocial3.png,stimuli/Nonsocial4.png,stimuli/Social1.png,stimuli/Social2.png,stimuli/Nonsocial1.png,stimuli/Nonsocial2.png,,,"(-0.7, -0.5)",cs_neg_s,"(-0.7, 0.5)",cs_neg_ns,"(0.7, -0.5)",cs_pos_ns,"(0.7, 0.5)",cs_pos_s_new,0,0,0,0,,,,,,,,,,,,,,,,,,,,,,,,,,,,,0,7,7,32,0,0,0,0,,,,,,,,,,,,,,,525,reward,,,,,,1331.780015999917,1331.780015999917,1331.780015999917,1331.780015999917,0,,,0,,,0,,,1,0.8704474996775389,0.8704512999393046,1332.6550030000508,1332.6550030000508,1332.6550030000508,1332.6550030000508,13,C,2024-04-22_11h17.54.969,attentional_competition_task,2022.2.4,143.97645673689073,
positions.xlsx,positions_test.xlsx,positions_test_new.xlsx,stimuli.xlsx,stimuli_new.xlsx,stimuli/Social3.png,stimuli/Social4.png,stimuli/Nonsocial3.png,stimuli/Nonsocial4.png,stimuli/Social1.png,stimuli/Social2.png,stimuli/Nonsocial1.png,stimuli/Nonsocial2.png,,,"(-0.7, -0.5)",cs_neg_s,"(-0.7, 0.5)",cs_neg_ns,"(0.7, -0.5)",cs_pos_ns,"(0.7, 0.5)",cs_pos_s_new,0,0,0,0,,,,,,,,,,,,,,,,,,,,,,,,,,,,,0,7,7,32,1,0,1,0,,,,,,,,,,,,,,,528,reward,,,,,,1333.189748799894,1333.189748799894,1333.189748799894,1333.189748799894,0,,,0,,,1,0.030400000046938658,0.03040379984304309,0,,,1333.189748799894,1333.189748799894,1333.189748799894,1333.189748799894,13,C,2024-04-22_11h17.54.969,attentional_competition_task,2022.2.4,143.97645673689073,
positions.xlsx,positions_test.xlsx,positions_test_new.xlsx,stimuli.xlsx,stimuli_new.xlsx,stimuli/Social3.png,stimuli/Social4.png,stimuli/Nonsocial3.png,stimuli/Nonsocial4.png,stimuli/Social1.png,stimuli/Social2.png,stimuli/Nonsocial1.png,stimuli/Nonsocial2.png,,,"(-0.7, -0.5)",cs_neg_s,"(-0.7, 0.5)",cs_neg_ns,"(0.7, -0.5)",cs_pos_ns,"(0.7, 0.5)",cs_pos_s_new,0,0,0,0,,,,,,,,,,,,,,,,,,,,,,,,,,,,,0,7,7,32,2,0,2,0,,,,,,,,,,,,,,,531,reward,,,,,,1333.6897789998911,1333.6897789998911,1333.6897789998911,1333.6897789998911,0,,,0,,,0,,,0,,,1334.2938637998886,1334.2938637998886,1334.2938637998886,1334.2938637998886,13,C,2024-04-22_11h17.54.969,attentional_competition_task,2022.2.4,143.97645673689073,
positions.xlsx,positions_test.xlsx,positions_test_new.xlsx,stimuli.xlsx,stimuli_new.xlsx,stimuli/Social3.png,stimuli/Social4.png,stimuli/Nonsocial3.png,stimuli/Nonsocial4.png,stimuli/Social1.png,stimuli/Social2.png,stimuli/Nonsocial1.png,stimuli/Nonsocial2.png,,,"(-0.7, -0.5)",cs_neg_s,"(-0.7, 0.5)",cs_neg_ns,"(0.7, -0.5)",cs_pos_ns,"(0.7, 0.5)",cs_pos_s_new,0,0,0,0,,,,,,,,,,,,,,,,,,,,,,,,,,,,,0,7,7,32,,,,,,,,,,,,,,,,,,,,,,,,,,,,,,,,,,,,,,,,,,,,,,13,C,2024-04-22_11h17.54.969,attentional_competition_task,2022.2.4,143.97645673689073,
positions.xlsx,positions_test.xlsx,positions_test_new.xlsx,stimuli.xlsx,stimuli_new.xlsx,stimuli/Social3.png,stimuli/Social4.png,stimuli/Nonsocial3.png,stimuli/Nonsocial4.png,stimuli/Social1.png,stimuli/Social2.png,stimuli/Nonsocial1.png,stimuli/Nonsocial2.png,,,"(-0.7, -0.5)",cs_pos_s,"(-0.7, 0.5)",cs_neg_ns_new,"(0.7, -0.5)",cs_pos_ns,"(0.7, 0.5)",cs_neg_s,0,0,0,0,,,,,,,,,,,,,,,,,,,,,,,,,,,,,0,8,8,21,0,0,0,0,,,,,,,,,,,,,,,534,reward,,,,,,1340.536711399909,1340.536711399909,1340.536711399909,1340.536711399909,1,0.710516800172627,0.7105205003172159,0,,,0,,,0,,,1341.2519187997095,1341.2519187997095,1341.2519187997095,1341.2519187997095,13,C,2024-04-22_11h17.54.969,attentional_competition_task,2022.2.4,143.97645673689073,
positions.xlsx,positions_test.xlsx,positions_test_new.xlsx,stimuli.xlsx,stimuli_new.xlsx,stimuli/Social3.png,stimuli/Social4.png,stimuli/Nonsocial3.png,stimuli/Nonsocial4.png,stimuli/Social1.png,stimuli/Social2.png,stimuli/Nonsocial1.png,stimuli/Nonsocial2.png,,,"(-0.7, -0.5)",cs_pos_s,"(-0.7, 0.5)",cs_neg_ns_new,"(0.7, -0.5)",cs_pos_ns,"(0.7, 0.5)",cs_neg_s,0,0,0,0,,,,,,,,,,,,,,,,,,,,,,,,,,,,,0,8,8,21,1,0,1,0,,,,,,,,,,,,,,,537,reward,,,,,,1341.7588535998948,1341.7588535998948,1341.7588535998948,1341.7588535998948,0,,,0,,,1,0.058854099828749895,0.058857900090515614,0,,,1341.8143850998022,1341.8143850998022,1341.8143850998022,1341.8143850998022,13,C,2024-04-22_11h17.54.969,attentional_competition_task,2022.2.4,143.97645673689073,
positions.xlsx,positions_test.xlsx,positions_test_new.xlsx,stimuli.xlsx,stimuli_new.xlsx,stimuli/Social3.png,stimuli/Social4.png,stimuli/Nonsocial3.png,stimuli/Nonsocial4.png,stimuli/Social1.png,stimuli/Social2.png,stimuli/Nonsocial1.png,stimuli/Nonsocial2.png,,,"(-0.7, -0.5)",cs_pos_s,"(-0.7, 0.5)",cs_neg_ns_new,"(0.7, -0.5)",cs_pos_ns,"(0.7, 0.5)",cs_neg_s,0,0,0,0,,,,,,,,,,,,,,,,,,,,,,,,,,,,,0,8,8,21,2,0,2,0,,,,,,,,,,,,,,,540,reward,,,,,,1342.3143736999482,1342.3143736999482,1342.3143736999482,1342.3143736999482,0,,,0,,,0,,,0,,,1343.0573920998722,1343.0573920998722,1343.0573920998722,1343.0573920998722,13,C,2024-04-22_11h17.54.969,attentional_competition_task,2022.2.4,143.97645673689073,
positions.xlsx,positions_test.xlsx,positions_test_new.xlsx,stimuli.xlsx,stimuli_new.xlsx,stimuli/Social3.png,stimuli/Social4.png,stimuli/Nonsocial3.png,stimuli/Nonsocial4.png,stimuli/Social1.png,stimuli/Social2.png,stimuli/Nonsocial1.png,stimuli/Nonsocial2.png,,,"(-0.7, -0.5)",cs_pos_s,"(-0.7, 0.5)",cs_neg_ns_new,"(0.7, -0.5)",cs_pos_ns,"(0.7, 0.5)",cs_neg_s,0,0,0,0,,,,,,,,,,,,,,,,,,,,,,,,,,,,,0,8,8,21,,,,,,,,,,,,,,,,,,,,,,,,,,,,,,,,,,,,,,,,,,,,,,13,C,2024-04-22_11h17.54.969,attentional_competition_task,2022.2.4,143.97645673689073,
