posFile,posFileTest,posFileTestNew,stimFile,stimFileNew,cs_neg_s,cs_pos_s,cs_neg_ns,cs_pos_ns,cs_neg_s_new,cs_pos_s_new,cs_neg_ns_new,cs_pos_ns_new,stim,position,position1,stim1,position2,stim2,position3,stim3,position4,stim4,blocks.thisRepN,blocks.thisTrialN,blocks.thisN,blocks.thisIndex,ratingtrials1.thisRepN,ratingtrials1.thisTrialN,ratingtrials1.thisN,ratingtrials1.thisIndex,search_task_trials.thisRepN,search_task_trials.thisTrialN,search_task_trials.thisN,search_task_trials.thisIndex,learning_trials.thisRepN,learning_trials.thisTrialN,learning_trials.thisN,learning_trials.thisIndex,trials.thisRepN,trials.thisTrialN,trials.thisN,trials.thisIndex,ratingtrials2.thisRepN,ratingtrials2.thisTrialN,ratingtrials2.thisN,ratingtrials2.thisIndex,testtrials.thisRepN,testtrials.thisTrialN,testtrials.thisN,testtrials.thisIndex,loop_test.thisRepN,loop_test.thisTrialN,loop_test.thisN,loop_test.thisIndex,testtrials_novelty.thisRepN,testtrials_novelty.thisTrialN,testtrials_novelty.thisN,testtrials_novelty.thisIndex,loop_test_novelty.thisRepN,loop_test_novelty.thisTrialN,loop_test_novelty.thisN,loop_test_novelty.thisIndex,ratingtrials3.thisRepN,ratingtrials3.thisTrialN,ratingtrials3.thisN,ratingtrials3.thisIndex,textStart.started,textStartExp.started,imageRating.started,sliderStim.response,sliderStim.rt,textStartSearch.started,target_positions,distractor_positions,textStartTask.started,image.started,score,outcome,roi.numLooks,roi.timesOn,roi.timesOff,imageFeedback.started,textTestInstr.started,test_image1.started,test_image2.started,test_image3.started,test_image4.started,test_roi1.numLooks,test_roi1.timesOn,test_roi1.timesOff,test_roi2.numLooks,test_roi2.timesOn,test_roi2.timesOff,test_roi3.numLooks,test_roi3.timesOn,test_roi3.timesOff,test_roi4.numLooks,test_roi4.timesOn,test_roi4.timesOff,test_image_feedback1.started,test_image_feedback2.started,test_iamge_feedback3.started,test_iamge_feedback4.started,participant,group,date,expName,psychopyVersion,frameRate,
positions.xlsx,positions_test.xlsx,positions_test_new.xlsx,stimuli.xlsx,stimuli_new.xlsx,stimuli/Social2.png,stimuli/Social1.png,stimuli/Nonsocial2.png,stimuli/Nonsocial1.png,stimuli/Social4.png,stimuli/Social3.png,stimuli/Nonsocial4.png,stimuli/Nonsocial3.png,cs_pos_ns,,,,,,,,,,0,0,0,0,0,0,0,3,,,,,,,,,,,,,,,,,,,,,,,,,,,,,,,,,,,,,10.57303050000337,117.24876919999951,133.56018010000116,9.0,8.645469700000831,,,,,,,,,,,,,,,,,,,,,,,,,,,,,,,,,26,B,2024-05-01_11h26.48.986,attentional_competition_task,2022.2.4,143.98516375297655,
positions.xlsx,positions_test.xlsx,positions_test_new.xlsx,stimuli.xlsx,stimuli_new.xlsx,stimuli/Social2.png,stimuli/Social1.png,stimuli/Nonsocial2.png,stimuli/Nonsocial1.png,stimuli/Social4.png,stimuli/Social3.png,stimuli/Nonsocial4.png,stimuli/Nonsocial3.png,cs_neg_ns,,,,,,,,,,0,0,0,0,0,1,1,1,,,,,,,,,,,,,,,,,,,,,,,,,,,,,,,,,,,,,,,144.30970450000314,9.0,3.1752034000091953,,,,,,,,,,,,,,,,,,,,,,,,,,,,,,,,,26,B,2024-05-01_11h26.48.986,attentional_competition_task,2022.2.4,143.98516375297655,
positions.xlsx,positions_test.xlsx,positions_test_new.xlsx,stimuli.xlsx,stimuli_new.xlsx,stimuli/Social2.png,stimuli/Social1.png,stimuli/Nonsocial2.png,stimuli/Nonsocial1.png,stimuli/Social4.png,stimuli/Social3.png,stimuli/Nonsocial4.png,stimuli/Nonsocial3.png,cs_pos_s,,,,,,,,,,0,0,0,0,0,2,2,2,,,,,,,,,,,,,,,,,,,,,,,,,,,,,,,,,,,,,,,148.4554083999974,9.0,3.8145259999873815,,,,,,,,,,,,,,,,,,,,,,,,,,,,,,,,,26,B,2024-05-01_11h26.48.986,attentional_competition_task,2022.2.4,143.98516375297655,
positions.xlsx,positions_test.xlsx,positions_test_new.xlsx,stimuli.xlsx,stimuli_new.xlsx,stimuli/Social2.png,stimuli/Social1.png,stimuli/Nonsocial2.png,stimuli/Nonsocial1.png,stimuli/Social4.png,stimuli/Social3.png,stimuli/Nonsocial4.png,stimuli/Nonsocial3.png,cs_neg_s,,,,,,,,,,0,0,0,0,0,3,3,0,,,,,,,,,,,,,,,,,,,,,,,,,,,,,,,,,,,,,,,152.85802980000153,9.0,2.7309328999981517,,,,,,,,,,,,,,,,,,,,,,,,,,,,,,,,,26,B,2024-05-01_11h26.48.986,attentional_competition_task,2022.2.4,143.98516375297655,
positions.xlsx,positions_test.xlsx,positions_test_new.xlsx,stimuli.xlsx,stimuli_new.xlsx,stimuli/Social2.png,stimuli/Social1.png,stimuli/Nonsocial2.png,stimuli/Nonsocial1.png,stimuli/Social4.png,stimuli/Social3.png,stimuli/Nonsocial4.png,stimuli/Nonsocial3.png,,,,,,,,,,,0,0,0,0,,,,,0,0,0,0,,,,,,,,,,,,,,,,,,,,,,,,,,,,,,,,,,,,,,156.4134095000045,"[[0.9, -0.8], [-0.22499999999999998, 0.7], [-0.675, -0.8], [-0.675, -0.30000000000000004], [-0.22499999999999998, 0.19999999999999996], [0.9, -0.30000000000000004], [-0.22499999999999998, -0.30000000000000004], [-0.9, -0.8], [0.0, 0.7], [0.0, 0.19999999999999996], [-0.45, -0.30000000000000004], [-0.9, 0.19999999999999996], [0.0, -0.8], [0.22499999999999998, -0.30000000000000004], [0.6749999999999999, 0.7]]","[[0.22499999999999998, 0.19999999999999996], [0.6749999999999999, -0.30000000000000004], [0.0, -0.30000000000000004], [-0.45, 0.19999999999999996], [-0.22499999999999998, -0.8], [-0.45, -0.8], [-0.675, 0.7], [0.45000000000000007, 0.7], [-0.9, 0.7], [0.45000000000000007, 0.19999999999999996], [-0.675, 0.19999999999999996], [0.22499999999999998, 0.7], [0.45000000000000007, -0.30000000000000004], [-0.45, 0.7], [0.22499999999999998, -0.8]]",,,,,,,,,,,,,,,,,,,,,,,,,,,,,,26,B,2024-05-01_11h26.48.986,attentional_competition_task,2022.2.4,143.98516375297655,
positions.xlsx,positions_test.xlsx,positions_test_new.xlsx,stimuli.xlsx,stimuli_new.xlsx,stimuli/Social2.png,stimuli/Social1.png,stimuli/Nonsocial2.png,stimuli/Nonsocial1.png,stimuli/Social4.png,stimuli/Social3.png,stimuli/Nonsocial4.png,stimuli/Nonsocial3.png,,,,,,,,,,,0,0,0,0,,,,,1,0,1,0,,,,,,,,,,,,,,,,,,,,,,,,,,,,,,,,,,,,,,,"[[-0.9, -0.30000000000000004], [-0.45, 0.7], [-0.9, 0.7], [-0.675, 0.7], [0.0, 0.7], [-0.45, 0.19999999999999996], [0.0, -0.30000000000000004], [0.22499999999999998, 0.19999999999999996], [-0.22499999999999998, -0.8], [0.45000000000000007, 0.19999999999999996], [0.0, -0.8], [0.9, -0.8], [0.9, 0.19999999999999996], [-0.22499999999999998, -0.30000000000000004], [0.9, 0.7]]","[[-0.675, -0.8], [-0.22499999999999998, 0.19999999999999996], [0.22499999999999998, 0.7], [0.0, 0.19999999999999996], [-0.675, 0.19999999999999996], [0.45000000000000007, 0.7], [0.22499999999999998, -0.8], [0.22499999999999998, -0.30000000000000004], [-0.9, 0.19999999999999996], [-0.45, -0.8], [0.45000000000000007, -0.8], [0.6749999999999999, -0.30000000000000004], [0.6749999999999999, 0.19999999999999996], [-0.22499999999999998, 0.7], [-0.675, -0.30000000000000004]]",,,,,,,,,,,,,,,,,,,,,,,,,,,,,,26,B,2024-05-01_11h26.48.986,attentional_competition_task,2022.2.4,143.98516375297655,
positions.xlsx,positions_test.xlsx,positions_test_new.xlsx,stimuli.xlsx,stimuli_new.xlsx,stimuli/Social2.png,stimuli/Social1.png,stimuli/Nonsocial2.png,stimuli/Nonsocial1.png,stimuli/Social4.png,stimuli/Social3.png,stimuli/Nonsocial4.png,stimuli/Nonsocial3.png,cs_pos_s,"(-0.7, -0.5)",,,,,,,,,0,0,0,0,,,,,,,,,0,0,0,5,,,,,,,,,,,,,,,,,,,,,,,,,,,,,,,,,,,,,249.20136189999175,272.19342979999783,3,reward,1,0.4240313000045717,0.42403500000364147,272.63091550000536,,,,,,,,,,,,,,,,,,,,,,26,B,2024-05-01_11h26.48.986,attentional_competition_task,2022.2.4,143.98516375297655,
positions.xlsx,positions_test.xlsx,positions_test_new.xlsx,stimuli.xlsx,stimuli_new.xlsx,stimuli/Social2.png,stimuli/Social1.png,stimuli/Nonsocial2.png,stimuli/Nonsocial1.png,stimuli/Social4.png,stimuli/Social3.png,stimuli/Nonsocial4.png,stimuli/Nonsocial3.png,cs_neg_ns,"(0.7, -0.5)",,,,,,,,,0,0,0,0,,,,,,,,,0,1,1,11,,,,,,,,,,,,,,,,,,,,,,,,,,,,,,,,,,,,,,280.9708385999984,0,loss,1,0.3200100999965798,0.3200141999986954,281.30420450000383,,,,,,,,,,,,,,,,,,,,,,26,B,2024-05-01_11h26.48.986,attentional_competition_task,2022.2.4,143.98516375297655,
positions.xlsx,positions_test.xlsx,positions_test_new.xlsx,stimuli.xlsx,stimuli_new.xlsx,stimuli/Social2.png,stimuli/Social1.png,stimuli/Nonsocial2.png,stimuli/Nonsocial1.png,stimuli/Social4.png,stimuli/Social3.png,stimuli/Nonsocial4.png,stimuli/Nonsocial3.png,cs_neg_ns,"(-0.7, -0.5)",,,,,,,,,0,0,0,0,,,,,,,,,0,2,2,9,,,,,,,,,,,,,,,,,,,,,,,,,,,,,,,,,,,,,,289.4496771999984,-3,loss,1,0.500219499997911,0.5075727999937953,289.9635580000031,,,,,,,,,,,,,,,,,,,,,,26,B,2024-05-01_11h26.48.986,attentional_competition_task,2022.2.4,143.98516375297655,
positions.xlsx,positions_test.xlsx,positions_test_new.xlsx,stimuli.xlsx,stimuli_new.xlsx,stimuli/Social2.png,stimuli/Social1.png,stimuli/Nonsocial2.png,stimuli/Nonsocial1.png,stimuli/Social4.png,stimuli/Social3.png,stimuli/Nonsocial4.png,stimuli/Nonsocial3.png,cs_pos_s,"(0.7, 0.5)",,,,,,,,,0,0,0,0,,,,,,,,,0,3,3,6,,,,,,,,,,,,,,,,,,,,,,,,,,,,,,,,,,,,,,297.9215533999959,0,reward,1,0.4654081999906339,0.4654119999904651,298.3937736999942,,,,,,,,,,,,,,,,,,,,,,26,B,2024-05-01_11h26.48.986,attentional_competition_task,2022.2.4,143.98516375297655,
positions.xlsx,positions_test.xlsx,positions_test_new.xlsx,stimuli.xlsx,stimuli_new.xlsx,stimuli/Social2.png,stimuli/Social1.png,stimuli/Nonsocial2.png,stimuli/Nonsocial1.png,stimuli/Social4.png,stimuli/Social3.png,stimuli/Nonsocial4.png,stimuli/Nonsocial3.png,cs_pos_ns,"(0.7, -0.5)",,,,,,,,,0,0,0,0,,,,,,,,,0,4,4,15,,,,,,,,,,,,,,,,,,,,,,,,,,,,,,,,,,,,,,306.46285969999735,3,reward,1,0.507215499994345,0.5072192999941763,306.97675499999605,,,,,,,,,,,,,,,,,,,,,,26,B,2024-05-01_11h26.48.986,attentional_competition_task,2022.2.4,143.98516375297655,
positions.xlsx,positions_test.xlsx,positions_test_new.xlsx,stimuli.xlsx,stimuli_new.xlsx,stimuli/Social2.png,stimuli/Social1.png,stimuli/Nonsocial2.png,stimuli/Nonsocial1.png,stimuli/Social4.png,stimuli/Social3.png,stimuli/Nonsocial4.png,stimuli/Nonsocial3.png,cs_neg_ns,"(0.7, 0.5)",,,,,,,,,0,0,0,0,,,,,,,,,0,5,5,10,,,,,,,,,,,,,,,,,,,,,,,,,,,,,,,,,,,,,,315.11533600000257,0,loss,1,0.24378900000010617,0.2437932000029832,315.37229050000315,,,,,,,,,,,,,,,,,,,,,,26,B,2024-05-01_11h26.48.986,attentional_competition_task,2022.2.4,143.98516375297655,
positions.xlsx,positions_test.xlsx,positions_test_new.xlsx,stimuli.xlsx,stimuli_new.xlsx,stimuli/Social2.png,stimuli/Social1.png,stimuli/Nonsocial2.png,stimuli/Nonsocial1.png,stimuli/Social4.png,stimuli/Social3.png,stimuli/Nonsocial4.png,stimuli/Nonsocial3.png,cs_pos_s,"(-0.7, 0.5)",,,,,,,,,0,0,0,0,,,,,,,,,0,6,6,4,,,,,,,,,,,,,,,,,,,,,,,,,,,,,,,,,,,,,,322.3163899999927,3,reward,1,0.5141810000059195,0.5141851000080351,322.8372284999932,,,,,,,,,,,,,,,,,,,,,,26,B,2024-05-01_11h26.48.986,attentional_competition_task,2022.2.4,143.98516375297655,
positions.xlsx,positions_test.xlsx,positions_test_new.xlsx,stimuli.xlsx,stimuli_new.xlsx,stimuli/Social2.png,stimuli/Social1.png,stimuli/Nonsocial2.png,stimuli/Nonsocial1.png,stimuli/Social4.png,stimuli/Social3.png,stimuli/Nonsocial4.png,stimuli/Nonsocial3.png,cs_neg_s,"(0.7, -0.5)",,,,,,,,,0,0,0,0,,,,,,,,,0,7,7,3,,,,,,,,,,,,,,,,,,,,,,,,,,,,,,,,,,,,,,329.98972949999734,0,loss,1,0.9791898999974364,0.9791935999965062,330.97578039999644,,,,,,,,,,,,,,,,,,,,,,26,B,2024-05-01_11h26.48.986,attentional_competition_task,2022.2.4,143.98516375297655,
positions.xlsx,positions_test.xlsx,positions_test_new.xlsx,stimuli.xlsx,stimuli_new.xlsx,stimuli/Social2.png,stimuli/Social1.png,stimuli/Nonsocial2.png,stimuli/Nonsocial1.png,stimuli/Social4.png,stimuli/Social3.png,stimuli/Nonsocial4.png,stimuli/Nonsocial3.png,cs_pos_s,"(0.7, -0.5)",,,,,,,,,0,0,0,0,,,,,,,,,0,8,8,7,,,,,,,,,,,,,,,,,,,,,,,,,,,,,,,,,,,,,,339.1907105999999,3,reward,1,0.5765497999964282,0.5765532999939751,339.77402159999474,,,,,,,,,,,,,,,,,,,,,,26,B,2024-05-01_11h26.48.986,attentional_competition_task,2022.2.4,143.98516375297655,
positions.xlsx,positions_test.xlsx,positions_test_new.xlsx,stimuli.xlsx,stimuli_new.xlsx,stimuli/Social2.png,stimuli/Social1.png,stimuli/Nonsocial2.png,stimuli/Nonsocial1.png,stimuli/Social4.png,stimuli/Social3.png,stimuli/Nonsocial4.png,stimuli/Nonsocial3.png,cs_pos_ns,"(0.7, 0.5)",,,,,,,,,0,0,0,0,,,,,,,,,0,9,9,14,,,,,,,,,,,,,,,,,,,,,,,,,,,,,,,,,,,,,,348.2112403999927,6,reward,1,0.5417507000092883,0.5417547999968519,348.7598277999932,,,,,,,,,,,,,,,,,,,,,,26,B,2024-05-01_11h26.48.986,attentional_competition_task,2022.2.4,143.98516375297655,
positions.xlsx,positions_test.xlsx,positions_test_new.xlsx,stimuli.xlsx,stimuli_new.xlsx,stimuli/Social2.png,stimuli/Social1.png,stimuli/Nonsocial2.png,stimuli/Nonsocial1.png,stimuli/Social4.png,stimuli/Social3.png,stimuli/Nonsocial4.png,stimuli/Nonsocial3.png,cs_neg_s,"(-0.7, -0.5)",,,,,,,,,0,0,0,0,,,,,,,,,0,10,10,1,,,,,,,,,,,,,,,,,,,,,,,,,,,,,,,,,,,,,,356.1900673999917,6,none,0,,,359.2038407999935,,,,,,,,,,,,,,,,,,,,,,26,B,2024-05-01_11h26.48.986,attentional_competition_task,2022.2.4,143.98516375297655,
positions.xlsx,positions_test.xlsx,positions_test_new.xlsx,stimuli.xlsx,stimuli_new.xlsx,stimuli/Social2.png,stimuli/Social1.png,stimuli/Nonsocial2.png,stimuli/Nonsocial1.png,stimuli/Social4.png,stimuli/Social3.png,stimuli/Nonsocial4.png,stimuli/Nonsocial3.png,cs_neg_ns,"(-0.7, 0.5)",,,,,,,,,0,0,0,0,,,,,,,,,0,11,11,8,,,,,,,,,,,,,,,,,,,,,,,,,,,,,,,,,,,,,,366.10633660000167,3,loss,1,1.416541699989466,1.4165453999885358,367.5298480999918,,,,,,,,,,,,,,,,,,,,,,26,B,2024-05-01_11h26.48.986,attentional_competition_task,2022.2.4,143.98516375297655,
positions.xlsx,positions_test.xlsx,positions_test_new.xlsx,stimuli.xlsx,stimuli_new.xlsx,stimuli/Social2.png,stimuli/Social1.png,stimuli/Nonsocial2.png,stimuli/Nonsocial1.png,stimuli/Social4.png,stimuli/Social3.png,stimuli/Nonsocial4.png,stimuli/Nonsocial3.png,cs_pos_ns,"(-0.7, -0.5)",,,,,,,,,0,0,0,0,,,,,,,,,0,12,12,13,,,,,,,,,,,,,,,,,,,,,,,,,,,,,,,,,,,,,,375.55040890000237,6,reward,1,0.5626660999987507,0.5626696999970591,376.119807199997,,,,,,,,,,,,,,,,,,,,,,26,B,2024-05-01_11h26.48.986,attentional_competition_task,2022.2.4,143.98516375297655,
positions.xlsx,positions_test.xlsx,positions_test_new.xlsx,stimuli.xlsx,stimuli_new.xlsx,stimuli/Social2.png,stimuli/Social1.png,stimuli/Nonsocial2.png,stimuli/Nonsocial1.png,stimuli/Social4.png,stimuli/Social3.png,stimuli/Nonsocial4.png,stimuli/Nonsocial3.png,cs_neg_s,"(-0.7, 0.5)",,,,,,,,,0,0,0,0,,,,,,,,,0,13,13,0,,,,,,,,,,,,,,,,,,,,,,,,,,,,,,,,,,,,,,384.4666556000011,6,none,0,,,387.47355690000404,,,,,,,,,,,,,,,,,,,,,,26,B,2024-05-01_11h26.48.986,attentional_competition_task,2022.2.4,143.98516375297655,
positions.xlsx,positions_test.xlsx,positions_test_new.xlsx,stimuli.xlsx,stimuli_new.xlsx,stimuli/Social2.png,stimuli/Social1.png,stimuli/Nonsocial2.png,stimuli/Nonsocial1.png,stimuli/Social4.png,stimuli/Social3.png,stimuli/Nonsocial4.png,stimuli/Nonsocial3.png,cs_neg_s,"(0.7, 0.5)",,,,,,,,,0,0,0,0,,,,,,,,,0,14,14,2,,,,,,,,,,,,,,,,,,,,,,,,,,,,,,,,,,,,,,395.31347700000333,6,none,0,,,398.32028790000186,,,,,,,,,,,,,,,,,,,,,,26,B,2024-05-01_11h26.48.986,attentional_competition_task,2022.2.4,143.98516375297655,
positions.xlsx,positions_test.xlsx,positions_test_new.xlsx,stimuli.xlsx,stimuli_new.xlsx,stimuli/Social2.png,stimuli/Social1.png,stimuli/Nonsocial2.png,stimuli/Nonsocial1.png,stimuli/Social4.png,stimuli/Social3.png,stimuli/Nonsocial4.png,stimuli/Nonsocial3.png,cs_pos_ns,"(-0.7, 0.5)",,,,,,,,,0,0,0,0,,,,,,,,,0,15,15,12,,,,,,,,,,,,,,,,,,,,,,,,,,,,,,,,,,,,,,406.75743630000215,9,reward,1,0.9930944999941858,0.993098299994017,407.75744109999505,,,,,,,,,,,,,,,,,,,,,,26,B,2024-05-01_11h26.48.986,attentional_competition_task,2022.2.4,143.98516375297655,
positions.xlsx,positions_test.xlsx,positions_test_new.xlsx,stimuli.xlsx,stimuli_new.xlsx,stimuli/Social2.png,stimuli/Social1.png,stimuli/Nonsocial2.png,stimuli/Nonsocial1.png,stimuli/Social4.png,stimuli/Social3.png,stimuli/Nonsocial4.png,stimuli/Nonsocial3.png,cs_neg_ns,"(0.7, 0.5)",,,,,,,,,0,0,0,0,,,,,,,,,1,0,16,10,,,,,,,,,,,,,,,,,,,,,,,,,,,,,,,,,,,,,,414.75021800000104,9,none,0,,,417.7639655999956,,,,,,,,,,,,,,,,,,,,,,26,B,2024-05-01_11h26.48.986,attentional_competition_task,2022.2.4,143.98516375297655,
positions.xlsx,positions_test.xlsx,positions_test_new.xlsx,stimuli.xlsx,stimuli_new.xlsx,stimuli/Social2.png,stimuli/Social1.png,stimuli/Nonsocial2.png,stimuli/Nonsocial1.png,stimuli/Social4.png,stimuli/Social3.png,stimuli/Nonsocial4.png,stimuli/Nonsocial3.png,cs_pos_s,"(-0.7, 0.5)",,,,,,,,,0,0,0,0,,,,,,,,,1,1,17,4,,,,,,,,,,,,,,,,,,,,,,,,,,,,,,,,,,,,,,425.874714199992,12,reward,1,0.4374253999994835,0.43742899999779183,426.31914510000206,,,,,,,,,,,,,,,,,,,,,,26,B,2024-05-01_11h26.48.986,attentional_competition_task,2022.2.4,143.98516375297655,
positions.xlsx,positions_test.xlsx,positions_test_new.xlsx,stimuli.xlsx,stimuli_new.xlsx,stimuli/Social2.png,stimuli/Social1.png,stimuli/Nonsocial2.png,stimuli/Nonsocial1.png,stimuli/Social4.png,stimuli/Social3.png,stimuli/Nonsocial4.png,stimuli/Nonsocial3.png,cs_neg_s,"(0.7, 0.5)",,,,,,,,,0,0,0,0,,,,,,,,,1,2,18,2,,,,,,,,,,,,,,,,,,,,,,,,,,,,,,,,,,,,,,434.20772950000537,12,none,0,,,437.2145310000051,,,,,,,,,,,,,,,,,,,,,,26,B,2024-05-01_11h26.48.986,attentional_competition_task,2022.2.4,143.98516375297655,
positions.xlsx,positions_test.xlsx,positions_test_new.xlsx,stimuli.xlsx,stimuli_new.xlsx,stimuli/Social2.png,stimuli/Social1.png,stimuli/Nonsocial2.png,stimuli/Nonsocial1.png,stimuli/Social4.png,stimuli/Social3.png,stimuli/Nonsocial4.png,stimuli/Nonsocial3.png,cs_neg_s,"(0.7, -0.5)",,,,,,,,,0,0,0,0,,,,,,,,,1,3,19,3,,,,,,,,,,,,,,,,,,,,,,,,,,,,,,,,,,,,,,444.33927949999634,12,none,0,,,447.34613119999995,,,,,,,,,,,,,,,,,,,,,,26,B,2024-05-01_11h26.48.986,attentional_competition_task,2022.2.4,143.98516375297655,
positions.xlsx,positions_test.xlsx,positions_test_new.xlsx,stimuli.xlsx,stimuli_new.xlsx,stimuli/Social2.png,stimuli/Social1.png,stimuli/Nonsocial2.png,stimuli/Nonsocial1.png,stimuli/Social4.png,stimuli/Social3.png,stimuli/Nonsocial4.png,stimuli/Nonsocial3.png,cs_pos_ns,"(0.7, 0.5)",,,,,,,,,0,0,0,0,,,,,,,,,1,4,20,14,,,,,,,,,,,,,,,,,,,,,,,,,,,,,,,,,,,,,,455.06106579999323,15,reward,1,1.1182532999955583,1.1182572999969125,456.18603939999593,,,,,,,,,,,,,,,,,,,,,,26,B,2024-05-01_11h26.48.986,attentional_competition_task,2022.2.4,143.98516375297655,
positions.xlsx,positions_test.xlsx,positions_test_new.xlsx,stimuli.xlsx,stimuli_new.xlsx,stimuli/Social2.png,stimuli/Social1.png,stimuli/Nonsocial2.png,stimuli/Nonsocial1.png,stimuli/Social4.png,stimuli/Social3.png,stimuli/Nonsocial4.png,stimuli/Nonsocial3.png,cs_neg_ns,"(-0.7, 0.5)",,,,,,,,,0,0,0,0,,,,,,,,,1,5,21,8,,,,,,,,,,,,,,,,,,,,,,,,,,,,,,,,,,,,,,463.83846800000174,15,none,0,,,466.8522459999949,,,,,,,,,,,,,,,,,,,,,,26,B,2024-05-01_11h26.48.986,attentional_competition_task,2022.2.4,143.98516375297655,
positions.xlsx,positions_test.xlsx,positions_test_new.xlsx,stimuli.xlsx,stimuli_new.xlsx,stimuli/Social2.png,stimuli/Social1.png,stimuli/Nonsocial2.png,stimuli/Nonsocial1.png,stimuli/Social4.png,stimuli/Social3.png,stimuli/Nonsocial4.png,stimuli/Nonsocial3.png,cs_pos_ns,"(-0.7, 0.5)",,,,,,,,,0,0,0,0,,,,,,,,,1,6,22,12,,,,,,,,,,,,,,,,,,,,,,,,,,,,,,,,,,,,,,474.2130981999944,18,reward,1,0.8478318999987096,0.8478360000008252,475.0741726999986,,,,,,,,,,,,,,,,,,,,,,26,B,2024-05-01_11h26.48.986,attentional_competition_task,2022.2.4,143.98516375297655,
positions.xlsx,positions_test.xlsx,positions_test_new.xlsx,stimuli.xlsx,stimuli_new.xlsx,stimuli/Social2.png,stimuli/Social1.png,stimuli/Nonsocial2.png,stimuli/Nonsocial1.png,stimuli/Social4.png,stimuli/Social3.png,stimuli/Nonsocial4.png,stimuli/Nonsocial3.png,cs_pos_ns,"(0.7, -0.5)",,,,,,,,,0,0,0,0,,,,,,,,,1,7,23,15,,,,,,,,,,,,,,,,,,,,,,,,,,,,,,,,,,,,,,482.8863846000022,21,reward,1,0.7293080000090413,0.7293120000103954,483.62240579999343,,,,,,,,,,,,,,,,,,,,,,26,B,2024-05-01_11h26.48.986,attentional_competition_task,2022.2.4,143.98516375297655,
positions.xlsx,positions_test.xlsx,positions_test_new.xlsx,stimuli.xlsx,stimuli_new.xlsx,stimuli/Social2.png,stimuli/Social1.png,stimuli/Nonsocial2.png,stimuli/Nonsocial1.png,stimuli/Social4.png,stimuli/Social3.png,stimuli/Nonsocial4.png,stimuli/Nonsocial3.png,cs_pos_s,"(-0.7, -0.5)",,,,,,,,,0,0,0,0,,,,,,,,,1,8,24,5,,,,,,,,,,,,,,,,,,,,,,,,,,,,,,,,,,,,,,490.6707289000042,24,reward,1,0.5213025999983074,0.5283349999954225,491.2054807999957,,,,,,,,,,,,,,,,,,,,,,26,B,2024-05-01_11h26.48.986,attentional_competition_task,2022.2.4,143.98516375297655,
positions.xlsx,positions_test.xlsx,positions_test_new.xlsx,stimuli.xlsx,stimuli_new.xlsx,stimuli/Social2.png,stimuli/Social1.png,stimuli/Nonsocial2.png,stimuli/Nonsocial1.png,stimuli/Social4.png,stimuli/Social3.png,stimuli/Nonsocial4.png,stimuli/Nonsocial3.png,cs_neg_s,"(-0.7, -0.5)",,,,,,,,,0,0,0,0,,,,,,,,,1,9,25,1,,,,,,,,,,,,,,,,,,,,,,,,,,,,,,,,,,,,,,499.01760930000455,21,loss,1,1.132116799999494,1.132120499998564,500.15652200000477,,,,,,,,,,,,,,,,,,,,,,26,B,2024-05-01_11h26.48.986,attentional_competition_task,2022.2.4,143.98516375297655,
positions.xlsx,positions_test.xlsx,positions_test_new.xlsx,stimuli.xlsx,stimuli_new.xlsx,stimuli/Social2.png,stimuli/Social1.png,stimuli/Nonsocial2.png,stimuli/Nonsocial1.png,stimuli/Social4.png,stimuli/Social3.png,stimuli/Nonsocial4.png,stimuli/Nonsocial3.png,cs_neg_s,"(-0.7, 0.5)",,,,,,,,,0,0,0,0,,,,,,,,,1,10,26,0,,,,,,,,,,,,,,,,,,,,,,,,,,,,,,,,,,,,,,507.8575587999949,21,none,0,,,510.87132009999186,,,,,,,,,,,,,,,,,,,,,,26,B,2024-05-01_11h26.48.986,attentional_competition_task,2022.2.4,143.98516375297655,
positions.xlsx,positions_test.xlsx,positions_test_new.xlsx,stimuli.xlsx,stimuli_new.xlsx,stimuli/Social2.png,stimuli/Social1.png,stimuli/Nonsocial2.png,stimuli/Nonsocial1.png,stimuli/Social4.png,stimuli/Social3.png,stimuli/Nonsocial4.png,stimuli/Nonsocial3.png,cs_pos_ns,"(-0.7, -0.5)",,,,,,,,,0,0,0,0,,,,,,,,,1,11,27,13,,,,,,,,,,,,,,,,,,,,,,,,,,,,,,,,,,,,,,517.9821377000044,24,reward,1,0.5627970000059577,0.5628011000080733,518.5515951999987,,,,,,,,,,,,,,,,,,,,,,26,B,2024-05-01_11h26.48.986,attentional_competition_task,2022.2.4,143.98516375297655,
positions.xlsx,positions_test.xlsx,positions_test_new.xlsx,stimuli.xlsx,stimuli_new.xlsx,stimuli/Social2.png,stimuli/Social1.png,stimuli/Nonsocial2.png,stimuli/Nonsocial1.png,stimuli/Social4.png,stimuli/Social3.png,stimuli/Nonsocial4.png,stimuli/Nonsocial3.png,cs_pos_s,"(0.7, 0.5)",,,,,,,,,0,0,0,0,,,,,,,,,1,12,28,6,,,,,,,,,,,,,,,,,,,,,,,,,,,,,,,,,,,,,,525.4263502999966,27,reward,1,0.8128671000013128,0.819870000006631,526.2526695999986,,,,,,,,,,,,,,,,,,,,,,26,B,2024-05-01_11h26.48.986,attentional_competition_task,2022.2.4,143.98516375297655,
positions.xlsx,positions_test.xlsx,positions_test_new.xlsx,stimuli.xlsx,stimuli_new.xlsx,stimuli/Social2.png,stimuli/Social1.png,stimuli/Nonsocial2.png,stimuli/Nonsocial1.png,stimuli/Social4.png,stimuli/Social3.png,stimuli/Nonsocial4.png,stimuli/Nonsocial3.png,cs_neg_ns,"(0.7, -0.5)",,,,,,,,,0,0,0,0,,,,,,,,,1,13,29,11,,,,,,,,,,,,,,,,,,,,,,,,,,,,,,,,,,,,,,533.1760137999954,27,none,0,,,536.1897441000037,,,,,,,,,,,,,,,,,,,,,,26,B,2024-05-01_11h26.48.986,attentional_competition_task,2022.2.4,143.98516375297655,
positions.xlsx,positions_test.xlsx,positions_test_new.xlsx,stimuli.xlsx,stimuli_new.xlsx,stimuli/Social2.png,stimuli/Social1.png,stimuli/Nonsocial2.png,stimuli/Nonsocial1.png,stimuli/Social4.png,stimuli/Social3.png,stimuli/Nonsocial4.png,stimuli/Nonsocial3.png,cs_pos_s,"(0.7, -0.5)",,,,,,,,,0,0,0,0,,,,,,,,,1,14,30,7,,,,,,,,,,,,,,,,,,,,,,,,,,,,,,,,,,,,,,543.3144488999969,30,reward,1,0.5910170999995898,0.5910205999971367,543.911674300005,,,,,,,,,,,,,,,,,,,,,,26,B,2024-05-01_11h26.48.986,attentional_competition_task,2022.2.4,143.98516375297655,
positions.xlsx,positions_test.xlsx,positions_test_new.xlsx,stimuli.xlsx,stimuli_new.xlsx,stimuli/Social2.png,stimuli/Social1.png,stimuli/Nonsocial2.png,stimuli/Nonsocial1.png,stimuli/Social4.png,stimuli/Social3.png,stimuli/Nonsocial4.png,stimuli/Nonsocial3.png,cs_neg_ns,"(-0.7, -0.5)",,,,,,,,,0,0,0,0,,,,,,,,,1,15,31,9,,,,,,,,,,,,,,,,,,,,,,,,,,,,,,,,,,,,,,551.3488664000033,30,none,0,,,554.3626332999993,,,,,,,,,,,,,,,,,,,,,,26,B,2024-05-01_11h26.48.986,attentional_competition_task,2022.2.4,143.98516375297655,
positions.xlsx,positions_test.xlsx,positions_test_new.xlsx,stimuli.xlsx,stimuli_new.xlsx,stimuli/Social2.png,stimuli/Social1.png,stimuli/Nonsocial2.png,stimuli/Nonsocial1.png,stimuli/Social4.png,stimuli/Social3.png,stimuli/Nonsocial4.png,stimuli/Nonsocial3.png,cs_neg_ns,"(-0.7, -0.5)",,,,,,,,,0,0,0,0,,,,,,,,,,,,,0,0,0,9,,,,,,,,,,,,,,,,,,,,,,,,,,,,,,,,,,579.5491285000026,30,none,0,,,582.5628703999973,,,,,,,,,,,,,,,,,,,,,,26,B,2024-05-01_11h26.48.986,attentional_competition_task,2022.2.4,143.98516375297655,
positions.xlsx,positions_test.xlsx,positions_test_new.xlsx,stimuli.xlsx,stimuli_new.xlsx,stimuli/Social2.png,stimuli/Social1.png,stimuli/Nonsocial2.png,stimuli/Nonsocial1.png,stimuli/Social4.png,stimuli/Social3.png,stimuli/Nonsocial4.png,stimuli/Nonsocial3.png,cs_neg_s,"(0.7, 0.5)",,,,,,,,,0,0,0,0,,,,,,,,,,,,,0,1,1,2,,,,,,,,,,,,,,,,,,,,,,,,,,,,,,,,,,590.2848634999973,30,none,0,,,593.2916097999987,,,,,,,,,,,,,,,,,,,,,,26,B,2024-05-01_11h26.48.986,attentional_competition_task,2022.2.4,143.98516375297655,
positions.xlsx,positions_test.xlsx,positions_test_new.xlsx,stimuli.xlsx,stimuli_new.xlsx,stimuli/Social2.png,stimuli/Social1.png,stimuli/Nonsocial2.png,stimuli/Nonsocial1.png,stimuli/Social4.png,stimuli/Social3.png,stimuli/Nonsocial4.png,stimuli/Nonsocial3.png,cs_neg_ns,"(-0.7, 0.5)",,,,,,,,,0,0,0,0,,,,,,,,,,,,,0,2,2,8,,,,,,,,,,,,,,,,,,,,,,,,,,,,,,,,,,600.3052358999994,27,loss,1,0.7081188000011025,0.7081223999994108,601.0274363999924,,,,,,,,,,,,,,,,,,,,,,26,B,2024-05-01_11h26.48.986,attentional_competition_task,2022.2.4,143.98516375297655,
positions.xlsx,positions_test.xlsx,positions_test_new.xlsx,stimuli.xlsx,stimuli_new.xlsx,stimuli/Social2.png,stimuli/Social1.png,stimuli/Nonsocial2.png,stimuli/Nonsocial1.png,stimuli/Social4.png,stimuli/Social3.png,stimuli/Nonsocial4.png,stimuli/Nonsocial3.png,cs_neg_ns,"(0.7, 0.5)",,,,,,,,,0,0,0,0,,,,,,,,,,,,,0,3,3,10,,,,,,,,,,,,,,,,,,,,,,,,,,,,,,,,,,609.2146124999999,27,none,0,,,612.2283381000016,,,,,,,,,,,,,,,,,,,,,,26,B,2024-05-01_11h26.48.986,attentional_competition_task,2022.2.4,143.98516375297655,
positions.xlsx,positions_test.xlsx,positions_test_new.xlsx,stimuli.xlsx,stimuli_new.xlsx,stimuli/Social2.png,stimuli/Social1.png,stimuli/Nonsocial2.png,stimuli/Nonsocial1.png,stimuli/Social4.png,stimuli/Social3.png,stimuli/Nonsocial4.png,stimuli/Nonsocial3.png,cs_pos_ns,"(-0.7, 0.5)",,,,,,,,,0,0,0,0,,,,,,,,,,,,,0,4,4,12,,,,,,,,,,,,,,,,,,,,,,,,,,,,,,,,,,619.0544933000056,30,reward,1,0.6393717000028118,0.6393753000011202,619.7003041999997,,,,,,,,,,,,,,,,,,,,,,26,B,2024-05-01_11h26.48.986,attentional_competition_task,2022.2.4,143.98516375297655,
positions.xlsx,positions_test.xlsx,positions_test_new.xlsx,stimuli.xlsx,stimuli_new.xlsx,stimuli/Social2.png,stimuli/Social1.png,stimuli/Nonsocial2.png,stimuli/Nonsocial1.png,stimuli/Social4.png,stimuli/Social3.png,stimuli/Nonsocial4.png,stimuli/Nonsocial3.png,cs_pos_s,"(-0.7, -0.5)",,,,,,,,,0,0,0,0,,,,,,,,,,,,,0,5,5,5,,,,,,,,,,,,,,,,,,,,,,,,,,,,,,,,,,627.9985489999963,33,reward,1,0.6668360000039684,0.6668403999938164,628.6721794000041,,,,,,,,,,,,,,,,,,,,,,26,B,2024-05-01_11h26.48.986,attentional_competition_task,2022.2.4,143.98516375297655,
positions.xlsx,positions_test.xlsx,positions_test_new.xlsx,stimuli.xlsx,stimuli_new.xlsx,stimuli/Social2.png,stimuli/Social1.png,stimuli/Nonsocial2.png,stimuli/Nonsocial1.png,stimuli/Social4.png,stimuli/Social3.png,stimuli/Nonsocial4.png,stimuli/Nonsocial3.png,cs_pos_ns,"(-0.7, -0.5)",,,,,,,,,0,0,0,0,,,,,,,,,,,,,0,6,6,13,,,,,,,,,,,,,,,,,,,,,,,,,,,,,,,,,,636.1718283999944,36,reward,1,0.4934013000020059,0.4934051000018371,636.671843899996,,,,,,,,,,,,,,,,,,,,,,26,B,2024-05-01_11h26.48.986,attentional_competition_task,2022.2.4,143.98516375297655,
positions.xlsx,positions_test.xlsx,positions_test_new.xlsx,stimuli.xlsx,stimuli_new.xlsx,stimuli/Social2.png,stimuli/Social1.png,stimuli/Nonsocial2.png,stimuli/Nonsocial1.png,stimuli/Social4.png,stimuli/Social3.png,stimuli/Nonsocial4.png,stimuli/Nonsocial3.png,cs_neg_s,"(-0.7, -0.5)",,,,,,,,,0,0,0,0,,,,,,,,,,,,,0,7,7,1,,,,,,,,,,,,,,,,,,,,,,,,,,,,,,,,,,644.9354162999953,36,none,0,,,647.9491640000051,,,,,,,,,,,,,,,,,,,,,,26,B,2024-05-01_11h26.48.986,attentional_competition_task,2022.2.4,143.98516375297655,
positions.xlsx,positions_test.xlsx,positions_test_new.xlsx,stimuli.xlsx,stimuli_new.xlsx,stimuli/Social2.png,stimuli/Social1.png,stimuli/Nonsocial2.png,stimuli/Nonsocial1.png,stimuli/Social4.png,stimuli/Social3.png,stimuli/Nonsocial4.png,stimuli/Nonsocial3.png,cs_pos_ns,"(0.7, -0.5)",,,,,,,,,0,0,0,0,,,,,,,,,,,,,0,8,8,15,,,,,,,,,,,,,,,,,,,,,,,,,,,,,,,,,,655.0669308999932,39,reward,1,0.7084120000072289,0.7084159000078216,655.7821705999959,,,,,,,,,,,,,,,,,,,,,,26,B,2024-05-01_11h26.48.986,attentional_competition_task,2022.2.4,143.98516375297655,
positions.xlsx,positions_test.xlsx,positions_test_new.xlsx,stimuli.xlsx,stimuli_new.xlsx,stimuli/Social2.png,stimuli/Social1.png,stimuli/Nonsocial2.png,stimuli/Nonsocial1.png,stimuli/Social4.png,stimuli/Social3.png,stimuli/Nonsocial4.png,stimuli/Nonsocial3.png,cs_neg_s,"(0.7, -0.5)",,,,,,,,,0,0,0,0,,,,,,,,,,,,,0,9,9,3,,,,,,,,,,,,,,,,,,,,,,,,,,,,,,,,,,663.4832329000055,39,none,0,,,666.4901307999971,,,,,,,,,,,,,,,,,,,,,,26,B,2024-05-01_11h26.48.986,attentional_competition_task,2022.2.4,143.98516375297655,
positions.xlsx,positions_test.xlsx,positions_test_new.xlsx,stimuli.xlsx,stimuli_new.xlsx,stimuli/Social2.png,stimuli/Social1.png,stimuli/Nonsocial2.png,stimuli/Nonsocial1.png,stimuli/Social4.png,stimuli/Social3.png,stimuli/Nonsocial4.png,stimuli/Nonsocial3.png,cs_neg_s,"(-0.7, 0.5)",,,,,,,,,0,0,0,0,,,,,,,,,,,,,0,10,10,0,,,,,,,,,,,,,,,,,,,,,,,,,,,,,,,,,,674.1772611000051,39,none,0,,,677.1840983000002,,,,,,,,,,,,,,,,,,,,,,26,B,2024-05-01_11h26.48.986,attentional_competition_task,2022.2.4,143.98516375297655,
positions.xlsx,positions_test.xlsx,positions_test_new.xlsx,stimuli.xlsx,stimuli_new.xlsx,stimuli/Social2.png,stimuli/Social1.png,stimuli/Nonsocial2.png,stimuli/Nonsocial1.png,stimuli/Social4.png,stimuli/Social3.png,stimuli/Nonsocial4.png,stimuli/Nonsocial3.png,cs_neg_ns,"(0.7, -0.5)",,,,,,,,,0,0,0,0,,,,,,,,,,,,,0,11,11,11,,,,,,,,,,,,,,,,,,,,,,,,,,,,,,,,,,684.9129931999923,39,none,0,,,687.9267203000054,,,,,,,,,,,,,,,,,,,,,,26,B,2024-05-01_11h26.48.986,attentional_competition_task,2022.2.4,143.98516375297655,
positions.xlsx,positions_test.xlsx,positions_test_new.xlsx,stimuli.xlsx,stimuli_new.xlsx,stimuli/Social2.png,stimuli/Social1.png,stimuli/Nonsocial2.png,stimuli/Nonsocial1.png,stimuli/Social4.png,stimuli/Social3.png,stimuli/Nonsocial4.png,stimuli/Nonsocial3.png,cs_pos_s,"(0.7, 0.5)",,,,,,,,,0,0,0,0,,,,,,,,,,,,,0,12,12,6,,,,,,,,,,,,,,,,,,,,,,,,,,,,,,,,,,695.2528266000008,42,reward,1,0.5765855999925407,0.5765894999931334,695.8361210000003,,,,,,,,,,,,,,,,,,,,,,26,B,2024-05-01_11h26.48.986,attentional_competition_task,2022.2.4,143.98516375297655,
positions.xlsx,positions_test.xlsx,positions_test_new.xlsx,stimuli.xlsx,stimuli_new.xlsx,stimuli/Social2.png,stimuli/Social1.png,stimuli/Nonsocial2.png,stimuli/Nonsocial1.png,stimuli/Social4.png,stimuli/Social3.png,stimuli/Nonsocial4.png,stimuli/Nonsocial3.png,cs_pos_s,"(0.7, -0.5)",,,,,,,,,0,0,0,0,,,,,,,,,,,,,0,13,13,7,,,,,,,,,,,,,,,,,,,,,,,,,,,,,,,,,,703.3219307999971,45,reward,1,0.5069204000028549,0.5069241000019247,703.8358417999989,,,,,,,,,,,,,,,,,,,,,,26,B,2024-05-01_11h26.48.986,attentional_competition_task,2022.2.4,143.98516375297655,
positions.xlsx,positions_test.xlsx,positions_test_new.xlsx,stimuli.xlsx,stimuli_new.xlsx,stimuli/Social2.png,stimuli/Social1.png,stimuli/Nonsocial2.png,stimuli/Nonsocial1.png,stimuli/Social4.png,stimuli/Social3.png,stimuli/Nonsocial4.png,stimuli/Nonsocial3.png,cs_pos_s,"(-0.7, 0.5)",,,,,,,,,0,0,0,0,,,,,,,,,,,,,0,14,14,4,,,,,,,,,,,,,,,,,,,,,,,,,,,,,,,,,,711.8007612999936,48,reward,1,0.5140773000021,0.5140807999996468,712.3215908999991,,,,,,,,,,,,,,,,,,,,,,26,B,2024-05-01_11h26.48.986,attentional_competition_task,2022.2.4,143.98516375297655,
positions.xlsx,positions_test.xlsx,positions_test_new.xlsx,stimuli.xlsx,stimuli_new.xlsx,stimuli/Social2.png,stimuli/Social1.png,stimuli/Nonsocial2.png,stimuli/Nonsocial1.png,stimuli/Social4.png,stimuli/Social3.png,stimuli/Nonsocial4.png,stimuli/Nonsocial3.png,cs_pos_ns,"(0.7, 0.5)",,,,,,,,,0,0,0,0,,,,,,,,,,,,,0,15,15,14,,,,,,,,,,,,,,,,,,,,,,,,,,,,,,,,,,719.8698870999942,51,reward,1,0.548933300000499,0.5489371000003302,720.4254039999942,,,,,,,,,,,,,,,,,,,,,,26,B,2024-05-01_11h26.48.986,attentional_competition_task,2022.2.4,143.98516375297655,
positions.xlsx,positions_test.xlsx,positions_test_new.xlsx,stimuli.xlsx,stimuli_new.xlsx,stimuli/Social2.png,stimuli/Social1.png,stimuli/Nonsocial2.png,stimuli/Nonsocial1.png,stimuli/Social4.png,stimuli/Social3.png,stimuli/Nonsocial4.png,stimuli/Nonsocial3.png,cs_neg_ns,"(0.7, -0.5)",,,,,,,,,0,0,0,0,,,,,,,,,,,,,1,0,16,11,,,,,,,,,,,,,,,,,,,,,,,,,,,,,,,,,,728.0362374999968,51,none,0,,,731.0500132000016,,,,,,,,,,,,,,,,,,,,,,26,B,2024-05-01_11h26.48.986,attentional_competition_task,2022.2.4,143.98516375297655,
positions.xlsx,positions_test.xlsx,positions_test_new.xlsx,stimuli.xlsx,stimuli_new.xlsx,stimuli/Social2.png,stimuli/Social1.png,stimuli/Nonsocial2.png,stimuli/Nonsocial1.png,stimuli/Social4.png,stimuli/Social3.png,stimuli/Nonsocial4.png,stimuli/Nonsocial3.png,cs_neg_ns,"(0.7, 0.5)",,,,,,,,,0,0,0,0,,,,,,,,,,,,,1,1,17,10,,,,,,,,,,,,,,,,,,,,,,,,,,,,,,,,,,738.3969380000053,51,none,0,,,741.4037276000017,,,,,,,,,,,,,,,,,,,,,,26,B,2024-05-01_11h26.48.986,attentional_competition_task,2022.2.4,143.98516375297655,
positions.xlsx,positions_test.xlsx,positions_test_new.xlsx,stimuli.xlsx,stimuli_new.xlsx,stimuli/Social2.png,stimuli/Social1.png,stimuli/Nonsocial2.png,stimuli/Nonsocial1.png,stimuli/Social4.png,stimuli/Social3.png,stimuli/Nonsocial4.png,stimuli/Nonsocial3.png,cs_pos_s,"(-0.7, 0.5)",,,,,,,,,0,0,0,0,,,,,,,,,,,,,1,2,18,4,,,,,,,,,,,,,,,,,,,,,,,,,,,,,,,,,,749.3339801999973,54,reward,1,0.597643800007063,0.5976477000076557,749.9381342999986,,,,,,,,,,,,,,,,,,,,,,26,B,2024-05-01_11h26.48.986,attentional_competition_task,2022.2.4,143.98516375297655,
positions.xlsx,positions_test.xlsx,positions_test_new.xlsx,stimuli.xlsx,stimuli_new.xlsx,stimuli/Social2.png,stimuli/Social1.png,stimuli/Nonsocial2.png,stimuli/Nonsocial1.png,stimuli/Social4.png,stimuli/Social3.png,stimuli/Nonsocial4.png,stimuli/Nonsocial3.png,cs_pos_ns,"(0.7, 0.5)",,,,,,,,,0,0,0,0,,,,,,,,,,,,,1,3,19,14,,,,,,,,,,,,,,,,,,,,,,,,,,,,,,,,,,756.9239722000057,57,reward,1,0.9378826999891317,0.9378867999912472,757.8684257999994,,,,,,,,,,,,,,,,,,,,,,26,B,2024-05-01_11h26.48.986,attentional_competition_task,2022.2.4,143.98516375297655,
positions.xlsx,positions_test.xlsx,positions_test_new.xlsx,stimuli.xlsx,stimuli_new.xlsx,stimuli/Social2.png,stimuli/Social1.png,stimuli/Nonsocial2.png,stimuli/Nonsocial1.png,stimuli/Social4.png,stimuli/Social3.png,stimuli/Nonsocial4.png,stimuli/Nonsocial3.png,cs_pos_s,"(0.7, 0.5)",,,,,,,,,0,0,0,0,,,,,,,,,,,,,1,4,20,6,,,,,,,,,,,,,,,,,,,,,,,,,,,,,,,,,,765.131973399999,60,reward,1,0.5699928999965778,0.5699967999971705,765.7083745999989,,,,,,,,,,,,,,,,,,,,,,26,B,2024-05-01_11h26.48.986,attentional_competition_task,2022.2.4,143.98516375297655,
positions.xlsx,positions_test.xlsx,positions_test_new.xlsx,stimuli.xlsx,stimuli_new.xlsx,stimuli/Social2.png,stimuli/Social1.png,stimuli/Nonsocial2.png,stimuli/Nonsocial1.png,stimuli/Social4.png,stimuli/Social3.png,stimuli/Nonsocial4.png,stimuli/Nonsocial3.png,cs_neg_s,"(-0.7, 0.5)",,,,,,,,,0,0,0,0,,,,,,,,,,,,,1,5,21,0,,,,,,,,,,,,,,,,,,,,,,,,,,,,,,,,,,773.2774434000021,60,none,0,,,776.2912413000013,,,,,,,,,,,,,,,,,,,,,,26,B,2024-05-01_11h26.48.986,attentional_competition_task,2022.2.4,143.98516375297655,
positions.xlsx,positions_test.xlsx,positions_test_new.xlsx,stimuli.xlsx,stimuli_new.xlsx,stimuli/Social2.png,stimuli/Social1.png,stimuli/Nonsocial2.png,stimuli/Nonsocial1.png,stimuli/Social4.png,stimuli/Social3.png,stimuli/Nonsocial4.png,stimuli/Nonsocial3.png,cs_pos_s,"(-0.7, -0.5)",,,,,,,,,0,0,0,0,,,,,,,,,,,,,1,6,22,5,,,,,,,,,,,,,,,,,,,,,,,,,,,,,,,,,,783.9228784000006,63,reward,1,0.7500359999976354,0.7500396999967052,784.6798651999998,,,,,,,,,,,,,,,,,,,,,,26,B,2024-05-01_11h26.48.986,attentional_competition_task,2022.2.4,143.98516375297655,
positions.xlsx,positions_test.xlsx,positions_test_new.xlsx,stimuli.xlsx,stimuli_new.xlsx,stimuli/Social2.png,stimuli/Social1.png,stimuli/Nonsocial2.png,stimuli/Nonsocial1.png,stimuli/Social4.png,stimuli/Social3.png,stimuli/Nonsocial4.png,stimuli/Nonsocial3.png,cs_pos_ns,"(-0.7, 0.5)",,,,,,,,,0,0,0,0,,,,,,,,,,,,,1,7,23,12,,,,,,,,,,,,,,,,,,,,,,,,,,,,,,,,,,792.6100118000031,66,reward,1,0.5488303000020096,0.5488346000056481,793.1655842000037,,,,,,,,,,,,,,,,,,,,,,26,B,2024-05-01_11h26.48.986,attentional_competition_task,2022.2.4,143.98516375297655,
positions.xlsx,positions_test.xlsx,positions_test_new.xlsx,stimuli.xlsx,stimuli_new.xlsx,stimuli/Social2.png,stimuli/Social1.png,stimuli/Nonsocial2.png,stimuli/Nonsocial1.png,stimuli/Social4.png,stimuli/Social3.png,stimuli/Nonsocial4.png,stimuli/Nonsocial3.png,cs_neg_s,"(0.7, -0.5)",,,,,,,,,0,0,0,0,,,,,,,,,,,,,1,8,24,3,,,,,,,,,,,,,,,,,,,,,,,,,,,,,,,,,,800.6930646999972,66,none,0,,,803.7067988000053,,,,,,,,,,,,,,,,,,,,,,26,B,2024-05-01_11h26.48.986,attentional_competition_task,2022.2.4,143.98516375297655,
positions.xlsx,positions_test.xlsx,positions_test_new.xlsx,stimuli.xlsx,stimuli_new.xlsx,stimuli/Social2.png,stimuli/Social1.png,stimuli/Nonsocial2.png,stimuli/Nonsocial1.png,stimuli/Social4.png,stimuli/Social3.png,stimuli/Nonsocial4.png,stimuli/Nonsocial3.png,cs_pos_s,"(0.7, -0.5)",,,,,,,,,0,0,0,0,,,,,,,,,,,,,1,9,25,7,,,,,,,,,,,,,,,,,,,,,,,,,,,,,,,,,,811.5884203000023,69,reward,1,0.527776899994933,0.5277805999940028,812.1231612999982,,,,,,,,,,,,,,,,,,,,,,26,B,2024-05-01_11h26.48.986,attentional_competition_task,2022.2.4,143.98516375297655,
positions.xlsx,positions_test.xlsx,positions_test_new.xlsx,stimuli.xlsx,stimuli_new.xlsx,stimuli/Social2.png,stimuli/Social1.png,stimuli/Nonsocial2.png,stimuli/Nonsocial1.png,stimuli/Social4.png,stimuli/Social3.png,stimuli/Nonsocial4.png,stimuli/Nonsocial3.png,cs_neg_s,"(0.7, 0.5)",,,,,,,,,0,0,0,0,,,,,,,,,,,,,1,10,26,2,,,,,,,,,,,,,,,,,,,,,,,,,,,,,,,,,,820.0464345999935,69,none,0,,,823.0602325999935,,,,,,,,,,,,,,,,,,,,,,26,B,2024-05-01_11h26.48.986,attentional_competition_task,2022.2.4,143.98516375297655,
positions.xlsx,positions_test.xlsx,positions_test_new.xlsx,stimuli.xlsx,stimuli_new.xlsx,stimuli/Social2.png,stimuli/Social1.png,stimuli/Nonsocial2.png,stimuli/Nonsocial1.png,stimuli/Social4.png,stimuli/Social3.png,stimuli/Nonsocial4.png,stimuli/Nonsocial3.png,cs_neg_ns,"(-0.7, 0.5)",,,,,,,,,0,0,0,0,,,,,,,,,,,,,1,11,27,8,,,,,,,,,,,,,,,,,,,,,,,,,,,,,,,,,,829.9418549999973,69,none,0,,,832.9556288000022,,,,,,,,,,,,,,,,,,,,,,26,B,2024-05-01_11h26.48.986,attentional_competition_task,2022.2.4,143.98516375297655,
positions.xlsx,positions_test.xlsx,positions_test_new.xlsx,stimuli.xlsx,stimuli_new.xlsx,stimuli/Social2.png,stimuli/Social1.png,stimuli/Nonsocial2.png,stimuli/Nonsocial1.png,stimuli/Social4.png,stimuli/Social3.png,stimuli/Nonsocial4.png,stimuli/Nonsocial3.png,cs_pos_ns,"(-0.7, -0.5)",,,,,,,,,0,0,0,0,,,,,,,,,,,,,1,12,28,13,,,,,,,,,,,,,,,,,,,,,,,,,,,,,,,,,,840.774760100001,72,reward,1,0.688191299996106,0.6881950999959372,841.4761211000005,,,,,,,,,,,,,,,,,,,,,,26,B,2024-05-01_11h26.48.986,attentional_competition_task,2022.2.4,143.98516375297655,
positions.xlsx,positions_test.xlsx,positions_test_new.xlsx,stimuli.xlsx,stimuli_new.xlsx,stimuli/Social2.png,stimuli/Social1.png,stimuli/Nonsocial2.png,stimuli/Nonsocial1.png,stimuli/Social4.png,stimuli/Social3.png,stimuli/Nonsocial4.png,stimuli/Nonsocial3.png,cs_neg_s,"(-0.7, -0.5)",,,,,,,,,0,0,0,0,,,,,,,,,,,,,1,13,29,1,,,,,,,,,,,,,,,,,,,,,,,,,,,,,,,,,,849.3091386000015,72,none,0,,,852.322914599994,,,,,,,,,,,,,,,,,,,,,,26,B,2024-05-01_11h26.48.986,attentional_competition_task,2022.2.4,143.98516375297655,
positions.xlsx,positions_test.xlsx,positions_test_new.xlsx,stimuli.xlsx,stimuli_new.xlsx,stimuli/Social2.png,stimuli/Social1.png,stimuli/Nonsocial2.png,stimuli/Nonsocial1.png,stimuli/Social4.png,stimuli/Social3.png,stimuli/Nonsocial4.png,stimuli/Nonsocial3.png,cs_pos_ns,"(0.7, -0.5)",,,,,,,,,0,0,0,0,,,,,,,,,,,,,1,14,30,15,,,,,,,,,,,,,,,,,,,,,,,,,,,,,,,,,,860.1212450000021,75,reward,1,0.47941839999111835,0.47942209999018814,860.6073170000018,,,,,,,,,,,,,,,,,,,,,,26,B,2024-05-01_11h26.48.986,attentional_competition_task,2022.2.4,143.98516375297655,
positions.xlsx,positions_test.xlsx,positions_test_new.xlsx,stimuli.xlsx,stimuli_new.xlsx,stimuli/Social2.png,stimuli/Social1.png,stimuli/Nonsocial2.png,stimuli/Nonsocial1.png,stimuli/Social4.png,stimuli/Social3.png,stimuli/Nonsocial4.png,stimuli/Nonsocial3.png,cs_neg_ns,"(-0.7, -0.5)",,,,,,,,,0,0,0,0,,,,,,,,,,,,,1,15,31,9,,,,,,,,,,,,,,,,,,,,,,,,,,,,,,,,,,868.1208880000049,75,none,0,,,871.1347042999987,,,,,,,,,,,,,,,,,,,,,,26,B,2024-05-01_11h26.48.986,attentional_competition_task,2022.2.4,143.98516375297655,
positions.xlsx,positions_test.xlsx,positions_test_new.xlsx,stimuli.xlsx,stimuli_new.xlsx,stimuli/Social2.png,stimuli/Social1.png,stimuli/Nonsocial2.png,stimuli/Nonsocial1.png,stimuli/Social4.png,stimuli/Social3.png,stimuli/Nonsocial4.png,stimuli/Nonsocial3.png,cs_neg_s,,,,,,,,,,0,0,0,0,,,,,,,,,,,,,,,,,0,0,0,0,,,,,,,,,,,,,,,,,,,,,,,875.9470090999966,7.0,9.7832408999966,,,,,,,,,,,,,,,,,,,,,,,,,,,,,,,,,26,B,2024-05-01_11h26.48.986,attentional_competition_task,2022.2.4,143.98516375297655,
positions.xlsx,positions_test.xlsx,positions_test_new.xlsx,stimuli.xlsx,stimuli_new.xlsx,stimuli/Social2.png,stimuli/Social1.png,stimuli/Nonsocial2.png,stimuli/Nonsocial1.png,stimuli/Social4.png,stimuli/Social3.png,stimuli/Nonsocial4.png,stimuli/Nonsocial3.png,cs_pos_ns,,,,,,,,,,0,0,0,0,,,,,,,,,,,,,,,,,0,1,1,3,,,,,,,,,,,,,,,,,,,,,,,887.1548814999987,10.0,3.1680736999987857,,,,,,,,,,,,,,,,,,,,,,,,,,,,,,,,,26,B,2024-05-01_11h26.48.986,attentional_competition_task,2022.2.4,143.98516375297655,
positions.xlsx,positions_test.xlsx,positions_test_new.xlsx,stimuli.xlsx,stimuli_new.xlsx,stimuli/Social2.png,stimuli/Social1.png,stimuli/Nonsocial2.png,stimuli/Nonsocial1.png,stimuli/Social4.png,stimuli/Social3.png,stimuli/Nonsocial4.png,stimuli/Nonsocial3.png,cs_neg_ns,,,,,,,,,,0,0,0,0,,,,,,,,,,,,,,,,,0,2,2,1,,,,,,,,,,,,,,,,,,,,,,,891.2588796000055,7.0,4.7924146999866934,,,,,,,,,,,,,,,,,,,,,,,,,,,,,,,,,26,B,2024-05-01_11h26.48.986,attentional_competition_task,2022.2.4,143.98516375297655,
positions.xlsx,positions_test.xlsx,positions_test_new.xlsx,stimuli.xlsx,stimuli_new.xlsx,stimuli/Social2.png,stimuli/Social1.png,stimuli/Nonsocial2.png,stimuli/Nonsocial1.png,stimuli/Social4.png,stimuli/Social3.png,stimuli/Nonsocial4.png,stimuli/Nonsocial3.png,cs_pos_s,,,,,,,,,,0,0,0,0,,,,,,,,,,,,,,,,,0,3,3,2,,,,,,,,,,,,,,,,,,,,,,,898.6197029000032,9.0,4.481374399998458,,,,,,,,,,,,,,,,,,,,,,,,,,,,,,,,,26,B,2024-05-01_11h26.48.986,attentional_competition_task,2022.2.4,143.98516375297655,
positions.xlsx,positions_test.xlsx,positions_test_new.xlsx,stimuli.xlsx,stimuli_new.xlsx,stimuli/Social2.png,stimuli/Social1.png,stimuli/Nonsocial2.png,stimuli/Nonsocial1.png,stimuli/Social4.png,stimuli/Social3.png,stimuli/Nonsocial4.png,stimuli/Nonsocial3.png,,,"(-0.7, -0.5)",cs_neg_ns,"(-0.7, 0.5)",cs_neg_s,"(0.7, -0.5)",cs_pos_ns,"(0.7, 0.5)",cs_pos_s,0,0,0,0,,,,,,,,,,,,,,,,,,,,,0,0,0,15,,,,,,,,,,,,,,,,,,,,,,,,,,,81,reward,,,,,904.397278000004,911.8761500999972,911.8761500999972,911.8761500999972,911.8761500999972,0,,,0,,,1,0.24549780000234023,0.24550140000064857,1,0.030793800004175864,0.11388259999512229,912.1191596999997,912.1191596999997,912.1191596999997,912.1191596999997,26,B,2024-05-01_11h26.48.986,attentional_competition_task,2022.2.4,143.98516375297655,
positions.xlsx,positions_test.xlsx,positions_test_new.xlsx,stimuli.xlsx,stimuli_new.xlsx,stimuli/Social2.png,stimuli/Social1.png,stimuli/Nonsocial2.png,stimuli/Nonsocial1.png,stimuli/Social4.png,stimuli/Social3.png,stimuli/Nonsocial4.png,stimuli/Nonsocial3.png,,,"(-0.7, -0.5)",cs_pos_ns,"(-0.7, 0.5)",cs_neg_ns,"(0.7, -0.5)",cs_pos_s,"(0.7, 0.5)",cs_neg_s,0,0,0,0,,,,,,,,,,,,,,,,,,,,,0,1,1,20,,,,,,,,,,,,,,,,,,,,,,,,,,,87,reward,,,,,,920.7993856999965,920.7993856999965,920.7993856999965,920.7993856999965,1,0.029353100006119348,0.112391699993168,0,,,1,0.27270669999415986,0.2727102000062587,0,,,921.0702419000008,921.0702419000008,921.0702419000008,921.0702419000008,26,B,2024-05-01_11h26.48.986,attentional_competition_task,2022.2.4,143.98516375297655,
positions.xlsx,positions_test.xlsx,positions_test_new.xlsx,stimuli.xlsx,stimuli_new.xlsx,stimuli/Social2.png,stimuli/Social1.png,stimuli/Nonsocial2.png,stimuli/Nonsocial1.png,stimuli/Social4.png,stimuli/Social3.png,stimuli/Nonsocial4.png,stimuli/Nonsocial3.png,,,"(-0.7, -0.5)",cs_neg_s,"(-0.7, 0.5)",cs_pos_ns,"(0.7, -0.5)",cs_pos_s,"(0.7, 0.5)",cs_neg_ns,0,0,0,0,,,,,,,,,,,,,,,,,,,,,0,2,2,4,,,,,,,,,,,,,,,,,,,,,,,,,,,90,reward,,,,,,929.4448411000049,929.4448411000049,929.4448411000049,929.4448411000049,0,,,0,,,1,0.03008340000815224,0.030087400009506382,0,,,929.4448411000049,929.4448411000049,929.4448411000049,929.4448411000049,26,B,2024-05-01_11h26.48.986,attentional_competition_task,2022.2.4,143.98516375297655,
positions.xlsx,positions_test.xlsx,positions_test_new.xlsx,stimuli.xlsx,stimuli_new.xlsx,stimuli/Social2.png,stimuli/Social1.png,stimuli/Nonsocial2.png,stimuli/Nonsocial1.png,stimuli/Social4.png,stimuli/Social3.png,stimuli/Nonsocial4.png,stimuli/Nonsocial3.png,,,"(-0.7, -0.5)",cs_neg_s,"(-0.7, 0.5)",cs_pos_s,"(0.7, -0.5)",cs_neg_ns,"(0.7, 0.5)",cs_pos_ns,0,0,0,0,,,,,,,,,,,,,,,,,,,,,0,3,3,0,,,,,,,,,,,,,,,,,,,,,,,,,,,96,reward,,,,,,936.5140278000035,936.5140278000035,936.5140278000035,936.5140278000035,0,,,1,0.5845708999986527,0.5915729999978794,0,,,0,,,937.1042752999929,937.1042752999929,937.1042752999929,937.1042752999929,26,B,2024-05-01_11h26.48.986,attentional_competition_task,2022.2.4,143.98516375297655,
positions.xlsx,positions_test.xlsx,positions_test_new.xlsx,stimuli.xlsx,stimuli_new.xlsx,stimuli/Social2.png,stimuli/Social1.png,stimuli/Nonsocial2.png,stimuli/Nonsocial1.png,stimuli/Social4.png,stimuli/Social3.png,stimuli/Nonsocial4.png,stimuli/Nonsocial3.png,,,"(-0.7, -0.5)",cs_pos_s,"(-0.7, 0.5)",cs_neg_s,"(0.7, -0.5)",cs_pos_ns,"(0.7, 0.5)",cs_neg_ns,0,0,0,0,,,,,,,,,,,,,,,,,,,,,0,4,4,7,,,,,,,,,,,,,,,,,,,,,,,,,,,96,loss,,,,,,944.8261934000038,944.8261934000038,944.8261934000038,944.8261934000038,0,,,1,0.634312599999248,0.6343168000021251,0,,,0,,,945.4581276999961,945.4581276999961,945.4581276999961,945.4581276999961,26,B,2024-05-01_11h26.48.986,attentional_competition_task,2022.2.4,143.98516375297655,
positions.xlsx,positions_test.xlsx,positions_test_new.xlsx,stimuli.xlsx,stimuli_new.xlsx,stimuli/Social2.png,stimuli/Social1.png,stimuli/Nonsocial2.png,stimuli/Nonsocial1.png,stimuli/Social4.png,stimuli/Social3.png,stimuli/Nonsocial4.png,stimuli/Nonsocial3.png,,,"(-0.7, -0.5)",cs_pos_ns,"(-0.7, 0.5)",cs_pos_s,"(0.7, -0.5)",cs_neg_s,"(0.7, 0.5)",cs_neg_ns,0,0,0,0,,,,,,,,,,,,,,,,,,,,,0,5,5,19,,,,,,,,,,,,,,,,,,,,,,,,,,,93,loss,,,,,,954.2910947000055,954.2910947000055,954.2910947000055,954.2910947000055,0,,,0,,,0,,,0,,,955.1174787000054,955.1174787000054,955.1174787000054,955.1174787000054,26,B,2024-05-01_11h26.48.986,attentional_competition_task,2022.2.4,143.98516375297655,
positions.xlsx,positions_test.xlsx,positions_test_new.xlsx,stimuli.xlsx,stimuli_new.xlsx,stimuli/Social2.png,stimuli/Social1.png,stimuli/Nonsocial2.png,stimuli/Nonsocial1.png,stimuli/Social4.png,stimuli/Social3.png,stimuli/Nonsocial4.png,stimuli/Nonsocial3.png,,,"(-0.7, -0.5)",cs_pos_s,"(-0.7, 0.5)",cs_neg_ns,"(0.7, -0.5)",cs_pos_ns,"(0.7, 0.5)",cs_neg_s,0,0,0,0,,,,,,,,,,,,,,,,,,,,,0,6,6,9,,,,,,,,,,,,,,,,,,,,,,,,,,,102,reward,,,,,,962.5893686000054,962.5893686000054,962.5893686000054,962.5893686000054,0,,,0,,,0,,,0,,,963.4435185000038,963.4435185000038,963.4435185000038,963.4435185000038,26,B,2024-05-01_11h26.48.986,attentional_competition_task,2022.2.4,143.98516375297655,
positions.xlsx,positions_test.xlsx,positions_test_new.xlsx,stimuli.xlsx,stimuli_new.xlsx,stimuli/Social2.png,stimuli/Social1.png,stimuli/Nonsocial2.png,stimuli/Nonsocial1.png,stimuli/Social4.png,stimuli/Social3.png,stimuli/Nonsocial4.png,stimuli/Nonsocial3.png,,,"(-0.7, -0.5)",cs_pos_ns,"(-0.7, 0.5)",cs_neg_s,"(0.7, -0.5)",cs_pos_s,"(0.7, 0.5)",cs_neg_ns,0,0,0,0,,,,,,,,,,,,,,,,,,,,,0,7,7,22,,,,,,,,,,,,,,,,,,,,,,,,,,,111,reward,,,,,,971.4710330999951,971.4710330999951,971.4710330999951,971.4710330999951,0,,,0,,,1,0.023522900009993464,0.03943689999869093,0,,,972.2903774000006,972.2903774000006,972.2903774000006,972.2903774000006,26,B,2024-05-01_11h26.48.986,attentional_competition_task,2022.2.4,143.98516375297655,
positions.xlsx,positions_test.xlsx,positions_test_new.xlsx,stimuli.xlsx,stimuli_new.xlsx,stimuli/Social2.png,stimuli/Social1.png,stimuli/Nonsocial2.png,stimuli/Nonsocial1.png,stimuli/Social4.png,stimuli/Social3.png,stimuli/Nonsocial4.png,stimuli/Nonsocial3.png,,,"(-0.7, -0.5)",cs_pos_ns,"(-0.7, 0.5)",cs_neg_ns,"(0.7, -0.5)",cs_neg_s,"(0.7, 0.5)",cs_pos_s,0,0,0,0,,,,,,,,,,,,,,,,,,,,,0,8,8,21,,,,,,,,,,,,,,,,,,,,,,,,,,,120,reward,,,,,,979.3178817000007,979.3178817000007,979.3178817000007,979.3178817000007,0,,,0,,,0,,,1,0.028400499999406748,0.18202490000112448,980.2553562999965,980.2553562999965,980.2553562999965,980.2553562999965,26,B,2024-05-01_11h26.48.986,attentional_competition_task,2022.2.4,143.98516375297655,
positions.xlsx,positions_test.xlsx,positions_test_new.xlsx,stimuli.xlsx,stimuli_new.xlsx,stimuli/Social2.png,stimuli/Social1.png,stimuli/Nonsocial2.png,stimuli/Nonsocial1.png,stimuli/Social4.png,stimuli/Social3.png,stimuli/Nonsocial4.png,stimuli/Nonsocial3.png,,,"(-0.7, -0.5)",cs_neg_s,"(-0.7, 0.5)",cs_neg_ns,"(0.7, -0.5)",cs_pos_ns,"(0.7, 0.5)",cs_pos_s,0,0,0,0,,,,,,,,,,,,,,,,,,,,,0,9,9,3,,,,,,,,,,,,,,,,,,,,,,,,,,,129,reward,,,,,,987.935564600004,987.935564600004,987.935564600004,987.935564600004,0,,,0,,,0,,,0,,,988.9563860999915,988.9563860999915,988.9563860999915,988.9563860999915,26,B,2024-05-01_11h26.48.986,attentional_competition_task,2022.2.4,143.98516375297655,
positions.xlsx,positions_test.xlsx,positions_test_new.xlsx,stimuli.xlsx,stimuli_new.xlsx,stimuli/Social2.png,stimuli/Social1.png,stimuli/Nonsocial2.png,stimuli/Nonsocial1.png,stimuli/Social4.png,stimuli/Social3.png,stimuli/Nonsocial4.png,stimuli/Nonsocial3.png,,,"(-0.7, -0.5)",cs_pos_s,"(-0.7, 0.5)",cs_pos_ns,"(0.7, -0.5)",cs_neg_ns,"(0.7, 0.5)",cs_neg_s,0,0,0,0,,,,,,,,,,,,,,,,,,,,,0,10,10,11,,,,,,,,,,,,,,,,,,,,,,,,,,,132,reward,,,,,,995.969937300004,995.969937300004,995.969937300004,995.969937300004,1,0.19764899999427143,0.19765299999562558,0,,,0,,,0,,,996.1782583000022,996.1782583000022,996.1782583000022,996.1782583000022,26,B,2024-05-01_11h26.48.986,attentional_competition_task,2022.2.4,143.98516375297655,
positions.xlsx,positions_test.xlsx,positions_test_new.xlsx,stimuli.xlsx,stimuli_new.xlsx,stimuli/Social2.png,stimuli/Social1.png,stimuli/Nonsocial2.png,stimuli/Nonsocial1.png,stimuli/Social4.png,stimuli/Social3.png,stimuli/Nonsocial4.png,stimuli/Nonsocial3.png,,,"(-0.7, -0.5)",cs_pos_s,"(-0.7, 0.5)",cs_neg_ns,"(0.7, -0.5)",cs_neg_s,"(0.7, 0.5)",cs_pos_ns,0,0,0,0,,,,,,,,,,,,,,,,,,,,,0,11,11,8,,,,,,,,,,,,,,,,,,,,,,,,,,,141,reward,,,,,,1005.5459858999966,1005.5459858999966,1005.5459858999966,1005.5459858999966,0,,,0,,,0,,,0,,,1006.2334730000002,1006.2334730000002,1006.2334730000002,1006.2334730000002,26,B,2024-05-01_11h26.48.986,attentional_competition_task,2022.2.4,143.98516375297655,
positions.xlsx,positions_test.xlsx,positions_test_new.xlsx,stimuli.xlsx,stimuli_new.xlsx,stimuli/Social2.png,stimuli/Social1.png,stimuli/Nonsocial2.png,stimuli/Nonsocial1.png,stimuli/Social4.png,stimuli/Social3.png,stimuli/Nonsocial4.png,stimuli/Nonsocial3.png,,,"(-0.7, -0.5)",cs_pos_s,"(-0.7, 0.5)",cs_neg_s,"(0.7, -0.5)",cs_neg_ns,"(0.7, 0.5)",cs_pos_ns,0,0,0,0,,,,,,,,,,,,,,,,,,,,,0,12,12,6,,,,,,,,,,,,,,,,,,,,,,,,,,,150,reward,,,,,,1013.9901155999978,1013.9901155999978,1013.9901155999978,1013.9901155999978,1,0.022324400008074008,0.1697359000099823,0,,,0,,,0,,,1014.9136982999917,1014.9136982999917,1014.9136982999917,1014.9136982999917,26,B,2024-05-01_11h26.48.986,attentional_competition_task,2022.2.4,143.98516375297655,
positions.xlsx,positions_test.xlsx,positions_test_new.xlsx,stimuli.xlsx,stimuli_new.xlsx,stimuli/Social2.png,stimuli/Social1.png,stimuli/Nonsocial2.png,stimuli/Nonsocial1.png,stimuli/Social4.png,stimuli/Social3.png,stimuli/Nonsocial4.png,stimuli/Nonsocial3.png,,,"(-0.7, -0.5)",cs_neg_ns,"(-0.7, 0.5)",cs_pos_s,"(0.7, -0.5)",cs_neg_s,"(0.7, 0.5)",cs_pos_ns,0,0,0,0,,,,,,,,,,,,,,,,,,,,,0,13,13,12,,,,,,,,,,,,,,,,,,,,,,,,,,,159,reward,,,,,,1023.1772210999916,1023.1772210999916,1023.1772210999916,1023.1772210999916,0,,,1,0.022399099994800054,0.23950110000441782,0,,,0,,,1024.017479999995,1024.017479999995,1024.017479999995,1024.017479999995,26,B,2024-05-01_11h26.48.986,attentional_competition_task,2022.2.4,143.98516375297655,
positions.xlsx,positions_test.xlsx,positions_test_new.xlsx,stimuli.xlsx,stimuli_new.xlsx,stimuli/Social2.png,stimuli/Social1.png,stimuli/Nonsocial2.png,stimuli/Nonsocial1.png,stimuli/Social4.png,stimuli/Social3.png,stimuli/Nonsocial4.png,stimuli/Nonsocial3.png,,,"(-0.7, -0.5)",cs_pos_s,"(-0.7, 0.5)",cs_pos_ns,"(0.7, -0.5)",cs_neg_s,"(0.7, 0.5)",cs_neg_ns,0,0,0,0,,,,,,,,,,,,,,,,,,,,,0,14,14,10,,,,,,,,,,,,,,,,,,,,,,,,,,,168,reward,,,,,,1031.065799899996,1031.065799899996,1031.065799899996,1031.065799899996,0,,,0,,,0,,,0,,,1031.9963012999942,1031.9963012999942,1031.9963012999942,1031.9963012999942,26,B,2024-05-01_11h26.48.986,attentional_competition_task,2022.2.4,143.98516375297655,
positions.xlsx,positions_test.xlsx,positions_test_new.xlsx,stimuli.xlsx,stimuli_new.xlsx,stimuli/Social2.png,stimuli/Social1.png,stimuli/Nonsocial2.png,stimuli/Nonsocial1.png,stimuli/Social4.png,stimuli/Social3.png,stimuli/Nonsocial4.png,stimuli/Nonsocial3.png,,,"(-0.7, -0.5)",cs_neg_s,"(-0.7, 0.5)",cs_pos_ns,"(0.7, -0.5)",cs_neg_ns,"(0.7, 0.5)",cs_pos_s,0,0,0,0,,,,,,,,,,,,,,,,,,,,,0,15,15,5,,,,,,,,,,,,,,,,,,,,,,,,,,,177,reward,,,,,,1039.5862869999983,1039.5862869999983,1039.5862869999983,1039.5862869999983,0,,,0,,,0,,,0,,,1040.5723723999981,1040.5723723999981,1040.5723723999981,1040.5723723999981,26,B,2024-05-01_11h26.48.986,attentional_competition_task,2022.2.4,143.98516375297655,
positions.xlsx,positions_test.xlsx,positions_test_new.xlsx,stimuli.xlsx,stimuli_new.xlsx,stimuli/Social2.png,stimuli/Social1.png,stimuli/Nonsocial2.png,stimuli/Nonsocial1.png,stimuli/Social4.png,stimuli/Social3.png,stimuli/Nonsocial4.png,stimuli/Nonsocial3.png,,,"(-0.7, -0.5)",cs_pos_ns,"(-0.7, 0.5)",cs_neg_s,"(0.7, -0.5)",cs_neg_ns,"(0.7, 0.5)",cs_pos_s,0,0,0,0,,,,,,,,,,,,,,,,,,,,,0,16,16,23,,,,,,,,,,,,,,,,,,,,,,,,,,,186,reward,,,,,,1047.2179208000016,1047.2179208000016,1047.2179208000016,1047.2179208000016,0,,,0,,,0,,,1,0.03203269999357872,0.07961359999899287,1048.2318130000058,1048.2318130000058,1048.2318130000058,1048.2318130000058,26,B,2024-05-01_11h26.48.986,attentional_competition_task,2022.2.4,143.98516375297655,
positions.xlsx,positions_test.xlsx,positions_test_new.xlsx,stimuli.xlsx,stimuli_new.xlsx,stimuli/Social2.png,stimuli/Social1.png,stimuli/Nonsocial2.png,stimuli/Nonsocial1.png,stimuli/Social4.png,stimuli/Social3.png,stimuli/Nonsocial4.png,stimuli/Nonsocial3.png,,,"(-0.7, -0.5)",cs_neg_s,"(-0.7, 0.5)",cs_pos_s,"(0.7, -0.5)",cs_pos_ns,"(0.7, 0.5)",cs_neg_ns,0,0,0,0,,,,,,,,,,,,,,,,,,,,,0,17,17,1,,,,,,,,,,,,,,,,,,,,,,,,,,,195,reward,,,,,,1056.1898502999975,1056.1898502999975,1056.1898502999975,1056.1898502999975,0,,,1,0.025225099991075695,0.19080339999345597,0,,,0,,,1057.0925429999916,1057.0925429999916,1057.0925429999916,1057.0925429999916,26,B,2024-05-01_11h26.48.986,attentional_competition_task,2022.2.4,143.98516375297655,
positions.xlsx,positions_test.xlsx,positions_test_new.xlsx,stimuli.xlsx,stimuli_new.xlsx,stimuli/Social2.png,stimuli/Social1.png,stimuli/Nonsocial2.png,stimuli/Nonsocial1.png,stimuli/Social4.png,stimuli/Social3.png,stimuli/Nonsocial4.png,stimuli/Nonsocial3.png,,,"(-0.7, -0.5)",cs_pos_ns,"(-0.7, 0.5)",cs_pos_s,"(0.7, -0.5)",cs_neg_ns,"(0.7, 0.5)",cs_neg_s,0,0,0,0,,,,,,,,,,,,,,,,,,,,,0,18,18,18,,,,,,,,,,,,,,,,,,,,,,,,,,,204,reward,,,,,,1064.5575159,1064.5575159,1064.5575159,1064.5575159,0,,,1,0.030199599990737624,0.09333289999631234,0,,,0,,,1065.5783150999923,1065.5783150999923,1065.5783150999923,1065.5783150999923,26,B,2024-05-01_11h26.48.986,attentional_competition_task,2022.2.4,143.98516375297655,
positions.xlsx,positions_test.xlsx,positions_test_new.xlsx,stimuli.xlsx,stimuli_new.xlsx,stimuli/Social2.png,stimuli/Social1.png,stimuli/Nonsocial2.png,stimuli/Nonsocial1.png,stimuli/Social4.png,stimuli/Social3.png,stimuli/Nonsocial4.png,stimuli/Nonsocial3.png,,,"(-0.7, -0.5)",cs_neg_ns,"(-0.7, 0.5)",cs_pos_ns,"(0.7, -0.5)",cs_pos_s,"(0.7, 0.5)",cs_neg_s,0,0,0,0,,,,,,,,,,,,,,,,,,,,,0,19,19,16,,,,,,,,,,,,,,,,,,,,,,,,,,,213,reward,,,,,,1073.397409600002,1073.397409600002,1073.397409600002,1073.397409600002,0,,,0,,,1,0.02771470000152476,0.06281950000266079,0,,,1074.3557643999957,1074.3557643999957,1074.3557643999957,1074.3557643999957,26,B,2024-05-01_11h26.48.986,attentional_competition_task,2022.2.4,143.98516375297655,
positions.xlsx,positions_test.xlsx,positions_test_new.xlsx,stimuli.xlsx,stimuli_new.xlsx,stimuli/Social2.png,stimuli/Social1.png,stimuli/Nonsocial2.png,stimuli/Nonsocial1.png,stimuli/Social4.png,stimuli/Social3.png,stimuli/Nonsocial4.png,stimuli/Nonsocial3.png,,,"(-0.7, -0.5)",cs_neg_ns,"(-0.7, 0.5)",cs_neg_s,"(0.7, -0.5)",cs_pos_s,"(0.7, 0.5)",cs_pos_ns,0,0,0,0,,,,,,,,,,,,,,,,,,,,,0,20,20,14,,,,,,,,,,,,,,,,,,,,,,,,,,,222,reward,,,,,,1082.5498708999949,1082.5498708999949,1082.5498708999949,1082.5498708999949,0,,,0,,,0,,,0,,,1083.3901231999916,1083.3901231999916,1083.3901231999916,1083.3901231999916,26,B,2024-05-01_11h26.48.986,attentional_competition_task,2022.2.4,143.98516375297655,
positions.xlsx,positions_test.xlsx,positions_test_new.xlsx,stimuli.xlsx,stimuli_new.xlsx,stimuli/Social2.png,stimuli/Social1.png,stimuli/Nonsocial2.png,stimuli/Nonsocial1.png,stimuli/Social4.png,stimuli/Social3.png,stimuli/Nonsocial4.png,stimuli/Nonsocial3.png,,,"(-0.7, -0.5)",cs_neg_ns,"(-0.7, 0.5)",cs_pos_ns,"(0.7, -0.5)",cs_neg_s,"(0.7, 0.5)",cs_pos_s,0,0,0,0,,,,,,,,,,,,,,,,,,,,,0,21,21,17,,,,,,,,,,,,,,,,,,,,,,,,,,,231,reward,,,,,,1091.6883583000017,1091.6883583000017,1091.6883583000017,1091.6883583000017,0,,,0,,,0,,,0,,,1092.4314016999997,1092.4314016999997,1092.4314016999997,1092.4314016999997,26,B,2024-05-01_11h26.48.986,attentional_competition_task,2022.2.4,143.98516375297655,
positions.xlsx,positions_test.xlsx,positions_test_new.xlsx,stimuli.xlsx,stimuli_new.xlsx,stimuli/Social2.png,stimuli/Social1.png,stimuli/Nonsocial2.png,stimuli/Nonsocial1.png,stimuli/Social4.png,stimuli/Social3.png,stimuli/Nonsocial4.png,stimuli/Nonsocial3.png,,,"(-0.7, -0.5)",cs_neg_ns,"(-0.7, 0.5)",cs_pos_s,"(0.7, -0.5)",cs_pos_ns,"(0.7, 0.5)",cs_neg_s,0,0,0,0,,,,,,,,,,,,,,,,,,,,,0,22,22,13,,,,,,,,,,,,,,,,,,,,,,,,,,,237,reward,,,,,,1100.2366112000018,1100.2366112000018,1100.2366112000018,1100.2366112000018,0,,,0,,,1,0.030452499995590188,0.030455999993137084,0,,,1100.2366112000018,1100.2366112000018,1100.2366112000018,1100.2366112000018,26,B,2024-05-01_11h26.48.986,attentional_competition_task,2022.2.4,143.98516375297655,
positions.xlsx,positions_test.xlsx,positions_test_new.xlsx,stimuli.xlsx,stimuli_new.xlsx,stimuli/Social2.png,stimuli/Social1.png,stimuli/Nonsocial2.png,stimuli/Nonsocial1.png,stimuli/Social4.png,stimuli/Social3.png,stimuli/Nonsocial4.png,stimuli/Nonsocial3.png,,,"(-0.7, -0.5)",cs_neg_s,"(-0.7, 0.5)",cs_neg_ns,"(0.7, -0.5)",cs_pos_s,"(0.7, 0.5)",cs_pos_ns,0,0,0,0,,,,,,,,,,,,,,,,,,,,,0,23,23,2,,,,,,,,,,,,,,,,,,,,,,,,,,,246,reward,,,,,,1108.9793638999981,1108.9793638999981,1108.9793638999981,1108.9793638999981,0,,,0,,,0,,,0,,,1109.8751383999916,1109.8751383999916,1109.8751383999916,1109.8751383999916,26,B,2024-05-01_11h26.48.986,attentional_competition_task,2022.2.4,143.98516375297655,
positions.xlsx,positions_test.xlsx,positions_test_new.xlsx,stimuli.xlsx,stimuli_new.xlsx,stimuli/Social2.png,stimuli/Social1.png,stimuli/Nonsocial2.png,stimuli/Nonsocial1.png,stimuli/Social4.png,stimuli/Social3.png,stimuli/Nonsocial4.png,stimuli/Nonsocial3.png,,,"(-0.7, -0.5)",cs_neg_s,"(-0.7, 0.5)",cs_pos_ns,"(0.7, -0.5)",cs_pos_s,"(0.7, 0.5)",cs_neg_ns,0,0,0,0,,,,,,,,,,,,,,,,,,,,,1,0,24,4,,,,,,,,,,,,,,,,,,,,,,,,,,,252,reward,,,,,,1117.7984462000022,1117.7984462000022,1117.7984462000022,1117.7984462000022,0,,,0,,,1,0.024363799995626323,0.03884690000268165,0,,,1118.3400967999914,1118.3400967999914,1118.3400967999914,1118.3400967999914,26,B,2024-05-01_11h26.48.986,attentional_competition_task,2022.2.4,143.98516375297655,
positions.xlsx,positions_test.xlsx,positions_test_new.xlsx,stimuli.xlsx,stimuli_new.xlsx,stimuli/Social2.png,stimuli/Social1.png,stimuli/Nonsocial2.png,stimuli/Nonsocial1.png,stimuli/Social4.png,stimuli/Social3.png,stimuli/Nonsocial4.png,stimuli/Nonsocial3.png,,,"(-0.7, -0.5)",cs_pos_s,"(-0.7, 0.5)",cs_neg_s,"(0.7, -0.5)",cs_neg_ns,"(0.7, 0.5)",cs_pos_ns,0,0,0,0,,,,,,,,,,,,,,,,,,,,,1,1,25,6,,,,,,,,,,,,,,,,,,,,,,,,,,,261,reward,,,,,,1126.0758580999973,1126.0758580999973,1126.0758580999973,1126.0758580999973,0,,,0,,,0,,,0,,,1126.7216966999986,1126.7216966999986,1126.7216966999986,1126.7216966999986,26,B,2024-05-01_11h26.48.986,attentional_competition_task,2022.2.4,143.98516375297655,
positions.xlsx,positions_test.xlsx,positions_test_new.xlsx,stimuli.xlsx,stimuli_new.xlsx,stimuli/Social2.png,stimuli/Social1.png,stimuli/Nonsocial2.png,stimuli/Nonsocial1.png,stimuli/Social4.png,stimuli/Social3.png,stimuli/Nonsocial4.png,stimuli/Nonsocial3.png,,,"(-0.7, -0.5)",cs_neg_s,"(-0.7, 0.5)",cs_neg_ns,"(0.7, -0.5)",cs_pos_s,"(0.7, 0.5)",cs_pos_ns,0,0,0,0,,,,,,,,,,,,,,,,,,,,,1,2,26,2,,,,,,,,,,,,,,,,,,,,,,,,,,,270,reward,,,,,,1134.797811299999,1134.797811299999,1134.797811299999,1134.797811299999,0,,,0,,,1,0.025955900011467747,0.054620200011413544,0,,,1135.8324295000057,1135.8324295000057,1135.8324295000057,1135.8324295000057,26,B,2024-05-01_11h26.48.986,attentional_competition_task,2022.2.4,143.98516375297655,
positions.xlsx,positions_test.xlsx,positions_test_new.xlsx,stimuli.xlsx,stimuli_new.xlsx,stimuli/Social2.png,stimuli/Social1.png,stimuli/Nonsocial2.png,stimuli/Nonsocial1.png,stimuli/Social4.png,stimuli/Social3.png,stimuli/Nonsocial4.png,stimuli/Nonsocial3.png,,,"(-0.7, -0.5)",cs_pos_s,"(-0.7, 0.5)",cs_neg_ns,"(0.7, -0.5)",cs_pos_ns,"(0.7, 0.5)",cs_neg_s,0,0,0,0,,,,,,,,,,,,,,,,,,,,,1,3,27,9,,,,,,,,,,,,,,,,,,,,,,,,,,,273,reward,,,,,,1143.2974210999964,1143.2974210999964,1143.2974210999964,1143.2974210999964,1,0.028275899996515363,0.028279400008614175,0,,,0,,,0,,,1143.2974210999964,1143.2974210999964,1143.2974210999964,1143.2974210999964,26,B,2024-05-01_11h26.48.986,attentional_competition_task,2022.2.4,143.98516375297655,
positions.xlsx,positions_test.xlsx,positions_test_new.xlsx,stimuli.xlsx,stimuli_new.xlsx,stimuli/Social2.png,stimuli/Social1.png,stimuli/Nonsocial2.png,stimuli/Nonsocial1.png,stimuli/Social4.png,stimuli/Social3.png,stimuli/Nonsocial4.png,stimuli/Nonsocial3.png,,,"(-0.7, -0.5)",cs_neg_ns,"(-0.7, 0.5)",cs_neg_s,"(0.7, -0.5)",cs_pos_ns,"(0.7, 0.5)",cs_pos_s,0,0,0,0,,,,,,,,,,,,,,,,,,,,,1,4,28,15,,,,,,,,,,,,,,,,,,,,,,,,,,,282,reward,,,,,,1152.297124100005,1152.297124100005,1152.297124100005,1152.297124100005,0,,,0,,,0,,,0,,,1153.3039635000023,1153.3039635000023,1153.3039635000023,1153.3039635000023,26,B,2024-05-01_11h26.48.986,attentional_competition_task,2022.2.4,143.98516375297655,
positions.xlsx,positions_test.xlsx,positions_test_new.xlsx,stimuli.xlsx,stimuli_new.xlsx,stimuli/Social2.png,stimuli/Social1.png,stimuli/Nonsocial2.png,stimuli/Nonsocial1.png,stimuli/Social4.png,stimuli/Social3.png,stimuli/Nonsocial4.png,stimuli/Nonsocial3.png,,,"(-0.7, -0.5)",cs_pos_ns,"(-0.7, 0.5)",cs_neg_s,"(0.7, -0.5)",cs_pos_s,"(0.7, 0.5)",cs_neg_ns,0,0,0,0,,,,,,,,,,,,,,,,,,,,,1,5,29,22,,,,,,,,,,,,,,,,,,,,,,,,,,,291,reward,,,,,,1160.949498300004,1160.949498300004,1160.949498300004,1160.949498300004,0,,,0,,,0,,,0,,,1161.7480575999944,1161.7480575999944,1161.7480575999944,1161.7480575999944,26,B,2024-05-01_11h26.48.986,attentional_competition_task,2022.2.4,143.98516375297655,
positions.xlsx,positions_test.xlsx,positions_test_new.xlsx,stimuli.xlsx,stimuli_new.xlsx,stimuli/Social2.png,stimuli/Social1.png,stimuli/Nonsocial2.png,stimuli/Nonsocial1.png,stimuli/Social4.png,stimuli/Social3.png,stimuli/Nonsocial4.png,stimuli/Nonsocial3.png,,,"(-0.7, -0.5)",cs_pos_s,"(-0.7, 0.5)",cs_neg_s,"(0.7, -0.5)",cs_pos_ns,"(0.7, 0.5)",cs_neg_ns,0,0,0,0,,,,,,,,,,,,,,,,,,,,,1,6,30,7,,,,,,,,,,,,,,,,,,,,,,,,,,,297,reward,,,,,,1169.407512299993,1169.407512299993,1169.407512299993,1169.407512299993,1,0.9048470000125235,0.9119557000085479,0,,,1,0.02965930000937078,0.4683332000131486,0,,,1170.3310506999987,1170.3310506999987,1170.3310506999987,1170.3310506999987,26,B,2024-05-01_11h26.48.986,attentional_competition_task,2022.2.4,143.98516375297655,
positions.xlsx,positions_test.xlsx,positions_test_new.xlsx,stimuli.xlsx,stimuli_new.xlsx,stimuli/Social2.png,stimuli/Social1.png,stimuli/Nonsocial2.png,stimuli/Nonsocial1.png,stimuli/Social4.png,stimuli/Social3.png,stimuli/Nonsocial4.png,stimuli/Nonsocial3.png,,,"(-0.7, -0.5)",cs_pos_s,"(-0.7, 0.5)",cs_pos_ns,"(0.7, -0.5)",cs_neg_ns,"(0.7, 0.5)",cs_neg_s,0,0,0,0,,,,,,,,,,,,,,,,,,,,,1,7,31,11,,,,,,,,,,,,,,,,,,,,,,,,,,,306,reward,,,,,,1178.6293092999986,1178.6293092999986,1178.6293092999986,1178.6293092999986,1,0.029105800000252202,0.3082141000049887,0,,,0,,,0,,,1179.6987519999966,1179.6987519999966,1179.6987519999966,1179.6987519999966,26,B,2024-05-01_11h26.48.986,attentional_competition_task,2022.2.4,143.98516375297655,
positions.xlsx,positions_test.xlsx,positions_test_new.xlsx,stimuli.xlsx,stimuli_new.xlsx,stimuli/Social2.png,stimuli/Social1.png,stimuli/Nonsocial2.png,stimuli/Nonsocial1.png,stimuli/Social4.png,stimuli/Social3.png,stimuli/Nonsocial4.png,stimuli/Nonsocial3.png,,,"(-0.7, -0.5)",cs_neg_ns,"(-0.7, 0.5)",cs_pos_ns,"(0.7, -0.5)",cs_neg_s,"(0.7, 0.5)",cs_pos_s,0,0,0,0,,,,,,,,,,,,,,,,,,,,,1,8,32,17,,,,,,,,,,,,,,,,,,,,,,,,,,,315,reward,,,,,,1187.3929547000007,1187.3929547000007,1187.3929547000007,1187.3929547000007,0,,,0,,,0,,,1,0.024163400012184866,0.10085810000600759,1188.1776079999981,1188.1776079999981,1188.1776079999981,1188.1776079999981,26,B,2024-05-01_11h26.48.986,attentional_competition_task,2022.2.4,143.98516375297655,
positions.xlsx,positions_test.xlsx,positions_test_new.xlsx,stimuli.xlsx,stimuli_new.xlsx,stimuli/Social2.png,stimuli/Social1.png,stimuli/Nonsocial2.png,stimuli/Nonsocial1.png,stimuli/Social4.png,stimuli/Social3.png,stimuli/Nonsocial4.png,stimuli/Nonsocial3.png,,,"(-0.7, -0.5)",cs_neg_ns,"(-0.7, 0.5)",cs_pos_s,"(0.7, -0.5)",cs_neg_s,"(0.7, 0.5)",cs_pos_ns,0,0,0,0,,,,,,,,,,,,,,,,,,,,,1,9,33,12,,,,,,,,,,,,,,,,,,,,,,,,,,,324,reward,,,,,,1196.4966638000042,1196.4966638000042,1196.4966638000042,1196.4966638000042,0,,,1,0.029868700003135018,0.07895769999595359,0,,,0,,,1197.5244238000014,1197.5244238000014,1197.5244238000014,1197.5244238000014,26,B,2024-05-01_11h26.48.986,attentional_competition_task,2022.2.4,143.98516375297655,
positions.xlsx,positions_test.xlsx,positions_test_new.xlsx,stimuli.xlsx,stimuli_new.xlsx,stimuli/Social2.png,stimuli/Social1.png,stimuli/Nonsocial2.png,stimuli/Nonsocial1.png,stimuli/Social4.png,stimuli/Social3.png,stimuli/Nonsocial4.png,stimuli/Nonsocial3.png,,,"(-0.7, -0.5)",cs_pos_s,"(-0.7, 0.5)",cs_neg_ns,"(0.7, -0.5)",cs_neg_s,"(0.7, 0.5)",cs_pos_ns,0,0,0,0,,,,,,,,,,,,,,,,,,,,,1,10,34,8,,,,,,,,,,,,,,,,,,,,,,,,,,,327,reward,,,,,,1204.906103699992,1204.906103699992,1204.906103699992,1204.906103699992,0,,,0,,,0,,,1,0.02994169999146834,0.02994520000356715,1204.906103699992,1204.906103699992,1204.906103699992,1204.906103699992,26,B,2024-05-01_11h26.48.986,attentional_competition_task,2022.2.4,143.98516375297655,
positions.xlsx,positions_test.xlsx,positions_test_new.xlsx,stimuli.xlsx,stimuli_new.xlsx,stimuli/Social2.png,stimuli/Social1.png,stimuli/Nonsocial2.png,stimuli/Nonsocial1.png,stimuli/Social4.png,stimuli/Social3.png,stimuli/Nonsocial4.png,stimuli/Nonsocial3.png,,,"(-0.7, -0.5)",cs_pos_ns,"(-0.7, 0.5)",cs_neg_s,"(0.7, -0.5)",cs_neg_ns,"(0.7, 0.5)",cs_pos_s,0,0,0,0,,,,,,,,,,,,,,,,,,,,,1,11,35,23,,,,,,,,,,,,,,,,,,,,,,,,,,,336,reward,,,,,,1213.4543918999989,1213.4543918999989,1213.4543918999989,1213.4543918999989,0,,,0,,,0,,,0,,,1214.475137500005,1214.475137500005,1214.475137500005,1214.475137500005,26,B,2024-05-01_11h26.48.986,attentional_competition_task,2022.2.4,143.98516375297655,
positions.xlsx,positions_test.xlsx,positions_test_new.xlsx,stimuli.xlsx,stimuli_new.xlsx,stimuli/Social2.png,stimuli/Social1.png,stimuli/Nonsocial2.png,stimuli/Nonsocial1.png,stimuli/Social4.png,stimuli/Social3.png,stimuli/Nonsocial4.png,stimuli/Nonsocial3.png,,,"(-0.7, -0.5)",cs_neg_ns,"(-0.7, 0.5)",cs_pos_ns,"(0.7, -0.5)",cs_pos_s,"(0.7, 0.5)",cs_neg_s,0,0,0,0,,,,,,,,,,,,,,,,,,,,,1,12,36,16,,,,,,,,,,,,,,,,,,,,,,,,,,,342,reward,,,,,,1223.1136981000018,1223.1136981000018,1223.1136981000018,1223.1136981000018,0,,,0,,,0,,,0,,,1223.1136981000018,1223.1136981000018,1223.1136981000018,1223.1136981000018,26,B,2024-05-01_11h26.48.986,attentional_competition_task,2022.2.4,143.98516375297655,
positions.xlsx,positions_test.xlsx,positions_test_new.xlsx,stimuli.xlsx,stimuli_new.xlsx,stimuli/Social2.png,stimuli/Social1.png,stimuli/Nonsocial2.png,stimuli/Nonsocial1.png,stimuli/Social4.png,stimuli/Social3.png,stimuli/Nonsocial4.png,stimuli/Nonsocial3.png,,,"(-0.7, -0.5)",cs_pos_s,"(-0.7, 0.5)",cs_pos_ns,"(0.7, -0.5)",cs_neg_s,"(0.7, 0.5)",cs_neg_ns,0,0,0,0,,,,,,,,,,,,,,,,,,,,,1,13,37,10,,,,,,,,,,,,,,,,,,,,,,,,,,,351,reward,,,,,,1230.995312500003,1230.995312500003,1230.995312500003,1230.995312500003,0,,,0,,,0,,,0,,,1232.0785627000005,1232.0785627000005,1232.0785627000005,1232.0785627000005,26,B,2024-05-01_11h26.48.986,attentional_competition_task,2022.2.4,143.98516375297655,
positions.xlsx,positions_test.xlsx,positions_test_new.xlsx,stimuli.xlsx,stimuli_new.xlsx,stimuli/Social2.png,stimuli/Social1.png,stimuli/Nonsocial2.png,stimuli/Nonsocial1.png,stimuli/Social4.png,stimuli/Social3.png,stimuli/Nonsocial4.png,stimuli/Nonsocial3.png,,,"(-0.7, -0.5)",cs_pos_ns,"(-0.7, 0.5)",cs_pos_s,"(0.7, -0.5)",cs_neg_s,"(0.7, 0.5)",cs_neg_ns,0,0,0,0,,,,,,,,,,,,,,,,,,,,,1,14,38,19,,,,,,,,,,,,,,,,,,,,,,,,,,,360,reward,,,,,,1239.286641300001,1239.286641300001,1239.286641300001,1239.286641300001,0,,,0,,,0,,,0,,,1240.2171318000037,1240.2171318000037,1240.2171318000037,1240.2171318000037,26,B,2024-05-01_11h26.48.986,attentional_competition_task,2022.2.4,143.98516375297655,
positions.xlsx,positions_test.xlsx,positions_test_new.xlsx,stimuli.xlsx,stimuli_new.xlsx,stimuli/Social2.png,stimuli/Social1.png,stimuli/Nonsocial2.png,stimuli/Nonsocial1.png,stimuli/Social4.png,stimuli/Social3.png,stimuli/Nonsocial4.png,stimuli/Nonsocial3.png,,,"(-0.7, -0.5)",cs_pos_ns,"(-0.7, 0.5)",cs_neg_ns,"(0.7, -0.5)",cs_neg_s,"(0.7, 0.5)",cs_pos_s,0,0,0,0,,,,,,,,,,,,,,,,,,,,,1,15,39,21,,,,,,,,,,,,,,,,,,,,,,,,,,,369,reward,,,,,,1247.6960311000003,1247.6960311000003,1247.6960311000003,1247.6960311000003,0,,,0,,,0,,,0,,,1248.7445962000056,1248.7445962000056,1248.7445962000056,1248.7445962000056,26,B,2024-05-01_11h26.48.986,attentional_competition_task,2022.2.4,143.98516375297655,
positions.xlsx,positions_test.xlsx,positions_test_new.xlsx,stimuli.xlsx,stimuli_new.xlsx,stimuli/Social2.png,stimuli/Social1.png,stimuli/Nonsocial2.png,stimuli/Nonsocial1.png,stimuli/Social4.png,stimuli/Social3.png,stimuli/Nonsocial4.png,stimuli/Nonsocial3.png,,,"(-0.7, -0.5)",cs_neg_s,"(-0.7, 0.5)",cs_pos_s,"(0.7, -0.5)",cs_neg_ns,"(0.7, 0.5)",cs_pos_ns,0,0,0,0,,,,,,,,,,,,,,,,,,,,,1,16,40,0,,,,,,,,,,,,,,,,,,,,,,,,,,,378,reward,,,,,,1256.6887069999939,1256.6887069999939,1256.6887069999939,1256.6887069999939,0,,,1,0.023508500002208166,0.04479689999425318,0,,,0,,,1257.5567421000014,1257.5567421000014,1257.5567421000014,1257.5567421000014,26,B,2024-05-01_11h26.48.986,attentional_competition_task,2022.2.4,143.98516375297655,
positions.xlsx,positions_test.xlsx,positions_test_new.xlsx,stimuli.xlsx,stimuli_new.xlsx,stimuli/Social2.png,stimuli/Social1.png,stimuli/Nonsocial2.png,stimuli/Nonsocial1.png,stimuli/Social4.png,stimuli/Social3.png,stimuli/Nonsocial4.png,stimuli/Nonsocial3.png,,,"(-0.7, -0.5)",cs_neg_ns,"(-0.7, 0.5)",cs_pos_s,"(0.7, -0.5)",cs_pos_ns,"(0.7, 0.5)",cs_neg_s,0,0,0,0,,,,,,,,,,,,,,,,,,,,,1,17,41,13,,,,,,,,,,,,,,,,,,,,,,,,,,,387,reward,,,,,,1264.4662319999916,1264.4662319999916,1264.4662319999916,1264.4662319999916,0,,,1,0.02396069999667816,0.08049120000214316,0,,,0,,,1265.3897632000007,1265.3897632000007,1265.3897632000007,1265.3897632000007,26,B,2024-05-01_11h26.48.986,attentional_competition_task,2022.2.4,143.98516375297655,
positions.xlsx,positions_test.xlsx,positions_test_new.xlsx,stimuli.xlsx,stimuli_new.xlsx,stimuli/Social2.png,stimuli/Social1.png,stimuli/Nonsocial2.png,stimuli/Nonsocial1.png,stimuli/Social4.png,stimuli/Social3.png,stimuli/Nonsocial4.png,stimuli/Nonsocial3.png,,,"(-0.7, -0.5)",cs_neg_ns,"(-0.7, 0.5)",cs_neg_s,"(0.7, -0.5)",cs_pos_s,"(0.7, 0.5)",cs_pos_ns,0,0,0,0,,,,,,,,,,,,,,,,,,,,,1,18,42,14,,,,,,,,,,,,,,,,,,,,,,,,,,,396,reward,,,,,,1272.7366863999923,1272.7366863999923,1272.7366863999923,1272.7366863999923,0,,,0,,,0,,,0,,,1273.8199584999966,1273.8199584999966,1273.8199584999966,1273.8199584999966,26,B,2024-05-01_11h26.48.986,attentional_competition_task,2022.2.4,143.98516375297655,
positions.xlsx,positions_test.xlsx,positions_test_new.xlsx,stimuli.xlsx,stimuli_new.xlsx,stimuli/Social2.png,stimuli/Social1.png,stimuli/Nonsocial2.png,stimuli/Nonsocial1.png,stimuli/Social4.png,stimuli/Social3.png,stimuli/Nonsocial4.png,stimuli/Nonsocial3.png,,,"(-0.7, -0.5)",cs_neg_s,"(-0.7, 0.5)",cs_pos_s,"(0.7, -0.5)",cs_pos_ns,"(0.7, 0.5)",cs_neg_ns,0,0,0,0,,,,,,,,,,,,,,,,,,,,,1,19,43,1,,,,,,,,,,,,,,,,,,,,,,,,,,,405,reward,,,,,,1280.8891529999964,1280.8891529999964,1280.8891529999964,1280.8891529999964,0,,,1,0.022524200001498684,0.04498790000798181,0,,,0,,,1281.7571502999926,1281.7571502999926,1281.7571502999926,1281.7571502999926,26,B,2024-05-01_11h26.48.986,attentional_competition_task,2022.2.4,143.98516375297655,
positions.xlsx,positions_test.xlsx,positions_test_new.xlsx,stimuli.xlsx,stimuli_new.xlsx,stimuli/Social2.png,stimuli/Social1.png,stimuli/Nonsocial2.png,stimuli/Nonsocial1.png,stimuli/Social4.png,stimuli/Social3.png,stimuli/Nonsocial4.png,stimuli/Nonsocial3.png,,,"(-0.7, -0.5)",cs_neg_s,"(-0.7, 0.5)",cs_neg_ns,"(0.7, -0.5)",cs_pos_ns,"(0.7, 0.5)",cs_pos_s,0,0,0,0,,,,,,,,,,,,,,,,,,,,,1,20,44,3,,,,,,,,,,,,,,,,,,,,,,,,,,,414,reward,,,,,,1289.1874049000035,1289.1874049000035,1289.1874049000035,1289.1874049000035,0,,,0,,,0,,,0,,,1290.2082129000046,1290.2082129000046,1290.2082129000046,1290.2082129000046,26,B,2024-05-01_11h26.48.986,attentional_competition_task,2022.2.4,143.98516375297655,
positions.xlsx,positions_test.xlsx,positions_test_new.xlsx,stimuli.xlsx,stimuli_new.xlsx,stimuli/Social2.png,stimuli/Social1.png,stimuli/Nonsocial2.png,stimuli/Nonsocial1.png,stimuli/Social4.png,stimuli/Social3.png,stimuli/Nonsocial4.png,stimuli/Nonsocial3.png,,,"(-0.7, -0.5)",cs_neg_s,"(-0.7, 0.5)",cs_pos_ns,"(0.7, -0.5)",cs_neg_ns,"(0.7, 0.5)",cs_pos_s,0,0,0,0,,,,,,,,,,,,,,,,,,,,,1,21,45,5,,,,,,,,,,,,,,,,,,,,,,,,,,,423,reward,,,,,,1297.5898755999951,1297.5898755999951,1297.5898755999951,1297.5898755999951,0,,,0,,,0,,,0,,,1298.6801120000018,1298.6801120000018,1298.6801120000018,1298.6801120000018,26,B,2024-05-01_11h26.48.986,attentional_competition_task,2022.2.4,143.98516375297655,
positions.xlsx,positions_test.xlsx,positions_test_new.xlsx,stimuli.xlsx,stimuli_new.xlsx,stimuli/Social2.png,stimuli/Social1.png,stimuli/Nonsocial2.png,stimuli/Nonsocial1.png,stimuli/Social4.png,stimuli/Social3.png,stimuli/Nonsocial4.png,stimuli/Nonsocial3.png,,,"(-0.7, -0.5)",cs_pos_ns,"(-0.7, 0.5)",cs_neg_ns,"(0.7, -0.5)",cs_pos_s,"(0.7, 0.5)",cs_neg_s,0,0,0,0,,,,,,,,,,,,,,,,,,,,,1,22,46,20,,,,,,,,,,,,,,,,,,,,,,,,,,,426,reward,,,,,,1306.096433800005,1306.096433800005,1306.096433800005,1306.096433800005,1,0.027446299995062873,0.027449800007161684,0,,,0,,,0,,,1306.096433800005,1306.096433800005,1306.096433800005,1306.096433800005,26,B,2024-05-01_11h26.48.986,attentional_competition_task,2022.2.4,143.98516375297655,
positions.xlsx,positions_test.xlsx,positions_test_new.xlsx,stimuli.xlsx,stimuli_new.xlsx,stimuli/Social2.png,stimuli/Social1.png,stimuli/Nonsocial2.png,stimuli/Nonsocial1.png,stimuli/Social4.png,stimuli/Social3.png,stimuli/Nonsocial4.png,stimuli/Nonsocial3.png,,,"(-0.7, -0.5)",cs_pos_ns,"(-0.7, 0.5)",cs_pos_s,"(0.7, -0.5)",cs_neg_ns,"(0.7, 0.5)",cs_neg_s,0,0,0,0,,,,,,,,,,,,,,,,,,,,,1,23,47,18,,,,,,,,,,,,,,,,,,,,,,,,,,,435,reward,,,,,,1314.5058616000024,1314.5058616000024,1314.5058616000024,1314.5058616000024,0,,,0,,,0,,,0,,,1315.6516618000023,1315.6516618000023,1315.6516618000023,1315.6516618000023,26,B,2024-05-01_11h26.48.986,attentional_competition_task,2022.2.4,143.98516375297655,
positions.xlsx,positions_test.xlsx,positions_test_new.xlsx,stimuli.xlsx,stimuli_new.xlsx,stimuli/Social2.png,stimuli/Social1.png,stimuli/Nonsocial2.png,stimuli/Nonsocial1.png,stimuli/Social4.png,stimuli/Social3.png,stimuli/Nonsocial4.png,stimuli/Nonsocial3.png,,,"(-0.7, -0.5)",cs_neg_s,"(-0.7, 0.5)",cs_pos_ns,"(0.7, -0.5)",cs_neg_ns,"(0.7, 0.5)",cs_pos_s_new,0,0,0,0,,,,,,,,,,,,,,,,,,,,,,,,,,,,,0,0,0,33,0,0,0,0,,,,,,,,,,,,,,,438,reward,,,,,,1321.8320070000045,1321.8320070000045,1321.8320070000045,1321.8320070000045,0,,,1,0.36302629999408964,0.36991609999677166,0,,,0,,,1322.199996700001,1322.199996700001,1322.199996700001,1322.199996700001,26,B,2024-05-01_11h26.48.986,attentional_competition_task,2022.2.4,143.98516375297655,
positions.xlsx,positions_test.xlsx,positions_test_new.xlsx,stimuli.xlsx,stimuli_new.xlsx,stimuli/Social2.png,stimuli/Social1.png,stimuli/Nonsocial2.png,stimuli/Nonsocial1.png,stimuli/Social4.png,stimuli/Social3.png,stimuli/Nonsocial4.png,stimuli/Nonsocial3.png,,,"(-0.7, -0.5)",cs_neg_s,"(-0.7, 0.5)",cs_pos_ns,"(0.7, -0.5)",cs_neg_ns,"(0.7, 0.5)",cs_pos_s_new,0,0,0,0,,,,,,,,,,,,,,,,,,,,,,,,,,,,,0,0,0,33,1,0,1,0,,,,,,,,,,,,,,,441,reward,,,,,,1322.741698400001,1322.741698400001,1322.741698400001,1322.741698400001,0,,,0,,,0,,,1,0.029809200001182035,0.029813099987222813,1322.741698400001,1322.741698400001,1322.741698400001,1322.741698400001,26,B,2024-05-01_11h26.48.986,attentional_competition_task,2022.2.4,143.98516375297655,
positions.xlsx,positions_test.xlsx,positions_test_new.xlsx,stimuli.xlsx,stimuli_new.xlsx,stimuli/Social2.png,stimuli/Social1.png,stimuli/Nonsocial2.png,stimuli/Nonsocial1.png,stimuli/Social4.png,stimuli/Social3.png,stimuli/Nonsocial4.png,stimuli/Nonsocial3.png,,,"(-0.7, -0.5)",cs_neg_s,"(-0.7, 0.5)",cs_pos_ns,"(0.7, -0.5)",cs_neg_ns,"(0.7, 0.5)",cs_pos_s_new,0,0,0,0,,,,,,,,,,,,,,,,,,,,,,,,,,,,,0,0,0,33,2,0,2,0,,,,,,,,,,,,,,,438,loss,,,,,,1323.2763118000003,1323.2763118000003,1323.2763118000003,1323.2763118000003,1,0.02957260000403039,0.029576500004623085,0,,,0,,,0,,,1323.2763118000003,1323.2763118000003,1323.2763118000003,1323.2763118000003,26,B,2024-05-01_11h26.48.986,attentional_competition_task,2022.2.4,143.98516375297655,
positions.xlsx,positions_test.xlsx,positions_test_new.xlsx,stimuli.xlsx,stimuli_new.xlsx,stimuli/Social2.png,stimuli/Social1.png,stimuli/Nonsocial2.png,stimuli/Nonsocial1.png,stimuli/Social4.png,stimuli/Social3.png,stimuli/Nonsocial4.png,stimuli/Nonsocial3.png,,,"(-0.7, -0.5)",cs_neg_s,"(-0.7, 0.5)",cs_pos_ns,"(0.7, -0.5)",cs_neg_ns,"(0.7, 0.5)",cs_pos_s_new,0,0,0,0,,,,,,,,,,,,,,,,,,,,,,,,,,,,,0,0,0,33,3,0,3,0,,,,,,,,,,,,,,,435,loss,,,,,,1323.7762924999988,1323.7762924999988,1323.7762924999988,1323.7762924999988,0,,,0,,,0,,,1,0.030473300008452497,0.0659453999978723,1324.345737800002,1324.345737800002,1324.345737800002,1324.345737800002,26,B,2024-05-01_11h26.48.986,attentional_competition_task,2022.2.4,143.98516375297655,
positions.xlsx,positions_test.xlsx,positions_test_new.xlsx,stimuli.xlsx,stimuli_new.xlsx,stimuli/Social2.png,stimuli/Social1.png,stimuli/Nonsocial2.png,stimuli/Nonsocial1.png,stimuli/Social4.png,stimuli/Social3.png,stimuli/Nonsocial4.png,stimuli/Nonsocial3.png,,,"(-0.7, -0.5)",cs_neg_s,"(-0.7, 0.5)",cs_pos_ns,"(0.7, -0.5)",cs_neg_ns,"(0.7, 0.5)",cs_pos_s_new,0,0,0,0,,,,,,,,,,,,,,,,,,,,,,,,,,,,,0,0,0,33,,,,,,,,,,,,,,,,,,,,,,,,,,,,,,,,,,,,,,,,,,,,,,26,B,2024-05-01_11h26.48.986,attentional_competition_task,2022.2.4,143.98516375297655,
positions.xlsx,positions_test.xlsx,positions_test_new.xlsx,stimuli.xlsx,stimuli_new.xlsx,stimuli/Social2.png,stimuli/Social1.png,stimuli/Nonsocial2.png,stimuli/Nonsocial1.png,stimuli/Social4.png,stimuli/Social3.png,stimuli/Nonsocial4.png,stimuli/Nonsocial3.png,,,"(-0.7, -0.5)",cs_neg_ns,"(-0.7, 0.5)",cs_neg_s,"(0.7, -0.5)",cs_pos_s,"(0.7, 0.5)",cs_pos_ns_new,0,0,0,0,,,,,,,,,,,,,,,,,,,,,,,,,,,,,0,1,1,45,0,0,0,0,,,,,,,,,,,,,,,438,reward,,,,,,1330.171899199995,1330.171899199995,1330.171899199995,1330.171899199995,0,,,0,,,1,0.4982210999878589,0.49822489998769015,0,,,1330.678885500005,1330.678885500005,1330.678885500005,1330.678885500005,26,B,2024-05-01_11h26.48.986,attentional_competition_task,2022.2.4,143.98516375297655,
positions.xlsx,positions_test.xlsx,positions_test_new.xlsx,stimuli.xlsx,stimuli_new.xlsx,stimuli/Social2.png,stimuli/Social1.png,stimuli/Nonsocial2.png,stimuli/Nonsocial1.png,stimuli/Social4.png,stimuli/Social3.png,stimuli/Nonsocial4.png,stimuli/Nonsocial3.png,,,"(-0.7, -0.5)",cs_neg_ns,"(-0.7, 0.5)",cs_neg_s,"(0.7, -0.5)",cs_pos_s,"(0.7, 0.5)",cs_pos_ns_new,0,0,0,0,,,,,,,,,,,,,,,,,,,,,,,,,,,,,0,1,1,45,1,0,1,0,,,,,,,,,,,,,,,435,loss,,,,,,1331.2065748000023,1331.2065748000023,1331.2065748000023,1331.2065748000023,1,0.025440900004468858,0.025445099992793985,0,,,0,,,0,,,1331.2065748000023,1331.2065748000023,1331.2065748000023,1331.2065748000023,26,B,2024-05-01_11h26.48.986,attentional_competition_task,2022.2.4,143.98516375297655,
positions.xlsx,positions_test.xlsx,positions_test_new.xlsx,stimuli.xlsx,stimuli_new.xlsx,stimuli/Social2.png,stimuli/Social1.png,stimuli/Nonsocial2.png,stimuli/Nonsocial1.png,stimuli/Social4.png,stimuli/Social3.png,stimuli/Nonsocial4.png,stimuli/Nonsocial3.png,,,"(-0.7, -0.5)",cs_neg_ns,"(-0.7, 0.5)",cs_neg_s,"(0.7, -0.5)",cs_pos_s,"(0.7, 0.5)",cs_pos_ns_new,0,0,0,0,,,,,,,,,,,,,,,,,,,,,,,,,,,,,0,1,1,45,2,0,2,0,,,,,,,,,,,,,,,438,reward,,,,,,1331.7273813999927,1331.7273813999927,1331.7273813999927,1331.7273813999927,0,,,0,,,0,,,1,0.02258340000116732,0.022587300001760013,1331.7273813999927,1331.7273813999927,1331.7273813999927,1331.7273813999927,26,B,2024-05-01_11h26.48.986,attentional_competition_task,2022.2.4,143.98516375297655,
positions.xlsx,positions_test.xlsx,positions_test_new.xlsx,stimuli.xlsx,stimuli_new.xlsx,stimuli/Social2.png,stimuli/Social1.png,stimuli/Nonsocial2.png,stimuli/Nonsocial1.png,stimuli/Social4.png,stimuli/Social3.png,stimuli/Nonsocial4.png,stimuli/Nonsocial3.png,,,"(-0.7, -0.5)",cs_neg_ns,"(-0.7, 0.5)",cs_neg_s,"(0.7, -0.5)",cs_pos_s,"(0.7, 0.5)",cs_pos_ns_new,0,0,0,0,,,,,,,,,,,,,,,,,,,,,,,,,,,,,0,1,1,45,,,,,,,,,,,,,,,,,,,,,,,,,,,,,,,,,,,,,,,,,,,,,,26,B,2024-05-01_11h26.48.986,attentional_competition_task,2022.2.4,143.98516375297655,
positions.xlsx,positions_test.xlsx,positions_test_new.xlsx,stimuli.xlsx,stimuli_new.xlsx,stimuli/Social2.png,stimuli/Social1.png,stimuli/Nonsocial2.png,stimuli/Nonsocial1.png,stimuli/Social4.png,stimuli/Social3.png,stimuli/Nonsocial4.png,stimuli/Nonsocial3.png,,,"(-0.7, -0.5)",cs_neg_s,"(-0.7, 0.5)",cs_pos_ns,"(0.7, -0.5)",cs_neg_ns_new,"(0.7, 0.5)",cs_pos_s,0,0,0,0,,,,,,,,,,,,,,,,,,,,,,,,,,,,,0,2,2,27,0,0,0,0,,,,,,,,,,,,,,,441,reward,,,,,,1339.081236500002,1339.081236500002,1339.081236500002,1339.081236500002,0,,,1,0.4670190999895567,0.4670228000031784,0,,,0,,,1339.5535167000053,1339.5535167000053,1339.5535167000053,1339.5535167000053,26,B,2024-05-01_11h26.48.986,attentional_competition_task,2022.2.4,143.98516375297655,
positions.xlsx,positions_test.xlsx,positions_test_new.xlsx,stimuli.xlsx,stimuli_new.xlsx,stimuli/Social2.png,stimuli/Social1.png,stimuli/Nonsocial2.png,stimuli/Nonsocial1.png,stimuli/Social4.png,stimuli/Social3.png,stimuli/Nonsocial4.png,stimuli/Nonsocial3.png,,,"(-0.7, -0.5)",cs_neg_s,"(-0.7, 0.5)",cs_pos_ns,"(0.7, -0.5)",cs_neg_ns_new,"(0.7, 0.5)",cs_pos_s,0,0,0,0,,,,,,,,,,,,,,,,,,,,,,,,,,,,,0,2,2,27,1,0,1,0,,,,,,,,,,,,,,,444,reward,,,,,,1340.0464680000005,1340.0464680000005,1340.0464680000005,1340.0464680000005,0,,,0,,,0,,,1,0.031193100003292784,0.03803310000512283,1340.0951138999953,1340.0951138999953,1340.0951138999953,1340.0951138999953,26,B,2024-05-01_11h26.48.986,attentional_competition_task,2022.2.4,143.98516375297655,
positions.xlsx,positions_test.xlsx,positions_test_new.xlsx,stimuli.xlsx,stimuli_new.xlsx,stimuli/Social2.png,stimuli/Social1.png,stimuli/Nonsocial2.png,stimuli/Nonsocial1.png,stimuli/Social4.png,stimuli/Social3.png,stimuli/Nonsocial4.png,stimuli/Nonsocial3.png,,,"(-0.7, -0.5)",cs_neg_s,"(-0.7, 0.5)",cs_pos_ns,"(0.7, -0.5)",cs_neg_ns_new,"(0.7, 0.5)",cs_pos_s,0,0,0,0,,,,,,,,,,,,,,,,,,,,,,,,,,,,,0,2,2,27,2,0,2,0,,,,,,,,,,,,,,,441,loss,,,,,,1340.6228682999936,1340.6228682999936,1340.6228682999936,1340.6228682999936,0,,,0,,,1,0.024154999991878867,0.02415909999399446,0,,,1340.6228682999936,1340.6228682999936,1340.6228682999936,1340.6228682999936,26,B,2024-05-01_11h26.48.986,attentional_competition_task,2022.2.4,143.98516375297655,
positions.xlsx,positions_test.xlsx,positions_test_new.xlsx,stimuli.xlsx,stimuli_new.xlsx,stimuli/Social2.png,stimuli/Social1.png,stimuli/Nonsocial2.png,stimuli/Nonsocial1.png,stimuli/Social4.png,stimuli/Social3.png,stimuli/Nonsocial4.png,stimuli/Nonsocial3.png,,,"(-0.7, -0.5)",cs_neg_s,"(-0.7, 0.5)",cs_pos_ns,"(0.7, -0.5)",cs_neg_ns_new,"(0.7, 0.5)",cs_pos_s,0,0,0,0,,,,,,,,,,,,,,,,,,,,,,,,,,,,,0,2,2,27,,,,,,,,,,,,,,,,,,,,,,,,,,,,,,,,,,,,,,,,,,,,,,26,B,2024-05-01_11h26.48.986,attentional_competition_task,2022.2.4,143.98516375297655,
positions.xlsx,positions_test.xlsx,positions_test_new.xlsx,stimuli.xlsx,stimuli_new.xlsx,stimuli/Social2.png,stimuli/Social1.png,stimuli/Nonsocial2.png,stimuli/Nonsocial1.png,stimuli/Social4.png,stimuli/Social3.png,stimuli/Nonsocial4.png,stimuli/Nonsocial3.png,,,"(-0.7, -0.5)",cs_neg_s,"(-0.7, 0.5)",cs_neg_ns,"(0.7, -0.5)",cs_pos_s,"(0.7, 0.5)",cs_pos_ns,0,0,0,0,,,,,,,,,,,,,,,,,,,,,,,,,,,,,0,3,3,4,0,0,0,0,,,,,,,,,,,,,,,444,reward,,,,,,1348.4628121999995,1348.4628121999995,1348.4628121999995,1348.4628121999995,0,,,0,,,0,,,1,0.3911264000053052,0.3911303000058979,1348.8586619999987,1348.8586619999987,1348.8586619999987,1348.8586619999987,26,B,2024-05-01_11h26.48.986,attentional_competition_task,2022.2.4,143.98516375297655,
positions.xlsx,positions_test.xlsx,positions_test_new.xlsx,stimuli.xlsx,stimuli_new.xlsx,stimuli/Social2.png,stimuli/Social1.png,stimuli/Nonsocial2.png,stimuli/Nonsocial1.png,stimuli/Social4.png,stimuli/Social3.png,stimuli/Nonsocial4.png,stimuli/Nonsocial3.png,,,"(-0.7, -0.5)",cs_neg_s,"(-0.7, 0.5)",cs_neg_ns,"(0.7, -0.5)",cs_pos_s,"(0.7, 0.5)",cs_pos_ns,0,0,0,0,,,,,,,,,,,,,,,,,,,,,,,,,,,,,0,3,3,4,1,0,1,0,,,,,,,,,,,,,,,447,reward,,,,,,1349.393366599994,1349.393366599994,1349.393366599994,1349.393366599994,0,,,0,,,1,0.03129179999814369,0.03129579999949783,0,,,1349.393366599994,1349.393366599994,1349.393366599994,1349.393366599994,26,B,2024-05-01_11h26.48.986,attentional_competition_task,2022.2.4,143.98516375297655,
positions.xlsx,positions_test.xlsx,positions_test_new.xlsx,stimuli.xlsx,stimuli_new.xlsx,stimuli/Social2.png,stimuli/Social1.png,stimuli/Nonsocial2.png,stimuli/Nonsocial1.png,stimuli/Social4.png,stimuli/Social3.png,stimuli/Nonsocial4.png,stimuli/Nonsocial3.png,,,"(-0.7, -0.5)",cs_neg_s,"(-0.7, 0.5)",cs_neg_ns,"(0.7, -0.5)",cs_pos_s,"(0.7, 0.5)",cs_pos_ns,0,0,0,0,,,,,,,,,,,,,,,,,,,,,,,,,,,,,0,3,3,4,2,0,2,0,,,,,,,,,,,,,,,450,reward,,,,,,1349.9002522999945,1349.9002522999945,1349.9002522999945,1349.9002522999945,0,,,0,,,0,,,0,,,1350.976621599999,1350.976621599999,1350.976621599999,1350.976621599999,26,B,2024-05-01_11h26.48.986,attentional_competition_task,2022.2.4,143.98516375297655,
positions.xlsx,positions_test.xlsx,positions_test_new.xlsx,stimuli.xlsx,stimuli_new.xlsx,stimuli/Social2.png,stimuli/Social1.png,stimuli/Nonsocial2.png,stimuli/Nonsocial1.png,stimuli/Social4.png,stimuli/Social3.png,stimuli/Nonsocial4.png,stimuli/Nonsocial3.png,,,"(-0.7, -0.5)",cs_neg_s,"(-0.7, 0.5)",cs_neg_ns,"(0.7, -0.5)",cs_pos_s,"(0.7, 0.5)",cs_pos_ns,0,0,0,0,,,,,,,,,,,,,,,,,,,,,,,,,,,,,0,3,3,4,,,,,,,,,,,,,,,,,,,,,,,,,,,,,,,,,,,,,,,,,,,,,,26,B,2024-05-01_11h26.48.986,attentional_competition_task,2022.2.4,143.98516375297655,
positions.xlsx,positions_test.xlsx,positions_test_new.xlsx,stimuli.xlsx,stimuli_new.xlsx,stimuli/Social2.png,stimuli/Social1.png,stimuli/Nonsocial2.png,stimuli/Nonsocial1.png,stimuli/Social4.png,stimuli/Social3.png,stimuli/Nonsocial4.png,stimuli/Nonsocial3.png,,,"(-0.7, -0.5)",cs_neg_s,"(-0.7, 0.5)",cs_neg_ns,"(0.7, -0.5)",cs_pos_ns,"(0.7, 0.5)",cs_pos_s_new,0,0,0,0,,,,,,,,,,,,,,,,,,,,,,,,,,,,,0,4,4,32,0,0,0,0,,,,,,,,,,,,,,,453,reward,,,,,,1357.420790499993,1357.420790499993,1357.420790499993,1357.420790499993,0,,,0,,,0,,,1,0.46119390000239946,0.46793220000108704,1357.8930189999955,1357.8930189999955,1357.8930189999955,1357.8930189999955,26,B,2024-05-01_11h26.48.986,attentional_competition_task,2022.2.4,143.98516375297655,
positions.xlsx,positions_test.xlsx,positions_test_new.xlsx,stimuli.xlsx,stimuli_new.xlsx,stimuli/Social2.png,stimuli/Social1.png,stimuli/Nonsocial2.png,stimuli/Nonsocial1.png,stimuli/Social4.png,stimuli/Social3.png,stimuli/Nonsocial4.png,stimuli/Nonsocial3.png,,,"(-0.7, -0.5)",cs_neg_s,"(-0.7, 0.5)",cs_neg_ns,"(0.7, -0.5)",cs_pos_ns,"(0.7, 0.5)",cs_pos_s_new,0,0,0,0,,,,,,,,,,,,,,,,,,,,,,,,,,,,,0,4,4,32,1,0,1,0,,,,,,,,,,,,,,,456,reward,,,,,,1358.4276834000048,1358.4276834000048,1358.4276834000048,1358.4276834000048,0,,,0,,,1,0.029213200003141537,0.02921720000449568,0,,,1358.4276834000048,1358.4276834000048,1358.4276834000048,1358.4276834000048,26,B,2024-05-01_11h26.48.986,attentional_competition_task,2022.2.4,143.98516375297655,
positions.xlsx,positions_test.xlsx,positions_test_new.xlsx,stimuli.xlsx,stimuli_new.xlsx,stimuli/Social2.png,stimuli/Social1.png,stimuli/Nonsocial2.png,stimuli/Nonsocial1.png,stimuli/Social4.png,stimuli/Social3.png,stimuli/Nonsocial4.png,stimuli/Nonsocial3.png,,,"(-0.7, -0.5)",cs_neg_s,"(-0.7, 0.5)",cs_neg_ns,"(0.7, -0.5)",cs_pos_ns,"(0.7, 0.5)",cs_pos_s_new,0,0,0,0,,,,,,,,,,,,,,,,,,,,,,,,,,,,,0,4,4,32,2,0,2,0,,,,,,,,,,,,,,,459,reward,,,,,,1358.934631199998,1358.934631199998,1358.934631199998,1358.934631199998,0,,,0,,,0,,,0,,,1359.9345974000025,1359.9345974000025,1359.9345974000025,1359.9345974000025,26,B,2024-05-01_11h26.48.986,attentional_competition_task,2022.2.4,143.98516375297655,
positions.xlsx,positions_test.xlsx,positions_test_new.xlsx,stimuli.xlsx,stimuli_new.xlsx,stimuli/Social2.png,stimuli/Social1.png,stimuli/Nonsocial2.png,stimuli/Nonsocial1.png,stimuli/Social4.png,stimuli/Social3.png,stimuli/Nonsocial4.png,stimuli/Nonsocial3.png,,,"(-0.7, -0.5)",cs_neg_s,"(-0.7, 0.5)",cs_neg_ns,"(0.7, -0.5)",cs_pos_ns,"(0.7, 0.5)",cs_pos_s_new,0,0,0,0,,,,,,,,,,,,,,,,,,,,,,,,,,,,,0,4,4,32,,,,,,,,,,,,,,,,,,,,,,,,,,,,,,,,,,,,,,,,,,,,,,26,B,2024-05-01_11h26.48.986,attentional_competition_task,2022.2.4,143.98516375297655,
positions.xlsx,positions_test.xlsx,positions_test_new.xlsx,stimuli.xlsx,stimuli_new.xlsx,stimuli/Social2.png,stimuli/Social1.png,stimuli/Nonsocial2.png,stimuli/Nonsocial1.png,stimuli/Social4.png,stimuli/Social3.png,stimuli/Nonsocial4.png,stimuli/Nonsocial3.png,,,"(-0.7, -0.5)",cs_neg_ns,"(-0.7, 0.5)",cs_neg_s,"(0.7, -0.5)",cs_pos_ns,"(0.7, 0.5)",cs_pos_s,0,0,0,0,,,,,,,,,,,,,,,,,,,,,,,,,,,,,0,5,5,1,0,0,0,0,,,,,,,,,,,,,,,462,reward,,,,,,1366.448268799999,1366.448268799999,1366.448268799999,1366.448268799999,0,,,0,,,1,0.258637799997814,0.2658009000006132,0,,,1366.7190607999946,1366.7190607999946,1366.7190607999946,1366.7190607999946,26,B,2024-05-01_11h26.48.986,attentional_competition_task,2022.2.4,143.98516375297655,
positions.xlsx,positions_test.xlsx,positions_test_new.xlsx,stimuli.xlsx,stimuli_new.xlsx,stimuli/Social2.png,stimuli/Social1.png,stimuli/Nonsocial2.png,stimuli/Nonsocial1.png,stimuli/Social4.png,stimuli/Social3.png,stimuli/Nonsocial4.png,stimuli/Nonsocial3.png,,,"(-0.7, -0.5)",cs_neg_ns,"(-0.7, 0.5)",cs_neg_s,"(0.7, -0.5)",cs_pos_ns,"(0.7, 0.5)",cs_pos_s,0,0,0,0,,,,,,,,,,,,,,,,,,,,,,,,,,,,,0,5,5,1,1,0,1,0,,,,,,,,,,,,,,,465,reward,,,,,,1367.2467697999964,1367.2467697999964,1367.2467697999964,1367.2467697999964,0,,,0,,,0,,,1,0.022889100000611506,0.0228930000012042,1367.2467697999964,1367.2467697999964,1367.2467697999964,1367.2467697999964,26,B,2024-05-01_11h26.48.986,attentional_competition_task,2022.2.4,143.98516375297655,
positions.xlsx,positions_test.xlsx,positions_test_new.xlsx,stimuli.xlsx,stimuli_new.xlsx,stimuli/Social2.png,stimuli/Social1.png,stimuli/Nonsocial2.png,stimuli/Nonsocial1.png,stimuli/Social4.png,stimuli/Social3.png,stimuli/Nonsocial4.png,stimuli/Nonsocial3.png,,,"(-0.7, -0.5)",cs_neg_ns,"(-0.7, 0.5)",cs_neg_s,"(0.7, -0.5)",cs_pos_ns,"(0.7, 0.5)",cs_pos_s,0,0,0,0,,,,,,,,,,,,,,,,,,,,,,,,,,,,,0,5,5,1,2,0,2,0,,,,,,,,,,,,,,,468,reward,,,,,,1367.746749500002,1367.746749500002,1367.746749500002,1367.746749500002,0,,,0,,,0,,,0,,,1368.9620460000006,1368.9620460000006,1368.9620460000006,1368.9620460000006,26,B,2024-05-01_11h26.48.986,attentional_competition_task,2022.2.4,143.98516375297655,
positions.xlsx,positions_test.xlsx,positions_test_new.xlsx,stimuli.xlsx,stimuli_new.xlsx,stimuli/Social2.png,stimuli/Social1.png,stimuli/Nonsocial2.png,stimuli/Nonsocial1.png,stimuli/Social4.png,stimuli/Social3.png,stimuli/Nonsocial4.png,stimuli/Nonsocial3.png,,,"(-0.7, -0.5)",cs_neg_ns,"(-0.7, 0.5)",cs_neg_s,"(0.7, -0.5)",cs_pos_ns,"(0.7, 0.5)",cs_pos_s,0,0,0,0,,,,,,,,,,,,,,,,,,,,,,,,,,,,,0,5,5,1,,,,,,,,,,,,,,,,,,,,,,,,,,,,,,,,,,,,,,,,,,,,,,26,B,2024-05-01_11h26.48.986,attentional_competition_task,2022.2.4,143.98516375297655,
positions.xlsx,positions_test.xlsx,positions_test_new.xlsx,stimuli.xlsx,stimuli_new.xlsx,stimuli/Social2.png,stimuli/Social1.png,stimuli/Nonsocial2.png,stimuli/Nonsocial1.png,stimuli/Social4.png,stimuli/Social3.png,stimuli/Nonsocial4.png,stimuli/Nonsocial3.png,,,"(-0.7, -0.5)",cs_pos_s,"(-0.7, 0.5)",cs_neg_s,"(0.7, -0.5)",cs_pos_ns_new,"(0.7, 0.5)",cs_neg_ns,0,0,0,0,,,,,,,,,,,,,,,,,,,,,,,,,,,,,0,6,6,43,0,0,0,0,,,,,,,,,,,,,,,465,loss,,,,,,1374.6840242000035,1374.6840242000035,1374.6840242000035,1374.6840242000035,0,,,0,,,0,,,1,0.9887938999891048,0.9961335999978473,1375.6839306000038,1375.6839306000038,1375.6839306000038,1375.6839306000038,26,B,2024-05-01_11h26.48.986,attentional_competition_task,2022.2.4,143.98516375297655,
positions.xlsx,positions_test.xlsx,positions_test_new.xlsx,stimuli.xlsx,stimuli_new.xlsx,stimuli/Social2.png,stimuli/Social1.png,stimuli/Nonsocial2.png,stimuli/Nonsocial1.png,stimuli/Social4.png,stimuli/Social3.png,stimuli/Nonsocial4.png,stimuli/Nonsocial3.png,,,"(-0.7, -0.5)",cs_pos_s,"(-0.7, 0.5)",cs_neg_s,"(0.7, -0.5)",cs_pos_ns_new,"(0.7, 0.5)",cs_neg_ns,0,0,0,0,,,,,,,,,,,,,,,,,,,,,,,,,,,,,0,6,6,43,1,0,1,0,,,,,,,,,,,,,,,468,reward,,,,,,1376.211722299995,1376.211722299995,1376.211722299995,1376.211722299995,0,,,0,,,1,0.027739700002712198,0.027743300001020543,0,,,1376.211722299995,1376.211722299995,1376.211722299995,1376.211722299995,26,B,2024-05-01_11h26.48.986,attentional_competition_task,2022.2.4,143.98516375297655,
positions.xlsx,positions_test.xlsx,positions_test_new.xlsx,stimuli.xlsx,stimuli_new.xlsx,stimuli/Social2.png,stimuli/Social1.png,stimuli/Nonsocial2.png,stimuli/Nonsocial1.png,stimuli/Social4.png,stimuli/Social3.png,stimuli/Nonsocial4.png,stimuli/Nonsocial3.png,,,"(-0.7, -0.5)",cs_pos_s,"(-0.7, 0.5)",cs_neg_s,"(0.7, -0.5)",cs_pos_ns_new,"(0.7, 0.5)",cs_neg_ns,0,0,0,0,,,,,,,,,,,,,,,,,,,,,,,,,,,,,0,6,6,43,,,,,,,,,,,,,,,,,,,,,,,,,,,,,,,,,,,,,,,,,,,,,,26,B,2024-05-01_11h26.48.986,attentional_competition_task,2022.2.4,143.98516375297655,
positions.xlsx,positions_test.xlsx,positions_test_new.xlsx,stimuli.xlsx,stimuli_new.xlsx,stimuli/Social2.png,stimuli/Social1.png,stimuli/Nonsocial2.png,stimuli/Nonsocial1.png,stimuli/Social4.png,stimuli/Social3.png,stimuli/Nonsocial4.png,stimuli/Nonsocial3.png,,,"(-0.7, -0.5)",cs_pos_ns_new,"(-0.7, 0.5)",cs_neg_s,"(0.7, -0.5)",cs_pos_s,"(0.7, 0.5)",cs_neg_ns,0,0,0,0,,,,,,,,,,,,,,,,,,,,,,,,,,,,,0,7,7,44,0,0,0,0,,,,,,,,,,,,,,,471,reward,,,,,,1383.551701599994,1383.551701599994,1383.551701599994,1383.551701599994,1,0.5782336999982363,0.5851855999935651,0,,,0,,,0,,,1384.141968099997,1384.141968099997,1384.141968099997,1384.141968099997,26,B,2024-05-01_11h26.48.986,attentional_competition_task,2022.2.4,143.98516375297655,
positions.xlsx,positions_test.xlsx,positions_test_new.xlsx,stimuli.xlsx,stimuli_new.xlsx,stimuli/Social2.png,stimuli/Social1.png,stimuli/Nonsocial2.png,stimuli/Nonsocial1.png,stimuli/Social4.png,stimuli/Social3.png,stimuli/Nonsocial4.png,stimuli/Nonsocial3.png,,,"(-0.7, -0.5)",cs_pos_ns_new,"(-0.7, 0.5)",cs_neg_s,"(0.7, -0.5)",cs_pos_s,"(0.7, 0.5)",cs_neg_ns,0,0,0,0,,,,,,,,,,,,,,,,,,,,,,,,,,,,,0,7,7,44,1,0,1,0,,,,,,,,,,,,,,,474,reward,,,,,,1384.641904499993,1384.641904499993,1384.641904499993,1384.641904499993,1,0.028693200001725927,0.09215949999634176,0,,,1,0.2735639999882551,0.28026739999768324,0,,,1384.933598100004,1384.933598100004,1384.933598100004,1384.933598100004,26,B,2024-05-01_11h26.48.986,attentional_competition_task,2022.2.4,143.98516375297655,
positions.xlsx,positions_test.xlsx,positions_test_new.xlsx,stimuli.xlsx,stimuli_new.xlsx,stimuli/Social2.png,stimuli/Social1.png,stimuli/Nonsocial2.png,stimuli/Nonsocial1.png,stimuli/Social4.png,stimuli/Social3.png,stimuli/Nonsocial4.png,stimuli/Nonsocial3.png,,,"(-0.7, -0.5)",cs_pos_ns_new,"(-0.7, 0.5)",cs_neg_s,"(0.7, -0.5)",cs_pos_s,"(0.7, 0.5)",cs_neg_ns,0,0,0,0,,,,,,,,,,,,,,,,,,,,,,,,,,,,,0,7,7,44,2,0,2,0,,,,,,,,,,,,,,,471,loss,,,,,,1385.4544254999928,1385.4544254999928,1385.4544254999928,1385.4544254999928,0,,,0,,,0,,,1,0.024381600000197068,0.02438560000155121,1385.4544254999928,1385.4544254999928,1385.4544254999928,1385.4544254999928,26,B,2024-05-01_11h26.48.986,attentional_competition_task,2022.2.4,143.98516375297655,
positions.xlsx,positions_test.xlsx,positions_test_new.xlsx,stimuli.xlsx,stimuli_new.xlsx,stimuli/Social2.png,stimuli/Social1.png,stimuli/Nonsocial2.png,stimuli/Nonsocial1.png,stimuli/Social4.png,stimuli/Social3.png,stimuli/Nonsocial4.png,stimuli/Nonsocial3.png,,,"(-0.7, -0.5)",cs_pos_ns_new,"(-0.7, 0.5)",cs_neg_s,"(0.7, -0.5)",cs_pos_s,"(0.7, 0.5)",cs_neg_ns,0,0,0,0,,,,,,,,,,,,,,,,,,,,,,,,,,,,,0,7,7,44,,,,,,,,,,,,,,,,,,,,,,,,,,,,,,,,,,,,,,,,,,,,,,26,B,2024-05-01_11h26.48.986,attentional_competition_task,2022.2.4,143.98516375297655,
positions.xlsx,positions_test.xlsx,positions_test_new.xlsx,stimuli.xlsx,stimuli_new.xlsx,stimuli/Social2.png,stimuli/Social1.png,stimuli/Nonsocial2.png,stimuli/Nonsocial1.png,stimuli/Social4.png,stimuli/Social3.png,stimuli/Nonsocial4.png,stimuli/Nonsocial3.png,,,"(-0.7, -0.5)",cs_pos_ns,"(-0.7, 0.5)",cs_neg_s_new,"(0.7, -0.5)",cs_pos_s,"(0.7, 0.5)",cs_neg_ns,0,0,0,0,,,,,,,,,,,,,,,,,,,,,,,,,,,,,0,8,8,15,0,0,0,0,,,,,,,,,,,,,,,474,reward,,,,,,1392.4333044999948,1392.4333044999948,1392.4333044999948,1392.4333044999948,1,0.543765299997176,0.5519978999946034,0,,,0,,,0,,,1393.0027057999978,1393.0027057999978,1393.0027057999978,1393.0027057999978,26,B,2024-05-01_11h26.48.986,attentional_competition_task,2022.2.4,143.98516375297655,
