posFile,posFileTest,posFileTestNew,stimFile,stimFileNew,cs_neg_s,cs_pos_s,cs_neg_ns,cs_pos_ns,cs_neg_s_new,cs_pos_s_new,cs_neg_ns_new,cs_pos_ns_new,stim,position,position1,stim1,position2,stim2,position3,stim3,position4,stim4,blocks.thisRepN,blocks.thisTrialN,blocks.thisN,blocks.thisIndex,ratingtrials1.thisRepN,ratingtrials1.thisTrialN,ratingtrials1.thisN,ratingtrials1.thisIndex,search_task_trials.thisRepN,search_task_trials.thisTrialN,search_task_trials.thisN,search_task_trials.thisIndex,learning_trials.thisRepN,learning_trials.thisTrialN,learning_trials.thisN,learning_trials.thisIndex,trials.thisRepN,trials.thisTrialN,trials.thisN,trials.thisIndex,ratingtrials2.thisRepN,ratingtrials2.thisTrialN,ratingtrials2.thisN,ratingtrials2.thisIndex,testtrials.thisRepN,testtrials.thisTrialN,testtrials.thisN,testtrials.thisIndex,loop_test.thisRepN,loop_test.thisTrialN,loop_test.thisN,loop_test.thisIndex,testtrials_novelty.thisRepN,testtrials_novelty.thisTrialN,testtrials_novelty.thisN,testtrials_novelty.thisIndex,loop_test_novelty.thisRepN,loop_test_novelty.thisTrialN,loop_test_novelty.thisN,loop_test_novelty.thisIndex,ratingtrials3.thisRepN,ratingtrials3.thisTrialN,ratingtrials3.thisN,ratingtrials3.thisIndex,textStart.started,textStartExp.started,imageRating.started,sliderStim.response,sliderStim.rt,textStartSearch.started,target_positions,distractor_positions,textStartTask.started,image.started,score,outcome,roi.numLooks,roi.timesOn,roi.timesOff,imageFeedback.started,textTestInstr.started,test_image1.started,test_image2.started,test_image3.started,test_image4.started,test_roi1.numLooks,test_roi1.timesOn,test_roi1.timesOff,test_roi2.numLooks,test_roi2.timesOn,test_roi2.timesOff,test_roi3.numLooks,test_roi3.timesOn,test_roi3.timesOff,test_roi4.numLooks,test_roi4.timesOn,test_roi4.timesOff,test_image_feedback1.started,test_image_feedback2.started,test_iamge_feedback3.started,test_iamge_feedback4.started,participant,group,date,expName,psychopyVersion,frameRate,
positions.xlsx,positions_test.xlsx,positions_test_new.xlsx,stimuli.xlsx,stimuli_new.xlsx,stimuli/Social1.png,stimuli/Social2.png,stimuli/Nonsocial1.png,stimuli/Nonsocial2.png,stimuli/Social3.png,stimuli/Social4.png,stimuli/Nonsocial3.png,stimuli/Nonsocial4.png,cs_pos_s,,,,,,,,,,0,0,0,0,0,0,0,2,,,,,,,,,,,,,,,,,,,,,,,,,,,,,,,,,,,,,11.966039299964905,106.73116209998261,117.64807969995309,6.0,8.063310400000773,,,,,,,,,,,,,,,,,,,,,,,,,,,,,,,,,51,A,2024-05-22_16h31.12.725,attentional_competition_task,2022.2.4,144.01025355448053,
positions.xlsx,positions_test.xlsx,positions_test_new.xlsx,stimuli.xlsx,stimuli_new.xlsx,stimuli/Social1.png,stimuli/Social2.png,stimuli/Nonsocial1.png,stimuli/Nonsocial2.png,stimuli/Social3.png,stimuli/Social4.png,stimuli/Nonsocial3.png,stimuli/Nonsocial4.png,cs_neg_ns,,,,,,,,,,0,0,0,0,0,1,1,1,,,,,,,,,,,,,,,,,,,,,,,,,,,,,,,,,,,,,,,126.95326589990873,4.0,3.116876299958676,,,,,,,,,,,,,,,,,,,,,,,,,,,,,,,,,51,A,2024-05-22_16h31.12.725,attentional_competition_task,2022.2.4,144.01025355448053,
positions.xlsx,positions_test.xlsx,positions_test_new.xlsx,stimuli.xlsx,stimuli_new.xlsx,stimuli/Social1.png,stimuli/Social2.png,stimuli/Nonsocial1.png,stimuli/Nonsocial2.png,stimuli/Social3.png,stimuli/Social4.png,stimuli/Nonsocial3.png,stimuli/Nonsocial4.png,cs_pos_ns,,,,,,,,,,0,0,0,0,0,2,2,3,,,,,,,,,,,,,,,,,,,,,,,,,,,,,,,,,,,,,,,130.71004699997138,7.0,2.7858871000353247,,,,,,,,,,,,,,,,,,,,,,,,,,,,,,,,,51,A,2024-05-22_16h31.12.725,attentional_competition_task,2022.2.4,144.01025355448053,
positions.xlsx,positions_test.xlsx,positions_test_new.xlsx,stimuli.xlsx,stimuli_new.xlsx,stimuli/Social1.png,stimuli/Social2.png,stimuli/Nonsocial1.png,stimuli/Nonsocial2.png,stimuli/Social3.png,stimuli/Social4.png,stimuli/Nonsocial3.png,stimuli/Nonsocial4.png,cs_neg_s,,,,,,,,,,0,0,0,0,0,3,3,0,,,,,,,,,,,,,,,,,,,,,,,,,,,,,,,,,,,,,,,133.83490609994624,5.0,3.0160899000475183,,,,,,,,,,,,,,,,,,,,,,,,,,,,,,,,,51,A,2024-05-22_16h31.12.725,attentional_competition_task,2022.2.4,144.01025355448053,
positions.xlsx,positions_test.xlsx,positions_test_new.xlsx,stimuli.xlsx,stimuli_new.xlsx,stimuli/Social1.png,stimuli/Social2.png,stimuli/Nonsocial1.png,stimuli/Nonsocial2.png,stimuli/Social3.png,stimuli/Social4.png,stimuli/Nonsocial3.png,stimuli/Nonsocial4.png,,,,,,,,,,,0,0,0,0,,,,,0,0,0,0,,,,,,,,,,,,,,,,,,,,,,,,,,,,,,,,,,,,,,137.0917153999908,"[[-0.45, 0.19999999999999996], [-0.9, -0.30000000000000004], [0.9, -0.8], [-0.9, -0.8], [0.45000000000000007, 0.7], [0.6749999999999999, 0.7], [0.22499999999999998, -0.30000000000000004], [0.0, 0.7], [-0.22499999999999998, 0.7], [0.45000000000000007, 0.19999999999999996], [0.6749999999999999, 0.19999999999999996], [0.0, -0.30000000000000004], [-0.675, -0.8], [0.9, 0.19999999999999996], [-0.22499999999999998, 0.19999999999999996]]","[[-0.45, 0.7], [-0.22499999999999998, -0.30000000000000004], [0.45000000000000007, -0.30000000000000004], [-0.45, -0.8], [-0.9, 0.7], [0.9, -0.30000000000000004], [0.22499999999999998, 0.19999999999999996], [-0.9, 0.19999999999999996], [0.0, 0.19999999999999996], [0.6749999999999999, -0.8], [-0.675, 0.19999999999999996], [0.22499999999999998, -0.8], [0.0, -0.8], [-0.675, -0.30000000000000004], [-0.22499999999999998, -0.8]]",,,,,,,,,,,,,,,,,,,,,,,,,,,,,,51,A,2024-05-22_16h31.12.725,attentional_competition_task,2022.2.4,144.01025355448053,
positions.xlsx,positions_test.xlsx,positions_test_new.xlsx,stimuli.xlsx,stimuli_new.xlsx,stimuli/Social1.png,stimuli/Social2.png,stimuli/Nonsocial1.png,stimuli/Nonsocial2.png,stimuli/Social3.png,stimuli/Social4.png,stimuli/Nonsocial3.png,stimuli/Nonsocial4.png,,,,,,,,,,,0,0,0,0,,,,,1,0,1,0,,,,,,,,,,,,,,,,,,,,,,,,,,,,,,,,,,,,,,,"[[-0.675, -0.30000000000000004], [0.9, -0.30000000000000004], [-0.22499999999999998, -0.30000000000000004], [0.45000000000000007, -0.30000000000000004], [0.6749999999999999, -0.30000000000000004], [0.45000000000000007, 0.19999999999999996], [0.6749999999999999, 0.7], [-0.675, -0.8], [-0.45, -0.8], [0.22499999999999998, -0.8], [0.9, 0.19999999999999996], [-0.675, 0.19999999999999996], [-0.45, 0.7], [0.22499999999999998, -0.30000000000000004], [0.0, 0.7]]","[[-0.22499999999999998, 0.19999999999999996], [0.45000000000000007, -0.8], [0.0, -0.8], [-0.9, -0.8], [0.22499999999999998, 0.19999999999999996], [-0.9, 0.7], [0.22499999999999998, 0.7], [0.45000000000000007, 0.7], [0.9, 0.7], [-0.45, -0.30000000000000004], [-0.9, 0.19999999999999996], [0.0, -0.30000000000000004], [0.0, 0.19999999999999996], [-0.45, 0.19999999999999996], [-0.9, -0.30000000000000004]]",,,,,,,,,,,,,,,,,,,,,,,,,,,,,,51,A,2024-05-22_16h31.12.725,attentional_competition_task,2022.2.4,144.01025355448053,
positions.xlsx,positions_test.xlsx,positions_test_new.xlsx,stimuli.xlsx,stimuli_new.xlsx,stimuli/Social1.png,stimuli/Social2.png,stimuli/Nonsocial1.png,stimuli/Nonsocial2.png,stimuli/Social3.png,stimuli/Social4.png,stimuli/Nonsocial3.png,stimuli/Nonsocial4.png,cs_pos_ns,"(0.7, -0.5)",,,,,,,,,0,0,0,0,,,,,,,,,0,0,0,15,,,,,,,,,,,,,,,,,,,,,,,,,,,,,,,,,,,,,220.84527609997895,251.9273749999702,3,reward,1,0.23614050005562603,0.2361439000815153,252.17037730000447,,,,,,,,,,,,,,,,,,,,,,51,A,2024-05-22_16h31.12.725,attentional_competition_task,2022.2.4,144.01025355448053,
positions.xlsx,positions_test.xlsx,positions_test_new.xlsx,stimuli.xlsx,stimuli_new.xlsx,stimuli/Social1.png,stimuli/Social2.png,stimuli/Nonsocial1.png,stimuli/Nonsocial2.png,stimuli/Social3.png,stimuli/Social4.png,stimuli/Nonsocial3.png,stimuli/Nonsocial4.png,cs_neg_s,"(0.7, 0.5)",,,,,,,,,0,0,0,0,,,,,,,,,0,1,1,2,,,,,,,,,,,,,,,,,,,,,,,,,,,,,,,,,,,,,,259.9409202999668,0,loss,1,0.2363935000030324,0.23639710003044456,260.1839726999169,,,,,,,,,,,,,,,,,,,,,,51,A,2024-05-22_16h31.12.725,attentional_competition_task,2022.2.4,144.01025355448053,
positions.xlsx,positions_test.xlsx,positions_test_new.xlsx,stimuli.xlsx,stimuli_new.xlsx,stimuli/Social1.png,stimuli/Social2.png,stimuli/Nonsocial1.png,stimuli/Nonsocial2.png,stimuli/Social3.png,stimuli/Social4.png,stimuli/Nonsocial3.png,stimuli/Nonsocial4.png,cs_neg_ns,"(-0.7, 0.5)",,,,,,,,,0,0,0,0,,,,,,,,,0,2,2,8,,,,,,,,,,,,,,,,,,,,,,,,,,,,,,,,,,,,,,268.1559135999996,-3,loss,1,0.39662210003007203,0.39662599994335324,268.5587186999619,,,,,,,,,,,,,,,,,,,,,,51,A,2024-05-22_16h31.12.725,attentional_competition_task,2022.2.4,144.01025355448053,
positions.xlsx,positions_test.xlsx,positions_test_new.xlsx,stimuli.xlsx,stimuli_new.xlsx,stimuli/Social1.png,stimuli/Social2.png,stimuli/Nonsocial1.png,stimuli/Nonsocial2.png,stimuli/Social3.png,stimuli/Social4.png,stimuli/Nonsocial3.png,stimuli/Nonsocial4.png,cs_neg_ns,"(0.7, -0.5)",,,,,,,,,0,0,0,0,,,,,,,,,0,3,3,11,,,,,,,,,,,,,,,,,,,,,,,,,,,,,,,,,,,,,,276.5028306999011,-6,loss,1,0.243298799963668,0.24330239999108016,276.75278559990693,,,,,,,,,,,,,,,,,,,,,,51,A,2024-05-22_16h31.12.725,attentional_competition_task,2022.2.4,144.01025355448053,
positions.xlsx,positions_test.xlsx,positions_test_new.xlsx,stimuli.xlsx,stimuli_new.xlsx,stimuli/Social1.png,stimuli/Social2.png,stimuli/Nonsocial1.png,stimuli/Nonsocial2.png,stimuli/Social3.png,stimuli/Social4.png,stimuli/Nonsocial3.png,stimuli/Nonsocial4.png,cs_pos_ns,"(-0.7, -0.5)",,,,,,,,,0,0,0,0,,,,,,,,,0,4,4,13,,,,,,,,,,,,,,,,,,,,,,,,,,,,,,,,,,,,,,284.37744660000317,-3,reward,1,0.6187084999401122,0.6187122999690473,285.00246039999183,,,,,,,,,,,,,,,,,,,,,,51,A,2024-05-22_16h31.12.725,attentional_competition_task,2022.2.4,144.01025355448053,
positions.xlsx,positions_test.xlsx,positions_test_new.xlsx,stimuli.xlsx,stimuli_new.xlsx,stimuli/Social1.png,stimuli/Social2.png,stimuli/Nonsocial1.png,stimuli/Nonsocial2.png,stimuli/Social3.png,stimuli/Social4.png,stimuli/Nonsocial3.png,stimuli/Nonsocial4.png,cs_pos_ns,"(-0.7, 0.5)",,,,,,,,,0,0,0,0,,,,,,,,,0,5,5,12,,,,,,,,,,,,,,,,,,,,,,,,,,,,,,,,,,,,,,292.4118205999257,0,reward,1,0.687328900094144,0.6873324000043795,293.1062746999087,,,,,,,,,,,,,,,,,,,,,,51,A,2024-05-22_16h31.12.725,attentional_competition_task,2022.2.4,144.01025355448053,
positions.xlsx,positions_test.xlsx,positions_test_new.xlsx,stimuli.xlsx,stimuli_new.xlsx,stimuli/Social1.png,stimuli/Social2.png,stimuli/Nonsocial1.png,stimuli/Nonsocial2.png,stimuli/Social3.png,stimuli/Social4.png,stimuli/Nonsocial3.png,stimuli/Nonsocial4.png,cs_pos_s,"(-0.7, -0.5)",,,,,,,,,0,0,0,0,,,,,,,,,0,6,6,5,,,,,,,,,,,,,,,,,,,,,,,,,,,,,,,,,,,,,,300.15455649991054,3,reward,1,0.8474354000063613,0.8474390000337735,301.0087389999535,,,,,,,,,,,,,,,,,,,,,,51,A,2024-05-22_16h31.12.725,attentional_competition_task,2022.2.4,144.01025355448053,
positions.xlsx,positions_test.xlsx,positions_test_new.xlsx,stimuli.xlsx,stimuli_new.xlsx,stimuli/Social1.png,stimuli/Social2.png,stimuli/Nonsocial1.png,stimuli/Nonsocial2.png,stimuli/Social3.png,stimuli/Social4.png,stimuli/Nonsocial3.png,stimuli/Nonsocial4.png,cs_pos_ns,"(0.7, 0.5)",,,,,,,,,0,0,0,0,,,,,,,,,0,7,7,14,,,,,,,,,,,,,,,,,,,,,,,,,,,,,,,,,,,,,,308.74451310001314,6,reward,1,1.0141204999526963,1.0141245999839157,309.7653058000142,,,,,,,,,,,,,,,,,,,,,,51,A,2024-05-22_16h31.12.725,attentional_competition_task,2022.2.4,144.01025355448053,
positions.xlsx,positions_test.xlsx,positions_test_new.xlsx,stimuli.xlsx,stimuli_new.xlsx,stimuli/Social1.png,stimuli/Social2.png,stimuli/Nonsocial1.png,stimuli/Nonsocial2.png,stimuli/Social3.png,stimuli/Social4.png,stimuli/Nonsocial3.png,stimuli/Nonsocial4.png,cs_neg_s,"(-0.7, 0.5)",,,,,,,,,0,0,0,0,,,,,,,,,0,8,8,0,,,,,,,,,,,,,,,,,,,,,,,,,,,,,,,,,,,,,,316.80668579996563,6,none,0,,,319.82048879994545,,,,,,,,,,,,,,,,,,,,,,51,A,2024-05-22_16h31.12.725,attentional_competition_task,2022.2.4,144.01025355448053,
positions.xlsx,positions_test.xlsx,positions_test_new.xlsx,stimuli.xlsx,stimuli_new.xlsx,stimuli/Social1.png,stimuli/Social2.png,stimuli/Nonsocial1.png,stimuli/Nonsocial2.png,stimuli/Social3.png,stimuli/Social4.png,stimuli/Nonsocial3.png,stimuli/Nonsocial4.png,cs_neg_ns,"(0.7, 0.5)",,,,,,,,,0,0,0,0,,,,,,,,,0,9,9,10,,,,,,,,,,,,,,,,,,,,,,,,,,,,,,,,,,,,,,326.5493359999964,3,loss,1,0.6741191999753937,0.6741230998886749,327.2299425000092,,,,,,,,,,,,,,,,,,,,,,51,A,2024-05-22_16h31.12.725,attentional_competition_task,2022.2.4,144.01025355448053,
positions.xlsx,positions_test.xlsx,positions_test_new.xlsx,stimuli.xlsx,stimuli_new.xlsx,stimuli/Social1.png,stimuli/Social2.png,stimuli/Nonsocial1.png,stimuli/Nonsocial2.png,stimuli/Social3.png,stimuli/Social4.png,stimuli/Nonsocial3.png,stimuli/Nonsocial4.png,cs_pos_s,"(-0.7, 0.5)",,,,,,,,,0,0,0,0,,,,,,,,,0,10,10,4,,,,,,,,,,,,,,,,,,,,,,,,,,,,,,,,,,,,,,335.4309407999972,6,reward,1,0.6806515000062063,0.6806550000328571,336.11843619996216,,,,,,,,,,,,,,,,,,,,,,51,A,2024-05-22_16h31.12.725,attentional_competition_task,2022.2.4,144.01025355448053,
positions.xlsx,positions_test.xlsx,positions_test_new.xlsx,stimuli.xlsx,stimuli_new.xlsx,stimuli/Social1.png,stimuli/Social2.png,stimuli/Nonsocial1.png,stimuli/Nonsocial2.png,stimuli/Social3.png,stimuli/Social4.png,stimuli/Nonsocial3.png,stimuli/Nonsocial4.png,cs_pos_s,"(0.7, 0.5)",,,,,,,,,0,0,0,0,,,,,,,,,0,11,11,6,,,,,,,,,,,,,,,,,,,,,,,,,,,,,,,,,,,,,,342.8334162000101,9,reward,1,0.8407786999596283,0.8407823999878019,343.6805966999382,,,,,,,,,,,,,,,,,,,,,,51,A,2024-05-22_16h31.12.725,attentional_competition_task,2022.2.4,144.01025355448053,
positions.xlsx,positions_test.xlsx,positions_test_new.xlsx,stimuli.xlsx,stimuli_new.xlsx,stimuli/Social1.png,stimuli/Social2.png,stimuli/Nonsocial1.png,stimuli/Nonsocial2.png,stimuli/Social3.png,stimuli/Social4.png,stimuli/Nonsocial3.png,stimuli/Nonsocial4.png,cs_neg_s,"(-0.7, -0.5)",,,,,,,,,0,0,0,0,,,,,,,,,0,12,12,1,,,,,,,,,,,,,,,,,,,,,,,,,,,,,,,,,,,,,,351.1733400999801,9,none,0,,,354.18715649994556,,,,,,,,,,,,,,,,,,,,,,51,A,2024-05-22_16h31.12.725,attentional_competition_task,2022.2.4,144.01025355448053,
positions.xlsx,positions_test.xlsx,positions_test_new.xlsx,stimuli.xlsx,stimuli_new.xlsx,stimuli/Social1.png,stimuli/Social2.png,stimuli/Nonsocial1.png,stimuli/Nonsocial2.png,stimuli/Social3.png,stimuli/Social4.png,stimuli/Nonsocial3.png,stimuli/Nonsocial4.png,cs_neg_ns,"(-0.7, -0.5)",,,,,,,,,0,0,0,0,,,,,,,,,0,13,13,9,,,,,,,,,,,,,,,,,,,,,,,,,,,,,,,,,,,,,,362.3257069999818,9,none,0,,,365.33253999997396,,,,,,,,,,,,,,,,,,,,,,51,A,2024-05-22_16h31.12.725,attentional_competition_task,2022.2.4,144.01025355448053,
positions.xlsx,positions_test.xlsx,positions_test_new.xlsx,stimuli.xlsx,stimuli_new.xlsx,stimuli/Social1.png,stimuli/Social2.png,stimuli/Nonsocial1.png,stimuli/Nonsocial2.png,stimuli/Social3.png,stimuli/Social4.png,stimuli/Nonsocial3.png,stimuli/Nonsocial4.png,cs_neg_s,"(0.7, -0.5)",,,,,,,,,0,0,0,0,,,,,,,,,0,14,14,3,,,,,,,,,,,,,,,,,,,,,,,,,,,,,,,,,,,,,,372.72111699997913,6,loss,1,0.222688699956052,0.22269259998574853,372.95027289993595,,,,,,,,,,,,,,,,,,,,,,51,A,2024-05-22_16h31.12.725,attentional_competition_task,2022.2.4,144.01025355448053,
positions.xlsx,positions_test.xlsx,positions_test_new.xlsx,stimuli.xlsx,stimuli_new.xlsx,stimuli/Social1.png,stimuli/Social2.png,stimuli/Nonsocial1.png,stimuli/Nonsocial2.png,stimuli/Social3.png,stimuli/Social4.png,stimuli/Nonsocial3.png,stimuli/Nonsocial4.png,cs_pos_s,"(0.7, -0.5)",,,,,,,,,0,0,0,0,,,,,,,,,0,15,15,7,,,,,,,,,,,,,,,,,,,,,,,,,,,,,,,,,,,,,,380.49161839997396,9,reward,1,0.7016021999297664,0.7016057999571785,381.1999659999274,,,,,,,,,,,,,,,,,,,,,,51,A,2024-05-22_16h31.12.725,attentional_competition_task,2022.2.4,144.01025355448053,
positions.xlsx,positions_test.xlsx,positions_test_new.xlsx,stimuli.xlsx,stimuli_new.xlsx,stimuli/Social1.png,stimuli/Social2.png,stimuli/Nonsocial1.png,stimuli/Nonsocial2.png,stimuli/Social3.png,stimuli/Social4.png,stimuli/Nonsocial3.png,stimuli/Nonsocial4.png,cs_pos_ns,"(0.7, 0.5)",,,,,,,,,0,0,0,0,,,,,,,,,1,0,16,14,,,,,,,,,,,,,,,,,,,,,,,,,,,,,,,,,,,,,,388.78294740000274,12,reward,1,0.7296199999982491,0.7296236000256613,389.51906520000193,,,,,,,,,,,,,,,,,,,,,,51,A,2024-05-22_16h31.12.725,attentional_competition_task,2022.2.4,144.01025355448053,
positions.xlsx,positions_test.xlsx,positions_test_new.xlsx,stimuli.xlsx,stimuli_new.xlsx,stimuli/Social1.png,stimuli/Social2.png,stimuli/Nonsocial1.png,stimuli/Nonsocial2.png,stimuli/Social3.png,stimuli/Social4.png,stimuli/Nonsocial3.png,stimuli/Nonsocial4.png,cs_neg_ns,"(0.7, -0.5)",,,,,,,,,0,0,0,0,,,,,,,,,1,1,17,11,,,,,,,,,,,,,,,,,,,,,,,,,,,,,,,,,,,,,,397.0395957999863,12,none,0,,,400.0533756999066,,,,,,,,,,,,,,,,,,,,,,51,A,2024-05-22_16h31.12.725,attentional_competition_task,2022.2.4,144.01025355448053,
positions.xlsx,positions_test.xlsx,positions_test_new.xlsx,stimuli.xlsx,stimuli_new.xlsx,stimuli/Social1.png,stimuli/Social2.png,stimuli/Nonsocial1.png,stimuli/Nonsocial2.png,stimuli/Social3.png,stimuli/Social4.png,stimuli/Nonsocial3.png,stimuli/Nonsocial4.png,cs_neg_s,"(-0.7, 0.5)",,,,,,,,,0,0,0,0,,,,,,,,,1,2,18,0,,,,,,,,,,,,,,,,,,,,,,,,,,,,,,,,,,,,,,406.9975293999305,12,none,0,,,410.00433269992936,,,,,,,,,,,,,,,,,,,,,,51,A,2024-05-22_16h31.12.725,attentional_competition_task,2022.2.4,144.01025355448053,
positions.xlsx,positions_test.xlsx,positions_test_new.xlsx,stimuli.xlsx,stimuli_new.xlsx,stimuli/Social1.png,stimuli/Social2.png,stimuli/Nonsocial1.png,stimuli/Nonsocial2.png,stimuli/Social3.png,stimuli/Social4.png,stimuli/Nonsocial3.png,stimuli/Nonsocial4.png,cs_pos_s,"(-0.7, -0.5)",,,,,,,,,0,0,0,0,,,,,,,,,1,3,19,5,,,,,,,,,,,,,,,,,,,,,,,,,,,,,,,,,,,,,,417.46239339991007,15,reward,1,0.7016870999941602,0.7016905999043956,418.1706994000124,,,,,,,,,,,,,,,,,,,,,,51,A,2024-05-22_16h31.12.725,attentional_competition_task,2022.2.4,144.01025355448053,
positions.xlsx,positions_test.xlsx,positions_test_new.xlsx,stimuli.xlsx,stimuli_new.xlsx,stimuli/Social1.png,stimuli/Social2.png,stimuli/Nonsocial1.png,stimuli/Nonsocial2.png,stimuli/Social3.png,stimuli/Social4.png,stimuli/Nonsocial3.png,stimuli/Nonsocial4.png,cs_neg_s,"(-0.7, -0.5)",,,,,,,,,0,0,0,0,,,,,,,,,1,4,20,1,,,,,,,,,,,,,,,,,,,,,,,,,,,,,,,,,,,,,,426.3231491999468,15,none,0,,,429.3369190999074,,,,,,,,,,,,,,,,,,,,,,51,A,2024-05-22_16h31.12.725,attentional_competition_task,2022.2.4,144.01025355448053,
positions.xlsx,positions_test.xlsx,positions_test_new.xlsx,stimuli.xlsx,stimuli_new.xlsx,stimuli/Social1.png,stimuli/Social2.png,stimuli/Nonsocial1.png,stimuli/Nonsocial2.png,stimuli/Social3.png,stimuli/Social4.png,stimuli/Nonsocial3.png,stimuli/Nonsocial4.png,cs_pos_ns,"(-0.7, -0.5)",,,,,,,,,0,0,0,0,,,,,,,,,1,5,21,13,,,,,,,,,,,,,,,,,,,,,,,,,,,,,,,,,,,,,,436.6838417999679,18,reward,1,0.7225971000734717,0.72260079998523,437.41297669999767,,,,,,,,,,,,,,,,,,,,,,51,A,2024-05-22_16h31.12.725,attentional_competition_task,2022.2.4,144.01025355448053,
positions.xlsx,positions_test.xlsx,positions_test_new.xlsx,stimuli.xlsx,stimuli_new.xlsx,stimuli/Social1.png,stimuli/Social2.png,stimuli/Nonsocial1.png,stimuli/Nonsocial2.png,stimuli/Social3.png,stimuli/Social4.png,stimuli/Nonsocial3.png,stimuli/Nonsocial4.png,cs_pos_ns,"(0.7, -0.5)",,,,,,,,,0,0,0,0,,,,,,,,,1,6,22,15,,,,,,,,,,,,,,,,,,,,,,,,,,,,,,,,,,,,,,444.8501580999,21,reward,1,0.6809699999867007,0.6809740000171587,445.53766109992284,,,,,,,,,,,,,,,,,,,,,,51,A,2024-05-22_16h31.12.725,attentional_competition_task,2022.2.4,144.01025355448053,
positions.xlsx,positions_test.xlsx,positions_test_new.xlsx,stimuli.xlsx,stimuli_new.xlsx,stimuli/Social1.png,stimuli/Social2.png,stimuli/Nonsocial1.png,stimuli/Nonsocial2.png,stimuli/Social3.png,stimuli/Social4.png,stimuli/Nonsocial3.png,stimuli/Nonsocial4.png,cs_neg_s,"(0.7, -0.5)",,,,,,,,,0,0,0,0,,,,,,,,,1,7,23,3,,,,,,,,,,,,,,,,,,,,,,,,,,,,,,,,,,,,,,453.9470389999915,21,none,0,,,456.96081009996124,,,,,,,,,,,,,,,,,,,,,,51,A,2024-05-22_16h31.12.725,attentional_competition_task,2022.2.4,144.01025355448053,
positions.xlsx,positions_test.xlsx,positions_test_new.xlsx,stimuli.xlsx,stimuli_new.xlsx,stimuli/Social1.png,stimuli/Social2.png,stimuli/Nonsocial1.png,stimuli/Nonsocial2.png,stimuli/Social3.png,stimuli/Social4.png,stimuli/Nonsocial3.png,stimuli/Nonsocial4.png,cs_pos_ns,"(-0.7, 0.5)",,,,,,,,,0,0,0,0,,,,,,,,,1,8,24,12,,,,,,,,,,,,,,,,,,,,,,,,,,,,,,,,,,,,,,465.28684119996615,24,reward,1,0.6393618000438437,0.6393655000720173,465.9326940999599,,,,,,,,,,,,,,,,,,,,,,51,A,2024-05-22_16h31.12.725,attentional_competition_task,2022.2.4,144.01025355448053,
positions.xlsx,positions_test.xlsx,positions_test_new.xlsx,stimuli.xlsx,stimuli_new.xlsx,stimuli/Social1.png,stimuli/Social2.png,stimuli/Nonsocial1.png,stimuli/Nonsocial2.png,stimuli/Social3.png,stimuli/Social4.png,stimuli/Nonsocial3.png,stimuli/Nonsocial4.png,cs_neg_s,"(0.7, 0.5)",,,,,,,,,0,0,0,0,,,,,,,,,1,9,25,2,,,,,,,,,,,,,,,,,,,,,,,,,,,,,,,,,,,,,,472.9254469999578,24,none,0,,,475.9391880999319,,,,,,,,,,,,,,,,,,,,,,51,A,2024-05-22_16h31.12.725,attentional_competition_task,2022.2.4,144.01025355448053,
positions.xlsx,positions_test.xlsx,positions_test_new.xlsx,stimuli.xlsx,stimuli_new.xlsx,stimuli/Social1.png,stimuli/Social2.png,stimuli/Nonsocial1.png,stimuli/Nonsocial2.png,stimuli/Social3.png,stimuli/Social4.png,stimuli/Nonsocial3.png,stimuli/Nonsocial4.png,cs_neg_ns,"(-0.7, -0.5)",,,,,,,,,0,0,0,0,,,,,,,,,1,10,26,9,,,,,,,,,,,,,,,,,,,,,,,,,,,,,,,,,,,,,,483.9597247999627,24,none,0,,,486.96652479993645,,,,,,,,,,,,,,,,,,,,,,51,A,2024-05-22_16h31.12.725,attentional_competition_task,2022.2.4,144.01025355448053,
positions.xlsx,positions_test.xlsx,positions_test_new.xlsx,stimuli.xlsx,stimuli_new.xlsx,stimuli/Social1.png,stimuli/Social2.png,stimuli/Nonsocial1.png,stimuli/Nonsocial2.png,stimuli/Social3.png,stimuli/Social4.png,stimuli/Nonsocial3.png,stimuli/Nonsocial4.png,cs_pos_s,"(0.7, 0.5)",,,,,,,,,0,0,0,0,,,,,,,,,1,11,27,6,,,,,,,,,,,,,,,,,,,,,,,,,,,,,,,,,,,,,,494.473204699927,27,reward,1,0.7848695999709889,0.7848731999984011,495.26484660001006,,,,,,,,,,,,,,,,,,,,,,51,A,2024-05-22_16h31.12.725,attentional_competition_task,2022.2.4,144.01025355448053,
positions.xlsx,positions_test.xlsx,positions_test_new.xlsx,stimuli.xlsx,stimuli_new.xlsx,stimuli/Social1.png,stimuli/Social2.png,stimuli/Nonsocial1.png,stimuli/Nonsocial2.png,stimuli/Social3.png,stimuli/Social4.png,stimuli/Nonsocial3.png,stimuli/Nonsocial4.png,cs_neg_ns,"(0.7, 0.5)",,,,,,,,,0,0,0,0,,,,,,,,,1,12,28,10,,,,,,,,,,,,,,,,,,,,,,,,,,,,,,,,,,,,,,502.71590389998164,27,none,0,,,505.72969319997355,,,,,,,,,,,,,,,,,,,,,,51,A,2024-05-22_16h31.12.725,attentional_competition_task,2022.2.4,144.01025355448053,
positions.xlsx,positions_test.xlsx,positions_test_new.xlsx,stimuli.xlsx,stimuli_new.xlsx,stimuli/Social1.png,stimuli/Social2.png,stimuli/Nonsocial1.png,stimuli/Nonsocial2.png,stimuli/Social3.png,stimuli/Social4.png,stimuli/Nonsocial3.png,stimuli/Nonsocial4.png,cs_pos_s,"(0.7, -0.5)",,,,,,,,,0,0,0,0,,,,,,,,,1,13,29,7,,,,,,,,,,,,,,,,,,,,,,,,,,,,,,,,,,,,,,513.2432795999339,30,reward,1,0.7780735000269488,0.77807739994023,514.0279693999328,,,,,,,,,,,,,,,,,,,,,,51,A,2024-05-22_16h31.12.725,attentional_competition_task,2022.2.4,144.01025355448053,
positions.xlsx,positions_test.xlsx,positions_test_new.xlsx,stimuli.xlsx,stimuli_new.xlsx,stimuli/Social1.png,stimuli/Social2.png,stimuli/Nonsocial1.png,stimuli/Nonsocial2.png,stimuli/Social3.png,stimuli/Social4.png,stimuli/Nonsocial3.png,stimuli/Nonsocial4.png,cs_pos_s,"(-0.7, 0.5)",,,,,,,,,0,0,0,0,,,,,,,,,1,14,30,4,,,,,,,,,,,,,,,,,,,,,,,,,,,,,,,,,,,,,,521.6804546999047,33,reward,1,0.3195308999856934,0.326710999943316,522.0137603000039,,,,,,,,,,,,,,,,,,,,,,51,A,2024-05-22_16h31.12.725,attentional_competition_task,2022.2.4,144.01025355448053,
positions.xlsx,positions_test.xlsx,positions_test_new.xlsx,stimuli.xlsx,stimuli_new.xlsx,stimuli/Social1.png,stimuli/Social2.png,stimuli/Nonsocial1.png,stimuli/Nonsocial2.png,stimuli/Social3.png,stimuli/Social4.png,stimuli/Nonsocial3.png,stimuli/Nonsocial4.png,cs_neg_ns,"(-0.7, 0.5)",,,,,,,,,0,0,0,0,,,,,,,,,1,15,31,8,,,,,,,,,,,,,,,,,,,,,,,,,,,,,,,,,,,,,,528.9162432999583,33,none,0,,,531.9300339999609,,,,,,,,,,,,,,,,,,,,,,51,A,2024-05-22_16h31.12.725,attentional_competition_task,2022.2.4,144.01025355448053,
positions.xlsx,positions_test.xlsx,positions_test_new.xlsx,stimuli.xlsx,stimuli_new.xlsx,stimuli/Social1.png,stimuli/Social2.png,stimuli/Nonsocial1.png,stimuli/Nonsocial2.png,stimuli/Social3.png,stimuli/Social4.png,stimuli/Nonsocial3.png,stimuli/Nonsocial4.png,cs_pos_s,"(-0.7, -0.5)",,,,,,,,,0,0,0,0,,,,,,,,,,,,,0,0,0,5,,,,,,,,,,,,,,,,,,,,,,,,,,,,,,,,,,579.0740038999356,36,reward,1,0.639012899948284,0.6390163999749348,579.7197804999305,,,,,,,,,,,,,,,,,,,,,,51,A,2024-05-22_16h31.12.725,attentional_competition_task,2022.2.4,144.01025355448053,
positions.xlsx,positions_test.xlsx,positions_test_new.xlsx,stimuli.xlsx,stimuli_new.xlsx,stimuli/Social1.png,stimuli/Social2.png,stimuli/Nonsocial1.png,stimuli/Nonsocial2.png,stimuli/Social3.png,stimuli/Social4.png,stimuli/Nonsocial3.png,stimuli/Nonsocial4.png,cs_neg_ns,"(-0.7, -0.5)",,,,,,,,,0,0,0,0,,,,,,,,,,,,,0,1,1,9,,,,,,,,,,,,,,,,,,,,,,,,,,,,,,,,,,587.5736655999208,36,none,0,,,590.5874373000115,,,,,,,,,,,,,,,,,,,,,,51,A,2024-05-22_16h31.12.725,attentional_competition_task,2022.2.4,144.01025355448053,
positions.xlsx,positions_test.xlsx,positions_test_new.xlsx,stimuli.xlsx,stimuli_new.xlsx,stimuli/Social1.png,stimuli/Social2.png,stimuli/Nonsocial1.png,stimuli/Nonsocial2.png,stimuli/Social3.png,stimuli/Social4.png,stimuli/Nonsocial3.png,stimuli/Nonsocial4.png,cs_pos_s,"(0.7, 0.5)",,,,,,,,,0,0,0,0,,,,,,,,,,,,,0,2,2,6,,,,,,,,,,,,,,,,,,,,,,,,,,,,,,,,,,598.9343736999435,39,reward,1,0.7362375999800861,0.7362413000082597,599.6773544999305,,,,,,,,,,,,,,,,,,,,,,51,A,2024-05-22_16h31.12.725,attentional_competition_task,2022.2.4,144.01025355448053,
positions.xlsx,positions_test.xlsx,positions_test_new.xlsx,stimuli.xlsx,stimuli_new.xlsx,stimuli/Social1.png,stimuli/Social2.png,stimuli/Nonsocial1.png,stimuli/Nonsocial2.png,stimuli/Social3.png,stimuli/Social4.png,stimuli/Nonsocial3.png,stimuli/Nonsocial4.png,cs_neg_s,"(0.7, 0.5)",,,,,,,,,0,0,0,0,,,,,,,,,,,,,0,3,3,2,,,,,,,,,,,,,,,,,,,,,,,,,,,,,,,,,,607.1423425999237,39,none,0,,,610.1560778999701,,,,,,,,,,,,,,,,,,,,,,51,A,2024-05-22_16h31.12.725,attentional_competition_task,2022.2.4,144.01025355448053,
positions.xlsx,positions_test.xlsx,positions_test_new.xlsx,stimuli.xlsx,stimuli_new.xlsx,stimuli/Social1.png,stimuli/Social2.png,stimuli/Nonsocial1.png,stimuli/Nonsocial2.png,stimuli/Social3.png,stimuli/Social4.png,stimuli/Nonsocial3.png,stimuli/Nonsocial4.png,cs_neg_ns,"(0.7, 0.5)",,,,,,,,,0,0,0,0,,,,,,,,,,,,,0,4,4,10,,,,,,,,,,,,,,,,,,,,,,,,,,,,,,,,,,616.9058409999125,39,none,0,,,619.9196008999133,,,,,,,,,,,,,,,,,,,,,,51,A,2024-05-22_16h31.12.725,attentional_competition_task,2022.2.4,144.01025355448053,
positions.xlsx,positions_test.xlsx,positions_test_new.xlsx,stimuli.xlsx,stimuli_new.xlsx,stimuli/Social1.png,stimuli/Social2.png,stimuli/Nonsocial1.png,stimuli/Nonsocial2.png,stimuli/Social3.png,stimuli/Social4.png,stimuli/Nonsocial3.png,stimuli/Nonsocial4.png,cs_pos_ns,"(-0.7, 0.5)",,,,,,,,,0,0,0,0,,,,,,,,,,,,,0,5,5,12,,,,,,,,,,,,,,,,,,,,,,,,,,,,,,,,,,627.2596309999935,42,reward,1,0.7360175000503659,0.7360211000777781,628.0026275999844,,,,,,,,,,,,,,,,,,,,,,51,A,2024-05-22_16h31.12.725,attentional_competition_task,2022.2.4,144.01025355448053,
positions.xlsx,positions_test.xlsx,positions_test_new.xlsx,stimuli.xlsx,stimuli_new.xlsx,stimuli/Social1.png,stimuli/Social2.png,stimuli/Nonsocial1.png,stimuli/Nonsocial2.png,stimuli/Social3.png,stimuli/Social4.png,stimuli/Nonsocial3.png,stimuli/Nonsocial4.png,cs_pos_ns,"(0.7, 0.5)",,,,,,,,,0,0,0,0,,,,,,,,,,,,,0,6,6,14,,,,,,,,,,,,,,,,,,,,,,,,,,,,,,,,,,634.7523530999897,45,reward,1,0.7710852000163868,0.771088800043799,635.5301255999366,,,,,,,,,,,,,,,,,,,,,,51,A,2024-05-22_16h31.12.725,attentional_competition_task,2022.2.4,144.01025355448053,
positions.xlsx,positions_test.xlsx,positions_test_new.xlsx,stimuli.xlsx,stimuli_new.xlsx,stimuli/Social1.png,stimuli/Social2.png,stimuli/Nonsocial1.png,stimuli/Nonsocial2.png,stimuli/Social3.png,stimuli/Social4.png,stimuli/Nonsocial3.png,stimuli/Nonsocial4.png,cs_neg_s,"(-0.7, 0.5)",,,,,,,,,0,0,0,0,,,,,,,,,,,,,0,7,7,0,,,,,,,,,,,,,,,,,,,,,,,,,,,,,,,,,,643.2450578999706,45,none,0,,,646.2588648999808,,,,,,,,,,,,,,,,,,,,,,51,A,2024-05-22_16h31.12.725,attentional_competition_task,2022.2.4,144.01025355448053,
positions.xlsx,positions_test.xlsx,positions_test_new.xlsx,stimuli.xlsx,stimuli_new.xlsx,stimuli/Social1.png,stimuli/Social2.png,stimuli/Nonsocial1.png,stimuli/Nonsocial2.png,stimuli/Social3.png,stimuli/Social4.png,stimuli/Nonsocial3.png,stimuli/Nonsocial4.png,cs_pos_s,"(0.7, -0.5)",,,,,,,,,0,0,0,0,,,,,,,,,,,,,0,8,8,7,,,,,,,,,,,,,,,,,,,,,,,,,,,,,,,,,,654.0015721999807,48,reward,1,0.7224616999737918,0.7224659000057727,654.7307451999513,,,,,,,,,,,,,,,,,,,,,,51,A,2024-05-22_16h31.12.725,attentional_competition_task,2022.2.4,144.01025355448053,
positions.xlsx,positions_test.xlsx,positions_test_new.xlsx,stimuli.xlsx,stimuli_new.xlsx,stimuli/Social1.png,stimuli/Social2.png,stimuli/Nonsocial1.png,stimuli/Nonsocial2.png,stimuli/Social3.png,stimuli/Social4.png,stimuli/Nonsocial3.png,stimuli/Nonsocial4.png,cs_neg_s,"(0.7, -0.5)",,,,,,,,,0,0,0,0,,,,,,,,,,,,,0,9,9,3,,,,,,,,,,,,,,,,,,,,,,,,,,,,,,,,,,662.7442803999875,48,none,0,,,665.7511581999715,,,,,,,,,,,,,,,,,,,,,,51,A,2024-05-22_16h31.12.725,attentional_competition_task,2022.2.4,144.01025355448053,
positions.xlsx,positions_test.xlsx,positions_test_new.xlsx,stimuli.xlsx,stimuli_new.xlsx,stimuli/Social1.png,stimuli/Social2.png,stimuli/Nonsocial1.png,stimuli/Nonsocial2.png,stimuli/Social3.png,stimuli/Social4.png,stimuli/Nonsocial3.png,stimuli/Nonsocial4.png,cs_pos_s,"(-0.7, 0.5)",,,,,,,,,0,0,0,0,,,,,,,,,,,,,0,10,10,4,,,,,,,,,,,,,,,,,,,,,,,,,,,,,,,,,,672.7716613999801,51,reward,1,0.6600573000032455,0.6600609000306576,673.4383033999475,,,,,,,,,,,,,,,,,,,,,,51,A,2024-05-22_16h31.12.725,attentional_competition_task,2022.2.4,144.01025355448053,
positions.xlsx,positions_test.xlsx,positions_test_new.xlsx,stimuli.xlsx,stimuli_new.xlsx,stimuli/Social1.png,stimuli/Social2.png,stimuli/Nonsocial1.png,stimuli/Nonsocial2.png,stimuli/Social3.png,stimuli/Social4.png,stimuli/Nonsocial3.png,stimuli/Nonsocial4.png,cs_neg_ns,"(-0.7, 0.5)",,,,,,,,,0,0,0,0,,,,,,,,,,,,,0,11,11,8,,,,,,,,,,,,,,,,,,,,,,,,,,,,,,,,,,681.5212896999437,48,loss,1,0.3957079000538215,0.3957115999655798,681.9241050999844,,,,,,,,,,,,,,,,,,,,,,51,A,2024-05-22_16h31.12.725,attentional_competition_task,2022.2.4,144.01025355448053,
positions.xlsx,positions_test.xlsx,positions_test_new.xlsx,stimuli.xlsx,stimuli_new.xlsx,stimuli/Social1.png,stimuli/Social2.png,stimuli/Nonsocial1.png,stimuli/Nonsocial2.png,stimuli/Social3.png,stimuli/Social4.png,stimuli/Nonsocial3.png,stimuli/Nonsocial4.png,cs_neg_s,"(-0.7, -0.5)",,,,,,,,,0,0,0,0,,,,,,,,,,,,,0,12,12,1,,,,,,,,,,,,,,,,,,,,,,,,,,,,,,,,,,689.4029573999578,48,none,0,,,692.4097706999164,,,,,,,,,,,,,,,,,,,,,,51,A,2024-05-22_16h31.12.725,attentional_competition_task,2022.2.4,144.01025355448053,
positions.xlsx,positions_test.xlsx,positions_test_new.xlsx,stimuli.xlsx,stimuli_new.xlsx,stimuli/Social1.png,stimuli/Social2.png,stimuli/Nonsocial1.png,stimuli/Nonsocial2.png,stimuli/Social3.png,stimuli/Social4.png,stimuli/Nonsocial3.png,stimuli/Nonsocial4.png,cs_neg_ns,"(0.7, -0.5)",,,,,,,,,0,0,0,0,,,,,,,,,,,,,0,13,13,11,,,,,,,,,,,,,,,,,,,,,,,,,,,,,,,,,,699.4650206000078,48,none,0,,,702.4788193999557,,,,,,,,,,,,,,,,,,,,,,51,A,2024-05-22_16h31.12.725,attentional_competition_task,2022.2.4,144.01025355448053,
positions.xlsx,positions_test.xlsx,positions_test_new.xlsx,stimuli.xlsx,stimuli_new.xlsx,stimuli/Social1.png,stimuli/Social2.png,stimuli/Nonsocial1.png,stimuli/Nonsocial2.png,stimuli/Social3.png,stimuli/Social4.png,stimuli/Nonsocial3.png,stimuli/Nonsocial4.png,cs_pos_ns,"(0.7, -0.5)",,,,,,,,,0,0,0,0,,,,,,,,,,,,,0,14,14,15,,,,,,,,,,,,,,,,,,,,,,,,,,,,,,,,,,710.2631950000068,51,reward,1,0.7293676000554115,0.7293710999656469,710.9992809999967,,,,,,,,,,,,,,,,,,,,,,51,A,2024-05-22_16h31.12.725,attentional_competition_task,2022.2.4,144.01025355448053,
positions.xlsx,positions_test.xlsx,positions_test_new.xlsx,stimuli.xlsx,stimuli_new.xlsx,stimuli/Social1.png,stimuli/Social2.png,stimuli/Nonsocial1.png,stimuli/Nonsocial2.png,stimuli/Social3.png,stimuli/Social4.png,stimuli/Nonsocial3.png,stimuli/Nonsocial4.png,cs_pos_ns,"(-0.7, -0.5)",,,,,,,,,0,0,0,0,,,,,,,,,,,,,0,15,15,13,,,,,,,,,,,,,,,,,,,,,,,,,,,,,,,,,,718.4850926999934,54,reward,1,0.6529474999988452,0.6529512000270188,719.1447969999863,,,,,,,,,,,,,,,,,,,,,,51,A,2024-05-22_16h31.12.725,attentional_competition_task,2022.2.4,144.01025355448053,
positions.xlsx,positions_test.xlsx,positions_test_new.xlsx,stimuli.xlsx,stimuli_new.xlsx,stimuli/Social1.png,stimuli/Social2.png,stimuli/Nonsocial1.png,stimuli/Nonsocial2.png,stimuli/Social3.png,stimuli/Social4.png,stimuli/Nonsocial3.png,stimuli/Nonsocial4.png,cs_pos_s,"(-0.7, 0.5)",,,,,,,,,0,0,0,0,,,,,,,,,,,,,1,0,16,4,,,,,,,,,,,,,,,,,,,,,,,,,,,,,,,,,,725.9639666000148,57,reward,1,0.7291365000419319,0.7291400999529287,726.700058599934,,,,,,,,,,,,,,,,,,,,,,51,A,2024-05-22_16h31.12.725,attentional_competition_task,2022.2.4,144.01025355448053,
positions.xlsx,positions_test.xlsx,positions_test_new.xlsx,stimuli.xlsx,stimuli_new.xlsx,stimuli/Social1.png,stimuli/Social2.png,stimuli/Nonsocial1.png,stimuli/Nonsocial2.png,stimuli/Social3.png,stimuli/Social4.png,stimuli/Nonsocial3.png,stimuli/Nonsocial4.png,cs_neg_ns,"(0.7, -0.5)",,,,,,,,,0,0,0,0,,,,,,,,,,,,,1,1,17,11,,,,,,,,,,,,,,,,,,,,,,,,,,,,,,,,,,735.0469632999739,57,none,0,,,738.0607370999642,,,,,,,,,,,,,,,,,,,,,,51,A,2024-05-22_16h31.12.725,attentional_competition_task,2022.2.4,144.01025355448053,
positions.xlsx,positions_test.xlsx,positions_test_new.xlsx,stimuli.xlsx,stimuli_new.xlsx,stimuli/Social1.png,stimuli/Social2.png,stimuli/Nonsocial1.png,stimuli/Nonsocial2.png,stimuli/Social3.png,stimuli/Social4.png,stimuli/Nonsocial3.png,stimuli/Nonsocial4.png,cs_neg_s,"(-0.7, -0.5)",,,,,,,,,0,0,0,0,,,,,,,,,,,,,1,2,18,1,,,,,,,,,,,,,,,,,,,,,,,,,,,,,,,,,,746.0812381999567,57,none,0,,,749.0880603999831,,,,,,,,,,,,,,,,,,,,,,51,A,2024-05-22_16h31.12.725,attentional_competition_task,2022.2.4,144.01025355448053,
positions.xlsx,positions_test.xlsx,positions_test_new.xlsx,stimuli.xlsx,stimuli_new.xlsx,stimuli/Social1.png,stimuli/Social2.png,stimuli/Nonsocial1.png,stimuli/Nonsocial2.png,stimuli/Social3.png,stimuli/Social4.png,stimuli/Nonsocial3.png,stimuli/Nonsocial4.png,cs_neg_s,"(0.7, 0.5)",,,,,,,,,0,0,0,0,,,,,,,,,,,,,1,3,19,2,,,,,,,,,,,,,,,,,,,,,,,,,,,,,,,,,,756.2474848999409,54,loss,1,0.3475433000130579,0.3475472000427544,756.6016634999542,,,,,,,,,,,,,,,,,,,,,,51,A,2024-05-22_16h31.12.725,attentional_competition_task,2022.2.4,144.01025355448053,
positions.xlsx,positions_test.xlsx,positions_test_new.xlsx,stimuli.xlsx,stimuli_new.xlsx,stimuli/Social1.png,stimuli/Social2.png,stimuli/Nonsocial1.png,stimuli/Nonsocial2.png,stimuli/Social3.png,stimuli/Social4.png,stimuli/Nonsocial3.png,stimuli/Nonsocial4.png,cs_neg_ns,"(-0.7, -0.5)",,,,,,,,,0,0,0,0,,,,,,,,,,,,,1,4,20,9,,,,,,,,,,,,,,,,,,,,,,,,,,,,,,,,,,764.5666261999868,54,none,0,,,767.5803878000006,,,,,,,,,,,,,,,,,,,,,,51,A,2024-05-22_16h31.12.725,attentional_competition_task,2022.2.4,144.01025355448053,
positions.xlsx,positions_test.xlsx,positions_test_new.xlsx,stimuli.xlsx,stimuli_new.xlsx,stimuli/Social1.png,stimuli/Social2.png,stimuli/Nonsocial1.png,stimuli/Nonsocial2.png,stimuli/Social3.png,stimuli/Social4.png,stimuli/Nonsocial3.png,stimuli/Nonsocial4.png,cs_neg_ns,"(0.7, 0.5)",,,,,,,,,0,0,0,0,,,,,,,,,,,,,1,5,21,10,,,,,,,,,,,,,,,,,,,,,,,,,,,,,,,,,,775.3161923999432,54,none,0,,,778.3230319999857,,,,,,,,,,,,,,,,,,,,,,51,A,2024-05-22_16h31.12.725,attentional_competition_task,2022.2.4,144.01025355448053,
positions.xlsx,positions_test.xlsx,positions_test_new.xlsx,stimuli.xlsx,stimuli_new.xlsx,stimuli/Social1.png,stimuli/Social2.png,stimuli/Nonsocial1.png,stimuli/Nonsocial2.png,stimuli/Social3.png,stimuli/Social4.png,stimuli/Nonsocial3.png,stimuli/Nonsocial4.png,cs_pos_ns,"(-0.7, -0.5)",,,,,,,,,0,0,0,0,,,,,,,,,,,,,1,6,22,13,,,,,,,,,,,,,,,,,,,,,,,,,,,,,,,,,,785.9685437999433,57,reward,1,0.6391356000676751,0.6391396000981331,786.6212849000003,,,,,,,,,,,,,,,,,,,,,,51,A,2024-05-22_16h31.12.725,attentional_competition_task,2022.2.4,144.01025355448053,
positions.xlsx,positions_test.xlsx,positions_test_new.xlsx,stimuli.xlsx,stimuli_new.xlsx,stimuli/Social1.png,stimuli/Social2.png,stimuli/Nonsocial1.png,stimuli/Nonsocial2.png,stimuli/Social3.png,stimuli/Social4.png,stimuli/Nonsocial3.png,stimuli/Nonsocial4.png,cs_neg_s,"(-0.7, 0.5)",,,,,,,,,0,0,0,0,,,,,,,,,,,,,1,7,23,0,,,,,,,,,,,,,,,,,,,,,,,,,,,,,,,,,,793.7459883999545,57,none,0,,,796.7597878999077,,,,,,,,,,,,,,,,,,,,,,51,A,2024-05-22_16h31.12.725,attentional_competition_task,2022.2.4,144.01025355448053,
positions.xlsx,positions_test.xlsx,positions_test_new.xlsx,stimuli.xlsx,stimuli_new.xlsx,stimuli/Social1.png,stimuli/Social2.png,stimuli/Nonsocial1.png,stimuli/Nonsocial2.png,stimuli/Social3.png,stimuli/Social4.png,stimuli/Nonsocial3.png,stimuli/Nonsocial4.png,cs_pos_ns,"(-0.7, 0.5)",,,,,,,,,0,0,0,0,,,,,,,,,,,,,1,8,24,12,,,,,,,,,,,,,,,,,,,,,,,,,,,,,,,,,,804.8288869999815,60,reward,1,0.5765509000048041,0.5765544000314549,805.4122150999028,,,,,,,,,,,,,,,,,,,,,,51,A,2024-05-22_16h31.12.725,attentional_competition_task,2022.2.4,144.01025355448053,
positions.xlsx,positions_test.xlsx,positions_test_new.xlsx,stimuli.xlsx,stimuli_new.xlsx,stimuli/Social1.png,stimuli/Social2.png,stimuli/Nonsocial1.png,stimuli/Nonsocial2.png,stimuli/Social3.png,stimuli/Social4.png,stimuli/Nonsocial3.png,stimuli/Nonsocial4.png,cs_pos_ns,"(0.7, 0.5)",,,,,,,,,0,0,0,0,,,,,,,,,,,,,1,9,25,14,,,,,,,,,,,,,,,,,,,,,,,,,,,,,,,,,,812.99524869991,63,reward,1,0.6390134999528527,0.6390169999795035,813.6410367999924,,,,,,,,,,,,,,,,,,,,,,51,A,2024-05-22_16h31.12.725,attentional_competition_task,2022.2.4,144.01025355448053,
positions.xlsx,positions_test.xlsx,positions_test_new.xlsx,stimuli.xlsx,stimuli_new.xlsx,stimuli/Social1.png,stimuli/Social2.png,stimuli/Nonsocial1.png,stimuli/Nonsocial2.png,stimuli/Social3.png,stimuli/Social4.png,stimuli/Nonsocial3.png,stimuli/Nonsocial4.png,cs_pos_s,"(0.7, 0.5)",,,,,,,,,0,0,0,0,,,,,,,,,,,,,1,10,26,6,,,,,,,,,,,,,,,,,,,,,,,,,,,,,,,,,,821.6893180999905,66,reward,1,0.8405133000342175,0.8405169999459758,822.5365385999903,,,,,,,,,,,,,,,,,,,,,,51,A,2024-05-22_16h31.12.725,attentional_competition_task,2022.2.4,144.01025355448053,
positions.xlsx,positions_test.xlsx,positions_test_new.xlsx,stimuli.xlsx,stimuli_new.xlsx,stimuli/Social1.png,stimuli/Social2.png,stimuli/Nonsocial1.png,stimuli/Nonsocial2.png,stimuli/Social3.png,stimuli/Social4.png,stimuli/Nonsocial3.png,stimuli/Nonsocial4.png,cs_pos_s,"(-0.7, -0.5)",,,,,,,,,0,0,0,0,,,,,,,,,,,,,1,11,27,5,,,,,,,,,,,,,,,,,,,,,,,,,,,,,,,,,,829.6335040999111,69,reward,1,0.5903096999973059,0.590313300024718,830.2307484999765,,,,,,,,,,,,,,,,,,,,,,51,A,2024-05-22_16h31.12.725,attentional_competition_task,2022.2.4,144.01025355448053,
positions.xlsx,positions_test.xlsx,positions_test_new.xlsx,stimuli.xlsx,stimuli_new.xlsx,stimuli/Social1.png,stimuli/Social2.png,stimuli/Nonsocial1.png,stimuli/Nonsocial2.png,stimuli/Social3.png,stimuli/Social4.png,stimuli/Nonsocial3.png,stimuli/Nonsocial4.png,cs_pos_s,"(0.7, -0.5)",,,,,,,,,0,0,0,0,,,,,,,,,,,,,1,12,28,7,,,,,,,,,,,,,,,,,,,,,,,,,,,,,,,,,,837.7373053999618,72,reward,1,0.7362683999817818,0.736272000009194,838.4803369999863,,,,,,,,,,,,,,,,,,,,,,51,A,2024-05-22_16h31.12.725,attentional_competition_task,2022.2.4,144.01025355448053,
positions.xlsx,positions_test.xlsx,positions_test_new.xlsx,stimuli.xlsx,stimuli_new.xlsx,stimuli/Social1.png,stimuli/Social2.png,stimuli/Nonsocial1.png,stimuli/Nonsocial2.png,stimuli/Social3.png,stimuli/Social4.png,stimuli/Nonsocial3.png,stimuli/Nonsocial4.png,cs_neg_s,"(0.7, -0.5)",,,,,,,,,0,0,0,0,,,,,,,,,,,,,1,13,29,3,,,,,,,,,,,,,,,,,,,,,,,,,,,,,,,,,,845.7786462999647,72,none,0,,,848.792407699977,,,,,,,,,,,,,,,,,,,,,,51,A,2024-05-22_16h31.12.725,attentional_competition_task,2022.2.4,144.01025355448053,
positions.xlsx,positions_test.xlsx,positions_test_new.xlsx,stimuli.xlsx,stimuli_new.xlsx,stimuli/Social1.png,stimuli/Social2.png,stimuli/Nonsocial1.png,stimuli/Nonsocial2.png,stimuli/Social3.png,stimuli/Social4.png,stimuli/Nonsocial3.png,stimuli/Nonsocial4.png,cs_neg_ns,"(-0.7, 0.5)",,,,,,,,,0,0,0,0,,,,,,,,,,,,,1,14,30,8,,,,,,,,,,,,,,,,,,,,,,,,,,,,,,,,,,856.931038599927,69,loss,1,0.6735614000353962,0.6735652999486774,857.6115018000128,,,,,,,,,,,,,,,,,,,,,,51,A,2024-05-22_16h31.12.725,attentional_competition_task,2022.2.4,144.01025355448053,
positions.xlsx,positions_test.xlsx,positions_test_new.xlsx,stimuli.xlsx,stimuli_new.xlsx,stimuli/Social1.png,stimuli/Social2.png,stimuli/Nonsocial1.png,stimuli/Nonsocial2.png,stimuli/Social3.png,stimuli/Social4.png,stimuli/Nonsocial3.png,stimuli/Nonsocial4.png,cs_pos_ns,"(0.7, -0.5)",,,,,,,,,0,0,0,0,,,,,,,,,,,,,1,15,31,15,,,,,,,,,,,,,,,,,,,,,,,,,,,,,,,,,,864.8473682999611,72,reward,1,0.6043855999596417,0.6043890999862924,865.4584332999075,,,,,,,,,,,,,,,,,,,,,,51,A,2024-05-22_16h31.12.725,attentional_competition_task,2022.2.4,144.01025355448053,
positions.xlsx,positions_test.xlsx,positions_test_new.xlsx,stimuli.xlsx,stimuli_new.xlsx,stimuli/Social1.png,stimuli/Social2.png,stimuli/Nonsocial1.png,stimuli/Nonsocial2.png,stimuli/Social3.png,stimuli/Social4.png,stimuli/Nonsocial3.png,stimuli/Nonsocial4.png,cs_neg_ns,,,,,,,,,,0,0,0,0,,,,,,,,,,,,,,,,,0,0,0,1,,,,,,,,,,,,,,,,,,,,,,,870.8193423999473,3.0,8.28869009995833,,,,,,,,,,,,,,,,,,,,,,,,,,,,,,,,,51,A,2024-05-22_16h31.12.725,attentional_competition_task,2022.2.4,144.01025355448053,
positions.xlsx,positions_test.xlsx,positions_test_new.xlsx,stimuli.xlsx,stimuli_new.xlsx,stimuli/Social1.png,stimuli/Social2.png,stimuli/Nonsocial1.png,stimuli/Nonsocial2.png,stimuli/Social3.png,stimuli/Social4.png,stimuli/Nonsocial3.png,stimuli/Nonsocial4.png,cs_pos_ns,,,,,,,,,,0,0,0,0,,,,,,,,,,,,,,,,,0,1,1,3,,,,,,,,,,,,,,,,,,,,,,,879.9231623999076,9.0,2.9528380000265315,,,,,,,,,,,,,,,,,,,,,,,,,,,,,,,,,51,A,2024-05-22_16h31.12.725,attentional_competition_task,2022.2.4,144.01025355448053,
positions.xlsx,positions_test.xlsx,positions_test_new.xlsx,stimuli.xlsx,stimuli_new.xlsx,stimuli/Social1.png,stimuli/Social2.png,stimuli/Nonsocial1.png,stimuli/Nonsocial2.png,stimuli/Social3.png,stimuli/Social4.png,stimuli/Nonsocial3.png,stimuli/Nonsocial4.png,cs_pos_s,,,,,,,,,,0,0,0,0,,,,,,,,,,,,,,,,,0,2,2,2,,,,,,,,,,,,,,,,,,,,,,,883.0619134999579,8.0,2.363706999924034,,,,,,,,,,,,,,,,,,,,,,,,,,,,,,,,,51,A,2024-05-22_16h31.12.725,attentional_competition_task,2022.2.4,144.01025355448053,
positions.xlsx,positions_test.xlsx,positions_test_new.xlsx,stimuli.xlsx,stimuli_new.xlsx,stimuli/Social1.png,stimuli/Social2.png,stimuli/Nonsocial1.png,stimuli/Nonsocial2.png,stimuli/Social3.png,stimuli/Social4.png,stimuli/Nonsocial3.png,stimuli/Nonsocial4.png,cs_neg_s,,,,,,,,,,0,0,0,0,,,,,,,,,,,,,,,,,0,3,3,0,,,,,,,,,,,,,,,,,,,,,,,885.6520850999514,2.0,2.023267099983059,,,,,,,,,,,,,,,,,,,,,,,,,,,,,,,,,51,A,2024-05-22_16h31.12.725,attentional_competition_task,2022.2.4,144.01025355448053,
positions.xlsx,positions_test.xlsx,positions_test_new.xlsx,stimuli.xlsx,stimuli_new.xlsx,stimuli/Social1.png,stimuli/Social2.png,stimuli/Nonsocial1.png,stimuli/Nonsocial2.png,stimuli/Social3.png,stimuli/Social4.png,stimuli/Nonsocial3.png,stimuli/Nonsocial4.png,,,"(-0.7, -0.5)",cs_neg_s,"(-0.7, 0.5)",cs_pos_ns,"(0.7, -0.5)",cs_pos_s,"(0.7, 0.5)",cs_neg_ns,0,0,0,0,,,,,,,,,,,,,,,,,,,,,0,0,0,4,,,,,,,,,,,,,,,,,,,,,,,,,,,66,loss,,,,,890.9296527999686,902.380577599979,902.380577599979,902.380577599979,902.380577599979,0,,,0,,,0,,,0,,,903.637496399926,903.637496399926,903.637496399926,903.637496399926,51,A,2024-05-22_16h31.12.725,attentional_competition_task,2022.2.4,144.01025355448053,
positions.xlsx,positions_test.xlsx,positions_test_new.xlsx,stimuli.xlsx,stimuli_new.xlsx,stimuli/Social1.png,stimuli/Social2.png,stimuli/Nonsocial1.png,stimuli/Nonsocial2.png,stimuli/Social3.png,stimuli/Social4.png,stimuli/Nonsocial3.png,stimuli/Nonsocial4.png,,,"(-0.7, -0.5)",cs_neg_ns,"(-0.7, 0.5)",cs_pos_ns,"(0.7, -0.5)",cs_pos_s,"(0.7, 0.5)",cs_neg_s,0,0,0,0,,,,,,,,,,,,,,,,,,,,,0,1,1,16,,,,,,,,,,,,,,,,,,,,,,,,,,,72,reward,,,,,,910.3663656999124,910.3663656999124,910.3663656999124,910.3663656999124,0,,,0,,,0,,,0,,,911.5746808999684,911.5746808999684,911.5746808999684,911.5746808999684,51,A,2024-05-22_16h31.12.725,attentional_competition_task,2022.2.4,144.01025355448053,
positions.xlsx,positions_test.xlsx,positions_test_new.xlsx,stimuli.xlsx,stimuli_new.xlsx,stimuli/Social1.png,stimuli/Social2.png,stimuli/Nonsocial1.png,stimuli/Nonsocial2.png,stimuli/Social3.png,stimuli/Social4.png,stimuli/Nonsocial3.png,stimuli/Nonsocial4.png,,,"(-0.7, -0.5)",cs_neg_ns,"(-0.7, 0.5)",cs_pos_s,"(0.7, -0.5)",cs_neg_s,"(0.7, 0.5)",cs_pos_ns,0,0,0,0,,,,,,,,,,,,,,,,,,,,,0,2,2,12,,,,,,,,,,,,,,,,,,,,,,,,,,,69,loss,,,,,,918.7758116999175,918.7758116999175,918.7758116999175,918.7758116999175,0,,,0,,,0,,,0,,,919.5535366999684,919.5535366999684,919.5535366999684,919.5535366999684,51,A,2024-05-22_16h31.12.725,attentional_competition_task,2022.2.4,144.01025355448053,
positions.xlsx,positions_test.xlsx,positions_test_new.xlsx,stimuli.xlsx,stimuli_new.xlsx,stimuli/Social1.png,stimuli/Social2.png,stimuli/Nonsocial1.png,stimuli/Nonsocial2.png,stimuli/Social3.png,stimuli/Social4.png,stimuli/Nonsocial3.png,stimuli/Nonsocial4.png,,,"(-0.7, -0.5)",cs_pos_s,"(-0.7, 0.5)",cs_neg_ns,"(0.7, -0.5)",cs_pos_ns,"(0.7, 0.5)",cs_neg_s,0,0,0,0,,,,,,,,,,,,,,,,,,,,,0,3,3,9,,,,,,,,,,,,,,,,,,,,,,,,,,,78,reward,,,,,,927.5601260999683,927.5601260999683,927.5601260999683,927.5601260999683,0,,,0,,,1,0.024304999969899654,0.24649509997107089,0,,,928.3101325999014,928.3101325999014,928.3101325999014,928.3101325999014,51,A,2024-05-22_16h31.12.725,attentional_competition_task,2022.2.4,144.01025355448053,
positions.xlsx,positions_test.xlsx,positions_test_new.xlsx,stimuli.xlsx,stimuli_new.xlsx,stimuli/Social1.png,stimuli/Social2.png,stimuli/Nonsocial1.png,stimuli/Nonsocial2.png,stimuli/Social3.png,stimuli/Social4.png,stimuli/Nonsocial3.png,stimuli/Nonsocial4.png,,,"(-0.7, -0.5)",cs_pos_ns,"(-0.7, 0.5)",cs_neg_ns,"(0.7, -0.5)",cs_neg_s,"(0.7, 0.5)",cs_pos_s,0,0,0,0,,,,,,,,,,,,,,,,,,,,,0,4,4,21,,,,,,,,,,,,,,,,,,,,,,,,,,,84,reward,,,,,,936.1986939999042,936.1986939999042,936.1986939999042,936.1986939999042,1,0.029706800007261336,0.1623560000443831,0,,,0,,,0,,,936.9209088999778,936.9209088999778,936.9209088999778,936.9209088999778,51,A,2024-05-22_16h31.12.725,attentional_competition_task,2022.2.4,144.01025355448053,
positions.xlsx,positions_test.xlsx,positions_test_new.xlsx,stimuli.xlsx,stimuli_new.xlsx,stimuli/Social1.png,stimuli/Social2.png,stimuli/Nonsocial1.png,stimuli/Nonsocial2.png,stimuli/Social3.png,stimuli/Social4.png,stimuli/Nonsocial3.png,stimuli/Nonsocial4.png,,,"(-0.7, -0.5)",cs_pos_s,"(-0.7, 0.5)",cs_pos_ns,"(0.7, -0.5)",cs_neg_s,"(0.7, 0.5)",cs_neg_ns,0,0,0,0,,,,,,,,,,,,,,,,,,,,,0,5,5,10,,,,,,,,,,,,,,,,,,,,,,,,,,,90,reward,,,,,,945.4205824999372,945.4205824999372,945.4205824999372,945.4205824999372,1,0.029602599912323058,0.02960659994278103,0,,,0,,,0,,,945.4205824999372,945.4205824999372,945.4205824999372,945.4205824999372,51,A,2024-05-22_16h31.12.725,attentional_competition_task,2022.2.4,144.01025355448053,
positions.xlsx,positions_test.xlsx,positions_test_new.xlsx,stimuli.xlsx,stimuli_new.xlsx,stimuli/Social1.png,stimuli/Social2.png,stimuli/Nonsocial1.png,stimuli/Nonsocial2.png,stimuli/Social3.png,stimuli/Social4.png,stimuli/Nonsocial3.png,stimuli/Nonsocial4.png,,,"(-0.7, -0.5)",cs_neg_s,"(-0.7, 0.5)",cs_pos_s,"(0.7, -0.5)",cs_pos_ns,"(0.7, 0.5)",cs_neg_ns,0,0,0,0,,,,,,,,,,,,,,,,,,,,,0,6,6,1,,,,,,,,,,,,,,,,,,,,,,,,,,,99,reward,,,,,,953.8230039000046,953.8230039000046,953.8230039000046,953.8230039000046,0,,,1,0.029596100095659494,0.05064280005171895,0,,,0,,,954.3785421999637,954.3785421999637,954.3785421999637,954.3785421999637,51,A,2024-05-22_16h31.12.725,attentional_competition_task,2022.2.4,144.01025355448053,
positions.xlsx,positions_test.xlsx,positions_test_new.xlsx,stimuli.xlsx,stimuli_new.xlsx,stimuli/Social1.png,stimuli/Social2.png,stimuli/Nonsocial1.png,stimuli/Nonsocial2.png,stimuli/Social3.png,stimuli/Social4.png,stimuli/Nonsocial3.png,stimuli/Nonsocial4.png,,,"(-0.7, -0.5)",cs_pos_ns,"(-0.7, 0.5)",cs_neg_ns,"(0.7, -0.5)",cs_pos_s,"(0.7, 0.5)",cs_neg_s,0,0,0,0,,,,,,,,,,,,,,,,,,,,,0,7,7,20,,,,,,,,,,,,,,,,,,,,,,,,,,,105,reward,,,,,,962.0448879000032,962.0448879000032,962.0448879000032,962.0448879000032,1,0.02704539999831468,0.23767860000953078,0,,,1,0.32858169998507947,0.33578820002730936,0,,,962.3851631999714,962.3851631999714,962.3851631999714,962.3851631999714,51,A,2024-05-22_16h31.12.725,attentional_competition_task,2022.2.4,144.01025355448053,
positions.xlsx,positions_test.xlsx,positions_test_new.xlsx,stimuli.xlsx,stimuli_new.xlsx,stimuli/Social1.png,stimuli/Social2.png,stimuli/Nonsocial1.png,stimuli/Nonsocial2.png,stimuli/Social3.png,stimuli/Social4.png,stimuli/Nonsocial3.png,stimuli/Nonsocial4.png,,,"(-0.7, -0.5)",cs_neg_s,"(-0.7, 0.5)",cs_neg_ns,"(0.7, -0.5)",cs_pos_ns,"(0.7, 0.5)",cs_pos_s,0,0,0,0,,,,,,,,,,,,,,,,,,,,,0,8,8,3,,,,,,,,,,,,,,,,,,,,,,,,,,,111,reward,,,,,,971.3014981999295,971.3014981999295,971.3014981999295,971.3014981999295,0,,,0,,,1,0.02891530003398657,0.028933700057677925,0,,,971.3014981999295,971.3014981999295,971.3014981999295,971.3014981999295,51,A,2024-05-22_16h31.12.725,attentional_competition_task,2022.2.4,144.01025355448053,
positions.xlsx,positions_test.xlsx,positions_test_new.xlsx,stimuli.xlsx,stimuli_new.xlsx,stimuli/Social1.png,stimuli/Social2.png,stimuli/Nonsocial1.png,stimuli/Nonsocial2.png,stimuli/Social3.png,stimuli/Social4.png,stimuli/Nonsocial3.png,stimuli/Nonsocial4.png,,,"(-0.7, -0.5)",cs_neg_s,"(-0.7, 0.5)",cs_pos_s,"(0.7, -0.5)",cs_neg_ns,"(0.7, 0.5)",cs_pos_ns,0,0,0,0,,,,,,,,,,,,,,,,,,,,,0,9,9,0,,,,,,,,,,,,,,,,,,,,,,,,,,,120,reward,,,,,,979.1761562000029,979.1761562000029,979.1761562000029,979.1761562000029,0,,,0,,,0,,,0,,,979.8219424999552,979.8219424999552,979.8219424999552,979.8219424999552,51,A,2024-05-22_16h31.12.725,attentional_competition_task,2022.2.4,144.01025355448053,
positions.xlsx,positions_test.xlsx,positions_test_new.xlsx,stimuli.xlsx,stimuli_new.xlsx,stimuli/Social1.png,stimuli/Social2.png,stimuli/Nonsocial1.png,stimuli/Nonsocial2.png,stimuli/Social3.png,stimuli/Social4.png,stimuli/Nonsocial3.png,stimuli/Nonsocial4.png,,,"(-0.7, -0.5)",cs_pos_ns,"(-0.7, 0.5)",cs_pos_s,"(0.7, -0.5)",cs_neg_s,"(0.7, 0.5)",cs_neg_ns,0,0,0,0,,,,,,,,,,,,,,,,,,,,,0,10,10,19,,,,,,,,,,,,,,,,,,,,,,,,,,,129,reward,,,,,,987.3494167999597,987.3494167999597,987.3494167999597,987.3494167999597,0,,,0,,,0,,,0,,,987.9258400999242,987.9258400999242,987.9258400999242,987.9258400999242,51,A,2024-05-22_16h31.12.725,attentional_competition_task,2022.2.4,144.01025355448053,
positions.xlsx,positions_test.xlsx,positions_test_new.xlsx,stimuli.xlsx,stimuli_new.xlsx,stimuli/Social1.png,stimuli/Social2.png,stimuli/Nonsocial1.png,stimuli/Nonsocial2.png,stimuli/Social3.png,stimuli/Social4.png,stimuli/Nonsocial3.png,stimuli/Nonsocial4.png,,,"(-0.7, -0.5)",cs_neg_s,"(-0.7, 0.5)",cs_neg_ns,"(0.7, -0.5)",cs_pos_s,"(0.7, 0.5)",cs_pos_ns,0,0,0,0,,,,,,,,,,,,,,,,,,,,,0,11,11,2,,,,,,,,,,,,,,,,,,,,,,,,,,,138,reward,,,,,,995.1269133999012,995.1269133999012,995.1269133999012,995.1269133999012,0,,,0,,,0,,,0,,,995.8005184999201,995.8005184999201,995.8005184999201,995.8005184999201,51,A,2024-05-22_16h31.12.725,attentional_competition_task,2022.2.4,144.01025355448053,
positions.xlsx,positions_test.xlsx,positions_test_new.xlsx,stimuli.xlsx,stimuli_new.xlsx,stimuli/Social1.png,stimuli/Social2.png,stimuli/Nonsocial1.png,stimuli/Nonsocial2.png,stimuli/Social3.png,stimuli/Social4.png,stimuli/Nonsocial3.png,stimuli/Nonsocial4.png,,,"(-0.7, -0.5)",cs_pos_s,"(-0.7, 0.5)",cs_neg_s,"(0.7, -0.5)",cs_neg_ns,"(0.7, 0.5)",cs_pos_ns,0,0,0,0,,,,,,,,,,,,,,,,,,,,,0,12,12,6,,,,,,,,,,,,,,,,,,,,,,,,,,,147,reward,,,,,,1003.897369000013,1003.897369000013,1003.897369000013,1003.897369000013,0,,,0,,,0,,,0,,,1004.4321134999627,1004.4321134999627,1004.4321134999627,1004.4321134999627,51,A,2024-05-22_16h31.12.725,attentional_competition_task,2022.2.4,144.01025355448053,
positions.xlsx,positions_test.xlsx,positions_test_new.xlsx,stimuli.xlsx,stimuli_new.xlsx,stimuli/Social1.png,stimuli/Social2.png,stimuli/Nonsocial1.png,stimuli/Nonsocial2.png,stimuli/Social3.png,stimuli/Social4.png,stimuli/Nonsocial3.png,stimuli/Nonsocial4.png,,,"(-0.7, -0.5)",cs_neg_ns,"(-0.7, 0.5)",cs_neg_s,"(0.7, -0.5)",cs_pos_ns,"(0.7, 0.5)",cs_pos_s,0,0,0,0,,,,,,,,,,,,,,,,,,,,,0,13,13,15,,,,,,,,,,,,,,,,,,,,,,,,,,,153,reward,,,,,,1011.674865799956,1011.674865799956,1011.674865799956,1011.674865799956,0,,,0,,,1,0.12796630000229925,0.12796980002894998,1,0.023567100055515766,0.10759360005613416,1011.8137468999485,1011.8137468999485,1011.8137468999485,1011.8137468999485,51,A,2024-05-22_16h31.12.725,attentional_competition_task,2022.2.4,144.01025355448053,
positions.xlsx,positions_test.xlsx,positions_test_new.xlsx,stimuli.xlsx,stimuli_new.xlsx,stimuli/Social1.png,stimuli/Social2.png,stimuli/Nonsocial1.png,stimuli/Nonsocial2.png,stimuli/Social3.png,stimuli/Social4.png,stimuli/Nonsocial3.png,stimuli/Nonsocial4.png,,,"(-0.7, -0.5)",cs_neg_ns,"(-0.7, 0.5)",cs_pos_ns,"(0.7, -0.5)",cs_neg_s,"(0.7, 0.5)",cs_pos_s,0,0,0,0,,,,,,,,,,,,,,,,,,,,,0,14,14,17,,,,,,,,,,,,,,,,,,,,,,,,,,,162,reward,,,,,,1020.410625099903,1020.410625099903,1020.410625099903,1020.410625099903,0,,,0,,,0,,,0,,,1021.1397729999153,1021.1397729999153,1021.1397729999153,1021.1397729999153,51,A,2024-05-22_16h31.12.725,attentional_competition_task,2022.2.4,144.01025355448053,
positions.xlsx,positions_test.xlsx,positions_test_new.xlsx,stimuli.xlsx,stimuli_new.xlsx,stimuli/Social1.png,stimuli/Social2.png,stimuli/Nonsocial1.png,stimuli/Nonsocial2.png,stimuli/Social3.png,stimuli/Social4.png,stimuli/Nonsocial3.png,stimuli/Nonsocial4.png,,,"(-0.7, -0.5)",cs_neg_ns,"(-0.7, 0.5)",cs_pos_s,"(0.7, -0.5)",cs_pos_ns,"(0.7, 0.5)",cs_neg_s,0,0,0,0,,,,,,,,,,,,,,,,,,,,,0,15,15,13,,,,,,,,,,,,,,,,,,,,,,,,,,,171,reward,,,,,,1028.8339009999763,1028.8339009999763,1028.8339009999763,1028.8339009999763,0,,,0,,,0,,,0,,,1029.639429999981,1029.639429999981,1029.639429999981,1029.639429999981,51,A,2024-05-22_16h31.12.725,attentional_competition_task,2022.2.4,144.01025355448053,
positions.xlsx,positions_test.xlsx,positions_test_new.xlsx,stimuli.xlsx,stimuli_new.xlsx,stimuli/Social1.png,stimuli/Social2.png,stimuli/Nonsocial1.png,stimuli/Nonsocial2.png,stimuli/Social3.png,stimuli/Social4.png,stimuli/Nonsocial3.png,stimuli/Nonsocial4.png,,,"(-0.7, -0.5)",cs_pos_s,"(-0.7, 0.5)",cs_pos_ns,"(0.7, -0.5)",cs_neg_ns,"(0.7, 0.5)",cs_neg_s,0,0,0,0,,,,,,,,,,,,,,,,,,,,,0,16,16,11,,,,,,,,,,,,,,,,,,,,,,,,,,,180,reward,,,,,,1037.5418797999155,1037.5418797999155,1037.5418797999155,1037.5418797999155,1,0.02317810000386089,0.07222670002374798,0,,,0,,,0,,,1038.180750999949,1038.180750999949,1038.180750999949,1038.180750999949,51,A,2024-05-22_16h31.12.725,attentional_competition_task,2022.2.4,144.01025355448053,
positions.xlsx,positions_test.xlsx,positions_test_new.xlsx,stimuli.xlsx,stimuli_new.xlsx,stimuli/Social1.png,stimuli/Social2.png,stimuli/Nonsocial1.png,stimuli/Nonsocial2.png,stimuli/Social3.png,stimuli/Social4.png,stimuli/Nonsocial3.png,stimuli/Nonsocial4.png,,,"(-0.7, -0.5)",cs_pos_ns,"(-0.7, 0.5)",cs_pos_s,"(0.7, -0.5)",cs_neg_ns,"(0.7, 0.5)",cs_neg_s,0,0,0,0,,,,,,,,,,,,,,,,,,,,,0,17,17,18,,,,,,,,,,,,,,,,,,,,,,,,,,,186,reward,,,,,,1045.9721215999452,1045.9721215999452,1045.9721215999452,1045.9721215999452,1,0.030287900008261204,0.030291800037957728,0,,,0,,,0,,,1045.9721215999452,1045.9721215999452,1045.9721215999452,1045.9721215999452,51,A,2024-05-22_16h31.12.725,attentional_competition_task,2022.2.4,144.01025355448053,
positions.xlsx,positions_test.xlsx,positions_test_new.xlsx,stimuli.xlsx,stimuli_new.xlsx,stimuli/Social1.png,stimuli/Social2.png,stimuli/Nonsocial1.png,stimuli/Nonsocial2.png,stimuli/Social3.png,stimuli/Social4.png,stimuli/Nonsocial3.png,stimuli/Nonsocial4.png,,,"(-0.7, -0.5)",cs_neg_ns,"(-0.7, 0.5)",cs_neg_s,"(0.7, -0.5)",cs_pos_s,"(0.7, 0.5)",cs_pos_ns,0,0,0,0,,,,,,,,,,,,,,,,,,,,,0,18,18,14,,,,,,,,,,,,,,,,,,,,,,,,,,,189,reward,,,,,,1054.8189810999902,1054.8189810999902,1054.8189810999902,1054.8189810999902,0,,,0,,,0,,,1,0.023675200063735247,0.023679399979300797,1054.8189810999902,1054.8189810999902,1054.8189810999902,1054.8189810999902,51,A,2024-05-22_16h31.12.725,attentional_competition_task,2022.2.4,144.01025355448053,
positions.xlsx,positions_test.xlsx,positions_test_new.xlsx,stimuli.xlsx,stimuli_new.xlsx,stimuli/Social1.png,stimuli/Social2.png,stimuli/Nonsocial1.png,stimuli/Nonsocial2.png,stimuli/Social3.png,stimuli/Social4.png,stimuli/Nonsocial3.png,stimuli/Nonsocial4.png,,,"(-0.7, -0.5)",cs_pos_ns,"(-0.7, 0.5)",cs_neg_s,"(0.7, -0.5)",cs_pos_s,"(0.7, 0.5)",cs_neg_ns,0,0,0,0,,,,,,,,,,,,,,,,,,,,,0,19,19,22,,,,,,,,,,,,,,,,,,,,,,,,,,,195,reward,,,,,,1062.624225199921,1062.624225199921,1062.624225199921,1062.624225199921,0,,,0,,,1,0.03020099992863834,0.03020549996290356,0,,,1062.624225199921,1062.624225199921,1062.624225199921,1062.624225199921,51,A,2024-05-22_16h31.12.725,attentional_competition_task,2022.2.4,144.01025355448053,
positions.xlsx,positions_test.xlsx,positions_test_new.xlsx,stimuli.xlsx,stimuli_new.xlsx,stimuli/Social1.png,stimuli/Social2.png,stimuli/Nonsocial1.png,stimuli/Nonsocial2.png,stimuli/Social3.png,stimuli/Social4.png,stimuli/Nonsocial3.png,stimuli/Nonsocial4.png,,,"(-0.7, -0.5)",cs_pos_s,"(-0.7, 0.5)",cs_neg_s,"(0.7, -0.5)",cs_pos_ns,"(0.7, 0.5)",cs_neg_ns,0,0,0,0,,,,,,,,,,,,,,,,,,,,,0,20,20,7,,,,,,,,,,,,,,,,,,,,,,,,,,,204,reward,,,,,,1070.9988585999236,1070.9988585999236,1070.9988585999236,1070.9988585999236,0,,,0,,,0,,,0,,,1071.6447065999964,1071.6447065999964,1071.6447065999964,1071.6447065999964,51,A,2024-05-22_16h31.12.725,attentional_competition_task,2022.2.4,144.01025355448053,
positions.xlsx,positions_test.xlsx,positions_test_new.xlsx,stimuli.xlsx,stimuli_new.xlsx,stimuli/Social1.png,stimuli/Social2.png,stimuli/Nonsocial1.png,stimuli/Nonsocial2.png,stimuli/Social3.png,stimuli/Social4.png,stimuli/Nonsocial3.png,stimuli/Nonsocial4.png,,,"(-0.7, -0.5)",cs_pos_s,"(-0.7, 0.5)",cs_neg_ns,"(0.7, -0.5)",cs_neg_s,"(0.7, 0.5)",cs_pos_ns,0,0,0,0,,,,,,,,,,,,,,,,,,,,,0,21,21,8,,,,,,,,,,,,,,,,,,,,,,,,,,,207,reward,,,,,,1077.512485699961,1077.512485699961,1077.512485699961,1077.512485699961,1,1.654458099976182,1.6544615000020713,0,,,0,,,0,,,1079.1721663000062,1079.1721663000062,1079.1721663000062,1079.1721663000062,51,A,2024-05-22_16h31.12.725,attentional_competition_task,2022.2.4,144.01025355448053,
positions.xlsx,positions_test.xlsx,positions_test_new.xlsx,stimuli.xlsx,stimuli_new.xlsx,stimuli/Social1.png,stimuli/Social2.png,stimuli/Nonsocial1.png,stimuli/Nonsocial2.png,stimuli/Social3.png,stimuli/Social4.png,stimuli/Nonsocial3.png,stimuli/Nonsocial4.png,,,"(-0.7, -0.5)",cs_neg_s,"(-0.7, 0.5)",cs_pos_ns,"(0.7, -0.5)",cs_neg_ns,"(0.7, 0.5)",cs_pos_s,0,0,0,0,,,,,,,,,,,,,,,,,,,,,0,22,22,5,,,,,,,,,,,,,,,,,,,,,,,,,,,216,reward,,,,,,1087.4287833999842,1087.4287833999842,1087.4287833999842,1087.4287833999842,0,,,0,,,0,,,0,,,1088.1509904999984,1088.1509904999984,1088.1509904999984,1088.1509904999984,51,A,2024-05-22_16h31.12.725,attentional_competition_task,2022.2.4,144.01025355448053,
positions.xlsx,positions_test.xlsx,positions_test_new.xlsx,stimuli.xlsx,stimuli_new.xlsx,stimuli/Social1.png,stimuli/Social2.png,stimuli/Nonsocial1.png,stimuli/Nonsocial2.png,stimuli/Social3.png,stimuli/Social4.png,stimuli/Nonsocial3.png,stimuli/Nonsocial4.png,,,"(-0.7, -0.5)",cs_pos_ns,"(-0.7, 0.5)",cs_neg_s,"(0.7, -0.5)",cs_neg_ns,"(0.7, 0.5)",cs_pos_s,0,0,0,0,,,,,,,,,,,,,,,,,,,,,0,23,23,23,,,,,,,,,,,,,,,,,,,,,,,,,,,225,reward,,,,,,1095.5881821999792,1095.5881821999792,1095.5881821999792,1095.5881821999792,0,,,0,,,1,0.02603149996139109,0.038748799939639866,0,,,1096.2756625999464,1096.2756625999464,1096.2756625999464,1096.2756625999464,51,A,2024-05-22_16h31.12.725,attentional_competition_task,2022.2.4,144.01025355448053,
positions.xlsx,positions_test.xlsx,positions_test_new.xlsx,stimuli.xlsx,stimuli_new.xlsx,stimuli/Social1.png,stimuli/Social2.png,stimuli/Nonsocial1.png,stimuli/Nonsocial2.png,stimuli/Social3.png,stimuli/Social4.png,stimuli/Nonsocial3.png,stimuli/Nonsocial4.png,,,"(-0.7, -0.5)",cs_pos_s,"(-0.7, 0.5)",cs_neg_s,"(0.7, -0.5)",cs_pos_ns,"(0.7, 0.5)",cs_neg_ns,0,0,0,0,,,,,,,,,,,,,,,,,,,,,1,0,24,7,,,,,,,,,,,,,,,,,,,,,,,,,,,234,reward,,,,,,1104.2822795999236,1104.2822795999236,1104.2822795999236,1104.2822795999236,0,,,0,,,0,,,0,,,1104.907265399932,1104.907265399932,1104.907265399932,1104.907265399932,51,A,2024-05-22_16h31.12.725,attentional_competition_task,2022.2.4,144.01025355448053,
positions.xlsx,positions_test.xlsx,positions_test_new.xlsx,stimuli.xlsx,stimuli_new.xlsx,stimuli/Social1.png,stimuli/Social2.png,stimuli/Nonsocial1.png,stimuli/Nonsocial2.png,stimuli/Social3.png,stimuli/Social4.png,stimuli/Nonsocial3.png,stimuli/Nonsocial4.png,,,"(-0.7, -0.5)",cs_neg_ns,"(-0.7, 0.5)",cs_pos_ns,"(0.7, -0.5)",cs_pos_s,"(0.7, 0.5)",cs_neg_s,0,0,0,0,,,,,,,,,,,,,,,,,,,,,1,1,25,16,,,,,,,,,,,,,,,,,,,,,,,,,,,243,reward,,,,,,1112.8860816999804,1112.8860816999804,1112.8860816999804,1112.8860816999804,0,,,0,,,0,,,0,,,1113.608315999969,1113.608315999969,1113.608315999969,1113.608315999969,51,A,2024-05-22_16h31.12.725,attentional_competition_task,2022.2.4,144.01025355448053,
positions.xlsx,positions_test.xlsx,positions_test_new.xlsx,stimuli.xlsx,stimuli_new.xlsx,stimuli/Social1.png,stimuli/Social2.png,stimuli/Nonsocial1.png,stimuli/Nonsocial2.png,stimuli/Social3.png,stimuli/Social4.png,stimuli/Nonsocial3.png,stimuli/Nonsocial4.png,,,"(-0.7, -0.5)",cs_neg_s,"(-0.7, 0.5)",cs_pos_s,"(0.7, -0.5)",cs_pos_ns,"(0.7, 0.5)",cs_neg_ns,0,0,0,0,,,,,,,,,,,,,,,,,,,,,1,2,26,1,,,,,,,,,,,,,,,,,,,,,,,,,,,252,reward,,,,,,1121.9135054999497,1121.9135054999497,1121.9135054999497,1121.9135054999497,0,,,0,,,0,,,0,,,1122.4829650999745,1122.4829650999745,1122.4829650999745,1122.4829650999745,51,A,2024-05-22_16h31.12.725,attentional_competition_task,2022.2.4,144.01025355448053,
positions.xlsx,positions_test.xlsx,positions_test_new.xlsx,stimuli.xlsx,stimuli_new.xlsx,stimuli/Social1.png,stimuli/Social2.png,stimuli/Nonsocial1.png,stimuli/Nonsocial2.png,stimuli/Social3.png,stimuli/Social4.png,stimuli/Nonsocial3.png,stimuli/Nonsocial4.png,,,"(-0.7, -0.5)",cs_neg_ns,"(-0.7, 0.5)",cs_neg_s,"(0.7, -0.5)",cs_pos_ns,"(0.7, 0.5)",cs_pos_s,0,0,0,0,,,,,,,,,,,,,,,,,,,,,1,3,27,15,,,,,,,,,,,,,,,,,,,,,,,,,,,261,reward,,,,,,1130.3020565999905,1130.3020565999905,1130.3020565999905,1130.3020565999905,0,,,0,,,0,,,0,,,1131.0451313999947,1131.0451313999947,1131.0451313999947,1131.0451313999947,51,A,2024-05-22_16h31.12.725,attentional_competition_task,2022.2.4,144.01025355448053,
positions.xlsx,positions_test.xlsx,positions_test_new.xlsx,stimuli.xlsx,stimuli_new.xlsx,stimuli/Social1.png,stimuli/Social2.png,stimuli/Nonsocial1.png,stimuli/Nonsocial2.png,stimuli/Social3.png,stimuli/Social4.png,stimuli/Nonsocial3.png,stimuli/Nonsocial4.png,,,"(-0.7, -0.5)",cs_neg_ns,"(-0.7, 0.5)",cs_neg_s,"(0.7, -0.5)",cs_pos_s,"(0.7, 0.5)",cs_pos_ns,0,0,0,0,,,,,,,,,,,,,,,,,,,,,1,4,28,14,,,,,,,,,,,,,,,,,,,,,,,,,,,261,reward,,,,,,1138.7461657999083,1138.7461657999083,1138.7461657999083,1138.7461657999083,0,,,0,,,1,0.02852980000898242,0.028533600037917495,0,,,1138.7461657999083,1138.7461657999083,1138.7461657999083,1138.7461657999083,51,A,2024-05-22_16h31.12.725,attentional_competition_task,2022.2.4,144.01025355448053,
positions.xlsx,positions_test.xlsx,positions_test_new.xlsx,stimuli.xlsx,stimuli_new.xlsx,stimuli/Social1.png,stimuli/Social2.png,stimuli/Nonsocial1.png,stimuli/Nonsocial2.png,stimuli/Social3.png,stimuli/Social4.png,stimuli/Nonsocial3.png,stimuli/Nonsocial4.png,,,"(-0.7, -0.5)",cs_neg_s,"(-0.7, 0.5)",cs_neg_ns,"(0.7, -0.5)",cs_pos_s,"(0.7, 0.5)",cs_pos_ns,0,0,0,0,,,,,,,,,,,,,,,,,,,,,1,5,29,2,,,,,,,,,,,,,,,,,,,,,,,,,,,267,reward,,,,,,1146.697270500008,1146.697270500008,1146.697270500008,1146.697270500008,0,,,0,,,0,,,1,0.03001159999985248,0.030015600030310452,1146.697270500008,1146.697270500008,1146.697270500008,1146.697270500008,51,A,2024-05-22_16h31.12.725,attentional_competition_task,2022.2.4,144.01025355448053,
positions.xlsx,positions_test.xlsx,positions_test_new.xlsx,stimuli.xlsx,stimuli_new.xlsx,stimuli/Social1.png,stimuli/Social2.png,stimuli/Nonsocial1.png,stimuli/Nonsocial2.png,stimuli/Social3.png,stimuli/Social4.png,stimuli/Nonsocial3.png,stimuli/Nonsocial4.png,,,"(-0.7, -0.5)",cs_pos_s,"(-0.7, 0.5)",cs_pos_ns,"(0.7, -0.5)",cs_neg_ns,"(0.7, 0.5)",cs_neg_s,0,0,0,0,,,,,,,,,,,,,,,,,,,,,1,6,30,11,,,,,,,,,,,,,,,,,,,,,,,,,,,276,reward,,,,,,1155.5857871999033,1155.5857871999033,1155.5857871999033,1155.5857871999033,0,,,0,,,0,,,0,,,1156.2941009999486,1156.2941009999486,1156.2941009999486,1156.2941009999486,51,A,2024-05-22_16h31.12.725,attentional_competition_task,2022.2.4,144.01025355448053,
positions.xlsx,positions_test.xlsx,positions_test_new.xlsx,stimuli.xlsx,stimuli_new.xlsx,stimuli/Social1.png,stimuli/Social2.png,stimuli/Nonsocial1.png,stimuli/Nonsocial2.png,stimuli/Social3.png,stimuli/Social4.png,stimuli/Nonsocial3.png,stimuli/Nonsocial4.png,,,"(-0.7, -0.5)",cs_neg_s,"(-0.7, 0.5)",cs_neg_ns,"(0.7, -0.5)",cs_pos_ns,"(0.7, 0.5)",cs_pos_s,0,0,0,0,,,,,,,,,,,,,,,,,,,,,1,7,31,3,,,,,,,,,,,,,,,,,,,,,,,,,,,285,reward,,,,,,1164.1618429999799,1164.1618429999799,1164.1618429999799,1164.1618429999799,0,,,0,,,0,,,0,,,1164.8909864999587,1164.8909864999587,1164.8909864999587,1164.8909864999587,51,A,2024-05-22_16h31.12.725,attentional_competition_task,2022.2.4,144.01025355448053,
positions.xlsx,positions_test.xlsx,positions_test_new.xlsx,stimuli.xlsx,stimuli_new.xlsx,stimuli/Social1.png,stimuli/Social2.png,stimuli/Nonsocial1.png,stimuli/Nonsocial2.png,stimuli/Social3.png,stimuli/Social4.png,stimuli/Nonsocial3.png,stimuli/Nonsocial4.png,,,"(-0.7, -0.5)",cs_pos_ns,"(-0.7, 0.5)",cs_neg_ns,"(0.7, -0.5)",cs_neg_s,"(0.7, 0.5)",cs_pos_s,0,0,0,0,,,,,,,,,,,,,,,,,,,,,1,8,32,21,,,,,,,,,,,,,,,,,,,,,,,,,,,294,reward,,,,,,1172.4740076999879,1172.4740076999879,1172.4740076999879,1172.4740076999879,0,,,0,,,0,,,0,,,1173.3142585000023,1173.3142585000023,1173.3142585000023,1173.3142585000023,51,A,2024-05-22_16h31.12.725,attentional_competition_task,2022.2.4,144.01025355448053,
positions.xlsx,positions_test.xlsx,positions_test_new.xlsx,stimuli.xlsx,stimuli_new.xlsx,stimuli/Social1.png,stimuli/Social2.png,stimuli/Nonsocial1.png,stimuli/Nonsocial2.png,stimuli/Social3.png,stimuli/Social4.png,stimuli/Nonsocial3.png,stimuli/Nonsocial4.png,,,"(-0.7, -0.5)",cs_pos_s,"(-0.7, 0.5)",cs_neg_ns,"(0.7, -0.5)",cs_pos_ns,"(0.7, 0.5)",cs_neg_s,0,0,0,0,,,,,,,,,,,,,,,,,,,,,1,9,33,9,,,,,,,,,,,,,,,,,,,,,,,,,,,297,reward,,,,,,1180.6126075999346,1180.6126075999346,1180.6126075999346,1180.6126075999346,0,,,0,,,1,0.025760099990293384,0.02576360001694411,0,,,1180.6126075999346,1180.6126075999346,1180.6126075999346,1180.6126075999346,51,A,2024-05-22_16h31.12.725,attentional_competition_task,2022.2.4,144.01025355448053,
positions.xlsx,positions_test.xlsx,positions_test_new.xlsx,stimuli.xlsx,stimuli_new.xlsx,stimuli/Social1.png,stimuli/Social2.png,stimuli/Nonsocial1.png,stimuli/Nonsocial2.png,stimuli/Social3.png,stimuli/Social4.png,stimuli/Nonsocial3.png,stimuli/Nonsocial4.png,,,"(-0.7, -0.5)",cs_neg_ns,"(-0.7, 0.5)",cs_pos_s,"(0.7, -0.5)",cs_pos_ns,"(0.7, 0.5)",cs_neg_s,0,0,0,0,,,,,,,,,,,,,,,,,,,,,1,10,34,13,,,,,,,,,,,,,,,,,,,,,,,,,,,300,loss,,,,,,1188.5705627999268,1188.5705627999268,1188.5705627999268,1188.5705627999268,0,,,0,,,0,,,1,0.025401900056749582,0.025406199973076582,1188.5705627999268,1188.5705627999268,1188.5705627999268,1188.5705627999268,51,A,2024-05-22_16h31.12.725,attentional_competition_task,2022.2.4,144.01025355448053,
positions.xlsx,positions_test.xlsx,positions_test_new.xlsx,stimuli.xlsx,stimuli_new.xlsx,stimuli/Social1.png,stimuli/Social2.png,stimuli/Nonsocial1.png,stimuli/Nonsocial2.png,stimuli/Social3.png,stimuli/Social4.png,stimuli/Nonsocial3.png,stimuli/Nonsocial4.png,,,"(-0.7, -0.5)",cs_pos_ns,"(-0.7, 0.5)",cs_pos_s,"(0.7, -0.5)",cs_neg_s,"(0.7, 0.5)",cs_neg_ns,0,0,0,0,,,,,,,,,,,,,,,,,,,,,1,11,35,19,,,,,,,,,,,,,,,,,,,,,,,,,,,306,reward,,,,,,1195.882818199927,1195.882818199927,1195.882818199927,1195.882818199927,1,0.02861549996305257,0.028619499993510544,0,,,0,,,0,,,1195.882818199927,1195.882818199927,1195.882818199927,1195.882818199927,51,A,2024-05-22_16h31.12.725,attentional_competition_task,2022.2.4,144.01025355448053,
positions.xlsx,positions_test.xlsx,positions_test_new.xlsx,stimuli.xlsx,stimuli_new.xlsx,stimuli/Social1.png,stimuli/Social2.png,stimuli/Nonsocial1.png,stimuli/Nonsocial2.png,stimuli/Social3.png,stimuli/Social4.png,stimuli/Nonsocial3.png,stimuli/Nonsocial4.png,,,"(-0.7, -0.5)",cs_pos_ns,"(-0.7, 0.5)",cs_pos_s,"(0.7, -0.5)",cs_neg_ns,"(0.7, 0.5)",cs_neg_s,0,0,0,0,,,,,,,,,,,,,,,,,,,,,1,12,36,18,,,,,,,,,,,,,,,,,,,,,,,,,,,315,reward,,,,,,1204.3269371999195,1204.3269371999195,1204.3269371999195,1204.3269371999195,0,,,0,,,0,,,0,,,1205.1324664999265,1205.1324664999265,1205.1324664999265,1205.1324664999265,51,A,2024-05-22_16h31.12.725,attentional_competition_task,2022.2.4,144.01025355448053,
positions.xlsx,positions_test.xlsx,positions_test_new.xlsx,stimuli.xlsx,stimuli_new.xlsx,stimuli/Social1.png,stimuli/Social2.png,stimuli/Nonsocial1.png,stimuli/Nonsocial2.png,stimuli/Social3.png,stimuli/Social4.png,stimuli/Nonsocial3.png,stimuli/Nonsocial4.png,,,"(-0.7, -0.5)",cs_pos_s,"(-0.7, 0.5)",cs_pos_ns,"(0.7, -0.5)",cs_neg_s,"(0.7, 0.5)",cs_neg_ns,0,0,0,0,,,,,,,,,,,,,,,,,,,,,1,13,37,10,,,,,,,,,,,,,,,,,,,,,,,,,,,318,loss,,,,,,1213.0696131999139,1213.0696131999139,1213.0696131999139,1213.0696131999139,0,,,0,,,1,0.1486925999633968,0.14869639999233186,0,,,1213.222417299985,1213.222417299985,1213.222417299985,1213.222417299985,51,A,2024-05-22_16h31.12.725,attentional_competition_task,2022.2.4,144.01025355448053,
positions.xlsx,positions_test.xlsx,positions_test_new.xlsx,stimuli.xlsx,stimuli_new.xlsx,stimuli/Social1.png,stimuli/Social2.png,stimuli/Nonsocial1.png,stimuli/Nonsocial2.png,stimuli/Social3.png,stimuli/Social4.png,stimuli/Nonsocial3.png,stimuli/Nonsocial4.png,,,"(-0.7, -0.5)",cs_neg_s,"(-0.7, 0.5)",cs_pos_ns,"(0.7, -0.5)",cs_pos_s,"(0.7, 0.5)",cs_neg_ns,0,0,0,0,,,,,,,,,,,,,,,,,,,,,1,14,38,4,,,,,,,,,,,,,,,,,,,,,,,,,,,321,reward,,,,,,1219.6943461999763,1219.6943461999763,1219.6943461999763,1219.6943461999763,0,,,1,1.6061309999786317,1.612934699980542,0,,,0,,,1221.312365199905,1221.312365199905,1221.312365199905,1221.312365199905,51,A,2024-05-22_16h31.12.725,attentional_competition_task,2022.2.4,144.01025355448053,
positions.xlsx,positions_test.xlsx,positions_test_new.xlsx,stimuli.xlsx,stimuli_new.xlsx,stimuli/Social1.png,stimuli/Social2.png,stimuli/Nonsocial1.png,stimuli/Nonsocial2.png,stimuli/Social3.png,stimuli/Social4.png,stimuli/Nonsocial3.png,stimuli/Nonsocial4.png,,,"(-0.7, -0.5)",cs_pos_ns,"(-0.7, 0.5)",cs_neg_s,"(0.7, -0.5)",cs_neg_ns,"(0.7, 0.5)",cs_pos_s,0,0,0,0,,,,,,,,,,,,,,,,,,,,,1,15,39,23,,,,,,,,,,,,,,,,,,,,,,,,,,,324,reward,,,,,,1228.1939998999005,1228.1939998999005,1228.1939998999005,1228.1939998999005,0,,,0,,,0,,,1,1.8006570000434294,1.8076113000279292,1230.006504299934,1230.006504299934,1230.006504299934,1230.006504299934,51,A,2024-05-22_16h31.12.725,attentional_competition_task,2022.2.4,144.01025355448053,
positions.xlsx,positions_test.xlsx,positions_test_new.xlsx,stimuli.xlsx,stimuli_new.xlsx,stimuli/Social1.png,stimuli/Social2.png,stimuli/Nonsocial1.png,stimuli/Nonsocial2.png,stimuli/Social3.png,stimuli/Social4.png,stimuli/Nonsocial3.png,stimuli/Nonsocial4.png,,,"(-0.7, -0.5)",cs_pos_s,"(-0.7, 0.5)",cs_neg_s,"(0.7, -0.5)",cs_neg_ns,"(0.7, 0.5)",cs_pos_ns,0,0,0,0,,,,,,,,,,,,,,,,,,,,,1,16,40,6,,,,,,,,,,,,,,,,,,,,,,,,,,,327,loss,,,,,,1238.5408756999532,1238.5408756999532,1238.5408756999532,1238.5408756999532,0,,,0,,,1,0.025108500034548342,0.02511309995315969,0,,,1238.5408756999532,1238.5408756999532,1238.5408756999532,1238.5408756999532,51,A,2024-05-22_16h31.12.725,attentional_competition_task,2022.2.4,144.01025355448053,
positions.xlsx,positions_test.xlsx,positions_test_new.xlsx,stimuli.xlsx,stimuli_new.xlsx,stimuli/Social1.png,stimuli/Social2.png,stimuli/Nonsocial1.png,stimuli/Nonsocial2.png,stimuli/Social3.png,stimuli/Social4.png,stimuli/Nonsocial3.png,stimuli/Nonsocial4.png,,,"(-0.7, -0.5)",cs_neg_s,"(-0.7, 0.5)",cs_pos_ns,"(0.7, -0.5)",cs_neg_ns,"(0.7, 0.5)",cs_pos_s,0,0,0,0,,,,,,,,,,,,,,,,,,,,,1,17,41,5,,,,,,,,,,,,,,,,,,,,,,,,,,,336,reward,,,,,,1247.2001971999416,1247.2001971999416,1247.2001971999416,1247.2001971999416,0,,,0,,,0,,,1,0.025274200015701354,0.17910990002565086,1247.8876847999636,1247.8876847999636,1247.8876847999636,1247.8876847999636,51,A,2024-05-22_16h31.12.725,attentional_competition_task,2022.2.4,144.01025355448053,
positions.xlsx,positions_test.xlsx,positions_test_new.xlsx,stimuli.xlsx,stimuli_new.xlsx,stimuli/Social1.png,stimuli/Social2.png,stimuli/Nonsocial1.png,stimuli/Nonsocial2.png,stimuli/Social3.png,stimuli/Social4.png,stimuli/Nonsocial3.png,stimuli/Nonsocial4.png,,,"(-0.7, -0.5)",cs_neg_ns,"(-0.7, 0.5)",cs_pos_s,"(0.7, -0.5)",cs_neg_s,"(0.7, 0.5)",cs_pos_ns,0,0,0,0,,,,,,,,,,,,,,,,,,,,,1,18,42,12,,,,,,,,,,,,,,,,,,,,,,,,,,,339,reward,,,,,,1256.276235199999,1256.276235199999,1256.276235199999,1256.276235199999,0,,,1,0.022991899983026087,0.022995400009676814,0,,,0,,,1256.276235199999,1256.276235199999,1256.276235199999,1256.276235199999,51,A,2024-05-22_16h31.12.725,attentional_competition_task,2022.2.4,144.01025355448053,
positions.xlsx,positions_test.xlsx,positions_test_new.xlsx,stimuli.xlsx,stimuli_new.xlsx,stimuli/Social1.png,stimuli/Social2.png,stimuli/Nonsocial1.png,stimuli/Nonsocial2.png,stimuli/Social3.png,stimuli/Social4.png,stimuli/Nonsocial3.png,stimuli/Nonsocial4.png,,,"(-0.7, -0.5)",cs_pos_ns,"(-0.7, 0.5)",cs_neg_s,"(0.7, -0.5)",cs_pos_s,"(0.7, 0.5)",cs_neg_ns,0,0,0,0,,,,,,,,,,,,,,,,,,,,,1,19,43,22,,,,,,,,,,,,,,,,,,,,,,,,,,,345,reward,,,,,,1265.0258815999841,1265.0258815999841,1265.0258815999841,1265.0258815999841,0,,,0,,,1,0.02994459995534271,0.029948699986562133,0,,,1265.0258815999841,1265.0258815999841,1265.0258815999841,1265.0258815999841,51,A,2024-05-22_16h31.12.725,attentional_competition_task,2022.2.4,144.01025355448053,
positions.xlsx,positions_test.xlsx,positions_test_new.xlsx,stimuli.xlsx,stimuli_new.xlsx,stimuli/Social1.png,stimuli/Social2.png,stimuli/Nonsocial1.png,stimuli/Nonsocial2.png,stimuli/Social3.png,stimuli/Social4.png,stimuli/Nonsocial3.png,stimuli/Nonsocial4.png,,,"(-0.7, -0.5)",cs_neg_s,"(-0.7, 0.5)",cs_pos_s,"(0.7, -0.5)",cs_neg_ns,"(0.7, 0.5)",cs_pos_ns,0,0,0,0,,,,,,,,,,,,,,,,,,,,,1,20,44,0,,,,,,,,,,,,,,,,,,,,,,,,,,,354,reward,,,,,,1273.365834999946,1273.365834999946,1273.365834999946,1273.365834999946,0,,,0,,,0,,,0,,,1274.074137599906,1274.074137599906,1274.074137599906,1274.074137599906,51,A,2024-05-22_16h31.12.725,attentional_competition_task,2022.2.4,144.01025355448053,
positions.xlsx,positions_test.xlsx,positions_test_new.xlsx,stimuli.xlsx,stimuli_new.xlsx,stimuli/Social1.png,stimuli/Social2.png,stimuli/Nonsocial1.png,stimuli/Nonsocial2.png,stimuli/Social3.png,stimuli/Social4.png,stimuli/Nonsocial3.png,stimuli/Nonsocial4.png,,,"(-0.7, -0.5)",cs_neg_ns,"(-0.7, 0.5)",cs_pos_ns,"(0.7, -0.5)",cs_neg_s,"(0.7, 0.5)",cs_pos_s,0,0,0,0,,,,,,,,,,,,,,,,,,,,,1,21,45,17,,,,,,,,,,,,,,,,,,,,,,,,,,,363,reward,,,,,,1281.4627247999888,1281.4627247999888,1281.4627247999888,1281.4627247999888,0,,,0,,,0,,,0,,,1282.2613197999308,1282.2613197999308,1282.2613197999308,1282.2613197999308,51,A,2024-05-22_16h31.12.725,attentional_competition_task,2022.2.4,144.01025355448053,
positions.xlsx,positions_test.xlsx,positions_test_new.xlsx,stimuli.xlsx,stimuli_new.xlsx,stimuli/Social1.png,stimuli/Social2.png,stimuli/Nonsocial1.png,stimuli/Nonsocial2.png,stimuli/Social3.png,stimuli/Social4.png,stimuli/Nonsocial3.png,stimuli/Nonsocial4.png,,,"(-0.7, -0.5)",cs_pos_ns,"(-0.7, 0.5)",cs_neg_ns,"(0.7, -0.5)",cs_pos_s,"(0.7, 0.5)",cs_neg_s,0,0,0,0,,,,,,,,,,,,,,,,,,,,,1,22,46,20,,,,,,,,,,,,,,,,,,,,,,,,,,,363,loss,,,,,,1289.733232599916,1289.733232599916,1289.733232599916,1289.733232599916,0,,,0,,,0,,,1,0.14203920005820692,0.14204299997072667,1289.8859882999677,1289.8859882999677,1289.8859882999677,1289.8859882999677,51,A,2024-05-22_16h31.12.725,attentional_competition_task,2022.2.4,144.01025355448053,
positions.xlsx,positions_test.xlsx,positions_test_new.xlsx,stimuli.xlsx,stimuli_new.xlsx,stimuli/Social1.png,stimuli/Social2.png,stimuli/Nonsocial1.png,stimuli/Nonsocial2.png,stimuli/Social3.png,stimuli/Social4.png,stimuli/Nonsocial3.png,stimuli/Nonsocial4.png,,,"(-0.7, -0.5)",cs_pos_s,"(-0.7, 0.5)",cs_neg_ns,"(0.7, -0.5)",cs_neg_s,"(0.7, 0.5)",cs_pos_ns,0,0,0,0,,,,,,,,,,,,,,,,,,,,,1,23,47,8,,,,,,,,,,,,,,,,,,,,,,,,,,,369,reward,,,,,,1298.5036965999752,1298.5036965999752,1298.5036965999752,1298.5036965999752,1,0.07881560001987964,0.07881960005033761,0,,,0,,,0,,,1298.5801160999108,1298.5801160999108,1298.5801160999108,1298.5801160999108,51,A,2024-05-22_16h31.12.725,attentional_competition_task,2022.2.4,144.01025355448053,
positions.xlsx,positions_test.xlsx,positions_test_new.xlsx,stimuli.xlsx,stimuli_new.xlsx,stimuli/Social1.png,stimuli/Social2.png,stimuli/Nonsocial1.png,stimuli/Nonsocial2.png,stimuli/Social3.png,stimuli/Social4.png,stimuli/Nonsocial3.png,stimuli/Nonsocial4.png,,,"(-0.7, -0.5)",cs_pos_s,"(-0.7, 0.5)",cs_neg_ns,"(0.7, -0.5)",cs_neg_s,"(0.7, 0.5)",cs_pos_ns,0,0,0,0,,,,,,,,,,,,,,,,,,,,,,,,,,,,,0,0,0,2,0,0,0,0,,,,,,,,,,,,,,,372,reward,,,,,,1305.822847399977,1305.822847399977,1305.822847399977,1305.822847399977,0,,,0,,,0,,,1,1.0372107999864966,1.0372143000131473,1306.8645298999036,1306.8645298999036,1306.8645298999036,1306.8645298999036,51,A,2024-05-22_16h31.12.725,attentional_competition_task,2022.2.4,144.01025355448053,
positions.xlsx,positions_test.xlsx,positions_test_new.xlsx,stimuli.xlsx,stimuli_new.xlsx,stimuli/Social1.png,stimuli/Social2.png,stimuli/Nonsocial1.png,stimuli/Nonsocial2.png,stimuli/Social3.png,stimuli/Social4.png,stimuli/Nonsocial3.png,stimuli/Nonsocial4.png,,,"(-0.7, -0.5)",cs_pos_s,"(-0.7, 0.5)",cs_neg_ns,"(0.7, -0.5)",cs_neg_s,"(0.7, 0.5)",cs_pos_ns,0,0,0,0,,,,,,,,,,,,,,,,,,,,,,,,,,,,,0,0,0,2,1,0,1,0,,,,,,,,,,,,,,,375,reward,,,,,,1307.3992069999222,1307.3992069999222,1307.3992069999222,1307.3992069999222,1,0.031069600023329258,0.03107370005454868,0,,,0,,,0,,,1307.3992069999222,1307.3992069999222,1307.3992069999222,1307.3992069999222,51,A,2024-05-22_16h31.12.725,attentional_competition_task,2022.2.4,144.01025355448053,
positions.xlsx,positions_test.xlsx,positions_test_new.xlsx,stimuli.xlsx,stimuli_new.xlsx,stimuli/Social1.png,stimuli/Social2.png,stimuli/Nonsocial1.png,stimuli/Nonsocial2.png,stimuli/Social3.png,stimuli/Social4.png,stimuli/Nonsocial3.png,stimuli/Nonsocial4.png,,,"(-0.7, -0.5)",cs_pos_s,"(-0.7, 0.5)",cs_neg_ns,"(0.7, -0.5)",cs_neg_s,"(0.7, 0.5)",cs_pos_ns,0,0,0,0,,,,,,,,,,,,,,,,,,,,,,,,,,,,,0,0,0,2,,,,,,,,,,,,,,,,,,,,,,,,,,,,,,,,,,,,,,,,,,,,,,51,A,2024-05-22_16h31.12.725,attentional_competition_task,2022.2.4,144.01025355448053,
positions.xlsx,positions_test.xlsx,positions_test_new.xlsx,stimuli.xlsx,stimuli_new.xlsx,stimuli/Social1.png,stimuli/Social2.png,stimuli/Nonsocial1.png,stimuli/Nonsocial2.png,stimuli/Social3.png,stimuli/Social4.png,stimuli/Nonsocial3.png,stimuli/Nonsocial4.png,,,"(-0.7, -0.5)",cs_neg_ns,"(-0.7, 0.5)",cs_pos_s_new,"(0.7, -0.5)",cs_neg_s,"(0.7, 0.5)",cs_pos_ns,0,0,0,0,,,,,,,,,,,,,,,,,,,,,,,,,,,,,0,1,1,31,0,0,0,0,,,,,,,,,,,,,,,378,reward,,,,,,1313.6142379000084,1313.6142379000084,1313.6142379000084,1313.6142379000084,0,,,0,,,0,,,1,1.0021572000114247,1.002160800038837,1314.6212210999802,1314.6212210999802,1314.6212210999802,1314.6212210999802,51,A,2024-05-22_16h31.12.725,attentional_competition_task,2022.2.4,144.01025355448053,
positions.xlsx,positions_test.xlsx,positions_test_new.xlsx,stimuli.xlsx,stimuli_new.xlsx,stimuli/Social1.png,stimuli/Social2.png,stimuli/Nonsocial1.png,stimuli/Nonsocial2.png,stimuli/Social3.png,stimuli/Social4.png,stimuli/Nonsocial3.png,stimuli/Nonsocial4.png,,,"(-0.7, -0.5)",cs_neg_ns,"(-0.7, 0.5)",cs_pos_s_new,"(0.7, -0.5)",cs_neg_s,"(0.7, 0.5)",cs_pos_ns,0,0,0,0,,,,,,,,,,,,,,,,,,,,,,,,,,,,,0,1,1,31,1,0,1,0,,,,,,,,,,,,,,,381,reward,,,,,,1315.148886299925,1315.148886299925,1315.148886299925,1315.148886299925,0,,,1,0.030129099963232875,0.0301329999929294,0,,,0,,,1315.148886299925,1315.148886299925,1315.148886299925,1315.148886299925,51,A,2024-05-22_16h31.12.725,attentional_competition_task,2022.2.4,144.01025355448053,
positions.xlsx,positions_test.xlsx,positions_test_new.xlsx,stimuli.xlsx,stimuli_new.xlsx,stimuli/Social1.png,stimuli/Social2.png,stimuli/Nonsocial1.png,stimuli/Nonsocial2.png,stimuli/Social3.png,stimuli/Social4.png,stimuli/Nonsocial3.png,stimuli/Nonsocial4.png,,,"(-0.7, -0.5)",cs_neg_ns,"(-0.7, 0.5)",cs_pos_s_new,"(0.7, -0.5)",cs_neg_s,"(0.7, 0.5)",cs_pos_ns,0,0,0,0,,,,,,,,,,,,,,,,,,,,,,,,,,,,,0,1,1,31,,,,,,,,,,,,,,,,,,,,,,,,,,,,,,,,,,,,,,,,,,,,,,51,A,2024-05-22_16h31.12.725,attentional_competition_task,2022.2.4,144.01025355448053,
positions.xlsx,positions_test.xlsx,positions_test_new.xlsx,stimuli.xlsx,stimuli_new.xlsx,stimuli/Social1.png,stimuli/Social2.png,stimuli/Nonsocial1.png,stimuli/Nonsocial2.png,stimuli/Social3.png,stimuli/Social4.png,stimuli/Nonsocial3.png,stimuli/Nonsocial4.png,,,"(-0.7, -0.5)",cs_neg_s,"(-0.7, 0.5)",cs_neg_ns_new,"(0.7, -0.5)",cs_pos_s,"(0.7, 0.5)",cs_pos_ns,0,0,0,0,,,,,,,,,,,,,,,,,,,,,,,,,,,,,0,2,2,26,0,0,0,0,,,,,,,,,,,,,,,378,loss,,,,,,1321.7111173999729,1321.7111173999729,1321.7111173999729,1321.7111173999729,1,0.32102629996370524,0.32102979999035597,0,,,0,,,0,,,1322.0375051000156,1322.0375051000156,1322.0375051000156,1322.0375051000156,51,A,2024-05-22_16h31.12.725,attentional_competition_task,2022.2.4,144.01025355448053,
positions.xlsx,positions_test.xlsx,positions_test_new.xlsx,stimuli.xlsx,stimuli_new.xlsx,stimuli/Social1.png,stimuli/Social2.png,stimuli/Nonsocial1.png,stimuli/Nonsocial2.png,stimuli/Social3.png,stimuli/Social4.png,stimuli/Nonsocial3.png,stimuli/Nonsocial4.png,,,"(-0.7, -0.5)",cs_neg_s,"(-0.7, 0.5)",cs_neg_ns_new,"(0.7, -0.5)",cs_pos_s,"(0.7, 0.5)",cs_pos_ns,0,0,0,0,,,,,,,,,,,,,,,,,,,,,,,,,,,,,0,2,2,26,1,0,1,0,,,,,,,,,,,,,,,381,reward,,,,,,1322.5722544000018,1322.5722544000018,1322.5722544000018,1322.5722544000018,0,,,0,,,1,0.025311899953521788,0.02531619998626411,0,,,1322.5722544000018,1322.5722544000018,1322.5722544000018,1322.5722544000018,51,A,2024-05-22_16h31.12.725,attentional_competition_task,2022.2.4,144.01025355448053,
positions.xlsx,positions_test.xlsx,positions_test_new.xlsx,stimuli.xlsx,stimuli_new.xlsx,stimuli/Social1.png,stimuli/Social2.png,stimuli/Nonsocial1.png,stimuli/Nonsocial2.png,stimuli/Social3.png,stimuli/Social4.png,stimuli/Nonsocial3.png,stimuli/Nonsocial4.png,,,"(-0.7, -0.5)",cs_neg_s,"(-0.7, 0.5)",cs_neg_ns_new,"(0.7, -0.5)",cs_pos_s,"(0.7, 0.5)",cs_pos_ns,0,0,0,0,,,,,,,,,,,,,,,,,,,,,,,,,,,,,0,2,2,26,2,0,2,0,,,,,,,,,,,,,,,384,reward,,,,,,1323.0652919999557,1323.0652919999557,1323.0652919999557,1323.0652919999557,0,,,0,,,1,0.027042599976994097,0.65326119994279,0,,,1324.224928200012,1324.224928200012,1324.224928200012,1324.224928200012,51,A,2024-05-22_16h31.12.725,attentional_competition_task,2022.2.4,144.01025355448053,
positions.xlsx,positions_test.xlsx,positions_test_new.xlsx,stimuli.xlsx,stimuli_new.xlsx,stimuli/Social1.png,stimuli/Social2.png,stimuli/Nonsocial1.png,stimuli/Nonsocial2.png,stimuli/Social3.png,stimuli/Social4.png,stimuli/Nonsocial3.png,stimuli/Nonsocial4.png,,,"(-0.7, -0.5)",cs_neg_s,"(-0.7, 0.5)",cs_neg_ns_new,"(0.7, -0.5)",cs_pos_s,"(0.7, 0.5)",cs_pos_ns,0,0,0,0,,,,,,,,,,,,,,,,,,,,,,,,,,,,,0,2,2,26,,,,,,,,,,,,,,,,,,,,,,,,,,,,,,,,,,,,,,,,,,,,,,51,A,2024-05-22_16h31.12.725,attentional_competition_task,2022.2.4,144.01025355448053,
positions.xlsx,positions_test.xlsx,positions_test_new.xlsx,stimuli.xlsx,stimuli_new.xlsx,stimuli/Social1.png,stimuli/Social2.png,stimuli/Nonsocial1.png,stimuli/Nonsocial2.png,stimuli/Social3.png,stimuli/Social4.png,stimuli/Nonsocial3.png,stimuli/Nonsocial4.png,,,"(-0.7, -0.5)",cs_pos_s,"(-0.7, 0.5)",cs_pos_ns,"(0.7, -0.5)",cs_neg_ns,"(0.7, 0.5)",cs_neg_s,0,0,0,0,,,,,,,,,,,,,,,,,,,,,,,,,,,,,0,3,3,0,0,0,0,0,,,,,,,,,,,,,,,387,reward,,,,,,1329.7872147999005,1329.7872147999005,1329.7872147999005,1329.7872147999005,0,,,1,0.8007776000304148,0.8007813999429345,0,,,0,,,1330.5996509999968,1330.5996509999968,1330.5996509999968,1330.5996509999968,51,A,2024-05-22_16h31.12.725,attentional_competition_task,2022.2.4,144.01025355448053,
positions.xlsx,positions_test.xlsx,positions_test_new.xlsx,stimuli.xlsx,stimuli_new.xlsx,stimuli/Social1.png,stimuli/Social2.png,stimuli/Nonsocial1.png,stimuli/Nonsocial2.png,stimuli/Social3.png,stimuli/Social4.png,stimuli/Nonsocial3.png,stimuli/Nonsocial4.png,,,"(-0.7, -0.5)",cs_pos_s,"(-0.7, 0.5)",cs_pos_ns,"(0.7, -0.5)",cs_neg_ns,"(0.7, 0.5)",cs_neg_s,0,0,0,0,,,,,,,,,,,,,,,,,,,,,,,,,,,,,0,3,3,0,1,0,1,0,,,,,,,,,,,,,,,390,reward,,,,,,1331.1274073999375,1331.1274073999375,1331.1274073999375,1331.1274073999375,1,0.029095500009134412,0.02909880003426224,0,,,0,,,0,,,1331.1274073999375,1331.1274073999375,1331.1274073999375,1331.1274073999375,51,A,2024-05-22_16h31.12.725,attentional_competition_task,2022.2.4,144.01025355448053,
positions.xlsx,positions_test.xlsx,positions_test_new.xlsx,stimuli.xlsx,stimuli_new.xlsx,stimuli/Social1.png,stimuli/Social2.png,stimuli/Nonsocial1.png,stimuli/Nonsocial2.png,stimuli/Social3.png,stimuli/Social4.png,stimuli/Nonsocial3.png,stimuli/Nonsocial4.png,,,"(-0.7, -0.5)",cs_pos_s,"(-0.7, 0.5)",cs_pos_ns,"(0.7, -0.5)",cs_neg_ns,"(0.7, 0.5)",cs_neg_s,0,0,0,0,,,,,,,,,,,,,,,,,,,,,,,,,,,,,0,3,3,0,2,0,2,0,,,,,,,,,,,,,,,393,reward,,,,,,1331.6343649999471,1331.6343649999471,1331.6343649999471,1331.6343649999471,1,0.024279400007799268,0.03962380008306354,0,,,0,,,0,,,1332.3079470999073,1332.3079470999073,1332.3079470999073,1332.3079470999073,51,A,2024-05-22_16h31.12.725,attentional_competition_task,2022.2.4,144.01025355448053,
positions.xlsx,positions_test.xlsx,positions_test_new.xlsx,stimuli.xlsx,stimuli_new.xlsx,stimuli/Social1.png,stimuli/Social2.png,stimuli/Nonsocial1.png,stimuli/Nonsocial2.png,stimuli/Social3.png,stimuli/Social4.png,stimuli/Nonsocial3.png,stimuli/Nonsocial4.png,,,"(-0.7, -0.5)",cs_pos_s,"(-0.7, 0.5)",cs_pos_ns,"(0.7, -0.5)",cs_neg_ns,"(0.7, 0.5)",cs_neg_s,0,0,0,0,,,,,,,,,,,,,,,,,,,,,,,,,,,,,0,3,3,0,,,,,,,,,,,,,,,,,,,,,,,,,,,,,,,,,,,,,,,,,,,,,,51,A,2024-05-22_16h31.12.725,attentional_competition_task,2022.2.4,144.01025355448053,
positions.xlsx,positions_test.xlsx,positions_test_new.xlsx,stimuli.xlsx,stimuli_new.xlsx,stimuli/Social1.png,stimuli/Social2.png,stimuli/Nonsocial1.png,stimuli/Nonsocial2.png,stimuli/Social3.png,stimuli/Social4.png,stimuli/Nonsocial3.png,stimuli/Nonsocial4.png,,,"(-0.7, -0.5)",cs_pos_s,"(-0.7, 0.5)",cs_neg_s,"(0.7, -0.5)",cs_pos_ns,"(0.7, 0.5)",cs_neg_ns,0,0,0,0,,,,,,,,,,,,,,,,,,,,,,,,,,,,,0,4,4,7,0,0,0,0,,,,,,,,,,,,,,,390,loss,,,,,,1338.363253199961,1338.363253199961,1338.363253199961,1338.363253199961,0,,,1,0.38380990002769977,0.39110790006816387,0,,,0,,,1338.766008800012,1338.766008800012,1338.766008800012,1338.766008800012,51,A,2024-05-22_16h31.12.725,attentional_competition_task,2022.2.4,144.01025355448053,
positions.xlsx,positions_test.xlsx,positions_test_new.xlsx,stimuli.xlsx,stimuli_new.xlsx,stimuli/Social1.png,stimuli/Social2.png,stimuli/Nonsocial1.png,stimuli/Nonsocial2.png,stimuli/Social3.png,stimuli/Social4.png,stimuli/Nonsocial3.png,stimuli/Nonsocial4.png,,,"(-0.7, -0.5)",cs_pos_s,"(-0.7, 0.5)",cs_neg_s,"(0.7, -0.5)",cs_pos_ns,"(0.7, 0.5)",cs_neg_ns,0,0,0,0,,,,,,,,,,,,,,,,,,,,,,,,,,,,,0,4,4,7,1,0,1,0,,,,,,,,,,,,,,,393,reward,,,,,,1339.2937706999946,1339.2937706999946,1339.2937706999946,1339.2937706999946,1,0.028354499954730272,0.028358499985188246,0,,,0,,,0,,,1339.2937706999946,1339.2937706999946,1339.2937706999946,1339.2937706999946,51,A,2024-05-22_16h31.12.725,attentional_competition_task,2022.2.4,144.01025355448053,
positions.xlsx,positions_test.xlsx,positions_test_new.xlsx,stimuli.xlsx,stimuli_new.xlsx,stimuli/Social1.png,stimuli/Social2.png,stimuli/Nonsocial1.png,stimuli/Nonsocial2.png,stimuli/Social3.png,stimuli/Social4.png,stimuli/Nonsocial3.png,stimuli/Nonsocial4.png,,,"(-0.7, -0.5)",cs_pos_s,"(-0.7, 0.5)",cs_neg_s,"(0.7, -0.5)",cs_pos_ns,"(0.7, 0.5)",cs_neg_ns,0,0,0,0,,,,,,,,,,,,,,,,,,,,,,,,,,,,,0,4,4,7,2,0,2,0,,,,,,,,,,,,,,,396,reward,,,,,,1339.7937544999877,1339.7937544999877,1339.7937544999877,1339.7937544999877,1,0.024033699999563396,0.08091200003400445,0,,,1,0.19921430002432317,0.19921790005173534,0,,,1339.9951302999398,1339.9951302999398,1339.9951302999398,1339.9951302999398,51,A,2024-05-22_16h31.12.725,attentional_competition_task,2022.2.4,144.01025355448053,
positions.xlsx,positions_test.xlsx,positions_test_new.xlsx,stimuli.xlsx,stimuli_new.xlsx,stimuli/Social1.png,stimuli/Social2.png,stimuli/Nonsocial1.png,stimuli/Nonsocial2.png,stimuli/Social3.png,stimuli/Social4.png,stimuli/Nonsocial3.png,stimuli/Nonsocial4.png,,,"(-0.7, -0.5)",cs_pos_s,"(-0.7, 0.5)",cs_neg_s,"(0.7, -0.5)",cs_pos_ns,"(0.7, 0.5)",cs_neg_ns,0,0,0,0,,,,,,,,,,,,,,,,,,,,,,,,,,,,,0,4,4,7,,,,,,,,,,,,,,,,,,,,,,,,,,,,,,,,,,,,,,,,,,,,,,51,A,2024-05-22_16h31.12.725,attentional_competition_task,2022.2.4,144.01025355448053,
positions.xlsx,positions_test.xlsx,positions_test_new.xlsx,stimuli.xlsx,stimuli_new.xlsx,stimuli/Social1.png,stimuli/Social2.png,stimuli/Nonsocial1.png,stimuli/Nonsocial2.png,stimuli/Social3.png,stimuli/Social4.png,stimuli/Nonsocial3.png,stimuli/Nonsocial4.png,,,"(-0.7, -0.5)",cs_pos_s,"(-0.7, 0.5)",cs_pos_ns,"(0.7, -0.5)",cs_neg_ns,"(0.7, 0.5)",cs_neg_s_new,0,0,0,0,,,,,,,,,,,,,,,,,,,,,,,,,,,,,0,5,5,8,0,0,0,0,,,,,,,,,,,,,,,399,reward,,,,,,1347.0504078000085,1347.0504078000085,1347.0504078000085,1347.0504078000085,1,0.2934366000117734,0.2934404000407085,0,,,0,,,0,,,1347.348994400003,1347.348994400003,1347.348994400003,1347.348994400003,51,A,2024-05-22_16h31.12.725,attentional_competition_task,2022.2.4,144.01025355448053,
positions.xlsx,positions_test.xlsx,positions_test_new.xlsx,stimuli.xlsx,stimuli_new.xlsx,stimuli/Social1.png,stimuli/Social2.png,stimuli/Nonsocial1.png,stimuli/Nonsocial2.png,stimuli/Social3.png,stimuli/Social4.png,stimuli/Nonsocial3.png,stimuli/Nonsocial4.png,,,"(-0.7, -0.5)",cs_pos_s,"(-0.7, 0.5)",cs_pos_ns,"(0.7, -0.5)",cs_neg_ns,"(0.7, 0.5)",cs_neg_s_new,0,0,0,0,,,,,,,,,,,,,,,,,,,,,,,,,,,,,0,5,5,8,1,0,1,0,,,,,,,,,,,,,,,402,reward,,,,,,1347.855903699994,1347.855903699994,1347.855903699994,1347.855903699994,1,0.0649011000059545,0.07181179989129305,1,0.09312899992801249,0.09313299995847046,0,,,0,,,1347.9392590000061,1347.9392590000061,1347.9392590000061,1347.9392590000061,51,A,2024-05-22_16h31.12.725,attentional_competition_task,2022.2.4,144.01025355448053,
positions.xlsx,positions_test.xlsx,positions_test_new.xlsx,stimuli.xlsx,stimuli_new.xlsx,stimuli/Social1.png,stimuli/Social2.png,stimuli/Nonsocial1.png,stimuli/Nonsocial2.png,stimuli/Social3.png,stimuli/Social4.png,stimuli/Nonsocial3.png,stimuli/Nonsocial4.png,,,"(-0.7, -0.5)",cs_pos_s,"(-0.7, 0.5)",cs_pos_ns,"(0.7, -0.5)",cs_neg_ns,"(0.7, 0.5)",cs_neg_s_new,0,0,0,0,,,,,,,,,,,,,,,,,,,,,,,,,,,,,0,5,5,8,2,0,2,0,,,,,,,,,,,,,,,405,reward,,,,,,1348.4531366999727,1348.4531366999727,1348.4531366999727,1348.4531366999727,1,0.09962350002024323,0.10641420003958046,1,0.03058939997572452,0.08577330003026873,0,,,0,,,1349.5642240999732,1349.5642240999732,1349.5642240999732,1349.5642240999732,51,A,2024-05-22_16h31.12.725,attentional_competition_task,2022.2.4,144.01025355448053,
positions.xlsx,positions_test.xlsx,positions_test_new.xlsx,stimuli.xlsx,stimuli_new.xlsx,stimuli/Social1.png,stimuli/Social2.png,stimuli/Nonsocial1.png,stimuli/Nonsocial2.png,stimuli/Social3.png,stimuli/Social4.png,stimuli/Nonsocial3.png,stimuli/Nonsocial4.png,,,"(-0.7, -0.5)",cs_pos_s,"(-0.7, 0.5)",cs_pos_ns,"(0.7, -0.5)",cs_neg_ns,"(0.7, 0.5)",cs_neg_s_new,0,0,0,0,,,,,,,,,,,,,,,,,,,,,,,,,,,,,0,5,5,8,,,,,,,,,,,,,,,,,,,,,,,,,,,,,,,,,,,,,,,,,,,,,,51,A,2024-05-22_16h31.12.725,attentional_competition_task,2022.2.4,144.01025355448053,
positions.xlsx,positions_test.xlsx,positions_test_new.xlsx,stimuli.xlsx,stimuli_new.xlsx,stimuli/Social1.png,stimuli/Social2.png,stimuli/Nonsocial1.png,stimuli/Nonsocial2.png,stimuli/Social3.png,stimuli/Social4.png,stimuli/Nonsocial3.png,stimuli/Nonsocial4.png,,,"(-0.7, -0.5)",cs_neg_s,"(-0.7, 0.5)",cs_neg_ns,"(0.7, -0.5)",cs_pos_s,"(0.7, 0.5)",cs_pos_ns,0,0,0,0,,,,,,,,,,,,,,,,,,,,,,,,,,,,,0,6,6,6,0,0,0,0,,,,,,,,,,,,,,,402,loss,,,,,,1355.925056100008,1355.925056100008,1355.925056100008,1355.925056100008,1,0.3905546999303624,0.39759439998306334,0,,,0,,,0,,,1356.3208888999652,1356.3208888999652,1356.3208888999652,1356.3208888999652,51,A,2024-05-22_16h31.12.725,attentional_competition_task,2022.2.4,144.01025355448053,
positions.xlsx,positions_test.xlsx,positions_test_new.xlsx,stimuli.xlsx,stimuli_new.xlsx,stimuli/Social1.png,stimuli/Social2.png,stimuli/Nonsocial1.png,stimuli/Nonsocial2.png,stimuli/Social3.png,stimuli/Social4.png,stimuli/Nonsocial3.png,stimuli/Nonsocial4.png,,,"(-0.7, -0.5)",cs_neg_s,"(-0.7, 0.5)",cs_neg_ns,"(0.7, -0.5)",cs_pos_s,"(0.7, 0.5)",cs_pos_ns,0,0,0,0,,,,,,,,,,,,,,,,,,,,,,,,,,,,,0,6,6,6,1,0,1,0,,,,,,,,,,,,,,,399,loss,,,,,,1356.8277997999685,1356.8277997999685,1356.8277997999685,1356.8277997999685,0,,,1,0.07202209997922182,0.07202580000739545,0,,,0,,,1356.904182999977,1356.904182999977,1356.904182999977,1356.904182999977,51,A,2024-05-22_16h31.12.725,attentional_competition_task,2022.2.4,144.01025355448053,
positions.xlsx,positions_test.xlsx,positions_test_new.xlsx,stimuli.xlsx,stimuli_new.xlsx,stimuli/Social1.png,stimuli/Social2.png,stimuli/Nonsocial1.png,stimuli/Nonsocial2.png,stimuli/Social3.png,stimuli/Social4.png,stimuli/Nonsocial3.png,stimuli/Nonsocial4.png,,,"(-0.7, -0.5)",cs_neg_s,"(-0.7, 0.5)",cs_neg_ns,"(0.7, -0.5)",cs_pos_s,"(0.7, 0.5)",cs_pos_ns,0,0,0,0,,,,,,,,,,,,,,,,,,,,,,,,,,,,,0,6,6,6,2,0,2,0,,,,,,,,,,,,,,,402,reward,,,,,,1357.4319307999685,1357.4319307999685,1357.4319307999685,1357.4319307999685,0,,,0,,,0,,,1,0.02536640001926571,0.025369900045916438,1357.4319307999685,1357.4319307999685,1357.4319307999685,1357.4319307999685,51,A,2024-05-22_16h31.12.725,attentional_competition_task,2022.2.4,144.01025355448053,
positions.xlsx,positions_test.xlsx,positions_test_new.xlsx,stimuli.xlsx,stimuli_new.xlsx,stimuli/Social1.png,stimuli/Social2.png,stimuli/Nonsocial1.png,stimuli/Nonsocial2.png,stimuli/Social3.png,stimuli/Social4.png,stimuli/Nonsocial3.png,stimuli/Nonsocial4.png,,,"(-0.7, -0.5)",cs_neg_s,"(-0.7, 0.5)",cs_neg_ns,"(0.7, -0.5)",cs_pos_s,"(0.7, 0.5)",cs_pos_ns,0,0,0,0,,,,,,,,,,,,,,,,,,,,,,,,,,,,,0,6,6,6,,,,,,,,,,,,,,,,,,,,,,,,,,,,,,,,,,,,,,,,,,,,,,51,A,2024-05-22_16h31.12.725,attentional_competition_task,2022.2.4,144.01025355448053,
positions.xlsx,positions_test.xlsx,positions_test_new.xlsx,stimuli.xlsx,stimuli_new.xlsx,stimuli/Social1.png,stimuli/Social2.png,stimuli/Nonsocial1.png,stimuli/Nonsocial2.png,stimuli/Social3.png,stimuli/Social4.png,stimuli/Nonsocial3.png,stimuli/Nonsocial4.png,,,"(-0.7, -0.5)",cs_neg_s,"(-0.7, 0.5)",cs_pos_s,"(0.7, -0.5)",cs_pos_ns,"(0.7, 0.5)",cs_neg_ns_new,0,0,0,0,,,,,,,,,,,,,,,,,,,,,,,,,,,,,0,7,7,21,0,0,0,0,,,,,,,,,,,,,,,405,reward,,,,,,1364.973306400003,1364.973306400003,1364.973306400003,1364.973306400003,0,,,0,,,1,0.7730976999737322,0.7797708000289276,0,,,1365.7579973000102,1365.7579973000102,1365.7579973000102,1365.7579973000102,51,A,2024-05-22_16h31.12.725,attentional_competition_task,2022.2.4,144.01025355448053,
positions.xlsx,positions_test.xlsx,positions_test_new.xlsx,stimuli.xlsx,stimuli_new.xlsx,stimuli/Social1.png,stimuli/Social2.png,stimuli/Nonsocial1.png,stimuli/Nonsocial2.png,stimuli/Social3.png,stimuli/Social4.png,stimuli/Nonsocial3.png,stimuli/Nonsocial4.png,,,"(-0.7, -0.5)",cs_neg_s,"(-0.7, 0.5)",cs_pos_s,"(0.7, -0.5)",cs_pos_ns,"(0.7, 0.5)",cs_neg_ns_new,0,0,0,0,,,,,,,,,,,,,,,,,,,,,,,,,,,,,0,7,7,21,1,0,1,0,,,,,,,,,,,,,,,408,reward,,,,,,1366.2648964999244,1366.2648964999244,1366.2648964999244,1366.2648964999244,0,,,1,0.07297870004549623,0.0729823000729084,0,,,0,,,1366.3412800999358,1366.3412800999358,1366.3412800999358,1366.3412800999358,51,A,2024-05-22_16h31.12.725,attentional_competition_task,2022.2.4,144.01025355448053,
positions.xlsx,positions_test.xlsx,positions_test_new.xlsx,stimuli.xlsx,stimuli_new.xlsx,stimuli/Social1.png,stimuli/Social2.png,stimuli/Nonsocial1.png,stimuli/Nonsocial2.png,stimuli/Social3.png,stimuli/Social4.png,stimuli/Nonsocial3.png,stimuli/Nonsocial4.png,,,"(-0.7, -0.5)",cs_neg_s,"(-0.7, 0.5)",cs_pos_s,"(0.7, -0.5)",cs_pos_ns,"(0.7, 0.5)",cs_neg_ns_new,0,0,0,0,,,,,,,,,,,,,,,,,,,,,,,,,,,,,0,7,7,21,2,0,2,0,,,,,,,,,,,,,,,405,loss,,,,,,1366.8759836999234,1366.8759836999234,1366.8759836999234,1366.8759836999234,1,0.02959080005530268,0.02959499997086823,0,,,0,,,0,,,1366.8759836999234,1366.8759836999234,1366.8759836999234,1366.8759836999234,51,A,2024-05-22_16h31.12.725,attentional_competition_task,2022.2.4,144.01025355448053,
positions.xlsx,positions_test.xlsx,positions_test_new.xlsx,stimuli.xlsx,stimuli_new.xlsx,stimuli/Social1.png,stimuli/Social2.png,stimuli/Nonsocial1.png,stimuli/Nonsocial2.png,stimuli/Social3.png,stimuli/Social4.png,stimuli/Nonsocial3.png,stimuli/Nonsocial4.png,,,"(-0.7, -0.5)",cs_neg_s,"(-0.7, 0.5)",cs_pos_s,"(0.7, -0.5)",cs_pos_ns,"(0.7, 0.5)",cs_neg_ns_new,0,0,0,0,,,,,,,,,,,,,,,,,,,,,,,,,,,,,0,7,7,21,,,,,,,,,,,,,,,,,,,,,,,,,,,,,,,,,,,,,,,,,,,,,,51,A,2024-05-22_16h31.12.725,attentional_competition_task,2022.2.4,144.01025355448053,
positions.xlsx,positions_test.xlsx,positions_test_new.xlsx,stimuli.xlsx,stimuli_new.xlsx,stimuli/Social1.png,stimuli/Social2.png,stimuli/Nonsocial1.png,stimuli/Nonsocial2.png,stimuli/Social3.png,stimuli/Social4.png,stimuli/Nonsocial3.png,stimuli/Nonsocial4.png,,,"(-0.7, -0.5)",cs_pos_ns_new,"(-0.7, 0.5)",cs_neg_ns,"(0.7, -0.5)",cs_pos_s,"(0.7, 0.5)",cs_neg_s,0,0,0,0,,,,,,,,,,,,,,,,,,,,,,,,,,,,,0,8,8,47,0,0,0,0,,,,,,,,,,,,,,,408,reward,,,,,,1373.4313069999916,1373.4313069999916,1373.4313069999916,1373.4313069999916,1,0.9114269999554381,0.911446199985221,0,,,0,,,0,,,1374.3479165999452,1374.3479165999452,1374.3479165999452,1374.3479165999452,51,A,2024-05-22_16h31.12.725,attentional_competition_task,2022.2.4,144.01025355448053,
positions.xlsx,positions_test.xlsx,positions_test_new.xlsx,stimuli.xlsx,stimuli_new.xlsx,stimuli/Social1.png,stimuli/Social2.png,stimuli/Nonsocial1.png,stimuli/Nonsocial2.png,stimuli/Social3.png,stimuli/Social4.png,stimuli/Nonsocial3.png,stimuli/Nonsocial4.png,,,"(-0.7, -0.5)",cs_pos_ns_new,"(-0.7, 0.5)",cs_neg_ns,"(0.7, -0.5)",cs_pos_s,"(0.7, 0.5)",cs_neg_s,0,0,0,0,,,,,,,,,,,,,,,,,,,,,,,,,,,,,0,8,8,47,1,0,1,0,,,,,,,,,,,,,,,411,reward,,,,,,1374.840946799959,1374.840946799959,1374.840946799959,1374.840946799959,1,0.02247279998846352,0.5935372000094503,0,,,0,,,0,,,1375.9451153000118,1375.9451153000118,1375.9451153000118,1375.9451153000118,51,A,2024-05-22_16h31.12.725,attentional_competition_task,2022.2.4,144.01025355448053,
positions.xlsx,positions_test.xlsx,positions_test_new.xlsx,stimuli.xlsx,stimuli_new.xlsx,stimuli/Social1.png,stimuli/Social2.png,stimuli/Nonsocial1.png,stimuli/Nonsocial2.png,stimuli/Social3.png,stimuli/Social4.png,stimuli/Nonsocial3.png,stimuli/Nonsocial4.png,,,"(-0.7, -0.5)",cs_pos_ns_new,"(-0.7, 0.5)",cs_neg_ns,"(0.7, -0.5)",cs_pos_s,"(0.7, 0.5)",cs_neg_s,0,0,0,0,,,,,,,,,,,,,,,,,,,,,,,,,,,,,0,8,8,47,,,,,,,,,,,,,,,,,,,,,,,,,,,,,,,,,,,,,,,,,,,,,,51,A,2024-05-22_16h31.12.725,attentional_competition_task,2022.2.4,144.01025355448053,
