posFile,posFileTest,posFileTestNew,stimFile,stimFileNew,cs_neg_s,cs_pos_s,cs_neg_ns,cs_pos_ns,cs_neg_s_new,cs_pos_s_new,cs_neg_ns_new,cs_pos_ns_new,stim,position,position1,stim1,position2,stim2,position3,stim3,position4,stim4,blocks.thisRepN,blocks.thisTrialN,blocks.thisN,blocks.thisIndex,ratingtrials1.thisRepN,ratingtrials1.thisTrialN,ratingtrials1.thisN,ratingtrials1.thisIndex,search_task_trials.thisRepN,search_task_trials.thisTrialN,search_task_trials.thisN,search_task_trials.thisIndex,learning_trials.thisRepN,learning_trials.thisTrialN,learning_trials.thisN,learning_trials.thisIndex,trials.thisRepN,trials.thisTrialN,trials.thisN,trials.thisIndex,ratingtrials2.thisRepN,ratingtrials2.thisTrialN,ratingtrials2.thisN,ratingtrials2.thisIndex,testtrials.thisRepN,testtrials.thisTrialN,testtrials.thisN,testtrials.thisIndex,loop_test.thisRepN,loop_test.thisTrialN,loop_test.thisN,loop_test.thisIndex,testtrials_novelty.thisRepN,testtrials_novelty.thisTrialN,testtrials_novelty.thisN,testtrials_novelty.thisIndex,loop_test_novelty.thisRepN,loop_test_novelty.thisTrialN,loop_test_novelty.thisN,loop_test_novelty.thisIndex,ratingtrials3.thisRepN,ratingtrials3.thisTrialN,ratingtrials3.thisN,ratingtrials3.thisIndex,textStart.started,textStartExp.started,imageRating.started,sliderStim.response,sliderStim.rt,textStartSearch.started,target_positions,distractor_positions,textStartTask.started,image.started,score,outcome,roi.numLooks,roi.timesOn,roi.timesOff,imageFeedback.started,textTestInstr.started,test_image1.started,test_image2.started,test_image3.started,test_image4.started,test_roi1.numLooks,test_roi1.timesOn,test_roi1.timesOff,test_roi2.numLooks,test_roi2.timesOn,test_roi2.timesOff,test_roi3.numLooks,test_roi3.timesOn,test_roi3.timesOff,test_roi4.numLooks,test_roi4.timesOn,test_roi4.timesOff,test_image_feedback1.started,test_image_feedback2.started,test_iamge_feedback3.started,test_iamge_feedback4.started,participant,group,date,expName,psychopyVersion,frameRate,
positions.xlsx,positions_test.xlsx,positions_test_new.xlsx,stimuli.xlsx,stimuli_new.xlsx,stimuli/Social4.png,stimuli/Social3.png,stimuli/Nonsocial4.png,stimuli/Nonsocial3.png,stimuli/Social2.png,stimuli/Social1.png,stimuli/Nonsocial2.png,stimuli/Nonsocial1.png,cs_neg_ns,,,,,,,,,,0,0,0,0,0,0,0,1,,,,,,,,,,,,,,,,,,,,,,,,,,,,,,,,,,,,,15.060376200010069,91.07687049999367,101.88205990003189,9.0,10.183230999973603,,,,,,,,,,,,,,,,,,,,,,,,,,,,,,,,,31,D,2024-05-14_13h17.02.820,attentional_competition_task,2022.2.4,143.98682241340887,
positions.xlsx,positions_test.xlsx,positions_test_new.xlsx,stimuli.xlsx,stimuli_new.xlsx,stimuli/Social4.png,stimuli/Social3.png,stimuli/Nonsocial4.png,stimuli/Nonsocial3.png,stimuli/Social2.png,stimuli/Social1.png,stimuli/Nonsocial2.png,stimuli/Nonsocial1.png,cs_neg_s,,,,,,,,,,0,0,0,0,0,1,1,0,,,,,,,,,,,,,,,,,,,,,,,,,,,,,,,,,,,,,,,112.92332840000745,5.0,3.1369701999938115,,,,,,,,,,,,,,,,,,,,,,,,,,,,,,,,,31,D,2024-05-14_13h17.02.820,attentional_competition_task,2022.2.4,143.98682241340887,
positions.xlsx,positions_test.xlsx,positions_test_new.xlsx,stimuli.xlsx,stimuli_new.xlsx,stimuli/Social4.png,stimuli/Social3.png,stimuli/Nonsocial4.png,stimuli/Nonsocial3.png,stimuli/Social2.png,stimuli/Social1.png,stimuli/Nonsocial2.png,stimuli/Nonsocial1.png,cs_pos_s,,,,,,,,,,0,0,0,0,0,2,2,2,,,,,,,,,,,,,,,,,,,,,,,,,,,,,,,,,,,,,,,117.62452950002626,4.0,2.645002699980978,,,,,,,,,,,,,,,,,,,,,,,,,,,,,,,,,31,D,2024-05-14_13h17.02.820,attentional_competition_task,2022.2.4,143.98682241340887,
positions.xlsx,positions_test.xlsx,positions_test_new.xlsx,stimuli.xlsx,stimuli_new.xlsx,stimuli/Social4.png,stimuli/Social3.png,stimuli/Nonsocial4.png,stimuli/Nonsocial3.png,stimuli/Social2.png,stimuli/Social1.png,stimuli/Nonsocial2.png,stimuli/Nonsocial1.png,cs_pos_ns,,,,,,,,,,0,0,0,0,0,3,3,3,,,,,,,,,,,,,,,,,,,,,,,,,,,,,,,,,,,,,,,120.97157870000228,6.0,3.003870900021866,,,,,,,,,,,,,,,,,,,,,,,,,,,,,,,,,31,D,2024-05-14_13h17.02.820,attentional_competition_task,2022.2.4,143.98682241340887,
positions.xlsx,positions_test.xlsx,positions_test_new.xlsx,stimuli.xlsx,stimuli_new.xlsx,stimuli/Social4.png,stimuli/Social3.png,stimuli/Nonsocial4.png,stimuli/Nonsocial3.png,stimuli/Social2.png,stimuli/Social1.png,stimuli/Nonsocial2.png,stimuli/Nonsocial1.png,,,,,,,,,,,0,0,0,0,,,,,0,0,0,0,,,,,,,,,,,,,,,,,,,,,,,,,,,,,,,,,,,,,,124.5201187999919,"[[0.9, -0.8], [0.22499999999999998, 0.7], [0.45000000000000007, -0.30000000000000004], [-0.22499999999999998, 0.7], [0.0, -0.30000000000000004], [-0.22499999999999998, -0.8], [0.0, 0.7], [0.6749999999999999, 0.7], [-0.675, 0.7], [-0.9, 0.19999999999999996], [-0.22499999999999998, -0.30000000000000004], [0.45000000000000007, 0.19999999999999996], [0.45000000000000007, 0.7], [0.6749999999999999, 0.19999999999999996], [-0.22499999999999998, 0.19999999999999996]]","[[0.22499999999999998, -0.30000000000000004], [0.9, -0.30000000000000004], [-0.45, 0.7], [-0.675, -0.8], [-0.675, 0.19999999999999996], [0.9, 0.19999999999999996], [-0.45, 0.19999999999999996], [-0.45, -0.30000000000000004], [0.9, 0.7], [0.22499999999999998, -0.8], [0.22499999999999998, 0.19999999999999996], [0.6749999999999999, -0.8], [0.0, -0.8], [-0.9, -0.30000000000000004], [-0.9, -0.8]]",,,,,,,,,,,,,,,,,,,,,,,,,,,,,,31,D,2024-05-14_13h17.02.820,attentional_competition_task,2022.2.4,143.98682241340887,
positions.xlsx,positions_test.xlsx,positions_test_new.xlsx,stimuli.xlsx,stimuli_new.xlsx,stimuli/Social4.png,stimuli/Social3.png,stimuli/Nonsocial4.png,stimuli/Nonsocial3.png,stimuli/Social2.png,stimuli/Social1.png,stimuli/Nonsocial2.png,stimuli/Nonsocial1.png,,,,,,,,,,,0,0,0,0,,,,,1,0,1,0,,,,,,,,,,,,,,,,,,,,,,,,,,,,,,,,,,,,,,,"[[0.6749999999999999, -0.8], [0.0, 0.7], [-0.22499999999999998, 0.7], [-0.675, 0.19999999999999996], [0.9, 0.19999999999999996], [0.9, -0.30000000000000004], [0.0, -0.8], [0.22499999999999998, 0.7], [-0.45, -0.8], [0.45000000000000007, -0.8], [-0.22499999999999998, -0.30000000000000004], [0.22499999999999998, 0.19999999999999996], [-0.9, -0.30000000000000004], [0.0, -0.30000000000000004], [-0.9, 0.19999999999999996]]","[[-0.22499999999999998, 0.19999999999999996], [0.6749999999999999, 0.7], [0.22499999999999998, -0.8], [-0.675, -0.30000000000000004], [0.45000000000000007, -0.30000000000000004], [0.45000000000000007, 0.7], [-0.675, -0.8], [-0.22499999999999998, -0.8], [-0.45, 0.7], [-0.675, 0.7], [0.45000000000000007, 0.19999999999999996], [0.0, 0.19999999999999996], [-0.9, -0.8], [0.22499999999999998, -0.30000000000000004], [0.6749999999999999, 0.19999999999999996]]",,,,,,,,,,,,,,,,,,,,,,,,,,,,,,31,D,2024-05-14_13h17.02.820,attentional_competition_task,2022.2.4,143.98682241340887,
positions.xlsx,positions_test.xlsx,positions_test_new.xlsx,stimuli.xlsx,stimuli_new.xlsx,stimuli/Social4.png,stimuli/Social3.png,stimuli/Nonsocial4.png,stimuli/Nonsocial3.png,stimuli/Social2.png,stimuli/Social1.png,stimuli/Nonsocial2.png,stimuli/Nonsocial1.png,cs_neg_s,"(0.7, -0.5)",,,,,,,,,0,0,0,0,,,,,,,,,0,0,0,3,,,,,,,,,,,,,,,,,,,,,,,,,,,,,,,,,,,,,208.63486629998079,225.96056680002948,-3,loss,1,0.29211430001305416,0.2921179999830201,226.266095900035,,,,,,,,,,,,,,,,,,,,,,31,D,2024-05-14_13h17.02.820,attentional_competition_task,2022.2.4,143.98682241340887,
positions.xlsx,positions_test.xlsx,positions_test_new.xlsx,stimuli.xlsx,stimuli_new.xlsx,stimuli/Social4.png,stimuli/Social3.png,stimuli/Nonsocial4.png,stimuli/Nonsocial3.png,stimuli/Social2.png,stimuli/Social1.png,stimuli/Nonsocial2.png,stimuli/Nonsocial1.png,cs_neg_s,"(-0.7, 0.5)",,,,,,,,,0,0,0,0,,,,,,,,,0,1,1,0,,,,,,,,,,,,,,,,,,,,,,,,,,,,,,,,,,,,,,234.02274139999645,-3,none,0,,,237.0434769000276,,,,,,,,,,,,,,,,,,,,,,31,D,2024-05-14_13h17.02.820,attentional_competition_task,2022.2.4,143.98682241340887,
positions.xlsx,positions_test.xlsx,positions_test_new.xlsx,stimuli.xlsx,stimuli_new.xlsx,stimuli/Social4.png,stimuli/Social3.png,stimuli/Nonsocial4.png,stimuli/Nonsocial3.png,stimuli/Social2.png,stimuli/Social1.png,stimuli/Nonsocial2.png,stimuli/Nonsocial1.png,cs_neg_s,"(-0.7, -0.5)",,,,,,,,,0,0,0,0,,,,,,,,,0,2,2,1,,,,,,,,,,,,,,,,,,,,,,,,,,,,,,,,,,,,,,244.70985440001823,-3,none,0,,,247.71669810003368,,,,,,,,,,,,,,,,,,,,,,31,D,2024-05-14_13h17.02.820,attentional_competition_task,2022.2.4,143.98682241340887,
positions.xlsx,positions_test.xlsx,positions_test_new.xlsx,stimuli.xlsx,stimuli_new.xlsx,stimuli/Social4.png,stimuli/Social3.png,stimuli/Nonsocial4.png,stimuli/Nonsocial3.png,stimuli/Social2.png,stimuli/Social1.png,stimuli/Nonsocial2.png,stimuli/Nonsocial1.png,cs_neg_ns,"(0.7, 0.5)",,,,,,,,,0,0,0,0,,,,,,,,,0,3,3,10,,,,,,,,,,,,,,,,,,,,,,,,,,,,,,,,,,,,,,255.27197370002978,-6,loss,1,0.4444229999789968,0.4513413999811746,255.7302589000319,,,,,,,,,,,,,,,,,,,,,,31,D,2024-05-14_13h17.02.820,attentional_competition_task,2022.2.4,143.98682241340887,
positions.xlsx,positions_test.xlsx,positions_test_new.xlsx,stimuli.xlsx,stimuli_new.xlsx,stimuli/Social4.png,stimuli/Social3.png,stimuli/Nonsocial4.png,stimuli/Nonsocial3.png,stimuli/Social2.png,stimuli/Social1.png,stimuli/Nonsocial2.png,stimuli/Nonsocial1.png,cs_pos_s,"(-0.7, 0.5)",,,,,,,,,0,0,0,0,,,,,,,,,0,4,4,4,,,,,,,,,,,,,,,,,,,,,,,,,,,,,,,,,,,,,,263.0910857000272,-3,reward,1,0.8265463999705389,0.8265498999971896,263.9382526000263,,,,,,,,,,,,,,,,,,,,,,31,D,2024-05-14_13h17.02.820,attentional_competition_task,2022.2.4,143.98682241340887,
positions.xlsx,positions_test.xlsx,positions_test_new.xlsx,stimuli.xlsx,stimuli_new.xlsx,stimuli/Social4.png,stimuli/Social3.png,stimuli/Nonsocial4.png,stimuli/Nonsocial3.png,stimuli/Social2.png,stimuli/Social1.png,stimuli/Nonsocial2.png,stimuli/Nonsocial1.png,cs_neg_ns,"(-0.7, -0.5)",,,,,,,,,0,0,0,0,,,,,,,,,0,5,5,9,,,,,,,,,,,,,,,,,,,,,,,,,,,,,,,,,,,,,,271.2921532000182,-3,none,0,,,274.3058838000288,,,,,,,,,,,,,,,,,,,,,,31,D,2024-05-14_13h17.02.820,attentional_competition_task,2022.2.4,143.98682241340887,
positions.xlsx,positions_test.xlsx,positions_test_new.xlsx,stimuli.xlsx,stimuli_new.xlsx,stimuli/Social4.png,stimuli/Social3.png,stimuli/Nonsocial4.png,stimuli/Nonsocial3.png,stimuli/Social2.png,stimuli/Social1.png,stimuli/Nonsocial2.png,stimuli/Nonsocial1.png,cs_neg_ns,"(-0.7, 0.5)",,,,,,,,,0,0,0,0,,,,,,,,,0,6,6,8,,,,,,,,,,,,,,,,,,,,,,,,,,,,,,,,,,,,,,281.97922730003484,-6,loss,1,0.799286299967207,0.7993056999985129,282.79171950003365,,,,,,,,,,,,,,,,,,,,,,31,D,2024-05-14_13h17.02.820,attentional_competition_task,2022.2.4,143.98682241340887,
positions.xlsx,positions_test.xlsx,positions_test_new.xlsx,stimuli.xlsx,stimuli_new.xlsx,stimuli/Social4.png,stimuli/Social3.png,stimuli/Nonsocial4.png,stimuli/Nonsocial3.png,stimuli/Social2.png,stimuli/Social1.png,stimuli/Nonsocial2.png,stimuli/Nonsocial1.png,cs_neg_s,"(0.7, 0.5)",,,,,,,,,0,0,0,0,,,,,,,,,0,7,7,2,,,,,,,,,,,,,,,,,,,,,,,,,,,,,,,,,,,,,,290.5761496000341,-6,none,0,,,293.58993860002374,,,,,,,,,,,,,,,,,,,,,,31,D,2024-05-14_13h17.02.820,attentional_competition_task,2022.2.4,143.98682241340887,
positions.xlsx,positions_test.xlsx,positions_test_new.xlsx,stimuli.xlsx,stimuli_new.xlsx,stimuli/Social4.png,stimuli/Social3.png,stimuli/Nonsocial4.png,stimuli/Nonsocial3.png,stimuli/Social2.png,stimuli/Social1.png,stimuli/Nonsocial2.png,stimuli/Nonsocial1.png,cs_pos_s,"(-0.7, -0.5)",,,,,,,,,0,0,0,0,,,,,,,,,0,8,8,5,,,,,,,,,,,,,,,,,,,,,,,,,,,,,,,,,,,,,,301.0479500000365,-3,reward,1,0.8062016000039876,0.806205700035207,301.86042370001087,,,,,,,,,,,,,,,,,,,,,,31,D,2024-05-14_13h17.02.820,attentional_competition_task,2022.2.4,143.98682241340887,
positions.xlsx,positions_test.xlsx,positions_test_new.xlsx,stimuli.xlsx,stimuli_new.xlsx,stimuli/Social4.png,stimuli/Social3.png,stimuli/Nonsocial4.png,stimuli/Nonsocial3.png,stimuli/Social2.png,stimuli/Social1.png,stimuli/Nonsocial2.png,stimuli/Nonsocial1.png,cs_pos_ns,"(-0.7, -0.5)",,,,,,,,,0,0,0,0,,,,,,,,,0,9,9,13,,,,,,,,,,,,,,,,,,,,,,,,,,,,,,,,,,,,,,308.4851614999934,-3,none,0,,,311.49892869999167,,,,,,,,,,,,,,,,,,,,,,31,D,2024-05-14_13h17.02.820,attentional_competition_task,2022.2.4,143.98682241340887,
positions.xlsx,positions_test.xlsx,positions_test_new.xlsx,stimuli.xlsx,stimuli_new.xlsx,stimuli/Social4.png,stimuli/Social3.png,stimuli/Nonsocial4.png,stimuli/Nonsocial3.png,stimuli/Social2.png,stimuli/Social1.png,stimuli/Nonsocial2.png,stimuli/Nonsocial1.png,cs_pos_ns,"(-0.7, 0.5)",,,,,,,,,0,0,0,0,,,,,,,,,0,10,10,12,,,,,,,,,,,,,,,,,,,,,,,,,,,,,,,,,,,,,,319.29724169999827,0,reward,1,0.4584000999457203,0.4584039999754168,319.76250080001773,,,,,,,,,,,,,,,,,,,,,,31,D,2024-05-14_13h17.02.820,attentional_competition_task,2022.2.4,143.98682241340887,
positions.xlsx,positions_test.xlsx,positions_test_new.xlsx,stimuli.xlsx,stimuli_new.xlsx,stimuli/Social4.png,stimuli/Social3.png,stimuli/Nonsocial4.png,stimuli/Nonsocial3.png,stimuli/Social2.png,stimuli/Social1.png,stimuli/Nonsocial2.png,stimuli/Nonsocial1.png,cs_pos_s,"(0.7, -0.5)",,,,,,,,,0,0,0,0,,,,,,,,,0,11,11,7,,,,,,,,,,,,,,,,,,,,,,,,,,,,,,,,,,,,,,327.0955283000367,3,reward,1,0.5075272000394762,0.5075307000079192,327.60941710002953,,,,,,,,,,,,,,,,,,,,,,31,D,2024-05-14_13h17.02.820,attentional_competition_task,2022.2.4,143.98682241340887,
positions.xlsx,positions_test.xlsx,positions_test_new.xlsx,stimuli.xlsx,stimuli_new.xlsx,stimuli/Social4.png,stimuli/Social3.png,stimuli/Nonsocial4.png,stimuli/Nonsocial3.png,stimuli/Social2.png,stimuli/Social1.png,stimuli/Nonsocial2.png,stimuli/Nonsocial1.png,cs_neg_ns,"(0.7, -0.5)",,,,,,,,,0,0,0,0,,,,,,,,,0,12,12,11,,,,,,,,,,,,,,,,,,,,,,,,,,,,,,,,,,,,,,335.4841058999882,3,none,0,,,338.4979178000358,,,,,,,,,,,,,,,,,,,,,,31,D,2024-05-14_13h17.02.820,attentional_competition_task,2022.2.4,143.98682241340887,
positions.xlsx,positions_test.xlsx,positions_test_new.xlsx,stimuli.xlsx,stimuli_new.xlsx,stimuli/Social4.png,stimuli/Social3.png,stimuli/Nonsocial4.png,stimuli/Nonsocial3.png,stimuli/Social2.png,stimuli/Social1.png,stimuli/Nonsocial2.png,stimuli/Nonsocial1.png,cs_pos_s,"(0.7, 0.5)",,,,,,,,,0,0,0,0,,,,,,,,,0,13,13,6,,,,,,,,,,,,,,,,,,,,,,,,,,,,,,,,,,,,,,345.5254627999966,6,reward,1,0.6182758999639191,0.6182795999920927,346.15041040000506,,,,,,,,,,,,,,,,,,,,,,31,D,2024-05-14_13h17.02.820,attentional_competition_task,2022.2.4,143.98682241340887,
positions.xlsx,positions_test.xlsx,positions_test_new.xlsx,stimuli.xlsx,stimuli_new.xlsx,stimuli/Social4.png,stimuli/Social3.png,stimuli/Nonsocial4.png,stimuli/Nonsocial3.png,stimuli/Social2.png,stimuli/Social1.png,stimuli/Nonsocial2.png,stimuli/Nonsocial1.png,cs_pos_ns,"(0.7, 0.5)",,,,,,,,,0,0,0,0,,,,,,,,,0,14,14,14,,,,,,,,,,,,,,,,,,,,,,,,,,,,,,,,,,,,,,354.3722832000349,9,reward,1,0.40999350004130974,0.4099974000127986,354.7889259000076,,,,,,,,,,,,,,,,,,,,,,31,D,2024-05-14_13h17.02.820,attentional_competition_task,2022.2.4,143.98682241340887,
positions.xlsx,positions_test.xlsx,positions_test_new.xlsx,stimuli.xlsx,stimuli_new.xlsx,stimuli/Social4.png,stimuli/Social3.png,stimuli/Nonsocial4.png,stimuli/Nonsocial3.png,stimuli/Social2.png,stimuli/Social1.png,stimuli/Nonsocial2.png,stimuli/Nonsocial1.png,cs_pos_ns,"(0.7, -0.5)",,,,,,,,,0,0,0,0,,,,,,,,,0,15,15,15,,,,,,,,,,,,,,,,,,,,,,,,,,,,,,,,,,,,,,362.7261136000161,12,reward,1,0.5139461999642663,0.5210396999609657,363.25387660000706,,,,,,,,,,,,,,,,,,,,,,31,D,2024-05-14_13h17.02.820,attentional_competition_task,2022.2.4,143.98682241340887,
positions.xlsx,positions_test.xlsx,positions_test_new.xlsx,stimuli.xlsx,stimuli_new.xlsx,stimuli/Social4.png,stimuli/Social3.png,stimuli/Nonsocial4.png,stimuli/Nonsocial3.png,stimuli/Social2.png,stimuli/Social1.png,stimuli/Nonsocial2.png,stimuli/Nonsocial1.png,cs_pos_s,"(-0.7, -0.5)",,,,,,,,,0,0,0,0,,,,,,,,,1,0,16,5,,,,,,,,,,,,,,,,,,,,,,,,,,,,,,,,,,,,,,371.36466710001696,15,reward,1,0.6321543999947608,0.6321579000214115,372.0035412000143,,,,,,,,,,,,,,,,,,,,,,31,D,2024-05-14_13h17.02.820,attentional_competition_task,2022.2.4,143.98682241340887,
positions.xlsx,positions_test.xlsx,positions_test_new.xlsx,stimuli.xlsx,stimuli_new.xlsx,stimuli/Social4.png,stimuli/Social3.png,stimuli/Nonsocial4.png,stimuli/Nonsocial3.png,stimuli/Social2.png,stimuli/Social1.png,stimuli/Nonsocial2.png,stimuli/Nonsocial1.png,cs_neg_ns,"(-0.7, -0.5)",,,,,,,,,0,0,0,0,,,,,,,,,1,1,17,9,,,,,,,,,,,,,,,,,,,,,,,,,,,,,,,,,,,,,,379.3435228000162,12,loss,1,0.4735682000173256,0.4735721999895759,379.8226935000275,,,,,,,,,,,,,,,,,,,,,,31,D,2024-05-14_13h17.02.820,attentional_competition_task,2022.2.4,143.98682241340887,
positions.xlsx,positions_test.xlsx,positions_test_new.xlsx,stimuli.xlsx,stimuli_new.xlsx,stimuli/Social4.png,stimuli/Social3.png,stimuli/Nonsocial4.png,stimuli/Nonsocial3.png,stimuli/Social2.png,stimuli/Social1.png,stimuli/Nonsocial2.png,stimuli/Nonsocial1.png,cs_neg_s,"(-0.7, 0.5)",,,,,,,,,0,0,0,0,,,,,,,,,1,2,18,0,,,,,,,,,,,,,,,,,,,,,,,,,,,,,,,,,,,,,,387.25294750003377,12,none,0,,,390.2667540999828,,,,,,,,,,,,,,,,,,,,,,31,D,2024-05-14_13h17.02.820,attentional_competition_task,2022.2.4,143.98682241340887,
positions.xlsx,positions_test.xlsx,positions_test_new.xlsx,stimuli.xlsx,stimuli_new.xlsx,stimuli/Social4.png,stimuli/Social3.png,stimuli/Nonsocial4.png,stimuli/Nonsocial3.png,stimuli/Social2.png,stimuli/Social1.png,stimuli/Nonsocial2.png,stimuli/Nonsocial1.png,cs_neg_ns,"(0.7, 0.5)",,,,,,,,,0,0,0,0,,,,,,,,,1,3,19,10,,,,,,,,,,,,,,,,,,,,,,,,,,,,,,,,,,,,,,397.27765800000634,9,loss,1,0.6664532999857329,0.6664569000131451,397.9400466000079,,,,,,,,,,,,,,,,,,,,,,31,D,2024-05-14_13h17.02.820,attentional_competition_task,2022.2.4,143.98682241340887,
positions.xlsx,positions_test.xlsx,positions_test_new.xlsx,stimuli.xlsx,stimuli_new.xlsx,stimuli/Social4.png,stimuli/Social3.png,stimuli/Nonsocial4.png,stimuli/Nonsocial3.png,stimuli/Social2.png,stimuli/Social1.png,stimuli/Nonsocial2.png,stimuli/Nonsocial1.png,cs_pos_ns,"(0.7, 0.5)",,,,,,,,,0,0,0,0,,,,,,,,,1,4,20,14,,,,,,,,,,,,,,,,,,,,,,,,,,,,,,,,,,,,,,406.189747299999,12,reward,1,0.6253939000307582,0.6253973999992013,406.8216345999972,,,,,,,,,,,,,,,,,,,,,,31,D,2024-05-14_13h17.02.820,attentional_competition_task,2022.2.4,143.98682241340887,
positions.xlsx,positions_test.xlsx,positions_test_new.xlsx,stimuli.xlsx,stimuli_new.xlsx,stimuli/Social4.png,stimuli/Social3.png,stimuli/Nonsocial4.png,stimuli/Nonsocial3.png,stimuli/Social2.png,stimuli/Social1.png,stimuli/Nonsocial2.png,stimuli/Nonsocial1.png,cs_pos_ns,"(0.7, -0.5)",,,,,,,,,0,0,0,0,,,,,,,,,1,5,21,15,,,,,,,,,,,,,,,,,,,,,,,,,,,,,,,,,,,,,,414.3907637000084,15,reward,1,0.6807464000303298,0.6807504000025801,415.07824469998013,,,,,,,,,,,,,,,,,,,,,,31,D,2024-05-14_13h17.02.820,attentional_competition_task,2022.2.4,143.98682241340887,
positions.xlsx,positions_test.xlsx,positions_test_new.xlsx,stimuli.xlsx,stimuli_new.xlsx,stimuli/Social4.png,stimuli/Social3.png,stimuli/Nonsocial4.png,stimuli/Nonsocial3.png,stimuli/Social2.png,stimuli/Social1.png,stimuli/Nonsocial2.png,stimuli/Nonsocial1.png,cs_neg_ns,"(0.7, -0.5)",,,,,,,,,0,0,0,0,,,,,,,,,1,6,22,11,,,,,,,,,,,,,,,,,,,,,,,,,,,,,,,,,,,,,,422.80713390000165,15,none,0,,,425.82090609997977,,,,,,,,,,,,,,,,,,,,,,31,D,2024-05-14_13h17.02.820,attentional_competition_task,2022.2.4,143.98682241340887,
positions.xlsx,positions_test.xlsx,positions_test_new.xlsx,stimuli.xlsx,stimuli_new.xlsx,stimuli/Social4.png,stimuli/Social3.png,stimuli/Nonsocial4.png,stimuli/Nonsocial3.png,stimuli/Social2.png,stimuli/Social1.png,stimuli/Nonsocial2.png,stimuli/Nonsocial1.png,cs_neg_s,"(0.7, -0.5)",,,,,,,,,0,0,0,0,,,,,,,,,1,7,23,3,,,,,,,,,,,,,,,,,,,,,,,,,,,,,,,,,,,,,,433.2720166000072,15,none,0,,,436.285775700002,,,,,,,,,,,,,,,,,,,,,,31,D,2024-05-14_13h17.02.820,attentional_competition_task,2022.2.4,143.98682241340887,
positions.xlsx,positions_test.xlsx,positions_test_new.xlsx,stimuli.xlsx,stimuli_new.xlsx,stimuli/Social4.png,stimuli/Social3.png,stimuli/Nonsocial4.png,stimuli/Nonsocial3.png,stimuli/Social2.png,stimuli/Social1.png,stimuli/Nonsocial2.png,stimuli/Nonsocial1.png,cs_neg_ns,"(-0.7, 0.5)",,,,,,,,,0,0,0,0,,,,,,,,,1,8,24,8,,,,,,,,,,,,,,,,,,,,,,,,,,,,,,,,,,,,,,443.13273579999804,15,none,0,,,446.1465291000204,,,,,,,,,,,,,,,,,,,,,,31,D,2024-05-14_13h17.02.820,attentional_competition_task,2022.2.4,143.98682241340887,
positions.xlsx,positions_test.xlsx,positions_test_new.xlsx,stimuli.xlsx,stimuli_new.xlsx,stimuli/Social4.png,stimuli/Social3.png,stimuli/Nonsocial4.png,stimuli/Nonsocial3.png,stimuli/Social2.png,stimuli/Social1.png,stimuli/Nonsocial2.png,stimuli/Nonsocial1.png,cs_pos_s,"(0.7, 0.5)",,,,,,,,,0,0,0,0,,,,,,,,,1,9,25,6,,,,,,,,,,,,,,,,,,,,,,,,,,,,,,,,,,,,,,453.2087627000292,18,reward,1,0.6459355000406504,0.6459394000121392,453.8614860000089,,,,,,,,,,,,,,,,,,,,,,31,D,2024-05-14_13h17.02.820,attentional_competition_task,2022.2.4,143.98682241340887,
positions.xlsx,positions_test.xlsx,positions_test_new.xlsx,stimuli.xlsx,stimuli_new.xlsx,stimuli/Social4.png,stimuli/Social3.png,stimuli/Nonsocial4.png,stimuli/Nonsocial3.png,stimuli/Social2.png,stimuli/Social1.png,stimuli/Nonsocial2.png,stimuli/Nonsocial1.png,cs_neg_s,"(0.7, 0.5)",,,,,,,,,0,0,0,0,,,,,,,,,1,10,26,2,,,,,,,,,,,,,,,,,,,,,,,,,,,,,,,,,,,,,,462.04174200003035,18,none,0,,,465.0555819000001,,,,,,,,,,,,,,,,,,,,,,31,D,2024-05-14_13h17.02.820,attentional_competition_task,2022.2.4,143.98682241340887,
positions.xlsx,positions_test.xlsx,positions_test_new.xlsx,stimuli.xlsx,stimuli_new.xlsx,stimuli/Social4.png,stimuli/Social3.png,stimuli/Nonsocial4.png,stimuli/Nonsocial3.png,stimuli/Social2.png,stimuli/Social1.png,stimuli/Nonsocial2.png,stimuli/Nonsocial1.png,cs_pos_s,"(0.7, -0.5)",,,,,,,,,0,0,0,0,,,,,,,,,1,11,27,7,,,,,,,,,,,,,,,,,,,,,,,,,,,,,,,,,,,,,,471.9371885000146,21,reward,1,0.549457999994047,0.5562500000232831,472.4996795000043,,,,,,,,,,,,,,,,,,,,,,31,D,2024-05-14_13h17.02.820,attentional_competition_task,2022.2.4,143.98682241340887,
positions.xlsx,positions_test.xlsx,positions_test_new.xlsx,stimuli.xlsx,stimuli_new.xlsx,stimuli/Social4.png,stimuli/Social3.png,stimuli/Nonsocial4.png,stimuli/Nonsocial3.png,stimuli/Social2.png,stimuli/Social1.png,stimuli/Nonsocial2.png,stimuli/Nonsocial1.png,cs_pos_ns,"(-0.7, -0.5)",,,,,,,,,0,0,0,0,,,,,,,,,1,12,28,13,,,,,,,,,,,,,,,,,,,,,,,,,,,,,,,,,,,,,,479.3119073000271,24,reward,1,1.7294077000115067,1.7294133999967016,481.0479493000312,,,,,,,,,,,,,,,,,,,,,,31,D,2024-05-14_13h17.02.820,attentional_competition_task,2022.2.4,143.98682241340887,
positions.xlsx,positions_test.xlsx,positions_test_new.xlsx,stimuli.xlsx,stimuli_new.xlsx,stimuli/Social4.png,stimuli/Social3.png,stimuli/Nonsocial4.png,stimuli/Nonsocial3.png,stimuli/Social2.png,stimuli/Social1.png,stimuli/Nonsocial2.png,stimuli/Nonsocial1.png,cs_pos_ns,"(-0.7, 0.5)",,,,,,,,,0,0,0,0,,,,,,,,,1,13,29,12,,,,,,,,,,,,,,,,,,,,,,,,,,,,,,,,,,,,,,488.1032171000261,27,reward,1,0.4933009999804199,0.49330460000783205,488.6032219000044,,,,,,,,,,,,,,,,,,,,,,31,D,2024-05-14_13h17.02.820,attentional_competition_task,2022.2.4,143.98682241340887,
positions.xlsx,positions_test.xlsx,positions_test_new.xlsx,stimuli.xlsx,stimuli_new.xlsx,stimuli/Social4.png,stimuli/Social3.png,stimuli/Nonsocial4.png,stimuli/Nonsocial3.png,stimuli/Social2.png,stimuli/Social1.png,stimuli/Nonsocial2.png,stimuli/Nonsocial1.png,cs_neg_s,"(-0.7, -0.5)",,,,,,,,,0,0,0,0,,,,,,,,,1,14,30,1,,,,,,,,,,,,,,,,,,,,,,,,,,,,,,,,,,,,,,495.60989780002274,27,none,0,,,498.6236657000263,,,,,,,,,,,,,,,,,,,,,,31,D,2024-05-14_13h17.02.820,attentional_competition_task,2022.2.4,143.98682241340887,
positions.xlsx,positions_test.xlsx,positions_test_new.xlsx,stimuli.xlsx,stimuli_new.xlsx,stimuli/Social4.png,stimuli/Social3.png,stimuli/Nonsocial4.png,stimuli/Nonsocial3.png,stimuli/Social2.png,stimuli/Social1.png,stimuli/Nonsocial2.png,stimuli/Nonsocial1.png,cs_pos_s,"(-0.7, 0.5)",,,,,,,,,0,0,0,0,,,,,,,,,1,15,31,4,,,,,,,,,,,,,,,,,,,,,,,,,,,,,,,,,,,,,,506.1859184000059,30,reward,1,0.5693949999986216,0.5693985999678262,506.76225760002853,,,,,,,,,,,,,,,,,,,,,,31,D,2024-05-14_13h17.02.820,attentional_competition_task,2022.2.4,143.98682241340887,
positions.xlsx,positions_test.xlsx,positions_test_new.xlsx,stimuli.xlsx,stimuli_new.xlsx,stimuli/Social4.png,stimuli/Social3.png,stimuli/Nonsocial4.png,stimuli/Nonsocial3.png,stimuli/Social2.png,stimuli/Social1.png,stimuli/Nonsocial2.png,stimuli/Nonsocial1.png,cs_neg_s,"(-0.7, 0.5)",,,,,,,,,0,0,0,0,,,,,,,,,,,,,0,0,0,0,,,,,,,,,,,,,,,,,,,,,,,,,,,,,,,,,,534.5250584000023,27,loss,1,1.5841232999810018,1.5841271000099368,536.1222254000022,,,,,,,,,,,,,,,,,,,,,,31,D,2024-05-14_13h17.02.820,attentional_competition_task,2022.2.4,143.98682241340887,
positions.xlsx,positions_test.xlsx,positions_test_new.xlsx,stimuli.xlsx,stimuli_new.xlsx,stimuli/Social4.png,stimuli/Social3.png,stimuli/Nonsocial4.png,stimuli/Nonsocial3.png,stimuli/Social2.png,stimuli/Social1.png,stimuli/Nonsocial2.png,stimuli/Nonsocial1.png,cs_neg_ns,"(-0.7, -0.5)",,,,,,,,,0,0,0,0,,,,,,,,,,,,,0,1,1,9,,,,,,,,,,,,,,,,,,,,,,,,,,,,,,,,,,543.3927804999985,24,loss,1,0.4448050999781117,0.44480890000704676,543.844139199995,,,,,,,,,,,,,,,,,,,,,,31,D,2024-05-14_13h17.02.820,attentional_competition_task,2022.2.4,143.98682241340887,
positions.xlsx,positions_test.xlsx,positions_test_new.xlsx,stimuli.xlsx,stimuli_new.xlsx,stimuli/Social4.png,stimuli/Social3.png,stimuli/Nonsocial4.png,stimuli/Nonsocial3.png,stimuli/Social2.png,stimuli/Social1.png,stimuli/Nonsocial2.png,stimuli/Nonsocial1.png,cs_pos_s,"(0.7, -0.5)",,,,,,,,,0,0,0,0,,,,,,,,,,,,,0,2,2,7,,,,,,,,,,,,,,,,,,,,,,,,,,,,,,,,,,551.53133909998,27,reward,1,0.4102009999915026,0.4102048000204377,551.9480078000342,,,,,,,,,,,,,,,,,,,,,,31,D,2024-05-14_13h17.02.820,attentional_competition_task,2022.2.4,143.98682241340887,
positions.xlsx,positions_test.xlsx,positions_test_new.xlsx,stimuli.xlsx,stimuli_new.xlsx,stimuli/Social4.png,stimuli/Social3.png,stimuli/Nonsocial4.png,stimuli/Nonsocial3.png,stimuli/Social2.png,stimuli/Social1.png,stimuli/Nonsocial2.png,stimuli/Nonsocial1.png,cs_pos_ns,"(-0.7, 0.5)",,,,,,,,,0,0,0,0,,,,,,,,,,,,,0,3,3,12,,,,,,,,,,,,,,,,,,,,,,,,,,,,,,,,,,559.4060696000233,30,reward,1,0.4029713000054471,0.40297529997769743,559.8158182000043,,,,,,,,,,,,,,,,,,,,,,31,D,2024-05-14_13h17.02.820,attentional_competition_task,2022.2.4,143.98682241340887,
positions.xlsx,positions_test.xlsx,positions_test_new.xlsx,stimuli.xlsx,stimuli_new.xlsx,stimuli/Social4.png,stimuli/Social3.png,stimuli/Nonsocial4.png,stimuli/Nonsocial3.png,stimuli/Social2.png,stimuli/Social1.png,stimuli/Nonsocial2.png,stimuli/Nonsocial1.png,cs_pos_ns,"(0.7, 0.5)",,,,,,,,,0,0,0,0,,,,,,,,,,,,,0,4,4,14,,,,,,,,,,,,,,,,,,,,,,,,,,,,,,,,,,567.2252037000144,33,reward,1,0.520980299974326,0.520987200026866,567.7529375000158,,,,,,,,,,,,,,,,,,,,,,31,D,2024-05-14_13h17.02.820,attentional_competition_task,2022.2.4,143.98682241340887,
positions.xlsx,positions_test.xlsx,positions_test_new.xlsx,stimuli.xlsx,stimuli_new.xlsx,stimuli/Social4.png,stimuli/Social3.png,stimuli/Nonsocial4.png,stimuli/Nonsocial3.png,stimuli/Social2.png,stimuli/Social1.png,stimuli/Nonsocial2.png,stimuli/Nonsocial1.png,cs_neg_ns,"(-0.7, 0.5)",,,,,,,,,0,0,0,0,,,,,,,,,,,,,0,5,5,8,,,,,,,,,,,,,,,,,,,,,,,,,,,,,,,,,,574.7665874999948,33,none,0,,,577.780356400006,,,,,,,,,,,,,,,,,,,,,,31,D,2024-05-14_13h17.02.820,attentional_competition_task,2022.2.4,143.98682241340887,
positions.xlsx,positions_test.xlsx,positions_test_new.xlsx,stimuli.xlsx,stimuli_new.xlsx,stimuli/Social4.png,stimuli/Social3.png,stimuli/Nonsocial4.png,stimuli/Nonsocial3.png,stimuli/Social2.png,stimuli/Social1.png,stimuli/Nonsocial2.png,stimuli/Nonsocial1.png,cs_neg_ns,"(0.7, 0.5)",,,,,,,,,0,0,0,0,,,,,,,,,,,,,0,6,6,10,,,,,,,,,,,,,,,,,,,,,,,,,,,,,,,,,,585.0231618999969,33,none,0,,,588.036907200003,,,,,,,,,,,,,,,,,,,,,,31,D,2024-05-14_13h17.02.820,attentional_competition_task,2022.2.4,143.98682241340887,
positions.xlsx,positions_test.xlsx,positions_test_new.xlsx,stimuli.xlsx,stimuli_new.xlsx,stimuli/Social4.png,stimuli/Social3.png,stimuli/Nonsocial4.png,stimuli/Nonsocial3.png,stimuli/Social2.png,stimuli/Social1.png,stimuli/Nonsocial2.png,stimuli/Nonsocial1.png,cs_pos_ns,"(-0.7, -0.5)",,,,,,,,,0,0,0,0,,,,,,,,,,,,,0,7,7,13,,,,,,,,,,,,,,,,,,,,,,,,,,,,,,,,,,595.8768886000034,36,reward,1,0.4445780999958515,0.4445819999673404,596.3282592000323,,,,,,,,,,,,,,,,,,,,,,31,D,2024-05-14_13h17.02.820,attentional_competition_task,2022.2.4,143.98682241340887,
positions.xlsx,positions_test.xlsx,positions_test_new.xlsx,stimuli.xlsx,stimuli_new.xlsx,stimuli/Social4.png,stimuli/Social3.png,stimuli/Nonsocial4.png,stimuli/Nonsocial3.png,stimuli/Social2.png,stimuli/Social1.png,stimuli/Nonsocial2.png,stimuli/Nonsocial1.png,cs_pos_s,"(-0.7, -0.5)",,,,,,,,,0,0,0,0,,,,,,,,,,,,,0,8,8,5,,,,,,,,,,,,,,,,,,,,,,,,,,,,,,,,,,603.6891045999946,39,reward,1,0.5695147999795154,0.5695182999479584,604.2654617999797,,,,,,,,,,,,,,,,,,,,,,31,D,2024-05-14_13h17.02.820,attentional_competition_task,2022.2.4,143.98682241340887,
positions.xlsx,positions_test.xlsx,positions_test_new.xlsx,stimuli.xlsx,stimuli_new.xlsx,stimuli/Social4.png,stimuli/Social3.png,stimuli/Nonsocial4.png,stimuli/Nonsocial3.png,stimuli/Social2.png,stimuli/Social1.png,stimuli/Nonsocial2.png,stimuli/Nonsocial1.png,cs_neg_ns,"(0.7, -0.5)",,,,,,,,,0,0,0,0,,,,,,,,,,,,,0,9,9,11,,,,,,,,,,,,,,,,,,,,,,,,,,,,,,,,,,611.3971385000041,39,none,0,,,614.4109060000046,,,,,,,,,,,,,,,,,,,,,,31,D,2024-05-14_13h17.02.820,attentional_competition_task,2022.2.4,143.98682241340887,
positions.xlsx,positions_test.xlsx,positions_test_new.xlsx,stimuli.xlsx,stimuli_new.xlsx,stimuli/Social4.png,stimuli/Social3.png,stimuli/Nonsocial4.png,stimuli/Nonsocial3.png,stimuli/Social2.png,stimuli/Social1.png,stimuli/Nonsocial2.png,stimuli/Nonsocial1.png,cs_pos_s,"(0.7, 0.5)",,,,,,,,,0,0,0,0,,,,,,,,,,,,,0,10,10,6,,,,,,,,,,,,,,,,,,,,,,,,,,,,,,,,,,621.709239799995,42,reward,1,0.47926289995666593,0.47926679998636246,622.1953004000243,,,,,,,,,,,,,,,,,,,,,,31,D,2024-05-14_13h17.02.820,attentional_competition_task,2022.2.4,143.98682241340887,
positions.xlsx,positions_test.xlsx,positions_test_new.xlsx,stimuli.xlsx,stimuli_new.xlsx,stimuli/Social4.png,stimuli/Social3.png,stimuli/Nonsocial4.png,stimuli/Nonsocial3.png,stimuli/Social2.png,stimuli/Social1.png,stimuli/Nonsocial2.png,stimuli/Nonsocial1.png,cs_neg_s,"(0.7, 0.5)",,,,,,,,,0,0,0,0,,,,,,,,,,,,,0,11,11,2,,,,,,,,,,,,,,,,,,,,,,,,,,,,,,,,,,629.7297659000033,42,none,0,,,632.7435407000012,,,,,,,,,,,,,,,,,,,,,,31,D,2024-05-14_13h17.02.820,attentional_competition_task,2022.2.4,143.98682241340887,
positions.xlsx,positions_test.xlsx,positions_test_new.xlsx,stimuli.xlsx,stimuli_new.xlsx,stimuli/Social4.png,stimuli/Social3.png,stimuli/Nonsocial4.png,stimuli/Nonsocial3.png,stimuli/Social2.png,stimuli/Social1.png,stimuli/Nonsocial2.png,stimuli/Nonsocial1.png,cs_neg_s,"(-0.7, -0.5)",,,,,,,,,0,0,0,0,,,,,,,,,,,,,0,12,12,1,,,,,,,,,,,,,,,,,,,,,,,,,,,,,,,,,,640.0765800999943,42,none,0,,,643.0833897999837,,,,,,,,,,,,,,,,,,,,,,31,D,2024-05-14_13h17.02.820,attentional_competition_task,2022.2.4,143.98682241340887,
positions.xlsx,positions_test.xlsx,positions_test_new.xlsx,stimuli.xlsx,stimuli_new.xlsx,stimuli/Social4.png,stimuli/Social3.png,stimuli/Nonsocial4.png,stimuli/Nonsocial3.png,stimuli/Social2.png,stimuli/Social1.png,stimuli/Nonsocial2.png,stimuli/Nonsocial1.png,cs_pos_s,"(-0.7, 0.5)",,,,,,,,,0,0,0,0,,,,,,,,,,,,,0,13,13,4,,,,,,,,,,,,,,,,,,,,,,,,,,,,,,,,,,651.1317267999984,45,reward,1,0.4654611999867484,0.4722200999967754,651.6109137000167,,,,,,,,,,,,,,,,,,,,,,31,D,2024-05-14_13h17.02.820,attentional_competition_task,2022.2.4,143.98682241340887,
positions.xlsx,positions_test.xlsx,positions_test_new.xlsx,stimuli.xlsx,stimuli_new.xlsx,stimuli/Social4.png,stimuli/Social3.png,stimuli/Nonsocial4.png,stimuli/Nonsocial3.png,stimuli/Social2.png,stimuli/Social1.png,stimuli/Nonsocial2.png,stimuli/Nonsocial1.png,cs_pos_ns,"(0.7, -0.5)",,,,,,,,,0,0,0,0,,,,,,,,,,,,,0,14,14,15,,,,,,,,,,,,,,,,,,,,,,,,,,,,,,,,,,659.4925147999893,48,reward,1,0.5145916000474244,0.5145957000204362,660.0133244000026,,,,,,,,,,,,,,,,,,,,,,31,D,2024-05-14_13h17.02.820,attentional_competition_task,2022.2.4,143.98682241340887,
positions.xlsx,positions_test.xlsx,positions_test_new.xlsx,stimuli.xlsx,stimuli_new.xlsx,stimuli/Social4.png,stimuli/Social3.png,stimuli/Nonsocial4.png,stimuli/Nonsocial3.png,stimuli/Social2.png,stimuli/Social1.png,stimuli/Nonsocial2.png,stimuli/Nonsocial1.png,cs_neg_s,"(0.7, -0.5)",,,,,,,,,0,0,0,0,,,,,,,,,,,,,0,15,15,3,,,,,,,,,,,,,,,,,,,,,,,,,,,,,,,,,,667.4783904000069,48,none,0,,,670.4921283000149,,,,,,,,,,,,,,,,,,,,,,31,D,2024-05-14_13h17.02.820,attentional_competition_task,2022.2.4,143.98682241340887,
positions.xlsx,positions_test.xlsx,positions_test_new.xlsx,stimuli.xlsx,stimuli_new.xlsx,stimuli/Social4.png,stimuli/Social3.png,stimuli/Nonsocial4.png,stimuli/Nonsocial3.png,stimuli/Social2.png,stimuli/Social1.png,stimuli/Nonsocial2.png,stimuli/Nonsocial1.png,cs_pos_ns,"(0.7, 0.5)",,,,,,,,,0,0,0,0,,,,,,,,,,,,,1,0,16,14,,,,,,,,,,,,,,,,,,,,,,,,,,,,,,,,,,677.8042769000167,51,reward,1,0.5697880000225268,0.5697914999909699,678.380670899991,,,,,,,,,,,,,,,,,,,,,,31,D,2024-05-14_13h17.02.820,attentional_competition_task,2022.2.4,143.98682241340887,
positions.xlsx,positions_test.xlsx,positions_test_new.xlsx,stimuli.xlsx,stimuli_new.xlsx,stimuli/Social4.png,stimuli/Social3.png,stimuli/Nonsocial4.png,stimuli/Nonsocial3.png,stimuli/Social2.png,stimuli/Social1.png,stimuli/Nonsocial2.png,stimuli/Nonsocial1.png,cs_neg_s,"(0.7, -0.5)",,,,,,,,,0,0,0,0,,,,,,,,,,,,,1,1,17,3,,,,,,,,,,,,,,,,,,,,,,,,,,,,,,,,,,685.2901315999916,51,none,0,,,688.3039054999826,,,,,,,,,,,,,,,,,,,,,,31,D,2024-05-14_13h17.02.820,attentional_competition_task,2022.2.4,143.98682241340887,
positions.xlsx,positions_test.xlsx,positions_test_new.xlsx,stimuli.xlsx,stimuli_new.xlsx,stimuli/Social4.png,stimuli/Social3.png,stimuli/Nonsocial4.png,stimuli/Nonsocial3.png,stimuli/Social2.png,stimuli/Social1.png,stimuli/Nonsocial2.png,stimuli/Nonsocial1.png,cs_neg_ns,"(-0.7, -0.5)",,,,,,,,,0,0,0,0,,,,,,,,,,,,,1,2,18,9,,,,,,,,,,,,,,,,,,,,,,,,,,,,,,,,,,696.3452622999903,48,loss,1,0.4588434000033885,0.45884699997259304,696.8105348999961,,,,,,,,,,,,,,,,,,,,,,31,D,2024-05-14_13h17.02.820,attentional_competition_task,2022.2.4,143.98682241340887,
positions.xlsx,positions_test.xlsx,positions_test_new.xlsx,stimuli.xlsx,stimuli_new.xlsx,stimuli/Social4.png,stimuli/Social3.png,stimuli/Nonsocial4.png,stimuli/Nonsocial3.png,stimuli/Social2.png,stimuli/Social1.png,stimuli/Nonsocial2.png,stimuli/Nonsocial1.png,cs_pos_s,"(0.7, 0.5)",,,,,,,,,0,0,0,0,,,,,,,,,,,,,1,3,19,6,,,,,,,,,,,,,,,,,,,,,,,,,,,,,,,,,,704.5116108999937,51,reward,1,0.4235346000059508,0.42353820003336295,704.942143000022,,,,,,,,,,,,,,,,,,,,,,31,D,2024-05-14_13h17.02.820,attentional_competition_task,2022.2.4,143.98682241340887,
positions.xlsx,positions_test.xlsx,positions_test_new.xlsx,stimuli.xlsx,stimuli_new.xlsx,stimuli/Social4.png,stimuli/Social3.png,stimuli/Nonsocial4.png,stimuli/Nonsocial3.png,stimuli/Social2.png,stimuli/Social1.png,stimuli/Nonsocial2.png,stimuli/Nonsocial1.png,cs_pos_s,"(-0.7, -0.5)",,,,,,,,,0,0,0,0,,,,,,,,,,,,,1,4,20,5,,,,,,,,,,,,,,,,,,,,,,,,,,,,,,,,,,712.872382200032,54,reward,1,0.7918176999664865,0.7918214999954216,713.670978899987,,,,,,,,,,,,,,,,,,,,,,31,D,2024-05-14_13h17.02.820,attentional_competition_task,2022.2.4,143.98682241340887,
positions.xlsx,positions_test.xlsx,positions_test_new.xlsx,stimuli.xlsx,stimuli_new.xlsx,stimuli/Social4.png,stimuli/Social3.png,stimuli/Nonsocial4.png,stimuli/Nonsocial3.png,stimuli/Social2.png,stimuli/Social1.png,stimuli/Nonsocial2.png,stimuli/Nonsocial1.png,cs_pos_ns,"(-0.7, -0.5)",,,,,,,,,0,0,0,0,,,,,,,,,,,,,1,5,21,13,,,,,,,,,,,,,,,,,,,,,,,,,,,,,,,,,,721.6637072000303,57,reward,1,0.5768853999907151,0.5836425999877974,722.2539962999872,,,,,,,,,,,,,,,,,,,,,,31,D,2024-05-14_13h17.02.820,attentional_competition_task,2022.2.4,143.98682241340887,
positions.xlsx,positions_test.xlsx,positions_test_new.xlsx,stimuli.xlsx,stimuli_new.xlsx,stimuli/Social4.png,stimuli/Social3.png,stimuli/Nonsocial4.png,stimuli/Nonsocial3.png,stimuli/Social2.png,stimuli/Social1.png,stimuli/Nonsocial2.png,stimuli/Nonsocial1.png,cs_neg_s,"(-0.7, -0.5)",,,,,,,,,0,0,0,0,,,,,,,,,,,,,1,6,22,1,,,,,,,,,,,,,,,,,,,,,,,,,,,,,,,,,,729.2814944999991,57,none,0,,,732.2952872000169,,,,,,,,,,,,,,,,,,,,,,31,D,2024-05-14_13h17.02.820,attentional_competition_task,2022.2.4,143.98682241340887,
positions.xlsx,positions_test.xlsx,positions_test_new.xlsx,stimuli.xlsx,stimuli_new.xlsx,stimuli/Social4.png,stimuli/Social3.png,stimuli/Nonsocial4.png,stimuli/Nonsocial3.png,stimuli/Social2.png,stimuli/Social1.png,stimuli/Nonsocial2.png,stimuli/Nonsocial1.png,cs_pos_ns,"(0.7, -0.5)",,,,,,,,,0,0,0,0,,,,,,,,,,,,,1,7,23,15,,,,,,,,,,,,,,,,,,,,,,,,,,,,,,,,,,740.0866406999994,60,reward,1,0.5838202000013553,0.5838237999705598,740.6768819999998,,,,,,,,,,,,,,,,,,,,,,31,D,2024-05-14_13h17.02.820,attentional_competition_task,2022.2.4,143.98682241340887,
positions.xlsx,positions_test.xlsx,positions_test_new.xlsx,stimuli.xlsx,stimuli_new.xlsx,stimuli/Social4.png,stimuli/Social3.png,stimuli/Nonsocial4.png,stimuli/Nonsocial3.png,stimuli/Social2.png,stimuli/Social1.png,stimuli/Nonsocial2.png,stimuli/Nonsocial1.png,cs_pos_s,"(-0.7, 0.5)",,,,,,,,,0,0,0,0,,,,,,,,,,,,,1,8,24,4,,,,,,,,,,,,,,,,,,,,,,,,,,,,,,,,,,747.454412000021,63,reward,1,0.6600955000030808,0.6600988000282086,748.1210884000175,,,,,,,,,,,,,,,,,,,,,,31,D,2024-05-14_13h17.02.820,attentional_competition_task,2022.2.4,143.98682241340887,
positions.xlsx,positions_test.xlsx,positions_test_new.xlsx,stimuli.xlsx,stimuli_new.xlsx,stimuli/Social4.png,stimuli/Social3.png,stimuli/Nonsocial4.png,stimuli/Nonsocial3.png,stimuli/Social2.png,stimuli/Social1.png,stimuli/Nonsocial2.png,stimuli/Nonsocial1.png,cs_neg_s,"(0.7, 0.5)",,,,,,,,,0,0,0,0,,,,,,,,,,,,,1,9,25,2,,,,,,,,,,,,,,,,,,,,,,,,,,,,,,,,,,756.1276940000243,63,none,0,,,759.141466000001,,,,,,,,,,,,,,,,,,,,,,31,D,2024-05-14_13h17.02.820,attentional_competition_task,2022.2.4,143.98682241340887,
positions.xlsx,positions_test.xlsx,positions_test_new.xlsx,stimuli.xlsx,stimuli_new.xlsx,stimuli/Social4.png,stimuli/Social3.png,stimuli/Nonsocial4.png,stimuli/Nonsocial3.png,stimuli/Social2.png,stimuli/Social1.png,stimuli/Nonsocial2.png,stimuli/Nonsocial1.png,cs_pos_s,"(0.7, -0.5)",,,,,,,,,0,0,0,0,,,,,,,,,,,,,1,10,26,7,,,,,,,,,,,,,,,,,,,,,,,,,,,,,,,,,,765.9676052000141,66,reward,1,0.6111470999894664,0.6111510000191629,766.5856234999956,,,,,,,,,,,,,,,,,,,,,,31,D,2024-05-14_13h17.02.820,attentional_competition_task,2022.2.4,143.98682241340887,
positions.xlsx,positions_test.xlsx,positions_test_new.xlsx,stimuli.xlsx,stimuli_new.xlsx,stimuli/Social4.png,stimuli/Social3.png,stimuli/Nonsocial4.png,stimuli/Nonsocial3.png,stimuli/Social2.png,stimuli/Social1.png,stimuli/Nonsocial2.png,stimuli/Nonsocial1.png,cs_pos_ns,"(-0.7, 0.5)",,,,,,,,,0,0,0,0,,,,,,,,,,,,,1,11,27,12,,,,,,,,,,,,,,,,,,,,,,,,,,,,,,,,,,774.4394959000056,69,reward,1,0.42391090001910925,0.4239143999875523,774.8700443999842,,,,,,,,,,,,,,,,,,,,,,31,D,2024-05-14_13h17.02.820,attentional_competition_task,2022.2.4,143.98682241340887,
positions.xlsx,positions_test.xlsx,positions_test_new.xlsx,stimuli.xlsx,stimuli_new.xlsx,stimuli/Social4.png,stimuli/Social3.png,stimuli/Nonsocial4.png,stimuli/Nonsocial3.png,stimuli/Social2.png,stimuli/Social1.png,stimuli/Nonsocial2.png,stimuli/Nonsocial1.png,cs_neg_ns,"(-0.7, 0.5)",,,,,,,,,0,0,0,0,,,,,,,,,,,,,1,12,28,8,,,,,,,,,,,,,,,,,,,,,,,,,,,,,,,,,,782.5364106000052,69,none,0,,,785.5501887000282,,,,,,,,,,,,,,,,,,,,,,31,D,2024-05-14_13h17.02.820,attentional_competition_task,2022.2.4,143.98682241340887,
positions.xlsx,positions_test.xlsx,positions_test_new.xlsx,stimuli.xlsx,stimuli_new.xlsx,stimuli/Social4.png,stimuli/Social3.png,stimuli/Nonsocial4.png,stimuli/Nonsocial3.png,stimuli/Social2.png,stimuli/Social1.png,stimuli/Nonsocial2.png,stimuli/Nonsocial1.png,cs_neg_ns,"(0.7, 0.5)",,,,,,,,,0,0,0,0,,,,,,,,,,,,,1,13,29,10,,,,,,,,,,,,,,,,,,,,,,,,,,,,,,,,,,793.5220675999881,66,loss,1,0.4169124999898486,0.4169158999575302,793.9456807000097,,,,,,,,,,,,,,,,,,,,,,31,D,2024-05-14_13h17.02.820,attentional_competition_task,2022.2.4,143.98682241340887,
positions.xlsx,positions_test.xlsx,positions_test_new.xlsx,stimuli.xlsx,stimuli_new.xlsx,stimuli/Social4.png,stimuli/Social3.png,stimuli/Nonsocial4.png,stimuli/Nonsocial3.png,stimuli/Social2.png,stimuli/Social1.png,stimuli/Nonsocial2.png,stimuli/Nonsocial1.png,cs_neg_ns,"(0.7, -0.5)",,,,,,,,,0,0,0,0,,,,,,,,,,,,,1,14,30,11,,,,,,,,,,,,,,,,,,,,,,,,,,,,,,,,,,801.1745779000339,63,loss,1,0.6043782000197098,0.6043820999911986,801.7856722000288,,,,,,,,,,,,,,,,,,,,,,31,D,2024-05-14_13h17.02.820,attentional_competition_task,2022.2.4,143.98682241340887,
positions.xlsx,positions_test.xlsx,positions_test_new.xlsx,stimuli.xlsx,stimuli_new.xlsx,stimuli/Social4.png,stimuli/Social3.png,stimuli/Nonsocial4.png,stimuli/Nonsocial3.png,stimuli/Social2.png,stimuli/Social1.png,stimuli/Nonsocial2.png,stimuli/Nonsocial1.png,cs_neg_s,"(-0.7, 0.5)",,,,,,,,,0,0,0,0,,,,,,,,,,,,,1,15,31,0,,,,,,,,,,,,,,,,,,,,,,,,,,,,,,,,,,809.4451057999977,63,none,0,,,812.4588623000309,,,,,,,,,,,,,,,,,,,,,,31,D,2024-05-14_13h17.02.820,attentional_competition_task,2022.2.4,143.98682241340887,
positions.xlsx,positions_test.xlsx,positions_test_new.xlsx,stimuli.xlsx,stimuli_new.xlsx,stimuli/Social4.png,stimuli/Social3.png,stimuli/Nonsocial4.png,stimuli/Nonsocial3.png,stimuli/Social2.png,stimuli/Social1.png,stimuli/Nonsocial2.png,stimuli/Nonsocial1.png,cs_neg_ns,,,,,,,,,,0,0,0,0,,,,,,,,,,,,,,,,,0,0,0,1,,,,,,,,,,,,,,,,,,,,,,,817.8822803000221,4.0,5.788178900023922,,,,,,,,,,,,,,,,,,,,,,,,,,,,,,,,,31,D,2024-05-14_13h17.02.820,attentional_competition_task,2022.2.4,143.98682241340887,
positions.xlsx,positions_test.xlsx,positions_test_new.xlsx,stimuli.xlsx,stimuli_new.xlsx,stimuli/Social4.png,stimuli/Social3.png,stimuli/Nonsocial4.png,stimuli/Nonsocial3.png,stimuli/Social2.png,stimuli/Social1.png,stimuli/Nonsocial2.png,stimuli/Nonsocial1.png,cs_pos_s,,,,,,,,,,0,0,0,0,,,,,,,,,,,,,,,,,0,1,1,2,,,,,,,,,,,,,,,,,,,,,,,824.5487090999959,7.0,3.1205695000244305,,,,,,,,,,,,,,,,,,,,,,,,,,,,,,,,,31,D,2024-05-14_13h17.02.820,attentional_competition_task,2022.2.4,143.98682241340887,
positions.xlsx,positions_test.xlsx,positions_test_new.xlsx,stimuli.xlsx,stimuli_new.xlsx,stimuli/Social4.png,stimuli/Social3.png,stimuli/Nonsocial4.png,stimuli/Nonsocial3.png,stimuli/Social2.png,stimuli/Social1.png,stimuli/Nonsocial2.png,stimuli/Nonsocial1.png,cs_neg_s,,,,,,,,,,0,0,0,0,,,,,,,,,,,,,,,,,0,2,2,0,,,,,,,,,,,,,,,,,,,,,,,827.8819403999951,3.0,2.59017560002394,,,,,,,,,,,,,,,,,,,,,,,,,,,,,,,,,31,D,2024-05-14_13h17.02.820,attentional_competition_task,2022.2.4,143.98682241340887,
positions.xlsx,positions_test.xlsx,positions_test_new.xlsx,stimuli.xlsx,stimuli_new.xlsx,stimuli/Social4.png,stimuli/Social3.png,stimuli/Nonsocial4.png,stimuli/Nonsocial3.png,stimuli/Social2.png,stimuli/Social1.png,stimuli/Nonsocial2.png,stimuli/Nonsocial1.png,cs_pos_ns,,,,,,,,,,0,0,0,0,,,,,,,,,,,,,,,,,0,3,3,3,,,,,,,,,,,,,,,,,,,,,,,831.5831327000051,6.0,11.216196800000034,,,,,,,,,,,,,,,,,,,,,,,,,,,,,,,,,31,D,2024-05-14_13h17.02.820,attentional_competition_task,2022.2.4,143.98682241340887,
positions.xlsx,positions_test.xlsx,positions_test_new.xlsx,stimuli.xlsx,stimuli_new.xlsx,stimuli/Social4.png,stimuli/Social3.png,stimuli/Nonsocial4.png,stimuli/Nonsocial3.png,stimuli/Social2.png,stimuli/Social1.png,stimuli/Nonsocial2.png,stimuli/Nonsocial1.png,,,"(-0.7, -0.5)",cs_neg_ns,"(-0.7, 0.5)",cs_pos_s,"(0.7, -0.5)",cs_neg_s,"(0.7, 0.5)",cs_pos_ns,0,0,0,0,,,,,,,,,,,,,,,,,,,,,0,0,0,12,,,,,,,,,,,,,,,,,,,,,,,,,,,69,reward,,,,,843.0549363000318,849.6032708000275,849.6032708000275,849.6032708000275,849.6032708000275,0,,,1,0.029933600046206266,0.745334500039462,0,,,1,0.8019451000145636,0.8083901000209153,850.4087873999961,850.4087873999961,850.4087873999961,850.4087873999961,31,D,2024-05-14_13h17.02.820,attentional_competition_task,2022.2.4,143.98682241340887,
positions.xlsx,positions_test.xlsx,positions_test_new.xlsx,stimuli.xlsx,stimuli_new.xlsx,stimuli/Social4.png,stimuli/Social3.png,stimuli/Nonsocial4.png,stimuli/Nonsocial3.png,stimuli/Social2.png,stimuli/Social1.png,stimuli/Nonsocial2.png,stimuli/Nonsocial1.png,,,"(-0.7, -0.5)",cs_neg_s,"(-0.7, 0.5)",cs_neg_ns,"(0.7, -0.5)",cs_pos_ns,"(0.7, 0.5)",cs_pos_s,0,0,0,0,,,,,,,,,,,,,,,,,,,,,0,1,1,3,,,,,,,,,,,,,,,,,,,,,,,,,,,78,reward,,,,,,859.4362262000213,859.4362262000213,859.4362262000213,859.4362262000213,0,,,0,,,0,,,0,,,860.16540420003,860.16540420003,860.16540420003,860.16540420003,31,D,2024-05-14_13h17.02.820,attentional_competition_task,2022.2.4,143.98682241340887,
positions.xlsx,positions_test.xlsx,positions_test_new.xlsx,stimuli.xlsx,stimuli_new.xlsx,stimuli/Social4.png,stimuli/Social3.png,stimuli/Nonsocial4.png,stimuli/Nonsocial3.png,stimuli/Social2.png,stimuli/Social1.png,stimuli/Nonsocial2.png,stimuli/Nonsocial1.png,,,"(-0.7, -0.5)",cs_pos_s,"(-0.7, 0.5)",cs_neg_s,"(0.7, -0.5)",cs_neg_ns,"(0.7, 0.5)",cs_pos_ns,0,0,0,0,,,,,,,,,,,,,,,,,,,,,0,2,2,6,,,,,,,,,,,,,,,,,,,,,,,,,,,75,loss,,,,,,867.5539935000124,867.5539935000124,867.5539935000124,867.5539935000124,0,,,1,0.022528400004375726,0.02253209997434169,0,,,0,,,867.5539935000124,867.5539935000124,867.5539935000124,867.5539935000124,31,D,2024-05-14_13h17.02.820,attentional_competition_task,2022.2.4,143.98682241340887,
positions.xlsx,positions_test.xlsx,positions_test_new.xlsx,stimuli.xlsx,stimuli_new.xlsx,stimuli/Social4.png,stimuli/Social3.png,stimuli/Nonsocial4.png,stimuli/Nonsocial3.png,stimuli/Social2.png,stimuli/Social1.png,stimuli/Nonsocial2.png,stimuli/Nonsocial1.png,,,"(-0.7, -0.5)",cs_pos_ns,"(-0.7, 0.5)",cs_neg_s,"(0.7, -0.5)",cs_pos_s,"(0.7, 0.5)",cs_neg_ns,0,0,0,0,,,,,,,,,,,,,,,,,,,,,0,3,3,22,,,,,,,,,,,,,,,,,,,,,,,,,,,84,reward,,,,,,876.0814314000309,876.0814314000309,876.0814314000309,876.0814314000309,1,0.02357229997869581,0.23253590002423152,0,,,0,,,0,,,876.8244889000198,876.8244889000198,876.8244889000198,876.8244889000198,31,D,2024-05-14_13h17.02.820,attentional_competition_task,2022.2.4,143.98682241340887,
positions.xlsx,positions_test.xlsx,positions_test_new.xlsx,stimuli.xlsx,stimuli_new.xlsx,stimuli/Social4.png,stimuli/Social3.png,stimuli/Nonsocial4.png,stimuli/Nonsocial3.png,stimuli/Social2.png,stimuli/Social1.png,stimuli/Nonsocial2.png,stimuli/Nonsocial1.png,,,"(-0.7, -0.5)",cs_neg_s,"(-0.7, 0.5)",cs_pos_s,"(0.7, -0.5)",cs_pos_ns,"(0.7, 0.5)",cs_neg_ns,0,0,0,0,,,,,,,,,,,,,,,,,,,,,0,4,4,1,,,,,,,,,,,,,,,,,,,,,,,,,,,87,reward,,,,,,884.595008000033,884.595008000033,884.595008000033,884.595008000033,0,,,1,0.027981999970506877,0.0279859000002034,0,,,0,,,884.595008000033,884.595008000033,884.595008000033,884.595008000033,31,D,2024-05-14_13h17.02.820,attentional_competition_task,2022.2.4,143.98682241340887,
positions.xlsx,positions_test.xlsx,positions_test_new.xlsx,stimuli.xlsx,stimuli_new.xlsx,stimuli/Social4.png,stimuli/Social3.png,stimuli/Nonsocial4.png,stimuli/Nonsocial3.png,stimuli/Social2.png,stimuli/Social1.png,stimuli/Nonsocial2.png,stimuli/Nonsocial1.png,,,"(-0.7, -0.5)",cs_pos_ns,"(-0.7, 0.5)",cs_neg_s,"(0.7, -0.5)",cs_neg_ns,"(0.7, 0.5)",cs_pos_s,0,0,0,0,,,,,,,,,,,,,,,,,,,,,0,5,5,23,,,,,,,,,,,,,,,,,,,,,,,,,,,90,reward,,,,,,893.3585941999918,893.3585941999918,893.3585941999918,893.3585941999918,1,0.14896800002316013,0.15596200001891702,0,,,0,,,1,0.02631049999035895,0.0814088000333868,893.518287200015,893.518287200015,893.518287200015,893.518287200015,31,D,2024-05-14_13h17.02.820,attentional_competition_task,2022.2.4,143.98682241340887,
positions.xlsx,positions_test.xlsx,positions_test_new.xlsx,stimuli.xlsx,stimuli_new.xlsx,stimuli/Social4.png,stimuli/Social3.png,stimuli/Nonsocial4.png,stimuli/Nonsocial3.png,stimuli/Social2.png,stimuli/Social1.png,stimuli/Nonsocial2.png,stimuli/Nonsocial1.png,,,"(-0.7, -0.5)",cs_pos_s,"(-0.7, 0.5)",cs_pos_ns,"(0.7, -0.5)",cs_neg_ns,"(0.7, 0.5)",cs_neg_s,0,0,0,0,,,,,,,,,,,,,,,,,,,,,0,6,6,11,,,,,,,,,,,,,,,,,,,,,,,,,,,93,reward,,,,,,901.712437500013,901.712437500013,901.712437500013,901.712437500013,0,,,1,0.029809500032570213,0.029813700006343424,0,,,0,,,901.712437500013,901.712437500013,901.712437500013,901.712437500013,31,D,2024-05-14_13h17.02.820,attentional_competition_task,2022.2.4,143.98682241340887,
positions.xlsx,positions_test.xlsx,positions_test_new.xlsx,stimuli.xlsx,stimuli_new.xlsx,stimuli/Social4.png,stimuli/Social3.png,stimuli/Nonsocial4.png,stimuli/Nonsocial3.png,stimuli/Social2.png,stimuli/Social1.png,stimuli/Nonsocial2.png,stimuli/Nonsocial1.png,,,"(-0.7, -0.5)",cs_neg_ns,"(-0.7, 0.5)",cs_pos_ns,"(0.7, -0.5)",cs_neg_s,"(0.7, 0.5)",cs_pos_s,0,0,0,0,,,,,,,,,,,,,,,,,,,,,0,7,7,17,,,,,,,,,,,,,,,,,,,,,,,,,,,96,reward,,,,,,910.2607271000161,910.2607271000161,910.2607271000161,910.2607271000161,0,,,0,,,0,,,1,0.031207699968945235,0.03121129999635741,910.2607271000161,910.2607271000161,910.2607271000161,910.2607271000161,31,D,2024-05-14_13h17.02.820,attentional_competition_task,2022.2.4,143.98682241340887,
positions.xlsx,positions_test.xlsx,positions_test_new.xlsx,stimuli.xlsx,stimuli_new.xlsx,stimuli/Social4.png,stimuli/Social3.png,stimuli/Nonsocial4.png,stimuli/Nonsocial3.png,stimuli/Social2.png,stimuli/Social1.png,stimuli/Nonsocial2.png,stimuli/Nonsocial1.png,,,"(-0.7, -0.5)",cs_neg_ns,"(-0.7, 0.5)",cs_pos_ns,"(0.7, -0.5)",cs_pos_s,"(0.7, 0.5)",cs_neg_s,0,0,0,0,,,,,,,,,,,,,,,,,,,,,0,8,8,16,,,,,,,,,,,,,,,,,,,,,,,,,,,99,reward,,,,,,918.7603824000107,918.7603824000107,918.7603824000107,918.7603824000107,0,,,0,,,1,0.022757800004910678,0.02276179997716099,0,,,918.7603824000107,918.7603824000107,918.7603824000107,918.7603824000107,31,D,2024-05-14_13h17.02.820,attentional_competition_task,2022.2.4,143.98682241340887,
positions.xlsx,positions_test.xlsx,positions_test_new.xlsx,stimuli.xlsx,stimuli_new.xlsx,stimuli/Social4.png,stimuli/Social3.png,stimuli/Nonsocial4.png,stimuli/Nonsocial3.png,stimuli/Social2.png,stimuli/Social1.png,stimuli/Nonsocial2.png,stimuli/Nonsocial1.png,,,"(-0.7, -0.5)",cs_neg_s,"(-0.7, 0.5)",cs_pos_ns,"(0.7, -0.5)",cs_neg_ns,"(0.7, 0.5)",cs_pos_s,0,0,0,0,,,,,,,,,,,,,,,,,,,,,0,9,9,5,,,,,,,,,,,,,,,,,,,,,,,,,,,105,reward,,,,,,928.4683387000114,928.4683387000114,928.4683387000114,928.4683387000114,0,,,1,0.028971799998544157,0.028975399967748672,0,,,0,,,928.4683387000114,928.4683387000114,928.4683387000114,928.4683387000114,31,D,2024-05-14_13h17.02.820,attentional_competition_task,2022.2.4,143.98682241340887,
positions.xlsx,positions_test.xlsx,positions_test_new.xlsx,stimuli.xlsx,stimuli_new.xlsx,stimuli/Social4.png,stimuli/Social3.png,stimuli/Nonsocial4.png,stimuli/Nonsocial3.png,stimuli/Social2.png,stimuli/Social1.png,stimuli/Nonsocial2.png,stimuli/Nonsocial1.png,,,"(-0.7, -0.5)",cs_pos_ns,"(-0.7, 0.5)",cs_pos_s,"(0.7, -0.5)",cs_neg_ns,"(0.7, 0.5)",cs_neg_s,0,0,0,0,,,,,,,,,,,,,,,,,,,,,0,10,10,18,,,,,,,,,,,,,,,,,,,,,,,,,,,114,reward,,,,,,936.0791845000349,936.0791845000349,936.0791845000349,936.0791845000349,1,0.02266720001352951,0.5383177999756299,0,,,0,,,0,,,937.1277391000185,937.1277391000185,937.1277391000185,937.1277391000185,31,D,2024-05-14_13h17.02.820,attentional_competition_task,2022.2.4,143.98682241340887,
positions.xlsx,positions_test.xlsx,positions_test_new.xlsx,stimuli.xlsx,stimuli_new.xlsx,stimuli/Social4.png,stimuli/Social3.png,stimuli/Nonsocial4.png,stimuli/Nonsocial3.png,stimuli/Social2.png,stimuli/Social1.png,stimuli/Nonsocial2.png,stimuli/Nonsocial1.png,,,"(-0.7, -0.5)",cs_pos_s,"(-0.7, 0.5)",cs_neg_ns,"(0.7, -0.5)",cs_pos_ns,"(0.7, 0.5)",cs_neg_s,0,0,0,0,,,,,,,,,,,,,,,,,,,,,0,11,11,9,,,,,,,,,,,,,,,,,,,,,,,,,,,117,reward,,,,,,944.8704767000163,944.8704767000163,944.8704767000163,944.8704767000163,0,,,0,,,1,0.030491799989249557,0.03049580001970753,0,,,944.8704767000163,944.8704767000163,944.8704767000163,944.8704767000163,31,D,2024-05-14_13h17.02.820,attentional_competition_task,2022.2.4,143.98682241340887,
positions.xlsx,positions_test.xlsx,positions_test_new.xlsx,stimuli.xlsx,stimuli_new.xlsx,stimuli/Social4.png,stimuli/Social3.png,stimuli/Nonsocial4.png,stimuli/Nonsocial3.png,stimuli/Social2.png,stimuli/Social1.png,stimuli/Nonsocial2.png,stimuli/Nonsocial1.png,,,"(-0.7, -0.5)",cs_pos_ns,"(-0.7, 0.5)",cs_pos_s,"(0.7, -0.5)",cs_neg_s,"(0.7, 0.5)",cs_neg_ns,0,0,0,0,,,,,,,,,,,,,,,,,,,,,0,12,12,19,,,,,,,,,,,,,,,,,,,,,,,,,,,126,reward,,,,,,954.3423167000292,954.3423167000292,954.3423167000292,954.3423167000292,0,,,1,0.03821550001157448,0.14906770002562553,0,,,0,,,954.9812521000276,954.9812521000276,954.9812521000276,954.9812521000276,31,D,2024-05-14_13h17.02.820,attentional_competition_task,2022.2.4,143.98682241340887,
positions.xlsx,positions_test.xlsx,positions_test_new.xlsx,stimuli.xlsx,stimuli_new.xlsx,stimuli/Social4.png,stimuli/Social3.png,stimuli/Nonsocial4.png,stimuli/Nonsocial3.png,stimuli/Social2.png,stimuli/Social1.png,stimuli/Nonsocial2.png,stimuli/Nonsocial1.png,,,"(-0.7, -0.5)",cs_neg_ns,"(-0.7, 0.5)",cs_neg_s,"(0.7, -0.5)",cs_pos_s,"(0.7, 0.5)",cs_pos_ns,0,0,0,0,,,,,,,,,,,,,,,,,,,,,0,13,13,14,,,,,,,,,,,,,,,,,,,,,,,,,,,135,reward,,,,,,961.9879053999903,961.9879053999903,961.9879053999903,961.9879053999903,0,,,0,,,0,,,0,,,962.855986599985,962.855986599985,962.855986599985,962.855986599985,31,D,2024-05-14_13h17.02.820,attentional_competition_task,2022.2.4,143.98682241340887,
positions.xlsx,positions_test.xlsx,positions_test_new.xlsx,stimuli.xlsx,stimuli_new.xlsx,stimuli/Social4.png,stimuli/Social3.png,stimuli/Nonsocial4.png,stimuli/Nonsocial3.png,stimuli/Social2.png,stimuli/Social1.png,stimuli/Nonsocial2.png,stimuli/Nonsocial1.png,,,"(-0.7, -0.5)",cs_neg_s,"(-0.7, 0.5)",cs_pos_ns,"(0.7, -0.5)",cs_pos_s,"(0.7, 0.5)",cs_neg_ns,0,0,0,0,,,,,,,,,,,,,,,,,,,,,0,14,14,4,,,,,,,,,,,,,,,,,,,,,,,,,,,138,reward,,,,,,970.5153341999976,970.5153341999976,970.5153341999976,970.5153341999976,0,,,1,0.030275700031779706,0.03027950000250712,0,,,0,,,970.5153341999976,970.5153341999976,970.5153341999976,970.5153341999976,31,D,2024-05-14_13h17.02.820,attentional_competition_task,2022.2.4,143.98682241340887,
positions.xlsx,positions_test.xlsx,positions_test_new.xlsx,stimuli.xlsx,stimuli_new.xlsx,stimuli/Social4.png,stimuli/Social3.png,stimuli/Nonsocial4.png,stimuli/Nonsocial3.png,stimuli/Social2.png,stimuli/Social1.png,stimuli/Nonsocial2.png,stimuli/Nonsocial1.png,,,"(-0.7, -0.5)",cs_neg_ns,"(-0.7, 0.5)",cs_pos_s,"(0.7, -0.5)",cs_pos_ns,"(0.7, 0.5)",cs_neg_s,0,0,0,0,,,,,,,,,,,,,,,,,,,,,0,15,15,13,,,,,,,,,,,,,,,,,,,,,,,,,,,147,reward,,,,,,979.4594701000024,979.4594701000024,979.4594701000024,979.4594701000024,0,,,1,0.5034076999872923,0.5034115000162274,0,,,0,,,980.4663608000265,980.4663608000265,980.4663608000265,980.4663608000265,31,D,2024-05-14_13h17.02.820,attentional_competition_task,2022.2.4,143.98682241340887,
positions.xlsx,positions_test.xlsx,positions_test_new.xlsx,stimuli.xlsx,stimuli_new.xlsx,stimuli/Social4.png,stimuli/Social3.png,stimuli/Nonsocial4.png,stimuli/Nonsocial3.png,stimuli/Social2.png,stimuli/Social1.png,stimuli/Nonsocial2.png,stimuli/Nonsocial1.png,,,"(-0.7, -0.5)",cs_pos_ns,"(-0.7, 0.5)",cs_neg_ns,"(0.7, -0.5)",cs_neg_s,"(0.7, 0.5)",cs_pos_s,0,0,0,0,,,,,,,,,,,,,,,,,,,,,0,16,16,21,,,,,,,,,,,,,,,,,,,,,,,,,,,156,reward,,,,,,988.3826824999996,988.3826824999996,988.3826824999996,988.3826824999996,1,0.029371000011451542,0.47404509998159483,0,,,0,,,0,,,989.3549134000205,989.3549134000205,989.3549134000205,989.3549134000205,31,D,2024-05-14_13h17.02.820,attentional_competition_task,2022.2.4,143.98682241340887,
positions.xlsx,positions_test.xlsx,positions_test_new.xlsx,stimuli.xlsx,stimuli_new.xlsx,stimuli/Social4.png,stimuli/Social3.png,stimuli/Nonsocial4.png,stimuli/Nonsocial3.png,stimuli/Social2.png,stimuli/Social1.png,stimuli/Nonsocial2.png,stimuli/Nonsocial1.png,,,"(-0.7, -0.5)",cs_pos_ns,"(-0.7, 0.5)",cs_neg_ns,"(0.7, -0.5)",cs_pos_s,"(0.7, 0.5)",cs_neg_s,0,0,0,0,,,,,,,,,,,,,,,,,,,,,0,17,17,20,,,,,,,,,,,,,,,,,,,,,,,,,,,165,reward,,,,,,996.2782675999915,996.2782675999915,996.2782675999915,996.2782675999915,0,,,0,,,0,,,0,,,997.382393900014,997.382393900014,997.382393900014,997.382393900014,31,D,2024-05-14_13h17.02.820,attentional_competition_task,2022.2.4,143.98682241340887,
positions.xlsx,positions_test.xlsx,positions_test_new.xlsx,stimuli.xlsx,stimuli_new.xlsx,stimuli/Social4.png,stimuli/Social3.png,stimuli/Nonsocial4.png,stimuli/Nonsocial3.png,stimuli/Social2.png,stimuli/Social1.png,stimuli/Nonsocial2.png,stimuli/Nonsocial1.png,,,"(-0.7, -0.5)",cs_neg_s,"(-0.7, 0.5)",cs_neg_ns,"(0.7, -0.5)",cs_pos_s,"(0.7, 0.5)",cs_pos_ns,0,0,0,0,,,,,,,,,,,,,,,,,,,,,0,18,18,2,,,,,,,,,,,,,,,,,,,,,,,,,,,174,reward,,,,,,1004.5001566000283,1004.5001566000283,1004.5001566000283,1004.5001566000283,0,,,0,,,0,,,0,,,1005.6042795000249,1005.6042795000249,1005.6042795000249,1005.6042795000249,31,D,2024-05-14_13h17.02.820,attentional_competition_task,2022.2.4,143.98682241340887,
positions.xlsx,positions_test.xlsx,positions_test_new.xlsx,stimuli.xlsx,stimuli_new.xlsx,stimuli/Social4.png,stimuli/Social3.png,stimuli/Nonsocial4.png,stimuli/Nonsocial3.png,stimuli/Social2.png,stimuli/Social1.png,stimuli/Nonsocial2.png,stimuli/Nonsocial1.png,,,"(-0.7, -0.5)",cs_pos_s,"(-0.7, 0.5)",cs_neg_ns,"(0.7, -0.5)",cs_neg_s,"(0.7, 0.5)",cs_pos_ns,0,0,0,0,,,,,,,,,,,,,,,,,,,,,0,19,19,8,,,,,,,,,,,,,,,,,,,,,,,,,,,174,reward,,,,,,1013.5692705999827,1013.5692705999827,1013.5692705999827,1013.5692705999827,1,0.024070800049230456,0.024075000023003668,0,,,0,,,0,,,1013.5692705999827,1013.5692705999827,1013.5692705999827,1013.5692705999827,31,D,2024-05-14_13h17.02.820,attentional_competition_task,2022.2.4,143.98682241340887,
positions.xlsx,positions_test.xlsx,positions_test_new.xlsx,stimuli.xlsx,stimuli_new.xlsx,stimuli/Social4.png,stimuli/Social3.png,stimuli/Nonsocial4.png,stimuli/Nonsocial3.png,stimuli/Social2.png,stimuli/Social1.png,stimuli/Nonsocial2.png,stimuli/Nonsocial1.png,,,"(-0.7, -0.5)",cs_neg_ns,"(-0.7, 0.5)",cs_neg_s,"(0.7, -0.5)",cs_pos_ns,"(0.7, 0.5)",cs_pos_s,0,0,0,0,,,,,,,,,,,,,,,,,,,,,0,20,20,15,,,,,,,,,,,,,,,,,,,,,,,,,,,183,reward,,,,,,1022.2425366999814,1022.2425366999814,1022.2425366999814,1022.2425366999814,0,,,0,,,0,,,0,,,1023.2772461000131,1023.2772461000131,1023.2772461000131,1023.2772461000131,31,D,2024-05-14_13h17.02.820,attentional_competition_task,2022.2.4,143.98682241340887,
positions.xlsx,positions_test.xlsx,positions_test_new.xlsx,stimuli.xlsx,stimuli_new.xlsx,stimuli/Social4.png,stimuli/Social3.png,stimuli/Nonsocial4.png,stimuli/Nonsocial3.png,stimuli/Social2.png,stimuli/Social1.png,stimuli/Nonsocial2.png,stimuli/Nonsocial1.png,,,"(-0.7, -0.5)",cs_pos_s,"(-0.7, 0.5)",cs_neg_s,"(0.7, -0.5)",cs_pos_ns,"(0.7, 0.5)",cs_neg_ns,0,0,0,0,,,,,,,,,,,,,,,,,,,,,0,21,21,7,,,,,,,,,,,,,,,,,,,,,,,,,,,192,reward,,,,,,1030.936637100007,1030.936637100007,1030.936637100007,1030.936637100007,0,,,0,,,0,,,0,,,1031.79772089998,1031.79772089998,1031.79772089998,1031.79772089998,31,D,2024-05-14_13h17.02.820,attentional_competition_task,2022.2.4,143.98682241340887,
positions.xlsx,positions_test.xlsx,positions_test_new.xlsx,stimuli.xlsx,stimuli_new.xlsx,stimuli/Social4.png,stimuli/Social3.png,stimuli/Nonsocial4.png,stimuli/Nonsocial3.png,stimuli/Social2.png,stimuli/Social1.png,stimuli/Nonsocial2.png,stimuli/Nonsocial1.png,,,"(-0.7, -0.5)",cs_neg_s,"(-0.7, 0.5)",cs_pos_s,"(0.7, -0.5)",cs_neg_ns,"(0.7, 0.5)",cs_pos_ns,0,0,0,0,,,,,,,,,,,,,,,,,,,,,0,22,22,0,,,,,,,,,,,,,,,,,,,,,,,,,,,201,reward,,,,,,1039.0196626000106,1039.0196626000106,1039.0196626000106,1039.0196626000106,0,,,0,,,0,,,0,,,1040.033519699995,1040.033519699995,1040.033519699995,1040.033519699995,31,D,2024-05-14_13h17.02.820,attentional_competition_task,2022.2.4,143.98682241340887,
positions.xlsx,positions_test.xlsx,positions_test_new.xlsx,stimuli.xlsx,stimuli_new.xlsx,stimuli/Social4.png,stimuli/Social3.png,stimuli/Nonsocial4.png,stimuli/Nonsocial3.png,stimuli/Social2.png,stimuli/Social1.png,stimuli/Nonsocial2.png,stimuli/Nonsocial1.png,,,"(-0.7, -0.5)",cs_pos_s,"(-0.7, 0.5)",cs_pos_ns,"(0.7, -0.5)",cs_neg_s,"(0.7, 0.5)",cs_neg_ns,0,0,0,0,,,,,,,,,,,,,,,,,,,,,0,23,23,10,,,,,,,,,,,,,,,,,,,,,,,,,,,210,reward,,,,,,1048.3596010000329,1048.3596010000329,1048.3596010000329,1048.3596010000329,0,,,0,,,0,,,0,,,1049.3803855000297,1049.3803855000297,1049.3803855000297,1049.3803855000297,31,D,2024-05-14_13h17.02.820,attentional_competition_task,2022.2.4,143.98682241340887,
positions.xlsx,positions_test.xlsx,positions_test_new.xlsx,stimuli.xlsx,stimuli_new.xlsx,stimuli/Social4.png,stimuli/Social3.png,stimuli/Nonsocial4.png,stimuli/Nonsocial3.png,stimuli/Social2.png,stimuli/Social1.png,stimuli/Nonsocial2.png,stimuli/Nonsocial1.png,,,"(-0.7, -0.5)",cs_pos_ns,"(-0.7, 0.5)",cs_neg_s,"(0.7, -0.5)",cs_pos_s,"(0.7, 0.5)",cs_neg_ns,0,0,0,0,,,,,,,,,,,,,,,,,,,,,1,0,24,22,,,,,,,,,,,,,,,,,,,,,,,,,,,219,reward,,,,,,1057.2689813000034,1057.2689813000034,1057.2689813000034,1057.2689813000034,0,,,0,,,0,,,0,,,1058.3592051999876,1058.3592051999876,1058.3592051999876,1058.3592051999876,31,D,2024-05-14_13h17.02.820,attentional_competition_task,2022.2.4,143.98682241340887,
positions.xlsx,positions_test.xlsx,positions_test_new.xlsx,stimuli.xlsx,stimuli_new.xlsx,stimuli/Social4.png,stimuli/Social3.png,stimuli/Nonsocial4.png,stimuli/Nonsocial3.png,stimuli/Social2.png,stimuli/Social1.png,stimuli/Nonsocial2.png,stimuli/Nonsocial1.png,,,"(-0.7, -0.5)",cs_neg_ns,"(-0.7, 0.5)",cs_pos_ns,"(0.7, -0.5)",cs_neg_s,"(0.7, 0.5)",cs_pos_s,0,0,0,0,,,,,,,,,,,,,,,,,,,,,1,1,25,17,,,,,,,,,,,,,,,,,,,,,,,,,,,222,reward,,,,,,1066.0603301000083,1066.0603301000083,1066.0603301000083,1066.0603301000083,0,,,1,0.024860600009560585,0.024864399980288,0,,,0,,,1066.0603301000083,1066.0603301000083,1066.0603301000083,1066.0603301000083,31,D,2024-05-14_13h17.02.820,attentional_competition_task,2022.2.4,143.98682241340887,
positions.xlsx,positions_test.xlsx,positions_test_new.xlsx,stimuli.xlsx,stimuli_new.xlsx,stimuli/Social4.png,stimuli/Social3.png,stimuli/Nonsocial4.png,stimuli/Nonsocial3.png,stimuli/Social2.png,stimuli/Social1.png,stimuli/Nonsocial2.png,stimuli/Nonsocial1.png,,,"(-0.7, -0.5)",cs_pos_ns,"(-0.7, 0.5)",cs_neg_s,"(0.7, -0.5)",cs_neg_ns,"(0.7, 0.5)",cs_pos_s,0,0,0,0,,,,,,,,,,,,,,,,,,,,,1,2,26,23,,,,,,,,,,,,,,,,,,,,,,,,,,,225,reward,,,,,,1074.6433008000022,1074.6433008000022,1074.6433008000022,1074.6433008000022,1,0.025373000011313707,0.02537669998127967,0,,,0,,,0,,,1074.6433008000022,1074.6433008000022,1074.6433008000022,1074.6433008000022,31,D,2024-05-14_13h17.02.820,attentional_competition_task,2022.2.4,143.98682241340887,
positions.xlsx,positions_test.xlsx,positions_test_new.xlsx,stimuli.xlsx,stimuli_new.xlsx,stimuli/Social4.png,stimuli/Social3.png,stimuli/Nonsocial4.png,stimuli/Nonsocial3.png,stimuli/Social2.png,stimuli/Social1.png,stimuli/Nonsocial2.png,stimuli/Nonsocial1.png,,,"(-0.7, -0.5)",cs_pos_s,"(-0.7, 0.5)",cs_pos_ns,"(0.7, -0.5)",cs_neg_s,"(0.7, 0.5)",cs_neg_ns,0,0,0,0,,,,,,,,,,,,,,,,,,,,,1,3,27,10,,,,,,,,,,,,,,,,,,,,,,,,,,,234,reward,,,,,,1082.8027431000373,1082.8027431000373,1082.8027431000373,1082.8027431000373,0,,,0,,,0,,,0,,,1083.7332469000248,1083.7332469000248,1083.7332469000248,1083.7332469000248,31,D,2024-05-14_13h17.02.820,attentional_competition_task,2022.2.4,143.98682241340887,
positions.xlsx,positions_test.xlsx,positions_test_new.xlsx,stimuli.xlsx,stimuli_new.xlsx,stimuli/Social4.png,stimuli/Social3.png,stimuli/Nonsocial4.png,stimuli/Nonsocial3.png,stimuli/Social2.png,stimuli/Social1.png,stimuli/Nonsocial2.png,stimuli/Nonsocial1.png,,,"(-0.7, -0.5)",cs_pos_ns,"(-0.7, 0.5)",cs_neg_ns,"(0.7, -0.5)",cs_pos_s,"(0.7, 0.5)",cs_neg_s,0,0,0,0,,,,,,,,,,,,,,,,,,,,,1,4,28,20,,,,,,,,,,,,,,,,,,,,,,,,,,,243,reward,,,,,,1091.9481453000335,1091.9481453000335,1091.9481453000335,1091.9481453000335,0,,,0,,,0,,,0,,,1092.8509455000167,1092.8509455000167,1092.8509455000167,1092.8509455000167,31,D,2024-05-14_13h17.02.820,attentional_competition_task,2022.2.4,143.98682241340887,
positions.xlsx,positions_test.xlsx,positions_test_new.xlsx,stimuli.xlsx,stimuli_new.xlsx,stimuli/Social4.png,stimuli/Social3.png,stimuli/Nonsocial4.png,stimuli/Nonsocial3.png,stimuli/Social2.png,stimuli/Social1.png,stimuli/Nonsocial2.png,stimuli/Nonsocial1.png,,,"(-0.7, -0.5)",cs_neg_ns,"(-0.7, 0.5)",cs_neg_s,"(0.7, -0.5)",cs_pos_s,"(0.7, 0.5)",cs_pos_ns,0,0,0,0,,,,,,,,,,,,,,,,,,,,,1,5,29,14,,,,,,,,,,,,,,,,,,,,,,,,,,,252,reward,,,,,,1100.1284503000206,1100.1284503000206,1100.1284503000206,1100.1284503000206,0,,,0,,,0,,,0,,,1101.204781599983,1101.204781599983,1101.204781599983,1101.204781599983,31,D,2024-05-14_13h17.02.820,attentional_competition_task,2022.2.4,143.98682241340887,
positions.xlsx,positions_test.xlsx,positions_test_new.xlsx,stimuli.xlsx,stimuli_new.xlsx,stimuli/Social4.png,stimuli/Social3.png,stimuli/Nonsocial4.png,stimuli/Nonsocial3.png,stimuli/Social2.png,stimuli/Social1.png,stimuli/Nonsocial2.png,stimuli/Nonsocial1.png,,,"(-0.7, -0.5)",cs_neg_ns,"(-0.7, 0.5)",cs_pos_s,"(0.7, -0.5)",cs_pos_ns,"(0.7, 0.5)",cs_neg_s,0,0,0,0,,,,,,,,,,,,,,,,,,,,,1,6,30,13,,,,,,,,,,,,,,,,,,,,,,,,,,,261,reward,,,,,,1108.3087072999915,1108.3087072999915,1108.3087072999915,1108.3087072999915,0,,,0,,,0,,,0,,,1109.2461779000005,1109.2461779000005,1109.2461779000005,1109.2461779000005,31,D,2024-05-14_13h17.02.820,attentional_competition_task,2022.2.4,143.98682241340887,
positions.xlsx,positions_test.xlsx,positions_test_new.xlsx,stimuli.xlsx,stimuli_new.xlsx,stimuli/Social4.png,stimuli/Social3.png,stimuli/Nonsocial4.png,stimuli/Nonsocial3.png,stimuli/Social2.png,stimuli/Social1.png,stimuli/Nonsocial2.png,stimuli/Nonsocial1.png,,,"(-0.7, -0.5)",cs_neg_ns,"(-0.7, 0.5)",cs_pos_ns,"(0.7, -0.5)",cs_pos_s,"(0.7, 0.5)",cs_neg_s,0,0,0,0,,,,,,,,,,,,,,,,,,,,,1,7,31,16,,,,,,,,,,,,,,,,,,,,,,,,,,,270,reward,,,,,,1116.7944473000243,1116.7944473000243,1116.7944473000243,1116.7944473000243,0,,,0,,,0,,,0,,,1117.8916527000256,1117.8916527000256,1117.8916527000256,1117.8916527000256,31,D,2024-05-14_13h17.02.820,attentional_competition_task,2022.2.4,143.98682241340887,
positions.xlsx,positions_test.xlsx,positions_test_new.xlsx,stimuli.xlsx,stimuli_new.xlsx,stimuli/Social4.png,stimuli/Social3.png,stimuli/Nonsocial4.png,stimuli/Nonsocial3.png,stimuli/Social2.png,stimuli/Social1.png,stimuli/Nonsocial2.png,stimuli/Nonsocial1.png,,,"(-0.7, -0.5)",cs_pos_s,"(-0.7, 0.5)",cs_pos_ns,"(0.7, -0.5)",cs_neg_ns,"(0.7, 0.5)",cs_neg_s,0,0,0,0,,,,,,,,,,,,,,,,,,,,,1,8,32,11,,,,,,,,,,,,,,,,,,,,,,,,,,,279,reward,,,,,,1125.6969028000021,1125.6969028000021,1125.6969028000021,1125.6969028000021,0,,,0,,,0,,,0,,,1126.7593673000229,1126.7593673000229,1126.7593673000229,1126.7593673000229,31,D,2024-05-14_13h17.02.820,attentional_competition_task,2022.2.4,143.98682241340887,
positions.xlsx,positions_test.xlsx,positions_test_new.xlsx,stimuli.xlsx,stimuli_new.xlsx,stimuli/Social4.png,stimuli/Social3.png,stimuli/Nonsocial4.png,stimuli/Nonsocial3.png,stimuli/Social2.png,stimuli/Social1.png,stimuli/Nonsocial2.png,stimuli/Nonsocial1.png,,,"(-0.7, -0.5)",cs_neg_ns,"(-0.7, 0.5)",cs_pos_s,"(0.7, -0.5)",cs_neg_s,"(0.7, 0.5)",cs_pos_ns,0,0,0,0,,,,,,,,,,,,,,,,,,,,,1,9,33,12,,,,,,,,,,,,,,,,,,,,,,,,,,,288,reward,,,,,,1134.8423595000058,1134.8423595000058,1134.8423595000058,1134.8423595000058,0,,,0,,,0,,,0,,,1135.8840569999884,1135.8840569999884,1135.8840569999884,1135.8840569999884,31,D,2024-05-14_13h17.02.820,attentional_competition_task,2022.2.4,143.98682241340887,
positions.xlsx,positions_test.xlsx,positions_test_new.xlsx,stimuli.xlsx,stimuli_new.xlsx,stimuli/Social4.png,stimuli/Social3.png,stimuli/Nonsocial4.png,stimuli/Nonsocial3.png,stimuli/Social2.png,stimuli/Social1.png,stimuli/Nonsocial2.png,stimuli/Nonsocial1.png,,,"(-0.7, -0.5)",cs_neg_s,"(-0.7, 0.5)",cs_neg_ns,"(0.7, -0.5)",cs_pos_s,"(0.7, 0.5)",cs_pos_ns,0,0,0,0,,,,,,,,,,,,,,,,,,,,,1,10,34,2,,,,,,,,,,,,,,,,,,,,,,,,,,,297,reward,,,,,,1142.7934744000086,1142.7934744000086,1142.7934744000086,1142.7934744000086,0,,,0,,,0,,,0,,,1143.8628824999905,1143.8628824999905,1143.8628824999905,1143.8628824999905,31,D,2024-05-14_13h17.02.820,attentional_competition_task,2022.2.4,143.98682241340887,
positions.xlsx,positions_test.xlsx,positions_test_new.xlsx,stimuli.xlsx,stimuli_new.xlsx,stimuli/Social4.png,stimuli/Social3.png,stimuli/Nonsocial4.png,stimuli/Nonsocial3.png,stimuli/Social2.png,stimuli/Social1.png,stimuli/Nonsocial2.png,stimuli/Nonsocial1.png,,,"(-0.7, -0.5)",cs_pos_ns,"(-0.7, 0.5)",cs_neg_ns,"(0.7, -0.5)",cs_neg_s,"(0.7, 0.5)",cs_pos_s,0,0,0,0,,,,,,,,,,,,,,,,,,,,,1,11,35,21,,,,,,,,,,,,,,,,,,,,,,,,,,,306,reward,,,,,,1151.397326699982,1151.397326699982,1151.397326699982,1151.397326699982,0,,,0,,,0,,,0,,,1152.4111386000295,1152.4111386000295,1152.4111386000295,1152.4111386000295,31,D,2024-05-14_13h17.02.820,attentional_competition_task,2022.2.4,143.98682241340887,
positions.xlsx,positions_test.xlsx,positions_test_new.xlsx,stimuli.xlsx,stimuli_new.xlsx,stimuli/Social4.png,stimuli/Social3.png,stimuli/Nonsocial4.png,stimuli/Nonsocial3.png,stimuli/Social2.png,stimuli/Social1.png,stimuli/Nonsocial2.png,stimuli/Nonsocial1.png,,,"(-0.7, -0.5)",cs_pos_ns,"(-0.7, 0.5)",cs_pos_s,"(0.7, -0.5)",cs_neg_s,"(0.7, 0.5)",cs_neg_ns,0,0,0,0,,,,,,,,,,,,,,,,,,,,,1,12,36,19,,,,,,,,,,,,,,,,,,,,,,,,,,,315,reward,,,,,,1159.8067399000283,1159.8067399000283,1159.8067399000283,1159.8067399000283,0,,,0,,,0,,,0,,,1160.8136214999831,1160.8136214999831,1160.8136214999831,1160.8136214999831,31,D,2024-05-14_13h17.02.820,attentional_competition_task,2022.2.4,143.98682241340887,
positions.xlsx,positions_test.xlsx,positions_test_new.xlsx,stimuli.xlsx,stimuli_new.xlsx,stimuli/Social4.png,stimuli/Social3.png,stimuli/Nonsocial4.png,stimuli/Nonsocial3.png,stimuli/Social2.png,stimuli/Social1.png,stimuli/Nonsocial2.png,stimuli/Nonsocial1.png,,,"(-0.7, -0.5)",cs_pos_s,"(-0.7, 0.5)",cs_neg_ns,"(0.7, -0.5)",cs_neg_s,"(0.7, 0.5)",cs_pos_ns,0,0,0,0,,,,,,,,,,,,,,,,,,,,,1,13,37,8,,,,,,,,,,,,,,,,,,,,,,,,,,,324,reward,,,,,,1168.9730303999968,1168.9730303999968,1168.9730303999968,1168.9730303999968,0,,,0,,,0,,,0,,,1169.9452485000365,1169.9452485000365,1169.9452485000365,1169.9452485000365,31,D,2024-05-14_13h17.02.820,attentional_competition_task,2022.2.4,143.98682241340887,
positions.xlsx,positions_test.xlsx,positions_test_new.xlsx,stimuli.xlsx,stimuli_new.xlsx,stimuli/Social4.png,stimuli/Social3.png,stimuli/Nonsocial4.png,stimuli/Nonsocial3.png,stimuli/Social2.png,stimuli/Social1.png,stimuli/Nonsocial2.png,stimuli/Nonsocial1.png,,,"(-0.7, -0.5)",cs_neg_s,"(-0.7, 0.5)",cs_pos_ns,"(0.7, -0.5)",cs_pos_s,"(0.7, 0.5)",cs_neg_ns,0,0,0,0,,,,,,,,,,,,,,,,,,,,,1,14,38,4,,,,,,,,,,,,,,,,,,,,,,,,,,,330,reward,,,,,,1178.0351769999834,1178.0351769999834,1178.0351769999834,1178.0351769999834,0,,,0,,,0,,,0,,,1178.5907248000149,1178.5907248000149,1178.5907248000149,1178.5907248000149,31,D,2024-05-14_13h17.02.820,attentional_competition_task,2022.2.4,143.98682241340887,
positions.xlsx,positions_test.xlsx,positions_test_new.xlsx,stimuli.xlsx,stimuli_new.xlsx,stimuli/Social4.png,stimuli/Social3.png,stimuli/Nonsocial4.png,stimuli/Nonsocial3.png,stimuli/Social2.png,stimuli/Social1.png,stimuli/Nonsocial2.png,stimuli/Nonsocial1.png,,,"(-0.7, -0.5)",cs_neg_s,"(-0.7, 0.5)",cs_pos_ns,"(0.7, -0.5)",cs_neg_ns,"(0.7, 0.5)",cs_pos_s,0,0,0,0,,,,,,,,,,,,,,,,,,,,,1,15,39,5,,,,,,,,,,,,,,,,,,,,,,,,,,,333,reward,,,,,,1186.5209682999994,1186.5209682999994,1186.5209682999994,1186.5209682999994,0,,,0,,,0,,,1,0.02709720004349947,0.027101000014226884,1186.5209682999994,1186.5209682999994,1186.5209682999994,1186.5209682999994,31,D,2024-05-14_13h17.02.820,attentional_competition_task,2022.2.4,143.98682241340887,
positions.xlsx,positions_test.xlsx,positions_test_new.xlsx,stimuli.xlsx,stimuli_new.xlsx,stimuli/Social4.png,stimuli/Social3.png,stimuli/Nonsocial4.png,stimuli/Nonsocial3.png,stimuli/Social2.png,stimuli/Social1.png,stimuli/Nonsocial2.png,stimuli/Nonsocial1.png,,,"(-0.7, -0.5)",cs_pos_ns,"(-0.7, 0.5)",cs_pos_s,"(0.7, -0.5)",cs_neg_ns,"(0.7, 0.5)",cs_neg_s,0,0,0,0,,,,,,,,,,,,,,,,,,,,,1,16,40,18,,,,,,,,,,,,,,,,,,,,,,,,,,,342,reward,,,,,,1194.9928820999921,1194.9928820999921,1194.9928820999921,1194.9928820999921,0,,,0,,,0,,,0,,,1195.9512119999854,1195.9512119999854,1195.9512119999854,1195.9512119999854,31,D,2024-05-14_13h17.02.820,attentional_competition_task,2022.2.4,143.98682241340887,
positions.xlsx,positions_test.xlsx,positions_test_new.xlsx,stimuli.xlsx,stimuli_new.xlsx,stimuli/Social4.png,stimuli/Social3.png,stimuli/Nonsocial4.png,stimuli/Nonsocial3.png,stimuli/Social2.png,stimuli/Social1.png,stimuli/Nonsocial2.png,stimuli/Nonsocial1.png,,,"(-0.7, -0.5)",cs_pos_s,"(-0.7, 0.5)",cs_neg_s,"(0.7, -0.5)",cs_pos_ns,"(0.7, 0.5)",cs_neg_ns,0,0,0,0,,,,,,,,,,,,,,,,,,,,,1,17,41,7,,,,,,,,,,,,,,,,,,,,,,,,,,,345,reward,,,,,,1203.7564247000264,1203.7564247000264,1203.7564247000264,1203.7564247000264,0,,,0,,,1,0.23138879996258765,0.23139269999228418,0,,,1203.992560099985,1203.992560099985,1203.992560099985,1203.992560099985,31,D,2024-05-14_13h17.02.820,attentional_competition_task,2022.2.4,143.98682241340887,
positions.xlsx,positions_test.xlsx,positions_test_new.xlsx,stimuli.xlsx,stimuli_new.xlsx,stimuli/Social4.png,stimuli/Social3.png,stimuli/Nonsocial4.png,stimuli/Nonsocial3.png,stimuli/Social2.png,stimuli/Social1.png,stimuli/Nonsocial2.png,stimuli/Nonsocial1.png,,,"(-0.7, -0.5)",cs_neg_ns,"(-0.7, 0.5)",cs_neg_s,"(0.7, -0.5)",cs_pos_ns,"(0.7, 0.5)",cs_pos_s,0,0,0,0,,,,,,,,,,,,,,,,,,,,,1,18,42,15,,,,,,,,,,,,,,,,,,,,,,,,,,,354,reward,,,,,,1211.7005434000166,1211.7005434000166,1211.7005434000166,1211.7005434000166,0,,,0,,,0,,,0,,,1212.4504999000346,1212.4504999000346,1212.4504999000346,1212.4504999000346,31,D,2024-05-14_13h17.02.820,attentional_competition_task,2022.2.4,143.98682241340887,
positions.xlsx,positions_test.xlsx,positions_test_new.xlsx,stimuli.xlsx,stimuli_new.xlsx,stimuli/Social4.png,stimuli/Social3.png,stimuli/Nonsocial4.png,stimuli/Nonsocial3.png,stimuli/Social2.png,stimuli/Social1.png,stimuli/Nonsocial2.png,stimuli/Nonsocial1.png,,,"(-0.7, -0.5)",cs_neg_s,"(-0.7, 0.5)",cs_pos_s,"(0.7, -0.5)",cs_neg_ns,"(0.7, 0.5)",cs_pos_ns,0,0,0,0,,,,,,,,,,,,,,,,,,,,,1,19,43,0,,,,,,,,,,,,,,,,,,,,,,,,,,,363,reward,,,,,,1220.2557848999859,1220.2557848999859,1220.2557848999859,1220.2557848999859,0,,,0,,,0,,,0,,,1221.2140970000182,1221.2140970000182,1221.2140970000182,1221.2140970000182,31,D,2024-05-14_13h17.02.820,attentional_competition_task,2022.2.4,143.98682241340887,
positions.xlsx,positions_test.xlsx,positions_test_new.xlsx,stimuli.xlsx,stimuli_new.xlsx,stimuli/Social4.png,stimuli/Social3.png,stimuli/Nonsocial4.png,stimuli/Nonsocial3.png,stimuli/Social2.png,stimuli/Social1.png,stimuli/Nonsocial2.png,stimuli/Nonsocial1.png,,,"(-0.7, -0.5)",cs_pos_s,"(-0.7, 0.5)",cs_neg_ns,"(0.7, -0.5)",cs_pos_ns,"(0.7, 0.5)",cs_neg_s,0,0,0,0,,,,,,,,,,,,,,,,,,,,,1,20,44,9,,,,,,,,,,,,,,,,,,,,,,,,,,,366,reward,,,,,,1228.304111000034,1228.304111000034,1228.304111000034,1228.304111000034,0,,,0,,,1,0.023994199989829212,0.023998399963602424,0,,,1228.304111000034,1228.304111000034,1228.304111000034,1228.304111000034,31,D,2024-05-14_13h17.02.820,attentional_competition_task,2022.2.4,143.98682241340887,
positions.xlsx,positions_test.xlsx,positions_test_new.xlsx,stimuli.xlsx,stimuli_new.xlsx,stimuli/Social4.png,stimuli/Social3.png,stimuli/Nonsocial4.png,stimuli/Nonsocial3.png,stimuli/Social2.png,stimuli/Social1.png,stimuli/Nonsocial2.png,stimuli/Nonsocial1.png,,,"(-0.7, -0.5)",cs_neg_s,"(-0.7, 0.5)",cs_neg_ns,"(0.7, -0.5)",cs_pos_ns,"(0.7, 0.5)",cs_pos_s,0,0,0,0,,,,,,,,,,,,,,,,,,,,,1,21,45,3,,,,,,,,,,,,,,,,,,,,,,,,,,,375,reward,,,,,,1236.1857109999983,1236.1857109999983,1236.1857109999983,1236.1857109999983,0,,,0,,,0,,,0,,,1237.2412609999883,1237.2412609999883,1237.2412609999883,1237.2412609999883,31,D,2024-05-14_13h17.02.820,attentional_competition_task,2022.2.4,143.98682241340887,
positions.xlsx,positions_test.xlsx,positions_test_new.xlsx,stimuli.xlsx,stimuli_new.xlsx,stimuli/Social4.png,stimuli/Social3.png,stimuli/Nonsocial4.png,stimuli/Nonsocial3.png,stimuli/Social2.png,stimuli/Social1.png,stimuli/Nonsocial2.png,stimuli/Nonsocial1.png,,,"(-0.7, -0.5)",cs_pos_s,"(-0.7, 0.5)",cs_neg_s,"(0.7, -0.5)",cs_neg_ns,"(0.7, 0.5)",cs_pos_ns,0,0,0,0,,,,,,,,,,,,,,,,,,,,,1,22,46,6,,,,,,,,,,,,,,,,,,,,,,,,,,,381,reward,,,,,,1246.0187098000315,1246.0187098000315,1246.0187098000315,1246.0187098000315,0,,,0,,,0,,,0,,,1246.0187098000315,1246.0187098000315,1246.0187098000315,1246.0187098000315,31,D,2024-05-14_13h17.02.820,attentional_competition_task,2022.2.4,143.98682241340887,
positions.xlsx,positions_test.xlsx,positions_test_new.xlsx,stimuli.xlsx,stimuli_new.xlsx,stimuli/Social4.png,stimuli/Social3.png,stimuli/Nonsocial4.png,stimuli/Nonsocial3.png,stimuli/Social2.png,stimuli/Social1.png,stimuli/Nonsocial2.png,stimuli/Nonsocial1.png,,,"(-0.7, -0.5)",cs_neg_s,"(-0.7, 0.5)",cs_pos_s,"(0.7, -0.5)",cs_pos_ns,"(0.7, 0.5)",cs_neg_ns,0,0,0,0,,,,,,,,,,,,,,,,,,,,,1,23,47,1,,,,,,,,,,,,,,,,,,,,,,,,,,,384,reward,,,,,,1254.1989278999972,1254.1989278999972,1254.1989278999972,1254.1989278999972,0,,,0,,,1,0.023923999979160726,0.023928099952172488,0,,,1254.1989278999972,1254.1989278999972,1254.1989278999972,1254.1989278999972,31,D,2024-05-14_13h17.02.820,attentional_competition_task,2022.2.4,143.98682241340887,
positions.xlsx,positions_test.xlsx,positions_test_new.xlsx,stimuli.xlsx,stimuli_new.xlsx,stimuli/Social4.png,stimuli/Social3.png,stimuli/Nonsocial4.png,stimuli/Nonsocial3.png,stimuli/Social2.png,stimuli/Social1.png,stimuli/Nonsocial2.png,stimuli/Nonsocial1.png,,,"(-0.7, -0.5)",cs_pos_s_new,"(-0.7, 0.5)",cs_neg_s,"(0.7, -0.5)",cs_pos_ns,"(0.7, 0.5)",cs_neg_ns,0,0,0,0,,,,,,,,,,,,,,,,,,,,,,,,,,,,,0,0,0,30,0,0,0,0,,,,,,,,,,,,,,,387,reward,,,,,,1261.893093199993,1261.893093199993,1261.893093199993,1261.893093199993,0,,,0,,,1,0.7104202000191435,0.7170555000193417,0,,,1262.6152838999988,1262.6152838999988,1262.6152838999988,1262.6152838999988,31,D,2024-05-14_13h17.02.820,attentional_competition_task,2022.2.4,143.98682241340887,
positions.xlsx,positions_test.xlsx,positions_test_new.xlsx,stimuli.xlsx,stimuli_new.xlsx,stimuli/Social4.png,stimuli/Social3.png,stimuli/Nonsocial4.png,stimuli/Nonsocial3.png,stimuli/Social2.png,stimuli/Social1.png,stimuli/Nonsocial2.png,stimuli/Nonsocial1.png,,,"(-0.7, -0.5)",cs_pos_s_new,"(-0.7, 0.5)",cs_neg_s,"(0.7, -0.5)",cs_pos_ns,"(0.7, 0.5)",cs_neg_ns,0,0,0,0,,,,,,,,,,,,,,,,,,,,,,,,,,,,,0,0,0,30,1,0,1,0,,,,,,,,,,,,,,,390,reward,,,,,,1263.1430503000156,1263.1430503000156,1263.1430503000156,1263.1430503000156,1,0.028643600002396852,0.028647499973885715,0,,,0,,,0,,,1263.1430503000156,1263.1430503000156,1263.1430503000156,1263.1430503000156,31,D,2024-05-14_13h17.02.820,attentional_competition_task,2022.2.4,143.98682241340887,
positions.xlsx,positions_test.xlsx,positions_test_new.xlsx,stimuli.xlsx,stimuli_new.xlsx,stimuli/Social4.png,stimuli/Social3.png,stimuli/Nonsocial4.png,stimuli/Nonsocial3.png,stimuli/Social2.png,stimuli/Social1.png,stimuli/Nonsocial2.png,stimuli/Nonsocial1.png,,,"(-0.7, -0.5)",cs_pos_s_new,"(-0.7, 0.5)",cs_neg_s,"(0.7, -0.5)",cs_pos_ns,"(0.7, 0.5)",cs_neg_ns,0,0,0,0,,,,,,,,,,,,,,,,,,,,,,,,,,,,,0,0,0,30,2,0,2,0,,,,,,,,,,,,,,,387,loss,,,,,,1263.6777753999922,1263.6777753999922,1263.6777753999922,1263.6777753999922,0,,,1,0.02515150001272559,0.025155399984214455,0,,,0,,,1263.6777753999922,1263.6777753999922,1263.6777753999922,1263.6777753999922,31,D,2024-05-14_13h17.02.820,attentional_competition_task,2022.2.4,143.98682241340887,
positions.xlsx,positions_test.xlsx,positions_test_new.xlsx,stimuli.xlsx,stimuli_new.xlsx,stimuli/Social4.png,stimuli/Social3.png,stimuli/Nonsocial4.png,stimuli/Nonsocial3.png,stimuli/Social2.png,stimuli/Social1.png,stimuli/Nonsocial2.png,stimuli/Nonsocial1.png,,,"(-0.7, -0.5)",cs_pos_s_new,"(-0.7, 0.5)",cs_neg_s,"(0.7, -0.5)",cs_pos_ns,"(0.7, 0.5)",cs_neg_ns,0,0,0,0,,,,,,,,,,,,,,,,,,,,,,,,,,,,,0,0,0,30,,,,,,,,,,,,,,,,,,,,,,,,,,,,,,,,,,,,,,,,,,,,,,31,D,2024-05-14_13h17.02.820,attentional_competition_task,2022.2.4,143.98682241340887,
positions.xlsx,positions_test.xlsx,positions_test_new.xlsx,stimuli.xlsx,stimuli_new.xlsx,stimuli/Social4.png,stimuli/Social3.png,stimuli/Nonsocial4.png,stimuli/Nonsocial3.png,stimuli/Social2.png,stimuli/Social1.png,stimuli/Nonsocial2.png,stimuli/Nonsocial1.png,,,"(-0.7, -0.5)",cs_neg_s,"(-0.7, 0.5)",cs_pos_s,"(0.7, -0.5)",cs_pos_ns,"(0.7, 0.5)",cs_neg_ns,0,0,0,0,,,,,,,,,,,,,,,,,,,,,,,,,,,,,0,1,1,2,0,0,0,0,,,,,,,,,,,,,,,390,reward,,,,,,1270.85107959999,1270.85107959999,1270.85107959999,1270.85107959999,0,,,1,0.4113531999755651,0.41135680000297725,0,,,0,,,1271.2677550999797,1271.2677550999797,1271.2677550999797,1271.2677550999797,31,D,2024-05-14_13h17.02.820,attentional_competition_task,2022.2.4,143.98682241340887,
positions.xlsx,positions_test.xlsx,positions_test_new.xlsx,stimuli.xlsx,stimuli_new.xlsx,stimuli/Social4.png,stimuli/Social3.png,stimuli/Nonsocial4.png,stimuli/Nonsocial3.png,stimuli/Social2.png,stimuli/Social1.png,stimuli/Nonsocial2.png,stimuli/Nonsocial1.png,,,"(-0.7, -0.5)",cs_neg_s,"(-0.7, 0.5)",cs_pos_s,"(0.7, -0.5)",cs_pos_ns,"(0.7, 0.5)",cs_neg_ns,0,0,0,0,,,,,,,,,,,,,,,,,,,,,,,,,,,,,0,1,1,2,1,0,1,0,,,,,,,,,,,,,,,387,loss,,,,,,1271.7955045999843,1271.7955045999843,1271.7955045999843,1271.7955045999843,0,,,0,,,0,,,1,0.025259199959691614,0.02526259998558089,1271.7955045999843,1271.7955045999843,1271.7955045999843,1271.7955045999843,31,D,2024-05-14_13h17.02.820,attentional_competition_task,2022.2.4,143.98682241340887,
positions.xlsx,positions_test.xlsx,positions_test_new.xlsx,stimuli.xlsx,stimuli_new.xlsx,stimuli/Social4.png,stimuli/Social3.png,stimuli/Nonsocial4.png,stimuli/Nonsocial3.png,stimuli/Social2.png,stimuli/Social1.png,stimuli/Nonsocial2.png,stimuli/Nonsocial1.png,,,"(-0.7, -0.5)",cs_neg_s,"(-0.7, 0.5)",cs_pos_s,"(0.7, -0.5)",cs_pos_ns,"(0.7, 0.5)",cs_neg_ns,0,0,0,0,,,,,,,,,,,,,,,,,,,,,,,,,,,,,0,1,1,2,2,0,2,0,,,,,,,,,,,,,,,390,reward,,,,,,1272.3301898000063,1272.3301898000063,1272.3301898000063,1272.3301898000063,0,,,0,,,1,0.028399700007867068,0.028403299977071583,0,,,1272.3301898000063,1272.3301898000063,1272.3301898000063,1272.3301898000063,31,D,2024-05-14_13h17.02.820,attentional_competition_task,2022.2.4,143.98682241340887,
positions.xlsx,positions_test.xlsx,positions_test_new.xlsx,stimuli.xlsx,stimuli_new.xlsx,stimuli/Social4.png,stimuli/Social3.png,stimuli/Nonsocial4.png,stimuli/Nonsocial3.png,stimuli/Social2.png,stimuli/Social1.png,stimuli/Nonsocial2.png,stimuli/Nonsocial1.png,,,"(-0.7, -0.5)",cs_neg_s,"(-0.7, 0.5)",cs_pos_s,"(0.7, -0.5)",cs_pos_ns,"(0.7, 0.5)",cs_neg_ns,0,0,0,0,,,,,,,,,,,,,,,,,,,,,,,,,,,,,0,1,1,2,3,0,3,0,,,,,,,,,,,,,,,393,reward,,,,,,1272.8232182000065,1272.8232182000065,1272.8232182000065,1272.8232182000065,0,,,0,,,0,,,0,,,1273.3648979000282,1273.3648979000282,1273.3648979000282,1273.3648979000282,31,D,2024-05-14_13h17.02.820,attentional_competition_task,2022.2.4,143.98682241340887,
positions.xlsx,positions_test.xlsx,positions_test_new.xlsx,stimuli.xlsx,stimuli_new.xlsx,stimuli/Social4.png,stimuli/Social3.png,stimuli/Nonsocial4.png,stimuli/Nonsocial3.png,stimuli/Social2.png,stimuli/Social1.png,stimuli/Nonsocial2.png,stimuli/Nonsocial1.png,,,"(-0.7, -0.5)",cs_neg_s,"(-0.7, 0.5)",cs_pos_s,"(0.7, -0.5)",cs_pos_ns,"(0.7, 0.5)",cs_neg_ns,0,0,0,0,,,,,,,,,,,,,,,,,,,,,,,,,,,,,0,1,1,2,,,,,,,,,,,,,,,,,,,,,,,,,,,,,,,,,,,,,,,,,,,,,,31,D,2024-05-14_13h17.02.820,attentional_competition_task,2022.2.4,143.98682241340887,
positions.xlsx,positions_test.xlsx,positions_test_new.xlsx,stimuli.xlsx,stimuli_new.xlsx,stimuli/Social4.png,stimuli/Social3.png,stimuli/Nonsocial4.png,stimuli/Nonsocial3.png,stimuli/Social2.png,stimuli/Social1.png,stimuli/Nonsocial2.png,stimuli/Nonsocial1.png,,,"(-0.7, -0.5)",cs_neg_s_new,"(-0.7, 0.5)",cs_pos_s,"(0.7, -0.5)",cs_pos_ns,"(0.7, 0.5)",cs_neg_ns,0,0,0,0,,,,,,,,,,,,,,,,,,,,,,,,,,,,,0,2,2,15,0,0,0,0,,,,,,,,,,,,,,,396,reward,,,,,,1279.3577017000061,1279.3577017000061,1279.3577017000061,1279.3577017000061,0,,,1,0.40503210003953427,0.4050359000102617,0,,,0,,,1279.767413499998,1279.767413499998,1279.767413499998,1279.767413499998,31,D,2024-05-14_13h17.02.820,attentional_competition_task,2022.2.4,143.98682241340887,
positions.xlsx,positions_test.xlsx,positions_test_new.xlsx,stimuli.xlsx,stimuli_new.xlsx,stimuli/Social4.png,stimuli/Social3.png,stimuli/Nonsocial4.png,stimuli/Nonsocial3.png,stimuli/Social2.png,stimuli/Social1.png,stimuli/Nonsocial2.png,stimuli/Nonsocial1.png,,,"(-0.7, -0.5)",cs_neg_s_new,"(-0.7, 0.5)",cs_pos_s,"(0.7, -0.5)",cs_pos_ns,"(0.7, 0.5)",cs_neg_ns,0,0,0,0,,,,,,,,,,,,,,,,,,,,,,,,,,,,,0,2,2,15,1,0,1,0,,,,,,,,,,,,,,,393,loss,,,,,,1280.3021039000014,1280.3021039000014,1280.3021039000014,1280.3021039000014,0,,,0,,,0,,,1,0.029370300006121397,0.029374100035056472,1280.3021039000014,1280.3021039000014,1280.3021039000014,1280.3021039000014,31,D,2024-05-14_13h17.02.820,attentional_competition_task,2022.2.4,143.98682241340887,
positions.xlsx,positions_test.xlsx,positions_test_new.xlsx,stimuli.xlsx,stimuli_new.xlsx,stimuli/Social4.png,stimuli/Social3.png,stimuli/Nonsocial4.png,stimuli/Nonsocial3.png,stimuli/Social2.png,stimuli/Social1.png,stimuli/Nonsocial2.png,stimuli/Nonsocial1.png,,,"(-0.7, -0.5)",cs_neg_s_new,"(-0.7, 0.5)",cs_pos_s,"(0.7, -0.5)",cs_pos_ns,"(0.7, 0.5)",cs_neg_ns,0,0,0,0,,,,,,,,,,,,,,,,,,,,,,,,,,,,,0,2,2,15,2,0,2,0,,,,,,,,,,,,,,,390,loss,,,,,,1280.8020641999901,1280.8020641999901,1280.8020641999901,1280.8020641999901,1,0.1840867000282742,0.18409040005644783,0,,,0,,,0,,,1280.9895777000347,1280.9895777000347,1280.9895777000347,1280.9895777000347,31,D,2024-05-14_13h17.02.820,attentional_competition_task,2022.2.4,143.98682241340887,
positions.xlsx,positions_test.xlsx,positions_test_new.xlsx,stimuli.xlsx,stimuli_new.xlsx,stimuli/Social4.png,stimuli/Social3.png,stimuli/Nonsocial4.png,stimuli/Nonsocial3.png,stimuli/Social2.png,stimuli/Social1.png,stimuli/Nonsocial2.png,stimuli/Nonsocial1.png,,,"(-0.7, -0.5)",cs_neg_s_new,"(-0.7, 0.5)",cs_pos_s,"(0.7, -0.5)",cs_pos_ns,"(0.7, 0.5)",cs_neg_ns,0,0,0,0,,,,,,,,,,,,,,,,,,,,,,,,,,,,,0,2,2,15,,,,,,,,,,,,,,,,,,,,,,,,,,,,,,,,,,,,,,,,,,,,,,31,D,2024-05-14_13h17.02.820,attentional_competition_task,2022.2.4,143.98682241340887,
positions.xlsx,positions_test.xlsx,positions_test_new.xlsx,stimuli.xlsx,stimuli_new.xlsx,stimuli/Social4.png,stimuli/Social3.png,stimuli/Nonsocial4.png,stimuli/Nonsocial3.png,stimuli/Social2.png,stimuli/Social1.png,stimuli/Nonsocial2.png,stimuli/Nonsocial1.png,,,"(-0.7, -0.5)",cs_neg_ns,"(-0.7, 0.5)",cs_neg_s,"(0.7, -0.5)",cs_pos_s,"(0.7, 0.5)",cs_pos_ns_new,0,0,0,0,,,,,,,,,,,,,,,,,,,,,,,,,,,,,0,3,3,45,0,0,0,0,,,,,,,,,,,,,,,393,reward,,,,,,1288.475382899982,1288.475382899982,1288.475382899982,1288.475382899982,0,,,0,,,1,0.5161951999762096,0.5161992000066675,0,,,1288.996239,1288.996239,1288.996239,1288.996239,31,D,2024-05-14_13h17.02.820,attentional_competition_task,2022.2.4,143.98682241340887,
positions.xlsx,positions_test.xlsx,positions_test_new.xlsx,stimuli.xlsx,stimuli_new.xlsx,stimuli/Social4.png,stimuli/Social3.png,stimuli/Nonsocial4.png,stimuli/Nonsocial3.png,stimuli/Social2.png,stimuli/Social1.png,stimuli/Nonsocial2.png,stimuli/Nonsocial1.png,,,"(-0.7, -0.5)",cs_neg_ns,"(-0.7, 0.5)",cs_neg_s,"(0.7, -0.5)",cs_pos_s,"(0.7, 0.5)",cs_pos_ns_new,0,0,0,0,,,,,,,,,,,,,,,,,,,,,,,,,,,,,0,3,3,45,1,0,1,0,,,,,,,,,,,,,,,390,loss,,,,,,1289.5309759000083,1289.5309759000083,1289.5309759000083,1289.5309759000083,1,0.028992599982302636,0.02899640001123771,0,,,0,,,0,,,1289.5309759000083,1289.5309759000083,1289.5309759000083,1289.5309759000083,31,D,2024-05-14_13h17.02.820,attentional_competition_task,2022.2.4,143.98682241340887,
positions.xlsx,positions_test.xlsx,positions_test_new.xlsx,stimuli.xlsx,stimuli_new.xlsx,stimuli/Social4.png,stimuli/Social3.png,stimuli/Nonsocial4.png,stimuli/Nonsocial3.png,stimuli/Social2.png,stimuli/Social1.png,stimuli/Nonsocial2.png,stimuli/Nonsocial1.png,,,"(-0.7, -0.5)",cs_neg_ns,"(-0.7, 0.5)",cs_neg_s,"(0.7, -0.5)",cs_pos_s,"(0.7, 0.5)",cs_pos_ns_new,0,0,0,0,,,,,,,,,,,,,,,,,,,,,,,,,,,,,0,3,3,45,2,0,2,0,,,,,,,,,,,,,,,393,reward,,,,,,1290.0656331999926,1290.0656331999926,1290.0656331999926,1290.0656331999926,0,,,0,,,0,,,1,0.03098330000648275,0.030986800033133477,1290.0656331999926,1290.0656331999926,1290.0656331999926,1290.0656331999926,31,D,2024-05-14_13h17.02.820,attentional_competition_task,2022.2.4,143.98682241340887,
positions.xlsx,positions_test.xlsx,positions_test_new.xlsx,stimuli.xlsx,stimuli_new.xlsx,stimuli/Social4.png,stimuli/Social3.png,stimuli/Nonsocial4.png,stimuli/Nonsocial3.png,stimuli/Social2.png,stimuli/Social1.png,stimuli/Nonsocial2.png,stimuli/Nonsocial1.png,,,"(-0.7, -0.5)",cs_neg_ns,"(-0.7, 0.5)",cs_neg_s,"(0.7, -0.5)",cs_pos_s,"(0.7, 0.5)",cs_pos_ns_new,0,0,0,0,,,,,,,,,,,,,,,,,,,,,,,,,,,,,0,3,3,45,,,,,,,,,,,,,,,,,,,,,,,,,,,,,,,,,,,,,,,,,,,,,,31,D,2024-05-14_13h17.02.820,attentional_competition_task,2022.2.4,143.98682241340887,
positions.xlsx,positions_test.xlsx,positions_test_new.xlsx,stimuli.xlsx,stimuli_new.xlsx,stimuli/Social4.png,stimuli/Social3.png,stimuli/Nonsocial4.png,stimuli/Nonsocial3.png,stimuli/Social2.png,stimuli/Social1.png,stimuli/Nonsocial2.png,stimuli/Nonsocial1.png,,,"(-0.7, -0.5)",cs_neg_ns,"(-0.7, 0.5)",cs_pos_s,"(0.7, -0.5)",cs_neg_s_new,"(0.7, 0.5)",cs_pos_ns,0,0,0,0,,,,,,,,,,,,,,,,,,,,,,,,,,,,,0,4,4,17,0,0,0,0,,,,,,,,,,,,,,,396,reward,,,,,,1296.3014908999903,1296.3014908999903,1296.3014908999903,1296.3014908999903,0,,,1,0.5231687999912538,0.5298736999975517,0,,,0,,,1296.8361702000257,1296.8361702000257,1296.8361702000257,1296.8361702000257,31,D,2024-05-14_13h17.02.820,attentional_competition_task,2022.2.4,143.98682241340887,
positions.xlsx,positions_test.xlsx,positions_test_new.xlsx,stimuli.xlsx,stimuli_new.xlsx,stimuli/Social4.png,stimuli/Social3.png,stimuli/Nonsocial4.png,stimuli/Nonsocial3.png,stimuli/Social2.png,stimuli/Social1.png,stimuli/Nonsocial2.png,stimuli/Nonsocial1.png,,,"(-0.7, -0.5)",cs_neg_ns,"(-0.7, 0.5)",cs_pos_s,"(0.7, -0.5)",cs_neg_s_new,"(0.7, 0.5)",cs_pos_ns,0,0,0,0,,,,,,,,,,,,,,,,,,,,,,,,,,,,,0,4,4,17,1,0,1,0,,,,,,,,,,,,,,,399,reward,,,,,,1297.3570201999974,1297.3570201999974,1297.3570201999974,1297.3570201999974,0,,,0,,,0,,,1,0.022790699964389205,0.02279449999332428,1297.3570201999974,1297.3570201999974,1297.3570201999974,1297.3570201999974,31,D,2024-05-14_13h17.02.820,attentional_competition_task,2022.2.4,143.98682241340887,
positions.xlsx,positions_test.xlsx,positions_test_new.xlsx,stimuli.xlsx,stimuli_new.xlsx,stimuli/Social4.png,stimuli/Social3.png,stimuli/Nonsocial4.png,stimuli/Nonsocial3.png,stimuli/Social2.png,stimuli/Social1.png,stimuli/Nonsocial2.png,stimuli/Nonsocial1.png,,,"(-0.7, -0.5)",cs_neg_ns,"(-0.7, 0.5)",cs_pos_s,"(0.7, -0.5)",cs_neg_s_new,"(0.7, 0.5)",cs_pos_ns,0,0,0,0,,,,,,,,,,,,,,,,,,,,,,,,,,,,,0,4,4,17,2,0,2,0,,,,,,,,,,,,,,,402,reward,,,,,,1297.8639410000178,1297.8639410000178,1297.8639410000178,1297.8639410000178,0,,,0,,,0,,,1,0.02600530005292967,0.33828180003911257,1298.81529519998,1298.81529519998,1298.81529519998,1298.81529519998,31,D,2024-05-14_13h17.02.820,attentional_competition_task,2022.2.4,143.98682241340887,
positions.xlsx,positions_test.xlsx,positions_test_new.xlsx,stimuli.xlsx,stimuli_new.xlsx,stimuli/Social4.png,stimuli/Social3.png,stimuli/Nonsocial4.png,stimuli/Nonsocial3.png,stimuli/Social2.png,stimuli/Social1.png,stimuli/Nonsocial2.png,stimuli/Nonsocial1.png,,,"(-0.7, -0.5)",cs_neg_ns,"(-0.7, 0.5)",cs_pos_s,"(0.7, -0.5)",cs_neg_s_new,"(0.7, 0.5)",cs_pos_ns,0,0,0,0,,,,,,,,,,,,,,,,,,,,,,,,,,,,,0,4,4,17,,,,,,,,,,,,,,,,,,,,,,,,,,,,,,,,,,,,,,,,,,,,,,31,D,2024-05-14_13h17.02.820,attentional_competition_task,2022.2.4,143.98682241340887,
positions.xlsx,positions_test.xlsx,positions_test_new.xlsx,stimuli.xlsx,stimuli_new.xlsx,stimuli/Social4.png,stimuli/Social3.png,stimuli/Nonsocial4.png,stimuli/Nonsocial3.png,stimuli/Social2.png,stimuli/Social1.png,stimuli/Nonsocial2.png,stimuli/Nonsocial1.png,,,"(-0.7, -0.5)",cs_pos_s,"(-0.7, 0.5)",cs_pos_ns,"(0.7, -0.5)",cs_neg_ns,"(0.7, 0.5)",cs_neg_s_new,0,0,0,0,,,,,,,,,,,,,,,,,,,,,,,,,,,,,0,5,5,12,0,0,0,0,,,,,,,,,,,,,,,405,reward,,,,,,1305.460869100003,1305.460869100003,1305.460869100003,1305.460869100003,1,0.7175342999980785,0.7241914999904111,0,,,0,,,0,,,1306.1900046000374,1306.1900046000374,1306.1900046000374,1306.1900046000374,31,D,2024-05-14_13h17.02.820,attentional_competition_task,2022.2.4,143.98682241340887,
positions.xlsx,positions_test.xlsx,positions_test_new.xlsx,stimuli.xlsx,stimuli_new.xlsx,stimuli/Social4.png,stimuli/Social3.png,stimuli/Nonsocial4.png,stimuli/Nonsocial3.png,stimuli/Social2.png,stimuli/Social1.png,stimuli/Nonsocial2.png,stimuli/Nonsocial1.png,,,"(-0.7, -0.5)",cs_pos_s,"(-0.7, 0.5)",cs_pos_ns,"(0.7, -0.5)",cs_neg_ns,"(0.7, 0.5)",cs_neg_s_new,0,0,0,0,,,,,,,,,,,,,,,,,,,,,,,,,,,,,0,5,5,12,1,0,1,0,,,,,,,,,,,,,,,402,loss,,,,,,1306.6899893000373,1306.6899893000373,1306.6899893000373,1306.6899893000373,0,,,0,,,1,0.05761840002378449,0.057621799991466105,0,,,1306.7455594000057,1306.7455594000057,1306.7455594000057,1306.7455594000057,31,D,2024-05-14_13h17.02.820,attentional_competition_task,2022.2.4,143.98682241340887,
positions.xlsx,positions_test.xlsx,positions_test_new.xlsx,stimuli.xlsx,stimuli_new.xlsx,stimuli/Social4.png,stimuli/Social3.png,stimuli/Nonsocial4.png,stimuli/Nonsocial3.png,stimuli/Social2.png,stimuli/Social1.png,stimuli/Nonsocial2.png,stimuli/Nonsocial1.png,,,"(-0.7, -0.5)",cs_pos_s,"(-0.7, 0.5)",cs_pos_ns,"(0.7, -0.5)",cs_neg_ns,"(0.7, 0.5)",cs_neg_s_new,0,0,0,0,,,,,,,,,,,,,,,,,,,,,,,,,,,,,0,5,5,12,2,0,2,0,,,,,,,,,,,,,,,405,reward,,,,,,1307.2732500000275,1307.2732500000275,1307.2732500000275,1307.2732500000275,0,,,1,0.021784999989904463,0.021788799960631877,0,,,0,,,1307.2732500000275,1307.2732500000275,1307.2732500000275,1307.2732500000275,31,D,2024-05-14_13h17.02.820,attentional_competition_task,2022.2.4,143.98682241340887,
positions.xlsx,positions_test.xlsx,positions_test_new.xlsx,stimuli.xlsx,stimuli_new.xlsx,stimuli/Social4.png,stimuli/Social3.png,stimuli/Nonsocial4.png,stimuli/Nonsocial3.png,stimuli/Social2.png,stimuli/Social1.png,stimuli/Nonsocial2.png,stimuli/Nonsocial1.png,,,"(-0.7, -0.5)",cs_pos_s,"(-0.7, 0.5)",cs_pos_ns,"(0.7, -0.5)",cs_neg_ns,"(0.7, 0.5)",cs_neg_s_new,0,0,0,0,,,,,,,,,,,,,,,,,,,,,,,,,,,,,0,5,5,12,,,,,,,,,,,,,,,,,,,,,,,,,,,,,,,,,,,,,,,,,,,,,,31,D,2024-05-14_13h17.02.820,attentional_competition_task,2022.2.4,143.98682241340887,
positions.xlsx,positions_test.xlsx,positions_test_new.xlsx,stimuli.xlsx,stimuli_new.xlsx,stimuli/Social4.png,stimuli/Social3.png,stimuli/Nonsocial4.png,stimuli/Nonsocial3.png,stimuli/Social2.png,stimuli/Social1.png,stimuli/Nonsocial2.png,stimuli/Nonsocial1.png,,,"(-0.7, -0.5)",cs_neg_ns,"(-0.7, 0.5)",cs_pos_s,"(0.7, -0.5)",cs_pos_ns_new,"(0.7, 0.5)",cs_neg_s,0,0,0,0,,,,,,,,,,,,,,,,,,,,,,,,,,,,,0,6,6,42,0,0,0,0,,,,,,,,,,,,,,,408,reward,,,,,,1313.0855792000075,1313.0855792000075,1313.0855792000075,1313.0855792000075,0,,,1,0.5156180000049062,0.5156216000323184,0,,,0,,,1313.606376599986,1313.606376599986,1313.606376599986,1313.606376599986,31,D,2024-05-14_13h17.02.820,attentional_competition_task,2022.2.4,143.98682241340887,
positions.xlsx,positions_test.xlsx,positions_test_new.xlsx,stimuli.xlsx,stimuli_new.xlsx,stimuli/Social4.png,stimuli/Social3.png,stimuli/Nonsocial4.png,stimuli/Nonsocial3.png,stimuli/Social2.png,stimuli/Social1.png,stimuli/Nonsocial2.png,stimuli/Nonsocial1.png,,,"(-0.7, -0.5)",cs_neg_ns,"(-0.7, 0.5)",cs_pos_s,"(0.7, -0.5)",cs_pos_ns_new,"(0.7, 0.5)",cs_neg_s,0,0,0,0,,,,,,,,,,,,,,,,,,,,,,,,,,,,,0,6,6,42,1,0,1,0,,,,,,,,,,,,,,,405,loss,,,,,,1314.1480518000317,1314.1480518000317,1314.1480518000317,1314.1480518000317,1,0.02576360001694411,0.025767499988432974,0,,,0,,,0,,,1314.1480518000317,1314.1480518000317,1314.1480518000317,1314.1480518000317,31,D,2024-05-14_13h17.02.820,attentional_competition_task,2022.2.4,143.98682241340887,
positions.xlsx,positions_test.xlsx,positions_test_new.xlsx,stimuli.xlsx,stimuli_new.xlsx,stimuli/Social4.png,stimuli/Social3.png,stimuli/Nonsocial4.png,stimuli/Nonsocial3.png,stimuli/Social2.png,stimuli/Social1.png,stimuli/Nonsocial2.png,stimuli/Nonsocial1.png,,,"(-0.7, -0.5)",cs_neg_ns,"(-0.7, 0.5)",cs_pos_s,"(0.7, -0.5)",cs_pos_ns_new,"(0.7, 0.5)",cs_neg_s,0,0,0,0,,,,,,,,,,,,,,,,,,,,,,,,,,,,,0,6,6,42,2,0,2,0,,,,,,,,,,,,,,,408,reward,,,,,,1314.6688657000195,1314.6688657000195,1314.6688657000195,1314.6688657000195,0,,,0,,,1,0.028727500000968575,0.02873119997093454,0,,,1314.6688657000195,1314.6688657000195,1314.6688657000195,1314.6688657000195,31,D,2024-05-14_13h17.02.820,attentional_competition_task,2022.2.4,143.98682241340887,
positions.xlsx,positions_test.xlsx,positions_test_new.xlsx,stimuli.xlsx,stimuli_new.xlsx,stimuli/Social4.png,stimuli/Social3.png,stimuli/Nonsocial4.png,stimuli/Nonsocial3.png,stimuli/Social2.png,stimuli/Social1.png,stimuli/Nonsocial2.png,stimuli/Nonsocial1.png,,,"(-0.7, -0.5)",cs_neg_ns,"(-0.7, 0.5)",cs_pos_s,"(0.7, -0.5)",cs_pos_ns_new,"(0.7, 0.5)",cs_neg_s,0,0,0,0,,,,,,,,,,,,,,,,,,,,,,,,,,,,,0,6,6,42,,,,,,,,,,,,,,,,,,,,,,,,,,,,,,,,,,,,,,,,,,,,,,31,D,2024-05-14_13h17.02.820,attentional_competition_task,2022.2.4,143.98682241340887,
positions.xlsx,positions_test.xlsx,positions_test_new.xlsx,stimuli.xlsx,stimuli_new.xlsx,stimuli/Social4.png,stimuli/Social3.png,stimuli/Nonsocial4.png,stimuli/Nonsocial3.png,stimuli/Social2.png,stimuli/Social1.png,stimuli/Nonsocial2.png,stimuli/Nonsocial1.png,,,"(-0.7, -0.5)",cs_neg_s,"(-0.7, 0.5)",cs_neg_ns_new,"(0.7, -0.5)",cs_pos_s,"(0.7, 0.5)",cs_pos_ns,0,0,0,0,,,,,,,,,,,,,,,,,,,,,,,,,,,,,0,7,7,23,0,0,0,0,,,,,,,,,,,,,,,411,reward,,,,,,1321.4324919999926,1321.4324919999926,1321.4324919999926,1321.4324919999926,0,,,0,,,1,0.44043950003106147,0.44685970002319664,0,,,1321.876909099985,1321.876909099985,1321.876909099985,1321.876909099985,31,D,2024-05-14_13h17.02.820,attentional_competition_task,2022.2.4,143.98682241340887,
positions.xlsx,positions_test.xlsx,positions_test_new.xlsx,stimuli.xlsx,stimuli_new.xlsx,stimuli/Social4.png,stimuli/Social3.png,stimuli/Nonsocial4.png,stimuli/Nonsocial3.png,stimuli/Social2.png,stimuli/Social1.png,stimuli/Nonsocial2.png,stimuli/Nonsocial1.png,,,"(-0.7, -0.5)",cs_neg_s,"(-0.7, 0.5)",cs_neg_ns_new,"(0.7, -0.5)",cs_pos_s,"(0.7, 0.5)",cs_pos_ns,0,0,0,0,,,,,,,,,,,,,,,,,,,,,,,,,,,,,0,7,7,23,1,0,1,0,,,,,,,,,,,,,,,414,reward,,,,,,1322.4116116000223,1322.4116116000223,1322.4116116000223,1322.4116116000223,0,,,0,,,0,,,1,0.029582899995148182,0.029586799966637045,1322.4116116000223,1322.4116116000223,1322.4116116000223,1322.4116116000223,31,D,2024-05-14_13h17.02.820,attentional_competition_task,2022.2.4,143.98682241340887,
positions.xlsx,positions_test.xlsx,positions_test_new.xlsx,stimuli.xlsx,stimuli_new.xlsx,stimuli/Social4.png,stimuli/Social3.png,stimuli/Nonsocial4.png,stimuli/Nonsocial3.png,stimuli/Social2.png,stimuli/Social1.png,stimuli/Nonsocial2.png,stimuli/Nonsocial1.png,,,"(-0.7, -0.5)",cs_neg_s,"(-0.7, 0.5)",cs_neg_ns_new,"(0.7, -0.5)",cs_pos_s,"(0.7, 0.5)",cs_pos_ns,0,0,0,0,,,,,,,,,,,,,,,,,,,,,,,,,,,,,0,7,7,23,2,0,2,0,,,,,,,,,,,,,,,411,loss,,,,,,1322.9463380000088,1322.9463380000088,1322.9463380000088,1322.9463380000088,0,,,1,0.025650099967606366,0.02565379999577999,0,,,0,,,1322.9463380000088,1322.9463380000088,1322.9463380000088,1322.9463380000088,31,D,2024-05-14_13h17.02.820,attentional_competition_task,2022.2.4,143.98682241340887,
positions.xlsx,positions_test.xlsx,positions_test_new.xlsx,stimuli.xlsx,stimuli_new.xlsx,stimuli/Social4.png,stimuli/Social3.png,stimuli/Nonsocial4.png,stimuli/Nonsocial3.png,stimuli/Social2.png,stimuli/Social1.png,stimuli/Nonsocial2.png,stimuli/Nonsocial1.png,,,"(-0.7, -0.5)",cs_neg_s,"(-0.7, 0.5)",cs_neg_ns_new,"(0.7, -0.5)",cs_pos_s,"(0.7, 0.5)",cs_pos_ns,0,0,0,0,,,,,,,,,,,,,,,,,,,,,,,,,,,,,0,7,7,23,,,,,,,,,,,,,,,,,,,,,,,,,,,,,,,,,,,,,,,,,,,,,,31,D,2024-05-14_13h17.02.820,attentional_competition_task,2022.2.4,143.98682241340887,
