posFile,posFileTest,posFileTestNew,stimFile,stimFileNew,cs_neg_s,cs_pos_s,cs_neg_ns,cs_pos_ns,cs_neg_s_new,cs_pos_s_new,cs_neg_ns_new,cs_pos_ns_new,stim,position,position1,stim1,position2,stim2,position3,stim3,position4,stim4,blocks.thisRepN,blocks.thisTrialN,blocks.thisN,blocks.thisIndex,ratingtrials1.thisRepN,ratingtrials1.thisTrialN,ratingtrials1.thisN,ratingtrials1.thisIndex,search_task_trials.thisRepN,search_task_trials.thisTrialN,search_task_trials.thisN,search_task_trials.thisIndex,learning_trials.thisRepN,learning_trials.thisTrialN,learning_trials.thisN,learning_trials.thisIndex,trials.thisRepN,trials.thisTrialN,trials.thisN,trials.thisIndex,ratingtrials2.thisRepN,ratingtrials2.thisTrialN,ratingtrials2.thisN,ratingtrials2.thisIndex,testtrials.thisRepN,testtrials.thisTrialN,testtrials.thisN,testtrials.thisIndex,loop_test.thisRepN,loop_test.thisTrialN,loop_test.thisN,loop_test.thisIndex,testtrials_novelty.thisRepN,testtrials_novelty.thisTrialN,testtrials_novelty.thisN,testtrials_novelty.thisIndex,loop_test_novelty.thisRepN,loop_test_novelty.thisTrialN,loop_test_novelty.thisN,loop_test_novelty.thisIndex,ratingtrials3.thisRepN,ratingtrials3.thisTrialN,ratingtrials3.thisN,ratingtrials3.thisIndex,textStart.started,textStartExp.started,imageRating.started,sliderStim.response,sliderStim.rt,textStartSearch.started,target_positions,distractor_positions,textStartTask.started,image.started,score,outcome,roi.numLooks,roi.timesOn,roi.timesOff,imageFeedback.started,textTestInstr.started,test_image1.started,test_image2.started,test_image3.started,test_image4.started,test_roi1.numLooks,test_roi1.timesOn,test_roi1.timesOff,test_roi2.numLooks,test_roi2.timesOn,test_roi2.timesOff,test_roi3.numLooks,test_roi3.timesOn,test_roi3.timesOff,test_roi4.numLooks,test_roi4.timesOn,test_roi4.timesOff,test_image_feedback1.started,test_image_feedback2.started,test_iamge_feedback3.started,test_iamge_feedback4.started,participant,group,date,expName,psychopyVersion,frameRate,
positions.xlsx,positions_test.xlsx,positions_test_new.xlsx,stimuli.xlsx,stimuli_new.xlsx,stimuli/Social4.png,stimuli/Social3.png,stimuli/Nonsocial4.png,stimuli/Nonsocial3.png,stimuli/Social2.png,stimuli/Social1.png,stimuli/Nonsocial2.png,stimuli/Nonsocial1.png,cs_neg_s,,,,,,,,,,0,0,0,0,0,0,0,0,,,,,,,,,,,,,,,,,,,,,,,,,,,,,,,,,,,,,13.209103299999924,117.27022349999993,127.37413679999986,9.0,10.279805699999997,,,,,,,,,,,,,,,,,,,,,,,,,,,,,,,,,32,D,2024-05-15_08h16.35.875,attentional_competition_task,2022.2.4,143.55152207707917,
positions.xlsx,positions_test.xlsx,positions_test_new.xlsx,stimuli.xlsx,stimuli_new.xlsx,stimuli/Social4.png,stimuli/Social3.png,stimuli/Nonsocial4.png,stimuli/Nonsocial3.png,stimuli/Social2.png,stimuli/Social1.png,stimuli/Nonsocial2.png,stimuli/Nonsocial1.png,cs_neg_ns,,,,,,,,,,0,0,0,0,0,1,1,1,,,,,,,,,,,,,,,,,,,,,,,,,,,,,,,,,,,,,,,139.94308509999996,10.0,1.7521529999999075,,,,,,,,,,,,,,,,,,,,,,,,,,,,,,,,,32,D,2024-05-15_08h16.35.875,attentional_competition_task,2022.2.4,143.55152207707917,
positions.xlsx,positions_test.xlsx,positions_test_new.xlsx,stimuli.xlsx,stimuli_new.xlsx,stimuli/Social4.png,stimuli/Social3.png,stimuli/Nonsocial4.png,stimuli/Nonsocial3.png,stimuli/Social2.png,stimuli/Social1.png,stimuli/Nonsocial2.png,stimuli/Nonsocial1.png,cs_pos_s,,,,,,,,,,0,0,0,0,0,2,2,2,,,,,,,,,,,,,,,,,,,,,,,,,,,,,,,,,,,,,,,142.9291361999999,8.0,3.1864407000000483,,,,,,,,,,,,,,,,,,,,,,,,,,,,,,,,,32,D,2024-05-15_08h16.35.875,attentional_competition_task,2022.2.4,143.55152207707917,
positions.xlsx,positions_test.xlsx,positions_test_new.xlsx,stimuli.xlsx,stimuli_new.xlsx,stimuli/Social4.png,stimuli/Social3.png,stimuli/Nonsocial4.png,stimuli/Nonsocial3.png,stimuli/Social2.png,stimuli/Social1.png,stimuli/Nonsocial2.png,stimuli/Nonsocial1.png,cs_pos_ns,,,,,,,,,,0,0,0,0,0,3,3,3,,,,,,,,,,,,,,,,,,,,,,,,,,,,,,,,,,,,,,,146.85248209999986,9.0,2.0733060999998543,,,,,,,,,,,,,,,,,,,,,,,,,,,,,,,,,32,D,2024-05-15_08h16.35.875,attentional_competition_task,2022.2.4,143.55152207707917,
positions.xlsx,positions_test.xlsx,positions_test_new.xlsx,stimuli.xlsx,stimuli_new.xlsx,stimuli/Social4.png,stimuli/Social3.png,stimuli/Nonsocial4.png,stimuli/Nonsocial3.png,stimuli/Social2.png,stimuli/Social1.png,stimuli/Nonsocial2.png,stimuli/Nonsocial1.png,,,,,,,,,,,0,0,0,0,,,,,0,0,0,0,,,,,,,,,,,,,,,,,,,,,,,,,,,,,,,,,,,,,,149.53297300000008,"[[0.22499999999999998, -0.8], [0.6749999999999999, -0.30000000000000004], [0.6749999999999999, -0.8], [0.45000000000000007, -0.8], [0.45000000000000007, 0.19999999999999996], [-0.9, -0.30000000000000004], [-0.22499999999999998, 0.7], [-0.675, -0.30000000000000004], [0.6749999999999999, 0.7], [0.0, -0.8], [-0.675, 0.7], [-0.45, 0.7], [0.22499999999999998, 0.19999999999999996], [0.9, -0.30000000000000004], [-0.9, -0.8]]","[[0.9, 0.19999999999999996], [-0.22499999999999998, -0.30000000000000004], [0.22499999999999998, 0.7], [-0.22499999999999998, 0.19999999999999996], [-0.9, 0.19999999999999996], [0.45000000000000007, 0.7], [0.22499999999999998, -0.30000000000000004], [-0.45, -0.30000000000000004], [-0.22499999999999998, -0.8], [-0.45, 0.19999999999999996], [-0.9, 0.7], [0.9, 0.7], [0.6749999999999999, 0.19999999999999996], [0.45000000000000007, -0.30000000000000004], [-0.675, 0.19999999999999996]]",,,,,,,,,,,,,,,,,,,,,,,,,,,,,,32,D,2024-05-15_08h16.35.875,attentional_competition_task,2022.2.4,143.55152207707917,
positions.xlsx,positions_test.xlsx,positions_test_new.xlsx,stimuli.xlsx,stimuli_new.xlsx,stimuli/Social4.png,stimuli/Social3.png,stimuli/Nonsocial4.png,stimuli/Nonsocial3.png,stimuli/Social2.png,stimuli/Social1.png,stimuli/Nonsocial2.png,stimuli/Nonsocial1.png,,,,,,,,,,,0,0,0,0,,,,,1,0,1,0,,,,,,,,,,,,,,,,,,,,,,,,,,,,,,,,,,,,,,,"[[0.9, 0.19999999999999996], [0.9, -0.8], [0.45000000000000007, -0.8], [-0.45, 0.19999999999999996], [0.22499999999999998, -0.30000000000000004], [-0.675, -0.30000000000000004], [0.0, -0.8], [0.22499999999999998, 0.19999999999999996], [-0.675, 0.7], [-0.45, -0.8], [0.22499999999999998, 0.7], [-0.675, 0.19999999999999996], [0.6749999999999999, 0.7], [0.6749999999999999, -0.30000000000000004], [-0.9, -0.8]]","[[-0.9, 0.19999999999999996], [-0.45, -0.30000000000000004], [0.6749999999999999, -0.8], [0.45000000000000007, -0.30000000000000004], [-0.22499999999999998, 0.19999999999999996], [0.0, 0.19999999999999996], [0.22499999999999998, -0.8], [-0.675, -0.8], [0.9, -0.30000000000000004], [0.45000000000000007, 0.19999999999999996], [0.45000000000000007, 0.7], [0.0, -0.30000000000000004], [-0.22499999999999998, 0.7], [0.0, 0.7], [0.9, 0.7]]",,,,,,,,,,,,,,,,,,,,,,,,,,,,,,32,D,2024-05-15_08h16.35.875,attentional_competition_task,2022.2.4,143.55152207707917,
positions.xlsx,positions_test.xlsx,positions_test_new.xlsx,stimuli.xlsx,stimuli_new.xlsx,stimuli/Social4.png,stimuli/Social3.png,stimuli/Nonsocial4.png,stimuli/Nonsocial3.png,stimuli/Social2.png,stimuli/Social1.png,stimuli/Nonsocial2.png,stimuli/Nonsocial1.png,cs_neg_s,"(0.7, 0.5)",,,,,,,,,0,0,0,0,,,,,,,,,0,0,0,2,,,,,,,,,,,,,,,,,,,,,,,,,,,,,,,,,,,,,229.70327229999998,249.80658019999987,-3,loss,1,0.451553899999908,0.4515579000001253,250.27188610000007,,,,,,,,,,,,,,,,,,,,,,32,D,2024-05-15_08h16.35.875,attentional_competition_task,2022.2.4,143.55152207707917,
positions.xlsx,positions_test.xlsx,positions_test_new.xlsx,stimuli.xlsx,stimuli_new.xlsx,stimuli/Social4.png,stimuli/Social3.png,stimuli/Nonsocial4.png,stimuli/Nonsocial3.png,stimuli/Social2.png,stimuli/Social1.png,stimuli/Nonsocial2.png,stimuli/Nonsocial1.png,cs_pos_s,"(0.7, -0.5)",,,,,,,,,0,0,0,0,,,,,,,,,0,1,1,7,,,,,,,,,,,,,,,,,,,,,,,,,,,,,,,,,,,,,,257.6812941999999,0,reward,1,0.16665450000004967,0.16665820000002896,257.8618503,,,,,,,,,,,,,,,,,,,,,,32,D,2024-05-15_08h16.35.875,attentional_competition_task,2022.2.4,143.55152207707917,
positions.xlsx,positions_test.xlsx,positions_test_new.xlsx,stimuli.xlsx,stimuli_new.xlsx,stimuli/Social4.png,stimuli/Social3.png,stimuli/Nonsocial4.png,stimuli/Nonsocial3.png,stimuli/Social2.png,stimuli/Social1.png,stimuli/Nonsocial2.png,stimuli/Nonsocial1.png,cs_neg_ns,"(0.7, 0.5)",,,,,,,,,0,0,0,0,,,,,,,,,0,2,2,10,,,,,,,,,,,,,,,,,,,,,,,,,,,,,,,,,,,,,,265.5073743999999,-3,loss,1,0.42388720000008107,0.423890799999981,265.93787210000005,,,,,,,,,,,,,,,,,,,,,,32,D,2024-05-15_08h16.35.875,attentional_competition_task,2022.2.4,143.55152207707917,
positions.xlsx,positions_test.xlsx,positions_test_new.xlsx,stimuli.xlsx,stimuli_new.xlsx,stimuli/Social4.png,stimuli/Social3.png,stimuli/Nonsocial4.png,stimuli/Nonsocial3.png,stimuli/Social2.png,stimuli/Social1.png,stimuli/Nonsocial2.png,stimuli/Nonsocial1.png,cs_pos_ns,"(-0.7, -0.5)",,,,,,,,,0,0,0,0,,,,,,,,,0,3,3,13,,,,,,,,,,,,,,,,,,,,,,,,,,,,,,,,,,,,,,273.7224426,0,reward,1,0.19468240000014703,0.19468610000012632,273.92367519999993,,,,,,,,,,,,,,,,,,,,,,32,D,2024-05-15_08h16.35.875,attentional_competition_task,2022.2.4,143.55152207707917,
positions.xlsx,positions_test.xlsx,positions_test_new.xlsx,stimuli.xlsx,stimuli_new.xlsx,stimuli/Social4.png,stimuli/Social3.png,stimuli/Nonsocial4.png,stimuli/Nonsocial3.png,stimuli/Social2.png,stimuli/Social1.png,stimuli/Nonsocial2.png,stimuli/Nonsocial1.png,cs_pos_ns,"(-0.7, 0.5)",,,,,,,,,0,0,0,0,,,,,,,,,0,4,4,12,,,,,,,,,,,,,,,,,,,,,,,,,,,,,,,,,,,,,,282.14554150000004,3,reward,1,0.4930315999999948,0.4930351000000428,282.6455549,,,,,,,,,,,,,,,,,,,,,,32,D,2024-05-15_08h16.35.875,attentional_competition_task,2022.2.4,143.55152207707917,
positions.xlsx,positions_test.xlsx,positions_test_new.xlsx,stimuli.xlsx,stimuli_new.xlsx,stimuli/Social4.png,stimuli/Social3.png,stimuli/Nonsocial4.png,stimuli/Nonsocial3.png,stimuli/Social2.png,stimuli/Social1.png,stimuli/Nonsocial2.png,stimuli/Nonsocial1.png,cs_pos_ns,"(0.7, 0.5)",,,,,,,,,0,0,0,0,,,,,,,,,0,5,5,14,,,,,,,,,,,,,,,,,,,,,,,,,,,,,,,,,,,,,,290.1937897,6,reward,1,0.6253280999999333,0.6253319999998439,290.8257338000001,,,,,,,,,,,,,,,,,,,,,,32,D,2024-05-15_08h16.35.875,attentional_competition_task,2022.2.4,143.55152207707917,
positions.xlsx,positions_test.xlsx,positions_test_new.xlsx,stimuli.xlsx,stimuli_new.xlsx,stimuli/Social4.png,stimuli/Social3.png,stimuli/Nonsocial4.png,stimuli/Nonsocial3.png,stimuli/Social2.png,stimuli/Social1.png,stimuli/Nonsocial2.png,stimuli/Nonsocial1.png,cs_neg_ns,"(-0.7, -0.5)",,,,,,,,,0,0,0,0,,,,,,,,,0,6,6,9,,,,,,,,,,,,,,,,,,,,,,,,,,,,,,,,,,,,,,298.40877950000004,3,loss,1,0.403134399999999,0.4031382999999096,298.8184744,,,,,,,,,,,,,,,,,,,,,,32,D,2024-05-15_08h16.35.875,attentional_competition_task,2022.2.4,143.55152207707917,
positions.xlsx,positions_test.xlsx,positions_test_new.xlsx,stimuli.xlsx,stimuli_new.xlsx,stimuli/Social4.png,stimuli/Social3.png,stimuli/Nonsocial4.png,stimuli/Nonsocial3.png,stimuli/Social2.png,stimuli/Social1.png,stimuli/Nonsocial2.png,stimuli/Nonsocial1.png,cs_pos_s,"(-0.7, -0.5)",,,,,,,,,0,0,0,0,,,,,,,,,0,7,7,5,,,,,,,,,,,,,,,,,,,,,,,,,,,,,,,,,,,,,,306.4362260999999,6,reward,1,0.465728800000079,0.465732300000127,306.90846540000007,,,,,,,,,,,,,,,,,,,,,,32,D,2024-05-15_08h16.35.875,attentional_competition_task,2022.2.4,143.55152207707917,
positions.xlsx,positions_test.xlsx,positions_test_new.xlsx,stimuli.xlsx,stimuli_new.xlsx,stimuli/Social4.png,stimuli/Social3.png,stimuli/Nonsocial4.png,stimuli/Nonsocial3.png,stimuli/Social2.png,stimuli/Social1.png,stimuli/Nonsocial2.png,stimuli/Nonsocial1.png,cs_neg_ns,"(-0.7, 0.5)",,,,,,,,,0,0,0,0,,,,,,,,,0,8,8,8,,,,,,,,,,,,,,,,,,,,,,,,,,,,,,,,,,,,,,314.3803435,3,loss,1,0.5420506000000387,0.5420544999999493,314.92894739999997,,,,,,,,,,,,,,,,,,,,,,32,D,2024-05-15_08h16.35.875,attentional_competition_task,2022.2.4,143.55152207707917,
positions.xlsx,positions_test.xlsx,positions_test_new.xlsx,stimuli.xlsx,stimuli_new.xlsx,stimuli/Social4.png,stimuli/Social3.png,stimuli/Nonsocial4.png,stimuli/Nonsocial3.png,stimuli/Social2.png,stimuli/Social1.png,stimuli/Nonsocial2.png,stimuli/Nonsocial1.png,cs_pos_s,"(0.7, 0.5)",,,,,,,,,0,0,0,0,,,,,,,,,0,9,9,6,,,,,,,,,,,,,,,,,,,,,,,,,,,,,,,,,,,,,,322.4147324999999,6,reward,1,0.7223645000001397,0.7223679000001084,323.1438745999999,,,,,,,,,,,,,,,,,,,,,,32,D,2024-05-15_08h16.35.875,attentional_competition_task,2022.2.4,143.55152207707917,
positions.xlsx,positions_test.xlsx,positions_test_new.xlsx,stimuli.xlsx,stimuli_new.xlsx,stimuli/Social4.png,stimuli/Social3.png,stimuli/Nonsocial4.png,stimuli/Nonsocial3.png,stimuli/Social2.png,stimuli/Social1.png,stimuli/Nonsocial2.png,stimuli/Nonsocial1.png,cs_neg_s,"(0.7, -0.5)",,,,,,,,,0,0,0,0,,,,,,,,,0,10,10,3,,,,,,,,,,,,,,,,,,,,,,,,,,,,,,,,,,,,,,330.39358500000003,3,loss,1,2.4516607000000477,2.458225900000116,332.85877430000005,,,,,,,,,,,,,,,,,,,,,,32,D,2024-05-15_08h16.35.875,attentional_competition_task,2022.2.4,143.55152207707917,
positions.xlsx,positions_test.xlsx,positions_test_new.xlsx,stimuli.xlsx,stimuli_new.xlsx,stimuli/Social4.png,stimuli/Social3.png,stimuli/Nonsocial4.png,stimuli/Nonsocial3.png,stimuli/Social2.png,stimuli/Social1.png,stimuli/Nonsocial2.png,stimuli/Nonsocial1.png,cs_pos_ns,"(0.7, -0.5)",,,,,,,,,0,0,0,0,,,,,,,,,0,11,11,15,,,,,,,,,,,,,,,,,,,,,,,,,,,,,,,,,,,,,,340.3376346,6,reward,1,0.6666058000000703,0.6666095000000496,341.0111764999999,,,,,,,,,,,,,,,,,,,,,,32,D,2024-05-15_08h16.35.875,attentional_competition_task,2022.2.4,143.55152207707917,
positions.xlsx,positions_test.xlsx,positions_test_new.xlsx,stimuli.xlsx,stimuli_new.xlsx,stimuli/Social4.png,stimuli/Social3.png,stimuli/Nonsocial4.png,stimuli/Nonsocial3.png,stimuli/Social2.png,stimuli/Social1.png,stimuli/Nonsocial2.png,stimuli/Nonsocial1.png,cs_neg_ns,"(0.7, -0.5)",,,,,,,,,0,0,0,0,,,,,,,,,0,12,12,11,,,,,,,,,,,,,,,,,,,,,,,,,,,,,,,,,,,,,,348.87201529999993,3,loss,1,0.8822969999998804,0.8891060000000834,349.7677957000001,,,,,,,,,,,,,,,,,,,,,,32,D,2024-05-15_08h16.35.875,attentional_competition_task,2022.2.4,143.55152207707917,
positions.xlsx,positions_test.xlsx,positions_test_new.xlsx,stimuli.xlsx,stimuli_new.xlsx,stimuli/Social4.png,stimuli/Social3.png,stimuli/Nonsocial4.png,stimuli/Nonsocial3.png,stimuli/Social2.png,stimuli/Social1.png,stimuli/Nonsocial2.png,stimuli/Nonsocial1.png,cs_pos_s,"(-0.7, 0.5)",,,,,,,,,0,0,0,0,,,,,,,,,0,13,13,4,,,,,,,,,,,,,,,,,,,,,,,,,,,,,,,,,,,,,,357.1147019,6,reward,1,0.8961114999999609,0.8961154000000988,358.0174517999999,,,,,,,,,,,,,,,,,,,,,,32,D,2024-05-15_08h16.35.875,attentional_competition_task,2022.2.4,143.55152207707917,
positions.xlsx,positions_test.xlsx,positions_test_new.xlsx,stimuli.xlsx,stimuli_new.xlsx,stimuli/Social4.png,stimuli/Social3.png,stimuli/Nonsocial4.png,stimuli/Nonsocial3.png,stimuli/Social2.png,stimuli/Social1.png,stimuli/Nonsocial2.png,stimuli/Nonsocial1.png,cs_neg_s,"(-0.7, -0.5)",,,,,,,,,0,0,0,0,,,,,,,,,0,14,14,1,,,,,,,,,,,,,,,,,,,,,,,,,,,,,,,,,,,,,,365.6490879999999,6,none,0,,,368.66980850000004,,,,,,,,,,,,,,,,,,,,,,32,D,2024-05-15_08h16.35.875,attentional_competition_task,2022.2.4,143.55152207707917,
positions.xlsx,positions_test.xlsx,positions_test_new.xlsx,stimuli.xlsx,stimuli_new.xlsx,stimuli/Social4.png,stimuli/Social3.png,stimuli/Nonsocial4.png,stimuli/Nonsocial3.png,stimuli/Social2.png,stimuli/Social1.png,stimuli/Nonsocial2.png,stimuli/Nonsocial1.png,cs_neg_s,"(-0.7, 0.5)",,,,,,,,,0,0,0,0,,,,,,,,,0,15,15,0,,,,,,,,,,,,,,,,,,,,,,,,,,,,,,,,,,,,,,375.5514535,6,none,0,,,378.56525869999996,,,,,,,,,,,,,,,,,,,,,,32,D,2024-05-15_08h16.35.875,attentional_competition_task,2022.2.4,143.55152207707917,
positions.xlsx,positions_test.xlsx,positions_test_new.xlsx,stimuli.xlsx,stimuli_new.xlsx,stimuli/Social4.png,stimuli/Social3.png,stimuli/Nonsocial4.png,stimuli/Nonsocial3.png,stimuli/Social2.png,stimuli/Social1.png,stimuli/Nonsocial2.png,stimuli/Nonsocial1.png,cs_pos_ns,"(0.7, 0.5)",,,,,,,,,0,0,0,0,,,,,,,,,1,0,16,14,,,,,,,,,,,,,,,,,,,,,,,,,,,,,,,,,,,,,,385.87744580000003,9,reward,1,0.43772660000013275,0.444747100000086,386.33575659999997,,,,,,,,,,,,,,,,,,,,,,32,D,2024-05-15_08h16.35.875,attentional_competition_task,2022.2.4,143.55152207707917,
positions.xlsx,positions_test.xlsx,positions_test_new.xlsx,stimuli.xlsx,stimuli_new.xlsx,stimuli/Social4.png,stimuli/Social3.png,stimuli/Nonsocial4.png,stimuli/Nonsocial3.png,stimuli/Social2.png,stimuli/Social1.png,stimuli/Nonsocial2.png,stimuli/Nonsocial1.png,cs_pos_ns,"(-0.7, -0.5)",,,,,,,,,0,0,0,0,,,,,,,,,1,1,17,13,,,,,,,,,,,,,,,,,,,,,,,,,,,,,,,,,,,,,,393.9256791999999,12,reward,1,0.47916589999999815,0.4791697999999087,394.41180280000003,,,,,,,,,,,,,,,,,,,,,,32,D,2024-05-15_08h16.35.875,attentional_competition_task,2022.2.4,143.55152207707917,
positions.xlsx,positions_test.xlsx,positions_test_new.xlsx,stimuli.xlsx,stimuli_new.xlsx,stimuli/Social4.png,stimuli/Social3.png,stimuli/Nonsocial4.png,stimuli/Nonsocial3.png,stimuli/Social2.png,stimuli/Social1.png,stimuli/Nonsocial2.png,stimuli/Nonsocial1.png,cs_pos_s,"(-0.7, -0.5)",,,,,,,,,0,0,0,0,,,,,,,,,1,2,18,5,,,,,,,,,,,,,,,,,,,,,,,,,,,,,,,,,,,,,,402.77258069999993,15,reward,1,0.5625754999998662,0.5625794000000042,403.34198620000006,,,,,,,,,,,,,,,,,,,,,,32,D,2024-05-15_08h16.35.875,attentional_competition_task,2022.2.4,143.55152207707917,
positions.xlsx,positions_test.xlsx,positions_test_new.xlsx,stimuli.xlsx,stimuli_new.xlsx,stimuli/Social4.png,stimuli/Social3.png,stimuli/Nonsocial4.png,stimuli/Nonsocial3.png,stimuli/Social2.png,stimuli/Social1.png,stimuli/Nonsocial2.png,stimuli/Nonsocial1.png,cs_neg_s,"(-0.7, 0.5)",,,,,,,,,0,0,0,0,,,,,,,,,1,3,19,0,,,,,,,,,,,,,,,,,,,,,,,,,,,,,,,,,,,,,,411.2652711999999,15,none,0,,,414.2790118999999,,,,,,,,,,,,,,,,,,,,,,32,D,2024-05-15_08h16.35.875,attentional_competition_task,2022.2.4,143.55152207707917,
positions.xlsx,positions_test.xlsx,positions_test_new.xlsx,stimuli.xlsx,stimuli_new.xlsx,stimuli/Social4.png,stimuli/Social3.png,stimuli/Nonsocial4.png,stimuli/Nonsocial3.png,stimuli/Social2.png,stimuli/Social1.png,stimuli/Nonsocial2.png,stimuli/Nonsocial1.png,cs_neg_s,"(0.7, -0.5)",,,,,,,,,0,0,0,0,,,,,,,,,1,4,20,3,,,,,,,,,,,,,,,,,,,,,,,,,,,,,,,,,,,,,,421.4106898,15,none,0,,,424.4174805,,,,,,,,,,,,,,,,,,,,,,32,D,2024-05-15_08h16.35.875,attentional_competition_task,2022.2.4,143.55152207707917,
positions.xlsx,positions_test.xlsx,positions_test_new.xlsx,stimuli.xlsx,stimuli_new.xlsx,stimuli/Social4.png,stimuli/Social3.png,stimuli/Nonsocial4.png,stimuli/Nonsocial3.png,stimuli/Social2.png,stimuli/Social1.png,stimuli/Nonsocial2.png,stimuli/Nonsocial1.png,cs_neg_ns,"(-0.7, 0.5)",,,,,,,,,0,0,0,0,,,,,,,,,1,5,21,8,,,,,,,,,,,,,,,,,,,,,,,,,,,,,,,,,,,,,,431.8824829,15,none,0,,,434.8962584000001,,,,,,,,,,,,,,,,,,,,,,32,D,2024-05-15_08h16.35.875,attentional_competition_task,2022.2.4,143.55152207707917,
positions.xlsx,positions_test.xlsx,positions_test_new.xlsx,stimuli.xlsx,stimuli_new.xlsx,stimuli/Social4.png,stimuli/Social3.png,stimuli/Nonsocial4.png,stimuli/Nonsocial3.png,stimuli/Social2.png,stimuli/Social1.png,stimuli/Nonsocial2.png,stimuli/Nonsocial1.png,cs_pos_ns,"(0.7, -0.5)",,,,,,,,,0,0,0,0,,,,,,,,,1,6,22,15,,,,,,,,,,,,,,,,,,,,,,,,,,,,,,,,,,,,,,442.36122739999996,18,reward,1,0.4097383999999238,0.416541000000052,442.79179569999997,,,,,,,,,,,,,,,,,,,,,,32,D,2024-05-15_08h16.35.875,attentional_competition_task,2022.2.4,143.55152207707917,
positions.xlsx,positions_test.xlsx,positions_test_new.xlsx,stimuli.xlsx,stimuli_new.xlsx,stimuli/Social4.png,stimuli/Social3.png,stimuli/Nonsocial4.png,stimuli/Nonsocial3.png,stimuli/Social2.png,stimuli/Social1.png,stimuli/Nonsocial2.png,stimuli/Nonsocial1.png,cs_pos_s,"(0.7, 0.5)",,,,,,,,,0,0,0,0,,,,,,,,,1,7,23,6,,,,,,,,,,,,,,,,,,,,,,,,,,,,,,,,,,,,,,450.166436,21,reward,1,0.5975831999999173,0.6043961999998828,450.77754619999996,,,,,,,,,,,,,,,,,,,,,,32,D,2024-05-15_08h16.35.875,attentional_competition_task,2022.2.4,143.55152207707917,
positions.xlsx,positions_test.xlsx,positions_test_new.xlsx,stimuli.xlsx,stimuli_new.xlsx,stimuli/Social4.png,stimuli/Social3.png,stimuli/Nonsocial4.png,stimuli/Nonsocial3.png,stimuli/Social2.png,stimuli/Social1.png,stimuli/Nonsocial2.png,stimuli/Nonsocial1.png,cs_pos_ns,"(-0.7, 0.5)",,,,,,,,,0,0,0,0,,,,,,,,,1,8,24,12,,,,,,,,,,,,,,,,,,,,,,,,,,,,,,,,,,,,,,457.89530590000004,24,reward,1,0.7429721000000882,0.7429755999999088,458.6453326000001,,,,,,,,,,,,,,,,,,,,,,32,D,2024-05-15_08h16.35.875,attentional_competition_task,2022.2.4,143.55152207707917,
positions.xlsx,positions_test.xlsx,positions_test_new.xlsx,stimuli.xlsx,stimuli_new.xlsx,stimuli/Social4.png,stimuli/Social3.png,stimuli/Nonsocial4.png,stimuli/Nonsocial3.png,stimuli/Social2.png,stimuli/Social1.png,stimuli/Nonsocial2.png,stimuli/Nonsocial1.png,cs_neg_s,"(0.7, 0.5)",,,,,,,,,0,0,0,0,,,,,,,,,1,9,25,2,,,,,,,,,,,,,,,,,,,,,,,,,,,,,,,,,,,,,,466.6935441999999,24,none,0,,,469.7073473999999,,,,,,,,,,,,,,,,,,,,,,32,D,2024-05-15_08h16.35.875,attentional_competition_task,2022.2.4,143.55152207707917,
positions.xlsx,positions_test.xlsx,positions_test_new.xlsx,stimuli.xlsx,stimuli_new.xlsx,stimuli/Social4.png,stimuli/Social3.png,stimuli/Nonsocial4.png,stimuli/Nonsocial3.png,stimuli/Social2.png,stimuli/Social1.png,stimuli/Nonsocial2.png,stimuli/Nonsocial1.png,cs_neg_ns,"(0.7, -0.5)",,,,,,,,,0,0,0,0,,,,,,,,,1,10,26,11,,,,,,,,,,,,,,,,,,,,,,,,,,,,,,,,,,,,,,476.8389973000001,21,loss,1,1.8891151000000264,1.8891187000001537,478.7347236999999,,,,,,,,,,,,,,,,,,,,,,32,D,2024-05-15_08h16.35.875,attentional_competition_task,2022.2.4,143.55152207707917,
positions.xlsx,positions_test.xlsx,positions_test_new.xlsx,stimuli.xlsx,stimuli_new.xlsx,stimuli/Social4.png,stimuli/Social3.png,stimuli/Nonsocial4.png,stimuli/Nonsocial3.png,stimuli/Social2.png,stimuli/Social1.png,stimuli/Nonsocial2.png,stimuli/Nonsocial1.png,cs_neg_s,"(-0.7, -0.5)",,,,,,,,,0,0,0,0,,,,,,,,,1,11,27,1,,,,,,,,,,,,,,,,,,,,,,,,,,,,,,,,,,,,,,485.59566330000007,21,none,0,,,488.60247200000003,,,,,,,,,,,,,,,,,,,,,,32,D,2024-05-15_08h16.35.875,attentional_competition_task,2022.2.4,143.55152207707917,
positions.xlsx,positions_test.xlsx,positions_test_new.xlsx,stimuli.xlsx,stimuli_new.xlsx,stimuli/Social4.png,stimuli/Social3.png,stimuli/Nonsocial4.png,stimuli/Nonsocial3.png,stimuli/Social2.png,stimuli/Social1.png,stimuli/Nonsocial2.png,stimuli/Nonsocial1.png,cs_pos_s,"(-0.7, 0.5)",,,,,,,,,0,0,0,0,,,,,,,,,1,12,28,4,,,,,,,,,,,,,,,,,,,,,,,,,,,,,,,,,,,,,,496.4979140999999,24,reward,1,0.5835527000001548,0.5835561999999754,497.08818240000005,,,,,,,,,,,,,,,,,,,,,,32,D,2024-05-15_08h16.35.875,attentional_competition_task,2022.2.4,143.55152207707917,
positions.xlsx,positions_test.xlsx,positions_test_new.xlsx,stimuli.xlsx,stimuli_new.xlsx,stimuli/Social4.png,stimuli/Social3.png,stimuli/Nonsocial4.png,stimuli/Nonsocial3.png,stimuli/Social2.png,stimuli/Social1.png,stimuli/Nonsocial2.png,stimuli/Nonsocial1.png,cs_neg_ns,"(0.7, 0.5)",,,,,,,,,0,0,0,0,,,,,,,,,1,13,29,10,,,,,,,,,,,,,,,,,,,,,,,,,,,,,,,,,,,,,,505.06005400000004,24,none,0,,,508.0738678,,,,,,,,,,,,,,,,,,,,,,32,D,2024-05-15_08h16.35.875,attentional_competition_task,2022.2.4,143.55152207707917,
positions.xlsx,positions_test.xlsx,positions_test_new.xlsx,stimuli.xlsx,stimuli_new.xlsx,stimuli/Social4.png,stimuli/Social3.png,stimuli/Nonsocial4.png,stimuli/Nonsocial3.png,stimuli/Social2.png,stimuli/Social1.png,stimuli/Nonsocial2.png,stimuli/Nonsocial1.png,cs_pos_s,"(0.7, -0.5)",,,,,,,,,0,0,0,0,,,,,,,,,1,14,30,7,,,,,,,,,,,,,,,,,,,,,,,,,,,,,,,,,,,,,,516.1082466,27,reward,1,0.4863726000000952,0.4863763000000745,516.6012914,,,,,,,,,,,,,,,,,,,,,,32,D,2024-05-15_08h16.35.875,attentional_competition_task,2022.2.4,143.55152207707917,
positions.xlsx,positions_test.xlsx,positions_test_new.xlsx,stimuli.xlsx,stimuli_new.xlsx,stimuli/Social4.png,stimuli/Social3.png,stimuli/Nonsocial4.png,stimuli/Nonsocial3.png,stimuli/Social2.png,stimuli/Social1.png,stimuli/Nonsocial2.png,stimuli/Nonsocial1.png,cs_neg_ns,"(-0.7, -0.5)",,,,,,,,,0,0,0,0,,,,,,,,,1,15,31,9,,,,,,,,,,,,,,,,,,,,,,,,,,,,,,,,,,,,,,523.5315535,24,loss,1,0.4519401000000016,0.4587440999998762,523.9968168,,,,,,,,,,,,,,,,,,,,,,32,D,2024-05-15_08h16.35.875,attentional_competition_task,2022.2.4,143.55152207707917,
positions.xlsx,positions_test.xlsx,positions_test_new.xlsx,stimuli.xlsx,stimuli_new.xlsx,stimuli/Social4.png,stimuli/Social3.png,stimuli/Nonsocial4.png,stimuli/Nonsocial3.png,stimuli/Social2.png,stimuli/Social1.png,stimuli/Nonsocial2.png,stimuli/Nonsocial1.png,cs_pos_s,"(-0.7, 0.5)",,,,,,,,,0,0,0,0,,,,,,,,,,,,,0,0,0,4,,,,,,,,,,,,,,,,,,,,,,,,,,,,,,,,,,540.4405944,27,reward,1,0.45848389999991923,0.4584875999998985,540.9058579,,,,,,,,,,,,,,,,,,,,,,32,D,2024-05-15_08h16.35.875,attentional_competition_task,2022.2.4,143.55152207707917,
positions.xlsx,positions_test.xlsx,positions_test_new.xlsx,stimuli.xlsx,stimuli_new.xlsx,stimuli/Social4.png,stimuli/Social3.png,stimuli/Nonsocial4.png,stimuli/Nonsocial3.png,stimuli/Social2.png,stimuli/Social1.png,stimuli/Nonsocial2.png,stimuli/Nonsocial1.png,cs_pos_ns,"(0.7, 0.5)",,,,,,,,,0,0,0,0,,,,,,,,,,,,,0,1,1,14,,,,,,,,,,,,,,,,,,,,,,,,,,,,,,,,,,548.9957789,30,reward,1,0.6180057999999917,0.6180096000000503,549.620748,,,,,,,,,,,,,,,,,,,,,,32,D,2024-05-15_08h16.35.875,attentional_competition_task,2022.2.4,143.55152207707917,
positions.xlsx,positions_test.xlsx,positions_test_new.xlsx,stimuli.xlsx,stimuli_new.xlsx,stimuli/Social4.png,stimuli/Social3.png,stimuli/Nonsocial4.png,stimuli/Nonsocial3.png,stimuli/Social2.png,stimuli/Social1.png,stimuli/Nonsocial2.png,stimuli/Nonsocial1.png,cs_neg_s,"(-0.7, 0.5)",,,,,,,,,0,0,0,0,,,,,,,,,,,,,0,2,2,0,,,,,,,,,,,,,,,,,,,,,,,,,,,,,,,,,,557.7107223999999,30,none,0,,,560.7244747,,,,,,,,,,,,,,,,,,,,,,32,D,2024-05-15_08h16.35.875,attentional_competition_task,2022.2.4,143.55152207707917,
positions.xlsx,positions_test.xlsx,positions_test_new.xlsx,stimuli.xlsx,stimuli_new.xlsx,stimuli/Social4.png,stimuli/Social3.png,stimuli/Nonsocial4.png,stimuli/Nonsocial3.png,stimuli/Social2.png,stimuli/Social1.png,stimuli/Nonsocial2.png,stimuli/Nonsocial1.png,cs_pos_ns,"(0.7, -0.5)",,,,,,,,,0,0,0,0,,,,,,,,,,,,,0,3,3,15,,,,,,,,,,,,,,,,,,,,,,,,,,,,,,,,,,567.7033586,33,reward,1,0.4240976999999475,0.4241010999999162,568.1339123999999,,,,,,,,,,,,,,,,,,,,,,32,D,2024-05-15_08h16.35.875,attentional_competition_task,2022.2.4,143.55152207707917,
positions.xlsx,positions_test.xlsx,positions_test_new.xlsx,stimuli.xlsx,stimuli_new.xlsx,stimuli/Social4.png,stimuli/Social3.png,stimuli/Nonsocial4.png,stimuli/Nonsocial3.png,stimuli/Social2.png,stimuli/Social1.png,stimuli/Nonsocial2.png,stimuli/Nonsocial1.png,cs_neg_ns,"(0.7, 0.5)",,,,,,,,,0,0,0,0,,,,,,,,,,,,,0,4,4,10,,,,,,,,,,,,,,,,,,,,,,,,,,,,,,,,,,576.0919197999999,30,loss,1,1.0140309000000798,1.0140344999999797,577.1127191,,,,,,,,,,,,,,,,,,,,,,32,D,2024-05-15_08h16.35.875,attentional_competition_task,2022.2.4,143.55152207707917,
positions.xlsx,positions_test.xlsx,positions_test_new.xlsx,stimuli.xlsx,stimuli_new.xlsx,stimuli/Social4.png,stimuli/Social3.png,stimuli/Nonsocial4.png,stimuli/Nonsocial3.png,stimuli/Social2.png,stimuli/Social1.png,stimuli/Nonsocial2.png,stimuli/Nonsocial1.png,cs_pos_s,"(0.7, -0.5)",,,,,,,,,0,0,0,0,,,,,,,,,,,,,0,5,5,7,,,,,,,,,,,,,,,,,,,,,,,,,,,,,,,,,,584.82771,33,reward,1,0.5765215999999782,0.5765255000001162,585.4109689,,,,,,,,,,,,,,,,,,,,,,32,D,2024-05-15_08h16.35.875,attentional_competition_task,2022.2.4,143.55152207707917,
positions.xlsx,positions_test.xlsx,positions_test_new.xlsx,stimuli.xlsx,stimuli_new.xlsx,stimuli/Social4.png,stimuli/Social3.png,stimuli/Nonsocial4.png,stimuli/Nonsocial3.png,stimuli/Social2.png,stimuli/Social1.png,stimuli/Nonsocial2.png,stimuli/Nonsocial1.png,cs_neg_s,"(0.7, -0.5)",,,,,,,,,0,0,0,0,,,,,,,,,,,,,0,6,6,3,,,,,,,,,,,,,,,,,,,,,,,,,,,,,,,,,,593.3551095999999,33,none,0,,,596.368845,,,,,,,,,,,,,,,,,,,,,,32,D,2024-05-15_08h16.35.875,attentional_competition_task,2022.2.4,143.55152207707917,
positions.xlsx,positions_test.xlsx,positions_test_new.xlsx,stimuli.xlsx,stimuli_new.xlsx,stimuli/Social4.png,stimuli/Social3.png,stimuli/Nonsocial4.png,stimuli/Nonsocial3.png,stimuli/Social2.png,stimuli/Social1.png,stimuli/Nonsocial2.png,stimuli/Nonsocial1.png,cs_pos_ns,"(-0.7, 0.5)",,,,,,,,,0,0,0,0,,,,,,,,,,,,,0,7,7,12,,,,,,,,,,,,,,,,,,,,,,,,,,,,,,,,,,604.4866059000001,36,reward,1,0.5835835000000316,0.5835872000000109,605.076853,,,,,,,,,,,,,,,,,,,,,,32,D,2024-05-15_08h16.35.875,attentional_competition_task,2022.2.4,143.55152207707917,
positions.xlsx,positions_test.xlsx,positions_test_new.xlsx,stimuli.xlsx,stimuli_new.xlsx,stimuli/Social4.png,stimuli/Social3.png,stimuli/Nonsocial4.png,stimuli/Nonsocial3.png,stimuli/Social2.png,stimuli/Social1.png,stimuli/Nonsocial2.png,stimuli/Nonsocial1.png,cs_neg_ns,"(-0.7, 0.5)",,,,,,,,,0,0,0,0,,,,,,,,,,,,,0,8,8,8,,,,,,,,,,,,,,,,,,,,,,,,,,,,,,,,,,612.257122,36,none,0,,,615.2709215,,,,,,,,,,,,,,,,,,,,,,32,D,2024-05-15_08h16.35.875,attentional_competition_task,2022.2.4,143.55152207707917,
positions.xlsx,positions_test.xlsx,positions_test_new.xlsx,stimuli.xlsx,stimuli_new.xlsx,stimuli/Social4.png,stimuli/Social3.png,stimuli/Nonsocial4.png,stimuli/Nonsocial3.png,stimuli/Social2.png,stimuli/Social1.png,stimuli/Nonsocial2.png,stimuli/Nonsocial1.png,cs_pos_ns,"(-0.7, -0.5)",,,,,,,,,0,0,0,0,,,,,,,,,,,,,0,9,9,13,,,,,,,,,,,,,,,,,,,,,,,,,,,,,,,,,,622.2636388000001,39,reward,1,0.555600400000003,0.5556040999999823,622.8261908,,,,,,,,,,,,,,,,,,,,,,32,D,2024-05-15_08h16.35.875,attentional_competition_task,2022.2.4,143.55152207707917,
positions.xlsx,positions_test.xlsx,positions_test_new.xlsx,stimuli.xlsx,stimuli_new.xlsx,stimuli/Social4.png,stimuli/Social3.png,stimuli/Nonsocial4.png,stimuli/Nonsocial3.png,stimuli/Social2.png,stimuli/Social1.png,stimuli/Nonsocial2.png,stimuli/Nonsocial1.png,cs_pos_s,"(0.7, 0.5)",,,,,,,,,0,0,0,0,,,,,,,,,,,,,0,10,10,6,,,,,,,,,,,,,,,,,,,,,,,,,,,,,,,,,,629.8814150999999,42,reward,1,0.478952000000163,0.4789559000000736,630.3674933,,,,,,,,,,,,,,,,,,,,,,32,D,2024-05-15_08h16.35.875,attentional_competition_task,2022.2.4,143.55152207707917,
positions.xlsx,positions_test.xlsx,positions_test_new.xlsx,stimuli.xlsx,stimuli_new.xlsx,stimuli/Social4.png,stimuli/Social3.png,stimuli/Nonsocial4.png,stimuli/Nonsocial3.png,stimuli/Social2.png,stimuli/Social1.png,stimuli/Nonsocial2.png,stimuli/Nonsocial1.png,cs_pos_s,"(-0.7, -0.5)",,,,,,,,,0,0,0,0,,,,,,,,,,,,,0,11,11,5,,,,,,,,,,,,,,,,,,,,,,,,,,,,,,,,,,637.7144294,45,reward,1,0.4102559000000383,0.41025950000016564,638.1310450000001,,,,,,,,,,,,,,,,,,,,,,32,D,2024-05-15_08h16.35.875,attentional_competition_task,2022.2.4,143.55152207707917,
positions.xlsx,positions_test.xlsx,positions_test_new.xlsx,stimuli.xlsx,stimuli_new.xlsx,stimuli/Social4.png,stimuli/Social3.png,stimuli/Nonsocial4.png,stimuli/Nonsocial3.png,stimuli/Social2.png,stimuli/Social1.png,stimuli/Nonsocial2.png,stimuli/Nonsocial1.png,cs_neg_ns,"(0.7, -0.5)",,,,,,,,,0,0,0,0,,,,,,,,,,,,,0,12,12,11,,,,,,,,,,,,,,,,,,,,,,,,,,,,,,,,,,644.8391259,45,none,0,,,647.8528727999999,,,,,,,,,,,,,,,,,,,,,,32,D,2024-05-15_08h16.35.875,attentional_competition_task,2022.2.4,143.55152207707917,
positions.xlsx,positions_test.xlsx,positions_test_new.xlsx,stimuli.xlsx,stimuli_new.xlsx,stimuli/Social4.png,stimuli/Social3.png,stimuli/Nonsocial4.png,stimuli/Nonsocial3.png,stimuli/Social2.png,stimuli/Social1.png,stimuli/Nonsocial2.png,stimuli/Nonsocial1.png,cs_neg_s,"(-0.7, -0.5)",,,,,,,,,0,0,0,0,,,,,,,,,,,,,0,13,13,1,,,,,,,,,,,,,,,,,,,,,,,,,,,,,,,,,,656.0192314999999,45,none,0,,,659.0260542999999,,,,,,,,,,,,,,,,,,,,,,32,D,2024-05-15_08h16.35.875,attentional_competition_task,2022.2.4,143.55152207707917,
positions.xlsx,positions_test.xlsx,positions_test_new.xlsx,stimuli.xlsx,stimuli_new.xlsx,stimuli/Social4.png,stimuli/Social3.png,stimuli/Nonsocial4.png,stimuli/Nonsocial3.png,stimuli/Social2.png,stimuli/Social1.png,stimuli/Nonsocial2.png,stimuli/Nonsocial1.png,cs_neg_s,"(0.7, 0.5)",,,,,,,,,0,0,0,0,,,,,,,,,,,,,0,14,14,2,,,,,,,,,,,,,,,,,,,,,,,,,,,,,,,,,,666.0813111,45,none,0,,,669.0881741000001,,,,,,,,,,,,,,,,,,,,,,32,D,2024-05-15_08h16.35.875,attentional_competition_task,2022.2.4,143.55152207707917,
positions.xlsx,positions_test.xlsx,positions_test_new.xlsx,stimuli.xlsx,stimuli_new.xlsx,stimuli/Social4.png,stimuli/Social3.png,stimuli/Nonsocial4.png,stimuli/Nonsocial3.png,stimuli/Social2.png,stimuli/Social1.png,stimuli/Nonsocial2.png,stimuli/Nonsocial1.png,cs_neg_ns,"(-0.7, -0.5)",,,,,,,,,0,0,0,0,,,,,,,,,,,,,0,15,15,9,,,,,,,,,,,,,,,,,,,,,,,,,,,,,,,,,,676.7198071999999,42,loss,1,0.8131442999999763,0.8131481000000349,677.539194,,,,,,,,,,,,,,,,,,,,,,32,D,2024-05-15_08h16.35.875,attentional_competition_task,2022.2.4,143.55152207707917,
positions.xlsx,positions_test.xlsx,positions_test_new.xlsx,stimuli.xlsx,stimuli_new.xlsx,stimuli/Social4.png,stimuli/Social3.png,stimuli/Nonsocial4.png,stimuli/Nonsocial3.png,stimuli/Social2.png,stimuli/Social1.png,stimuli/Nonsocial2.png,stimuli/Nonsocial1.png,cs_neg_ns,"(0.7, -0.5)",,,,,,,,,0,0,0,0,,,,,,,,,,,,,1,0,16,11,,,,,,,,,,,,,,,,,,,,,,,,,,,,,,,,,,685.0319529999999,42,none,0,,,688.0457432999999,,,,,,,,,,,,,,,,,,,,,,32,D,2024-05-15_08h16.35.875,attentional_competition_task,2022.2.4,143.55152207707917,
positions.xlsx,positions_test.xlsx,positions_test_new.xlsx,stimuli.xlsx,stimuli_new.xlsx,stimuli/Social4.png,stimuli/Social3.png,stimuli/Nonsocial4.png,stimuli/Nonsocial3.png,stimuli/Social2.png,stimuli/Social1.png,stimuli/Nonsocial2.png,stimuli/Nonsocial1.png,cs_neg_s,"(-0.7, -0.5)",,,,,,,,,0,0,0,0,,,,,,,,,,,,,1,1,17,1,,,,,,,,,,,,,,,,,,,,,,,,,,,,,,,,,,696.0870517000001,42,none,0,,,699.0938996,,,,,,,,,,,,,,,,,,,,,,32,D,2024-05-15_08h16.35.875,attentional_competition_task,2022.2.4,143.55152207707917,
positions.xlsx,positions_test.xlsx,positions_test_new.xlsx,stimuli.xlsx,stimuli_new.xlsx,stimuli/Social4.png,stimuli/Social3.png,stimuli/Nonsocial4.png,stimuli/Nonsocial3.png,stimuli/Social2.png,stimuli/Social1.png,stimuli/Nonsocial2.png,stimuli/Nonsocial1.png,cs_neg_s,"(0.7, 0.5)",,,,,,,,,0,0,0,0,,,,,,,,,,,,,1,2,18,2,,,,,,,,,,,,,,,,,,,,,,,,,,,,,,,,,,706.0936506999999,42,none,0,,,709.1004338,,,,,,,,,,,,,,,,,,,,,,32,D,2024-05-15_08h16.35.875,attentional_competition_task,2022.2.4,143.55152207707917,
positions.xlsx,positions_test.xlsx,positions_test_new.xlsx,stimuli.xlsx,stimuli_new.xlsx,stimuli/Social4.png,stimuli/Social3.png,stimuli/Nonsocial4.png,stimuli/Nonsocial3.png,stimuli/Social2.png,stimuli/Social1.png,stimuli/Nonsocial2.png,stimuli/Nonsocial1.png,cs_pos_s,"(0.7, 0.5)",,,,,,,,,0,0,0,0,,,,,,,,,,,,,1,3,19,6,,,,,,,,,,,,,,,,,,,,,,,,,,,,,,,,,,716.551514,45,reward,1,0.45867020000014236,0.458673699999963,717.0167647000001,,,,,,,,,,,,,,,,,,,,,,32,D,2024-05-15_08h16.35.875,attentional_competition_task,2022.2.4,143.55152207707917,
positions.xlsx,positions_test.xlsx,positions_test_new.xlsx,stimuli.xlsx,stimuli_new.xlsx,stimuli/Social4.png,stimuli/Social3.png,stimuli/Nonsocial4.png,stimuli/Nonsocial3.png,stimuli/Social2.png,stimuli/Social1.png,stimuli/Nonsocial2.png,stimuli/Nonsocial1.png,cs_pos_ns,"(-0.7, 0.5)",,,,,,,,,0,0,0,0,,,,,,,,,,,,,1,4,20,12,,,,,,,,,,,,,,,,,,,,,,,,,,,,,,,,,,724.6761572999999,48,reward,1,0.7023782999999639,0.7023821999998745,725.3844884,,,,,,,,,,,,,,,,,,,,,,32,D,2024-05-15_08h16.35.875,attentional_competition_task,2022.2.4,143.55152207707917,
positions.xlsx,positions_test.xlsx,positions_test_new.xlsx,stimuli.xlsx,stimuli_new.xlsx,stimuli/Social4.png,stimuli/Social3.png,stimuli/Nonsocial4.png,stimuli/Nonsocial3.png,stimuli/Social2.png,stimuli/Social1.png,stimuli/Nonsocial2.png,stimuli/Nonsocial1.png,cs_neg_ns,"(-0.7, -0.5)",,,,,,,,,0,0,0,0,,,,,,,,,,,,,1,5,21,9,,,,,,,,,,,,,,,,,,,,,,,,,,,,,,,,,,732.2731217999999,45,loss,1,2.243589899999961,2.24359359999994,734.5299676,,,,,,,,,,,,,,,,,,,,,,32,D,2024-05-15_08h16.35.875,attentional_competition_task,2022.2.4,143.55152207707917,
positions.xlsx,positions_test.xlsx,positions_test_new.xlsx,stimuli.xlsx,stimuli_new.xlsx,stimuli/Social4.png,stimuli/Social3.png,stimuli/Nonsocial4.png,stimuli/Nonsocial3.png,stimuli/Social2.png,stimuli/Social1.png,stimuli/Nonsocial2.png,stimuli/Nonsocial1.png,cs_pos_ns,"(0.7, -0.5)",,,,,,,,,0,0,0,0,,,,,,,,,,,,,1,6,22,15,,,,,,,,,,,,,,,,,,,,,,,,,,,,,,,,,,742.5713200999999,48,reward,1,0.5490509000001111,0.549054900000101,743.1268333,,,,,,,,,,,,,,,,,,,,,,32,D,2024-05-15_08h16.35.875,attentional_competition_task,2022.2.4,143.55152207707917,
positions.xlsx,positions_test.xlsx,positions_test_new.xlsx,stimuli.xlsx,stimuli_new.xlsx,stimuli/Social4.png,stimuli/Social3.png,stimuli/Nonsocial4.png,stimuli/Nonsocial3.png,stimuli/Social2.png,stimuli/Social1.png,stimuli/Nonsocial2.png,stimuli/Nonsocial1.png,cs_neg_s,"(-0.7, 0.5)",,,,,,,,,0,0,0,0,,,,,,,,,,,,,1,7,23,0,,,,,,,,,,,,,,,,,,,,,,,,,,,,,,,,,,750.1334918,48,none,0,,,753.1473033,,,,,,,,,,,,,,,,,,,,,,32,D,2024-05-15_08h16.35.875,attentional_competition_task,2022.2.4,143.55152207707917,
positions.xlsx,positions_test.xlsx,positions_test_new.xlsx,stimuli.xlsx,stimuli_new.xlsx,stimuli/Social4.png,stimuli/Social3.png,stimuli/Nonsocial4.png,stimuli/Nonsocial3.png,stimuli/Social2.png,stimuli/Social1.png,stimuli/Nonsocial2.png,stimuli/Nonsocial1.png,cs_pos_s,"(-0.7, -0.5)",,,,,,,,,0,0,0,0,,,,,,,,,,,,,1,8,24,5,,,,,,,,,,,,,,,,,,,,,,,,,,,,,,,,,,761.1399687999999,51,reward,1,0.5004346000000623,0.5004383000000416,761.6469236,,,,,,,,,,,,,,,,,,,,,,32,D,2024-05-15_08h16.35.875,attentional_competition_task,2022.2.4,143.55152207707917,
positions.xlsx,positions_test.xlsx,positions_test_new.xlsx,stimuli.xlsx,stimuli_new.xlsx,stimuli/Social4.png,stimuli/Social3.png,stimuli/Nonsocial4.png,stimuli/Nonsocial3.png,stimuli/Social2.png,stimuli/Social1.png,stimuli/Nonsocial2.png,stimuli/Nonsocial1.png,cs_neg_s,"(0.7, -0.5)",,,,,,,,,0,0,0,0,,,,,,,,,,,,,1,9,25,3,,,,,,,,,,,,,,,,,,,,,,,,,,,,,,,,,,769.2438095,51,none,0,,,772.2576300999999,,,,,,,,,,,,,,,,,,,,,,32,D,2024-05-15_08h16.35.875,attentional_competition_task,2022.2.4,143.55152207707917,
positions.xlsx,positions_test.xlsx,positions_test_new.xlsx,stimuli.xlsx,stimuli_new.xlsx,stimuli/Social4.png,stimuli/Social3.png,stimuli/Nonsocial4.png,stimuli/Nonsocial3.png,stimuli/Social2.png,stimuli/Social1.png,stimuli/Nonsocial2.png,stimuli/Nonsocial1.png,cs_pos_ns,"(0.7, 0.5)",,,,,,,,,0,0,0,0,,,,,,,,,,,,,1,10,26,14,,,,,,,,,,,,,,,,,,,,,,,,,,,,,,,,,,779.7225725999999,54,reward,1,0.6529050000001462,0.6529089000000567,780.3822441,,,,,,,,,,,,,,,,,,,,,,32,D,2024-05-15_08h16.35.875,attentional_competition_task,2022.2.4,143.55152207707917,
positions.xlsx,positions_test.xlsx,positions_test_new.xlsx,stimuli.xlsx,stimuli_new.xlsx,stimuli/Social4.png,stimuli/Social3.png,stimuli/Nonsocial4.png,stimuli/Nonsocial3.png,stimuli/Social2.png,stimuli/Social1.png,stimuli/Nonsocial2.png,stimuli/Nonsocial1.png,cs_pos_s,"(-0.7, 0.5)",,,,,,,,,0,0,0,0,,,,,,,,,,,,,1,11,27,4,,,,,,,,,,,,,,,,,,,,,,,,,,,,,,,,,,788.0764085999999,57,reward,1,0.42355099999986123,0.42355449999990924,788.5069315000001,,,,,,,,,,,,,,,,,,,,,,32,D,2024-05-15_08h16.35.875,attentional_competition_task,2022.2.4,143.55152207707917,
positions.xlsx,positions_test.xlsx,positions_test_new.xlsx,stimuli.xlsx,stimuli_new.xlsx,stimuli/Social4.png,stimuli/Social3.png,stimuli/Nonsocial4.png,stimuli/Nonsocial3.png,stimuli/Social2.png,stimuli/Social1.png,stimuli/Nonsocial2.png,stimuli/Nonsocial1.png,cs_neg_ns,"(0.7, 0.5)",,,,,,,,,0,0,0,0,,,,,,,,,,,,,1,12,28,10,,,,,,,,,,,,,,,,,,,,,,,,,,,,,,,,,,795.4719213999999,57,none,0,,,798.4857112,,,,,,,,,,,,,,,,,,,,,,32,D,2024-05-15_08h16.35.875,attentional_competition_task,2022.2.4,143.55152207707917,
positions.xlsx,positions_test.xlsx,positions_test_new.xlsx,stimuli.xlsx,stimuli_new.xlsx,stimuli/Social4.png,stimuli/Social3.png,stimuli/Nonsocial4.png,stimuli/Nonsocial3.png,stimuli/Social2.png,stimuli/Social1.png,stimuli/Nonsocial2.png,stimuli/Nonsocial1.png,cs_pos_ns,"(-0.7, -0.5)",,,,,,,,,0,0,0,0,,,,,,,,,,,,,1,13,29,13,,,,,,,,,,,,,,,,,,,,,,,,,,,,,,,,,,806.2562516,60,reward,1,0.5556813000000602,0.5556850000000395,806.8187171,,,,,,,,,,,,,,,,,,,,,,32,D,2024-05-15_08h16.35.875,attentional_competition_task,2022.2.4,143.55152207707917,
positions.xlsx,positions_test.xlsx,positions_test_new.xlsx,stimuli.xlsx,stimuli_new.xlsx,stimuli/Social4.png,stimuli/Social3.png,stimuli/Nonsocial4.png,stimuli/Nonsocial3.png,stimuli/Social2.png,stimuli/Social1.png,stimuli/Nonsocial2.png,stimuli/Nonsocial1.png,cs_neg_ns,"(-0.7, 0.5)",,,,,,,,,0,0,0,0,,,,,,,,,,,,,1,14,30,8,,,,,,,,,,,,,,,,,,,,,,,,,,,,,,,,,,814.1517251,60,none,0,,,817.1655171,,,,,,,,,,,,,,,,,,,,,,32,D,2024-05-15_08h16.35.875,attentional_competition_task,2022.2.4,143.55152207707917,
positions.xlsx,positions_test.xlsx,positions_test_new.xlsx,stimuli.xlsx,stimuli_new.xlsx,stimuli/Social4.png,stimuli/Social3.png,stimuli/Nonsocial4.png,stimuli/Nonsocial3.png,stimuli/Social2.png,stimuli/Social1.png,stimuli/Nonsocial2.png,stimuli/Nonsocial1.png,cs_pos_s,"(0.7, -0.5)",,,,,,,,,0,0,0,0,,,,,,,,,,,,,1,15,31,7,,,,,,,,,,,,,,,,,,,,,,,,,,,,,,,,,,824.6791294,63,reward,1,0.5136761000001115,0.5136798000000908,825.1999123,,,,,,,,,,,,,,,,,,,,,,32,D,2024-05-15_08h16.35.875,attentional_competition_task,2022.2.4,143.55152207707917,
positions.xlsx,positions_test.xlsx,positions_test_new.xlsx,stimuli.xlsx,stimuli_new.xlsx,stimuli/Social4.png,stimuli/Social3.png,stimuli/Nonsocial4.png,stimuli/Nonsocial3.png,stimuli/Social2.png,stimuli/Social1.png,stimuli/Nonsocial2.png,stimuli/Nonsocial1.png,cs_pos_s,,,,,,,,,,0,0,0,0,,,,,,,,,,,,,,,,,0,0,0,2,,,,,,,,,,,,,,,,,,,,,,,830.171943,8.0,6.547460999999885,,,,,,,,,,,,,,,,,,,,,,,,,,,,,,,,,32,D,2024-05-15_08h16.35.875,attentional_competition_task,2022.2.4,143.55152207707917,
positions.xlsx,positions_test.xlsx,positions_test_new.xlsx,stimuli.xlsx,stimuli_new.xlsx,stimuli/Social4.png,stimuli/Social3.png,stimuli/Nonsocial4.png,stimuli/Nonsocial3.png,stimuli/Social2.png,stimuli/Social1.png,stimuli/Nonsocial2.png,stimuli/Nonsocial1.png,cs_pos_ns,,,,,,,,,,0,0,0,0,,,,,,,,,,,,,,,,,0,1,1,3,,,,,,,,,,,,,,,,,,,,,,,839.067432,10.0,1.7862261000000217,,,,,,,,,,,,,,,,,,,,,,,,,,,,,,,,,32,D,2024-05-15_08h16.35.875,attentional_competition_task,2022.2.4,143.55152207707917,
positions.xlsx,positions_test.xlsx,positions_test_new.xlsx,stimuli.xlsx,stimuli_new.xlsx,stimuli/Social4.png,stimuli/Social3.png,stimuli/Nonsocial4.png,stimuli/Nonsocial3.png,stimuli/Social2.png,stimuli/Social1.png,stimuli/Nonsocial2.png,stimuli/Nonsocial1.png,cs_neg_s,,,,,,,,,,0,0,0,0,,,,,,,,,,,,,,,,,0,2,2,0,,,,,,,,,,,,,,,,,,,,,,,841.0395747,7.0,2.460149099999853,,,,,,,,,,,,,,,,,,,,,,,,,,,,,,,,,32,D,2024-05-15_08h16.35.875,attentional_competition_task,2022.2.4,143.55152207707917,
positions.xlsx,positions_test.xlsx,positions_test_new.xlsx,stimuli.xlsx,stimuli_new.xlsx,stimuli/Social4.png,stimuli/Social3.png,stimuli/Nonsocial4.png,stimuli/Nonsocial3.png,stimuli/Social2.png,stimuli/Social1.png,stimuli/Nonsocial2.png,stimuli/Nonsocial1.png,cs_neg_ns,,,,,,,,,,0,0,0,0,,,,,,,,,,,,,,,,,0,3,3,1,,,,,,,,,,,,,,,,,,,,,,,844.3102512999999,3.0,3.542953599999919,,,,,,,,,,,,,,,,,,,,,,,,,,,,,,,,,32,D,2024-05-15_08h16.35.875,attentional_competition_task,2022.2.4,143.55152207707917,
positions.xlsx,positions_test.xlsx,positions_test_new.xlsx,stimuli.xlsx,stimuli_new.xlsx,stimuli/Social4.png,stimuli/Social3.png,stimuli/Nonsocial4.png,stimuli/Nonsocial3.png,stimuli/Social2.png,stimuli/Social1.png,stimuli/Nonsocial2.png,stimuli/Nonsocial1.png,,,"(-0.7, -0.5)",cs_pos_s,"(-0.7, 0.5)",cs_pos_ns,"(0.7, -0.5)",cs_neg_s,"(0.7, 0.5)",cs_neg_ns,0,0,0,0,,,,,,,,,,,,,,,,,,,,,0,0,0,10,,,,,,,,,,,,,,,,,,,,,,,,,,,66,reward,,,,,848.3587823,856.5597799,856.5597799,856.5597799,856.5597799,1,0.023507800000061252,0.09291669999993246,1,0.10698180000008506,0.11449820000007094,0,,,0,,,856.6779116,856.6779116,856.6779116,856.6779116,32,D,2024-05-15_08h16.35.875,attentional_competition_task,2022.2.4,143.55152207707917,
positions.xlsx,positions_test.xlsx,positions_test_new.xlsx,stimuli.xlsx,stimuli_new.xlsx,stimuli/Social4.png,stimuli/Social3.png,stimuli/Nonsocial4.png,stimuli/Nonsocial3.png,stimuli/Social2.png,stimuli/Social1.png,stimuli/Nonsocial2.png,stimuli/Nonsocial1.png,,,"(-0.7, -0.5)",cs_pos_s,"(-0.7, 0.5)",cs_neg_ns,"(0.7, -0.5)",cs_pos_ns,"(0.7, 0.5)",cs_neg_s,0,0,0,0,,,,,,,,,,,,,,,,,,,,,0,1,1,9,,,,,,,,,,,,,,,,,,,,,,,,,,,69,reward,,,,,,865.0663683,865.0663683,865.0663683,865.0663683,0,,,0,,,1,0.030980700000327488,0.030984500000158732,0,,,865.0663683,865.0663683,865.0663683,865.0663683,32,D,2024-05-15_08h16.35.875,attentional_competition_task,2022.2.4,143.55152207707917,
positions.xlsx,positions_test.xlsx,positions_test_new.xlsx,stimuli.xlsx,stimuli_new.xlsx,stimuli/Social4.png,stimuli/Social3.png,stimuli/Nonsocial4.png,stimuli/Nonsocial3.png,stimuli/Social2.png,stimuli/Social1.png,stimuli/Nonsocial2.png,stimuli/Nonsocial1.png,,,"(-0.7, -0.5)",cs_neg_ns,"(-0.7, 0.5)",cs_pos_ns,"(0.7, -0.5)",cs_pos_s,"(0.7, 0.5)",cs_neg_s,0,0,0,0,,,,,,,,,,,,,,,,,,,,,0,2,2,16,,,,,,,,,,,,,,,,,,,,,,,,,,,75,reward,,,,,,872.3021734000001,872.3021734000001,872.3021734000001,872.3021734000001,0,,,1,0.6348477000001367,0.6348515999998199,1,0.02279450000014549,0.11421870000003764,0,,,872.9479838999998,872.9479838999998,872.9479838999998,872.9479838999998,32,D,2024-05-15_08h16.35.875,attentional_competition_task,2022.2.4,143.55152207707917,
positions.xlsx,positions_test.xlsx,positions_test_new.xlsx,stimuli.xlsx,stimuli_new.xlsx,stimuli/Social4.png,stimuli/Social3.png,stimuli/Nonsocial4.png,stimuli/Nonsocial3.png,stimuli/Social2.png,stimuli/Social1.png,stimuli/Nonsocial2.png,stimuli/Nonsocial1.png,,,"(-0.7, -0.5)",cs_neg_ns,"(-0.7, 0.5)",cs_pos_s,"(0.7, -0.5)",cs_neg_s,"(0.7, 0.5)",cs_pos_ns,0,0,0,0,,,,,,,,,,,,,,,,,,,,,0,3,3,12,,,,,,,,,,,,,,,,,,,,,,,,,,,84,reward,,,,,,881.5518559999998,881.5518559999998,881.5518559999998,881.5518559999998,0,,,0,,,0,,,1,0.031015900000056718,0.11393550000002506,882.169885,882.169885,882.169885,882.169885,32,D,2024-05-15_08h16.35.875,attentional_competition_task,2022.2.4,143.55152207707917,
positions.xlsx,positions_test.xlsx,positions_test_new.xlsx,stimuli.xlsx,stimuli_new.xlsx,stimuli/Social4.png,stimuli/Social3.png,stimuli/Nonsocial4.png,stimuli/Nonsocial3.png,stimuli/Social2.png,stimuli/Social1.png,stimuli/Nonsocial2.png,stimuli/Nonsocial1.png,,,"(-0.7, -0.5)",cs_neg_s,"(-0.7, 0.5)",cs_pos_s,"(0.7, -0.5)",cs_neg_ns,"(0.7, 0.5)",cs_pos_ns,0,0,0,0,,,,,,,,,,,,,,,,,,,,,0,4,4,0,,,,,,,,,,,,,,,,,,,,,,,,,,,87,loss,,,,,,889.2459842999999,889.2459842999999,889.2459842999999,889.2459842999999,0,,,0,,,1,0.14917909999985568,0.15628689999994094,1,0.02332139999998617,0.12914769999997588,889.4126508000002,889.4126508000002,889.4126508000002,889.4126508000002,32,D,2024-05-15_08h16.35.875,attentional_competition_task,2022.2.4,143.55152207707917,
positions.xlsx,positions_test.xlsx,positions_test_new.xlsx,stimuli.xlsx,stimuli_new.xlsx,stimuli/Social4.png,stimuli/Social3.png,stimuli/Nonsocial4.png,stimuli/Nonsocial3.png,stimuli/Social2.png,stimuli/Social1.png,stimuli/Nonsocial2.png,stimuli/Nonsocial1.png,,,"(-0.7, -0.5)",cs_pos_ns,"(-0.7, 0.5)",cs_neg_ns,"(0.7, -0.5)",cs_neg_s,"(0.7, 0.5)",cs_pos_s,0,0,0,0,,,,,,,,,,,,,,,,,,,,,0,5,5,21,,,,,,,,,,,,,,,,,,,,,,,,,,,93,reward,,,,,,897.1900942999998,897.1900942999998,897.1900942999998,897.1900942999998,1,0.724411599999712,0.7313183999999637,0,,,0,,,1,0.02986579999969763,0.03754299999991417,897.9261822000001,897.9261822000001,897.9261822000001,897.9261822000001,32,D,2024-05-15_08h16.35.875,attentional_competition_task,2022.2.4,143.55152207707917,
positions.xlsx,positions_test.xlsx,positions_test_new.xlsx,stimuli.xlsx,stimuli_new.xlsx,stimuli/Social4.png,stimuli/Social3.png,stimuli/Nonsocial4.png,stimuli/Nonsocial3.png,stimuli/Social2.png,stimuli/Social1.png,stimuli/Nonsocial2.png,stimuli/Nonsocial1.png,,,"(-0.7, -0.5)",cs_pos_s,"(-0.7, 0.5)",cs_pos_ns,"(0.7, -0.5)",cs_neg_ns,"(0.7, 0.5)",cs_neg_s,0,0,0,0,,,,,,,,,,,,,,,,,,,,,0,6,6,11,,,,,,,,,,,,,,,,,,,,,,,,,,,96,loss,,,,,,906.0856029999998,906.0856029999998,906.0856029999998,906.0856029999998,0,,,0,,,1,0.14322980000042662,0.15027580000014495,0,,,906.2383299,906.2383299,906.2383299,906.2383299,32,D,2024-05-15_08h16.35.875,attentional_competition_task,2022.2.4,143.55152207707917,
positions.xlsx,positions_test.xlsx,positions_test_new.xlsx,stimuli.xlsx,stimuli_new.xlsx,stimuli/Social4.png,stimuli/Social3.png,stimuli/Nonsocial4.png,stimuli/Nonsocial3.png,stimuli/Social2.png,stimuli/Social1.png,stimuli/Nonsocial2.png,stimuli/Nonsocial1.png,,,"(-0.7, -0.5)",cs_neg_s,"(-0.7, 0.5)",cs_neg_ns,"(0.7, -0.5)",cs_pos_s,"(0.7, 0.5)",cs_pos_ns,0,0,0,0,,,,,,,,,,,,,,,,,,,,,0,7,7,2,,,,,,,,,,,,,,,,,,,,,,,,,,,105,reward,,,,,,914.5296473999999,914.5296473999999,914.5296473999999,914.5296473999999,0,,,0,,,0,,,0,,,915.5157722000001,915.5157722000001,915.5157722000001,915.5157722000001,32,D,2024-05-15_08h16.35.875,attentional_competition_task,2022.2.4,143.55152207707917,
positions.xlsx,positions_test.xlsx,positions_test_new.xlsx,stimuli.xlsx,stimuli_new.xlsx,stimuli/Social4.png,stimuli/Social3.png,stimuli/Nonsocial4.png,stimuli/Nonsocial3.png,stimuli/Social2.png,stimuli/Social1.png,stimuli/Nonsocial2.png,stimuli/Nonsocial1.png,,,"(-0.7, -0.5)",cs_neg_s,"(-0.7, 0.5)",cs_neg_ns,"(0.7, -0.5)",cs_pos_ns,"(0.7, 0.5)",cs_pos_s,0,0,0,0,,,,,,,,,,,,,,,,,,,,,0,8,8,3,,,,,,,,,,,,,,,,,,,,,,,,,,,114,reward,,,,,,923.8279187,923.8279187,923.8279187,923.8279187,0,,,0,,,0,,,0,,,924.5223631000001,924.5223631000001,924.5223631000001,924.5223631000001,32,D,2024-05-15_08h16.35.875,attentional_competition_task,2022.2.4,143.55152207707917,
positions.xlsx,positions_test.xlsx,positions_test_new.xlsx,stimuli.xlsx,stimuli_new.xlsx,stimuli/Social4.png,stimuli/Social3.png,stimuli/Nonsocial4.png,stimuli/Nonsocial3.png,stimuli/Social2.png,stimuli/Social1.png,stimuli/Nonsocial2.png,stimuli/Nonsocial1.png,,,"(-0.7, -0.5)",cs_neg_ns,"(-0.7, 0.5)",cs_pos_ns,"(0.7, -0.5)",cs_neg_s,"(0.7, 0.5)",cs_pos_s,0,0,0,0,,,,,,,,,,,,,,,,,,,,,0,9,9,17,,,,,,,,,,,,,,,,,,,,,,,,,,,123,reward,,,,,,932.0358816,932.0358816,932.0358816,932.0358816,0,,,1,0.025853099999949336,0.24106540000002497,0,,,0,,,933.0150618,933.0150618,933.0150618,933.0150618,32,D,2024-05-15_08h16.35.875,attentional_competition_task,2022.2.4,143.55152207707917,
positions.xlsx,positions_test.xlsx,positions_test_new.xlsx,stimuli.xlsx,stimuli_new.xlsx,stimuli/Social4.png,stimuli/Social3.png,stimuli/Nonsocial4.png,stimuli/Nonsocial3.png,stimuli/Social2.png,stimuli/Social1.png,stimuli/Nonsocial2.png,stimuli/Nonsocial1.png,,,"(-0.7, -0.5)",cs_pos_ns,"(-0.7, 0.5)",cs_neg_s,"(0.7, -0.5)",cs_neg_ns,"(0.7, 0.5)",cs_pos_s,0,0,0,0,,,,,,,,,,,,,,,,,,,,,0,10,10,23,,,,,,,,,,,,,,,,,,,,,,,,,,,132,reward,,,,,,941.2647653000001,941.2647653000001,941.2647653000001,941.2647653000001,1,0.030729900000096677,0.21070400000007794,0,,,0,,,0,,,942.0494099999999,942.0494099999999,942.0494099999999,942.0494099999999,32,D,2024-05-15_08h16.35.875,attentional_competition_task,2022.2.4,143.55152207707917,
positions.xlsx,positions_test.xlsx,positions_test_new.xlsx,stimuli.xlsx,stimuli_new.xlsx,stimuli/Social4.png,stimuli/Social3.png,stimuli/Nonsocial4.png,stimuli/Nonsocial3.png,stimuli/Social2.png,stimuli/Social1.png,stimuli/Nonsocial2.png,stimuli/Nonsocial1.png,,,"(-0.7, -0.5)",cs_pos_s,"(-0.7, 0.5)",cs_neg_ns,"(0.7, -0.5)",cs_neg_s,"(0.7, 0.5)",cs_pos_ns,0,0,0,0,,,,,,,,,,,,,,,,,,,,,0,11,11,8,,,,,,,,,,,,,,,,,,,,,,,,,,,129,loss,,,,,,949.6671605999998,949.6671605999998,949.6671605999998,949.6671605999998,0,,,0,,,1,0.04406790000030014,0.04407160000027943,0,,,949.7088253999998,949.7088253999998,949.7088253999998,949.7088253999998,32,D,2024-05-15_08h16.35.875,attentional_competition_task,2022.2.4,143.55152207707917,
positions.xlsx,positions_test.xlsx,positions_test_new.xlsx,stimuli.xlsx,stimuli_new.xlsx,stimuli/Social4.png,stimuli/Social3.png,stimuli/Nonsocial4.png,stimuli/Nonsocial3.png,stimuli/Social2.png,stimuli/Social1.png,stimuli/Nonsocial2.png,stimuli/Nonsocial1.png,,,"(-0.7, -0.5)",cs_neg_ns,"(-0.7, 0.5)",cs_neg_s,"(0.7, -0.5)",cs_pos_ns,"(0.7, 0.5)",cs_pos_s,0,0,0,0,,,,,,,,,,,,,,,,,,,,,0,12,12,15,,,,,,,,,,,,,,,,,,,,,,,,,,,138,reward,,,,,,958.2431680000002,958.2431680000002,958.2431680000002,958.2431680000002,0,,,0,,,1,0.029515799999899173,0.370886100000007,0,,,959.1181610000001,959.1181610000001,959.1181610000001,959.1181610000001,32,D,2024-05-15_08h16.35.875,attentional_competition_task,2022.2.4,143.55152207707917,
positions.xlsx,positions_test.xlsx,positions_test_new.xlsx,stimuli.xlsx,stimuli_new.xlsx,stimuli/Social4.png,stimuli/Social3.png,stimuli/Nonsocial4.png,stimuli/Nonsocial3.png,stimuli/Social2.png,stimuli/Social1.png,stimuli/Nonsocial2.png,stimuli/Nonsocial1.png,,,"(-0.7, -0.5)",cs_neg_ns,"(-0.7, 0.5)",cs_pos_s,"(0.7, -0.5)",cs_pos_ns,"(0.7, 0.5)",cs_neg_s,0,0,0,0,,,,,,,,,,,,,,,,,,,,,0,13,13,13,,,,,,,,,,,,,,,,,,,,,,,,,,,147,reward,,,,,,966.2289660999998,966.2289660999998,966.2289660999998,966.2289660999998,0,,,0,,,1,0.03121899999996458,0.2731852000001709,0,,,967.0484039999999,967.0484039999999,967.0484039999999,967.0484039999999,32,D,2024-05-15_08h16.35.875,attentional_competition_task,2022.2.4,143.55152207707917,
positions.xlsx,positions_test.xlsx,positions_test_new.xlsx,stimuli.xlsx,stimuli_new.xlsx,stimuli/Social4.png,stimuli/Social3.png,stimuli/Nonsocial4.png,stimuli/Nonsocial3.png,stimuli/Social2.png,stimuli/Social1.png,stimuli/Nonsocial2.png,stimuli/Nonsocial1.png,,,"(-0.7, -0.5)",cs_pos_s,"(-0.7, 0.5)",cs_neg_s,"(0.7, -0.5)",cs_pos_ns,"(0.7, 0.5)",cs_neg_ns,0,0,0,0,,,,,,,,,,,,,,,,,,,,,0,14,14,7,,,,,,,,,,,,,,,,,,,,,,,,,,,153,reward,,,,,,974.1383798999998,974.1383798999998,974.1383798999998,974.1383798999998,1,0.030104400000254827,0.13440510000009454,0,,,1,0.6072564000000966,0.6072597000002133,0,,,974.7425274,974.7425274,974.7425274,974.7425274,32,D,2024-05-15_08h16.35.875,attentional_competition_task,2022.2.4,143.55152207707917,
positions.xlsx,positions_test.xlsx,positions_test_new.xlsx,stimuli.xlsx,stimuli_new.xlsx,stimuli/Social4.png,stimuli/Social3.png,stimuli/Nonsocial4.png,stimuli/Nonsocial3.png,stimuli/Social2.png,stimuli/Social1.png,stimuli/Nonsocial2.png,stimuli/Nonsocial1.png,,,"(-0.7, -0.5)",cs_pos_ns,"(-0.7, 0.5)",cs_neg_ns,"(0.7, -0.5)",cs_pos_s,"(0.7, 0.5)",cs_neg_s,0,0,0,0,,,,,,,,,,,,,,,,,,,,,0,15,15,20,,,,,,,,,,,,,,,,,,,,,,,,,,,150,loss,,,,,,982.6588768999998,982.6588768999998,982.6588768999998,982.6588768999998,0,,,1,0.030271900000116148,0.030278499999894848,0,,,0,,,982.6588768999998,982.6588768999998,982.6588768999998,982.6588768999998,32,D,2024-05-15_08h16.35.875,attentional_competition_task,2022.2.4,143.55152207707917,
positions.xlsx,positions_test.xlsx,positions_test_new.xlsx,stimuli.xlsx,stimuli_new.xlsx,stimuli/Social4.png,stimuli/Social3.png,stimuli/Nonsocial4.png,stimuli/Nonsocial3.png,stimuli/Social2.png,stimuli/Social1.png,stimuli/Nonsocial2.png,stimuli/Nonsocial1.png,,,"(-0.7, -0.5)",cs_pos_ns,"(-0.7, 0.5)",cs_pos_s,"(0.7, -0.5)",cs_neg_ns,"(0.7, 0.5)",cs_neg_s,0,0,0,0,,,,,,,,,,,,,,,,,,,,,0,16,16,18,,,,,,,,,,,,,,,,,,,,,,,,,,,153,reward,,,,,,992.0959679,992.0959679,992.0959679,992.0959679,1,0.022459900000285415,0.022463600000264705,0,,,0,,,0,,,992.0959679,992.0959679,992.0959679,992.0959679,32,D,2024-05-15_08h16.35.875,attentional_competition_task,2022.2.4,143.55152207707917,
positions.xlsx,positions_test.xlsx,positions_test_new.xlsx,stimuli.xlsx,stimuli_new.xlsx,stimuli/Social4.png,stimuli/Social3.png,stimuli/Nonsocial4.png,stimuli/Nonsocial3.png,stimuli/Social2.png,stimuli/Social1.png,stimuli/Nonsocial2.png,stimuli/Nonsocial1.png,,,"(-0.7, -0.5)",cs_neg_s,"(-0.7, 0.5)",cs_pos_ns,"(0.7, -0.5)",cs_neg_ns,"(0.7, 0.5)",cs_pos_s,0,0,0,0,,,,,,,,,,,,,,,,,,,,,0,17,17,5,,,,,,,,,,,,,,,,,,,,,,,,,,,162,reward,,,,,,1000.6095382999999,1000.6095382999999,1000.6095382999999,1000.6095382999999,0,,,1,0.022921799999949144,0.24622649999992063,0,,,0,,,1001.3595145000002,1001.3595145000002,1001.3595145000002,1001.3595145000002,32,D,2024-05-15_08h16.35.875,attentional_competition_task,2022.2.4,143.55152207707917,
positions.xlsx,positions_test.xlsx,positions_test_new.xlsx,stimuli.xlsx,stimuli_new.xlsx,stimuli/Social4.png,stimuli/Social3.png,stimuli/Nonsocial4.png,stimuli/Nonsocial3.png,stimuli/Social2.png,stimuli/Social1.png,stimuli/Nonsocial2.png,stimuli/Nonsocial1.png,,,"(-0.7, -0.5)",cs_pos_ns,"(-0.7, 0.5)",cs_neg_s,"(0.7, -0.5)",cs_pos_s,"(0.7, 0.5)",cs_neg_ns,0,0,0,0,,,,,,,,,,,,,,,,,,,,,0,18,18,22,,,,,,,,,,,,,,,,,,,,,,,,,,,171,reward,,,,,,1009.6924889999998,1009.6924889999998,1009.6924889999998,1009.6924889999998,1,0.02365190000000439,0.1919385000001057,0,,,0,,,0,,,1010.5327604000001,1010.5327604000001,1010.5327604000001,1010.5327604000001,32,D,2024-05-15_08h16.35.875,attentional_competition_task,2022.2.4,143.55152207707917,
positions.xlsx,positions_test.xlsx,positions_test_new.xlsx,stimuli.xlsx,stimuli_new.xlsx,stimuli/Social4.png,stimuli/Social3.png,stimuli/Nonsocial4.png,stimuli/Nonsocial3.png,stimuli/Social2.png,stimuli/Social1.png,stimuli/Nonsocial2.png,stimuli/Nonsocial1.png,,,"(-0.7, -0.5)",cs_neg_ns,"(-0.7, 0.5)",cs_neg_s,"(0.7, -0.5)",cs_pos_s,"(0.7, 0.5)",cs_pos_ns,0,0,0,0,,,,,,,,,,,,,,,,,,,,,0,19,19,14,,,,,,,,,,,,,,,,,,,,,,,,,,,180,reward,,,,,,1018.3171694999999,1018.3171694999999,1018.3171694999999,1018.3171694999999,0,,,0,,,0,,,1,0.030570599999919068,0.08591810000007172,1019.0463090000001,1019.0463090000001,1019.0463090000001,1019.0463090000001,32,D,2024-05-15_08h16.35.875,attentional_competition_task,2022.2.4,143.55152207707917,
positions.xlsx,positions_test.xlsx,positions_test_new.xlsx,stimuli.xlsx,stimuli_new.xlsx,stimuli/Social4.png,stimuli/Social3.png,stimuli/Nonsocial4.png,stimuli/Nonsocial3.png,stimuli/Social2.png,stimuli/Social1.png,stimuli/Nonsocial2.png,stimuli/Nonsocial1.png,,,"(-0.7, -0.5)",cs_pos_ns,"(-0.7, 0.5)",cs_pos_s,"(0.7, -0.5)",cs_neg_s,"(0.7, 0.5)",cs_neg_ns,0,0,0,0,,,,,,,,,,,,,,,,,,,,,0,20,20,19,,,,,,,,,,,,,,,,,,,,,,,,,,,189,reward,,,,,,1027.17095,1027.17095,1027.17095,1027.17095,1,0.028540799999973387,0.2519200000001547,0,,,0,,,0,,,1028.1223308,1028.1223308,1028.1223308,1028.1223308,32,D,2024-05-15_08h16.35.875,attentional_competition_task,2022.2.4,143.55152207707917,
positions.xlsx,positions_test.xlsx,positions_test_new.xlsx,stimuli.xlsx,stimuli_new.xlsx,stimuli/Social4.png,stimuli/Social3.png,stimuli/Nonsocial4.png,stimuli/Nonsocial3.png,stimuli/Social2.png,stimuli/Social1.png,stimuli/Nonsocial2.png,stimuli/Nonsocial1.png,,,"(-0.7, -0.5)",cs_neg_s,"(-0.7, 0.5)",cs_pos_ns,"(0.7, -0.5)",cs_pos_s,"(0.7, 0.5)",cs_neg_ns,0,0,0,0,,,,,,,,,,,,,,,,,,,,,0,21,21,4,,,,,,,,,,,,,,,,,,,,,,,,,,,198,reward,,,,,,1035.5942238,1035.5942238,1035.5942238,1035.5942238,0,,,1,0.02408259999992879,0.20498260000022128,0,,,0,,,1036.4136692999998,1036.4136692999998,1036.4136692999998,1036.4136692999998,32,D,2024-05-15_08h16.35.875,attentional_competition_task,2022.2.4,143.55152207707917,
positions.xlsx,positions_test.xlsx,positions_test_new.xlsx,stimuli.xlsx,stimuli_new.xlsx,stimuli/Social4.png,stimuli/Social3.png,stimuli/Nonsocial4.png,stimuli/Nonsocial3.png,stimuli/Social2.png,stimuli/Social1.png,stimuli/Nonsocial2.png,stimuli/Nonsocial1.png,,,"(-0.7, -0.5)",cs_pos_s,"(-0.7, 0.5)",cs_neg_s,"(0.7, -0.5)",cs_neg_ns,"(0.7, 0.5)",cs_pos_ns,0,0,0,0,,,,,,,,,,,,,,,,,,,,,0,22,22,6,,,,,,,,,,,,,,,,,,,,,,,,,,,207,reward,,,,,,1044.9897391000002,1044.9897391000002,1044.9897391000002,1044.9897391000002,0,,,0,,,0,,,1,0.023143200000049546,0.023147000000335538,1044.9897391000002,1044.9897391000002,1044.9897391000002,1044.9897391000002,32,D,2024-05-15_08h16.35.875,attentional_competition_task,2022.2.4,143.55152207707917,
positions.xlsx,positions_test.xlsx,positions_test_new.xlsx,stimuli.xlsx,stimuli_new.xlsx,stimuli/Social4.png,stimuli/Social3.png,stimuli/Nonsocial4.png,stimuli/Nonsocial3.png,stimuli/Social2.png,stimuli/Social1.png,stimuli/Nonsocial2.png,stimuli/Nonsocial1.png,,,"(-0.7, -0.5)",cs_neg_s,"(-0.7, 0.5)",cs_pos_s,"(0.7, -0.5)",cs_pos_ns,"(0.7, 0.5)",cs_neg_ns,0,0,0,0,,,,,,,,,,,,,,,,,,,,,0,23,23,1,,,,,,,,,,,,,,,,,,,,,,,,,,,210,reward,,,,,,1052.8435576999998,1052.8435576999998,1052.8435576999998,1052.8435576999998,0,,,0,,,1,0.2737779999997656,0.27378159999989293,0,,,1053.1212973999998,1053.1212973999998,1053.1212973999998,1053.1212973999998,32,D,2024-05-15_08h16.35.875,attentional_competition_task,2022.2.4,143.55152207707917,
positions.xlsx,positions_test.xlsx,positions_test_new.xlsx,stimuli.xlsx,stimuli_new.xlsx,stimuli/Social4.png,stimuli/Social3.png,stimuli/Nonsocial4.png,stimuli/Nonsocial3.png,stimuli/Social2.png,stimuli/Social1.png,stimuli/Nonsocial2.png,stimuli/Nonsocial1.png,,,"(-0.7, -0.5)",cs_neg_s,"(-0.7, 0.5)",cs_pos_s,"(0.7, -0.5)",cs_neg_ns,"(0.7, 0.5)",cs_pos_ns,0,0,0,0,,,,,,,,,,,,,,,,,,,,,1,0,24,0,,,,,,,,,,,,,,,,,,,,,,,,,,,216,reward,,,,,,1061.2876334,1061.2876334,1061.2876334,1061.2876334,0,,,0,,,0,,,1,0.850052599999799,0.8500564999999369,1062.1279392,1062.1279392,1062.1279392,1062.1279392,32,D,2024-05-15_08h16.35.875,attentional_competition_task,2022.2.4,143.55152207707917,
positions.xlsx,positions_test.xlsx,positions_test_new.xlsx,stimuli.xlsx,stimuli_new.xlsx,stimuli/Social4.png,stimuli/Social3.png,stimuli/Nonsocial4.png,stimuli/Nonsocial3.png,stimuli/Social2.png,stimuli/Social1.png,stimuli/Nonsocial2.png,stimuli/Nonsocial1.png,,,"(-0.7, -0.5)",cs_neg_s,"(-0.7, 0.5)",cs_pos_ns,"(0.7, -0.5)",cs_neg_ns,"(0.7, 0.5)",cs_pos_s,0,0,0,0,,,,,,,,,,,,,,,,,,,,,1,1,25,5,,,,,,,,,,,,,,,,,,,,,,,,,,,225,reward,,,,,,1071.2942566999998,1071.2942566999998,1071.2942566999998,1071.2942566999998,0,,,1,0.02326870000024428,0.05214360000036322,0,,,0,,,1072.1760959,1072.1760959,1072.1760959,1072.1760959,32,D,2024-05-15_08h16.35.875,attentional_competition_task,2022.2.4,143.55152207707917,
positions.xlsx,positions_test.xlsx,positions_test_new.xlsx,stimuli.xlsx,stimuli_new.xlsx,stimuli/Social4.png,stimuli/Social3.png,stimuli/Nonsocial4.png,stimuli/Nonsocial3.png,stimuli/Social2.png,stimuli/Social1.png,stimuli/Nonsocial2.png,stimuli/Nonsocial1.png,,,"(-0.7, -0.5)",cs_pos_s,"(-0.7, 0.5)",cs_neg_s,"(0.7, -0.5)",cs_neg_ns,"(0.7, 0.5)",cs_pos_ns,0,0,0,0,,,,,,,,,,,,,,,,,,,,,1,2,26,6,,,,,,,,,,,,,,,,,,,,,,,,,,,228,reward,,,,,,1080.2938311,1080.2938311,1080.2938311,1080.2938311,0,,,0,,,0,,,1,0.03225609999981316,0.03225990000009915,1080.2938311,1080.2938311,1080.2938311,1080.2938311,32,D,2024-05-15_08h16.35.875,attentional_competition_task,2022.2.4,143.55152207707917,
positions.xlsx,positions_test.xlsx,positions_test_new.xlsx,stimuli.xlsx,stimuli_new.xlsx,stimuli/Social4.png,stimuli/Social3.png,stimuli/Nonsocial4.png,stimuli/Nonsocial3.png,stimuli/Social2.png,stimuli/Social1.png,stimuli/Nonsocial2.png,stimuli/Nonsocial1.png,,,"(-0.7, -0.5)",cs_pos_s,"(-0.7, 0.5)",cs_neg_ns,"(0.7, -0.5)",cs_pos_ns,"(0.7, 0.5)",cs_neg_s,0,0,0,0,,,,,,,,,,,,,,,,,,,,,1,3,27,9,,,,,,,,,,,,,,,,,,,,,,,,,,,237,reward,,,,,,1088.9184822,1088.9184822,1088.9184822,1088.9184822,0,,,0,,,0,,,0,,,1089.7101369999998,1089.7101369999998,1089.7101369999998,1089.7101369999998,32,D,2024-05-15_08h16.35.875,attentional_competition_task,2022.2.4,143.55152207707917,
positions.xlsx,positions_test.xlsx,positions_test_new.xlsx,stimuli.xlsx,stimuli_new.xlsx,stimuli/Social4.png,stimuli/Social3.png,stimuli/Nonsocial4.png,stimuli/Nonsocial3.png,stimuli/Social2.png,stimuli/Social1.png,stimuli/Nonsocial2.png,stimuli/Nonsocial1.png,,,"(-0.7, -0.5)",cs_neg_ns,"(-0.7, 0.5)",cs_pos_s,"(0.7, -0.5)",cs_pos_ns,"(0.7, 0.5)",cs_neg_s,0,0,0,0,,,,,,,,,,,,,,,,,,,,,1,4,28,13,,,,,,,,,,,,,,,,,,,,,,,,,,,246,reward,,,,,,1098.7792207999998,1098.7792207999998,1098.7792207999998,1098.7792207999998,0,,,0,,,1,0.03458120000004783,0.03458490000002712,0,,,1098.7792207999998,1098.7792207999998,1098.7792207999998,1098.7792207999998,32,D,2024-05-15_08h16.35.875,attentional_competition_task,2022.2.4,143.55152207707917,
positions.xlsx,positions_test.xlsx,positions_test_new.xlsx,stimuli.xlsx,stimuli_new.xlsx,stimuli/Social4.png,stimuli/Social3.png,stimuli/Nonsocial4.png,stimuli/Nonsocial3.png,stimuli/Social2.png,stimuli/Social1.png,stimuli/Nonsocial2.png,stimuli/Nonsocial1.png,,,"(-0.7, -0.5)",cs_neg_s,"(-0.7, 0.5)",cs_neg_ns,"(0.7, -0.5)",cs_pos_s,"(0.7, 0.5)",cs_pos_ns,0,0,0,0,,,,,,,,,,,,,,,,,,,,,1,5,29,2,,,,,,,,,,,,,,,,,,,,,,,,,,,255,reward,,,,,,1106.5774783999998,1106.5774783999998,1106.5774783999998,1106.5774783999998,0,,,0,,,0,,,1,0.029629000000113592,0.14101389999996172,1107.2233214,1107.2233214,1107.2233214,1107.2233214,32,D,2024-05-15_08h16.35.875,attentional_competition_task,2022.2.4,143.55152207707917,
positions.xlsx,positions_test.xlsx,positions_test_new.xlsx,stimuli.xlsx,stimuli_new.xlsx,stimuli/Social4.png,stimuli/Social3.png,stimuli/Nonsocial4.png,stimuli/Nonsocial3.png,stimuli/Social2.png,stimuli/Social1.png,stimuli/Nonsocial2.png,stimuli/Nonsocial1.png,,,"(-0.7, -0.5)",cs_pos_s,"(-0.7, 0.5)",cs_pos_ns,"(0.7, -0.5)",cs_neg_ns,"(0.7, 0.5)",cs_neg_s,0,0,0,0,,,,,,,,,,,,,,,,,,,,,1,6,30,11,,,,,,,,,,,,,,,,,,,,,,,,,,,264,reward,,,,,,1114.7924397,1114.7924397,1114.7924397,1114.7924397,0,,,0,,,0,,,0,,,1115.8201956999999,1115.8201956999999,1115.8201956999999,1115.8201956999999,32,D,2024-05-15_08h16.35.875,attentional_competition_task,2022.2.4,143.55152207707917,
positions.xlsx,positions_test.xlsx,positions_test_new.xlsx,stimuli.xlsx,stimuli_new.xlsx,stimuli/Social4.png,stimuli/Social3.png,stimuli/Nonsocial4.png,stimuli/Nonsocial3.png,stimuli/Social2.png,stimuli/Social1.png,stimuli/Nonsocial2.png,stimuli/Nonsocial1.png,,,"(-0.7, -0.5)",cs_neg_s,"(-0.7, 0.5)",cs_neg_ns,"(0.7, -0.5)",cs_pos_ns,"(0.7, 0.5)",cs_pos_s,0,0,0,0,,,,,,,,,,,,,,,,,,,,,1,7,31,3,,,,,,,,,,,,,,,,,,,,,,,,,,,273,reward,,,,,,1123.0629588999998,1123.0629588999998,1123.0629588999998,1123.0629588999998,0,,,0,,,1,0.028804099999888422,0.22298260000025039,0,,,1124.0073737999999,1124.0073737999999,1124.0073737999999,1124.0073737999999,32,D,2024-05-15_08h16.35.875,attentional_competition_task,2022.2.4,143.55152207707917,
positions.xlsx,positions_test.xlsx,positions_test_new.xlsx,stimuli.xlsx,stimuli_new.xlsx,stimuli/Social4.png,stimuli/Social3.png,stimuli/Nonsocial4.png,stimuli/Nonsocial3.png,stimuli/Social2.png,stimuli/Social1.png,stimuli/Nonsocial2.png,stimuli/Nonsocial1.png,,,"(-0.7, -0.5)",cs_pos_ns,"(-0.7, 0.5)",cs_pos_s,"(0.7, -0.5)",cs_neg_ns,"(0.7, 0.5)",cs_neg_s,0,0,0,0,,,,,,,,,,,,,,,,,,,,,1,8,32,18,,,,,,,,,,,,,,,,,,,,,,,,,,,282,reward,,,,,,1131.3820742999999,1131.3820742999999,1131.3820742999999,1131.3820742999999,1,0.030573500000173226,0.07188230000019757,0,,,0,,,0,,,1132.3056067,1132.3056067,1132.3056067,1132.3056067,32,D,2024-05-15_08h16.35.875,attentional_competition_task,2022.2.4,143.55152207707917,
positions.xlsx,positions_test.xlsx,positions_test_new.xlsx,stimuli.xlsx,stimuli_new.xlsx,stimuli/Social4.png,stimuli/Social3.png,stimuli/Nonsocial4.png,stimuli/Nonsocial3.png,stimuli/Social2.png,stimuli/Social1.png,stimuli/Nonsocial2.png,stimuli/Nonsocial1.png,,,"(-0.7, -0.5)",cs_neg_ns,"(-0.7, 0.5)",cs_neg_s,"(0.7, -0.5)",cs_pos_s,"(0.7, 0.5)",cs_pos_ns,0,0,0,0,,,,,,,,,,,,,,,,,,,,,1,9,33,14,,,,,,,,,,,,,,,,,,,,,,,,,,,291,reward,,,,,,1139.7358815,1139.7358815,1139.7358815,1139.7358815,0,,,0,,,0,,,0,,,1140.7705958999998,1140.7705958999998,1140.7705958999998,1140.7705958999998,32,D,2024-05-15_08h16.35.875,attentional_competition_task,2022.2.4,143.55152207707917,
positions.xlsx,positions_test.xlsx,positions_test_new.xlsx,stimuli.xlsx,stimuli_new.xlsx,stimuli/Social4.png,stimuli/Social3.png,stimuli/Nonsocial4.png,stimuli/Nonsocial3.png,stimuli/Social2.png,stimuli/Social1.png,stimuli/Nonsocial2.png,stimuli/Nonsocial1.png,,,"(-0.7, -0.5)",cs_pos_s,"(-0.7, 0.5)",cs_pos_ns,"(0.7, -0.5)",cs_neg_s,"(0.7, 0.5)",cs_neg_ns,0,0,0,0,,,,,,,,,,,,,,,,,,,,,1,10,34,10,,,,,,,,,,,,,,,,,,,,,,,,,,,300,reward,,,,,,1148.3953081000002,1148.3953081000002,1148.3953081000002,1148.3953081000002,0,,,0,,,0,,,0,,,1149.4577468,1149.4577468,1149.4577468,1149.4577468,32,D,2024-05-15_08h16.35.875,attentional_competition_task,2022.2.4,143.55152207707917,
positions.xlsx,positions_test.xlsx,positions_test_new.xlsx,stimuli.xlsx,stimuli_new.xlsx,stimuli/Social4.png,stimuli/Social3.png,stimuli/Nonsocial4.png,stimuli/Nonsocial3.png,stimuli/Social2.png,stimuli/Social1.png,stimuli/Nonsocial2.png,stimuli/Nonsocial1.png,,,"(-0.7, -0.5)",cs_pos_ns,"(-0.7, 0.5)",cs_neg_ns,"(0.7, -0.5)",cs_neg_s,"(0.7, 0.5)",cs_pos_s,0,0,0,0,,,,,,,,,,,,,,,,,,,,,1,11,35,21,,,,,,,,,,,,,,,,,,,,,,,,,,,309,reward,,,,,,1157.12409,1157.12409,1157.12409,1157.12409,0,,,0,,,0,,,0,,,1158.0268481,1158.0268481,1158.0268481,1158.0268481,32,D,2024-05-15_08h16.35.875,attentional_competition_task,2022.2.4,143.55152207707917,
positions.xlsx,positions_test.xlsx,positions_test_new.xlsx,stimuli.xlsx,stimuli_new.xlsx,stimuli/Social4.png,stimuli/Social3.png,stimuli/Nonsocial4.png,stimuli/Nonsocial3.png,stimuli/Social2.png,stimuli/Social1.png,stimuli/Nonsocial2.png,stimuli/Nonsocial1.png,,,"(-0.7, -0.5)",cs_pos_s,"(-0.7, 0.5)",cs_neg_ns,"(0.7, -0.5)",cs_neg_s,"(0.7, 0.5)",cs_pos_ns,0,0,0,0,,,,,,,,,,,,,,,,,,,,,1,12,36,8,,,,,,,,,,,,,,,,,,,,,,,,,,,318,reward,,,,,,1165.5334835,1165.5334835,1165.5334835,1165.5334835,0,,,0,,,0,,,0,,,1166.5473413000002,1166.5473413000002,1166.5473413000002,1166.5473413000002,32,D,2024-05-15_08h16.35.875,attentional_competition_task,2022.2.4,143.55152207707917,
positions.xlsx,positions_test.xlsx,positions_test_new.xlsx,stimuli.xlsx,stimuli_new.xlsx,stimuli/Social4.png,stimuli/Social3.png,stimuli/Nonsocial4.png,stimuli/Nonsocial3.png,stimuli/Social2.png,stimuli/Social1.png,stimuli/Nonsocial2.png,stimuli/Nonsocial1.png,,,"(-0.7, -0.5)",cs_neg_s,"(-0.7, 0.5)",cs_pos_ns,"(0.7, -0.5)",cs_pos_s,"(0.7, 0.5)",cs_neg_ns,0,0,0,0,,,,,,,,,,,,,,,,,,,,,1,13,37,4,,,,,,,,,,,,,,,,,,,,,,,,,,,327,reward,,,,,,1174.0886901000001,1174.0886901000001,1174.0886901000001,1174.0886901000001,0,,,1,0.029705399999784277,0.0645289999997658,0,,,0,,,1174.9914439000001,1174.9914439000001,1174.9914439000001,1174.9914439000001,32,D,2024-05-15_08h16.35.875,attentional_competition_task,2022.2.4,143.55152207707917,
positions.xlsx,positions_test.xlsx,positions_test_new.xlsx,stimuli.xlsx,stimuli_new.xlsx,stimuli/Social4.png,stimuli/Social3.png,stimuli/Nonsocial4.png,stimuli/Nonsocial3.png,stimuli/Social2.png,stimuli/Social1.png,stimuli/Nonsocial2.png,stimuli/Nonsocial1.png,,,"(-0.7, -0.5)",cs_neg_ns,"(-0.7, 0.5)",cs_pos_ns,"(0.7, -0.5)",cs_neg_s,"(0.7, 0.5)",cs_pos_s,0,0,0,0,,,,,,,,,,,,,,,,,,,,,1,14,38,17,,,,,,,,,,,,,,,,,,,,,,,,,,,336,reward,,,,,,1182.8522104,1182.8522104,1182.8522104,1182.8522104,0,,,1,0.02342049999970186,0.30306819999987056,0,,,0,,,1183.6647322000001,1183.6647322000001,1183.6647322000001,1183.6647322000001,32,D,2024-05-15_08h16.35.875,attentional_competition_task,2022.2.4,143.55152207707917,
positions.xlsx,positions_test.xlsx,positions_test_new.xlsx,stimuli.xlsx,stimuli_new.xlsx,stimuli/Social4.png,stimuli/Social3.png,stimuli/Nonsocial4.png,stimuli/Nonsocial3.png,stimuli/Social2.png,stimuli/Social1.png,stimuli/Nonsocial2.png,stimuli/Nonsocial1.png,,,"(-0.7, -0.5)",cs_neg_s,"(-0.7, 0.5)",cs_pos_s,"(0.7, -0.5)",cs_pos_ns,"(0.7, 0.5)",cs_neg_ns,0,0,0,0,,,,,,,,,,,,,,,,,,,,,1,15,39,1,,,,,,,,,,,,,,,,,,,,,,,,,,,345,reward,,,,,,1191.4907497000002,1191.4907497000002,1191.4907497000002,1191.4907497000002,0,,,0,,,1,0.029776899999887974,0.42628190000004906,0,,,1192.5115769000001,1192.5115769000001,1192.5115769000001,1192.5115769000001,32,D,2024-05-15_08h16.35.875,attentional_competition_task,2022.2.4,143.55152207707917,
positions.xlsx,positions_test.xlsx,positions_test_new.xlsx,stimuli.xlsx,stimuli_new.xlsx,stimuli/Social4.png,stimuli/Social3.png,stimuli/Nonsocial4.png,stimuli/Nonsocial3.png,stimuli/Social2.png,stimuli/Social1.png,stimuli/Nonsocial2.png,stimuli/Nonsocial1.png,,,"(-0.7, -0.5)",cs_pos_ns,"(-0.7, 0.5)",cs_neg_s,"(0.7, -0.5)",cs_pos_s,"(0.7, 0.5)",cs_neg_ns,0,0,0,0,,,,,,,,,,,,,,,,,,,,,1,16,40,22,,,,,,,,,,,,,,,,,,,,,,,,,,,342,loss,,,,,,1200.4765731999998,1200.4765731999998,1200.4765731999998,1200.4765731999998,0,,,0,,,0,,,0,,,1201.4070746,1201.4070746,1201.4070746,1201.4070746,32,D,2024-05-15_08h16.35.875,attentional_competition_task,2022.2.4,143.55152207707917,
positions.xlsx,positions_test.xlsx,positions_test_new.xlsx,stimuli.xlsx,stimuli_new.xlsx,stimuli/Social4.png,stimuli/Social3.png,stimuli/Nonsocial4.png,stimuli/Nonsocial3.png,stimuli/Social2.png,stimuli/Social1.png,stimuli/Nonsocial2.png,stimuli/Nonsocial1.png,,,"(-0.7, -0.5)",cs_pos_ns,"(-0.7, 0.5)",cs_pos_s,"(0.7, -0.5)",cs_neg_s,"(0.7, 0.5)",cs_neg_ns,0,0,0,0,,,,,,,,,,,,,,,,,,,,,1,17,41,19,,,,,,,,,,,,,,,,,,,,,,,,,,,339,loss,,,,,,1208.5734092999999,1208.5734092999999,1208.5734092999999,1208.5734092999999,0,,,0,,,0,,,0,,,1209.5734320999998,1209.5734320999998,1209.5734320999998,1209.5734320999998,32,D,2024-05-15_08h16.35.875,attentional_competition_task,2022.2.4,143.55152207707917,
positions.xlsx,positions_test.xlsx,positions_test_new.xlsx,stimuli.xlsx,stimuli_new.xlsx,stimuli/Social4.png,stimuli/Social3.png,stimuli/Nonsocial4.png,stimuli/Nonsocial3.png,stimuli/Social2.png,stimuli/Social1.png,stimuli/Nonsocial2.png,stimuli/Nonsocial1.png,,,"(-0.7, -0.5)",cs_pos_ns,"(-0.7, 0.5)",cs_neg_s,"(0.7, -0.5)",cs_neg_ns,"(0.7, 0.5)",cs_pos_s,0,0,0,0,,,,,,,,,,,,,,,,,,,,,1,18,42,23,,,,,,,,,,,,,,,,,,,,,,,,,,,348,reward,,,,,,1217.8161318,1217.8161318,1217.8161318,1217.8161318,1,0.023986199999853852,0.12795479999977033,0,,,0,,,0,,,1218.4481134,1218.4481134,1218.4481134,1218.4481134,32,D,2024-05-15_08h16.35.875,attentional_competition_task,2022.2.4,143.55152207707917,
positions.xlsx,positions_test.xlsx,positions_test_new.xlsx,stimuli.xlsx,stimuli_new.xlsx,stimuli/Social4.png,stimuli/Social3.png,stimuli/Nonsocial4.png,stimuli/Nonsocial3.png,stimuli/Social2.png,stimuli/Social1.png,stimuli/Nonsocial2.png,stimuli/Nonsocial1.png,,,"(-0.7, -0.5)",cs_neg_ns,"(-0.7, 0.5)",cs_pos_ns,"(0.7, -0.5)",cs_pos_s,"(0.7, 0.5)",cs_neg_s,0,0,0,0,,,,,,,,,,,,,,,,,,,,,1,19,43,16,,,,,,,,,,,,,,,,,,,,,,,,,,,354,reward,,,,,,1225.9963489,1225.9963489,1225.9963489,1225.9963489,0,,,1,0.45373920000020007,0.4537428000003274,0,,,0,,,1226.4547147,1226.4547147,1226.4547147,1226.4547147,32,D,2024-05-15_08h16.35.875,attentional_competition_task,2022.2.4,143.55152207707917,
positions.xlsx,positions_test.xlsx,positions_test_new.xlsx,stimuli.xlsx,stimuli_new.xlsx,stimuli/Social4.png,stimuli/Social3.png,stimuli/Nonsocial4.png,stimuli/Nonsocial3.png,stimuli/Social2.png,stimuli/Social1.png,stimuli/Nonsocial2.png,stimuli/Nonsocial1.png,,,"(-0.7, -0.5)",cs_neg_ns,"(-0.7, 0.5)",cs_neg_s,"(0.7, -0.5)",cs_pos_ns,"(0.7, 0.5)",cs_pos_s,0,0,0,0,,,,,,,,,,,,,,,,,,,,,1,20,44,15,,,,,,,,,,,,,,,,,,,,,,,,,,,363,reward,,,,,,1234.5446109000002,1234.5446109000002,1234.5446109000002,1234.5446109000002,0,,,0,,,1,0.02937210000027335,0.32193850000021484,0,,,1235.4612538,1235.4612538,1235.4612538,1235.4612538,32,D,2024-05-15_08h16.35.875,attentional_competition_task,2022.2.4,143.55152207707917,
positions.xlsx,positions_test.xlsx,positions_test_new.xlsx,stimuli.xlsx,stimuli_new.xlsx,stimuli/Social4.png,stimuli/Social3.png,stimuli/Nonsocial4.png,stimuli/Nonsocial3.png,stimuli/Social2.png,stimuli/Social1.png,stimuli/Nonsocial2.png,stimuli/Nonsocial1.png,,,"(-0.7, -0.5)",cs_pos_s,"(-0.7, 0.5)",cs_neg_s,"(0.7, -0.5)",cs_pos_ns,"(0.7, 0.5)",cs_neg_ns,0,0,0,0,,,,,,,,,,,,,,,,,,,,,1,21,45,7,,,,,,,,,,,,,,,,,,,,,,,,,,,372,reward,,,,,,1244.1276421999999,1244.1276421999999,1244.1276421999999,1244.1276421999999,0,,,0,,,1,0.030316100000163715,0.030320300000312272,0,,,1244.1276421999999,1244.1276421999999,1244.1276421999999,1244.1276421999999,32,D,2024-05-15_08h16.35.875,attentional_competition_task,2022.2.4,143.55152207707917,
positions.xlsx,positions_test.xlsx,positions_test_new.xlsx,stimuli.xlsx,stimuli_new.xlsx,stimuli/Social4.png,stimuli/Social3.png,stimuli/Nonsocial4.png,stimuli/Nonsocial3.png,stimuli/Social2.png,stimuli/Social1.png,stimuli/Nonsocial2.png,stimuli/Nonsocial1.png,,,"(-0.7, -0.5)",cs_pos_ns,"(-0.7, 0.5)",cs_neg_ns,"(0.7, -0.5)",cs_pos_s,"(0.7, 0.5)",cs_neg_s,0,0,0,0,,,,,,,,,,,,,,,,,,,,,1,22,46,20,,,,,,,,,,,,,,,,,,,,,,,,,,,381,reward,,,,,,1251.8216983999998,1251.8216983999998,1251.8216983999998,1251.8216983999998,0,,,0,,,0,,,0,,,1252.6758339,1252.6758339,1252.6758339,1252.6758339,32,D,2024-05-15_08h16.35.875,attentional_competition_task,2022.2.4,143.55152207707917,
positions.xlsx,positions_test.xlsx,positions_test_new.xlsx,stimuli.xlsx,stimuli_new.xlsx,stimuli/Social4.png,stimuli/Social3.png,stimuli/Nonsocial4.png,stimuli/Nonsocial3.png,stimuli/Social2.png,stimuli/Social1.png,stimuli/Nonsocial2.png,stimuli/Nonsocial1.png,,,"(-0.7, -0.5)",cs_neg_ns,"(-0.7, 0.5)",cs_pos_s,"(0.7, -0.5)",cs_neg_s,"(0.7, 0.5)",cs_pos_ns,0,0,0,0,,,,,,,,,,,,,,,,,,,,,1,23,47,12,,,,,,,,,,,,,,,,,,,,,,,,,,,390,reward,,,,,,1260.3838715999998,1260.3838715999998,1260.3838715999998,1260.3838715999998,0,,,0,,,0,,,1,0.03174440000020695,0.09981920000018363,1261.3629841999998,1261.3629841999998,1261.3629841999998,1261.3629841999998,32,D,2024-05-15_08h16.35.875,attentional_competition_task,2022.2.4,143.55152207707917,
positions.xlsx,positions_test.xlsx,positions_test_new.xlsx,stimuli.xlsx,stimuli_new.xlsx,stimuli/Social4.png,stimuli/Social3.png,stimuli/Nonsocial4.png,stimuli/Nonsocial3.png,stimuli/Social2.png,stimuli/Social1.png,stimuli/Nonsocial2.png,stimuli/Nonsocial1.png,,,"(-0.7, -0.5)",cs_pos_s,"(-0.7, 0.5)",cs_neg_s,"(0.7, -0.5)",cs_neg_ns_new,"(0.7, 0.5)",cs_pos_ns,0,0,0,0,,,,,,,,,,,,,,,,,,,,,,,,,,,,,0,0,0,27,0,0,0,0,,,,,,,,,,,,,,,393,reward,,,,,,1267.4044317999999,1267.4044317999999,1267.4044317999999,1267.4044317999999,1,0.5017127000000983,0.5017167000000882,0,,,0,,,0,,,1267.9044310000002,1267.9044310000002,1267.9044310000002,1267.9044310000002,32,D,2024-05-15_08h16.35.875,attentional_competition_task,2022.2.4,143.55152207707917,
positions.xlsx,positions_test.xlsx,positions_test_new.xlsx,stimuli.xlsx,stimuli_new.xlsx,stimuli/Social4.png,stimuli/Social3.png,stimuli/Nonsocial4.png,stimuli/Nonsocial3.png,stimuli/Social2.png,stimuli/Social1.png,stimuli/Nonsocial2.png,stimuli/Nonsocial1.png,,,"(-0.7, -0.5)",cs_pos_s,"(-0.7, 0.5)",cs_neg_s,"(0.7, -0.5)",cs_neg_ns_new,"(0.7, 0.5)",cs_pos_ns,0,0,0,0,,,,,,,,,,,,,,,,,,,,,,,,,,,,,0,0,0,27,1,0,1,0,,,,,,,,,,,,,,,396,reward,,,,,,1268.4182727999998,1268.4182727999998,1268.4182727999998,1268.4182727999998,0,,,0,,,0,,,1,0.434778699999697,0.43478259999983493,1268.8488024,1268.8488024,1268.8488024,1268.8488024,32,D,2024-05-15_08h16.35.875,attentional_competition_task,2022.2.4,143.55152207707917,
positions.xlsx,positions_test.xlsx,positions_test_new.xlsx,stimuli.xlsx,stimuli_new.xlsx,stimuli/Social4.png,stimuli/Social3.png,stimuli/Nonsocial4.png,stimuli/Nonsocial3.png,stimuli/Social2.png,stimuli/Social1.png,stimuli/Nonsocial2.png,stimuli/Nonsocial1.png,,,"(-0.7, -0.5)",cs_pos_s,"(-0.7, 0.5)",cs_neg_s,"(0.7, -0.5)",cs_neg_ns_new,"(0.7, 0.5)",cs_pos_ns,0,0,0,0,,,,,,,,,,,,,,,,,,,,,,,,,,,,,0,0,0,27,2,0,2,0,,,,,,,,,,,,,,,399,reward,,,,,,1269.3487711,1269.3487711,1269.3487711,1269.3487711,0,,,0,,,0,,,1,0.02928390000033687,0.06491330000017115,1269.9181898,1269.9181898,1269.9181898,1269.9181898,32,D,2024-05-15_08h16.35.875,attentional_competition_task,2022.2.4,143.55152207707917,
positions.xlsx,positions_test.xlsx,positions_test_new.xlsx,stimuli.xlsx,stimuli_new.xlsx,stimuli/Social4.png,stimuli/Social3.png,stimuli/Nonsocial4.png,stimuli/Nonsocial3.png,stimuli/Social2.png,stimuli/Social1.png,stimuli/Nonsocial2.png,stimuli/Nonsocial1.png,,,"(-0.7, -0.5)",cs_pos_s,"(-0.7, 0.5)",cs_neg_s,"(0.7, -0.5)",cs_neg_ns_new,"(0.7, 0.5)",cs_pos_ns,0,0,0,0,,,,,,,,,,,,,,,,,,,,,,,,,,,,,0,0,0,27,,,,,,,,,,,,,,,,,,,,,,,,,,,,,,,,,,,,,,,,,,,,,,32,D,2024-05-15_08h16.35.875,attentional_competition_task,2022.2.4,143.55152207707917,
positions.xlsx,positions_test.xlsx,positions_test_new.xlsx,stimuli.xlsx,stimuli_new.xlsx,stimuli/Social4.png,stimuli/Social3.png,stimuli/Nonsocial4.png,stimuli/Nonsocial3.png,stimuli/Social2.png,stimuli/Social1.png,stimuli/Nonsocial2.png,stimuli/Nonsocial1.png,,,"(-0.7, -0.5)",cs_neg_ns,"(-0.7, 0.5)",cs_pos_s,"(0.7, -0.5)",cs_neg_s_new,"(0.7, 0.5)",cs_pos_ns,0,0,0,0,,,,,,,,,,,,,,,,,,,,,,,,,,,,,0,1,1,14,0,0,0,0,,,,,,,,,,,,,,,402,reward,,,,,,1275.5499123000002,1275.5499123000002,1275.5499123000002,1275.5499123000002,0,,,1,0.4061432999997123,0.4061471999998503,0,,,0,,,1275.9596178,1275.9596178,1275.9596178,1275.9596178,32,D,2024-05-15_08h16.35.875,attentional_competition_task,2022.2.4,143.55152207707917,
positions.xlsx,positions_test.xlsx,positions_test_new.xlsx,stimuli.xlsx,stimuli_new.xlsx,stimuli/Social4.png,stimuli/Social3.png,stimuli/Nonsocial4.png,stimuli/Nonsocial3.png,stimuli/Social2.png,stimuli/Social1.png,stimuli/Nonsocial2.png,stimuli/Nonsocial1.png,,,"(-0.7, -0.5)",cs_neg_ns,"(-0.7, 0.5)",cs_pos_s,"(0.7, -0.5)",cs_neg_s_new,"(0.7, 0.5)",cs_pos_ns,0,0,0,0,,,,,,,,,,,,,,,,,,,,,,,,,,,,,0,1,1,14,1,0,1,0,,,,,,,,,,,,,,,405,reward,,,,,,1276.459564,1276.459564,1276.459564,1276.459564,0,,,1,0.028749000000061642,0.119599499999822,0,,,1,0.2655264999998508,0.2655303000001368,1276.7304238,1276.7304238,1276.7304238,1276.7304238,32,D,2024-05-15_08h16.35.875,attentional_competition_task,2022.2.4,143.55152207707917,
positions.xlsx,positions_test.xlsx,positions_test_new.xlsx,stimuli.xlsx,stimuli_new.xlsx,stimuli/Social4.png,stimuli/Social3.png,stimuli/Nonsocial4.png,stimuli/Nonsocial3.png,stimuli/Social2.png,stimuli/Social1.png,stimuli/Nonsocial2.png,stimuli/Nonsocial1.png,,,"(-0.7, -0.5)",cs_neg_ns,"(-0.7, 0.5)",cs_pos_s,"(0.7, -0.5)",cs_neg_s_new,"(0.7, 0.5)",cs_pos_ns,0,0,0,0,,,,,,,,,,,,,,,,,,,,,,,,,,,,,0,1,1,14,2,0,2,0,,,,,,,,,,,,,,,408,reward,,,,,,1277.2304173,1277.2304173,1277.2304173,1277.2304173,0,,,0,,,0,,,1,0.025693999999930384,0.21178199999985736,1278.0637140000001,1278.0637140000001,1278.0637140000001,1278.0637140000001,32,D,2024-05-15_08h16.35.875,attentional_competition_task,2022.2.4,143.55152207707917,
positions.xlsx,positions_test.xlsx,positions_test_new.xlsx,stimuli.xlsx,stimuli_new.xlsx,stimuli/Social4.png,stimuli/Social3.png,stimuli/Nonsocial4.png,stimuli/Nonsocial3.png,stimuli/Social2.png,stimuli/Social1.png,stimuli/Nonsocial2.png,stimuli/Nonsocial1.png,,,"(-0.7, -0.5)",cs_neg_ns,"(-0.7, 0.5)",cs_pos_s,"(0.7, -0.5)",cs_neg_s_new,"(0.7, 0.5)",cs_pos_ns,0,0,0,0,,,,,,,,,,,,,,,,,,,,,,,,,,,,,0,1,1,14,,,,,,,,,,,,,,,,,,,,,,,,,,,,,,,,,,,,,,,,,,,,,,32,D,2024-05-15_08h16.35.875,attentional_competition_task,2022.2.4,143.55152207707917,
positions.xlsx,positions_test.xlsx,positions_test_new.xlsx,stimuli.xlsx,stimuli_new.xlsx,stimuli/Social4.png,stimuli/Social3.png,stimuli/Nonsocial4.png,stimuli/Nonsocial3.png,stimuli/Social2.png,stimuli/Social1.png,stimuli/Nonsocial2.png,stimuli/Nonsocial1.png,,,"(-0.7, -0.5)",cs_pos_s,"(-0.7, 0.5)",cs_pos_ns,"(0.7, -0.5)",cs_neg_ns_new,"(0.7, 0.5)",cs_neg_s,0,0,0,0,,,,,,,,,,,,,,,,,,,,,,,,,,,,,0,2,2,18,0,0,0,0,,,,,,,,,,,,,,,411,reward,,,,,,1283.8412523,1283.8412523,1283.8412523,1283.8412523,1,0.4183079999997972,0.4183117000002312,0,,,0,,,0,,,1284.2648836,1284.2648836,1284.2648836,1284.2648836,32,D,2024-05-15_08h16.35.875,attentional_competition_task,2022.2.4,143.55152207707917,
positions.xlsx,positions_test.xlsx,positions_test_new.xlsx,stimuli.xlsx,stimuli_new.xlsx,stimuli/Social4.png,stimuli/Social3.png,stimuli/Nonsocial4.png,stimuli/Nonsocial3.png,stimuli/Social2.png,stimuli/Social1.png,stimuli/Nonsocial2.png,stimuli/Nonsocial1.png,,,"(-0.7, -0.5)",cs_pos_s,"(-0.7, 0.5)",cs_pos_ns,"(0.7, -0.5)",cs_neg_ns_new,"(0.7, 0.5)",cs_neg_s,0,0,0,0,,,,,,,,,,,,,,,,,,,,,,,,,,,,,0,2,2,18,1,0,1,0,,,,,,,,,,,,,,,414,reward,,,,,,1284.7995617999998,1284.7995617999998,1284.7995617999998,1284.7995617999998,0,,,1,0.029476599999725295,0.029480599999715196,0,,,0,,,1284.7995617999998,1284.7995617999998,1284.7995617999998,1284.7995617999998,32,D,2024-05-15_08h16.35.875,attentional_competition_task,2022.2.4,143.55152207707917,
positions.xlsx,positions_test.xlsx,positions_test_new.xlsx,stimuli.xlsx,stimuli_new.xlsx,stimuli/Social4.png,stimuli/Social3.png,stimuli/Nonsocial4.png,stimuli/Nonsocial3.png,stimuli/Social2.png,stimuli/Social1.png,stimuli/Nonsocial2.png,stimuli/Nonsocial1.png,,,"(-0.7, -0.5)",cs_pos_s,"(-0.7, 0.5)",cs_pos_ns,"(0.7, -0.5)",cs_neg_ns_new,"(0.7, 0.5)",cs_neg_s,0,0,0,0,,,,,,,,,,,,,,,,,,,,,,,,,,,,,0,2,2,18,2,0,2,0,,,,,,,,,,,,,,,417,reward,,,,,,1285.2995279999998,1285.2995279999998,1285.2995279999998,1285.2995279999998,0,,,0,,,0,,,0,,,1286.3550489000002,1286.3550489000002,1286.3550489000002,1286.3550489000002,32,D,2024-05-15_08h16.35.875,attentional_competition_task,2022.2.4,143.55152207707917,
positions.xlsx,positions_test.xlsx,positions_test_new.xlsx,stimuli.xlsx,stimuli_new.xlsx,stimuli/Social4.png,stimuli/Social3.png,stimuli/Nonsocial4.png,stimuli/Nonsocial3.png,stimuli/Social2.png,stimuli/Social1.png,stimuli/Nonsocial2.png,stimuli/Nonsocial1.png,,,"(-0.7, -0.5)",cs_pos_s,"(-0.7, 0.5)",cs_pos_ns,"(0.7, -0.5)",cs_neg_ns_new,"(0.7, 0.5)",cs_neg_s,0,0,0,0,,,,,,,,,,,,,,,,,,,,,,,,,,,,,0,2,2,18,,,,,,,,,,,,,,,,,,,,,,,,,,,,,,,,,,,,,,,,,,,,,,32,D,2024-05-15_08h16.35.875,attentional_competition_task,2022.2.4,143.55152207707917,
positions.xlsx,positions_test.xlsx,positions_test_new.xlsx,stimuli.xlsx,stimuli_new.xlsx,stimuli/Social4.png,stimuli/Social3.png,stimuli/Nonsocial4.png,stimuli/Nonsocial3.png,stimuli/Social2.png,stimuli/Social1.png,stimuli/Nonsocial2.png,stimuli/Nonsocial1.png,,,"(-0.7, -0.5)",cs_neg_s,"(-0.7, 0.5)",cs_pos_ns,"(0.7, -0.5)",cs_neg_ns_new,"(0.7, 0.5)",cs_pos_s,0,0,0,0,,,,,,,,,,,,,,,,,,,,,,,,,,,,,0,3,3,20,0,0,0,0,,,,,,,,,,,,,,,420,reward,,,,,,1293.1256242000002,1293.1256242000002,1293.1256242000002,1293.1256242000002,0,,,0,,,0,,,1,0.5092058999998699,0.5092094000001453,1293.6394711,1293.6394711,1293.6394711,1293.6394711,32,D,2024-05-15_08h16.35.875,attentional_competition_task,2022.2.4,143.55152207707917,
positions.xlsx,positions_test.xlsx,positions_test_new.xlsx,stimuli.xlsx,stimuli_new.xlsx,stimuli/Social4.png,stimuli/Social3.png,stimuli/Nonsocial4.png,stimuli/Nonsocial3.png,stimuli/Social2.png,stimuli/Social1.png,stimuli/Nonsocial2.png,stimuli/Nonsocial1.png,,,"(-0.7, -0.5)",cs_neg_s,"(-0.7, 0.5)",cs_pos_ns,"(0.7, -0.5)",cs_neg_ns_new,"(0.7, 0.5)",cs_pos_s,0,0,0,0,,,,,,,,,,,,,,,,,,,,,,,,,,,,,0,3,3,20,1,0,1,0,,,,,,,,,,,,,,,423,reward,,,,,,1294.1463926999998,1294.1463926999998,1294.1463926999998,1294.1463926999998,0,,,1,0.04468009999982314,0.05853479999996125,0,,,0,,,1294.2019428,1294.2019428,1294.2019428,1294.2019428,32,D,2024-05-15_08h16.35.875,attentional_competition_task,2022.2.4,143.55152207707917,
positions.xlsx,positions_test.xlsx,positions_test_new.xlsx,stimuli.xlsx,stimuli_new.xlsx,stimuli/Social4.png,stimuli/Social3.png,stimuli/Nonsocial4.png,stimuli/Nonsocial3.png,stimuli/Social2.png,stimuli/Social1.png,stimuli/Nonsocial2.png,stimuli/Nonsocial1.png,,,"(-0.7, -0.5)",cs_neg_s,"(-0.7, 0.5)",cs_pos_ns,"(0.7, -0.5)",cs_neg_ns_new,"(0.7, 0.5)",cs_pos_s,0,0,0,0,,,,,,,,,,,,,,,,,,,,,,,,,,,,,0,3,3,20,2,0,2,0,,,,,,,,,,,,,,,426,reward,,,,,,1294.7088765,1294.7088765,1294.7088765,1294.7088765,0,,,1,0.03074270000024626,0.24508550000018658,0,,,0,,,1295.6394050000001,1295.6394050000001,1295.6394050000001,1295.6394050000001,32,D,2024-05-15_08h16.35.875,attentional_competition_task,2022.2.4,143.55152207707917,
positions.xlsx,positions_test.xlsx,positions_test_new.xlsx,stimuli.xlsx,stimuli_new.xlsx,stimuli/Social4.png,stimuli/Social3.png,stimuli/Nonsocial4.png,stimuli/Nonsocial3.png,stimuli/Social2.png,stimuli/Social1.png,stimuli/Nonsocial2.png,stimuli/Nonsocial1.png,,,"(-0.7, -0.5)",cs_neg_s,"(-0.7, 0.5)",cs_pos_ns,"(0.7, -0.5)",cs_neg_ns_new,"(0.7, 0.5)",cs_pos_s,0,0,0,0,,,,,,,,,,,,,,,,,,,,,,,,,,,,,0,3,3,20,,,,,,,,,,,,,,,,,,,,,,,,,,,,,,,,,,,,,,,,,,,,,,32,D,2024-05-15_08h16.35.875,attentional_competition_task,2022.2.4,143.55152207707917,
positions.xlsx,positions_test.xlsx,positions_test_new.xlsx,stimuli.xlsx,stimuli_new.xlsx,stimuli/Social4.png,stimuli/Social3.png,stimuli/Nonsocial4.png,stimuli/Nonsocial3.png,stimuli/Social2.png,stimuli/Social1.png,stimuli/Nonsocial2.png,stimuli/Nonsocial1.png,,,"(-0.7, -0.5)",cs_pos_s_new,"(-0.7, 0.5)",cs_pos_ns,"(0.7, -0.5)",cs_neg_ns,"(0.7, 0.5)",cs_neg_s,0,0,0,0,,,,,,,,,,,,,,,,,,,,,,,,,,,,,0,4,4,33,0,0,0,0,,,,,,,,,,,,,,,429,reward,,,,,,1300.9517125,1300.9517125,1300.9517125,1300.9517125,1,0.508550699999887,0.5156112999998186,0,,,0,,,0,,,1301.4725139999998,1301.4725139999998,1301.4725139999998,1301.4725139999998,32,D,2024-05-15_08h16.35.875,attentional_competition_task,2022.2.4,143.55152207707917,
positions.xlsx,positions_test.xlsx,positions_test_new.xlsx,stimuli.xlsx,stimuli_new.xlsx,stimuli/Social4.png,stimuli/Social3.png,stimuli/Nonsocial4.png,stimuli/Nonsocial3.png,stimuli/Social2.png,stimuli/Social1.png,stimuli/Nonsocial2.png,stimuli/Nonsocial1.png,,,"(-0.7, -0.5)",cs_pos_s_new,"(-0.7, 0.5)",cs_pos_ns,"(0.7, -0.5)",cs_neg_ns,"(0.7, 0.5)",cs_neg_s,0,0,0,0,,,,,,,,,,,,,,,,,,,,,,,,,,,,,0,4,4,33,1,0,1,0,,,,,,,,,,,,,,,432,reward,,,,,,1301.9794158000002,1301.9794158000002,1301.9794158000002,1301.9794158000002,1,0.029213000000254397,0.9671022000002267,0,,,0,,,0,,,1303.4654792,1303.4654792,1303.4654792,1303.4654792,32,D,2024-05-15_08h16.35.875,attentional_competition_task,2022.2.4,143.55152207707917,
positions.xlsx,positions_test.xlsx,positions_test_new.xlsx,stimuli.xlsx,stimuli_new.xlsx,stimuli/Social4.png,stimuli/Social3.png,stimuli/Nonsocial4.png,stimuli/Nonsocial3.png,stimuli/Social2.png,stimuli/Social1.png,stimuli/Nonsocial2.png,stimuli/Nonsocial1.png,,,"(-0.7, -0.5)",cs_pos_s_new,"(-0.7, 0.5)",cs_pos_ns,"(0.7, -0.5)",cs_neg_ns,"(0.7, 0.5)",cs_neg_s,0,0,0,0,,,,,,,,,,,,,,,,,,,,,,,,,,,,,0,4,4,33,,,,,,,,,,,,,,,,,,,,,,,,,,,,,,,,,,,,,,,,,,,,,,32,D,2024-05-15_08h16.35.875,attentional_competition_task,2022.2.4,143.55152207707917,
positions.xlsx,positions_test.xlsx,positions_test_new.xlsx,stimuli.xlsx,stimuli_new.xlsx,stimuli/Social4.png,stimuli/Social3.png,stimuli/Nonsocial4.png,stimuli/Nonsocial3.png,stimuli/Social2.png,stimuli/Social1.png,stimuli/Nonsocial2.png,stimuli/Nonsocial1.png,,,"(-0.7, -0.5)",cs_pos_s_new,"(-0.7, 0.5)",cs_neg_s,"(0.7, -0.5)",cs_pos_ns,"(0.7, 0.5)",cs_neg_ns,0,0,0,0,,,,,,,,,,,,,,,,,,,,,,,,,,,,,0,5,5,29,0,0,0,0,,,,,,,,,,,,,,,435,reward,,,,,,1309.6249384,1309.6249384,1309.6249384,1309.6249384,1,0.6339325999997527,0.6339366999995946,0,,,0,,,0,,,1310.2637917999998,1310.2637917999998,1310.2637917999998,1310.2637917999998,32,D,2024-05-15_08h16.35.875,attentional_competition_task,2022.2.4,143.55152207707917,
positions.xlsx,positions_test.xlsx,positions_test_new.xlsx,stimuli.xlsx,stimuli_new.xlsx,stimuli/Social4.png,stimuli/Social3.png,stimuli/Nonsocial4.png,stimuli/Nonsocial3.png,stimuli/Social2.png,stimuli/Social1.png,stimuli/Nonsocial2.png,stimuli/Nonsocial1.png,,,"(-0.7, -0.5)",cs_pos_s_new,"(-0.7, 0.5)",cs_neg_s,"(0.7, -0.5)",cs_pos_ns,"(0.7, 0.5)",cs_neg_ns,0,0,0,0,,,,,,,,,,,,,,,,,,,,,,,,,,,,,0,5,5,29,1,0,1,0,,,,,,,,,,,,,,,432,loss,,,,,,1310.7985029999998,1310.7985029999998,1310.7985029999998,1310.7985029999998,0,,,1,0.030732199999874865,0.0307358000000022,0,,,0,,,1310.7985029999998,1310.7985029999998,1310.7985029999998,1310.7985029999998,32,D,2024-05-15_08h16.35.875,attentional_competition_task,2022.2.4,143.55152207707917,
positions.xlsx,positions_test.xlsx,positions_test_new.xlsx,stimuli.xlsx,stimuli_new.xlsx,stimuli/Social4.png,stimuli/Social3.png,stimuli/Nonsocial4.png,stimuli/Nonsocial3.png,stimuli/Social2.png,stimuli/Social1.png,stimuli/Nonsocial2.png,stimuli/Nonsocial1.png,,,"(-0.7, -0.5)",cs_pos_s_new,"(-0.7, 0.5)",cs_neg_s,"(0.7, -0.5)",cs_pos_ns,"(0.7, 0.5)",cs_neg_ns,0,0,0,0,,,,,,,,,,,,,,,,,,,,,,,,,,,,,0,5,5,29,2,0,2,0,,,,,,,,,,,,,,,429,loss,,,,,,1311.2984909,1311.2984909,1311.2984909,1311.2984909,1,0.027799100000265753,0.279964000000291,0,,,0,,,0,,,1312.1387355,1312.1387355,1312.1387355,1312.1387355,32,D,2024-05-15_08h16.35.875,attentional_competition_task,2022.2.4,143.55152207707917,
positions.xlsx,positions_test.xlsx,positions_test_new.xlsx,stimuli.xlsx,stimuli_new.xlsx,stimuli/Social4.png,stimuli/Social3.png,stimuli/Nonsocial4.png,stimuli/Nonsocial3.png,stimuli/Social2.png,stimuli/Social1.png,stimuli/Nonsocial2.png,stimuli/Nonsocial1.png,,,"(-0.7, -0.5)",cs_pos_s_new,"(-0.7, 0.5)",cs_neg_s,"(0.7, -0.5)",cs_pos_ns,"(0.7, 0.5)",cs_neg_ns,0,0,0,0,,,,,,,,,,,,,,,,,,,,,,,,,,,,,0,5,5,29,,,,,,,,,,,,,,,,,,,,,,,,,,,,,,,,,,,,,,,,,,,,,,32,D,2024-05-15_08h16.35.875,attentional_competition_task,2022.2.4,143.55152207707917,
positions.xlsx,positions_test.xlsx,positions_test_new.xlsx,stimuli.xlsx,stimuli_new.xlsx,stimuli/Social4.png,stimuli/Social3.png,stimuli/Nonsocial4.png,stimuli/Nonsocial3.png,stimuli/Social2.png,stimuli/Social1.png,stimuli/Nonsocial2.png,stimuli/Nonsocial1.png,,,"(-0.7, -0.5)",cs_pos_ns_new,"(-0.7, 0.5)",cs_pos_s,"(0.7, -0.5)",cs_neg_ns,"(0.7, 0.5)",cs_neg_s,0,0,0,0,,,,,,,,,,,,,,,,,,,,,,,,,,,,,0,6,6,47,0,0,0,0,,,,,,,,,,,,,,,426,loss,,,,,,1317.8121177,1317.8121177,1317.8121177,1317.8121177,0,,,0,,,0,,,1,0.45336520000000746,0.45336889999998675,1318.2704010999998,1318.2704010999998,1318.2704010999998,1318.2704010999998,32,D,2024-05-15_08h16.35.875,attentional_competition_task,2022.2.4,143.55152207707917,
positions.xlsx,positions_test.xlsx,positions_test_new.xlsx,stimuli.xlsx,stimuli_new.xlsx,stimuli/Social4.png,stimuli/Social3.png,stimuli/Nonsocial4.png,stimuli/Nonsocial3.png,stimuli/Social2.png,stimuli/Social1.png,stimuli/Nonsocial2.png,stimuli/Nonsocial1.png,,,"(-0.7, -0.5)",cs_pos_ns_new,"(-0.7, 0.5)",cs_pos_s,"(0.7, -0.5)",cs_neg_ns,"(0.7, 0.5)",cs_neg_s,0,0,0,0,,,,,,,,,,,,,,,,,,,,,,,,,,,,,0,6,6,47,1,0,1,0,,,,,,,,,,,,,,,429,reward,,,,,,1318.8051401,1318.8051401,1318.8051401,1318.8051401,0,,,1,0.031067600000369566,0.031071500000052765,0,,,0,,,1318.8051401,1318.8051401,1318.8051401,1318.8051401,32,D,2024-05-15_08h16.35.875,attentional_competition_task,2022.2.4,143.55152207707917,
positions.xlsx,positions_test.xlsx,positions_test_new.xlsx,stimuli.xlsx,stimuli_new.xlsx,stimuli/Social4.png,stimuli/Social3.png,stimuli/Nonsocial4.png,stimuli/Nonsocial3.png,stimuli/Social2.png,stimuli/Social1.png,stimuli/Nonsocial2.png,stimuli/Nonsocial1.png,,,"(-0.7, -0.5)",cs_pos_ns_new,"(-0.7, 0.5)",cs_pos_s,"(0.7, -0.5)",cs_neg_ns,"(0.7, 0.5)",cs_neg_s,0,0,0,0,,,,,,,,,,,,,,,,,,,,,,,,,,,,,0,6,6,47,2,0,2,0,,,,,,,,,,,,,,,432,reward,,,,,,1319.3329062,1319.3329062,1319.3329062,1319.3329062,1,0.02824060000011741,0.028244200000244746,0,,,0,,,0,,,1319.3329062,1319.3329062,1319.3329062,1319.3329062,32,D,2024-05-15_08h16.35.875,attentional_competition_task,2022.2.4,143.55152207707917,
positions.xlsx,positions_test.xlsx,positions_test_new.xlsx,stimuli.xlsx,stimuli_new.xlsx,stimuli/Social4.png,stimuli/Social3.png,stimuli/Nonsocial4.png,stimuli/Nonsocial3.png,stimuli/Social2.png,stimuli/Social1.png,stimuli/Nonsocial2.png,stimuli/Nonsocial1.png,,,"(-0.7, -0.5)",cs_pos_ns_new,"(-0.7, 0.5)",cs_pos_s,"(0.7, -0.5)",cs_neg_ns,"(0.7, 0.5)",cs_neg_s,0,0,0,0,,,,,,,,,,,,,,,,,,,,,,,,,,,,,0,6,6,47,,,,,,,,,,,,,,,,,,,,,,,,,,,,,,,,,,,,,,,,,,,,,,32,D,2024-05-15_08h16.35.875,attentional_competition_task,2022.2.4,143.55152207707917,
positions.xlsx,positions_test.xlsx,positions_test_new.xlsx,stimuli.xlsx,stimuli_new.xlsx,stimuli/Social4.png,stimuli/Social3.png,stimuli/Nonsocial4.png,stimuli/Nonsocial3.png,stimuli/Social2.png,stimuli/Social1.png,stimuli/Nonsocial2.png,stimuli/Nonsocial1.png,,,"(-0.7, -0.5)",cs_neg_s_new,"(-0.7, 0.5)",cs_pos_s,"(0.7, -0.5)",cs_neg_ns,"(0.7, 0.5)",cs_pos_ns,0,0,0,0,,,,,,,,,,,,,,,,,,,,,,,,,,,,,0,7,7,13,0,0,0,0,,,,,,,,,,,,,,,435,reward,,,,,,1326.0201141,1326.0201141,1326.0201141,1326.0201141,0,,,1,0.43989559999999983,0.44665230000009615,0,,,0,,,1326.4714568000002,1326.4714568000002,1326.4714568000002,1326.4714568000002,32,D,2024-05-15_08h16.35.875,attentional_competition_task,2022.2.4,143.55152207707917,
positions.xlsx,positions_test.xlsx,positions_test_new.xlsx,stimuli.xlsx,stimuli_new.xlsx,stimuli/Social4.png,stimuli/Social3.png,stimuli/Nonsocial4.png,stimuli/Nonsocial3.png,stimuli/Social2.png,stimuli/Social1.png,stimuli/Nonsocial2.png,stimuli/Nonsocial1.png,,,"(-0.7, -0.5)",cs_neg_s_new,"(-0.7, 0.5)",cs_pos_s,"(0.7, -0.5)",cs_neg_ns,"(0.7, 0.5)",cs_pos_ns,0,0,0,0,,,,,,,,,,,,,,,,,,,,,,,,,,,,,0,7,7,13,1,0,1,0,,,,,,,,,,,,,,,432,loss,,,,,,1326.9992395000002,1326.9992395000002,1326.9992395000002,1326.9992395000002,1,0.028051700000105484,0.02805530000023282,0,,,0,,,0,,,1326.9992395000002,1326.9992395000002,1326.9992395000002,1326.9992395000002,32,D,2024-05-15_08h16.35.875,attentional_competition_task,2022.2.4,143.55152207707917,
positions.xlsx,positions_test.xlsx,positions_test_new.xlsx,stimuli.xlsx,stimuli_new.xlsx,stimuli/Social4.png,stimuli/Social3.png,stimuli/Nonsocial4.png,stimuli/Nonsocial3.png,stimuli/Social2.png,stimuli/Social1.png,stimuli/Nonsocial2.png,stimuli/Nonsocial1.png,,,"(-0.7, -0.5)",cs_neg_s_new,"(-0.7, 0.5)",cs_pos_s,"(0.7, -0.5)",cs_neg_ns,"(0.7, 0.5)",cs_pos_ns,0,0,0,0,,,,,,,,,,,,,,,,,,,,,,,,,,,,,0,7,7,13,2,0,2,0,,,,,,,,,,,,,,,429,loss,,,,,,1327.520057,1327.520057,1327.520057,1327.520057,1,0.03693139999995765,0.5251321000000644,0,,,0,,,0,,,1328.5339058000002,1328.5339058000002,1328.5339058000002,1328.5339058000002,32,D,2024-05-15_08h16.35.875,attentional_competition_task,2022.2.4,143.55152207707917,
positions.xlsx,positions_test.xlsx,positions_test_new.xlsx,stimuli.xlsx,stimuli_new.xlsx,stimuli/Social4.png,stimuli/Social3.png,stimuli/Nonsocial4.png,stimuli/Nonsocial3.png,stimuli/Social2.png,stimuli/Social1.png,stimuli/Nonsocial2.png,stimuli/Nonsocial1.png,,,"(-0.7, -0.5)",cs_neg_s_new,"(-0.7, 0.5)",cs_pos_s,"(0.7, -0.5)",cs_neg_ns,"(0.7, 0.5)",cs_pos_ns,0,0,0,0,,,,,,,,,,,,,,,,,,,,,,,,,,,,,0,7,7,13,,,,,,,,,,,,,,,,,,,,,,,,,,,,,,,,,,,,,,,,,,,,,,32,D,2024-05-15_08h16.35.875,attentional_competition_task,2022.2.4,143.55152207707917,
positions.xlsx,positions_test.xlsx,positions_test_new.xlsx,stimuli.xlsx,stimuli_new.xlsx,stimuli/Social4.png,stimuli/Social3.png,stimuli/Nonsocial4.png,stimuli/Nonsocial3.png,stimuli/Social2.png,stimuli/Social1.png,stimuli/Nonsocial2.png,stimuli/Nonsocial1.png,,,"(-0.7, -0.5)",cs_pos_s,"(-0.7, 0.5)",cs_neg_s_new,"(0.7, -0.5)",cs_pos_ns,"(0.7, 0.5)",cs_neg_ns,0,0,0,0,,,,,,,,,,,,,,,,,,,,,,,,,,,,,0,8,8,9,0,0,0,0,,,,,,,,,,,,,,,426,loss,,,,,,1334.8322603999998,1334.8322603999998,1334.8322603999998,1334.8322603999998,0,,,0,,,0,,,1,0.34952190000012706,0.349525800000265,1335.1864180999999,1335.1864180999999,1335.1864180999999,1335.1864180999999,32,D,2024-05-15_08h16.35.875,attentional_competition_task,2022.2.4,143.55152207707917,
positions.xlsx,positions_test.xlsx,positions_test_new.xlsx,stimuli.xlsx,stimuli_new.xlsx,stimuli/Social4.png,stimuli/Social3.png,stimuli/Nonsocial4.png,stimuli/Nonsocial3.png,stimuli/Social2.png,stimuli/Social1.png,stimuli/Nonsocial2.png,stimuli/Nonsocial1.png,,,"(-0.7, -0.5)",cs_pos_s,"(-0.7, 0.5)",cs_neg_s_new,"(0.7, -0.5)",cs_pos_ns,"(0.7, 0.5)",cs_neg_ns,0,0,0,0,,,,,,,,,,,,,,,,,,,,,,,,,,,,,0,8,8,9,1,0,1,0,,,,,,,,,,,,,,,429,reward,,,,,,1335.7141472,1335.7141472,1335.7141472,1335.7141472,0,,,0,,,1,0.029556400000274152,0.029560100000253442,0,,,1335.7141472,1335.7141472,1335.7141472,1335.7141472,32,D,2024-05-15_08h16.35.875,attentional_competition_task,2022.2.4,143.55152207707917,
positions.xlsx,positions_test.xlsx,positions_test_new.xlsx,stimuli.xlsx,stimuli_new.xlsx,stimuli/Social4.png,stimuli/Social3.png,stimuli/Nonsocial4.png,stimuli/Nonsocial3.png,stimuli/Social2.png,stimuli/Social1.png,stimuli/Nonsocial2.png,stimuli/Nonsocial1.png,,,"(-0.7, -0.5)",cs_pos_s,"(-0.7, 0.5)",cs_neg_s_new,"(0.7, -0.5)",cs_pos_ns,"(0.7, 0.5)",cs_neg_ns,0,0,0,0,,,,,,,,,,,,,,,,,,,,,,,,,,,,,0,8,8,9,2,0,2,0,,,,,,,,,,,,,,,432,reward,,,,,,1336.2488594,1336.2488594,1336.2488594,1336.2488594,1,0.024707699999908073,0.024711199999728706,0,,,0,,,0,,,1336.2488594,1336.2488594,1336.2488594,1336.2488594,32,D,2024-05-15_08h16.35.875,attentional_competition_task,2022.2.4,143.55152207707917,
positions.xlsx,positions_test.xlsx,positions_test_new.xlsx,stimuli.xlsx,stimuli_new.xlsx,stimuli/Social4.png,stimuli/Social3.png,stimuli/Nonsocial4.png,stimuli/Nonsocial3.png,stimuli/Social2.png,stimuli/Social1.png,stimuli/Nonsocial2.png,stimuli/Nonsocial1.png,,,"(-0.7, -0.5)",cs_pos_s,"(-0.7, 0.5)",cs_neg_s_new,"(0.7, -0.5)",cs_pos_ns,"(0.7, 0.5)",cs_neg_ns,0,0,0,0,,,,,,,,,,,,,,,,,,,,,,,,,,,,,0,8,8,9,3,0,3,0,,,,,,,,,,,,,,,429,loss,,,,,,1336.7766697999998,1336.7766697999998,1336.7766697999998,1336.7766697999998,0,,,1,0.029078600000048027,0.02908239999987927,0,,,0,,,1336.7766697999998,1336.7766697999998,1336.7766697999998,1336.7766697999998,32,D,2024-05-15_08h16.35.875,attentional_competition_task,2022.2.4,143.55152207707917,
