posFile,posFileTest,posFileTestNew,stimFile,stimFileNew,cs_neg_s,cs_pos_s,cs_neg_ns,cs_pos_ns,cs_neg_s_new,cs_pos_s_new,cs_neg_ns_new,cs_pos_ns_new,stim,position,position1,stim1,position2,stim2,position3,stim3,position4,stim4,blocks.thisRepN,blocks.thisTrialN,blocks.thisN,blocks.thisIndex,ratingtrials1.thisRepN,ratingtrials1.thisTrialN,ratingtrials1.thisN,ratingtrials1.thisIndex,search_task_trials.thisRepN,search_task_trials.thisTrialN,search_task_trials.thisN,search_task_trials.thisIndex,learning_trials.thisRepN,learning_trials.thisTrialN,learning_trials.thisN,learning_trials.thisIndex,trials.thisRepN,trials.thisTrialN,trials.thisN,trials.thisIndex,ratingtrials2.thisRepN,ratingtrials2.thisTrialN,ratingtrials2.thisN,ratingtrials2.thisIndex,testtrials.thisRepN,testtrials.thisTrialN,testtrials.thisN,testtrials.thisIndex,loop_test.thisRepN,loop_test.thisTrialN,loop_test.thisN,loop_test.thisIndex,testtrials_novelty.thisRepN,testtrials_novelty.thisTrialN,testtrials_novelty.thisN,testtrials_novelty.thisIndex,loop_test_novelty.thisRepN,loop_test_novelty.thisTrialN,loop_test_novelty.thisN,loop_test_novelty.thisIndex,ratingtrials3.thisRepN,ratingtrials3.thisTrialN,ratingtrials3.thisN,ratingtrials3.thisIndex,textStart.started,textStartExp.started,imageRating.started,sliderStim.response,sliderStim.rt,textStartSearch.started,target_positions,distractor_positions,textStartTask.started,image.started,score,outcome,roi.numLooks,roi.timesOn,roi.timesOff,imageFeedback.started,textTestInstr.started,test_image1.started,test_image2.started,test_image3.started,test_image4.started,test_roi1.numLooks,test_roi1.timesOn,test_roi1.timesOff,test_roi2.numLooks,test_roi2.timesOn,test_roi2.timesOff,test_roi3.numLooks,test_roi3.timesOn,test_roi3.timesOff,test_roi4.numLooks,test_roi4.timesOn,test_roi4.timesOff,test_image_feedback1.started,test_image_feedback2.started,test_iamge_feedback3.started,test_iamge_feedback4.started,participant,group,date,expName,psychopyVersion,frameRate,
positions.xlsx,positions_test.xlsx,positions_test_new.xlsx,stimuli.xlsx,stimuli_new.xlsx,stimuli/Social4.png,stimuli/Social3.png,stimuli/Nonsocial4.png,stimuli/Nonsocial3.png,stimuli/Social2.png,stimuli/Social1.png,stimuli/Nonsocial2.png,stimuli/Nonsocial1.png,cs_neg_ns,,,,,,,,,,0,0,0,0,0,0,0,1,,,,,,,,,,,,,,,,,,,,,,,,,,,,,,,,,,,,,12.23692539986223,186.18274249974638,194.1030037999153,9.0,18.7997183999978,,,,,,,,,,,,,,,,,,,,,,,,,,,,,,,,,9,D,2024-04-19_09h04.06.223,attentional_competition_task,2022.2.4,143.96795891748653,
positions.xlsx,positions_test.xlsx,positions_test_new.xlsx,stimuli.xlsx,stimuli_new.xlsx,stimuli/Social4.png,stimuli/Social3.png,stimuli/Nonsocial4.png,stimuli/Nonsocial3.png,stimuli/Social2.png,stimuli/Social1.png,stimuli/Nonsocial2.png,stimuli/Nonsocial1.png,cs_pos_ns,,,,,,,,,,0,0,0,0,0,1,1,3,,,,,,,,,,,,,,,,,,,,,,,,,,,,,,,,,,,,,,,213.78280919976532,6.0,1.9830430997535586,,,,,,,,,,,,,,,,,,,,,,,,,,,,,,,,,9,D,2024-04-19_09h04.06.223,attentional_competition_task,2022.2.4,143.96795891748653,
positions.xlsx,positions_test.xlsx,positions_test_new.xlsx,stimuli.xlsx,stimuli_new.xlsx,stimuli/Social4.png,stimuli/Social3.png,stimuli/Nonsocial4.png,stimuli/Nonsocial3.png,stimuli/Social2.png,stimuli/Social1.png,stimuli/Nonsocial2.png,stimuli/Nonsocial1.png,cs_neg_s,,,,,,,,,,0,0,0,0,0,2,2,0,,,,,,,,,,,,,,,,,,,,,,,,,,,,,,,,,,,,,,,217.51184109970927,4.0,3.046792299952358,,,,,,,,,,,,,,,,,,,,,,,,,,,,,,,,,9,D,2024-04-19_09h04.06.223,attentional_competition_task,2022.2.4,143.96795891748653,
positions.xlsx,positions_test.xlsx,positions_test_new.xlsx,stimuli.xlsx,stimuli_new.xlsx,stimuli/Social4.png,stimuli/Social3.png,stimuli/Nonsocial4.png,stimuli/Nonsocial3.png,stimuli/Social2.png,stimuli/Social1.png,stimuli/Nonsocial2.png,stimuli/Nonsocial1.png,cs_pos_s,,,,,,,,,,0,0,0,0,0,3,3,2,,,,,,,,,,,,,,,,,,,,,,,,,,,,,,,,,,,,,,,220.93530509993434,3.0,2.255852799862623,,,,,,,,,,,,,,,,,,,,,,,,,,,,,,,,,9,D,2024-04-19_09h04.06.223,attentional_competition_task,2022.2.4,143.96795891748653,
positions.xlsx,positions_test.xlsx,positions_test_new.xlsx,stimuli.xlsx,stimuli_new.xlsx,stimuli/Social4.png,stimuli/Social3.png,stimuli/Nonsocial4.png,stimuli/Nonsocial3.png,stimuli/Social2.png,stimuli/Social1.png,stimuli/Nonsocial2.png,stimuli/Nonsocial1.png,,,,,,,,,,,0,0,0,0,,,,,0,0,0,0,,,,,,,,,,,,,,,,,,,,,,,,,,,,,,,,,,,,,,223.34491449967027,"[[0.9, -0.8], [-0.9, 0.7], [0.22499999999999998, 0.19999999999999996], [-0.45, -0.30000000000000004], [0.9, -0.30000000000000004], [-0.22499999999999998, 0.19999999999999996], [-0.22499999999999998, -0.8], [-0.9, 0.19999999999999996], [-0.675, -0.30000000000000004], [-0.45, -0.8], [0.22499999999999998, -0.30000000000000004], [-0.22499999999999998, 0.7], [-0.675, 0.19999999999999996], [0.0, 0.19999999999999996], [0.0, -0.30000000000000004]]","[[-0.9, -0.8], [0.6749999999999999, -0.8], [0.9, 0.19999999999999996], [-0.45, 0.19999999999999996], [0.22499999999999998, -0.8], [0.45000000000000007, 0.19999999999999996], [0.6749999999999999, 0.7], [0.45000000000000007, -0.8], [-0.675, -0.8], [-0.45, 0.7], [0.0, 0.7], [-0.675, 0.7], [0.6749999999999999, 0.19999999999999996], [0.9, 0.7], [-0.22499999999999998, -0.30000000000000004]]",,,,,,,,,,,,,,,,,,,,,,,,,,,,,,9,D,2024-04-19_09h04.06.223,attentional_competition_task,2022.2.4,143.96795891748653,
positions.xlsx,positions_test.xlsx,positions_test_new.xlsx,stimuli.xlsx,stimuli_new.xlsx,stimuli/Social4.png,stimuli/Social3.png,stimuli/Nonsocial4.png,stimuli/Nonsocial3.png,stimuli/Social2.png,stimuli/Social1.png,stimuli/Nonsocial2.png,stimuli/Nonsocial1.png,,,,,,,,,,,0,0,0,0,,,,,1,0,1,0,,,,,,,,,,,,,,,,,,,,,,,,,,,,,,,,,,,,,,,"[[-0.45, -0.8], [0.6749999999999999, -0.8], [-0.675, 0.19999999999999996], [0.22499999999999998, -0.8], [0.22499999999999998, 0.19999999999999996], [0.45000000000000007, 0.19999999999999996], [-0.22499999999999998, -0.8], [0.9, -0.8], [-0.22499999999999998, 0.7], [0.9, -0.30000000000000004], [-0.9, -0.8], [-0.45, 0.7], [0.0, 0.7], [-0.9, -0.30000000000000004], [-0.45, 0.19999999999999996]]","[[0.45000000000000007, -0.30000000000000004], [-0.22499999999999998, -0.30000000000000004], [0.22499999999999998, -0.30000000000000004], [-0.9, 0.7], [-0.675, -0.8], [-0.45, -0.30000000000000004], [-0.675, 0.7], [-0.675, -0.30000000000000004], [0.6749999999999999, -0.30000000000000004], [-0.9, 0.19999999999999996], [0.6749999999999999, 0.7], [0.6749999999999999, 0.19999999999999996], [0.22499999999999998, 0.7], [0.0, -0.8], [0.0, -0.30000000000000004]]",,,,,,,,,,,,,,,,,,,,,,,,,,,,,,9,D,2024-04-19_09h04.06.223,attentional_competition_task,2022.2.4,143.96795891748653,
positions.xlsx,positions_test.xlsx,positions_test_new.xlsx,stimuli.xlsx,stimuli_new.xlsx,stimuli/Social4.png,stimuli/Social3.png,stimuli/Nonsocial4.png,stimuli/Nonsocial3.png,stimuli/Social2.png,stimuli/Social1.png,stimuli/Nonsocial2.png,stimuli/Nonsocial1.png,cs_neg_s,"(0.7, 0.5)",,,,,,,,,0,0,0,0,,,,,,,,,0,0,0,2,,,,,,,,,,,,,,,,,,,,,,,,,,,,,,,,,,,,,299.32102119969204,312.1190841998905,-3,loss,1,0.24311659997329116,0.24312020000070333,312.3761016000062,,,,,,,,,,,,,,,,,,,,,,9,D,2024-04-19_09h04.06.223,attentional_competition_task,2022.2.4,143.96795891748653,
positions.xlsx,positions_test.xlsx,positions_test_new.xlsx,stimuli.xlsx,stimuli_new.xlsx,stimuli/Social4.png,stimuli/Social3.png,stimuli/Nonsocial4.png,stimuli/Nonsocial3.png,stimuli/Social2.png,stimuli/Social1.png,stimuli/Nonsocial2.png,stimuli/Nonsocial1.png,cs_neg_ns,"(-0.7, 0.5)",,,,,,,,,0,0,0,0,,,,,,,,,0,1,1,8,,,,,,,,,,,,,,,,,,,,,,,,,,,,,,,,,,,,,,319.96611229982227,-6,loss,1,0.41662759985774755,0.4166310001164675,320.3895762995817,,,,,,,,,,,,,,,,,,,,,,9,D,2024-04-19_09h04.06.223,attentional_competition_task,2022.2.4,143.96795891748653,
positions.xlsx,positions_test.xlsx,positions_test_new.xlsx,stimuli.xlsx,stimuli_new.xlsx,stimuli/Social4.png,stimuli/Social3.png,stimuli/Nonsocial4.png,stimuli/Nonsocial3.png,stimuli/Social2.png,stimuli/Social1.png,stimuli/Nonsocial2.png,stimuli/Nonsocial1.png,cs_pos_ns,"(0.7, -0.5)",,,,,,,,,0,0,0,0,,,,,,,,,0,2,2,15,,,,,,,,,,,,,,,,,,,,,,,,,,,,,,,,,,,,,,327.61149529973045,-3,reward,1,0.2916125999763608,0.2916160002350807,327.9239452998154,,,,,,,,,,,,,,,,,,,,,,9,D,2024-04-19_09h04.06.223,attentional_competition_task,2022.2.4,143.96795891748653,
positions.xlsx,positions_test.xlsx,positions_test_new.xlsx,stimuli.xlsx,stimuli_new.xlsx,stimuli/Social4.png,stimuli/Social3.png,stimuli/Nonsocial4.png,stimuli/Nonsocial3.png,stimuli/Social2.png,stimuli/Social1.png,stimuli/Nonsocial2.png,stimuli/Nonsocial1.png,cs_pos_ns,"(-0.7, 0.5)",,,,,,,,,0,0,0,0,,,,,,,,,0,3,3,12,,,,,,,,,,,,,,,,,,,,,,,,,,,,,,,,,,,,,,335.4584071999416,0,reward,1,0.9930253000929952,0.9930286998860538,336.4583783997223,,,,,,,,,,,,,,,,,,,,,,9,D,2024-04-19_09h04.06.223,attentional_competition_task,2022.2.4,143.96795891748653,
positions.xlsx,positions_test.xlsx,positions_test_new.xlsx,stimuli.xlsx,stimuli_new.xlsx,stimuli/Social4.png,stimuli/Social3.png,stimuli/Nonsocial4.png,stimuli/Nonsocial3.png,stimuli/Social2.png,stimuli/Social1.png,stimuli/Nonsocial2.png,stimuli/Nonsocial1.png,cs_neg_s,"(0.7, -0.5)",,,,,,,,,0,0,0,0,,,,,,,,,0,4,4,3,,,,,,,,,,,,,,,,,,,,,,,,,,,,,,,,,,,,,,343.930314199999,0,none,0,,,346.9440430998802,,,,,,,,,,,,,,,,,,,,,,9,D,2024-04-19_09h04.06.223,attentional_competition_task,2022.2.4,143.96795891748653,
positions.xlsx,positions_test.xlsx,positions_test_new.xlsx,stimuli.xlsx,stimuli_new.xlsx,stimuli/Social4.png,stimuli/Social3.png,stimuli/Nonsocial4.png,stimuli/Nonsocial3.png,stimuli/Social2.png,stimuli/Social1.png,stimuli/Nonsocial2.png,stimuli/Nonsocial1.png,cs_pos_s,"(0.7, 0.5)",,,,,,,,,0,0,0,0,,,,,,,,,0,5,5,6,,,,,,,,,,,,,,,,,,,,,,,,,,,,,,,,,,,,,,354.7423581997864,3,reward,1,0.6391551000997424,0.6391591997817159,355.38816609978676,,,,,,,,,,,,,,,,,,,,,,9,D,2024-04-19_09h04.06.223,attentional_competition_task,2022.2.4,143.96795891748653,
positions.xlsx,positions_test.xlsx,positions_test_new.xlsx,stimuli.xlsx,stimuli_new.xlsx,stimuli/Social4.png,stimuli/Social3.png,stimuli/Nonsocial4.png,stimuli/Nonsocial3.png,stimuli/Social2.png,stimuli/Social1.png,stimuli/Nonsocial2.png,stimuli/Nonsocial1.png,cs_pos_s,"(-0.7, 0.5)",,,,,,,,,0,0,0,0,,,,,,,,,0,6,6,4,,,,,,,,,,,,,,,,,,,,,,,,,,,,,,,,,,,,,,363.50587179977447,6,reward,1,0.709017800167203,0.7090215003117919,364.2211024998687,,,,,,,,,,,,,,,,,,,,,,9,D,2024-04-19_09h04.06.223,attentional_competition_task,2022.2.4,143.96795891748653,
positions.xlsx,positions_test.xlsx,positions_test_new.xlsx,stimuli.xlsx,stimuli_new.xlsx,stimuli/Social4.png,stimuli/Social3.png,stimuli/Nonsocial4.png,stimuli/Nonsocial3.png,stimuli/Social2.png,stimuli/Social1.png,stimuli/Nonsocial2.png,stimuli/Nonsocial1.png,cs_pos_s,"(-0.7, -0.5)",,,,,,,,,0,0,0,0,,,,,,,,,0,7,7,5,,,,,,,,,,,,,,,,,,,,,,,,,,,,,,,,,,,,,,371.3666678997688,9,reward,1,0.6734683001413941,0.6734719001688063,372.04721419978887,,,,,,,,,,,,,,,,,,,,,,9,D,2024-04-19_09h04.06.223,attentional_competition_task,2022.2.4,143.96795891748653,
positions.xlsx,positions_test.xlsx,positions_test_new.xlsx,stimuli.xlsx,stimuli_new.xlsx,stimuli/Social4.png,stimuli/Social3.png,stimuli/Nonsocial4.png,stimuli/Nonsocial3.png,stimuli/Social2.png,stimuli/Social1.png,stimuli/Nonsocial2.png,stimuli/Nonsocial1.png,cs_neg_ns,"(0.7, 0.5)",,,,,,,,,0,0,0,0,,,,,,,,,0,8,8,10,,,,,,,,,,,,,,,,,,,,,,,,,,,,,,,,,,,,,,379.66494009969756,9,none,0,,,382.6787645998411,,,,,,,,,,,,,,,,,,,,,,9,D,2024-04-19_09h04.06.223,attentional_competition_task,2022.2.4,143.96795891748653,
positions.xlsx,positions_test.xlsx,positions_test_new.xlsx,stimuli.xlsx,stimuli_new.xlsx,stimuli/Social4.png,stimuli/Social3.png,stimuli/Nonsocial4.png,stimuli/Nonsocial3.png,stimuli/Social2.png,stimuli/Social1.png,stimuli/Nonsocial2.png,stimuli/Nonsocial1.png,cs_pos_ns,"(-0.7, -0.5)",,,,,,,,,0,0,0,0,,,,,,,,,0,9,9,13,,,,,,,,,,,,,,,,,,,,,,,,,,,,,,,,,,,,,,389.6437486996874,12,reward,1,0.5487759998068213,0.5487796999514103,390.2062071999535,,,,,,,,,,,,,,,,,,,,,,9,D,2024-04-19_09h04.06.223,attentional_competition_task,2022.2.4,143.96795891748653,
positions.xlsx,positions_test.xlsx,positions_test_new.xlsx,stimuli.xlsx,stimuli_new.xlsx,stimuli/Social4.png,stimuli/Social3.png,stimuli/Nonsocial4.png,stimuli/Nonsocial3.png,stimuli/Social2.png,stimuli/Social1.png,stimuli/Nonsocial2.png,stimuli/Nonsocial1.png,cs_neg_ns,"(0.7, -0.5)",,,,,,,,,0,0,0,0,,,,,,,,,0,10,10,11,,,,,,,,,,,,,,,,,,,,,,,,,,,,,,,,,,,,,,397.03923129988834,9,loss,1,0.242945599835366,0.24294929997995496,397.289235400036,,,,,,,,,,,,,,,,,,,,,,9,D,2024-04-19_09h04.06.223,attentional_competition_task,2022.2.4,143.96795891748653,
positions.xlsx,positions_test.xlsx,positions_test_new.xlsx,stimuli.xlsx,stimuli_new.xlsx,stimuli/Social4.png,stimuli/Social3.png,stimuli/Nonsocial4.png,stimuli/Nonsocial3.png,stimuli/Social2.png,stimuli/Social1.png,stimuli/Nonsocial2.png,stimuli/Nonsocial1.png,cs_pos_ns,"(0.7, 0.5)",,,,,,,,,0,0,0,0,,,,,,,,,0,11,11,14,,,,,,,,,,,,,,,,,,,,,,,,,,,,,,,,,,,,,,404.5806045997888,12,reward,1,0.771327500231564,0.771331200376153,405.35832179989666,,,,,,,,,,,,,,,,,,,,,,9,D,2024-04-19_09h04.06.223,attentional_competition_task,2022.2.4,143.96795891748653,
positions.xlsx,positions_test.xlsx,positions_test_new.xlsx,stimuli.xlsx,stimuli_new.xlsx,stimuli/Social4.png,stimuli/Social3.png,stimuli/Nonsocial4.png,stimuli/Nonsocial3.png,stimuli/Social2.png,stimuli/Social1.png,stimuli/Nonsocial2.png,stimuli/Nonsocial1.png,cs_neg_s,"(-0.7, 0.5)",,,,,,,,,0,0,0,0,,,,,,,,,0,12,12,0,,,,,,,,,,,,,,,,,,,,,,,,,,,,,,,,,,,,,,412.29556909995154,12,none,0,,,415.3093185997568,,,,,,,,,,,,,,,,,,,,,,9,D,2024-04-19_09h04.06.223,attentional_competition_task,2022.2.4,143.96795891748653,
positions.xlsx,positions_test.xlsx,positions_test_new.xlsx,stimuli.xlsx,stimuli_new.xlsx,stimuli/Social4.png,stimuli/Social3.png,stimuli/Nonsocial4.png,stimuli/Nonsocial3.png,stimuli/Social2.png,stimuli/Social1.png,stimuli/Nonsocial2.png,stimuli/Nonsocial1.png,cs_pos_s,"(0.7, -0.5)",,,,,,,,,0,0,0,0,,,,,,,,,0,13,13,7,,,,,,,,,,,,,,,,,,,,,,,,,,,,,,,,,,,,,,423.447863899637,15,reward,1,0.715234899893403,0.7152385995723307,424.17009079968557,,,,,,,,,,,,,,,,,,,,,,9,D,2024-04-19_09h04.06.223,attentional_competition_task,2022.2.4,143.96795891748653,
positions.xlsx,positions_test.xlsx,positions_test_new.xlsx,stimuli.xlsx,stimuli_new.xlsx,stimuli/Social4.png,stimuli/Social3.png,stimuli/Nonsocial4.png,stimuli/Nonsocial3.png,stimuli/Social2.png,stimuli/Social1.png,stimuli/Nonsocial2.png,stimuli/Nonsocial1.png,cs_neg_s,"(-0.7, -0.5)",,,,,,,,,0,0,0,0,,,,,,,,,0,14,14,1,,,,,,,,,,,,,,,,,,,,,,,,,,,,,,,,,,,,,,431.4544738000259,15,none,0,,,434.468291899655,,,,,,,,,,,,,,,,,,,,,,9,D,2024-04-19_09h04.06.223,attentional_competition_task,2022.2.4,143.96795891748653,
positions.xlsx,positions_test.xlsx,positions_test_new.xlsx,stimuli.xlsx,stimuli_new.xlsx,stimuli/Social4.png,stimuli/Social3.png,stimuli/Nonsocial4.png,stimuli/Nonsocial3.png,stimuli/Social2.png,stimuli/Social1.png,stimuli/Nonsocial2.png,stimuli/Nonsocial1.png,cs_neg_ns,"(-0.7, -0.5)",,,,,,,,,0,0,0,0,,,,,,,,,0,15,15,9,,,,,,,,,,,,,,,,,,,,,,,,,,,,,,,,,,,,,,442.0721356999129,12,loss,1,1.0484533999115229,1.0484567997045815,443.12763719959185,,,,,,,,,,,,,,,,,,,,,,9,D,2024-04-19_09h04.06.223,attentional_competition_task,2022.2.4,143.96795891748653,
positions.xlsx,positions_test.xlsx,positions_test_new.xlsx,stimuli.xlsx,stimuli_new.xlsx,stimuli/Social4.png,stimuli/Social3.png,stimuli/Nonsocial4.png,stimuli/Nonsocial3.png,stimuli/Social2.png,stimuli/Social1.png,stimuli/Nonsocial2.png,stimuli/Nonsocial1.png,cs_pos_ns,"(-0.7, 0.5)",,,,,,,,,0,0,0,0,,,,,,,,,1,0,16,12,,,,,,,,,,,,,,,,,,,,,,,,,,,,,,,,,,,,,,450.4398437999189,15,reward,1,0.8610708001069725,0.8610744001343846,451.30784889962524,,,,,,,,,,,,,,,,,,,,,,9,D,2024-04-19_09h04.06.223,attentional_competition_task,2022.2.4,143.96795891748653,
positions.xlsx,positions_test.xlsx,positions_test_new.xlsx,stimuli.xlsx,stimuli_new.xlsx,stimuli/Social4.png,stimuli/Social3.png,stimuli/Nonsocial4.png,stimuli/Nonsocial3.png,stimuli/Social2.png,stimuli/Social1.png,stimuli/Nonsocial2.png,stimuli/Nonsocial1.png,cs_neg_ns,"(0.7, -0.5)",,,,,,,,,0,0,0,0,,,,,,,,,1,1,17,11,,,,,,,,,,,,,,,,,,,,,,,,,,,,,,,,,,,,,,458.61312649957836,15,none,0,,,461.6268914998509,,,,,,,,,,,,,,,,,,,,,,9,D,2024-04-19_09h04.06.223,attentional_competition_task,2022.2.4,143.96795891748653,
positions.xlsx,positions_test.xlsx,positions_test_new.xlsx,stimuli.xlsx,stimuli_new.xlsx,stimuli/Social4.png,stimuli/Social3.png,stimuli/Nonsocial4.png,stimuli/Nonsocial3.png,stimuli/Social2.png,stimuli/Social1.png,stimuli/Nonsocial2.png,stimuli/Nonsocial1.png,cs_neg_s,"(-0.7, 0.5)",,,,,,,,,0,0,0,0,,,,,,,,,1,2,18,0,,,,,,,,,,,,,,,,,,,,,,,,,,,,,,,,,,,,,,469.28627789998427,15,none,0,,,472.2931101997383,,,,,,,,,,,,,,,,,,,,,,9,D,2024-04-19_09h04.06.223,attentional_competition_task,2022.2.4,143.96795891748653,
positions.xlsx,positions_test.xlsx,positions_test_new.xlsx,stimuli.xlsx,stimuli_new.xlsx,stimuli/Social4.png,stimuli/Social3.png,stimuli/Nonsocial4.png,stimuli/Nonsocial3.png,stimuli/Social2.png,stimuli/Social1.png,stimuli/Nonsocial2.png,stimuli/Nonsocial1.png,cs_neg_ns,"(0.7, 0.5)",,,,,,,,,0,0,0,0,,,,,,,,,1,3,19,10,,,,,,,,,,,,,,,,,,,,,,,,,,,,,,,,,,,,,,479.8414821997285,15,none,0,,,482.84830359974876,,,,,,,,,,,,,,,,,,,,,,9,D,2024-04-19_09h04.06.223,attentional_competition_task,2022.2.4,143.96795891748653,
positions.xlsx,positions_test.xlsx,positions_test_new.xlsx,stimuli.xlsx,stimuli_new.xlsx,stimuli/Social4.png,stimuli/Social3.png,stimuli/Nonsocial4.png,stimuli/Nonsocial3.png,stimuli/Social2.png,stimuli/Social1.png,stimuli/Nonsocial2.png,stimuli/Nonsocial1.png,cs_pos_ns,"(0.7, -0.5)",,,,,,,,,0,0,0,0,,,,,,,,,1,4,20,15,,,,,,,,,,,,,,,,,,,,,,,,,,,,,,,,,,,,,,490.04936739988625,18,reward,1,0.7988688996993005,0.798872800078243,490.85487719997764,,,,,,,,,,,,,,,,,,,,,,9,D,2024-04-19_09h04.06.223,attentional_competition_task,2022.2.4,143.96795891748653,
positions.xlsx,positions_test.xlsx,positions_test_new.xlsx,stimuli.xlsx,stimuli_new.xlsx,stimuli/Social4.png,stimuli/Social3.png,stimuli/Nonsocial4.png,stimuli/Nonsocial3.png,stimuli/Social2.png,stimuli/Social1.png,stimuli/Nonsocial2.png,stimuli/Nonsocial1.png,cs_neg_s,"(-0.7, -0.5)",,,,,,,,,0,0,0,0,,,,,,,,,1,5,21,1,,,,,,,,,,,,,,,,,,,,,,,,,,,,,,,,,,,,,,498.49347439967096,18,none,0,,,501.5002727997489,,,,,,,,,,,,,,,,,,,,,,9,D,2024-04-19_09h04.06.223,attentional_competition_task,2022.2.4,143.96795891748653,
positions.xlsx,positions_test.xlsx,positions_test_new.xlsx,stimuli.xlsx,stimuli_new.xlsx,stimuli/Social4.png,stimuli/Social3.png,stimuli/Nonsocial4.png,stimuli/Nonsocial3.png,stimuli/Social2.png,stimuli/Social1.png,stimuli/Nonsocial2.png,stimuli/Nonsocial1.png,cs_pos_ns,"(0.7, 0.5)",,,,,,,,,0,0,0,0,,,,,,,,,1,6,22,14,,,,,,,,,,,,,,,,,,,,,,,,,,,,,,,,,,,,,,508.70838309964165,21,reward,1,0.5698635000735521,0.5698669999837875,509.28466330002993,,,,,,,,,,,,,,,,,,,,,,9,D,2024-04-19_09h04.06.223,attentional_competition_task,2022.2.4,143.96795891748653,
positions.xlsx,positions_test.xlsx,positions_test_new.xlsx,stimuli.xlsx,stimuli_new.xlsx,stimuli/Social4.png,stimuli/Social3.png,stimuli/Nonsocial4.png,stimuli/Nonsocial3.png,stimuli/Social2.png,stimuli/Social1.png,stimuli/Nonsocial2.png,stimuli/Nonsocial1.png,cs_neg_s,"(0.7, 0.5)",,,,,,,,,0,0,0,0,,,,,,,,,1,7,23,2,,,,,,,,,,,,,,,,,,,,,,,,,,,,,,,,,,,,,,516.9510090998374,18,loss,1,0.18761749984696507,0.18762099975720048,517.1454443000257,,,,,,,,,,,,,,,,,,,,,,9,D,2024-04-19_09h04.06.223,attentional_competition_task,2022.2.4,143.96795891748653,
positions.xlsx,positions_test.xlsx,positions_test_new.xlsx,stimuli.xlsx,stimuli_new.xlsx,stimuli/Social4.png,stimuli/Social3.png,stimuli/Nonsocial4.png,stimuli/Nonsocial3.png,stimuli/Social2.png,stimuli/Social1.png,stimuli/Nonsocial2.png,stimuli/Nonsocial1.png,cs_pos_s,"(-0.7, -0.5)",,,,,,,,,0,0,0,0,,,,,,,,,1,8,24,5,,,,,,,,,,,,,,,,,,,,,,,,,,,,,,,,,,,,,,524.2076666997746,21,reward,1,0.5349765997380018,0.5349799999967217,524.7493423996493,,,,,,,,,,,,,,,,,,,,,,9,D,2024-04-19_09h04.06.223,attentional_competition_task,2022.2.4,143.96795891748653,
positions.xlsx,positions_test.xlsx,positions_test_new.xlsx,stimuli.xlsx,stimuli_new.xlsx,stimuli/Social4.png,stimuli/Social3.png,stimuli/Nonsocial4.png,stimuli/Nonsocial3.png,stimuli/Social2.png,stimuli/Social1.png,stimuli/Nonsocial2.png,stimuli/Nonsocial1.png,cs_pos_s,"(-0.7, 0.5)",,,,,,,,,0,0,0,0,,,,,,,,,1,9,25,4,,,,,,,,,,,,,,,,,,,,,,,,,,,,,,,,,,,,,,532.887889099773,24,reward,1,0.5767931998707354,0.5767969000153244,533.4712449000217,,,,,,,,,,,,,,,,,,,,,,9,D,2024-04-19_09h04.06.223,attentional_competition_task,2022.2.4,143.96795891748653,
positions.xlsx,positions_test.xlsx,positions_test_new.xlsx,stimuli.xlsx,stimuli_new.xlsx,stimuli/Social4.png,stimuli/Social3.png,stimuli/Nonsocial4.png,stimuli/Nonsocial3.png,stimuli/Social2.png,stimuli/Social1.png,stimuli/Nonsocial2.png,stimuli/Nonsocial1.png,cs_pos_ns,"(-0.7, -0.5)",,,,,,,,,0,0,0,0,,,,,,,,,1,10,26,13,,,,,,,,,,,,,,,,,,,,,,,,,,,,,,,,,,,,,,541.4708532998338,27,reward,1,0.7085477998480201,0.7085516997613013,542.1861194996163,,,,,,,,,,,,,,,,,,,,,,9,D,2024-04-19_09h04.06.223,attentional_competition_task,2022.2.4,143.96795891748653,
positions.xlsx,positions_test.xlsx,positions_test_new.xlsx,stimuli.xlsx,stimuli_new.xlsx,stimuli/Social4.png,stimuli/Social3.png,stimuli/Nonsocial4.png,stimuli/Nonsocial3.png,stimuli/Social2.png,stimuli/Social1.png,stimuli/Nonsocial2.png,stimuli/Nonsocial1.png,cs_neg_ns,"(-0.7, -0.5)",,,,,,,,,0,0,0,0,,,,,,,,,1,11,27,9,,,,,,,,,,,,,,,,,,,,,,,,,,,,,,,,,,,,,,549.9288633000106,27,none,0,,,552.9426573999226,,,,,,,,,,,,,,,,,,,,,,9,D,2024-04-19_09h04.06.223,attentional_competition_task,2022.2.4,143.96795891748653,
positions.xlsx,positions_test.xlsx,positions_test_new.xlsx,stimuli.xlsx,stimuli_new.xlsx,stimuli/Social4.png,stimuli/Social3.png,stimuli/Nonsocial4.png,stimuli/Nonsocial3.png,stimuli/Social2.png,stimuli/Social1.png,stimuli/Nonsocial2.png,stimuli/Nonsocial1.png,cs_pos_s,"(0.7, -0.5)",,,,,,,,,0,0,0,0,,,,,,,,,1,12,28,7,,,,,,,,,,,,,,,,,,,,,,,,,,,,,,,,,,,,,,560.8450851999223,30,reward,1,0.7640476999804378,0.7640513000078499,561.6158876996487,,,,,,,,,,,,,,,,,,,,,,9,D,2024-04-19_09h04.06.223,attentional_competition_task,2022.2.4,143.96795891748653,
positions.xlsx,positions_test.xlsx,positions_test_new.xlsx,stimuli.xlsx,stimuli_new.xlsx,stimuli/Social4.png,stimuli/Social3.png,stimuli/Nonsocial4.png,stimuli/Nonsocial3.png,stimuli/Social2.png,stimuli/Social1.png,stimuli/Nonsocial2.png,stimuli/Nonsocial1.png,cs_neg_s,"(0.7, -0.5)",,,,,,,,,0,0,0,0,,,,,,,,,1,13,29,3,,,,,,,,,,,,,,,,,,,,,,,,,,,,,,,,,,,,,,569.3169547999278,30,none,0,,,572.330769599881,,,,,,,,,,,,,,,,,,,,,,9,D,2024-04-19_09h04.06.223,attentional_competition_task,2022.2.4,143.96795891748653,
positions.xlsx,positions_test.xlsx,positions_test_new.xlsx,stimuli.xlsx,stimuli_new.xlsx,stimuli/Social4.png,stimuli/Social3.png,stimuli/Nonsocial4.png,stimuli/Nonsocial3.png,stimuli/Social2.png,stimuli/Social1.png,stimuli/Nonsocial2.png,stimuli/Nonsocial1.png,cs_neg_ns,"(-0.7, 0.5)",,,,,,,,,0,0,0,0,,,,,,,,,1,14,30,8,,,,,,,,,,,,,,,,,,,,,,,,,,,,,,,,,,,,,,579.8651594999246,30,none,0,,,582.8789507998154,,,,,,,,,,,,,,,,,,,,,,9,D,2024-04-19_09h04.06.223,attentional_competition_task,2022.2.4,143.96795891748653,
positions.xlsx,positions_test.xlsx,positions_test_new.xlsx,stimuli.xlsx,stimuli_new.xlsx,stimuli/Social4.png,stimuli/Social3.png,stimuli/Nonsocial4.png,stimuli/Nonsocial3.png,stimuli/Social2.png,stimuli/Social1.png,stimuli/Nonsocial2.png,stimuli/Nonsocial1.png,cs_pos_s,"(0.7, 0.5)",,,,,,,,,0,0,0,0,,,,,,,,,1,15,31,6,,,,,,,,,,,,,,,,,,,,,,,,,,,,,,,,,,,,,,590.6424964996986,33,reward,1,0.6184096997603774,0.6184135996736586,591.2674707998522,,,,,,,,,,,,,,,,,,,,,,9,D,2024-04-19_09h04.06.223,attentional_competition_task,2022.2.4,143.96795891748653,
positions.xlsx,positions_test.xlsx,positions_test_new.xlsx,stimuli.xlsx,stimuli_new.xlsx,stimuli/Social4.png,stimuli/Social3.png,stimuli/Nonsocial4.png,stimuli/Nonsocial3.png,stimuli/Social2.png,stimuli/Social1.png,stimuli/Nonsocial2.png,stimuli/Nonsocial1.png,cs_neg_ns,"(-0.7, 0.5)",,,,,,,,,0,0,0,0,,,,,,,,,,,,,0,0,0,8,,,,,,,,,,,,,,,,,,,,,,,,,,,,,,,,,,605.9265717999078,33,none,0,,,608.9403709997423,,,,,,,,,,,,,,,,,,,,,,9,D,2024-04-19_09h04.06.223,attentional_competition_task,2022.2.4,143.96795891748653,
positions.xlsx,positions_test.xlsx,positions_test_new.xlsx,stimuli.xlsx,stimuli_new.xlsx,stimuli/Social4.png,stimuli/Social3.png,stimuli/Nonsocial4.png,stimuli/Nonsocial3.png,stimuli/Social2.png,stimuli/Social1.png,stimuli/Nonsocial2.png,stimuli/Nonsocial1.png,cs_neg_ns,"(0.7, -0.5)",,,,,,,,,0,0,0,0,,,,,,,,,,,,,0,1,1,11,,,,,,,,,,,,,,,,,,,,,,,,,,,,,,,,,,616.0650505996309,33,none,0,,,619.0788158997893,,,,,,,,,,,,,,,,,,,,,,9,D,2024-04-19_09h04.06.223,attentional_competition_task,2022.2.4,143.96795891748653,
positions.xlsx,positions_test.xlsx,positions_test_new.xlsx,stimuli.xlsx,stimuli_new.xlsx,stimuli/Social4.png,stimuli/Social3.png,stimuli/Nonsocial4.png,stimuli/Nonsocial3.png,stimuli/Social2.png,stimuli/Social1.png,stimuli/Nonsocial2.png,stimuli/Nonsocial1.png,cs_neg_s,"(-0.7, -0.5)",,,,,,,,,0,0,0,0,,,,,,,,,,,,,0,2,2,1,,,,,,,,,,,,,,,,,,,,,,,,,,,,,,,,,,626.9743425999768,33,none,0,,,629.9812280000187,,,,,,,,,,,,,,,,,,,,,,9,D,2024-04-19_09h04.06.223,attentional_competition_task,2022.2.4,143.96795891748653,
positions.xlsx,positions_test.xlsx,positions_test_new.xlsx,stimuli.xlsx,stimuli_new.xlsx,stimuli/Social4.png,stimuli/Social3.png,stimuli/Nonsocial4.png,stimuli/Nonsocial3.png,stimuli/Social2.png,stimuli/Social1.png,stimuli/Nonsocial2.png,stimuli/Nonsocial1.png,cs_pos_ns,"(-0.7, 0.5)",,,,,,,,,0,0,0,0,,,,,,,,,,,,,0,3,3,12,,,,,,,,,,,,,,,,,,,,,,,,,,,,,,,,,,637.5711515997536,36,reward,1,0.8887143996544182,0.8887179996818304,638.4669539998285,,,,,,,,,,,,,,,,,,,,,,9,D,2024-04-19_09h04.06.223,attentional_competition_task,2022.2.4,143.96795891748653,
positions.xlsx,positions_test.xlsx,positions_test_new.xlsx,stimuli.xlsx,stimuli_new.xlsx,stimuli/Social4.png,stimuli/Social3.png,stimuli/Nonsocial4.png,stimuli/Nonsocial3.png,stimuli/Social2.png,stimuli/Social1.png,stimuli/Nonsocial2.png,stimuli/Nonsocial1.png,cs_pos_s,"(0.7, 0.5)",,,,,,,,,0,0,0,0,,,,,,,,,,,,,0,4,4,6,,,,,,,,,,,,,,,,,,,,,,,,,,,,,,,,,,645.015278799925,39,reward,1,0.18780660023912787,0.18781010014936328,645.2097732997499,,,,,,,,,,,,,,,,,,,,,,9,D,2024-04-19_09h04.06.223,attentional_competition_task,2022.2.4,143.96795891748653,
positions.xlsx,positions_test.xlsx,positions_test_new.xlsx,stimuli.xlsx,stimuli_new.xlsx,stimuli/Social4.png,stimuli/Social3.png,stimuli/Nonsocial4.png,stimuli/Nonsocial3.png,stimuli/Social2.png,stimuli/Social1.png,stimuli/Nonsocial2.png,stimuli/Nonsocial1.png,cs_pos_s,"(0.7, -0.5)",,,,,,,,,0,0,0,0,,,,,,,,,,,,,0,5,5,7,,,,,,,,,,,,,,,,,,,,,,,,,,,,,,,,,,653.2511168997735,42,reward,1,0.5972917000763118,0.597295300103724,653.8552003996447,,,,,,,,,,,,,,,,,,,,,,9,D,2024-04-19_09h04.06.223,attentional_competition_task,2022.2.4,143.96795891748653,
positions.xlsx,positions_test.xlsx,positions_test_new.xlsx,stimuli.xlsx,stimuli_new.xlsx,stimuli/Social4.png,stimuli/Social3.png,stimuli/Nonsocial4.png,stimuli/Nonsocial3.png,stimuli/Social2.png,stimuli/Social1.png,stimuli/Nonsocial2.png,stimuli/Nonsocial1.png,cs_pos_s,"(-0.7, -0.5)",,,,,,,,,0,0,0,0,,,,,,,,,,,,,0,6,6,5,,,,,,,,,,,,,,,,,,,,,,,,,,,,,,,,,,661.202155099716,45,reward,1,0.514232600107789,0.5142361000180244,661.7229487998411,,,,,,,,,,,,,,,,,,,,,,9,D,2024-04-19_09h04.06.223,attentional_competition_task,2022.2.4,143.96795891748653,
positions.xlsx,positions_test.xlsx,positions_test_new.xlsx,stimuli.xlsx,stimuli_new.xlsx,stimuli/Social4.png,stimuli/Social3.png,stimuli/Nonsocial4.png,stimuli/Nonsocial3.png,stimuli/Social2.png,stimuli/Social1.png,stimuli/Nonsocial2.png,stimuli/Nonsocial1.png,cs_pos_ns,"(0.7, 0.5)",,,,,,,,,0,0,0,0,,,,,,,,,,,,,0,7,7,14,,,,,,,,,,,,,,,,,,,,,,,,,,,,,,,,,,669.910142199602,48,reward,1,1.0070038000121713,1.0070075001567602,670.9240674995817,,,,,,,,,,,,,,,,,,,,,,9,D,2024-04-19_09h04.06.223,attentional_competition_task,2022.2.4,143.96795891748653,
positions.xlsx,positions_test.xlsx,positions_test_new.xlsx,stimuli.xlsx,stimuli_new.xlsx,stimuli/Social4.png,stimuli/Social3.png,stimuli/Nonsocial4.png,stimuli/Nonsocial3.png,stimuli/Social2.png,stimuli/Social1.png,stimuli/Nonsocial2.png,stimuli/Nonsocial1.png,cs_pos_ns,"(0.7, -0.5)",,,,,,,,,0,0,0,0,,,,,,,,,,,,,0,8,8,15,,,,,,,,,,,,,,,,,,,,,,,,,,,,,,,,,,677.993125599809,51,reward,1,0.6111486000008881,0.6111524002626538,678.6111675999127,,,,,,,,,,,,,,,,,,,,,,9,D,2024-04-19_09h04.06.223,attentional_competition_task,2022.2.4,143.96795891748653,
positions.xlsx,positions_test.xlsx,positions_test_new.xlsx,stimuli.xlsx,stimuli_new.xlsx,stimuli/Social4.png,stimuli/Social3.png,stimuli/Nonsocial4.png,stimuli/Nonsocial3.png,stimuli/Social2.png,stimuli/Social1.png,stimuli/Nonsocial2.png,stimuli/Nonsocial1.png,cs_pos_s,"(-0.7, 0.5)",,,,,,,,,0,0,0,0,,,,,,,,,,,,,0,9,9,4,,,,,,,,,,,,,,,,,,,,,,,,,,,,,,,,,,685.3678484000266,54,reward,1,0.59755830001086,0.5975619000382721,685.9720298997127,,,,,,,,,,,,,,,,,,,,,,9,D,2024-04-19_09h04.06.223,attentional_competition_task,2022.2.4,143.96795891748653,
positions.xlsx,positions_test.xlsx,positions_test_new.xlsx,stimuli.xlsx,stimuli_new.xlsx,stimuli/Social4.png,stimuli/Social3.png,stimuli/Nonsocial4.png,stimuli/Nonsocial3.png,stimuli/Social2.png,stimuli/Social1.png,stimuli/Nonsocial2.png,stimuli/Nonsocial1.png,cs_neg_ns,"(-0.7, -0.5)",,,,,,,,,0,0,0,0,,,,,,,,,,,,,0,10,10,9,,,,,,,,,,,,,,,,,,,,,,,,,,,,,,,,,,693.4647562997416,51,loss,1,0.18104680022224784,0.18105070013552904,693.6523047997616,,,,,,,,,,,,,,,,,,,,,,9,D,2024-04-19_09h04.06.223,attentional_competition_task,2022.2.4,143.96795891748653,
positions.xlsx,positions_test.xlsx,positions_test_new.xlsx,stimuli.xlsx,stimuli_new.xlsx,stimuli/Social4.png,stimuli/Social3.png,stimuli/Nonsocial4.png,stimuli/Nonsocial3.png,stimuli/Social2.png,stimuli/Social1.png,stimuli/Nonsocial2.png,stimuli/Nonsocial1.png,cs_neg_s,"(-0.7, 0.5)",,,,,,,,,0,0,0,0,,,,,,,,,,,,,0,11,11,0,,,,,,,,,,,,,,,,,,,,,,,,,,,,,,,,,,701.3602318000048,51,none,0,,,704.3740341998637,,,,,,,,,,,,,,,,,,,,,,9,D,2024-04-19_09h04.06.223,attentional_competition_task,2022.2.4,143.96795891748653,
positions.xlsx,positions_test.xlsx,positions_test_new.xlsx,stimuli.xlsx,stimuli_new.xlsx,stimuli/Social4.png,stimuli/Social3.png,stimuli/Nonsocial4.png,stimuli/Nonsocial3.png,stimuli/Social2.png,stimuli/Social1.png,stimuli/Nonsocial2.png,stimuli/Nonsocial1.png,cs_pos_ns,"(-0.7, -0.5)",,,,,,,,,0,0,0,0,,,,,,,,,,,,,0,12,12,13,,,,,,,,,,,,,,,,,,,,,,,,,,,,,,,,,,712.5612050998025,54,reward,1,1.9582813000306487,1.9582849000580609,714.5263903997838,,,,,,,,,,,,,,,,,,,,,,9,D,2024-04-19_09h04.06.223,attentional_competition_task,2022.2.4,143.96795891748653,
positions.xlsx,positions_test.xlsx,positions_test_new.xlsx,stimuli.xlsx,stimuli_new.xlsx,stimuli/Social4.png,stimuli/Social3.png,stimuli/Nonsocial4.png,stimuli/Nonsocial3.png,stimuli/Social2.png,stimuli/Social1.png,stimuli/Nonsocial2.png,stimuli/Nonsocial1.png,cs_neg_ns,"(0.7, 0.5)",,,,,,,,,0,0,0,0,,,,,,,,,,,,,0,13,13,10,,,,,,,,,,,,,,,,,,,,,,,,,,,,,,,,,,722.9010502998717,51,loss,1,0.17417019978165627,0.17417400004342198,723.0816693999805,,,,,,,,,,,,,,,,,,,,,,9,D,2024-04-19_09h04.06.223,attentional_competition_task,2022.2.4,143.96795891748653,
positions.xlsx,positions_test.xlsx,positions_test_new.xlsx,stimuli.xlsx,stimuli_new.xlsx,stimuli/Social4.png,stimuli/Social3.png,stimuli/Nonsocial4.png,stimuli/Nonsocial3.png,stimuli/Social2.png,stimuli/Social1.png,stimuli/Nonsocial2.png,stimuli/Nonsocial1.png,cs_neg_s,"(0.7, -0.5)",,,,,,,,,0,0,0,0,,,,,,,,,,,,,0,14,14,3,,,,,,,,,,,,,,,,,,,,,,,,,,,,,,,,,,730.4562756000087,51,none,0,,,733.4700851999223,,,,,,,,,,,,,,,,,,,,,,9,D,2024-04-19_09h04.06.223,attentional_competition_task,2022.2.4,143.96795891748653,
positions.xlsx,positions_test.xlsx,positions_test_new.xlsx,stimuli.xlsx,stimuli_new.xlsx,stimuli/Social4.png,stimuli/Social3.png,stimuli/Nonsocial4.png,stimuli/Nonsocial3.png,stimuli/Social2.png,stimuli/Social1.png,stimuli/Nonsocial2.png,stimuli/Nonsocial1.png,cs_neg_s,"(0.7, 0.5)",,,,,,,,,0,0,0,0,,,,,,,,,,,,,0,15,15,2,,,,,,,,,,,,,,,,,,,,,,,,,,,,,,,,,,740.6572565999813,51,none,0,,,743.6641154997051,,,,,,,,,,,,,,,,,,,,,,9,D,2024-04-19_09h04.06.223,attentional_competition_task,2022.2.4,143.96795891748653,
positions.xlsx,positions_test.xlsx,positions_test_new.xlsx,stimuli.xlsx,stimuli_new.xlsx,stimuli/Social4.png,stimuli/Social3.png,stimuli/Nonsocial4.png,stimuli/Nonsocial3.png,stimuli/Social2.png,stimuli/Social1.png,stimuli/Nonsocial2.png,stimuli/Nonsocial1.png,cs_neg_ns,"(0.7, -0.5)",,,,,,,,,0,0,0,0,,,,,,,,,,,,,1,0,16,11,,,,,,,,,,,,,,,,,,,,,,,,,,,,,,,,,,751.2749122995883,48,loss,1,1.0206659003160894,1.0206697001121938,752.3026192998514,,,,,,,,,,,,,,,,,,,,,,9,D,2024-04-19_09h04.06.223,attentional_competition_task,2022.2.4,143.96795891748653,
positions.xlsx,positions_test.xlsx,positions_test_new.xlsx,stimuli.xlsx,stimuli_new.xlsx,stimuli/Social4.png,stimuli/Social3.png,stimuli/Nonsocial4.png,stimuli/Nonsocial3.png,stimuli/Social2.png,stimuli/Social1.png,stimuli/Nonsocial2.png,stimuli/Nonsocial1.png,cs_neg_s,"(-0.7, 0.5)",,,,,,,,,0,0,0,0,,,,,,,,,,,,,1,1,17,0,,,,,,,,,,,,,,,,,,,,,,,,,,,,,,,,,,759.5801280997694,48,none,0,,,762.5938798999414,,,,,,,,,,,,,,,,,,,,,,9,D,2024-04-19_09h04.06.223,attentional_competition_task,2022.2.4,143.96795891748653,
positions.xlsx,positions_test.xlsx,positions_test_new.xlsx,stimuli.xlsx,stimuli_new.xlsx,stimuli/Social4.png,stimuli/Social3.png,stimuli/Nonsocial4.png,stimuli/Nonsocial3.png,stimuli/Social2.png,stimuli/Social1.png,stimuli/Nonsocial2.png,stimuli/Nonsocial1.png,cs_neg_ns,"(0.7, 0.5)",,,,,,,,,0,0,0,0,,,,,,,,,,,,,1,2,18,10,,,,,,,,,,,,,,,,,,,,,,,,,,,,,,,,,,770.0797060998157,48,none,0,,,773.0935215000063,,,,,,,,,,,,,,,,,,,,,,9,D,2024-04-19_09h04.06.223,attentional_competition_task,2022.2.4,143.96795891748653,
positions.xlsx,positions_test.xlsx,positions_test_new.xlsx,stimuli.xlsx,stimuli_new.xlsx,stimuli/Social4.png,stimuli/Social3.png,stimuli/Nonsocial4.png,stimuli/Nonsocial3.png,stimuli/Social2.png,stimuli/Social1.png,stimuli/Nonsocial2.png,stimuli/Nonsocial1.png,cs_pos_ns,"(0.7, 0.5)",,,,,,,,,0,0,0,0,,,,,,,,,,,,,1,3,19,14,,,,,,,,,,,,,,,,,,,,,,,,,,,,,,,,,,781.4333999999799,51,reward,1,0.7153865001164377,0.7153906999155879,782.1556210997514,,,,,,,,,,,,,,,,,,,,,,9,D,2024-04-19_09h04.06.223,attentional_competition_task,2022.2.4,143.96795891748653,
positions.xlsx,positions_test.xlsx,positions_test_new.xlsx,stimuli.xlsx,stimuli_new.xlsx,stimuli/Social4.png,stimuli/Social3.png,stimuli/Nonsocial4.png,stimuli/Nonsocial3.png,stimuli/Social2.png,stimuli/Social1.png,stimuli/Nonsocial2.png,stimuli/Nonsocial1.png,cs_neg_ns,"(-0.7, -0.5)",,,,,,,,,0,0,0,0,,,,,,,,,,,,,1,4,20,9,,,,,,,,,,,,,,,,,,,,,,,,,,,,,,,,,,789.6414145999588,48,loss,1,0.7921086000278592,0.7921122000552714,790.4399729999714,,,,,,,,,,,,,,,,,,,,,,9,D,2024-04-19_09h04.06.223,attentional_competition_task,2022.2.4,143.96795891748653,
positions.xlsx,positions_test.xlsx,positions_test_new.xlsx,stimuli.xlsx,stimuli_new.xlsx,stimuli/Social4.png,stimuli/Social3.png,stimuli/Nonsocial4.png,stimuli/Nonsocial3.png,stimuli/Social2.png,stimuli/Social1.png,stimuli/Nonsocial2.png,stimuli/Nonsocial1.png,cs_neg_ns,"(-0.7, 0.5)",,,,,,,,,0,0,0,0,,,,,,,,,,,,,1,5,21,8,,,,,,,,,,,,,,,,,,,,,,,,,,,,,,,,,,797.8355325995944,48,none,0,,,800.8492985996418,,,,,,,,,,,,,,,,,,,,,,9,D,2024-04-19_09h04.06.223,attentional_competition_task,2022.2.4,143.96795891748653,
positions.xlsx,positions_test.xlsx,positions_test_new.xlsx,stimuli.xlsx,stimuli_new.xlsx,stimuli/Social4.png,stimuli/Social3.png,stimuli/Nonsocial4.png,stimuli/Nonsocial3.png,stimuli/Social2.png,stimuli/Social1.png,stimuli/Nonsocial2.png,stimuli/Nonsocial1.png,cs_pos_s,"(-0.7, 0.5)",,,,,,,,,0,0,0,0,,,,,,,,,,,,,1,6,22,4,,,,,,,,,,,,,,,,,,,,,,,,,,,,,,,,,,808.8628520998172,51,reward,1,0.7291783997789025,0.7291819001547992,809.5989610999823,,,,,,,,,,,,,,,,,,,,,,9,D,2024-04-19_09h04.06.223,attentional_competition_task,2022.2.4,143.96795891748653,
positions.xlsx,positions_test.xlsx,positions_test_new.xlsx,stimuli.xlsx,stimuli_new.xlsx,stimuli/Social4.png,stimuli/Social3.png,stimuli/Nonsocial4.png,stimuli/Nonsocial3.png,stimuli/Social2.png,stimuli/Social1.png,stimuli/Nonsocial2.png,stimuli/Nonsocial1.png,cs_pos_s,"(0.7, -0.5)",,,,,,,,,0,0,0,0,,,,,,,,,,,,,1,7,23,7,,,,,,,,,,,,,,,,,,,,,,,,,,,,,,,,,,816.793116199784,54,reward,1,0.5486544002778828,0.5486584003083408,817.3486178996973,,,,,,,,,,,,,,,,,,,,,,9,D,2024-04-19_09h04.06.223,attentional_competition_task,2022.2.4,143.96795891748653,
positions.xlsx,positions_test.xlsx,positions_test_new.xlsx,stimuli.xlsx,stimuli_new.xlsx,stimuli/Social4.png,stimuli/Social3.png,stimuli/Nonsocial4.png,stimuli/Nonsocial3.png,stimuli/Social2.png,stimuli/Social1.png,stimuli/Nonsocial2.png,stimuli/Nonsocial1.png,cs_neg_s,"(0.7, 0.5)",,,,,,,,,0,0,0,0,,,,,,,,,,,,,1,8,24,2,,,,,,,,,,,,,,,,,,,,,,,,,,,,,,,,,,824.4177928999998,54,none,0,,,827.431593099609,,,,,,,,,,,,,,,,,,,,,,9,D,2024-04-19_09h04.06.223,attentional_competition_task,2022.2.4,143.96795891748653,
positions.xlsx,positions_test.xlsx,positions_test_new.xlsx,stimuli.xlsx,stimuli_new.xlsx,stimuli/Social4.png,stimuli/Social3.png,stimuli/Nonsocial4.png,stimuli/Nonsocial3.png,stimuli/Social2.png,stimuli/Social1.png,stimuli/Nonsocial2.png,stimuli/Nonsocial1.png,cs_pos_s,"(-0.7, -0.5)",,,,,,,,,0,0,0,0,,,,,,,,,,,,,1,9,25,5,,,,,,,,,,,,,,,,,,,,,,,,,,,,,,,,,,835.2645895997994,57,reward,1,0.6180393001995981,0.6180426999926567,835.8895892999135,,,,,,,,,,,,,,,,,,,,,,9,D,2024-04-19_09h04.06.223,attentional_competition_task,2022.2.4,143.96795891748653,
positions.xlsx,positions_test.xlsx,positions_test_new.xlsx,stimuli.xlsx,stimuli_new.xlsx,stimuli/Social4.png,stimuli/Social3.png,stimuli/Nonsocial4.png,stimuli/Nonsocial3.png,stimuli/Social2.png,stimuli/Social1.png,stimuli/Nonsocial2.png,stimuli/Nonsocial1.png,cs_pos_ns,"(-0.7, 0.5)",,,,,,,,,0,0,0,0,,,,,,,,,,,,,1,10,26,12,,,,,,,,,,,,,,,,,,,,,,,,,,,,,,,,,,843.3892505997792,60,reward,1,0.20205239998176694,0.2020564000122249,843.5975925000384,,,,,,,,,,,,,,,,,,,,,,9,D,2024-04-19_09h04.06.223,attentional_competition_task,2022.2.4,143.96795891748653,
positions.xlsx,positions_test.xlsx,positions_test_new.xlsx,stimuli.xlsx,stimuli_new.xlsx,stimuli/Social4.png,stimuli/Social3.png,stimuli/Nonsocial4.png,stimuli/Nonsocial3.png,stimuli/Social2.png,stimuli/Social1.png,stimuli/Nonsocial2.png,stimuli/Nonsocial1.png,cs_neg_s,"(0.7, -0.5)",,,,,,,,,0,0,0,0,,,,,,,,,,,,,1,11,27,3,,,,,,,,,,,,,,,,,,,,,,,,,,,,,,,,,,850.8889392996207,60,none,0,,,853.9027182999998,,,,,,,,,,,,,,,,,,,,,,9,D,2024-04-19_09h04.06.223,attentional_competition_task,2022.2.4,143.96795891748653,
positions.xlsx,positions_test.xlsx,positions_test_new.xlsx,stimuli.xlsx,stimuli_new.xlsx,stimuli/Social4.png,stimuli/Social3.png,stimuli/Nonsocial4.png,stimuli/Nonsocial3.png,stimuli/Social2.png,stimuli/Social1.png,stimuli/Nonsocial2.png,stimuli/Nonsocial1.png,cs_pos_s,"(0.7, 0.5)",,,,,,,,,0,0,0,0,,,,,,,,,,,,,1,12,28,6,,,,,,,,,,,,,,,,,,,,,,,,,,,,,,,,,,861.4649318996817,63,reward,1,0.5348875001072884,0.5348910000175238,862.006550299935,,,,,,,,,,,,,,,,,,,,,,9,D,2024-04-19_09h04.06.223,attentional_competition_task,2022.2.4,143.96795891748653,
positions.xlsx,positions_test.xlsx,positions_test_new.xlsx,stimuli.xlsx,stimuli_new.xlsx,stimuli/Social4.png,stimuli/Social3.png,stimuli/Nonsocial4.png,stimuli/Nonsocial3.png,stimuli/Social2.png,stimuli/Social1.png,stimuli/Nonsocial2.png,stimuli/Nonsocial1.png,cs_pos_ns,"(-0.7, -0.5)",,,,,,,,,0,0,0,0,,,,,,,,,,,,,1,13,29,13,,,,,,,,,,,,,,,,,,,,,,,,,,,,,,,,,,869.4298920999281,66,reward,1,0.6669327998533845,0.6669362997636199,870.1034979997203,,,,,,,,,,,,,,,,,,,,,,9,D,2024-04-19_09h04.06.223,attentional_competition_task,2022.2.4,143.96795891748653,
positions.xlsx,positions_test.xlsx,positions_test_new.xlsx,stimuli.xlsx,stimuli_new.xlsx,stimuli/Social4.png,stimuli/Social3.png,stimuli/Nonsocial4.png,stimuli/Nonsocial3.png,stimuli/Social2.png,stimuli/Social1.png,stimuli/Nonsocial2.png,stimuli/Nonsocial1.png,cs_neg_s,"(-0.7, -0.5)",,,,,,,,,0,0,0,0,,,,,,,,,,,,,1,14,30,1,,,,,,,,,,,,,,,,,,,,,,,,,,,,,,,,,,878.0684859999456,66,none,0,,,881.0821841997094,,,,,,,,,,,,,,,,,,,,,,9,D,2024-04-19_09h04.06.223,attentional_competition_task,2022.2.4,143.96795891748653,
positions.xlsx,positions_test.xlsx,positions_test_new.xlsx,stimuli.xlsx,stimuli_new.xlsx,stimuli/Social4.png,stimuli/Social3.png,stimuli/Nonsocial4.png,stimuli/Nonsocial3.png,stimuli/Social2.png,stimuli/Social1.png,stimuli/Nonsocial2.png,stimuli/Nonsocial1.png,cs_pos_ns,"(0.7, -0.5)",,,,,,,,,0,0,0,0,,,,,,,,,,,,,1,15,31,15,,,,,,,,,,,,,,,,,,,,,,,,,,,,,,,,,,889.3387958998792,69,reward,1,0.6876064003445208,0.687610000371933,890.0331992995925,,,,,,,,,,,,,,,,,,,,,,9,D,2024-04-19_09h04.06.223,attentional_competition_task,2022.2.4,143.96795891748653,
positions.xlsx,positions_test.xlsx,positions_test_new.xlsx,stimuli.xlsx,stimuli_new.xlsx,stimuli/Social4.png,stimuli/Social3.png,stimuli/Nonsocial4.png,stimuli/Nonsocial3.png,stimuli/Social2.png,stimuli/Social1.png,stimuli/Nonsocial2.png,stimuli/Nonsocial1.png,cs_pos_s,,,,,,,,,,0,0,0,0,,,,,,,,,,,,,,,,,0,0,0,2,,,,,,,,,,,,,,,,,,,,,,,894.5677927997895,6.0,5.283259799703956,,,,,,,,,,,,,,,,,,,,,,,,,,,,,,,,,9,D,2024-04-19_09h04.06.223,attentional_competition_task,2022.2.4,143.96795891748653,
positions.xlsx,positions_test.xlsx,positions_test_new.xlsx,stimuli.xlsx,stimuli_new.xlsx,stimuli/Social4.png,stimuli/Social3.png,stimuli/Nonsocial4.png,stimuli/Nonsocial3.png,stimuli/Social2.png,stimuli/Social1.png,stimuli/Nonsocial2.png,stimuli/Nonsocial1.png,cs_neg_s,,,,,,,,,,0,0,0,0,,,,,,,,,,,,,,,,,0,1,1,0,,,,,,,,,,,,,,,,,,,,,,,900.2272691000253,3.0,3.355842400342226,,,,,,,,,,,,,,,,,,,,,,,,,,,,,,,,,9,D,2024-04-19_09h04.06.223,attentional_competition_task,2022.2.4,143.96795891748653,
positions.xlsx,positions_test.xlsx,positions_test_new.xlsx,stimuli.xlsx,stimuli_new.xlsx,stimuli/Social4.png,stimuli/Social3.png,stimuli/Nonsocial4.png,stimuli/Nonsocial3.png,stimuli/Social2.png,stimuli/Social1.png,stimuli/Nonsocial2.png,stimuli/Nonsocial1.png,cs_neg_ns,,,,,,,,,,0,0,0,0,,,,,,,,,,,,,,,,,0,2,2,1,,,,,,,,,,,,,,,,,,,,,,,903.8521202998236,6.0,4.758534700144082,,,,,,,,,,,,,,,,,,,,,,,,,,,,,,,,,9,D,2024-04-19_09h04.06.223,attentional_competition_task,2022.2.4,143.96795891748653,
positions.xlsx,positions_test.xlsx,positions_test_new.xlsx,stimuli.xlsx,stimuli_new.xlsx,stimuli/Social4.png,stimuli/Social3.png,stimuli/Nonsocial4.png,stimuli/Nonsocial3.png,stimuli/Social2.png,stimuli/Social1.png,stimuli/Nonsocial2.png,stimuli/Nonsocial1.png,cs_pos_ns,,,,,,,,,,0,0,0,0,,,,,,,,,,,,,,,,,0,3,3,3,,,,,,,,,,,,,,,,,,,,,,,909.018617299851,7.0,2.9872855003923178,,,,,,,,,,,,,,,,,,,,,,,,,,,,,,,,,9,D,2024-04-19_09h04.06.223,attentional_competition_task,2022.2.4,143.96795891748653,
positions.xlsx,positions_test.xlsx,positions_test_new.xlsx,stimuli.xlsx,stimuli_new.xlsx,stimuli/Social4.png,stimuli/Social3.png,stimuli/Nonsocial4.png,stimuli/Nonsocial3.png,stimuli/Social2.png,stimuli/Social1.png,stimuli/Nonsocial2.png,stimuli/Nonsocial1.png,,,"(-0.7, -0.5)",cs_neg_s,"(-0.7, 0.5)",cs_pos_ns,"(0.7, -0.5)",cs_neg_ns,"(0.7, 0.5)",cs_pos_s,0,0,0,0,,,,,,,,,,,,,,,,,,,,,0,0,0,5,,,,,,,,,,,,,,,,,,,,,,,,,,,63,loss,,,,,912.2892833999358,920.01813749969,920.01813749969,920.01813749969,920.01813749969,0,,,0,,,0,,,0,,,921.0875547998585,921.0875547998585,921.0875547998585,921.0875547998585,9,D,2024-04-19_09h04.06.223,attentional_competition_task,2022.2.4,143.96795891748653,
positions.xlsx,positions_test.xlsx,positions_test_new.xlsx,stimuli.xlsx,stimuli_new.xlsx,stimuli/Social4.png,stimuli/Social3.png,stimuli/Nonsocial4.png,stimuli/Nonsocial3.png,stimuli/Social2.png,stimuli/Social1.png,stimuli/Nonsocial2.png,stimuli/Nonsocial1.png,,,"(-0.7, -0.5)",cs_pos_ns,"(-0.7, 0.5)",cs_pos_s,"(0.7, -0.5)",cs_neg_s,"(0.7, 0.5)",cs_neg_ns,0,0,0,0,,,,,,,,,,,,,,,,,,,,,0,1,1,19,,,,,,,,,,,,,,,,,,,,,,,,,,,69,reward,,,,,,927.6984110996127,927.6984110996127,927.6984110996127,927.6984110996127,0,,,1,0.031915399711579084,0.2731805997900665,0,,,0,,,929.1636135997251,929.1636135997251,929.1636135997251,929.1636135997251,9,D,2024-04-19_09h04.06.223,attentional_competition_task,2022.2.4,143.96795891748653,
positions.xlsx,positions_test.xlsx,positions_test_new.xlsx,stimuli.xlsx,stimuli_new.xlsx,stimuli/Social4.png,stimuli/Social3.png,stimuli/Nonsocial4.png,stimuli/Nonsocial3.png,stimuli/Social2.png,stimuli/Social1.png,stimuli/Nonsocial2.png,stimuli/Nonsocial1.png,,,"(-0.7, -0.5)",cs_pos_ns,"(-0.7, 0.5)",cs_neg_s,"(0.7, -0.5)",cs_neg_ns,"(0.7, 0.5)",cs_pos_s,0,0,0,0,,,,,,,,,,,,,,,,,,,,,0,2,2,23,,,,,,,,,,,,,,,,,,,,,,,,,,,75,reward,,,,,,936.6494179000147,936.6494179000147,936.6494179000147,936.6494179000147,0,,,0,,,0,,,1,0.031077700201421976,0.16263179993256927,937.920216999948,937.920216999948,937.920216999948,937.920216999948,9,D,2024-04-19_09h04.06.223,attentional_competition_task,2022.2.4,143.96795891748653,
positions.xlsx,positions_test.xlsx,positions_test_new.xlsx,stimuli.xlsx,stimuli_new.xlsx,stimuli/Social4.png,stimuli/Social3.png,stimuli/Nonsocial4.png,stimuli/Nonsocial3.png,stimuli/Social2.png,stimuli/Social1.png,stimuli/Nonsocial2.png,stimuli/Nonsocial1.png,,,"(-0.7, -0.5)",cs_neg_ns,"(-0.7, 0.5)",cs_pos_ns,"(0.7, -0.5)",cs_pos_s,"(0.7, 0.5)",cs_neg_s,0,0,0,0,,,,,,,,,,,,,,,,,,,,,0,3,3,16,,,,,,,,,,,,,,,,,,,,,,,,,,,81,reward,,,,,,945.20466079982,945.20466079982,945.20466079982,945.20466079982,0,,,0,,,1,0.02842180011793971,0.16238499991595745,0,,,946.3157274997793,946.3157274997793,946.3157274997793,946.3157274997793,9,D,2024-04-19_09h04.06.223,attentional_competition_task,2022.2.4,143.96795891748653,
positions.xlsx,positions_test.xlsx,positions_test_new.xlsx,stimuli.xlsx,stimuli_new.xlsx,stimuli/Social4.png,stimuli/Social3.png,stimuli/Nonsocial4.png,stimuli/Nonsocial3.png,stimuli/Social2.png,stimuli/Social1.png,stimuli/Nonsocial2.png,stimuli/Nonsocial1.png,,,"(-0.7, -0.5)",cs_neg_ns,"(-0.7, 0.5)",cs_pos_ns,"(0.7, -0.5)",cs_neg_s,"(0.7, 0.5)",cs_pos_s,0,0,0,0,,,,,,,,,,,,,,,,,,,,,0,4,4,17,,,,,,,,,,,,,,,,,,,,,,,,,,,87,reward,,,,,,953.1973853996024,953.1973853996024,953.1973853996024,953.1973853996024,0,,,0,,,0,,,0,,,954.6209358000197,954.6209358000197,954.6209358000197,954.6209358000197,9,D,2024-04-19_09h04.06.223,attentional_competition_task,2022.2.4,143.96795891748653,
positions.xlsx,positions_test.xlsx,positions_test_new.xlsx,stimuli.xlsx,stimuli_new.xlsx,stimuli/Social4.png,stimuli/Social3.png,stimuli/Nonsocial4.png,stimuli/Nonsocial3.png,stimuli/Social2.png,stimuli/Social1.png,stimuli/Nonsocial2.png,stimuli/Nonsocial1.png,,,"(-0.7, -0.5)",cs_pos_ns,"(-0.7, 0.5)",cs_pos_s,"(0.7, -0.5)",cs_neg_ns,"(0.7, 0.5)",cs_neg_s,0,0,0,0,,,,,,,,,,,,,,,,,,,,,0,5,5,18,,,,,,,,,,,,,,,,,,,,,,,,,,,93,reward,,,,,,961.8914814996533,961.8914814996533,961.8914814996533,961.8914814996533,1,0.03095840010792017,0.09218510007485747,0,,,0,,,0,,,963.0025814999826,963.0025814999826,963.0025814999826,963.0025814999826,9,D,2024-04-19_09h04.06.223,attentional_competition_task,2022.2.4,143.96795891748653,
positions.xlsx,positions_test.xlsx,positions_test_new.xlsx,stimuli.xlsx,stimuli_new.xlsx,stimuli/Social4.png,stimuli/Social3.png,stimuli/Nonsocial4.png,stimuli/Nonsocial3.png,stimuli/Social2.png,stimuli/Social1.png,stimuli/Nonsocial2.png,stimuli/Nonsocial1.png,,,"(-0.7, -0.5)",cs_pos_s,"(-0.7, 0.5)",cs_neg_ns,"(0.7, -0.5)",cs_pos_ns,"(0.7, 0.5)",cs_neg_s,0,0,0,0,,,,,,,,,,,,,,,,,,,,,0,6,6,9,,,,,,,,,,,,,,,,,,,,,,,,,,,99,reward,,,,,,970.7522368999198,970.7522368999198,970.7522368999198,970.7522368999198,0,,,0,,,1,0.03179069980978966,0.11727140005677938,0,,,971.9258075999096,971.9258075999096,971.9258075999096,971.9258075999096,9,D,2024-04-19_09h04.06.223,attentional_competition_task,2022.2.4,143.96795891748653,
positions.xlsx,positions_test.xlsx,positions_test_new.xlsx,stimuli.xlsx,stimuli_new.xlsx,stimuli/Social4.png,stimuli/Social3.png,stimuli/Nonsocial4.png,stimuli/Nonsocial3.png,stimuli/Social2.png,stimuli/Social1.png,stimuli/Nonsocial2.png,stimuli/Nonsocial1.png,,,"(-0.7, -0.5)",cs_pos_s,"(-0.7, 0.5)",cs_pos_ns,"(0.7, -0.5)",cs_neg_s,"(0.7, 0.5)",cs_neg_ns,0,0,0,0,,,,,,,,,,,,,,,,,,,,,0,7,7,10,,,,,,,,,,,,,,,,,,,,,,,,,,,105,reward,,,,,,978.9463483998552,978.9463483998552,978.9463483998552,978.9463483998552,1,0.02994230017066002,0.5493581998161972,0,,,0,,,0,,,980.2449107998982,980.2449107998982,980.2449107998982,980.2449107998982,9,D,2024-04-19_09h04.06.223,attentional_competition_task,2022.2.4,143.96795891748653,
positions.xlsx,positions_test.xlsx,positions_test_new.xlsx,stimuli.xlsx,stimuli_new.xlsx,stimuli/Social4.png,stimuli/Social3.png,stimuli/Nonsocial4.png,stimuli/Nonsocial3.png,stimuli/Social2.png,stimuli/Social1.png,stimuli/Nonsocial2.png,stimuli/Nonsocial1.png,,,"(-0.7, -0.5)",cs_neg_ns,"(-0.7, 0.5)",cs_pos_s,"(0.7, -0.5)",cs_pos_ns,"(0.7, 0.5)",cs_neg_s,0,0,0,0,,,,,,,,,,,,,,,,,,,,,0,8,8,13,,,,,,,,,,,,,,,,,,,,,,,,,,,111,reward,,,,,,987.7169428998604,987.7169428998604,987.7169428998604,987.7169428998604,0,,,0,,,1,0.036425100173801184,0.6690932000055909,0,,,988.8765459000133,988.8765459000133,988.8765459000133,988.8765459000133,9,D,2024-04-19_09h04.06.223,attentional_competition_task,2022.2.4,143.96795891748653,
positions.xlsx,positions_test.xlsx,positions_test_new.xlsx,stimuli.xlsx,stimuli_new.xlsx,stimuli/Social4.png,stimuli/Social3.png,stimuli/Nonsocial4.png,stimuli/Nonsocial3.png,stimuli/Social2.png,stimuli/Social1.png,stimuli/Nonsocial2.png,stimuli/Nonsocial1.png,,,"(-0.7, -0.5)",cs_pos_ns,"(-0.7, 0.5)",cs_neg_s,"(0.7, -0.5)",cs_pos_s,"(0.7, 0.5)",cs_neg_ns,0,0,0,0,,,,,,,,,,,,,,,,,,,,,0,9,9,22,,,,,,,,,,,,,,,,,,,,,,,,,,,117,reward,,,,,,996.0568013000302,996.0568013000302,996.0568013000302,996.0568013000302,0,,,0,,,1,0.028298200108110905,0.7381339999847114,0,,,997.2997900997289,997.2997900997289,997.2997900997289,997.2997900997289,9,D,2024-04-19_09h04.06.223,attentional_competition_task,2022.2.4,143.96795891748653,
positions.xlsx,positions_test.xlsx,positions_test_new.xlsx,stimuli.xlsx,stimuli_new.xlsx,stimuli/Social4.png,stimuli/Social3.png,stimuli/Nonsocial4.png,stimuli/Nonsocial3.png,stimuli/Social2.png,stimuli/Social1.png,stimuli/Nonsocial2.png,stimuli/Nonsocial1.png,,,"(-0.7, -0.5)",cs_neg_s,"(-0.7, 0.5)",cs_neg_ns,"(0.7, -0.5)",cs_pos_s,"(0.7, 0.5)",cs_pos_ns,0,0,0,0,,,,,,,,,,,,,,,,,,,,,0,10,10,2,,,,,,,,,,,,,,,,,,,,,,,,,,,123,reward,,,,,,1004.4036442996003,1004.4036442996003,1004.4036442996003,1004.4036442996003,0,,,0,,,1,0.03123319987207651,0.8635807000100613,0,,,1005.7578126997687,1005.7578126997687,1005.7578126997687,1005.7578126997687,9,D,2024-04-19_09h04.06.223,attentional_competition_task,2022.2.4,143.96795891748653,
positions.xlsx,positions_test.xlsx,positions_test_new.xlsx,stimuli.xlsx,stimuli_new.xlsx,stimuli/Social4.png,stimuli/Social3.png,stimuli/Nonsocial4.png,stimuli/Nonsocial3.png,stimuli/Social2.png,stimuli/Social1.png,stimuli/Nonsocial2.png,stimuli/Nonsocial1.png,,,"(-0.7, -0.5)",cs_neg_s,"(-0.7, 0.5)",cs_pos_s,"(0.7, -0.5)",cs_pos_ns,"(0.7, 0.5)",cs_neg_ns,0,0,0,0,,,,,,,,,,,,,,,,,,,,,0,11,11,1,,,,,,,,,,,,,,,,,,,,,,,,,,,129,reward,,,,,,1012.9033074998297,1012.9033074998297,1012.9033074998297,1012.9033074998297,0,,,1,0.029661200009286404,0.6338104996830225,0,,,0,,,1014.0352329998277,1014.0352329998277,1014.0352329998277,1014.0352329998277,9,D,2024-04-19_09h04.06.223,attentional_competition_task,2022.2.4,143.96795891748653,
positions.xlsx,positions_test.xlsx,positions_test_new.xlsx,stimuli.xlsx,stimuli_new.xlsx,stimuli/Social4.png,stimuli/Social3.png,stimuli/Nonsocial4.png,stimuli/Nonsocial3.png,stimuli/Social2.png,stimuli/Social1.png,stimuli/Nonsocial2.png,stimuli/Nonsocial1.png,,,"(-0.7, -0.5)",cs_neg_ns,"(-0.7, 0.5)",cs_neg_s,"(0.7, -0.5)",cs_pos_ns,"(0.7, 0.5)",cs_pos_s,0,0,0,0,,,,,,,,,,,,,,,,,,,,,0,12,12,15,,,,,,,,,,,,,,,,,,,,,,,,,,,135,reward,,,,,,1022.4168495996855,1022.4168495996855,1022.4168495996855,1022.4168495996855,0,,,0,,,0,,,1,0.03126729978248477,0.28718489967286587,1023.2709741997533,1023.2709741997533,1023.2709741997533,1023.2709741997533,9,D,2024-04-19_09h04.06.223,attentional_competition_task,2022.2.4,143.96795891748653,
positions.xlsx,positions_test.xlsx,positions_test_new.xlsx,stimuli.xlsx,stimuli_new.xlsx,stimuli/Social4.png,stimuli/Social3.png,stimuli/Nonsocial4.png,stimuli/Nonsocial3.png,stimuli/Social2.png,stimuli/Social1.png,stimuli/Nonsocial2.png,stimuli/Nonsocial1.png,,,"(-0.7, -0.5)",cs_pos_s,"(-0.7, 0.5)",cs_neg_ns,"(0.7, -0.5)",cs_neg_s,"(0.7, 0.5)",cs_pos_ns,0,0,0,0,,,,,,,,,,,,,,,,,,,,,0,13,13,8,,,,,,,,,,,,,,,,,,,,,,,,,,,132,loss,,,,,,1030.7012254996225,1030.7012254996225,1030.7012254996225,1030.7012254996225,0,,,0,,,1,0.02947540022432804,0.12842510035261512,0,,,1031.4373018997721,1031.4373018997721,1031.4373018997721,1031.4373018997721,9,D,2024-04-19_09h04.06.223,attentional_competition_task,2022.2.4,143.96795891748653,
positions.xlsx,positions_test.xlsx,positions_test_new.xlsx,stimuli.xlsx,stimuli_new.xlsx,stimuli/Social4.png,stimuli/Social3.png,stimuli/Nonsocial4.png,stimuli/Nonsocial3.png,stimuli/Social2.png,stimuli/Social1.png,stimuli/Nonsocial2.png,stimuli/Nonsocial1.png,,,"(-0.7, -0.5)",cs_pos_s,"(-0.7, 0.5)",cs_pos_ns,"(0.7, -0.5)",cs_neg_ns,"(0.7, 0.5)",cs_neg_s,0,0,0,0,,,,,,,,,,,,,,,,,,,,,0,14,14,11,,,,,,,,,,,,,,,,,,,,,,,,,,,138,reward,,,,,,1037.950975799933,1037.950975799933,1037.950975799933,1037.950975799933,1,0.028624799568206072,0.8633786998689175,0,,,0,,,0,,,1039.464766399935,1039.464766399935,1039.464766399935,1039.464766399935,9,D,2024-04-19_09h04.06.223,attentional_competition_task,2022.2.4,143.96795891748653,
positions.xlsx,positions_test.xlsx,positions_test_new.xlsx,stimuli.xlsx,stimuli_new.xlsx,stimuli/Social4.png,stimuli/Social3.png,stimuli/Nonsocial4.png,stimuli/Nonsocial3.png,stimuli/Social2.png,stimuli/Social1.png,stimuli/Nonsocial2.png,stimuli/Nonsocial1.png,,,"(-0.7, -0.5)",cs_pos_ns,"(-0.7, 0.5)",cs_neg_ns,"(0.7, -0.5)",cs_pos_s,"(0.7, 0.5)",cs_neg_s,0,0,0,0,,,,,,,,,,,,,,,,,,,,,0,15,15,20,,,,,,,,,,,,,,,,,,,,,,,,,,,144,reward,,,,,,1046.0061504999176,1046.0061504999176,1046.0061504999176,1046.0061504999176,1,0.0295457998290658,0.4950689999386668,0,,,0,,,0,,,1047.3950055995956,1047.3950055995956,1047.3950055995956,1047.3950055995956,9,D,2024-04-19_09h04.06.223,attentional_competition_task,2022.2.4,143.96795891748653,
positions.xlsx,positions_test.xlsx,positions_test_new.xlsx,stimuli.xlsx,stimuli_new.xlsx,stimuli/Social4.png,stimuli/Social3.png,stimuli/Nonsocial4.png,stimuli/Nonsocial3.png,stimuli/Social2.png,stimuli/Social1.png,stimuli/Nonsocial2.png,stimuli/Nonsocial1.png,,,"(-0.7, -0.5)",cs_neg_ns,"(-0.7, 0.5)",cs_neg_s,"(0.7, -0.5)",cs_pos_s,"(0.7, 0.5)",cs_pos_ns,0,0,0,0,,,,,,,,,,,,,,,,,,,,,0,16,16,14,,,,,,,,,,,,,,,,,,,,,,,,,,,150,reward,,,,,,1054.6864335997961,1054.6864335997961,1054.6864335997961,1054.6864335997961,0,,,0,,,1,0.03043919987976551,0.9953554999083281,0,,,1056.1793768997304,1056.1793768997304,1056.1793768997304,1056.1793768997304,9,D,2024-04-19_09h04.06.223,attentional_competition_task,2022.2.4,143.96795891748653,
positions.xlsx,positions_test.xlsx,positions_test_new.xlsx,stimuli.xlsx,stimuli_new.xlsx,stimuli/Social4.png,stimuli/Social3.png,stimuli/Nonsocial4.png,stimuli/Nonsocial3.png,stimuli/Social2.png,stimuli/Social1.png,stimuli/Nonsocial2.png,stimuli/Nonsocial1.png,,,"(-0.7, -0.5)",cs_neg_s,"(-0.7, 0.5)",cs_pos_ns,"(0.7, -0.5)",cs_pos_s,"(0.7, 0.5)",cs_neg_ns,0,0,0,0,,,,,,,,,,,,,,,,,,,,,0,17,17,4,,,,,,,,,,,,,,,,,,,,,,,,,,,156,reward,,,,,,1062.783270899672,1062.783270899672,1062.783270899672,1062.783270899672,0,,,0,,,1,0.03589370008558035,0.95350749976933,0,,,1064.22766579967,1064.22766579967,1064.22766579967,1064.22766579967,9,D,2024-04-19_09h04.06.223,attentional_competition_task,2022.2.4,143.96795891748653,
positions.xlsx,positions_test.xlsx,positions_test_new.xlsx,stimuli.xlsx,stimuli_new.xlsx,stimuli/Social4.png,stimuli/Social3.png,stimuli/Nonsocial4.png,stimuli/Nonsocial3.png,stimuli/Social2.png,stimuli/Social1.png,stimuli/Nonsocial2.png,stimuli/Nonsocial1.png,,,"(-0.7, -0.5)",cs_pos_s,"(-0.7, 0.5)",cs_neg_s,"(0.7, -0.5)",cs_pos_ns,"(0.7, 0.5)",cs_neg_ns,0,0,0,0,,,,,,,,,,,,,,,,,,,,,0,18,18,7,,,,,,,,,,,,,,,,,,,,,,,,,,,162,reward,,,,,,1071.4357180995867,1071.4357180995867,1071.4357180995867,1071.4357180995867,1,0.0288676000200212,0.9819624996744096,0,,,0,,,0,,,1072.914837599732,1072.914837599732,1072.914837599732,1072.914837599732,9,D,2024-04-19_09h04.06.223,attentional_competition_task,2022.2.4,143.96795891748653,
positions.xlsx,positions_test.xlsx,positions_test_new.xlsx,stimuli.xlsx,stimuli_new.xlsx,stimuli/Social4.png,stimuli/Social3.png,stimuli/Nonsocial4.png,stimuli/Nonsocial3.png,stimuli/Social2.png,stimuli/Social1.png,stimuli/Nonsocial2.png,stimuli/Nonsocial1.png,,,"(-0.7, -0.5)",cs_neg_s,"(-0.7, 0.5)",cs_neg_ns,"(0.7, -0.5)",cs_pos_ns,"(0.7, 0.5)",cs_pos_s,0,0,0,0,,,,,,,,,,,,,,,,,,,,,0,19,19,3,,,,,,,,,,,,,,,,,,,,,,,,,,,171,reward,,,,,,1080.4214665000327,1080.4214665000327,1080.4214665000327,1080.4214665000327,0,,,0,,,0,,,0,,,1081.039545699954,1081.039545699954,1081.039545699954,1081.039545699954,9,D,2024-04-19_09h04.06.223,attentional_competition_task,2022.2.4,143.96795891748653,
positions.xlsx,positions_test.xlsx,positions_test_new.xlsx,stimuli.xlsx,stimuli_new.xlsx,stimuli/Social4.png,stimuli/Social3.png,stimuli/Nonsocial4.png,stimuli/Nonsocial3.png,stimuli/Social2.png,stimuli/Social1.png,stimuli/Nonsocial2.png,stimuli/Nonsocial1.png,,,"(-0.7, -0.5)",cs_pos_s,"(-0.7, 0.5)",cs_neg_s,"(0.7, -0.5)",cs_neg_ns,"(0.7, 0.5)",cs_pos_ns,0,0,0,0,,,,,,,,,,,,,,,,,,,,,0,20,20,6,,,,,,,,,,,,,,,,,,,,,,,,,,,162,loss,,,,,,1088.1989647997543,1088.1989647997543,1088.1989647997543,1088.1989647997543,0,,,0,,,1,0.028913200367242098,0.1277622003108263,0,,,1089.1988878999837,1089.1988878999837,1089.1988878999837,1089.1988878999837,9,D,2024-04-19_09h04.06.223,attentional_competition_task,2022.2.4,143.96795891748653,
positions.xlsx,positions_test.xlsx,positions_test_new.xlsx,stimuli.xlsx,stimuli_new.xlsx,stimuli/Social4.png,stimuli/Social3.png,stimuli/Nonsocial4.png,stimuli/Nonsocial3.png,stimuli/Social2.png,stimuli/Social1.png,stimuli/Nonsocial2.png,stimuli/Nonsocial1.png,,,"(-0.7, -0.5)",cs_neg_s,"(-0.7, 0.5)",cs_pos_s,"(0.7, -0.5)",cs_neg_ns,"(0.7, 0.5)",cs_pos_ns,0,0,0,0,,,,,,,,,,,,,,,,,,,,,0,21,21,0,,,,,,,,,,,,,,,,,,,,,,,,,,,168,reward,,,,,,1096.545779199805,1096.545779199805,1096.545779199805,1096.545779199805,0,,,1,0.02967129973694682,0.1207269998267293,0,,,1,0.2523157997056842,0.25231939973309636,1096.7957945996895,1096.7957945996895,1096.7957945996895,1096.7957945996895,9,D,2024-04-19_09h04.06.223,attentional_competition_task,2022.2.4,143.96795891748653,
positions.xlsx,positions_test.xlsx,positions_test_new.xlsx,stimuli.xlsx,stimuli_new.xlsx,stimuli/Social4.png,stimuli/Social3.png,stimuli/Nonsocial4.png,stimuli/Nonsocial3.png,stimuli/Social2.png,stimuli/Social1.png,stimuli/Nonsocial2.png,stimuli/Nonsocial1.png,,,"(-0.7, -0.5)",cs_neg_ns,"(-0.7, 0.5)",cs_pos_s,"(0.7, -0.5)",cs_neg_s,"(0.7, 0.5)",cs_pos_ns,0,0,0,0,,,,,,,,,,,,,,,,,,,,,0,22,22,12,,,,,,,,,,,,,,,,,,,,,,,,,,,174,reward,,,,,,1105.7953892997466,1105.7953892997466,1105.7953892997466,1105.7953892997466,0,,,1,0.022987100295722485,0.2878212002106011,0,,,1,0.4344612001441419,0.4344648001715541,1106.2399100000039,1106.2399100000039,1106.2399100000039,1106.2399100000039,9,D,2024-04-19_09h04.06.223,attentional_competition_task,2022.2.4,143.96795891748653,
positions.xlsx,positions_test.xlsx,positions_test_new.xlsx,stimuli.xlsx,stimuli_new.xlsx,stimuli/Social4.png,stimuli/Social3.png,stimuli/Nonsocial4.png,stimuli/Nonsocial3.png,stimuli/Social2.png,stimuli/Social1.png,stimuli/Nonsocial2.png,stimuli/Nonsocial1.png,,,"(-0.7, -0.5)",cs_pos_ns,"(-0.7, 0.5)",cs_neg_ns,"(0.7, -0.5)",cs_neg_s,"(0.7, 0.5)",cs_pos_s,0,0,0,0,,,,,,,,,,,,,,,,,,,,,0,23,23,21,,,,,,,,,,,,,,,,,,,,,,,,,,,183,reward,,,,,,1114.8228544997983,1114.8228544997983,1114.8228544997983,1114.8228544997983,0,,,0,,,0,,,0,,,1115.4547843998298,1115.4547843998298,1115.4547843998298,1115.4547843998298,9,D,2024-04-19_09h04.06.223,attentional_competition_task,2022.2.4,143.96795891748653,
positions.xlsx,positions_test.xlsx,positions_test_new.xlsx,stimuli.xlsx,stimuli_new.xlsx,stimuli/Social4.png,stimuli/Social3.png,stimuli/Nonsocial4.png,stimuli/Nonsocial3.png,stimuli/Social2.png,stimuli/Social1.png,stimuli/Nonsocial2.png,stimuli/Nonsocial1.png,,,"(-0.7, -0.5)",cs_pos_ns,"(-0.7, 0.5)",cs_neg_s,"(0.7, -0.5)",cs_pos_s,"(0.7, 0.5)",cs_neg_ns,0,0,0,0,,,,,,,,,,,,,,,,,,,,,1,0,24,22,,,,,,,,,,,,,,,,,,,,,,,,,,,189,reward,,,,,,1122.80864499975,1122.80864499975,1122.80864499975,1122.80864499975,0,,,0,,,1,0.03015029989182949,0.030153799802064896,0,,,1122.80864499975,1122.80864499975,1122.80864499975,1122.80864499975,9,D,2024-04-19_09h04.06.223,attentional_competition_task,2022.2.4,143.96795891748653,
positions.xlsx,positions_test.xlsx,positions_test_new.xlsx,stimuli.xlsx,stimuli_new.xlsx,stimuli/Social4.png,stimuli/Social3.png,stimuli/Nonsocial4.png,stimuli/Nonsocial3.png,stimuli/Social2.png,stimuli/Social1.png,stimuli/Nonsocial2.png,stimuli/Nonsocial1.png,,,"(-0.7, -0.5)",cs_neg_ns,"(-0.7, 0.5)",cs_neg_s,"(0.7, -0.5)",cs_pos_ns,"(0.7, 0.5)",cs_pos_s,0,0,0,0,,,,,,,,,,,,,,,,,,,,,1,1,25,15,,,,,,,,,,,,,,,,,,,,,,,,,,,198,reward,,,,,,1131.6624447000213,1131.6624447000213,1131.6624447000213,1131.6624447000213,0,,,0,,,0,,,0,,,1132.2666132999584,1132.2666132999584,1132.2666132999584,1132.2666132999584,9,D,2024-04-19_09h04.06.223,attentional_competition_task,2022.2.4,143.96795891748653,
positions.xlsx,positions_test.xlsx,positions_test_new.xlsx,stimuli.xlsx,stimuli_new.xlsx,stimuli/Social4.png,stimuli/Social3.png,stimuli/Nonsocial4.png,stimuli/Nonsocial3.png,stimuli/Social2.png,stimuli/Social1.png,stimuli/Nonsocial2.png,stimuli/Nonsocial1.png,,,"(-0.7, -0.5)",cs_neg_ns,"(-0.7, 0.5)",cs_pos_s,"(0.7, -0.5)",cs_neg_s,"(0.7, 0.5)",cs_pos_ns,0,0,0,0,,,,,,,,,,,,,,,,,,,,,1,2,26,12,,,,,,,,,,,,,,,,,,,,,,,,,,,198,reward,,,,,,1139.342683199793,1139.342683199793,1139.342683199793,1139.342683199793,0,,,1,0.029648799914866686,0.029652699828147888,0,,,0,,,1139.342683199793,1139.342683199793,1139.342683199793,1139.342683199793,9,D,2024-04-19_09h04.06.223,attentional_competition_task,2022.2.4,143.96795891748653,
positions.xlsx,positions_test.xlsx,positions_test_new.xlsx,stimuli.xlsx,stimuli_new.xlsx,stimuli/Social4.png,stimuli/Social3.png,stimuli/Nonsocial4.png,stimuli/Nonsocial3.png,stimuli/Social2.png,stimuli/Social1.png,stimuli/Nonsocial2.png,stimuli/Nonsocial1.png,,,"(-0.7, -0.5)",cs_neg_s,"(-0.7, 0.5)",cs_pos_s,"(0.7, -0.5)",cs_neg_ns,"(0.7, 0.5)",cs_pos_ns,0,0,0,0,,,,,,,,,,,,,,,,,,,,,1,3,27,0,,,,,,,,,,,,,,,,,,,,,,,,,,,204,reward,,,,,,1147.9118172996677,1147.9118172996677,1147.9118172996677,1147.9118172996677,0,,,0,,,0,,,1,0.14167580008506775,0.14167960034683347,1148.050687899813,1148.050687899813,1148.050687899813,1148.050687899813,9,D,2024-04-19_09h04.06.223,attentional_competition_task,2022.2.4,143.96795891748653,
positions.xlsx,positions_test.xlsx,positions_test_new.xlsx,stimuli.xlsx,stimuli_new.xlsx,stimuli/Social4.png,stimuli/Social3.png,stimuli/Nonsocial4.png,stimuli/Nonsocial3.png,stimuli/Social2.png,stimuli/Social1.png,stimuli/Nonsocial2.png,stimuli/Nonsocial1.png,,,"(-0.7, -0.5)",cs_pos_s,"(-0.7, 0.5)",cs_neg_ns,"(0.7, -0.5)",cs_pos_ns,"(0.7, 0.5)",cs_neg_s,0,0,0,0,,,,,,,,,,,,,,,,,,,,,1,4,28,9,,,,,,,,,,,,,,,,,,,,,,,,,,,210,reward,,,,,,1156.4392089997418,1156.4392089997418,1156.4392089997418,1156.4392089997418,1,0.028849500231444836,0.15396150015294552,0,,,1,0.30791090009734035,0.30791440000757575,0,,,1156.7516941996291,1156.7516941996291,1156.7516941996291,1156.7516941996291,9,D,2024-04-19_09h04.06.223,attentional_competition_task,2022.2.4,143.96795891748653,
positions.xlsx,positions_test.xlsx,positions_test_new.xlsx,stimuli.xlsx,stimuli_new.xlsx,stimuli/Social4.png,stimuli/Social3.png,stimuli/Nonsocial4.png,stimuli/Nonsocial3.png,stimuli/Social2.png,stimuli/Social1.png,stimuli/Nonsocial2.png,stimuli/Nonsocial1.png,,,"(-0.7, -0.5)",cs_neg_s,"(-0.7, 0.5)",cs_neg_ns,"(0.7, -0.5)",cs_pos_s,"(0.7, 0.5)",cs_pos_ns,0,0,0,0,,,,,,,,,,,,,,,,,,,,,1,5,29,2,,,,,,,,,,,,,,,,,,,,,,,,,,,204,loss,,,,,,1164.230615099892,1164.230615099892,1164.230615099892,1164.230615099892,0,,,0,,,0,,,0,,,1166.0083389999345,1166.0083389999345,1166.0083389999345,1166.0083389999345,9,D,2024-04-19_09h04.06.223,attentional_competition_task,2022.2.4,143.96795891748653,
positions.xlsx,positions_test.xlsx,positions_test_new.xlsx,stimuli.xlsx,stimuli_new.xlsx,stimuli/Social4.png,stimuli/Social3.png,stimuli/Nonsocial4.png,stimuli/Nonsocial3.png,stimuli/Social2.png,stimuli/Social1.png,stimuli/Nonsocial2.png,stimuli/Nonsocial1.png,,,"(-0.7, -0.5)",cs_pos_s,"(-0.7, 0.5)",cs_neg_s,"(0.7, -0.5)",cs_pos_ns,"(0.7, 0.5)",cs_neg_ns,0,0,0,0,,,,,,,,,,,,,,,,,,,,,1,6,30,7,,,,,,,,,,,,,,,,,,,,,,,,,,,213,reward,,,,,,1173.6329699996859,1173.6329699996859,1173.6329699996859,1173.6329699996859,0,,,0,,,1,0.025182499550282955,0.03836439969018102,0,,,1174.4176953998394,1174.4176953998394,1174.4176953998394,1174.4176953998394,9,D,2024-04-19_09h04.06.223,attentional_competition_task,2022.2.4,143.96795891748653,
positions.xlsx,positions_test.xlsx,positions_test_new.xlsx,stimuli.xlsx,stimuli_new.xlsx,stimuli/Social4.png,stimuli/Social3.png,stimuli/Nonsocial4.png,stimuli/Nonsocial3.png,stimuli/Social2.png,stimuli/Social1.png,stimuli/Nonsocial2.png,stimuli/Nonsocial1.png,,,"(-0.7, -0.5)",cs_neg_ns,"(-0.7, 0.5)",cs_pos_s,"(0.7, -0.5)",cs_pos_ns,"(0.7, 0.5)",cs_neg_s,0,0,0,0,,,,,,,,,,,,,,,,,,,,,1,7,31,13,,,,,,,,,,,,,,,,,,,,,,,,,,,219,reward,,,,,,1181.8757038996555,1181.8757038996555,1181.8757038996555,1181.8757038996555,0,,,2,0.029831300023943186,0.2805496999062598,0,,,0,,,1183.1117895999923,1183.1117895999923,1183.1117895999923,1183.1117895999923,9,D,2024-04-19_09h04.06.223,attentional_competition_task,2022.2.4,143.96795891748653,
positions.xlsx,positions_test.xlsx,positions_test_new.xlsx,stimuli.xlsx,stimuli_new.xlsx,stimuli/Social4.png,stimuli/Social3.png,stimuli/Nonsocial4.png,stimuli/Nonsocial3.png,stimuli/Social2.png,stimuli/Social1.png,stimuli/Nonsocial2.png,stimuli/Nonsocial1.png,,,"(-0.7, -0.5)",cs_neg_s,"(-0.7, 0.5)",cs_pos_ns,"(0.7, -0.5)",cs_pos_s,"(0.7, 0.5)",cs_neg_ns,0,0,0,0,,,,,,,,,,,,,,,,,,,,,1,8,32,4,,,,,,,,,,,,,,,,,,,,,,,,,,,225,reward,,,,,,1190.5490409997292,1190.5490409997292,1190.5490409997292,1190.5490409997292,0,,,1,0.21796560008078814,0.22452299995347857,1,0.037812599912285805,0.06451660022139549,0,,,1190.778138499707,1190.778138499707,1190.778138499707,1190.778138499707,9,D,2024-04-19_09h04.06.223,attentional_competition_task,2022.2.4,143.96795891748653,
positions.xlsx,positions_test.xlsx,positions_test_new.xlsx,stimuli.xlsx,stimuli_new.xlsx,stimuli/Social4.png,stimuli/Social3.png,stimuli/Nonsocial4.png,stimuli/Nonsocial3.png,stimuli/Social2.png,stimuli/Social1.png,stimuli/Nonsocial2.png,stimuli/Nonsocial1.png,,,"(-0.7, -0.5)",cs_pos_s,"(-0.7, 0.5)",cs_pos_ns,"(0.7, -0.5)",cs_neg_s,"(0.7, 0.5)",cs_neg_ns,0,0,0,0,,,,,,,,,,,,,,,,,,,,,1,9,33,10,,,,,,,,,,,,,,,,,,,,,,,,,,,231,reward,,,,,,1199.944447199814,1199.944447199814,1199.944447199814,1199.944447199814,1,0.029322300106287003,0.12694309977814555,1,0.24554280005395412,0.25247539998963475,0,,,0,,,1200.2013664999977,1200.2013664999977,1200.2013664999977,1200.2013664999977,9,D,2024-04-19_09h04.06.223,attentional_competition_task,2022.2.4,143.96795891748653,
positions.xlsx,positions_test.xlsx,positions_test_new.xlsx,stimuli.xlsx,stimuli_new.xlsx,stimuli/Social4.png,stimuli/Social3.png,stimuli/Nonsocial4.png,stimuli/Nonsocial3.png,stimuli/Social2.png,stimuli/Social1.png,stimuli/Nonsocial2.png,stimuli/Nonsocial1.png,,,"(-0.7, -0.5)",cs_neg_s,"(-0.7, 0.5)",cs_neg_ns,"(0.7, -0.5)",cs_pos_ns,"(0.7, 0.5)",cs_pos_s,0,0,0,0,,,,,,,,,,,,,,,,,,,,,1,10,34,3,,,,,,,,,,,,,,,,,,,,,,,,,,,237,reward,,,,,,1208.6524868998677,1208.6524868998677,1208.6524868998677,1208.6524868998677,0,,,0,,,0,,,1,0.029092300217598677,0.4532575001940131,1209.6038002995774,1209.6038002995774,1209.6038002995774,1209.6038002995774,9,D,2024-04-19_09h04.06.223,attentional_competition_task,2022.2.4,143.96795891748653,
positions.xlsx,positions_test.xlsx,positions_test_new.xlsx,stimuli.xlsx,stimuli_new.xlsx,stimuli/Social4.png,stimuli/Social3.png,stimuli/Nonsocial4.png,stimuli/Nonsocial3.png,stimuli/Social2.png,stimuli/Social1.png,stimuli/Nonsocial2.png,stimuli/Nonsocial1.png,,,"(-0.7, -0.5)",cs_pos_ns,"(-0.7, 0.5)",cs_neg_ns,"(0.7, -0.5)",cs_pos_s,"(0.7, 0.5)",cs_neg_s,0,0,0,0,,,,,,,,,,,,,,,,,,,,,1,11,35,20,,,,,,,,,,,,,,,,,,,,,,,,,,,243,reward,,,,,,1216.679892399814,1216.679892399814,1216.679892399814,1216.679892399814,0,,,0,,,1,0.031222600024193525,0.7255359999835491,0,,,1217.9020752999932,1217.9020752999932,1217.9020752999932,1217.9020752999932,9,D,2024-04-19_09h04.06.223,attentional_competition_task,2022.2.4,143.96795891748653,
positions.xlsx,positions_test.xlsx,positions_test_new.xlsx,stimuli.xlsx,stimuli_new.xlsx,stimuli/Social4.png,stimuli/Social3.png,stimuli/Nonsocial4.png,stimuli/Nonsocial3.png,stimuli/Social2.png,stimuli/Social1.png,stimuli/Nonsocial2.png,stimuli/Nonsocial1.png,,,"(-0.7, -0.5)",cs_pos_s,"(-0.7, 0.5)",cs_neg_ns,"(0.7, -0.5)",cs_neg_s,"(0.7, 0.5)",cs_pos_ns,0,0,0,0,,,,,,,,,,,,,,,,,,,,,1,12,36,8,,,,,,,,,,,,,,,,,,,,,,,,,,,249,reward,,,,,,1225.0267988997512,1225.0267988997512,1225.0267988997512,1225.0267988997512,1,0.028831900097429752,0.7512862998992205,0,,,0,,,0,,,1226.4572858000174,1226.4572858000174,1226.4572858000174,1226.4572858000174,9,D,2024-04-19_09h04.06.223,attentional_competition_task,2022.2.4,143.96795891748653,
positions.xlsx,positions_test.xlsx,positions_test_new.xlsx,stimuli.xlsx,stimuli_new.xlsx,stimuli/Social4.png,stimuli/Social3.png,stimuli/Nonsocial4.png,stimuli/Nonsocial3.png,stimuli/Social2.png,stimuli/Social1.png,stimuli/Nonsocial2.png,stimuli/Nonsocial1.png,,,"(-0.7, -0.5)",cs_pos_s,"(-0.7, 0.5)",cs_neg_s,"(0.7, -0.5)",cs_neg_ns,"(0.7, 0.5)",cs_pos_ns,0,0,0,0,,,,,,,,,,,,,,,,,,,,,1,13,37,6,,,,,,,,,,,,,,,,,,,,,,,,,,,255,reward,,,,,,1233.1097885998897,1233.1097885998897,1233.1097885998897,1233.1097885998897,0,,,0,,,0,,,0,,,1234.5819577998482,1234.5819577998482,1234.5819577998482,1234.5819577998482,9,D,2024-04-19_09h04.06.223,attentional_competition_task,2022.2.4,143.96795891748653,
positions.xlsx,positions_test.xlsx,positions_test_new.xlsx,stimuli.xlsx,stimuli_new.xlsx,stimuli/Social4.png,stimuli/Social3.png,stimuli/Nonsocial4.png,stimuli/Nonsocial3.png,stimuli/Social2.png,stimuli/Social1.png,stimuli/Nonsocial2.png,stimuli/Nonsocial1.png,,,"(-0.7, -0.5)",cs_neg_s,"(-0.7, 0.5)",cs_pos_s,"(0.7, -0.5)",cs_pos_ns,"(0.7, 0.5)",cs_neg_ns,0,0,0,0,,,,,,,,,,,,,,,,,,,,,1,14,38,1,,,,,,,,,,,,,,,,,,,,,,,,,,,261,reward,,,,,,1241.6025032997131,1241.6025032997131,1241.6025032997131,1241.6025032997131,0,,,1,0.029287100303918123,0.8767295000143349,0,,,0,,,1242.9844208997674,1242.9844208997674,1242.9844208997674,1242.9844208997674,9,D,2024-04-19_09h04.06.223,attentional_competition_task,2022.2.4,143.96795891748653,
positions.xlsx,positions_test.xlsx,positions_test_new.xlsx,stimuli.xlsx,stimuli_new.xlsx,stimuli/Social4.png,stimuli/Social3.png,stimuli/Nonsocial4.png,stimuli/Nonsocial3.png,stimuli/Social2.png,stimuli/Social1.png,stimuli/Nonsocial2.png,stimuli/Nonsocial1.png,,,"(-0.7, -0.5)",cs_pos_ns,"(-0.7, 0.5)",cs_pos_s,"(0.7, -0.5)",cs_neg_ns,"(0.7, 0.5)",cs_neg_s,0,0,0,0,,,,,,,,,,,,,,,,,,,,,1,15,39,18,,,,,,,,,,,,,,,,,,,,,,,,,,,267,reward,,,,,,1249.574394899886,1249.574394899886,1249.574394899886,1249.574394899886,0,,,1,0.030153000261634588,0.9683599001727998,0,,,0,,,1251.046585300006,1251.046585300006,1251.046585300006,1251.046585300006,9,D,2024-04-19_09h04.06.223,attentional_competition_task,2022.2.4,143.96795891748653,
positions.xlsx,positions_test.xlsx,positions_test_new.xlsx,stimuli.xlsx,stimuli_new.xlsx,stimuli/Social4.png,stimuli/Social3.png,stimuli/Nonsocial4.png,stimuli/Nonsocial3.png,stimuli/Social2.png,stimuli/Social1.png,stimuli/Nonsocial2.png,stimuli/Nonsocial1.png,,,"(-0.7, -0.5)",cs_pos_ns,"(-0.7, 0.5)",cs_neg_ns,"(0.7, -0.5)",cs_neg_s,"(0.7, 0.5)",cs_pos_s,0,0,0,0,,,,,,,,,,,,,,,,,,,,,1,16,40,21,,,,,,,,,,,,,,,,,,,,,,,,,,,270,reward,,,,,,1258.997681999579,1258.997681999579,1258.997681999579,1258.997681999579,0,,,0,,,0,,,1,0.02524049999192357,0.2396503002382815,1259.7406812999398,1259.7406812999398,1259.7406812999398,1259.7406812999398,9,D,2024-04-19_09h04.06.223,attentional_competition_task,2022.2.4,143.96795891748653,
positions.xlsx,positions_test.xlsx,positions_test_new.xlsx,stimuli.xlsx,stimuli_new.xlsx,stimuli/Social4.png,stimuli/Social3.png,stimuli/Nonsocial4.png,stimuli/Nonsocial3.png,stimuli/Social2.png,stimuli/Social1.png,stimuli/Nonsocial2.png,stimuli/Nonsocial1.png,,,"(-0.7, -0.5)",cs_pos_ns,"(-0.7, 0.5)",cs_pos_s,"(0.7, -0.5)",cs_neg_s,"(0.7, 0.5)",cs_neg_ns,0,0,0,0,,,,,,,,,,,,,,,,,,,,,1,17,41,19,,,,,,,,,,,,,,,,,,,,,,,,,,,276,reward,,,,,,1266.8028773996048,1266.8028773996048,1266.8028773996048,1266.8028773996048,0,,,1,0.023049499839544296,0.19772549998015165,0,,,0,,,1268.3029191000387,1268.3029191000387,1268.3029191000387,1268.3029191000387,9,D,2024-04-19_09h04.06.223,attentional_competition_task,2022.2.4,143.96795891748653,
positions.xlsx,positions_test.xlsx,positions_test_new.xlsx,stimuli.xlsx,stimuli_new.xlsx,stimuli/Social4.png,stimuli/Social3.png,stimuli/Nonsocial4.png,stimuli/Nonsocial3.png,stimuli/Social2.png,stimuli/Social1.png,stimuli/Nonsocial2.png,stimuli/Nonsocial1.png,,,"(-0.7, -0.5)",cs_pos_ns,"(-0.7, 0.5)",cs_neg_s,"(0.7, -0.5)",cs_neg_ns,"(0.7, 0.5)",cs_pos_s,0,0,0,0,,,,,,,,,,,,,,,,,,,,,1,18,42,23,,,,,,,,,,,,,,,,,,,,,,,,,,,282,reward,,,,,,1275.5733383996412,1275.5733383996412,1275.5733383996412,1275.5733383996412,0,,,0,,,0,,,1,0.03049069968983531,0.21840749960392714,1276.9135847999714,1276.9135847999714,1276.9135847999714,1276.9135847999714,9,D,2024-04-19_09h04.06.223,attentional_competition_task,2022.2.4,143.96795891748653,
positions.xlsx,positions_test.xlsx,positions_test_new.xlsx,stimuli.xlsx,stimuli_new.xlsx,stimuli/Social4.png,stimuli/Social3.png,stimuli/Nonsocial4.png,stimuli/Nonsocial3.png,stimuli/Social2.png,stimuli/Social1.png,stimuli/Nonsocial2.png,stimuli/Nonsocial1.png,,,"(-0.7, -0.5)",cs_pos_s,"(-0.7, 0.5)",cs_pos_ns,"(0.7, -0.5)",cs_neg_ns,"(0.7, 0.5)",cs_neg_s,0,0,0,0,,,,,,,,,,,,,,,,,,,,,1,19,43,11,,,,,,,,,,,,,,,,,,,,,,,,,,,291,reward,,,,,,1284.1841490999795,1284.1841490999795,1284.1841490999795,1284.1841490999795,0,,,0,,,0,,,0,,,1284.89245699998,1284.89245699998,1284.89245699998,1284.89245699998,9,D,2024-04-19_09h04.06.223,attentional_competition_task,2022.2.4,143.96795891748653,
positions.xlsx,positions_test.xlsx,positions_test_new.xlsx,stimuli.xlsx,stimuli_new.xlsx,stimuli/Social4.png,stimuli/Social3.png,stimuli/Nonsocial4.png,stimuli/Nonsocial3.png,stimuli/Social2.png,stimuli/Social1.png,stimuli/Nonsocial2.png,stimuli/Nonsocial1.png,,,"(-0.7, -0.5)",cs_neg_s,"(-0.7, 0.5)",cs_pos_ns,"(0.7, -0.5)",cs_neg_ns,"(0.7, 0.5)",cs_pos_s,0,0,0,0,,,,,,,,,,,,,,,,,,,,,1,20,44,5,,,,,,,,,,,,,,,,,,,,,,,,,,,294,reward,,,,,,1292.0102296997793,1292.0102296997793,1292.0102296997793,1292.0102296997793,0,,,0,,,0,,,0,,,1292.8088036999106,1292.8088036999106,1292.8088036999106,1292.8088036999106,9,D,2024-04-19_09h04.06.223,attentional_competition_task,2022.2.4,143.96795891748653,
positions.xlsx,positions_test.xlsx,positions_test_new.xlsx,stimuli.xlsx,stimuli_new.xlsx,stimuli/Social4.png,stimuli/Social3.png,stimuli/Nonsocial4.png,stimuli/Nonsocial3.png,stimuli/Social2.png,stimuli/Social1.png,stimuli/Nonsocial2.png,stimuli/Nonsocial1.png,,,"(-0.7, -0.5)",cs_neg_ns,"(-0.7, 0.5)",cs_pos_ns,"(0.7, -0.5)",cs_neg_s,"(0.7, 0.5)",cs_pos_s,0,0,0,0,,,,,,,,,,,,,,,,,,,,,1,21,45,17,,,,,,,,,,,,,,,,,,,,,,,,,,,291,loss,,,,,,1300.6487737996504,1300.6487737996504,1300.6487737996504,1300.6487737996504,0,,,0,,,0,,,0,,,1301.8015116997994,1301.8015116997994,1301.8015116997994,1301.8015116997994,9,D,2024-04-19_09h04.06.223,attentional_competition_task,2022.2.4,143.96795891748653,
positions.xlsx,positions_test.xlsx,positions_test_new.xlsx,stimuli.xlsx,stimuli_new.xlsx,stimuli/Social4.png,stimuli/Social3.png,stimuli/Nonsocial4.png,stimuli/Nonsocial3.png,stimuli/Social2.png,stimuli/Social1.png,stimuli/Nonsocial2.png,stimuli/Nonsocial1.png,,,"(-0.7, -0.5)",cs_neg_ns,"(-0.7, 0.5)",cs_neg_s,"(0.7, -0.5)",cs_pos_s,"(0.7, 0.5)",cs_pos_ns,0,0,0,0,,,,,,,,,,,,,,,,,,,,,1,22,46,14,,,,,,,,,,,,,,,,,,,,,,,,,,,300,reward,,,,,,1309.940030099824,1309.940030099824,1309.940030099824,1309.940030099824,0,,,0,,,0,,,0,,,1310.6761451000348,1310.6761451000348,1310.6761451000348,1310.6761451000348,9,D,2024-04-19_09h04.06.223,attentional_competition_task,2022.2.4,143.96795891748653,
positions.xlsx,positions_test.xlsx,positions_test_new.xlsx,stimuli.xlsx,stimuli_new.xlsx,stimuli/Social4.png,stimuli/Social3.png,stimuli/Nonsocial4.png,stimuli/Nonsocial3.png,stimuli/Social2.png,stimuli/Social1.png,stimuli/Nonsocial2.png,stimuli/Nonsocial1.png,,,"(-0.7, -0.5)",cs_neg_ns,"(-0.7, 0.5)",cs_pos_ns,"(0.7, -0.5)",cs_pos_s,"(0.7, 0.5)",cs_neg_s,0,0,0,0,,,,,,,,,,,,,,,,,,,,,1,23,47,16,,,,,,,,,,,,,,,,,,,,,,,,,,,309,reward,,,,,,1317.6133964997716,1317.6133964997716,1317.6133964997716,1317.6133964997716,0,,,0,,,0,,,0,,,1318.5647075995803,1318.5647075995803,1318.5647075995803,1318.5647075995803,9,D,2024-04-19_09h04.06.223,attentional_competition_task,2022.2.4,143.96795891748653,
positions.xlsx,positions_test.xlsx,positions_test_new.xlsx,stimuli.xlsx,stimuli_new.xlsx,stimuli/Social4.png,stimuli/Social3.png,stimuli/Nonsocial4.png,stimuli/Nonsocial3.png,stimuli/Social2.png,stimuli/Social1.png,stimuli/Nonsocial2.png,stimuli/Nonsocial1.png,,,"(-0.7, -0.5)",cs_pos_ns_new,"(-0.7, 0.5)",cs_neg_ns,"(0.7, -0.5)",cs_neg_s,"(0.7, 0.5)",cs_pos_s,0,0,0,0,,,,,,,,,,,,,,,,,,,,,,,,,,,,,0,0,0,44,0,0,0,0,,,,,,,,,,,,,,,312,reward,,,,,,1324.6478207996115,1324.6478207996115,1324.6478207996115,1324.6478207996115,0,,,0,,,0,,,1,0.6276488001458347,0.6276529002934694,1325.279778499622,1325.279778499622,1325.279778499622,1325.279778499622,9,D,2024-04-19_09h04.06.223,attentional_competition_task,2022.2.4,143.96795891748653,
positions.xlsx,positions_test.xlsx,positions_test_new.xlsx,stimuli.xlsx,stimuli_new.xlsx,stimuli/Social4.png,stimuli/Social3.png,stimuli/Nonsocial4.png,stimuli/Nonsocial3.png,stimuli/Social2.png,stimuli/Social1.png,stimuli/Nonsocial2.png,stimuli/Nonsocial1.png,,,"(-0.7, -0.5)",cs_pos_ns_new,"(-0.7, 0.5)",cs_neg_ns,"(0.7, -0.5)",cs_neg_s,"(0.7, 0.5)",cs_pos_s,0,0,0,0,,,,,,,,,,,,,,,,,,,,,,,,,,,,,0,0,0,44,1,0,1,0,,,,,,,,,,,,,,,315,reward,,,,,,1325.814413999673,1325.814413999673,1325.814413999673,1325.814413999673,1,0.03047659993171692,0.030480800196528435,0,,,0,,,0,,,1325.814413999673,1325.814413999673,1325.814413999673,1325.814413999673,9,D,2024-04-19_09h04.06.223,attentional_competition_task,2022.2.4,143.96795891748653,
positions.xlsx,positions_test.xlsx,positions_test_new.xlsx,stimuli.xlsx,stimuli_new.xlsx,stimuli/Social4.png,stimuli/Social3.png,stimuli/Nonsocial4.png,stimuli/Nonsocial3.png,stimuli/Social2.png,stimuli/Social1.png,stimuli/Nonsocial2.png,stimuli/Nonsocial1.png,,,"(-0.7, -0.5)",cs_pos_ns_new,"(-0.7, 0.5)",cs_neg_ns,"(0.7, -0.5)",cs_neg_s,"(0.7, 0.5)",cs_pos_s,0,0,0,0,,,,,,,,,,,,,,,,,,,,,,,,,,,,,0,0,0,44,2,0,2,0,,,,,,,,,,,,,,,318,reward,,,,,,1326.3213376998901,1326.3213376998901,1326.3213376998901,1326.3213376998901,1,0.029045300092548132,0.3283986998721957,0,,,0,,,0,,,1327.161602200009,1327.161602200009,1327.161602200009,1327.161602200009,9,D,2024-04-19_09h04.06.223,attentional_competition_task,2022.2.4,143.96795891748653,
positions.xlsx,positions_test.xlsx,positions_test_new.xlsx,stimuli.xlsx,stimuli_new.xlsx,stimuli/Social4.png,stimuli/Social3.png,stimuli/Nonsocial4.png,stimuli/Nonsocial3.png,stimuli/Social2.png,stimuli/Social1.png,stimuli/Nonsocial2.png,stimuli/Nonsocial1.png,,,"(-0.7, -0.5)",cs_pos_ns_new,"(-0.7, 0.5)",cs_neg_ns,"(0.7, -0.5)",cs_neg_s,"(0.7, 0.5)",cs_pos_s,0,0,0,0,,,,,,,,,,,,,,,,,,,,,,,,,,,,,0,0,0,44,,,,,,,,,,,,,,,,,,,,,,,,,,,,,,,,,,,,,,,,,,,,,,9,D,2024-04-19_09h04.06.223,attentional_competition_task,2022.2.4,143.96795891748653,
positions.xlsx,positions_test.xlsx,positions_test_new.xlsx,stimuli.xlsx,stimuli_new.xlsx,stimuli/Social4.png,stimuli/Social3.png,stimuli/Nonsocial4.png,stimuli/Nonsocial3.png,stimuli/Social2.png,stimuli/Social1.png,stimuli/Nonsocial2.png,stimuli/Nonsocial1.png,,,"(-0.7, -0.5)",cs_neg_ns,"(-0.7, 0.5)",cs_neg_s,"(0.7, -0.5)",cs_pos_s_new,"(0.7, 0.5)",cs_pos_ns,0,0,0,0,,,,,,,,,,,,,,,,,,,,,,,,,,,,,0,1,1,35,0,0,0,0,,,,,,,,,,,,,,,315,loss,,,,,,1333.1960760997608,1333.1960760997608,1333.1960760997608,1333.1960760997608,0,,,1,0.5027967998757958,0.5088713997974992,0,,,0,,,1333.7099508997053,1333.7099508997053,1333.7099508997053,1333.7099508997053,9,D,2024-04-19_09h04.06.223,attentional_competition_task,2022.2.4,143.96795891748653,
positions.xlsx,positions_test.xlsx,positions_test_new.xlsx,stimuli.xlsx,stimuli_new.xlsx,stimuli/Social4.png,stimuli/Social3.png,stimuli/Nonsocial4.png,stimuli/Nonsocial3.png,stimuli/Social2.png,stimuli/Social1.png,stimuli/Nonsocial2.png,stimuli/Nonsocial1.png,,,"(-0.7, -0.5)",cs_neg_ns,"(-0.7, 0.5)",cs_neg_s,"(0.7, -0.5)",cs_pos_s_new,"(0.7, 0.5)",cs_pos_ns,0,0,0,0,,,,,,,,,,,,,,,,,,,,,,,,,,,,,0,1,1,35,1,0,1,0,,,,,,,,,,,,,,,318,reward,,,,,,1334.2516393996775,1334.2516393996775,1334.2516393996775,1334.2516393996775,0,,,0,,,1,0.02964029973372817,0.029658999759703875,0,,,1334.2516393996775,1334.2516393996775,1334.2516393996775,1334.2516393996775,9,D,2024-04-19_09h04.06.223,attentional_competition_task,2022.2.4,143.96795891748653,
positions.xlsx,positions_test.xlsx,positions_test_new.xlsx,stimuli.xlsx,stimuli_new.xlsx,stimuli/Social4.png,stimuli/Social3.png,stimuli/Nonsocial4.png,stimuli/Nonsocial3.png,stimuli/Social2.png,stimuli/Social1.png,stimuli/Nonsocial2.png,stimuli/Nonsocial1.png,,,"(-0.7, -0.5)",cs_neg_ns,"(-0.7, 0.5)",cs_neg_s,"(0.7, -0.5)",cs_pos_s_new,"(0.7, 0.5)",cs_pos_ns,0,0,0,0,,,,,,,,,,,,,,,,,,,,,,,,,,,,,0,1,1,35,2,0,2,0,,,,,,,,,,,,,,,321,reward,,,,,,1334.7793377996422,1334.7793377996422,1334.7793377996422,1334.7793377996422,0,,,0,,,0,,,1,0.028092300053685904,0.02809600019827485,1334.7793377996422,1334.7793377996422,1334.7793377996422,1334.7793377996422,9,D,2024-04-19_09h04.06.223,attentional_competition_task,2022.2.4,143.96795891748653,
positions.xlsx,positions_test.xlsx,positions_test_new.xlsx,stimuli.xlsx,stimuli_new.xlsx,stimuli/Social4.png,stimuli/Social3.png,stimuli/Nonsocial4.png,stimuli/Nonsocial3.png,stimuli/Social2.png,stimuli/Social1.png,stimuli/Nonsocial2.png,stimuli/Nonsocial1.png,,,"(-0.7, -0.5)",cs_neg_ns,"(-0.7, 0.5)",cs_neg_s,"(0.7, -0.5)",cs_pos_s_new,"(0.7, 0.5)",cs_pos_ns,0,0,0,0,,,,,,,,,,,,,,,,,,,,,,,,,,,,,0,1,1,35,,,,,,,,,,,,,,,,,,,,,,,,,,,,,,,,,,,,,,,,,,,,,,9,D,2024-04-19_09h04.06.223,attentional_competition_task,2022.2.4,143.96795891748653,
positions.xlsx,positions_test.xlsx,positions_test_new.xlsx,stimuli.xlsx,stimuli_new.xlsx,stimuli/Social4.png,stimuli/Social3.png,stimuli/Nonsocial4.png,stimuli/Nonsocial3.png,stimuli/Social2.png,stimuli/Social1.png,stimuli/Nonsocial2.png,stimuli/Nonsocial1.png,,,"(-0.7, -0.5)",cs_pos_s_new,"(-0.7, 0.5)",cs_neg_s,"(0.7, -0.5)",cs_pos_ns,"(0.7, 0.5)",cs_neg_ns,0,0,0,0,,,,,,,,,,,,,,,,,,,,,,,,,,,,,0,2,2,29,0,0,0,0,,,,,,,,,,,,,,,324,reward,,,,,,1341.244361399673,1341.244361399673,1341.244361399673,1341.244361399673,0,,,0,,,1,0.926006400026381,0.9330187002196908,0,,,1342.3068594997749,1342.3068594997749,1342.3068594997749,1342.3068594997749,9,D,2024-04-19_09h04.06.223,attentional_competition_task,2022.2.4,143.96795891748653,
positions.xlsx,positions_test.xlsx,positions_test_new.xlsx,stimuli.xlsx,stimuli_new.xlsx,stimuli/Social4.png,stimuli/Social3.png,stimuli/Nonsocial4.png,stimuli/Nonsocial3.png,stimuli/Social2.png,stimuli/Social1.png,stimuli/Nonsocial2.png,stimuli/Nonsocial1.png,,,"(-0.7, -0.5)",cs_pos_s_new,"(-0.7, 0.5)",cs_neg_s,"(0.7, -0.5)",cs_pos_ns,"(0.7, 0.5)",cs_neg_ns,0,0,0,0,,,,,,,,,,,,,,,,,,,,,,,,,,,,,0,2,2,29,1,0,1,0,,,,,,,,,,,,,,,327,reward,,,,,,1342.8415248999372,1342.8415248999372,1342.8415248999372,1342.8415248999372,1,0.02666099974885583,0.026665200013667345,0,,,0,,,0,,,1342.8415248999372,1342.8415248999372,1342.8415248999372,1342.8415248999372,9,D,2024-04-19_09h04.06.223,attentional_competition_task,2022.2.4,143.96795891748653,
positions.xlsx,positions_test.xlsx,positions_test_new.xlsx,stimuli.xlsx,stimuli_new.xlsx,stimuli/Social4.png,stimuli/Social3.png,stimuli/Nonsocial4.png,stimuli/Nonsocial3.png,stimuli/Social2.png,stimuli/Social1.png,stimuli/Nonsocial2.png,stimuli/Nonsocial1.png,,,"(-0.7, -0.5)",cs_pos_s_new,"(-0.7, 0.5)",cs_neg_s,"(0.7, -0.5)",cs_pos_ns,"(0.7, 0.5)",cs_neg_ns,0,0,0,0,,,,,,,,,,,,,,,,,,,,,,,,,,,,,0,2,2,29,,,,,,,,,,,,,,,,,,,,,,,,,,,,,,,,,,,,,,,,,,,,,,9,D,2024-04-19_09h04.06.223,attentional_competition_task,2022.2.4,143.96795891748653,
positions.xlsx,positions_test.xlsx,positions_test_new.xlsx,stimuli.xlsx,stimuli_new.xlsx,stimuli/Social4.png,stimuli/Social3.png,stimuli/Nonsocial4.png,stimuli/Nonsocial3.png,stimuli/Social2.png,stimuli/Social1.png,stimuli/Nonsocial2.png,stimuli/Nonsocial1.png,,,"(-0.7, -0.5)",cs_neg_ns,"(-0.7, 0.5)",cs_neg_s,"(0.7, -0.5)",cs_pos_ns_new,"(0.7, 0.5)",cs_pos_s,0,0,0,0,,,,,,,,,,,,,,,,,,,,,,,,,,,,,0,3,3,43,0,0,0,0,,,,,,,,,,,,,,,330,reward,,,,,,1349.9801082997583,1349.9801082997583,1349.9801082997583,1349.9801082997583,0,,,0,,,0,,,1,0.857040399685502,0.8570439997129142,1350.841206399724,1350.841206399724,1350.841206399724,1350.841206399724,9,D,2024-04-19_09h04.06.223,attentional_competition_task,2022.2.4,143.96795891748653,
positions.xlsx,positions_test.xlsx,positions_test_new.xlsx,stimuli.xlsx,stimuli_new.xlsx,stimuli/Social4.png,stimuli/Social3.png,stimuli/Nonsocial4.png,stimuli/Nonsocial3.png,stimuli/Social2.png,stimuli/Social1.png,stimuli/Nonsocial2.png,stimuli/Nonsocial1.png,,,"(-0.7, -0.5)",cs_neg_ns,"(-0.7, 0.5)",cs_neg_s,"(0.7, -0.5)",cs_pos_ns_new,"(0.7, 0.5)",cs_pos_s,0,0,0,0,,,,,,,,,,,,,,,,,,,,,,,,,,,,,0,3,3,43,1,0,1,0,,,,,,,,,,,,,,,333,reward,,,,,,1351.3758871997707,1351.3758871997707,1351.3758871997707,1351.3758871997707,0,,,0,,,1,0.030225600115954876,0.030229200143367052,0,,,1351.3758871997707,1351.3758871997707,1351.3758871997707,1351.3758871997707,9,D,2024-04-19_09h04.06.223,attentional_competition_task,2022.2.4,143.96795891748653,
positions.xlsx,positions_test.xlsx,positions_test_new.xlsx,stimuli.xlsx,stimuli_new.xlsx,stimuli/Social4.png,stimuli/Social3.png,stimuli/Nonsocial4.png,stimuli/Nonsocial3.png,stimuli/Social2.png,stimuli/Social1.png,stimuli/Nonsocial2.png,stimuli/Nonsocial1.png,,,"(-0.7, -0.5)",cs_neg_ns,"(-0.7, 0.5)",cs_neg_s,"(0.7, -0.5)",cs_pos_ns_new,"(0.7, 0.5)",cs_pos_s,0,0,0,0,,,,,,,,,,,,,,,,,,,,,,,,,,,,,0,3,3,43,2,0,2,0,,,,,,,,,,,,,,,336,reward,,,,,,1351.8758996999823,1351.8758996999823,1351.8758996999823,1351.8758996999823,0,,,0,,,1,0.024298700038343668,0.1141885002143681,0,,,1352.4939597998746,1352.4939597998746,1352.4939597998746,1352.4939597998746,9,D,2024-04-19_09h04.06.223,attentional_competition_task,2022.2.4,143.96795891748653,
positions.xlsx,positions_test.xlsx,positions_test_new.xlsx,stimuli.xlsx,stimuli_new.xlsx,stimuli/Social4.png,stimuli/Social3.png,stimuli/Nonsocial4.png,stimuli/Nonsocial3.png,stimuli/Social2.png,stimuli/Social1.png,stimuli/Nonsocial2.png,stimuli/Nonsocial1.png,,,"(-0.7, -0.5)",cs_neg_ns,"(-0.7, 0.5)",cs_neg_s,"(0.7, -0.5)",cs_pos_ns_new,"(0.7, 0.5)",cs_pos_s,0,0,0,0,,,,,,,,,,,,,,,,,,,,,,,,,,,,,0,3,3,43,,,,,,,,,,,,,,,,,,,,,,,,,,,,,,,,,,,,,,,,,,,,,,9,D,2024-04-19_09h04.06.223,attentional_competition_task,2022.2.4,143.96795891748653,
positions.xlsx,positions_test.xlsx,positions_test_new.xlsx,stimuli.xlsx,stimuli_new.xlsx,stimuli/Social4.png,stimuli/Social3.png,stimuli/Nonsocial4.png,stimuli/Nonsocial3.png,stimuli/Social2.png,stimuli/Social1.png,stimuli/Nonsocial2.png,stimuli/Nonsocial1.png,,,"(-0.7, -0.5)",cs_pos_s,"(-0.7, 0.5)",cs_neg_s,"(0.7, -0.5)",cs_neg_ns,"(0.7, 0.5)",cs_pos_ns_new,0,0,0,0,,,,,,,,,,,,,,,,,,,,,,,,,,,,,0,4,4,47,0,0,0,0,,,,,,,,,,,,,,,339,reward,,,,,,1359.0839911997318,1359.0839911997318,1359.0839911997318,1359.0839911997318,0,,,0,,,0,,,1,0.9260538998059928,0.926057799719274,1360.0144081995822,1360.0144081995822,1360.0144081995822,1360.0144081995822,9,D,2024-04-19_09h04.06.223,attentional_competition_task,2022.2.4,143.96795891748653,
positions.xlsx,positions_test.xlsx,positions_test_new.xlsx,stimuli.xlsx,stimuli_new.xlsx,stimuli/Social4.png,stimuli/Social3.png,stimuli/Nonsocial4.png,stimuli/Nonsocial3.png,stimuli/Social2.png,stimuli/Social1.png,stimuli/Nonsocial2.png,stimuli/Nonsocial1.png,,,"(-0.7, -0.5)",cs_pos_s,"(-0.7, 0.5)",cs_neg_s,"(0.7, -0.5)",cs_neg_ns,"(0.7, 0.5)",cs_pos_ns_new,0,0,0,0,,,,,,,,,,,,,,,,,,,,,,,,,,,,,0,4,4,47,1,0,1,0,,,,,,,,,,,,,,,342,reward,,,,,,1360.5422343998216,1360.5422343998216,1360.5422343998216,1360.5422343998216,1,0.028793799690902233,0.02879749983549118,0,,,0,,,0,,,1360.5422343998216,1360.5422343998216,1360.5422343998216,1360.5422343998216,9,D,2024-04-19_09h04.06.223,attentional_competition_task,2022.2.4,143.96795891748653,
positions.xlsx,positions_test.xlsx,positions_test_new.xlsx,stimuli.xlsx,stimuli_new.xlsx,stimuli/Social4.png,stimuli/Social3.png,stimuli/Nonsocial4.png,stimuli/Nonsocial3.png,stimuli/Social2.png,stimuli/Social1.png,stimuli/Nonsocial2.png,stimuli/Nonsocial1.png,,,"(-0.7, -0.5)",cs_pos_s,"(-0.7, 0.5)",cs_neg_s,"(0.7, -0.5)",cs_neg_ns,"(0.7, 0.5)",cs_pos_ns_new,0,0,0,0,,,,,,,,,,,,,,,,,,,,,,,,,,,,,0,4,4,47,2,0,2,0,,,,,,,,,,,,,,,345,reward,,,,,,1361.0491186999716,1361.0491186999716,1361.0491186999716,1361.0491186999716,1,0.02322829980403185,0.04528119973838329,0,,,0,,,0,,,1361.5977304996923,1361.5977304996923,1361.5977304996923,1361.5977304996923,9,D,2024-04-19_09h04.06.223,attentional_competition_task,2022.2.4,143.96795891748653,
positions.xlsx,positions_test.xlsx,positions_test_new.xlsx,stimuli.xlsx,stimuli_new.xlsx,stimuli/Social4.png,stimuli/Social3.png,stimuli/Nonsocial4.png,stimuli/Nonsocial3.png,stimuli/Social2.png,stimuli/Social1.png,stimuli/Nonsocial2.png,stimuli/Nonsocial1.png,,,"(-0.7, -0.5)",cs_pos_s,"(-0.7, 0.5)",cs_neg_s,"(0.7, -0.5)",cs_neg_ns,"(0.7, 0.5)",cs_pos_ns_new,0,0,0,0,,,,,,,,,,,,,,,,,,,,,,,,,,,,,0,4,4,47,,,,,,,,,,,,,,,,,,,,,,,,,,,,,,,,,,,,,,,,,,,,,,9,D,2024-04-19_09h04.06.223,attentional_competition_task,2022.2.4,143.96795891748653,
positions.xlsx,positions_test.xlsx,positions_test_new.xlsx,stimuli.xlsx,stimuli_new.xlsx,stimuli/Social4.png,stimuli/Social3.png,stimuli/Nonsocial4.png,stimuli/Nonsocial3.png,stimuli/Social2.png,stimuli/Social1.png,stimuli/Nonsocial2.png,stimuli/Nonsocial1.png,,,"(-0.7, -0.5)",cs_pos_s,"(-0.7, 0.5)",cs_neg_s_new,"(0.7, -0.5)",cs_neg_ns,"(0.7, 0.5)",cs_pos_ns,0,0,0,0,,,,,,,,,,,,,,,,,,,,,,,,,,,,,0,5,5,13,0,0,0,0,,,,,,,,,,,,,,,348,reward,,,,,,1367.8752428996377,1367.8752428996377,1367.8752428996377,1367.8752428996377,1,0.9253805996850133,0.9327067998237908,0,,,0,,,0,,,1368.8127370998263,1368.8127370998263,1368.8127370998263,1368.8127370998263,9,D,2024-04-19_09h04.06.223,attentional_competition_task,2022.2.4,143.96795891748653,
positions.xlsx,positions_test.xlsx,positions_test_new.xlsx,stimuli.xlsx,stimuli_new.xlsx,stimuli/Social4.png,stimuli/Social3.png,stimuli/Nonsocial4.png,stimuli/Nonsocial3.png,stimuli/Social2.png,stimuli/Social1.png,stimuli/Nonsocial2.png,stimuli/Nonsocial1.png,,,"(-0.7, -0.5)",cs_pos_s,"(-0.7, 0.5)",cs_neg_s_new,"(0.7, -0.5)",cs_neg_ns,"(0.7, 0.5)",cs_pos_ns,0,0,0,0,,,,,,,,,,,,,,,,,,,,,,,,,,,,,0,5,5,13,1,0,1,0,,,,,,,,,,,,,,,345,loss,,,,,,1369.3126621996053,1369.3126621996053,1369.3126621996053,1369.3126621996053,0,,,0,,,1,0.10008140001446009,0.10008519981056452,0,,,1369.416835599579,1369.416835599579,1369.416835599579,1369.416835599579,9,D,2024-04-19_09h04.06.223,attentional_competition_task,2022.2.4,143.96795891748653,
positions.xlsx,positions_test.xlsx,positions_test_new.xlsx,stimuli.xlsx,stimuli_new.xlsx,stimuli/Social4.png,stimuli/Social3.png,stimuli/Nonsocial4.png,stimuli/Nonsocial3.png,stimuli/Social2.png,stimuli/Social1.png,stimuli/Nonsocial2.png,stimuli/Nonsocial1.png,,,"(-0.7, -0.5)",cs_pos_s,"(-0.7, 0.5)",cs_neg_s_new,"(0.7, -0.5)",cs_neg_ns,"(0.7, 0.5)",cs_pos_ns,0,0,0,0,,,,,,,,,,,,,,,,,,,,,,,,,,,,,0,5,5,13,,,,,,,,,,,,,,,,,,,,,,,,,,,,,,,,,,,,,,,,,,,,,,9,D,2024-04-19_09h04.06.223,attentional_competition_task,2022.2.4,143.96795891748653,
positions.xlsx,positions_test.xlsx,positions_test_new.xlsx,stimuli.xlsx,stimuli_new.xlsx,stimuli/Social4.png,stimuli/Social3.png,stimuli/Nonsocial4.png,stimuli/Nonsocial3.png,stimuli/Social2.png,stimuli/Social1.png,stimuli/Nonsocial2.png,stimuli/Nonsocial1.png,,,"(-0.7, -0.5)",cs_pos_ns,"(-0.7, 0.5)",cs_neg_s_new,"(0.7, -0.5)",cs_pos_s,"(0.7, 0.5)",cs_neg_ns,0,0,0,0,,,,,,,,,,,,,,,,,,,,,,,,,,,,,0,6,6,12,0,0,0,0,,,,,,,,,,,,,,,348,reward,,,,,,1376.4999005999416,1376.4999005999416,1376.4999005999416,1376.4999005999416,1,0.5363561999984086,0.536359999794513,0,,,0,,,0,,,1377.0415747999214,1377.0415747999214,1377.0415747999214,1377.0415747999214,9,D,2024-04-19_09h04.06.223,attentional_competition_task,2022.2.4,143.96795891748653,
positions.xlsx,positions_test.xlsx,positions_test_new.xlsx,stimuli.xlsx,stimuli_new.xlsx,stimuli/Social4.png,stimuli/Social3.png,stimuli/Nonsocial4.png,stimuli/Nonsocial3.png,stimuli/Social2.png,stimuli/Social1.png,stimuli/Nonsocial2.png,stimuli/Nonsocial1.png,,,"(-0.7, -0.5)",cs_pos_ns,"(-0.7, 0.5)",cs_neg_s_new,"(0.7, -0.5)",cs_pos_s,"(0.7, 0.5)",cs_neg_ns,0,0,0,0,,,,,,,,,,,,,,,,,,,,,,,,,,,,,0,6,6,12,1,0,1,0,,,,,,,,,,,,,,,345,loss,,,,,,1377.569322699681,1377.569322699681,1377.569322699681,1377.569322699681,0,,,1,0.028934199828654528,0.0289381998591125,0,,,0,,,1377.569322699681,1377.569322699681,1377.569322699681,1377.569322699681,9,D,2024-04-19_09h04.06.223,attentional_competition_task,2022.2.4,143.96795891748653,
positions.xlsx,positions_test.xlsx,positions_test_new.xlsx,stimuli.xlsx,stimuli_new.xlsx,stimuli/Social4.png,stimuli/Social3.png,stimuli/Nonsocial4.png,stimuli/Nonsocial3.png,stimuli/Social2.png,stimuli/Social1.png,stimuli/Nonsocial2.png,stimuli/Nonsocial1.png,,,"(-0.7, -0.5)",cs_pos_ns,"(-0.7, 0.5)",cs_neg_s_new,"(0.7, -0.5)",cs_pos_s,"(0.7, 0.5)",cs_neg_ns,0,0,0,0,,,,,,,,,,,,,,,,,,,,,,,,,,,,,0,6,6,12,2,0,2,0,,,,,,,,,,,,,,,348,reward,,,,,,1378.1039911997505,1378.1039911997505,1378.1039911997505,1378.1039911997505,0,,,0,,,1,0.023684099782258272,0.023687999695539474,0,,,1378.1039911997505,1378.1039911997505,1378.1039911997505,1378.1039911997505,9,D,2024-04-19_09h04.06.223,attentional_competition_task,2022.2.4,143.96795891748653,
positions.xlsx,positions_test.xlsx,positions_test_new.xlsx,stimuli.xlsx,stimuli_new.xlsx,stimuli/Social4.png,stimuli/Social3.png,stimuli/Nonsocial4.png,stimuli/Nonsocial3.png,stimuli/Social2.png,stimuli/Social1.png,stimuli/Nonsocial2.png,stimuli/Nonsocial1.png,,,"(-0.7, -0.5)",cs_pos_ns,"(-0.7, 0.5)",cs_neg_s_new,"(0.7, -0.5)",cs_pos_s,"(0.7, 0.5)",cs_neg_ns,0,0,0,0,,,,,,,,,,,,,,,,,,,,,,,,,,,,,0,6,6,12,,,,,,,,,,,,,,,,,,,,,,,,,,,,,,,,,,,,,,,,,,,,,,9,D,2024-04-19_09h04.06.223,attentional_competition_task,2022.2.4,143.96795891748653,
positions.xlsx,positions_test.xlsx,positions_test_new.xlsx,stimuli.xlsx,stimuli_new.xlsx,stimuli/Social4.png,stimuli/Social3.png,stimuli/Nonsocial4.png,stimuli/Nonsocial3.png,stimuli/Social2.png,stimuli/Social1.png,stimuli/Nonsocial2.png,stimuli/Nonsocial1.png,,,"(-0.7, -0.5)",cs_pos_s,"(-0.7, 0.5)",cs_pos_ns_new,"(0.7, -0.5)",cs_neg_s,"(0.7, 0.5)",cs_neg_ns,0,0,0,0,,,,,,,,,,,,,,,,,,,,,,,,,,,,,0,7,7,41,0,0,0,0,,,,,,,,,,,,,,,351,reward,,,,,,1385.5828765998594,1385.5828765998594,1385.5828765998594,1385.5828765998594,0,,,1,0.7729966999031603,0.7730006999336183,0,,,0,,,1386.360660399776,1386.360660399776,1386.360660399776,1386.360660399776,9,D,2024-04-19_09h04.06.223,attentional_competition_task,2022.2.4,143.96795891748653,
positions.xlsx,positions_test.xlsx,positions_test_new.xlsx,stimuli.xlsx,stimuli_new.xlsx,stimuli/Social4.png,stimuli/Social3.png,stimuli/Nonsocial4.png,stimuli/Nonsocial3.png,stimuli/Social2.png,stimuli/Social1.png,stimuli/Nonsocial2.png,stimuli/Nonsocial1.png,,,"(-0.7, -0.5)",cs_pos_s,"(-0.7, 0.5)",cs_pos_ns_new,"(0.7, -0.5)",cs_neg_s,"(0.7, 0.5)",cs_neg_ns,0,0,0,0,,,,,,,,,,,,,,,,,,,,,,,,,,,,,0,7,7,41,1,0,1,0,,,,,,,,,,,,,,,354,reward,,,,,,1386.8883564998396,1386.8883564998396,1386.8883564998396,1386.8883564998396,1,0.02908199978992343,0.029085899703204632,0,,,0,,,0,,,1386.8883564998396,1386.8883564998396,1386.8883564998396,1386.8883564998396,9,D,2024-04-19_09h04.06.223,attentional_competition_task,2022.2.4,143.96795891748653,
positions.xlsx,positions_test.xlsx,positions_test_new.xlsx,stimuli.xlsx,stimuli_new.xlsx,stimuli/Social4.png,stimuli/Social3.png,stimuli/Nonsocial4.png,stimuli/Nonsocial3.png,stimuli/Social2.png,stimuli/Social1.png,stimuli/Nonsocial2.png,stimuli/Nonsocial1.png,,,"(-0.7, -0.5)",cs_pos_s,"(-0.7, 0.5)",cs_pos_ns_new,"(0.7, -0.5)",cs_neg_s,"(0.7, 0.5)",cs_neg_ns,0,0,0,0,,,,,,,,,,,,,,,,,,,,,,,,,,,,,0,7,7,41,2,0,2,0,,,,,,,,,,,,,,,357,reward,,,,,,1387.3952927999198,1387.3952927999198,1387.3952927999198,1387.3952927999198,1,0.02381329983472824,0.19760429998859763,0,,,0,,,0,,,1388.096673999913,1388.096673999913,1388.096673999913,1388.096673999913,9,D,2024-04-19_09h04.06.223,attentional_competition_task,2022.2.4,143.96795891748653,
positions.xlsx,positions_test.xlsx,positions_test_new.xlsx,stimuli.xlsx,stimuli_new.xlsx,stimuli/Social4.png,stimuli/Social3.png,stimuli/Nonsocial4.png,stimuli/Nonsocial3.png,stimuli/Social2.png,stimuli/Social1.png,stimuli/Nonsocial2.png,stimuli/Nonsocial1.png,,,"(-0.7, -0.5)",cs_pos_s,"(-0.7, 0.5)",cs_pos_ns_new,"(0.7, -0.5)",cs_neg_s,"(0.7, 0.5)",cs_neg_ns,0,0,0,0,,,,,,,,,,,,,,,,,,,,,,,,,,,,,0,7,7,41,,,,,,,,,,,,,,,,,,,,,,,,,,,,,,,,,,,,,,,,,,,,,,9,D,2024-04-19_09h04.06.223,attentional_competition_task,2022.2.4,143.96795891748653,
positions.xlsx,positions_test.xlsx,positions_test_new.xlsx,stimuli.xlsx,stimuli_new.xlsx,stimuli/Social4.png,stimuli/Social3.png,stimuli/Nonsocial4.png,stimuli/Nonsocial3.png,stimuli/Social2.png,stimuli/Social1.png,stimuli/Nonsocial2.png,stimuli/Nonsocial1.png,,,"(-0.7, -0.5)",cs_pos_ns,"(-0.7, 0.5)",cs_neg_s,"(0.7, -0.5)",cs_pos_s_new,"(0.7, 0.5)",cs_neg_ns,0,0,0,0,,,,,,,,,,,,,,,,,,,,,,,,,,,,,0,8,8,33,0,0,0,0,,,,,,,,,,,,,,,360,reward,,,,,,1394.1450463999063,1394.1450463999063,1394.1450463999063,1394.1450463999063,1,0.8498447998426855,0.8563727997243404,0,,,0,,,0,,,1395.0061274999753,1395.0061274999753,1395.0061274999753,1395.0061274999753,9,D,2024-04-19_09h04.06.223,attentional_competition_task,2022.2.4,143.96795891748653,
positions.xlsx,positions_test.xlsx,positions_test_new.xlsx,stimuli.xlsx,stimuli_new.xlsx,stimuli/Social4.png,stimuli/Social3.png,stimuli/Nonsocial4.png,stimuli/Nonsocial3.png,stimuli/Social2.png,stimuli/Social1.png,stimuli/Nonsocial2.png,stimuli/Nonsocial1.png,,,"(-0.7, -0.5)",cs_pos_ns,"(-0.7, 0.5)",cs_neg_s,"(0.7, -0.5)",cs_pos_s_new,"(0.7, 0.5)",cs_neg_ns,0,0,0,0,,,,,,,,,,,,,,,,,,,,,,,,,,,,,0,8,8,33,1,0,1,0,,,,,,,,,,,,,,,363,reward,,,,,,1395.5408240999095,1395.5408240999095,1395.5408240999095,1395.5408240999095,0,,,0,,,1,0.030410700011998415,0.030415000393986702,0,,,1395.5408240999095,1395.5408240999095,1395.5408240999095,1395.5408240999095,9,D,2024-04-19_09h04.06.223,attentional_competition_task,2022.2.4,143.96795891748653,
positions.xlsx,positions_test.xlsx,positions_test_new.xlsx,stimuli.xlsx,stimuli_new.xlsx,stimuli/Social4.png,stimuli/Social3.png,stimuli/Nonsocial4.png,stimuli/Nonsocial3.png,stimuli/Social2.png,stimuli/Social1.png,stimuli/Nonsocial2.png,stimuli/Nonsocial1.png,,,"(-0.7, -0.5)",cs_pos_ns,"(-0.7, 0.5)",cs_neg_s,"(0.7, -0.5)",cs_pos_s_new,"(0.7, 0.5)",cs_neg_ns,0,0,0,0,,,,,,,,,,,,,,,,,,,,,,,,,,,,,0,8,8,33,2,0,2,0,,,,,,,,,,,,,,,366,reward,,,,,,1396.0407871999778,1396.0407871999778,1396.0407871999778,1396.0407871999778,0,,,0,,,1,0.030749099794775248,0.11385580012574792,0,,,1396.6588594997302,1396.6588594997302,1396.6588594997302,1396.6588594997302,9,D,2024-04-19_09h04.06.223,attentional_competition_task,2022.2.4,143.96795891748653,
