posFile,posFileTest,posFileTestNew,stimFile,stimFileNew,cs_neg_s,cs_pos_s,cs_neg_ns,cs_pos_ns,cs_neg_s_new,cs_pos_s_new,cs_neg_ns_new,cs_pos_ns_new,stim,position,position1,stim1,position2,stim2,position3,stim3,position4,stim4,blocks.thisRepN,blocks.thisTrialN,blocks.thisN,blocks.thisIndex,ratingtrials1.thisRepN,ratingtrials1.thisTrialN,ratingtrials1.thisN,ratingtrials1.thisIndex,search_task_trials.thisRepN,search_task_trials.thisTrialN,search_task_trials.thisN,search_task_trials.thisIndex,learning_trials.thisRepN,learning_trials.thisTrialN,learning_trials.thisN,learning_trials.thisIndex,trials.thisRepN,trials.thisTrialN,trials.thisN,trials.thisIndex,ratingtrials2.thisRepN,ratingtrials2.thisTrialN,ratingtrials2.thisN,ratingtrials2.thisIndex,testtrials.thisRepN,testtrials.thisTrialN,testtrials.thisN,testtrials.thisIndex,loop_test.thisRepN,loop_test.thisTrialN,loop_test.thisN,loop_test.thisIndex,testtrials_novelty.thisRepN,testtrials_novelty.thisTrialN,testtrials_novelty.thisN,testtrials_novelty.thisIndex,loop_test_novelty.thisRepN,loop_test_novelty.thisTrialN,loop_test_novelty.thisN,loop_test_novelty.thisIndex,ratingtrials3.thisRepN,ratingtrials3.thisTrialN,ratingtrials3.thisN,ratingtrials3.thisIndex,textStart.started,textStartExp.started,imageRating.started,sliderStim.response,sliderStim.rt,textStartSearch.started,target_positions,distractor_positions,textStartTask.started,image.started,score,outcome,roi.numLooks,roi.timesOn,roi.timesOff,imageFeedback.started,textTestInstr.started,test_image1.started,test_image2.started,test_image3.started,test_image4.started,test_roi1.numLooks,test_roi1.timesOn,test_roi1.timesOff,test_roi2.numLooks,test_roi2.timesOn,test_roi2.timesOff,test_roi3.numLooks,test_roi3.timesOn,test_roi3.timesOff,test_roi4.numLooks,test_roi4.timesOn,test_roi4.timesOff,test_image_feedback1.started,test_image_feedback2.started,test_iamge_feedback3.started,test_iamge_feedback4.started,participant,group,date,expName,psychopyVersion,frameRate,
positions.xlsx,positions_test.xlsx,positions_test_new.xlsx,stimuli.xlsx,stimuli_new.xlsx,stimuli/Social2.png,stimuli/Social1.png,stimuli/Nonsocial2.png,stimuli/Nonsocial1.png,stimuli/Social4.png,stimuli/Social3.png,stimuli/Nonsocial4.png,stimuli/Nonsocial3.png,cs_pos_ns,,,,,,,,,,0,0,0,0,0,0,0,3,,,,,,,,,,,,,,,,,,,,,,,,,,,,,,,,,,,,,16.073340899776667,103.26153369992971,138.94943489972502,8.0,15.726316999644041,,,,,,,,,,,,,,,,,,,,,,,,,,,,,,,,,2,B,2024-04-02_14h06.41.016,attentional_competition_task,2022.2.4,143.9542799602459,
positions.xlsx,positions_test.xlsx,positions_test_new.xlsx,stimuli.xlsx,stimuli_new.xlsx,stimuli/Social2.png,stimuli/Social1.png,stimuli/Nonsocial2.png,stimuli/Nonsocial1.png,stimuli/Social4.png,stimuli/Social3.png,stimuli/Nonsocial4.png,stimuli/Nonsocial3.png,cs_neg_ns,,,,,,,,,,0,0,0,0,0,1,1,1,,,,,,,,,,,,,,,,,,,,,,,,,,,,,,,,,,,,,,,155.1987624000758,7.0,4.8042985000647604,,,,,,,,,,,,,,,,,,,,,,,,,,,,,,,,,2,B,2024-04-02_14h06.41.016,attentional_competition_task,2022.2.4,143.9542799602459,
positions.xlsx,positions_test.xlsx,positions_test_new.xlsx,stimuli.xlsx,stimuli_new.xlsx,stimuli/Social2.png,stimuli/Social1.png,stimuli/Nonsocial2.png,stimuli/Nonsocial1.png,stimuli/Social4.png,stimuli/Social3.png,stimuli/Nonsocial4.png,stimuli/Nonsocial3.png,cs_neg_s,,,,,,,,,,0,0,0,0,0,2,2,0,,,,,,,,,,,,,,,,,,,,,,,,,,,,,,,,,,,,,,,161.5596320000477,4.0,5.182939199730754,,,,,,,,,,,,,,,,,,,,,,,,,,,,,,,,,2,B,2024-04-02_14h06.41.016,attentional_competition_task,2022.2.4,143.9542799602459,
positions.xlsx,positions_test.xlsx,positions_test_new.xlsx,stimuli.xlsx,stimuli_new.xlsx,stimuli/Social2.png,stimuli/Social1.png,stimuli/Nonsocial2.png,stimuli/Nonsocial1.png,stimuli/Social4.png,stimuli/Social3.png,stimuli/Nonsocial4.png,stimuli/Nonsocial3.png,cs_pos_s,,,,,,,,,,0,0,0,0,0,3,3,2,,,,,,,,,,,,,,,,,,,,,,,,,,,,,,,,,,,,,,,167.14967629965395,5.0,2.6760777002200484,,,,,,,,,,,,,,,,,,,,,,,,,,,,,,,,,2,B,2024-04-02_14h06.41.016,attentional_competition_task,2022.2.4,143.9542799602459,
positions.xlsx,positions_test.xlsx,positions_test_new.xlsx,stimuli.xlsx,stimuli_new.xlsx,stimuli/Social2.png,stimuli/Social1.png,stimuli/Nonsocial2.png,stimuli/Nonsocial1.png,stimuli/Social4.png,stimuli/Social3.png,stimuli/Nonsocial4.png,stimuli/Nonsocial3.png,,,,,,,,,,,0,0,0,0,,,,,0,0,0,0,,,,,,,,,,,,,,,,,,,,,,,,,,,,,,,,,,,,,,170.92730069998652,"[[-0.45, 0.19999999999999996], [0.0, -0.30000000000000004], [0.22499999999999998, -0.8], [0.22499999999999998, -0.30000000000000004], [0.6749999999999999, -0.30000000000000004], [-0.675, 0.7], [-0.9, -0.8], [0.45000000000000007, -0.30000000000000004], [0.9, -0.8], [-0.22499999999999998, -0.30000000000000004], [-0.45, -0.8], [-0.9, -0.30000000000000004], [0.9, -0.30000000000000004], [0.0, 0.7], [0.45000000000000007, 0.19999999999999996]]","[[0.6749999999999999, -0.8], [0.22499999999999998, 0.19999999999999996], [-0.9, 0.7], [-0.45, 0.7], [0.22499999999999998, 0.7], [0.6749999999999999, 0.7], [0.0, -0.8], [0.9, 0.7], [0.0, 0.19999999999999996], [0.45000000000000007, -0.8], [-0.22499999999999998, 0.7], [0.9, 0.19999999999999996], [-0.675, 0.19999999999999996], [-0.22499999999999998, 0.19999999999999996], [-0.22499999999999998, -0.8]]",,,,,,,,,,,,,,,,,,,,,,,,,,,,,,2,B,2024-04-02_14h06.41.016,attentional_competition_task,2022.2.4,143.9542799602459,
positions.xlsx,positions_test.xlsx,positions_test_new.xlsx,stimuli.xlsx,stimuli_new.xlsx,stimuli/Social2.png,stimuli/Social1.png,stimuli/Nonsocial2.png,stimuli/Nonsocial1.png,stimuli/Social4.png,stimuli/Social3.png,stimuli/Nonsocial4.png,stimuli/Nonsocial3.png,,,,,,,,,,,0,0,0,0,,,,,1,0,1,0,,,,,,,,,,,,,,,,,,,,,,,,,,,,,,,,,,,,,,,"[[-0.675, 0.7], [-0.9, -0.30000000000000004], [-0.22499999999999998, 0.19999999999999996], [0.6749999999999999, -0.30000000000000004], [-0.9, 0.7], [-0.22499999999999998, 0.7], [0.45000000000000007, 0.19999999999999996], [0.22499999999999998, 0.19999999999999996], [-0.22499999999999998, -0.8], [-0.675, -0.8], [-0.45, 0.7], [-0.675, 0.19999999999999996], [0.45000000000000007, -0.8], [0.9, -0.30000000000000004], [0.6749999999999999, 0.19999999999999996]]","[[-0.45, -0.8], [0.0, -0.8], [0.22499999999999998, -0.30000000000000004], [-0.45, 0.19999999999999996], [0.45000000000000007, -0.30000000000000004], [-0.22499999999999998, -0.30000000000000004], [0.22499999999999998, -0.8], [-0.45, -0.30000000000000004], [0.0, 0.19999999999999996], [0.0, -0.30000000000000004], [0.9, -0.8], [0.22499999999999998, 0.7], [0.6749999999999999, 0.7], [0.45000000000000007, 0.7], [0.0, 0.7]]",,,,,,,,,,,,,,,,,,,,,,,,,,,,,,2,B,2024-04-02_14h06.41.016,attentional_competition_task,2022.2.4,143.9542799602459,
positions.xlsx,positions_test.xlsx,positions_test_new.xlsx,stimuli.xlsx,stimuli_new.xlsx,stimuli/Social2.png,stimuli/Social1.png,stimuli/Nonsocial2.png,stimuli/Nonsocial1.png,stimuli/Social4.png,stimuli/Social3.png,stimuli/Nonsocial4.png,stimuli/Nonsocial3.png,cs_pos_s,"(0.7, -0.5)",,,,,,,,,0,0,0,0,,,,,,,,,0,0,0,7,,,,,,,,,,,,,,,,,,,,,,,,,,,,,,,,,,,,,258.076535299886,283.8740614997223,3,reward,1,0.32641169987618923,0.32641519978642464,284.2143798000179,,,,,,,,,,,,,,,,,,,,,,2,B,2024-04-02_14h06.41.016,attentional_competition_task,2022.2.4,143.9542799602459,
positions.xlsx,positions_test.xlsx,positions_test_new.xlsx,stimuli.xlsx,stimuli_new.xlsx,stimuli/Social2.png,stimuli/Social1.png,stimuli/Nonsocial2.png,stimuli/Nonsocial1.png,stimuli/Social4.png,stimuli/Social3.png,stimuli/Nonsocial4.png,stimuli/Nonsocial3.png,cs_pos_ns,"(-0.7, 0.5)",,,,,,,,,0,0,0,0,,,,,,,,,0,1,1,12,,,,,,,,,,,,,,,,,,,,,,,,,,,,,,,,,,,,,,291.7487737997435,6,reward,1,0.354736499954015,0.3547400003299117,292.1099147996865,,,,,,,,,,,,,,,,,,,,,,2,B,2024-04-02_14h06.41.016,attentional_competition_task,2022.2.4,143.9542799602459,
positions.xlsx,positions_test.xlsx,positions_test_new.xlsx,stimuli.xlsx,stimuli_new.xlsx,stimuli/Social2.png,stimuli/Social1.png,stimuli/Nonsocial2.png,stimuli/Nonsocial1.png,stimuli/Social4.png,stimuli/Social3.png,stimuli/Nonsocial4.png,stimuli/Nonsocial3.png,cs_pos_s,"(-0.7, 0.5)",,,,,,,,,0,0,0,0,,,,,,,,,0,2,2,4,,,,,,,,,,,,,,,,,,,,,,,,,,,,,,,,,,,,,,299.9290359998122,9,reward,1,0.2361884000711143,0.2361922999843955,300.17207049997523,,,,,,,,,,,,,,,,,,,,,,2,B,2024-04-02_14h06.41.016,attentional_competition_task,2022.2.4,143.9542799602459,
positions.xlsx,positions_test.xlsx,positions_test_new.xlsx,stimuli.xlsx,stimuli_new.xlsx,stimuli/Social2.png,stimuli/Social1.png,stimuli/Nonsocial2.png,stimuli/Nonsocial1.png,stimuli/Social4.png,stimuli/Social3.png,stimuli/Nonsocial4.png,stimuli/Nonsocial3.png,cs_neg_s,"(0.7, -0.5)",,,,,,,,,0,0,0,0,,,,,,,,,0,3,3,3,,,,,,,,,,,,,,,,,,,,,,,,,,,,,,,,,,,,,,307.4981561000459,6,loss,1,0.18763360008597374,0.18765189964324236,307.6995230000466,,,,,,,,,,,,,,,,,,,,,,2,B,2024-04-02_14h06.41.016,attentional_competition_task,2022.2.4,143.9542799602459,
positions.xlsx,positions_test.xlsx,positions_test_new.xlsx,stimuli.xlsx,stimuli_new.xlsx,stimuli/Social2.png,stimuli/Social1.png,stimuli/Nonsocial2.png,stimuli/Nonsocial1.png,stimuli/Social4.png,stimuli/Social3.png,stimuli/Nonsocial4.png,stimuli/Nonsocial3.png,cs_neg_ns,"(-0.7, 0.5)",,,,,,,,,0,0,0,0,,,,,,,,,0,4,4,8,,,,,,,,,,,,,,,,,,,,,,,,,,,,,,,,,,,,,,314.6367353997193,3,loss,1,0.3413169998675585,0.34132050024345517,314.9839419997297,,,,,,,,,,,,,,,,,,,,,,2,B,2024-04-02_14h06.41.016,attentional_competition_task,2022.2.4,143.9542799602459,
positions.xlsx,positions_test.xlsx,positions_test_new.xlsx,stimuli.xlsx,stimuli_new.xlsx,stimuli/Social2.png,stimuli/Social1.png,stimuli/Nonsocial2.png,stimuli/Nonsocial1.png,stimuli/Social4.png,stimuli/Social3.png,stimuli/Nonsocial4.png,stimuli/Nonsocial3.png,cs_pos_ns,"(0.7, -0.5)",,,,,,,,,0,0,0,0,,,,,,,,,0,5,5,15,,,,,,,,,,,,,,,,,,,,,,,,,,,,,,,,,,,,,,322.3656132998876,6,reward,1,0.18743199994787574,0.18743570009246469,322.5600650999695,,,,,,,,,,,,,,,,,,,,,,2,B,2024-04-02_14h06.41.016,attentional_competition_task,2022.2.4,143.9542799602459,
positions.xlsx,positions_test.xlsx,positions_test_new.xlsx,stimuli.xlsx,stimuli_new.xlsx,stimuli/Social2.png,stimuli/Social1.png,stimuli/Nonsocial2.png,stimuli/Nonsocial1.png,stimuli/Social4.png,stimuli/Social3.png,stimuli/Nonsocial4.png,stimuli/Nonsocial3.png,cs_pos_s,"(0.7, 0.5)",,,,,,,,,0,0,0,0,,,,,,,,,0,6,6,6,,,,,,,,,,,,,,,,,,,,,,,,,,,,,,,,,,,,,,329.7403126996942,9,reward,1,0.4928297996520996,0.49283359991386533,330.24034619983286,,,,,,,,,,,,,,,,,,,,,,2,B,2024-04-02_14h06.41.016,attentional_competition_task,2022.2.4,143.9542799602459,
positions.xlsx,positions_test.xlsx,positions_test_new.xlsx,stimuli.xlsx,stimuli_new.xlsx,stimuli/Social2.png,stimuli/Social1.png,stimuli/Nonsocial2.png,stimuli/Nonsocial1.png,stimuli/Social4.png,stimuli/Social3.png,stimuli/Nonsocial4.png,stimuli/Nonsocial3.png,cs_pos_ns,"(-0.7, -0.5)",,,,,,,,,0,0,0,0,,,,,,,,,0,7,7,13,,,,,,,,,,,,,,,,,,,,,,,,,,,,,,,,,,,,,,338.2052997997962,12,reward,1,0.8332341001369059,0.8332380997017026,339.04547479981557,,,,,,,,,,,,,,,,,,,,,,2,B,2024-04-02_14h06.41.016,attentional_competition_task,2022.2.4,143.9542799602459,
positions.xlsx,positions_test.xlsx,positions_test_new.xlsx,stimuli.xlsx,stimuli_new.xlsx,stimuli/Social2.png,stimuli/Social1.png,stimuli/Nonsocial2.png,stimuli/Nonsocial1.png,stimuli/Social4.png,stimuli/Social3.png,stimuli/Nonsocial4.png,stimuli/Nonsocial3.png,cs_neg_s,"(-0.7, -0.5)",,,,,,,,,0,0,0,0,,,,,,,,,0,8,8,1,,,,,,,,,,,,,,,,,,,,,,,,,,,,,,,,,,,,,,346.5382626000792,9,loss,1,1.1389631000347435,1.1389671000652015,347.6840695999563,,,,,,,,,,,,,,,,,,,,,,2,B,2024-04-02_14h06.41.016,attentional_competition_task,2022.2.4,143.9542799602459,
positions.xlsx,positions_test.xlsx,positions_test_new.xlsx,stimuli.xlsx,stimuli_new.xlsx,stimuli/Social2.png,stimuli/Social1.png,stimuli/Nonsocial2.png,stimuli/Nonsocial1.png,stimuli/Social4.png,stimuli/Social3.png,stimuli/Nonsocial4.png,stimuli/Nonsocial3.png,cs_pos_s,"(-0.7, -0.5)",,,,,,,,,0,0,0,0,,,,,,,,,0,9,9,5,,,,,,,,,,,,,,,,,,,,,,,,,,,,,,,,,,,,,,355.35038249986246,12,reward,1,0.5907167997211218,0.590720699634403,355.947640999686,,,,,,,,,,,,,,,,,,,,,,2,B,2024-04-02_14h06.41.016,attentional_competition_task,2022.2.4,143.9542799602459,
positions.xlsx,positions_test.xlsx,positions_test_new.xlsx,stimuli.xlsx,stimuli_new.xlsx,stimuli/Social2.png,stimuli/Social1.png,stimuli/Nonsocial2.png,stimuli/Nonsocial1.png,stimuli/Social4.png,stimuli/Social3.png,stimuli/Nonsocial4.png,stimuli/Nonsocial3.png,cs_neg_s,"(-0.7, 0.5)",,,,,,,,,0,0,0,0,,,,,,,,,0,10,10,0,,,,,,,,,,,,,,,,,,,,,,,,,,,,,,,,,,,,,,363.648664499633,12,none,0,,,366.66244659991935,,,,,,,,,,,,,,,,,,,,,,2,B,2024-04-02_14h06.41.016,attentional_competition_task,2022.2.4,143.9542799602459,
positions.xlsx,positions_test.xlsx,positions_test_new.xlsx,stimuli.xlsx,stimuli_new.xlsx,stimuli/Social2.png,stimuli/Social1.png,stimuli/Nonsocial2.png,stimuli/Nonsocial1.png,stimuli/Social4.png,stimuli/Social3.png,stimuli/Nonsocial4.png,stimuli/Nonsocial3.png,cs_neg_s,"(0.7, 0.5)",,,,,,,,,0,0,0,0,,,,,,,,,0,11,11,2,,,,,,,,,,,,,,,,,,,,,,,,,,,,,,,,,,,,,,373.9191028997302,12,none,0,,,376.92591719981283,,,,,,,,,,,,,,,,,,,,,,2,B,2024-04-02_14h06.41.016,attentional_competition_task,2022.2.4,143.9542799602459,
positions.xlsx,positions_test.xlsx,positions_test_new.xlsx,stimuli.xlsx,stimuli_new.xlsx,stimuli/Social2.png,stimuli/Social1.png,stimuli/Nonsocial2.png,stimuli/Nonsocial1.png,stimuli/Social4.png,stimuli/Social3.png,stimuli/Nonsocial4.png,stimuli/Nonsocial3.png,cs_neg_ns,"(0.7, 0.5)",,,,,,,,,0,0,0,0,,,,,,,,,0,12,12,10,,,,,,,,,,,,,,,,,,,,,,,,,,,,,,,,,,,,,,383.79372139973566,9,loss,1,0.8268432999029756,0.8268468999303877,384.62699559982866,,,,,,,,,,,,,,,,,,,,,,2,B,2024-04-02_14h06.41.016,attentional_competition_task,2022.2.4,143.9542799602459,
positions.xlsx,positions_test.xlsx,positions_test_new.xlsx,stimuli.xlsx,stimuli_new.xlsx,stimuli/Social2.png,stimuli/Social1.png,stimuli/Nonsocial2.png,stimuli/Nonsocial1.png,stimuli/Social4.png,stimuli/Social3.png,stimuli/Nonsocial4.png,stimuli/Nonsocial3.png,cs_neg_ns,"(-0.7, -0.5)",,,,,,,,,0,0,0,0,,,,,,,,,0,13,13,9,,,,,,,,,,,,,,,,,,,,,,,,,,,,,,,,,,,,,,391.6961401998997,6,loss,1,0.8473610999062657,0.8473648000508547,392.55028670001775,,,,,,,,,,,,,,,,,,,,,,2,B,2024-04-02_14h06.41.016,attentional_competition_task,2022.2.4,143.9542799602459,
positions.xlsx,positions_test.xlsx,positions_test_new.xlsx,stimuli.xlsx,stimuli_new.xlsx,stimuli/Social2.png,stimuli/Social1.png,stimuli/Nonsocial2.png,stimuli/Nonsocial1.png,stimuli/Social4.png,stimuli/Social3.png,stimuli/Nonsocial4.png,stimuli/Nonsocial3.png,cs_pos_ns,"(0.7, 0.5)",,,,,,,,,0,0,0,0,,,,,,,,,0,14,14,14,,,,,,,,,,,,,,,,,,,,,,,,,,,,,,,,,,,,,,399.64030599966645,9,reward,1,0.5142354997806251,0.514239199925214,400.16112399986014,,,,,,,,,,,,,,,,,,,,,,2,B,2024-04-02_14h06.41.016,attentional_competition_task,2022.2.4,143.9542799602459,
positions.xlsx,positions_test.xlsx,positions_test_new.xlsx,stimuli.xlsx,stimuli_new.xlsx,stimuli/Social2.png,stimuli/Social1.png,stimuli/Nonsocial2.png,stimuli/Nonsocial1.png,stimuli/Social4.png,stimuli/Social3.png,stimuli/Nonsocial4.png,stimuli/Nonsocial3.png,cs_neg_ns,"(0.7, -0.5)",,,,,,,,,0,0,0,0,,,,,,,,,0,15,15,11,,,,,,,,,,,,,,,,,,,,,,,,,,,,,,,,,,,,,,407.82742400001734,9,none,0,,,410.84127109963447,,,,,,,,,,,,,,,,,,,,,,2,B,2024-04-02_14h06.41.016,attentional_competition_task,2022.2.4,143.9542799602459,
positions.xlsx,positions_test.xlsx,positions_test_new.xlsx,stimuli.xlsx,stimuli_new.xlsx,stimuli/Social2.png,stimuli/Social1.png,stimuli/Nonsocial2.png,stimuli/Nonsocial1.png,stimuli/Social4.png,stimuli/Social3.png,stimuli/Nonsocial4.png,stimuli/Nonsocial3.png,cs_neg_s,"(0.7, 0.5)",,,,,,,,,0,0,0,0,,,,,,,,,1,0,16,2,,,,,,,,,,,,,,,,,,,,,,,,,,,,,,,,,,,,,,417.4520804998465,6,loss,1,1.2570738000795245,1.2570774001069367,418.7159131998196,,,,,,,,,,,,,,,,,,,,,,2,B,2024-04-02_14h06.41.016,attentional_competition_task,2022.2.4,143.9542799602459,
positions.xlsx,positions_test.xlsx,positions_test_new.xlsx,stimuli.xlsx,stimuli_new.xlsx,stimuli/Social2.png,stimuli/Social1.png,stimuli/Nonsocial2.png,stimuli/Nonsocial1.png,stimuli/Social4.png,stimuli/Social3.png,stimuli/Nonsocial4.png,stimuli/Nonsocial3.png,cs_neg_s,"(-0.7, 0.5)",,,,,,,,,0,0,0,0,,,,,,,,,1,1,17,0,,,,,,,,,,,,,,,,,,,,,,,,,,,,,,,,,,,,,,425.6323114996776,6,none,0,,,428.6391304000281,,,,,,,,,,,,,,,,,,,,,,2,B,2024-04-02_14h06.41.016,attentional_competition_task,2022.2.4,143.9542799602459,
positions.xlsx,positions_test.xlsx,positions_test_new.xlsx,stimuli.xlsx,stimuli_new.xlsx,stimuli/Social2.png,stimuli/Social1.png,stimuli/Nonsocial2.png,stimuli/Nonsocial1.png,stimuli/Social4.png,stimuli/Social3.png,stimuli/Nonsocial4.png,stimuli/Nonsocial3.png,cs_pos_ns,"(-0.7, 0.5)",,,,,,,,,0,0,0,0,,,,,,,,,1,2,18,12,,,,,,,,,,,,,,,,,,,,,,,,,,,,,,,,,,,,,,435.9165924997069,9,reward,1,0.6813415000215173,0.6813452998176217,436.60407279990613,,,,,,,,,,,,,,,,,,,,,,2,B,2024-04-02_14h06.41.016,attentional_competition_task,2022.2.4,143.9542799602459,
positions.xlsx,positions_test.xlsx,positions_test_new.xlsx,stimuli.xlsx,stimuli_new.xlsx,stimuli/Social2.png,stimuli/Social1.png,stimuli/Nonsocial2.png,stimuli/Nonsocial1.png,stimuli/Social4.png,stimuli/Social3.png,stimuli/Nonsocial4.png,stimuli/Nonsocial3.png,cs_pos_s,"(-0.7, -0.5)",,,,,,,,,0,0,0,0,,,,,,,,,1,3,19,5,,,,,,,,,,,,,,,,,,,,,,,,,,,,,,,,,,,,,,443.8677184996195,12,reward,1,0.6041530999355018,0.6041570999659598,444.47875689994544,,,,,,,,,,,,,,,,,,,,,,2,B,2024-04-02_14h06.41.016,attentional_competition_task,2022.2.4,143.9542799602459,
positions.xlsx,positions_test.xlsx,positions_test_new.xlsx,stimuli.xlsx,stimuli_new.xlsx,stimuli/Social2.png,stimuli/Social1.png,stimuli/Nonsocial2.png,stimuli/Nonsocial1.png,stimuli/Social4.png,stimuli/Social3.png,stimuli/Nonsocial4.png,stimuli/Nonsocial3.png,cs_neg_ns,"(-0.7, 0.5)",,,,,,,,,0,0,0,0,,,,,,,,,1,4,20,8,,,,,,,,,,,,,,,,,,,,,,,,,,,,,,,,,,,,,,452.0617617997341,12,none,0,,,455.07555860001594,,,,,,,,,,,,,,,,,,,,,,2,B,2024-04-02_14h06.41.016,attentional_competition_task,2022.2.4,143.9542799602459,
positions.xlsx,positions_test.xlsx,positions_test_new.xlsx,stimuli.xlsx,stimuli_new.xlsx,stimuli/Social2.png,stimuli/Social1.png,stimuli/Nonsocial2.png,stimuli/Nonsocial1.png,stimuli/Social4.png,stimuli/Social3.png,stimuli/Nonsocial4.png,stimuli/Nonsocial3.png,cs_pos_s,"(0.7, 0.5)",,,,,,,,,0,0,0,0,,,,,,,,,1,5,21,6,,,,,,,,,,,,,,,,,,,,,,,,,,,,,,,,,,,,,,462.65864969976246,15,reward,1,0.6526740998961031,0.6526778000406921,463.31831320002675,,,,,,,,,,,,,,,,,,,,,,2,B,2024-04-02_14h06.41.016,attentional_competition_task,2022.2.4,143.9542799602459,
positions.xlsx,positions_test.xlsx,positions_test_new.xlsx,stimuli.xlsx,stimuli_new.xlsx,stimuli/Social2.png,stimuli/Social1.png,stimuli/Nonsocial2.png,stimuli/Nonsocial1.png,stimuli/Social4.png,stimuli/Social3.png,stimuli/Nonsocial4.png,stimuli/Nonsocial3.png,cs_neg_ns,"(0.7, -0.5)",,,,,,,,,0,0,0,0,,,,,,,,,1,6,22,11,,,,,,,,,,,,,,,,,,,,,,,,,,,,,,,,,,,,,,470.51243729982525,15,none,0,,,473.5261959997006,,,,,,,,,,,,,,,,,,,,,,2,B,2024-04-02_14h06.41.016,attentional_competition_task,2022.2.4,143.9542799602459,
positions.xlsx,positions_test.xlsx,positions_test_new.xlsx,stimuli.xlsx,stimuli_new.xlsx,stimuli/Social2.png,stimuli/Social1.png,stimuli/Nonsocial2.png,stimuli/Nonsocial1.png,stimuli/Social4.png,stimuli/Social3.png,stimuli/Nonsocial4.png,stimuli/Nonsocial3.png,cs_pos_s,"(0.7, -0.5)",,,,,,,,,0,0,0,0,,,,,,,,,1,7,23,7,,,,,,,,,,,,,,,,,,,,,,,,,,,,,,,,,,,,,,481.0328470999375,18,reward,1,0.6392632001079619,0.646165500395,481.6856084000319,,,,,,,,,,,,,,,,,,,,,,2,B,2024-04-02_14h06.41.016,attentional_competition_task,2022.2.4,143.9542799602459,
positions.xlsx,positions_test.xlsx,positions_test_new.xlsx,stimuli.xlsx,stimuli_new.xlsx,stimuli/Social2.png,stimuli/Social1.png,stimuli/Nonsocial2.png,stimuli/Nonsocial1.png,stimuli/Social4.png,stimuli/Social3.png,stimuli/Nonsocial4.png,stimuli/Nonsocial3.png,cs_pos_ns,"(0.7, 0.5)",,,,,,,,,0,0,0,0,,,,,,,,,1,8,24,14,,,,,,,,,,,,,,,,,,,,,,,,,,,,,,,,,,,,,,489.09510280005634,21,reward,1,0.6881864997558296,0.6881900997832417,489.78944129962474,,,,,,,,,,,,,,,,,,,,,,2,B,2024-04-02_14h06.41.016,attentional_competition_task,2022.2.4,143.9542799602459,
positions.xlsx,positions_test.xlsx,positions_test_new.xlsx,stimuli.xlsx,stimuli_new.xlsx,stimuli/Social2.png,stimuli/Social1.png,stimuli/Nonsocial2.png,stimuli/Nonsocial1.png,stimuli/Social4.png,stimuli/Social3.png,stimuli/Nonsocial4.png,stimuli/Nonsocial3.png,cs_pos_ns,"(-0.7, -0.5)",,,,,,,,,0,0,0,0,,,,,,,,,1,9,25,13,,,,,,,,,,,,,,,,,,,,,,,,,,,,,,,,,,,,,,497.69885479984805,24,reward,1,0.743249099701643,0.7432552999816835,498.44881659979,,,,,,,,,,,,,,,,,,,,,,2,B,2024-04-02_14h06.41.016,attentional_competition_task,2022.2.4,143.9542799602459,
positions.xlsx,positions_test.xlsx,positions_test_new.xlsx,stimuli.xlsx,stimuli_new.xlsx,stimuli/Social2.png,stimuli/Social1.png,stimuli/Nonsocial2.png,stimuli/Nonsocial1.png,stimuli/Social4.png,stimuli/Social3.png,stimuli/Nonsocial4.png,stimuli/Nonsocial3.png,cs_neg_ns,"(0.7, 0.5)",,,,,,,,,0,0,0,0,,,,,,,,,1,10,26,10,,,,,,,,,,,,,,,,,,,,,,,,,,,,,,,,,,,,,,506.26101169968024,24,none,0,,,509.2747537000105,,,,,,,,,,,,,,,,,,,,,,2,B,2024-04-02_14h06.41.016,attentional_competition_task,2022.2.4,143.9542799602459,
positions.xlsx,positions_test.xlsx,positions_test_new.xlsx,stimuli.xlsx,stimuli_new.xlsx,stimuli/Social2.png,stimuli/Social1.png,stimuli/Nonsocial2.png,stimuli/Nonsocial1.png,stimuli/Social4.png,stimuli/Social3.png,stimuli/Nonsocial4.png,stimuli/Nonsocial3.png,cs_pos_s,"(-0.7, 0.5)",,,,,,,,,0,0,0,0,,,,,,,,,1,11,27,4,,,,,,,,,,,,,,,,,,,,,,,,,,,,,,,,,,,,,,516.9619632996619,27,reward,1,0.4930985998362303,0.4931024997495115,517.4619471998885,,,,,,,,,,,,,,,,,,,,,,2,B,2024-04-02_14h06.41.016,attentional_competition_task,2022.2.4,143.9542799602459,
positions.xlsx,positions_test.xlsx,positions_test_new.xlsx,stimuli.xlsx,stimuli_new.xlsx,stimuli/Social2.png,stimuli/Social1.png,stimuli/Nonsocial2.png,stimuli/Nonsocial1.png,stimuli/Social4.png,stimuli/Social3.png,stimuli/Nonsocial4.png,stimuli/Nonsocial3.png,cs_pos_ns,"(0.7, -0.5)",,,,,,,,,0,0,0,0,,,,,,,,,1,12,28,15,,,,,,,,,,,,,,,,,,,,,,,,,,,,,,,,,,,,,,525.3713328000158,30,reward,1,0.6114421999081969,0.6114459000527859,525.9894039998762,,,,,,,,,,,,,,,,,,,,,,2,B,2024-04-02_14h06.41.016,attentional_competition_task,2022.2.4,143.9542799602459,
positions.xlsx,positions_test.xlsx,positions_test_new.xlsx,stimuli.xlsx,stimuli_new.xlsx,stimuli/Social2.png,stimuli/Social1.png,stimuli/Nonsocial2.png,stimuli/Nonsocial1.png,stimuli/Social4.png,stimuli/Social3.png,stimuli/Nonsocial4.png,stimuli/Nonsocial3.png,cs_neg_s,"(0.7, -0.5)",,,,,,,,,0,0,0,0,,,,,,,,,1,13,29,3,,,,,,,,,,,,,,,,,,,,,,,,,,,,,,,,,,,,,,533.0793701000512,30,none,0,,,536.0861953999847,,,,,,,,,,,,,,,,,,,,,,2,B,2024-04-02_14h06.41.016,attentional_competition_task,2022.2.4,143.9542799602459,
positions.xlsx,positions_test.xlsx,positions_test_new.xlsx,stimuli.xlsx,stimuli_new.xlsx,stimuli/Social2.png,stimuli/Social1.png,stimuli/Nonsocial2.png,stimuli/Nonsocial1.png,stimuli/Social4.png,stimuli/Social3.png,stimuli/Nonsocial4.png,stimuli/Nonsocial3.png,cs_neg_ns,"(-0.7, -0.5)",,,,,,,,,0,0,0,0,,,,,,,,,1,14,30,9,,,,,,,,,,,,,,,,,,,,,,,,,,,,,,,,,,,,,,543.002576299943,30,none,0,,,546.0094081000425,,,,,,,,,,,,,,,,,,,,,,2,B,2024-04-02_14h06.41.016,attentional_competition_task,2022.2.4,143.9542799602459,
positions.xlsx,positions_test.xlsx,positions_test_new.xlsx,stimuli.xlsx,stimuli_new.xlsx,stimuli/Social2.png,stimuli/Social1.png,stimuli/Nonsocial2.png,stimuli/Nonsocial1.png,stimuli/Social4.png,stimuli/Social3.png,stimuli/Nonsocial4.png,stimuli/Nonsocial3.png,cs_neg_s,"(-0.7, -0.5)",,,,,,,,,0,0,0,0,,,,,,,,,1,15,31,1,,,,,,,,,,,,,,,,,,,,,,,,,,,,,,,,,,,,,,553.1619094000198,30,none,0,,,556.1687435996719,,,,,,,,,,,,,,,,,,,,,,2,B,2024-04-02_14h06.41.016,attentional_competition_task,2022.2.4,143.9542799602459,
positions.xlsx,positions_test.xlsx,positions_test_new.xlsx,stimuli.xlsx,stimuli_new.xlsx,stimuli/Social2.png,stimuli/Social1.png,stimuli/Nonsocial2.png,stimuli/Nonsocial1.png,stimuli/Social4.png,stimuli/Social3.png,stimuli/Nonsocial4.png,stimuli/Nonsocial3.png,cs_neg_ns,"(-0.7, 0.5)",,,,,,,,,0,0,0,0,,,,,,,,,,,,,0,0,0,8,,,,,,,,,,,,,,,,,,,,,,,,,,,,,,,,,,584.7648033997975,27,loss,1,0.43769280007109046,0.43769629998132586,585.2091962997802,,,,,,,,,,,,,,,,,,,,,,2,B,2024-04-02_14h06.41.016,attentional_competition_task,2022.2.4,143.9542799602459,
positions.xlsx,positions_test.xlsx,positions_test_new.xlsx,stimuli.xlsx,stimuli_new.xlsx,stimuli/Social2.png,stimuli/Social1.png,stimuli/Nonsocial2.png,stimuli/Nonsocial1.png,stimuli/Social4.png,stimuli/Social3.png,stimuli/Nonsocial4.png,stimuli/Nonsocial3.png,cs_neg_s,"(0.7, -0.5)",,,,,,,,,0,0,0,0,,,,,,,,,,,,,0,1,1,3,,,,,,,,,,,,,,,,,,,,,,,,,,,,,,,,,,592.5283989999443,27,none,0,,,595.5421688999049,,,,,,,,,,,,,,,,,,,,,,2,B,2024-04-02_14h06.41.016,attentional_competition_task,2022.2.4,143.9542799602459,
positions.xlsx,positions_test.xlsx,positions_test_new.xlsx,stimuli.xlsx,stimuli_new.xlsx,stimuli/Social2.png,stimuli/Social1.png,stimuli/Nonsocial2.png,stimuli/Nonsocial1.png,stimuli/Social4.png,stimuli/Social3.png,stimuli/Nonsocial4.png,stimuli/Nonsocial3.png,cs_neg_s,"(-0.7, 0.5)",,,,,,,,,0,0,0,0,,,,,,,,,,,,,0,2,2,0,,,,,,,,,,,,,,,,,,,,,,,,,,,,,,,,,,602.3196632997133,27,none,0,,,605.3265448999591,,,,,,,,,,,,,,,,,,,,,,2,B,2024-04-02_14h06.41.016,attentional_competition_task,2022.2.4,143.9542799602459,
positions.xlsx,positions_test.xlsx,positions_test_new.xlsx,stimuli.xlsx,stimuli_new.xlsx,stimuli/Social2.png,stimuli/Social1.png,stimuli/Nonsocial2.png,stimuli/Nonsocial1.png,stimuli/Social4.png,stimuli/Social3.png,stimuli/Nonsocial4.png,stimuli/Nonsocial3.png,cs_pos_s,"(0.7, -0.5)",,,,,,,,,0,0,0,0,,,,,,,,,,,,,0,3,3,7,,,,,,,,,,,,,,,,,,,,,,,,,,,,,,,,,,613.2081585000269,30,reward,1,0.5070475996471941,0.5070511000230908,613.7220169999637,,,,,,,,,,,,,,,,,,,,,,2,B,2024-04-02_14h06.41.016,attentional_competition_task,2022.2.4,143.9542799602459,
positions.xlsx,positions_test.xlsx,positions_test_new.xlsx,stimuli.xlsx,stimuli_new.xlsx,stimuli/Social2.png,stimuli/Social1.png,stimuli/Nonsocial2.png,stimuli/Nonsocial1.png,stimuli/Social4.png,stimuli/Social3.png,stimuli/Nonsocial4.png,stimuli/Nonsocial3.png,cs_pos_s,"(-0.7, 0.5)",,,,,,,,,0,0,0,0,,,,,,,,,,,,,0,4,4,4,,,,,,,,,,,,,,,,,,,,,,,,,,,,,,,,,,621.0550299999304,33,reward,1,0.6114377002231777,0.6114416001364589,621.6730617000721,,,,,,,,,,,,,,,,,,,,,,2,B,2024-04-02_14h06.41.016,attentional_competition_task,2022.2.4,143.9542799602459,
positions.xlsx,positions_test.xlsx,positions_test_new.xlsx,stimuli.xlsx,stimuli_new.xlsx,stimuli/Social2.png,stimuli/Social1.png,stimuli/Nonsocial2.png,stimuli/Nonsocial1.png,stimuli/Social4.png,stimuli/Social3.png,stimuli/Nonsocial4.png,stimuli/Nonsocial3.png,cs_pos_s,"(0.7, 0.5)",,,,,,,,,0,0,0,0,,,,,,,,,,,,,0,5,5,6,,,,,,,,,,,,,,,,,,,,,,,,,,,,,,,,,,629.2283173999749,36,reward,1,0.6599448001943529,0.6599483001045883,629.8949258998036,,,,,,,,,,,,,,,,,,,,,,2,B,2024-04-02_14h06.41.016,attentional_competition_task,2022.2.4,143.9542799602459,
positions.xlsx,positions_test.xlsx,positions_test_new.xlsx,stimuli.xlsx,stimuli_new.xlsx,stimuli/Social2.png,stimuli/Social1.png,stimuli/Nonsocial2.png,stimuli/Nonsocial1.png,stimuli/Social4.png,stimuli/Social3.png,stimuli/Nonsocial4.png,stimuli/Nonsocial3.png,cs_neg_s,"(0.7, 0.5)",,,,,,,,,0,0,0,0,,,,,,,,,,,,,0,6,6,2,,,,,,,,,,,,,,,,,,,,,,,,,,,,,,,,,,638.2001390000805,36,none,0,,,641.2139388998039,,,,,,,,,,,,,,,,,,,,,,2,B,2024-04-02_14h06.41.016,attentional_competition_task,2022.2.4,143.9542799602459,
positions.xlsx,positions_test.xlsx,positions_test_new.xlsx,stimuli.xlsx,stimuli_new.xlsx,stimuli/Social2.png,stimuli/Social1.png,stimuli/Nonsocial2.png,stimuli/Nonsocial1.png,stimuli/Social4.png,stimuli/Social3.png,stimuli/Nonsocial4.png,stimuli/Nonsocial3.png,cs_neg_ns,"(0.7, -0.5)",,,,,,,,,0,0,0,0,,,,,,,,,,,,,0,7,7,11,,,,,,,,,,,,,,,,,,,,,,,,,,,,,,,,,,648.4775494998321,36,none,0,,,651.484339099843,,,,,,,,,,,,,,,,,,,,,,2,B,2024-04-02_14h06.41.016,attentional_competition_task,2022.2.4,143.9542799602459,
positions.xlsx,positions_test.xlsx,positions_test_new.xlsx,stimuli.xlsx,stimuli_new.xlsx,stimuli/Social2.png,stimuli/Social1.png,stimuli/Nonsocial2.png,stimuli/Nonsocial1.png,stimuli/Social4.png,stimuli/Social3.png,stimuli/Nonsocial4.png,stimuli/Nonsocial3.png,cs_pos_ns,"(-0.7, 0.5)",,,,,,,,,0,0,0,0,,,,,,,,,,,,,0,8,8,12,,,,,,,,,,,,,,,,,,,,,,,,,,,,,,,,,,658.7618853999302,39,reward,1,0.43061230005696416,0.43061580043286085,659.1993998996913,,,,,,,,,,,,,,,,,,,,,,2,B,2024-04-02_14h06.41.016,attentional_competition_task,2022.2.4,143.9542799602459,
positions.xlsx,positions_test.xlsx,positions_test_new.xlsx,stimuli.xlsx,stimuli_new.xlsx,stimuli/Social2.png,stimuli/Social1.png,stimuli/Nonsocial2.png,stimuli/Nonsocial1.png,stimuli/Social4.png,stimuli/Social3.png,stimuli/Nonsocial4.png,stimuli/Nonsocial3.png,cs_pos_ns,"(0.7, -0.5)",,,,,,,,,0,0,0,0,,,,,,,,,,,,,0,9,9,15,,,,,,,,,,,,,,,,,,,,,,,,,,,,,,,,,,666.0532477996312,42,reward,1,0.631967999972403,0.631971700116992,666.6920837997459,,,,,,,,,,,,,,,,,,,,,,2,B,2024-04-02_14h06.41.016,attentional_competition_task,2022.2.4,143.9542799602459,
positions.xlsx,positions_test.xlsx,positions_test_new.xlsx,stimuli.xlsx,stimuli_new.xlsx,stimuli/Social2.png,stimuli/Social1.png,stimuli/Nonsocial2.png,stimuli/Nonsocial1.png,stimuli/Social4.png,stimuli/Social3.png,stimuli/Nonsocial4.png,stimuli/Nonsocial3.png,cs_neg_ns,"(0.7, 0.5)",,,,,,,,,0,0,0,0,,,,,,,,,,,,,0,10,10,10,,,,,,,,,,,,,,,,,,,,,,,,,,,,,,,,,,674.539058199618,42,none,0,,,677.5527086998336,,,,,,,,,,,,,,,,,,,,,,2,B,2024-04-02_14h06.41.016,attentional_competition_task,2022.2.4,143.9542799602459,
positions.xlsx,positions_test.xlsx,positions_test_new.xlsx,stimuli.xlsx,stimuli_new.xlsx,stimuli/Social2.png,stimuli/Social1.png,stimuli/Nonsocial2.png,stimuli/Nonsocial1.png,stimuli/Social4.png,stimuli/Social3.png,stimuli/Nonsocial4.png,stimuli/Nonsocial3.png,cs_pos_ns,"(0.7, 0.5)",,,,,,,,,0,0,0,0,,,,,,,,,,,,,0,11,11,14,,,,,,,,,,,,,,,,,,,,,,,,,,,,,,,,,,684.3233296000399,45,reward,1,0.5140059003606439,0.5140099003911018,684.8441409999505,,,,,,,,,,,,,,,,,,,,,,2,B,2024-04-02_14h06.41.016,attentional_competition_task,2022.2.4,143.9542799602459,
positions.xlsx,positions_test.xlsx,positions_test_new.xlsx,stimuli.xlsx,stimuli_new.xlsx,stimuli/Social2.png,stimuli/Social1.png,stimuli/Nonsocial2.png,stimuli/Nonsocial1.png,stimuli/Social4.png,stimuli/Social3.png,stimuli/Nonsocial4.png,stimuli/Nonsocial3.png,cs_pos_ns,"(-0.7, -0.5)",,,,,,,,,0,0,0,0,,,,,,,,,,,,,0,12,12,13,,,,,,,,,,,,,,,,,,,,,,,,,,,,,,,,,,692.4966217000037,48,reward,1,0.6183803998865187,0.6183839999139309,693.1215784000233,,,,,,,,,,,,,,,,,,,,,,2,B,2024-04-02_14h06.41.016,attentional_competition_task,2022.2.4,143.9542799602459,
positions.xlsx,positions_test.xlsx,positions_test_new.xlsx,stimuli.xlsx,stimuli_new.xlsx,stimuli/Social2.png,stimuli/Social1.png,stimuli/Nonsocial2.png,stimuli/Nonsocial1.png,stimuli/Social4.png,stimuli/Social3.png,stimuli/Nonsocial4.png,stimuli/Nonsocial3.png,cs_pos_s,"(-0.7, -0.5)",,,,,,,,,0,0,0,0,,,,,,,,,,,,,0,13,13,5,,,,,,,,,,,,,,,,,,,,,,,,,,,,,,,,,,701.3573972997256,51,reward,1,0.6536576002836227,0.6536617004312575,702.0240225000307,,,,,,,,,,,,,,,,,,,,,,2,B,2024-04-02_14h06.41.016,attentional_competition_task,2022.2.4,143.9542799602459,
positions.xlsx,positions_test.xlsx,positions_test_new.xlsx,stimuli.xlsx,stimuli_new.xlsx,stimuli/Social2.png,stimuli/Social1.png,stimuli/Nonsocial2.png,stimuli/Nonsocial1.png,stimuli/Social4.png,stimuli/Social3.png,stimuli/Nonsocial4.png,stimuli/Nonsocial3.png,cs_neg_ns,"(-0.7, -0.5)",,,,,,,,,0,0,0,0,,,,,,,,,,,,,0,14,14,9,,,,,,,,,,,,,,,,,,,,,,,,,,,,,,,,,,709.5514761996455,51,none,0,,,712.5652721999213,,,,,,,,,,,,,,,,,,,,,,2,B,2024-04-02_14h06.41.016,attentional_competition_task,2022.2.4,143.9542799602459,
positions.xlsx,positions_test.xlsx,positions_test_new.xlsx,stimuli.xlsx,stimuli_new.xlsx,stimuli/Social2.png,stimuli/Social1.png,stimuli/Nonsocial2.png,stimuli/Nonsocial1.png,stimuli/Social4.png,stimuli/Social3.png,stimuli/Nonsocial4.png,stimuli/Nonsocial3.png,cs_neg_s,"(-0.7, -0.5)",,,,,,,,,0,0,0,0,,,,,,,,,,,,,0,15,15,1,,,,,,,,,,,,,,,,,,,,,,,,,,,,,,,,,,720.3566256999038,51,none,0,,,723.3634305000305,,,,,,,,,,,,,,,,,,,,,,2,B,2024-04-02_14h06.41.016,attentional_competition_task,2022.2.4,143.9542799602459,
positions.xlsx,positions_test.xlsx,positions_test_new.xlsx,stimuli.xlsx,stimuli_new.xlsx,stimuli/Social2.png,stimuli/Social1.png,stimuli/Nonsocial2.png,stimuli/Nonsocial1.png,stimuli/Social4.png,stimuli/Social3.png,stimuli/Nonsocial4.png,stimuli/Nonsocial3.png,cs_pos_ns,"(0.7, 0.5)",,,,,,,,,0,0,0,0,,,,,,,,,,,,,1,0,16,14,,,,,,,,,,,,,,,,,,,,,,,,,,,,,,,,,,730.1756714000367,54,reward,1,0.6598324999213219,0.6598361996002495,730.8422675998881,,,,,,,,,,,,,,,,,,,,,,2,B,2024-04-02_14h06.41.016,attentional_competition_task,2022.2.4,143.9542799602459,
positions.xlsx,positions_test.xlsx,positions_test_new.xlsx,stimuli.xlsx,stimuli_new.xlsx,stimuli/Social2.png,stimuli/Social1.png,stimuli/Nonsocial2.png,stimuli/Nonsocial1.png,stimuli/Social4.png,stimuli/Social3.png,stimuli/Nonsocial4.png,stimuli/Nonsocial3.png,cs_neg_s,"(-0.7, -0.5)",,,,,,,,,0,0,0,0,,,,,,,,,,,,,1,1,17,1,,,,,,,,,,,,,,,,,,,,,,,,,,,,,,,,,,739.0294737997465,54,none,0,,,742.0362630998716,,,,,,,,,,,,,,,,,,,,,,2,B,2024-04-02_14h06.41.016,attentional_competition_task,2022.2.4,143.9542799602459,
positions.xlsx,positions_test.xlsx,positions_test_new.xlsx,stimuli.xlsx,stimuli_new.xlsx,stimuli/Social2.png,stimuli/Social1.png,stimuli/Nonsocial2.png,stimuli/Nonsocial1.png,stimuli/Social4.png,stimuli/Social3.png,stimuli/Nonsocial4.png,stimuli/Nonsocial3.png,cs_neg_s,"(0.7, 0.5)",,,,,,,,,0,0,0,0,,,,,,,,,,,,,1,2,18,2,,,,,,,,,,,,,,,,,,,,,,,,,,,,,,,,,,749.0498917996883,54,none,0,,,752.0567458998412,,,,,,,,,,,,,,,,,,,,,,2,B,2024-04-02_14h06.41.016,attentional_competition_task,2022.2.4,143.9542799602459,
positions.xlsx,positions_test.xlsx,positions_test_new.xlsx,stimuli.xlsx,stimuli_new.xlsx,stimuli/Social2.png,stimuli/Social1.png,stimuli/Nonsocial2.png,stimuli/Nonsocial1.png,stimuli/Social4.png,stimuli/Social3.png,stimuli/Nonsocial4.png,stimuli/Nonsocial3.png,cs_neg_ns,"(-0.7, -0.5)",,,,,,,,,0,0,0,0,,,,,,,,,,,,,1,3,19,9,,,,,,,,,,,,,,,,,,,,,,,,,,,,,,,,,,758.95228139963,54,none,0,,,761.9591116998345,,,,,,,,,,,,,,,,,,,,,,2,B,2024-04-02_14h06.41.016,attentional_competition_task,2022.2.4,143.9542799602459,
positions.xlsx,positions_test.xlsx,positions_test_new.xlsx,stimuli.xlsx,stimuli_new.xlsx,stimuli/Social2.png,stimuli/Social1.png,stimuli/Nonsocial2.png,stimuli/Nonsocial1.png,stimuli/Social4.png,stimuli/Social3.png,stimuli/Nonsocial4.png,stimuli/Nonsocial3.png,cs_pos_s,"(0.7, 0.5)",,,,,,,,,0,0,0,0,,,,,,,,,,,,,1,4,20,6,,,,,,,,,,,,,,,,,,,,,,,,,,,,,,,,,,769.7852014000528,57,reward,1,0.6392296999692917,0.6392334001138806,770.4309791997075,,,,,,,,,,,,,,,,,,,,,,2,B,2024-04-02_14h06.41.016,attentional_competition_task,2022.2.4,143.9542799602459,
positions.xlsx,positions_test.xlsx,positions_test_new.xlsx,stimuli.xlsx,stimuli_new.xlsx,stimuli/Social2.png,stimuli/Social1.png,stimuli/Nonsocial2.png,stimuli/Nonsocial1.png,stimuli/Social4.png,stimuli/Social3.png,stimuli/Nonsocial4.png,stimuli/Nonsocial3.png,cs_neg_ns,"(0.7, 0.5)",,,,,,,,,0,0,0,0,,,,,,,,,,,,,1,5,21,10,,,,,,,,,,,,,,,,,,,,,,,,,,,,,,,,,,777.6390402000397,57,none,0,,,780.652788599953,,,,,,,,,,,,,,,,,,,,,,2,B,2024-04-02_14h06.41.016,attentional_competition_task,2022.2.4,143.9542799602459,
positions.xlsx,positions_test.xlsx,positions_test_new.xlsx,stimuli.xlsx,stimuli_new.xlsx,stimuli/Social2.png,stimuli/Social1.png,stimuli/Nonsocial2.png,stimuli/Nonsocial1.png,stimuli/Social4.png,stimuli/Social3.png,stimuli/Nonsocial4.png,stimuli/Nonsocial3.png,cs_neg_s,"(-0.7, 0.5)",,,,,,,,,0,0,0,0,,,,,,,,,,,,,1,6,22,0,,,,,,,,,,,,,,,,,,,,,,,,,,,,,,,,,,787.9997311998159,57,none,0,,,791.0065285996534,,,,,,,,,,,,,,,,,,,,,,2,B,2024-04-02_14h06.41.016,attentional_competition_task,2022.2.4,143.9542799602459,
positions.xlsx,positions_test.xlsx,positions_test_new.xlsx,stimuli.xlsx,stimuli_new.xlsx,stimuli/Social2.png,stimuli/Social1.png,stimuli/Nonsocial2.png,stimuli/Nonsocial1.png,stimuli/Social4.png,stimuli/Social3.png,stimuli/Nonsocial4.png,stimuli/Nonsocial3.png,cs_neg_ns,"(-0.7, 0.5)",,,,,,,,,0,0,0,0,,,,,,,,,,,,,1,7,23,8,,,,,,,,,,,,,,,,,,,,,,,,,,,,,,,,,,798.8812246997841,57,none,0,,,801.894967999775,,,,,,,,,,,,,,,,,,,,,,2,B,2024-04-02_14h06.41.016,attentional_competition_task,2022.2.4,143.9542799602459,
positions.xlsx,positions_test.xlsx,positions_test_new.xlsx,stimuli.xlsx,stimuli_new.xlsx,stimuli/Social2.png,stimuli/Social1.png,stimuli/Nonsocial2.png,stimuli/Nonsocial1.png,stimuli/Social4.png,stimuli/Social3.png,stimuli/Nonsocial4.png,stimuli/Nonsocial3.png,cs_pos_ns,"(-0.7, -0.5)",,,,,,,,,0,0,0,0,,,,,,,,,,,,,1,8,24,13,,,,,,,,,,,,,,,,,,,,,,,,,,,,,,,,,,809.7349982997403,60,reward,1,0.5421257000416517,0.5421430999413133,810.2835892997682,,,,,,,,,,,,,,,,,,,,,,2,B,2024-04-02_14h06.41.016,attentional_competition_task,2022.2.4,143.9542799602459,
positions.xlsx,positions_test.xlsx,positions_test_new.xlsx,stimuli.xlsx,stimuli_new.xlsx,stimuli/Social2.png,stimuli/Social1.png,stimuli/Nonsocial2.png,stimuli/Nonsocial1.png,stimuli/Social4.png,stimuli/Social3.png,stimuli/Nonsocial4.png,stimuli/Nonsocial3.png,cs_neg_ns,"(0.7, -0.5)",,,,,,,,,0,0,0,0,,,,,,,,,,,,,1,9,25,11,,,,,,,,,,,,,,,,,,,,,,,,,,,,,,,,,,817.8804627996869,60,none,0,,,820.8942269999534,,,,,,,,,,,,,,,,,,,,,,2,B,2024-04-02_14h06.41.016,attentional_competition_task,2022.2.4,143.9542799602459,
positions.xlsx,positions_test.xlsx,positions_test_new.xlsx,stimuli.xlsx,stimuli_new.xlsx,stimuli/Social2.png,stimuli/Social1.png,stimuli/Nonsocial2.png,stimuli/Nonsocial1.png,stimuli/Social4.png,stimuli/Social3.png,stimuli/Nonsocial4.png,stimuli/Nonsocial3.png,cs_pos_ns,"(-0.7, 0.5)",,,,,,,,,0,0,0,0,,,,,,,,,,,,,1,10,26,12,,,,,,,,,,,,,,,,,,,,,,,,,,,,,,,,,,829.2133525996469,63,reward,1,0.548609699588269,0.5486131999641657,829.7689540996216,,,,,,,,,,,,,,,,,,,,,,2,B,2024-04-02_14h06.41.016,attentional_competition_task,2022.2.4,143.9542799602459,
positions.xlsx,positions_test.xlsx,positions_test_new.xlsx,stimuli.xlsx,stimuli_new.xlsx,stimuli/Social2.png,stimuli/Social1.png,stimuli/Nonsocial2.png,stimuli/Nonsocial1.png,stimuli/Social4.png,stimuli/Social3.png,stimuli/Nonsocial4.png,stimuli/Nonsocial3.png,cs_neg_s,"(0.7, -0.5)",,,,,,,,,0,0,0,0,,,,,,,,,,,,,1,11,27,3,,,,,,,,,,,,,,,,,,,,,,,,,,,,,,,,,,836.7060745996423,63,none,0,,,839.7129367999732,,,,,,,,,,,,,,,,,,,,,,2,B,2024-04-02_14h06.41.016,attentional_competition_task,2022.2.4,143.9542799602459,
positions.xlsx,positions_test.xlsx,positions_test_new.xlsx,stimuli.xlsx,stimuli_new.xlsx,stimuli/Social2.png,stimuli/Social1.png,stimuli/Nonsocial2.png,stimuli/Nonsocial1.png,stimuli/Social4.png,stimuli/Social3.png,stimuli/Nonsocial4.png,stimuli/Nonsocial3.png,cs_pos_s,"(-0.7, -0.5)",,,,,,,,,0,0,0,0,,,,,,,,,,,,,1,12,28,5,,,,,,,,,,,,,,,,,,,,,,,,,,,,,,,,,,846.5182258998975,66,reward,1,0.22956550028175116,0.22956919996067882,846.7543039000593,,,,,,,,,,,,,,,,,,,,,,2,B,2024-04-02_14h06.41.016,attentional_competition_task,2022.2.4,143.9542799602459,
positions.xlsx,positions_test.xlsx,positions_test_new.xlsx,stimuli.xlsx,stimuli_new.xlsx,stimuli/Social2.png,stimuli/Social1.png,stimuli/Nonsocial2.png,stimuli/Nonsocial1.png,stimuli/Social4.png,stimuli/Social3.png,stimuli/Nonsocial4.png,stimuli/Nonsocial3.png,cs_pos_s,"(-0.7, 0.5)",,,,,,,,,0,0,0,0,,,,,,,,,,,,,1,13,29,4,,,,,,,,,,,,,,,,,,,,,,,,,,,,,,,,,,854.2956481999718,69,reward,1,0.5139027996920049,0.5139062996022403,854.8164897998795,,,,,,,,,,,,,,,,,,,,,,2,B,2024-04-02_14h06.41.016,attentional_competition_task,2022.2.4,143.9542799602459,
positions.xlsx,positions_test.xlsx,positions_test_new.xlsx,stimuli.xlsx,stimuli_new.xlsx,stimuli/Social2.png,stimuli/Social1.png,stimuli/Nonsocial2.png,stimuli/Nonsocial1.png,stimuli/Social4.png,stimuli/Social3.png,stimuli/Nonsocial4.png,stimuli/Nonsocial3.png,cs_pos_ns,"(0.7, -0.5)",,,,,,,,,0,0,0,0,,,,,,,,,,,,,1,14,30,15,,,,,,,,,,,,,,,,,,,,,,,,,,,,,,,,,,862.8578519998118,72,reward,1,0.6457079001702368,0.645711500197649,863.5105600999668,,,,,,,,,,,,,,,,,,,,,,2,B,2024-04-02_14h06.41.016,attentional_competition_task,2022.2.4,143.9542799602459,
positions.xlsx,positions_test.xlsx,positions_test_new.xlsx,stimuli.xlsx,stimuli_new.xlsx,stimuli/Social2.png,stimuli/Social1.png,stimuli/Nonsocial2.png,stimuli/Nonsocial1.png,stimuli/Social4.png,stimuli/Social3.png,stimuli/Nonsocial4.png,stimuli/Nonsocial3.png,cs_pos_s,"(0.7, -0.5)",,,,,,,,,0,0,0,0,,,,,,,,,,,,,1,15,31,7,,,,,,,,,,,,,,,,,,,,,,,,,,,,,,,,,,871.2880722996779,75,reward,1,0.4375183000229299,0.444378100335598,871.7394638997503,,,,,,,,,,,,,,,,,,,,,,2,B,2024-04-02_14h06.41.016,attentional_competition_task,2022.2.4,143.9542799602459,
positions.xlsx,positions_test.xlsx,positions_test_new.xlsx,stimuli.xlsx,stimuli_new.xlsx,stimuli/Social2.png,stimuli/Social1.png,stimuli/Nonsocial2.png,stimuli/Nonsocial1.png,stimuli/Social4.png,stimuli/Social3.png,stimuli/Nonsocial4.png,stimuli/Nonsocial3.png,cs_pos_s,,,,,,,,,,0,0,0,0,,,,,,,,,,,,,,,,,0,0,0,2,,,,,,,,,,,,,,,,,,,,,,,877.128127799835,6.0,11.24766069976613,,,,,,,,,,,,,,,,,,,,,,,,,,,,,,,,,2,B,2024-04-02_14h06.41.016,attentional_competition_task,2022.2.4,143.9542799602459,
positions.xlsx,positions_test.xlsx,positions_test_new.xlsx,stimuli.xlsx,stimuli_new.xlsx,stimuli/Social2.png,stimuli/Social1.png,stimuli/Nonsocial2.png,stimuli/Nonsocial1.png,stimuli/Social4.png,stimuli/Social3.png,stimuli/Nonsocial4.png,stimuli/Nonsocial3.png,cs_pos_ns,,,,,,,,,,0,0,0,0,,,,,,,,,,,,,,,,,0,1,1,3,,,,,,,,,,,,,,,,,,,,,,,889.808130600024,8.0,3.4525585998781025,,,,,,,,,,,,,,,,,,,,,,,,,,,,,,,,,2,B,2024-04-02_14h06.41.016,attentional_competition_task,2022.2.4,143.9542799602459,
positions.xlsx,positions_test.xlsx,positions_test_new.xlsx,stimuli.xlsx,stimuli_new.xlsx,stimuli/Social2.png,stimuli/Social1.png,stimuli/Nonsocial2.png,stimuli/Nonsocial1.png,stimuli/Social4.png,stimuli/Social3.png,stimuli/Nonsocial4.png,stimuli/Nonsocial3.png,cs_neg_ns,,,,,,,,,,0,0,0,0,,,,,,,,,,,,,,,,,0,2,2,1,,,,,,,,,,,,,,,,,,,,,,,894.1205211998895,4.0,8.834556799847633,,,,,,,,,,,,,,,,,,,,,,,,,,,,,,,,,2,B,2024-04-02_14h06.41.016,attentional_competition_task,2022.2.4,143.9542799602459,
positions.xlsx,positions_test.xlsx,positions_test_new.xlsx,stimuli.xlsx,stimuli_new.xlsx,stimuli/Social2.png,stimuli/Social1.png,stimuli/Nonsocial2.png,stimuli/Nonsocial1.png,stimuli/Social4.png,stimuli/Social3.png,stimuli/Nonsocial4.png,stimuli/Nonsocial3.png,cs_neg_s,,,,,,,,,,0,0,0,0,,,,,,,,,,,,,,,,,0,3,3,0,,,,,,,,,,,,,,,,,,,,,,,903.3214992997237,3.0,2.266516299918294,,,,,,,,,,,,,,,,,,,,,,,,,,,,,,,,,2,B,2024-04-02_14h06.41.016,attentional_competition_task,2022.2.4,143.9542799602459,
positions.xlsx,positions_test.xlsx,positions_test_new.xlsx,stimuli.xlsx,stimuli_new.xlsx,stimuli/Social2.png,stimuli/Social1.png,stimuli/Nonsocial2.png,stimuli/Nonsocial1.png,stimuli/Social4.png,stimuli/Social3.png,stimuli/Nonsocial4.png,stimuli/Nonsocial3.png,,,"(-0.7, -0.5)",cs_neg_ns,"(-0.7, 0.5)",cs_neg_s,"(0.7, -0.5)",cs_pos_ns,"(0.7, 0.5)",cs_pos_s,0,0,0,0,,,,,,,,,,,,,,,,,,,,,0,0,0,15,,,,,,,,,,,,,,,,,,,,,,,,,,,78,reward,,,,,905.8283414999023,916.1752198999748,916.1752198999748,916.1752198999748,916.1752198999748,0,,,0,,,1,0.02457530004903674,0.0245926002971828,0,,,916.1752198999748,916.1752198999748,916.1752198999748,916.1752198999748,2,B,2024-04-02_14h06.41.016,attentional_competition_task,2022.2.4,143.9542799602459,
positions.xlsx,positions_test.xlsx,positions_test_new.xlsx,stimuli.xlsx,stimuli_new.xlsx,stimuli/Social2.png,stimuli/Social1.png,stimuli/Nonsocial2.png,stimuli/Nonsocial1.png,stimuli/Social4.png,stimuli/Social3.png,stimuli/Nonsocial4.png,stimuli/Nonsocial3.png,,,"(-0.7, -0.5)",cs_neg_ns,"(-0.7, 0.5)",cs_neg_s,"(0.7, -0.5)",cs_pos_s,"(0.7, 0.5)",cs_pos_ns,0,0,0,0,,,,,,,,,,,,,,,,,,,,,0,1,1,14,,,,,,,,,,,,,,,,,,,,,,,,,,,84,reward,,,,,,923.3415504996665,923.3415504996665,923.3415504996665,923.3415504996665,0,,,0,,,1,0.03437810018658638,0.21772099984809756,1,0.23925530025735497,0.23925920017063618,923.5776514997706,923.5776514997706,923.5776514997706,923.5776514997706,2,B,2024-04-02_14h06.41.016,attentional_competition_task,2022.2.4,143.9542799602459,
positions.xlsx,positions_test.xlsx,positions_test_new.xlsx,stimuli.xlsx,stimuli_new.xlsx,stimuli/Social2.png,stimuli/Social1.png,stimuli/Nonsocial2.png,stimuli/Nonsocial1.png,stimuli/Social4.png,stimuli/Social3.png,stimuli/Nonsocial4.png,stimuli/Nonsocial3.png,,,"(-0.7, -0.5)",cs_neg_s,"(-0.7, 0.5)",cs_pos_s,"(0.7, -0.5)",cs_neg_ns,"(0.7, 0.5)",cs_pos_ns,0,0,0,0,,,,,,,,,,,,,,,,,,,,,0,2,2,0,,,,,,,,,,,,,,,,,,,,,,,,,,,93,reward,,,,,,932.3967297999188,932.3967297999188,932.3967297999188,932.3967297999188,0,,,0,,,0,,,1,0.030651200097054243,0.13586470019072294,933.0772572997957,933.0772572997957,933.0772572997957,933.0772572997957,2,B,2024-04-02_14h06.41.016,attentional_competition_task,2022.2.4,143.9542799602459,
positions.xlsx,positions_test.xlsx,positions_test_new.xlsx,stimuli.xlsx,stimuli_new.xlsx,stimuli/Social2.png,stimuli/Social1.png,stimuli/Nonsocial2.png,stimuli/Nonsocial1.png,stimuli/Social4.png,stimuli/Social3.png,stimuli/Nonsocial4.png,stimuli/Nonsocial3.png,,,"(-0.7, -0.5)",cs_pos_ns,"(-0.7, 0.5)",cs_neg_s,"(0.7, -0.5)",cs_neg_ns,"(0.7, 0.5)",cs_pos_s,0,0,0,0,,,,,,,,,,,,,,,,,,,,,0,3,3,23,,,,,,,,,,,,,,,,,,,,,,,,,,,102,reward,,,,,,940.1186886997893,940.1186886997893,940.1186886997893,940.1186886997893,1,0.0283376001752913,0.2594675002619624,0,,,0,,,0,,,940.8824974000454,940.8824974000454,940.8824974000454,940.8824974000454,2,B,2024-04-02_14h06.41.016,attentional_competition_task,2022.2.4,143.9542799602459,
positions.xlsx,positions_test.xlsx,positions_test_new.xlsx,stimuli.xlsx,stimuli_new.xlsx,stimuli/Social2.png,stimuli/Social1.png,stimuli/Nonsocial2.png,stimuli/Nonsocial1.png,stimuli/Social4.png,stimuli/Social3.png,stimuli/Nonsocial4.png,stimuli/Nonsocial3.png,,,"(-0.7, -0.5)",cs_neg_ns,"(-0.7, 0.5)",cs_pos_s,"(0.7, -0.5)",cs_neg_s,"(0.7, 0.5)",cs_pos_ns,0,0,0,0,,,,,,,,,,,,,,,,,,,,,0,4,4,12,,,,,,,,,,,,,,,,,,,,,,,,,,,111,reward,,,,,,949.1946330997162,949.1946330997162,949.1946330997162,949.1946330997162,0,,,0,,,0,,,1,0.023820200003683567,0.24032749980688095,950.1043556998484,950.1043556998484,950.1043556998484,950.1043556998484,2,B,2024-04-02_14h06.41.016,attentional_competition_task,2022.2.4,143.9542799602459,
positions.xlsx,positions_test.xlsx,positions_test_new.xlsx,stimuli.xlsx,stimuli_new.xlsx,stimuli/Social2.png,stimuli/Social1.png,stimuli/Nonsocial2.png,stimuli/Nonsocial1.png,stimuli/Social4.png,stimuli/Social3.png,stimuli/Nonsocial4.png,stimuli/Nonsocial3.png,,,"(-0.7, -0.5)",cs_neg_s,"(-0.7, 0.5)",cs_pos_ns,"(0.7, -0.5)",cs_pos_s,"(0.7, 0.5)",cs_neg_ns,0,0,0,0,,,,,,,,,,,,,,,,,,,,,0,5,5,4,,,,,,,,,,,,,,,,,,,,,,,,,,,120,reward,,,,,,958.4859348996542,958.4859348996542,958.4859348996542,958.4859348996542,0,,,1,0.02921890001744032,0.19030659971758723,0,,,0,,,959.1803811998107,959.1803811998107,959.1803811998107,959.1803811998107,2,B,2024-04-02_14h06.41.016,attentional_competition_task,2022.2.4,143.9542799602459,
positions.xlsx,positions_test.xlsx,positions_test_new.xlsx,stimuli.xlsx,stimuli_new.xlsx,stimuli/Social2.png,stimuli/Social1.png,stimuli/Nonsocial2.png,stimuli/Nonsocial1.png,stimuli/Social4.png,stimuli/Social3.png,stimuli/Nonsocial4.png,stimuli/Nonsocial3.png,,,"(-0.7, -0.5)",cs_pos_ns,"(-0.7, 0.5)",cs_neg_s,"(0.7, -0.5)",cs_pos_s,"(0.7, 0.5)",cs_neg_ns,0,0,0,0,,,,,,,,,,,,,,,,,,,,,0,6,6,22,,,,,,,,,,,,,,,,,,,,,,,,,,,129,reward,,,,,,967.7147526000626,967.7147526000626,967.7147526000626,967.7147526000626,1,0.030189699959009886,0.18975690007209778,0,,,0,,,0,,,968.4022272997536,968.4022272997536,968.4022272997536,968.4022272997536,2,B,2024-04-02_14h06.41.016,attentional_competition_task,2022.2.4,143.9542799602459,
positions.xlsx,positions_test.xlsx,positions_test_new.xlsx,stimuli.xlsx,stimuli_new.xlsx,stimuli/Social2.png,stimuli/Social1.png,stimuli/Nonsocial2.png,stimuli/Nonsocial1.png,stimuli/Social4.png,stimuli/Social3.png,stimuli/Nonsocial4.png,stimuli/Nonsocial3.png,,,"(-0.7, -0.5)",cs_pos_s,"(-0.7, 0.5)",cs_neg_ns,"(0.7, -0.5)",cs_pos_ns,"(0.7, 0.5)",cs_neg_s,0,0,0,0,,,,,,,,,,,,,,,,,,,,,0,7,7,9,,,,,,,,,,,,,,,,,,,,,,,,,,,135,reward,,,,,,976.3394128996879,976.3394128996879,976.3394128996879,976.3394128996879,1,0.029791900422424078,0.20344180008396506,0,,,1,0.4058097000233829,0.4120232001878321,0,,,976.7491293996572,976.7491293996572,976.7491293996572,976.7491293996572,2,B,2024-04-02_14h06.41.016,attentional_competition_task,2022.2.4,143.9542799602459,
positions.xlsx,positions_test.xlsx,positions_test_new.xlsx,stimuli.xlsx,stimuli_new.xlsx,stimuli/Social2.png,stimuli/Social1.png,stimuli/Nonsocial2.png,stimuli/Nonsocial1.png,stimuli/Social4.png,stimuli/Social3.png,stimuli/Nonsocial4.png,stimuli/Nonsocial3.png,,,"(-0.7, -0.5)",cs_pos_ns,"(-0.7, 0.5)",cs_neg_ns,"(0.7, -0.5)",cs_pos_s,"(0.7, 0.5)",cs_neg_s,0,0,0,0,,,,,,,,,,,,,,,,,,,,,0,8,8,20,,,,,,,,,,,,,,,,,,,,,,,,,,,141,reward,,,,,,984.8252053996548,984.8252053996548,984.8252053996548,984.8252053996548,1,0.3005134002305567,0.30756340036168694,0,,,1,0.029150200076401234,0.06519500026479363,0,,,985.637673499994,985.637673499994,985.637673499994,985.637673499994,2,B,2024-04-02_14h06.41.016,attentional_competition_task,2022.2.4,143.9542799602459,
positions.xlsx,positions_test.xlsx,positions_test_new.xlsx,stimuli.xlsx,stimuli_new.xlsx,stimuli/Social2.png,stimuli/Social1.png,stimuli/Nonsocial2.png,stimuli/Nonsocial1.png,stimuli/Social4.png,stimuli/Social3.png,stimuli/Nonsocial4.png,stimuli/Nonsocial3.png,,,"(-0.7, -0.5)",cs_pos_ns,"(-0.7, 0.5)",cs_neg_ns,"(0.7, -0.5)",cs_neg_s,"(0.7, 0.5)",cs_pos_s,0,0,0,0,,,,,,,,,,,,,,,,,,,,,0,9,9,21,,,,,,,,,,,,,,,,,,,,,,,,,,,150,reward,,,,,,992.9220679998398,992.9220679998398,992.9220679998398,992.9220679998398,0,,,0,,,0,,,0,,,993.6443083998747,993.6443083998747,993.6443083998747,993.6443083998747,2,B,2024-04-02_14h06.41.016,attentional_competition_task,2022.2.4,143.9542799602459,
positions.xlsx,positions_test.xlsx,positions_test_new.xlsx,stimuli.xlsx,stimuli_new.xlsx,stimuli/Social2.png,stimuli/Social1.png,stimuli/Nonsocial2.png,stimuli/Nonsocial1.png,stimuli/Social4.png,stimuli/Social3.png,stimuli/Nonsocial4.png,stimuli/Nonsocial3.png,,,"(-0.7, -0.5)",cs_pos_s,"(-0.7, 0.5)",cs_neg_ns,"(0.7, -0.5)",cs_neg_s,"(0.7, 0.5)",cs_pos_ns,0,0,0,0,,,,,,,,,,,,,,,,,,,,,0,10,10,8,,,,,,,,,,,,,,,,,,,,,,,,,,,153,loss,,,,,,1000.8731009997427,1000.8731009997427,1000.8731009997427,1000.8731009997427,0,,,0,,,1,0.3580529997125268,0.3580569000914693,0,,,1001.2411714997143,1001.2411714997143,1001.2411714997143,1001.2411714997143,2,B,2024-04-02_14h06.41.016,attentional_competition_task,2022.2.4,143.9542799602459,
positions.xlsx,positions_test.xlsx,positions_test_new.xlsx,stimuli.xlsx,stimuli_new.xlsx,stimuli/Social2.png,stimuli/Social1.png,stimuli/Nonsocial2.png,stimuli/Nonsocial1.png,stimuli/Social4.png,stimuli/Social3.png,stimuli/Nonsocial4.png,stimuli/Nonsocial3.png,,,"(-0.7, -0.5)",cs_neg_s,"(-0.7, 0.5)",cs_neg_ns,"(0.7, -0.5)",cs_pos_s,"(0.7, 0.5)",cs_pos_ns,0,0,0,0,,,,,,,,,,,,,,,,,,,,,0,11,11,2,,,,,,,,,,,,,,,,,,,,,,,,,,,162,reward,,,,,,1009.4839436998591,1009.4839436998591,1009.4839436998591,1009.4839436998591,0,,,0,,,1,0.37779319984838367,0.4402291998267174,1,0.02936229994520545,0.34308329969644547,1010.4144252999686,1010.4144252999686,1010.4144252999686,1010.4144252999686,2,B,2024-04-02_14h06.41.016,attentional_competition_task,2022.2.4,143.9542799602459,
positions.xlsx,positions_test.xlsx,positions_test_new.xlsx,stimuli.xlsx,stimuli_new.xlsx,stimuli/Social2.png,stimuli/Social1.png,stimuli/Nonsocial2.png,stimuli/Nonsocial1.png,stimuli/Social4.png,stimuli/Social3.png,stimuli/Nonsocial4.png,stimuli/Nonsocial3.png,,,"(-0.7, -0.5)",cs_neg_ns,"(-0.7, 0.5)",cs_pos_s,"(0.7, -0.5)",cs_pos_ns,"(0.7, 0.5)",cs_neg_s,0,0,0,0,,,,,,,,,,,,,,,,,,,,,0,12,12,13,,,,,,,,,,,,,,,,,,,,,,,,,,,168,reward,,,,,,1017.2058131997474,1017.2058131997474,1017.2058131997474,1017.2058131997474,0,,,0,,,4,0.2529822001233697,0.2666775002144277,0,,,1017.622515999712,1017.622515999712,1017.622515999712,1017.622515999712,2,B,2024-04-02_14h06.41.016,attentional_competition_task,2022.2.4,143.9542799602459,
positions.xlsx,positions_test.xlsx,positions_test_new.xlsx,stimuli.xlsx,stimuli_new.xlsx,stimuli/Social2.png,stimuli/Social1.png,stimuli/Nonsocial2.png,stimuli/Nonsocial1.png,stimuli/Social4.png,stimuli/Social3.png,stimuli/Nonsocial4.png,stimuli/Nonsocial3.png,,,"(-0.7, -0.5)",cs_pos_s,"(-0.7, 0.5)",cs_pos_ns,"(0.7, -0.5)",cs_neg_ns,"(0.7, 0.5)",cs_neg_s,0,0,0,0,,,,,,,,,,,,,,,,,,,,,0,13,13,11,,,,,,,,,,,,,,,,,,,,,,,,,,,177,reward,,,,,,1026.8165607997216,1026.8165607997216,1026.8165607997216,1026.8165607997216,0,,,1,0.030804500449448824,0.38441860023885965,0,,,0,,,1027.6984575996175,1027.6984575996175,1027.6984575996175,1027.6984575996175,2,B,2024-04-02_14h06.41.016,attentional_competition_task,2022.2.4,143.9542799602459,
positions.xlsx,positions_test.xlsx,positions_test_new.xlsx,stimuli.xlsx,stimuli_new.xlsx,stimuli/Social2.png,stimuli/Social1.png,stimuli/Nonsocial2.png,stimuli/Nonsocial1.png,stimuli/Social4.png,stimuli/Social3.png,stimuli/Nonsocial4.png,stimuli/Nonsocial3.png,,,"(-0.7, -0.5)",cs_neg_s,"(-0.7, 0.5)",cs_pos_s,"(0.7, -0.5)",cs_pos_ns,"(0.7, 0.5)",cs_neg_ns,0,0,0,0,,,,,,,,,,,,,,,,,,,,,0,14,14,1,,,,,,,,,,,,,,,,,,,,,,,,,,,186,reward,,,,,,1035.4342863997445,1035.4342863997445,1035.4342863997445,1035.4342863997445,0,,,0,,,1,0.022723600268363953,0.47582440031692386,0,,,1036.4203453999944,1036.4203453999944,1036.4203453999944,1036.4203453999944,2,B,2024-04-02_14h06.41.016,attentional_competition_task,2022.2.4,143.9542799602459,
positions.xlsx,positions_test.xlsx,positions_test_new.xlsx,stimuli.xlsx,stimuli_new.xlsx,stimuli/Social2.png,stimuli/Social1.png,stimuli/Nonsocial2.png,stimuli/Nonsocial1.png,stimuli/Social4.png,stimuli/Social3.png,stimuli/Nonsocial4.png,stimuli/Nonsocial3.png,,,"(-0.7, -0.5)",cs_pos_s,"(-0.7, 0.5)",cs_neg_s,"(0.7, -0.5)",cs_pos_ns,"(0.7, 0.5)",cs_neg_ns,0,0,0,0,,,,,,,,,,,,,,,,,,,,,0,15,15,7,,,,,,,,,,,,,,,,,,,,,,,,,,,195,reward,,,,,,1044.3158100000583,1044.3158100000583,1044.3158100000583,1044.3158100000583,0,,,0,,,1,0.02337840013206005,0.4420586000196636,0,,,1045.2671955996193,1045.2671955996193,1045.2671955996193,1045.2671955996193,2,B,2024-04-02_14h06.41.016,attentional_competition_task,2022.2.4,143.9542799602459,
positions.xlsx,positions_test.xlsx,positions_test_new.xlsx,stimuli.xlsx,stimuli_new.xlsx,stimuli/Social2.png,stimuli/Social1.png,stimuli/Nonsocial2.png,stimuli/Nonsocial1.png,stimuli/Social4.png,stimuli/Social3.png,stimuli/Nonsocial4.png,stimuli/Nonsocial3.png,,,"(-0.7, -0.5)",cs_neg_s,"(-0.7, 0.5)",cs_neg_ns,"(0.7, -0.5)",cs_pos_ns,"(0.7, 0.5)",cs_pos_s,0,0,0,0,,,,,,,,,,,,,,,,,,,,,0,16,16,3,,,,,,,,,,,,,,,,,,,,,,,,,,,204,reward,,,,,,1052.8502197000198,1052.8502197000198,1052.8502197000198,1052.8502197000198,0,,,0,,,1,0.03011659998446703,0.39149449998512864,0,,,1053.7390768998303,1053.7390768998303,1053.7390768998303,1053.7390768998303,2,B,2024-04-02_14h06.41.016,attentional_competition_task,2022.2.4,143.9542799602459,
positions.xlsx,positions_test.xlsx,positions_test_new.xlsx,stimuli.xlsx,stimuli_new.xlsx,stimuli/Social2.png,stimuli/Social1.png,stimuli/Nonsocial2.png,stimuli/Nonsocial1.png,stimuli/Social4.png,stimuli/Social3.png,stimuli/Nonsocial4.png,stimuli/Nonsocial3.png,,,"(-0.7, -0.5)",cs_pos_ns,"(-0.7, 0.5)",cs_pos_s,"(0.7, -0.5)",cs_neg_ns,"(0.7, 0.5)",cs_neg_s,0,0,0,0,,,,,,,,,,,,,,,,,,,,,0,17,17,18,,,,,,,,,,,,,,,,,,,,,,,,,,,213,reward,,,,,,1061.0373978000134,1061.0373978000134,1061.0373978000134,1061.0373978000134,1,0.026984200347214937,0.4731560000218451,0,,,0,,,0,,,1062.0165288997814,1062.0165288997814,1062.0165288997814,1062.0165288997814,2,B,2024-04-02_14h06.41.016,attentional_competition_task,2022.2.4,143.9542799602459,
positions.xlsx,positions_test.xlsx,positions_test_new.xlsx,stimuli.xlsx,stimuli_new.xlsx,stimuli/Social2.png,stimuli/Social1.png,stimuli/Nonsocial2.png,stimuli/Nonsocial1.png,stimuli/Social4.png,stimuli/Social3.png,stimuli/Nonsocial4.png,stimuli/Nonsocial3.png,,,"(-0.7, -0.5)",cs_pos_ns,"(-0.7, 0.5)",cs_pos_s,"(0.7, -0.5)",cs_neg_s,"(0.7, 0.5)",cs_neg_ns,0,0,0,0,,,,,,,,,,,,,,,,,,,,,0,18,18,19,,,,,,,,,,,,,,,,,,,,,,,,,,,222,reward,,,,,,1069.6689952998422,1069.6689952998422,1069.6689952998422,1069.6689952998422,1,0.0222074999473989,0.34444249980151653,0,,,0,,,0,,,1070.523140099831,1070.523140099831,1070.523140099831,1070.523140099831,2,B,2024-04-02_14h06.41.016,attentional_competition_task,2022.2.4,143.9542799602459,
positions.xlsx,positions_test.xlsx,positions_test_new.xlsx,stimuli.xlsx,stimuli_new.xlsx,stimuli/Social2.png,stimuli/Social1.png,stimuli/Nonsocial2.png,stimuli/Nonsocial1.png,stimuli/Social4.png,stimuli/Social3.png,stimuli/Nonsocial4.png,stimuli/Nonsocial3.png,,,"(-0.7, -0.5)",cs_pos_s,"(-0.7, 0.5)",cs_pos_ns,"(0.7, -0.5)",cs_neg_s,"(0.7, 0.5)",cs_neg_ns,0,0,0,0,,,,,,,,,,,,,,,,,,,,,0,19,19,10,,,,,,,,,,,,,,,,,,,,,,,,,,,231,reward,,,,,,1078.0436984999105,1078.0436984999105,1078.0436984999105,1078.0436984999105,0,,,1,0.03413650020956993,0.53890739986673,0,,,0,,,1079.0784105998464,1079.0784105998464,1079.0784105998464,1079.0784105998464,2,B,2024-04-02_14h06.41.016,attentional_competition_task,2022.2.4,143.9542799602459,
positions.xlsx,positions_test.xlsx,positions_test_new.xlsx,stimuli.xlsx,stimuli_new.xlsx,stimuli/Social2.png,stimuli/Social1.png,stimuli/Nonsocial2.png,stimuli/Nonsocial1.png,stimuli/Social4.png,stimuli/Social3.png,stimuli/Nonsocial4.png,stimuli/Nonsocial3.png,,,"(-0.7, -0.5)",cs_neg_s,"(-0.7, 0.5)",cs_pos_ns,"(0.7, -0.5)",cs_neg_ns,"(0.7, 0.5)",cs_pos_s,0,0,0,0,,,,,,,,,,,,,,,,,,,,,0,20,20,5,,,,,,,,,,,,,,,,,,,,,,,,,,,240,reward,,,,,,1085.9668965996243,1085.9668965996243,1085.9668965996243,1085.9668965996243,0,,,1,0.027961499989032745,0.42580850003287196,0,,,0,,,1086.897463900037,1086.897463900037,1086.897463900037,1086.897463900037,2,B,2024-04-02_14h06.41.016,attentional_competition_task,2022.2.4,143.9542799602459,
positions.xlsx,positions_test.xlsx,positions_test_new.xlsx,stimuli.xlsx,stimuli_new.xlsx,stimuli/Social2.png,stimuli/Social1.png,stimuli/Nonsocial2.png,stimuli/Nonsocial1.png,stimuli/Social4.png,stimuli/Social3.png,stimuli/Nonsocial4.png,stimuli/Nonsocial3.png,,,"(-0.7, -0.5)",cs_pos_s,"(-0.7, 0.5)",cs_neg_s,"(0.7, -0.5)",cs_neg_ns,"(0.7, 0.5)",cs_pos_ns,0,0,0,0,,,,,,,,,,,,,,,,,,,,,0,21,21,6,,,,,,,,,,,,,,,,,,,,,,,,,,,249,reward,,,,,,1094.0985252996907,1094.0985252996907,1094.0985252996907,1094.0985252996907,0,,,0,,,0,,,1,0.03016290022060275,0.12828970002010465,1094.9249501000158,1094.9249501000158,1094.9249501000158,1094.9249501000158,2,B,2024-04-02_14h06.41.016,attentional_competition_task,2022.2.4,143.9542799602459,
positions.xlsx,positions_test.xlsx,positions_test_new.xlsx,stimuli.xlsx,stimuli_new.xlsx,stimuli/Social2.png,stimuli/Social1.png,stimuli/Nonsocial2.png,stimuli/Nonsocial1.png,stimuli/Social4.png,stimuli/Social3.png,stimuli/Nonsocial4.png,stimuli/Nonsocial3.png,,,"(-0.7, -0.5)",cs_neg_ns,"(-0.7, 0.5)",cs_pos_ns,"(0.7, -0.5)",cs_neg_s,"(0.7, 0.5)",cs_pos_s,0,0,0,0,,,,,,,,,,,,,,,,,,,,,0,22,22,17,,,,,,,,,,,,,,,,,,,,,,,,,,,258,reward,,,,,,1103.0287561998703,1103.0287561998703,1103.0287561998703,1103.0287561998703,0,,,1,0.0236753998324275,0.07360180001705885,0,,,0,,,1103.612058899831,1103.612058899831,1103.612058899831,1103.612058899831,2,B,2024-04-02_14h06.41.016,attentional_competition_task,2022.2.4,143.9542799602459,
positions.xlsx,positions_test.xlsx,positions_test_new.xlsx,stimuli.xlsx,stimuli_new.xlsx,stimuli/Social2.png,stimuli/Social1.png,stimuli/Nonsocial2.png,stimuli/Nonsocial1.png,stimuli/Social4.png,stimuli/Social3.png,stimuli/Nonsocial4.png,stimuli/Nonsocial3.png,,,"(-0.7, -0.5)",cs_neg_ns,"(-0.7, 0.5)",cs_pos_ns,"(0.7, -0.5)",cs_pos_s,"(0.7, 0.5)",cs_neg_s,0,0,0,0,,,,,,,,,,,,,,,,,,,,,0,23,23,16,,,,,,,,,,,,,,,,,,,,,,,,,,,264,reward,,,,,,1111.5631013000384,1111.5631013000384,1111.5631013000384,1111.5631013000384,0,,,1,0.029716100078076124,0.07184710027649999,0,,,0,,,1112.1394841996953,1112.1394841996953,1112.1394841996953,1112.1394841996953,2,B,2024-04-02_14h06.41.016,attentional_competition_task,2022.2.4,143.9542799602459,
positions.xlsx,positions_test.xlsx,positions_test_new.xlsx,stimuli.xlsx,stimuli_new.xlsx,stimuli/Social2.png,stimuli/Social1.png,stimuli/Nonsocial2.png,stimuli/Nonsocial1.png,stimuli/Social4.png,stimuli/Social3.png,stimuli/Nonsocial4.png,stimuli/Nonsocial3.png,,,"(-0.7, -0.5)",cs_neg_s,"(-0.7, 0.5)",cs_neg_ns,"(0.7, -0.5)",cs_pos_ns,"(0.7, 0.5)",cs_pos_s,0,0,0,0,,,,,,,,,,,,,,,,,,,,,1,0,24,3,,,,,,,,,,,,,,,,,,,,,,,,,,,273,reward,,,,,,1119.7573156999424,1119.7573156999424,1119.7573156999424,1119.7573156999424,0,,,0,,,1,0.03148199990391731,0.47517360001802444,0,,,1120.729427299928,1120.729427299928,1120.729427299928,1120.729427299928,2,B,2024-04-02_14h06.41.016,attentional_competition_task,2022.2.4,143.9542799602459,
positions.xlsx,positions_test.xlsx,positions_test_new.xlsx,stimuli.xlsx,stimuli_new.xlsx,stimuli/Social2.png,stimuli/Social1.png,stimuli/Nonsocial2.png,stimuli/Nonsocial1.png,stimuli/Social4.png,stimuli/Social3.png,stimuli/Nonsocial4.png,stimuli/Nonsocial3.png,,,"(-0.7, -0.5)",cs_neg_s,"(-0.7, 0.5)",cs_pos_ns,"(0.7, -0.5)",cs_pos_s,"(0.7, 0.5)",cs_neg_ns,0,0,0,0,,,,,,,,,,,,,,,,,,,,,1,1,25,4,,,,,,,,,,,,,,,,,,,,,,,,,,,282,reward,,,,,,1127.6666557998396,1127.6666557998396,1127.6666557998396,1127.6666557998396,0,,,1,0.02933889999985695,0.3002154999412596,0,,,0,,,1128.465252599679,1128.465252599679,1128.465252599679,1128.465252599679,2,B,2024-04-02_14h06.41.016,attentional_competition_task,2022.2.4,143.9542799602459,
positions.xlsx,positions_test.xlsx,positions_test_new.xlsx,stimuli.xlsx,stimuli_new.xlsx,stimuli/Social2.png,stimuli/Social1.png,stimuli/Nonsocial2.png,stimuli/Nonsocial1.png,stimuli/Social4.png,stimuli/Social3.png,stimuli/Nonsocial4.png,stimuli/Nonsocial3.png,,,"(-0.7, -0.5)",cs_pos_ns,"(-0.7, 0.5)",cs_pos_s,"(0.7, -0.5)",cs_neg_s,"(0.7, 0.5)",cs_neg_ns,0,0,0,0,,,,,,,,,,,,,,,,,,,,,1,2,26,19,,,,,,,,,,,,,,,,,,,,,,,,,,,291,reward,,,,,,1136.360735299997,1136.360735299997,1136.360735299997,1136.360735299997,0,,,1,0.026834699790924788,0.17078709974884987,0,,,0,,,1137.0343291000463,1137.0343291000463,1137.0343291000463,1137.0343291000463,2,B,2024-04-02_14h06.41.016,attentional_competition_task,2022.2.4,143.9542799602459,
positions.xlsx,positions_test.xlsx,positions_test_new.xlsx,stimuli.xlsx,stimuli_new.xlsx,stimuli/Social2.png,stimuli/Social1.png,stimuli/Nonsocial2.png,stimuli/Nonsocial1.png,stimuli/Social4.png,stimuli/Social3.png,stimuli/Nonsocial4.png,stimuli/Nonsocial3.png,,,"(-0.7, -0.5)",cs_neg_ns,"(-0.7, 0.5)",cs_neg_s,"(0.7, -0.5)",cs_pos_s,"(0.7, 0.5)",cs_pos_ns,0,0,0,0,,,,,,,,,,,,,,,,,,,,,1,3,27,14,,,,,,,,,,,,,,,,,,,,,,,,,,,300,reward,,,,,,1145.290918499697,1145.290918499697,1145.290918499697,1145.290918499697,0,,,0,,,1,0.3299957001581788,0.49649900011718273,1,0.024016799870878458,0.3094214000739157,1146.2978451000527,1146.2978451000527,1146.2978451000527,1146.2978451000527,2,B,2024-04-02_14h06.41.016,attentional_competition_task,2022.2.4,143.9542799602459,
positions.xlsx,positions_test.xlsx,positions_test_new.xlsx,stimuli.xlsx,stimuli_new.xlsx,stimuli/Social2.png,stimuli/Social1.png,stimuli/Nonsocial2.png,stimuli/Nonsocial1.png,stimuli/Social4.png,stimuli/Social3.png,stimuli/Nonsocial4.png,stimuli/Nonsocial3.png,,,"(-0.7, -0.5)",cs_pos_s,"(-0.7, 0.5)",cs_pos_ns,"(0.7, -0.5)",cs_neg_ns,"(0.7, 0.5)",cs_neg_s,0,0,0,0,,,,,,,,,,,,,,,,,,,,,1,4,28,11,,,,,,,,,,,,,,,,,,,,,,,,,,,309,reward,,,,,,1153.984974199906,1153.984974199906,1153.984974199906,1153.984974199906,0,,,1,0.02545599965378642,0.5256525999866426,0,,,0,,,1155.0128180999309,1155.0128180999309,1155.0128180999309,1155.0128180999309,2,B,2024-04-02_14h06.41.016,attentional_competition_task,2022.2.4,143.9542799602459,
positions.xlsx,positions_test.xlsx,positions_test_new.xlsx,stimuli.xlsx,stimuli_new.xlsx,stimuli/Social2.png,stimuli/Social1.png,stimuli/Nonsocial2.png,stimuli/Nonsocial1.png,stimuli/Social4.png,stimuli/Social3.png,stimuli/Nonsocial4.png,stimuli/Nonsocial3.png,,,"(-0.7, -0.5)",cs_neg_ns,"(-0.7, 0.5)",cs_pos_ns,"(0.7, -0.5)",cs_pos_s,"(0.7, 0.5)",cs_neg_s,0,0,0,0,,,,,,,,,,,,,,,,,,,,,1,5,29,16,,,,,,,,,,,,,,,,,,,,,,,,,,,318,reward,,,,,,1162.1930012996309,1162.1930012996309,1162.1930012996309,1162.1930012996309,0,,,1,0.025688699912279844,0.4217228000052273,0,,,0,,,1163.1235492997803,1163.1235492997803,1163.1235492997803,1163.1235492997803,2,B,2024-04-02_14h06.41.016,attentional_competition_task,2022.2.4,143.9542799602459,
positions.xlsx,positions_test.xlsx,positions_test_new.xlsx,stimuli.xlsx,stimuli_new.xlsx,stimuli/Social2.png,stimuli/Social1.png,stimuli/Nonsocial2.png,stimuli/Nonsocial1.png,stimuli/Social4.png,stimuli/Social3.png,stimuli/Nonsocial4.png,stimuli/Nonsocial3.png,,,"(-0.7, -0.5)",cs_neg_s,"(-0.7, 0.5)",cs_pos_s,"(0.7, -0.5)",cs_pos_ns,"(0.7, 0.5)",cs_neg_ns,0,0,0,0,,,,,,,,,,,,,,,,,,,,,1,6,30,1,,,,,,,,,,,,,,,,,,,,,,,,,,,327,reward,,,,,,1170.7830228996463,1170.7830228996463,1170.7830228996463,1170.7830228996463,0,,,0,,,1,0.021528299897909164,0.14222739962860942,0,,,1171.435725599993,1171.435725599993,1171.435725599993,1171.435725599993,2,B,2024-04-02_14h06.41.016,attentional_competition_task,2022.2.4,143.9542799602459,
positions.xlsx,positions_test.xlsx,positions_test_new.xlsx,stimuli.xlsx,stimuli_new.xlsx,stimuli/Social2.png,stimuli/Social1.png,stimuli/Nonsocial2.png,stimuli/Nonsocial1.png,stimuli/Social4.png,stimuli/Social3.png,stimuli/Nonsocial4.png,stimuli/Nonsocial3.png,,,"(-0.7, -0.5)",cs_neg_ns,"(-0.7, 0.5)",cs_pos_s,"(0.7, -0.5)",cs_neg_s,"(0.7, 0.5)",cs_pos_ns,0,0,0,0,,,,,,,,,,,,,,,,,,,,,1,7,31,12,,,,,,,,,,,,,,,,,,,,,,,,,,,336,reward,,,,,,1179.164587599691,1179.164587599691,1179.164587599691,1179.164587599691,0,,,0,,,0,,,0,,,1180.1437291000038,1180.1437291000038,1180.1437291000038,1180.1437291000038,2,B,2024-04-02_14h06.41.016,attentional_competition_task,2022.2.4,143.9542799602459,
positions.xlsx,positions_test.xlsx,positions_test_new.xlsx,stimuli.xlsx,stimuli_new.xlsx,stimuli/Social2.png,stimuli/Social1.png,stimuli/Nonsocial2.png,stimuli/Nonsocial1.png,stimuli/Social4.png,stimuli/Social3.png,stimuli/Nonsocial4.png,stimuli/Nonsocial3.png,,,"(-0.7, -0.5)",cs_pos_ns,"(-0.7, 0.5)",cs_neg_s,"(0.7, -0.5)",cs_pos_s,"(0.7, 0.5)",cs_neg_ns,0,0,0,0,,,,,,,,,,,,,,,,,,,,,1,8,32,22,,,,,,,,,,,,,,,,,,,,,,,,,,,345,reward,,,,,,1188.2753429999575,1188.2753429999575,1188.2753429999575,1188.2753429999575,1,0.022512400057166815,0.503562499769032,0,,,0,,,0,,,1189.289170799777,1189.289170799777,1189.289170799777,1189.289170799777,2,B,2024-04-02_14h06.41.016,attentional_competition_task,2022.2.4,143.9542799602459,
positions.xlsx,positions_test.xlsx,positions_test_new.xlsx,stimuli.xlsx,stimuli_new.xlsx,stimuli/Social2.png,stimuli/Social1.png,stimuli/Nonsocial2.png,stimuli/Nonsocial1.png,stimuli/Social4.png,stimuli/Social3.png,stimuli/Nonsocial4.png,stimuli/Nonsocial3.png,,,"(-0.7, -0.5)",cs_pos_s,"(-0.7, 0.5)",cs_neg_ns,"(0.7, -0.5)",cs_neg_s,"(0.7, 0.5)",cs_pos_ns,0,0,0,0,,,,,,,,,,,,,,,,,,,,,1,9,33,8,,,,,,,,,,,,,,,,,,,,,,,,,,,354,reward,,,,,,1197.4068633997813,1197.4068633997813,1197.4068633997813,1197.4068633997813,0,,,0,,,0,,,1,0.029590600170195103,0.4755564001388848,1198.3791165999137,1198.3791165999137,1198.3791165999137,1198.3791165999137,2,B,2024-04-02_14h06.41.016,attentional_competition_task,2022.2.4,143.9542799602459,
positions.xlsx,positions_test.xlsx,positions_test_new.xlsx,stimuli.xlsx,stimuli_new.xlsx,stimuli/Social2.png,stimuli/Social1.png,stimuli/Nonsocial2.png,stimuli/Nonsocial1.png,stimuli/Social4.png,stimuli/Social3.png,stimuli/Nonsocial4.png,stimuli/Nonsocial3.png,,,"(-0.7, -0.5)",cs_pos_s,"(-0.7, 0.5)",cs_pos_ns,"(0.7, -0.5)",cs_neg_s,"(0.7, 0.5)",cs_neg_ns,0,0,0,0,,,,,,,,,,,,,,,,,,,,,1,10,34,10,,,,,,,,,,,,,,,,,,,,,,,,,,,363,reward,,,,,,1206.323237199802,1206.323237199802,1206.323237199802,1206.323237199802,0,,,1,0.030664199963212013,0.28691460005939007,0,,,0,,,1207.1148455999792,1207.1148455999792,1207.1148455999792,1207.1148455999792,2,B,2024-04-02_14h06.41.016,attentional_competition_task,2022.2.4,143.9542799602459,
positions.xlsx,positions_test.xlsx,positions_test_new.xlsx,stimuli.xlsx,stimuli_new.xlsx,stimuli/Social2.png,stimuli/Social1.png,stimuli/Nonsocial2.png,stimuli/Nonsocial1.png,stimuli/Social4.png,stimuli/Social3.png,stimuli/Nonsocial4.png,stimuli/Nonsocial3.png,,,"(-0.7, -0.5)",cs_neg_ns,"(-0.7, 0.5)",cs_pos_s,"(0.7, -0.5)",cs_pos_ns,"(0.7, 0.5)",cs_neg_s,0,0,0,0,,,,,,,,,,,,,,,,,,,,,1,11,35,13,,,,,,,,,,,,,,,,,,,,,,,,,,,372,reward,,,,,,1215.3853364996612,1215.3853364996612,1215.3853364996612,1215.3853364996612,0,,,0,,,1,0.028067999985069036,0.3356641000136733,0,,,1216.2255911999382,1216.2255911999382,1216.2255911999382,1216.2255911999382,2,B,2024-04-02_14h06.41.016,attentional_competition_task,2022.2.4,143.9542799602459,
positions.xlsx,positions_test.xlsx,positions_test_new.xlsx,stimuli.xlsx,stimuli_new.xlsx,stimuli/Social2.png,stimuli/Social1.png,stimuli/Nonsocial2.png,stimuli/Nonsocial1.png,stimuli/Social4.png,stimuli/Social3.png,stimuli/Nonsocial4.png,stimuli/Nonsocial3.png,,,"(-0.7, -0.5)",cs_pos_s,"(-0.7, 0.5)",cs_neg_s,"(0.7, -0.5)",cs_pos_ns,"(0.7, 0.5)",cs_neg_ns,0,0,0,0,,,,,,,,,,,,,,,,,,,,,1,12,36,7,,,,,,,,,,,,,,,,,,,,,,,,,,,381,reward,,,,,,1223.9335632999428,1223.9335632999428,1223.9335632999428,1223.9335632999428,0,,,0,,,1,0.030662599951028824,0.46144430013373494,0,,,1224.891908199992,1224.891908199992,1224.891908199992,1224.891908199992,2,B,2024-04-02_14h06.41.016,attentional_competition_task,2022.2.4,143.9542799602459,
positions.xlsx,positions_test.xlsx,positions_test_new.xlsx,stimuli.xlsx,stimuli_new.xlsx,stimuli/Social2.png,stimuli/Social1.png,stimuli/Nonsocial2.png,stimuli/Nonsocial1.png,stimuli/Social4.png,stimuli/Social3.png,stimuli/Nonsocial4.png,stimuli/Nonsocial3.png,,,"(-0.7, -0.5)",cs_neg_ns,"(-0.7, 0.5)",cs_neg_s,"(0.7, -0.5)",cs_pos_ns,"(0.7, 0.5)",cs_pos_s,0,0,0,0,,,,,,,,,,,,,,,,,,,,,1,13,37,15,,,,,,,,,,,,,,,,,,,,,,,,,,,390,reward,,,,,,1232.4471598998643,1232.4471598998643,1232.4471598998643,1232.4471598998643,0,,,0,,,0,,,1,0.0317795998416841,0.1212249998934567,1233.3846412999555,1233.3846412999555,1233.3846412999555,1233.3846412999555,2,B,2024-04-02_14h06.41.016,attentional_competition_task,2022.2.4,143.9542799602459,
positions.xlsx,positions_test.xlsx,positions_test_new.xlsx,stimuli.xlsx,stimuli_new.xlsx,stimuli/Social2.png,stimuli/Social1.png,stimuli/Nonsocial2.png,stimuli/Nonsocial1.png,stimuli/Social4.png,stimuli/Social3.png,stimuli/Nonsocial4.png,stimuli/Nonsocial3.png,,,"(-0.7, -0.5)",cs_pos_ns,"(-0.7, 0.5)",cs_pos_s,"(0.7, -0.5)",cs_neg_ns,"(0.7, 0.5)",cs_neg_s,0,0,0,0,,,,,,,,,,,,,,,,,,,,,1,14,38,18,,,,,,,,,,,,,,,,,,,,,,,,,,,399,reward,,,,,,1240.453751699999,1240.453751699999,1240.453751699999,1240.453751699999,0,,,0,,,0,,,0,,,1241.3704138998874,1241.3704138998874,1241.3704138998874,1241.3704138998874,2,B,2024-04-02_14h06.41.016,attentional_competition_task,2022.2.4,143.9542799602459,
positions.xlsx,positions_test.xlsx,positions_test_new.xlsx,stimuli.xlsx,stimuli_new.xlsx,stimuli/Social2.png,stimuli/Social1.png,stimuli/Nonsocial2.png,stimuli/Nonsocial1.png,stimuli/Social4.png,stimuli/Social3.png,stimuli/Nonsocial4.png,stimuli/Nonsocial3.png,,,"(-0.7, -0.5)",cs_pos_s,"(-0.7, 0.5)",cs_neg_s,"(0.7, -0.5)",cs_neg_ns,"(0.7, 0.5)",cs_pos_ns,0,0,0,0,,,,,,,,,,,,,,,,,,,,,1,15,39,6,,,,,,,,,,,,,,,,,,,,,,,,,,,408,reward,,,,,,1249.1479031997733,1249.1479031997733,1249.1479031997733,1249.1479031997733,1,0.023241599556058645,0.03833449957892299,0,,,0,,,0,,,1249.6895304997452,1249.6895304997452,1249.6895304997452,1249.6895304997452,2,B,2024-04-02_14h06.41.016,attentional_competition_task,2022.2.4,143.9542799602459,
positions.xlsx,positions_test.xlsx,positions_test_new.xlsx,stimuli.xlsx,stimuli_new.xlsx,stimuli/Social2.png,stimuli/Social1.png,stimuli/Nonsocial2.png,stimuli/Nonsocial1.png,stimuli/Social4.png,stimuli/Social3.png,stimuli/Nonsocial4.png,stimuli/Nonsocial3.png,,,"(-0.7, -0.5)",cs_neg_s,"(-0.7, 0.5)",cs_pos_s,"(0.7, -0.5)",cs_neg_ns,"(0.7, 0.5)",cs_pos_ns,0,0,0,0,,,,,,,,,,,,,,,,,,,,,1,16,40,0,,,,,,,,,,,,,,,,,,,,,,,,,,,417,reward,,,,,,1257.3975292998366,1257.3975292998366,1257.3975292998366,1257.3975292998366,0,,,0,,,0,,,1,0.024038400035351515,0.10800600005313754,1258.154488499742,1258.154488499742,1258.154488499742,1258.154488499742,2,B,2024-04-02_14h06.41.016,attentional_competition_task,2022.2.4,143.9542799602459,
positions.xlsx,positions_test.xlsx,positions_test_new.xlsx,stimuli.xlsx,stimuli_new.xlsx,stimuli/Social2.png,stimuli/Social1.png,stimuli/Nonsocial2.png,stimuli/Nonsocial1.png,stimuli/Social4.png,stimuli/Social3.png,stimuli/Nonsocial4.png,stimuli/Nonsocial3.png,,,"(-0.7, -0.5)",cs_pos_ns,"(-0.7, 0.5)",cs_neg_ns,"(0.7, -0.5)",cs_pos_s,"(0.7, 0.5)",cs_neg_s,0,0,0,0,,,,,,,,,,,,,,,,,,,,,1,17,41,20,,,,,,,,,,,,,,,,,,,,,,,,,,,426,reward,,,,,,1265.9319666996598,1265.9319666996598,1265.9319666996598,1265.9319666996598,0,,,0,,,1,0.03092689998447895,0.11433100001886487,0,,,1266.5430163997225,1266.5430163997225,1266.5430163997225,1266.5430163997225,2,B,2024-04-02_14h06.41.016,attentional_competition_task,2022.2.4,143.9542799602459,
positions.xlsx,positions_test.xlsx,positions_test_new.xlsx,stimuli.xlsx,stimuli_new.xlsx,stimuli/Social2.png,stimuli/Social1.png,stimuli/Nonsocial2.png,stimuli/Nonsocial1.png,stimuli/Social4.png,stimuli/Social3.png,stimuli/Nonsocial4.png,stimuli/Nonsocial3.png,,,"(-0.7, -0.5)",cs_neg_s,"(-0.7, 0.5)",cs_pos_ns,"(0.7, -0.5)",cs_neg_ns,"(0.7, 0.5)",cs_pos_s,0,0,0,0,,,,,,,,,,,,,,,,,,,,,1,18,42,5,,,,,,,,,,,,,,,,,,,,,,,,,,,435,reward,,,,,,1273.3344054999761,1273.3344054999761,1273.3344054999761,1273.3344054999761,0,,,1,0.031253600027412176,0.5091512002982199,0,,,0,,,1274.3413073997945,1274.3413073997945,1274.3413073997945,1274.3413073997945,2,B,2024-04-02_14h06.41.016,attentional_competition_task,2022.2.4,143.9542799602459,
positions.xlsx,positions_test.xlsx,positions_test_new.xlsx,stimuli.xlsx,stimuli_new.xlsx,stimuli/Social2.png,stimuli/Social1.png,stimuli/Nonsocial2.png,stimuli/Nonsocial1.png,stimuli/Social4.png,stimuli/Social3.png,stimuli/Nonsocial4.png,stimuli/Nonsocial3.png,,,"(-0.7, -0.5)",cs_pos_ns,"(-0.7, 0.5)",cs_neg_ns,"(0.7, -0.5)",cs_neg_s,"(0.7, 0.5)",cs_pos_s,0,0,0,0,,,,,,,,,,,,,,,,,,,,,1,19,43,21,,,,,,,,,,,,,,,,,,,,,,,,,,,441,reward,,,,,,1281.7299094996415,1281.7299094996415,1281.7299094996415,1281.7299094996415,1,0.027717800345271826,0.3983762003481388,0,,,0,,,1,0.47521489998325706,0.4818624001927674,1282.2090826998465,1282.2090826998465,1282.2090826998465,1282.2090826998465,2,B,2024-04-02_14h06.41.016,attentional_competition_task,2022.2.4,143.9542799602459,
positions.xlsx,positions_test.xlsx,positions_test_new.xlsx,stimuli.xlsx,stimuli_new.xlsx,stimuli/Social2.png,stimuli/Social1.png,stimuli/Nonsocial2.png,stimuli/Nonsocial1.png,stimuli/Social4.png,stimuli/Social3.png,stimuli/Nonsocial4.png,stimuli/Nonsocial3.png,,,"(-0.7, -0.5)",cs_neg_s,"(-0.7, 0.5)",cs_neg_ns,"(0.7, -0.5)",cs_pos_s,"(0.7, 0.5)",cs_pos_ns,0,0,0,0,,,,,,,,,,,,,,,,,,,,,1,20,44,2,,,,,,,,,,,,,,,,,,,,,,,,,,,450,reward,,,,,,1289.9587269998156,1289.9587269998156,1289.9587269998156,1289.9587269998156,0,,,0,,,0,,,1,0.02884909976273775,0.35561309987679124,1290.944841099903,1290.944841099903,1290.944841099903,1290.944841099903,2,B,2024-04-02_14h06.41.016,attentional_competition_task,2022.2.4,143.9542799602459,
positions.xlsx,positions_test.xlsx,positions_test_new.xlsx,stimuli.xlsx,stimuli_new.xlsx,stimuli/Social2.png,stimuli/Social1.png,stimuli/Nonsocial2.png,stimuli/Nonsocial1.png,stimuli/Social4.png,stimuli/Social3.png,stimuli/Nonsocial4.png,stimuli/Nonsocial3.png,,,"(-0.7, -0.5)",cs_neg_ns,"(-0.7, 0.5)",cs_pos_ns,"(0.7, -0.5)",cs_neg_s,"(0.7, 0.5)",cs_pos_s,0,0,0,0,,,,,,,,,,,,,,,,,,,,,1,21,45,17,,,,,,,,,,,,,,,,,,,,,,,,,,,459,reward,,,,,,1298.333466900047,1298.333466900047,1298.333466900047,1298.333466900047,0,,,1,0.029591200407594442,0.37744140019640326,0,,,0,,,1299.20833749976,1299.20833749976,1299.20833749976,1299.20833749976,2,B,2024-04-02_14h06.41.016,attentional_competition_task,2022.2.4,143.9542799602459,
positions.xlsx,positions_test.xlsx,positions_test_new.xlsx,stimuli.xlsx,stimuli_new.xlsx,stimuli/Social2.png,stimuli/Social1.png,stimuli/Nonsocial2.png,stimuli/Nonsocial1.png,stimuli/Social4.png,stimuli/Social3.png,stimuli/Nonsocial4.png,stimuli/Nonsocial3.png,,,"(-0.7, -0.5)",cs_pos_s,"(-0.7, 0.5)",cs_neg_ns,"(0.7, -0.5)",cs_pos_ns,"(0.7, 0.5)",cs_neg_s,0,0,0,0,,,,,,,,,,,,,,,,,,,,,1,22,46,9,,,,,,,,,,,,,,,,,,,,,,,,,,,468,reward,,,,,,1307.0761047997512,1307.0761047997512,1307.0761047997512,1307.0761047997512,0,,,0,,,1,0.02444540010765195,0.2958431001752615,0,,,1307.8816232997924,1307.8816232997924,1307.8816232997924,1307.8816232997924,2,B,2024-04-02_14h06.41.016,attentional_competition_task,2022.2.4,143.9542799602459,
positions.xlsx,positions_test.xlsx,positions_test_new.xlsx,stimuli.xlsx,stimuli_new.xlsx,stimuli/Social2.png,stimuli/Social1.png,stimuli/Nonsocial2.png,stimuli/Nonsocial1.png,stimuli/Social4.png,stimuli/Social3.png,stimuli/Nonsocial4.png,stimuli/Nonsocial3.png,,,"(-0.7, -0.5)",cs_pos_ns,"(-0.7, 0.5)",cs_neg_s,"(0.7, -0.5)",cs_neg_ns,"(0.7, 0.5)",cs_pos_s,0,0,0,0,,,,,,,,,,,,,,,,,,,,,1,23,47,23,,,,,,,,,,,,,,,,,,,,,,,,,,,477,reward,,,,,,1316.2910320996307,1316.2910320996307,1316.2910320996307,1316.2910320996307,0,,,0,,,0,,,1,0.024198600091040134,0.02420230023562908,1316.2910320996307,1316.2910320996307,1316.2910320996307,1316.2910320996307,2,B,2024-04-02_14h06.41.016,attentional_competition_task,2022.2.4,143.9542799602459,
positions.xlsx,positions_test.xlsx,positions_test_new.xlsx,stimuli.xlsx,stimuli_new.xlsx,stimuli/Social2.png,stimuli/Social1.png,stimuli/Nonsocial2.png,stimuli/Nonsocial1.png,stimuli/Social4.png,stimuli/Social3.png,stimuli/Nonsocial4.png,stimuli/Nonsocial3.png,,,"(-0.7, -0.5)",cs_neg_ns_new,"(-0.7, 0.5)",cs_pos_s,"(0.7, -0.5)",cs_pos_ns,"(0.7, 0.5)",cs_neg_s,0,0,0,0,,,,,,,,,,,,,,,,,,,,,,,,,,,,,0,0,0,26,0,0,0,0,,,,,,,,,,,,,,,480,reward,,,,,,1322.096347999759,1322.096347999759,1322.096347999759,1322.096347999759,0,,,1,0.578825999982655,0.5788294998928905,0,,,0,,,1322.6796842999756,1322.6796842999756,1322.6796842999756,1322.6796842999756,2,B,2024-04-02_14h06.41.016,attentional_competition_task,2022.2.4,143.9542799602459,
positions.xlsx,positions_test.xlsx,positions_test_new.xlsx,stimuli.xlsx,stimuli_new.xlsx,stimuli/Social2.png,stimuli/Social1.png,stimuli/Nonsocial2.png,stimuli/Nonsocial1.png,stimuli/Social4.png,stimuli/Social3.png,stimuli/Nonsocial4.png,stimuli/Nonsocial3.png,,,"(-0.7, -0.5)",cs_neg_ns_new,"(-0.7, 0.5)",cs_pos_s,"(0.7, -0.5)",cs_pos_ns,"(0.7, 0.5)",cs_neg_s,0,0,0,0,,,,,,,,,,,,,,,,,,,,,,,,,,,,,0,0,0,26,1,0,1,0,,,,,,,,,,,,,,,483,reward,,,,,,1323.2074160999618,1323.2074160999618,1323.2074160999618,1323.2074160999618,0,,,0,,,1,0.029828600119799376,0.02983260015025735,0,,,1323.2074160999618,1323.2074160999618,1323.2074160999618,1323.2074160999618,2,B,2024-04-02_14h06.41.016,attentional_competition_task,2022.2.4,143.9542799602459,
positions.xlsx,positions_test.xlsx,positions_test_new.xlsx,stimuli.xlsx,stimuli_new.xlsx,stimuli/Social2.png,stimuli/Social1.png,stimuli/Nonsocial2.png,stimuli/Nonsocial1.png,stimuli/Social4.png,stimuli/Social3.png,stimuli/Nonsocial4.png,stimuli/Nonsocial3.png,,,"(-0.7, -0.5)",cs_neg_ns_new,"(-0.7, 0.5)",cs_pos_s,"(0.7, -0.5)",cs_pos_ns,"(0.7, 0.5)",cs_neg_s,0,0,0,0,,,,,,,,,,,,,,,,,,,,,,,,,,,,,0,0,0,26,2,0,2,0,,,,,,,,,,,,,,,486,reward,,,,,,1323.7073888997547,1323.7073888997547,1323.7073888997547,1323.7073888997547,0,,,0,,,1,0.02393499994650483,0.3927333001047373,0,,,1324.610127999913,1324.610127999913,1324.610127999913,1324.610127999913,2,B,2024-04-02_14h06.41.016,attentional_competition_task,2022.2.4,143.9542799602459,
positions.xlsx,positions_test.xlsx,positions_test_new.xlsx,stimuli.xlsx,stimuli_new.xlsx,stimuli/Social2.png,stimuli/Social1.png,stimuli/Nonsocial2.png,stimuli/Nonsocial1.png,stimuli/Social4.png,stimuli/Social3.png,stimuli/Nonsocial4.png,stimuli/Nonsocial3.png,,,"(-0.7, -0.5)",cs_neg_ns_new,"(-0.7, 0.5)",cs_pos_s,"(0.7, -0.5)",cs_pos_ns,"(0.7, 0.5)",cs_neg_s,0,0,0,0,,,,,,,,,,,,,,,,,,,,,,,,,,,,,0,0,0,26,,,,,,,,,,,,,,,,,,,,,,,,,,,,,,,,,,,,,,,,,,,,,,2,B,2024-04-02_14h06.41.016,attentional_competition_task,2022.2.4,143.9542799602459,
positions.xlsx,positions_test.xlsx,positions_test_new.xlsx,stimuli.xlsx,stimuli_new.xlsx,stimuli/Social2.png,stimuli/Social1.png,stimuli/Nonsocial2.png,stimuli/Nonsocial1.png,stimuli/Social4.png,stimuli/Social3.png,stimuli/Nonsocial4.png,stimuli/Nonsocial3.png,,,"(-0.7, -0.5)",cs_pos_ns,"(-0.7, 0.5)",cs_neg_ns,"(0.7, -0.5)",cs_neg_s,"(0.7, 0.5)",cs_pos_s_new,0,0,0,0,,,,,,,,,,,,,,,,,,,,,,,,,,,,,0,1,1,36,0,0,0,0,,,,,,,,,,,,,,,489,reward,,,,,,1330.0890441997908,1330.0890441997908,1330.0890441997908,1330.0890441997908,1,0.6959703997708857,0.6959742000326514,0,,,0,,,0,,,1330.7904340997338,1330.7904340997338,1330.7904340997338,1330.7904340997338,2,B,2024-04-02_14h06.41.016,attentional_competition_task,2022.2.4,143.9542799602459,
positions.xlsx,positions_test.xlsx,positions_test_new.xlsx,stimuli.xlsx,stimuli_new.xlsx,stimuli/Social2.png,stimuli/Social1.png,stimuli/Nonsocial2.png,stimuli/Nonsocial1.png,stimuli/Social4.png,stimuli/Social3.png,stimuli/Nonsocial4.png,stimuli/Nonsocial3.png,,,"(-0.7, -0.5)",cs_pos_ns,"(-0.7, 0.5)",cs_neg_ns,"(0.7, -0.5)",cs_neg_s,"(0.7, 0.5)",cs_pos_s_new,0,0,0,0,,,,,,,,,,,,,,,,,,,,,,,,,,,,,0,1,1,36,1,0,1,0,,,,,,,,,,,,,,,492,reward,,,,,,1331.2904099998996,1331.2904099998996,1331.2904099998996,1331.2904099998996,1,0.027350899763405323,0.27341820020228624,0,,,0,,,1,0.3493201001547277,0.3493236000649631,1331.6376525997184,1331.6376525997184,1331.6376525997184,1331.6376525997184,2,B,2024-04-02_14h06.41.016,attentional_competition_task,2022.2.4,143.9542799602459,
positions.xlsx,positions_test.xlsx,positions_test_new.xlsx,stimuli.xlsx,stimuli_new.xlsx,stimuli/Social2.png,stimuli/Social1.png,stimuli/Nonsocial2.png,stimuli/Nonsocial1.png,stimuli/Social4.png,stimuli/Social3.png,stimuli/Nonsocial4.png,stimuli/Nonsocial3.png,,,"(-0.7, -0.5)",cs_pos_ns,"(-0.7, 0.5)",cs_neg_ns,"(0.7, -0.5)",cs_neg_s,"(0.7, 0.5)",cs_pos_s_new,0,0,0,0,,,,,,,,,,,,,,,,,,,,,,,,,,,,,0,1,1,36,,,,,,,,,,,,,,,,,,,,,,,,,,,,,,,,,,,,,,,,,,,,,,2,B,2024-04-02_14h06.41.016,attentional_competition_task,2022.2.4,143.9542799602459,
positions.xlsx,positions_test.xlsx,positions_test_new.xlsx,stimuli.xlsx,stimuli_new.xlsx,stimuli/Social2.png,stimuli/Social1.png,stimuli/Nonsocial2.png,stimuli/Nonsocial1.png,stimuli/Social4.png,stimuli/Social3.png,stimuli/Nonsocial4.png,stimuli/Nonsocial3.png,,,"(-0.7, -0.5)",cs_neg_s,"(-0.7, 0.5)",cs_neg_ns,"(0.7, -0.5)",cs_pos_ns_new,"(0.7, 0.5)",cs_pos_s,0,0,0,0,,,,,,,,,,,,,,,,,,,,,,,,,,,,,0,2,2,46,0,0,0,0,,,,,,,,,,,,,,,495,reward,,,,,,1338.8803280000575,1338.8803280000575,1338.8803280000575,1338.8803280000575,0,,,0,,,1,0.8779965997673571,0.8780004996806383,0,,,1339.762308599893,1339.762308599893,1339.762308599893,1339.762308599893,2,B,2024-04-02_14h06.41.016,attentional_competition_task,2022.2.4,143.9542799602459,
positions.xlsx,positions_test.xlsx,positions_test_new.xlsx,stimuli.xlsx,stimuli_new.xlsx,stimuli/Social2.png,stimuli/Social1.png,stimuli/Nonsocial2.png,stimuli/Nonsocial1.png,stimuli/Social4.png,stimuli/Social3.png,stimuli/Nonsocial4.png,stimuli/Nonsocial3.png,,,"(-0.7, -0.5)",cs_neg_s,"(-0.7, 0.5)",cs_neg_ns,"(0.7, -0.5)",cs_pos_ns_new,"(0.7, 0.5)",cs_pos_s,0,0,0,0,,,,,,,,,,,,,,,,,,,,,,,,,,,,,0,2,2,46,1,0,1,0,,,,,,,,,,,,,,,498,reward,,,,,,1340.2900395998731,1340.2900395998731,1340.2900395998731,1340.2900395998731,0,,,0,,,0,,,1,0.028760000132024288,0.028763500042259693,1340.2900395998731,1340.2900395998731,1340.2900395998731,1340.2900395998731,2,B,2024-04-02_14h06.41.016,attentional_competition_task,2022.2.4,143.9542799602459,
positions.xlsx,positions_test.xlsx,positions_test_new.xlsx,stimuli.xlsx,stimuli_new.xlsx,stimuli/Social2.png,stimuli/Social1.png,stimuli/Nonsocial2.png,stimuli/Nonsocial1.png,stimuli/Social4.png,stimuli/Social3.png,stimuli/Nonsocial4.png,stimuli/Nonsocial3.png,,,"(-0.7, -0.5)",cs_neg_s,"(-0.7, 0.5)",cs_neg_ns,"(0.7, -0.5)",cs_pos_ns_new,"(0.7, 0.5)",cs_pos_s,0,0,0,0,,,,,,,,,,,,,,,,,,,,,,,,,,,,,0,2,2,46,2,0,2,0,,,,,,,,,,,,,,,501,reward,,,,,,1340.7899992000312,1340.7899992000312,1340.7899992000312,1340.7899992000312,0,,,0,,,1,0.022854899987578392,0.0947226001881063,0,,,1341.394177999813,1341.394177999813,1341.394177999813,1341.394177999813,2,B,2024-04-02_14h06.41.016,attentional_competition_task,2022.2.4,143.9542799602459,
positions.xlsx,positions_test.xlsx,positions_test_new.xlsx,stimuli.xlsx,stimuli_new.xlsx,stimuli/Social2.png,stimuli/Social1.png,stimuli/Nonsocial2.png,stimuli/Nonsocial1.png,stimuli/Social4.png,stimuli/Social3.png,stimuli/Nonsocial4.png,stimuli/Nonsocial3.png,,,"(-0.7, -0.5)",cs_neg_s,"(-0.7, 0.5)",cs_neg_ns,"(0.7, -0.5)",cs_pos_ns_new,"(0.7, 0.5)",cs_pos_s,0,0,0,0,,,,,,,,,,,,,,,,,,,,,,,,,,,,,0,2,2,46,,,,,,,,,,,,,,,,,,,,,,,,,,,,,,,,,,,,,,,,,,,,,,2,B,2024-04-02_14h06.41.016,attentional_competition_task,2022.2.4,143.9542799602459,
positions.xlsx,positions_test.xlsx,positions_test_new.xlsx,stimuli.xlsx,stimuli_new.xlsx,stimuli/Social2.png,stimuli/Social1.png,stimuli/Nonsocial2.png,stimuli/Nonsocial1.png,stimuli/Social4.png,stimuli/Social3.png,stimuli/Nonsocial4.png,stimuli/Nonsocial3.png,,,"(-0.7, -0.5)",cs_pos_s,"(-0.7, 0.5)",cs_pos_ns,"(0.7, -0.5)",cs_neg_s_new,"(0.7, 0.5)",cs_neg_ns,0,0,0,0,,,,,,,,,,,,,,,,,,,,,,,,,,,,,0,3,3,17,0,0,0,0,,,,,,,,,,,,,,,504,reward,,,,,,1347.2411140999757,1347.2411140999757,1347.2411140999757,1347.2411140999757,1,1.1474993000738323,1.1475029001012444,0,,,0,,,0,,,1348.3939062999561,1348.3939062999561,1348.3939062999561,1348.3939062999561,2,B,2024-04-02_14h06.41.016,attentional_competition_task,2022.2.4,143.9542799602459,
positions.xlsx,positions_test.xlsx,positions_test_new.xlsx,stimuli.xlsx,stimuli_new.xlsx,stimuli/Social2.png,stimuli/Social1.png,stimuli/Nonsocial2.png,stimuli/Nonsocial1.png,stimuli/Social4.png,stimuli/Social3.png,stimuli/Nonsocial4.png,stimuli/Nonsocial3.png,,,"(-0.7, -0.5)",cs_pos_s,"(-0.7, 0.5)",cs_pos_ns,"(0.7, -0.5)",cs_neg_s_new,"(0.7, 0.5)",cs_neg_ns,0,0,0,0,,,,,,,,,,,,,,,,,,,,,,,,,,,,,0,3,3,17,1,0,1,0,,,,,,,,,,,,,,,507,reward,,,,,,1348.9216207000427,1348.9216207000427,1348.9216207000427,1348.9216207000427,0,,,1,0.023394399788230658,0.02339819958433509,0,,,0,,,1348.9216207000427,1348.9216207000427,1348.9216207000427,1348.9216207000427,2,B,2024-04-02_14h06.41.016,attentional_competition_task,2022.2.4,143.9542799602459,
positions.xlsx,positions_test.xlsx,positions_test_new.xlsx,stimuli.xlsx,stimuli_new.xlsx,stimuli/Social2.png,stimuli/Social1.png,stimuli/Nonsocial2.png,stimuli/Nonsocial1.png,stimuli/Social4.png,stimuli/Social3.png,stimuli/Nonsocial4.png,stimuli/Nonsocial3.png,,,"(-0.7, -0.5)",cs_pos_s,"(-0.7, 0.5)",cs_pos_ns,"(0.7, -0.5)",cs_neg_s_new,"(0.7, 0.5)",cs_neg_ns,0,0,0,0,,,,,,,,,,,,,,,,,,,,,,,,,,,,,0,3,3,17,,,,,,,,,,,,,,,,,,,,,,,,,,,,,,,,,,,,,,,,,,,,,,2,B,2024-04-02_14h06.41.016,attentional_competition_task,2022.2.4,143.9542799602459,
positions.xlsx,positions_test.xlsx,positions_test_new.xlsx,stimuli.xlsx,stimuli_new.xlsx,stimuli/Social2.png,stimuli/Social1.png,stimuli/Nonsocial2.png,stimuli/Nonsocial1.png,stimuli/Social4.png,stimuli/Social3.png,stimuli/Nonsocial4.png,stimuli/Nonsocial3.png,,,"(-0.7, -0.5)",cs_neg_s,"(-0.7, 0.5)",cs_pos_s,"(0.7, -0.5)",cs_pos_ns_new,"(0.7, 0.5)",cs_neg_ns,0,0,0,0,,,,,,,,,,,,,,,,,,,,,,,,,,,,,0,4,4,44,0,0,0,0,,,,,,,,,,,,,,,510,reward,,,,,,1356.0602192999795,1356.0602192999795,1356.0602192999795,1356.0602192999795,0,,,0,,,1,0.8370117000304163,0.8370159999467432,0,,,1356.9074527998455,1356.9074527998455,1356.9074527998455,1356.9074527998455,2,B,2024-04-02_14h06.41.016,attentional_competition_task,2022.2.4,143.9542799602459,
positions.xlsx,positions_test.xlsx,positions_test_new.xlsx,stimuli.xlsx,stimuli_new.xlsx,stimuli/Social2.png,stimuli/Social1.png,stimuli/Nonsocial2.png,stimuli/Nonsocial1.png,stimuli/Social4.png,stimuli/Social3.png,stimuli/Nonsocial4.png,stimuli/Nonsocial3.png,,,"(-0.7, -0.5)",cs_neg_s,"(-0.7, 0.5)",cs_pos_s,"(0.7, -0.5)",cs_pos_ns_new,"(0.7, 0.5)",cs_neg_ns,0,0,0,0,,,,,,,,,,,,,,,,,,,,,,,,,,,,,0,4,4,44,1,0,1,0,,,,,,,,,,,,,,,507,loss,,,,,,1357.435160599649,1357.435160599649,1357.435160599649,1357.435160599649,1,0.02682999987155199,0.026833999902009964,0,,,0,,,0,,,1357.435160599649,1357.435160599649,1357.435160599649,1357.435160599649,2,B,2024-04-02_14h06.41.016,attentional_competition_task,2022.2.4,143.9542799602459,
positions.xlsx,positions_test.xlsx,positions_test_new.xlsx,stimuli.xlsx,stimuli_new.xlsx,stimuli/Social2.png,stimuli/Social1.png,stimuli/Nonsocial2.png,stimuli/Nonsocial1.png,stimuli/Social4.png,stimuli/Social3.png,stimuli/Nonsocial4.png,stimuli/Nonsocial3.png,,,"(-0.7, -0.5)",cs_neg_s,"(-0.7, 0.5)",cs_pos_s,"(0.7, -0.5)",cs_pos_ns_new,"(0.7, 0.5)",cs_neg_ns,0,0,0,0,,,,,,,,,,,,,,,,,,,,,,,,,,,,,0,4,4,44,2,0,2,0,,,,,,,,,,,,,,,510,reward,,,,,,1357.9699118998833,1357.9699118998833,1357.9699118998833,1357.9699118998833,0,,,1,0.024626599624753,0.024630399886518717,0,,,0,,,1357.9699118998833,1357.9699118998833,1357.9699118998833,1357.9699118998833,2,B,2024-04-02_14h06.41.016,attentional_competition_task,2022.2.4,143.9542799602459,
positions.xlsx,positions_test.xlsx,positions_test_new.xlsx,stimuli.xlsx,stimuli_new.xlsx,stimuli/Social2.png,stimuli/Social1.png,stimuli/Nonsocial2.png,stimuli/Nonsocial1.png,stimuli/Social4.png,stimuli/Social3.png,stimuli/Nonsocial4.png,stimuli/Nonsocial3.png,,,"(-0.7, -0.5)",cs_neg_s,"(-0.7, 0.5)",cs_pos_s,"(0.7, -0.5)",cs_pos_ns_new,"(0.7, 0.5)",cs_neg_ns,0,0,0,0,,,,,,,,,,,,,,,,,,,,,,,,,,,,,0,4,4,44,,,,,,,,,,,,,,,,,,,,,,,,,,,,,,,,,,,,,,,,,,,,,,2,B,2024-04-02_14h06.41.016,attentional_competition_task,2022.2.4,143.9542799602459,
positions.xlsx,positions_test.xlsx,positions_test_new.xlsx,stimuli.xlsx,stimuli_new.xlsx,stimuli/Social2.png,stimuli/Social1.png,stimuli/Nonsocial2.png,stimuli/Nonsocial1.png,stimuli/Social4.png,stimuli/Social3.png,stimuli/Nonsocial4.png,stimuli/Nonsocial3.png,,,"(-0.7, -0.5)",cs_pos_ns,"(-0.7, 0.5)",cs_neg_s,"(0.7, -0.5)",cs_pos_s,"(0.7, 0.5)",cs_neg_ns,0,0,0,0,,,,,,,,,,,,,,,,,,,,,,,,,,,,,0,5,5,2,0,0,0,0,,,,,,,,,,,,,,,513,reward,,,,,,1363.782116400078,1363.782116400078,1363.782116400078,1363.782116400078,0,,,0,,,1,1.0933380001224577,1.0933420001529157,0,,,1364.8793221996166,1364.8793221996166,1364.8793221996166,1364.8793221996166,2,B,2024-04-02_14h06.41.016,attentional_competition_task,2022.2.4,143.9542799602459,
positions.xlsx,positions_test.xlsx,positions_test_new.xlsx,stimuli.xlsx,stimuli_new.xlsx,stimuli/Social2.png,stimuli/Social1.png,stimuli/Nonsocial2.png,stimuli/Nonsocial1.png,stimuli/Social4.png,stimuli/Social3.png,stimuli/Nonsocial4.png,stimuli/Nonsocial3.png,,,"(-0.7, -0.5)",cs_pos_ns,"(-0.7, 0.5)",cs_neg_s,"(0.7, -0.5)",cs_pos_s,"(0.7, 0.5)",cs_neg_ns,0,0,0,0,,,,,,,,,,,,,,,,,,,,,,,,,,,,,0,5,5,2,1,0,1,0,,,,,,,,,,,,,,,516,reward,,,,,,1365.3862847997807,1365.3862847997807,1365.3862847997807,1365.3862847997807,1,0.18917819997295737,0.1969480998814106,0,,,1,0.02956390008330345,0.12120789987966418,0,,,1365.5876541999169,1365.5876541999169,1365.5876541999169,1365.5876541999169,2,B,2024-04-02_14h06.41.016,attentional_competition_task,2022.2.4,143.9542799602459,
positions.xlsx,positions_test.xlsx,positions_test_new.xlsx,stimuli.xlsx,stimuli_new.xlsx,stimuli/Social2.png,stimuli/Social1.png,stimuli/Nonsocial2.png,stimuli/Nonsocial1.png,stimuli/Social4.png,stimuli/Social3.png,stimuli/Nonsocial4.png,stimuli/Nonsocial3.png,,,"(-0.7, -0.5)",cs_pos_ns,"(-0.7, 0.5)",cs_neg_s,"(0.7, -0.5)",cs_pos_s,"(0.7, 0.5)",cs_neg_ns,0,0,0,0,,,,,,,,,,,,,,,,,,,,,,,,,,,,,0,5,5,2,,,,,,,,,,,,,,,,,,,,,,,,,,,,,,,,,,,,,,,,,,,,,,2,B,2024-04-02_14h06.41.016,attentional_competition_task,2022.2.4,143.9542799602459,
positions.xlsx,positions_test.xlsx,positions_test_new.xlsx,stimuli.xlsx,stimuli_new.xlsx,stimuli/Social2.png,stimuli/Social1.png,stimuli/Nonsocial2.png,stimuli/Nonsocial1.png,stimuli/Social4.png,stimuli/Social3.png,stimuli/Nonsocial4.png,stimuli/Nonsocial3.png,,,"(-0.7, -0.5)",cs_pos_s,"(-0.7, 0.5)",cs_neg_ns,"(0.7, -0.5)",cs_pos_ns,"(0.7, 0.5)",cs_neg_s_new,0,0,0,0,,,,,,,,,,,,,,,,,,,,,,,,,,,,,0,6,6,9,0,0,0,0,,,,,,,,,,,,,,,513,loss,,,,,,1372.7956862999126,1372.7956862999126,1372.7956862999126,1372.7956862999126,0,,,1,0.7037519998848438,0.711109499912709,0,,,0,,,1373.5110152997077,1373.5110152997077,1373.5110152997077,1373.5110152997077,2,B,2024-04-02_14h06.41.016,attentional_competition_task,2022.2.4,143.9542799602459,
positions.xlsx,positions_test.xlsx,positions_test_new.xlsx,stimuli.xlsx,stimuli_new.xlsx,stimuli/Social2.png,stimuli/Social1.png,stimuli/Nonsocial2.png,stimuli/Nonsocial1.png,stimuli/Social4.png,stimuli/Social3.png,stimuli/Nonsocial4.png,stimuli/Nonsocial3.png,,,"(-0.7, -0.5)",cs_pos_s,"(-0.7, 0.5)",cs_neg_ns,"(0.7, -0.5)",cs_pos_ns,"(0.7, 0.5)",cs_neg_s_new,0,0,0,0,,,,,,,,,,,,,,,,,,,,,,,,,,,,,0,6,6,9,1,0,1,0,,,,,,,,,,,,,,,516,reward,,,,,,1374.038689599838,1374.038689599838,1374.038689599838,1374.038689599838,1,0.029825500212609768,0.029829700011759996,0,,,0,,,0,,,1374.038689599838,1374.038689599838,1374.038689599838,1374.038689599838,2,B,2024-04-02_14h06.41.016,attentional_competition_task,2022.2.4,143.9542799602459,
positions.xlsx,positions_test.xlsx,positions_test_new.xlsx,stimuli.xlsx,stimuli_new.xlsx,stimuli/Social2.png,stimuli/Social1.png,stimuli/Nonsocial2.png,stimuli/Nonsocial1.png,stimuli/Social4.png,stimuli/Social3.png,stimuli/Nonsocial4.png,stimuli/Nonsocial3.png,,,"(-0.7, -0.5)",cs_pos_s,"(-0.7, 0.5)",cs_neg_ns,"(0.7, -0.5)",cs_pos_ns,"(0.7, 0.5)",cs_neg_s_new,0,0,0,0,,,,,,,,,,,,,,,,,,,,,,,,,,,,,0,6,6,9,2,0,2,0,,,,,,,,,,,,,,,519,reward,,,,,,1374.5803429996595,1374.5803429996595,1374.5803429996595,1374.5803429996595,0,,,0,,,1,0.029598399996757507,0.02960219979286194,0,,,1374.5803429996595,1374.5803429996595,1374.5803429996595,1374.5803429996595,2,B,2024-04-02_14h06.41.016,attentional_competition_task,2022.2.4,143.9542799602459,
positions.xlsx,positions_test.xlsx,positions_test_new.xlsx,stimuli.xlsx,stimuli_new.xlsx,stimuli/Social2.png,stimuli/Social1.png,stimuli/Nonsocial2.png,stimuli/Nonsocial1.png,stimuli/Social4.png,stimuli/Social3.png,stimuli/Nonsocial4.png,stimuli/Nonsocial3.png,,,"(-0.7, -0.5)",cs_pos_s,"(-0.7, 0.5)",cs_neg_ns,"(0.7, -0.5)",cs_pos_ns,"(0.7, 0.5)",cs_neg_s_new,0,0,0,0,,,,,,,,,,,,,,,,,,,,,,,,,,,,,0,6,6,9,,,,,,,,,,,,,,,,,,,,,,,,,,,,,,,,,,,,,,,,,,,,,,2,B,2024-04-02_14h06.41.016,attentional_competition_task,2022.2.4,143.9542799602459,
positions.xlsx,positions_test.xlsx,positions_test_new.xlsx,stimuli.xlsx,stimuli_new.xlsx,stimuli/Social2.png,stimuli/Social1.png,stimuli/Nonsocial2.png,stimuli/Nonsocial1.png,stimuli/Social4.png,stimuli/Social3.png,stimuli/Nonsocial4.png,stimuli/Nonsocial3.png,,,"(-0.7, -0.5)",cs_neg_s,"(-0.7, 0.5)",cs_pos_ns_new,"(0.7, -0.5)",cs_pos_s,"(0.7, 0.5)",cs_neg_ns,0,0,0,0,,,,,,,,,,,,,,,,,,,,,,,,,,,,,0,7,7,42,0,0,0,0,,,,,,,,,,,,,,,522,reward,,,,,,1380.934287799988,1380.934287799988,1380.934287799988,1380.934287799988,0,,,1,1.4674418000504375,1.474311700090766,0,,,0,,,1382.40646139998,1382.40646139998,1382.40646139998,1382.40646139998,2,B,2024-04-02_14h06.41.016,attentional_competition_task,2022.2.4,143.9542799602459,
positions.xlsx,positions_test.xlsx,positions_test_new.xlsx,stimuli.xlsx,stimuli_new.xlsx,stimuli/Social2.png,stimuli/Social1.png,stimuli/Nonsocial2.png,stimuli/Nonsocial1.png,stimuli/Social4.png,stimuli/Social3.png,stimuli/Nonsocial4.png,stimuli/Nonsocial3.png,,,"(-0.7, -0.5)",cs_neg_s,"(-0.7, 0.5)",cs_pos_ns_new,"(0.7, -0.5)",cs_pos_s,"(0.7, 0.5)",cs_neg_ns,0,0,0,0,,,,,,,,,,,,,,,,,,,,,,,,,,,,,0,7,7,42,1,0,1,0,,,,,,,,,,,,,,,525,reward,,,,,,1383.448042999953,1383.448042999953,1383.448042999953,1383.448042999953,0,,,1,0.028189399745315313,0.028193300124257803,0,,,0,,,1383.448042999953,1383.448042999953,1383.448042999953,1383.448042999953,2,B,2024-04-02_14h06.41.016,attentional_competition_task,2022.2.4,143.9542799602459,
positions.xlsx,positions_test.xlsx,positions_test_new.xlsx,stimuli.xlsx,stimuli_new.xlsx,stimuli/Social2.png,stimuli/Social1.png,stimuli/Nonsocial2.png,stimuli/Nonsocial1.png,stimuli/Social4.png,stimuli/Social3.png,stimuli/Nonsocial4.png,stimuli/Nonsocial3.png,,,"(-0.7, -0.5)",cs_neg_s,"(-0.7, 0.5)",cs_pos_ns_new,"(0.7, -0.5)",cs_pos_s,"(0.7, 0.5)",cs_neg_ns,0,0,0,0,,,,,,,,,,,,,,,,,,,,,,,,,,,,,0,7,7,42,,,,,,,,,,,,,,,,,,,,,,,,,,,,,,,,,,,,,,,,,,,,,,2,B,2024-04-02_14h06.41.016,attentional_competition_task,2022.2.4,143.9542799602459,
positions.xlsx,positions_test.xlsx,positions_test_new.xlsx,stimuli.xlsx,stimuli_new.xlsx,stimuli/Social2.png,stimuli/Social1.png,stimuli/Nonsocial2.png,stimuli/Nonsocial1.png,stimuli/Social4.png,stimuli/Social3.png,stimuli/Nonsocial4.png,stimuli/Nonsocial3.png,,,"(-0.7, -0.5)",cs_pos_ns,"(-0.7, 0.5)",cs_neg_s,"(0.7, -0.5)",cs_pos_s,"(0.7, 0.5)",cs_neg_ns_new,0,0,0,0,,,,,,,,,,,,,,,,,,,,,,,,,,,,,0,8,8,25,0,0,0,0,,,,,,,,,,,,,,,528,reward,,,,,,1389.3019626997411,1389.3019626997411,1389.3019626997411,1389.3019626997411,1,1.1836390998214483,1.1836430002003908,0,,,0,,,0,,,1390.4895226000808,1390.4895226000808,1390.4895226000808,1390.4895226000808,2,B,2024-04-02_14h06.41.016,attentional_competition_task,2022.2.4,143.9542799602459,
positions.xlsx,positions_test.xlsx,positions_test_new.xlsx,stimuli.xlsx,stimuli_new.xlsx,stimuli/Social2.png,stimuli/Social1.png,stimuli/Nonsocial2.png,stimuli/Nonsocial1.png,stimuli/Social4.png,stimuli/Social3.png,stimuli/Nonsocial4.png,stimuli/Nonsocial3.png,,,"(-0.7, -0.5)",cs_pos_ns,"(-0.7, 0.5)",cs_neg_s,"(0.7, -0.5)",cs_pos_s,"(0.7, 0.5)",cs_neg_ns_new,0,0,0,0,,,,,,,,,,,,,,,,,,,,,,,,,,,,,0,8,8,25,1,0,1,0,,,,,,,,,,,,,,,531,reward,,,,,,1391.017199799884,1391.017199799884,1391.017199799884,1391.017199799884,0,,,0,,,1,0.027503199875354767,0.027507000137120485,0,,,1391.017199799884,1391.017199799884,1391.017199799884,1391.017199799884,2,B,2024-04-02_14h06.41.016,attentional_competition_task,2022.2.4,143.9542799602459,
positions.xlsx,positions_test.xlsx,positions_test_new.xlsx,stimuli.xlsx,stimuli_new.xlsx,stimuli/Social2.png,stimuli/Social1.png,stimuli/Nonsocial2.png,stimuli/Nonsocial1.png,stimuli/Social4.png,stimuli/Social3.png,stimuli/Nonsocial4.png,stimuli/Nonsocial3.png,,,"(-0.7, -0.5)",cs_pos_ns,"(-0.7, 0.5)",cs_neg_s,"(0.7, -0.5)",cs_pos_s,"(0.7, 0.5)",cs_neg_ns_new,0,0,0,0,,,,,,,,,,,,,,,,,,,,,,,,,,,,,0,8,8,25,,,,,,,,,,,,,,,,,,,,,,,,,,,,,,,,,,,,,,,,,,,,,,2,B,2024-04-02_14h06.41.016,attentional_competition_task,2022.2.4,143.9542799602459,
positions.xlsx,positions_test.xlsx,positions_test_new.xlsx,stimuli.xlsx,stimuli_new.xlsx,stimuli/Social2.png,stimuli/Social1.png,stimuli/Nonsocial2.png,stimuli/Nonsocial1.png,stimuli/Social4.png,stimuli/Social3.png,stimuli/Nonsocial4.png,stimuli/Nonsocial3.png,,,"(-0.7, -0.5)",cs_neg_ns,"(-0.7, 0.5)",cs_neg_s,"(0.7, -0.5)",cs_pos_ns,"(0.7, 0.5)",cs_pos_s,0,0,0,0,,,,,,,,,,,,,,,,,,,,,,,,,,,,,0,9,9,4,0,0,0,0,,,,,,,,,,,,,,,534,reward,,,,,,1397.9127450999804,1397.9127450999804,1397.9127450999804,1397.9127450999804,0,,,0,,,1,1.1686255000531673,1.1686448999680579,0,,,1399.0863391999155,1399.0863391999155,1399.0863391999155,1399.0863391999155,2,B,2024-04-02_14h06.41.016,attentional_competition_task,2022.2.4,143.9542799602459,
positions.xlsx,positions_test.xlsx,positions_test_new.xlsx,stimuli.xlsx,stimuli_new.xlsx,stimuli/Social2.png,stimuli/Social1.png,stimuli/Nonsocial2.png,stimuli/Nonsocial1.png,stimuli/Social4.png,stimuli/Social3.png,stimuli/Nonsocial4.png,stimuli/Nonsocial3.png,,,"(-0.7, -0.5)",cs_neg_ns,"(-0.7, 0.5)",cs_neg_s,"(0.7, -0.5)",cs_pos_ns,"(0.7, 0.5)",cs_pos_s,0,0,0,0,,,,,,,,,,,,,,,,,,,,,,,,,,,,,0,9,9,4,1,0,1,0,,,,,,,,,,,,,,,537,reward,,,,,,1399.614092499949,1399.614092499949,1399.614092499949,1399.614092499949,0,,,0,,,0,,,1,0.028280300088226795,0.028284200001507998,1399.614092499949,1399.614092499949,1399.614092499949,1399.614092499949,2,B,2024-04-02_14h06.41.016,attentional_competition_task,2022.2.4,143.9542799602459,
