posFile,posFileTest,posFileTestNew,stimFile,stimFileNew,cs_neg_s,cs_pos_s,cs_neg_ns,cs_pos_ns,cs_neg_s_new,cs_pos_s_new,cs_neg_ns_new,cs_pos_ns_new,stim,position,position1,stim1,position2,stim2,position3,stim3,position4,stim4,blocks.thisRepN,blocks.thisTrialN,blocks.thisN,blocks.thisIndex,ratingtrials1.thisRepN,ratingtrials1.thisTrialN,ratingtrials1.thisN,ratingtrials1.thisIndex,search_task_trials.thisRepN,search_task_trials.thisTrialN,search_task_trials.thisN,search_task_trials.thisIndex,learning_trials.thisRepN,learning_trials.thisTrialN,learning_trials.thisN,learning_trials.thisIndex,trials.thisRepN,trials.thisTrialN,trials.thisN,trials.thisIndex,ratingtrials2.thisRepN,ratingtrials2.thisTrialN,ratingtrials2.thisN,ratingtrials2.thisIndex,testtrials.thisRepN,testtrials.thisTrialN,testtrials.thisN,testtrials.thisIndex,loop_test.thisRepN,loop_test.thisTrialN,loop_test.thisN,loop_test.thisIndex,testtrials_novelty.thisRepN,testtrials_novelty.thisTrialN,testtrials_novelty.thisN,testtrials_novelty.thisIndex,loop_test_novelty.thisRepN,loop_test_novelty.thisTrialN,loop_test_novelty.thisN,loop_test_novelty.thisIndex,ratingtrials3.thisRepN,ratingtrials3.thisTrialN,ratingtrials3.thisN,ratingtrials3.thisIndex,textStart.started,textStartExp.started,imageRating.started,sliderStim.response,sliderStim.rt,textStartSearch.started,target_positions,distractor_positions,textStartTask.started,image.started,score,outcome,roi.numLooks,roi.timesOn,roi.timesOff,imageFeedback.started,textTestInstr.started,test_image1.started,test_image2.started,test_image3.started,test_image4.started,test_roi1.numLooks,test_roi1.timesOn,test_roi1.timesOff,test_roi2.numLooks,test_roi2.timesOn,test_roi2.timesOff,test_roi3.numLooks,test_roi3.timesOn,test_roi3.timesOff,test_roi4.numLooks,test_roi4.timesOn,test_roi4.timesOff,test_image_feedback1.started,test_image_feedback2.started,test_iamge_feedback3.started,test_iamge_feedback4.started,participant,group,date,expName,psychopyVersion,frameRate,
positions.xlsx,positions_test.xlsx,positions_test_new.xlsx,stimuli.xlsx,stimuli_new.xlsx,stimuli/Social2.png,stimuli/Social1.png,stimuli/Nonsocial2.png,stimuli/Nonsocial1.png,stimuli/Social4.png,stimuli/Social3.png,stimuli/Nonsocial4.png,stimuli/Nonsocial3.png,cs_neg_ns,,,,,,,,,,0,0,0,0,0,0,0,1,,,,,,,,,,,,,,,,,,,,,,,,,,,,,,,,,,,,,13.402582900132984,101.42972260015085,119.5914122001268,8.0,14.655574299860746,,,,,,,,,,,,,,,,,,,,,,,,,,,,,,,,,12,B,2024-04-22_10h32.03.467,attentional_competition_task,2022.2.4,144.06917648733958,
positions.xlsx,positions_test.xlsx,positions_test_new.xlsx,stimuli.xlsx,stimuli_new.xlsx,stimuli/Social2.png,stimuli/Social1.png,stimuli/Nonsocial2.png,stimuli/Nonsocial1.png,stimuli/Social4.png,stimuli/Social3.png,stimuli/Nonsocial4.png,stimuli/Nonsocial3.png,cs_pos_s,,,,,,,,,,0,0,0,0,0,1,1,2,,,,,,,,,,,,,,,,,,,,,,,,,,,,,,,,,,,,,,,135.4866288001649,7.0,7.861239999998361,,,,,,,,,,,,,,,,,,,,,,,,,,,,,,,,,12,B,2024-04-22_10h32.03.467,attentional_competition_task,2022.2.4,144.06917648733958,
positions.xlsx,positions_test.xlsx,positions_test_new.xlsx,stimuli.xlsx,stimuli_new.xlsx,stimuli/Social2.png,stimuli/Social1.png,stimuli/Nonsocial2.png,stimuli/Nonsocial1.png,stimuli/Social4.png,stimuli/Social3.png,stimuli/Nonsocial4.png,stimuli/Nonsocial3.png,cs_pos_ns,,,,,,,,,,0,0,0,0,0,2,2,3,,,,,,,,,,,,,,,,,,,,,,,,,,,,,,,,,,,,,,,143.96541920024902,7.0,2.0684351003728807,,,,,,,,,,,,,,,,,,,,,,,,,,,,,,,,,12,B,2024-04-22_10h32.03.467,attentional_competition_task,2022.2.4,144.06917648733958,
positions.xlsx,positions_test.xlsx,positions_test_new.xlsx,stimuli.xlsx,stimuli_new.xlsx,stimuli/Social2.png,stimuli/Social1.png,stimuli/Nonsocial2.png,stimuli/Nonsocial1.png,stimuli/Social4.png,stimuli/Social3.png,stimuli/Nonsocial4.png,stimuli/Nonsocial3.png,cs_neg_s,,,,,,,,,,0,0,0,0,0,3,3,0,,,,,,,,,,,,,,,,,,,,,,,,,,,,,,,,,,,,,,,146.87508010026067,6.0,2.3515264000743628,,,,,,,,,,,,,,,,,,,,,,,,,,,,,,,,,12,B,2024-04-22_10h32.03.467,attentional_competition_task,2022.2.4,144.06917648733958,
positions.xlsx,positions_test.xlsx,positions_test_new.xlsx,stimuli.xlsx,stimuli_new.xlsx,stimuli/Social2.png,stimuli/Social1.png,stimuli/Nonsocial2.png,stimuli/Nonsocial1.png,stimuli/Social4.png,stimuli/Social3.png,stimuli/Nonsocial4.png,stimuli/Nonsocial3.png,,,,,,,,,,,0,0,0,0,,,,,0,0,0,0,,,,,,,,,,,,,,,,,,,,,,,,,,,,,,,,,,,,,,149.67350270040333,"[[0.0, 0.19999999999999996], [0.6749999999999999, -0.30000000000000004], [0.45000000000000007, -0.30000000000000004], [0.22499999999999998, 0.19999999999999996], [-0.22499999999999998, -0.30000000000000004], [0.22499999999999998, 0.7], [0.0, -0.30000000000000004], [-0.45, 0.19999999999999996], [0.0, 0.7], [-0.22499999999999998, 0.7], [-0.675, 0.19999999999999996], [0.22499999999999998, -0.8], [0.9, 0.19999999999999996], [0.6749999999999999, 0.19999999999999996], [0.45000000000000007, 0.7]]","[[0.9, -0.30000000000000004], [-0.9, 0.19999999999999996], [0.6749999999999999, 0.7], [0.45000000000000007, 0.19999999999999996], [-0.675, -0.8], [0.9, -0.8], [0.0, -0.8], [-0.9, -0.30000000000000004], [-0.45, 0.7], [0.22499999999999998, -0.30000000000000004], [-0.45, -0.8], [-0.22499999999999998, -0.8], [-0.9, -0.8], [-0.45, -0.30000000000000004], [0.6749999999999999, -0.8]]",,,,,,,,,,,,,,,,,,,,,,,,,,,,,,12,B,2024-04-22_10h32.03.467,attentional_competition_task,2022.2.4,144.06917648733958,
positions.xlsx,positions_test.xlsx,positions_test_new.xlsx,stimuli.xlsx,stimuli_new.xlsx,stimuli/Social2.png,stimuli/Social1.png,stimuli/Nonsocial2.png,stimuli/Nonsocial1.png,stimuli/Social4.png,stimuli/Social3.png,stimuli/Nonsocial4.png,stimuli/Nonsocial3.png,,,,,,,,,,,0,0,0,0,,,,,1,0,1,0,,,,,,,,,,,,,,,,,,,,,,,,,,,,,,,,,,,,,,,"[[-0.45, 0.7], [-0.22499999999999998, 0.19999999999999996], [0.45000000000000007, 0.19999999999999996], [-0.9, 0.7], [-0.22499999999999998, -0.30000000000000004], [0.0, -0.8], [0.0, 0.7], [0.9, -0.8], [0.9, 0.19999999999999996], [-0.45, -0.8], [0.0, 0.19999999999999996], [0.22499999999999998, -0.8], [-0.45, 0.19999999999999996], [-0.675, -0.8], [0.0, -0.30000000000000004]]","[[0.22499999999999998, 0.19999999999999996], [0.45000000000000007, 0.7], [0.6749999999999999, 0.19999999999999996], [0.22499999999999998, -0.30000000000000004], [-0.22499999999999998, -0.8], [-0.9, -0.8], [0.6749999999999999, -0.30000000000000004], [-0.22499999999999998, 0.7], [-0.675, 0.7], [-0.9, 0.19999999999999996], [-0.9, -0.30000000000000004], [0.6749999999999999, 0.7], [-0.45, -0.30000000000000004], [0.45000000000000007, -0.8], [0.9, -0.30000000000000004]]",,,,,,,,,,,,,,,,,,,,,,,,,,,,,,12,B,2024-04-22_10h32.03.467,attentional_competition_task,2022.2.4,144.06917648733958,
positions.xlsx,positions_test.xlsx,positions_test_new.xlsx,stimuli.xlsx,stimuli_new.xlsx,stimuli/Social2.png,stimuli/Social1.png,stimuli/Nonsocial2.png,stimuli/Nonsocial1.png,stimuli/Social4.png,stimuli/Social3.png,stimuli/Nonsocial4.png,stimuli/Nonsocial3.png,cs_pos_ns,"(0.7, 0.5)",,,,,,,,,0,0,0,0,,,,,,,,,0,0,0,14,,,,,,,,,,,,,,,,,,,,,,,,,,,,,,,,,,,,,233.6423249002546,252.8289954001084,3,reward,1,0.3054784000851214,0.3054825998842716,253.15540880011395,,,,,,,,,,,,,,,,,,,,,,12,B,2024-04-22_10h32.03.467,attentional_competition_task,2022.2.4,144.06917648733958,
positions.xlsx,positions_test.xlsx,positions_test_new.xlsx,stimuli.xlsx,stimuli_new.xlsx,stimuli/Social2.png,stimuli/Social1.png,stimuli/Nonsocial2.png,stimuli/Nonsocial1.png,stimuli/Social4.png,stimuli/Social3.png,stimuli/Nonsocial4.png,stimuli/Nonsocial3.png,cs_neg_ns,"(-0.7, 0.5)",,,,,,,,,0,0,0,0,,,,,,,,,0,1,1,8,,,,,,,,,,,,,,,,,,,,,,,,,,,,,,,,,,,,,,261.0231110001914,0,loss,1,0.437987900339067,0.43799230037257075,261.48145920038223,,,,,,,,,,,,,,,,,,,,,,12,B,2024-04-22_10h32.03.467,attentional_competition_task,2022.2.4,144.06917648733958,
positions.xlsx,positions_test.xlsx,positions_test_new.xlsx,stimuli.xlsx,stimuli_new.xlsx,stimuli/Social2.png,stimuli/Social1.png,stimuli/Nonsocial2.png,stimuli/Nonsocial1.png,stimuli/Social4.png,stimuli/Social3.png,stimuli/Nonsocial4.png,stimuli/Nonsocial3.png,cs_pos_ns,"(0.7, -0.5)",,,,,,,,,0,0,0,0,,,,,,,,,0,2,2,15,,,,,,,,,,,,,,,,,,,,,,,,,,,,,,,,,,,,,,269.0922290002927,3,reward,1,0.4586653998121619,0.45866949995979667,269.5575090004131,,,,,,,,,,,,,,,,,,,,,,12,B,2024-04-22_10h32.03.467,attentional_competition_task,2022.2.4,144.06917648733958,
positions.xlsx,positions_test.xlsx,positions_test_new.xlsx,stimuli.xlsx,stimuli_new.xlsx,stimuli/Social2.png,stimuli/Social1.png,stimuli/Nonsocial2.png,stimuli/Nonsocial1.png,stimuli/Social4.png,stimuli/Social3.png,stimuli/Nonsocial4.png,stimuli/Nonsocial3.png,cs_neg_s,"(0.7, -0.5)",,,,,,,,,0,0,0,0,,,,,,,,,0,3,3,3,,,,,,,,,,,,,,,,,,,,,,,,,,,,,,,,,,,,,,276.9946905001998,0,loss,1,0.5628440002910793,0.562848400324583,277.56415870040655,,,,,,,,,,,,,,,,,,,,,,12,B,2024-04-22_10h32.03.467,attentional_competition_task,2022.2.4,144.06917648733958,
positions.xlsx,positions_test.xlsx,positions_test_new.xlsx,stimuli.xlsx,stimuli_new.xlsx,stimuli/Social2.png,stimuli/Social1.png,stimuli/Nonsocial2.png,stimuli/Nonsocial1.png,stimuli/Social4.png,stimuli/Social3.png,stimuli/Nonsocial4.png,stimuli/Nonsocial3.png,cs_pos_s,"(0.7, -0.5)",,,,,,,,,0,0,0,0,,,,,,,,,0,4,4,7,,,,,,,,,,,,,,,,,,,,,,,,,,,,,,,,,,,,,,285.62630420038477,3,reward,1,1.0070171998813748,1.0070219999179244,286.64017150038853,,,,,,,,,,,,,,,,,,,,,,12,B,2024-04-22_10h32.03.467,attentional_competition_task,2022.2.4,144.06917648733958,
positions.xlsx,positions_test.xlsx,positions_test_new.xlsx,stimuli.xlsx,stimuli_new.xlsx,stimuli/Social2.png,stimuli/Social1.png,stimuli/Nonsocial2.png,stimuli/Nonsocial1.png,stimuli/Social4.png,stimuli/Social3.png,stimuli/Nonsocial4.png,stimuli/Nonsocial3.png,cs_neg_s,"(-0.7, -0.5)",,,,,,,,,0,0,0,0,,,,,,,,,0,5,5,1,,,,,,,,,,,,,,,,,,,,,,,,,,,,,,,,,,,,,,294.16065370012075,0,loss,1,0.4722906998358667,0.4722949997521937,294.6398124000989,,,,,,,,,,,,,,,,,,,,,,12,B,2024-04-22_10h32.03.467,attentional_competition_task,2022.2.4,144.06917648733958,
positions.xlsx,positions_test.xlsx,positions_test_new.xlsx,stimuli.xlsx,stimuli_new.xlsx,stimuli/Social2.png,stimuli/Social1.png,stimuli/Nonsocial2.png,stimuli/Nonsocial1.png,stimuli/Social4.png,stimuli/Social3.png,stimuli/Nonsocial4.png,stimuli/Nonsocial3.png,cs_neg_ns,"(0.7, 0.5)",,,,,,,,,0,0,0,0,,,,,,,,,0,6,6,10,,,,,,,,,,,,,,,,,,,,,,,,,,,,,,,,,,,,,,302.65339570026845,0,none,0,,,305.6741035003215,,,,,,,,,,,,,,,,,,,,,,12,B,2024-04-22_10h32.03.467,attentional_competition_task,2022.2.4,144.06917648733958,
positions.xlsx,positions_test.xlsx,positions_test_new.xlsx,stimuli.xlsx,stimuli_new.xlsx,stimuli/Social2.png,stimuli/Social1.png,stimuli/Nonsocial2.png,stimuli/Nonsocial1.png,stimuli/Social4.png,stimuli/Social3.png,stimuli/Nonsocial4.png,stimuli/Nonsocial3.png,cs_neg_s,"(0.7, 0.5)",,,,,,,,,0,0,0,0,,,,,,,,,0,7,7,2,,,,,,,,,,,,,,,,,,,,,,,,,,,,,,,,,,,,,,313.1598741002381,-3,loss,1,1.5006899000145495,1.5077415998093784,314.67381540033966,,,,,,,,,,,,,,,,,,,,,,12,B,2024-04-22_10h32.03.467,attentional_competition_task,2022.2.4,144.06917648733958,
positions.xlsx,positions_test.xlsx,positions_test_new.xlsx,stimuli.xlsx,stimuli_new.xlsx,stimuli/Social2.png,stimuli/Social1.png,stimuli/Nonsocial2.png,stimuli/Nonsocial1.png,stimuli/Social4.png,stimuli/Social3.png,stimuli/Nonsocial4.png,stimuli/Nonsocial3.png,cs_pos_ns,"(-0.7, 0.5)",,,,,,,,,0,0,0,0,,,,,,,,,0,8,8,12,,,,,,,,,,,,,,,,,,,,,,,,,,,,,,,,,,,,,,322.1317426003516,0,reward,1,0.6390250003896654,0.6390293999575078,322.77768930001184,,,,,,,,,,,,,,,,,,,,,,12,B,2024-04-22_10h32.03.467,attentional_competition_task,2022.2.4,144.06917648733958,
positions.xlsx,positions_test.xlsx,positions_test_new.xlsx,stimuli.xlsx,stimuli_new.xlsx,stimuli/Social2.png,stimuli/Social1.png,stimuli/Nonsocial2.png,stimuli/Nonsocial1.png,stimuli/Social4.png,stimuli/Social3.png,stimuli/Nonsocial4.png,stimuli/Nonsocial3.png,cs_pos_ns,"(-0.7, -0.5)",,,,,,,,,0,0,0,0,,,,,,,,,0,9,9,13,,,,,,,,,,,,,,,,,,,,,,,,,,,,,,,,,,,,,,329.902276000008,3,reward,1,0.9093405003659427,0.9093451001681387,330.818910300266,,,,,,,,,,,,,,,,,,,,,,12,B,2024-04-22_10h32.03.467,attentional_competition_task,2022.2.4,144.06917648733958,
positions.xlsx,positions_test.xlsx,positions_test_new.xlsx,stimuli.xlsx,stimuli_new.xlsx,stimuli/Social2.png,stimuli/Social1.png,stimuli/Nonsocial2.png,stimuli/Nonsocial1.png,stimuli/Social4.png,stimuli/Social3.png,stimuli/Nonsocial4.png,stimuli/Nonsocial3.png,cs_pos_s,"(0.7, 0.5)",,,,,,,,,0,0,0,0,,,,,,,,,0,10,10,6,,,,,,,,,,,,,,,,,,,,,,,,,,,,,,,,,,,,,,339.103313700296,6,reward,1,1.2706792000681162,1.2706835004501045,340.3810796001926,,,,,,,,,,,,,,,,,,,,,,12,B,2024-04-22_10h32.03.467,attentional_competition_task,2022.2.4,144.06917648733958,
positions.xlsx,positions_test.xlsx,positions_test_new.xlsx,stimuli.xlsx,stimuli_new.xlsx,stimuli/Social2.png,stimuli/Social1.png,stimuli/Nonsocial2.png,stimuli/Nonsocial1.png,stimuli/Social4.png,stimuli/Social3.png,stimuli/Nonsocial4.png,stimuli/Nonsocial3.png,cs_pos_s,"(-0.7, -0.5)",,,,,,,,,0,0,0,0,,,,,,,,,0,11,11,5,,,,,,,,,,,,,,,,,,,,,,,,,,,,,,,,,,,,,,347.970956500154,9,reward,1,0.18764259992167354,0.18764680018648505,348.16542720003054,,,,,,,,,,,,,,,,,,,,,,12,B,2024-04-22_10h32.03.467,attentional_competition_task,2022.2.4,144.06917648733958,
positions.xlsx,positions_test.xlsx,positions_test_new.xlsx,stimuli.xlsx,stimuli_new.xlsx,stimuli/Social2.png,stimuli/Social1.png,stimuli/Nonsocial2.png,stimuli/Nonsocial1.png,stimuli/Social4.png,stimuli/Social3.png,stimuli/Nonsocial4.png,stimuli/Nonsocial3.png,cs_neg_ns,"(0.7, -0.5)",,,,,,,,,0,0,0,0,,,,,,,,,0,12,12,11,,,,,,,,,,,,,,,,,,,,,,,,,,,,,,,,,,,,,,355.3248314000666,9,none,0,,,358.33869060035795,,,,,,,,,,,,,,,,,,,,,,12,B,2024-04-22_10h32.03.467,attentional_competition_task,2022.2.4,144.06917648733958,
positions.xlsx,positions_test.xlsx,positions_test_new.xlsx,stimuli.xlsx,stimuli_new.xlsx,stimuli/Social2.png,stimuli/Social1.png,stimuli/Nonsocial2.png,stimuli/Nonsocial1.png,stimuli/Social4.png,stimuli/Social3.png,stimuli/Nonsocial4.png,stimuli/Nonsocial3.png,cs_neg_ns,"(-0.7, -0.5)",,,,,,,,,0,0,0,0,,,,,,,,,0,13,13,9,,,,,,,,,,,,,,,,,,,,,,,,,,,,,,,,,,,,,,365.6994386999868,9,none,0,,,368.7132195001468,,,,,,,,,,,,,,,,,,,,,,12,B,2024-04-22_10h32.03.467,attentional_competition_task,2022.2.4,144.06917648733958,
positions.xlsx,positions_test.xlsx,positions_test_new.xlsx,stimuli.xlsx,stimuli_new.xlsx,stimuli/Social2.png,stimuli/Social1.png,stimuli/Nonsocial2.png,stimuli/Nonsocial1.png,stimuli/Social4.png,stimuli/Social3.png,stimuli/Nonsocial4.png,stimuli/Nonsocial3.png,cs_neg_s,"(-0.7, 0.5)",,,,,,,,,0,0,0,0,,,,,,,,,0,14,14,0,,,,,,,,,,,,,,,,,,,,,,,,,,,,,,,,,,,,,,376.21288980031386,9,none,0,,,379.22668660013005,,,,,,,,,,,,,,,,,,,,,,12,B,2024-04-22_10h32.03.467,attentional_competition_task,2022.2.4,144.06917648733958,
positions.xlsx,positions_test.xlsx,positions_test_new.xlsx,stimuli.xlsx,stimuli_new.xlsx,stimuli/Social2.png,stimuli/Social1.png,stimuli/Nonsocial2.png,stimuli/Nonsocial1.png,stimuli/Social4.png,stimuli/Social3.png,stimuli/Nonsocial4.png,stimuli/Nonsocial3.png,cs_pos_s,"(-0.7, 0.5)",,,,,,,,,0,0,0,0,,,,,,,,,0,15,15,4,,,,,,,,,,,,,,,,,,,,,,,,,,,,,,,,,,,,,,387.2054781001061,12,reward,1,0.6745525002479553,0.6745572001673281,387.8860611002892,,,,,,,,,,,,,,,,,,,,,,12,B,2024-04-22_10h32.03.467,attentional_competition_task,2022.2.4,144.06917648733958,
positions.xlsx,positions_test.xlsx,positions_test_new.xlsx,stimuli.xlsx,stimuli_new.xlsx,stimuli/Social2.png,stimuli/Social1.png,stimuli/Nonsocial2.png,stimuli/Nonsocial1.png,stimuli/Social4.png,stimuli/Social3.png,stimuli/Nonsocial4.png,stimuli/Nonsocial3.png,cs_neg_s,"(-0.7, 0.5)",,,,,,,,,0,0,0,0,,,,,,,,,1,0,16,0,,,,,,,,,,,,,,,,,,,,,,,,,,,,,,,,,,,,,,395.2954700002447,12,none,0,,,398.3091870001517,,,,,,,,,,,,,,,,,,,,,,12,B,2024-04-22_10h32.03.467,attentional_competition_task,2022.2.4,144.06917648733958,
positions.xlsx,positions_test.xlsx,positions_test_new.xlsx,stimuli.xlsx,stimuli_new.xlsx,stimuli/Social2.png,stimuli/Social1.png,stimuli/Nonsocial2.png,stimuli/Nonsocial1.png,stimuli/Social4.png,stimuli/Social3.png,stimuli/Nonsocial4.png,stimuli/Nonsocial3.png,cs_pos_ns,"(-0.7, 0.5)",,,,,,,,,0,0,0,0,,,,,,,,,1,1,17,12,,,,,,,,,,,,,,,,,,,,,,,,,,,,,,,,,,,,,,405.5658702002838,15,reward,1,0.9169179000891745,0.9169223001226783,406.48945840029046,,,,,,,,,,,,,,,,,,,,,,12,B,2024-04-22_10h32.03.467,attentional_competition_task,2022.2.4,144.06917648733958,
positions.xlsx,positions_test.xlsx,positions_test_new.xlsx,stimuli.xlsx,stimuli_new.xlsx,stimuli/Social2.png,stimuli/Social1.png,stimuli/Nonsocial2.png,stimuli/Nonsocial1.png,stimuli/Social4.png,stimuli/Social3.png,stimuli/Nonsocial4.png,stimuli/Nonsocial3.png,cs_neg_ns,"(-0.7, 0.5)",,,,,,,,,0,0,0,0,,,,,,,,,1,2,18,8,,,,,,,,,,,,,,,,,,,,,,,,,,,,,,,,,,,,,,413.9335770001635,15,none,0,,,416.94731970038265,,,,,,,,,,,,,,,,,,,,,,12,B,2024-04-22_10h32.03.467,attentional_competition_task,2022.2.4,144.06917648733958,
positions.xlsx,positions_test.xlsx,positions_test_new.xlsx,stimuli.xlsx,stimuli_new.xlsx,stimuli/Social2.png,stimuli/Social1.png,stimuli/Nonsocial2.png,stimuli/Nonsocial1.png,stimuli/Social4.png,stimuli/Social3.png,stimuli/Nonsocial4.png,stimuli/Nonsocial3.png,cs_pos_s,"(0.7, 0.5)",,,,,,,,,0,0,0,0,,,,,,,,,1,3,19,6,,,,,,,,,,,,,,,,,,,,,,,,,,,,,,,,,,,,,,424.690074800048,18,reward,1,0.8820720999501646,0.8820767998695374,425.5789970001206,,,,,,,,,,,,,,,,,,,,,,12,B,2024-04-22_10h32.03.467,attentional_competition_task,2022.2.4,144.06917648733958,
positions.xlsx,positions_test.xlsx,positions_test_new.xlsx,stimuli.xlsx,stimuli_new.xlsx,stimuli/Social2.png,stimuli/Social1.png,stimuli/Nonsocial2.png,stimuli/Nonsocial1.png,stimuli/Social4.png,stimuli/Social3.png,stimuli/Nonsocial4.png,stimuli/Nonsocial3.png,cs_neg_s,"(0.7, 0.5)",,,,,,,,,0,0,0,0,,,,,,,,,1,4,20,2,,,,,,,,,,,,,,,,,,,,,,,,,,,,,,,,,,,,,,433.11333140032366,18,none,0,,,436.1201748000458,,,,,,,,,,,,,,,,,,,,,,12,B,2024-04-22_10h32.03.467,attentional_competition_task,2022.2.4,144.06917648733958,
positions.xlsx,positions_test.xlsx,positions_test_new.xlsx,stimuli.xlsx,stimuli_new.xlsx,stimuli/Social2.png,stimuli/Social1.png,stimuli/Nonsocial2.png,stimuli/Nonsocial1.png,stimuli/Social4.png,stimuli/Social3.png,stimuli/Nonsocial4.png,stimuli/Nonsocial3.png,cs_neg_s,"(-0.7, -0.5)",,,,,,,,,0,0,0,0,,,,,,,,,1,5,21,1,,,,,,,,,,,,,,,,,,,,,,,,,,,,,,,,,,,,,,443.18934669997543,18,none,0,,,446.1961245001294,,,,,,,,,,,,,,,,,,,,,,12,B,2024-04-22_10h32.03.467,attentional_competition_task,2022.2.4,144.06917648733958,
positions.xlsx,positions_test.xlsx,positions_test_new.xlsx,stimuli.xlsx,stimuli_new.xlsx,stimuli/Social2.png,stimuli/Social1.png,stimuli/Nonsocial2.png,stimuli/Nonsocial1.png,stimuli/Social4.png,stimuli/Social3.png,stimuli/Nonsocial4.png,stimuli/Nonsocial3.png,cs_pos_s,"(-0.7, -0.5)",,,,,,,,,0,0,0,0,,,,,,,,,1,6,22,5,,,,,,,,,,,,,,,,,,,,,,,,,,,,,,,,,,,,,,453.6889043999836,21,reward,1,0.8129343003965914,0.8129389001987875,454.50831840001047,,,,,,,,,,,,,,,,,,,,,,12,B,2024-04-22_10h32.03.467,attentional_competition_task,2022.2.4,144.06917648733958,
positions.xlsx,positions_test.xlsx,positions_test_new.xlsx,stimuli.xlsx,stimuli_new.xlsx,stimuli/Social2.png,stimuli/Social1.png,stimuli/Nonsocial2.png,stimuli/Nonsocial1.png,stimuli/Social4.png,stimuli/Social3.png,stimuli/Nonsocial4.png,stimuli/Nonsocial3.png,cs_neg_s,"(0.7, -0.5)",,,,,,,,,0,0,0,0,,,,,,,,,1,7,23,3,,,,,,,,,,,,,,,,,,,,,,,,,,,,,,,,,,,,,,462.3065920001827,18,loss,1,0.20228399988263845,0.2022889000363648,462.514944200404,,,,,,,,,,,,,,,,,,,,,,12,B,2024-04-22_10h32.03.467,attentional_competition_task,2022.2.4,144.06917648733958,
positions.xlsx,positions_test.xlsx,positions_test_new.xlsx,stimuli.xlsx,stimuli_new.xlsx,stimuli/Social2.png,stimuli/Social1.png,stimuli/Nonsocial2.png,stimuli/Nonsocial1.png,stimuli/Social4.png,stimuli/Social3.png,stimuli/Nonsocial4.png,stimuli/Nonsocial3.png,cs_neg_ns,"(0.7, 0.5)",,,,,,,,,0,0,0,0,,,,,,,,,1,8,24,10,,,,,,,,,,,,,,,,,,,,,,,,,,,,,,,,,,,,,,469.4799403999932,18,none,0,,,472.4937356002629,,,,,,,,,,,,,,,,,,,,,,12,B,2024-04-22_10h32.03.467,attentional_competition_task,2022.2.4,144.06917648733958,
positions.xlsx,positions_test.xlsx,positions_test_new.xlsx,stimuli.xlsx,stimuli_new.xlsx,stimuli/Social2.png,stimuli/Social1.png,stimuli/Nonsocial2.png,stimuli/Nonsocial1.png,stimuli/Social4.png,stimuli/Social3.png,stimuli/Nonsocial4.png,stimuli/Nonsocial3.png,cs_pos_s,"(0.7, -0.5)",,,,,,,,,0,0,0,0,,,,,,,,,1,9,25,7,,,,,,,,,,,,,,,,,,,,,,,,,,,,,,,,,,,,,,479.7920147003606,21,reward,1,0.8057788000442088,0.8057832000777125,480.60448860004544,,,,,,,,,,,,,,,,,,,,,,12,B,2024-04-22_10h32.03.467,attentional_competition_task,2022.2.4,144.06917648733958,
positions.xlsx,positions_test.xlsx,positions_test_new.xlsx,stimuli.xlsx,stimuli_new.xlsx,stimuli/Social2.png,stimuli/Social1.png,stimuli/Nonsocial2.png,stimuli/Nonsocial1.png,stimuli/Social4.png,stimuli/Social3.png,stimuli/Nonsocial4.png,stimuli/Nonsocial3.png,cs_neg_ns,"(0.7, -0.5)",,,,,,,,,0,0,0,0,,,,,,,,,1,10,26,11,,,,,,,,,,,,,,,,,,,,,,,,,,,,,,,,,,,,,,488.38191940030083,21,none,0,,,491.3957091001794,,,,,,,,,,,,,,,,,,,,,,12,B,2024-04-22_10h32.03.467,attentional_competition_task,2022.2.4,144.06917648733958,
positions.xlsx,positions_test.xlsx,positions_test_new.xlsx,stimuli.xlsx,stimuli_new.xlsx,stimuli/Social2.png,stimuli/Social1.png,stimuli/Nonsocial2.png,stimuli/Nonsocial1.png,stimuli/Social4.png,stimuli/Social3.png,stimuli/Nonsocial4.png,stimuli/Nonsocial3.png,cs_neg_ns,"(-0.7, -0.5)",,,,,,,,,0,0,0,0,,,,,,,,,1,11,27,9,,,,,,,,,,,,,,,,,,,,,,,,,,,,,,,,,,,,,,498.8398506999947,21,none,0,,,501.8467534002848,,,,,,,,,,,,,,,,,,,,,,12,B,2024-04-22_10h32.03.467,attentional_competition_task,2022.2.4,144.06917648733958,
positions.xlsx,positions_test.xlsx,positions_test_new.xlsx,stimuli.xlsx,stimuli_new.xlsx,stimuli/Social2.png,stimuli/Social1.png,stimuli/Nonsocial2.png,stimuli/Nonsocial1.png,stimuli/Social4.png,stimuli/Social3.png,stimuli/Nonsocial4.png,stimuli/Nonsocial3.png,cs_pos_ns,"(0.7, -0.5)",,,,,,,,,0,0,0,0,,,,,,,,,1,12,28,15,,,,,,,,,,,,,,,,,,,,,,,,,,,,,,,,,,,,,,509.36717600002885,24,reward,1,0.9379004002548754,0.9379048002883792,510.3185773002915,,,,,,,,,,,,,,,,,,,,,,12,B,2024-04-22_10h32.03.467,attentional_competition_task,2022.2.4,144.06917648733958,
positions.xlsx,positions_test.xlsx,positions_test_new.xlsx,stimuli.xlsx,stimuli_new.xlsx,stimuli/Social2.png,stimuli/Social1.png,stimuli/Nonsocial2.png,stimuli/Nonsocial1.png,stimuli/Social4.png,stimuli/Social3.png,stimuli/Nonsocial4.png,stimuli/Nonsocial3.png,cs_pos_s,"(-0.7, 0.5)",,,,,,,,,0,0,0,0,,,,,,,,,1,13,29,4,,,,,,,,,,,,,,,,,,,,,,,,,,,,,,,,,,,,,,518.0335080004297,27,reward,1,0.3197705000638962,0.3197755999863148,518.3598881000653,,,,,,,,,,,,,,,,,,,,,,12,B,2024-04-22_10h32.03.467,attentional_competition_task,2022.2.4,144.06917648733958,
positions.xlsx,positions_test.xlsx,positions_test_new.xlsx,stimuli.xlsx,stimuli_new.xlsx,stimuli/Social2.png,stimuli/Social1.png,stimuli/Nonsocial2.png,stimuli/Nonsocial1.png,stimuli/Social4.png,stimuli/Social3.png,stimuli/Nonsocial4.png,stimuli/Nonsocial3.png,cs_pos_ns,"(-0.7, -0.5)",,,,,,,,,0,0,0,0,,,,,,,,,1,14,30,13,,,,,,,,,,,,,,,,,,,,,,,,,,,,,,,,,,,,,,525.99152840022,30,reward,1,0.20116590010002255,0.20117020001634955,526.1998310000636,,,,,,,,,,,,,,,,,,,,,,12,B,2024-04-22_10h32.03.467,attentional_competition_task,2022.2.4,144.06917648733958,
positions.xlsx,positions_test.xlsx,positions_test_new.xlsx,stimuli.xlsx,stimuli_new.xlsx,stimuli/Social2.png,stimuli/Social1.png,stimuli/Nonsocial2.png,stimuli/Nonsocial1.png,stimuli/Social4.png,stimuli/Social3.png,stimuli/Nonsocial4.png,stimuli/Nonsocial3.png,cs_pos_ns,"(0.7, 0.5)",,,,,,,,,0,0,0,0,,,,,,,,,1,15,31,14,,,,,,,,,,,,,,,,,,,,,,,,,,,,,,,,,,,,,,533.7620136002079,33,reward,1,0.9241184000857174,0.9241231000050902,534.6925316001289,,,,,,,,,,,,,,,,,,,,,,12,B,2024-04-22_10h32.03.467,attentional_competition_task,2022.2.4,144.06917648733958,
positions.xlsx,positions_test.xlsx,positions_test_new.xlsx,stimuli.xlsx,stimuli_new.xlsx,stimuli/Social2.png,stimuli/Social1.png,stimuli/Nonsocial2.png,stimuli/Nonsocial1.png,stimuli/Social4.png,stimuli/Social3.png,stimuli/Nonsocial4.png,stimuli/Nonsocial3.png,cs_neg_ns,"(0.7, 0.5)",,,,,,,,,0,0,0,0,,,,,,,,,,,,,0,0,0,10,,,,,,,,,,,,,,,,,,,,,,,,,,,,,,,,,,561.483144200407,33,none,0,,,564.4969159001485,,,,,,,,,,,,,,,,,,,,,,12,B,2024-04-22_10h32.03.467,attentional_competition_task,2022.2.4,144.06917648733958,
positions.xlsx,positions_test.xlsx,positions_test_new.xlsx,stimuli.xlsx,stimuli_new.xlsx,stimuli/Social2.png,stimuli/Social1.png,stimuli/Nonsocial2.png,stimuli/Nonsocial1.png,stimuli/Social4.png,stimuli/Social3.png,stimuli/Nonsocial4.png,stimuli/Nonsocial3.png,cs_neg_ns,"(-0.7, -0.5)",,,,,,,,,0,0,0,0,,,,,,,,,,,,,0,1,1,9,,,,,,,,,,,,,,,,,,,,,,,,,,,,,,,,,,572.0174910002388,33,none,0,,,575.0312209003605,,,,,,,,,,,,,,,,,,,,,,12,B,2024-04-22_10h32.03.467,attentional_competition_task,2022.2.4,144.06917648733958,
positions.xlsx,positions_test.xlsx,positions_test_new.xlsx,stimuli.xlsx,stimuli_new.xlsx,stimuli/Social2.png,stimuli/Social1.png,stimuli/Nonsocial2.png,stimuli/Nonsocial1.png,stimuli/Social4.png,stimuli/Social3.png,stimuli/Nonsocial4.png,stimuli/Nonsocial3.png,cs_neg_s,"(0.7, 0.5)",,,,,,,,,0,0,0,0,,,,,,,,,,,,,0,2,2,2,,,,,,,,,,,,,,,,,,,,,,,,,,,,,,,,,,582.9128430001438,30,loss,1,0.5074175000190735,0.5143445003777742,583.4336328003556,,,,,,,,,,,,,,,,,,,,,,12,B,2024-04-22_10h32.03.467,attentional_competition_task,2022.2.4,144.06917648733958,
positions.xlsx,positions_test.xlsx,positions_test_new.xlsx,stimuli.xlsx,stimuli_new.xlsx,stimuli/Social2.png,stimuli/Social1.png,stimuli/Nonsocial2.png,stimuli/Nonsocial1.png,stimuli/Social4.png,stimuli/Social3.png,stimuli/Nonsocial4.png,stimuli/Nonsocial3.png,cs_pos_s,"(-0.7, -0.5)",,,,,,,,,0,0,0,0,,,,,,,,,,,,,0,3,3,5,,,,,,,,,,,,,,,,,,,,,,,,,,,,,,,,,,590.9472135002725,33,reward,1,0.22252439986914396,0.22252909978851676,591.1763944001868,,,,,,,,,,,,,,,,,,,,,,12,B,2024-04-22_10h32.03.467,attentional_competition_task,2022.2.4,144.06917648733958,
positions.xlsx,positions_test.xlsx,positions_test_new.xlsx,stimuli.xlsx,stimuli_new.xlsx,stimuli/Social2.png,stimuli/Social1.png,stimuli/Nonsocial2.png,stimuli/Nonsocial1.png,stimuli/Social4.png,stimuli/Social3.png,stimuli/Nonsocial4.png,stimuli/Nonsocial3.png,cs_neg_ns,"(-0.7, 0.5)",,,,,,,,,0,0,0,0,,,,,,,,,,,,,0,4,4,8,,,,,,,,,,,,,,,,,,,,,,,,,,,,,,,,,,598.1344669000246,33,none,0,,,601.1551601001993,,,,,,,,,,,,,,,,,,,,,,12,B,2024-04-22_10h32.03.467,attentional_competition_task,2022.2.4,144.06917648733958,
positions.xlsx,positions_test.xlsx,positions_test_new.xlsx,stimuli.xlsx,stimuli_new.xlsx,stimuli/Social2.png,stimuli/Social1.png,stimuli/Nonsocial2.png,stimuli/Nonsocial1.png,stimuli/Social4.png,stimuli/Social3.png,stimuli/Nonsocial4.png,stimuli/Nonsocial3.png,cs_neg_s,"(-0.7, 0.5)",,,,,,,,,0,0,0,0,,,,,,,,,,,,,0,5,5,0,,,,,,,,,,,,,,,,,,,,,,,,,,,,,,,,,,609.036781300325,33,none,0,,,612.0435839002021,,,,,,,,,,,,,,,,,,,,,,12,B,2024-04-22_10h32.03.467,attentional_competition_task,2022.2.4,144.06917648733958,
positions.xlsx,positions_test.xlsx,positions_test_new.xlsx,stimuli.xlsx,stimuli_new.xlsx,stimuli/Social2.png,stimuli/Social1.png,stimuli/Nonsocial2.png,stimuli/Nonsocial1.png,stimuli/Social4.png,stimuli/Social3.png,stimuli/Nonsocial4.png,stimuli/Nonsocial3.png,cs_pos_ns,"(0.7, 0.5)",,,,,,,,,0,0,0,0,,,,,,,,,,,,,0,6,6,14,,,,,,,,,,,,,,,,,,,,,,,,,,,,,,,,,,619.3835966000333,36,reward,1,0.6595658999867737,0.6595704001374543,620.0502346004359,,,,,,,,,,,,,,,,,,,,,,12,B,2024-04-22_10h32.03.467,attentional_competition_task,2022.2.4,144.06917648733958,
positions.xlsx,positions_test.xlsx,positions_test_new.xlsx,stimuli.xlsx,stimuli_new.xlsx,stimuli/Social2.png,stimuli/Social1.png,stimuli/Nonsocial2.png,stimuli/Nonsocial1.png,stimuli/Social4.png,stimuli/Social3.png,stimuli/Nonsocial4.png,stimuli/Nonsocial3.png,cs_pos_s,"(-0.7, 0.5)",,,,,,,,,0,0,0,0,,,,,,,,,,,,,0,7,7,4,,,,,,,,,,,,,,,,,,,,,,,,,,,,,,,,,,627.2513248003088,39,reward,1,1.034809600096196,1.0348140001296997,628.2929287003353,,,,,,,,,,,,,,,,,,,,,,12,B,2024-04-22_10h32.03.467,attentional_competition_task,2022.2.4,144.06917648733958,
positions.xlsx,positions_test.xlsx,positions_test_new.xlsx,stimuli.xlsx,stimuli_new.xlsx,stimuli/Social2.png,stimuli/Social1.png,stimuli/Nonsocial2.png,stimuli/Nonsocial1.png,stimuli/Social4.png,stimuli/Social3.png,stimuli/Nonsocial4.png,stimuli/Nonsocial3.png,cs_pos_s,"(0.7, -0.5)",,,,,,,,,0,0,0,0,,,,,,,,,,,,,0,8,8,7,,,,,,,,,,,,,,,,,,,,,,,,,,,,,,,,,,635.5495974002406,42,reward,1,0.2780543998815119,0.2780586997978389,635.8342954004183,,,,,,,,,,,,,,,,,,,,,,12,B,2024-04-22_10h32.03.467,attentional_competition_task,2022.2.4,144.06917648733958,
positions.xlsx,positions_test.xlsx,positions_test_new.xlsx,stimuli.xlsx,stimuli_new.xlsx,stimuli/Social2.png,stimuli/Social1.png,stimuli/Nonsocial2.png,stimuli/Nonsocial1.png,stimuli/Social4.png,stimuli/Social3.png,stimuli/Nonsocial4.png,stimuli/Nonsocial3.png,cs_pos_s,"(0.7, 0.5)",,,,,,,,,0,0,0,0,,,,,,,,,,,,,0,9,9,6,,,,,,,,,,,,,,,,,,,,,,,,,,,,,,,,,,643.60480070021,45,reward,1,0.6050050999037921,0.6050095995888114,644.2159435003996,,,,,,,,,,,,,,,,,,,,,,12,B,2024-04-22_10h32.03.467,attentional_competition_task,2022.2.4,144.06917648733958,
positions.xlsx,positions_test.xlsx,positions_test_new.xlsx,stimuli.xlsx,stimuli_new.xlsx,stimuli/Social2.png,stimuli/Social1.png,stimuli/Nonsocial2.png,stimuli/Nonsocial1.png,stimuli/Social4.png,stimuli/Social3.png,stimuli/Nonsocial4.png,stimuli/Nonsocial3.png,cs_neg_s,"(0.7, -0.5)",,,,,,,,,0,0,0,0,,,,,,,,,,,,,0,10,10,3,,,,,,,,,,,,,,,,,,,,,,,,,,,,,,,,,,651.6045085000806,45,none,0,,,654.6182832000777,,,,,,,,,,,,,,,,,,,,,,12,B,2024-04-22_10h32.03.467,attentional_competition_task,2022.2.4,144.06917648733958,
positions.xlsx,positions_test.xlsx,positions_test_new.xlsx,stimuli.xlsx,stimuli_new.xlsx,stimuli/Social2.png,stimuli/Social1.png,stimuli/Nonsocial2.png,stimuli/Nonsocial1.png,stimuli/Social4.png,stimuli/Social3.png,stimuli/Nonsocial4.png,stimuli/Nonsocial3.png,cs_neg_ns,"(0.7, -0.5)",,,,,,,,,0,0,0,0,,,,,,,,,,,,,0,11,11,11,,,,,,,,,,,,,,,,,,,,,,,,,,,,,,,,,,661.8679763004184,45,none,0,,,664.8817296000198,,,,,,,,,,,,,,,,,,,,,,12,B,2024-04-22_10h32.03.467,attentional_competition_task,2022.2.4,144.06917648733958,
positions.xlsx,positions_test.xlsx,positions_test_new.xlsx,stimuli.xlsx,stimuli_new.xlsx,stimuli/Social2.png,stimuli/Social1.png,stimuli/Nonsocial2.png,stimuli/Nonsocial1.png,stimuli/Social4.png,stimuli/Social3.png,stimuli/Nonsocial4.png,stimuli/Nonsocial3.png,cs_pos_ns,"(-0.7, 0.5)",,,,,,,,,0,0,0,0,,,,,,,,,,,,,0,12,12,12,,,,,,,,,,,,,,,,,,,,,,,,,,,,,,,,,,672.2008922002278,48,reward,1,0.7641580002382398,0.7641627001576126,672.9717137003317,,,,,,,,,,,,,,,,,,,,,,12,B,2024-04-22_10h32.03.467,attentional_competition_task,2022.2.4,144.06917648733958,
positions.xlsx,positions_test.xlsx,positions_test_new.xlsx,stimuli.xlsx,stimuli_new.xlsx,stimuli/Social2.png,stimuli/Social1.png,stimuli/Nonsocial2.png,stimuli/Nonsocial1.png,stimuli/Social4.png,stimuli/Social3.png,stimuli/Nonsocial4.png,stimuli/Nonsocial3.png,cs_pos_ns,"(-0.7, -0.5)",,,,,,,,,0,0,0,0,,,,,,,,,,,,,0,13,13,13,,,,,,,,,,,,,,,,,,,,,,,,,,,,,,,,,,680.1103217001073,51,reward,1,0.23615260003134608,0.23615700006484985,680.3533299001865,,,,,,,,,,,,,,,,,,,,,,12,B,2024-04-22_10h32.03.467,attentional_competition_task,2022.2.4,144.06917648733958,
positions.xlsx,positions_test.xlsx,positions_test_new.xlsx,stimuli.xlsx,stimuli_new.xlsx,stimuli/Social2.png,stimuli/Social1.png,stimuli/Nonsocial2.png,stimuli/Nonsocial1.png,stimuli/Social4.png,stimuli/Social3.png,stimuli/Nonsocial4.png,stimuli/Nonsocial3.png,cs_pos_ns,"(0.7, -0.5)",,,,,,,,,0,0,0,0,,,,,,,,,,,,,0,14,14,15,,,,,,,,,,,,,,,,,,,,,,,,,,,,,,,,,,687.8739137002267,54,reward,1,0.6876199003309011,0.6876244000159204,688.5682610003278,,,,,,,,,,,,,,,,,,,,,,12,B,2024-04-22_10h32.03.467,attentional_competition_task,2022.2.4,144.06917648733958,
positions.xlsx,positions_test.xlsx,positions_test_new.xlsx,stimuli.xlsx,stimuli_new.xlsx,stimuli/Social2.png,stimuli/Social1.png,stimuli/Nonsocial2.png,stimuli/Nonsocial1.png,stimuli/Social4.png,stimuli/Social3.png,stimuli/Nonsocial4.png,stimuli/Nonsocial3.png,cs_neg_s,"(-0.7, -0.5)",,,,,,,,,0,0,0,0,,,,,,,,,,,,,0,15,15,1,,,,,,,,,,,,,,,,,,,,,,,,,,,,,,,,,,695.9707839000039,51,loss,1,0.1946425000205636,0.19464709982275963,696.1721490002237,,,,,,,,,,,,,,,,,,,,,,12,B,2024-04-22_10h32.03.467,attentional_competition_task,2022.2.4,144.06917648733958,
positions.xlsx,positions_test.xlsx,positions_test_new.xlsx,stimuli.xlsx,stimuli_new.xlsx,stimuli/Social2.png,stimuli/Social1.png,stimuli/Nonsocial2.png,stimuli/Nonsocial1.png,stimuli/Social4.png,stimuli/Social3.png,stimuli/Nonsocial4.png,stimuli/Nonsocial3.png,cs_neg_s,"(0.7, 0.5)",,,,,,,,,0,0,0,0,,,,,,,,,,,,,1,0,16,2,,,,,,,,,,,,,,,,,,,,,,,,,,,,,,,,,,703.3177749002352,51,none,0,,,706.3244803003035,,,,,,,,,,,,,,,,,,,,,,12,B,2024-04-22_10h32.03.467,attentional_competition_task,2022.2.4,144.06917648733958,
positions.xlsx,positions_test.xlsx,positions_test_new.xlsx,stimuli.xlsx,stimuli_new.xlsx,stimuli/Social2.png,stimuli/Social1.png,stimuli/Nonsocial2.png,stimuli/Nonsocial1.png,stimuli/Social4.png,stimuli/Social3.png,stimuli/Nonsocial4.png,stimuli/Nonsocial3.png,cs_pos_ns,"(0.7, 0.5)",,,,,,,,,0,0,0,0,,,,,,,,,,,,,1,1,17,14,,,,,,,,,,,,,,,,,,,,,,,,,,,,,,,,,,714.157482500188,54,reward,1,0.9657740001566708,0.9657784998416901,715.1297063003294,,,,,,,,,,,,,,,,,,,,,,12,B,2024-04-22_10h32.03.467,attentional_competition_task,2022.2.4,144.06917648733958,
positions.xlsx,positions_test.xlsx,positions_test_new.xlsx,stimuli.xlsx,stimuli_new.xlsx,stimuli/Social2.png,stimuli/Social1.png,stimuli/Nonsocial2.png,stimuli/Nonsocial1.png,stimuli/Social4.png,stimuli/Social3.png,stimuli/Nonsocial4.png,stimuli/Nonsocial3.png,cs_pos_ns,"(-0.7, -0.5)",,,,,,,,,0,0,0,0,,,,,,,,,,,,,1,2,18,13,,,,,,,,,,,,,,,,,,,,,,,,,,,,,,,,,,723.0599545002915,57,reward,1,0.22917059995234013,0.2291749999858439,723.2960566002876,,,,,,,,,,,,,,,,,,,,,,12,B,2024-04-22_10h32.03.467,attentional_competition_task,2022.2.4,144.06917648733958,
positions.xlsx,positions_test.xlsx,positions_test_new.xlsx,stimuli.xlsx,stimuli_new.xlsx,stimuli/Social2.png,stimuli/Social1.png,stimuli/Nonsocial2.png,stimuli/Nonsocial1.png,stimuli/Social4.png,stimuli/Social3.png,stimuli/Nonsocial4.png,stimuli/Nonsocial3.png,cs_pos_s,"(-0.7, 0.5)",,,,,,,,,0,0,0,0,,,,,,,,,,,,,1,3,19,4,,,,,,,,,,,,,,,,,,,,,,,,,,,,,,,,,,731.0665559000336,60,reward,1,0.8338445001281798,0.8338493001647294,731.9068330000155,,,,,,,,,,,,,,,,,,,,,,12,B,2024-04-22_10h32.03.467,attentional_competition_task,2022.2.4,144.06917648733958,
positions.xlsx,positions_test.xlsx,positions_test_new.xlsx,stimuli.xlsx,stimuli_new.xlsx,stimuli/Social2.png,stimuli/Social1.png,stimuli/Nonsocial2.png,stimuli/Nonsocial1.png,stimuli/Social4.png,stimuli/Social3.png,stimuli/Nonsocial4.png,stimuli/Nonsocial3.png,cs_neg_ns,"(-0.7, -0.5)",,,,,,,,,0,0,0,0,,,,,,,,,,,,,1,4,20,9,,,,,,,,,,,,,,,,,,,,,,,,,,,,,,,,,,739.5662683001719,60,none,0,,,742.5799825000577,,,,,,,,,,,,,,,,,,,,,,12,B,2024-04-22_10h32.03.467,attentional_competition_task,2022.2.4,144.06917648733958,
positions.xlsx,positions_test.xlsx,positions_test_new.xlsx,stimuli.xlsx,stimuli_new.xlsx,stimuli/Social2.png,stimuli/Social1.png,stimuli/Nonsocial2.png,stimuli/Nonsocial1.png,stimuli/Social4.png,stimuli/Social3.png,stimuli/Nonsocial4.png,stimuli/Nonsocial3.png,cs_pos_s,"(0.7, -0.5)",,,,,,,,,0,0,0,0,,,,,,,,,,,,,1,5,21,7,,,,,,,,,,,,,,,,,,,,,,,,,,,,,,,,,,749.8158019999973,63,reward,1,0.764126599766314,0.7641314999200404,750.5866403002292,,,,,,,,,,,,,,,,,,,,,,12,B,2024-04-22_10h32.03.467,attentional_competition_task,2022.2.4,144.06917648733958,
positions.xlsx,positions_test.xlsx,positions_test_new.xlsx,stimuli.xlsx,stimuli_new.xlsx,stimuli/Social2.png,stimuli/Social1.png,stimuli/Nonsocial2.png,stimuli/Nonsocial1.png,stimuli/Social4.png,stimuli/Social3.png,stimuli/Nonsocial4.png,stimuli/Nonsocial3.png,cs_neg_ns,"(-0.7, 0.5)",,,,,,,,,0,0,0,0,,,,,,,,,,,,,1,6,22,8,,,,,,,,,,,,,,,,,,,,,,,,,,,,,,,,,,758.1974205002189,60,loss,1,0.18749510031193495,0.18749990034848452,758.391868900042,,,,,,,,,,,,,,,,,,,,,,12,B,2024-04-22_10h32.03.467,attentional_competition_task,2022.2.4,144.06917648733958,
positions.xlsx,positions_test.xlsx,positions_test_new.xlsx,stimuli.xlsx,stimuli_new.xlsx,stimuli/Social2.png,stimuli/Social1.png,stimuli/Nonsocial2.png,stimuli/Nonsocial1.png,stimuli/Social4.png,stimuli/Social3.png,stimuli/Nonsocial4.png,stimuli/Nonsocial3.png,cs_pos_ns,"(-0.7, 0.5)",,,,,,,,,0,0,0,0,,,,,,,,,,,,,1,7,23,12,,,,,,,,,,,,,,,,,,,,,,,,,,,,,,,,,,766.3638188000768,63,reward,1,0.7638757997192442,0.7638800996355712,767.1346085001715,,,,,,,,,,,,,,,,,,,,,,12,B,2024-04-22_10h32.03.467,attentional_competition_task,2022.2.4,144.06917648733958,
positions.xlsx,positions_test.xlsx,positions_test_new.xlsx,stimuli.xlsx,stimuli_new.xlsx,stimuli/Social2.png,stimuli/Social1.png,stimuli/Nonsocial2.png,stimuli/Nonsocial1.png,stimuli/Social4.png,stimuli/Social3.png,stimuli/Nonsocial4.png,stimuli/Nonsocial3.png,cs_neg_ns,"(0.7, -0.5)",,,,,,,,,0,0,0,0,,,,,,,,,,,,,1,8,24,11,,,,,,,,,,,,,,,,,,,,,,,,,,,,,,,,,,774.4745830004103,60,loss,1,0.29169469978660345,0.2916988995857537,774.7731461003423,,,,,,,,,,,,,,,,,,,,,,12,B,2024-04-22_10h32.03.467,attentional_competition_task,2022.2.4,144.06917648733958,
positions.xlsx,positions_test.xlsx,positions_test_new.xlsx,stimuli.xlsx,stimuli_new.xlsx,stimuli/Social2.png,stimuli/Social1.png,stimuli/Nonsocial2.png,stimuli/Nonsocial1.png,stimuli/Social4.png,stimuli/Social3.png,stimuli/Nonsocial4.png,stimuli/Nonsocial3.png,cs_pos_s,"(-0.7, -0.5)",,,,,,,,,0,0,0,0,,,,,,,,,,,,,1,9,25,5,,,,,,,,,,,,,,,,,,,,,,,,,,,,,,,,,,781.5714981001802,63,reward,1,0.7156643001362681,0.7156689004041255,782.2937045004219,,,,,,,,,,,,,,,,,,,,,,12,B,2024-04-22_10h32.03.467,attentional_competition_task,2022.2.4,144.06917648733958,
positions.xlsx,positions_test.xlsx,positions_test_new.xlsx,stimuli.xlsx,stimuli_new.xlsx,stimuli/Social2.png,stimuli/Social1.png,stimuli/Nonsocial2.png,stimuli/Nonsocial1.png,stimuli/Social4.png,stimuli/Social3.png,stimuli/Nonsocial4.png,stimuli/Nonsocial3.png,cs_pos_ns,"(0.7, -0.5)",,,,,,,,,0,0,0,0,,,,,,,,,,,,,1,10,26,15,,,,,,,,,,,,,,,,,,,,,,,,,,,,,,,,,,789.6683749002405,66,reward,1,1.1668171002529562,1.1738013001158834,790.8489306000993,,,,,,,,,,,,,,,,,,,,,,12,B,2024-04-22_10h32.03.467,attentional_competition_task,2022.2.4,144.06917648733958,
positions.xlsx,positions_test.xlsx,positions_test_new.xlsx,stimuli.xlsx,stimuli_new.xlsx,stimuli/Social2.png,stimuli/Social1.png,stimuli/Nonsocial2.png,stimuli/Nonsocial1.png,stimuli/Social4.png,stimuli/Social3.png,stimuli/Nonsocial4.png,stimuli/Nonsocial3.png,cs_neg_ns,"(0.7, 0.5)",,,,,,,,,0,0,0,0,,,,,,,,,,,,,1,11,27,10,,,,,,,,,,,,,,,,,,,,,,,,,,,,,,,,,,799.1819003000855,66,none,0,,,802.19565720018,,,,,,,,,,,,,,,,,,,,,,12,B,2024-04-22_10h32.03.467,attentional_competition_task,2022.2.4,144.06917648733958,
positions.xlsx,positions_test.xlsx,positions_test_new.xlsx,stimuli.xlsx,stimuli_new.xlsx,stimuli/Social2.png,stimuli/Social1.png,stimuli/Nonsocial2.png,stimuli/Nonsocial1.png,stimuli/Social4.png,stimuli/Social3.png,stimuli/Nonsocial4.png,stimuli/Nonsocial3.png,cs_neg_s,"(0.7, -0.5)",,,,,,,,,0,0,0,0,,,,,,,,,,,,,1,12,28,3,,,,,,,,,,,,,,,,,,,,,,,,,,,,,,,,,,809.7856060001068,66,none,0,,,812.7924089003354,,,,,,,,,,,,,,,,,,,,,,12,B,2024-04-22_10h32.03.467,attentional_competition_task,2022.2.4,144.06917648733958,
positions.xlsx,positions_test.xlsx,positions_test_new.xlsx,stimuli.xlsx,stimuli_new.xlsx,stimuli/Social2.png,stimuli/Social1.png,stimuli/Nonsocial2.png,stimuli/Nonsocial1.png,stimuli/Social4.png,stimuli/Social3.png,stimuli/Nonsocial4.png,stimuli/Nonsocial3.png,cs_neg_s,"(-0.7, 0.5)",,,,,,,,,0,0,0,0,,,,,,,,,,,,,1,13,29,0,,,,,,,,,,,,,,,,,,,,,,,,,,,,,,,,,,820.3408016003668,66,none,0,,,823.3475693003275,,,,,,,,,,,,,,,,,,,,,,12,B,2024-04-22_10h32.03.467,attentional_competition_task,2022.2.4,144.06917648733958,
positions.xlsx,positions_test.xlsx,positions_test_new.xlsx,stimuli.xlsx,stimuli_new.xlsx,stimuli/Social2.png,stimuli/Social1.png,stimuli/Nonsocial2.png,stimuli/Nonsocial1.png,stimuli/Social4.png,stimuli/Social3.png,stimuli/Nonsocial4.png,stimuli/Nonsocial3.png,cs_neg_s,"(-0.7, -0.5)",,,,,,,,,0,0,0,0,,,,,,,,,,,,,1,14,30,1,,,,,,,,,,,,,,,,,,,,,,,,,,,,,,,,,,830.0695237000473,63,loss,1,0.23626989964395761,0.2362742000259459,830.3125865003094,,,,,,,,,,,,,,,,,,,,,,12,B,2024-04-22_10h32.03.467,attentional_competition_task,2022.2.4,144.06917648733958,
positions.xlsx,positions_test.xlsx,positions_test_new.xlsx,stimuli.xlsx,stimuli_new.xlsx,stimuli/Social2.png,stimuli/Social1.png,stimuli/Nonsocial2.png,stimuli/Nonsocial1.png,stimuli/Social4.png,stimuli/Social3.png,stimuli/Nonsocial4.png,stimuli/Nonsocial3.png,cs_pos_s,"(0.7, 0.5)",,,,,,,,,0,0,0,0,,,,,,,,,,,,,1,15,31,6,,,,,,,,,,,,,,,,,,,,,,,,,,,,,,,,,,837.659525600262,66,reward,1,0.8754030996933579,0.8754076999612153,838.5414214003831,,,,,,,,,,,,,,,,,,,,,,12,B,2024-04-22_10h32.03.467,attentional_competition_task,2022.2.4,144.06917648733958,
positions.xlsx,positions_test.xlsx,positions_test_new.xlsx,stimuli.xlsx,stimuli_new.xlsx,stimuli/Social2.png,stimuli/Social1.png,stimuli/Nonsocial2.png,stimuli/Nonsocial1.png,stimuli/Social4.png,stimuli/Social3.png,stimuli/Nonsocial4.png,stimuli/Nonsocial3.png,cs_neg_s,,,,,,,,,,0,0,0,0,,,,,,,,,,,,,,,,,0,0,0,0,,,,,,,,,,,,,,,,,,,,,,,843.5482006003149,6.0,5.90789459971711,,,,,,,,,,,,,,,,,,,,,,,,,,,,,,,,,12,B,2024-04-22_10h32.03.467,attentional_competition_task,2022.2.4,144.06917648733958,
positions.xlsx,positions_test.xlsx,positions_test_new.xlsx,stimuli.xlsx,stimuli_new.xlsx,stimuli/Social2.png,stimuli/Social1.png,stimuli/Nonsocial2.png,stimuli/Nonsocial1.png,stimuli/Social4.png,stimuli/Social3.png,stimuli/Nonsocial4.png,stimuli/Nonsocial3.png,cs_pos_s,,,,,,,,,,0,0,0,0,,,,,,,,,,,,,,,,,0,1,1,2,,,,,,,,,,,,,,,,,,,,,,,850.7076224000193,8.0,4.759532900061458,,,,,,,,,,,,,,,,,,,,,,,,,,,,,,,,,12,B,2024-04-22_10h32.03.467,attentional_competition_task,2022.2.4,144.06917648733958,
positions.xlsx,positions_test.xlsx,positions_test_new.xlsx,stimuli.xlsx,stimuli_new.xlsx,stimuli/Social2.png,stimuli/Social1.png,stimuli/Nonsocial2.png,stimuli/Nonsocial1.png,stimuli/Social4.png,stimuli/Social3.png,stimuli/Nonsocial4.png,stimuli/Nonsocial3.png,cs_pos_ns,,,,,,,,,,0,0,0,0,,,,,,,,,,,,,,,,,0,2,2,3,,,,,,,,,,,,,,,,,,,,,,,855.9018496000208,7.0,3.0776408999226987,,,,,,,,,,,,,,,,,,,,,,,,,,,,,,,,,12,B,2024-04-22_10h32.03.467,attentional_competition_task,2022.2.4,144.06917648733958,
positions.xlsx,positions_test.xlsx,positions_test_new.xlsx,stimuli.xlsx,stimuli_new.xlsx,stimuli/Social2.png,stimuli/Social1.png,stimuli/Nonsocial2.png,stimuli/Nonsocial1.png,stimuli/Social4.png,stimuli/Social3.png,stimuli/Nonsocial4.png,stimuli/Nonsocial3.png,cs_neg_ns,,,,,,,,,,0,0,0,0,,,,,,,,,,,,,,,,,0,3,3,1,,,,,,,,,,,,,,,,,,,,,,,859.2211596001871,6.0,4.626549300272018,,,,,,,,,,,,,,,,,,,,,,,,,,,,,,,,,12,B,2024-04-22_10h32.03.467,attentional_competition_task,2022.2.4,144.06917648733958,
positions.xlsx,positions_test.xlsx,positions_test_new.xlsx,stimuli.xlsx,stimuli_new.xlsx,stimuli/Social2.png,stimuli/Social1.png,stimuli/Nonsocial2.png,stimuli/Nonsocial1.png,stimuli/Social4.png,stimuli/Social3.png,stimuli/Nonsocial4.png,stimuli/Nonsocial3.png,,,"(-0.7, -0.5)",cs_neg_s,"(-0.7, 0.5)",cs_pos_s,"(0.7, -0.5)",cs_pos_ns,"(0.7, 0.5)",cs_neg_ns,0,0,0,0,,,,,,,,,,,,,,,,,,,,,0,0,0,1,,,,,,,,,,,,,,,,,,,,,,,,,,,66,loss,,,,,865.2000812003389,891.0671174000017,891.0671174000017,891.0671174000017,891.0671174000017,0,,,1,0.029460899997502565,0.7311801998876035,0,,,1,0.8008145000785589,0.807770200073719,891.8656775001436,891.8656775001436,891.8656775001436,891.8656775001436,12,B,2024-04-22_10h32.03.467,attentional_competition_task,2022.2.4,144.06917648733958,
positions.xlsx,positions_test.xlsx,positions_test_new.xlsx,stimuli.xlsx,stimuli_new.xlsx,stimuli/Social2.png,stimuli/Social1.png,stimuli/Nonsocial2.png,stimuli/Nonsocial1.png,stimuli/Social4.png,stimuli/Social3.png,stimuli/Nonsocial4.png,stimuli/Nonsocial3.png,,,"(-0.7, -0.5)",cs_neg_ns,"(-0.7, 0.5)",cs_neg_s,"(0.7, -0.5)",cs_pos_ns,"(0.7, 0.5)",cs_pos_s,0,0,0,0,,,,,,,,,,,,,,,,,,,,,0,1,1,15,,,,,,,,,,,,,,,,,,,,,,,,,,,72,reward,,,,,,899.2195296003483,899.2195296003483,899.2195296003483,899.2195296003483,0,,,0,,,1,0.03060860000550747,0.6279992000199854,0,,,900.4625605000183,900.4625605000183,900.4625605000183,900.4625605000183,12,B,2024-04-22_10h32.03.467,attentional_competition_task,2022.2.4,144.06917648733958,
positions.xlsx,positions_test.xlsx,positions_test_new.xlsx,stimuli.xlsx,stimuli_new.xlsx,stimuli/Social2.png,stimuli/Social1.png,stimuli/Nonsocial2.png,stimuli/Nonsocial1.png,stimuli/Social4.png,stimuli/Social3.png,stimuli/Nonsocial4.png,stimuli/Nonsocial3.png,,,"(-0.7, -0.5)",cs_neg_ns,"(-0.7, 0.5)",cs_pos_ns,"(0.7, -0.5)",cs_pos_s,"(0.7, 0.5)",cs_neg_s,0,0,0,0,,,,,,,,,,,,,,,,,,,,,0,2,2,16,,,,,,,,,,,,,,,,,,,,,,,,,,,78,reward,,,,,,908.3719848003238,908.3719848003238,908.3719848003238,908.3719848003238,0,,,1,0.029036900028586388,0.20996899995952845,1,0.28029549960047007,0.2803004998713732,0,,,908.6497347000986,908.6497347000986,908.6497347000986,908.6497347000986,12,B,2024-04-22_10h32.03.467,attentional_competition_task,2022.2.4,144.06917648733958,
positions.xlsx,positions_test.xlsx,positions_test_new.xlsx,stimuli.xlsx,stimuli_new.xlsx,stimuli/Social2.png,stimuli/Social1.png,stimuli/Nonsocial2.png,stimuli/Nonsocial1.png,stimuli/Social4.png,stimuli/Social3.png,stimuli/Nonsocial4.png,stimuli/Nonsocial3.png,,,"(-0.7, -0.5)",cs_neg_ns,"(-0.7, 0.5)",cs_pos_s,"(0.7, -0.5)",cs_neg_s,"(0.7, 0.5)",cs_pos_ns,0,0,0,0,,,,,,,,,,,,,,,,,,,,,0,3,3,12,,,,,,,,,,,,,,,,,,,,,,,,,,,87,reward,,,,,,917.2674600002356,917.2674600002356,917.2674600002356,917.2674600002356,0,,,1,0.025422100443392992,0.052015400025993586,0,,,0,,,917.8229775000364,917.8229775000364,917.8229775000364,917.8229775000364,12,B,2024-04-22_10h32.03.467,attentional_competition_task,2022.2.4,144.06917648733958,
positions.xlsx,positions_test.xlsx,positions_test_new.xlsx,stimuli.xlsx,stimuli_new.xlsx,stimuli/Social2.png,stimuli/Social1.png,stimuli/Nonsocial2.png,stimuli/Nonsocial1.png,stimuli/Social4.png,stimuli/Social3.png,stimuli/Nonsocial4.png,stimuli/Nonsocial3.png,,,"(-0.7, -0.5)",cs_pos_ns,"(-0.7, 0.5)",cs_neg_ns,"(0.7, -0.5)",cs_pos_s,"(0.7, 0.5)",cs_neg_s,0,0,0,0,,,,,,,,,,,,,,,,,,,,,0,4,4,20,,,,,,,,,,,,,,,,,,,,,,,,,,,93,reward,,,,,,925.5795665001497,925.5795665001497,925.5795665001497,925.5795665001497,1,0.43884840002283454,0.44614499993622303,0,,,1,0.03094859980046749,0.3845760999247432,0,,,926.0240268004127,926.0240268004127,926.0240268004127,926.0240268004127,12,B,2024-04-22_10h32.03.467,attentional_competition_task,2022.2.4,144.06917648733958,
positions.xlsx,positions_test.xlsx,positions_test_new.xlsx,stimuli.xlsx,stimuli_new.xlsx,stimuli/Social2.png,stimuli/Social1.png,stimuli/Nonsocial2.png,stimuli/Nonsocial1.png,stimuli/Social4.png,stimuli/Social3.png,stimuli/Nonsocial4.png,stimuli/Nonsocial3.png,,,"(-0.7, -0.5)",cs_neg_s,"(-0.7, 0.5)",cs_pos_ns,"(0.7, -0.5)",cs_pos_s,"(0.7, 0.5)",cs_neg_ns,0,0,0,0,,,,,,,,,,,,,,,,,,,,,0,5,5,4,,,,,,,,,,,,,,,,,,,,,,,,,,,102,reward,,,,,,933.8778475001454,933.8778475001454,933.8778475001454,933.8778475001454,0,,,1,0.03025449998676777,0.13484220020473003,0,,,0,,,934.5168055002578,934.5168055002578,934.5168055002578,934.5168055002578,12,B,2024-04-22_10h32.03.467,attentional_competition_task,2022.2.4,144.06917648733958,
positions.xlsx,positions_test.xlsx,positions_test_new.xlsx,stimuli.xlsx,stimuli_new.xlsx,stimuli/Social2.png,stimuli/Social1.png,stimuli/Nonsocial2.png,stimuli/Nonsocial1.png,stimuli/Social4.png,stimuli/Social3.png,stimuli/Nonsocial4.png,stimuli/Nonsocial3.png,,,"(-0.7, -0.5)",cs_pos_s,"(-0.7, 0.5)",cs_neg_ns,"(0.7, -0.5)",cs_pos_ns,"(0.7, 0.5)",cs_neg_s,0,0,0,0,,,,,,,,,,,,,,,,,,,,,0,6,6,9,,,,,,,,,,,,,,,,,,,,,,,,,,,111,reward,,,,,,942.5511133000255,942.5511133000255,942.5511133000255,942.5511133000255,1,0.02201260020956397,0.044849800411611795,0,,,0,,,0,,,943.1066725002602,943.1066725002602,943.1066725002602,943.1066725002602,12,B,2024-04-22_10h32.03.467,attentional_competition_task,2022.2.4,144.06917648733958,
positions.xlsx,positions_test.xlsx,positions_test_new.xlsx,stimuli.xlsx,stimuli_new.xlsx,stimuli/Social2.png,stimuli/Social1.png,stimuli/Nonsocial2.png,stimuli/Nonsocial1.png,stimuli/Social4.png,stimuli/Social3.png,stimuli/Nonsocial4.png,stimuli/Nonsocial3.png,,,"(-0.7, -0.5)",cs_neg_ns,"(-0.7, 0.5)",cs_neg_s,"(0.7, -0.5)",cs_pos_s,"(0.7, 0.5)",cs_pos_ns,0,0,0,0,,,,,,,,,,,,,,,,,,,,,0,7,7,14,,,,,,,,,,,,,,,,,,,,,,,,,,,111,loss,,,,,,950.1549754003063,950.1549754003063,950.1549754003063,950.1549754003063,1,0.46829909970983863,0.46830399986356497,0,,,1,0.03081890009343624,0.3916603000834584,0,,,950.6202676002868,950.6202676002868,950.6202676002868,950.6202676002868,12,B,2024-04-22_10h32.03.467,attentional_competition_task,2022.2.4,144.06917648733958,
positions.xlsx,positions_test.xlsx,positions_test_new.xlsx,stimuli.xlsx,stimuli_new.xlsx,stimuli/Social2.png,stimuli/Social1.png,stimuli/Nonsocial2.png,stimuli/Nonsocial1.png,stimuli/Social4.png,stimuli/Social3.png,stimuli/Nonsocial4.png,stimuli/Nonsocial3.png,,,"(-0.7, -0.5)",cs_pos_ns,"(-0.7, 0.5)",cs_neg_s,"(0.7, -0.5)",cs_neg_ns,"(0.7, 0.5)",cs_pos_s,0,0,0,0,,,,,,,,,,,,,,,,,,,,,0,8,8,23,,,,,,,,,,,,,,,,,,,,,,,,,,,117,reward,,,,,,958.5158242001198,958.5158242001198,958.5158242001198,958.5158242001198,1,0.027883299626410007,0.4055527998134494,0,,,0,,,1,0.48248849995434284,0.48249319987371564,958.9880393003114,958.9880393003114,958.9880393003114,958.9880393003114,12,B,2024-04-22_10h32.03.467,attentional_competition_task,2022.2.4,144.06917648733958,
positions.xlsx,positions_test.xlsx,positions_test_new.xlsx,stimuli.xlsx,stimuli_new.xlsx,stimuli/Social2.png,stimuli/Social1.png,stimuli/Nonsocial2.png,stimuli/Nonsocial1.png,stimuli/Social4.png,stimuli/Social3.png,stimuli/Nonsocial4.png,stimuli/Nonsocial3.png,,,"(-0.7, -0.5)",cs_neg_ns,"(-0.7, 0.5)",cs_pos_ns,"(0.7, -0.5)",cs_neg_s,"(0.7, 0.5)",cs_pos_s,0,0,0,0,,,,,,,,,,,,,,,,,,,,,0,9,9,17,,,,,,,,,,,,,,,,,,,,,,,,,,,123,reward,,,,,,967.3002125001512,967.3002125001512,967.3002125001512,967.3002125001512,0,,,1,0.0242853001691401,0.725263699889183,0,,,0,,,968.5223174002022,968.5223174002022,968.5223174002022,968.5223174002022,12,B,2024-04-22_10h32.03.467,attentional_competition_task,2022.2.4,144.06917648733958,
positions.xlsx,positions_test.xlsx,positions_test_new.xlsx,stimuli.xlsx,stimuli_new.xlsx,stimuli/Social2.png,stimuli/Social1.png,stimuli/Nonsocial2.png,stimuli/Nonsocial1.png,stimuli/Social4.png,stimuli/Social3.png,stimuli/Nonsocial4.png,stimuli/Nonsocial3.png,,,"(-0.7, -0.5)",cs_neg_s,"(-0.7, 0.5)",cs_pos_s,"(0.7, -0.5)",cs_neg_ns,"(0.7, 0.5)",cs_pos_ns,0,0,0,0,,,,,,,,,,,,,,,,,,,,,0,10,10,0,,,,,,,,,,,,,,,,,,,,,,,,,,,129,reward,,,,,,975.6817633002065,975.6817633002065,975.6817633002065,975.6817633002065,0,,,1,0.028055500239133835,0.4810367003083229,0,,,1,0.551212300080806,0.5512174000032246,976.2373654004186,976.2373654004186,976.2373654004186,976.2373654004186,12,B,2024-04-22_10h32.03.467,attentional_competition_task,2022.2.4,144.06917648733958,
positions.xlsx,positions_test.xlsx,positions_test_new.xlsx,stimuli.xlsx,stimuli_new.xlsx,stimuli/Social2.png,stimuli/Social1.png,stimuli/Nonsocial2.png,stimuli/Nonsocial1.png,stimuli/Social4.png,stimuli/Social3.png,stimuli/Nonsocial4.png,stimuli/Nonsocial3.png,,,"(-0.7, -0.5)",cs_pos_ns,"(-0.7, 0.5)",cs_pos_s,"(0.7, -0.5)",cs_neg_ns,"(0.7, 0.5)",cs_neg_s,0,0,0,0,,,,,,,,,,,,,,,,,,,,,0,11,11,18,,,,,,,,,,,,,,,,,,,,,,,,,,,126,loss,,,,,,984.6258109002374,984.6258109002374,984.6258109002374,984.6258109002374,0,,,0,,,0,,,0,,,985.6188509003259,985.6188509003259,985.6188509003259,985.6188509003259,12,B,2024-04-22_10h32.03.467,attentional_competition_task,2022.2.4,144.06917648733958,
positions.xlsx,positions_test.xlsx,positions_test_new.xlsx,stimuli.xlsx,stimuli_new.xlsx,stimuli/Social2.png,stimuli/Social1.png,stimuli/Nonsocial2.png,stimuli/Nonsocial1.png,stimuli/Social4.png,stimuli/Social3.png,stimuli/Nonsocial4.png,stimuli/Nonsocial3.png,,,"(-0.7, -0.5)",cs_neg_ns,"(-0.7, 0.5)",cs_pos_s,"(0.7, -0.5)",cs_pos_ns,"(0.7, 0.5)",cs_neg_s,0,0,0,0,,,,,,,,,,,,,,,,,,,,,0,12,12,13,,,,,,,,,,,,,,,,,,,,,,,,,,,135,reward,,,,,,993.6602509003133,993.6602509003133,993.6602509003133,993.6602509003133,1,0.15631609968841076,0.16927760001271963,1,0.022605199832469225,0.14258260000497103,0,,,0,,,994.4240776002407,994.4240776002407,994.4240776002407,994.4240776002407,12,B,2024-04-22_10h32.03.467,attentional_competition_task,2022.2.4,144.06917648733958,
positions.xlsx,positions_test.xlsx,positions_test_new.xlsx,stimuli.xlsx,stimuli_new.xlsx,stimuli/Social2.png,stimuli/Social1.png,stimuli/Nonsocial2.png,stimuli/Nonsocial1.png,stimuli/Social4.png,stimuli/Social3.png,stimuli/Nonsocial4.png,stimuli/Nonsocial3.png,,,"(-0.7, -0.5)",cs_pos_ns,"(-0.7, 0.5)",cs_pos_s,"(0.7, -0.5)",cs_neg_s,"(0.7, 0.5)",cs_neg_ns,0,0,0,0,,,,,,,,,,,,,,,,,,,,,0,13,13,19,,,,,,,,,,,,,,,,,,,,,,,,,,,144,reward,,,,,,1002.2084757001139,1002.2084757001139,1002.2084757001139,1002.2084757001139,1,0.024262199643999338,0.03811169974505901,0,,,0,,,0,,,1002.7500986000523,1002.7500986000523,1002.7500986000523,1002.7500986000523,12,B,2024-04-22_10h32.03.467,attentional_competition_task,2022.2.4,144.06917648733958,
positions.xlsx,positions_test.xlsx,positions_test_new.xlsx,stimuli.xlsx,stimuli_new.xlsx,stimuli/Social2.png,stimuli/Social1.png,stimuli/Nonsocial2.png,stimuli/Nonsocial1.png,stimuli/Social4.png,stimuli/Social3.png,stimuli/Nonsocial4.png,stimuli/Nonsocial3.png,,,"(-0.7, -0.5)",cs_pos_ns,"(-0.7, 0.5)",cs_neg_ns,"(0.7, -0.5)",cs_neg_s,"(0.7, 0.5)",cs_pos_s,0,0,0,0,,,,,,,,,,,,,,,,,,,,,0,14,14,21,,,,,,,,,,,,,,,,,,,,,,,,,,,147,loss,,,,,,1010.6317130001262,1010.6317130001262,1010.6317130001262,1010.6317130001262,0,,,0,,,1,0.2879335996694863,0.29520839964970946,1,0.026003899984061718,0.2811282998882234,1011.4302942003123,1011.4302942003123,1011.4302942003123,1011.4302942003123,12,B,2024-04-22_10h32.03.467,attentional_competition_task,2022.2.4,144.06917648733958,
positions.xlsx,positions_test.xlsx,positions_test_new.xlsx,stimuli.xlsx,stimuli_new.xlsx,stimuli/Social2.png,stimuli/Social1.png,stimuli/Nonsocial2.png,stimuli/Nonsocial1.png,stimuli/Social4.png,stimuli/Social3.png,stimuli/Nonsocial4.png,stimuli/Nonsocial3.png,,,"(-0.7, -0.5)",cs_pos_s,"(-0.7, 0.5)",cs_neg_s,"(0.7, -0.5)",cs_pos_ns,"(0.7, 0.5)",cs_neg_ns,0,0,0,0,,,,,,,,,,,,,,,,,,,,,0,15,15,7,,,,,,,,,,,,,,,,,,,,,,,,,,,156,reward,,,,,,1019.2286746003665,1019.2286746003665,1019.2286746003665,1019.2286746003665,0,,,0,,,0,,,0,,,1020.1175477001816,1020.1175477001816,1020.1175477001816,1020.1175477001816,12,B,2024-04-22_10h32.03.467,attentional_competition_task,2022.2.4,144.06917648733958,
positions.xlsx,positions_test.xlsx,positions_test_new.xlsx,stimuli.xlsx,stimuli_new.xlsx,stimuli/Social2.png,stimuli/Social1.png,stimuli/Nonsocial2.png,stimuli/Nonsocial1.png,stimuli/Social4.png,stimuli/Social3.png,stimuli/Nonsocial4.png,stimuli/Nonsocial3.png,,,"(-0.7, -0.5)",cs_pos_s,"(-0.7, 0.5)",cs_pos_ns,"(0.7, -0.5)",cs_neg_ns,"(0.7, 0.5)",cs_neg_s,0,0,0,0,,,,,,,,,,,,,,,,,,,,,0,16,16,11,,,,,,,,,,,,,,,,,,,,,,,,,,,165,reward,,,,,,1027.9643609002233,1027.9643609002233,1027.9643609002233,1027.9643609002233,1,0.023376400116831064,0.4055202999152243,0,,,0,,,0,,,1028.8740833001211,1028.8740833001211,1028.8740833001211,1028.8740833001211,12,B,2024-04-22_10h32.03.467,attentional_competition_task,2022.2.4,144.06917648733958,
positions.xlsx,positions_test.xlsx,positions_test_new.xlsx,stimuli.xlsx,stimuli_new.xlsx,stimuli/Social2.png,stimuli/Social1.png,stimuli/Nonsocial2.png,stimuli/Nonsocial1.png,stimuli/Social4.png,stimuli/Social3.png,stimuli/Nonsocial4.png,stimuli/Nonsocial3.png,,,"(-0.7, -0.5)",cs_neg_s,"(-0.7, 0.5)",cs_neg_ns,"(0.7, -0.5)",cs_pos_s,"(0.7, 0.5)",cs_pos_ns,0,0,0,0,,,,,,,,,,,,,,,,,,,,,0,17,17,2,,,,,,,,,,,,,,,,,,,,,,,,,,,162,loss,,,,,,1037.1237321002409,1037.1237321002409,1037.1237321002409,1037.1237321002409,0,,,1,0.20300129987299442,0.20970819983631372,0,,,0,,,1037.3320840001106,1037.3320840001106,1037.3320840001106,1037.3320840001106,12,B,2024-04-22_10h32.03.467,attentional_competition_task,2022.2.4,144.06917648733958,
positions.xlsx,positions_test.xlsx,positions_test_new.xlsx,stimuli.xlsx,stimuli_new.xlsx,stimuli/Social2.png,stimuli/Social1.png,stimuli/Nonsocial2.png,stimuli/Nonsocial1.png,stimuli/Social4.png,stimuli/Social3.png,stimuli/Nonsocial4.png,stimuli/Nonsocial3.png,,,"(-0.7, -0.5)",cs_pos_s,"(-0.7, 0.5)",cs_neg_ns,"(0.7, -0.5)",cs_neg_s,"(0.7, 0.5)",cs_pos_ns,0,0,0,0,,,,,,,,,,,,,,,,,,,,,0,18,18,8,,,,,,,,,,,,,,,,,,,,,,,,,,,165,reward,,,,,,1046.4219549000263,1046.4219549000263,1046.4219549000263,1046.4219549000263,1,0.023058900143951178,0.02306330017745495,0,,,0,,,0,,,1046.4219549000263,1046.4219549000263,1046.4219549000263,1046.4219549000263,12,B,2024-04-22_10h32.03.467,attentional_competition_task,2022.2.4,144.06917648733958,
positions.xlsx,positions_test.xlsx,positions_test_new.xlsx,stimuli.xlsx,stimuli_new.xlsx,stimuli/Social2.png,stimuli/Social1.png,stimuli/Nonsocial2.png,stimuli/Nonsocial1.png,stimuli/Social4.png,stimuli/Social3.png,stimuli/Nonsocial4.png,stimuli/Nonsocial3.png,,,"(-0.7, -0.5)",cs_neg_s,"(-0.7, 0.5)",cs_pos_ns,"(0.7, -0.5)",cs_neg_ns,"(0.7, 0.5)",cs_pos_s,0,0,0,0,,,,,,,,,,,,,,,,,,,,,0,19,19,5,,,,,,,,,,,,,,,,,,,,,,,,,,,174,reward,,,,,,1055.0813087001443,1055.0813087001443,1055.0813087001443,1055.0813087001443,0,,,0,,,0,,,1,0.031405100133270025,0.1285402998328209,1055.7063278001733,1055.7063278001733,1055.7063278001733,1055.7063278001733,12,B,2024-04-22_10h32.03.467,attentional_competition_task,2022.2.4,144.06917648733958,
positions.xlsx,positions_test.xlsx,positions_test_new.xlsx,stimuli.xlsx,stimuli_new.xlsx,stimuli/Social2.png,stimuli/Social1.png,stimuli/Nonsocial2.png,stimuli/Nonsocial1.png,stimuli/Social4.png,stimuli/Social3.png,stimuli/Nonsocial4.png,stimuli/Nonsocial3.png,,,"(-0.7, -0.5)",cs_pos_s,"(-0.7, 0.5)",cs_neg_s,"(0.7, -0.5)",cs_neg_ns,"(0.7, 0.5)",cs_pos_ns,0,0,0,0,,,,,,,,,,,,,,,,,,,,,0,20,20,6,,,,,,,,,,,,,,,,,,,,,,,,,,,183,reward,,,,,,1062.7962576001883,1062.7962576001883,1062.7962576001883,1062.7962576001883,1,0.024178400170058012,0.25968150002881885,0,,,0,,,0,,,1063.580995700322,1063.580995700322,1063.580995700322,1063.580995700322,12,B,2024-04-22_10h32.03.467,attentional_competition_task,2022.2.4,144.06917648733958,
positions.xlsx,positions_test.xlsx,positions_test_new.xlsx,stimuli.xlsx,stimuli_new.xlsx,stimuli/Social2.png,stimuli/Social1.png,stimuli/Nonsocial2.png,stimuli/Nonsocial1.png,stimuli/Social4.png,stimuli/Social3.png,stimuli/Nonsocial4.png,stimuli/Nonsocial3.png,,,"(-0.7, -0.5)",cs_pos_ns,"(-0.7, 0.5)",cs_neg_s,"(0.7, -0.5)",cs_pos_s,"(0.7, 0.5)",cs_neg_ns,0,0,0,0,,,,,,,,,,,,,,,,,,,,,0,21,21,22,,,,,,,,,,,,,,,,,,,,,,,,,,,189,reward,,,,,,1070.9209878002293,1070.9209878002293,1070.9209878002293,1070.9209878002293,1,0.029582299757748842,0.21810169983655214,0,,,1,0.3712662998586893,0.37789549957960844,0,,,1071.2959690000862,1071.2959690000862,1071.2959690000862,1071.2959690000862,12,B,2024-04-22_10h32.03.467,attentional_competition_task,2022.2.4,144.06917648733958,
positions.xlsx,positions_test.xlsx,positions_test_new.xlsx,stimuli.xlsx,stimuli_new.xlsx,stimuli/Social2.png,stimuli/Social1.png,stimuli/Nonsocial2.png,stimuli/Nonsocial1.png,stimuli/Social4.png,stimuli/Social3.png,stimuli/Nonsocial4.png,stimuli/Nonsocial3.png,,,"(-0.7, -0.5)",cs_pos_s,"(-0.7, 0.5)",cs_pos_ns,"(0.7, -0.5)",cs_neg_s,"(0.7, 0.5)",cs_neg_ns,0,0,0,0,,,,,,,,,,,,,,,,,,,,,0,22,22,10,,,,,,,,,,,,,,,,,,,,,,,,,,,189,loss,,,,,,1079.108148300089,1079.108148300089,1079.108148300089,1079.108148300089,0,,,1,0.027786199934780598,0.5302066998556256,1,0.6090589999221265,0.6090643997304142,0,,,1079.719288600143,1079.719288600143,1079.719288600143,1079.719288600143,12,B,2024-04-22_10h32.03.467,attentional_competition_task,2022.2.4,144.06917648733958,
positions.xlsx,positions_test.xlsx,positions_test_new.xlsx,stimuli.xlsx,stimuli_new.xlsx,stimuli/Social2.png,stimuli/Social1.png,stimuli/Nonsocial2.png,stimuli/Nonsocial1.png,stimuli/Social4.png,stimuli/Social3.png,stimuli/Nonsocial4.png,stimuli/Nonsocial3.png,,,"(-0.7, -0.5)",cs_neg_s,"(-0.7, 0.5)",cs_neg_ns,"(0.7, -0.5)",cs_pos_ns,"(0.7, 0.5)",cs_pos_s,0,0,0,0,,,,,,,,,,,,,,,,,,,,,0,23,23,3,,,,,,,,,,,,,,,,,,,,,,,,,,,195,reward,,,,,,1087.4828199003823,1087.4828199003823,1087.4828199003823,1087.4828199003823,0,,,0,,,1,0.46052159974351525,0.46052580000832677,1,0.02985209971666336,0.4469944001175463,1087.9411183004268,1087.9411183004268,1087.9411183004268,1087.9411183004268,12,B,2024-04-22_10h32.03.467,attentional_competition_task,2022.2.4,144.06917648733958,
positions.xlsx,positions_test.xlsx,positions_test_new.xlsx,stimuli.xlsx,stimuli_new.xlsx,stimuli/Social2.png,stimuli/Social1.png,stimuli/Nonsocial2.png,stimuli/Nonsocial1.png,stimuli/Social4.png,stimuli/Social3.png,stimuli/Nonsocial4.png,stimuli/Nonsocial3.png,,,"(-0.7, -0.5)",cs_neg_s,"(-0.7, 0.5)",cs_neg_ns,"(0.7, -0.5)",cs_pos_ns,"(0.7, 0.5)",cs_pos_s,0,0,0,0,,,,,,,,,,,,,,,,,,,,,1,0,24,3,,,,,,,,,,,,,,,,,,,,,,,,,,,204,reward,,,,,,1096.9060296001844,1096.9060296001844,1096.9060296001844,1096.9060296001844,0,,,0,,,0,,,1,0.02440530015155673,0.2812920003198087,1097.6907506003045,1097.6907506003045,1097.6907506003045,1097.6907506003045,12,B,2024-04-22_10h32.03.467,attentional_competition_task,2022.2.4,144.06917648733958,
positions.xlsx,positions_test.xlsx,positions_test_new.xlsx,stimuli.xlsx,stimuli_new.xlsx,stimuli/Social2.png,stimuli/Social1.png,stimuli/Nonsocial2.png,stimuli/Nonsocial1.png,stimuli/Social4.png,stimuli/Social3.png,stimuli/Nonsocial4.png,stimuli/Nonsocial3.png,,,"(-0.7, -0.5)",cs_neg_s,"(-0.7, 0.5)",cs_pos_ns,"(0.7, -0.5)",cs_neg_ns,"(0.7, 0.5)",cs_pos_s,0,0,0,0,,,,,,,,,,,,,,,,,,,,,1,1,25,5,,,,,,,,,,,,,,,,,,,,,,,,,,,213,reward,,,,,,1106.3570709000342,1106.3570709000342,1106.3570709000342,1106.3570709000342,0,,,0,,,0,,,1,0.028080299962311983,0.21692909998819232,1107.0723791001365,1107.0723791001365,1107.0723791001365,1107.0723791001365,12,B,2024-04-22_10h32.03.467,attentional_competition_task,2022.2.4,144.06917648733958,
positions.xlsx,positions_test.xlsx,positions_test_new.xlsx,stimuli.xlsx,stimuli_new.xlsx,stimuli/Social2.png,stimuli/Social1.png,stimuli/Nonsocial2.png,stimuli/Nonsocial1.png,stimuli/Social4.png,stimuli/Social3.png,stimuli/Nonsocial4.png,stimuli/Nonsocial3.png,,,"(-0.7, -0.5)",cs_pos_s,"(-0.7, 0.5)",cs_neg_ns,"(0.7, -0.5)",cs_pos_ns,"(0.7, 0.5)",cs_neg_s,0,0,0,0,,,,,,,,,,,,,,,,,,,,,1,2,26,9,,,,,,,,,,,,,,,,,,,,,,,,,,,210,loss,,,,,,1114.6206700000912,1114.6206700000912,1114.6206700000912,1114.6206700000912,0,,,0,,,0,,,1,0.028623500373214483,0.028628299944102764,1114.6206700000912,1114.6206700000912,1114.6206700000912,1114.6206700000912,12,B,2024-04-22_10h32.03.467,attentional_competition_task,2022.2.4,144.06917648733958,
positions.xlsx,positions_test.xlsx,positions_test_new.xlsx,stimuli.xlsx,stimuli_new.xlsx,stimuli/Social2.png,stimuli/Social1.png,stimuli/Nonsocial2.png,stimuli/Nonsocial1.png,stimuli/Social4.png,stimuli/Social3.png,stimuli/Nonsocial4.png,stimuli/Nonsocial3.png,,,"(-0.7, -0.5)",cs_pos_ns,"(-0.7, 0.5)",cs_neg_s,"(0.7, -0.5)",cs_pos_s,"(0.7, 0.5)",cs_neg_ns,0,0,0,0,,,,,,,,,,,,,,,,,,,,,1,3,27,22,,,,,,,,,,,,,,,,,,,,,,,,,,,213,reward,,,,,,1122.9119169004261,1122.9119169004261,1122.9119169004261,1122.9119169004261,0,,,0,,,1,0.024652699939906597,0.024657299742102623,0,,,1122.9119169004261,1122.9119169004261,1122.9119169004261,1122.9119169004261,12,B,2024-04-22_10h32.03.467,attentional_competition_task,2022.2.4,144.06917648733958,
positions.xlsx,positions_test.xlsx,positions_test_new.xlsx,stimuli.xlsx,stimuli_new.xlsx,stimuli/Social2.png,stimuli/Social1.png,stimuli/Nonsocial2.png,stimuli/Nonsocial1.png,stimuli/Social4.png,stimuli/Social3.png,stimuli/Nonsocial4.png,stimuli/Nonsocial3.png,,,"(-0.7, -0.5)",cs_pos_s,"(-0.7, 0.5)",cs_neg_s,"(0.7, -0.5)",cs_pos_ns,"(0.7, 0.5)",cs_neg_ns,0,0,0,0,,,,,,,,,,,,,,,,,,,,,1,4,28,7,,,,,,,,,,,,,,,,,,,,,,,,,,,219,reward,,,,,,1131.106023200322,1131.106023200322,1131.106023200322,1131.106023200322,1,0.030784099828451872,0.4258309002034366,0,,,1,0.4887824999168515,0.48878710018470883,0,,,1131.5921508003958,1131.5921508003958,1131.5921508003958,1131.5921508003958,12,B,2024-04-22_10h32.03.467,attentional_competition_task,2022.2.4,144.06917648733958,
positions.xlsx,positions_test.xlsx,positions_test_new.xlsx,stimuli.xlsx,stimuli_new.xlsx,stimuli/Social2.png,stimuli/Social1.png,stimuli/Nonsocial2.png,stimuli/Nonsocial1.png,stimuli/Social4.png,stimuli/Social3.png,stimuli/Nonsocial4.png,stimuli/Nonsocial3.png,,,"(-0.7, -0.5)",cs_neg_ns,"(-0.7, 0.5)",cs_neg_s,"(0.7, -0.5)",cs_pos_s,"(0.7, 0.5)",cs_pos_ns,0,0,0,0,,,,,,,,,,,,,,,,,,,,,1,5,29,14,,,,,,,,,,,,,,,,,,,,,,,,,,,222,reward,,,,,,1140.3626515003853,1140.3626515003853,1140.3626515003853,1140.3626515003853,0,,,0,,,1,0.031137899961322546,0.031142699997872114,0,,,1140.3626515003853,1140.3626515003853,1140.3626515003853,1140.3626515003853,12,B,2024-04-22_10h32.03.467,attentional_competition_task,2022.2.4,144.06917648733958,
positions.xlsx,positions_test.xlsx,positions_test_new.xlsx,stimuli.xlsx,stimuli_new.xlsx,stimuli/Social2.png,stimuli/Social1.png,stimuli/Nonsocial2.png,stimuli/Nonsocial1.png,stimuli/Social4.png,stimuli/Social3.png,stimuli/Nonsocial4.png,stimuli/Nonsocial3.png,,,"(-0.7, -0.5)",cs_pos_ns,"(-0.7, 0.5)",cs_pos_s,"(0.7, -0.5)",cs_neg_ns,"(0.7, 0.5)",cs_neg_s,0,0,0,0,,,,,,,,,,,,,,,,,,,,,1,6,30,18,,,,,,,,,,,,,,,,,,,,,,,,,,,231,reward,,,,,,1148.2651099003851,1148.2651099003851,1148.2651099003851,1148.2651099003851,1,0.03020839998498559,0.12007519975304604,0,,,0,,,0,,,1148.883117200341,1148.883117200341,1148.883117200341,1148.883117200341,12,B,2024-04-22_10h32.03.467,attentional_competition_task,2022.2.4,144.06917648733958,
positions.xlsx,positions_test.xlsx,positions_test_new.xlsx,stimuli.xlsx,stimuli_new.xlsx,stimuli/Social2.png,stimuli/Social1.png,stimuli/Nonsocial2.png,stimuli/Nonsocial1.png,stimuli/Social4.png,stimuli/Social3.png,stimuli/Nonsocial4.png,stimuli/Nonsocial3.png,,,"(-0.7, -0.5)",cs_neg_s,"(-0.7, 0.5)",cs_pos_ns,"(0.7, -0.5)",cs_pos_s,"(0.7, 0.5)",cs_neg_ns,0,0,0,0,,,,,,,,,,,,,,,,,,,,,1,7,31,4,,,,,,,,,,,,,,,,,,,,,,,,,,,240,reward,,,,,,1156.625863100402,1156.625863100402,1156.625863100402,1156.625863100402,0,,,1,0.028814800083637238,0.11942279990762472,0,,,0,,,1157.2438819999807,1157.2438819999807,1157.2438819999807,1157.2438819999807,12,B,2024-04-22_10h32.03.467,attentional_competition_task,2022.2.4,144.06917648733958,
positions.xlsx,positions_test.xlsx,positions_test_new.xlsx,stimuli.xlsx,stimuli_new.xlsx,stimuli/Social2.png,stimuli/Social1.png,stimuli/Nonsocial2.png,stimuli/Nonsocial1.png,stimuli/Social4.png,stimuli/Social3.png,stimuli/Nonsocial4.png,stimuli/Nonsocial3.png,,,"(-0.7, -0.5)",cs_pos_ns,"(-0.7, 0.5)",cs_pos_s,"(0.7, -0.5)",cs_neg_s,"(0.7, 0.5)",cs_neg_ns,0,0,0,0,,,,,,,,,,,,,,,,,,,,,1,8,32,19,,,,,,,,,,,,,,,,,,,,,,,,,,,249,reward,,,,,,1164.8199841002934,1164.8199841002934,1164.8199841002934,1164.8199841002934,0,,,1,0.029769899789243937,0.1133313998579979,0,,,0,,,1165.736607100349,1165.736607100349,1165.736607100349,1165.736607100349,12,B,2024-04-22_10h32.03.467,attentional_competition_task,2022.2.4,144.06917648733958,
positions.xlsx,positions_test.xlsx,positions_test_new.xlsx,stimuli.xlsx,stimuli_new.xlsx,stimuli/Social2.png,stimuli/Social1.png,stimuli/Nonsocial2.png,stimuli/Nonsocial1.png,stimuli/Social4.png,stimuli/Social3.png,stimuli/Nonsocial4.png,stimuli/Nonsocial3.png,,,"(-0.7, -0.5)",cs_pos_ns,"(-0.7, 0.5)",cs_neg_s,"(0.7, -0.5)",cs_neg_ns,"(0.7, 0.5)",cs_pos_s,0,0,0,0,,,,,,,,,,,,,,,,,,,,,1,9,33,23,,,,,,,,,,,,,,,,,,,,,,,,,,,258,reward,,,,,,1173.2363150003366,1173.2363150003366,1173.2363150003366,1173.2363150003366,0,,,0,,,0,,,1,0.029333400074392557,0.25880439998582006,1174.0001876000315,1174.0001876000315,1174.0001876000315,1174.0001876000315,12,B,2024-04-22_10h32.03.467,attentional_competition_task,2022.2.4,144.06917648733958,
positions.xlsx,positions_test.xlsx,positions_test_new.xlsx,stimuli.xlsx,stimuli_new.xlsx,stimuli/Social2.png,stimuli/Social1.png,stimuli/Nonsocial2.png,stimuli/Nonsocial1.png,stimuli/Social4.png,stimuli/Social3.png,stimuli/Nonsocial4.png,stimuli/Nonsocial3.png,,,"(-0.7, -0.5)",cs_neg_ns,"(-0.7, 0.5)",cs_pos_ns,"(0.7, -0.5)",cs_pos_s,"(0.7, 0.5)",cs_neg_s,0,0,0,0,,,,,,,,,,,,,,,,,,,,,1,10,34,16,,,,,,,,,,,,,,,,,,,,,,,,,,,267,reward,,,,,,1181.5554270003922,1181.5554270003922,1181.5554270003922,1181.5554270003922,0,,,0,,,1,0.029934899881482124,0.11431879969313741,0,,,1182.1734469002113,1182.1734469002113,1182.1734469002113,1182.1734469002113,12,B,2024-04-22_10h32.03.467,attentional_competition_task,2022.2.4,144.06917648733958,
positions.xlsx,positions_test.xlsx,positions_test_new.xlsx,stimuli.xlsx,stimuli_new.xlsx,stimuli/Social2.png,stimuli/Social1.png,stimuli/Nonsocial2.png,stimuli/Nonsocial1.png,stimuli/Social4.png,stimuli/Social3.png,stimuli/Nonsocial4.png,stimuli/Nonsocial3.png,,,"(-0.7, -0.5)",cs_neg_ns,"(-0.7, 0.5)",cs_neg_s,"(0.7, -0.5)",cs_pos_ns,"(0.7, 0.5)",cs_pos_s,0,0,0,0,,,,,,,,,,,,,,,,,,,,,1,11,35,15,,,,,,,,,,,,,,,,,,,,,,,,,,,276,reward,,,,,,1190.8328025001101,1190.8328025001101,1190.8328025001101,1190.8328025001101,0,,,0,,,0,,,1,0.029740399681031704,0.21162199974060059,1191.5480666002259,1191.5480666002259,1191.5480666002259,1191.5480666002259,12,B,2024-04-22_10h32.03.467,attentional_competition_task,2022.2.4,144.06917648733958,
positions.xlsx,positions_test.xlsx,positions_test_new.xlsx,stimuli.xlsx,stimuli_new.xlsx,stimuli/Social2.png,stimuli/Social1.png,stimuli/Nonsocial2.png,stimuli/Nonsocial1.png,stimuli/Social4.png,stimuli/Social3.png,stimuli/Nonsocial4.png,stimuli/Nonsocial3.png,,,"(-0.7, -0.5)",cs_pos_s,"(-0.7, 0.5)",cs_pos_ns,"(0.7, -0.5)",cs_neg_ns,"(0.7, 0.5)",cs_neg_s,0,0,0,0,,,,,,,,,,,,,,,,,,,,,1,12,36,11,,,,,,,,,,,,,,,,,,,,,,,,,,,285,reward,,,,,,1199.5963644003496,1199.5963644003496,1199.5963644003496,1199.5963644003496,0,,,0,,,0,,,0,,,1200.5477183000185,1200.5477183000185,1200.5477183000185,1200.5477183000185,12,B,2024-04-22_10h32.03.467,attentional_competition_task,2022.2.4,144.06917648733958,
positions.xlsx,positions_test.xlsx,positions_test_new.xlsx,stimuli.xlsx,stimuli_new.xlsx,stimuli/Social2.png,stimuli/Social1.png,stimuli/Nonsocial2.png,stimuli/Nonsocial1.png,stimuli/Social4.png,stimuli/Social3.png,stimuli/Nonsocial4.png,stimuli/Nonsocial3.png,,,"(-0.7, -0.5)",cs_neg_s,"(-0.7, 0.5)",cs_pos_s,"(0.7, -0.5)",cs_pos_ns,"(0.7, 0.5)",cs_neg_ns,0,0,0,0,,,,,,,,,,,,,,,,,,,,,1,13,37,1,,,,,,,,,,,,,,,,,,,,,,,,,,,291,reward,,,,,,1207.123869500123,1207.123869500123,1207.123869500123,1207.123869500123,0,,,1,0.29454899998381734,0.30138029996305704,1,0.03215580014511943,0.22541660023853183,0,,,1207.4224372003227,1207.4224372003227,1207.4224372003227,1207.4224372003227,12,B,2024-04-22_10h32.03.467,attentional_competition_task,2022.2.4,144.06917648733958,
positions.xlsx,positions_test.xlsx,positions_test_new.xlsx,stimuli.xlsx,stimuli_new.xlsx,stimuli/Social2.png,stimuli/Social1.png,stimuli/Nonsocial2.png,stimuli/Nonsocial1.png,stimuli/Social4.png,stimuli/Social3.png,stimuli/Nonsocial4.png,stimuli/Nonsocial3.png,,,"(-0.7, -0.5)",cs_neg_ns,"(-0.7, 0.5)",cs_pos_s,"(0.7, -0.5)",cs_pos_ns,"(0.7, 0.5)",cs_neg_s,0,0,0,0,,,,,,,,,,,,,,,,,,,,,1,14,38,13,,,,,,,,,,,,,,,,,,,,,,,,,,,300,reward,,,,,,1216.6929060001858,1216.6929060001858,1216.6929060001858,1216.6929060001858,0,,,0,,,1,0.025102700106799603,0.20545689994469285,0,,,1217.4012152003124,1217.4012152003124,1217.4012152003124,1217.4012152003124,12,B,2024-04-22_10h32.03.467,attentional_competition_task,2022.2.4,144.06917648733958,
positions.xlsx,positions_test.xlsx,positions_test_new.xlsx,stimuli.xlsx,stimuli_new.xlsx,stimuli/Social2.png,stimuli/Social1.png,stimuli/Nonsocial2.png,stimuli/Nonsocial1.png,stimuli/Social4.png,stimuli/Social3.png,stimuli/Nonsocial4.png,stimuli/Nonsocial3.png,,,"(-0.7, -0.5)",cs_pos_ns,"(-0.7, 0.5)",cs_neg_ns,"(0.7, -0.5)",cs_neg_s,"(0.7, 0.5)",cs_pos_s,0,0,0,0,,,,,,,,,,,,,,,,,,,,,1,15,39,21,,,,,,,,,,,,,,,,,,,,,,,,,,,306,reward,,,,,,1224.3870090004057,1224.3870090004057,1224.3870090004057,1224.3870090004057,1,0.40436549996957183,0.41132270032539964,0,,,0,,,1,0.02976590022444725,0.22476910008117557,1224.8036810001358,1224.8036810001358,1224.8036810001358,1224.8036810001358,12,B,2024-04-22_10h32.03.467,attentional_competition_task,2022.2.4,144.06917648733958,
positions.xlsx,positions_test.xlsx,positions_test_new.xlsx,stimuli.xlsx,stimuli_new.xlsx,stimuli/Social2.png,stimuli/Social1.png,stimuli/Nonsocial2.png,stimuli/Nonsocial1.png,stimuli/Social4.png,stimuli/Social3.png,stimuli/Nonsocial4.png,stimuli/Nonsocial3.png,,,"(-0.7, -0.5)",cs_neg_ns,"(-0.7, 0.5)",cs_pos_ns,"(0.7, -0.5)",cs_neg_s,"(0.7, 0.5)",cs_pos_s,0,0,0,0,,,,,,,,,,,,,,,,,,,,,1,16,40,17,,,,,,,,,,,,,,,,,,,,,,,,,,,312,reward,,,,,,1232.8727979999967,1232.8727979999967,1232.8727979999967,1232.8727979999967,0,,,1,0.029662899672985077,0.4948903997428715,0,,,1,0.5722143999300897,0.5722189997322857,1233.442197300028,1233.442197300028,1233.442197300028,1233.442197300028,12,B,2024-04-22_10h32.03.467,attentional_competition_task,2022.2.4,144.06917648733958,
positions.xlsx,positions_test.xlsx,positions_test_new.xlsx,stimuli.xlsx,stimuli_new.xlsx,stimuli/Social2.png,stimuli/Social1.png,stimuli/Nonsocial2.png,stimuli/Nonsocial1.png,stimuli/Social4.png,stimuli/Social3.png,stimuli/Nonsocial4.png,stimuli/Nonsocial3.png,,,"(-0.7, -0.5)",cs_neg_s,"(-0.7, 0.5)",cs_neg_ns,"(0.7, -0.5)",cs_pos_s,"(0.7, 0.5)",cs_pos_ns,0,0,0,0,,,,,,,,,,,,,,,,,,,,,1,17,41,2,,,,,,,,,,,,,,,,,,,,,,,,,,,321,reward,,,,,,1241.6710814000107,1241.6710814000107,1241.6710814000107,1241.6710814000107,0,,,0,,,1,0.024496400263160467,0.19788100011646748,0,,,1242.3724217000417,1242.3724217000417,1242.3724217000417,1242.3724217000417,12,B,2024-04-22_10h32.03.467,attentional_competition_task,2022.2.4,144.06917648733958,
positions.xlsx,positions_test.xlsx,positions_test_new.xlsx,stimuli.xlsx,stimuli_new.xlsx,stimuli/Social2.png,stimuli/Social1.png,stimuli/Nonsocial2.png,stimuli/Nonsocial1.png,stimuli/Social4.png,stimuli/Social3.png,stimuli/Nonsocial4.png,stimuli/Nonsocial3.png,,,"(-0.7, -0.5)",cs_pos_ns,"(-0.7, 0.5)",cs_neg_ns,"(0.7, -0.5)",cs_pos_s,"(0.7, 0.5)",cs_neg_s,0,0,0,0,,,,,,,,,,,,,,,,,,,,,1,18,42,20,,,,,,,,,,,,,,,,,,,,,,,,,,,324,reward,,,,,,1250.7887479001656,1250.7887479001656,1250.7887479001656,1250.7887479001656,0,,,0,,,1,0.028445499949157238,0.028450199868530035,0,,,1250.7887479001656,1250.7887479001656,1250.7887479001656,1250.7887479001656,12,B,2024-04-22_10h32.03.467,attentional_competition_task,2022.2.4,144.06917648733958,
positions.xlsx,positions_test.xlsx,positions_test_new.xlsx,stimuli.xlsx,stimuli_new.xlsx,stimuli/Social2.png,stimuli/Social1.png,stimuli/Nonsocial2.png,stimuli/Nonsocial1.png,stimuli/Social4.png,stimuli/Social3.png,stimuli/Nonsocial4.png,stimuli/Nonsocial3.png,,,"(-0.7, -0.5)",cs_pos_s,"(-0.7, 0.5)",cs_neg_s,"(0.7, -0.5)",cs_neg_ns,"(0.7, 0.5)",cs_pos_ns,0,0,0,0,,,,,,,,,,,,,,,,,,,,,1,19,43,6,,,,,,,,,,,,,,,,,,,,,,,,,,,330,reward,,,,,,1258.2745687002316,1258.2745687002316,1258.2745687002316,1258.2745687002316,1,0.030037600081413984,0.09232839988544583,0,,,0,,,1,0.16971129970625043,0.1697160000912845,1258.4412528001703,1258.4412528001703,1258.4412528001703,1258.4412528001703,12,B,2024-04-22_10h32.03.467,attentional_competition_task,2022.2.4,144.06917648733958,
positions.xlsx,positions_test.xlsx,positions_test_new.xlsx,stimuli.xlsx,stimuli_new.xlsx,stimuli/Social2.png,stimuli/Social1.png,stimuli/Nonsocial2.png,stimuli/Nonsocial1.png,stimuli/Social4.png,stimuli/Social3.png,stimuli/Nonsocial4.png,stimuli/Nonsocial3.png,,,"(-0.7, -0.5)",cs_neg_ns,"(-0.7, 0.5)",cs_pos_s,"(0.7, -0.5)",cs_neg_s,"(0.7, 0.5)",cs_pos_ns,0,0,0,0,,,,,,,,,,,,,,,,,,,,,1,20,44,12,,,,,,,,,,,,,,,,,,,,,,,,,,,339,reward,,,,,,1268.0450826999731,1268.0450826999731,1268.0450826999731,1268.0450826999731,0,,,0,,,0,,,1,0.030367800034582615,0.030372700188308954,1268.0450826999731,1268.0450826999731,1268.0450826999731,1268.0450826999731,12,B,2024-04-22_10h32.03.467,attentional_competition_task,2022.2.4,144.06917648733958,
positions.xlsx,positions_test.xlsx,positions_test_new.xlsx,stimuli.xlsx,stimuli_new.xlsx,stimuli/Social2.png,stimuli/Social1.png,stimuli/Nonsocial2.png,stimuli/Nonsocial1.png,stimuli/Social4.png,stimuli/Social3.png,stimuli/Nonsocial4.png,stimuli/Nonsocial3.png,,,"(-0.7, -0.5)",cs_neg_s,"(-0.7, 0.5)",cs_pos_s,"(0.7, -0.5)",cs_neg_ns,"(0.7, 0.5)",cs_pos_ns,0,0,0,0,,,,,,,,,,,,,,,,,,,,,1,21,45,0,,,,,,,,,,,,,,,,,,,,,,,,,,,345,reward,,,,,,1275.5099742002785,1275.5099742002785,1275.5099742002785,1275.5099742002785,0,,,1,0.1969734998419881,0.19697789987549186,0,,,1,0.029662000015378,0.127821599598974,1275.7113298000768,1275.7113298000768,1275.7113298000768,1275.7113298000768,12,B,2024-04-22_10h32.03.467,attentional_competition_task,2022.2.4,144.06917648733958,
positions.xlsx,positions_test.xlsx,positions_test_new.xlsx,stimuli.xlsx,stimuli_new.xlsx,stimuli/Social2.png,stimuli/Social1.png,stimuli/Nonsocial2.png,stimuli/Nonsocial1.png,stimuli/Social4.png,stimuli/Social3.png,stimuli/Nonsocial4.png,stimuli/Nonsocial3.png,,,"(-0.7, -0.5)",cs_pos_s,"(-0.7, 0.5)",cs_neg_ns,"(0.7, -0.5)",cs_neg_s,"(0.7, 0.5)",cs_pos_ns,0,0,0,0,,,,,,,,,,,,,,,,,,,,,1,22,46,8,,,,,,,,,,,,,,,,,,,,,,,,,,,354,reward,,,,,,1283.5166091001593,1283.5166091001593,1283.5166091001593,1283.5166091001593,1,0.03202229971066117,0.19657199969515204,0,,,0,,,0,,,1284.211031800136,1284.211031800136,1284.211031800136,1284.211031800136,12,B,2024-04-22_10h32.03.467,attentional_competition_task,2022.2.4,144.06917648733958,
positions.xlsx,positions_test.xlsx,positions_test_new.xlsx,stimuli.xlsx,stimuli_new.xlsx,stimuli/Social2.png,stimuli/Social1.png,stimuli/Nonsocial2.png,stimuli/Nonsocial1.png,stimuli/Social4.png,stimuli/Social3.png,stimuli/Nonsocial4.png,stimuli/Nonsocial3.png,,,"(-0.7, -0.5)",cs_pos_s,"(-0.7, 0.5)",cs_pos_ns,"(0.7, -0.5)",cs_neg_s,"(0.7, 0.5)",cs_neg_ns,0,0,0,0,,,,,,,,,,,,,,,,,,,,,1,23,47,10,,,,,,,,,,,,,,,,,,,,,,,,,,,357,reward,,,,,,1292.3009646004066,1292.3009646004066,1292.3009646004066,1292.3009646004066,1,0.029005400370806456,0.029010300058871508,0,,,0,,,0,,,1292.3009646004066,1292.3009646004066,1292.3009646004066,1292.3009646004066,12,B,2024-04-22_10h32.03.467,attentional_competition_task,2022.2.4,144.06917648733958,
positions.xlsx,positions_test.xlsx,positions_test_new.xlsx,stimuli.xlsx,stimuli_new.xlsx,stimuli/Social2.png,stimuli/Social1.png,stimuli/Nonsocial2.png,stimuli/Nonsocial1.png,stimuli/Social4.png,stimuli/Social3.png,stimuli/Nonsocial4.png,stimuli/Nonsocial3.png,,,"(-0.7, -0.5)",cs_neg_s,"(-0.7, 0.5)",cs_pos_s,"(0.7, -0.5)",cs_neg_ns_new,"(0.7, 0.5)",cs_pos_ns,0,0,0,0,,,,,,,,,,,,,,,,,,,,,,,,,,,,,0,0,0,25,0,0,0,0,,,,,,,,,,,,,,,360,reward,,,,,,1298.5299098002724,1298.5299098002724,1298.5299098002724,1298.5299098002724,0,,,0,,,0,,,1,0.661376700270921,0.6613811999559402,1299.1965041002259,1299.1965041002259,1299.1965041002259,1299.1965041002259,12,B,2024-04-22_10h32.03.467,attentional_competition_task,2022.2.4,144.06917648733958,
positions.xlsx,positions_test.xlsx,positions_test_new.xlsx,stimuli.xlsx,stimuli_new.xlsx,stimuli/Social2.png,stimuli/Social1.png,stimuli/Nonsocial2.png,stimuli/Nonsocial1.png,stimuli/Social4.png,stimuli/Social3.png,stimuli/Nonsocial4.png,stimuli/Nonsocial3.png,,,"(-0.7, -0.5)",cs_neg_s,"(-0.7, 0.5)",cs_pos_s,"(0.7, -0.5)",cs_neg_ns_new,"(0.7, 0.5)",cs_pos_ns,0,0,0,0,,,,,,,,,,,,,,,,,,,,,,,,,,,,,0,0,0,25,1,0,1,0,,,,,,,,,,,,,,,363,reward,,,,,,1299.7034475002438,1299.7034475002438,1299.7034475002438,1299.7034475002438,0,,,1,0.1906849998049438,0.19069019984453917,0,,,0,,,1299.890940300189,1299.890940300189,1299.890940300189,1299.890940300189,12,B,2024-04-22_10h32.03.467,attentional_competition_task,2022.2.4,144.06917648733958,
positions.xlsx,positions_test.xlsx,positions_test_new.xlsx,stimuli.xlsx,stimuli_new.xlsx,stimuli/Social2.png,stimuli/Social1.png,stimuli/Nonsocial2.png,stimuli/Nonsocial1.png,stimuli/Social4.png,stimuli/Social3.png,stimuli/Nonsocial4.png,stimuli/Nonsocial3.png,,,"(-0.7, -0.5)",cs_neg_s,"(-0.7, 0.5)",cs_pos_s,"(0.7, -0.5)",cs_neg_ns_new,"(0.7, 0.5)",cs_pos_ns,0,0,0,0,,,,,,,,,,,,,,,,,,,,,,,,,,,,,0,0,0,25,2,0,2,0,,,,,,,,,,,,,,,360,loss,,,,,,1300.425659800414,1300.425659800414,1300.425659800414,1300.425659800414,1,0.030565500259399414,0.030582800041884184,0,,,0,,,0,,,1300.425659800414,1300.425659800414,1300.425659800414,1300.425659800414,12,B,2024-04-22_10h32.03.467,attentional_competition_task,2022.2.4,144.06917648733958,
positions.xlsx,positions_test.xlsx,positions_test_new.xlsx,stimuli.xlsx,stimuli_new.xlsx,stimuli/Social2.png,stimuli/Social1.png,stimuli/Nonsocial2.png,stimuli/Nonsocial1.png,stimuli/Social4.png,stimuli/Social3.png,stimuli/Nonsocial4.png,stimuli/Nonsocial3.png,,,"(-0.7, -0.5)",cs_neg_s,"(-0.7, 0.5)",cs_pos_s,"(0.7, -0.5)",cs_neg_ns_new,"(0.7, 0.5)",cs_pos_ns,0,0,0,0,,,,,,,,,,,,,,,,,,,,,,,,,,,,,0,0,0,25,,,,,,,,,,,,,,,,,,,,,,,,,,,,,,,,,,,,,,,,,,,,,,12,B,2024-04-22_10h32.03.467,attentional_competition_task,2022.2.4,144.06917648733958,
positions.xlsx,positions_test.xlsx,positions_test_new.xlsx,stimuli.xlsx,stimuli_new.xlsx,stimuli/Social2.png,stimuli/Social1.png,stimuli/Nonsocial2.png,stimuli/Nonsocial1.png,stimuli/Social4.png,stimuli/Social3.png,stimuli/Nonsocial4.png,stimuli/Nonsocial3.png,,,"(-0.7, -0.5)",cs_neg_ns,"(-0.7, 0.5)",cs_pos_s,"(0.7, -0.5)",cs_neg_s,"(0.7, 0.5)",cs_pos_ns,0,0,0,0,,,,,,,,,,,,,,,,,,,,,,,,,,,,,0,1,1,4,0,0,0,0,,,,,,,,,,,,,,,363,reward,,,,,,1307.9739924999885,1307.9739924999885,1307.9739924999885,1307.9739924999885,0,,,0,,,0,,,1,0.6557052000425756,0.662047800142318,1308.6406204001978,1308.6406204001978,1308.6406204001978,1308.6406204001978,12,B,2024-04-22_10h32.03.467,attentional_competition_task,2022.2.4,144.06917648733958,
positions.xlsx,positions_test.xlsx,positions_test_new.xlsx,stimuli.xlsx,stimuli_new.xlsx,stimuli/Social2.png,stimuli/Social1.png,stimuli/Nonsocial2.png,stimuli/Nonsocial1.png,stimuli/Social4.png,stimuli/Social3.png,stimuli/Nonsocial4.png,stimuli/Nonsocial3.png,,,"(-0.7, -0.5)",cs_neg_ns,"(-0.7, 0.5)",cs_pos_s,"(0.7, -0.5)",cs_neg_s,"(0.7, 0.5)",cs_pos_ns,0,0,0,0,,,,,,,,,,,,,,,,,,,,,,,,,,,,,0,1,1,4,1,0,1,0,,,,,,,,,,,,,,,366,reward,,,,,,1309.1475622002035,1309.1475622002035,1309.1475622002035,1309.1475622002035,0,,,1,0.29408909985795617,0.2940936000086367,0,,,1,0.036447299644351006,0.2403082000091672,1309.4322279002517,1309.4322279002517,1309.4322279002517,1309.4322279002517,12,B,2024-04-22_10h32.03.467,attentional_competition_task,2022.2.4,144.06917648733958,
positions.xlsx,positions_test.xlsx,positions_test_new.xlsx,stimuli.xlsx,stimuli_new.xlsx,stimuli/Social2.png,stimuli/Social1.png,stimuli/Nonsocial2.png,stimuli/Nonsocial1.png,stimuli/Social4.png,stimuli/Social3.png,stimuli/Nonsocial4.png,stimuli/Nonsocial3.png,,,"(-0.7, -0.5)",cs_neg_ns,"(-0.7, 0.5)",cs_pos_s,"(0.7, -0.5)",cs_neg_s,"(0.7, 0.5)",cs_pos_ns,0,0,0,0,,,,,,,,,,,,,,,,,,,,,,,,,,,,,0,1,1,4,2,0,2,0,,,,,,,,,,,,,,,369,reward,,,,,,1309.9322141003795,1309.9322141003795,1309.9322141003795,1309.9322141003795,0,,,1,0.023506300058215857,0.04477010015398264,0,,,0,,,1310.4877551002428,1310.4877551002428,1310.4877551002428,1310.4877551002428,12,B,2024-04-22_10h32.03.467,attentional_competition_task,2022.2.4,144.06917648733958,
positions.xlsx,positions_test.xlsx,positions_test_new.xlsx,stimuli.xlsx,stimuli_new.xlsx,stimuli/Social2.png,stimuli/Social1.png,stimuli/Nonsocial2.png,stimuli/Nonsocial1.png,stimuli/Social4.png,stimuli/Social3.png,stimuli/Nonsocial4.png,stimuli/Nonsocial3.png,,,"(-0.7, -0.5)",cs_neg_ns,"(-0.7, 0.5)",cs_pos_s,"(0.7, -0.5)",cs_neg_s,"(0.7, 0.5)",cs_pos_ns,0,0,0,0,,,,,,,,,,,,,,,,,,,,,,,,,,,,,0,1,1,4,,,,,,,,,,,,,,,,,,,,,,,,,,,,,,,,,,,,,,,,,,,,,,12,B,2024-04-22_10h32.03.467,attentional_competition_task,2022.2.4,144.06917648733958,
positions.xlsx,positions_test.xlsx,positions_test_new.xlsx,stimuli.xlsx,stimuli_new.xlsx,stimuli/Social2.png,stimuli/Social1.png,stimuli/Nonsocial2.png,stimuli/Nonsocial1.png,stimuli/Social4.png,stimuli/Social3.png,stimuli/Nonsocial4.png,stimuli/Nonsocial3.png,,,"(-0.7, -0.5)",cs_neg_ns,"(-0.7, 0.5)",cs_neg_s,"(0.7, -0.5)",cs_pos_s,"(0.7, 0.5)",cs_pos_ns_new,0,0,0,0,,,,,,,,,,,,,,,,,,,,,,,,,,,,,0,2,2,39,0,0,0,0,,,,,,,,,,,,,,,366,loss,,,,,,1315.6542176003568,1315.6542176003568,1315.6542176003568,1315.6542176003568,2,1.022476099897176,1.0293709998950362,0,,,0,,,0,,,1316.9042779002339,1316.9042779002339,1316.9042779002339,1316.9042779002339,12,B,2024-04-22_10h32.03.467,attentional_competition_task,2022.2.4,144.06917648733958,
positions.xlsx,positions_test.xlsx,positions_test_new.xlsx,stimuli.xlsx,stimuli_new.xlsx,stimuli/Social2.png,stimuli/Social1.png,stimuli/Nonsocial2.png,stimuli/Nonsocial1.png,stimuli/Social4.png,stimuli/Social3.png,stimuli/Nonsocial4.png,stimuli/Nonsocial3.png,,,"(-0.7, -0.5)",cs_neg_ns,"(-0.7, 0.5)",cs_neg_s,"(0.7, -0.5)",cs_pos_s,"(0.7, 0.5)",cs_pos_ns_new,0,0,0,0,,,,,,,,,,,,,,,,,,,,,,,,,,,,,0,2,2,39,1,0,1,0,,,,,,,,,,,,,,,369,reward,,,,,,1317.438830200117,1317.438830200117,1317.438830200117,1317.438830200117,0,,,0,,,1,0.0290239998139441,0.029030799865722656,0,,,1317.438830200117,1317.438830200117,1317.438830200117,1317.438830200117,12,B,2024-04-22_10h32.03.467,attentional_competition_task,2022.2.4,144.06917648733958,
positions.xlsx,positions_test.xlsx,positions_test_new.xlsx,stimuli.xlsx,stimuli_new.xlsx,stimuli/Social2.png,stimuli/Social1.png,stimuli/Nonsocial2.png,stimuli/Nonsocial1.png,stimuli/Social4.png,stimuli/Social3.png,stimuli/Nonsocial4.png,stimuli/Nonsocial3.png,,,"(-0.7, -0.5)",cs_neg_ns,"(-0.7, 0.5)",cs_neg_s,"(0.7, -0.5)",cs_pos_s,"(0.7, 0.5)",cs_pos_ns_new,0,0,0,0,,,,,,,,,,,,,,,,,,,,,,,,,,,,,0,2,2,39,,,,,,,,,,,,,,,,,,,,,,,,,,,,,,,,,,,,,,,,,,,,,,12,B,2024-04-22_10h32.03.467,attentional_competition_task,2022.2.4,144.06917648733958,
positions.xlsx,positions_test.xlsx,positions_test_new.xlsx,stimuli.xlsx,stimuli_new.xlsx,stimuli/Social2.png,stimuli/Social1.png,stimuli/Nonsocial2.png,stimuli/Nonsocial1.png,stimuli/Social4.png,stimuli/Social3.png,stimuli/Nonsocial4.png,stimuli/Nonsocial3.png,,,"(-0.7, -0.5)",cs_pos_s,"(-0.7, 0.5)",cs_neg_s,"(0.7, -0.5)",cs_neg_ns_new,"(0.7, 0.5)",cs_pos_ns,0,0,0,0,,,,,,,,,,,,,,,,,,,,,,,,,,,,,0,3,3,18,0,0,0,0,,,,,,,,,,,,,,,372,reward,,,,,,1324.4247246002778,1324.4247246002778,1324.4247246002778,1324.4247246002778,1,0.8976154997944832,0.8976199999451637,0,,,0,,,0,,,1325.3273794003762,1325.3273794003762,1325.3273794003762,1325.3273794003762,12,B,2024-04-22_10h32.03.467,attentional_competition_task,2022.2.4,144.06917648733958,
positions.xlsx,positions_test.xlsx,positions_test_new.xlsx,stimuli.xlsx,stimuli_new.xlsx,stimuli/Social2.png,stimuli/Social1.png,stimuli/Nonsocial2.png,stimuli/Nonsocial1.png,stimuli/Social4.png,stimuli/Social3.png,stimuli/Nonsocial4.png,stimuli/Nonsocial3.png,,,"(-0.7, -0.5)",cs_pos_s,"(-0.7, 0.5)",cs_neg_s,"(0.7, -0.5)",cs_neg_ns_new,"(0.7, 0.5)",cs_pos_ns,0,0,0,0,,,,,,,,,,,,,,,,,,,,,,,,,,,,,0,3,3,18,1,0,1,0,,,,,,,,,,,,,,,375,reward,,,,,,1325.8343397001736,1325.8343397001736,1325.8343397001736,1325.8343397001736,1,0.02903930004686117,0.6063498998992145,0,,,0,,,0,,,1326.9384870002978,1326.9384870002978,1326.9384870002978,1326.9384870002978,12,B,2024-04-22_10h32.03.467,attentional_competition_task,2022.2.4,144.06917648733958,
positions.xlsx,positions_test.xlsx,positions_test_new.xlsx,stimuli.xlsx,stimuli_new.xlsx,stimuli/Social2.png,stimuli/Social1.png,stimuli/Nonsocial2.png,stimuli/Nonsocial1.png,stimuli/Social4.png,stimuli/Social3.png,stimuli/Nonsocial4.png,stimuli/Nonsocial3.png,,,"(-0.7, -0.5)",cs_pos_s,"(-0.7, 0.5)",cs_neg_s,"(0.7, -0.5)",cs_neg_ns_new,"(0.7, 0.5)",cs_pos_ns,0,0,0,0,,,,,,,,,,,,,,,,,,,,,,,,,,,,,0,3,3,18,,,,,,,,,,,,,,,,,,,,,,,,,,,,,,,,,,,,,,,,,,,,,,12,B,2024-04-22_10h32.03.467,attentional_competition_task,2022.2.4,144.06917648733958,
positions.xlsx,positions_test.xlsx,positions_test_new.xlsx,stimuli.xlsx,stimuli_new.xlsx,stimuli/Social2.png,stimuli/Social1.png,stimuli/Nonsocial2.png,stimuli/Nonsocial1.png,stimuli/Social4.png,stimuli/Social3.png,stimuli/Nonsocial4.png,stimuli/Nonsocial3.png,,,"(-0.7, -0.5)",cs_pos_s,"(-0.7, 0.5)",cs_pos_ns,"(0.7, -0.5)",cs_neg_ns,"(0.7, 0.5)",cs_neg_s_new,0,0,0,0,,,,,,,,,,,,,,,,,,,,,,,,,,,,,0,4,4,14,0,0,0,0,,,,,,,,,,,,,,,378,reward,,,,,,1332.9034963999875,1332.9034963999875,1332.9034963999875,1332.9034963999875,1,0.5786262000910938,0.5854715001769364,0,,,0,,,0,,,1333.4937414000742,1333.4937414000742,1333.4937414000742,1333.4937414000742,12,B,2024-04-22_10h32.03.467,attentional_competition_task,2022.2.4,144.06917648733958,
positions.xlsx,positions_test.xlsx,positions_test_new.xlsx,stimuli.xlsx,stimuli_new.xlsx,stimuli/Social2.png,stimuli/Social1.png,stimuli/Nonsocial2.png,stimuli/Nonsocial1.png,stimuli/Social4.png,stimuli/Social3.png,stimuli/Nonsocial4.png,stimuli/Nonsocial3.png,,,"(-0.7, -0.5)",cs_pos_s,"(-0.7, 0.5)",cs_pos_ns,"(0.7, -0.5)",cs_neg_ns,"(0.7, 0.5)",cs_neg_s_new,0,0,0,0,,,,,,,,,,,,,,,,,,,,,,,,,,,,,0,4,4,14,1,0,1,0,,,,,,,,,,,,,,,381,reward,,,,,,1334.0284453001805,1334.0284453001805,1334.0284453001805,1334.0284453001805,0,,,1,0.02966540027409792,0.029670100193470716,0,,,0,,,1334.0284453001805,1334.0284453001805,1334.0284453001805,1334.0284453001805,12,B,2024-04-22_10h32.03.467,attentional_competition_task,2022.2.4,144.06917648733958,
positions.xlsx,positions_test.xlsx,positions_test_new.xlsx,stimuli.xlsx,stimuli_new.xlsx,stimuli/Social2.png,stimuli/Social1.png,stimuli/Nonsocial2.png,stimuli/Nonsocial1.png,stimuli/Social4.png,stimuli/Social3.png,stimuli/Nonsocial4.png,stimuli/Nonsocial3.png,,,"(-0.7, -0.5)",cs_pos_s,"(-0.7, 0.5)",cs_pos_ns,"(0.7, -0.5)",cs_neg_ns,"(0.7, 0.5)",cs_neg_s_new,0,0,0,0,,,,,,,,,,,,,,,,,,,,,,,,,,,,,0,4,4,14,2,0,2,0,,,,,,,,,,,,,,,378,loss,,,,,,1334.5353957000189,1334.5353957000189,1334.5353957000189,1334.5353957000189,0,,,1,0.031209500040858984,0.21830180007964373,1,0.29459370020776987,0.2945983000099659,0,,,1334.8270416003652,1334.8270416003652,1334.8270416003652,1334.8270416003652,12,B,2024-04-22_10h32.03.467,attentional_competition_task,2022.2.4,144.06917648733958,
positions.xlsx,positions_test.xlsx,positions_test_new.xlsx,stimuli.xlsx,stimuli_new.xlsx,stimuli/Social2.png,stimuli/Social1.png,stimuli/Nonsocial2.png,stimuli/Nonsocial1.png,stimuli/Social4.png,stimuli/Social3.png,stimuli/Nonsocial4.png,stimuli/Nonsocial3.png,,,"(-0.7, -0.5)",cs_pos_s,"(-0.7, 0.5)",cs_pos_ns,"(0.7, -0.5)",cs_neg_ns,"(0.7, 0.5)",cs_neg_s_new,0,0,0,0,,,,,,,,,,,,,,,,,,,,,,,,,,,,,0,4,4,14,,,,,,,,,,,,,,,,,,,,,,,,,,,,,,,,,,,,,,,,,,,,,,12,B,2024-04-22_10h32.03.467,attentional_competition_task,2022.2.4,144.06917648733958,
positions.xlsx,positions_test.xlsx,positions_test_new.xlsx,stimuli.xlsx,stimuli_new.xlsx,stimuli/Social2.png,stimuli/Social1.png,stimuli/Nonsocial2.png,stimuli/Nonsocial1.png,stimuli/Social4.png,stimuli/Social3.png,stimuli/Nonsocial4.png,stimuli/Nonsocial3.png,,,"(-0.7, -0.5)",cs_neg_s,"(-0.7, 0.5)",cs_neg_ns_new,"(0.7, -0.5)",cs_pos_s,"(0.7, 0.5)",cs_pos_ns,0,0,0,0,,,,,,,,,,,,,,,,,,,,,,,,,,,,,0,5,5,24,0,0,0,0,,,,,,,,,,,,,,,381,reward,,,,,,1341.7642641002312,1341.7642641002312,1341.7642641002312,1341.7642641002312,0,,,0,,,1,0.710756900254637,0.710761799942702,0,,,1342.4795047002845,1342.4795047002845,1342.4795047002845,1342.4795047002845,12,B,2024-04-22_10h32.03.467,attentional_competition_task,2022.2.4,144.06917648733958,
positions.xlsx,positions_test.xlsx,positions_test_new.xlsx,stimuli.xlsx,stimuli_new.xlsx,stimuli/Social2.png,stimuli/Social1.png,stimuli/Nonsocial2.png,stimuli/Nonsocial1.png,stimuli/Social4.png,stimuli/Social3.png,stimuli/Nonsocial4.png,stimuli/Nonsocial3.png,,,"(-0.7, -0.5)",cs_neg_s,"(-0.7, 0.5)",cs_neg_ns_new,"(0.7, -0.5)",cs_pos_s,"(0.7, 0.5)",cs_pos_ns,0,0,0,0,,,,,,,,,,,,,,,,,,,,,,,,,,,,,0,5,5,24,1,0,1,0,,,,,,,,,,,,,,,378,loss,,,,,,1342.9794770004228,1342.9794770004228,1342.9794770004228,1342.9794770004228,0,,,1,0.2593497997149825,0.2593541997484863,1,0.029079100117087364,0.19740099972113967,0,,,1343.2434156001545,1343.2434156001545,1343.2434156001545,1343.2434156001545,12,B,2024-04-22_10h32.03.467,attentional_competition_task,2022.2.4,144.06917648733958,
positions.xlsx,positions_test.xlsx,positions_test_new.xlsx,stimuli.xlsx,stimuli_new.xlsx,stimuli/Social2.png,stimuli/Social1.png,stimuli/Nonsocial2.png,stimuli/Nonsocial1.png,stimuli/Social4.png,stimuli/Social3.png,stimuli/Nonsocial4.png,stimuli/Nonsocial3.png,,,"(-0.7, -0.5)",cs_neg_s,"(-0.7, 0.5)",cs_neg_ns_new,"(0.7, -0.5)",cs_pos_s,"(0.7, 0.5)",cs_pos_ns,0,0,0,0,,,,,,,,,,,,,,,,,,,,,,,,,,,,,0,5,5,24,2,0,2,0,,,,,,,,,,,,,,,375,loss,,,,,,1343.7364139002748,1343.7364139002748,1343.7364139002748,1343.7364139002748,0,,,1,0.024212900083512068,0.031736400444060564,0,,,0,,,1344.278066900093,1344.278066900093,1344.278066900093,1344.278066900093,12,B,2024-04-22_10h32.03.467,attentional_competition_task,2022.2.4,144.06917648733958,
positions.xlsx,positions_test.xlsx,positions_test_new.xlsx,stimuli.xlsx,stimuli_new.xlsx,stimuli/Social2.png,stimuli/Social1.png,stimuli/Nonsocial2.png,stimuli/Nonsocial1.png,stimuli/Social4.png,stimuli/Social3.png,stimuli/Nonsocial4.png,stimuli/Nonsocial3.png,,,"(-0.7, -0.5)",cs_neg_s,"(-0.7, 0.5)",cs_neg_ns_new,"(0.7, -0.5)",cs_pos_s,"(0.7, 0.5)",cs_pos_ns,0,0,0,0,,,,,,,,,,,,,,,,,,,,,,,,,,,,,0,5,5,24,,,,,,,,,,,,,,,,,,,,,,,,,,,,,,,,,,,,,,,,,,,,,,12,B,2024-04-22_10h32.03.467,attentional_competition_task,2022.2.4,144.06917648733958,
positions.xlsx,positions_test.xlsx,positions_test_new.xlsx,stimuli.xlsx,stimuli_new.xlsx,stimuli/Social2.png,stimuli/Social1.png,stimuli/Nonsocial2.png,stimuli/Nonsocial1.png,stimuli/Social4.png,stimuli/Social3.png,stimuli/Nonsocial4.png,stimuli/Nonsocial3.png,,,"(-0.7, -0.5)",cs_pos_s_new,"(-0.7, 0.5)",cs_neg_s,"(0.7, -0.5)",cs_neg_ns,"(0.7, 0.5)",cs_pos_ns,0,0,0,0,,,,,,,,,,,,,,,,,,,,,,,,,,,,,0,6,6,30,0,0,0,0,,,,,,,,,,,,,,,372,loss,,,,,,1350.0278045004234,1350.0278045004234,1350.0278045004234,1350.0278045004234,0,,,1,0.5784120000898838,0.5851611001417041,0,,,0,,,1350.6180923003703,1350.6180923003703,1350.6180923003703,1350.6180923003703,12,B,2024-04-22_10h32.03.467,attentional_competition_task,2022.2.4,144.06917648733958,
positions.xlsx,positions_test.xlsx,positions_test_new.xlsx,stimuli.xlsx,stimuli_new.xlsx,stimuli/Social2.png,stimuli/Social1.png,stimuli/Nonsocial2.png,stimuli/Nonsocial1.png,stimuli/Social4.png,stimuli/Social3.png,stimuli/Nonsocial4.png,stimuli/Nonsocial3.png,,,"(-0.7, -0.5)",cs_pos_s_new,"(-0.7, 0.5)",cs_neg_s,"(0.7, -0.5)",cs_neg_ns,"(0.7, 0.5)",cs_pos_ns,0,0,0,0,,,,,,,,,,,,,,,,,,,,,,,,,,,,,0,6,6,30,1,0,1,0,,,,,,,,,,,,,,,375,reward,,,,,,1351.1389283002354,1351.1389283002354,1351.1389283002354,1351.1389283002354,1,0.02255229977890849,0.022556799929589033,0,,,0,,,0,,,1351.1389283002354,1351.1389283002354,1351.1389283002354,1351.1389283002354,12,B,2024-04-22_10h32.03.467,attentional_competition_task,2022.2.4,144.06917648733958,
positions.xlsx,positions_test.xlsx,positions_test_new.xlsx,stimuli.xlsx,stimuli_new.xlsx,stimuli/Social2.png,stimuli/Social1.png,stimuli/Nonsocial2.png,stimuli/Nonsocial1.png,stimuli/Social4.png,stimuli/Social3.png,stimuli/Nonsocial4.png,stimuli/Nonsocial3.png,,,"(-0.7, -0.5)",cs_pos_s_new,"(-0.7, 0.5)",cs_neg_s,"(0.7, -0.5)",cs_neg_ns,"(0.7, 0.5)",cs_pos_ns,0,0,0,0,,,,,,,,,,,,,,,,,,,,,,,,,,,,,0,6,6,30,2,0,2,0,,,,,,,,,,,,,,,378,reward,,,,,,1351.673649400007,1351.673649400007,1351.673649400007,1351.673649400007,0,,,0,,,0,,,1,0.02602129988372326,0.026025899685919285,1351.673649400007,1351.673649400007,1351.673649400007,1351.673649400007,12,B,2024-04-22_10h32.03.467,attentional_competition_task,2022.2.4,144.06917648733958,
positions.xlsx,positions_test.xlsx,positions_test_new.xlsx,stimuli.xlsx,stimuli_new.xlsx,stimuli/Social2.png,stimuli/Social1.png,stimuli/Nonsocial2.png,stimuli/Nonsocial1.png,stimuli/Social4.png,stimuli/Social3.png,stimuli/Nonsocial4.png,stimuli/Nonsocial3.png,,,"(-0.7, -0.5)",cs_pos_s_new,"(-0.7, 0.5)",cs_neg_s,"(0.7, -0.5)",cs_neg_ns,"(0.7, 0.5)",cs_pos_ns,0,0,0,0,,,,,,,,,,,,,,,,,,,,,,,,,,,,,0,6,6,30,,,,,,,,,,,,,,,,,,,,,,,,,,,,,,,,,,,,,,,,,,,,,,12,B,2024-04-22_10h32.03.467,attentional_competition_task,2022.2.4,144.06917648733958,
positions.xlsx,positions_test.xlsx,positions_test_new.xlsx,stimuli.xlsx,stimuli_new.xlsx,stimuli/Social2.png,stimuli/Social1.png,stimuli/Nonsocial2.png,stimuli/Nonsocial1.png,stimuli/Social4.png,stimuli/Social3.png,stimuli/Nonsocial4.png,stimuli/Nonsocial3.png,,,"(-0.7, -0.5)",cs_pos_ns,"(-0.7, 0.5)",cs_neg_s,"(0.7, -0.5)",cs_neg_ns,"(0.7, 0.5)",cs_pos_s_new,0,0,0,0,,,,,,,,,,,,,,,,,,,,,,,,,,,,,0,7,7,33,0,0,0,0,,,,,,,,,,,,,,,381,reward,,,,,,1358.8816677001305,1358.8816677001305,1358.8816677001305,1358.8816677001305,0,,,0,,,0,,,1,0.6415605996735394,0.6415655999444425,1359.5274649001658,1359.5274649001658,1359.5274649001658,1359.5274649001658,12,B,2024-04-22_10h32.03.467,attentional_competition_task,2022.2.4,144.06917648733958,
positions.xlsx,positions_test.xlsx,positions_test_new.xlsx,stimuli.xlsx,stimuli_new.xlsx,stimuli/Social2.png,stimuli/Social1.png,stimuli/Nonsocial2.png,stimuli/Nonsocial1.png,stimuli/Social4.png,stimuli/Social3.png,stimuli/Nonsocial4.png,stimuli/Nonsocial3.png,,,"(-0.7, -0.5)",cs_pos_ns,"(-0.7, 0.5)",cs_neg_s,"(0.7, -0.5)",cs_neg_ns,"(0.7, 0.5)",cs_pos_s_new,0,0,0,0,,,,,,,,,,,,,,,,,,,,,,,,,,,,,0,7,7,33,1,0,1,0,,,,,,,,,,,,,,,378,loss,,,,,,1360.034418000374,1360.034418000374,1360.034418000374,1360.034418000374,0,,,0,,,1,0.30872040009126067,0.3159841997548938,1,0.030774899758398533,0.2952668000943959,1360.346835799981,1360.346835799981,1360.346835799981,1360.346835799981,12,B,2024-04-22_10h32.03.467,attentional_competition_task,2022.2.4,144.06917648733958,
positions.xlsx,positions_test.xlsx,positions_test_new.xlsx,stimuli.xlsx,stimuli_new.xlsx,stimuli/Social2.png,stimuli/Social1.png,stimuli/Nonsocial2.png,stimuli/Nonsocial1.png,stimuli/Social4.png,stimuli/Social3.png,stimuli/Nonsocial4.png,stimuli/Nonsocial3.png,,,"(-0.7, -0.5)",cs_pos_ns,"(-0.7, 0.5)",cs_neg_s,"(0.7, -0.5)",cs_neg_ns,"(0.7, 0.5)",cs_pos_s_new,0,0,0,0,,,,,,,,,,,,,,,,,,,,,,,,,,,,,0,7,7,33,2,0,2,0,,,,,,,,,,,,,,,381,reward,,,,,,1361.3746069003828,1361.3746069003828,1361.3746069003828,1361.3746069003828,1,0.029193999711424112,0.02919879974797368,0,,,0,,,0,,,1361.3746069003828,1361.3746069003828,1361.3746069003828,1361.3746069003828,12,B,2024-04-22_10h32.03.467,attentional_competition_task,2022.2.4,144.06917648733958,
positions.xlsx,positions_test.xlsx,positions_test_new.xlsx,stimuli.xlsx,stimuli_new.xlsx,stimuli/Social2.png,stimuli/Social1.png,stimuli/Nonsocial2.png,stimuli/Nonsocial1.png,stimuli/Social4.png,stimuli/Social3.png,stimuli/Nonsocial4.png,stimuli/Nonsocial3.png,,,"(-0.7, -0.5)",cs_pos_ns,"(-0.7, 0.5)",cs_neg_s,"(0.7, -0.5)",cs_neg_ns,"(0.7, 0.5)",cs_pos_s_new,0,0,0,0,,,,,,,,,,,,,,,,,,,,,,,,,,,,,0,7,7,33,,,,,,,,,,,,,,,,,,,,,,,,,,,,,,,,,,,,,,,,,,,,,,12,B,2024-04-22_10h32.03.467,attentional_competition_task,2022.2.4,144.06917648733958,
positions.xlsx,positions_test.xlsx,positions_test_new.xlsx,stimuli.xlsx,stimuli_new.xlsx,stimuli/Social2.png,stimuli/Social1.png,stimuli/Nonsocial2.png,stimuli/Nonsocial1.png,stimuli/Social4.png,stimuli/Social3.png,stimuli/Nonsocial4.png,stimuli/Nonsocial3.png,,,"(-0.7, -0.5)",cs_neg_ns,"(-0.7, 0.5)",cs_neg_s,"(0.7, -0.5)",cs_pos_s,"(0.7, 0.5)",cs_pos_ns,0,0,0,0,,,,,,,,,,,,,,,,,,,,,,,,,,,,,0,8,8,3,0,0,0,0,,,,,,,,,,,,,,,384,reward,,,,,,1366.8605413003825,1366.8605413003825,1366.8605413003825,1366.8605413003825,0,,,0,,,1,0.766045999713242,0.7660509999841452,0,,,1367.6312879002653,1367.6312879002653,1367.6312879002653,1367.6312879002653,12,B,2024-04-22_10h32.03.467,attentional_competition_task,2022.2.4,144.06917648733958,
