posFile,posFileTest,posFileTestNew,stimFile,stimFileNew,cs_neg_s,cs_pos_s,cs_neg_ns,cs_pos_ns,cs_neg_s_new,cs_pos_s_new,cs_neg_ns_new,cs_pos_ns_new,stim,position,position1,stim1,position2,stim2,position3,stim3,position4,stim4,blocks.thisRepN,blocks.thisTrialN,blocks.thisN,blocks.thisIndex,ratingtrials1.thisRepN,ratingtrials1.thisTrialN,ratingtrials1.thisN,ratingtrials1.thisIndex,search_task_trials.thisRepN,search_task_trials.thisTrialN,search_task_trials.thisN,search_task_trials.thisIndex,learning_trials.thisRepN,learning_trials.thisTrialN,learning_trials.thisN,learning_trials.thisIndex,trials.thisRepN,trials.thisTrialN,trials.thisN,trials.thisIndex,ratingtrials2.thisRepN,ratingtrials2.thisTrialN,ratingtrials2.thisN,ratingtrials2.thisIndex,testtrials.thisRepN,testtrials.thisTrialN,testtrials.thisN,testtrials.thisIndex,loop_test.thisRepN,loop_test.thisTrialN,loop_test.thisN,loop_test.thisIndex,testtrials_novelty.thisRepN,testtrials_novelty.thisTrialN,testtrials_novelty.thisN,testtrials_novelty.thisIndex,loop_test_novelty.thisRepN,loop_test_novelty.thisTrialN,loop_test_novelty.thisN,loop_test_novelty.thisIndex,ratingtrials3.thisRepN,ratingtrials3.thisTrialN,ratingtrials3.thisN,ratingtrials3.thisIndex,textStart.started,textStartExp.started,imageRating.started,sliderStim.response,sliderStim.rt,textStartSearch.started,target_positions,distractor_positions,textStartTask.started,image.started,score,outcome,roi.numLooks,roi.timesOn,roi.timesOff,imageFeedback.started,textTestInstr.started,test_image1.started,test_image2.started,test_image3.started,test_image4.started,test_roi1.numLooks,test_roi1.timesOn,test_roi1.timesOff,test_roi2.numLooks,test_roi2.timesOn,test_roi2.timesOff,test_roi3.numLooks,test_roi3.timesOn,test_roi3.timesOff,test_roi4.numLooks,test_roi4.timesOn,test_roi4.timesOff,test_image_feedback1.started,test_image_feedback2.started,test_iamge_feedback3.started,test_iamge_feedback4.started,participant,group,date,expName,psychopyVersion,frameRate,
positions.xlsx,positions_test.xlsx,positions_test_new.xlsx,stimuli.xlsx,stimuli_new.xlsx,stimuli/Social2.png,stimuli/Social1.png,stimuli/Nonsocial2.png,stimuli/Nonsocial1.png,stimuli/Social4.png,stimuli/Social3.png,stimuli/Nonsocial4.png,stimuli/Nonsocial3.png,cs_pos_ns,,,,,,,,,,0,0,0,0,0,0,0,3,,,,,,,,,,,,,,,,,,,,,,,,,,,,,,,,,,,,,14.431288499999937,141.04232219999994,154.40346349999982,7.0,9.106090700000095,,,,,,,,,,,,,,,,,,,,,,,,,,,,,,,,,33,B,2024-05-15_10h07.05.797,attentional_competition_task,2022.2.4,143.89897140895295,
positions.xlsx,positions_test.xlsx,positions_test_new.xlsx,stimuli.xlsx,stimuli_new.xlsx,stimuli/Social2.png,stimuli/Social1.png,stimuli/Nonsocial2.png,stimuli/Nonsocial1.png,stimuli/Social4.png,stimuli/Social3.png,stimuli/Nonsocial4.png,stimuli/Nonsocial3.png,cs_neg_s,,,,,,,,,,0,0,0,0,0,1,1,0,,,,,,,,,,,,,,,,,,,,,,,,,,,,,,,,,,,,,,,164.5557845000003,5.0,2.589751399999841,,,,,,,,,,,,,,,,,,,,,,,,,,,,,,,,,33,B,2024-05-15_10h07.05.797,attentional_competition_task,2022.2.4,143.89897140895295,
positions.xlsx,positions_test.xlsx,positions_test_new.xlsx,stimuli.xlsx,stimuli_new.xlsx,stimuli/Social2.png,stimuli/Social1.png,stimuli/Nonsocial2.png,stimuli/Nonsocial1.png,stimuli/Social4.png,stimuli/Social3.png,stimuli/Nonsocial4.png,stimuli/Nonsocial3.png,cs_pos_s,,,,,,,,,,0,0,0,0,0,2,2,2,,,,,,,,,,,,,,,,,,,,,,,,,,,,,,,,,,,,,,,168.41677900000013,5.0,1.456557200000134,,,,,,,,,,,,,,,,,,,,,,,,,,,,,,,,,33,B,2024-05-15_10h07.05.797,attentional_competition_task,2022.2.4,143.89897140895295,
positions.xlsx,positions_test.xlsx,positions_test_new.xlsx,stimuli.xlsx,stimuli_new.xlsx,stimuli/Social2.png,stimuli/Social1.png,stimuli/Nonsocial2.png,stimuli/Nonsocial1.png,stimuli/Social4.png,stimuli/Social3.png,stimuli/Nonsocial4.png,stimuli/Nonsocial3.png,cs_neg_ns,,,,,,,,,,0,0,0,0,0,3,3,1,,,,,,,,,,,,,,,,,,,,,,,,,,,,,,,,,,,,,,,171.29857739999989,7.0,2.227378399999907,,,,,,,,,,,,,,,,,,,,,,,,,,,,,,,,,33,B,2024-05-15_10h07.05.797,attentional_competition_task,2022.2.4,143.89897140895295,
positions.xlsx,positions_test.xlsx,positions_test_new.xlsx,stimuli.xlsx,stimuli_new.xlsx,stimuli/Social2.png,stimuli/Social1.png,stimuli/Nonsocial2.png,stimuli/Nonsocial1.png,stimuli/Social4.png,stimuli/Social3.png,stimuli/Nonsocial4.png,stimuli/Nonsocial3.png,,,,,,,,,,,0,0,0,0,,,,,0,0,0,0,,,,,,,,,,,,,,,,,,,,,,,,,,,,,,,,,,,,,,174.27763270000014,"[[-0.22499999999999998, -0.8], [0.9, -0.8], [0.6749999999999999, -0.8], [0.45000000000000007, 0.19999999999999996], [0.22499999999999998, -0.30000000000000004], [-0.45, -0.30000000000000004], [0.6749999999999999, 0.7], [0.22499999999999998, 0.7], [0.6749999999999999, -0.30000000000000004], [0.45000000000000007, 0.7], [-0.675, 0.7], [-0.45, -0.8], [-0.675, -0.30000000000000004], [-0.45, 0.7], [0.22499999999999998, 0.19999999999999996]]","[[-0.22499999999999998, 0.19999999999999996], [-0.45, 0.19999999999999996], [0.9, 0.7], [0.0, 0.7], [0.0, -0.8], [-0.22499999999999998, 0.7], [-0.675, 0.19999999999999996], [0.22499999999999998, -0.8], [0.9, -0.30000000000000004], [-0.9, 0.7], [0.45000000000000007, -0.30000000000000004], [-0.9, -0.8], [-0.675, -0.8], [0.9, 0.19999999999999996], [-0.9, 0.19999999999999996]]",,,,,,,,,,,,,,,,,,,,,,,,,,,,,,33,B,2024-05-15_10h07.05.797,attentional_competition_task,2022.2.4,143.89897140895295,
positions.xlsx,positions_test.xlsx,positions_test_new.xlsx,stimuli.xlsx,stimuli_new.xlsx,stimuli/Social2.png,stimuli/Social1.png,stimuli/Nonsocial2.png,stimuli/Nonsocial1.png,stimuli/Social4.png,stimuli/Social3.png,stimuli/Nonsocial4.png,stimuli/Nonsocial3.png,,,,,,,,,,,0,0,0,0,,,,,1,0,1,0,,,,,,,,,,,,,,,,,,,,,,,,,,,,,,,,,,,,,,,"[[-0.22499999999999998, 0.19999999999999996], [-0.9, -0.30000000000000004], [-0.675, 0.19999999999999996], [0.6749999999999999, 0.19999999999999996], [0.22499999999999998, -0.8], [0.45000000000000007, 0.7], [0.0, -0.8], [-0.675, 0.7], [0.9, -0.8], [0.9, -0.30000000000000004], [-0.22499999999999998, 0.7], [0.0, -0.30000000000000004], [-0.22499999999999998, -0.8], [0.9, 0.7], [0.6749999999999999, -0.30000000000000004]]","[[-0.675, -0.30000000000000004], [-0.9, 0.19999999999999996], [0.0, 0.19999999999999996], [-0.9, 0.7], [0.22499999999999998, -0.30000000000000004], [-0.675, -0.8], [0.9, 0.19999999999999996], [-0.9, -0.8], [-0.45, 0.7], [-0.45, -0.8], [0.6749999999999999, -0.8], [0.22499999999999998, 0.7], [0.45000000000000007, -0.8], [0.22499999999999998, 0.19999999999999996], [0.45000000000000007, -0.30000000000000004]]",,,,,,,,,,,,,,,,,,,,,,,,,,,,,,33,B,2024-05-15_10h07.05.797,attentional_competition_task,2022.2.4,143.89897140895295,
positions.xlsx,positions_test.xlsx,positions_test_new.xlsx,stimuli.xlsx,stimuli_new.xlsx,stimuli/Social2.png,stimuli/Social1.png,stimuli/Nonsocial2.png,stimuli/Nonsocial1.png,stimuli/Social4.png,stimuli/Social3.png,stimuli/Nonsocial4.png,stimuli/Nonsocial3.png,cs_neg_s,"(0.7, -0.5)",,,,,,,,,0,0,0,0,,,,,,,,,0,0,0,3,,,,,,,,,,,,,,,,,,,,,,,,,,,,,,,,,,,,,255.6423448000005,275.9609661000004,-3,loss,1,0.4997106000000713,0.49971430000005057,276.47481770000013,,,,,,,,,,,,,,,,,,,,,,33,B,2024-05-15_10h07.05.797,attentional_competition_task,2022.2.4,143.89897140895295,
positions.xlsx,positions_test.xlsx,positions_test_new.xlsx,stimuli.xlsx,stimuli_new.xlsx,stimuli/Social2.png,stimuli/Social1.png,stimuli/Nonsocial2.png,stimuli/Nonsocial1.png,stimuli/Social4.png,stimuli/Social3.png,stimuli/Nonsocial4.png,stimuli/Nonsocial3.png,cs_neg_s,"(-0.7, -0.5)",,,,,,,,,0,0,0,0,,,,,,,,,0,1,1,1,,,,,,,,,,,,,,,,,,,,,,,,,,,,,,,,,,,,,,284.11337879999974,-6,loss,1,0.37514310000005935,0.37514740000005986,284.49533789999987,,,,,,,,,,,,,,,,,,,,,,33,B,2024-05-15_10h07.05.797,attentional_competition_task,2022.2.4,143.89897140895295,
positions.xlsx,positions_test.xlsx,positions_test_new.xlsx,stimuli.xlsx,stimuli_new.xlsx,stimuli/Social2.png,stimuli/Social1.png,stimuli/Nonsocial2.png,stimuli/Nonsocial1.png,stimuli/Social4.png,stimuli/Social3.png,stimuli/Nonsocial4.png,stimuli/Nonsocial3.png,cs_neg_s,"(0.7, 0.5)",,,,,,,,,0,0,0,0,,,,,,,,,0,2,2,2,,,,,,,,,,,,,,,,,,,,,,,,,,,,,,,,,,,,,,292.8561265999997,-6,none,0,,,295.8699180000003,,,,,,,,,,,,,,,,,,,,,,33,B,2024-05-15_10h07.05.797,attentional_competition_task,2022.2.4,143.89897140895295,
positions.xlsx,positions_test.xlsx,positions_test_new.xlsx,stimuli.xlsx,stimuli_new.xlsx,stimuli/Social2.png,stimuli/Social1.png,stimuli/Nonsocial2.png,stimuli/Nonsocial1.png,stimuli/Social4.png,stimuli/Social3.png,stimuli/Nonsocial4.png,stimuli/Nonsocial3.png,cs_pos_ns,"(-0.7, -0.5)",,,,,,,,,0,0,0,0,,,,,,,,,0,3,3,13,,,,,,,,,,,,,,,,,,,,,,,,,,,,,,,,,,,,,,303.45985370000017,-3,reward,1,0.4446919000001799,0.4446973000003709,303.9181397000002,,,,,,,,,,,,,,,,,,,,,,33,B,2024-05-15_10h07.05.797,attentional_competition_task,2022.2.4,143.89897140895295,
positions.xlsx,positions_test.xlsx,positions_test_new.xlsx,stimuli.xlsx,stimuli_new.xlsx,stimuli/Social2.png,stimuli/Social1.png,stimuli/Nonsocial2.png,stimuli/Nonsocial1.png,stimuli/Social4.png,stimuli/Social3.png,stimuli/Nonsocial4.png,stimuli/Nonsocial3.png,cs_pos_ns,"(0.7, -0.5)",,,,,,,,,0,0,0,0,,,,,,,,,0,4,4,15,,,,,,,,,,,,,,,,,,,,,,,,,,,,,,,,,,,,,,310.70257110000057,0,reward,1,0.4660260999999082,0.4660295000003316,311.1748005999998,,,,,,,,,,,,,,,,,,,,,,33,B,2024-05-15_10h07.05.797,attentional_competition_task,2022.2.4,143.89897140895295,
positions.xlsx,positions_test.xlsx,positions_test_new.xlsx,stimuli.xlsx,stimuli_new.xlsx,stimuli/Social2.png,stimuli/Social1.png,stimuli/Nonsocial2.png,stimuli/Nonsocial1.png,stimuli/Social4.png,stimuli/Social3.png,stimuli/Nonsocial4.png,stimuli/Nonsocial3.png,cs_pos_s,"(0.7, -0.5)",,,,,,,,,0,0,0,0,,,,,,,,,0,5,5,7,,,,,,,,,,,,,,,,,,,,,,,,,,,,,,,,,,,,,,318.3897546999997,0,none,0,,,321.3966151000004,,,,,,,,,,,,,,,,,,,,,,33,B,2024-05-15_10h07.05.797,attentional_competition_task,2022.2.4,143.89897140895295,
positions.xlsx,positions_test.xlsx,positions_test_new.xlsx,stimuli.xlsx,stimuli_new.xlsx,stimuli/Social2.png,stimuli/Social1.png,stimuli/Nonsocial2.png,stimuli/Nonsocial1.png,stimuli/Social4.png,stimuli/Social3.png,stimuli/Nonsocial4.png,stimuli/Nonsocial3.png,cs_pos_s,"(0.7, 0.5)",,,,,,,,,0,0,0,0,,,,,,,,,0,6,6,6,,,,,,,,,,,,,,,,,,,,,,,,,,,,,,,,,,,,,,329.57682339999974,0,none,0,,,332.5835997000004,,,,,,,,,,,,,,,,,,,,,,33,B,2024-05-15_10h07.05.797,attentional_competition_task,2022.2.4,143.89897140895295,
positions.xlsx,positions_test.xlsx,positions_test_new.xlsx,stimuli.xlsx,stimuli_new.xlsx,stimuli/Social2.png,stimuli/Social1.png,stimuli/Nonsocial2.png,stimuli/Nonsocial1.png,stimuli/Social4.png,stimuli/Social3.png,stimuli/Nonsocial4.png,stimuli/Nonsocial3.png,cs_pos_s,"(-0.7, 0.5)",,,,,,,,,0,0,0,0,,,,,,,,,0,7,7,4,,,,,,,,,,,,,,,,,,,,,,,,,,,,,,,,,,,,,,340.89580040000055,0,none,0,,,343.9026027,,,,,,,,,,,,,,,,,,,,,,33,B,2024-05-15_10h07.05.797,attentional_competition_task,2022.2.4,143.89897140895295,
positions.xlsx,positions_test.xlsx,positions_test_new.xlsx,stimuli.xlsx,stimuli_new.xlsx,stimuli/Social2.png,stimuli/Social1.png,stimuli/Nonsocial2.png,stimuli/Nonsocial1.png,stimuli/Social4.png,stimuli/Social3.png,stimuli/Nonsocial4.png,stimuli/Nonsocial3.png,cs_neg_ns,"(0.7, 0.5)",,,,,,,,,0,0,0,0,,,,,,,,,0,8,8,10,,,,,,,,,,,,,,,,,,,,,,,,,,,,,,,,,,,,,,351.8606729000003,-3,loss,1,0.3958937000006699,0.3958979000008185,352.33284040000035,,,,,,,,,,,,,,,,,,,,,,33,B,2024-05-15_10h07.05.797,attentional_competition_task,2022.2.4,143.89897140895295,
positions.xlsx,positions_test.xlsx,positions_test_new.xlsx,stimuli.xlsx,stimuli_new.xlsx,stimuli/Social2.png,stimuli/Social1.png,stimuli/Nonsocial2.png,stimuli/Nonsocial1.png,stimuli/Social4.png,stimuli/Social3.png,stimuli/Nonsocial4.png,stimuli/Nonsocial3.png,cs_pos_s,"(-0.7, -0.5)",,,,,,,,,0,0,0,0,,,,,,,,,0,9,9,5,,,,,,,,,,,,,,,,,,,,,,,,,,,,,,,,,,,,,,359.4436338000005,0,reward,1,0.8749042999997982,0.8749078999999256,360.32559820000006,,,,,,,,,,,,,,,,,,,,,,33,B,2024-05-15_10h07.05.797,attentional_competition_task,2022.2.4,143.89897140895295,
positions.xlsx,positions_test.xlsx,positions_test_new.xlsx,stimuli.xlsx,stimuli_new.xlsx,stimuli/Social2.png,stimuli/Social1.png,stimuli/Nonsocial2.png,stimuli/Nonsocial1.png,stimuli/Social4.png,stimuli/Social3.png,stimuli/Nonsocial4.png,stimuli/Nonsocial3.png,cs_neg_ns,"(0.7, -0.5)",,,,,,,,,0,0,0,0,,,,,,,,,0,10,10,11,,,,,,,,,,,,,,,,,,,,,,,,,,,,,,,,,,,,,,367.6169462000007,-3,loss,1,0.5766395000009652,0.5766433999997389,368.20029180000074,,,,,,,,,,,,,,,,,,,,,,33,B,2024-05-15_10h07.05.797,attentional_competition_task,2022.2.4,143.89897140895295,
positions.xlsx,positions_test.xlsx,positions_test_new.xlsx,stimuli.xlsx,stimuli_new.xlsx,stimuli/Social2.png,stimuli/Social1.png,stimuli/Nonsocial2.png,stimuli/Nonsocial1.png,stimuli/Social4.png,stimuli/Social3.png,stimuli/Nonsocial4.png,stimuli/Nonsocial3.png,cs_neg_s,"(-0.7, 0.5)",,,,,,,,,0,0,0,0,,,,,,,,,0,11,11,0,,,,,,,,,,,,,,,,,,,,,,,,,,,,,,,,,,,,,,375.90132410000024,-3,none,0,,,378.9151033999997,,,,,,,,,,,,,,,,,,,,,,33,B,2024-05-15_10h07.05.797,attentional_competition_task,2022.2.4,143.89897140895295,
positions.xlsx,positions_test.xlsx,positions_test_new.xlsx,stimuli.xlsx,stimuli_new.xlsx,stimuli/Social2.png,stimuli/Social1.png,stimuli/Nonsocial2.png,stimuli/Nonsocial1.png,stimuli/Social4.png,stimuli/Social3.png,stimuli/Nonsocial4.png,stimuli/Nonsocial3.png,cs_pos_ns,"(-0.7, 0.5)",,,,,,,,,0,0,0,0,,,,,,,,,0,12,12,12,,,,,,,,,,,,,,,,,,,,,,,,,,,,,,,,,,,,,,385.4981517999995,0,reward,1,0.8128801000002568,0.8128840999997919,386.31753710000066,,,,,,,,,,,,,,,,,,,,,,33,B,2024-05-15_10h07.05.797,attentional_competition_task,2022.2.4,143.89897140895295,
positions.xlsx,positions_test.xlsx,positions_test_new.xlsx,stimuli.xlsx,stimuli_new.xlsx,stimuli/Social2.png,stimuli/Social1.png,stimuli/Nonsocial2.png,stimuli/Nonsocial1.png,stimuli/Social4.png,stimuli/Social3.png,stimuli/Nonsocial4.png,stimuli/Nonsocial3.png,cs_neg_ns,"(-0.7, 0.5)",,,,,,,,,0,0,0,0,,,,,,,,,0,13,13,8,,,,,,,,,,,,,,,,,,,,,,,,,,,,,,,,,,,,,,394.74774999999954,0,none,0,,,397.761569700001,,,,,,,,,,,,,,,,,,,,,,33,B,2024-05-15_10h07.05.797,attentional_competition_task,2022.2.4,143.89897140895295,
positions.xlsx,positions_test.xlsx,positions_test_new.xlsx,stimuli.xlsx,stimuli_new.xlsx,stimuli/Social2.png,stimuli/Social1.png,stimuli/Nonsocial2.png,stimuli/Nonsocial1.png,stimuli/Social4.png,stimuli/Social3.png,stimuli/Nonsocial4.png,stimuli/Nonsocial3.png,cs_neg_ns,"(-0.7, -0.5)",,,,,,,,,0,0,0,0,,,,,,,,,0,14,14,9,,,,,,,,,,,,,,,,,,,,,,,,,,,,,,,,,,,,,,405.29595640000025,0,none,0,,,408.30277750000005,,,,,,,,,,,,,,,,,,,,,,33,B,2024-05-15_10h07.05.797,attentional_competition_task,2022.2.4,143.89897140895295,
positions.xlsx,positions_test.xlsx,positions_test_new.xlsx,stimuli.xlsx,stimuli_new.xlsx,stimuli/Social2.png,stimuli/Social1.png,stimuli/Nonsocial2.png,stimuli/Nonsocial1.png,stimuli/Social4.png,stimuli/Social3.png,stimuli/Nonsocial4.png,stimuli/Nonsocial3.png,cs_pos_ns,"(0.7, 0.5)",,,,,,,,,0,0,0,0,,,,,,,,,0,15,15,14,,,,,,,,,,,,,,,,,,,,,,,,,,,,,,,,,,,,,,415.81634179999946,3,reward,1,0.47936419999859936,0.4793681999999535,416.3024534999995,,,,,,,,,,,,,,,,,,,,,,33,B,2024-05-15_10h07.05.797,attentional_competition_task,2022.2.4,143.89897140895295,
positions.xlsx,positions_test.xlsx,positions_test_new.xlsx,stimuli.xlsx,stimuli_new.xlsx,stimuli/Social2.png,stimuli/Social1.png,stimuli/Nonsocial2.png,stimuli/Nonsocial1.png,stimuli/Social4.png,stimuli/Social3.png,stimuli/Nonsocial4.png,stimuli/Nonsocial3.png,cs_neg_ns,"(0.7, 0.5)",,,,,,,,,0,0,0,0,,,,,,,,,1,0,16,10,,,,,,,,,,,,,,,,,,,,,,,,,,,,,,,,,,,,,,424.7326519999997,3,none,0,,,427.7464594000003,,,,,,,,,,,,,,,,,,,,,,33,B,2024-05-15_10h07.05.797,attentional_competition_task,2022.2.4,143.89897140895295,
positions.xlsx,positions_test.xlsx,positions_test_new.xlsx,stimuli.xlsx,stimuli_new.xlsx,stimuli/Social2.png,stimuli/Social1.png,stimuli/Nonsocial2.png,stimuli/Nonsocial1.png,stimuli/Social4.png,stimuli/Social3.png,stimuli/Nonsocial4.png,stimuli/Nonsocial3.png,cs_neg_ns,"(-0.7, 0.5)",,,,,,,,,0,0,0,0,,,,,,,,,1,1,17,8,,,,,,,,,,,,,,,,,,,,,,,,,,,,,,,,,,,,,,435.77387980000003,3,none,0,,,438.7876874000003,,,,,,,,,,,,,,,,,,,,,,33,B,2024-05-15_10h07.05.797,attentional_competition_task,2022.2.4,143.89897140895295,
positions.xlsx,positions_test.xlsx,positions_test_new.xlsx,stimuli.xlsx,stimuli_new.xlsx,stimuli/Social2.png,stimuli/Social1.png,stimuli/Nonsocial2.png,stimuli/Nonsocial1.png,stimuli/Social4.png,stimuli/Social3.png,stimuli/Nonsocial4.png,stimuli/Nonsocial3.png,cs_pos_s,"(0.7, 0.5)",,,,,,,,,0,0,0,0,,,,,,,,,1,2,18,6,,,,,,,,,,,,,,,,,,,,,,,,,,,,,,,,,,,,,,446.22484600000007,6,reward,1,0.7850342000001547,0.7850379999999859,447.0164608999994,,,,,,,,,,,,,,,,,,,,,,33,B,2024-05-15_10h07.05.797,attentional_competition_task,2022.2.4,143.89897140895295,
positions.xlsx,positions_test.xlsx,positions_test_new.xlsx,stimuli.xlsx,stimuli_new.xlsx,stimuli/Social2.png,stimuli/Social1.png,stimuli/Nonsocial2.png,stimuli/Nonsocial1.png,stimuli/Social4.png,stimuli/Social3.png,stimuli/Nonsocial4.png,stimuli/Nonsocial3.png,cs_pos_ns,"(0.7, -0.5)",,,,,,,,,0,0,0,0,,,,,,,,,1,3,19,15,,,,,,,,,,,,,,,,,,,,,,,,,,,,,,,,,,,,,,454.58564299999944,6,none,0,,,457.599363100001,,,,,,,,,,,,,,,,,,,,,,33,B,2024-05-15_10h07.05.797,attentional_competition_task,2022.2.4,143.89897140895295,
positions.xlsx,positions_test.xlsx,positions_test_new.xlsx,stimuli.xlsx,stimuli_new.xlsx,stimuli/Social2.png,stimuli/Social1.png,stimuli/Nonsocial2.png,stimuli/Nonsocial1.png,stimuli/Social4.png,stimuli/Social3.png,stimuli/Nonsocial4.png,stimuli/Nonsocial3.png,cs_pos_s,"(-0.7, -0.5)",,,,,,,,,0,0,0,0,,,,,,,,,1,4,20,5,,,,,,,,,,,,,,,,,,,,,,,,,,,,,,,,,,,,,,465.1268430000009,9,reward,1,0.8125368999990314,0.8125408999985666,465.9462577000004,,,,,,,,,,,,,,,,,,,,,,33,B,2024-05-15_10h07.05.797,attentional_competition_task,2022.2.4,143.89897140895295,
positions.xlsx,positions_test.xlsx,positions_test_new.xlsx,stimuli.xlsx,stimuli_new.xlsx,stimuli/Social2.png,stimuli/Social1.png,stimuli/Nonsocial2.png,stimuli/Nonsocial1.png,stimuli/Social4.png,stimuli/Social3.png,stimuli/Nonsocial4.png,stimuli/Nonsocial3.png,cs_neg_s,"(-0.7, -0.5)",,,,,,,,,0,0,0,0,,,,,,,,,1,5,21,1,,,,,,,,,,,,,,,,,,,,,,,,,,,,,,,,,,,,,,474.1820553000007,9,none,0,,,477.1888432000005,,,,,,,,,,,,,,,,,,,,,,33,B,2024-05-15_10h07.05.797,attentional_competition_task,2022.2.4,143.89897140895295,
positions.xlsx,positions_test.xlsx,positions_test_new.xlsx,stimuli.xlsx,stimuli_new.xlsx,stimuli/Social2.png,stimuli/Social1.png,stimuli/Nonsocial2.png,stimuli/Nonsocial1.png,stimuli/Social4.png,stimuli/Social3.png,stimuli/Nonsocial4.png,stimuli/Nonsocial3.png,cs_neg_s,"(0.7, 0.5)",,,,,,,,,0,0,0,0,,,,,,,,,1,6,22,2,,,,,,,,,,,,,,,,,,,,,,,,,,,,,,,,,,,,,,484.4246678999998,9,none,0,,,487.43147899999985,,,,,,,,,,,,,,,,,,,,,,33,B,2024-05-15_10h07.05.797,attentional_competition_task,2022.2.4,143.89897140895295,
positions.xlsx,positions_test.xlsx,positions_test_new.xlsx,stimuli.xlsx,stimuli_new.xlsx,stimuli/Social2.png,stimuli/Social1.png,stimuli/Nonsocial2.png,stimuli/Nonsocial1.png,stimuli/Social4.png,stimuli/Social3.png,stimuli/Nonsocial4.png,stimuli/Nonsocial3.png,cs_pos_ns,"(-0.7, 0.5)",,,,,,,,,0,0,0,0,,,,,,,,,1,7,23,12,,,,,,,,,,,,,,,,,,,,,,,,,,,,,,,,,,,,,,494.8131906000008,12,reward,1,1.1325407000003906,1.132544100000814,495.95891980000033,,,,,,,,,,,,,,,,,,,,,,33,B,2024-05-15_10h07.05.797,attentional_competition_task,2022.2.4,143.89897140895295,
positions.xlsx,positions_test.xlsx,positions_test_new.xlsx,stimuli.xlsx,stimuli_new.xlsx,stimuli/Social2.png,stimuli/Social1.png,stimuli/Nonsocial2.png,stimuli/Nonsocial1.png,stimuli/Social4.png,stimuli/Social3.png,stimuli/Nonsocial4.png,stimuli/Nonsocial3.png,cs_neg_ns,"(0.7, -0.5)",,,,,,,,,0,0,0,0,,,,,,,,,1,8,24,11,,,,,,,,,,,,,,,,,,,,,,,,,,,,,,,,,,,,,,503.40310190000037,12,none,0,,,506.41681920000065,,,,,,,,,,,,,,,,,,,,,,33,B,2024-05-15_10h07.05.797,attentional_competition_task,2022.2.4,143.89897140895295,
positions.xlsx,positions_test.xlsx,positions_test_new.xlsx,stimuli.xlsx,stimuli_new.xlsx,stimuli/Social2.png,stimuli/Social1.png,stimuli/Nonsocial2.png,stimuli/Nonsocial1.png,stimuli/Social4.png,stimuli/Social3.png,stimuli/Nonsocial4.png,stimuli/Nonsocial3.png,cs_neg_s,"(-0.7, 0.5)",,,,,,,,,0,0,0,0,,,,,,,,,1,9,25,0,,,,,,,,,,,,,,,,,,,,,,,,,,,,,,,,,,,,,,514.0970922000006,12,none,0,,,517.1038691999993,,,,,,,,,,,,,,,,,,,,,,33,B,2024-05-15_10h07.05.797,attentional_competition_task,2022.2.4,143.89897140895295,
positions.xlsx,positions_test.xlsx,positions_test_new.xlsx,stimuli.xlsx,stimuli_new.xlsx,stimuli/Social2.png,stimuli/Social1.png,stimuli/Nonsocial2.png,stimuli/Nonsocial1.png,stimuli/Social4.png,stimuli/Social3.png,stimuli/Nonsocial4.png,stimuli/Nonsocial3.png,cs_neg_ns,"(-0.7, -0.5)",,,,,,,,,0,0,0,0,,,,,,,,,1,10,26,9,,,,,,,,,,,,,,,,,,,,,,,,,,,,,,,,,,,,,,524.4785817000002,12,none,0,,,527.4854282000006,,,,,,,,,,,,,,,,,,,,,,33,B,2024-05-15_10h07.05.797,attentional_competition_task,2022.2.4,143.89897140895295,
positions.xlsx,positions_test.xlsx,positions_test_new.xlsx,stimuli.xlsx,stimuli_new.xlsx,stimuli/Social2.png,stimuli/Social1.png,stimuli/Nonsocial2.png,stimuli/Nonsocial1.png,stimuli/Social4.png,stimuli/Social3.png,stimuli/Nonsocial4.png,stimuli/Nonsocial3.png,cs_neg_s,"(0.7, -0.5)",,,,,,,,,0,0,0,0,,,,,,,,,1,11,27,3,,,,,,,,,,,,,,,,,,,,,,,,,,,,,,,,,,,,,,535.2281804000004,12,none,0,,,538.2350185000005,,,,,,,,,,,,,,,,,,,,,,33,B,2024-05-15_10h07.05.797,attentional_competition_task,2022.2.4,143.89897140895295,
positions.xlsx,positions_test.xlsx,positions_test_new.xlsx,stimuli.xlsx,stimuli_new.xlsx,stimuli/Social2.png,stimuli/Social1.png,stimuli/Nonsocial2.png,stimuli/Nonsocial1.png,stimuli/Social4.png,stimuli/Social3.png,stimuli/Nonsocial4.png,stimuli/Nonsocial3.png,cs_pos_s,"(-0.7, 0.5)",,,,,,,,,0,0,0,0,,,,,,,,,1,12,28,4,,,,,,,,,,,,,,,,,,,,,,,,,,,,,,,,,,,,,,545.3805689999999,15,reward,1,0.6110671999995247,0.6181175000001531,546.0055287000005,,,,,,,,,,,,,,,,,,,,,,33,B,2024-05-15_10h07.05.797,attentional_competition_task,2022.2.4,143.89897140895295,
positions.xlsx,positions_test.xlsx,positions_test_new.xlsx,stimuli.xlsx,stimuli_new.xlsx,stimuli/Social2.png,stimuli/Social1.png,stimuli/Nonsocial2.png,stimuli/Nonsocial1.png,stimuli/Social4.png,stimuli/Social3.png,stimuli/Nonsocial4.png,stimuli/Nonsocial3.png,cs_pos_s,"(0.7, -0.5)",,,,,,,,,0,0,0,0,,,,,,,,,1,13,29,7,,,,,,,,,,,,,,,,,,,,,,,,,,,,,,,,,,,,,,553.8176960999999,18,reward,1,0.8265675000002375,0.8265708999988419,554.6509997000003,,,,,,,,,,,,,,,,,,,,,,33,B,2024-05-15_10h07.05.797,attentional_competition_task,2022.2.4,143.89897140895295,
positions.xlsx,positions_test.xlsx,positions_test_new.xlsx,stimuli.xlsx,stimuli_new.xlsx,stimuli/Social2.png,stimuli/Social1.png,stimuli/Nonsocial2.png,stimuli/Nonsocial1.png,stimuli/Social4.png,stimuli/Social3.png,stimuli/Nonsocial4.png,stimuli/Nonsocial3.png,cs_pos_ns,"(0.7, 0.5)",,,,,,,,,0,0,0,0,,,,,,,,,1,14,30,14,,,,,,,,,,,,,,,,,,,,,,,,,,,,,,,,,,,,,,561.5118489000006,21,reward,1,1.1389496000010695,1.1389529000007315,562.6576056000004,,,,,,,,,,,,,,,,,,,,,,33,B,2024-05-15_10h07.05.797,attentional_competition_task,2022.2.4,143.89897140895295,
positions.xlsx,positions_test.xlsx,positions_test_new.xlsx,stimuli.xlsx,stimuli_new.xlsx,stimuli/Social2.png,stimuli/Social1.png,stimuli/Nonsocial2.png,stimuli/Nonsocial1.png,stimuli/Social4.png,stimuli/Social3.png,stimuli/Nonsocial4.png,stimuli/Nonsocial3.png,cs_pos_ns,"(-0.7, -0.5)",,,,,,,,,0,0,0,0,,,,,,,,,1,15,31,13,,,,,,,,,,,,,,,,,,,,,,,,,,,,,,,,,,,,,,569.8864719999992,24,reward,1,0.910193600000639,0.9101972999997088,570.8031290999998,,,,,,,,,,,,,,,,,,,,,,33,B,2024-05-15_10h07.05.797,attentional_competition_task,2022.2.4,143.89897140895295,
positions.xlsx,positions_test.xlsx,positions_test_new.xlsx,stimuli.xlsx,stimuli_new.xlsx,stimuli/Social2.png,stimuli/Social1.png,stimuli/Nonsocial2.png,stimuli/Nonsocial1.png,stimuli/Social4.png,stimuli/Social3.png,stimuli/Nonsocial4.png,stimuli/Nonsocial3.png,cs_pos_s,"(0.7, -0.5)",,,,,,,,,0,0,0,0,,,,,,,,,,,,,0,0,0,7,,,,,,,,,,,,,,,,,,,,,,,,,,,,,,,,,,591.8925509999999,27,reward,1,0.7710998000002292,0.7711037000008218,592.670335400001,,,,,,,,,,,,,,,,,,,,,,33,B,2024-05-15_10h07.05.797,attentional_competition_task,2022.2.4,143.89897140895295,
positions.xlsx,positions_test.xlsx,positions_test_new.xlsx,stimuli.xlsx,stimuli_new.xlsx,stimuli/Social2.png,stimuli/Social1.png,stimuli/Nonsocial2.png,stimuli/Nonsocial1.png,stimuli/Social4.png,stimuli/Social3.png,stimuli/Nonsocial4.png,stimuli/Nonsocial3.png,cs_pos_s,"(-0.7, 0.5)",,,,,,,,,0,0,0,0,,,,,,,,,,,,,0,1,1,4,,,,,,,,,,,,,,,,,,,,,,,,,,,,,,,,,,600.0033009999997,30,reward,1,0.5559336000005715,0.555950900001335,600.5658207000006,,,,,,,,,,,,,,,,,,,,,,33,B,2024-05-15_10h07.05.797,attentional_competition_task,2022.2.4,143.89897140895295,
positions.xlsx,positions_test.xlsx,positions_test_new.xlsx,stimuli.xlsx,stimuli_new.xlsx,stimuli/Social2.png,stimuli/Social1.png,stimuli/Nonsocial2.png,stimuli/Nonsocial1.png,stimuli/Social4.png,stimuli/Social3.png,stimuli/Nonsocial4.png,stimuli/Nonsocial3.png,cs_neg_s,"(-0.7, -0.5)",,,,,,,,,0,0,0,0,,,,,,,,,,,,,0,2,2,1,,,,,,,,,,,,,,,,,,,,,,,,,,,,,,,,,,607.8155309999993,30,none,0,,,610.8292518999997,,,,,,,,,,,,,,,,,,,,,,33,B,2024-05-15_10h07.05.797,attentional_competition_task,2022.2.4,143.89897140895295,
positions.xlsx,positions_test.xlsx,positions_test_new.xlsx,stimuli.xlsx,stimuli_new.xlsx,stimuli/Social2.png,stimuli/Social1.png,stimuli/Nonsocial2.png,stimuli/Nonsocial1.png,stimuli/Social4.png,stimuli/Social3.png,stimuli/Nonsocial4.png,stimuli/Nonsocial3.png,cs_pos_ns,"(0.7, 0.5)",,,,,,,,,0,0,0,0,,,,,,,,,,,,,0,3,3,14,,,,,,,,,,,,,,,,,,,,,,,,,,,,,,,,,,618.6553637000006,33,reward,1,0.5555633000003581,0.5555671000001894,619.2178477000007,,,,,,,,,,,,,,,,,,,,,,33,B,2024-05-15_10h07.05.797,attentional_competition_task,2022.2.4,143.89897140895295,
positions.xlsx,positions_test.xlsx,positions_test_new.xlsx,stimuli.xlsx,stimuli_new.xlsx,stimuli/Social2.png,stimuli/Social1.png,stimuli/Nonsocial2.png,stimuli/Nonsocial1.png,stimuli/Social4.png,stimuli/Social3.png,stimuli/Nonsocial4.png,stimuli/Nonsocial3.png,cs_neg_ns,"(0.7, -0.5)",,,,,,,,,0,0,0,0,,,,,,,,,,,,,0,4,4,11,,,,,,,,,,,,,,,,,,,,,,,,,,,,,,,,,,626.9675529000006,33,none,0,,,629.9813082999999,,,,,,,,,,,,,,,,,,,,,,33,B,2024-05-15_10h07.05.797,attentional_competition_task,2022.2.4,143.89897140895295,
positions.xlsx,positions_test.xlsx,positions_test_new.xlsx,stimuli.xlsx,stimuli_new.xlsx,stimuli/Social2.png,stimuli/Social1.png,stimuli/Nonsocial2.png,stimuli/Nonsocial1.png,stimuli/Social4.png,stimuli/Social3.png,stimuli/Nonsocial4.png,stimuli/Nonsocial3.png,cs_pos_s,"(-0.7, -0.5)",,,,,,,,,0,0,0,0,,,,,,,,,,,,,0,5,5,5,,,,,,,,,,,,,,,,,,,,,,,,,,,,,,,,,,636.5782418000008,36,reward,1,0.6945756999994046,0.6945792000005895,637.2796542000006,,,,,,,,,,,,,,,,,,,,,,33,B,2024-05-15_10h07.05.797,attentional_competition_task,2022.2.4,143.89897140895295,
positions.xlsx,positions_test.xlsx,positions_test_new.xlsx,stimuli.xlsx,stimuli_new.xlsx,stimuli/Social2.png,stimuli/Social1.png,stimuli/Nonsocial2.png,stimuli/Nonsocial1.png,stimuli/Social4.png,stimuli/Social3.png,stimuli/Nonsocial4.png,stimuli/Nonsocial3.png,cs_neg_ns,"(-0.7, 0.5)",,,,,,,,,0,0,0,0,,,,,,,,,,,,,0,6,6,8,,,,,,,,,,,,,,,,,,,,,,,,,,,,,,,,,,645.6126183000006,36,none,0,,,648.6263597000006,,,,,,,,,,,,,,,,,,,,,,33,B,2024-05-15_10h07.05.797,attentional_competition_task,2022.2.4,143.89897140895295,
positions.xlsx,positions_test.xlsx,positions_test_new.xlsx,stimuli.xlsx,stimuli_new.xlsx,stimuli/Social2.png,stimuli/Social1.png,stimuli/Nonsocial2.png,stimuli/Nonsocial1.png,stimuli/Social4.png,stimuli/Social3.png,stimuli/Nonsocial4.png,stimuli/Nonsocial3.png,cs_neg_ns,"(-0.7, -0.5)",,,,,,,,,0,0,0,0,,,,,,,,,,,,,0,7,7,9,,,,,,,,,,,,,,,,,,,,,,,,,,,,,,,,,,655.8066745999995,36,none,0,,,658.8134751000007,,,,,,,,,,,,,,,,,,,,,,33,B,2024-05-15_10h07.05.797,attentional_competition_task,2022.2.4,143.89897140895295,
positions.xlsx,positions_test.xlsx,positions_test_new.xlsx,stimuli.xlsx,stimuli_new.xlsx,stimuli/Social2.png,stimuli/Social1.png,stimuli/Nonsocial2.png,stimuli/Nonsocial1.png,stimuli/Social4.png,stimuli/Social3.png,stimuli/Nonsocial4.png,stimuli/Nonsocial3.png,cs_pos_ns,"(-0.7, 0.5)",,,,,,,,,0,0,0,0,,,,,,,,,,,,,0,8,8,12,,,,,,,,,,,,,,,,,,,,,,,,,,,,,,,,,,666.3687006999999,39,reward,1,0.7225241999985883,0.722528099999181,667.0979467000006,,,,,,,,,,,,,,,,,,,,,,33,B,2024-05-15_10h07.05.797,attentional_competition_task,2022.2.4,143.89897140895295,
positions.xlsx,positions_test.xlsx,positions_test_new.xlsx,stimuli.xlsx,stimuli_new.xlsx,stimuli/Social2.png,stimuli/Social1.png,stimuli/Nonsocial2.png,stimuli/Nonsocial1.png,stimuli/Social4.png,stimuli/Social3.png,stimuli/Nonsocial4.png,stimuli/Nonsocial3.png,cs_neg_s,"(-0.7, 0.5)",,,,,,,,,0,0,0,0,,,,,,,,,,,,,0,9,9,0,,,,,,,,,,,,,,,,,,,,,,,,,,,,,,,,,,674.4378497000007,39,none,0,,,677.4446644999998,,,,,,,,,,,,,,,,,,,,,,33,B,2024-05-15_10h07.05.797,attentional_competition_task,2022.2.4,143.89897140895295,
positions.xlsx,positions_test.xlsx,positions_test_new.xlsx,stimuli.xlsx,stimuli_new.xlsx,stimuli/Social2.png,stimuli/Social1.png,stimuli/Nonsocial2.png,stimuli/Nonsocial1.png,stimuli/Social4.png,stimuli/Social3.png,stimuli/Nonsocial4.png,stimuli/Nonsocial3.png,cs_pos_ns,"(0.7, -0.5)",,,,,,,,,0,0,0,0,,,,,,,,,,,,,0,10,10,15,,,,,,,,,,,,,,,,,,,,,,,,,,,,,,,,,,685.2082624000004,42,reward,1,0.639117200000328,0.6391206999996939,685.8540359999997,,,,,,,,,,,,,,,,,,,,,,33,B,2024-05-15_10h07.05.797,attentional_competition_task,2022.2.4,143.89897140895295,
positions.xlsx,positions_test.xlsx,positions_test_new.xlsx,stimuli.xlsx,stimuli_new.xlsx,stimuli/Social2.png,stimuli/Social1.png,stimuli/Nonsocial2.png,stimuli/Nonsocial1.png,stimuli/Social4.png,stimuli/Social3.png,stimuli/Nonsocial4.png,stimuli/Nonsocial3.png,cs_neg_s,"(0.7, -0.5)",,,,,,,,,0,0,0,0,,,,,,,,,,,,,0,11,11,3,,,,,,,,,,,,,,,,,,,,,,,,,,,,,,,,,,692.7565518000001,42,none,0,,,695.7702963000002,,,,,,,,,,,,,,,,,,,,,,33,B,2024-05-15_10h07.05.797,attentional_competition_task,2022.2.4,143.89897140895295,
positions.xlsx,positions_test.xlsx,positions_test_new.xlsx,stimuli.xlsx,stimuli_new.xlsx,stimuli/Social2.png,stimuli/Social1.png,stimuli/Nonsocial2.png,stimuli/Nonsocial1.png,stimuli/Social4.png,stimuli/Social3.png,stimuli/Nonsocial4.png,stimuli/Nonsocial3.png,cs_neg_ns,"(0.7, 0.5)",,,,,,,,,0,0,0,0,,,,,,,,,,,,,0,12,12,10,,,,,,,,,,,,,,,,,,,,,,,,,,,,,,,,,,703.3325243999998,42,none,0,,,706.3462635000005,,,,,,,,,,,,,,,,,,,,,,33,B,2024-05-15_10h07.05.797,attentional_competition_task,2022.2.4,143.89897140895295,
positions.xlsx,positions_test.xlsx,positions_test_new.xlsx,stimuli.xlsx,stimuli_new.xlsx,stimuli/Social2.png,stimuli/Social1.png,stimuli/Nonsocial2.png,stimuli/Nonsocial1.png,stimuli/Social4.png,stimuli/Social3.png,stimuli/Nonsocial4.png,stimuli/Nonsocial3.png,cs_neg_s,"(0.7, 0.5)",,,,,,,,,0,0,0,0,,,,,,,,,,,,,0,13,13,2,,,,,,,,,,,,,,,,,,,,,,,,,,,,,,,,,,713.5056888999998,42,none,0,,,716.5125269000009,,,,,,,,,,,,,,,,,,,,,,33,B,2024-05-15_10h07.05.797,attentional_competition_task,2022.2.4,143.89897140895295,
positions.xlsx,positions_test.xlsx,positions_test_new.xlsx,stimuli.xlsx,stimuli_new.xlsx,stimuli/Social2.png,stimuli/Social1.png,stimuli/Nonsocial2.png,stimuli/Nonsocial1.png,stimuli/Social4.png,stimuli/Social3.png,stimuli/Nonsocial4.png,stimuli/Nonsocial3.png,cs_pos_s,"(0.7, 0.5)",,,,,,,,,0,0,0,0,,,,,,,,,,,,,0,14,14,6,,,,,,,,,,,,,,,,,,,,,,,,,,,,,,,,,,723.9567082000003,45,reward,1,0.8614694999996573,0.8614730999997846,724.8246962999992,,,,,,,,,,,,,,,,,,,,,,33,B,2024-05-15_10h07.05.797,attentional_competition_task,2022.2.4,143.89897140895295,
positions.xlsx,positions_test.xlsx,positions_test_new.xlsx,stimuli.xlsx,stimuli_new.xlsx,stimuli/Social2.png,stimuli/Social1.png,stimuli/Nonsocial2.png,stimuli/Nonsocial1.png,stimuli/Social4.png,stimuli/Social3.png,stimuli/Nonsocial4.png,stimuli/Nonsocial3.png,cs_pos_ns,"(-0.7, -0.5)",,,,,,,,,0,0,0,0,,,,,,,,,,,,,0,15,15,13,,,,,,,,,,,,,,,,,,,,,,,,,,,,,,,,,,732.5882506000007,48,reward,1,0.9723401000010199,0.972344100000555,733.5674721000005,,,,,,,,,,,,,,,,,,,,,,33,B,2024-05-15_10h07.05.797,attentional_competition_task,2022.2.4,143.89897140895295,
positions.xlsx,positions_test.xlsx,positions_test_new.xlsx,stimuli.xlsx,stimuli_new.xlsx,stimuli/Social2.png,stimuli/Social1.png,stimuli/Nonsocial2.png,stimuli/Nonsocial1.png,stimuli/Social4.png,stimuli/Social3.png,stimuli/Nonsocial4.png,stimuli/Nonsocial3.png,cs_pos_s,"(-0.7, -0.5)",,,,,,,,,0,0,0,0,,,,,,,,,,,,,1,0,16,5,,,,,,,,,,,,,,,,,,,,,,,,,,,,,,,,,,741.3448847999998,51,reward,1,0.743171699999948,0.7431756000005407,742.0948526000002,,,,,,,,,,,,,,,,,,,,,,33,B,2024-05-15_10h07.05.797,attentional_competition_task,2022.2.4,143.89897140895295,
positions.xlsx,positions_test.xlsx,positions_test_new.xlsx,stimuli.xlsx,stimuli_new.xlsx,stimuli/Social2.png,stimuli/Social1.png,stimuli/Nonsocial2.png,stimuli/Nonsocial1.png,stimuli/Social4.png,stimuli/Social3.png,stimuli/Nonsocial4.png,stimuli/Nonsocial3.png,cs_pos_s,"(0.7, -0.5)",,,,,,,,,0,0,0,0,,,,,,,,,,,,,1,1,17,7,,,,,,,,,,,,,,,,,,,,,,,,,,,,,,,,,,749.4070165999992,54,reward,1,0.6945310000010068,0.7015649000004487,750.1153533999995,,,,,,,,,,,,,,,,,,,,,,33,B,2024-05-15_10h07.05.797,attentional_competition_task,2022.2.4,143.89897140895295,
positions.xlsx,positions_test.xlsx,positions_test_new.xlsx,stimuli.xlsx,stimuli_new.xlsx,stimuli/Social2.png,stimuli/Social1.png,stimuli/Nonsocial2.png,stimuli/Nonsocial1.png,stimuli/Social4.png,stimuli/Social3.png,stimuli/Nonsocial4.png,stimuli/Nonsocial3.png,cs_neg_s,"(-0.7, -0.5)",,,,,,,,,0,0,0,0,,,,,,,,,,,,,1,2,18,1,,,,,,,,,,,,,,,,,,,,,,,,,,,,,,,,,,758.0108372999994,54,none,0,,,761.0246113000003,,,,,,,,,,,,,,,,,,,,,,33,B,2024-05-15_10h07.05.797,attentional_competition_task,2022.2.4,143.89897140895295,
positions.xlsx,positions_test.xlsx,positions_test_new.xlsx,stimuli.xlsx,stimuli_new.xlsx,stimuli/Social2.png,stimuli/Social1.png,stimuli/Nonsocial2.png,stimuli/Nonsocial1.png,stimuli/Social4.png,stimuli/Social3.png,stimuli/Nonsocial4.png,stimuli/Nonsocial3.png,cs_neg_ns,"(-0.7, 0.5)",,,,,,,,,0,0,0,0,,,,,,,,,,,,,1,3,19,8,,,,,,,,,,,,,,,,,,,,,,,,,,,,,,,,,,768.7743290000008,54,none,0,,,771.7881021999992,,,,,,,,,,,,,,,,,,,,,,33,B,2024-05-15_10h07.05.797,attentional_competition_task,2022.2.4,143.89897140895295,
positions.xlsx,positions_test.xlsx,positions_test_new.xlsx,stimuli.xlsx,stimuli_new.xlsx,stimuli/Social2.png,stimuli/Social1.png,stimuli/Nonsocial2.png,stimuli/Nonsocial1.png,stimuli/Social4.png,stimuli/Social3.png,stimuli/Nonsocial4.png,stimuli/Nonsocial3.png,cs_pos_s,"(-0.7, 0.5)",,,,,,,,,0,0,0,0,,,,,,,,,,,,,1,4,20,4,,,,,,,,,,,,,,,,,,,,,,,,,,,,,,,,,,779.5238569000003,57,reward,1,0.6182103999999526,0.6182138999993185,780.1488627999997,,,,,,,,,,,,,,,,,,,,,,33,B,2024-05-15_10h07.05.797,attentional_competition_task,2022.2.4,143.89897140895295,
positions.xlsx,positions_test.xlsx,positions_test_new.xlsx,stimuli.xlsx,stimuli_new.xlsx,stimuli/Social2.png,stimuli/Social1.png,stimuli/Nonsocial2.png,stimuli/Nonsocial1.png,stimuli/Social4.png,stimuli/Social3.png,stimuli/Nonsocial4.png,stimuli/Nonsocial3.png,cs_pos_s,"(0.7, 0.5)",,,,,,,,,0,0,0,0,,,,,,,,,,,,,1,5,21,6,,,,,,,,,,,,,,,,,,,,,,,,,,,,,,,,,,787.4263378999995,60,reward,1,0.6253799999994953,0.6253837999993266,788.058310200001,,,,,,,,,,,,,,,,,,,,,,33,B,2024-05-15_10h07.05.797,attentional_competition_task,2022.2.4,143.89897140895295,
positions.xlsx,positions_test.xlsx,positions_test_new.xlsx,stimuli.xlsx,stimuli_new.xlsx,stimuli/Social2.png,stimuli/Social1.png,stimuli/Nonsocial2.png,stimuli/Nonsocial1.png,stimuli/Social4.png,stimuli/Social3.png,stimuli/Nonsocial4.png,stimuli/Nonsocial3.png,cs_neg_s,"(-0.7, 0.5)",,,,,,,,,0,0,0,0,,,,,,,,,,,,,1,6,22,0,,,,,,,,,,,,,,,,,,,,,,,,,,,,,,,,,,795.2107729000008,60,none,0,,,798.2245561000009,,,,,,,,,,,,,,,,,,,,,,33,B,2024-05-15_10h07.05.797,attentional_competition_task,2022.2.4,143.89897140895295,
positions.xlsx,positions_test.xlsx,positions_test_new.xlsx,stimuli.xlsx,stimuli_new.xlsx,stimuli/Social2.png,stimuli/Social1.png,stimuli/Nonsocial2.png,stimuli/Nonsocial1.png,stimuli/Social4.png,stimuli/Social3.png,stimuli/Nonsocial4.png,stimuli/Nonsocial3.png,cs_pos_ns,"(0.7, -0.5)",,,,,,,,,0,0,0,0,,,,,,,,,,,,,1,7,23,15,,,,,,,,,,,,,,,,,,,,,,,,,,,,,,,,,,806.3283462999998,63,reward,1,0.930789599999116,0.9376082999988284,807.2727743000005,,,,,,,,,,,,,,,,,,,,,,33,B,2024-05-15_10h07.05.797,attentional_competition_task,2022.2.4,143.89897140895295,
positions.xlsx,positions_test.xlsx,positions_test_new.xlsx,stimuli.xlsx,stimuli_new.xlsx,stimuli/Social2.png,stimuli/Social1.png,stimuli/Nonsocial2.png,stimuli/Nonsocial1.png,stimuli/Social4.png,stimuli/Social3.png,stimuli/Nonsocial4.png,stimuli/Nonsocial3.png,cs_neg_ns,"(0.7, -0.5)",,,,,,,,,0,0,0,0,,,,,,,,,,,,,1,8,24,11,,,,,,,,,,,,,,,,,,,,,,,,,,,,,,,,,,815.2307879000009,63,none,0,,,818.2445897000007,,,,,,,,,,,,,,,,,,,,,,33,B,2024-05-15_10h07.05.797,attentional_competition_task,2022.2.4,143.89897140895295,
positions.xlsx,positions_test.xlsx,positions_test_new.xlsx,stimuli.xlsx,stimuli_new.xlsx,stimuli/Social2.png,stimuli/Social1.png,stimuli/Nonsocial2.png,stimuli/Nonsocial1.png,stimuli/Social4.png,stimuli/Social3.png,stimuli/Nonsocial4.png,stimuli/Nonsocial3.png,cs_neg_s,"(0.7, -0.5)",,,,,,,,,0,0,0,0,,,,,,,,,,,,,1,9,25,3,,,,,,,,,,,,,,,,,,,,,,,,,,,,,,,,,,826.3275481999999,63,none,0,,,829.3343768000004,,,,,,,,,,,,,,,,,,,,,,33,B,2024-05-15_10h07.05.797,attentional_competition_task,2022.2.4,143.89897140895295,
positions.xlsx,positions_test.xlsx,positions_test_new.xlsx,stimuli.xlsx,stimuli_new.xlsx,stimuli/Social2.png,stimuli/Social1.png,stimuli/Nonsocial2.png,stimuli/Nonsocial1.png,stimuli/Social4.png,stimuli/Social3.png,stimuli/Nonsocial4.png,stimuli/Nonsocial3.png,cs_pos_ns,"(0.7, 0.5)",,,,,,,,,0,0,0,0,,,,,,,,,,,,,1,10,26,14,,,,,,,,,,,,,,,,,,,,,,,,,,,,,,,,,,836.8687940999998,66,reward,1,1.319858299999396,1.3198620000002848,838.1951442,,,,,,,,,,,,,,,,,,,,,,33,B,2024-05-15_10h07.05.797,attentional_competition_task,2022.2.4,143.89897140895295,
positions.xlsx,positions_test.xlsx,positions_test_new.xlsx,stimuli.xlsx,stimuli_new.xlsx,stimuli/Social2.png,stimuli/Social1.png,stimuli/Nonsocial2.png,stimuli/Nonsocial1.png,stimuli/Social4.png,stimuli/Social3.png,stimuli/Nonsocial4.png,stimuli/Nonsocial3.png,cs_neg_ns,"(0.7, 0.5)",,,,,,,,,0,0,0,0,,,,,,,,,,,,,1,11,27,10,,,,,,,,,,,,,,,,,,,,,,,,,,,,,,,,,,845.9795538999997,66,none,0,,,848.9933374000002,,,,,,,,,,,,,,,,,,,,,,33,B,2024-05-15_10h07.05.797,attentional_competition_task,2022.2.4,143.89897140895295,
positions.xlsx,positions_test.xlsx,positions_test_new.xlsx,stimuli.xlsx,stimuli_new.xlsx,stimuli/Social2.png,stimuli/Social1.png,stimuli/Nonsocial2.png,stimuli/Nonsocial1.png,stimuli/Social4.png,stimuli/Social3.png,stimuli/Nonsocial4.png,stimuli/Nonsocial3.png,cs_neg_s,"(0.7, 0.5)",,,,,,,,,0,0,0,0,,,,,,,,,,,,,1,12,28,2,,,,,,,,,,,,,,,,,,,,,,,,,,,,,,,,,,856.4027417999996,66,none,0,,,859.4096156000005,,,,,,,,,,,,,,,,,,,,,,33,B,2024-05-15_10h07.05.797,attentional_competition_task,2022.2.4,143.89897140895295,
positions.xlsx,positions_test.xlsx,positions_test_new.xlsx,stimuli.xlsx,stimuli_new.xlsx,stimuli/Social2.png,stimuli/Social1.png,stimuli/Nonsocial2.png,stimuli/Nonsocial1.png,stimuli/Social4.png,stimuli/Social3.png,stimuli/Nonsocial4.png,stimuli/Nonsocial3.png,cs_neg_ns,"(-0.7, -0.5)",,,,,,,,,0,0,0,0,,,,,,,,,,,,,1,13,29,9,,,,,,,,,,,,,,,,,,,,,,,,,,,,,,,,,,866.5690052,66,none,0,,,869.5827428000002,,,,,,,,,,,,,,,,,,,,,,33,B,2024-05-15_10h07.05.797,attentional_competition_task,2022.2.4,143.89897140895295,
positions.xlsx,positions_test.xlsx,positions_test_new.xlsx,stimuli.xlsx,stimuli_new.xlsx,stimuli/Social2.png,stimuli/Social1.png,stimuli/Nonsocial2.png,stimuli/Nonsocial1.png,stimuli/Social4.png,stimuli/Social3.png,stimuli/Nonsocial4.png,stimuli/Nonsocial3.png,cs_pos_ns,"(-0.7, 0.5)",,,,,,,,,0,0,0,0,,,,,,,,,,,,,1,14,30,12,,,,,,,,,,,,,,,,,,,,,,,,,,,,,,,,,,877.4574614999992,69,reward,1,0.5418933000000834,0.5418970000009722,878.0060456000001,,,,,,,,,,,,,,,,,,,,,,33,B,2024-05-15_10h07.05.797,attentional_competition_task,2022.2.4,143.89897140895295,
positions.xlsx,positions_test.xlsx,positions_test_new.xlsx,stimuli.xlsx,stimuli_new.xlsx,stimuli/Social2.png,stimuli/Social1.png,stimuli/Nonsocial2.png,stimuli/Nonsocial1.png,stimuli/Social4.png,stimuli/Social3.png,stimuli/Nonsocial4.png,stimuli/Nonsocial3.png,cs_pos_ns,"(-0.7, -0.5)",,,,,,,,,0,0,0,0,,,,,,,,,,,,,1,15,31,13,,,,,,,,,,,,,,,,,,,,,,,,,,,,,,,,,,886.3251499000007,72,reward,1,0.8128956000000471,0.8128998000011052,887.1445804999994,,,,,,,,,,,,,,,,,,,,,,33,B,2024-05-15_10h07.05.797,attentional_competition_task,2022.2.4,143.89897140895295,
positions.xlsx,positions_test.xlsx,positions_test_new.xlsx,stimuli.xlsx,stimuli_new.xlsx,stimuli/Social2.png,stimuli/Social1.png,stimuli/Nonsocial2.png,stimuli/Nonsocial1.png,stimuli/Social4.png,stimuli/Social3.png,stimuli/Nonsocial4.png,stimuli/Nonsocial3.png,cs_pos_ns,,,,,,,,,,0,0,0,0,,,,,,,,,,,,,,,,,0,0,0,3,,,,,,,,,,,,,,,,,,,,,,,891.8874404999997,8.0,4.6917130000001634,,,,,,,,,,,,,,,,,,,,,,,,,,,,,,,,,33,B,2024-05-15_10h07.05.797,attentional_competition_task,2022.2.4,143.89897140895295,
positions.xlsx,positions_test.xlsx,positions_test_new.xlsx,stimuli.xlsx,stimuli_new.xlsx,stimuli/Social2.png,stimuli/Social1.png,stimuli/Nonsocial2.png,stimuli/Nonsocial1.png,stimuli/Social4.png,stimuli/Social3.png,stimuli/Nonsocial4.png,stimuli/Nonsocial3.png,cs_pos_s,,,,,,,,,,0,0,0,0,,,,,,,,,,,,,,,,,0,1,1,2,,,,,,,,,,,,,,,,,,,,,,,897.7621976,8.0,1.6339867000006052,,,,,,,,,,,,,,,,,,,,,,,,,,,,,,,,,33,B,2024-05-15_10h07.05.797,attentional_competition_task,2022.2.4,143.89897140895295,
positions.xlsx,positions_test.xlsx,positions_test_new.xlsx,stimuli.xlsx,stimuli_new.xlsx,stimuli/Social2.png,stimuli/Social1.png,stimuli/Nonsocial2.png,stimuli/Nonsocial1.png,stimuli/Social4.png,stimuli/Social3.png,stimuli/Nonsocial4.png,stimuli/Nonsocial3.png,cs_neg_ns,,,,,,,,,,0,0,0,0,,,,,,,,,,,,,,,,,0,2,2,1,,,,,,,,,,,,,,,,,,,,,,,899.7343425000008,4.0,2.0568230000008043,,,,,,,,,,,,,,,,,,,,,,,,,,,,,,,,,33,B,2024-05-15_10h07.05.797,attentional_competition_task,2022.2.4,143.89897140895295,
positions.xlsx,positions_test.xlsx,positions_test_new.xlsx,stimuli.xlsx,stimuli_new.xlsx,stimuli/Social2.png,stimuli/Social1.png,stimuli/Nonsocial2.png,stimuli/Nonsocial1.png,stimuli/Social4.png,stimuli/Social3.png,stimuli/Nonsocial4.png,stimuli/Nonsocial3.png,cs_neg_s,,,,,,,,,,0,0,0,0,,,,,,,,,,,,,,,,,0,3,3,0,,,,,,,,,,,,,,,,,,,,,,,902.0189758999995,3.0,1.634389500000907,,,,,,,,,,,,,,,,,,,,,,,,,,,,,,,,,33,B,2024-05-15_10h07.05.797,attentional_competition_task,2022.2.4,143.89897140895295,
positions.xlsx,positions_test.xlsx,positions_test_new.xlsx,stimuli.xlsx,stimuli_new.xlsx,stimuli/Social2.png,stimuli/Social1.png,stimuli/Nonsocial2.png,stimuli/Nonsocial1.png,stimuli/Social4.png,stimuli/Social3.png,stimuli/Nonsocial4.png,stimuli/Nonsocial3.png,,,"(-0.7, -0.5)",cs_pos_ns,"(-0.7, 0.5)",cs_pos_s,"(0.7, -0.5)",cs_neg_s,"(0.7, 0.5)",cs_neg_ns,0,0,0,0,,,,,,,,,,,,,,,,,,,,,0,0,0,19,,,,,,,,,,,,,,,,,,,,,,,,,,,78,reward,,,,,903.9494633000004,911.2130490000009,911.2130490000009,911.2130490000009,911.2130490000009,1,0.028384600000208593,0.21848320000026433,0,,,0,,,0,,,911.9352477000002,911.9352477000002,911.9352477000002,911.9352477000002,33,B,2024-05-15_10h07.05.797,attentional_competition_task,2022.2.4,143.89897140895295,
positions.xlsx,positions_test.xlsx,positions_test_new.xlsx,stimuli.xlsx,stimuli_new.xlsx,stimuli/Social2.png,stimuli/Social1.png,stimuli/Nonsocial2.png,stimuli/Nonsocial1.png,stimuli/Social4.png,stimuli/Social3.png,stimuli/Nonsocial4.png,stimuli/Nonsocial3.png,,,"(-0.7, -0.5)",cs_neg_s,"(-0.7, 0.5)",cs_pos_s,"(0.7, -0.5)",cs_neg_ns,"(0.7, 0.5)",cs_pos_ns,0,0,0,0,,,,,,,,,,,,,,,,,,,,,0,1,1,0,,,,,,,,,,,,,,,,,,,,,,,,,,,84,reward,,,,,,919.539115300001,919.539115300001,919.539115300001,919.539115300001,0,,,0,,,0,,,1,0.030094699999608565,0.14820180000060645,920.8515579999994,920.8515579999994,920.8515579999994,920.8515579999994,33,B,2024-05-15_10h07.05.797,attentional_competition_task,2022.2.4,143.89897140895295,
positions.xlsx,positions_test.xlsx,positions_test_new.xlsx,stimuli.xlsx,stimuli_new.xlsx,stimuli/Social2.png,stimuli/Social1.png,stimuli/Nonsocial2.png,stimuli/Nonsocial1.png,stimuli/Social4.png,stimuli/Social3.png,stimuli/Nonsocial4.png,stimuli/Nonsocial3.png,,,"(-0.7, -0.5)",cs_pos_ns,"(-0.7, 0.5)",cs_neg_ns,"(0.7, -0.5)",cs_neg_s,"(0.7, 0.5)",cs_pos_s,0,0,0,0,,,,,,,,,,,,,,,,,,,,,0,2,2,21,,,,,,,,,,,,,,,,,,,,,,,,,,,90,reward,,,,,,928.2818180000004,928.2818180000004,928.2818180000004,928.2818180000004,0,,,0,,,0,,,1,0.03128800000013143,0.1480410000003758,929.733139500001,929.733139500001,929.733139500001,929.733139500001,33,B,2024-05-15_10h07.05.797,attentional_competition_task,2022.2.4,143.89897140895295,
positions.xlsx,positions_test.xlsx,positions_test_new.xlsx,stimuli.xlsx,stimuli_new.xlsx,stimuli/Social2.png,stimuli/Social1.png,stimuli/Nonsocial2.png,stimuli/Nonsocial1.png,stimuli/Social4.png,stimuli/Social3.png,stimuli/Nonsocial4.png,stimuli/Nonsocial3.png,,,"(-0.7, -0.5)",cs_neg_ns,"(-0.7, 0.5)",cs_pos_ns,"(0.7, -0.5)",cs_pos_s,"(0.7, 0.5)",cs_neg_s,0,0,0,0,,,,,,,,,,,,,,,,,,,,,0,3,3,16,,,,,,,,,,,,,,,,,,,,,,,,,,,87,loss,,,,,,937.6702943999999,937.6702943999999,937.6702943999999,937.6702943999999,0,,,0,,,0,,,1,0.36993409999922733,0.3699378999990586,938.0383680999994,938.0383680999994,938.0383680999994,938.0383680999994,33,B,2024-05-15_10h07.05.797,attentional_competition_task,2022.2.4,143.89897140895295,
positions.xlsx,positions_test.xlsx,positions_test_new.xlsx,stimuli.xlsx,stimuli_new.xlsx,stimuli/Social2.png,stimuli/Social1.png,stimuli/Nonsocial2.png,stimuli/Nonsocial1.png,stimuli/Social4.png,stimuli/Social3.png,stimuli/Nonsocial4.png,stimuli/Nonsocial3.png,,,"(-0.7, -0.5)",cs_pos_s,"(-0.7, 0.5)",cs_neg_s,"(0.7, -0.5)",cs_neg_ns,"(0.7, 0.5)",cs_pos_ns,0,0,0,0,,,,,,,,,,,,,,,,,,,,,0,4,4,6,,,,,,,,,,,,,,,,,,,,,,,,,,,96,reward,,,,,,946.7185665000006,946.7185665000006,946.7185665000006,946.7185665000006,1,0.022974800000156392,0.05250700000033248,0,,,0,,,0,,,947.5658092000003,947.5658092000003,947.5658092000003,947.5658092000003,33,B,2024-05-15_10h07.05.797,attentional_competition_task,2022.2.4,143.89897140895295,
positions.xlsx,positions_test.xlsx,positions_test_new.xlsx,stimuli.xlsx,stimuli_new.xlsx,stimuli/Social2.png,stimuli/Social1.png,stimuli/Nonsocial2.png,stimuli/Nonsocial1.png,stimuli/Social4.png,stimuli/Social3.png,stimuli/Nonsocial4.png,stimuli/Nonsocial3.png,,,"(-0.7, -0.5)",cs_neg_s,"(-0.7, 0.5)",cs_neg_ns,"(0.7, -0.5)",cs_pos_ns,"(0.7, 0.5)",cs_pos_s,0,0,0,0,,,,,,,,,,,,,,,,,,,,,0,5,5,3,,,,,,,,,,,,,,,,,,,,,,,,,,,105,reward,,,,,,955.5515353000001,955.5515353000001,955.5515353000001,955.5515353000001,0,,,0,,,0,,,1,0.02614989999892714,0.05404169999928854,956.4820793999997,956.4820793999997,956.4820793999997,956.4820793999997,33,B,2024-05-15_10h07.05.797,attentional_competition_task,2022.2.4,143.89897140895295,
positions.xlsx,positions_test.xlsx,positions_test_new.xlsx,stimuli.xlsx,stimuli_new.xlsx,stimuli/Social2.png,stimuli/Social1.png,stimuli/Nonsocial2.png,stimuli/Nonsocial1.png,stimuli/Social4.png,stimuli/Social3.png,stimuli/Nonsocial4.png,stimuli/Nonsocial3.png,,,"(-0.7, -0.5)",cs_pos_ns,"(-0.7, 0.5)",cs_pos_s,"(0.7, -0.5)",cs_neg_ns,"(0.7, 0.5)",cs_neg_s,0,0,0,0,,,,,,,,,,,,,,,,,,,,,0,6,6,18,,,,,,,,,,,,,,,,,,,,,,,,,,,114,reward,,,,,,963.6345613999993,963.6345613999993,963.6345613999993,963.6345613999993,0,,,0,,,0,,,0,,,964.6206585999998,964.6206585999998,964.6206585999998,964.6206585999998,33,B,2024-05-15_10h07.05.797,attentional_competition_task,2022.2.4,143.89897140895295,
positions.xlsx,positions_test.xlsx,positions_test_new.xlsx,stimuli.xlsx,stimuli_new.xlsx,stimuli/Social2.png,stimuli/Social1.png,stimuli/Nonsocial2.png,stimuli/Nonsocial1.png,stimuli/Social4.png,stimuli/Social3.png,stimuli/Nonsocial4.png,stimuli/Nonsocial3.png,,,"(-0.7, -0.5)",cs_neg_ns,"(-0.7, 0.5)",cs_neg_s,"(0.7, -0.5)",cs_pos_s,"(0.7, 0.5)",cs_pos_ns,0,0,0,0,,,,,,,,,,,,,,,,,,,,,0,7,7,14,,,,,,,,,,,,,,,,,,,,,,,,,,,123,reward,,,,,,972.4050629000003,972.4050629000003,972.4050629000003,972.4050629000003,0,,,0,,,1,0.031616199999916716,0.17129819999900064,0,,,973.4188994999995,973.4188994999995,973.4188994999995,973.4188994999995,33,B,2024-05-15_10h07.05.797,attentional_competition_task,2022.2.4,143.89897140895295,
positions.xlsx,positions_test.xlsx,positions_test_new.xlsx,stimuli.xlsx,stimuli_new.xlsx,stimuli/Social2.png,stimuli/Social1.png,stimuli/Nonsocial2.png,stimuli/Nonsocial1.png,stimuli/Social4.png,stimuli/Social3.png,stimuli/Nonsocial4.png,stimuli/Nonsocial3.png,,,"(-0.7, -0.5)",cs_neg_ns,"(-0.7, 0.5)",cs_pos_s,"(0.7, -0.5)",cs_neg_s,"(0.7, 0.5)",cs_pos_ns,0,0,0,0,,,,,,,,,,,,,,,,,,,,,0,8,8,12,,,,,,,,,,,,,,,,,,,,,,,,,,,126,loss,,,,,,980.9394507999996,980.9394507999996,980.9394507999996,980.9394507999996,1,0.3297421999996004,0.329746299999897,1,0.023474999999962165,0.3230325000004086,0,,,0,,,981.7727289000004,981.7727289000004,981.7727289000004,981.7727289000004,33,B,2024-05-15_10h07.05.797,attentional_competition_task,2022.2.4,143.89897140895295,
positions.xlsx,positions_test.xlsx,positions_test_new.xlsx,stimuli.xlsx,stimuli_new.xlsx,stimuli/Social2.png,stimuli/Social1.png,stimuli/Nonsocial2.png,stimuli/Nonsocial1.png,stimuli/Social4.png,stimuli/Social3.png,stimuli/Nonsocial4.png,stimuli/Nonsocial3.png,,,"(-0.7, -0.5)",cs_pos_ns,"(-0.7, 0.5)",cs_neg_ns,"(0.7, -0.5)",cs_pos_s,"(0.7, 0.5)",cs_neg_s,0,0,0,0,,,,,,,,,,,,,,,,,,,,,0,9,9,20,,,,,,,,,,,,,,,,,,,,,,,,,,,135,reward,,,,,,989.8418183000003,989.8418183000003,989.8418183000003,989.8418183000003,0,,,0,,,1,0.02367469999990135,0.17062170000099286,0,,,990.5918370999998,990.5918370999998,990.5918370999998,990.5918370999998,33,B,2024-05-15_10h07.05.797,attentional_competition_task,2022.2.4,143.89897140895295,
positions.xlsx,positions_test.xlsx,positions_test_new.xlsx,stimuli.xlsx,stimuli_new.xlsx,stimuli/Social2.png,stimuli/Social1.png,stimuli/Nonsocial2.png,stimuli/Nonsocial1.png,stimuli/Social4.png,stimuli/Social3.png,stimuli/Nonsocial4.png,stimuli/Nonsocial3.png,,,"(-0.7, -0.5)",cs_pos_s,"(-0.7, 0.5)",cs_pos_ns,"(0.7, -0.5)",cs_neg_s,"(0.7, 0.5)",cs_neg_ns,0,0,0,0,,,,,,,,,,,,,,,,,,,,,0,10,10,10,,,,,,,,,,,,,,,,,,,,,,,,,,,144,reward,,,,,,998.4317858000004,998.4317858000004,998.4317858000004,998.4317858000004,1,0.024111900000207243,0.04491020000023127,0,,,0,,,0,,,999.3345118000007,999.3345118000007,999.3345118000007,999.3345118000007,33,B,2024-05-15_10h07.05.797,attentional_competition_task,2022.2.4,143.89897140895295,
positions.xlsx,positions_test.xlsx,positions_test_new.xlsx,stimuli.xlsx,stimuli_new.xlsx,stimuli/Social2.png,stimuli/Social1.png,stimuli/Nonsocial2.png,stimuli/Nonsocial1.png,stimuli/Social4.png,stimuli/Social3.png,stimuli/Nonsocial4.png,stimuli/Nonsocial3.png,,,"(-0.7, -0.5)",cs_neg_s,"(-0.7, 0.5)",cs_pos_s,"(0.7, -0.5)",cs_pos_ns,"(0.7, 0.5)",cs_neg_ns,0,0,0,0,,,,,,,,,,,,,,,,,,,,,0,11,11,1,,,,,,,,,,,,,,,,,,,,,,,,,,,147,loss,,,,,,1007.8341694000001,1007.8341694000001,1007.8341694000001,1007.8341694000001,0,,,1,0.023465899999791873,0.23961210000015853,0,,,0,,,1008.0911363000005,1008.0911363000005,1008.0911363000005,1008.0911363000005,33,B,2024-05-15_10h07.05.797,attentional_competition_task,2022.2.4,143.89897140895295,
positions.xlsx,positions_test.xlsx,positions_test_new.xlsx,stimuli.xlsx,stimuli_new.xlsx,stimuli/Social2.png,stimuli/Social1.png,stimuli/Nonsocial2.png,stimuli/Nonsocial1.png,stimuli/Social4.png,stimuli/Social3.png,stimuli/Nonsocial4.png,stimuli/Nonsocial3.png,,,"(-0.7, -0.5)",cs_neg_ns,"(-0.7, 0.5)",cs_pos_s,"(0.7, -0.5)",cs_pos_ns,"(0.7, 0.5)",cs_neg_s,0,0,0,0,,,,,,,,,,,,,,,,,,,,,0,12,12,13,,,,,,,,,,,,,,,,,,,,,,,,,,,156,reward,,,,,,1016.2782744999995,1016.2782744999995,1016.2782744999995,1016.2782744999995,0,,,0,,,1,0.02952209999966726,0.3562125999997079,0,,,1017.1810642999999,1017.1810642999999,1017.1810642999999,1017.1810642999999,33,B,2024-05-15_10h07.05.797,attentional_competition_task,2022.2.4,143.89897140895295,
positions.xlsx,positions_test.xlsx,positions_test_new.xlsx,stimuli.xlsx,stimuli_new.xlsx,stimuli/Social2.png,stimuli/Social1.png,stimuli/Nonsocial2.png,stimuli/Nonsocial1.png,stimuli/Social4.png,stimuli/Social3.png,stimuli/Nonsocial4.png,stimuli/Nonsocial3.png,,,"(-0.7, -0.5)",cs_neg_s,"(-0.7, 0.5)",cs_pos_ns,"(0.7, -0.5)",cs_neg_ns,"(0.7, 0.5)",cs_pos_s,0,0,0,0,,,,,,,,,,,,,,,,,,,,,0,13,13,5,,,,,,,,,,,,,,,,,,,,,,,,,,,165,reward,,,,,,1024.4515610999997,1024.4515610999997,1024.4515610999997,1024.4515610999997,0,,,0,,,0,,,0,,,1025.3543295999998,1025.3543295999998,1025.3543295999998,1025.3543295999998,33,B,2024-05-15_10h07.05.797,attentional_competition_task,2022.2.4,143.89897140895295,
positions.xlsx,positions_test.xlsx,positions_test_new.xlsx,stimuli.xlsx,stimuli_new.xlsx,stimuli/Social2.png,stimuli/Social1.png,stimuli/Nonsocial2.png,stimuli/Nonsocial1.png,stimuli/Social4.png,stimuli/Social3.png,stimuli/Nonsocial4.png,stimuli/Nonsocial3.png,,,"(-0.7, -0.5)",cs_neg_ns,"(-0.7, 0.5)",cs_neg_s,"(0.7, -0.5)",cs_pos_ns,"(0.7, 0.5)",cs_pos_s,0,0,0,0,,,,,,,,,,,,,,,,,,,,,0,14,14,15,,,,,,,,,,,,,,,,,,,,,,,,,,,174,reward,,,,,,1032.6456449999996,1032.6456449999996,1032.6456449999996,1032.6456449999996,0,,,0,,,0,,,0,,,1033.6178642999994,1033.6178642999994,1033.6178642999994,1033.6178642999994,33,B,2024-05-15_10h07.05.797,attentional_competition_task,2022.2.4,143.89897140895295,
positions.xlsx,positions_test.xlsx,positions_test_new.xlsx,stimuli.xlsx,stimuli_new.xlsx,stimuli/Social2.png,stimuli/Social1.png,stimuli/Nonsocial2.png,stimuli/Nonsocial1.png,stimuli/Social4.png,stimuli/Social3.png,stimuli/Nonsocial4.png,stimuli/Nonsocial3.png,,,"(-0.7, -0.5)",cs_pos_ns,"(-0.7, 0.5)",cs_neg_s,"(0.7, -0.5)",cs_pos_s,"(0.7, 0.5)",cs_neg_ns,0,0,0,0,,,,,,,,,,,,,,,,,,,,,0,15,15,22,,,,,,,,,,,,,,,,,,,,,,,,,,,183,reward,,,,,,1041.5897343999995,1041.5897343999995,1041.5897343999995,1041.5897343999995,0,,,0,,,0,,,0,,,1042.284181600001,1042.284181600001,1042.284181600001,1042.284181600001,33,B,2024-05-15_10h07.05.797,attentional_competition_task,2022.2.4,143.89897140895295,
positions.xlsx,positions_test.xlsx,positions_test_new.xlsx,stimuli.xlsx,stimuli_new.xlsx,stimuli/Social2.png,stimuli/Social1.png,stimuli/Nonsocial2.png,stimuli/Nonsocial1.png,stimuli/Social4.png,stimuli/Social3.png,stimuli/Nonsocial4.png,stimuli/Nonsocial3.png,,,"(-0.7, -0.5)",cs_pos_s,"(-0.7, 0.5)",cs_neg_s,"(0.7, -0.5)",cs_pos_ns,"(0.7, 0.5)",cs_neg_ns,0,0,0,0,,,,,,,,,,,,,,,,,,,,,0,16,16,7,,,,,,,,,,,,,,,,,,,,,,,,,,,192,reward,,,,,,1050.1103061000003,1050.1103061000003,1050.1103061000003,1050.1103061000003,1,0.023553000000902102,0.4129794000000402,0,,,0,,,0,,,1051.0268905000003,1051.0268905000003,1051.0268905000003,1051.0268905000003,33,B,2024-05-15_10h07.05.797,attentional_competition_task,2022.2.4,143.89897140895295,
positions.xlsx,positions_test.xlsx,positions_test_new.xlsx,stimuli.xlsx,stimuli_new.xlsx,stimuli/Social2.png,stimuli/Social1.png,stimuli/Nonsocial2.png,stimuli/Nonsocial1.png,stimuli/Social4.png,stimuli/Social3.png,stimuli/Nonsocial4.png,stimuli/Nonsocial3.png,,,"(-0.7, -0.5)",cs_neg_s,"(-0.7, 0.5)",cs_pos_ns,"(0.7, -0.5)",cs_pos_s,"(0.7, 0.5)",cs_neg_ns,0,0,0,0,,,,,,,,,,,,,,,,,,,,,0,17,17,4,,,,,,,,,,,,,,,,,,,,,,,,,,,201,reward,,,,,,1058.6724067999994,1058.6724067999994,1058.6724067999994,1058.6724067999994,0,,,1,0.023757599999953527,0.03959690000010596,0,,,0,,,1059.6029353999993,1059.6029353999993,1059.6029353999993,1059.6029353999993,33,B,2024-05-15_10h07.05.797,attentional_competition_task,2022.2.4,143.89897140895295,
positions.xlsx,positions_test.xlsx,positions_test_new.xlsx,stimuli.xlsx,stimuli_new.xlsx,stimuli/Social2.png,stimuli/Social1.png,stimuli/Nonsocial2.png,stimuli/Nonsocial1.png,stimuli/Social4.png,stimuli/Social3.png,stimuli/Nonsocial4.png,stimuli/Nonsocial3.png,,,"(-0.7, -0.5)",cs_pos_ns,"(-0.7, 0.5)",cs_neg_s,"(0.7, -0.5)",cs_neg_ns,"(0.7, 0.5)",cs_pos_s,0,0,0,0,,,,,,,,,,,,,,,,,,,,,0,18,18,23,,,,,,,,,,,,,,,,,,,,,,,,,,,210,reward,,,,,,1067.449837700001,1067.449837700001,1067.449837700001,1067.449837700001,0,,,0,,,0,,,1,0.027016399999411078,0.07608600000094157,1068.3178574999993,1068.3178574999993,1068.3178574999993,1068.3178574999993,33,B,2024-05-15_10h07.05.797,attentional_competition_task,2022.2.4,143.89897140895295,
positions.xlsx,positions_test.xlsx,positions_test_new.xlsx,stimuli.xlsx,stimuli_new.xlsx,stimuli/Social2.png,stimuli/Social1.png,stimuli/Nonsocial2.png,stimuli/Nonsocial1.png,stimuli/Social4.png,stimuli/Social3.png,stimuli/Nonsocial4.png,stimuli/Nonsocial3.png,,,"(-0.7, -0.5)",cs_pos_s,"(-0.7, 0.5)",cs_neg_ns,"(0.7, -0.5)",cs_neg_s,"(0.7, 0.5)",cs_pos_ns,0,0,0,0,,,,,,,,,,,,,,,,,,,,,0,19,19,8,,,,,,,,,,,,,,,,,,,,,,,,,,,219,reward,,,,,,1076.1995013000005,1076.1995013000005,1076.1995013000005,1076.1995013000005,1,0.023778200000379,0.05899499999941327,0,,,0,,,0,,,1076.9355731000005,1076.9355731000005,1076.9355731000005,1076.9355731000005,33,B,2024-05-15_10h07.05.797,attentional_competition_task,2022.2.4,143.89897140895295,
positions.xlsx,positions_test.xlsx,positions_test_new.xlsx,stimuli.xlsx,stimuli_new.xlsx,stimuli/Social2.png,stimuli/Social1.png,stimuli/Nonsocial2.png,stimuli/Nonsocial1.png,stimuli/Social4.png,stimuli/Social3.png,stimuli/Nonsocial4.png,stimuli/Nonsocial3.png,,,"(-0.7, -0.5)",cs_neg_ns,"(-0.7, 0.5)",cs_pos_ns,"(0.7, -0.5)",cs_neg_s,"(0.7, 0.5)",cs_pos_s,0,0,0,0,,,,,,,,,,,,,,,,,,,,,0,20,20,17,,,,,,,,,,,,,,,,,,,,,,,,,,,228,reward,,,,,,1083.9144475000003,1083.9144475000003,1083.9144475000003,1083.9144475000003,0,,,0,,,0,,,0,,,1084.6506168999995,1084.6506168999995,1084.6506168999995,1084.6506168999995,33,B,2024-05-15_10h07.05.797,attentional_competition_task,2022.2.4,143.89897140895295,
positions.xlsx,positions_test.xlsx,positions_test_new.xlsx,stimuli.xlsx,stimuli_new.xlsx,stimuli/Social2.png,stimuli/Social1.png,stimuli/Nonsocial2.png,stimuli/Nonsocial1.png,stimuli/Social4.png,stimuli/Social3.png,stimuli/Nonsocial4.png,stimuli/Nonsocial3.png,,,"(-0.7, -0.5)",cs_neg_s,"(-0.7, 0.5)",cs_neg_ns,"(0.7, -0.5)",cs_pos_s,"(0.7, 0.5)",cs_pos_ns,0,0,0,0,,,,,,,,,,,,,,,,,,,,,0,21,21,2,,,,,,,,,,,,,,,,,,,,,,,,,,,237,reward,,,,,,1092.698822200001,1092.698822200001,1092.698822200001,1092.698822200001,0,,,0,,,0,,,0,,,1093.6223923999996,1093.6223923999996,1093.6223923999996,1093.6223923999996,33,B,2024-05-15_10h07.05.797,attentional_competition_task,2022.2.4,143.89897140895295,
positions.xlsx,positions_test.xlsx,positions_test_new.xlsx,stimuli.xlsx,stimuli_new.xlsx,stimuli/Social2.png,stimuli/Social1.png,stimuli/Nonsocial2.png,stimuli/Nonsocial1.png,stimuli/Social4.png,stimuli/Social3.png,stimuli/Nonsocial4.png,stimuli/Nonsocial3.png,,,"(-0.7, -0.5)",cs_pos_s,"(-0.7, 0.5)",cs_pos_ns,"(0.7, -0.5)",cs_neg_ns,"(0.7, 0.5)",cs_neg_s,0,0,0,0,,,,,,,,,,,,,,,,,,,,,0,22,22,11,,,,,,,,,,,,,,,,,,,,,,,,,,,246,reward,,,,,,1101.5942965999993,1101.5942965999993,1101.5942965999993,1101.5942965999993,0,,,0,,,0,,,0,,,1102.6011936999994,1102.6011936999994,1102.6011936999994,1102.6011936999994,33,B,2024-05-15_10h07.05.797,attentional_competition_task,2022.2.4,143.89897140895295,
positions.xlsx,positions_test.xlsx,positions_test_new.xlsx,stimuli.xlsx,stimuli_new.xlsx,stimuli/Social2.png,stimuli/Social1.png,stimuli/Nonsocial2.png,stimuli/Nonsocial1.png,stimuli/Social4.png,stimuli/Social3.png,stimuli/Nonsocial4.png,stimuli/Nonsocial3.png,,,"(-0.7, -0.5)",cs_pos_s,"(-0.7, 0.5)",cs_neg_ns,"(0.7, -0.5)",cs_pos_ns,"(0.7, 0.5)",cs_neg_s,0,0,0,0,,,,,,,,,,,,,,,,,,,,,0,23,23,9,,,,,,,,,,,,,,,,,,,,,,,,,,,255,reward,,,,,,1110.6772623999996,1110.6772623999996,1110.6772623999996,1110.6772623999996,1,0.022081999999500113,0.09318899999925634,0,,,0,,,0,,,1111.5591840000006,1111.5591840000006,1111.5591840000006,1111.5591840000006,33,B,2024-05-15_10h07.05.797,attentional_competition_task,2022.2.4,143.89897140895295,
positions.xlsx,positions_test.xlsx,positions_test_new.xlsx,stimuli.xlsx,stimuli_new.xlsx,stimuli/Social2.png,stimuli/Social1.png,stimuli/Nonsocial2.png,stimuli/Nonsocial1.png,stimuli/Social4.png,stimuli/Social3.png,stimuli/Nonsocial4.png,stimuli/Nonsocial3.png,,,"(-0.7, -0.5)",cs_neg_ns,"(-0.7, 0.5)",cs_pos_ns,"(0.7, -0.5)",cs_neg_s,"(0.7, 0.5)",cs_pos_s,0,0,0,0,,,,,,,,,,,,,,,,,,,,,1,0,24,17,,,,,,,,,,,,,,,,,,,,,,,,,,,264,reward,,,,,,1120.0171516,1120.0171516,1120.0171516,1120.0171516,0,,,0,,,0,,,1,0.02502439999989292,0.032995900000969414,1120.7810361000002,1120.7810361000002,1120.7810361000002,1120.7810361000002,33,B,2024-05-15_10h07.05.797,attentional_competition_task,2022.2.4,143.89897140895295,
positions.xlsx,positions_test.xlsx,positions_test_new.xlsx,stimuli.xlsx,stimuli_new.xlsx,stimuli/Social2.png,stimuli/Social1.png,stimuli/Nonsocial2.png,stimuli/Nonsocial1.png,stimuli/Social4.png,stimuli/Social3.png,stimuli/Nonsocial4.png,stimuli/Nonsocial3.png,,,"(-0.7, -0.5)",cs_pos_s,"(-0.7, 0.5)",cs_neg_ns,"(0.7, -0.5)",cs_neg_s,"(0.7, 0.5)",cs_pos_ns,0,0,0,0,,,,,,,,,,,,,,,,,,,,,1,1,25,8,,,,,,,,,,,,,,,,,,,,,,,,,,,273,reward,,,,,,1128.6695986000004,1128.6695986000004,1128.6695986000004,1128.6695986000004,0,,,0,,,0,,,0,,,1129.6834898000006,1129.6834898000006,1129.6834898000006,1129.6834898000006,33,B,2024-05-15_10h07.05.797,attentional_competition_task,2022.2.4,143.89897140895295,
positions.xlsx,positions_test.xlsx,positions_test_new.xlsx,stimuli.xlsx,stimuli_new.xlsx,stimuli/Social2.png,stimuli/Social1.png,stimuli/Nonsocial2.png,stimuli/Nonsocial1.png,stimuli/Social4.png,stimuli/Social3.png,stimuli/Nonsocial4.png,stimuli/Nonsocial3.png,,,"(-0.7, -0.5)",cs_pos_s,"(-0.7, 0.5)",cs_neg_ns,"(0.7, -0.5)",cs_pos_ns,"(0.7, 0.5)",cs_neg_s,0,0,0,0,,,,,,,,,,,,,,,,,,,,,1,2,26,9,,,,,,,,,,,,,,,,,,,,,,,,,,,282,reward,,,,,,1138.0303725999993,1138.0303725999993,1138.0303725999993,1138.0303725999993,0,,,0,,,0,,,0,,,1138.981691,1138.981691,1138.981691,1138.981691,33,B,2024-05-15_10h07.05.797,attentional_competition_task,2022.2.4,143.89897140895295,
positions.xlsx,positions_test.xlsx,positions_test_new.xlsx,stimuli.xlsx,stimuli_new.xlsx,stimuli/Social2.png,stimuli/Social1.png,stimuli/Nonsocial2.png,stimuli/Nonsocial1.png,stimuli/Social4.png,stimuli/Social3.png,stimuli/Nonsocial4.png,stimuli/Nonsocial3.png,,,"(-0.7, -0.5)",cs_neg_s,"(-0.7, 0.5)",cs_pos_ns,"(0.7, -0.5)",cs_pos_s,"(0.7, 0.5)",cs_neg_ns,0,0,0,0,,,,,,,,,,,,,,,,,,,,,1,3,27,4,,,,,,,,,,,,,,,,,,,,,,,,,,,291,reward,,,,,,1146.5161584000007,1146.5161584000007,1146.5161584000007,1146.5161584000007,0,,,0,,,0,,,0,,,1147.3702951000005,1147.3702951000005,1147.3702951000005,1147.3702951000005,33,B,2024-05-15_10h07.05.797,attentional_competition_task,2022.2.4,143.89897140895295,
positions.xlsx,positions_test.xlsx,positions_test_new.xlsx,stimuli.xlsx,stimuli_new.xlsx,stimuli/Social2.png,stimuli/Social1.png,stimuli/Nonsocial2.png,stimuli/Nonsocial1.png,stimuli/Social4.png,stimuli/Social3.png,stimuli/Nonsocial4.png,stimuli/Nonsocial3.png,,,"(-0.7, -0.5)",cs_neg_ns,"(-0.7, 0.5)",cs_pos_s,"(0.7, -0.5)",cs_pos_ns,"(0.7, 0.5)",cs_neg_s,0,0,0,0,,,,,,,,,,,,,,,,,,,,,1,4,28,13,,,,,,,,,,,,,,,,,,,,,,,,,,,300,reward,,,,,,1154.8629900999995,1154.8629900999995,1154.8629900999995,1154.8629900999995,0,,,0,,,0,,,0,,,1155.7032219000002,1155.7032219000002,1155.7032219000002,1155.7032219000002,33,B,2024-05-15_10h07.05.797,attentional_competition_task,2022.2.4,143.89897140895295,
positions.xlsx,positions_test.xlsx,positions_test_new.xlsx,stimuli.xlsx,stimuli_new.xlsx,stimuli/Social2.png,stimuli/Social1.png,stimuli/Nonsocial2.png,stimuli/Nonsocial1.png,stimuli/Social4.png,stimuli/Social3.png,stimuli/Nonsocial4.png,stimuli/Nonsocial3.png,,,"(-0.7, -0.5)",cs_neg_s,"(-0.7, 0.5)",cs_neg_ns,"(0.7, -0.5)",cs_pos_ns,"(0.7, 0.5)",cs_pos_s,0,0,0,0,,,,,,,,,,,,,,,,,,,,,1,5,29,3,,,,,,,,,,,,,,,,,,,,,,,,,,,309,reward,,,,,,1163.3765355999994,1163.3765355999994,1163.3765355999994,1163.3765355999994,0,,,0,,,0,,,0,,,1164.2098462999993,1164.2098462999993,1164.2098462999993,1164.2098462999993,33,B,2024-05-15_10h07.05.797,attentional_competition_task,2022.2.4,143.89897140895295,
positions.xlsx,positions_test.xlsx,positions_test_new.xlsx,stimuli.xlsx,stimuli_new.xlsx,stimuli/Social2.png,stimuli/Social1.png,stimuli/Nonsocial2.png,stimuli/Nonsocial1.png,stimuli/Social4.png,stimuli/Social3.png,stimuli/Nonsocial4.png,stimuli/Nonsocial3.png,,,"(-0.7, -0.5)",cs_pos_ns,"(-0.7, 0.5)",cs_pos_s,"(0.7, -0.5)",cs_neg_ns,"(0.7, 0.5)",cs_neg_s,0,0,0,0,,,,,,,,,,,,,,,,,,,,,1,6,30,18,,,,,,,,,,,,,,,,,,,,,,,,,,,318,reward,,,,,,1171.5150977000003,1171.5150977000003,1171.5150977000003,1171.5150977000003,0,,,0,,,0,,,0,,,1172.4525796000007,1172.4525796000007,1172.4525796000007,1172.4525796000007,33,B,2024-05-15_10h07.05.797,attentional_competition_task,2022.2.4,143.89897140895295,
positions.xlsx,positions_test.xlsx,positions_test_new.xlsx,stimuli.xlsx,stimuli_new.xlsx,stimuli/Social2.png,stimuli/Social1.png,stimuli/Nonsocial2.png,stimuli/Nonsocial1.png,stimuli/Social4.png,stimuli/Social3.png,stimuli/Nonsocial4.png,stimuli/Nonsocial3.png,,,"(-0.7, -0.5)",cs_neg_ns,"(-0.7, 0.5)",cs_neg_s,"(0.7, -0.5)",cs_pos_ns,"(0.7, 0.5)",cs_pos_s,0,0,0,0,,,,,,,,,,,,,,,,,,,,,1,7,31,15,,,,,,,,,,,,,,,,,,,,,,,,,,,327,reward,,,,,,1179.7925528999995,1179.7925528999995,1179.7925528999995,1179.7925528999995,0,,,0,,,0,,,0,,,1180.7578248,1180.7578248,1180.7578248,1180.7578248,33,B,2024-05-15_10h07.05.797,attentional_competition_task,2022.2.4,143.89897140895295,
positions.xlsx,positions_test.xlsx,positions_test_new.xlsx,stimuli.xlsx,stimuli_new.xlsx,stimuli/Social2.png,stimuli/Social1.png,stimuli/Nonsocial2.png,stimuli/Nonsocial1.png,stimuli/Social4.png,stimuli/Social3.png,stimuli/Nonsocial4.png,stimuli/Nonsocial3.png,,,"(-0.7, -0.5)",cs_pos_ns,"(-0.7, 0.5)",cs_neg_ns,"(0.7, -0.5)",cs_pos_s,"(0.7, 0.5)",cs_neg_s,0,0,0,0,,,,,,,,,,,,,,,,,,,,,1,8,32,20,,,,,,,,,,,,,,,,,,,,,,,,,,,333,reward,,,,,,1187.9102835999993,1187.9102835999993,1187.9102835999993,1187.9102835999993,1,0.028976100000363658,0.2518014999986917,0,,,1,0.3214195999989897,0.32142339999882097,0,,,1188.2366262000005,1188.2366262000005,1188.2366262000005,1188.2366262000005,33,B,2024-05-15_10h07.05.797,attentional_competition_task,2022.2.4,143.89897140895295,
positions.xlsx,positions_test.xlsx,positions_test_new.xlsx,stimuli.xlsx,stimuli_new.xlsx,stimuli/Social2.png,stimuli/Social1.png,stimuli/Nonsocial2.png,stimuli/Nonsocial1.png,stimuli/Social4.png,stimuli/Social3.png,stimuli/Nonsocial4.png,stimuli/Nonsocial3.png,,,"(-0.7, -0.5)",cs_neg_s,"(-0.7, 0.5)",cs_pos_ns,"(0.7, -0.5)",cs_neg_ns,"(0.7, 0.5)",cs_pos_s,0,0,0,0,,,,,,,,,,,,,,,,,,,,,1,9,33,5,,,,,,,,,,,,,,,,,,,,,,,,,,,342,reward,,,,,,1196.0210565000007,1196.0210565000007,1196.0210565000007,1196.0210565000007,0,,,0,,,0,,,1,0.024326000000655768,0.24856089999957476,1196.9515791000003,1196.9515791000003,1196.9515791000003,1196.9515791000003,33,B,2024-05-15_10h07.05.797,attentional_competition_task,2022.2.4,143.89897140895295,
positions.xlsx,positions_test.xlsx,positions_test_new.xlsx,stimuli.xlsx,stimuli_new.xlsx,stimuli/Social2.png,stimuli/Social1.png,stimuli/Nonsocial2.png,stimuli/Nonsocial1.png,stimuli/Social4.png,stimuli/Social3.png,stimuli/Nonsocial4.png,stimuli/Nonsocial3.png,,,"(-0.7, -0.5)",cs_neg_s,"(-0.7, 0.5)",cs_neg_ns,"(0.7, -0.5)",cs_pos_s,"(0.7, 0.5)",cs_pos_ns,0,0,0,0,,,,,,,,,,,,,,,,,,,,,1,10,34,2,,,,,,,,,,,,,,,,,,,,,,,,,,,351,reward,,,,,,1204.9789919000004,1204.9789919000004,1204.9789919000004,1204.9789919000004,0,,,0,,,0,,,0,,,1205.8540303,1205.8540303,1205.8540303,1205.8540303,33,B,2024-05-15_10h07.05.797,attentional_competition_task,2022.2.4,143.89897140895295,
positions.xlsx,positions_test.xlsx,positions_test_new.xlsx,stimuli.xlsx,stimuli_new.xlsx,stimuli/Social2.png,stimuli/Social1.png,stimuli/Nonsocial2.png,stimuli/Nonsocial1.png,stimuli/Social4.png,stimuli/Social3.png,stimuli/Nonsocial4.png,stimuli/Nonsocial3.png,,,"(-0.7, -0.5)",cs_pos_s,"(-0.7, 0.5)",cs_pos_ns,"(0.7, -0.5)",cs_neg_s,"(0.7, 0.5)",cs_neg_ns,0,0,0,0,,,,,,,,,,,,,,,,,,,,,1,11,35,10,,,,,,,,,,,,,,,,,,,,,,,,,,,360,reward,,,,,,1213.5134091999998,1213.5134091999998,1213.5134091999998,1213.5134091999998,1,0.029985299999680137,0.23154210000029707,0,,,0,,,0,,,1214.3258895999998,1214.3258895999998,1214.3258895999998,1214.3258895999998,33,B,2024-05-15_10h07.05.797,attentional_competition_task,2022.2.4,143.89897140895295,
positions.xlsx,positions_test.xlsx,positions_test_new.xlsx,stimuli.xlsx,stimuli_new.xlsx,stimuli/Social2.png,stimuli/Social1.png,stimuli/Nonsocial2.png,stimuli/Nonsocial1.png,stimuli/Social4.png,stimuli/Social3.png,stimuli/Nonsocial4.png,stimuli/Nonsocial3.png,,,"(-0.7, -0.5)",cs_neg_s,"(-0.7, 0.5)",cs_pos_s,"(0.7, -0.5)",cs_pos_ns,"(0.7, 0.5)",cs_neg_ns,0,0,0,0,,,,,,,,,,,,,,,,,,,,,1,12,36,1,,,,,,,,,,,,,,,,,,,,,,,,,,,369,reward,,,,,,1221.5339345000002,1221.5339345000002,1221.5339345000002,1221.5339345000002,1,0.21135279999907652,0.21751559999938763,1,0.02374509999935981,0.20517450000079407,0,,,0,,,1222.3741830000008,1222.3741830000008,1222.3741830000008,1222.3741830000008,33,B,2024-05-15_10h07.05.797,attentional_competition_task,2022.2.4,143.89897140895295,
positions.xlsx,positions_test.xlsx,positions_test_new.xlsx,stimuli.xlsx,stimuli_new.xlsx,stimuli/Social2.png,stimuli/Social1.png,stimuli/Nonsocial2.png,stimuli/Nonsocial1.png,stimuli/Social4.png,stimuli/Social3.png,stimuli/Nonsocial4.png,stimuli/Nonsocial3.png,,,"(-0.7, -0.5)",cs_pos_s,"(-0.7, 0.5)",cs_pos_ns,"(0.7, -0.5)",cs_neg_ns,"(0.7, 0.5)",cs_neg_s,0,0,0,0,,,,,,,,,,,,,,,,,,,,,1,13,37,11,,,,,,,,,,,,,,,,,,,,,,,,,,,378,reward,,,,,,1229.6238789999998,1229.6238789999998,1229.6238789999998,1229.6238789999998,0,,,0,,,0,,,0,,,1230.5960755999995,1230.5960755999995,1230.5960755999995,1230.5960755999995,33,B,2024-05-15_10h07.05.797,attentional_competition_task,2022.2.4,143.89897140895295,
positions.xlsx,positions_test.xlsx,positions_test_new.xlsx,stimuli.xlsx,stimuli_new.xlsx,stimuli/Social2.png,stimuli/Social1.png,stimuli/Nonsocial2.png,stimuli/Nonsocial1.png,stimuli/Social4.png,stimuli/Social3.png,stimuli/Nonsocial4.png,stimuli/Nonsocial3.png,,,"(-0.7, -0.5)",cs_pos_ns,"(-0.7, 0.5)",cs_pos_s,"(0.7, -0.5)",cs_neg_s,"(0.7, 0.5)",cs_neg_ns,0,0,0,0,,,,,,,,,,,,,,,,,,,,,1,14,38,19,,,,,,,,,,,,,,,,,,,,,,,,,,,387,reward,,,,,,1237.9985826000002,1237.9985826000002,1237.9985826000002,1237.9985826000002,0,,,0,,,0,,,0,,,1238.8596028000002,1238.8596028000002,1238.8596028000002,1238.8596028000002,33,B,2024-05-15_10h07.05.797,attentional_competition_task,2022.2.4,143.89897140895295,
positions.xlsx,positions_test.xlsx,positions_test_new.xlsx,stimuli.xlsx,stimuli_new.xlsx,stimuli/Social2.png,stimuli/Social1.png,stimuli/Nonsocial2.png,stimuli/Nonsocial1.png,stimuli/Social4.png,stimuli/Social3.png,stimuli/Nonsocial4.png,stimuli/Nonsocial3.png,,,"(-0.7, -0.5)",cs_pos_ns,"(-0.7, 0.5)",cs_neg_s,"(0.7, -0.5)",cs_neg_ns,"(0.7, 0.5)",cs_pos_s,0,0,0,0,,,,,,,,,,,,,,,,,,,,,1,15,39,23,,,,,,,,,,,,,,,,,,,,,,,,,,,396,reward,,,,,,1246.0121379000002,1246.0121379000002,1246.0121379000002,1246.0121379000002,0,,,0,,,0,,,0,,,1246.8385009000003,1246.8385009000003,1246.8385009000003,1246.8385009000003,33,B,2024-05-15_10h07.05.797,attentional_competition_task,2022.2.4,143.89897140895295,
positions.xlsx,positions_test.xlsx,positions_test_new.xlsx,stimuli.xlsx,stimuli_new.xlsx,stimuli/Social2.png,stimuli/Social1.png,stimuli/Nonsocial2.png,stimuli/Nonsocial1.png,stimuli/Social4.png,stimuli/Social3.png,stimuli/Nonsocial4.png,stimuli/Nonsocial3.png,,,"(-0.7, -0.5)",cs_neg_ns,"(-0.7, 0.5)",cs_pos_ns,"(0.7, -0.5)",cs_pos_s,"(0.7, 0.5)",cs_neg_s,0,0,0,0,,,,,,,,,,,,,,,,,,,,,1,16,40,16,,,,,,,,,,,,,,,,,,,,,,,,,,,399,reward,,,,,,1254.7617519000005,1254.7617519000005,1254.7617519000005,1254.7617519000005,0,,,0,,,1,0.030597400000260677,0.03060130000085337,0,,,1254.7617519000005,1254.7617519000005,1254.7617519000005,1254.7617519000005,33,B,2024-05-15_10h07.05.797,attentional_competition_task,2022.2.4,143.89897140895295,
positions.xlsx,positions_test.xlsx,positions_test_new.xlsx,stimuli.xlsx,stimuli_new.xlsx,stimuli/Social2.png,stimuli/Social1.png,stimuli/Nonsocial2.png,stimuli/Nonsocial1.png,stimuli/Social4.png,stimuli/Social3.png,stimuli/Nonsocial4.png,stimuli/Nonsocial3.png,,,"(-0.7, -0.5)",cs_neg_ns,"(-0.7, 0.5)",cs_neg_s,"(0.7, -0.5)",cs_pos_s,"(0.7, 0.5)",cs_pos_ns,0,0,0,0,,,,,,,,,,,,,,,,,,,,,1,17,41,14,,,,,,,,,,,,,,,,,,,,,,,,,,,408,reward,,,,,,1263.2197855000004,1263.2197855000004,1263.2197855000004,1263.2197855000004,0,,,0,,,0,,,0,,,1264.1294456000005,1264.1294456000005,1264.1294456000005,1264.1294456000005,33,B,2024-05-15_10h07.05.797,attentional_competition_task,2022.2.4,143.89897140895295,
positions.xlsx,positions_test.xlsx,positions_test_new.xlsx,stimuli.xlsx,stimuli_new.xlsx,stimuli/Social2.png,stimuli/Social1.png,stimuli/Nonsocial2.png,stimuli/Nonsocial1.png,stimuli/Social4.png,stimuli/Social3.png,stimuli/Nonsocial4.png,stimuli/Nonsocial3.png,,,"(-0.7, -0.5)",cs_neg_ns,"(-0.7, 0.5)",cs_pos_s,"(0.7, -0.5)",cs_neg_s,"(0.7, 0.5)",cs_pos_ns,0,0,0,0,,,,,,,,,,,,,,,,,,,,,1,18,42,12,,,,,,,,,,,,,,,,,,,,,,,,,,,417,reward,,,,,,1271.7333233,1271.7333233,1271.7333233,1271.7333233,0,,,0,,,0,,,0,,,1272.705515300001,1272.705515300001,1272.705515300001,1272.705515300001,33,B,2024-05-15_10h07.05.797,attentional_competition_task,2022.2.4,143.89897140895295,
positions.xlsx,positions_test.xlsx,positions_test_new.xlsx,stimuli.xlsx,stimuli_new.xlsx,stimuli/Social2.png,stimuli/Social1.png,stimuli/Nonsocial2.png,stimuli/Nonsocial1.png,stimuli/Social4.png,stimuli/Social3.png,stimuli/Nonsocial4.png,stimuli/Nonsocial3.png,,,"(-0.7, -0.5)",cs_neg_s,"(-0.7, 0.5)",cs_pos_s,"(0.7, -0.5)",cs_neg_ns,"(0.7, 0.5)",cs_pos_ns,0,0,0,0,,,,,,,,,,,,,,,,,,,,,1,19,43,0,,,,,,,,,,,,,,,,,,,,,,,,,,,426,reward,,,,,,1280.1010507,1280.1010507,1280.1010507,1280.1010507,0,,,0,,,0,,,0,,,1281.0732268000002,1281.0732268000002,1281.0732268000002,1281.0732268000002,33,B,2024-05-15_10h07.05.797,attentional_competition_task,2022.2.4,143.89897140895295,
positions.xlsx,positions_test.xlsx,positions_test_new.xlsx,stimuli.xlsx,stimuli_new.xlsx,stimuli/Social2.png,stimuli/Social1.png,stimuli/Nonsocial2.png,stimuli/Nonsocial1.png,stimuli/Social4.png,stimuli/Social3.png,stimuli/Nonsocial4.png,stimuli/Nonsocial3.png,,,"(-0.7, -0.5)",cs_pos_s,"(-0.7, 0.5)",cs_neg_s,"(0.7, -0.5)",cs_pos_ns,"(0.7, 0.5)",cs_neg_ns,0,0,0,0,,,,,,,,,,,,,,,,,,,,,1,20,44,7,,,,,,,,,,,,,,,,,,,,,,,,,,,435,reward,,,,,,1288.7187533000006,1288.7187533000006,1288.7187533000006,1288.7187533000006,0,,,0,,,0,,,0,,,1289.5589883000002,1289.5589883000002,1289.5589883000002,1289.5589883000002,33,B,2024-05-15_10h07.05.797,attentional_competition_task,2022.2.4,143.89897140895295,
positions.xlsx,positions_test.xlsx,positions_test_new.xlsx,stimuli.xlsx,stimuli_new.xlsx,stimuli/Social2.png,stimuli/Social1.png,stimuli/Nonsocial2.png,stimuli/Nonsocial1.png,stimuli/Social4.png,stimuli/Social3.png,stimuli/Nonsocial4.png,stimuli/Nonsocial3.png,,,"(-0.7, -0.5)",cs_pos_s,"(-0.7, 0.5)",cs_neg_s,"(0.7, -0.5)",cs_neg_ns,"(0.7, 0.5)",cs_pos_ns,0,0,0,0,,,,,,,,,,,,,,,,,,,,,1,21,45,6,,,,,,,,,,,,,,,,,,,,,,,,,,,444,reward,,,,,,1296.975356,1296.975356,1296.975356,1296.975356,1,0.023388100000374834,0.3100395000001299,0,,,0,,,0,,,1297.8225494000008,1297.8225494000008,1297.8225494000008,1297.8225494000008,33,B,2024-05-15_10h07.05.797,attentional_competition_task,2022.2.4,143.89897140895295,
positions.xlsx,positions_test.xlsx,positions_test_new.xlsx,stimuli.xlsx,stimuli_new.xlsx,stimuli/Social2.png,stimuli/Social1.png,stimuli/Nonsocial2.png,stimuli/Nonsocial1.png,stimuli/Social4.png,stimuli/Social3.png,stimuli/Nonsocial4.png,stimuli/Nonsocial3.png,,,"(-0.7, -0.5)",cs_pos_ns,"(-0.7, 0.5)",cs_neg_s,"(0.7, -0.5)",cs_pos_s,"(0.7, 0.5)",cs_neg_ns,0,0,0,0,,,,,,,,,,,,,,,,,,,,,1,22,46,22,,,,,,,,,,,,,,,,,,,,,,,,,,,453,reward,,,,,,1305.0513944999993,1305.0513944999993,1305.0513944999993,1305.0513944999993,0,,,0,,,0,,,0,,,1306.0097197999994,1306.0097197999994,1306.0097197999994,1306.0097197999994,33,B,2024-05-15_10h07.05.797,attentional_competition_task,2022.2.4,143.89897140895295,
positions.xlsx,positions_test.xlsx,positions_test_new.xlsx,stimuli.xlsx,stimuli_new.xlsx,stimuli/Social2.png,stimuli/Social1.png,stimuli/Nonsocial2.png,stimuli/Nonsocial1.png,stimuli/Social4.png,stimuli/Social3.png,stimuli/Nonsocial4.png,stimuli/Nonsocial3.png,,,"(-0.7, -0.5)",cs_pos_ns,"(-0.7, 0.5)",cs_neg_ns,"(0.7, -0.5)",cs_neg_s,"(0.7, 0.5)",cs_pos_s,0,0,0,0,,,,,,,,,,,,,,,,,,,,,1,23,47,21,,,,,,,,,,,,,,,,,,,,,,,,,,,462,reward,,,,,,1313.6830378000004,1313.6830378000004,1313.6830378000004,1313.6830378000004,0,,,0,,,0,,,0,,,1314.516324700001,1314.516324700001,1314.516324700001,1314.516324700001,33,B,2024-05-15_10h07.05.797,attentional_competition_task,2022.2.4,143.89897140895295,
positions.xlsx,positions_test.xlsx,positions_test_new.xlsx,stimuli.xlsx,stimuli_new.xlsx,stimuli/Social2.png,stimuli/Social1.png,stimuli/Nonsocial2.png,stimuli/Nonsocial1.png,stimuli/Social4.png,stimuli/Social3.png,stimuli/Nonsocial4.png,stimuli/Nonsocial3.png,,,"(-0.7, -0.5)",cs_pos_ns,"(-0.7, 0.5)",cs_pos_s,"(0.7, -0.5)",cs_neg_ns,"(0.7, 0.5)",cs_neg_s_new,0,0,0,0,,,,,,,,,,,,,,,,,,,,,,,,,,,,,0,0,0,15,0,0,0,0,,,,,,,,,,,,,,,465,reward,,,,,,1320.3910857,1320.3910857,1320.3910857,1320.3910857,0,,,1,0.4884669000002759,0.4884705999993457,0,,,0,,,1320.8841034999996,1320.8841034999996,1320.8841034999996,1320.8841034999996,33,B,2024-05-15_10h07.05.797,attentional_competition_task,2022.2.4,143.89897140895295,
positions.xlsx,positions_test.xlsx,positions_test_new.xlsx,stimuli.xlsx,stimuli_new.xlsx,stimuli/Social2.png,stimuli/Social1.png,stimuli/Nonsocial2.png,stimuli/Nonsocial1.png,stimuli/Social4.png,stimuli/Social3.png,stimuli/Nonsocial4.png,stimuli/Nonsocial3.png,,,"(-0.7, -0.5)",cs_pos_ns,"(-0.7, 0.5)",cs_pos_s,"(0.7, -0.5)",cs_neg_ns,"(0.7, 0.5)",cs_neg_s_new,0,0,0,0,,,,,,,,,,,,,,,,,,,,,,,,,,,,,0,0,0,15,1,0,1,0,,,,,,,,,,,,,,,468,reward,,,,,,1321.4187936999997,1321.4187936999997,1321.4187936999997,1321.4187936999997,1,0.03042219999952067,0.030425900000409456,0,,,0,,,0,,,1321.4187936999997,1321.4187936999997,1321.4187936999997,1321.4187936999997,33,B,2024-05-15_10h07.05.797,attentional_competition_task,2022.2.4,143.89897140895295,
positions.xlsx,positions_test.xlsx,positions_test_new.xlsx,stimuli.xlsx,stimuli_new.xlsx,stimuli/Social2.png,stimuli/Social1.png,stimuli/Nonsocial2.png,stimuli/Nonsocial1.png,stimuli/Social4.png,stimuli/Social3.png,stimuli/Nonsocial4.png,stimuli/Nonsocial3.png,,,"(-0.7, -0.5)",cs_pos_ns,"(-0.7, 0.5)",cs_pos_s,"(0.7, -0.5)",cs_neg_ns,"(0.7, 0.5)",cs_neg_s_new,0,0,0,0,,,,,,,,,,,,,,,,,,,,,,,,,,,,,0,0,0,15,2,0,2,0,,,,,,,,,,,,,,,471,reward,,,,,,1321.9187873,1321.9187873,1321.9187873,1321.9187873,0,,,0,,,0,,,0,,,1322.9048794,1322.9048794,1322.9048794,1322.9048794,33,B,2024-05-15_10h07.05.797,attentional_competition_task,2022.2.4,143.89897140895295,
positions.xlsx,positions_test.xlsx,positions_test_new.xlsx,stimuli.xlsx,stimuli_new.xlsx,stimuli/Social2.png,stimuli/Social1.png,stimuli/Nonsocial2.png,stimuli/Nonsocial1.png,stimuli/Social4.png,stimuli/Social3.png,stimuli/Nonsocial4.png,stimuli/Nonsocial3.png,,,"(-0.7, -0.5)",cs_pos_ns,"(-0.7, 0.5)",cs_pos_s,"(0.7, -0.5)",cs_neg_ns,"(0.7, 0.5)",cs_neg_s_new,0,0,0,0,,,,,,,,,,,,,,,,,,,,,,,,,,,,,0,0,0,15,,,,,,,,,,,,,,,,,,,,,,,,,,,,,,,,,,,,,,,,,,,,,,33,B,2024-05-15_10h07.05.797,attentional_competition_task,2022.2.4,143.89897140895295,
positions.xlsx,positions_test.xlsx,positions_test_new.xlsx,stimuli.xlsx,stimuli_new.xlsx,stimuli/Social2.png,stimuli/Social1.png,stimuli/Nonsocial2.png,stimuli/Nonsocial1.png,stimuli/Social4.png,stimuli/Social3.png,stimuli/Nonsocial4.png,stimuli/Nonsocial3.png,,,"(-0.7, -0.5)",cs_neg_ns_new,"(-0.7, 0.5)",cs_pos_ns,"(0.7, -0.5)",cs_pos_s,"(0.7, 0.5)",cs_neg_s,0,0,0,0,,,,,,,,,,,,,,,,,,,,,,,,,,,,,0,1,1,22,0,0,0,0,,,,,,,,,,,,,,,474,reward,,,,,,1329.1615424000001,1329.1615424000001,1329.1615424000001,1329.1615424000001,0,,,1,0.5988026999984868,0.5988059999999678,0,,,0,,,1329.7587410000006,1329.7587410000006,1329.7587410000006,1329.7587410000006,33,B,2024-05-15_10h07.05.797,attentional_competition_task,2022.2.4,143.89897140895295,
positions.xlsx,positions_test.xlsx,positions_test_new.xlsx,stimuli.xlsx,stimuli_new.xlsx,stimuli/Social2.png,stimuli/Social1.png,stimuli/Nonsocial2.png,stimuli/Nonsocial1.png,stimuli/Social4.png,stimuli/Social3.png,stimuli/Nonsocial4.png,stimuli/Nonsocial3.png,,,"(-0.7, -0.5)",cs_neg_ns_new,"(-0.7, 0.5)",cs_pos_ns,"(0.7, -0.5)",cs_pos_s,"(0.7, 0.5)",cs_neg_s,0,0,0,0,,,,,,,,,,,,,,,,,,,,,,,,,,,,,0,1,1,22,1,0,1,0,,,,,,,,,,,,,,,477,reward,,,,,,1330.2795873000005,1330.2795873000005,1330.2795873000005,1330.2795873000005,0,,,0,,,1,0.16241460000128427,0.16241830000035407,0,,,1330.4323329999997,1330.4323329999997,1330.4323329999997,1330.4323329999997,33,B,2024-05-15_10h07.05.797,attentional_competition_task,2022.2.4,143.89897140895295,
positions.xlsx,positions_test.xlsx,positions_test_new.xlsx,stimuli.xlsx,stimuli_new.xlsx,stimuli/Social2.png,stimuli/Social1.png,stimuli/Nonsocial2.png,stimuli/Nonsocial1.png,stimuli/Social4.png,stimuli/Social3.png,stimuli/Nonsocial4.png,stimuli/Nonsocial3.png,,,"(-0.7, -0.5)",cs_neg_ns_new,"(-0.7, 0.5)",cs_pos_ns,"(0.7, -0.5)",cs_pos_s,"(0.7, 0.5)",cs_neg_s,0,0,0,0,,,,,,,,,,,,,,,,,,,,,,,,,,,,,0,1,1,22,2,0,2,0,,,,,,,,,,,,,,,480,reward,,,,,,1330.9253718999998,1330.9253718999998,1330.9253718999998,1330.9253718999998,0,,,0,,,0,,,0,,,1331.6753665000006,1331.6753665000006,1331.6753665000006,1331.6753665000006,33,B,2024-05-15_10h07.05.797,attentional_competition_task,2022.2.4,143.89897140895295,
positions.xlsx,positions_test.xlsx,positions_test_new.xlsx,stimuli.xlsx,stimuli_new.xlsx,stimuli/Social2.png,stimuli/Social1.png,stimuli/Nonsocial2.png,stimuli/Nonsocial1.png,stimuli/Social4.png,stimuli/Social3.png,stimuli/Nonsocial4.png,stimuli/Nonsocial3.png,,,"(-0.7, -0.5)",cs_neg_ns_new,"(-0.7, 0.5)",cs_pos_ns,"(0.7, -0.5)",cs_pos_s,"(0.7, 0.5)",cs_neg_s,0,0,0,0,,,,,,,,,,,,,,,,,,,,,,,,,,,,,0,1,1,22,,,,,,,,,,,,,,,,,,,,,,,,,,,,,,,,,,,,,,,,,,,,,,33,B,2024-05-15_10h07.05.797,attentional_competition_task,2022.2.4,143.89897140895295,
positions.xlsx,positions_test.xlsx,positions_test_new.xlsx,stimuli.xlsx,stimuli_new.xlsx,stimuli/Social2.png,stimuli/Social1.png,stimuli/Nonsocial2.png,stimuli/Nonsocial1.png,stimuli/Social4.png,stimuli/Social3.png,stimuli/Nonsocial4.png,stimuli/Nonsocial3.png,,,"(-0.7, -0.5)",cs_pos_ns,"(-0.7, 0.5)",cs_neg_ns,"(0.7, -0.5)",cs_neg_s_new,"(0.7, 0.5)",cs_pos_s,0,0,0,0,,,,,,,,,,,,,,,,,,,,,,,,,,,,,0,2,2,9,0,0,0,0,,,,,,,,,,,,,,,483,reward,,,,,,1338.182012100001,1338.182012100001,1338.182012100001,1338.182012100001,1,0.8487974000017857,0.8561054000001604,0,,,0,,,0,,,1339.0431099999996,1339.0431099999996,1339.0431099999996,1339.0431099999996,33,B,2024-05-15_10h07.05.797,attentional_competition_task,2022.2.4,143.89897140895295,
positions.xlsx,positions_test.xlsx,positions_test_new.xlsx,stimuli.xlsx,stimuli_new.xlsx,stimuli/Social2.png,stimuli/Social1.png,stimuli/Nonsocial2.png,stimuli/Nonsocial1.png,stimuli/Social4.png,stimuli/Social3.png,stimuli/Nonsocial4.png,stimuli/Nonsocial3.png,,,"(-0.7, -0.5)",cs_pos_ns,"(-0.7, 0.5)",cs_neg_ns,"(0.7, -0.5)",cs_neg_s_new,"(0.7, 0.5)",cs_pos_s,0,0,0,0,,,,,,,,,,,,,,,,,,,,,,,,,,,,,0,2,2,9,1,0,1,0,,,,,,,,,,,,,,,486,reward,,,,,,1339.5708924,1339.5708924,1339.5708924,1339.5708924,0,,,0,,,0,,,1,0.029199099999459577,0.02920309999899473,1339.5708924,1339.5708924,1339.5708924,1339.5708924,33,B,2024-05-15_10h07.05.797,attentional_competition_task,2022.2.4,143.89897140895295,
positions.xlsx,positions_test.xlsx,positions_test_new.xlsx,stimuli.xlsx,stimuli_new.xlsx,stimuli/Social2.png,stimuli/Social1.png,stimuli/Nonsocial2.png,stimuli/Nonsocial1.png,stimuli/Social4.png,stimuli/Social3.png,stimuli/Nonsocial4.png,stimuli/Nonsocial3.png,,,"(-0.7, -0.5)",cs_pos_ns,"(-0.7, 0.5)",cs_neg_ns,"(0.7, -0.5)",cs_neg_s_new,"(0.7, 0.5)",cs_pos_s,0,0,0,0,,,,,,,,,,,,,,,,,,,,,,,,,,,,,0,2,2,9,2,0,2,0,,,,,,,,,,,,,,,489,reward,,,,,,1340.0777704000002,1340.0777704000002,1340.0777704000002,1340.0777704000002,0,,,0,,,0,,,0,,,1340.6958351999992,1340.6958351999992,1340.6958351999992,1340.6958351999992,33,B,2024-05-15_10h07.05.797,attentional_competition_task,2022.2.4,143.89897140895295,
positions.xlsx,positions_test.xlsx,positions_test_new.xlsx,stimuli.xlsx,stimuli_new.xlsx,stimuli/Social2.png,stimuli/Social1.png,stimuli/Nonsocial2.png,stimuli/Nonsocial1.png,stimuli/Social4.png,stimuli/Social3.png,stimuli/Nonsocial4.png,stimuli/Nonsocial3.png,,,"(-0.7, -0.5)",cs_pos_ns,"(-0.7, 0.5)",cs_neg_ns,"(0.7, -0.5)",cs_neg_s_new,"(0.7, 0.5)",cs_pos_s,0,0,0,0,,,,,,,,,,,,,,,,,,,,,,,,,,,,,0,2,2,9,,,,,,,,,,,,,,,,,,,,,,,,,,,,,,,,,,,,,,,,,,,,,,33,B,2024-05-15_10h07.05.797,attentional_competition_task,2022.2.4,143.89897140895295,
positions.xlsx,positions_test.xlsx,positions_test_new.xlsx,stimuli.xlsx,stimuli_new.xlsx,stimuli/Social2.png,stimuli/Social1.png,stimuli/Nonsocial2.png,stimuli/Nonsocial1.png,stimuli/Social4.png,stimuli/Social3.png,stimuli/Nonsocial4.png,stimuli/Nonsocial3.png,,,"(-0.7, -0.5)",cs_neg_ns,"(-0.7, 0.5)",cs_pos_s,"(0.7, -0.5)",cs_neg_s_new,"(0.7, 0.5)",cs_pos_ns,0,0,0,0,,,,,,,,,,,,,,,,,,,,,,,,,,,,,0,3,3,11,0,0,0,0,,,,,,,,,,,,,,,492,reward,,,,,,1347.1817034000005,1347.1817034000005,1347.1817034000005,1347.1817034000005,0,,,0,,,0,,,1,0.717547199999899,0.7242289999994682,1347.9107957999995,1347.9107957999995,1347.9107957999995,1347.9107957999995,33,B,2024-05-15_10h07.05.797,attentional_competition_task,2022.2.4,143.89897140895295,
positions.xlsx,positions_test.xlsx,positions_test_new.xlsx,stimuli.xlsx,stimuli_new.xlsx,stimuli/Social2.png,stimuli/Social1.png,stimuli/Nonsocial2.png,stimuli/Nonsocial1.png,stimuli/Social4.png,stimuli/Social3.png,stimuli/Nonsocial4.png,stimuli/Nonsocial3.png,,,"(-0.7, -0.5)",cs_neg_ns,"(-0.7, 0.5)",cs_pos_s,"(0.7, -0.5)",cs_neg_s_new,"(0.7, 0.5)",cs_pos_ns,0,0,0,0,,,,,,,,,,,,,,,,,,,,,,,,,,,,,0,3,3,11,1,0,1,0,,,,,,,,,,,,,,,495,reward,,,,,,1348.410836,1348.410836,1348.410836,1348.410836,0,,,1,0.2458846999998059,0.24588849999963713,0,,,1,0.025724799999807146,0.1837758000001486,1348.6607897999993,1348.6607897999993,1348.6607897999993,1348.6607897999993,33,B,2024-05-15_10h07.05.797,attentional_competition_task,2022.2.4,143.89897140895295,
positions.xlsx,positions_test.xlsx,positions_test_new.xlsx,stimuli.xlsx,stimuli_new.xlsx,stimuli/Social2.png,stimuli/Social1.png,stimuli/Nonsocial2.png,stimuli/Nonsocial1.png,stimuli/Social4.png,stimuli/Social3.png,stimuli/Nonsocial4.png,stimuli/Nonsocial3.png,,,"(-0.7, -0.5)",cs_neg_ns,"(-0.7, 0.5)",cs_pos_s,"(0.7, -0.5)",cs_neg_s_new,"(0.7, 0.5)",cs_pos_ns,0,0,0,0,,,,,,,,,,,,,,,,,,,,,,,,,,,,,0,3,3,11,2,0,2,0,,,,,,,,,,,,,,,498,reward,,,,,,1349.1537992000003,1349.1537992000003,1349.1537992000003,1349.1537992000003,0,,,1,0.02298229999905743,0.031055099998411606,0,,,0,,,1349.6954856000002,1349.6954856000002,1349.6954856000002,1349.6954856000002,33,B,2024-05-15_10h07.05.797,attentional_competition_task,2022.2.4,143.89897140895295,
positions.xlsx,positions_test.xlsx,positions_test_new.xlsx,stimuli.xlsx,stimuli_new.xlsx,stimuli/Social2.png,stimuli/Social1.png,stimuli/Nonsocial2.png,stimuli/Nonsocial1.png,stimuli/Social4.png,stimuli/Social3.png,stimuli/Nonsocial4.png,stimuli/Nonsocial3.png,,,"(-0.7, -0.5)",cs_neg_ns,"(-0.7, 0.5)",cs_pos_s,"(0.7, -0.5)",cs_neg_s_new,"(0.7, 0.5)",cs_pos_ns,0,0,0,0,,,,,,,,,,,,,,,,,,,,,,,,,,,,,0,3,3,11,,,,,,,,,,,,,,,,,,,,,,,,,,,,,,,,,,,,,,,,,,,,,,33,B,2024-05-15_10h07.05.797,attentional_competition_task,2022.2.4,143.89897140895295,
positions.xlsx,positions_test.xlsx,positions_test_new.xlsx,stimuli.xlsx,stimuli_new.xlsx,stimuli/Social2.png,stimuli/Social1.png,stimuli/Nonsocial2.png,stimuli/Nonsocial1.png,stimuli/Social4.png,stimuli/Social3.png,stimuli/Nonsocial4.png,stimuli/Nonsocial3.png,,,"(-0.7, -0.5)",cs_neg_s,"(-0.7, 0.5)",cs_pos_ns,"(0.7, -0.5)",cs_pos_s_new,"(0.7, 0.5)",cs_neg_ns,0,0,0,0,,,,,,,,,,,,,,,,,,,,,,,,,,,,,0,4,4,33,0,0,0,0,,,,,,,,,,,,,,,501,reward,,,,,,1355.8897017000008,1355.8897017000008,1355.8897017000008,1355.8897017000008,0,,,1,0.5020563000016409,0.5020598999999493,0,,,0,,,1356.4035524,1356.4035524,1356.4035524,1356.4035524,33,B,2024-05-15_10h07.05.797,attentional_competition_task,2022.2.4,143.89897140895295,
positions.xlsx,positions_test.xlsx,positions_test_new.xlsx,stimuli.xlsx,stimuli_new.xlsx,stimuli/Social2.png,stimuli/Social1.png,stimuli/Nonsocial2.png,stimuli/Nonsocial1.png,stimuli/Social4.png,stimuli/Social3.png,stimuli/Nonsocial4.png,stimuli/Nonsocial3.png,,,"(-0.7, -0.5)",cs_neg_s,"(-0.7, 0.5)",cs_pos_ns,"(0.7, -0.5)",cs_pos_s_new,"(0.7, 0.5)",cs_neg_ns,0,0,0,0,,,,,,,,,,,,,,,,,,,,,,,,,,,,,0,4,4,33,1,0,1,0,,,,,,,,,,,,,,,504,reward,,,,,,1356.931317900001,1356.931317900001,1356.931317900001,1356.931317900001,0,,,0,,,1,0.024635699999635108,0.02463999999963562,0,,,1356.931317900001,1356.931317900001,1356.931317900001,1356.931317900001,33,B,2024-05-15_10h07.05.797,attentional_competition_task,2022.2.4,143.89897140895295,
positions.xlsx,positions_test.xlsx,positions_test_new.xlsx,stimuli.xlsx,stimuli_new.xlsx,stimuli/Social2.png,stimuli/Social1.png,stimuli/Nonsocial2.png,stimuli/Nonsocial1.png,stimuli/Social4.png,stimuli/Social3.png,stimuli/Nonsocial4.png,stimuli/Nonsocial3.png,,,"(-0.7, -0.5)",cs_neg_s,"(-0.7, 0.5)",cs_pos_ns,"(0.7, -0.5)",cs_pos_s_new,"(0.7, 0.5)",cs_neg_ns,0,0,0,0,,,,,,,,,,,,,,,,,,,,,,,,,,,,,0,4,4,33,2,0,2,0,,,,,,,,,,,,,,,507,reward,,,,,,1357.4382087999993,1357.4382087999993,1357.4382087999993,1357.4382087999993,0,,,0,,,2,0.03073960000074294,0.16301300000122865,0,,,1358.410403500001,1358.410403500001,1358.410403500001,1358.410403500001,33,B,2024-05-15_10h07.05.797,attentional_competition_task,2022.2.4,143.89897140895295,
positions.xlsx,positions_test.xlsx,positions_test_new.xlsx,stimuli.xlsx,stimuli_new.xlsx,stimuli/Social2.png,stimuli/Social1.png,stimuli/Nonsocial2.png,stimuli/Nonsocial1.png,stimuli/Social4.png,stimuli/Social3.png,stimuli/Nonsocial4.png,stimuli/Nonsocial3.png,,,"(-0.7, -0.5)",cs_neg_s,"(-0.7, 0.5)",cs_pos_ns,"(0.7, -0.5)",cs_pos_s_new,"(0.7, 0.5)",cs_neg_ns,0,0,0,0,,,,,,,,,,,,,,,,,,,,,,,,,,,,,0,4,4,33,,,,,,,,,,,,,,,,,,,,,,,,,,,,,,,,,,,,,,,,,,,,,,33,B,2024-05-15_10h07.05.797,attentional_competition_task,2022.2.4,143.89897140895295,
positions.xlsx,positions_test.xlsx,positions_test_new.xlsx,stimuli.xlsx,stimuli_new.xlsx,stimuli/Social2.png,stimuli/Social1.png,stimuli/Nonsocial2.png,stimuli/Nonsocial1.png,stimuli/Social4.png,stimuli/Social3.png,stimuli/Nonsocial4.png,stimuli/Nonsocial3.png,,,"(-0.7, -0.5)",cs_pos_s_new,"(-0.7, 0.5)",cs_neg_s,"(0.7, -0.5)",cs_neg_ns,"(0.7, 0.5)",cs_pos_ns,0,0,0,0,,,,,,,,,,,,,,,,,,,,,,,,,,,,,0,5,5,32,0,0,0,0,,,,,,,,,,,,,,,510,reward,,,,,,1364.3823531000007,1364.3823531000007,1364.3823531000007,1364.3823531000007,0,,,0,,,0,,,1,0.5230568999995739,0.5230606000004627,1364.9101314999998,1364.9101314999998,1364.9101314999998,1364.9101314999998,33,B,2024-05-15_10h07.05.797,attentional_competition_task,2022.2.4,143.89897140895295,
positions.xlsx,positions_test.xlsx,positions_test_new.xlsx,stimuli.xlsx,stimuli_new.xlsx,stimuli/Social2.png,stimuli/Social1.png,stimuli/Nonsocial2.png,stimuli/Nonsocial1.png,stimuli/Social4.png,stimuli/Social3.png,stimuli/Nonsocial4.png,stimuli/Nonsocial3.png,,,"(-0.7, -0.5)",cs_pos_s_new,"(-0.7, 0.5)",cs_neg_s,"(0.7, -0.5)",cs_neg_ns,"(0.7, 0.5)",cs_pos_ns,0,0,0,0,,,,,,,,,,,,,,,,,,,,,,,,,,,,,0,5,5,32,1,0,1,0,,,,,,,,,,,,,,,513,reward,,,,,,1365.4100910000006,1365.4100910000006,1365.4100910000006,1365.4100910000006,1,0.12058060000163096,0.1275751000011951,0,,,0,,,0,,,1365.5420478000005,1365.5420478000005,1365.5420478000005,1365.5420478000005,33,B,2024-05-15_10h07.05.797,attentional_competition_task,2022.2.4,143.89897140895295,
positions.xlsx,positions_test.xlsx,positions_test_new.xlsx,stimuli.xlsx,stimuli_new.xlsx,stimuli/Social2.png,stimuli/Social1.png,stimuli/Nonsocial2.png,stimuli/Nonsocial1.png,stimuli/Social4.png,stimuli/Social3.png,stimuli/Nonsocial4.png,stimuli/Nonsocial3.png,,,"(-0.7, -0.5)",cs_pos_s_new,"(-0.7, 0.5)",cs_neg_s,"(0.7, -0.5)",cs_neg_ns,"(0.7, 0.5)",cs_pos_ns,0,0,0,0,,,,,,,,,,,,,,,,,,,,,,,,,,,,,0,5,5,32,2,0,2,0,,,,,,,,,,,,,,,516,reward,,,,,,1366.0420177000005,1366.0420177000005,1366.0420177000005,1366.0420177000005,1,0.028592599999683443,0.35007299999961106,0,,,0,,,0,,,1366.8962177999992,1366.8962177999992,1366.8962177999992,1366.8962177999992,33,B,2024-05-15_10h07.05.797,attentional_competition_task,2022.2.4,143.89897140895295,
positions.xlsx,positions_test.xlsx,positions_test_new.xlsx,stimuli.xlsx,stimuli_new.xlsx,stimuli/Social2.png,stimuli/Social1.png,stimuli/Nonsocial2.png,stimuli/Nonsocial1.png,stimuli/Social4.png,stimuli/Social3.png,stimuli/Nonsocial4.png,stimuli/Nonsocial3.png,,,"(-0.7, -0.5)",cs_pos_s_new,"(-0.7, 0.5)",cs_neg_s,"(0.7, -0.5)",cs_neg_ns,"(0.7, 0.5)",cs_pos_ns,0,0,0,0,,,,,,,,,,,,,,,,,,,,,,,,,,,,,0,5,5,32,,,,,,,,,,,,,,,,,,,,,,,,,,,,,,,,,,,,,,,,,,,,,,33,B,2024-05-15_10h07.05.797,attentional_competition_task,2022.2.4,143.89897140895295,
positions.xlsx,positions_test.xlsx,positions_test_new.xlsx,stimuli.xlsx,stimuli_new.xlsx,stimuli/Social2.png,stimuli/Social1.png,stimuli/Nonsocial2.png,stimuli/Nonsocial1.png,stimuli/Social4.png,stimuli/Social3.png,stimuli/Nonsocial4.png,stimuli/Nonsocial3.png,,,"(-0.7, -0.5)",cs_neg_ns,"(-0.7, 0.5)",cs_pos_s,"(0.7, -0.5)",cs_pos_ns,"(0.7, 0.5)",cs_neg_s,0,0,0,0,,,,,,,,,,,,,,,,,,,,,,,,,,,,,0,6,6,4,0,0,0,0,,,,,,,,,,,,,,,519,reward,,,,,,1373.0764721000005,1373.0764721000005,1373.0764721000005,1373.0764721000005,0,,,0,,,1,0.8560474000005343,0.8560510000006616,0,,,1373.9445219,1373.9445219,1373.9445219,1373.9445219,33,B,2024-05-15_10h07.05.797,attentional_competition_task,2022.2.4,143.89897140895295,
positions.xlsx,positions_test.xlsx,positions_test_new.xlsx,stimuli.xlsx,stimuli_new.xlsx,stimuli/Social2.png,stimuli/Social1.png,stimuli/Nonsocial2.png,stimuli/Nonsocial1.png,stimuli/Social4.png,stimuli/Social3.png,stimuli/Nonsocial4.png,stimuli/Nonsocial3.png,,,"(-0.7, -0.5)",cs_neg_ns,"(-0.7, 0.5)",cs_pos_s,"(0.7, -0.5)",cs_pos_ns,"(0.7, 0.5)",cs_neg_s,0,0,0,0,,,,,,,,,,,,,,,,,,,,,,,,,,,,,0,6,6,4,1,0,1,0,,,,,,,,,,,,,,,522,reward,,,,,,1374.4444546000004,1374.4444546000004,1374.4444546000004,1374.4444546000004,0,,,1,0.022466700000222772,0.038613599999735015,0,,,0,,,1374.4861348999993,1374.4861348999993,1374.4861348999993,1374.4861348999993,33,B,2024-05-15_10h07.05.797,attentional_competition_task,2022.2.4,143.89897140895295,
positions.xlsx,positions_test.xlsx,positions_test_new.xlsx,stimuli.xlsx,stimuli_new.xlsx,stimuli/Social2.png,stimuli/Social1.png,stimuli/Nonsocial2.png,stimuli/Nonsocial1.png,stimuli/Social4.png,stimuli/Social3.png,stimuli/Nonsocial4.png,stimuli/Nonsocial3.png,,,"(-0.7, -0.5)",cs_neg_ns,"(-0.7, 0.5)",cs_pos_s,"(0.7, -0.5)",cs_pos_ns,"(0.7, 0.5)",cs_neg_s,0,0,0,0,,,,,,,,,,,,,,,,,,,,,,,,,,,,,0,6,6,4,2,0,2,0,,,,,,,,,,,,,,,525,reward,,,,,,1374.9861188999994,1374.9861188999994,1374.9861188999994,1374.9861188999994,0,,,1,0.028357600000163075,0.10692339999877731,0,,,0,,,1375.5972186000008,1375.5972186000008,1375.5972186000008,1375.5972186000008,33,B,2024-05-15_10h07.05.797,attentional_competition_task,2022.2.4,143.89897140895295,
positions.xlsx,positions_test.xlsx,positions_test_new.xlsx,stimuli.xlsx,stimuli_new.xlsx,stimuli/Social2.png,stimuli/Social1.png,stimuli/Nonsocial2.png,stimuli/Nonsocial1.png,stimuli/Social4.png,stimuli/Social3.png,stimuli/Nonsocial4.png,stimuli/Nonsocial3.png,,,"(-0.7, -0.5)",cs_neg_ns,"(-0.7, 0.5)",cs_pos_s,"(0.7, -0.5)",cs_pos_ns,"(0.7, 0.5)",cs_neg_s,0,0,0,0,,,,,,,,,,,,,,,,,,,,,,,,,,,,,0,6,6,4,,,,,,,,,,,,,,,,,,,,,,,,,,,,,,,,,,,,,,,,,,,,,,33,B,2024-05-15_10h07.05.797,attentional_competition_task,2022.2.4,143.89897140895295,
positions.xlsx,positions_test.xlsx,positions_test_new.xlsx,stimuli.xlsx,stimuli_new.xlsx,stimuli/Social2.png,stimuli/Social1.png,stimuli/Nonsocial2.png,stimuli/Nonsocial1.png,stimuli/Social4.png,stimuli/Social3.png,stimuli/Nonsocial4.png,stimuli/Nonsocial3.png,,,"(-0.7, -0.5)",cs_neg_ns,"(-0.7, 0.5)",cs_neg_s,"(0.7, -0.5)",cs_pos_s,"(0.7, 0.5)",cs_pos_ns,0,0,0,0,,,,,,,,,,,,,,,,,,,,,,,,,,,,,0,7,7,3,0,0,0,0,,,,,,,,,,,,,,,528,reward,,,,,,1381.867803600001,1381.867803600001,1381.867803600001,1381.867803600001,0,,,0,,,0,,,1,0.6480133000004571,0.6480167000008805,1382.5205321999993,1382.5205321999993,1382.5205321999993,1382.5205321999993,33,B,2024-05-15_10h07.05.797,attentional_competition_task,2022.2.4,143.89897140895295,
positions.xlsx,positions_test.xlsx,positions_test_new.xlsx,stimuli.xlsx,stimuli_new.xlsx,stimuli/Social2.png,stimuli/Social1.png,stimuli/Nonsocial2.png,stimuli/Nonsocial1.png,stimuli/Social4.png,stimuli/Social3.png,stimuli/Nonsocial4.png,stimuli/Nonsocial3.png,,,"(-0.7, -0.5)",cs_neg_ns,"(-0.7, 0.5)",cs_neg_s,"(0.7, -0.5)",cs_pos_s,"(0.7, 0.5)",cs_pos_ns,0,0,0,0,,,,,,,,,,,,,,,,,,,,,,,,,,,,,0,7,7,3,1,0,1,0,,,,,,,,,,,,,,,531,reward,,,,,,1383.0483109000006,1383.0483109000006,1383.0483109000006,1383.0483109000006,0,,,0,,,1,0.02246480000030715,0.022468700000899844,0,,,1383.0483109000006,1383.0483109000006,1383.0483109000006,1383.0483109000006,33,B,2024-05-15_10h07.05.797,attentional_competition_task,2022.2.4,143.89897140895295,
positions.xlsx,positions_test.xlsx,positions_test_new.xlsx,stimuli.xlsx,stimuli_new.xlsx,stimuli/Social2.png,stimuli/Social1.png,stimuli/Nonsocial2.png,stimuli/Nonsocial1.png,stimuli/Social4.png,stimuli/Social3.png,stimuli/Nonsocial4.png,stimuli/Nonsocial3.png,,,"(-0.7, -0.5)",cs_neg_ns,"(-0.7, 0.5)",cs_neg_s,"(0.7, -0.5)",cs_pos_s,"(0.7, 0.5)",cs_pos_ns,0,0,0,0,,,,,,,,,,,,,,,,,,,,,,,,,,,,,0,7,7,3,2,0,2,0,,,,,,,,,,,,,,,534,reward,,,,,,1383.5482700000002,1383.5482700000002,1383.5482700000002,1383.5482700000002,0,,,0,,,1,0.023620400001163944,0.053002100001322106,0,,,1384.3815884000005,1384.3815884000005,1384.3815884000005,1384.3815884000005,33,B,2024-05-15_10h07.05.797,attentional_competition_task,2022.2.4,143.89897140895295,
positions.xlsx,positions_test.xlsx,positions_test_new.xlsx,stimuli.xlsx,stimuli_new.xlsx,stimuli/Social2.png,stimuli/Social1.png,stimuli/Nonsocial2.png,stimuli/Nonsocial1.png,stimuli/Social4.png,stimuli/Social3.png,stimuli/Nonsocial4.png,stimuli/Nonsocial3.png,,,"(-0.7, -0.5)",cs_neg_ns,"(-0.7, 0.5)",cs_neg_s,"(0.7, -0.5)",cs_pos_s,"(0.7, 0.5)",cs_pos_ns,0,0,0,0,,,,,,,,,,,,,,,,,,,,,,,,,,,,,0,7,7,3,,,,,,,,,,,,,,,,,,,,,,,,,,,,,,,,,,,,,,,,,,,,,,33,B,2024-05-15_10h07.05.797,attentional_competition_task,2022.2.4,143.89897140895295,
positions.xlsx,positions_test.xlsx,positions_test_new.xlsx,stimuli.xlsx,stimuli_new.xlsx,stimuli/Social2.png,stimuli/Social1.png,stimuli/Nonsocial2.png,stimuli/Nonsocial1.png,stimuli/Social4.png,stimuli/Social3.png,stimuli/Nonsocial4.png,stimuli/Nonsocial3.png,,,"(-0.7, -0.5)",cs_neg_ns,"(-0.7, 0.5)",cs_pos_s,"(0.7, -0.5)",cs_pos_ns_new,"(0.7, 0.5)",cs_neg_s,0,0,0,0,,,,,,,,,,,,,,,,,,,,,,,,,,,,,0,8,8,40,0,0,0,0,,,,,,,,,,,,,,,537,reward,,,,,,1390.5201776999993,1390.5201776999993,1390.5201776999993,1390.5201776999993,0,,,1,0.5024348000006285,0.5024384999996983,0,,,0,,,1391.0271543000008,1391.0271543000008,1391.0271543000008,1391.0271543000008,33,B,2024-05-15_10h07.05.797,attentional_competition_task,2022.2.4,143.89897140895295,
positions.xlsx,positions_test.xlsx,positions_test_new.xlsx,stimuli.xlsx,stimuli_new.xlsx,stimuli/Social2.png,stimuli/Social1.png,stimuli/Nonsocial2.png,stimuli/Nonsocial1.png,stimuli/Social4.png,stimuli/Social3.png,stimuli/Nonsocial4.png,stimuli/Nonsocial3.png,,,"(-0.7, -0.5)",cs_neg_ns,"(-0.7, 0.5)",cs_pos_s,"(0.7, -0.5)",cs_pos_ns_new,"(0.7, 0.5)",cs_neg_s,0,0,0,0,,,,,,,,,,,,,,,,,,,,,,,,,,,,,0,8,8,40,1,0,1,0,,,,,,,,,,,,,,,540,reward,,,,,,1391.5618535000003,1391.5618535000003,1391.5618535000003,1391.5618535000003,0,,,0,,,1,0.028961699999854318,0.02896570000120846,0,,,1391.5618535000003,1391.5618535000003,1391.5618535000003,1391.5618535000003,33,B,2024-05-15_10h07.05.797,attentional_competition_task,2022.2.4,143.89897140895295,
