posFile,posFileTest,posFileTestNew,stimFile,stimFileNew,cs_neg_s,cs_pos_s,cs_neg_ns,cs_pos_ns,cs_neg_s_new,cs_pos_s_new,cs_neg_ns_new,cs_pos_ns_new,stim,position,position1,stim1,position2,stim2,position3,stim3,position4,stim4,blocks.thisRepN,blocks.thisTrialN,blocks.thisN,blocks.thisIndex,ratingtrials1.thisRepN,ratingtrials1.thisTrialN,ratingtrials1.thisN,ratingtrials1.thisIndex,search_task_trials.thisRepN,search_task_trials.thisTrialN,search_task_trials.thisN,search_task_trials.thisIndex,learning_trials.thisRepN,learning_trials.thisTrialN,learning_trials.thisN,learning_trials.thisIndex,trials.thisRepN,trials.thisTrialN,trials.thisN,trials.thisIndex,ratingtrials2.thisRepN,ratingtrials2.thisTrialN,ratingtrials2.thisN,ratingtrials2.thisIndex,testtrials.thisRepN,testtrials.thisTrialN,testtrials.thisN,testtrials.thisIndex,loop_test.thisRepN,loop_test.thisTrialN,loop_test.thisN,loop_test.thisIndex,testtrials_novelty.thisRepN,testtrials_novelty.thisTrialN,testtrials_novelty.thisN,testtrials_novelty.thisIndex,loop_test_novelty.thisRepN,loop_test_novelty.thisTrialN,loop_test_novelty.thisN,loop_test_novelty.thisIndex,ratingtrials3.thisRepN,ratingtrials3.thisTrialN,ratingtrials3.thisN,ratingtrials3.thisIndex,textStart.started,textStartExp.started,imageRating.started,sliderStim.response,sliderStim.rt,textStartSearch.started,target_positions,distractor_positions,textStartTask.started,image.started,score,outcome,roi.numLooks,roi.timesOn,roi.timesOff,imageFeedback.started,textTestInstr.started,test_image1.started,test_image2.started,test_image3.started,test_image4.started,test_roi1.numLooks,test_roi1.timesOn,test_roi1.timesOff,test_roi2.numLooks,test_roi2.timesOn,test_roi2.timesOff,test_roi3.numLooks,test_roi3.timesOn,test_roi3.timesOff,test_roi4.numLooks,test_roi4.timesOn,test_roi4.timesOff,test_image_feedback1.started,test_image_feedback2.started,test_iamge_feedback3.started,test_iamge_feedback4.started,participant,group,date,expName,psychopyVersion,frameRate,
positions.xlsx,positions_test.xlsx,positions_test_new.xlsx,stimuli.xlsx,stimuli_new.xlsx,stimuli/Social2.png,stimuli/Social1.png,stimuli/Nonsocial2.png,stimuli/Nonsocial1.png,stimuli/Social4.png,stimuli/Social3.png,stimuli/Nonsocial4.png,stimuli/Nonsocial3.png,cs_pos_s,,,,,,,,,,0,0,0,0,0,0,0,2,,,,,,,,,,,,,,,,,,,,,,,,,,,,,,,,,,,,,18.38799870001094,197.20179869999993,214.10825050000858,3.0,8.973443099996075,,,,,,,,,,,,,,,,,,,,,,,,,,,,,,,,,18,B,2024-04-25_14h26.45.972,attentional_competition_task,2022.2.4,144.07830944191855,
positions.xlsx,positions_test.xlsx,positions_test_new.xlsx,stimuli.xlsx,stimuli_new.xlsx,stimuli/Social2.png,stimuli/Social1.png,stimuli/Nonsocial2.png,stimuli/Nonsocial1.png,stimuli/Social4.png,stimuli/Social3.png,stimuli/Nonsocial4.png,stimuli/Nonsocial3.png,cs_neg_s,,,,,,,,,,0,0,0,0,0,1,1,0,,,,,,,,,,,,,,,,,,,,,,,,,,,,,,,,,,,,,,,225.27448860000004,3.0,2.5205256000044756,,,,,,,,,,,,,,,,,,,,,,,,,,,,,,,,,18,B,2024-04-25_14h26.45.972,attentional_competition_task,2022.2.4,144.07830944191855,
positions.xlsx,positions_test.xlsx,positions_test_new.xlsx,stimuli.xlsx,stimuli_new.xlsx,stimuli/Social2.png,stimuli/Social1.png,stimuli/Nonsocial2.png,stimuli/Nonsocial1.png,stimuli/Social4.png,stimuli/Social3.png,stimuli/Nonsocial4.png,stimuli/Nonsocial3.png,cs_pos_ns,,,,,,,,,,0,0,0,0,0,2,2,3,,,,,,,,,,,,,,,,,,,,,,,,,,,,,,,,,,,,,,,229.52430070000992,7.0,6.893098899992765,,,,,,,,,,,,,,,,,,,,,,,,,,,,,,,,,18,B,2024-04-25_14h26.45.972,attentional_competition_task,2022.2.4,144.07830944191855,
positions.xlsx,positions_test.xlsx,positions_test_new.xlsx,stimuli.xlsx,stimuli_new.xlsx,stimuli/Social2.png,stimuli/Social1.png,stimuli/Nonsocial2.png,stimuli/Nonsocial1.png,stimuli/Social4.png,stimuli/Social3.png,stimuli/Nonsocial4.png,stimuli/Nonsocial3.png,cs_neg_ns,,,,,,,,,,0,0,0,0,0,3,3,1,,,,,,,,,,,,,,,,,,,,,,,,,,,,,,,,,,,,,,,239.3086256000097,10.0,6.145609500003047,,,,,,,,,,,,,,,,,,,,,,,,,,,,,,,,,18,B,2024-04-25_14h26.45.972,attentional_competition_task,2022.2.4,144.07830944191855,
positions.xlsx,positions_test.xlsx,positions_test_new.xlsx,stimuli.xlsx,stimuli_new.xlsx,stimuli/Social2.png,stimuli/Social1.png,stimuli/Nonsocial2.png,stimuli/Nonsocial1.png,stimuli/Social4.png,stimuli/Social3.png,stimuli/Nonsocial4.png,stimuli/Nonsocial3.png,,,,,,,,,,,0,0,0,0,,,,,0,0,0,0,,,,,,,,,,,,,,,,,,,,,,,,,,,,,,,,,,,,,,246.05139260001306,"[[-0.675, 0.7], [-0.9, 0.19999999999999996], [-0.45, -0.30000000000000004], [0.22499999999999998, -0.30000000000000004], [-0.22499999999999998, 0.19999999999999996], [-0.22499999999999998, -0.30000000000000004], [-0.45, 0.7], [0.6749999999999999, -0.8], [0.9, 0.7], [-0.45, -0.8], [-0.9, -0.30000000000000004], [-0.22499999999999998, 0.7], [0.9, -0.8], [0.9, 0.19999999999999996], [0.45000000000000007, 0.19999999999999996]]","[[0.0, -0.30000000000000004], [0.45000000000000007, -0.30000000000000004], [0.6749999999999999, -0.30000000000000004], [-0.675, 0.19999999999999996], [-0.9, 0.7], [0.22499999999999998, -0.8], [0.45000000000000007, -0.8], [0.6749999999999999, 0.7], [0.0, -0.8], [0.0, 0.7], [0.0, 0.19999999999999996], [-0.45, 0.19999999999999996], [-0.9, -0.8], [0.22499999999999998, 0.7], [0.6749999999999999, 0.19999999999999996]]",,,,,,,,,,,,,,,,,,,,,,,,,,,,,,18,B,2024-04-25_14h26.45.972,attentional_competition_task,2022.2.4,144.07830944191855,
positions.xlsx,positions_test.xlsx,positions_test_new.xlsx,stimuli.xlsx,stimuli_new.xlsx,stimuli/Social2.png,stimuli/Social1.png,stimuli/Nonsocial2.png,stimuli/Nonsocial1.png,stimuli/Social4.png,stimuli/Social3.png,stimuli/Nonsocial4.png,stimuli/Nonsocial3.png,,,,,,,,,,,0,0,0,0,,,,,1,0,1,0,,,,,,,,,,,,,,,,,,,,,,,,,,,,,,,,,,,,,,,"[[0.9, 0.7], [-0.675, -0.30000000000000004], [0.9, 0.19999999999999996], [0.0, 0.19999999999999996], [0.45000000000000007, -0.8], [0.45000000000000007, 0.7], [0.6749999999999999, 0.19999999999999996], [0.6749999999999999, 0.7], [-0.22499999999999998, -0.8], [0.0, -0.8], [-0.22499999999999998, -0.30000000000000004], [-0.9, -0.8], [-0.45, 0.7], [-0.45, -0.30000000000000004], [0.45000000000000007, 0.19999999999999996]]","[[-0.22499999999999998, 0.7], [-0.22499999999999998, 0.19999999999999996], [0.45000000000000007, -0.30000000000000004], [-0.45, 0.19999999999999996], [0.0, -0.30000000000000004], [0.22499999999999998, 0.19999999999999996], [0.0, 0.7], [-0.9, -0.30000000000000004], [0.22499999999999998, -0.8], [-0.9, 0.7], [0.22499999999999998, -0.30000000000000004], [0.6749999999999999, -0.30000000000000004], [0.9, -0.30000000000000004], [0.9, -0.8], [-0.675, 0.19999999999999996]]",,,,,,,,,,,,,,,,,,,,,,,,,,,,,,18,B,2024-04-25_14h26.45.972,attentional_competition_task,2022.2.4,144.07830944191855,
positions.xlsx,positions_test.xlsx,positions_test_new.xlsx,stimuli.xlsx,stimuli_new.xlsx,stimuli/Social2.png,stimuli/Social1.png,stimuli/Nonsocial2.png,stimuli/Nonsocial1.png,stimuli/Social4.png,stimuli/Social3.png,stimuli/Nonsocial4.png,stimuli/Nonsocial3.png,cs_pos_s,"(0.7, -0.5)",,,,,,,,,0,0,0,0,,,,,,,,,0,0,0,7,,,,,,,,,,,,,,,,,,,,,,,,,,,,,,,,,,,,,335.30481169999985,366.1924577000027,3,reward,1,0.2642889999988256,0.2642926999978954,366.47716650000075,,,,,,,,,,,,,,,,,,,,,,18,B,2024-04-25_14h26.45.972,attentional_competition_task,2022.2.4,144.07830944191855,
positions.xlsx,positions_test.xlsx,positions_test_new.xlsx,stimuli.xlsx,stimuli_new.xlsx,stimuli/Social2.png,stimuli/Social1.png,stimuli/Nonsocial2.png,stimuli/Nonsocial1.png,stimuli/Social4.png,stimuli/Social3.png,stimuli/Nonsocial4.png,stimuli/Nonsocial3.png,cs_pos_ns,"(0.7, -0.5)",,,,,,,,,0,0,0,0,,,,,,,,,0,1,1,15,,,,,,,,,,,,,,,,,,,,,,,,,,,,,,,,,,,,,,374.30327709999983,6,reward,1,0.27806799999962095,0.27807169999869075,374.58797540000523,,,,,,,,,,,,,,,,,,,,,,18,B,2024-04-25_14h26.45.972,attentional_competition_task,2022.2.4,144.07830944191855,
positions.xlsx,positions_test.xlsx,positions_test_new.xlsx,stimuli.xlsx,stimuli_new.xlsx,stimuli/Social2.png,stimuli/Social1.png,stimuli/Nonsocial2.png,stimuli/Nonsocial1.png,stimuli/Social4.png,stimuli/Social3.png,stimuli/Nonsocial4.png,stimuli/Nonsocial3.png,cs_neg_ns,"(-0.7, 0.5)",,,,,,,,,0,0,0,0,,,,,,,,,0,2,2,8,,,,,,,,,,,,,,,,,,,,,,,,,,,,,,,,,,,,,,381.7266040000104,3,loss,1,0.2781490000052145,0.27815290000580717,382.0252102000086,,,,,,,,,,,,,,,,,,,,,,18,B,2024-04-25_14h26.45.972,attentional_competition_task,2022.2.4,144.07830944191855,
positions.xlsx,positions_test.xlsx,positions_test_new.xlsx,stimuli.xlsx,stimuli_new.xlsx,stimuli/Social2.png,stimuli/Social1.png,stimuli/Nonsocial2.png,stimuli/Nonsocial1.png,stimuli/Social4.png,stimuli/Social3.png,stimuli/Nonsocial4.png,stimuli/Nonsocial3.png,cs_pos_ns,"(0.7, 0.5)",,,,,,,,,0,0,0,0,,,,,,,,,0,3,3,14,,,,,,,,,,,,,,,,,,,,,,,,,,,,,,,,,,,,,,389.26793500001077,6,reward,1,0.36790459998883307,0.3679085999901872,389.6429613000073,,,,,,,,,,,,,,,,,,,,,,18,B,2024-04-25_14h26.45.972,attentional_competition_task,2022.2.4,144.07830944191855,
positions.xlsx,positions_test.xlsx,positions_test_new.xlsx,stimuli.xlsx,stimuli_new.xlsx,stimuli/Social2.png,stimuli/Social1.png,stimuli/Nonsocial2.png,stimuli/Nonsocial1.png,stimuli/Social4.png,stimuli/Social3.png,stimuli/Nonsocial4.png,stimuli/Nonsocial3.png,cs_neg_s,"(-0.7, -0.5)",,,,,,,,,0,0,0,0,,,,,,,,,0,4,4,1,,,,,,,,,,,,,,,,,,,,,,,,,,,,,,,,,,,,,,396.98986400000285,3,loss,1,0.31280069999047555,0.31280459999106824,397.3093089000031,,,,,,,,,,,,,,,,,,,,,,18,B,2024-04-25_14h26.45.972,attentional_competition_task,2022.2.4,144.07830944191855,
positions.xlsx,positions_test.xlsx,positions_test_new.xlsx,stimuli.xlsx,stimuli_new.xlsx,stimuli/Social2.png,stimuli/Social1.png,stimuli/Nonsocial2.png,stimuli/Nonsocial1.png,stimuli/Social4.png,stimuli/Social3.png,stimuli/Nonsocial4.png,stimuli/Nonsocial3.png,cs_neg_s,"(0.7, -0.5)",,,,,,,,,0,0,0,0,,,,,,,,,0,5,5,3,,,,,,,,,,,,,,,,,,,,,,,,,,,,,,,,,,,,,,404.1007091000065,0,loss,1,0.34709309999016114,0.3540406999964034,404.4617792000063,,,,,,,,,,,,,,,,,,,,,,18,B,2024-04-25_14h26.45.972,attentional_competition_task,2022.2.4,144.07830944191855,
positions.xlsx,positions_test.xlsx,positions_test_new.xlsx,stimuli.xlsx,stimuli_new.xlsx,stimuli/Social2.png,stimuli/Social1.png,stimuli/Nonsocial2.png,stimuli/Nonsocial1.png,stimuli/Social4.png,stimuli/Social3.png,stimuli/Nonsocial4.png,stimuli/Nonsocial3.png,cs_neg_ns,"(0.7, 0.5)",,,,,,,,,0,0,0,0,,,,,,,,,0,6,6,10,,,,,,,,,,,,,,,,,,,,,,,,,,,,,,,,,,,,,,411.82956140000897,-3,loss,1,0.2710656999988714,0.27106929999717977,412.10731300000043,,,,,,,,,,,,,,,,,,,,,,18,B,2024-04-25_14h26.45.972,attentional_competition_task,2022.2.4,144.07830944191855,
positions.xlsx,positions_test.xlsx,positions_test_new.xlsx,stimuli.xlsx,stimuli_new.xlsx,stimuli/Social2.png,stimuli/Social1.png,stimuli/Nonsocial2.png,stimuli/Nonsocial1.png,stimuli/Social4.png,stimuli/Social3.png,stimuli/Nonsocial4.png,stimuli/Nonsocial3.png,cs_neg_s,"(-0.7, 0.5)",,,,,,,,,0,0,0,0,,,,,,,,,0,7,7,0,,,,,,,,,,,,,,,,,,,,,,,,,,,,,,,,,,,,,,419.995914500003,-3,none,0,,,423.01664359999995,,,,,,,,,,,,,,,,,,,,,,18,B,2024-04-25_14h26.45.972,attentional_competition_task,2022.2.4,144.07830944191855,
positions.xlsx,positions_test.xlsx,positions_test_new.xlsx,stimuli.xlsx,stimuli_new.xlsx,stimuli/Social2.png,stimuli/Social1.png,stimuli/Nonsocial2.png,stimuli/Nonsocial1.png,stimuli/Social4.png,stimuli/Social3.png,stimuli/Nonsocial4.png,stimuli/Nonsocial3.png,cs_pos_ns,"(-0.7, 0.5)",,,,,,,,,0,0,0,0,,,,,,,,,0,8,8,12,,,,,,,,,,,,,,,,,,,,,,,,,,,,,,,,,,,,,,430.863537000012,0,reward,1,0.56322569999611,0.5632296999974642,431.43297720000555,,,,,,,,,,,,,,,,,,,,,,18,B,2024-04-25_14h26.45.972,attentional_competition_task,2022.2.4,144.07830944191855,
positions.xlsx,positions_test.xlsx,positions_test_new.xlsx,stimuli.xlsx,stimuli_new.xlsx,stimuli/Social2.png,stimuli/Social1.png,stimuli/Nonsocial2.png,stimuli/Nonsocial1.png,stimuli/Social4.png,stimuli/Social3.png,stimuli/Nonsocial4.png,stimuli/Nonsocial3.png,cs_pos_s,"(-0.7, 0.5)",,,,,,,,,0,0,0,0,,,,,,,,,0,9,9,4,,,,,,,,,,,,,,,,,,,,,,,,,,,,,,,,,,,,,,439.5229141000018,3,reward,1,0.4169053000077838,0.41690930000913795,439.94653180000023,,,,,,,,,,,,,,,,,,,,,,18,B,2024-04-25_14h26.45.972,attentional_competition_task,2022.2.4,144.07830944191855,
positions.xlsx,positions_test.xlsx,positions_test_new.xlsx,stimuli.xlsx,stimuli_new.xlsx,stimuli/Social2.png,stimuli/Social1.png,stimuli/Nonsocial2.png,stimuli/Nonsocial1.png,stimuli/Social4.png,stimuli/Social3.png,stimuli/Nonsocial4.png,stimuli/Nonsocial3.png,cs_neg_s,"(0.7, 0.5)",,,,,,,,,0,0,0,0,,,,,,,,,0,10,10,2,,,,,,,,,,,,,,,,,,,,,,,,,,,,,,,,,,,,,,448.1614705000102,3,none,0,,,451.17523600001005,,,,,,,,,,,,,,,,,,,,,,18,B,2024-04-25_14h26.45.972,attentional_competition_task,2022.2.4,144.07830944191855,
positions.xlsx,positions_test.xlsx,positions_test_new.xlsx,stimuli.xlsx,stimuli_new.xlsx,stimuli/Social2.png,stimuli/Social1.png,stimuli/Nonsocial2.png,stimuli/Nonsocial1.png,stimuli/Social4.png,stimuli/Social3.png,stimuli/Nonsocial4.png,stimuli/Nonsocial3.png,cs_neg_ns,"(-0.7, -0.5)",,,,,,,,,0,0,0,0,,,,,,,,,0,11,11,9,,,,,,,,,,,,,,,,,,,,,,,,,,,,,,,,,,,,,,459.0568712000095,0,loss,1,0.5974081000022124,0.5974114999989979,459.6610139000113,,,,,,,,,,,,,,,,,,,,,,18,B,2024-04-25_14h26.45.972,attentional_competition_task,2022.2.4,144.07830944191855,
positions.xlsx,positions_test.xlsx,positions_test_new.xlsx,stimuli.xlsx,stimuli_new.xlsx,stimuli/Social2.png,stimuli/Social1.png,stimuli/Nonsocial2.png,stimuli/Nonsocial1.png,stimuli/Social4.png,stimuli/Social3.png,stimuli/Nonsocial4.png,stimuli/Nonsocial3.png,cs_pos_s,"(0.7, 0.5)",,,,,,,,,0,0,0,0,,,,,,,,,0,12,12,6,,,,,,,,,,,,,,,,,,,,,,,,,,,,,,,,,,,,,,467.3204365000129,3,reward,1,0.5493665000103647,0.5493705000117188,467.8759781000117,,,,,,,,,,,,,,,,,,,,,,18,B,2024-04-25_14h26.45.972,attentional_competition_task,2022.2.4,144.07830944191855,
positions.xlsx,positions_test.xlsx,positions_test_new.xlsx,stimuli.xlsx,stimuli_new.xlsx,stimuli/Social2.png,stimuli/Social1.png,stimuli/Nonsocial2.png,stimuli/Nonsocial1.png,stimuli/Social4.png,stimuli/Social3.png,stimuli/Nonsocial4.png,stimuli/Nonsocial3.png,cs_pos_ns,"(-0.7, -0.5)",,,,,,,,,0,0,0,0,,,,,,,,,0,13,13,13,,,,,,,,,,,,,,,,,,,,,,,,,,,,,,,,,,,,,,474.5285042000032,6,reward,1,0.7992918000090867,0.799295799995889,475.3340424000053,,,,,,,,,,,,,,,,,,,,,,18,B,2024-04-25_14h26.45.972,attentional_competition_task,2022.2.4,144.07830944191855,
positions.xlsx,positions_test.xlsx,positions_test_new.xlsx,stimuli.xlsx,stimuli_new.xlsx,stimuli/Social2.png,stimuli/Social1.png,stimuli/Nonsocial2.png,stimuli/Nonsocial1.png,stimuli/Social4.png,stimuli/Social3.png,stimuli/Nonsocial4.png,stimuli/Nonsocial3.png,cs_neg_ns,"(0.7, -0.5)",,,,,,,,,0,0,0,0,,,,,,,,,0,14,14,11,,,,,,,,,,,,,,,,,,,,,,,,,,,,,,,,,,,,,,482.6114988000045,3,loss,1,0.8824145999969915,0.8824183999968227,483.50036340000224,,,,,,,,,,,,,,,,,,,,,,18,B,2024-04-25_14h26.45.972,attentional_competition_task,2022.2.4,144.07830944191855,
positions.xlsx,positions_test.xlsx,positions_test_new.xlsx,stimuli.xlsx,stimuli_new.xlsx,stimuli/Social2.png,stimuli/Social1.png,stimuli/Nonsocial2.png,stimuli/Nonsocial1.png,stimuli/Social4.png,stimuli/Social3.png,stimuli/Nonsocial4.png,stimuli/Nonsocial3.png,cs_pos_s,"(-0.7, -0.5)",,,,,,,,,0,0,0,0,,,,,,,,,0,15,15,5,,,,,,,,,,,,,,,,,,,,,,,,,,,,,,,,,,,,,,491.8333535000129,6,reward,1,0.7503434000100242,0.750347100009094,492.5902768000087,,,,,,,,,,,,,,,,,,,,,,18,B,2024-04-25_14h26.45.972,attentional_competition_task,2022.2.4,144.07830944191855,
positions.xlsx,positions_test.xlsx,positions_test_new.xlsx,stimuli.xlsx,stimuli_new.xlsx,stimuli/Social2.png,stimuli/Social1.png,stimuli/Nonsocial2.png,stimuli/Nonsocial1.png,stimuli/Social4.png,stimuli/Social3.png,stimuli/Nonsocial4.png,stimuli/Nonsocial3.png,cs_neg_ns,"(-0.7, -0.5)",,,,,,,,,0,0,0,0,,,,,,,,,1,0,16,9,,,,,,,,,,,,,,,,,,,,,,,,,,,,,,,,,,,,,,500.339942000006,6,none,0,,,503.35372760001337,,,,,,,,,,,,,,,,,,,,,,18,B,2024-04-25_14h26.45.972,attentional_competition_task,2022.2.4,144.07830944191855,
positions.xlsx,positions_test.xlsx,positions_test_new.xlsx,stimuli.xlsx,stimuli_new.xlsx,stimuli/Social2.png,stimuli/Social1.png,stimuli/Nonsocial2.png,stimuli/Nonsocial1.png,stimuli/Social4.png,stimuli/Social3.png,stimuli/Nonsocial4.png,stimuli/Nonsocial3.png,cs_pos_s,"(-0.7, 0.5)",,,,,,,,,0,0,0,0,,,,,,,,,1,1,17,4,,,,,,,,,,,,,,,,,,,,,,,,,,,,,,,,,,,,,,511.31868520000717,9,reward,1,0.4515135999972699,0.45151719999557827,511.77698650000093,,,,,,,,,,,,,,,,,,,,,,18,B,2024-04-25_14h26.45.972,attentional_competition_task,2022.2.4,144.07830944191855,
positions.xlsx,positions_test.xlsx,positions_test_new.xlsx,stimuli.xlsx,stimuli_new.xlsx,stimuli/Social2.png,stimuli/Social1.png,stimuli/Nonsocial2.png,stimuli/Nonsocial1.png,stimuli/Social4.png,stimuli/Social3.png,stimuli/Nonsocial4.png,stimuli/Nonsocial3.png,cs_neg_s,"(-0.7, 0.5)",,,,,,,,,0,0,0,0,,,,,,,,,1,2,18,0,,,,,,,,,,,,,,,,,,,,,,,,,,,,,,,,,,,,,,519.2558962000039,9,none,0,,,522.2627734000125,,,,,,,,,,,,,,,,,,,,,,18,B,2024-04-25_14h26.45.972,attentional_competition_task,2022.2.4,144.07830944191855,
positions.xlsx,positions_test.xlsx,positions_test_new.xlsx,stimuli.xlsx,stimuli_new.xlsx,stimuli/Social2.png,stimuli/Social1.png,stimuli/Nonsocial2.png,stimuli/Nonsocial1.png,stimuli/Social4.png,stimuli/Social3.png,stimuli/Nonsocial4.png,stimuli/Nonsocial3.png,cs_pos_ns,"(0.7, -0.5)",,,,,,,,,0,0,0,0,,,,,,,,,1,3,19,15,,,,,,,,,,,,,,,,,,,,,,,,,,,,,,,,,,,,,,529.8179519000114,12,reward,1,0.6883704999927431,0.6951122999889776,530.5263116000133,,,,,,,,,,,,,,,,,,,,,,18,B,2024-04-25_14h26.45.972,attentional_competition_task,2022.2.4,144.07830944191855,
positions.xlsx,positions_test.xlsx,positions_test_new.xlsx,stimuli.xlsx,stimuli_new.xlsx,stimuli/Social2.png,stimuli/Social1.png,stimuli/Nonsocial2.png,stimuli/Nonsocial1.png,stimuli/Social4.png,stimuli/Social3.png,stimuli/Nonsocial4.png,stimuli/Nonsocial3.png,cs_neg_s,"(-0.7, -0.5)",,,,,,,,,0,0,0,0,,,,,,,,,1,4,20,1,,,,,,,,,,,,,,,,,,,,,,,,,,,,,,,,,,,,,,537.7829106000136,12,none,0,,,540.7966930000111,,,,,,,,,,,,,,,,,,,,,,18,B,2024-04-25_14h26.45.972,attentional_competition_task,2022.2.4,144.07830944191855,
positions.xlsx,positions_test.xlsx,positions_test_new.xlsx,stimuli.xlsx,stimuli_new.xlsx,stimuli/Social2.png,stimuli/Social1.png,stimuli/Nonsocial2.png,stimuli/Nonsocial1.png,stimuli/Social4.png,stimuli/Social3.png,stimuli/Nonsocial4.png,stimuli/Nonsocial3.png,cs_pos_ns,"(0.7, 0.5)",,,,,,,,,0,0,0,0,,,,,,,,,1,5,21,14,,,,,,,,,,,,,,,,,,,,,,,,,,,,,,,,,,,,,,549.0672097000061,15,reward,1,0.7156721000064863,0.7156763000093633,549.8033947000076,,,,,,,,,,,,,,,,,,,,,,18,B,2024-04-25_14h26.45.972,attentional_competition_task,2022.2.4,144.07830944191855,
positions.xlsx,positions_test.xlsx,positions_test_new.xlsx,stimuli.xlsx,stimuli_new.xlsx,stimuli/Social2.png,stimuli/Social1.png,stimuli/Nonsocial2.png,stimuli/Nonsocial1.png,stimuli/Social4.png,stimuli/Social3.png,stimuli/Nonsocial4.png,stimuli/Nonsocial3.png,cs_pos_s,"(0.7, 0.5)",,,,,,,,,0,0,0,0,,,,,,,,,1,6,22,6,,,,,,,,,,,,,,,,,,,,,,,,,,,,,,,,,,,,,,558.0043786000024,18,reward,1,0.5837788000062574,0.5837828000076115,558.594620600008,,,,,,,,,,,,,,,,,,,,,,18,B,2024-04-25_14h26.45.972,attentional_competition_task,2022.2.4,144.07830944191855,
positions.xlsx,positions_test.xlsx,positions_test_new.xlsx,stimuli.xlsx,stimuli_new.xlsx,stimuli/Social2.png,stimuli/Social1.png,stimuli/Nonsocial2.png,stimuli/Nonsocial1.png,stimuli/Social4.png,stimuli/Social3.png,stimuli/Nonsocial4.png,stimuli/Nonsocial3.png,cs_pos_s,"(-0.7, -0.5)",,,,,,,,,0,0,0,0,,,,,,,,,1,7,23,5,,,,,,,,,,,,,,,,,,,,,,,,,,,,,,,,,,,,,,565.4346094000066,21,reward,1,0.5765830000018468,0.5765868999878876,566.0180185000063,,,,,,,,,,,,,,,,,,,,,,18,B,2024-04-25_14h26.45.972,attentional_competition_task,2022.2.4,144.07830944191855,
positions.xlsx,positions_test.xlsx,positions_test_new.xlsx,stimuli.xlsx,stimuli_new.xlsx,stimuli/Social2.png,stimuli/Social1.png,stimuli/Nonsocial2.png,stimuli/Nonsocial1.png,stimuli/Social4.png,stimuli/Social3.png,stimuli/Nonsocial4.png,stimuli/Nonsocial3.png,cs_pos_ns,"(-0.7, 0.5)",,,,,,,,,0,0,0,0,,,,,,,,,1,8,24,12,,,,,,,,,,,,,,,,,,,,,,,,,,,,,,,,,,,,,,572.5385191000096,24,reward,1,0.5977992000116501,0.5978032000130042,573.1426605000015,,,,,,,,,,,,,,,,,,,,,,18,B,2024-04-25_14h26.45.972,attentional_competition_task,2022.2.4,144.07830944191855,
positions.xlsx,positions_test.xlsx,positions_test_new.xlsx,stimuli.xlsx,stimuli_new.xlsx,stimuli/Social2.png,stimuli/Social1.png,stimuli/Nonsocial2.png,stimuli/Nonsocial1.png,stimuli/Social4.png,stimuli/Social3.png,stimuli/Nonsocial4.png,stimuli/Nonsocial3.png,cs_pos_ns,"(-0.7, -0.5)",,,,,,,,,0,0,0,0,,,,,,,,,1,9,25,13,,,,,,,,,,,,,,,,,,,,,,,,,,,,,,,,,,,,,,579.8507370000007,27,reward,1,0.5976382999942871,0.5976424999971641,580.4548879000067,,,,,,,,,,,,,,,,,,,,,,18,B,2024-04-25_14h26.45.972,attentional_competition_task,2022.2.4,144.07830944191855,
positions.xlsx,positions_test.xlsx,positions_test_new.xlsx,stimuli.xlsx,stimuli_new.xlsx,stimuli/Social2.png,stimuli/Social1.png,stimuli/Nonsocial2.png,stimuli/Nonsocial1.png,stimuli/Social4.png,stimuli/Social3.png,stimuli/Nonsocial4.png,stimuli/Nonsocial3.png,cs_neg_s,"(0.7, -0.5)",,,,,,,,,0,0,0,0,,,,,,,,,1,10,26,3,,,,,,,,,,,,,,,,,,,,,,,,,,,,,,,,,,,,,,588.2392878000101,27,none,0,,,591.2461203999992,,,,,,,,,,,,,,,,,,,,,,18,B,2024-04-25_14h26.45.972,attentional_competition_task,2022.2.4,144.07830944191855,
positions.xlsx,positions_test.xlsx,positions_test_new.xlsx,stimuli.xlsx,stimuli_new.xlsx,stimuli/Social2.png,stimuli/Social1.png,stimuli/Nonsocial2.png,stimuli/Nonsocial1.png,stimuli/Social4.png,stimuli/Social3.png,stimuli/Nonsocial4.png,stimuli/Nonsocial3.png,cs_neg_ns,"(0.7, 0.5)",,,,,,,,,0,0,0,0,,,,,,,,,1,11,27,10,,,,,,,,,,,,,,,,,,,,,,,,,,,,,,,,,,,,,,598.1278021000035,27,none,0,,,601.1415988000081,,,,,,,,,,,,,,,,,,,,,,18,B,2024-04-25_14h26.45.972,attentional_competition_task,2022.2.4,144.07830944191855,
positions.xlsx,positions_test.xlsx,positions_test_new.xlsx,stimuli.xlsx,stimuli_new.xlsx,stimuli/Social2.png,stimuli/Social1.png,stimuli/Nonsocial2.png,stimuli/Nonsocial1.png,stimuli/Social4.png,stimuli/Social3.png,stimuli/Nonsocial4.png,stimuli/Nonsocial3.png,cs_neg_s,"(0.7, 0.5)",,,,,,,,,0,0,0,0,,,,,,,,,1,12,28,2,,,,,,,,,,,,,,,,,,,,,,,,,,,,,,,,,,,,,,608.5440541000135,27,none,0,,,611.5508881999995,,,,,,,,,,,,,,,,,,,,,,18,B,2024-04-25_14h26.45.972,attentional_competition_task,2022.2.4,144.07830944191855,
positions.xlsx,positions_test.xlsx,positions_test_new.xlsx,stimuli.xlsx,stimuli_new.xlsx,stimuli/Social2.png,stimuli/Social1.png,stimuli/Nonsocial2.png,stimuli/Nonsocial1.png,stimuli/Social4.png,stimuli/Social3.png,stimuli/Nonsocial4.png,stimuli/Nonsocial3.png,cs_neg_ns,"(0.7, -0.5)",,,,,,,,,0,0,0,0,,,,,,,,,1,13,29,11,,,,,,,,,,,,,,,,,,,,,,,,,,,,,,,,,,,,,,618.550622300012,24,loss,1,0.6873753000108991,0.6942982000036864,619.2519491999992,,,,,,,,,,,,,,,,,,,,,,18,B,2024-04-25_14h26.45.972,attentional_competition_task,2022.2.4,144.07830944191855,
positions.xlsx,positions_test.xlsx,positions_test_new.xlsx,stimuli.xlsx,stimuli_new.xlsx,stimuli/Social2.png,stimuli/Social1.png,stimuli/Nonsocial2.png,stimuli/Nonsocial1.png,stimuli/Social4.png,stimuli/Social3.png,stimuli/Nonsocial4.png,stimuli/Nonsocial3.png,cs_neg_ns,"(-0.7, 0.5)",,,,,,,,,0,0,0,0,,,,,,,,,1,14,30,8,,,,,,,,,,,,,,,,,,,,,,,,,,,,,,,,,,,,,,626.4739036000101,24,none,0,,,629.4876504999993,,,,,,,,,,,,,,,,,,,,,,18,B,2024-04-25_14h26.45.972,attentional_competition_task,2022.2.4,144.07830944191855,
positions.xlsx,positions_test.xlsx,positions_test_new.xlsx,stimuli.xlsx,stimuli_new.xlsx,stimuli/Social2.png,stimuli/Social1.png,stimuli/Nonsocial2.png,stimuli/Nonsocial1.png,stimuli/Social4.png,stimuli/Social3.png,stimuli/Nonsocial4.png,stimuli/Nonsocial3.png,cs_pos_s,"(0.7, -0.5)",,,,,,,,,0,0,0,0,,,,,,,,,1,15,31,7,,,,,,,,,,,,,,,,,,,,,,,,,,,,,,,,,,,,,,637.619311100003,27,reward,1,0.4166809000016656,0.4166846000007354,638.0429256000061,,,,,,,,,,,,,,,,,,,,,,18,B,2024-04-25_14h26.45.972,attentional_competition_task,2022.2.4,144.07830944191855,
positions.xlsx,positions_test.xlsx,positions_test_new.xlsx,stimuli.xlsx,stimuli_new.xlsx,stimuli/Social2.png,stimuli/Social1.png,stimuli/Nonsocial2.png,stimuli/Nonsocial1.png,stimuli/Social4.png,stimuli/Social3.png,stimuli/Nonsocial4.png,stimuli/Nonsocial3.png,cs_neg_ns,"(0.7, -0.5)",,,,,,,,,0,0,0,0,,,,,,,,,,,,,0,0,0,11,,,,,,,,,,,,,,,,,,,,,,,,,,,,,,,,,,672.8054318000068,27,none,0,,,675.8192048000055,,,,,,,,,,,,,,,,,,,,,,18,B,2024-04-25_14h26.45.972,attentional_competition_task,2022.2.4,144.07830944191855,
positions.xlsx,positions_test.xlsx,positions_test_new.xlsx,stimuli.xlsx,stimuli_new.xlsx,stimuli/Social2.png,stimuli/Social1.png,stimuli/Nonsocial2.png,stimuli/Nonsocial1.png,stimuli/Social4.png,stimuli/Social3.png,stimuli/Nonsocial4.png,stimuli/Nonsocial3.png,cs_neg_ns,"(-0.7, -0.5)",,,,,,,,,0,0,0,0,,,,,,,,,,,,,0,1,1,9,,,,,,,,,,,,,,,,,,,,,,,,,,,,,,,,,,682.6314305000124,24,loss,1,0.3199291000055382,0.31993309999234043,682.9579080000112,,,,,,,,,,,,,,,,,,,,,,18,B,2024-04-25_14h26.45.972,attentional_competition_task,2022.2.4,144.07830944191855,
positions.xlsx,positions_test.xlsx,positions_test_new.xlsx,stimuli.xlsx,stimuli_new.xlsx,stimuli/Social2.png,stimuli/Social1.png,stimuli/Nonsocial2.png,stimuli/Nonsocial1.png,stimuli/Social4.png,stimuli/Social3.png,stimuli/Nonsocial4.png,stimuli/Nonsocial3.png,cs_pos_ns,"(0.7, 0.5)",,,,,,,,,0,0,0,0,,,,,,,,,,,,,0,2,2,14,,,,,,,,,,,,,,,,,,,,,,,,,,,,,,,,,,690.4436343000125,27,reward,1,0.7640692999993917,0.7640731999999844,691.2144770000014,,,,,,,,,,,,,,,,,,,,,,18,B,2024-04-25_14h26.45.972,attentional_competition_task,2022.2.4,144.07830944191855,
positions.xlsx,positions_test.xlsx,positions_test_new.xlsx,stimuli.xlsx,stimuli_new.xlsx,stimuli/Social2.png,stimuli/Social1.png,stimuli/Nonsocial2.png,stimuli/Nonsocial1.png,stimuli/Social4.png,stimuli/Social3.png,stimuli/Nonsocial4.png,stimuli/Nonsocial3.png,cs_neg_s,"(-0.7, -0.5)",,,,,,,,,0,0,0,0,,,,,,,,,,,,,0,3,3,1,,,,,,,,,,,,,,,,,,,,,,,,,,,,,,,,,,698.1169276,27,none,0,,,701.1307164000027,,,,,,,,,,,,,,,,,,,,,,18,B,2024-04-25_14h26.45.972,attentional_competition_task,2022.2.4,144.07830944191855,
positions.xlsx,positions_test.xlsx,positions_test_new.xlsx,stimuli.xlsx,stimuli_new.xlsx,stimuli/Social2.png,stimuli/Social1.png,stimuli/Nonsocial2.png,stimuli/Nonsocial1.png,stimuli/Social4.png,stimuli/Social3.png,stimuli/Nonsocial4.png,stimuli/Nonsocial3.png,cs_neg_s,"(-0.7, 0.5)",,,,,,,,,0,0,0,0,,,,,,,,,,,,,0,4,4,0,,,,,,,,,,,,,,,,,,,,,,,,,,,,,,,,,,708.2693012000091,27,none,0,,,711.2762205000035,,,,,,,,,,,,,,,,,,,,,,18,B,2024-04-25_14h26.45.972,attentional_competition_task,2022.2.4,144.07830944191855,
positions.xlsx,positions_test.xlsx,positions_test_new.xlsx,stimuli.xlsx,stimuli_new.xlsx,stimuli/Social2.png,stimuli/Social1.png,stimuli/Nonsocial2.png,stimuli/Nonsocial1.png,stimuli/Social4.png,stimuli/Social3.png,stimuli/Nonsocial4.png,stimuli/Nonsocial3.png,cs_neg_s,"(0.7, 0.5)",,,,,,,,,0,0,0,0,,,,,,,,,,,,,0,5,5,2,,,,,,,,,,,,,,,,,,,,,,,,,,,,,,,,,,719.0536303000117,27,none,0,,,722.0604559000058,,,,,,,,,,,,,,,,,,,,,,18,B,2024-04-25_14h26.45.972,attentional_competition_task,2022.2.4,144.07830944191855,
positions.xlsx,positions_test.xlsx,positions_test_new.xlsx,stimuli.xlsx,stimuli_new.xlsx,stimuli/Social2.png,stimuli/Social1.png,stimuli/Nonsocial2.png,stimuli/Nonsocial1.png,stimuli/Social4.png,stimuli/Social3.png,stimuli/Nonsocial4.png,stimuli/Nonsocial3.png,cs_neg_s,"(0.7, -0.5)",,,,,,,,,0,0,0,0,,,,,,,,,,,,,0,6,6,3,,,,,,,,,,,,,,,,,,,,,,,,,,,,,,,,,,729.5948768000089,27,none,0,,,732.6017604000081,,,,,,,,,,,,,,,,,,,,,,18,B,2024-04-25_14h26.45.972,attentional_competition_task,2022.2.4,144.07830944191855,
positions.xlsx,positions_test.xlsx,positions_test_new.xlsx,stimuli.xlsx,stimuli_new.xlsx,stimuli/Social2.png,stimuli/Social1.png,stimuli/Nonsocial2.png,stimuli/Nonsocial1.png,stimuli/Social4.png,stimuli/Social3.png,stimuli/Nonsocial4.png,stimuli/Nonsocial3.png,cs_pos_ns,"(-0.7, -0.5)",,,,,,,,,0,0,0,0,,,,,,,,,,,,,0,7,7,13,,,,,,,,,,,,,,,,,,,,,,,,,,,,,,,,,,740.2055852000049,30,reward,1,0.7153504000016255,0.7153567999921506,740.9347205000086,,,,,,,,,,,,,,,,,,,,,,18,B,2024-04-25_14h26.45.972,attentional_competition_task,2022.2.4,144.07830944191855,
positions.xlsx,positions_test.xlsx,positions_test_new.xlsx,stimuli.xlsx,stimuli_new.xlsx,stimuli/Social2.png,stimuli/Social1.png,stimuli/Nonsocial2.png,stimuli/Nonsocial1.png,stimuli/Social4.png,stimuli/Social3.png,stimuli/Nonsocial4.png,stimuli/Nonsocial3.png,cs_neg_ns,"(0.7, 0.5)",,,,,,,,,0,0,0,0,,,,,,,,,,,,,0,8,8,10,,,,,,,,,,,,,,,,,,,,,,,,,,,,,,,,,,748.9205389000126,30,none,0,,,751.9343045999995,,,,,,,,,,,,,,,,,,,,,,18,B,2024-04-25_14h26.45.972,attentional_competition_task,2022.2.4,144.07830944191855,
positions.xlsx,positions_test.xlsx,positions_test_new.xlsx,stimuli.xlsx,stimuli_new.xlsx,stimuli/Social2.png,stimuli/Social1.png,stimuli/Nonsocial2.png,stimuli/Nonsocial1.png,stimuli/Social4.png,stimuli/Social3.png,stimuli/Nonsocial4.png,stimuli/Nonsocial3.png,cs_pos_s,"(0.7, 0.5)",,,,,,,,,0,0,0,0,,,,,,,,,,,,,0,9,9,6,,,,,,,,,,,,,,,,,,,,,,,,,,,,,,,,,,759.4756762000034,33,reward,1,0.9583693000022322,0.9583755999919958,760.4409103000071,,,,,,,,,,,,,,,,,,,,,,18,B,2024-04-25_14h26.45.972,attentional_competition_task,2022.2.4,144.07830944191855,
positions.xlsx,positions_test.xlsx,positions_test_new.xlsx,stimuli.xlsx,stimuli_new.xlsx,stimuli/Social2.png,stimuli/Social1.png,stimuli/Nonsocial2.png,stimuli/Nonsocial1.png,stimuli/Social4.png,stimuli/Social3.png,stimuli/Nonsocial4.png,stimuli/Nonsocial3.png,cs_neg_ns,"(-0.7, 0.5)",,,,,,,,,0,0,0,0,,,,,,,,,,,,,0,10,10,8,,,,,,,,,,,,,,,,,,,,,,,,,,,,,,,,,,767.5031266000005,30,loss,1,0.277899000007892,0.2779029000084847,767.7878306000057,,,,,,,,,,,,,,,,,,,,,,18,B,2024-04-25_14h26.45.972,attentional_competition_task,2022.2.4,144.07830944191855,
positions.xlsx,positions_test.xlsx,positions_test_new.xlsx,stimuli.xlsx,stimuli_new.xlsx,stimuli/Social2.png,stimuli/Social1.png,stimuli/Nonsocial2.png,stimuli/Nonsocial1.png,stimuli/Social4.png,stimuli/Social3.png,stimuli/Nonsocial4.png,stimuli/Nonsocial3.png,cs_pos_s,"(0.7, -0.5)",,,,,,,,,0,0,0,0,,,,,,,,,,,,,0,11,11,7,,,,,,,,,,,,,,,,,,,,,,,,,,,,,,,,,,775.9958539000072,33,reward,1,0.9795169999997597,0.9795210000011139,776.9819496000127,,,,,,,,,,,,,,,,,,,,,,18,B,2024-04-25_14h26.45.972,attentional_competition_task,2022.2.4,144.07830944191855,
positions.xlsx,positions_test.xlsx,positions_test_new.xlsx,stimuli.xlsx,stimuli_new.xlsx,stimuli/Social2.png,stimuli/Social1.png,stimuli/Nonsocial2.png,stimuli/Nonsocial1.png,stimuli/Social4.png,stimuli/Social3.png,stimuli/Nonsocial4.png,stimuli/Nonsocial3.png,cs_pos_ns,"(0.7, -0.5)",,,,,,,,,0,0,0,0,,,,,,,,,,,,,0,12,12,15,,,,,,,,,,,,,,,,,,,,,,,,,,,,,,,,,,783.849718700003,36,reward,1,0.5624423999979626,0.5624460999970324,784.4191374000075,,,,,,,,,,,,,,,,,,,,,,18,B,2024-04-25_14h26.45.972,attentional_competition_task,2022.2.4,144.07830944191855,
positions.xlsx,positions_test.xlsx,positions_test_new.xlsx,stimuli.xlsx,stimuli_new.xlsx,stimuli/Social2.png,stimuli/Social1.png,stimuli/Nonsocial2.png,stimuli/Nonsocial1.png,stimuli/Social4.png,stimuli/Social3.png,stimuli/Nonsocial4.png,stimuli/Nonsocial3.png,cs_pos_ns,"(-0.7, 0.5)",,,,,,,,,0,0,0,0,,,,,,,,,,,,,0,13,13,12,,,,,,,,,,,,,,,,,,,,,,,,,,,,,,,,,,791.4535835000133,39,reward,1,0.6321867999940878,0.6321903999923961,792.0924489000026,,,,,,,,,,,,,,,,,,,,,,18,B,2024-04-25_14h26.45.972,attentional_competition_task,2022.2.4,144.07830944191855,
positions.xlsx,positions_test.xlsx,positions_test_new.xlsx,stimuli.xlsx,stimuli_new.xlsx,stimuli/Social2.png,stimuli/Social1.png,stimuli/Nonsocial2.png,stimuli/Nonsocial1.png,stimuli/Social4.png,stimuli/Social3.png,stimuli/Nonsocial4.png,stimuli/Nonsocial3.png,cs_pos_s,"(-0.7, -0.5)",,,,,,,,,0,0,0,0,,,,,,,,,,,,,0,14,14,5,,,,,,,,,,,,,,,,,,,,,,,,,,,,,,,,,,799.5574329000083,42,reward,1,0.528074399990146,0.5280783999915002,800.0921685000067,,,,,,,,,,,,,,,,,,,,,,18,B,2024-04-25_14h26.45.972,attentional_competition_task,2022.2.4,144.07830944191855,
positions.xlsx,positions_test.xlsx,positions_test_new.xlsx,stimuli.xlsx,stimuli_new.xlsx,stimuli/Social2.png,stimuli/Social1.png,stimuli/Nonsocial2.png,stimuli/Nonsocial1.png,stimuli/Social4.png,stimuli/Social3.png,stimuli/Nonsocial4.png,stimuli/Nonsocial3.png,cs_pos_s,"(-0.7, 0.5)",,,,,,,,,0,0,0,0,,,,,,,,,,,,,0,15,15,4,,,,,,,,,,,,,,,,,,,,,,,,,,,,,,,,,,807.9390795000072,45,reward,1,0.6670215000049211,0.6670251000032295,808.6126087000011,,,,,,,,,,,,,,,,,,,,,,18,B,2024-04-25_14h26.45.972,attentional_competition_task,2022.2.4,144.07830944191855,
positions.xlsx,positions_test.xlsx,positions_test_new.xlsx,stimuli.xlsx,stimuli_new.xlsx,stimuli/Social2.png,stimuli/Social1.png,stimuli/Nonsocial2.png,stimuli/Nonsocial1.png,stimuli/Social4.png,stimuli/Social3.png,stimuli/Nonsocial4.png,stimuli/Nonsocial3.png,cs_neg_s,"(-0.7, 0.5)",,,,,,,,,0,0,0,0,,,,,,,,,,,,,1,0,16,0,,,,,,,,,,,,,,,,,,,,,,,,,,,,,,,,,,816.2373111000052,45,none,0,,,819.2510989000002,,,,,,,,,,,,,,,,,,,,,,18,B,2024-04-25_14h26.45.972,attentional_competition_task,2022.2.4,144.07830944191855,
positions.xlsx,positions_test.xlsx,positions_test_new.xlsx,stimuli.xlsx,stimuli_new.xlsx,stimuli/Social2.png,stimuli/Social1.png,stimuli/Nonsocial2.png,stimuli/Nonsocial1.png,stimuli/Social4.png,stimuli/Social3.png,stimuli/Nonsocial4.png,stimuli/Nonsocial3.png,cs_neg_s,"(-0.7, -0.5)",,,,,,,,,0,0,0,0,,,,,,,,,,,,,1,1,17,1,,,,,,,,,,,,,,,,,,,,,,,,,,,,,,,,,,827.3271849000012,45,none,0,,,830.3340329000057,,,,,,,,,,,,,,,,,,,,,,18,B,2024-04-25_14h26.45.972,attentional_competition_task,2022.2.4,144.07830944191855,
positions.xlsx,positions_test.xlsx,positions_test_new.xlsx,stimuli.xlsx,stimuli_new.xlsx,stimuli/Social2.png,stimuli/Social1.png,stimuli/Nonsocial2.png,stimuli/Nonsocial1.png,stimuli/Social4.png,stimuli/Social3.png,stimuli/Nonsocial4.png,stimuli/Nonsocial3.png,cs_pos_ns,"(0.7, -0.5)",,,,,,,,,0,0,0,0,,,,,,,,,,,,,1,2,18,15,,,,,,,,,,,,,,,,,,,,,,,,,,,,,,,,,,837.2434847000113,48,reward,1,0.5559972999908496,0.5560008999891579,837.8059137000091,,,,,,,,,,,,,,,,,,,,,,18,B,2024-04-25_14h26.45.972,attentional_competition_task,2022.2.4,144.07830944191855,
positions.xlsx,positions_test.xlsx,positions_test_new.xlsx,stimuli.xlsx,stimuli_new.xlsx,stimuli/Social2.png,stimuli/Social1.png,stimuli/Nonsocial2.png,stimuli/Nonsocial1.png,stimuli/Social4.png,stimuli/Social3.png,stimuli/Nonsocial4.png,stimuli/Nonsocial3.png,cs_neg_ns,"(0.7, 0.5)",,,,,,,,,0,0,0,0,,,,,,,,,,,,,1,3,19,10,,,,,,,,,,,,,,,,,,,,,,,,,,,,,,,,,,844.9028946000035,48,none,0,,,847.9166736000043,,,,,,,,,,,,,,,,,,,,,,18,B,2024-04-25_14h26.45.972,attentional_competition_task,2022.2.4,144.07830944191855,
positions.xlsx,positions_test.xlsx,positions_test_new.xlsx,stimuli.xlsx,stimuli_new.xlsx,stimuli/Social2.png,stimuli/Social1.png,stimuli/Nonsocial2.png,stimuli/Nonsocial1.png,stimuli/Social4.png,stimuli/Social3.png,stimuli/Nonsocial4.png,stimuli/Nonsocial3.png,cs_neg_ns,"(0.7, -0.5)",,,,,,,,,0,0,0,0,,,,,,,,,,,,,1,4,20,11,,,,,,,,,,,,,,,,,,,,,,,,,,,,,,,,,,855.3677866000071,48,none,0,,,858.3746106000035,,,,,,,,,,,,,,,,,,,,,,18,B,2024-04-25_14h26.45.972,attentional_competition_task,2022.2.4,144.07830944191855,
positions.xlsx,positions_test.xlsx,positions_test_new.xlsx,stimuli.xlsx,stimuli_new.xlsx,stimuli/Social2.png,stimuli/Social1.png,stimuli/Nonsocial2.png,stimuli/Nonsocial1.png,stimuli/Social4.png,stimuli/Social3.png,stimuli/Nonsocial4.png,stimuli/Nonsocial3.png,cs_neg_s,"(0.7, -0.5)",,,,,,,,,0,0,0,0,,,,,,,,,,,,,1,5,21,3,,,,,,,,,,,,,,,,,,,,,,,,,,,,,,,,,,866.200674000007,48,none,0,,,869.207519100004,,,,,,,,,,,,,,,,,,,,,,18,B,2024-04-25_14h26.45.972,attentional_competition_task,2022.2.4,144.07830944191855,
positions.xlsx,positions_test.xlsx,positions_test_new.xlsx,stimuli.xlsx,stimuli_new.xlsx,stimuli/Social2.png,stimuli/Social1.png,stimuli/Nonsocial2.png,stimuli/Nonsocial1.png,stimuli/Social4.png,stimuli/Social3.png,stimuli/Nonsocial4.png,stimuli/Nonsocial3.png,cs_pos_s,"(-0.7, 0.5)",,,,,,,,,0,0,0,0,,,,,,,,,,,,,1,6,22,4,,,,,,,,,,,,,,,,,,,,,,,,,,,,,,,,,,876.6724673000135,51,reward,1,0.7571986999973888,0.7572023999964586,877.4363264999993,,,,,,,,,,,,,,,,,,,,,,18,B,2024-04-25_14h26.45.972,attentional_competition_task,2022.2.4,144.07830944191855,
positions.xlsx,positions_test.xlsx,positions_test_new.xlsx,stimuli.xlsx,stimuli_new.xlsx,stimuli/Social2.png,stimuli/Social1.png,stimuli/Nonsocial2.png,stimuli/Nonsocial1.png,stimuli/Social4.png,stimuli/Social3.png,stimuli/Nonsocial4.png,stimuli/Nonsocial3.png,cs_neg_ns,"(-0.7, 0.5)",,,,,,,,,0,0,0,0,,,,,,,,,,,,,1,7,23,8,,,,,,,,,,,,,,,,,,,,,,,,,,,,,,,,,,884.6443809000048,51,none,0,,,887.6581714000058,,,,,,,,,,,,,,,,,,,,,,18,B,2024-04-25_14h26.45.972,attentional_competition_task,2022.2.4,144.07830944191855,
positions.xlsx,positions_test.xlsx,positions_test_new.xlsx,stimuli.xlsx,stimuli_new.xlsx,stimuli/Social2.png,stimuli/Social1.png,stimuli/Nonsocial2.png,stimuli/Nonsocial1.png,stimuli/Social4.png,stimuli/Social3.png,stimuli/Nonsocial4.png,stimuli/Nonsocial3.png,cs_pos_ns,"(-0.7, 0.5)",,,,,,,,,0,0,0,0,,,,,,,,,,,,,1,8,24,12,,,,,,,,,,,,,,,,,,,,,,,,,,,,,,,,,,895.4009280000028,54,reward,1,0.5904433999967296,0.590454300006968,895.9981648000103,,,,,,,,,,,,,,,,,,,,,,18,B,2024-04-25_14h26.45.972,attentional_competition_task,2022.2.4,144.07830944191855,
positions.xlsx,positions_test.xlsx,positions_test_new.xlsx,stimuli.xlsx,stimuli_new.xlsx,stimuli/Social2.png,stimuli/Social1.png,stimuli/Nonsocial2.png,stimuli/Nonsocial1.png,stimuli/Social4.png,stimuli/Social3.png,stimuli/Nonsocial4.png,stimuli/Nonsocial3.png,cs_neg_s,"(0.7, 0.5)",,,,,,,,,0,0,0,0,,,,,,,,,,,,,1,9,25,2,,,,,,,,,,,,,,,,,,,,,,,,,,,,,,,,,,903.6367178000073,54,none,0,,,906.6435549000016,,,,,,,,,,,,,,,,,,,,,,18,B,2024-04-25_14h26.45.972,attentional_competition_task,2022.2.4,144.07830944191855,
positions.xlsx,positions_test.xlsx,positions_test_new.xlsx,stimuli.xlsx,stimuli_new.xlsx,stimuli/Social2.png,stimuli/Social1.png,stimuli/Nonsocial2.png,stimuli/Nonsocial1.png,stimuli/Social4.png,stimuli/Social3.png,stimuli/Nonsocial4.png,stimuli/Nonsocial3.png,cs_pos_ns,"(0.7, 0.5)",,,,,,,,,0,0,0,0,,,,,,,,,,,,,1,10,26,14,,,,,,,,,,,,,,,,,,,,,,,,,,,,,,,,,,914.3238023000013,57,reward,1,0.4519413999951212,0.45194509999419097,914.7821185000066,,,,,,,,,,,,,,,,,,,,,,18,B,2024-04-25_14h26.45.972,attentional_competition_task,2022.2.4,144.07830944191855,
positions.xlsx,positions_test.xlsx,positions_test_new.xlsx,stimuli.xlsx,stimuli_new.xlsx,stimuli/Social2.png,stimuli/Social1.png,stimuli/Nonsocial2.png,stimuli/Nonsocial1.png,stimuli/Social4.png,stimuli/Social3.png,stimuli/Nonsocial4.png,stimuli/Nonsocial3.png,cs_pos_s,"(0.7, -0.5)",,,,,,,,,0,0,0,0,,,,,,,,,,,,,1,11,27,7,,,,,,,,,,,,,,,,,,,,,,,,,,,,,,,,,,921.490239900013,60,reward,1,0.5836855999950785,0.5836899999994785,922.0804533000046,,,,,,,,,,,,,,,,,,,,,,18,B,2024-04-25_14h26.45.972,attentional_competition_task,2022.2.4,144.07830944191855,
positions.xlsx,positions_test.xlsx,positions_test_new.xlsx,stimuli.xlsx,stimuli_new.xlsx,stimuli/Social2.png,stimuli/Social1.png,stimuli/Nonsocial2.png,stimuli/Nonsocial1.png,stimuli/Social4.png,stimuli/Social3.png,stimuli/Nonsocial4.png,stimuli/Nonsocial3.png,cs_pos_s,"(0.7, 0.5)",,,,,,,,,0,0,0,0,,,,,,,,,,,,,1,12,28,6,,,,,,,,,,,,,,,,,,,,,,,,,,,,,,,,,,928.9620973000128,63,reward,1,0.41731660001096316,0.41732070001307875,929.3857224000094,,,,,,,,,,,,,,,,,,,,,,18,B,2024-04-25_14h26.45.972,attentional_competition_task,2022.2.4,144.07830944191855,
positions.xlsx,positions_test.xlsx,positions_test_new.xlsx,stimuli.xlsx,stimuli_new.xlsx,stimuli/Social2.png,stimuli/Social1.png,stimuli/Nonsocial2.png,stimuli/Nonsocial1.png,stimuli/Social4.png,stimuli/Social3.png,stimuli/Nonsocial4.png,stimuli/Nonsocial3.png,cs_pos_s,"(-0.7, -0.5)",,,,,,,,,0,0,0,0,,,,,,,,,,,,,1,13,29,5,,,,,,,,,,,,,,,,,,,,,,,,,,,,,,,,,,937.0868113000033,66,reward,1,0.4515714000008302,0.4585268999944674,937.5520811000024,,,,,,,,,,,,,,,,,,,,,,18,B,2024-04-25_14h26.45.972,attentional_competition_task,2022.2.4,144.07830944191855,
positions.xlsx,positions_test.xlsx,positions_test_new.xlsx,stimuli.xlsx,stimuli_new.xlsx,stimuli/Social2.png,stimuli/Social1.png,stimuli/Nonsocial2.png,stimuli/Nonsocial1.png,stimuli/Social4.png,stimuli/Social3.png,stimuli/Nonsocial4.png,stimuli/Nonsocial3.png,cs_neg_ns,"(-0.7, -0.5)",,,,,,,,,0,0,0,0,,,,,,,,,,,,,1,14,30,9,,,,,,,,,,,,,,,,,,,,,,,,,,,,,,,,,,945.3087135000096,66,none,0,,,948.3224760000012,,,,,,,,,,,,,,,,,,,,,,18,B,2024-04-25_14h26.45.972,attentional_competition_task,2022.2.4,144.07830944191855,
positions.xlsx,positions_test.xlsx,positions_test_new.xlsx,stimuli.xlsx,stimuli_new.xlsx,stimuli/Social2.png,stimuli/Social1.png,stimuli/Nonsocial2.png,stimuli/Nonsocial1.png,stimuli/Social4.png,stimuli/Social3.png,stimuli/Nonsocial4.png,stimuli/Nonsocial3.png,cs_pos_ns,"(-0.7, -0.5)",,,,,,,,,0,0,0,0,,,,,,,,,,,,,1,15,31,13,,,,,,,,,,,,,,,,,,,,,,,,,,,,,,,,,,955.6068950000044,69,reward,1,0.7646107000036864,0.764614600004279,956.3777440000122,,,,,,,,,,,,,,,,,,,,,,18,B,2024-04-25_14h26.45.972,attentional_competition_task,2022.2.4,144.07830944191855,
positions.xlsx,positions_test.xlsx,positions_test_new.xlsx,stimuli.xlsx,stimuli_new.xlsx,stimuli/Social2.png,stimuli/Social1.png,stimuli/Nonsocial2.png,stimuli/Nonsocial1.png,stimuli/Social4.png,stimuli/Social3.png,stimuli/Nonsocial4.png,stimuli/Nonsocial3.png,cs_neg_s,,,,,,,,,,0,0,0,0,,,,,,,,,,,,,,,,,0,0,0,0,,,,,,,,,,,,,,,,,,,,,,,961.4470075000136,2.0,7.88731460001145,,,,,,,,,,,,,,,,,,,,,,,,,,,,,,,,,18,B,2024-04-25_14h26.45.972,attentional_competition_task,2022.2.4,144.07830944191855,
positions.xlsx,positions_test.xlsx,positions_test_new.xlsx,stimuli.xlsx,stimuli_new.xlsx,stimuli/Social2.png,stimuli/Social1.png,stimuli/Nonsocial2.png,stimuli/Nonsocial1.png,stimuli/Social4.png,stimuli/Social3.png,stimuli/Nonsocial4.png,stimuli/Nonsocial3.png,cs_pos_s,,,,,,,,,,0,0,0,0,,,,,,,,,,,,,,,,,0,1,1,2,,,,,,,,,,,,,,,,,,,,,,,971.3215869000123,3.0,3.6335861000115983,,,,,,,,,,,,,,,,,,,,,,,,,,,,,,,,,18,B,2024-04-25_14h26.45.972,attentional_competition_task,2022.2.4,144.07830944191855,
positions.xlsx,positions_test.xlsx,positions_test_new.xlsx,stimuli.xlsx,stimuli_new.xlsx,stimuli/Social2.png,stimuli/Social1.png,stimuli/Nonsocial2.png,stimuli/Nonsocial1.png,stimuli/Social4.png,stimuli/Social3.png,stimuli/Nonsocial4.png,stimuli/Nonsocial3.png,cs_pos_ns,,,,,,,,,,0,0,0,0,,,,,,,,,,,,,,,,,0,2,2,3,,,,,,,,,,,,,,,,,,,,,,,975.6964363000006,8.0,2.5983127000072272,,,,,,,,,,,,,,,,,,,,,,,,,,,,,,,,,18,B,2024-04-25_14h26.45.972,attentional_competition_task,2022.2.4,144.07830944191855,
positions.xlsx,positions_test.xlsx,positions_test_new.xlsx,stimuli.xlsx,stimuli_new.xlsx,stimuli/Social2.png,stimuli/Social1.png,stimuli/Nonsocial2.png,stimuli/Nonsocial1.png,stimuli/Social4.png,stimuli/Social3.png,stimuli/Nonsocial4.png,stimuli/Nonsocial3.png,cs_neg_ns,,,,,,,,,,0,0,0,0,,,,,,,,,,,,,,,,,0,3,3,1,,,,,,,,,,,,,,,,,,,,,,,978.800484700012,9.0,3.612263899995014,,,,,,,,,,,,,,,,,,,,,,,,,,,,,,,,,18,B,2024-04-25_14h26.45.972,attentional_competition_task,2022.2.4,144.07830944191855,
positions.xlsx,positions_test.xlsx,positions_test_new.xlsx,stimuli.xlsx,stimuli_new.xlsx,stimuli/Social2.png,stimuli/Social1.png,stimuli/Nonsocial2.png,stimuli/Nonsocial1.png,stimuli/Social4.png,stimuli/Social3.png,stimuli/Nonsocial4.png,stimuli/Nonsocial3.png,,,"(-0.7, -0.5)",cs_pos_ns,"(-0.7, 0.5)",cs_pos_s,"(0.7, -0.5)",cs_neg_s,"(0.7, 0.5)",cs_neg_ns,0,0,0,0,,,,,,,,,,,,,,,,,,,,,0,0,0,19,,,,,,,,,,,,,,,,,,,,,,,,,,,72,reward,,,,,982.6545137000066,991.8485800000053,991.8485800000053,991.8485800000053,991.8485800000053,1,0.523043699999107,0.5230471999966539,0,,,0,,,0,,,992.3832566000056,992.3832566000056,992.3832566000056,992.3832566000056,18,B,2024-04-25_14h26.45.972,attentional_competition_task,2022.2.4,144.07830944191855,
positions.xlsx,positions_test.xlsx,positions_test_new.xlsx,stimuli.xlsx,stimuli_new.xlsx,stimuli/Social2.png,stimuli/Social1.png,stimuli/Nonsocial2.png,stimuli/Nonsocial1.png,stimuli/Social4.png,stimuli/Social3.png,stimuli/Nonsocial4.png,stimuli/Nonsocial3.png,,,"(-0.7, -0.5)",cs_neg_s,"(-0.7, 0.5)",cs_pos_s,"(0.7, -0.5)",cs_neg_ns,"(0.7, 0.5)",cs_pos_ns,0,0,0,0,,,,,,,,,,,,,,,,,,,,,0,1,1,0,,,,,,,,,,,,,,,,,,,,,,,,,,,81,reward,,,,,,1000.8065758000012,1000.8065758000012,1000.8065758000012,1000.8065758000012,0,,,0,,,0,,,0,,,1001.4940434000018,1001.4940434000018,1001.4940434000018,1001.4940434000018,18,B,2024-04-25_14h26.45.972,attentional_competition_task,2022.2.4,144.07830944191855,
positions.xlsx,positions_test.xlsx,positions_test_new.xlsx,stimuli.xlsx,stimuli_new.xlsx,stimuli/Social2.png,stimuli/Social1.png,stimuli/Nonsocial2.png,stimuli/Nonsocial1.png,stimuli/Social4.png,stimuli/Social3.png,stimuli/Nonsocial4.png,stimuli/Nonsocial3.png,,,"(-0.7, -0.5)",cs_pos_ns,"(-0.7, 0.5)",cs_neg_ns,"(0.7, -0.5)",cs_pos_s,"(0.7, 0.5)",cs_neg_s,0,0,0,0,,,,,,,,,,,,,,,,,,,,,0,2,2,20,,,,,,,,,,,,,,,,,,,,,,,,,,,75,loss,,,,,,1008.5076647000096,1008.5076647000096,1008.5076647000096,1008.5076647000096,0,,,0,,,0,,,0,,,1009.8132007000095,1009.8132007000095,1009.8132007000095,1009.8132007000095,18,B,2024-04-25_14h26.45.972,attentional_competition_task,2022.2.4,144.07830944191855,
positions.xlsx,positions_test.xlsx,positions_test_new.xlsx,stimuli.xlsx,stimuli_new.xlsx,stimuli/Social2.png,stimuli/Social1.png,stimuli/Nonsocial2.png,stimuli/Nonsocial1.png,stimuli/Social4.png,stimuli/Social3.png,stimuli/Nonsocial4.png,stimuli/Nonsocial3.png,,,"(-0.7, -0.5)",cs_pos_s,"(-0.7, 0.5)",cs_neg_s,"(0.7, -0.5)",cs_pos_ns,"(0.7, 0.5)",cs_neg_ns,0,0,0,0,,,,,,,,,,,,,,,,,,,,,0,3,3,7,,,,,,,,,,,,,,,,,,,,,,,,,,,78,reward,,,,,,1017.8546013000014,1017.8546013000014,1017.8546013000014,1017.8546013000014,1,0.028149899997515604,0.028153699997346848,0,,,0,,,0,,,1017.8546013000014,1017.8546013000014,1017.8546013000014,1017.8546013000014,18,B,2024-04-25_14h26.45.972,attentional_competition_task,2022.2.4,144.07830944191855,
positions.xlsx,positions_test.xlsx,positions_test_new.xlsx,stimuli.xlsx,stimuli_new.xlsx,stimuli/Social2.png,stimuli/Social1.png,stimuli/Nonsocial2.png,stimuli/Nonsocial1.png,stimuli/Social4.png,stimuli/Social3.png,stimuli/Nonsocial4.png,stimuli/Nonsocial3.png,,,"(-0.7, -0.5)",cs_neg_s,"(-0.7, 0.5)",cs_pos_s,"(0.7, -0.5)",cs_pos_ns,"(0.7, 0.5)",cs_neg_ns,0,0,0,0,,,,,,,,,,,,,,,,,,,,,0,4,4,1,,,,,,,,,,,,,,,,,,,,,,,,,,,87,reward,,,,,,1026.5347069000127,1026.5347069000127,1026.5347069000127,1026.5347069000127,0,,,0,,,0,,,0,,,1027.381933200013,1027.381933200013,1027.381933200013,1027.381933200013,18,B,2024-04-25_14h26.45.972,attentional_competition_task,2022.2.4,144.07830944191855,
positions.xlsx,positions_test.xlsx,positions_test_new.xlsx,stimuli.xlsx,stimuli_new.xlsx,stimuli/Social2.png,stimuli/Social1.png,stimuli/Nonsocial2.png,stimuli/Nonsocial1.png,stimuli/Social4.png,stimuli/Social3.png,stimuli/Nonsocial4.png,stimuli/Nonsocial3.png,,,"(-0.7, -0.5)",cs_neg_ns,"(-0.7, 0.5)",cs_pos_ns,"(0.7, -0.5)",cs_neg_s,"(0.7, 0.5)",cs_pos_s,0,0,0,0,,,,,,,,,,,,,,,,,,,,,0,5,5,17,,,,,,,,,,,,,,,,,,,,,,,,,,,96,reward,,,,,,1035.2149543000123,1035.2149543000123,1035.2149543000123,1035.2149543000123,0,,,0,,,0,,,0,,,1036.2635226999992,1036.2635226999992,1036.2635226999992,1036.2635226999992,18,B,2024-04-25_14h26.45.972,attentional_competition_task,2022.2.4,144.07830944191855,
positions.xlsx,positions_test.xlsx,positions_test_new.xlsx,stimuli.xlsx,stimuli_new.xlsx,stimuli/Social2.png,stimuli/Social1.png,stimuli/Nonsocial2.png,stimuli/Nonsocial1.png,stimuli/Social4.png,stimuli/Social3.png,stimuli/Nonsocial4.png,stimuli/Nonsocial3.png,,,"(-0.7, -0.5)",cs_neg_s,"(-0.7, 0.5)",cs_pos_ns,"(0.7, -0.5)",cs_neg_ns,"(0.7, 0.5)",cs_pos_s,0,0,0,0,,,,,,,,,,,,,,,,,,,,,0,6,6,5,,,,,,,,,,,,,,,,,,,,,,,,,,,99,loss,,,,,,1043.693788100005,1043.693788100005,1043.693788100005,1043.693788100005,0,,,0,,,1,0.0288425000035204,0.028846500004874542,0,,,1043.693788100005,1043.693788100005,1043.693788100005,1043.693788100005,18,B,2024-04-25_14h26.45.972,attentional_competition_task,2022.2.4,144.07830944191855,
positions.xlsx,positions_test.xlsx,positions_test_new.xlsx,stimuli.xlsx,stimuli_new.xlsx,stimuli/Social2.png,stimuli/Social1.png,stimuli/Nonsocial2.png,stimuli/Nonsocial1.png,stimuli/Social4.png,stimuli/Social3.png,stimuli/Nonsocial4.png,stimuli/Nonsocial3.png,,,"(-0.7, -0.5)",cs_neg_ns,"(-0.7, 0.5)",cs_pos_s,"(0.7, -0.5)",cs_pos_ns,"(0.7, 0.5)",cs_neg_s,0,0,0,0,,,,,,,,,,,,,,,,,,,,,0,7,7,13,,,,,,,,,,,,,,,,,,,,,,,,,,,108,reward,,,,,,1051.9434479000047,1051.9434479000047,1051.9434479000047,1051.9434479000047,0,,,0,,,1,0.02337650000117719,0.07945469999685884,0,,,1052.7629106000095,1052.7629106000095,1052.7629106000095,1052.7629106000095,18,B,2024-04-25_14h26.45.972,attentional_competition_task,2022.2.4,144.07830944191855,
positions.xlsx,positions_test.xlsx,positions_test_new.xlsx,stimuli.xlsx,stimuli_new.xlsx,stimuli/Social2.png,stimuli/Social1.png,stimuli/Nonsocial2.png,stimuli/Nonsocial1.png,stimuli/Social4.png,stimuli/Social3.png,stimuli/Nonsocial4.png,stimuli/Nonsocial3.png,,,"(-0.7, -0.5)",cs_pos_s,"(-0.7, 0.5)",cs_neg_s,"(0.7, -0.5)",cs_neg_ns,"(0.7, 0.5)",cs_pos_ns,0,0,0,0,,,,,,,,,,,,,,,,,,,,,0,8,8,6,,,,,,,,,,,,,,,,,,,,,,,,,,,117,reward,,,,,,1060.4708885,1060.4708885,1060.4708885,1060.4708885,0,,,0,,,0,,,0,,,1061.3667493000103,1061.3667493000103,1061.3667493000103,1061.3667493000103,18,B,2024-04-25_14h26.45.972,attentional_competition_task,2022.2.4,144.07830944191855,
positions.xlsx,positions_test.xlsx,positions_test_new.xlsx,stimuli.xlsx,stimuli_new.xlsx,stimuli/Social2.png,stimuli/Social1.png,stimuli/Nonsocial2.png,stimuli/Nonsocial1.png,stimuli/Social4.png,stimuli/Social3.png,stimuli/Nonsocial4.png,stimuli/Nonsocial3.png,,,"(-0.7, -0.5)",cs_neg_ns,"(-0.7, 0.5)",cs_pos_s,"(0.7, -0.5)",cs_neg_s,"(0.7, 0.5)",cs_pos_ns,0,0,0,0,,,,,,,,,,,,,,,,,,,,,0,9,9,12,,,,,,,,,,,,,,,,,,,,,,,,,,,126,reward,,,,,,1069.4080807000137,1069.4080807000137,1069.4080807000137,1069.4080807000137,0,,,0,,,0,,,0,,,1070.1996971000044,1070.1996971000044,1070.1996971000044,1070.1996971000044,18,B,2024-04-25_14h26.45.972,attentional_competition_task,2022.2.4,144.07830944191855,
positions.xlsx,positions_test.xlsx,positions_test_new.xlsx,stimuli.xlsx,stimuli_new.xlsx,stimuli/Social2.png,stimuli/Social1.png,stimuli/Nonsocial2.png,stimuli/Nonsocial1.png,stimuli/Social4.png,stimuli/Social3.png,stimuli/Nonsocial4.png,stimuli/Nonsocial3.png,,,"(-0.7, -0.5)",cs_pos_s,"(-0.7, 0.5)",cs_neg_ns,"(0.7, -0.5)",cs_pos_ns,"(0.7, 0.5)",cs_neg_s,0,0,0,0,,,,,,,,,,,,,,,,,,,,,0,10,10,9,,,,,,,,,,,,,,,,,,,,,,,,,,,123,loss,,,,,,1078.6090984000039,1078.6090984000039,1078.6090984000039,1078.6090984000039,0,,,1,0.23444089999247808,0.23444479999307077,0,,,0,,,1079.3590748000133,1079.3590748000133,1079.3590748000133,1079.3590748000133,18,B,2024-04-25_14h26.45.972,attentional_competition_task,2022.2.4,144.07830944191855,
positions.xlsx,positions_test.xlsx,positions_test_new.xlsx,stimuli.xlsx,stimuli_new.xlsx,stimuli/Social2.png,stimuli/Social1.png,stimuli/Nonsocial2.png,stimuli/Nonsocial1.png,stimuli/Social4.png,stimuli/Social3.png,stimuli/Nonsocial4.png,stimuli/Nonsocial3.png,,,"(-0.7, -0.5)",cs_neg_ns,"(-0.7, 0.5)",cs_neg_s,"(0.7, -0.5)",cs_pos_s,"(0.7, 0.5)",cs_pos_ns,0,0,0,0,,,,,,,,,,,,,,,,,,,,,0,11,11,14,,,,,,,,,,,,,,,,,,,,,,,,,,,126,reward,,,,,,1087.636537600003,1087.636537600003,1087.636537600003,1087.636537600003,0,,,0,,,0,,,1,0.029213899993919767,0.029217699993751012,1087.636537600003,1087.636537600003,1087.636537600003,1087.636537600003,18,B,2024-04-25_14h26.45.972,attentional_competition_task,2022.2.4,144.07830944191855,
positions.xlsx,positions_test.xlsx,positions_test_new.xlsx,stimuli.xlsx,stimuli_new.xlsx,stimuli/Social2.png,stimuli/Social1.png,stimuli/Nonsocial2.png,stimuli/Nonsocial1.png,stimuli/Social4.png,stimuli/Social3.png,stimuli/Nonsocial4.png,stimuli/Nonsocial3.png,,,"(-0.7, -0.5)",cs_pos_ns,"(-0.7, 0.5)",cs_neg_s,"(0.7, -0.5)",cs_pos_s,"(0.7, 0.5)",cs_neg_ns,0,0,0,0,,,,,,,,,,,,,,,,,,,,,0,12,12,22,,,,,,,,,,,,,,,,,,,,,,,,,,,135,reward,,,,,,1096.7889009000064,1096.7889009000064,1096.7889009000064,1096.7889009000064,1,0.02992689999518916,0.057664599997224286,0,,,0,,,0,,,1097.5736672000057,1097.5736672000057,1097.5736672000057,1097.5736672000057,18,B,2024-04-25_14h26.45.972,attentional_competition_task,2022.2.4,144.07830944191855,
positions.xlsx,positions_test.xlsx,positions_test_new.xlsx,stimuli.xlsx,stimuli_new.xlsx,stimuli/Social2.png,stimuli/Social1.png,stimuli/Nonsocial2.png,stimuli/Nonsocial1.png,stimuli/Social4.png,stimuli/Social3.png,stimuli/Nonsocial4.png,stimuli/Nonsocial3.png,,,"(-0.7, -0.5)",cs_neg_s,"(-0.7, 0.5)",cs_neg_ns,"(0.7, -0.5)",cs_pos_s,"(0.7, 0.5)",cs_pos_ns,0,0,0,0,,,,,,,,,,,,,,,,,,,,,0,13,13,2,,,,,,,,,,,,,,,,,,,,,,,,,,,144,reward,,,,,,1105.4691140000068,1105.4691140000068,1105.4691140000068,1105.4691140000068,0,,,0,,,0,,,0,,,1106.1427582000033,1106.1427582000033,1106.1427582000033,1106.1427582000033,18,B,2024-04-25_14h26.45.972,attentional_competition_task,2022.2.4,144.07830944191855,
positions.xlsx,positions_test.xlsx,positions_test_new.xlsx,stimuli.xlsx,stimuli_new.xlsx,stimuli/Social2.png,stimuli/Social1.png,stimuli/Nonsocial2.png,stimuli/Nonsocial1.png,stimuli/Social4.png,stimuli/Social3.png,stimuli/Nonsocial4.png,stimuli/Nonsocial3.png,,,"(-0.7, -0.5)",cs_pos_s,"(-0.7, 0.5)",cs_pos_ns,"(0.7, -0.5)",cs_neg_s,"(0.7, 0.5)",cs_neg_ns,0,0,0,0,,,,,,,,,,,,,,,,,,,,,0,14,14,10,,,,,,,,,,,,,,,,,,,,,,,,,,,147,reward,,,,,,1114.0591252000013,1114.0591252000013,1114.0591252000013,1114.0591252000013,0,,,1,0.028804299989133142,0.028808099988964386,0,,,0,,,1114.0591252000013,1114.0591252000013,1114.0591252000013,1114.0591252000013,18,B,2024-04-25_14h26.45.972,attentional_competition_task,2022.2.4,144.07830944191855,
positions.xlsx,positions_test.xlsx,positions_test_new.xlsx,stimuli.xlsx,stimuli_new.xlsx,stimuli/Social2.png,stimuli/Social1.png,stimuli/Nonsocial2.png,stimuli/Nonsocial1.png,stimuli/Social4.png,stimuli/Social3.png,stimuli/Nonsocial4.png,stimuli/Nonsocial3.png,,,"(-0.7, -0.5)",cs_pos_ns,"(-0.7, 0.5)",cs_neg_s,"(0.7, -0.5)",cs_neg_ns,"(0.7, 0.5)",cs_pos_s,0,0,0,0,,,,,,,,,,,,,,,,,,,,,0,15,15,23,,,,,,,,,,,,,,,,,,,,,,,,,,,150,reward,,,,,,1123.8504185000056,1123.8504185000056,1123.8504185000056,1123.8504185000056,0,,,0,,,0,,,0,,,1123.8504185000056,1123.8504185000056,1123.8504185000056,1123.8504185000056,18,B,2024-04-25_14h26.45.972,attentional_competition_task,2022.2.4,144.07830944191855,
positions.xlsx,positions_test.xlsx,positions_test_new.xlsx,stimuli.xlsx,stimuli_new.xlsx,stimuli/Social2.png,stimuli/Social1.png,stimuli/Nonsocial2.png,stimuli/Nonsocial1.png,stimuli/Social4.png,stimuli/Social3.png,stimuli/Nonsocial4.png,stimuli/Nonsocial3.png,,,"(-0.7, -0.5)",cs_neg_s,"(-0.7, 0.5)",cs_neg_ns,"(0.7, -0.5)",cs_pos_ns,"(0.7, 0.5)",cs_pos_s,0,0,0,0,,,,,,,,,,,,,,,,,,,,,0,16,16,3,,,,,,,,,,,,,,,,,,,,,,,,,,,159,reward,,,,,,1131.6625937000063,1131.6625937000063,1131.6625937000063,1131.6625937000063,0,,,0,,,0,,,0,,,1132.4264563000033,1132.4264563000033,1132.4264563000033,1132.4264563000033,18,B,2024-04-25_14h26.45.972,attentional_competition_task,2022.2.4,144.07830944191855,
positions.xlsx,positions_test.xlsx,positions_test_new.xlsx,stimuli.xlsx,stimuli_new.xlsx,stimuli/Social2.png,stimuli/Social1.png,stimuli/Nonsocial2.png,stimuli/Nonsocial1.png,stimuli/Social4.png,stimuli/Social3.png,stimuli/Nonsocial4.png,stimuli/Nonsocial3.png,,,"(-0.7, -0.5)",cs_neg_ns,"(-0.7, 0.5)",cs_pos_ns,"(0.7, -0.5)",cs_pos_s,"(0.7, 0.5)",cs_neg_s,0,0,0,0,,,,,,,,,,,,,,,,,,,,,0,17,17,16,,,,,,,,,,,,,,,,,,,,,,,,,,,162,loss,,,,,,1139.4469998000131,1139.4469998000131,1139.4469998000131,1139.4469998000131,1,0.1707964999950491,0.17080039999564178,0,,,0,,,0,,,1140.127555500003,1140.127555500003,1140.127555500003,1140.127555500003,18,B,2024-04-25_14h26.45.972,attentional_competition_task,2022.2.4,144.07830944191855,
positions.xlsx,positions_test.xlsx,positions_test_new.xlsx,stimuli.xlsx,stimuli_new.xlsx,stimuli/Social2.png,stimuli/Social1.png,stimuli/Nonsocial2.png,stimuli/Nonsocial1.png,stimuli/Social4.png,stimuli/Social3.png,stimuli/Nonsocial4.png,stimuli/Nonsocial3.png,,,"(-0.7, -0.5)",cs_neg_s,"(-0.7, 0.5)",cs_pos_ns,"(0.7, -0.5)",cs_pos_s,"(0.7, 0.5)",cs_neg_ns,0,0,0,0,,,,,,,,,,,,,,,,,,,,,0,18,18,4,,,,,,,,,,,,,,,,,,,,,,,,,,,165,loss,,,,,,1148.3702397000015,1148.3702397000015,1148.3702397000015,1148.3702397000015,0,,,0,,,0,,,0,,,1148.64800690001,1148.64800690001,1148.64800690001,1148.64800690001,18,B,2024-04-25_14h26.45.972,attentional_competition_task,2022.2.4,144.07830944191855,
positions.xlsx,positions_test.xlsx,positions_test_new.xlsx,stimuli.xlsx,stimuli_new.xlsx,stimuli/Social2.png,stimuli/Social1.png,stimuli/Nonsocial2.png,stimuli/Nonsocial1.png,stimuli/Social4.png,stimuli/Social3.png,stimuli/Nonsocial4.png,stimuli/Nonsocial3.png,,,"(-0.7, -0.5)",cs_pos_s,"(-0.7, 0.5)",cs_pos_ns,"(0.7, -0.5)",cs_neg_ns,"(0.7, 0.5)",cs_neg_s,0,0,0,0,,,,,,,,,,,,,,,,,,,,,0,19,19,11,,,,,,,,,,,,,,,,,,,,,,,,,,,174,reward,,,,,,1156.7102100000047,1156.7102100000047,1156.7102100000047,1156.7102100000047,0,,,0,,,0,,,0,,,1157.5713030000043,1157.5713030000043,1157.5713030000043,1157.5713030000043,18,B,2024-04-25_14h26.45.972,attentional_competition_task,2022.2.4,144.07830944191855,
positions.xlsx,positions_test.xlsx,positions_test_new.xlsx,stimuli.xlsx,stimuli_new.xlsx,stimuli/Social2.png,stimuli/Social1.png,stimuli/Nonsocial2.png,stimuli/Nonsocial1.png,stimuli/Social4.png,stimuli/Social3.png,stimuli/Nonsocial4.png,stimuli/Nonsocial3.png,,,"(-0.7, -0.5)",cs_pos_ns,"(-0.7, 0.5)",cs_neg_ns,"(0.7, -0.5)",cs_neg_s,"(0.7, 0.5)",cs_pos_s,0,0,0,0,,,,,,,,,,,,,,,,,,,,,0,20,20,21,,,,,,,,,,,,,,,,,,,,,,,,,,,177,reward,,,,,,1165.2098366999999,1165.2098366999999,1165.2098366999999,1165.2098366999999,1,0.022475899997516535,0.02247979999810923,0,,,0,,,0,,,1165.2098366999999,1165.2098366999999,1165.2098366999999,1165.2098366999999,18,B,2024-04-25_14h26.45.972,attentional_competition_task,2022.2.4,144.07830944191855,
positions.xlsx,positions_test.xlsx,positions_test_new.xlsx,stimuli.xlsx,stimuli_new.xlsx,stimuli/Social2.png,stimuli/Social1.png,stimuli/Nonsocial2.png,stimuli/Nonsocial1.png,stimuli/Social4.png,stimuli/Social3.png,stimuli/Nonsocial4.png,stimuli/Nonsocial3.png,,,"(-0.7, -0.5)",cs_pos_s,"(-0.7, 0.5)",cs_neg_ns,"(0.7, -0.5)",cs_neg_s,"(0.7, 0.5)",cs_pos_ns,0,0,0,0,,,,,,,,,,,,,,,,,,,,,0,21,21,8,,,,,,,,,,,,,,,,,,,,,,,,,,,186,reward,,,,,,1174.265089700013,1174.265089700013,1174.265089700013,1174.265089700013,0,,,0,,,0,,,0,,,1175.2025629000127,1175.2025629000127,1175.2025629000127,1175.2025629000127,18,B,2024-04-25_14h26.45.972,attentional_competition_task,2022.2.4,144.07830944191855,
positions.xlsx,positions_test.xlsx,positions_test_new.xlsx,stimuli.xlsx,stimuli_new.xlsx,stimuli/Social2.png,stimuli/Social1.png,stimuli/Nonsocial2.png,stimuli/Nonsocial1.png,stimuli/Social4.png,stimuli/Social3.png,stimuli/Nonsocial4.png,stimuli/Nonsocial3.png,,,"(-0.7, -0.5)",cs_neg_ns,"(-0.7, 0.5)",cs_neg_s,"(0.7, -0.5)",cs_pos_ns,"(0.7, 0.5)",cs_pos_s,0,0,0,0,,,,,,,,,,,,,,,,,,,,,0,22,22,15,,,,,,,,,,,,,,,,,,,,,,,,,,,195,reward,,,,,,1182.556465200003,1182.556465200003,1182.556465200003,1182.556465200003,0,,,0,,,0,,,0,,,1183.5216551000049,1183.5216551000049,1183.5216551000049,1183.5216551000049,18,B,2024-04-25_14h26.45.972,attentional_competition_task,2022.2.4,144.07830944191855,
positions.xlsx,positions_test.xlsx,positions_test_new.xlsx,stimuli.xlsx,stimuli_new.xlsx,stimuli/Social2.png,stimuli/Social1.png,stimuli/Nonsocial2.png,stimuli/Nonsocial1.png,stimuli/Social4.png,stimuli/Social3.png,stimuli/Nonsocial4.png,stimuli/Nonsocial3.png,,,"(-0.7, -0.5)",cs_pos_ns,"(-0.7, 0.5)",cs_pos_s,"(0.7, -0.5)",cs_neg_ns,"(0.7, 0.5)",cs_neg_s,0,0,0,0,,,,,,,,,,,,,,,,,,,,,0,23,23,18,,,,,,,,,,,,,,,,,,,,,,,,,,,204,reward,,,,,,1190.7852529000083,1190.7852529000083,1190.7852529000083,1190.7852529000083,1,0.09120450000045821,0.09849870001198724,0,,,0,,,0,,,1191.792191200002,1191.792191200002,1191.792191200002,1191.792191200002,18,B,2024-04-25_14h26.45.972,attentional_competition_task,2022.2.4,144.07830944191855,
positions.xlsx,positions_test.xlsx,positions_test_new.xlsx,stimuli.xlsx,stimuli_new.xlsx,stimuli/Social2.png,stimuli/Social1.png,stimuli/Nonsocial2.png,stimuli/Nonsocial1.png,stimuli/Social4.png,stimuli/Social3.png,stimuli/Nonsocial4.png,stimuli/Nonsocial3.png,,,"(-0.7, -0.5)",cs_neg_s,"(-0.7, 0.5)",cs_pos_ns,"(0.7, -0.5)",cs_neg_ns,"(0.7, 0.5)",cs_pos_s,0,0,0,0,,,,,,,,,,,,,,,,,,,,,1,0,24,5,,,,,,,,,,,,,,,,,,,,,,,,,,,207,reward,,,,,,1199.9099272000021,1199.9099272000021,1199.9099272000021,1199.9099272000021,0,,,1,0.06634740000299644,0.06635120000282768,0,,,0,,,1199.986294900009,1199.986294900009,1199.986294900009,1199.986294900009,18,B,2024-04-25_14h26.45.972,attentional_competition_task,2022.2.4,144.07830944191855,
positions.xlsx,positions_test.xlsx,positions_test_new.xlsx,stimuli.xlsx,stimuli_new.xlsx,stimuli/Social2.png,stimuli/Social1.png,stimuli/Nonsocial2.png,stimuli/Nonsocial1.png,stimuli/Social4.png,stimuli/Social3.png,stimuli/Nonsocial4.png,stimuli/Nonsocial3.png,,,"(-0.7, -0.5)",cs_neg_s,"(-0.7, 0.5)",cs_pos_s,"(0.7, -0.5)",cs_pos_ns,"(0.7, 0.5)",cs_neg_ns,0,0,0,0,,,,,,,,,,,,,,,,,,,,,1,1,25,1,,,,,,,,,,,,,,,,,,,,,,,,,,,216,reward,,,,,,1208.9512465000007,1208.9512465000007,1208.9512465000007,1208.9512465000007,0,,,0,,,0,,,0,,,1209.9512118999992,1209.9512118999992,1209.9512118999992,1209.9512118999992,18,B,2024-04-25_14h26.45.972,attentional_competition_task,2022.2.4,144.07830944191855,
positions.xlsx,positions_test.xlsx,positions_test_new.xlsx,stimuli.xlsx,stimuli_new.xlsx,stimuli/Social2.png,stimuli/Social1.png,stimuli/Nonsocial2.png,stimuli/Nonsocial1.png,stimuli/Social4.png,stimuli/Social3.png,stimuli/Nonsocial4.png,stimuli/Nonsocial3.png,,,"(-0.7, -0.5)",cs_pos_s,"(-0.7, 0.5)",cs_neg_s,"(0.7, -0.5)",cs_pos_ns,"(0.7, 0.5)",cs_neg_ns,0,0,0,0,,,,,,,,,,,,,,,,,,,,,1,2,26,7,,,,,,,,,,,,,,,,,,,,,,,,,,,225,reward,,,,,,1217.9647828000016,1217.9647828000016,1217.9647828000016,1217.9647828000016,1,0.18357379999361,0.18961119999585208,0,,,0,,,0,,,1218.7078083000088,1218.7078083000088,1218.7078083000088,1218.7078083000088,18,B,2024-04-25_14h26.45.972,attentional_competition_task,2022.2.4,144.07830944191855,
positions.xlsx,positions_test.xlsx,positions_test_new.xlsx,stimuli.xlsx,stimuli_new.xlsx,stimuli/Social2.png,stimuli/Social1.png,stimuli/Nonsocial2.png,stimuli/Nonsocial1.png,stimuli/Social4.png,stimuli/Social3.png,stimuli/Nonsocial4.png,stimuli/Nonsocial3.png,,,"(-0.7, -0.5)",cs_pos_s,"(-0.7, 0.5)",cs_neg_s,"(0.7, -0.5)",cs_neg_ns,"(0.7, 0.5)",cs_pos_ns,0,0,0,0,,,,,,,,,,,,,,,,,,,,,1,3,27,6,,,,,,,,,,,,,,,,,,,,,,,,,,,234,reward,,,,,,1225.9436126000073,1225.9436126000073,1225.9436126000073,1225.9436126000073,0,,,0,,,0,,,0,,,1226.9505388000107,1226.9505388000107,1226.9505388000107,1226.9505388000107,18,B,2024-04-25_14h26.45.972,attentional_competition_task,2022.2.4,144.07830944191855,
positions.xlsx,positions_test.xlsx,positions_test_new.xlsx,stimuli.xlsx,stimuli_new.xlsx,stimuli/Social2.png,stimuli/Social1.png,stimuli/Nonsocial2.png,stimuli/Nonsocial1.png,stimuli/Social4.png,stimuli/Social3.png,stimuli/Nonsocial4.png,stimuli/Nonsocial3.png,,,"(-0.7, -0.5)",cs_pos_ns,"(-0.7, 0.5)",cs_neg_s,"(0.7, -0.5)",cs_neg_ns,"(0.7, 0.5)",cs_pos_s,0,0,0,0,,,,,,,,,,,,,,,,,,,,,1,4,28,23,,,,,,,,,,,,,,,,,,,,,,,,,,,243,reward,,,,,,1234.616899200002,1234.616899200002,1234.616899200002,1234.616899200002,0,,,0,,,0,,,0,,,1235.575205800007,1235.575205800007,1235.575205800007,1235.575205800007,18,B,2024-04-25_14h26.45.972,attentional_competition_task,2022.2.4,144.07830944191855,
positions.xlsx,positions_test.xlsx,positions_test_new.xlsx,stimuli.xlsx,stimuli_new.xlsx,stimuli/Social2.png,stimuli/Social1.png,stimuli/Nonsocial2.png,stimuli/Nonsocial1.png,stimuli/Social4.png,stimuli/Social3.png,stimuli/Nonsocial4.png,stimuli/Nonsocial3.png,,,"(-0.7, -0.5)",cs_pos_s,"(-0.7, 0.5)",cs_neg_ns,"(0.7, -0.5)",cs_pos_ns,"(0.7, 0.5)",cs_neg_s,0,0,0,0,,,,,,,,,,,,,,,,,,,,,1,5,29,9,,,,,,,,,,,,,,,,,,,,,,,,,,,252,reward,,,,,,1243.2832328000077,1243.2832328000077,1243.2832328000077,1243.2832328000077,0,,,0,,,0,,,0,,,1244.2276686000114,1244.2276686000114,1244.2276686000114,1244.2276686000114,18,B,2024-04-25_14h26.45.972,attentional_competition_task,2022.2.4,144.07830944191855,
positions.xlsx,positions_test.xlsx,positions_test_new.xlsx,stimuli.xlsx,stimuli_new.xlsx,stimuli/Social2.png,stimuli/Social1.png,stimuli/Nonsocial2.png,stimuli/Nonsocial1.png,stimuli/Social4.png,stimuli/Social3.png,stimuli/Nonsocial4.png,stimuli/Nonsocial3.png,,,"(-0.7, -0.5)",cs_pos_ns,"(-0.7, 0.5)",cs_pos_s,"(0.7, -0.5)",cs_neg_s,"(0.7, 0.5)",cs_neg_ns,0,0,0,0,,,,,,,,,,,,,,,,,,,,,1,6,30,19,,,,,,,,,,,,,,,,,,,,,,,,,,,261,reward,,,,,,1251.4634656000126,1251.4634656000126,1251.4634656000126,1251.4634656000126,0,,,0,,,0,,,0,,,1252.4287151000026,1252.4287151000026,1252.4287151000026,1252.4287151000026,18,B,2024-04-25_14h26.45.972,attentional_competition_task,2022.2.4,144.07830944191855,
positions.xlsx,positions_test.xlsx,positions_test_new.xlsx,stimuli.xlsx,stimuli_new.xlsx,stimuli/Social2.png,stimuli/Social1.png,stimuli/Nonsocial2.png,stimuli/Nonsocial1.png,stimuli/Social4.png,stimuli/Social3.png,stimuli/Nonsocial4.png,stimuli/Nonsocial3.png,,,"(-0.7, -0.5)",cs_pos_ns,"(-0.7, 0.5)",cs_neg_ns,"(0.7, -0.5)",cs_pos_s,"(0.7, 0.5)",cs_neg_s,0,0,0,0,,,,,,,,,,,,,,,,,,,,,1,7,31,20,,,,,,,,,,,,,,,,,,,,,,,,,,,264,reward,,,,,,1258.8867924000078,1258.8867924000078,1258.8867924000078,1258.8867924000078,0,,,0,,,1,1.5021553999977186,1.5021586999937426,0,,,1260.400626200004,1260.400626200004,1260.400626200004,1260.400626200004,18,B,2024-04-25_14h26.45.972,attentional_competition_task,2022.2.4,144.07830944191855,
positions.xlsx,positions_test.xlsx,positions_test_new.xlsx,stimuli.xlsx,stimuli_new.xlsx,stimuli/Social2.png,stimuli/Social1.png,stimuli/Nonsocial2.png,stimuli/Nonsocial1.png,stimuli/Social4.png,stimuli/Social3.png,stimuli/Nonsocial4.png,stimuli/Nonsocial3.png,,,"(-0.7, -0.5)",cs_neg_ns,"(-0.7, 0.5)",cs_neg_s,"(0.7, -0.5)",cs_pos_s,"(0.7, 0.5)",cs_pos_ns,0,0,0,0,,,,,,,,,,,,,,,,,,,,,1,8,32,14,,,,,,,,,,,,,,,,,,,,,,,,,,,273,reward,,,,,,1268.9002852000121,1268.9002852000121,1268.9002852000121,1268.9002852000121,0,,,0,,,0,,,0,,,1269.8585833000107,1269.8585833000107,1269.8585833000107,1269.8585833000107,18,B,2024-04-25_14h26.45.972,attentional_competition_task,2022.2.4,144.07830944191855,
positions.xlsx,positions_test.xlsx,positions_test_new.xlsx,stimuli.xlsx,stimuli_new.xlsx,stimuli/Social2.png,stimuli/Social1.png,stimuli/Nonsocial2.png,stimuli/Nonsocial1.png,stimuli/Social4.png,stimuli/Social3.png,stimuli/Nonsocial4.png,stimuli/Nonsocial3.png,,,"(-0.7, -0.5)",cs_neg_ns,"(-0.7, 0.5)",cs_pos_s,"(0.7, -0.5)",cs_neg_s,"(0.7, 0.5)",cs_pos_ns,0,0,0,0,,,,,,,,,,,,,,,,,,,,,1,9,33,12,,,,,,,,,,,,,,,,,,,,,,,,,,,282,reward,,,,,,1278.420741000009,1278.420741000009,1278.420741000009,1278.420741000009,0,,,0,,,0,,,0,,,1279.351282100004,1279.351282100004,1279.351282100004,1279.351282100004,18,B,2024-04-25_14h26.45.972,attentional_competition_task,2022.2.4,144.07830944191855,
positions.xlsx,positions_test.xlsx,positions_test_new.xlsx,stimuli.xlsx,stimuli_new.xlsx,stimuli/Social2.png,stimuli/Social1.png,stimuli/Nonsocial2.png,stimuli/Nonsocial1.png,stimuli/Social4.png,stimuli/Social3.png,stimuli/Nonsocial4.png,stimuli/Nonsocial3.png,,,"(-0.7, -0.5)",cs_neg_s,"(-0.7, 0.5)",cs_neg_ns,"(0.7, -0.5)",cs_pos_s,"(0.7, 0.5)",cs_pos_ns,0,0,0,0,,,,,,,,,,,,,,,,,,,,,1,10,34,2,,,,,,,,,,,,,,,,,,,,,,,,,,,282,reward,,,,,,1287.399571300004,1287.399571300004,1287.399571300004,1287.399571300004,0,,,0,,,1,0.03086930001154542,0.030873200012138113,0,,,1287.399571300004,1287.399571300004,1287.399571300004,1287.399571300004,18,B,2024-04-25_14h26.45.972,attentional_competition_task,2022.2.4,144.07830944191855,
positions.xlsx,positions_test.xlsx,positions_test_new.xlsx,stimuli.xlsx,stimuli_new.xlsx,stimuli/Social2.png,stimuli/Social1.png,stimuli/Nonsocial2.png,stimuli/Nonsocial1.png,stimuli/Social4.png,stimuli/Social3.png,stimuli/Nonsocial4.png,stimuli/Nonsocial3.png,,,"(-0.7, -0.5)",cs_pos_s,"(-0.7, 0.5)",cs_pos_ns,"(0.7, -0.5)",cs_neg_ns,"(0.7, 0.5)",cs_neg_s,0,0,0,0,,,,,,,,,,,,,,,,,,,,,1,11,35,11,,,,,,,,,,,,,,,,,,,,,,,,,,,285,reward,,,,,,1295.7673267000064,1295.7673267000064,1295.7673267000064,1295.7673267000064,1,0.02351430000271648,0.023518200003309175,0,,,0,,,0,,,1295.7673267000064,1295.7673267000064,1295.7673267000064,1295.7673267000064,18,B,2024-04-25_14h26.45.972,attentional_competition_task,2022.2.4,144.07830944191855,
positions.xlsx,positions_test.xlsx,positions_test_new.xlsx,stimuli.xlsx,stimuli_new.xlsx,stimuli/Social2.png,stimuli/Social1.png,stimuli/Nonsocial2.png,stimuli/Nonsocial1.png,stimuli/Social4.png,stimuli/Social3.png,stimuli/Nonsocial4.png,stimuli/Nonsocial3.png,,,"(-0.7, -0.5)",cs_neg_s,"(-0.7, 0.5)",cs_pos_s,"(0.7, -0.5)",cs_neg_ns,"(0.7, 0.5)",cs_pos_ns,0,0,0,0,,,,,,,,,,,,,,,,,,,,,1,12,36,0,,,,,,,,,,,,,,,,,,,,,,,,,,,294,reward,,,,,,1304.4683484000125,1304.4683484000125,1304.4683484000125,1304.4683484000125,0,,,0,,,0,,,0,,,1305.2183305000071,1305.2183305000071,1305.2183305000071,1305.2183305000071,18,B,2024-04-25_14h26.45.972,attentional_competition_task,2022.2.4,144.07830944191855,
positions.xlsx,positions_test.xlsx,positions_test_new.xlsx,stimuli.xlsx,stimuli_new.xlsx,stimuli/Social2.png,stimuli/Social1.png,stimuli/Nonsocial2.png,stimuli/Nonsocial1.png,stimuli/Social4.png,stimuli/Social3.png,stimuli/Nonsocial4.png,stimuli/Nonsocial3.png,,,"(-0.7, -0.5)",cs_neg_ns,"(-0.7, 0.5)",cs_pos_ns,"(0.7, -0.5)",cs_pos_s,"(0.7, 0.5)",cs_neg_s,0,0,0,0,,,,,,,,,,,,,,,,,,,,,1,13,37,16,,,,,,,,,,,,,,,,,,,,,,,,,,,300,reward,,,,,,1312.8500091000024,1312.8500091000024,1312.8500091000024,1312.8500091000024,0,,,1,0.029699700011406094,0.02970369999820832,0,,,0,,,1312.8500091000024,1312.8500091000024,1312.8500091000024,1312.8500091000024,18,B,2024-04-25_14h26.45.972,attentional_competition_task,2022.2.4,144.07830944191855,
positions.xlsx,positions_test.xlsx,positions_test_new.xlsx,stimuli.xlsx,stimuli_new.xlsx,stimuli/Social2.png,stimuli/Social1.png,stimuli/Nonsocial2.png,stimuli/Nonsocial1.png,stimuli/Social4.png,stimuli/Social3.png,stimuli/Nonsocial4.png,stimuli/Nonsocial3.png,,,"(-0.7, -0.5)",cs_neg_ns,"(-0.7, 0.5)",cs_pos_ns,"(0.7, -0.5)",cs_neg_s,"(0.7, 0.5)",cs_pos_s,0,0,0,0,,,,,,,,,,,,,,,,,,,,,1,14,38,17,,,,,,,,,,,,,,,,,,,,,,,,,,,309,reward,,,,,,1321.6621165000106,1321.6621165000106,1321.6621165000106,1321.6621165000106,0,,,0,,,0,,,1,0.02361209999071434,0.04574619999038987,1322.5301520000066,1322.5301520000066,1322.5301520000066,1322.5301520000066,18,B,2024-04-25_14h26.45.972,attentional_competition_task,2022.2.4,144.07830944191855,
positions.xlsx,positions_test.xlsx,positions_test_new.xlsx,stimuli.xlsx,stimuli_new.xlsx,stimuli/Social2.png,stimuli/Social1.png,stimuli/Nonsocial2.png,stimuli/Nonsocial1.png,stimuli/Social4.png,stimuli/Social3.png,stimuli/Nonsocial4.png,stimuli/Nonsocial3.png,,,"(-0.7, -0.5)",cs_neg_s,"(-0.7, 0.5)",cs_pos_ns,"(0.7, -0.5)",cs_pos_s,"(0.7, 0.5)",cs_neg_ns,0,0,0,0,,,,,,,,,,,,,,,,,,,,,1,15,39,4,,,,,,,,,,,,,,,,,,,,,,,,,,,315,reward,,,,,,1330.9117473000078,1330.9117473000078,1330.9117473000078,1330.9117473000078,0,,,0,,,0,,,0,,,1331.4534179000038,1331.4534179000038,1331.4534179000038,1331.4534179000038,18,B,2024-04-25_14h26.45.972,attentional_competition_task,2022.2.4,144.07830944191855,
positions.xlsx,positions_test.xlsx,positions_test_new.xlsx,stimuli.xlsx,stimuli_new.xlsx,stimuli/Social2.png,stimuli/Social1.png,stimuli/Nonsocial2.png,stimuli/Nonsocial1.png,stimuli/Social4.png,stimuli/Social3.png,stimuli/Nonsocial4.png,stimuli/Nonsocial3.png,,,"(-0.7, -0.5)",cs_pos_s,"(-0.7, 0.5)",cs_neg_ns,"(0.7, -0.5)",cs_neg_s,"(0.7, 0.5)",cs_pos_ns,0,0,0,0,,,,,,,,,,,,,,,,,,,,,1,16,40,8,,,,,,,,,,,,,,,,,,,,,,,,,,,324,reward,,,,,,1338.9044557000016,1338.9044557000016,1338.9044557000016,1338.9044557000016,0,,,0,,,0,,,0,,,1339.9114786000137,1339.9114786000137,1339.9114786000137,1339.9114786000137,18,B,2024-04-25_14h26.45.972,attentional_competition_task,2022.2.4,144.07830944191855,
positions.xlsx,positions_test.xlsx,positions_test_new.xlsx,stimuli.xlsx,stimuli_new.xlsx,stimuli/Social2.png,stimuli/Social1.png,stimuli/Nonsocial2.png,stimuli/Nonsocial1.png,stimuli/Social4.png,stimuli/Social3.png,stimuli/Nonsocial4.png,stimuli/Nonsocial3.png,,,"(-0.7, -0.5)",cs_neg_ns,"(-0.7, 0.5)",cs_pos_s,"(0.7, -0.5)",cs_pos_ns,"(0.7, 0.5)",cs_neg_s,0,0,0,0,,,,,,,,,,,,,,,,,,,,,1,17,41,13,,,,,,,,,,,,,,,,,,,,,,,,,,,333,reward,,,,,,1347.4319866000005,1347.4319866000005,1347.4319866000005,1347.4319866000005,0,,,0,,,0,,,0,,,1348.390344200001,1348.390344200001,1348.390344200001,1348.390344200001,18,B,2024-04-25_14h26.45.972,attentional_competition_task,2022.2.4,144.07830944191855,
positions.xlsx,positions_test.xlsx,positions_test_new.xlsx,stimuli.xlsx,stimuli_new.xlsx,stimuli/Social2.png,stimuli/Social1.png,stimuli/Nonsocial2.png,stimuli/Nonsocial1.png,stimuli/Social4.png,stimuli/Social3.png,stimuli/Nonsocial4.png,stimuli/Nonsocial3.png,,,"(-0.7, -0.5)",cs_pos_s,"(-0.7, 0.5)",cs_pos_ns,"(0.7, -0.5)",cs_neg_s,"(0.7, 0.5)",cs_neg_ns,0,0,0,0,,,,,,,,,,,,,,,,,,,,,1,18,42,10,,,,,,,,,,,,,,,,,,,,,,,,,,,342,reward,,,,,,1355.8274892000045,1355.8274892000045,1355.8274892000045,1355.8274892000045,0,,,0,,,0,,,0,,,1356.9246803000133,1356.9246803000133,1356.9246803000133,1356.9246803000133,18,B,2024-04-25_14h26.45.972,attentional_competition_task,2022.2.4,144.07830944191855,
positions.xlsx,positions_test.xlsx,positions_test_new.xlsx,stimuli.xlsx,stimuli_new.xlsx,stimuli/Social2.png,stimuli/Social1.png,stimuli/Nonsocial2.png,stimuli/Nonsocial1.png,stimuli/Social4.png,stimuli/Social3.png,stimuli/Nonsocial4.png,stimuli/Nonsocial3.png,,,"(-0.7, -0.5)",cs_pos_ns,"(-0.7, 0.5)",cs_neg_ns,"(0.7, -0.5)",cs_neg_s,"(0.7, 0.5)",cs_pos_s,0,0,0,0,,,,,,,,,,,,,,,,,,,,,1,19,43,21,,,,,,,,,,,,,,,,,,,,,,,,,,,345,reward,,,,,,1364.5910170000134,1364.5910170000134,1364.5910170000134,1364.5910170000134,0,,,0,,,0,,,0,,,1364.6951935000106,1364.6951935000106,1364.6951935000106,1364.6951935000106,18,B,2024-04-25_14h26.45.972,attentional_competition_task,2022.2.4,144.07830944191855,
positions.xlsx,positions_test.xlsx,positions_test_new.xlsx,stimuli.xlsx,stimuli_new.xlsx,stimuli/Social2.png,stimuli/Social1.png,stimuli/Nonsocial2.png,stimuli/Nonsocial1.png,stimuli/Social4.png,stimuli/Social3.png,stimuli/Nonsocial4.png,stimuli/Nonsocial3.png,,,"(-0.7, -0.5)",cs_neg_s,"(-0.7, 0.5)",cs_neg_ns,"(0.7, -0.5)",cs_pos_ns,"(0.7, 0.5)",cs_pos_s,0,0,0,0,,,,,,,,,,,,,,,,,,,,,1,20,44,3,,,,,,,,,,,,,,,,,,,,,,,,,,,348,reward,,,,,,1373.0073878000112,1373.0073878000112,1373.0073878000112,1373.0073878000112,0,,,0,,,1,0.02900439999939408,0.029008400000748225,0,,,1373.0073878000112,1373.0073878000112,1373.0073878000112,1373.0073878000112,18,B,2024-04-25_14h26.45.972,attentional_competition_task,2022.2.4,144.07830944191855,
positions.xlsx,positions_test.xlsx,positions_test_new.xlsx,stimuli.xlsx,stimuli_new.xlsx,stimuli/Social2.png,stimuli/Social1.png,stimuli/Nonsocial2.png,stimuli/Nonsocial1.png,stimuli/Social4.png,stimuli/Social3.png,stimuli/Nonsocial4.png,stimuli/Nonsocial3.png,,,"(-0.7, -0.5)",cs_pos_ns,"(-0.7, 0.5)",cs_neg_s,"(0.7, -0.5)",cs_pos_s,"(0.7, 0.5)",cs_neg_ns,0,0,0,0,,,,,,,,,,,,,,,,,,,,,1,21,45,22,,,,,,,,,,,,,,,,,,,,,,,,,,,357,reward,,,,,,1381.7292381000007,1381.7292381000007,1381.7292381000007,1381.7292381000007,0,,,0,,,0,,,0,,,1382.4722511,1382.4722511,1382.4722511,1382.4722511,18,B,2024-04-25_14h26.45.972,attentional_competition_task,2022.2.4,144.07830944191855,
positions.xlsx,positions_test.xlsx,positions_test_new.xlsx,stimuli.xlsx,stimuli_new.xlsx,stimuli/Social2.png,stimuli/Social1.png,stimuli/Nonsocial2.png,stimuli/Nonsocial1.png,stimuli/Social4.png,stimuli/Social3.png,stimuli/Nonsocial4.png,stimuli/Nonsocial3.png,,,"(-0.7, -0.5)",cs_neg_ns,"(-0.7, 0.5)",cs_neg_s,"(0.7, -0.5)",cs_pos_ns,"(0.7, 0.5)",cs_pos_s,0,0,0,0,,,,,,,,,,,,,,,,,,,,,1,22,46,15,,,,,,,,,,,,,,,,,,,,,,,,,,,363,reward,,,,,,1390.2497384000017,1390.2497384000017,1390.2497384000017,1390.2497384000017,0,,,0,,,1,0.11406659999920521,0.11407019999751355,0,,,1390.3608353000018,1390.3608353000018,1390.3608353000018,1390.3608353000018,18,B,2024-04-25_14h26.45.972,attentional_competition_task,2022.2.4,144.07830944191855,
positions.xlsx,positions_test.xlsx,positions_test_new.xlsx,stimuli.xlsx,stimuli_new.xlsx,stimuli/Social2.png,stimuli/Social1.png,stimuli/Nonsocial2.png,stimuli/Nonsocial1.png,stimuli/Social4.png,stimuli/Social3.png,stimuli/Nonsocial4.png,stimuli/Nonsocial3.png,,,"(-0.7, -0.5)",cs_pos_ns,"(-0.7, 0.5)",cs_pos_s,"(0.7, -0.5)",cs_neg_ns,"(0.7, 0.5)",cs_neg_s,0,0,0,0,,,,,,,,,,,,,,,,,,,,,1,23,47,18,,,,,,,,,,,,,,,,,,,,,,,,,,,369,reward,,,,,,1399.0480027000012,1399.0480027000012,1399.0480027000012,1399.0480027000012,1,0.027665600006002933,0.027669500006595626,0,,,0,,,0,,,1399.0480027000012,1399.0480027000012,1399.0480027000012,1399.0480027000012,18,B,2024-04-25_14h26.45.972,attentional_competition_task,2022.2.4,144.07830944191855,
positions.xlsx,positions_test.xlsx,positions_test_new.xlsx,stimuli.xlsx,stimuli_new.xlsx,stimuli/Social2.png,stimuli/Social1.png,stimuli/Nonsocial2.png,stimuli/Nonsocial1.png,stimuli/Social4.png,stimuli/Social3.png,stimuli/Nonsocial4.png,stimuli/Nonsocial3.png,,,"(-0.7, -0.5)",cs_pos_ns,"(-0.7, 0.5)",cs_neg_ns,"(0.7, -0.5)",cs_neg_s_new,"(0.7, 0.5)",cs_pos_s,0,0,0,0,,,,,,,,,,,,,,,,,,,,,,,,,,,,,0,0,0,11,0,0,0,0,,,,,,,,,,,,,,,372,reward,,,,,,1405.8047054000053,1405.8047054000053,1405.8047054000053,1405.8047054000053,1,0.7521691000001738,0.7678363000013633,0,,,0,,,0,,,1406.589345600005,1406.589345600005,1406.589345600005,1406.589345600005,18,B,2024-04-25_14h26.45.972,attentional_competition_task,2022.2.4,144.07830944191855,
positions.xlsx,positions_test.xlsx,positions_test_new.xlsx,stimuli.xlsx,stimuli_new.xlsx,stimuli/Social2.png,stimuli/Social1.png,stimuli/Nonsocial2.png,stimuli/Nonsocial1.png,stimuli/Social4.png,stimuli/Social3.png,stimuli/Nonsocial4.png,stimuli/Nonsocial3.png,,,"(-0.7, -0.5)",cs_pos_ns,"(-0.7, 0.5)",cs_neg_ns,"(0.7, -0.5)",cs_neg_s_new,"(0.7, 0.5)",cs_pos_s,0,0,0,0,,,,,,,,,,,,,,,,,,,,,,,,,,,,,0,0,0,11,1,0,1,0,,,,,,,,,,,,,,,375,reward,,,,,,1407.1102144000033,1407.1102144000033,1407.1102144000033,1407.1102144000033,0,,,0,,,0,,,1,0.025499800001853146,0.025503299999400042,1407.1102144000033,1407.1102144000033,1407.1102144000033,1407.1102144000033,18,B,2024-04-25_14h26.45.972,attentional_competition_task,2022.2.4,144.07830944191855,
positions.xlsx,positions_test.xlsx,positions_test_new.xlsx,stimuli.xlsx,stimuli_new.xlsx,stimuli/Social2.png,stimuli/Social1.png,stimuli/Nonsocial2.png,stimuli/Nonsocial1.png,stimuli/Social4.png,stimuli/Social3.png,stimuli/Nonsocial4.png,stimuli/Nonsocial3.png,,,"(-0.7, -0.5)",cs_pos_ns,"(-0.7, 0.5)",cs_neg_ns,"(0.7, -0.5)",cs_neg_s_new,"(0.7, 0.5)",cs_pos_s,0,0,0,0,,,,,,,,,,,,,,,,,,,,,,,,,,,,,0,0,0,11,2,0,2,0,,,,,,,,,,,,,,,378,reward,,,,,,1407.6101679999992,1407.6101679999992,1407.6101679999992,1407.6101679999992,0,,,0,,,0,,,0,,,1408.318485300013,1408.318485300013,1408.318485300013,1408.318485300013,18,B,2024-04-25_14h26.45.972,attentional_competition_task,2022.2.4,144.07830944191855,
positions.xlsx,positions_test.xlsx,positions_test_new.xlsx,stimuli.xlsx,stimuli_new.xlsx,stimuli/Social2.png,stimuli/Social1.png,stimuli/Nonsocial2.png,stimuli/Nonsocial1.png,stimuli/Social4.png,stimuli/Social3.png,stimuli/Nonsocial4.png,stimuli/Nonsocial3.png,,,"(-0.7, -0.5)",cs_pos_ns,"(-0.7, 0.5)",cs_neg_ns,"(0.7, -0.5)",cs_neg_s_new,"(0.7, 0.5)",cs_pos_s,0,0,0,0,,,,,,,,,,,,,,,,,,,,,,,,,,,,,0,0,0,11,,,,,,,,,,,,,,,,,,,,,,,,,,,,,,,,,,,,,,,,,,,,,,18,B,2024-04-25_14h26.45.972,attentional_competition_task,2022.2.4,144.07830944191855,
positions.xlsx,positions_test.xlsx,positions_test_new.xlsx,stimuli.xlsx,stimuli_new.xlsx,stimuli/Social2.png,stimuli/Social1.png,stimuli/Nonsocial2.png,stimuli/Nonsocial1.png,stimuli/Social4.png,stimuli/Social3.png,stimuli/Nonsocial4.png,stimuli/Nonsocial3.png,,,"(-0.7, -0.5)",cs_pos_ns,"(-0.7, 0.5)",cs_pos_s,"(0.7, -0.5)",cs_neg_ns,"(0.7, 0.5)",cs_neg_s,0,0,0,0,,,,,,,,,,,,,,,,,,,,,,,,,,,,,0,1,1,4,0,0,0,0,,,,,,,,,,,,,,,381,reward,,,,,,1414.5334835000103,1414.5334835000103,1414.5334835000103,1414.5334835000103,0,,,0,,,0,,,0,,,1415.040405800013,1415.040405800013,1415.040405800013,1415.040405800013,18,B,2024-04-25_14h26.45.972,attentional_competition_task,2022.2.4,144.07830944191855,
positions.xlsx,positions_test.xlsx,positions_test_new.xlsx,stimuli.xlsx,stimuli_new.xlsx,stimuli/Social2.png,stimuli/Social1.png,stimuli/Nonsocial2.png,stimuli/Nonsocial1.png,stimuli/Social4.png,stimuli/Social3.png,stimuli/Nonsocial4.png,stimuli/Nonsocial3.png,,,"(-0.7, -0.5)",cs_pos_ns,"(-0.7, 0.5)",cs_pos_s,"(0.7, -0.5)",cs_neg_ns,"(0.7, 0.5)",cs_neg_s,0,0,0,0,,,,,,,,,,,,,,,,,,,,,,,,,,,,,0,1,1,4,1,0,1,0,,,,,,,,,,,,,,,384,reward,,,,,,1415.5751313000073,1415.5751313000073,1415.5751313000073,1415.5751313000073,1,0.030279099999461323,0.030283100000815466,0,,,0,,,0,,,1415.5751313000073,1415.5751313000073,1415.5751313000073,1415.5751313000073,18,B,2024-04-25_14h26.45.972,attentional_competition_task,2022.2.4,144.07830944191855,
positions.xlsx,positions_test.xlsx,positions_test_new.xlsx,stimuli.xlsx,stimuli_new.xlsx,stimuli/Social2.png,stimuli/Social1.png,stimuli/Nonsocial2.png,stimuli/Nonsocial1.png,stimuli/Social4.png,stimuli/Social3.png,stimuli/Nonsocial4.png,stimuli/Nonsocial3.png,,,"(-0.7, -0.5)",cs_pos_ns,"(-0.7, 0.5)",cs_pos_s,"(0.7, -0.5)",cs_neg_ns,"(0.7, 0.5)",cs_neg_s,0,0,0,0,,,,,,,,,,,,,,,,,,,,,,,,,,,,,0,1,1,4,2,0,2,0,,,,,,,,,,,,,,,387,reward,,,,,,1416.0681686000025,1416.0681686000025,1416.0681686000025,1416.0681686000025,0,,,0,,,0,,,0,,,1417.0473297999997,1417.0473297999997,1417.0473297999997,1417.0473297999997,18,B,2024-04-25_14h26.45.972,attentional_competition_task,2022.2.4,144.07830944191855,
positions.xlsx,positions_test.xlsx,positions_test_new.xlsx,stimuli.xlsx,stimuli_new.xlsx,stimuli/Social2.png,stimuli/Social1.png,stimuli/Nonsocial2.png,stimuli/Nonsocial1.png,stimuli/Social4.png,stimuli/Social3.png,stimuli/Nonsocial4.png,stimuli/Nonsocial3.png,,,"(-0.7, -0.5)",cs_pos_ns,"(-0.7, 0.5)",cs_pos_s,"(0.7, -0.5)",cs_neg_ns,"(0.7, 0.5)",cs_neg_s,0,0,0,0,,,,,,,,,,,,,,,,,,,,,,,,,,,,,0,1,1,4,,,,,,,,,,,,,,,,,,,,,,,,,,,,,,,,,,,,,,,,,,,,,,18,B,2024-04-25_14h26.45.972,attentional_competition_task,2022.2.4,144.07830944191855,
positions.xlsx,positions_test.xlsx,positions_test_new.xlsx,stimuli.xlsx,stimuli_new.xlsx,stimuli/Social2.png,stimuli/Social1.png,stimuli/Nonsocial2.png,stimuli/Nonsocial1.png,stimuli/Social4.png,stimuli/Social3.png,stimuli/Nonsocial4.png,stimuli/Nonsocial3.png,,,"(-0.7, -0.5)",cs_pos_ns,"(-0.7, 0.5)",cs_neg_ns,"(0.7, -0.5)",cs_pos_s,"(0.7, 0.5)",cs_neg_s_new,0,0,0,0,,,,,,,,,,,,,,,,,,,,,,,,,,,,,0,2,2,17,0,0,0,0,,,,,,,,,,,,,,,384,loss,,,,,,1423.1303964000108,1423.1303964000108,1423.1303964000108,1423.1303964000108,0,,,0,,,0,,,1,0.3643308999889996,0.3643344000010984,1423.5053840000037,1423.5053840000037,1423.5053840000037,1423.5053840000037,18,B,2024-04-25_14h26.45.972,attentional_competition_task,2022.2.4,144.07830944191855,
positions.xlsx,positions_test.xlsx,positions_test_new.xlsx,stimuli.xlsx,stimuli_new.xlsx,stimuli/Social2.png,stimuli/Social1.png,stimuli/Nonsocial2.png,stimuli/Nonsocial1.png,stimuli/Social4.png,stimuli/Social3.png,stimuli/Nonsocial4.png,stimuli/Nonsocial3.png,,,"(-0.7, -0.5)",cs_pos_ns,"(-0.7, 0.5)",cs_neg_ns,"(0.7, -0.5)",cs_pos_s,"(0.7, 0.5)",cs_neg_s_new,0,0,0,0,,,,,,,,,,,,,,,,,,,,,,,,,,,,,0,2,2,17,1,0,1,0,,,,,,,,,,,,,,,387,reward,,,,,,1424.0053707000043,1424.0053707000043,1424.0053707000043,1424.0053707000043,0,,,0,,,1,0.05212750000646338,0.0521465000056196,0,,,1424.060948000013,1424.060948000013,1424.060948000013,1424.060948000013,18,B,2024-04-25_14h26.45.972,attentional_competition_task,2022.2.4,144.07830944191855,
positions.xlsx,positions_test.xlsx,positions_test_new.xlsx,stimuli.xlsx,stimuli_new.xlsx,stimuli/Social2.png,stimuli/Social1.png,stimuli/Nonsocial2.png,stimuli/Nonsocial1.png,stimuli/Social4.png,stimuli/Social3.png,stimuli/Nonsocial4.png,stimuli/Nonsocial3.png,,,"(-0.7, -0.5)",cs_pos_ns,"(-0.7, 0.5)",cs_neg_ns,"(0.7, -0.5)",cs_pos_s,"(0.7, 0.5)",cs_neg_s_new,0,0,0,0,,,,,,,,,,,,,,,,,,,,,,,,,,,,,0,2,2,17,2,0,2,0,,,,,,,,,,,,,,,384,loss,,,,,,1424.5608696000127,1424.5608696000127,1424.5608696000127,1424.5608696000127,0,,,1,0.14177940000081435,0.14178309999988414,0,,,1,0.029812199994921684,0.07887539999501314,1424.7206133,1424.7206133,1424.7206133,1424.7206133,18,B,2024-04-25_14h26.45.972,attentional_competition_task,2022.2.4,144.07830944191855,
positions.xlsx,positions_test.xlsx,positions_test_new.xlsx,stimuli.xlsx,stimuli_new.xlsx,stimuli/Social2.png,stimuli/Social1.png,stimuli/Nonsocial2.png,stimuli/Nonsocial1.png,stimuli/Social4.png,stimuli/Social3.png,stimuli/Nonsocial4.png,stimuli/Nonsocial3.png,,,"(-0.7, -0.5)",cs_pos_ns,"(-0.7, 0.5)",cs_neg_ns,"(0.7, -0.5)",cs_pos_s,"(0.7, 0.5)",cs_neg_s_new,0,0,0,0,,,,,,,,,,,,,,,,,,,,,,,,,,,,,0,2,2,17,,,,,,,,,,,,,,,,,,,,,,,,,,,,,,,,,,,,,,,,,,,,,,18,B,2024-04-25_14h26.45.972,attentional_competition_task,2022.2.4,144.07830944191855,
positions.xlsx,positions_test.xlsx,positions_test_new.xlsx,stimuli.xlsx,stimuli_new.xlsx,stimuli/Social2.png,stimuli/Social1.png,stimuli/Nonsocial2.png,stimuli/Nonsocial1.png,stimuli/Social4.png,stimuli/Social3.png,stimuli/Nonsocial4.png,stimuli/Nonsocial3.png,,,"(-0.7, -0.5)",cs_neg_ns,"(-0.7, 0.5)",cs_neg_s_new,"(0.7, -0.5)",cs_pos_s,"(0.7, 0.5)",cs_pos_ns,0,0,0,0,,,,,,,,,,,,,,,,,,,,,,,,,,,,,0,3,3,12,0,0,0,0,,,,,,,,,,,,,,,387,reward,,,,,,1430.9425696000108,1430.9425696000108,1430.9425696000108,1430.9425696000108,0,,,0,,,1,0.47444580000592396,0.4744494000042323,0,,,1431.421720600003,1431.421720600003,1431.421720600003,1431.421720600003,18,B,2024-04-25_14h26.45.972,attentional_competition_task,2022.2.4,144.07830944191855,
positions.xlsx,positions_test.xlsx,positions_test_new.xlsx,stimuli.xlsx,stimuli_new.xlsx,stimuli/Social2.png,stimuli/Social1.png,stimuli/Nonsocial2.png,stimuli/Nonsocial1.png,stimuli/Social4.png,stimuli/Social3.png,stimuli/Nonsocial4.png,stimuli/Nonsocial3.png,,,"(-0.7, -0.5)",cs_neg_ns,"(-0.7, 0.5)",cs_neg_s_new,"(0.7, -0.5)",cs_pos_s,"(0.7, 0.5)",cs_pos_ns,0,0,0,0,,,,,,,,,,,,,,,,,,,,,,,,,,,,,0,3,3,12,1,0,1,0,,,,,,,,,,,,,,,390,reward,,,,,,1431.956416400004,1431.956416400004,1431.956416400004,1431.956416400004,0,,,0,,,0,,,1,0.030491299999994226,0.03049499999906402,1431.956416400004,1431.956416400004,1431.956416400004,1431.956416400004,18,B,2024-04-25_14h26.45.972,attentional_competition_task,2022.2.4,144.07830944191855,
positions.xlsx,positions_test.xlsx,positions_test_new.xlsx,stimuli.xlsx,stimuli_new.xlsx,stimuli/Social2.png,stimuli/Social1.png,stimuli/Nonsocial2.png,stimuli/Nonsocial1.png,stimuli/Social4.png,stimuli/Social3.png,stimuli/Nonsocial4.png,stimuli/Nonsocial3.png,,,"(-0.7, -0.5)",cs_neg_ns,"(-0.7, 0.5)",cs_neg_s_new,"(0.7, -0.5)",cs_pos_s,"(0.7, 0.5)",cs_pos_ns,0,0,0,0,,,,,,,,,,,,,,,,,,,,,,,,,,,,,0,3,3,12,2,0,2,0,,,,,,,,,,,,,,,387,loss,,,,,,1432.4842773000128,1432.4842773000128,1432.4842773000128,1432.4842773000128,0,,,1,0.024554999996325932,0.024559099998441525,0,,,0,,,1432.4842773000128,1432.4842773000128,1432.4842773000128,1432.4842773000128,18,B,2024-04-25_14h26.45.972,attentional_competition_task,2022.2.4,144.07830944191855,
positions.xlsx,positions_test.xlsx,positions_test_new.xlsx,stimuli.xlsx,stimuli_new.xlsx,stimuli/Social2.png,stimuli/Social1.png,stimuli/Nonsocial2.png,stimuli/Nonsocial1.png,stimuli/Social4.png,stimuli/Social3.png,stimuli/Nonsocial4.png,stimuli/Nonsocial3.png,,,"(-0.7, -0.5)",cs_neg_ns,"(-0.7, 0.5)",cs_neg_s_new,"(0.7, -0.5)",cs_pos_s,"(0.7, 0.5)",cs_pos_ns,0,0,0,0,,,,,,,,,,,,,,,,,,,,,,,,,,,,,0,3,3,12,,,,,,,,,,,,,,,,,,,,,,,,,,,,,,,,,,,,,,,,,,,,,,18,B,2024-04-25_14h26.45.972,attentional_competition_task,2022.2.4,144.07830944191855,
positions.xlsx,positions_test.xlsx,positions_test_new.xlsx,stimuli.xlsx,stimuli_new.xlsx,stimuli/Social2.png,stimuli/Social1.png,stimuli/Nonsocial2.png,stimuli/Nonsocial1.png,stimuli/Social4.png,stimuli/Social3.png,stimuli/Nonsocial4.png,stimuli/Nonsocial3.png,,,"(-0.7, -0.5)",cs_neg_ns,"(-0.7, 0.5)",cs_pos_ns,"(0.7, -0.5)",cs_pos_s_new,"(0.7, 0.5)",cs_neg_s,0,0,0,0,,,,,,,,,,,,,,,,,,,,,,,,,,,,,0,4,4,36,0,0,0,0,,,,,,,,,,,,,,,384,loss,,,,,,1438.6436927000032,1438.6436927000032,1438.6436927000032,1438.6436927000032,0,,,0,,,0,,,0,,,1439.9283089000091,1439.9283089000091,1439.9283089000091,1439.9283089000091,18,B,2024-04-25_14h26.45.972,attentional_competition_task,2022.2.4,144.07830944191855,
positions.xlsx,positions_test.xlsx,positions_test_new.xlsx,stimuli.xlsx,stimuli_new.xlsx,stimuli/Social2.png,stimuli/Social1.png,stimuli/Nonsocial2.png,stimuli/Nonsocial1.png,stimuli/Social4.png,stimuli/Social3.png,stimuli/Nonsocial4.png,stimuli/Nonsocial3.png,,,"(-0.7, -0.5)",cs_neg_ns,"(-0.7, 0.5)",cs_pos_ns,"(0.7, -0.5)",cs_pos_s_new,"(0.7, 0.5)",cs_neg_s,0,0,0,0,,,,,,,,,,,,,,,,,,,,,,,,,,,,,0,4,4,36,1,0,1,0,,,,,,,,,,,,,,,387,reward,,,,,,1440.463063800009,1440.463063800009,1440.463063800009,1440.463063800009,0,,,1,0.02882770000724122,0.028831700008595362,0,,,0,,,1440.463063800009,1440.463063800009,1440.463063800009,1440.463063800009,18,B,2024-04-25_14h26.45.972,attentional_competition_task,2022.2.4,144.07830944191855,
positions.xlsx,positions_test.xlsx,positions_test_new.xlsx,stimuli.xlsx,stimuli_new.xlsx,stimuli/Social2.png,stimuli/Social1.png,stimuli/Nonsocial2.png,stimuli/Nonsocial1.png,stimuli/Social4.png,stimuli/Social3.png,stimuli/Nonsocial4.png,stimuli/Nonsocial3.png,,,"(-0.7, -0.5)",cs_neg_ns,"(-0.7, 0.5)",cs_pos_ns,"(0.7, -0.5)",cs_pos_s_new,"(0.7, 0.5)",cs_neg_s,0,0,0,0,,,,,,,,,,,,,,,,,,,,,,,,,,,,,0,4,4,36,,,,,,,,,,,,,,,,,,,,,,,,,,,,,,,,,,,,,,,,,,,,,,18,B,2024-04-25_14h26.45.972,attentional_competition_task,2022.2.4,144.07830944191855,
positions.xlsx,positions_test.xlsx,positions_test_new.xlsx,stimuli.xlsx,stimuli_new.xlsx,stimuli/Social2.png,stimuli/Social1.png,stimuli/Nonsocial2.png,stimuli/Nonsocial1.png,stimuli/Social4.png,stimuli/Social3.png,stimuli/Nonsocial4.png,stimuli/Nonsocial3.png,,,"(-0.7, -0.5)",cs_neg_s_new,"(-0.7, 0.5)",cs_pos_ns,"(0.7, -0.5)",cs_neg_ns,"(0.7, 0.5)",cs_pos_s,0,0,0,0,,,,,,,,,,,,,,,,,,,,,,,,,,,,,0,5,5,10,0,0,0,0,,,,,,,,,,,,,,,390,reward,,,,,,1446.79615200001,1446.79615200001,1446.79615200001,1446.79615200001,0,,,0,,,0,,,1,0.6902468000043882,0.6970899000007194,1447.4905648999993,1447.4905648999993,1447.4905648999993,1447.4905648999993,18,B,2024-04-25_14h26.45.972,attentional_competition_task,2022.2.4,144.07830944191855,
positions.xlsx,positions_test.xlsx,positions_test_new.xlsx,stimuli.xlsx,stimuli_new.xlsx,stimuli/Social2.png,stimuli/Social1.png,stimuli/Nonsocial2.png,stimuli/Nonsocial1.png,stimuli/Social4.png,stimuli/Social3.png,stimuli/Nonsocial4.png,stimuli/Nonsocial3.png,,,"(-0.7, -0.5)",cs_neg_s_new,"(-0.7, 0.5)",cs_pos_ns,"(0.7, -0.5)",cs_neg_ns,"(0.7, 0.5)",cs_pos_s,0,0,0,0,,,,,,,,,,,,,,,,,,,,,,,,,,,,,0,5,5,10,1,0,1,0,,,,,,,,,,,,,,,393,reward,,,,,,1447.997466300003,1447.997466300003,1447.997466300003,1447.997466300003,0,,,1,0.1616760000033537,0.1616799000039464,0,,,0,,,1448.157248100004,1448.157248100004,1448.157248100004,1448.157248100004,18,B,2024-04-25_14h26.45.972,attentional_competition_task,2022.2.4,144.07830944191855,
positions.xlsx,positions_test.xlsx,positions_test_new.xlsx,stimuli.xlsx,stimuli_new.xlsx,stimuli/Social2.png,stimuli/Social1.png,stimuli/Nonsocial2.png,stimuli/Nonsocial1.png,stimuli/Social4.png,stimuli/Social3.png,stimuli/Nonsocial4.png,stimuli/Nonsocial3.png,,,"(-0.7, -0.5)",cs_neg_s_new,"(-0.7, 0.5)",cs_pos_ns,"(0.7, -0.5)",cs_neg_ns,"(0.7, 0.5)",cs_pos_s,0,0,0,0,,,,,,,,,,,,,,,,,,,,,,,,,,,,,0,5,5,10,2,0,2,0,,,,,,,,,,,,,,,396,reward,,,,,,1448.6501926000055,1448.6501926000055,1448.6501926000055,1448.6501926000055,0,,,0,,,0,,,0,,,1449.3099558000104,1449.3099558000104,1449.3099558000104,1449.3099558000104,18,B,2024-04-25_14h26.45.972,attentional_competition_task,2022.2.4,144.07830944191855,
positions.xlsx,positions_test.xlsx,positions_test_new.xlsx,stimuli.xlsx,stimuli_new.xlsx,stimuli/Social2.png,stimuli/Social1.png,stimuli/Nonsocial2.png,stimuli/Nonsocial1.png,stimuli/Social4.png,stimuli/Social3.png,stimuli/Nonsocial4.png,stimuli/Nonsocial3.png,,,"(-0.7, -0.5)",cs_neg_s_new,"(-0.7, 0.5)",cs_pos_ns,"(0.7, -0.5)",cs_neg_ns,"(0.7, 0.5)",cs_pos_s,0,0,0,0,,,,,,,,,,,,,,,,,,,,,,,,,,,,,0,5,5,10,,,,,,,,,,,,,,,,,,,,,,,,,,,,,,,,,,,,,,,,,,,,,,18,B,2024-04-25_14h26.45.972,attentional_competition_task,2022.2.4,144.07830944191855,
positions.xlsx,positions_test.xlsx,positions_test_new.xlsx,stimuli.xlsx,stimuli_new.xlsx,stimuli/Social2.png,stimuli/Social1.png,stimuli/Nonsocial2.png,stimuli/Nonsocial1.png,stimuli/Social4.png,stimuli/Social3.png,stimuli/Nonsocial4.png,stimuli/Nonsocial3.png,,,"(-0.7, -0.5)",cs_pos_s,"(-0.7, 0.5)",cs_pos_ns,"(0.7, -0.5)",cs_neg_s,"(0.7, 0.5)",cs_neg_ns,0,0,0,0,,,,,,,,,,,,,,,,,,,,,,,,,,,,,0,6,6,5,0,0,0,0,,,,,,,,,,,,,,,399,reward,,,,,,1455.5318969000073,1455.5318969000073,1455.5318969000073,1455.5318969000073,1,0.5643223000079161,0.5643262000085087,0,,,0,,,0,,,1456.1013875000062,1456.1013875000062,1456.1013875000062,1456.1013875000062,18,B,2024-04-25_14h26.45.972,attentional_competition_task,2022.2.4,144.07830944191855,
positions.xlsx,positions_test.xlsx,positions_test_new.xlsx,stimuli.xlsx,stimuli_new.xlsx,stimuli/Social2.png,stimuli/Social1.png,stimuli/Nonsocial2.png,stimuli/Nonsocial1.png,stimuli/Social4.png,stimuli/Social3.png,stimuli/Nonsocial4.png,stimuli/Nonsocial3.png,,,"(-0.7, -0.5)",cs_pos_s,"(-0.7, 0.5)",cs_pos_ns,"(0.7, -0.5)",cs_neg_s,"(0.7, 0.5)",cs_neg_ns,0,0,0,0,,,,,,,,,,,,,,,,,,,,,,,,,,,,,0,6,6,5,1,0,1,0,,,,,,,,,,,,,,,402,reward,,,,,,1456.6360421000136,1456.6360421000136,1456.6360421000136,1456.6360421000136,0,,,1,0.029220700002042577,0.02922450000187382,0,,,0,,,1456.6360421000136,1456.6360421000136,1456.6360421000136,1456.6360421000136,18,B,2024-04-25_14h26.45.972,attentional_competition_task,2022.2.4,144.07830944191855,
positions.xlsx,positions_test.xlsx,positions_test_new.xlsx,stimuli.xlsx,stimuli_new.xlsx,stimuli/Social2.png,stimuli/Social1.png,stimuli/Nonsocial2.png,stimuli/Nonsocial1.png,stimuli/Social4.png,stimuli/Social3.png,stimuli/Nonsocial4.png,stimuli/Nonsocial3.png,,,"(-0.7, -0.5)",cs_pos_s,"(-0.7, 0.5)",cs_pos_ns,"(0.7, -0.5)",cs_neg_s,"(0.7, 0.5)",cs_neg_ns,0,0,0,0,,,,,,,,,,,,,,,,,,,,,,,,,,,,,0,6,6,5,2,0,2,0,,,,,,,,,,,,,,,399,loss,,,,,,1457.1637957000057,1457.1637957000057,1457.1637957000057,1457.1637957000057,0,,,0,,,0,,,1,0.025001600006362423,0.02500500000314787,1457.1637957000057,1457.1637957000057,1457.1637957000057,1457.1637957000057,18,B,2024-04-25_14h26.45.972,attentional_competition_task,2022.2.4,144.07830944191855,
positions.xlsx,positions_test.xlsx,positions_test_new.xlsx,stimuli.xlsx,stimuli_new.xlsx,stimuli/Social2.png,stimuli/Social1.png,stimuli/Nonsocial2.png,stimuli/Nonsocial1.png,stimuli/Social4.png,stimuli/Social3.png,stimuli/Nonsocial4.png,stimuli/Nonsocial3.png,,,"(-0.7, -0.5)",cs_pos_s,"(-0.7, 0.5)",cs_pos_ns,"(0.7, -0.5)",cs_neg_s,"(0.7, 0.5)",cs_neg_ns,0,0,0,0,,,,,,,,,,,,,,,,,,,,,,,,,,,,,0,6,6,5,,,,,,,,,,,,,,,,,,,,,,,,,,,,,,,,,,,,,,,,,,,,,,18,B,2024-04-25_14h26.45.972,attentional_competition_task,2022.2.4,144.07830944191855,
positions.xlsx,positions_test.xlsx,positions_test_new.xlsx,stimuli.xlsx,stimuli_new.xlsx,stimuli/Social2.png,stimuli/Social1.png,stimuli/Nonsocial2.png,stimuli/Nonsocial1.png,stimuli/Social4.png,stimuli/Social3.png,stimuli/Nonsocial4.png,stimuli/Nonsocial3.png,,,"(-0.7, -0.5)",cs_pos_s,"(-0.7, 0.5)",cs_pos_ns_new,"(0.7, -0.5)",cs_neg_s,"(0.7, 0.5)",cs_neg_ns,0,0,0,0,,,,,,,,,,,,,,,,,,,,,,,,,,,,,0,7,7,46,0,0,0,0,,,,,,,,,,,,,,,402,reward,,,,,,1464.0107223000086,1464.0107223000086,1464.0107223000086,1464.0107223000086,1,0.5502848000032827,0.5502885000023525,0,,,0,,,0,,,1464.566298900012,1464.566298900012,1464.566298900012,1464.566298900012,18,B,2024-04-25_14h26.45.972,attentional_competition_task,2022.2.4,144.07830944191855,
positions.xlsx,positions_test.xlsx,positions_test_new.xlsx,stimuli.xlsx,stimuli_new.xlsx,stimuli/Social2.png,stimuli/Social1.png,stimuli/Nonsocial2.png,stimuli/Nonsocial1.png,stimuli/Social4.png,stimuli/Social3.png,stimuli/Nonsocial4.png,stimuli/Nonsocial3.png,,,"(-0.7, -0.5)",cs_pos_s,"(-0.7, 0.5)",cs_pos_ns_new,"(0.7, -0.5)",cs_neg_s,"(0.7, 0.5)",cs_neg_ns,0,0,0,0,,,,,,,,,,,,,,,,,,,,,,,,,,,,,0,7,7,46,1,0,1,0,,,,,,,,,,,,,,,405,reward,,,,,,1465.100987800004,1465.100987800004,1465.100987800004,1465.100987800004,0,,,1,0.027275200001895428,0.027278800000203773,0,,,0,,,1465.100987800004,1465.100987800004,1465.100987800004,1465.100987800004,18,B,2024-04-25_14h26.45.972,attentional_competition_task,2022.2.4,144.07830944191855,
positions.xlsx,positions_test.xlsx,positions_test_new.xlsx,stimuli.xlsx,stimuli_new.xlsx,stimuli/Social2.png,stimuli/Social1.png,stimuli/Nonsocial2.png,stimuli/Nonsocial1.png,stimuli/Social4.png,stimuli/Social3.png,stimuli/Nonsocial4.png,stimuli/Nonsocial3.png,,,"(-0.7, -0.5)",cs_pos_s,"(-0.7, 0.5)",cs_pos_ns_new,"(0.7, -0.5)",cs_neg_s,"(0.7, 0.5)",cs_neg_ns,0,0,0,0,,,,,,,,,,,,,,,,,,,,,,,,,,,,,0,7,7,46,2,0,2,0,,,,,,,,,,,,,,,402,loss,,,,,,1465.6287620000076,1465.6287620000076,1465.6287620000076,1465.6287620000076,0,,,0,,,0,,,1,0.026683799995225854,0.026688099998864345,1465.6287620000076,1465.6287620000076,1465.6287620000076,1465.6287620000076,18,B,2024-04-25_14h26.45.972,attentional_competition_task,2022.2.4,144.07830944191855,
positions.xlsx,positions_test.xlsx,positions_test_new.xlsx,stimuli.xlsx,stimuli_new.xlsx,stimuli/Social2.png,stimuli/Social1.png,stimuli/Nonsocial2.png,stimuli/Nonsocial1.png,stimuli/Social4.png,stimuli/Social3.png,stimuli/Nonsocial4.png,stimuli/Nonsocial3.png,,,"(-0.7, -0.5)",cs_pos_s,"(-0.7, 0.5)",cs_pos_ns_new,"(0.7, -0.5)",cs_neg_s,"(0.7, 0.5)",cs_neg_ns,0,0,0,0,,,,,,,,,,,,,,,,,,,,,,,,,,,,,0,7,7,46,,,,,,,,,,,,,,,,,,,,,,,,,,,,,,,,,,,,,,,,,,,,,,18,B,2024-04-25_14h26.45.972,attentional_competition_task,2022.2.4,144.07830944191855,
positions.xlsx,positions_test.xlsx,positions_test_new.xlsx,stimuli.xlsx,stimuli_new.xlsx,stimuli/Social2.png,stimuli/Social1.png,stimuli/Nonsocial2.png,stimuli/Nonsocial1.png,stimuli/Social4.png,stimuli/Social3.png,stimuli/Nonsocial4.png,stimuli/Nonsocial3.png,,,"(-0.7, -0.5)",cs_neg_ns,"(-0.7, 0.5)",cs_pos_ns_new,"(0.7, -0.5)",cs_pos_s,"(0.7, 0.5)",cs_neg_s,0,0,0,0,,,,,,,,,,,,,,,,,,,,,,,,,,,,,0,8,8,45,0,0,0,0,,,,,,,,,,,,,,,405,reward,,,,,,1472.4062338000076,1472.4062338000076,1472.4062338000076,1472.4062338000076,0,,,1,0.48805970000103116,0.4880635000008624,0,,,0,,,1472.899310000008,1472.899310000008,1472.899310000008,1472.899310000008,18,B,2024-04-25_14h26.45.972,attentional_competition_task,2022.2.4,144.07830944191855,
positions.xlsx,positions_test.xlsx,positions_test_new.xlsx,stimuli.xlsx,stimuli_new.xlsx,stimuli/Social2.png,stimuli/Social1.png,stimuli/Nonsocial2.png,stimuli/Nonsocial1.png,stimuli/Social4.png,stimuli/Social3.png,stimuli/Nonsocial4.png,stimuli/Nonsocial3.png,,,"(-0.7, -0.5)",cs_neg_ns,"(-0.7, 0.5)",cs_pos_ns_new,"(0.7, -0.5)",cs_pos_s,"(0.7, 0.5)",cs_neg_s,0,0,0,0,,,,,,,,,,,,,,,,,,,,,,,,,,,,,0,8,8,45,1,0,1,0,,,,,,,,,,,,,,,402,loss,,,,,,1473.4062396000081,1473.4062396000081,1473.4062396000081,1473.4062396000081,0,,,0,,,0,,,1,0.04501610000443179,0.04501970000274014,1473.4478462000116,1473.4478462000116,1473.4478462000116,1473.4478462000116,18,B,2024-04-25_14h26.45.972,attentional_competition_task,2022.2.4,144.07830944191855,
positions.xlsx,positions_test.xlsx,positions_test_new.xlsx,stimuli.xlsx,stimuli_new.xlsx,stimuli/Social2.png,stimuli/Social1.png,stimuli/Nonsocial2.png,stimuli/Nonsocial1.png,stimuli/Social4.png,stimuli/Social3.png,stimuli/Nonsocial4.png,stimuli/Nonsocial3.png,,,"(-0.7, -0.5)",cs_neg_ns,"(-0.7, 0.5)",cs_pos_ns_new,"(0.7, -0.5)",cs_pos_s,"(0.7, 0.5)",cs_neg_s,0,0,0,0,,,,,,,,,,,,,,,,,,,,,,,,,,,,,0,8,8,45,2,0,2,0,,,,,,,,,,,,,,,405,reward,,,,,,1473.9756296000123,1473.9756296000123,1473.9756296000123,1473.9756296000123,0,,,0,,,1,0.028280300000915304,0.028284100000746548,0,,,1473.9756296000123,1473.9756296000123,1473.9756296000123,1473.9756296000123,18,B,2024-04-25_14h26.45.972,attentional_competition_task,2022.2.4,144.07830944191855,
