posFile,posFileTest,posFileTestNew,stimFile,stimFileNew,cs_neg_s,cs_pos_s,cs_neg_ns,cs_pos_ns,cs_neg_s_new,cs_pos_s_new,cs_neg_ns_new,cs_pos_ns_new,stim,position,position1,stim1,position2,stim2,position3,stim3,position4,stim4,blocks.thisRepN,blocks.thisTrialN,blocks.thisN,blocks.thisIndex,ratingtrials1.thisRepN,ratingtrials1.thisTrialN,ratingtrials1.thisN,ratingtrials1.thisIndex,search_task_trials.thisRepN,search_task_trials.thisTrialN,search_task_trials.thisN,search_task_trials.thisIndex,learning_trials.thisRepN,learning_trials.thisTrialN,learning_trials.thisN,learning_trials.thisIndex,trials.thisRepN,trials.thisTrialN,trials.thisN,trials.thisIndex,ratingtrials2.thisRepN,ratingtrials2.thisTrialN,ratingtrials2.thisN,ratingtrials2.thisIndex,testtrials.thisRepN,testtrials.thisTrialN,testtrials.thisN,testtrials.thisIndex,loop_test.thisRepN,loop_test.thisTrialN,loop_test.thisN,loop_test.thisIndex,testtrials_novelty.thisRepN,testtrials_novelty.thisTrialN,testtrials_novelty.thisN,testtrials_novelty.thisIndex,loop_test_novelty.thisRepN,loop_test_novelty.thisTrialN,loop_test_novelty.thisN,loop_test_novelty.thisIndex,ratingtrials3.thisRepN,ratingtrials3.thisTrialN,ratingtrials3.thisN,ratingtrials3.thisIndex,textStart.started,textStartExp.started,imageRating.started,sliderStim.response,sliderStim.rt,textStartSearch.started,target_positions,distractor_positions,textStartTask.started,image.started,score,outcome,roi.numLooks,roi.timesOn,roi.timesOff,imageFeedback.started,textTestInstr.started,test_image1.started,test_image2.started,test_image3.started,test_image4.started,test_roi1.numLooks,test_roi1.timesOn,test_roi1.timesOff,test_roi2.numLooks,test_roi2.timesOn,test_roi2.timesOff,test_roi3.numLooks,test_roi3.timesOn,test_roi3.timesOff,test_roi4.numLooks,test_roi4.timesOn,test_roi4.timesOff,test_image_feedback1.started,test_image_feedback2.started,test_iamge_feedback3.started,test_iamge_feedback4.started,participant,group,date,expName,psychopyVersion,frameRate,
positions.xlsx,positions_test.xlsx,positions_test_new.xlsx,stimuli.xlsx,stimuli_new.xlsx,stimuli/Social2.png,stimuli/Social1.png,stimuli/Nonsocial2.png,stimuli/Nonsocial1.png,stimuli/Social4.png,stimuli/Social3.png,stimuli/Nonsocial4.png,stimuli/Nonsocial3.png,cs_pos_ns,,,,,,,,,,0,0,0,0,0,0,0,3,,,,,,,,,,,,,,,,,,,,,,,,,,,,,,,,,,,,,12.4497687999974,191.49773009998898,203.0730540999939,5.0,9.297266099994886,,,,,,,,,,,,,,,,,,,,,,,,,,,,,,,,,25,B,2024-05-01_10h21.31.917,attentional_competition_task,2022.2.4,144.12793947356295,
positions.xlsx,positions_test.xlsx,positions_test_new.xlsx,stimuli.xlsx,stimuli_new.xlsx,stimuli/Social2.png,stimuli/Social1.png,stimuli/Nonsocial2.png,stimuli/Nonsocial1.png,stimuli/Social4.png,stimuli/Social3.png,stimuli/Nonsocial4.png,stimuli/Nonsocial3.png,cs_neg_s,,,,,,,,,,0,0,0,0,0,1,1,0,,,,,,,,,,,,,,,,,,,,,,,,,,,,,,,,,,,,,,,213.26704819999577,5.0,4.759089999992284,,,,,,,,,,,,,,,,,,,,,,,,,,,,,,,,,25,B,2024-05-01_10h21.31.917,attentional_competition_task,2022.2.4,144.12793947356295,
positions.xlsx,positions_test.xlsx,positions_test_new.xlsx,stimuli.xlsx,stimuli_new.xlsx,stimuli/Social2.png,stimuli/Social1.png,stimuli/Nonsocial2.png,stimuli/Nonsocial1.png,stimuli/Social4.png,stimuli/Social3.png,stimuli/Nonsocial4.png,stimuli/Nonsocial3.png,cs_pos_s,,,,,,,,,,0,0,0,0,0,2,2,2,,,,,,,,,,,,,,,,,,,,,,,,,,,,,,,,,,,,,,,219.00295939999341,4.0,2.2384122000075877,,,,,,,,,,,,,,,,,,,,,,,,,,,,,,,,,25,B,2024-05-01_10h21.31.917,attentional_competition_task,2022.2.4,144.12793947356295,
positions.xlsx,positions_test.xlsx,positions_test_new.xlsx,stimuli.xlsx,stimuli_new.xlsx,stimuli/Social2.png,stimuli/Social1.png,stimuli/Nonsocial2.png,stimuli/Nonsocial1.png,stimuli/Social4.png,stimuli/Social3.png,stimuli/Nonsocial4.png,stimuli/Nonsocial3.png,cs_neg_ns,,,,,,,,,,0,0,0,0,0,3,3,1,,,,,,,,,,,,,,,,,,,,,,,,,,,,,,,,,,,,,,,221.8639722999942,7.0,2.95230590000574,,,,,,,,,,,,,,,,,,,,,,,,,,,,,,,,,25,B,2024-05-01_10h21.31.917,attentional_competition_task,2022.2.4,144.12793947356295,
positions.xlsx,positions_test.xlsx,positions_test_new.xlsx,stimuli.xlsx,stimuli_new.xlsx,stimuli/Social2.png,stimuli/Social1.png,stimuli/Nonsocial2.png,stimuli/Nonsocial1.png,stimuli/Social4.png,stimuli/Social3.png,stimuli/Nonsocial4.png,stimuli/Nonsocial3.png,,,,,,,,,,,0,0,0,0,,,,,0,0,0,0,,,,,,,,,,,,,,,,,,,,,,,,,,,,,,,,,,,,,,225.4124155999889,"[[0.0, -0.30000000000000004], [0.6749999999999999, 0.19999999999999996], [0.9, 0.7], [-0.45, -0.30000000000000004], [-0.9, 0.7], [0.22499999999999998, -0.8], [0.0, -0.8], [0.9, 0.19999999999999996], [-0.45, -0.8], [-0.675, -0.30000000000000004], [0.22499999999999998, -0.30000000000000004], [-0.22499999999999998, 0.7], [-0.45, 0.7], [0.22499999999999998, 0.19999999999999996], [-0.675, 0.19999999999999996]]","[[-0.9, -0.30000000000000004], [0.22499999999999998, 0.7], [0.45000000000000007, -0.8], [-0.9, -0.8], [0.6749999999999999, -0.8], [-0.9, 0.19999999999999996], [0.45000000000000007, 0.7], [0.6749999999999999, -0.30000000000000004], [-0.45, 0.19999999999999996], [0.0, 0.19999999999999996], [0.6749999999999999, 0.7], [0.0, 0.7], [-0.675, 0.7], [0.9, -0.8], [-0.675, -0.8]]",,,,,,,,,,,,,,,,,,,,,,,,,,,,,,25,B,2024-05-01_10h21.31.917,attentional_competition_task,2022.2.4,144.12793947356295,
positions.xlsx,positions_test.xlsx,positions_test_new.xlsx,stimuli.xlsx,stimuli_new.xlsx,stimuli/Social2.png,stimuli/Social1.png,stimuli/Nonsocial2.png,stimuli/Nonsocial1.png,stimuli/Social4.png,stimuli/Social3.png,stimuli/Nonsocial4.png,stimuli/Nonsocial3.png,,,,,,,,,,,0,0,0,0,,,,,1,0,1,0,,,,,,,,,,,,,,,,,,,,,,,,,,,,,,,,,,,,,,,"[[-0.22499999999999998, 0.7], [-0.22499999999999998, 0.19999999999999996], [-0.45, 0.19999999999999996], [0.0, -0.30000000000000004], [0.0, -0.8], [-0.45, 0.7], [0.45000000000000007, -0.30000000000000004], [-0.9, 0.7], [0.45000000000000007, 0.7], [0.22499999999999998, -0.8], [0.22499999999999998, 0.7], [-0.675, 0.19999999999999996], [0.9, 0.19999999999999996], [-0.675, -0.8], [-0.9, -0.8]]","[[0.45000000000000007, 0.19999999999999996], [-0.9, 0.19999999999999996], [0.22499999999999998, -0.30000000000000004], [0.9, -0.8], [-0.675, -0.30000000000000004], [0.9, 0.7], [-0.675, 0.7], [0.6749999999999999, 0.19999999999999996], [0.9, -0.30000000000000004], [-0.22499999999999998, -0.30000000000000004], [-0.45, -0.30000000000000004], [-0.45, -0.8], [0.0, 0.19999999999999996], [-0.22499999999999998, -0.8], [0.6749999999999999, 0.7]]",,,,,,,,,,,,,,,,,,,,,,,,,,,,,,25,B,2024-05-01_10h21.31.917,attentional_competition_task,2022.2.4,144.12793947356295,
positions.xlsx,positions_test.xlsx,positions_test_new.xlsx,stimuli.xlsx,stimuli_new.xlsx,stimuli/Social2.png,stimuli/Social1.png,stimuli/Nonsocial2.png,stimuli/Nonsocial1.png,stimuli/Social4.png,stimuli/Social3.png,stimuli/Nonsocial4.png,stimuli/Nonsocial3.png,cs_neg_ns,"(0.7, -0.5)",,,,,,,,,0,0,0,0,,,,,,,,,0,0,0,11,,,,,,,,,,,,,,,,,,,,,,,,,,,,,,,,,,,,,308.6937958999915,332.99140429998806,-3,loss,1,0.3823955000116257,0.3823990000091726,333.39422649999324,,,,,,,,,,,,,,,,,,,,,,25,B,2024-05-01_10h21.31.917,attentional_competition_task,2022.2.4,144.12793947356295,
positions.xlsx,positions_test.xlsx,positions_test_new.xlsx,stimuli.xlsx,stimuli_new.xlsx,stimuli/Social2.png,stimuli/Social1.png,stimuli/Nonsocial2.png,stimuli/Nonsocial1.png,stimuli/Social4.png,stimuli/Social3.png,stimuli/Nonsocial4.png,stimuli/Nonsocial3.png,cs_pos_s,"(-0.7, -0.5)",,,,,,,,,0,0,0,0,,,,,,,,,0,1,1,5,,,,,,,,,,,,,,,,,,,,,,,,,,,,,,,,,,,,,,340.7827311000001,-3,none,0,,,343.79650989999936,,,,,,,,,,,,,,,,,,,,,,25,B,2024-05-01_10h21.31.917,attentional_competition_task,2022.2.4,144.12793947356295,
positions.xlsx,positions_test.xlsx,positions_test_new.xlsx,stimuli.xlsx,stimuli_new.xlsx,stimuli/Social2.png,stimuli/Social1.png,stimuli/Nonsocial2.png,stimuli/Nonsocial1.png,stimuli/Social4.png,stimuli/Social3.png,stimuli/Nonsocial4.png,stimuli/Nonsocial3.png,cs_neg_s,"(-0.7, -0.5)",,,,,,,,,0,0,0,0,,,,,,,,,0,2,2,1,,,,,,,,,,,,,,,,,,,,,,,,,,,,,,,,,,,,,,351.77537759998813,-6,loss,1,0.41012649999174755,0.41013000000384636,352.19201359999715,,,,,,,,,,,,,,,,,,,,,,25,B,2024-05-01_10h21.31.917,attentional_competition_task,2022.2.4,144.12793947356295,
positions.xlsx,positions_test.xlsx,positions_test_new.xlsx,stimuli.xlsx,stimuli_new.xlsx,stimuli/Social2.png,stimuli/Social1.png,stimuli/Nonsocial2.png,stimuli/Nonsocial1.png,stimuli/Social4.png,stimuli/Social3.png,stimuli/Nonsocial4.png,stimuli/Nonsocial3.png,cs_pos_s,"(0.7, 0.5)",,,,,,,,,0,0,0,0,,,,,,,,,0,3,3,6,,,,,,,,,,,,,,,,,,,,,,,,,,,,,,,,,,,,,,360.2959225999948,-6,none,0,,,363.3027204999962,,,,,,,,,,,,,,,,,,,,,,25,B,2024-05-01_10h21.31.917,attentional_competition_task,2022.2.4,144.12793947356295,
positions.xlsx,positions_test.xlsx,positions_test_new.xlsx,stimuli.xlsx,stimuli_new.xlsx,stimuli/Social2.png,stimuli/Social1.png,stimuli/Nonsocial2.png,stimuli/Nonsocial1.png,stimuli/Social4.png,stimuli/Social3.png,stimuli/Nonsocial4.png,stimuli/Nonsocial3.png,cs_neg_ns,"(0.7, 0.5)",,,,,,,,,0,0,0,0,,,,,,,,,0,4,4,10,,,,,,,,,,,,,,,,,,,,,,,,,,,,,,,,,,,,,,370.9481723999925,-6,none,0,,,373.9620079999877,,,,,,,,,,,,,,,,,,,,,,25,B,2024-05-01_10h21.31.917,attentional_competition_task,2022.2.4,144.12793947356295,
positions.xlsx,positions_test.xlsx,positions_test_new.xlsx,stimuli.xlsx,stimuli_new.xlsx,stimuli/Social2.png,stimuli/Social1.png,stimuli/Nonsocial2.png,stimuli/Nonsocial1.png,stimuli/Social4.png,stimuli/Social3.png,stimuli/Nonsocial4.png,stimuli/Nonsocial3.png,cs_neg_s,"(-0.7, 0.5)",,,,,,,,,0,0,0,0,,,,,,,,,0,5,5,0,,,,,,,,,,,,,,,,,,,,,,,,,,,,,,,,,,,,,,381.48249450000003,-6,none,0,,,384.489345199996,,,,,,,,,,,,,,,,,,,,,,25,B,2024-05-01_10h21.31.917,attentional_competition_task,2022.2.4,144.12793947356295,
positions.xlsx,positions_test.xlsx,positions_test_new.xlsx,stimuli.xlsx,stimuli_new.xlsx,stimuli/Social2.png,stimuli/Social1.png,stimuli/Nonsocial2.png,stimuli/Nonsocial1.png,stimuli/Social4.png,stimuli/Social3.png,stimuli/Nonsocial4.png,stimuli/Nonsocial3.png,cs_neg_ns,"(-0.7, -0.5)",,,,,,,,,0,0,0,0,,,,,,,,,0,6,6,9,,,,,,,,,,,,,,,,,,,,,,,,,,,,,,,,,,,,,,391.85016649999307,-9,loss,1,0.5767052000010153,0.5767086999985622,392.4334386999981,,,,,,,,,,,,,,,,,,,,,,25,B,2024-05-01_10h21.31.917,attentional_competition_task,2022.2.4,144.12793947356295,
positions.xlsx,positions_test.xlsx,positions_test_new.xlsx,stimuli.xlsx,stimuli_new.xlsx,stimuli/Social2.png,stimuli/Social1.png,stimuli/Nonsocial2.png,stimuli/Nonsocial1.png,stimuli/Social4.png,stimuli/Social3.png,stimuli/Nonsocial4.png,stimuli/Nonsocial3.png,cs_pos_ns,"(0.7, -0.5)",,,,,,,,,0,0,0,0,,,,,,,,,0,7,7,15,,,,,,,,,,,,,,,,,,,,,,,,,,,,,,,,,,,,,,400.2942410999967,-6,reward,1,1.0700409000128275,1.0700445000111358,401.37054619999253,,,,,,,,,,,,,,,,,,,,,,25,B,2024-05-01_10h21.31.917,attentional_competition_task,2022.2.4,144.12793947356295,
positions.xlsx,positions_test.xlsx,positions_test_new.xlsx,stimuli.xlsx,stimuli_new.xlsx,stimuli/Social2.png,stimuli/Social1.png,stimuli/Nonsocial2.png,stimuli/Nonsocial1.png,stimuli/Social4.png,stimuli/Social3.png,stimuli/Nonsocial4.png,stimuli/Nonsocial3.png,cs_neg_ns,"(-0.7, 0.5)",,,,,,,,,0,0,0,0,,,,,,,,,0,8,8,8,,,,,,,,,,,,,,,,,,,,,,,,,,,,,,,,,,,,,,408.793912899986,-9,loss,1,0.5766387000039686,0.5766425999900093,409.37725189999037,,,,,,,,,,,,,,,,,,,,,,25,B,2024-05-01_10h21.31.917,attentional_competition_task,2022.2.4,144.12793947356295,
positions.xlsx,positions_test.xlsx,positions_test_new.xlsx,stimuli.xlsx,stimuli_new.xlsx,stimuli/Social2.png,stimuli/Social1.png,stimuli/Nonsocial2.png,stimuli/Nonsocial1.png,stimuli/Social4.png,stimuli/Social3.png,stimuli/Nonsocial4.png,stimuli/Nonsocial3.png,cs_pos_ns,"(-0.7, -0.5)",,,,,,,,,0,0,0,0,,,,,,,,,0,9,9,13,,,,,,,,,,,,,,,,,,,,,,,,,,,,,,,,,,,,,,416.8907765999902,-6,reward,1,0.4313540000002831,0.43135749999783,417.32832909999706,,,,,,,,,,,,,,,,,,,,,,25,B,2024-05-01_10h21.31.917,attentional_competition_task,2022.2.4,144.12793947356295,
positions.xlsx,positions_test.xlsx,positions_test_new.xlsx,stimuli.xlsx,stimuli_new.xlsx,stimuli/Social2.png,stimuli/Social1.png,stimuli/Nonsocial2.png,stimuli/Nonsocial1.png,stimuli/Social4.png,stimuli/Social3.png,stimuli/Nonsocial4.png,stimuli/Nonsocial3.png,cs_pos_s,"(0.7, -0.5)",,,,,,,,,0,0,0,0,,,,,,,,,0,10,10,7,,,,,,,,,,,,,,,,,,,,,,,,,,,,,,,,,,,,,,425.0363118999958,-3,reward,1,2.0281679000036092,2.0281717000034405,427.0709188999899,,,,,,,,,,,,,,,,,,,,,,25,B,2024-05-01_10h21.31.917,attentional_competition_task,2022.2.4,144.12793947356295,
positions.xlsx,positions_test.xlsx,positions_test_new.xlsx,stimuli.xlsx,stimuli_new.xlsx,stimuli/Social2.png,stimuli/Social1.png,stimuli/Nonsocial2.png,stimuli/Nonsocial1.png,stimuli/Social4.png,stimuli/Social3.png,stimuli/Nonsocial4.png,stimuli/Nonsocial3.png,cs_pos_ns,"(0.7, 0.5)",,,,,,,,,0,0,0,0,,,,,,,,,0,11,11,14,,,,,,,,,,,,,,,,,,,,,,,,,,,,,,,,,,,,,,434.5150896999985,0,reward,1,0.4863015000009909,0.4863050999992993,435.00811929999327,,,,,,,,,,,,,,,,,,,,,,25,B,2024-05-01_10h21.31.917,attentional_competition_task,2022.2.4,144.12793947356295,
positions.xlsx,positions_test.xlsx,positions_test_new.xlsx,stimuli.xlsx,stimuli_new.xlsx,stimuli/Social2.png,stimuli/Social1.png,stimuli/Nonsocial2.png,stimuli/Nonsocial1.png,stimuli/Social4.png,stimuli/Social3.png,stimuli/Nonsocial4.png,stimuli/Nonsocial3.png,cs_pos_s,"(-0.7, 0.5)",,,,,,,,,0,0,0,0,,,,,,,,,0,12,12,4,,,,,,,,,,,,,,,,,,,,,,,,,,,,,,,,,,,,,,442.0842152999976,3,reward,1,1.4167860000015935,1.4167894999991404,443.5077619999938,,,,,,,,,,,,,,,,,,,,,,25,B,2024-05-01_10h21.31.917,attentional_competition_task,2022.2.4,144.12793947356295,
positions.xlsx,positions_test.xlsx,positions_test_new.xlsx,stimuli.xlsx,stimuli_new.xlsx,stimuli/Social2.png,stimuli/Social1.png,stimuli/Nonsocial2.png,stimuli/Nonsocial1.png,stimuli/Social4.png,stimuli/Social3.png,stimuli/Nonsocial4.png,stimuli/Nonsocial3.png,cs_pos_ns,"(-0.7, 0.5)",,,,,,,,,0,0,0,0,,,,,,,,,0,13,13,12,,,,,,,,,,,,,,,,,,,,,,,,,,,,,,,,,,,,,,451.65326659999846,3,none,0,,,454.6670324999868,,,,,,,,,,,,,,,,,,,,,,25,B,2024-05-01_10h21.31.917,attentional_competition_task,2022.2.4,144.12793947356295,
positions.xlsx,positions_test.xlsx,positions_test_new.xlsx,stimuli.xlsx,stimuli_new.xlsx,stimuli/Social2.png,stimuli/Social1.png,stimuli/Nonsocial2.png,stimuli/Nonsocial1.png,stimuli/Social4.png,stimuli/Social3.png,stimuli/Nonsocial4.png,stimuli/Nonsocial3.png,cs_neg_s,"(0.7, 0.5)",,,,,,,,,0,0,0,0,,,,,,,,,0,14,14,2,,,,,,,,,,,,,,,,,,,,,,,,,,,,,,,,,,,,,,461.68762309999147,0,loss,0,,,462.1667454999988,,,,,,,,,,,,,,,,,,,,,,25,B,2024-05-01_10h21.31.917,attentional_competition_task,2022.2.4,144.12793947356295,
positions.xlsx,positions_test.xlsx,positions_test_new.xlsx,stimuli.xlsx,stimuli_new.xlsx,stimuli/Social2.png,stimuli/Social1.png,stimuli/Nonsocial2.png,stimuli/Nonsocial1.png,stimuli/Social4.png,stimuli/Social3.png,stimuli/Nonsocial4.png,stimuli/Nonsocial3.png,cs_neg_s,"(0.7, -0.5)",,,,,,,,,0,0,0,0,,,,,,,,,0,15,15,3,,,,,,,,,,,,,,,,,,,,,,,,,,,,,,,,,,,,,,470.22194359998684,-3,loss,1,0.7432088000059593,0.7432123000035062,470.9719566999993,,,,,,,,,,,,,,,,,,,,,,25,B,2024-05-01_10h21.31.917,attentional_competition_task,2022.2.4,144.12793947356295,
positions.xlsx,positions_test.xlsx,positions_test_new.xlsx,stimuli.xlsx,stimuli_new.xlsx,stimuli/Social2.png,stimuli/Social1.png,stimuli/Nonsocial2.png,stimuli/Nonsocial1.png,stimuli/Social4.png,stimuli/Social3.png,stimuli/Nonsocial4.png,stimuli/Nonsocial3.png,cs_pos_s,"(0.7, -0.5)",,,,,,,,,0,0,0,0,,,,,,,,,1,0,16,7,,,,,,,,,,,,,,,,,,,,,,,,,,,,,,,,,,,,,,479.2285195999866,0,reward,1,0.9585345000086818,0.9585382000077516,480.1937736999971,,,,,,,,,,,,,,,,,,,,,,25,B,2024-05-01_10h21.31.917,attentional_competition_task,2022.2.4,144.12793947356295,
positions.xlsx,positions_test.xlsx,positions_test_new.xlsx,stimuli.xlsx,stimuli_new.xlsx,stimuli/Social2.png,stimuli/Social1.png,stimuli/Nonsocial2.png,stimuli/Nonsocial1.png,stimuli/Social4.png,stimuli/Social3.png,stimuli/Nonsocial4.png,stimuli/Nonsocial3.png,cs_neg_s,"(0.7, 0.5)",,,,,,,,,0,0,0,0,,,,,,,,,1,1,17,2,,,,,,,,,,,,,,,,,,,,,,,,,,,,,,,,,,,,,,488.12400609999895,0,none,0,,,491.13776279999,,,,,,,,,,,,,,,,,,,,,,25,B,2024-05-01_10h21.31.917,attentional_competition_task,2022.2.4,144.12793947356295,
positions.xlsx,positions_test.xlsx,positions_test_new.xlsx,stimuli.xlsx,stimuli_new.xlsx,stimuli/Social2.png,stimuli/Social1.png,stimuli/Nonsocial2.png,stimuli/Nonsocial1.png,stimuli/Social4.png,stimuli/Social3.png,stimuli/Nonsocial4.png,stimuli/Nonsocial3.png,cs_pos_ns,"(0.7, 0.5)",,,,,,,,,0,0,0,0,,,,,,,,,1,2,18,14,,,,,,,,,,,,,,,,,,,,,,,,,,,,,,,,,,,,,,498.10973009999725,3,reward,1,0.5210631000081776,0.521066500004963,498.63749979999557,,,,,,,,,,,,,,,,,,,,,,25,B,2024-05-01_10h21.31.917,attentional_competition_task,2022.2.4,144.12793947356295,
positions.xlsx,positions_test.xlsx,positions_test_new.xlsx,stimuli.xlsx,stimuli_new.xlsx,stimuli/Social2.png,stimuli/Social1.png,stimuli/Nonsocial2.png,stimuli/Nonsocial1.png,stimuli/Social4.png,stimuli/Social3.png,stimuli/Nonsocial4.png,stimuli/Nonsocial3.png,cs_pos_s,"(0.7, 0.5)",,,,,,,,,0,0,0,0,,,,,,,,,1,3,19,6,,,,,,,,,,,,,,,,,,,,,,,,,,,,,,,,,,,,,,506.7066025999957,6,reward,1,0.646145599996089,0.6461491999943973,507.3593426999869,,,,,,,,,,,,,,,,,,,,,,25,B,2024-05-01_10h21.31.917,attentional_competition_task,2022.2.4,144.12793947356295,
positions.xlsx,positions_test.xlsx,positions_test_new.xlsx,stimuli.xlsx,stimuli_new.xlsx,stimuli/Social2.png,stimuli/Social1.png,stimuli/Nonsocial2.png,stimuli/Nonsocial1.png,stimuli/Social4.png,stimuli/Social3.png,stimuli/Nonsocial4.png,stimuli/Nonsocial3.png,cs_neg_ns,"(-0.7, 0.5)",,,,,,,,,0,0,0,0,,,,,,,,,1,4,20,8,,,,,,,,,,,,,,,,,,,,,,,,,,,,,,,,,,,,,,515.4631645999907,3,loss,1,0.47194329999911133,0.4719469999981811,515.9423155999975,,,,,,,,,,,,,,,,,,,,,,25,B,2024-05-01_10h21.31.917,attentional_competition_task,2022.2.4,144.12793947356295,
positions.xlsx,positions_test.xlsx,positions_test_new.xlsx,stimuli.xlsx,stimuli_new.xlsx,stimuli/Social2.png,stimuli/Social1.png,stimuli/Nonsocial2.png,stimuli/Nonsocial1.png,stimuli/Social4.png,stimuli/Social3.png,stimuli/Nonsocial4.png,stimuli/Nonsocial3.png,cs_neg_ns,"(0.7, 0.5)",,,,,,,,,0,0,0,0,,,,,,,,,1,5,21,10,,,,,,,,,,,,,,,,,,,,,,,,,,,,,,,,,,,,,,523.282317899997,3,none,0,,,526.2961229999928,,,,,,,,,,,,,,,,,,,,,,25,B,2024-05-01_10h21.31.917,attentional_competition_task,2022.2.4,144.12793947356295,
positions.xlsx,positions_test.xlsx,positions_test_new.xlsx,stimuli.xlsx,stimuli_new.xlsx,stimuli/Social2.png,stimuli/Social1.png,stimuli/Nonsocial2.png,stimuli/Nonsocial1.png,stimuli/Social4.png,stimuli/Social3.png,stimuli/Nonsocial4.png,stimuli/Nonsocial3.png,cs_pos_ns,"(-0.7, -0.5)",,,,,,,,,0,0,0,0,,,,,,,,,1,6,22,13,,,,,,,,,,,,,,,,,,,,,,,,,,,,,,,,,,,,,,533.0249732999946,6,reward,1,1.3407339000114007,1.3407378000119934,534.3721214999969,,,,,,,,,,,,,,,,,,,,,,25,B,2024-05-01_10h21.31.917,attentional_competition_task,2022.2.4,144.12793947356295,
positions.xlsx,positions_test.xlsx,positions_test_new.xlsx,stimuli.xlsx,stimuli_new.xlsx,stimuli/Social2.png,stimuli/Social1.png,stimuli/Nonsocial2.png,stimuli/Nonsocial1.png,stimuli/Social4.png,stimuli/Social3.png,stimuli/Nonsocial4.png,stimuli/Nonsocial3.png,cs_neg_s,"(0.7, -0.5)",,,,,,,,,0,0,0,0,,,,,,,,,1,7,23,3,,,,,,,,,,,,,,,,,,,,,,,,,,,,,,,,,,,,,,541.3163120999961,6,none,0,,,544.330100799998,,,,,,,,,,,,,,,,,,,,,,25,B,2024-05-01_10h21.31.917,attentional_competition_task,2022.2.4,144.12793947356295,
positions.xlsx,positions_test.xlsx,positions_test_new.xlsx,stimuli.xlsx,stimuli_new.xlsx,stimuli/Social2.png,stimuli/Social1.png,stimuli/Nonsocial2.png,stimuli/Nonsocial1.png,stimuli/Social4.png,stimuli/Social3.png,stimuli/Nonsocial4.png,stimuli/Nonsocial3.png,cs_neg_ns,"(-0.7, -0.5)",,,,,,,,,0,0,0,0,,,,,,,,,1,8,24,9,,,,,,,,,,,,,,,,,,,,,,,,,,,,,,,,,,,,,,551.5936468,3,loss,1,0.5628003000019817,0.5628037999995286,552.163103599989,,,,,,,,,,,,,,,,,,,,,,25,B,2024-05-01_10h21.31.917,attentional_competition_task,2022.2.4,144.12793947356295,
positions.xlsx,positions_test.xlsx,positions_test_new.xlsx,stimuli.xlsx,stimuli_new.xlsx,stimuli/Social2.png,stimuli/Social1.png,stimuli/Nonsocial2.png,stimuli/Nonsocial1.png,stimuli/Social4.png,stimuli/Social3.png,stimuli/Nonsocial4.png,stimuli/Nonsocial3.png,cs_pos_s,"(-0.7, 0.5)",,,,,,,,,0,0,0,0,,,,,,,,,1,9,25,4,,,,,,,,,,,,,,,,,,,,,,,,,,,,,,,,,,,,,,560.1627530999976,6,reward,1,0.22291289998975117,0.22291679999034386,560.3919008999947,,,,,,,,,,,,,,,,,,,,,,25,B,2024-05-01_10h21.31.917,attentional_competition_task,2022.2.4,144.12793947356295,
positions.xlsx,positions_test.xlsx,positions_test_new.xlsx,stimuli.xlsx,stimuli_new.xlsx,stimuli/Social2.png,stimuli/Social1.png,stimuli/Nonsocial2.png,stimuli/Nonsocial1.png,stimuli/Social4.png,stimuli/Social3.png,stimuli/Nonsocial4.png,stimuli/Nonsocial3.png,cs_pos_ns,"(-0.7, 0.5)",,,,,,,,,0,0,0,0,,,,,,,,,1,10,26,12,,,,,,,,,,,,,,,,,,,,,,,,,,,,,,,,,,,,,,567.6069600999908,9,reward,1,0.6671041999943554,0.6671078999934252,568.280471399994,,,,,,,,,,,,,,,,,,,,,,25,B,2024-05-01_10h21.31.917,attentional_competition_task,2022.2.4,144.12793947356295,
positions.xlsx,positions_test.xlsx,positions_test_new.xlsx,stimuli.xlsx,stimuli_new.xlsx,stimuli/Social2.png,stimuli/Social1.png,stimuli/Nonsocial2.png,stimuli/Nonsocial1.png,stimuli/Social4.png,stimuli/Social3.png,stimuli/Nonsocial4.png,stimuli/Nonsocial3.png,cs_neg_s,"(-0.7, 0.5)",,,,,,,,,0,0,0,0,,,,,,,,,1,11,27,0,,,,,,,,,,,,,,,,,,,,,,,,,,,,,,,,,,,,,,575.5927196999983,6,loss,1,1.2920827999914763,1.2920862999890232,576.8913116999902,,,,,,,,,,,,,,,,,,,,,,25,B,2024-05-01_10h21.31.917,attentional_competition_task,2022.2.4,144.12793947356295,
positions.xlsx,positions_test.xlsx,positions_test_new.xlsx,stimuli.xlsx,stimuli_new.xlsx,stimuli/Social2.png,stimuli/Social1.png,stimuli/Nonsocial2.png,stimuli/Nonsocial1.png,stimuli/Social4.png,stimuli/Social3.png,stimuli/Nonsocial4.png,stimuli/Nonsocial3.png,cs_neg_s,"(-0.7, -0.5)",,,,,,,,,0,0,0,0,,,,,,,,,1,12,28,1,,,,,,,,,,,,,,,,,,,,,,,,,,,,,,,,,,,,,,584.6063114999997,6,none,0,,,587.6131095999881,,,,,,,,,,,,,,,,,,,,,,25,B,2024-05-01_10h21.31.917,attentional_competition_task,2022.2.4,144.12793947356295,
positions.xlsx,positions_test.xlsx,positions_test_new.xlsx,stimuli.xlsx,stimuli_new.xlsx,stimuli/Social2.png,stimuli/Social1.png,stimuli/Nonsocial2.png,stimuli/Nonsocial1.png,stimuli/Social4.png,stimuli/Social3.png,stimuli/Nonsocial4.png,stimuli/Nonsocial3.png,cs_pos_s,"(-0.7, -0.5)",,,,,,,,,0,0,0,0,,,,,,,,,1,13,29,5,,,,,,,,,,,,,,,,,,,,,,,,,,,,,,,,,,,,,,594.855894399996,9,reward,1,0.6668424999952549,0.6668458000058308,595.529409499999,,,,,,,,,,,,,,,,,,,,,,25,B,2024-05-01_10h21.31.917,attentional_competition_task,2022.2.4,144.12793947356295,
positions.xlsx,positions_test.xlsx,positions_test_new.xlsx,stimuli.xlsx,stimuli_new.xlsx,stimuli/Social2.png,stimuli/Social1.png,stimuli/Nonsocial2.png,stimuli/Nonsocial1.png,stimuli/Social4.png,stimuli/Social3.png,stimuli/Nonsocial4.png,stimuli/Nonsocial3.png,cs_pos_ns,"(0.7, -0.5)",,,,,,,,,0,0,0,0,,,,,,,,,1,14,30,15,,,,,,,,,,,,,,,,,,,,,,,,,,,,,,,,,,,,,,603.4388113999885,12,reward,1,0.8060286000109045,0.8060325999977067,604.2513379999873,,,,,,,,,,,,,,,,,,,,,,25,B,2024-05-01_10h21.31.917,attentional_competition_task,2022.2.4,144.12793947356295,
positions.xlsx,positions_test.xlsx,positions_test_new.xlsx,stimuli.xlsx,stimuli_new.xlsx,stimuli/Social2.png,stimuli/Social1.png,stimuli/Nonsocial2.png,stimuli/Nonsocial1.png,stimuli/Social4.png,stimuli/Social3.png,stimuli/Nonsocial4.png,stimuli/Nonsocial3.png,cs_neg_ns,"(0.7, -0.5)",,,,,,,,,0,0,0,0,,,,,,,,,1,15,31,11,,,,,,,,,,,,,,,,,,,,,,,,,,,,,,,,,,,,,,611.7856943999941,12,none,0,,,614.7994990999869,,,,,,,,,,,,,,,,,,,,,,25,B,2024-05-01_10h21.31.917,attentional_competition_task,2022.2.4,144.12793947356295,
positions.xlsx,positions_test.xlsx,positions_test_new.xlsx,stimuli.xlsx,stimuli_new.xlsx,stimuli/Social2.png,stimuli/Social1.png,stimuli/Nonsocial2.png,stimuli/Nonsocial1.png,stimuli/Social4.png,stimuli/Social3.png,stimuli/Nonsocial4.png,stimuli/Nonsocial3.png,cs_neg_ns,"(-0.7, 0.5)",,,,,,,,,0,0,0,0,,,,,,,,,,,,,0,0,0,8,,,,,,,,,,,,,,,,,,,,,,,,,,,,,,,,,,635.4583684999961,12,none,0,,,638.4721257999918,,,,,,,,,,,,,,,,,,,,,,25,B,2024-05-01_10h21.31.917,attentional_competition_task,2022.2.4,144.12793947356295,
positions.xlsx,positions_test.xlsx,positions_test_new.xlsx,stimuli.xlsx,stimuli_new.xlsx,stimuli/Social2.png,stimuli/Social1.png,stimuli/Nonsocial2.png,stimuli/Nonsocial1.png,stimuli/Social4.png,stimuli/Social3.png,stimuli/Nonsocial4.png,stimuli/Nonsocial3.png,cs_pos_ns,"(-0.7, 0.5)",,,,,,,,,0,0,0,0,,,,,,,,,,,,,0,1,1,12,,,,,,,,,,,,,,,,,,,,,,,,,,,,,,,,,,645.6454502999986,15,reward,1,0.7569946000003256,0.7569982999993954,646.4092912999913,,,,,,,,,,,,,,,,,,,,,,25,B,2024-05-01_10h21.31.917,attentional_competition_task,2022.2.4,144.12793947356295,
positions.xlsx,positions_test.xlsx,positions_test_new.xlsx,stimuli.xlsx,stimuli_new.xlsx,stimuli/Social2.png,stimuli/Social1.png,stimuli/Nonsocial2.png,stimuli/Nonsocial1.png,stimuli/Social4.png,stimuli/Social3.png,stimuli/Nonsocial4.png,stimuli/Nonsocial3.png,cs_pos_s,"(0.7, -0.5)",,,,,,,,,0,0,0,0,,,,,,,,,,,,,0,2,2,7,,,,,,,,,,,,,,,,,,,,,,,,,,,,,,,,,,653.9784404999955,18,reward,1,1.167230799997924,1.1672351000015624,655.15899299999,,,,,,,,,,,,,,,,,,,,,,25,B,2024-05-01_10h21.31.917,attentional_competition_task,2022.2.4,144.12793947356295,
positions.xlsx,positions_test.xlsx,positions_test_new.xlsx,stimuli.xlsx,stimuli_new.xlsx,stimuli/Social2.png,stimuli/Social1.png,stimuli/Nonsocial2.png,stimuli/Nonsocial1.png,stimuli/Social4.png,stimuli/Social3.png,stimuli/Nonsocial4.png,stimuli/Nonsocial3.png,cs_neg_s,"(-0.7, -0.5)",,,,,,,,,0,0,0,0,,,,,,,,,,,,,0,3,3,1,,,,,,,,,,,,,,,,,,,,,,,,,,,,,,,,,,662.6517119999917,18,none,0,,,665.6585429999977,,,,,,,,,,,,,,,,,,,,,,25,B,2024-05-01_10h21.31.917,attentional_competition_task,2022.2.4,144.12793947356295,
positions.xlsx,positions_test.xlsx,positions_test_new.xlsx,stimuli.xlsx,stimuli_new.xlsx,stimuli/Social2.png,stimuli/Social1.png,stimuli/Nonsocial2.png,stimuli/Nonsocial1.png,stimuli/Social4.png,stimuli/Social3.png,stimuli/Nonsocial4.png,stimuli/Nonsocial3.png,cs_neg_ns,"(-0.7, -0.5)",,,,,,,,,0,0,0,0,,,,,,,,,,,,,0,4,4,9,,,,,,,,,,,,,,,,,,,,,,,,,,,,,,,,,,673.6095888999989,18,none,0,,,676.6164170999982,,,,,,,,,,,,,,,,,,,,,,25,B,2024-05-01_10h21.31.917,attentional_competition_task,2022.2.4,144.12793947356295,
positions.xlsx,positions_test.xlsx,positions_test_new.xlsx,stimuli.xlsx,stimuli_new.xlsx,stimuli/Social2.png,stimuli/Social1.png,stimuli/Nonsocial2.png,stimuli/Nonsocial1.png,stimuli/Social4.png,stimuli/Social3.png,stimuli/Nonsocial4.png,stimuli/Nonsocial3.png,cs_pos_s,"(-0.7, -0.5)",,,,,,,,,0,0,0,0,,,,,,,,,,,,,0,5,5,5,,,,,,,,,,,,,,,,,,,,,,,,,,,,,,,,,,684.8313994999917,21,reward,1,0.6179871000058483,0.6179909000056796,685.4563893999875,,,,,,,,,,,,,,,,,,,,,,25,B,2024-05-01_10h21.31.917,attentional_competition_task,2022.2.4,144.12793947356295,
positions.xlsx,positions_test.xlsx,positions_test_new.xlsx,stimuli.xlsx,stimuli_new.xlsx,stimuli/Social2.png,stimuli/Social1.png,stimuli/Nonsocial2.png,stimuli/Nonsocial1.png,stimuli/Social4.png,stimuli/Social3.png,stimuli/Nonsocial4.png,stimuli/Nonsocial3.png,cs_neg_s,"(0.7, 0.5)",,,,,,,,,0,0,0,0,,,,,,,,,,,,,0,6,6,2,,,,,,,,,,,,,,,,,,,,,,,,,,,,,,,,,,693.6296379999985,21,none,0,,,696.6364810999949,,,,,,,,,,,,,,,,,,,,,,25,B,2024-05-01_10h21.31.917,attentional_competition_task,2022.2.4,144.12793947356295,
positions.xlsx,positions_test.xlsx,positions_test_new.xlsx,stimuli.xlsx,stimuli_new.xlsx,stimuli/Social2.png,stimuli/Social1.png,stimuli/Nonsocial2.png,stimuli/Nonsocial1.png,stimuli/Social4.png,stimuli/Social3.png,stimuli/Nonsocial4.png,stimuli/Nonsocial3.png,cs_pos_s,"(0.7, 0.5)",,,,,,,,,0,0,0,0,,,,,,,,,,,,,0,7,7,6,,,,,,,,,,,,,,,,,,,,,,,,,,,,,,,,,,704.6153374999994,24,reward,1,0.6322084999992512,0.6322122999990825,705.2541692999948,,,,,,,,,,,,,,,,,,,,,,25,B,2024-05-01_10h21.31.917,attentional_competition_task,2022.2.4,144.12793947356295,
positions.xlsx,positions_test.xlsx,positions_test_new.xlsx,stimuli.xlsx,stimuli_new.xlsx,stimuli/Social2.png,stimuli/Social1.png,stimuli/Nonsocial2.png,stimuli/Nonsocial1.png,stimuli/Social4.png,stimuli/Social3.png,stimuli/Nonsocial4.png,stimuli/Nonsocial3.png,cs_neg_ns,"(0.7, -0.5)",,,,,,,,,0,0,0,0,,,,,,,,,,,,,0,8,8,11,,,,,,,,,,,,,,,,,,,,,,,,,,,,,,,,,,712.6288774999994,24,none,0,,,715.6426764999924,,,,,,,,,,,,,,,,,,,,,,25,B,2024-05-01_10h21.31.917,attentional_competition_task,2022.2.4,144.12793947356295,
positions.xlsx,positions_test.xlsx,positions_test_new.xlsx,stimuli.xlsx,stimuli_new.xlsx,stimuli/Social2.png,stimuli/Social1.png,stimuli/Nonsocial2.png,stimuli/Nonsocial1.png,stimuli/Social4.png,stimuli/Social3.png,stimuli/Nonsocial4.png,stimuli/Nonsocial3.png,cs_pos_ns,"(0.7, -0.5)",,,,,,,,,0,0,0,0,,,,,,,,,,,,,0,9,9,15,,,,,,,,,,,,,,,,,,,,,,,,,,,,,,,,,,723.2603611999948,27,reward,1,0.6251823000056902,0.6251864999940153,723.8922634999908,,,,,,,,,,,,,,,,,,,,,,25,B,2024-05-01_10h21.31.917,attentional_competition_task,2022.2.4,144.12793947356295,
positions.xlsx,positions_test.xlsx,positions_test_new.xlsx,stimuli.xlsx,stimuli_new.xlsx,stimuli/Social2.png,stimuli/Social1.png,stimuli/Nonsocial2.png,stimuli/Nonsocial1.png,stimuli/Social4.png,stimuli/Social3.png,stimuli/Nonsocial4.png,stimuli/Nonsocial3.png,cs_pos_ns,"(-0.7, -0.5)",,,,,,,,,0,0,0,0,,,,,,,,,,,,,0,10,10,13,,,,,,,,,,,,,,,,,,,,,,,,,,,,,,,,,,731.544753299997,30,reward,1,0.7291464000009,0.7291497999976855,732.2739008999924,,,,,,,,,,,,,,,,,,,,,,25,B,2024-05-01_10h21.31.917,attentional_competition_task,2022.2.4,144.12793947356295,
positions.xlsx,positions_test.xlsx,positions_test_new.xlsx,stimuli.xlsx,stimuli_new.xlsx,stimuli/Social2.png,stimuli/Social1.png,stimuli/Nonsocial2.png,stimuli/Nonsocial1.png,stimuli/Social4.png,stimuli/Social3.png,stimuli/Nonsocial4.png,stimuli/Nonsocial3.png,cs_neg_s,"(0.7, -0.5)",,,,,,,,,0,0,0,0,,,,,,,,,,,,,0,11,11,3,,,,,,,,,,,,,,,,,,,,,,,,,,,,,,,,,,740.1138587999885,30,none,0,,,743.1207014999964,,,,,,,,,,,,,,,,,,,,,,25,B,2024-05-01_10h21.31.917,attentional_competition_task,2022.2.4,144.12793947356295,
positions.xlsx,positions_test.xlsx,positions_test_new.xlsx,stimuli.xlsx,stimuli_new.xlsx,stimuli/Social2.png,stimuli/Social1.png,stimuli/Nonsocial2.png,stimuli/Nonsocial1.png,stimuli/Social4.png,stimuli/Social3.png,stimuli/Nonsocial4.png,stimuli/Nonsocial3.png,cs_pos_ns,"(0.7, 0.5)",,,,,,,,,0,0,0,0,,,,,,,,,,,,,0,12,12,14,,,,,,,,,,,,,,,,,,,,,,,,,,,,,,,,,,750.2731970999885,33,reward,1,0.45876520000456367,0.45878390000143554,750.7384767999902,,,,,,,,,,,,,,,,,,,,,,25,B,2024-05-01_10h21.31.917,attentional_competition_task,2022.2.4,144.12793947356295,
positions.xlsx,positions_test.xlsx,positions_test_new.xlsx,stimuli.xlsx,stimuli_new.xlsx,stimuli/Social2.png,stimuli/Social1.png,stimuli/Nonsocial2.png,stimuli/Nonsocial1.png,stimuli/Social4.png,stimuli/Social3.png,stimuli/Nonsocial4.png,stimuli/Nonsocial3.png,cs_neg_ns,"(0.7, 0.5)",,,,,,,,,0,0,0,0,,,,,,,,,,,,,0,13,13,10,,,,,,,,,,,,,,,,,,,,,,,,,,,,,,,,,,758.4186977999925,33,none,0,,,761.4324388999958,,,,,,,,,,,,,,,,,,,,,,25,B,2024-05-01_10h21.31.917,attentional_competition_task,2022.2.4,144.12793947356295,
positions.xlsx,positions_test.xlsx,positions_test_new.xlsx,stimuli.xlsx,stimuli_new.xlsx,stimuli/Social2.png,stimuli/Social1.png,stimuli/Nonsocial2.png,stimuli/Nonsocial1.png,stimuli/Social4.png,stimuli/Social3.png,stimuli/Nonsocial4.png,stimuli/Nonsocial3.png,cs_pos_s,"(-0.7, 0.5)",,,,,,,,,0,0,0,0,,,,,,,,,,,,,0,14,14,4,,,,,,,,,,,,,,,,,,,,,,,,,,,,,,,,,,769.3835103999882,36,reward,1,0.5833310000016354,0.5833344999991823,769.9737676999939,,,,,,,,,,,,,,,,,,,,,,25,B,2024-05-01_10h21.31.917,attentional_competition_task,2022.2.4,144.12793947356295,
positions.xlsx,positions_test.xlsx,positions_test_new.xlsx,stimuli.xlsx,stimuli_new.xlsx,stimuli/Social2.png,stimuli/Social1.png,stimuli/Nonsocial2.png,stimuli/Nonsocial1.png,stimuli/Social4.png,stimuli/Social3.png,stimuli/Nonsocial4.png,stimuli/Nonsocial3.png,cs_neg_s,"(-0.7, 0.5)",,,,,,,,,0,0,0,0,,,,,,,,,,,,,0,15,15,0,,,,,,,,,,,,,,,,,,,,,,,,,,,,,,,,,,777.5012891999941,36,none,0,,,780.5150403999869,,,,,,,,,,,,,,,,,,,,,,25,B,2024-05-01_10h21.31.917,attentional_competition_task,2022.2.4,144.12793947356295,
positions.xlsx,positions_test.xlsx,positions_test_new.xlsx,stimuli.xlsx,stimuli_new.xlsx,stimuli/Social2.png,stimuli/Social1.png,stimuli/Nonsocial2.png,stimuli/Nonsocial1.png,stimuli/Social4.png,stimuli/Social3.png,stimuli/Nonsocial4.png,stimuli/Nonsocial3.png,cs_pos_s,"(0.7, -0.5)",,,,,,,,,0,0,0,0,,,,,,,,,,,,,1,0,16,7,,,,,,,,,,,,,,,,,,,,,,,,,,,,,,,,,,788.2994754999963,39,reward,1,0.48644229999626987,0.4864460999961011,788.7924858999904,,,,,,,,,,,,,,,,,,,,,,25,B,2024-05-01_10h21.31.917,attentional_competition_task,2022.2.4,144.12793947356295,
positions.xlsx,positions_test.xlsx,positions_test_new.xlsx,stimuli.xlsx,stimuli_new.xlsx,stimuli/Social2.png,stimuli/Social1.png,stimuli/Nonsocial2.png,stimuli/Nonsocial1.png,stimuli/Social4.png,stimuli/Social3.png,stimuli/Nonsocial4.png,stimuli/Nonsocial3.png,cs_neg_s,"(0.7, -0.5)",,,,,,,,,0,0,0,0,,,,,,,,,,,,,1,1,17,3,,,,,,,,,,,,,,,,,,,,,,,,,,,,,,,,,,796.049146099991,39,none,0,,,799.0629153999907,,,,,,,,,,,,,,,,,,,,,,25,B,2024-05-01_10h21.31.917,attentional_competition_task,2022.2.4,144.12793947356295,
positions.xlsx,positions_test.xlsx,positions_test_new.xlsx,stimuli.xlsx,stimuli_new.xlsx,stimuli/Social2.png,stimuli/Social1.png,stimuli/Nonsocial2.png,stimuli/Nonsocial1.png,stimuli/Social4.png,stimuli/Social3.png,stimuli/Nonsocial4.png,stimuli/Nonsocial3.png,cs_neg_ns,"(-0.7, 0.5)",,,,,,,,,0,0,0,0,,,,,,,,,,,,,1,2,18,8,,,,,,,,,,,,,,,,,,,,,,,,,,,,,,,,,,807.0626130999881,39,none,0,,,810.0694154999946,,,,,,,,,,,,,,,,,,,,,,25,B,2024-05-01_10h21.31.917,attentional_competition_task,2022.2.4,144.12793947356295,
positions.xlsx,positions_test.xlsx,positions_test_new.xlsx,stimuli.xlsx,stimuli_new.xlsx,stimuli/Social2.png,stimuli/Social1.png,stimuli/Nonsocial2.png,stimuli/Nonsocial1.png,stimuli/Social4.png,stimuli/Social3.png,stimuli/Nonsocial4.png,stimuli/Nonsocial3.png,cs_pos_s,"(-0.7, 0.5)",,,,,,,,,0,0,0,0,,,,,,,,,,,,,1,3,19,4,,,,,,,,,,,,,,,,,,,,,,,,,,,,,,,,,,818.2357362999901,42,reward,1,0.40998989999934565,0.409993499997654,818.652393899989,,,,,,,,,,,,,,,,,,,,,,25,B,2024-05-01_10h21.31.917,attentional_competition_task,2022.2.4,144.12793947356295,
positions.xlsx,positions_test.xlsx,positions_test_new.xlsx,stimuli.xlsx,stimuli_new.xlsx,stimuli/Social2.png,stimuli/Social1.png,stimuli/Nonsocial2.png,stimuli/Nonsocial1.png,stimuli/Social4.png,stimuli/Social3.png,stimuli/Nonsocial4.png,stimuli/Nonsocial3.png,cs_neg_s,"(-0.7, 0.5)",,,,,,,,,0,0,0,0,,,,,,,,,,,,,1,4,20,0,,,,,,,,,,,,,,,,,,,,,,,,,,,,,,,,,,825.7562760999863,42,none,0,,,828.7631005000003,,,,,,,,,,,,,,,,,,,,,,25,B,2024-05-01_10h21.31.917,attentional_competition_task,2022.2.4,144.12793947356295,
positions.xlsx,positions_test.xlsx,positions_test_new.xlsx,stimuli.xlsx,stimuli_new.xlsx,stimuli/Social2.png,stimuli/Social1.png,stimuli/Nonsocial2.png,stimuli/Nonsocial1.png,stimuli/Social4.png,stimuli/Social3.png,stimuli/Nonsocial4.png,stimuli/Nonsocial3.png,cs_neg_ns,"(0.7, 0.5)",,,,,,,,,0,0,0,0,,,,,,,,,,,,,1,5,21,10,,,,,,,,,,,,,,,,,,,,,,,,,,,,,,,,,,836.2072446999955,39,loss,2,0.4299217000079807,0.43692550000560004,836.6724791999877,,,,,,,,,,,,,,,,,,,,,,25,B,2024-05-01_10h21.31.917,attentional_competition_task,2022.2.4,144.12793947356295,
positions.xlsx,positions_test.xlsx,positions_test_new.xlsx,stimuli.xlsx,stimuli_new.xlsx,stimuli/Social2.png,stimuli/Social1.png,stimuli/Nonsocial2.png,stimuli/Nonsocial1.png,stimuli/Social4.png,stimuli/Social3.png,stimuli/Nonsocial4.png,stimuli/Nonsocial3.png,cs_neg_ns,"(0.7, -0.5)",,,,,,,,,0,0,0,0,,,,,,,,,,,,,1,6,22,11,,,,,,,,,,,,,,,,,,,,,,,,,,,,,,,,,,844.1166546999884,39,none,0,,,847.1304217999859,,,,,,,,,,,,,,,,,,,,,,25,B,2024-05-01_10h21.31.917,attentional_competition_task,2022.2.4,144.12793947356295,
positions.xlsx,positions_test.xlsx,positions_test_new.xlsx,stimuli.xlsx,stimuli_new.xlsx,stimuli/Social2.png,stimuli/Social1.png,stimuli/Nonsocial2.png,stimuli/Nonsocial1.png,stimuli/Social4.png,stimuli/Social3.png,stimuli/Nonsocial4.png,stimuli/Nonsocial3.png,cs_neg_ns,"(-0.7, -0.5)",,,,,,,,,0,0,0,0,,,,,,,,,,,,,1,7,23,9,,,,,,,,,,,,,,,,,,,,,,,,,,,,,,,,,,854.6371632999944,39,none,0,,,857.643897099988,,,,,,,,,,,,,,,,,,,,,,25,B,2024-05-01_10h21.31.917,attentional_competition_task,2022.2.4,144.12793947356295,
positions.xlsx,positions_test.xlsx,positions_test_new.xlsx,stimuli.xlsx,stimuli_new.xlsx,stimuli/Social2.png,stimuli/Social1.png,stimuli/Nonsocial2.png,stimuli/Nonsocial1.png,stimuli/Social4.png,stimuli/Social3.png,stimuli/Nonsocial4.png,stimuli/Nonsocial3.png,cs_pos_ns,"(0.7, -0.5)",,,,,,,,,0,0,0,0,,,,,,,,,,,,,1,8,24,15,,,,,,,,,,,,,,,,,,,,,,,,,,,,,,,,,,865.358862299996,42,reward,1,0.5414136000035796,0.541417200001888,865.9074533999956,,,,,,,,,,,,,,,,,,,,,,25,B,2024-05-01_10h21.31.917,attentional_competition_task,2022.2.4,144.12793947356295,
positions.xlsx,positions_test.xlsx,positions_test_new.xlsx,stimuli.xlsx,stimuli_new.xlsx,stimuli/Social2.png,stimuli/Social1.png,stimuli/Nonsocial2.png,stimuli/Nonsocial1.png,stimuli/Social4.png,stimuli/Social3.png,stimuli/Nonsocial4.png,stimuli/Nonsocial3.png,cs_neg_s,"(-0.7, -0.5)",,,,,,,,,0,0,0,0,,,,,,,,,,,,,1,9,25,1,,,,,,,,,,,,,,,,,,,,,,,,,,,,,,,,,,873.5252099999925,42,none,0,,,876.5389816999959,,,,,,,,,,,,,,,,,,,,,,25,B,2024-05-01_10h21.31.917,attentional_competition_task,2022.2.4,144.12793947356295,
positions.xlsx,positions_test.xlsx,positions_test_new.xlsx,stimuli.xlsx,stimuli_new.xlsx,stimuli/Social2.png,stimuli/Social1.png,stimuli/Nonsocial2.png,stimuli/Nonsocial1.png,stimuli/Social4.png,stimuli/Social3.png,stimuli/Nonsocial4.png,stimuli/Nonsocial3.png,cs_pos_ns,"(0.7, 0.5)",,,,,,,,,0,0,0,0,,,,,,,,,,,,,1,10,26,14,,,,,,,,,,,,,,,,,,,,,,,,,,,,,,,,,,884.60115029999,45,reward,1,0.4583160000038333,0.4583195000013802,885.0664076999965,,,,,,,,,,,,,,,,,,,,,,25,B,2024-05-01_10h21.31.917,attentional_competition_task,2022.2.4,144.12793947356295,
positions.xlsx,positions_test.xlsx,positions_test_new.xlsx,stimuli.xlsx,stimuli_new.xlsx,stimuli/Social2.png,stimuli/Social1.png,stimuli/Nonsocial2.png,stimuli/Nonsocial1.png,stimuli/Social4.png,stimuli/Social3.png,stimuli/Nonsocial4.png,stimuli/Nonsocial3.png,cs_pos_ns,"(-0.7, 0.5)",,,,,,,,,0,0,0,0,,,,,,,,,,,,,1,11,27,12,,,,,,,,,,,,,,,,,,,,,,,,,,,,,,,,,,892.4202861999947,48,reward,1,0.45109109999611974,0.45109460000821855,892.878592299996,,,,,,,,,,,,,,,,,,,,,,25,B,2024-05-01_10h21.31.917,attentional_competition_task,2022.2.4,144.12793947356295,
positions.xlsx,positions_test.xlsx,positions_test_new.xlsx,stimuli.xlsx,stimuli_new.xlsx,stimuli/Social2.png,stimuli/Social1.png,stimuli/Nonsocial2.png,stimuli/Nonsocial1.png,stimuli/Social4.png,stimuli/Social3.png,stimuli/Nonsocial4.png,stimuli/Nonsocial3.png,cs_pos_s,"(0.7, 0.5)",,,,,,,,,0,0,0,0,,,,,,,,,,,,,1,12,28,6,,,,,,,,,,,,,,,,,,,,,,,,,,,,,,,,,,900.3921655999875,51,reward,1,0.5833572999981698,0.5833609999972396,900.982482499996,,,,,,,,,,,,,,,,,,,,,,25,B,2024-05-01_10h21.31.917,attentional_competition_task,2022.2.4,144.12793947356295,
positions.xlsx,positions_test.xlsx,positions_test_new.xlsx,stimuli.xlsx,stimuli_new.xlsx,stimuli/Social2.png,stimuli/Social1.png,stimuli/Nonsocial2.png,stimuli/Nonsocial1.png,stimuli/Social4.png,stimuli/Social3.png,stimuli/Nonsocial4.png,stimuli/Nonsocial3.png,cs_pos_s,"(-0.7, -0.5)",,,,,,,,,0,0,0,0,,,,,,,,,,,,,1,13,29,5,,,,,,,,,,,,,,,,,,,,,,,,,,,,,,,,,,908.5446161,54,reward,1,0.4243774000060512,0.42438130000664387,908.9751483999862,,,,,,,,,,,,,,,,,,,,,,25,B,2024-05-01_10h21.31.917,attentional_competition_task,2022.2.4,144.12793947356295,
positions.xlsx,positions_test.xlsx,positions_test_new.xlsx,stimuli.xlsx,stimuli_new.xlsx,stimuli/Social2.png,stimuli/Social1.png,stimuli/Nonsocial2.png,stimuli/Nonsocial1.png,stimuli/Social4.png,stimuli/Social3.png,stimuli/Nonsocial4.png,stimuli/Nonsocial3.png,cs_neg_s,"(0.7, 0.5)",,,,,,,,,0,0,0,0,,,,,,,,,,,,,1,14,30,2,,,,,,,,,,,,,,,,,,,,,,,,,,,,,,,,,,916.5790131999966,54,none,0,,,919.5928445999889,,,,,,,,,,,,,,,,,,,,,,25,B,2024-05-01_10h21.31.917,attentional_competition_task,2022.2.4,144.12793947356295,
positions.xlsx,positions_test.xlsx,positions_test_new.xlsx,stimuli.xlsx,stimuli_new.xlsx,stimuli/Social2.png,stimuli/Social1.png,stimuli/Nonsocial2.png,stimuli/Nonsocial1.png,stimuli/Social4.png,stimuli/Social3.png,stimuli/Nonsocial4.png,stimuli/Nonsocial3.png,cs_pos_ns,"(-0.7, -0.5)",,,,,,,,,0,0,0,0,,,,,,,,,,,,,1,15,31,13,,,,,,,,,,,,,,,,,,,,,,,,,,,,,,,,,,926.418891999987,57,reward,1,0.5277014000021154,0.5277047999989009,926.9535745999892,,,,,,,,,,,,,,,,,,,,,,25,B,2024-05-01_10h21.31.917,attentional_competition_task,2022.2.4,144.12793947356295,
positions.xlsx,positions_test.xlsx,positions_test_new.xlsx,stimuli.xlsx,stimuli_new.xlsx,stimuli/Social2.png,stimuli/Social1.png,stimuli/Nonsocial2.png,stimuli/Nonsocial1.png,stimuli/Social4.png,stimuli/Social3.png,stimuli/Nonsocial4.png,stimuli/Nonsocial3.png,cs_pos_ns,,,,,,,,,,0,0,0,0,,,,,,,,,,,,,,,,,0,0,0,3,,,,,,,,,,,,,,,,,,,,,,,932.3908821999939,8.0,5.05943280000065,,,,,,,,,,,,,,,,,,,,,,,,,,,,,,,,,25,B,2024-05-01_10h21.31.917,attentional_competition_task,2022.2.4,144.12793947356295,
positions.xlsx,positions_test.xlsx,positions_test_new.xlsx,stimuli.xlsx,stimuli_new.xlsx,stimuli/Social2.png,stimuli/Social1.png,stimuli/Nonsocial2.png,stimuli/Nonsocial1.png,stimuli/Social4.png,stimuli/Social3.png,stimuli/Nonsocial4.png,stimuli/Nonsocial3.png,cs_pos_s,,,,,,,,,,0,0,0,0,,,,,,,,,,,,,,,,,0,1,1,2,,,,,,,,,,,,,,,,,,,,,,,938.6475780999899,6.0,2.6761964000033913,,,,,,,,,,,,,,,,,,,,,,,,,,,,,,,,,25,B,2024-05-01_10h21.31.917,attentional_competition_task,2022.2.4,144.12793947356295,
positions.xlsx,positions_test.xlsx,positions_test_new.xlsx,stimuli.xlsx,stimuli_new.xlsx,stimuli/Social2.png,stimuli/Social1.png,stimuli/Nonsocial2.png,stimuli/Nonsocial1.png,stimuli/Social4.png,stimuli/Social3.png,stimuli/Nonsocial4.png,stimuli/Nonsocial3.png,cs_neg_s,,,,,,,,,,0,0,0,0,,,,,,,,,,,,,,,,,0,2,2,0,,,,,,,,,,,,,,,,,,,,,,,941.8419345000002,3.0,2.40486849998706,,,,,,,,,,,,,,,,,,,,,,,,,,,,,,,,,25,B,2024-05-01_10h21.31.917,attentional_competition_task,2022.2.4,144.12793947356295,
positions.xlsx,positions_test.xlsx,positions_test_new.xlsx,stimuli.xlsx,stimuli_new.xlsx,stimuli/Social2.png,stimuli/Social1.png,stimuli/Nonsocial2.png,stimuli/Nonsocial1.png,stimuli/Social4.png,stimuli/Social3.png,stimuli/Nonsocial4.png,stimuli/Nonsocial3.png,cs_neg_ns,,,,,,,,,,0,0,0,0,,,,,,,,,,,,,,,,,0,3,3,1,,,,,,,,,,,,,,,,,,,,,,,944.8696213999938,4.0,3.0632380999886664,,,,,,,,,,,,,,,,,,,,,,,,,,,,,,,,,25,B,2024-05-01_10h21.31.917,attentional_competition_task,2022.2.4,144.12793947356295,
positions.xlsx,positions_test.xlsx,positions_test_new.xlsx,stimuli.xlsx,stimuli_new.xlsx,stimuli/Social2.png,stimuli/Social1.png,stimuli/Nonsocial2.png,stimuli/Nonsocial1.png,stimuli/Social4.png,stimuli/Social3.png,stimuli/Nonsocial4.png,stimuli/Nonsocial3.png,,,"(-0.7, -0.5)",cs_pos_s,"(-0.7, 0.5)",cs_pos_ns,"(0.7, -0.5)",cs_neg_s,"(0.7, 0.5)",cs_neg_ns,0,0,0,0,,,,,,,,,,,,,,,,,,,,,0,0,0,10,,,,,,,,,,,,,,,,,,,,,,,,,,,54,loss,,,,,948.3625327999907,958.8690411999996,958.8690411999996,958.8690411999996,958.8690411999996,0,,,0,,,0,,,0,,,959.4384551999974,959.4384551999974,959.4384551999974,959.4384551999974,25,B,2024-05-01_10h21.31.917,attentional_competition_task,2022.2.4,144.12793947356295,
positions.xlsx,positions_test.xlsx,positions_test_new.xlsx,stimuli.xlsx,stimuli_new.xlsx,stimuli/Social2.png,stimuli/Social1.png,stimuli/Nonsocial2.png,stimuli/Nonsocial1.png,stimuli/Social4.png,stimuli/Social3.png,stimuli/Nonsocial4.png,stimuli/Nonsocial3.png,,,"(-0.7, -0.5)",cs_neg_s,"(-0.7, 0.5)",cs_neg_ns,"(0.7, -0.5)",cs_pos_ns,"(0.7, 0.5)",cs_pos_s,0,0,0,0,,,,,,,,,,,,,,,,,,,,,0,1,1,3,,,,,,,,,,,,,,,,,,,,,,,,,,,63,reward,,,,,,966.48677209999,966.48677209999,966.48677209999,966.48677209999,0,,,0,,,1,0.022768700000597164,0.0596506000001682,0,,,967.2228901999915,967.2228901999915,967.2228901999915,967.2228901999915,25,B,2024-05-01_10h21.31.917,attentional_competition_task,2022.2.4,144.12793947356295,
positions.xlsx,positions_test.xlsx,positions_test_new.xlsx,stimuli.xlsx,stimuli_new.xlsx,stimuli/Social2.png,stimuli/Social1.png,stimuli/Nonsocial2.png,stimuli/Nonsocial1.png,stimuli/Social4.png,stimuli/Social3.png,stimuli/Nonsocial4.png,stimuli/Nonsocial3.png,,,"(-0.7, -0.5)",cs_pos_ns,"(-0.7, 0.5)",cs_pos_s,"(0.7, -0.5)",cs_neg_s,"(0.7, 0.5)",cs_neg_ns,0,0,0,0,,,,,,,,,,,,,,,,,,,,,0,2,2,19,,,,,,,,,,,,,,,,,,,,,,,,,,,72,reward,,,,,,974.555907899994,974.555907899994,974.555907899994,974.555907899994,1,0.028959800009033643,0.11368330000550486,0,,,0,,,0,,,975.3614155999967,975.3614155999967,975.3614155999967,975.3614155999967,25,B,2024-05-01_10h21.31.917,attentional_competition_task,2022.2.4,144.12793947356295,
positions.xlsx,positions_test.xlsx,positions_test_new.xlsx,stimuli.xlsx,stimuli_new.xlsx,stimuli/Social2.png,stimuli/Social1.png,stimuli/Nonsocial2.png,stimuli/Nonsocial1.png,stimuli/Social4.png,stimuli/Social3.png,stimuli/Nonsocial4.png,stimuli/Nonsocial3.png,,,"(-0.7, -0.5)",cs_pos_s,"(-0.7, 0.5)",cs_neg_ns,"(0.7, -0.5)",cs_neg_s,"(0.7, 0.5)",cs_pos_ns,0,0,0,0,,,,,,,,,,,,,,,,,,,,,0,3,3,8,,,,,,,,,,,,,,,,,,,,,,,,,,,81,reward,,,,,,983.9999881999975,983.9999881999975,983.9999881999975,983.9999881999975,0,,,0,,,0,,,1,0.030037399992579594,0.09323359999689274,984.7638382999867,984.7638382999867,984.7638382999867,984.7638382999867,25,B,2024-05-01_10h21.31.917,attentional_competition_task,2022.2.4,144.12793947356295,
positions.xlsx,positions_test.xlsx,positions_test_new.xlsx,stimuli.xlsx,stimuli_new.xlsx,stimuli/Social2.png,stimuli/Social1.png,stimuli/Nonsocial2.png,stimuli/Nonsocial1.png,stimuli/Social4.png,stimuli/Social3.png,stimuli/Nonsocial4.png,stimuli/Nonsocial3.png,,,"(-0.7, -0.5)",cs_neg_s,"(-0.7, 0.5)",cs_pos_ns,"(0.7, -0.5)",cs_neg_ns,"(0.7, 0.5)",cs_pos_s,0,0,0,0,,,,,,,,,,,,,,,,,,,,,0,4,4,5,,,,,,,,,,,,,,,,,,,,,,,,,,,90,reward,,,,,,993.0551705999969,993.0551705999969,993.0551705999969,993.0551705999969,0,,,1,0.02356920001329854,0.08033070000237785,0,,,0,,,993.79123599999,993.79123599999,993.79123599999,993.79123599999,25,B,2024-05-01_10h21.31.917,attentional_competition_task,2022.2.4,144.12793947356295,
positions.xlsx,positions_test.xlsx,positions_test_new.xlsx,stimuli.xlsx,stimuli_new.xlsx,stimuli/Social2.png,stimuli/Social1.png,stimuli/Nonsocial2.png,stimuli/Nonsocial1.png,stimuli/Social4.png,stimuli/Social3.png,stimuli/Nonsocial4.png,stimuli/Nonsocial3.png,,,"(-0.7, -0.5)",cs_neg_ns,"(-0.7, 0.5)",cs_neg_s,"(0.7, -0.5)",cs_pos_ns,"(0.7, 0.5)",cs_pos_s,0,0,0,0,,,,,,,,,,,,,,,,,,,,,0,5,5,15,,,,,,,,,,,,,,,,,,,,,,,,,,,99,reward,,,,,,1001.5270785999892,1001.5270785999892,1001.5270785999892,1001.5270785999892,0,,,0,,,0,,,0,,,1002.3325800999883,1002.3325800999883,1002.3325800999883,1002.3325800999883,25,B,2024-05-01_10h21.31.917,attentional_competition_task,2022.2.4,144.12793947356295,
positions.xlsx,positions_test.xlsx,positions_test_new.xlsx,stimuli.xlsx,stimuli_new.xlsx,stimuli/Social2.png,stimuli/Social1.png,stimuli/Nonsocial2.png,stimuli/Nonsocial1.png,stimuli/Social4.png,stimuli/Social3.png,stimuli/Nonsocial4.png,stimuli/Nonsocial3.png,,,"(-0.7, -0.5)",cs_neg_s,"(-0.7, 0.5)",cs_pos_s,"(0.7, -0.5)",cs_pos_ns,"(0.7, 0.5)",cs_neg_ns,0,0,0,0,,,,,,,,,,,,,,,,,,,,,0,6,6,1,,,,,,,,,,,,,,,,,,,,,,,,,,,108,reward,,,,,,1010.5475276999932,1010.5475276999932,1010.5475276999932,1010.5475276999932,0,,,0,,,1,0.03021929999522399,0.030223399997339584,0,,,1010.5475276999932,1010.5475276999932,1010.5475276999932,1010.5475276999932,25,B,2024-05-01_10h21.31.917,attentional_competition_task,2022.2.4,144.12793947356295,
positions.xlsx,positions_test.xlsx,positions_test_new.xlsx,stimuli.xlsx,stimuli_new.xlsx,stimuli/Social2.png,stimuli/Social1.png,stimuli/Nonsocial2.png,stimuli/Nonsocial1.png,stimuli/Social4.png,stimuli/Social3.png,stimuli/Nonsocial4.png,stimuli/Nonsocial3.png,,,"(-0.7, -0.5)",cs_neg_ns,"(-0.7, 0.5)",cs_neg_s,"(0.7, -0.5)",cs_pos_s,"(0.7, 0.5)",cs_pos_ns,0,0,0,0,,,,,,,,,,,,,,,,,,,,,0,7,7,14,,,,,,,,,,,,,,,,,,,,,,,,,,,117,reward,,,,,,1018.3110765999882,1018.3110765999882,1018.3110765999882,1018.3110765999882,0,,,0,,,0,,,0,,,1018.8596906999883,1018.8596906999883,1018.8596906999883,1018.8596906999883,25,B,2024-05-01_10h21.31.917,attentional_competition_task,2022.2.4,144.12793947356295,
positions.xlsx,positions_test.xlsx,positions_test_new.xlsx,stimuli.xlsx,stimuli_new.xlsx,stimuli/Social2.png,stimuli/Social1.png,stimuli/Nonsocial2.png,stimuli/Nonsocial1.png,stimuli/Social4.png,stimuli/Social3.png,stimuli/Nonsocial4.png,stimuli/Nonsocial3.png,,,"(-0.7, -0.5)",cs_pos_ns,"(-0.7, 0.5)",cs_neg_ns,"(0.7, -0.5)",cs_pos_s,"(0.7, 0.5)",cs_neg_s,0,0,0,0,,,,,,,,,,,,,,,,,,,,,0,8,8,20,,,,,,,,,,,,,,,,,,,,,,,,,,,123,reward,,,,,,1026.1441860999912,1026.1441860999912,1026.1441860999912,1026.1441860999912,0,,,0,,,1,0.030363199999555945,0.03036720000091009,0,,,1026.1441860999912,1026.1441860999912,1026.1441860999912,1026.1441860999912,25,B,2024-05-01_10h21.31.917,attentional_competition_task,2022.2.4,144.12793947356295,
positions.xlsx,positions_test.xlsx,positions_test_new.xlsx,stimuli.xlsx,stimuli_new.xlsx,stimuli/Social2.png,stimuli/Social1.png,stimuli/Nonsocial2.png,stimuli/Nonsocial1.png,stimuli/Social4.png,stimuli/Social3.png,stimuli/Nonsocial4.png,stimuli/Nonsocial3.png,,,"(-0.7, -0.5)",cs_pos_s,"(-0.7, 0.5)",cs_neg_s,"(0.7, -0.5)",cs_neg_ns,"(0.7, 0.5)",cs_pos_ns,0,0,0,0,,,,,,,,,,,,,,,,,,,,,0,9,9,6,,,,,,,,,,,,,,,,,,,,,,,,,,,132,reward,,,,,,1034.5812929999956,1034.5812929999956,1034.5812929999956,1034.5812929999956,0,,,0,,,0,,,0,,,1035.3174168999976,1035.3174168999976,1035.3174168999976,1035.3174168999976,25,B,2024-05-01_10h21.31.917,attentional_competition_task,2022.2.4,144.12793947356295,
positions.xlsx,positions_test.xlsx,positions_test_new.xlsx,stimuli.xlsx,stimuli_new.xlsx,stimuli/Social2.png,stimuli/Social1.png,stimuli/Nonsocial2.png,stimuli/Nonsocial1.png,stimuli/Social4.png,stimuli/Social3.png,stimuli/Nonsocial4.png,stimuli/Nonsocial3.png,,,"(-0.7, -0.5)",cs_pos_ns,"(-0.7, 0.5)",cs_neg_s,"(0.7, -0.5)",cs_neg_ns,"(0.7, 0.5)",cs_pos_s,0,0,0,0,,,,,,,,,,,,,,,,,,,,,0,10,10,23,,,,,,,,,,,,,,,,,,,,,,,,,,,141,reward,,,,,,1043.025415799988,1043.025415799988,1043.025415799988,1043.025415799988,0,,,0,,,0,,,0,,,1043.9004148999957,1043.9004148999957,1043.9004148999957,1043.9004148999957,25,B,2024-05-01_10h21.31.917,attentional_competition_task,2022.2.4,144.12793947356295,
positions.xlsx,positions_test.xlsx,positions_test_new.xlsx,stimuli.xlsx,stimuli_new.xlsx,stimuli/Social2.png,stimuli/Social1.png,stimuli/Nonsocial2.png,stimuli/Nonsocial1.png,stimuli/Social4.png,stimuli/Social3.png,stimuli/Nonsocial4.png,stimuli/Nonsocial3.png,,,"(-0.7, -0.5)",cs_pos_s,"(-0.7, 0.5)",cs_neg_s,"(0.7, -0.5)",cs_pos_ns,"(0.7, 0.5)",cs_neg_ns,0,0,0,0,,,,,,,,,,,,,,,,,,,,,0,11,11,7,,,,,,,,,,,,,,,,,,,,,,,,,,,150,reward,,,,,,1052.052818199998,1052.052818199998,1052.052818199998,1052.052818199998,0,,,0,,,0,,,0,,,1052.6361293999944,1052.6361293999944,1052.6361293999944,1052.6361293999944,25,B,2024-05-01_10h21.31.917,attentional_competition_task,2022.2.4,144.12793947356295,
positions.xlsx,positions_test.xlsx,positions_test_new.xlsx,stimuli.xlsx,stimuli_new.xlsx,stimuli/Social2.png,stimuli/Social1.png,stimuli/Nonsocial2.png,stimuli/Nonsocial1.png,stimuli/Social4.png,stimuli/Social3.png,stimuli/Nonsocial4.png,stimuli/Nonsocial3.png,,,"(-0.7, -0.5)",cs_neg_ns,"(-0.7, 0.5)",cs_pos_ns,"(0.7, -0.5)",cs_neg_s,"(0.7, 0.5)",cs_pos_s,0,0,0,0,,,,,,,,,,,,,,,,,,,,,0,12,12,17,,,,,,,,,,,,,,,,,,,,,,,,,,,159,reward,,,,,,1060.3302587999933,1060.3302587999933,1060.3302587999933,1060.3302587999933,0,,,0,,,0,,,0,,,1061.0941866999929,1061.0941866999929,1061.0941866999929,1061.0941866999929,25,B,2024-05-01_10h21.31.917,attentional_competition_task,2022.2.4,144.12793947356295,
positions.xlsx,positions_test.xlsx,positions_test_new.xlsx,stimuli.xlsx,stimuli_new.xlsx,stimuli/Social2.png,stimuli/Social1.png,stimuli/Nonsocial2.png,stimuli/Nonsocial1.png,stimuli/Social4.png,stimuli/Social3.png,stimuli/Nonsocial4.png,stimuli/Nonsocial3.png,,,"(-0.7, -0.5)",cs_neg_ns,"(-0.7, 0.5)",cs_pos_s,"(0.7, -0.5)",cs_pos_ns,"(0.7, 0.5)",cs_neg_s,0,0,0,0,,,,,,,,,,,,,,,,,,,,,0,13,13,13,,,,,,,,,,,,,,,,,,,,,,,,,,,168,reward,,,,,,1068.6979668999993,1068.6979668999993,1068.6979668999993,1068.6979668999993,0,,,0,,,0,,,0,,,1069.5451691999915,1069.5451691999915,1069.5451691999915,1069.5451691999915,25,B,2024-05-01_10h21.31.917,attentional_competition_task,2022.2.4,144.12793947356295,
positions.xlsx,positions_test.xlsx,positions_test_new.xlsx,stimuli.xlsx,stimuli_new.xlsx,stimuli/Social2.png,stimuli/Social1.png,stimuli/Nonsocial2.png,stimuli/Nonsocial1.png,stimuli/Social4.png,stimuli/Social3.png,stimuli/Nonsocial4.png,stimuli/Nonsocial3.png,,,"(-0.7, -0.5)",cs_neg_s,"(-0.7, 0.5)",cs_pos_ns,"(0.7, -0.5)",cs_pos_s,"(0.7, 0.5)",cs_neg_ns,0,0,0,0,,,,,,,,,,,,,,,,,,,,,0,14,14,4,,,,,,,,,,,,,,,,,,,,,,,,,,,174,reward,,,,,,1077.4823719999986,1077.4823719999986,1077.4823719999986,1077.4823719999986,0,,,0,,,1,0.02653090000967495,0.02653479999571573,0,,,1077.4823719999986,1077.4823719999986,1077.4823719999986,1077.4823719999986,25,B,2024-05-01_10h21.31.917,attentional_competition_task,2022.2.4,144.12793947356295,
positions.xlsx,positions_test.xlsx,positions_test_new.xlsx,stimuli.xlsx,stimuli_new.xlsx,stimuli/Social2.png,stimuli/Social1.png,stimuli/Nonsocial2.png,stimuli/Nonsocial1.png,stimuli/Social4.png,stimuli/Social3.png,stimuli/Nonsocial4.png,stimuli/Nonsocial3.png,,,"(-0.7, -0.5)",cs_pos_s,"(-0.7, 0.5)",cs_neg_ns,"(0.7, -0.5)",cs_pos_ns,"(0.7, 0.5)",cs_neg_s,0,0,0,0,,,,,,,,,,,,,,,,,,,,,0,15,15,9,,,,,,,,,,,,,,,,,,,,,,,,,,,183,reward,,,,,,1086.454257999998,1086.454257999998,1086.454257999998,1086.454257999998,0,,,0,,,0,,,0,,,1087.3847665999929,1087.3847665999929,1087.3847665999929,1087.3847665999929,25,B,2024-05-01_10h21.31.917,attentional_competition_task,2022.2.4,144.12793947356295,
positions.xlsx,positions_test.xlsx,positions_test_new.xlsx,stimuli.xlsx,stimuli_new.xlsx,stimuli/Social2.png,stimuli/Social1.png,stimuli/Nonsocial2.png,stimuli/Nonsocial1.png,stimuli/Social4.png,stimuli/Social3.png,stimuli/Nonsocial4.png,stimuli/Nonsocial3.png,,,"(-0.7, -0.5)",cs_neg_s,"(-0.7, 0.5)",cs_pos_s,"(0.7, -0.5)",cs_neg_ns,"(0.7, 0.5)",cs_pos_ns,0,0,0,0,,,,,,,,,,,,,,,,,,,,,0,16,16,0,,,,,,,,,,,,,,,,,,,,,,,,,,,192,reward,,,,,,1095.7593878999905,1095.7593878999905,1095.7593878999905,1095.7593878999905,0,,,0,,,0,,,0,,,1096.3774832999916,1096.3774832999916,1096.3774832999916,1096.3774832999916,25,B,2024-05-01_10h21.31.917,attentional_competition_task,2022.2.4,144.12793947356295,
positions.xlsx,positions_test.xlsx,positions_test_new.xlsx,stimuli.xlsx,stimuli_new.xlsx,stimuli/Social2.png,stimuli/Social1.png,stimuli/Nonsocial2.png,stimuli/Nonsocial1.png,stimuli/Social4.png,stimuli/Social3.png,stimuli/Nonsocial4.png,stimuli/Nonsocial3.png,,,"(-0.7, -0.5)",cs_pos_ns,"(-0.7, 0.5)",cs_pos_s,"(0.7, -0.5)",cs_neg_ns,"(0.7, 0.5)",cs_neg_s,0,0,0,0,,,,,,,,,,,,,,,,,,,,,0,17,17,18,,,,,,,,,,,,,,,,,,,,,,,,,,,201,reward,,,,,,1104.6409814999934,1104.6409814999934,1104.6409814999934,1104.6409814999934,0,,,0,,,0,,,0,,,1105.6062413999898,1105.6062413999898,1105.6062413999898,1105.6062413999898,25,B,2024-05-01_10h21.31.917,attentional_competition_task,2022.2.4,144.12793947356295,
positions.xlsx,positions_test.xlsx,positions_test_new.xlsx,stimuli.xlsx,stimuli_new.xlsx,stimuli/Social2.png,stimuli/Social1.png,stimuli/Nonsocial2.png,stimuli/Nonsocial1.png,stimuli/Social4.png,stimuli/Social3.png,stimuli/Nonsocial4.png,stimuli/Nonsocial3.png,,,"(-0.7, -0.5)",cs_neg_s,"(-0.7, 0.5)",cs_neg_ns,"(0.7, -0.5)",cs_pos_s,"(0.7, 0.5)",cs_pos_ns,0,0,0,0,,,,,,,,,,,,,,,,,,,,,0,18,18,2,,,,,,,,,,,,,,,,,,,,,,,,,,,210,reward,,,,,,1113.4531075999985,1113.4531075999985,1113.4531075999985,1113.4531075999985,0,,,0,,,0,,,0,,,1114.3836513999995,1114.3836513999995,1114.3836513999995,1114.3836513999995,25,B,2024-05-01_10h21.31.917,attentional_competition_task,2022.2.4,144.12793947356295,
positions.xlsx,positions_test.xlsx,positions_test_new.xlsx,stimuli.xlsx,stimuli_new.xlsx,stimuli/Social2.png,stimuli/Social1.png,stimuli/Nonsocial2.png,stimuli/Nonsocial1.png,stimuli/Social4.png,stimuli/Social3.png,stimuli/Nonsocial4.png,stimuli/Nonsocial3.png,,,"(-0.7, -0.5)",cs_pos_ns,"(-0.7, 0.5)",cs_neg_ns,"(0.7, -0.5)",cs_neg_s,"(0.7, 0.5)",cs_pos_s,0,0,0,0,,,,,,,,,,,,,,,,,,,,,0,19,19,21,,,,,,,,,,,,,,,,,,,,,,,,,,,219,reward,,,,,,1122.2722181999998,1122.2722181999998,1122.2722181999998,1122.2722181999998,0,,,0,,,0,,,0,,,1123.2305204999866,1123.2305204999866,1123.2305204999866,1123.2305204999866,25,B,2024-05-01_10h21.31.917,attentional_competition_task,2022.2.4,144.12793947356295,
positions.xlsx,positions_test.xlsx,positions_test_new.xlsx,stimuli.xlsx,stimuli_new.xlsx,stimuli/Social2.png,stimuli/Social1.png,stimuli/Nonsocial2.png,stimuli/Nonsocial1.png,stimuli/Social4.png,stimuli/Social3.png,stimuli/Nonsocial4.png,stimuli/Nonsocial3.png,,,"(-0.7, -0.5)",cs_neg_ns,"(-0.7, 0.5)",cs_pos_ns,"(0.7, -0.5)",cs_pos_s,"(0.7, 0.5)",cs_neg_s,0,0,0,0,,,,,,,,,,,,,,,,,,,,,0,20,20,16,,,,,,,,,,,,,,,,,,,,,,,,,,,228,reward,,,,,,1130.653842099986,1130.653842099986,1130.653842099986,1130.653842099986,0,,,0,,,0,,,0,,,1131.5773748999927,1131.5773748999927,1131.5773748999927,1131.5773748999927,25,B,2024-05-01_10h21.31.917,attentional_competition_task,2022.2.4,144.12793947356295,
positions.xlsx,positions_test.xlsx,positions_test_new.xlsx,stimuli.xlsx,stimuli_new.xlsx,stimuli/Social2.png,stimuli/Social1.png,stimuli/Nonsocial2.png,stimuli/Nonsocial1.png,stimuli/Social4.png,stimuli/Social3.png,stimuli/Nonsocial4.png,stimuli/Nonsocial3.png,,,"(-0.7, -0.5)",cs_pos_ns,"(-0.7, 0.5)",cs_neg_s,"(0.7, -0.5)",cs_pos_s,"(0.7, 0.5)",cs_neg_ns,0,0,0,0,,,,,,,,,,,,,,,,,,,,,0,21,21,22,,,,,,,,,,,,,,,,,,,,,,,,,,,237,reward,,,,,,1139.6951421999984,1139.6951421999984,1139.6951421999984,1139.6951421999984,0,,,0,,,0,,,0,,,1140.3826383999985,1140.3826383999985,1140.3826383999985,1140.3826383999985,25,B,2024-05-01_10h21.31.917,attentional_competition_task,2022.2.4,144.12793947356295,
positions.xlsx,positions_test.xlsx,positions_test_new.xlsx,stimuli.xlsx,stimuli_new.xlsx,stimuli/Social2.png,stimuli/Social1.png,stimuli/Nonsocial2.png,stimuli/Nonsocial1.png,stimuli/Social4.png,stimuli/Social3.png,stimuli/Nonsocial4.png,stimuli/Nonsocial3.png,,,"(-0.7, -0.5)",cs_neg_ns,"(-0.7, 0.5)",cs_pos_s,"(0.7, -0.5)",cs_neg_s,"(0.7, 0.5)",cs_pos_ns,0,0,0,0,,,,,,,,,,,,,,,,,,,,,0,22,22,12,,,,,,,,,,,,,,,,,,,,,,,,,,,246,reward,,,,,,1147.139286599995,1147.139286599995,1147.139286599995,1147.139286599995,0,,,0,,,0,,,0,,,1148.0975763999886,1148.0975763999886,1148.0975763999886,1148.0975763999886,25,B,2024-05-01_10h21.31.917,attentional_competition_task,2022.2.4,144.12793947356295,
positions.xlsx,positions_test.xlsx,positions_test_new.xlsx,stimuli.xlsx,stimuli_new.xlsx,stimuli/Social2.png,stimuli/Social1.png,stimuli/Nonsocial2.png,stimuli/Nonsocial1.png,stimuli/Social4.png,stimuli/Social3.png,stimuli/Nonsocial4.png,stimuli/Nonsocial3.png,,,"(-0.7, -0.5)",cs_pos_s,"(-0.7, 0.5)",cs_pos_ns,"(0.7, -0.5)",cs_neg_ns,"(0.7, 0.5)",cs_neg_s,0,0,0,0,,,,,,,,,,,,,,,,,,,,,0,23,23,11,,,,,,,,,,,,,,,,,,,,,,,,,,,255,reward,,,,,,1155.5208977999864,1155.5208977999864,1155.5208977999864,1155.5208977999864,0,,,0,,,0,,,0,,,1156.5555768999911,1156.5555768999911,1156.5555768999911,1156.5555768999911,25,B,2024-05-01_10h21.31.917,attentional_competition_task,2022.2.4,144.12793947356295,
positions.xlsx,positions_test.xlsx,positions_test_new.xlsx,stimuli.xlsx,stimuli_new.xlsx,stimuli/Social2.png,stimuli/Social1.png,stimuli/Nonsocial2.png,stimuli/Nonsocial1.png,stimuli/Social4.png,stimuli/Social3.png,stimuli/Nonsocial4.png,stimuli/Nonsocial3.png,,,"(-0.7, -0.5)",cs_pos_ns,"(-0.7, 0.5)",cs_neg_ns,"(0.7, -0.5)",cs_neg_s,"(0.7, 0.5)",cs_pos_s,0,0,0,0,,,,,,,,,,,,,,,,,,,,,1,0,24,21,,,,,,,,,,,,,,,,,,,,,,,,,,,264,reward,,,,,,1164.3260750999907,1164.3260750999907,1164.3260750999907,1164.3260750999907,0,,,0,,,0,,,0,,,1165.2566114999936,1165.2566114999936,1165.2566114999936,1165.2566114999936,25,B,2024-05-01_10h21.31.917,attentional_competition_task,2022.2.4,144.12793947356295,
positions.xlsx,positions_test.xlsx,positions_test_new.xlsx,stimuli.xlsx,stimuli_new.xlsx,stimuli/Social2.png,stimuli/Social1.png,stimuli/Nonsocial2.png,stimuli/Nonsocial1.png,stimuli/Social4.png,stimuli/Social3.png,stimuli/Nonsocial4.png,stimuli/Nonsocial3.png,,,"(-0.7, -0.5)",cs_neg_s,"(-0.7, 0.5)",cs_neg_ns,"(0.7, -0.5)",cs_pos_ns,"(0.7, 0.5)",cs_pos_s,0,0,0,0,,,,,,,,,,,,,,,,,,,,,1,1,25,3,,,,,,,,,,,,,,,,,,,,,,,,,,,267,reward,,,,,,1172.8673786,1172.8673786,1172.8673786,1172.8673786,0,,,0,,,1,0.030666600010590628,0.03067050001118332,0,,,1172.8673786,1172.8673786,1172.8673786,1172.8673786,25,B,2024-05-01_10h21.31.917,attentional_competition_task,2022.2.4,144.12793947356295,
positions.xlsx,positions_test.xlsx,positions_test_new.xlsx,stimuli.xlsx,stimuli_new.xlsx,stimuli/Social2.png,stimuli/Social1.png,stimuli/Nonsocial2.png,stimuli/Nonsocial1.png,stimuli/Social4.png,stimuli/Social3.png,stimuli/Nonsocial4.png,stimuli/Nonsocial3.png,,,"(-0.7, -0.5)",cs_pos_s,"(-0.7, 0.5)",cs_neg_ns,"(0.7, -0.5)",cs_pos_ns,"(0.7, 0.5)",cs_neg_s,0,0,0,0,,,,,,,,,,,,,,,,,,,,,1,2,26,9,,,,,,,,,,,,,,,,,,,,,,,,,,,276,reward,,,,,,1181.2004471999971,1181.2004471999971,1181.2004471999971,1181.2004471999971,0,,,0,,,0,,,0,,,1182.1031667999923,1182.1031667999923,1182.1031667999923,1182.1031667999923,25,B,2024-05-01_10h21.31.917,attentional_competition_task,2022.2.4,144.12793947356295,
positions.xlsx,positions_test.xlsx,positions_test_new.xlsx,stimuli.xlsx,stimuli_new.xlsx,stimuli/Social2.png,stimuli/Social1.png,stimuli/Nonsocial2.png,stimuli/Nonsocial1.png,stimuli/Social4.png,stimuli/Social3.png,stimuli/Nonsocial4.png,stimuli/Nonsocial3.png,,,"(-0.7, -0.5)",cs_neg_ns,"(-0.7, 0.5)",cs_pos_s,"(0.7, -0.5)",cs_neg_s,"(0.7, 0.5)",cs_pos_ns,0,0,0,0,,,,,,,,,,,,,,,,,,,,,1,3,27,12,,,,,,,,,,,,,,,,,,,,,,,,,,,285,reward,,,,,,1189.623699399992,1189.623699399992,1189.623699399992,1189.623699399992,0,,,0,,,0,,,0,,,1190.5542113999982,1190.5542113999982,1190.5542113999982,1190.5542113999982,25,B,2024-05-01_10h21.31.917,attentional_competition_task,2022.2.4,144.12793947356295,
positions.xlsx,positions_test.xlsx,positions_test_new.xlsx,stimuli.xlsx,stimuli_new.xlsx,stimuli/Social2.png,stimuli/Social1.png,stimuli/Nonsocial2.png,stimuli/Nonsocial1.png,stimuli/Social4.png,stimuli/Social3.png,stimuli/Nonsocial4.png,stimuli/Nonsocial3.png,,,"(-0.7, -0.5)",cs_pos_ns,"(-0.7, 0.5)",cs_neg_s,"(0.7, -0.5)",cs_pos_s,"(0.7, 0.5)",cs_neg_ns,0,0,0,0,,,,,,,,,,,,,,,,,,,,,1,4,28,22,,,,,,,,,,,,,,,,,,,,,,,,,,,291,reward,,,,,,1198.3524559999933,1198.3524559999933,1198.3524559999933,1198.3524559999933,1,0.028333900001598522,0.028337700001429766,0,,,0,,,0,,,1198.3524559999933,1198.3524559999933,1198.3524559999933,1198.3524559999933,25,B,2024-05-01_10h21.31.917,attentional_competition_task,2022.2.4,144.12793947356295,
positions.xlsx,positions_test.xlsx,positions_test_new.xlsx,stimuli.xlsx,stimuli_new.xlsx,stimuli/Social2.png,stimuli/Social1.png,stimuli/Nonsocial2.png,stimuli/Nonsocial1.png,stimuli/Social4.png,stimuli/Social3.png,stimuli/Nonsocial4.png,stimuli/Nonsocial3.png,,,"(-0.7, -0.5)",cs_pos_s,"(-0.7, 0.5)",cs_pos_ns,"(0.7, -0.5)",cs_neg_ns,"(0.7, 0.5)",cs_neg_s,0,0,0,0,,,,,,,,,,,,,,,,,,,,,1,5,29,11,,,,,,,,,,,,,,,,,,,,,,,,,,,300,reward,,,,,,1206.754944299988,1206.754944299988,1206.754944299988,1206.754944299988,0,,,0,,,0,,,0,,,1207.6715939999995,1207.6715939999995,1207.6715939999995,1207.6715939999995,25,B,2024-05-01_10h21.31.917,attentional_competition_task,2022.2.4,144.12793947356295,
positions.xlsx,positions_test.xlsx,positions_test_new.xlsx,stimuli.xlsx,stimuli_new.xlsx,stimuli/Social2.png,stimuli/Social1.png,stimuli/Nonsocial2.png,stimuli/Nonsocial1.png,stimuli/Social4.png,stimuli/Social3.png,stimuli/Nonsocial4.png,stimuli/Nonsocial3.png,,,"(-0.7, -0.5)",cs_pos_s,"(-0.7, 0.5)",cs_neg_s,"(0.7, -0.5)",cs_neg_ns,"(0.7, 0.5)",cs_pos_ns,0,0,0,0,,,,,,,,,,,,,,,,,,,,,1,6,30,6,,,,,,,,,,,,,,,,,,,,,,,,,,,309,reward,,,,,,1215.9489962999942,1215.9489962999942,1215.9489962999942,1215.9489962999942,0,,,0,,,0,,,1,0.025555300002451986,0.040485400008037686,1216.761505699993,1216.761505699993,1216.761505699993,1216.761505699993,25,B,2024-05-01_10h21.31.917,attentional_competition_task,2022.2.4,144.12793947356295,
positions.xlsx,positions_test.xlsx,positions_test_new.xlsx,stimuli.xlsx,stimuli_new.xlsx,stimuli/Social2.png,stimuli/Social1.png,stimuli/Nonsocial2.png,stimuli/Nonsocial1.png,stimuli/Social4.png,stimuli/Social3.png,stimuli/Nonsocial4.png,stimuli/Nonsocial3.png,,,"(-0.7, -0.5)",cs_neg_ns,"(-0.7, 0.5)",cs_neg_s,"(0.7, -0.5)",cs_pos_ns,"(0.7, 0.5)",cs_pos_s,0,0,0,0,,,,,,,,,,,,,,,,,,,,,1,7,31,15,,,,,,,,,,,,,,,,,,,,,,,,,,,318,reward,,,,,,1223.7820646999899,1223.7820646999899,1223.7820646999899,1223.7820646999899,0,,,0,,,0,,,0,,,1224.761177999986,1224.761177999986,1224.761177999986,1224.761177999986,25,B,2024-05-01_10h21.31.917,attentional_competition_task,2022.2.4,144.12793947356295,
positions.xlsx,positions_test.xlsx,positions_test_new.xlsx,stimuli.xlsx,stimuli_new.xlsx,stimuli/Social2.png,stimuli/Social1.png,stimuli/Nonsocial2.png,stimuli/Nonsocial1.png,stimuli/Social4.png,stimuli/Social3.png,stimuli/Nonsocial4.png,stimuli/Nonsocial3.png,,,"(-0.7, -0.5)",cs_neg_s,"(-0.7, 0.5)",cs_neg_ns,"(0.7, -0.5)",cs_pos_s,"(0.7, 0.5)",cs_pos_ns,0,0,0,0,,,,,,,,,,,,,,,,,,,,,1,8,32,2,,,,,,,,,,,,,,,,,,,,,,,,,,,324,reward,,,,,,1233.3927778999932,1233.3927778999932,1233.3927778999932,1233.3927778999932,0,,,0,,,0,,,0,,,1234.0802291,1234.0802291,1234.0802291,1234.0802291,25,B,2024-05-01_10h21.31.917,attentional_competition_task,2022.2.4,144.12793947356295,
positions.xlsx,positions_test.xlsx,positions_test_new.xlsx,stimuli.xlsx,stimuli_new.xlsx,stimuli/Social2.png,stimuli/Social1.png,stimuli/Nonsocial2.png,stimuli/Nonsocial1.png,stimuli/Social4.png,stimuli/Social3.png,stimuli/Nonsocial4.png,stimuli/Nonsocial3.png,,,"(-0.7, -0.5)",cs_pos_ns,"(-0.7, 0.5)",cs_neg_s,"(0.7, -0.5)",cs_neg_ns,"(0.7, 0.5)",cs_pos_s,0,0,0,0,,,,,,,,,,,,,,,,,,,,,1,9,33,23,,,,,,,,,,,,,,,,,,,,,,,,,,,333,reward,,,,,,1241.2605483999941,1241.2605483999941,1241.2605483999941,1241.2605483999941,0,,,0,,,0,,,0,,,1242.121604,1242.121604,1242.121604,1242.121604,25,B,2024-05-01_10h21.31.917,attentional_competition_task,2022.2.4,144.12793947356295,
positions.xlsx,positions_test.xlsx,positions_test_new.xlsx,stimuli.xlsx,stimuli_new.xlsx,stimuli/Social2.png,stimuli/Social1.png,stimuli/Nonsocial2.png,stimuli/Nonsocial1.png,stimuli/Social4.png,stimuli/Social3.png,stimuli/Nonsocial4.png,stimuli/Nonsocial3.png,,,"(-0.7, -0.5)",cs_neg_ns,"(-0.7, 0.5)",cs_neg_s,"(0.7, -0.5)",cs_pos_s,"(0.7, 0.5)",cs_pos_ns,0,0,0,0,,,,,,,,,,,,,,,,,,,,,1,10,34,14,,,,,,,,,,,,,,,,,,,,,,,,,,,342,reward,,,,,,1250.1073988999997,1250.1073988999997,1250.1073988999997,1250.1073988999997,0,,,0,,,0,,,0,,,1250.780974999987,1250.780974999987,1250.780974999987,1250.780974999987,25,B,2024-05-01_10h21.31.917,attentional_competition_task,2022.2.4,144.12793947356295,
positions.xlsx,positions_test.xlsx,positions_test_new.xlsx,stimuli.xlsx,stimuli_new.xlsx,stimuli/Social2.png,stimuli/Social1.png,stimuli/Nonsocial2.png,stimuli/Nonsocial1.png,stimuli/Social4.png,stimuli/Social3.png,stimuli/Nonsocial4.png,stimuli/Nonsocial3.png,,,"(-0.7, -0.5)",cs_neg_s,"(-0.7, 0.5)",cs_pos_s,"(0.7, -0.5)",cs_pos_ns,"(0.7, 0.5)",cs_neg_ns,0,0,0,0,,,,,,,,,,,,,,,,,,,,,1,11,35,1,,,,,,,,,,,,,,,,,,,,,,,,,,,345,reward,,,,,,1258.7945763999887,1258.7945763999887,1258.7945763999887,1258.7945763999887,0,,,0,,,1,0.027968700000201352,0.027972299998509698,0,,,1258.7945763999887,1258.7945763999887,1258.7945763999887,1258.7945763999887,25,B,2024-05-01_10h21.31.917,attentional_competition_task,2022.2.4,144.12793947356295,
positions.xlsx,positions_test.xlsx,positions_test_new.xlsx,stimuli.xlsx,stimuli_new.xlsx,stimuli/Social2.png,stimuli/Social1.png,stimuli/Nonsocial2.png,stimuli/Nonsocial1.png,stimuli/Social4.png,stimuli/Social3.png,stimuli/Nonsocial4.png,stimuli/Nonsocial3.png,,,"(-0.7, -0.5)",cs_neg_ns,"(-0.7, 0.5)",cs_pos_ns,"(0.7, -0.5)",cs_pos_s,"(0.7, 0.5)",cs_neg_s,0,0,0,0,,,,,,,,,,,,,,,,,,,,,1,12,36,16,,,,,,,,,,,,,,,,,,,,,,,,,,,354,reward,,,,,,1266.4400598999928,1266.4400598999928,1266.4400598999928,1266.4400598999928,0,,,0,,,0,,,0,,,1267.016450799987,1267.016450799987,1267.016450799987,1267.016450799987,25,B,2024-05-01_10h21.31.917,attentional_competition_task,2022.2.4,144.12793947356295,
positions.xlsx,positions_test.xlsx,positions_test_new.xlsx,stimuli.xlsx,stimuli_new.xlsx,stimuli/Social2.png,stimuli/Social1.png,stimuli/Nonsocial2.png,stimuli/Nonsocial1.png,stimuli/Social4.png,stimuli/Social3.png,stimuli/Nonsocial4.png,stimuli/Nonsocial3.png,,,"(-0.7, -0.5)",cs_pos_ns,"(-0.7, 0.5)",cs_neg_ns,"(0.7, -0.5)",cs_pos_s,"(0.7, 0.5)",cs_neg_s,0,0,0,0,,,,,,,,,,,,,,,,,,,,,1,13,37,20,,,,,,,,,,,,,,,,,,,,,,,,,,,360,reward,,,,,,1274.377218499998,1274.377218499998,1274.377218499998,1274.377218499998,0,,,0,,,1,0.3493282999988878,0.34933209999871906,0,,,1274.7314726999903,1274.7314726999903,1274.7314726999903,1274.7314726999903,25,B,2024-05-01_10h21.31.917,attentional_competition_task,2022.2.4,144.12793947356295,
positions.xlsx,positions_test.xlsx,positions_test_new.xlsx,stimuli.xlsx,stimuli_new.xlsx,stimuli/Social2.png,stimuli/Social1.png,stimuli/Nonsocial2.png,stimuli/Nonsocial1.png,stimuli/Social4.png,stimuli/Social3.png,stimuli/Nonsocial4.png,stimuli/Nonsocial3.png,,,"(-0.7, -0.5)",cs_neg_ns,"(-0.7, 0.5)",cs_pos_s,"(0.7, -0.5)",cs_pos_ns,"(0.7, 0.5)",cs_neg_s,0,0,0,0,,,,,,,,,,,,,,,,,,,,,1,14,38,13,,,,,,,,,,,,,,,,,,,,,,,,,,,369,reward,,,,,,1283.27275009999,1283.27275009999,1283.27275009999,1283.27275009999,0,,,0,,,1,0.02453669998794794,0.04509139999572653,0,,,1284.1129660999868,1284.1129660999868,1284.1129660999868,1284.1129660999868,25,B,2024-05-01_10h21.31.917,attentional_competition_task,2022.2.4,144.12793947356295,
positions.xlsx,positions_test.xlsx,positions_test_new.xlsx,stimuli.xlsx,stimuli_new.xlsx,stimuli/Social2.png,stimuli/Social1.png,stimuli/Nonsocial2.png,stimuli/Nonsocial1.png,stimuli/Social4.png,stimuli/Social3.png,stimuli/Nonsocial4.png,stimuli/Nonsocial3.png,,,"(-0.7, -0.5)",cs_pos_ns,"(-0.7, 0.5)",cs_pos_s,"(0.7, -0.5)",cs_neg_s,"(0.7, 0.5)",cs_neg_ns,0,0,0,0,,,,,,,,,,,,,,,,,,,,,1,15,39,19,,,,,,,,,,,,,,,,,,,,,,,,,,,378,reward,,,,,,1291.4738106999866,1291.4738106999866,1291.4738106999866,1291.4738106999866,0,,,0,,,0,,,0,,,1292.3557006999908,1292.3557006999908,1292.3557006999908,1292.3557006999908,25,B,2024-05-01_10h21.31.917,attentional_competition_task,2022.2.4,144.12793947356295,
positions.xlsx,positions_test.xlsx,positions_test_new.xlsx,stimuli.xlsx,stimuli_new.xlsx,stimuli/Social2.png,stimuli/Social1.png,stimuli/Nonsocial2.png,stimuli/Nonsocial1.png,stimuli/Social4.png,stimuli/Social3.png,stimuli/Nonsocial4.png,stimuli/Nonsocial3.png,,,"(-0.7, -0.5)",cs_neg_ns,"(-0.7, 0.5)",cs_pos_ns,"(0.7, -0.5)",cs_neg_s,"(0.7, 0.5)",cs_pos_s,0,0,0,0,,,,,,,,,,,,,,,,,,,,,1,16,40,17,,,,,,,,,,,,,,,,,,,,,,,,,,,387,reward,,,,,,1300.5914993999904,1300.5914993999904,1300.5914993999904,1300.5914993999904,0,,,0,,,0,,,0,,,1301.348398999995,1301.348398999995,1301.348398999995,1301.348398999995,25,B,2024-05-01_10h21.31.917,attentional_competition_task,2022.2.4,144.12793947356295,
positions.xlsx,positions_test.xlsx,positions_test_new.xlsx,stimuli.xlsx,stimuli_new.xlsx,stimuli/Social2.png,stimuli/Social1.png,stimuli/Nonsocial2.png,stimuli/Nonsocial1.png,stimuli/Social4.png,stimuli/Social3.png,stimuli/Nonsocial4.png,stimuli/Nonsocial3.png,,,"(-0.7, -0.5)",cs_neg_s,"(-0.7, 0.5)",cs_pos_ns,"(0.7, -0.5)",cs_neg_ns,"(0.7, 0.5)",cs_pos_s,0,0,0,0,,,,,,,,,,,,,,,,,,,,,1,17,41,5,,,,,,,,,,,,,,,,,,,,,,,,,,,396,reward,,,,,,1309.5494334999967,1309.5494334999967,1309.5494334999967,1309.5494334999967,0,,,0,,,0,,,0,,,1310.3342368999874,1310.3342368999874,1310.3342368999874,1310.3342368999874,25,B,2024-05-01_10h21.31.917,attentional_competition_task,2022.2.4,144.12793947356295,
positions.xlsx,positions_test.xlsx,positions_test_new.xlsx,stimuli.xlsx,stimuli_new.xlsx,stimuli/Social2.png,stimuli/Social1.png,stimuli/Nonsocial2.png,stimuli/Nonsocial1.png,stimuli/Social4.png,stimuli/Social3.png,stimuli/Nonsocial4.png,stimuli/Nonsocial3.png,,,"(-0.7, -0.5)",cs_pos_s,"(-0.7, 0.5)",cs_neg_ns,"(0.7, -0.5)",cs_neg_s,"(0.7, 0.5)",cs_pos_ns,0,0,0,0,,,,,,,,,,,,,,,,,,,,,1,18,42,8,,,,,,,,,,,,,,,,,,,,,,,,,,,405,reward,,,,,,1317.6185998,1317.6185998,1317.6185998,1317.6185998,0,,,0,,,0,,,0,,,1318.465764099994,1318.465764099994,1318.465764099994,1318.465764099994,25,B,2024-05-01_10h21.31.917,attentional_competition_task,2022.2.4,144.12793947356295,
positions.xlsx,positions_test.xlsx,positions_test_new.xlsx,stimuli.xlsx,stimuli_new.xlsx,stimuli/Social2.png,stimuli/Social1.png,stimuli/Nonsocial2.png,stimuli/Nonsocial1.png,stimuli/Social4.png,stimuli/Social3.png,stimuli/Nonsocial4.png,stimuli/Nonsocial3.png,,,"(-0.7, -0.5)",cs_pos_ns,"(-0.7, 0.5)",cs_pos_s,"(0.7, -0.5)",cs_neg_ns,"(0.7, 0.5)",cs_neg_s,0,0,0,0,,,,,,,,,,,,,,,,,,,,,1,19,43,18,,,,,,,,,,,,,,,,,,,,,,,,,,,414,reward,,,,,,1326.750132199988,1326.750132199988,1326.750132199988,1326.750132199988,0,,,0,,,0,,,0,,,1327.666793299999,1327.666793299999,1327.666793299999,1327.666793299999,25,B,2024-05-01_10h21.31.917,attentional_competition_task,2022.2.4,144.12793947356295,
positions.xlsx,positions_test.xlsx,positions_test_new.xlsx,stimuli.xlsx,stimuli_new.xlsx,stimuli/Social2.png,stimuli/Social1.png,stimuli/Nonsocial2.png,stimuli/Nonsocial1.png,stimuli/Social4.png,stimuli/Social3.png,stimuli/Nonsocial4.png,stimuli/Nonsocial3.png,,,"(-0.7, -0.5)",cs_neg_s,"(-0.7, 0.5)",cs_pos_ns,"(0.7, -0.5)",cs_pos_s,"(0.7, 0.5)",cs_neg_ns,0,0,0,0,,,,,,,,,,,,,,,,,,,,,1,20,44,4,,,,,,,,,,,,,,,,,,,,,,,,,,,423,reward,,,,,,1335.4025404999993,1335.4025404999993,1335.4025404999993,1335.4025404999993,0,,,0,,,0,,,0,,,1336.1595256,1336.1595256,1336.1595256,1336.1595256,25,B,2024-05-01_10h21.31.917,attentional_competition_task,2022.2.4,144.12793947356295,
positions.xlsx,positions_test.xlsx,positions_test_new.xlsx,stimuli.xlsx,stimuli_new.xlsx,stimuli/Social2.png,stimuli/Social1.png,stimuli/Nonsocial2.png,stimuli/Nonsocial1.png,stimuli/Social4.png,stimuli/Social3.png,stimuli/Nonsocial4.png,stimuli/Nonsocial3.png,,,"(-0.7, -0.5)",cs_neg_s,"(-0.7, 0.5)",cs_pos_s,"(0.7, -0.5)",cs_neg_ns,"(0.7, 0.5)",cs_pos_ns,0,0,0,0,,,,,,,,,,,,,,,,,,,,,1,21,45,0,,,,,,,,,,,,,,,,,,,,,,,,,,,432,reward,,,,,,1343.7842110999918,1343.7842110999918,1343.7842110999918,1343.7842110999918,0,,,0,,,0,,,0,,,1344.416133599996,1344.416133599996,1344.416133599996,1344.416133599996,25,B,2024-05-01_10h21.31.917,attentional_competition_task,2022.2.4,144.12793947356295,
positions.xlsx,positions_test.xlsx,positions_test_new.xlsx,stimuli.xlsx,stimuli_new.xlsx,stimuli/Social2.png,stimuli/Social1.png,stimuli/Nonsocial2.png,stimuli/Nonsocial1.png,stimuli/Social4.png,stimuli/Social3.png,stimuli/Nonsocial4.png,stimuli/Nonsocial3.png,,,"(-0.7, -0.5)",cs_pos_s,"(-0.7, 0.5)",cs_neg_s,"(0.7, -0.5)",cs_pos_ns,"(0.7, 0.5)",cs_neg_ns,0,0,0,0,,,,,,,,,,,,,,,,,,,,,1,22,46,7,,,,,,,,,,,,,,,,,,,,,,,,,,,435,reward,,,,,,1350.7005767999945,1350.7005767999945,1350.7005767999945,1350.7005767999945,1,1.6683741000015289,1.6683780000021216,0,,,0,,,0,,,1352.3672114999936,1352.3672114999936,1352.3672114999936,1352.3672114999936,25,B,2024-05-01_10h21.31.917,attentional_competition_task,2022.2.4,144.12793947356295,
positions.xlsx,positions_test.xlsx,positions_test_new.xlsx,stimuli.xlsx,stimuli_new.xlsx,stimuli/Social2.png,stimuli/Social1.png,stimuli/Nonsocial2.png,stimuli/Nonsocial1.png,stimuli/Social4.png,stimuli/Social3.png,stimuli/Nonsocial4.png,stimuli/Nonsocial3.png,,,"(-0.7, -0.5)",cs_pos_s,"(-0.7, 0.5)",cs_pos_ns,"(0.7, -0.5)",cs_neg_s,"(0.7, 0.5)",cs_neg_ns,0,0,0,0,,,,,,,,,,,,,,,,,,,,,1,23,47,10,,,,,,,,,,,,,,,,,,,,,,,,,,,444,reward,,,,,,1361.186279799993,1361.186279799993,1361.186279799993,1361.186279799993,0,,,0,,,0,,,0,,,1362.109873999987,1362.109873999987,1362.109873999987,1362.109873999987,25,B,2024-05-01_10h21.31.917,attentional_competition_task,2022.2.4,144.12793947356295,
positions.xlsx,positions_test.xlsx,positions_test_new.xlsx,stimuli.xlsx,stimuli_new.xlsx,stimuli/Social2.png,stimuli/Social1.png,stimuli/Nonsocial2.png,stimuli/Nonsocial1.png,stimuli/Social4.png,stimuli/Social3.png,stimuli/Nonsocial4.png,stimuli/Nonsocial3.png,,,"(-0.7, -0.5)",cs_neg_s,"(-0.7, 0.5)",cs_pos_ns,"(0.7, -0.5)",cs_neg_ns,"(0.7, 0.5)",cs_pos_s,0,0,0,0,,,,,,,,,,,,,,,,,,,,,,,,,,,,,0,0,0,2,0,0,0,0,,,,,,,,,,,,,,,447,reward,,,,,,1368.1443542999914,1368.1443542999914,1368.1443542999914,1368.1443542999914,0,,,0,,,0,,,1,0.5656286000012187,0.5656326000025729,1368.7207082999957,1368.7207082999957,1368.7207082999957,1368.7207082999957,25,B,2024-05-01_10h21.31.917,attentional_competition_task,2022.2.4,144.12793947356295,
positions.xlsx,positions_test.xlsx,positions_test_new.xlsx,stimuli.xlsx,stimuli_new.xlsx,stimuli/Social2.png,stimuli/Social1.png,stimuli/Nonsocial2.png,stimuli/Nonsocial1.png,stimuli/Social4.png,stimuli/Social3.png,stimuli/Nonsocial4.png,stimuli/Nonsocial3.png,,,"(-0.7, -0.5)",cs_neg_s,"(-0.7, 0.5)",cs_pos_ns,"(0.7, -0.5)",cs_neg_ns,"(0.7, 0.5)",cs_pos_s,0,0,0,0,,,,,,,,,,,,,,,,,,,,,,,,,,,,,0,0,0,2,1,0,1,0,,,,,,,,,,,,,,,450,reward,,,,,,1369.2484627999947,1369.2484627999947,1369.2484627999947,1369.2484627999947,0,,,1,0.02950309999869205,0.029509200001484714,0,,,0,,,1369.2484627999947,1369.2484627999947,1369.2484627999947,1369.2484627999947,25,B,2024-05-01_10h21.31.917,attentional_competition_task,2022.2.4,144.12793947356295,
positions.xlsx,positions_test.xlsx,positions_test_new.xlsx,stimuli.xlsx,stimuli_new.xlsx,stimuli/Social2.png,stimuli/Social1.png,stimuli/Nonsocial2.png,stimuli/Nonsocial1.png,stimuli/Social4.png,stimuli/Social3.png,stimuli/Nonsocial4.png,stimuli/Nonsocial3.png,,,"(-0.7, -0.5)",cs_neg_s,"(-0.7, 0.5)",cs_pos_ns,"(0.7, -0.5)",cs_neg_ns,"(0.7, 0.5)",cs_pos_s,0,0,0,0,,,,,,,,,,,,,,,,,,,,,,,,,,,,,0,0,0,2,2,0,2,0,,,,,,,,,,,,,,,453,reward,,,,,,1369.7553969999863,1369.7553969999863,1369.7553969999863,1369.7553969999863,0,,,0,,,0,,,0,,,1370.665151899986,1370.665151899986,1370.665151899986,1370.665151899986,25,B,2024-05-01_10h21.31.917,attentional_competition_task,2022.2.4,144.12793947356295,
positions.xlsx,positions_test.xlsx,positions_test_new.xlsx,stimuli.xlsx,stimuli_new.xlsx,stimuli/Social2.png,stimuli/Social1.png,stimuli/Nonsocial2.png,stimuli/Nonsocial1.png,stimuli/Social4.png,stimuli/Social3.png,stimuli/Nonsocial4.png,stimuli/Nonsocial3.png,,,"(-0.7, -0.5)",cs_neg_s,"(-0.7, 0.5)",cs_pos_ns,"(0.7, -0.5)",cs_neg_ns,"(0.7, 0.5)",cs_pos_s,0,0,0,0,,,,,,,,,,,,,,,,,,,,,,,,,,,,,0,0,0,2,,,,,,,,,,,,,,,,,,,,,,,,,,,,,,,,,,,,,,,,,,,,,,25,B,2024-05-01_10h21.31.917,attentional_competition_task,2022.2.4,144.12793947356295,
positions.xlsx,positions_test.xlsx,positions_test_new.xlsx,stimuli.xlsx,stimuli_new.xlsx,stimuli/Social2.png,stimuli/Social1.png,stimuli/Nonsocial2.png,stimuli/Nonsocial1.png,stimuli/Social4.png,stimuli/Social3.png,stimuli/Nonsocial4.png,stimuli/Nonsocial3.png,,,"(-0.7, -0.5)",cs_neg_s,"(-0.7, 0.5)",cs_pos_ns,"(0.7, -0.5)",cs_pos_s_new,"(0.7, 0.5)",cs_neg_ns,0,0,0,0,,,,,,,,,,,,,,,,,,,,,,,,,,,,,0,1,1,34,0,0,0,0,,,,,,,,,,,,,,,456,reward,,,,,,1376.8731434999936,1376.8731434999936,1376.8731434999936,1376.8731434999936,0,,,0,,,1,0.8778553000011016,0.8778592000016943,0,,,1377.7550988999865,1377.7550988999865,1377.7550988999865,1377.7550988999865,25,B,2024-05-01_10h21.31.917,attentional_competition_task,2022.2.4,144.12793947356295,
positions.xlsx,positions_test.xlsx,positions_test_new.xlsx,stimuli.xlsx,stimuli_new.xlsx,stimuli/Social2.png,stimuli/Social1.png,stimuli/Nonsocial2.png,stimuli/Nonsocial1.png,stimuli/Social4.png,stimuli/Social3.png,stimuli/Nonsocial4.png,stimuli/Nonsocial3.png,,,"(-0.7, -0.5)",cs_neg_s,"(-0.7, 0.5)",cs_pos_ns,"(0.7, -0.5)",cs_pos_s_new,"(0.7, 0.5)",cs_neg_ns,0,0,0,0,,,,,,,,,,,,,,,,,,,,,,,,,,,,,0,1,1,34,1,0,1,0,,,,,,,,,,,,,,,453,loss,,,,,,1378.2897849999863,1378.2897849999863,1378.2897849999863,1378.2897849999863,1,0.0293015000061132,0.029305600008228794,0,,,0,,,0,,,1378.2897849999863,1378.2897849999863,1378.2897849999863,1378.2897849999863,25,B,2024-05-01_10h21.31.917,attentional_competition_task,2022.2.4,144.12793947356295,
positions.xlsx,positions_test.xlsx,positions_test_new.xlsx,stimuli.xlsx,stimuli_new.xlsx,stimuli/Social2.png,stimuli/Social1.png,stimuli/Nonsocial2.png,stimuli/Nonsocial1.png,stimuli/Social4.png,stimuli/Social3.png,stimuli/Nonsocial4.png,stimuli/Nonsocial3.png,,,"(-0.7, -0.5)",cs_neg_s,"(-0.7, 0.5)",cs_pos_ns,"(0.7, -0.5)",cs_pos_s_new,"(0.7, 0.5)",cs_neg_ns,0,0,0,0,,,,,,,,,,,,,,,,,,,,,,,,,,,,,0,1,1,34,2,0,2,0,,,,,,,,,,,,,,,450,loss,,,,,,1378.7966779999988,1378.7966779999988,1378.7966779999988,1378.7966779999988,0,,,0,,,0,,,1,0.04582569999911357,0.04582959999970626,1378.8453336999955,1378.8453336999955,1378.8453336999955,1378.8453336999955,25,B,2024-05-01_10h21.31.917,attentional_competition_task,2022.2.4,144.12793947356295,
positions.xlsx,positions_test.xlsx,positions_test_new.xlsx,stimuli.xlsx,stimuli_new.xlsx,stimuli/Social2.png,stimuli/Social1.png,stimuli/Nonsocial2.png,stimuli/Nonsocial1.png,stimuli/Social4.png,stimuli/Social3.png,stimuli/Nonsocial4.png,stimuli/Nonsocial3.png,,,"(-0.7, -0.5)",cs_neg_s,"(-0.7, 0.5)",cs_pos_ns,"(0.7, -0.5)",cs_pos_s_new,"(0.7, 0.5)",cs_neg_ns,0,0,0,0,,,,,,,,,,,,,,,,,,,,,,,,,,,,,0,1,1,34,,,,,,,,,,,,,,,,,,,,,,,,,,,,,,,,,,,,,,,,,,,,,,25,B,2024-05-01_10h21.31.917,attentional_competition_task,2022.2.4,144.12793947356295,
positions.xlsx,positions_test.xlsx,positions_test_new.xlsx,stimuli.xlsx,stimuli_new.xlsx,stimuli/Social2.png,stimuli/Social1.png,stimuli/Nonsocial2.png,stimuli/Nonsocial1.png,stimuli/Social4.png,stimuli/Social3.png,stimuli/Nonsocial4.png,stimuli/Nonsocial3.png,,,"(-0.7, -0.5)",cs_neg_ns,"(-0.7, 0.5)",cs_pos_s,"(0.7, -0.5)",cs_pos_ns,"(0.7, 0.5)",cs_neg_s_new,0,0,0,0,,,,,,,,,,,,,,,,,,,,,,,,,,,,,0,2,2,8,0,0,0,0,,,,,,,,,,,,,,,453,reward,,,,,,1384.7617448999954,1384.7617448999954,1384.7617448999954,1384.7617448999954,0,,,1,0.8145980999979656,0.8146020999993198,0,,,0,,,1385.5811522000004,1385.5811522000004,1385.5811522000004,1385.5811522000004,25,B,2024-05-01_10h21.31.917,attentional_competition_task,2022.2.4,144.12793947356295,
positions.xlsx,positions_test.xlsx,positions_test_new.xlsx,stimuli.xlsx,stimuli_new.xlsx,stimuli/Social2.png,stimuli/Social1.png,stimuli/Nonsocial2.png,stimuli/Nonsocial1.png,stimuli/Social4.png,stimuli/Social3.png,stimuli/Nonsocial4.png,stimuli/Nonsocial3.png,,,"(-0.7, -0.5)",cs_neg_ns,"(-0.7, 0.5)",cs_pos_s,"(0.7, -0.5)",cs_pos_ns,"(0.7, 0.5)",cs_neg_s_new,0,0,0,0,,,,,,,,,,,,,,,,,,,,,,,,,,,,,0,2,2,8,1,0,1,0,,,,,,,,,,,,,,,456,reward,,,,,,1386.0880991999875,1386.0880991999875,1386.0880991999875,1386.0880991999875,0,,,0,,,1,0.2593456000031438,0.25934930000221357,0,,,1386.3450950999977,1386.3450950999977,1386.3450950999977,1386.3450950999977,25,B,2024-05-01_10h21.31.917,attentional_competition_task,2022.2.4,144.12793947356295,
positions.xlsx,positions_test.xlsx,positions_test_new.xlsx,stimuli.xlsx,stimuli_new.xlsx,stimuli/Social2.png,stimuli/Social1.png,stimuli/Nonsocial2.png,stimuli/Nonsocial1.png,stimuli/Social4.png,stimuli/Social3.png,stimuli/Nonsocial4.png,stimuli/Nonsocial3.png,,,"(-0.7, -0.5)",cs_neg_ns,"(-0.7, 0.5)",cs_pos_s,"(0.7, -0.5)",cs_pos_ns,"(0.7, 0.5)",cs_neg_s_new,0,0,0,0,,,,,,,,,,,,,,,,,,,,,,,,,,,,,0,2,2,8,,,,,,,,,,,,,,,,,,,,,,,,,,,,,,,,,,,,,,,,,,,,,,25,B,2024-05-01_10h21.31.917,attentional_competition_task,2022.2.4,144.12793947356295,
positions.xlsx,positions_test.xlsx,positions_test_new.xlsx,stimuli.xlsx,stimuli_new.xlsx,stimuli/Social2.png,stimuli/Social1.png,stimuli/Nonsocial2.png,stimuli/Nonsocial1.png,stimuli/Social4.png,stimuli/Social3.png,stimuli/Nonsocial4.png,stimuli/Nonsocial3.png,,,"(-0.7, -0.5)",cs_neg_s,"(-0.7, 0.5)",cs_neg_ns,"(0.7, -0.5)",cs_pos_ns,"(0.7, 0.5)",cs_pos_s,0,0,0,0,,,,,,,,,,,,,,,,,,,,,,,,,,,,,0,3,3,5,0,0,0,0,,,,,,,,,,,,,,,459,reward,,,,,,1393.6155379999982,1393.6155379999982,1393.6155379999982,1393.6155379999982,0,,,0,,,0,,,1,0.6135408999980427,0.6135463999962667,1394.233594499994,1394.233594499994,1394.233594499994,1394.233594499994,25,B,2024-05-01_10h21.31.917,attentional_competition_task,2022.2.4,144.12793947356295,
positions.xlsx,positions_test.xlsx,positions_test_new.xlsx,stimuli.xlsx,stimuli_new.xlsx,stimuli/Social2.png,stimuli/Social1.png,stimuli/Nonsocial2.png,stimuli/Nonsocial1.png,stimuli/Social4.png,stimuli/Social3.png,stimuli/Nonsocial4.png,stimuli/Nonsocial3.png,,,"(-0.7, -0.5)",cs_neg_s,"(-0.7, 0.5)",cs_neg_ns,"(0.7, -0.5)",cs_pos_ns,"(0.7, 0.5)",cs_pos_s,0,0,0,0,,,,,,,,,,,,,,,,,,,,,,,,,,,,,0,3,3,5,1,0,1,0,,,,,,,,,,,,,,,456,loss,,,,,,1394.7682990999892,1394.7682990999892,1394.7682990999892,1394.7682990999892,1,0.03016599999682512,0.030170099998940714,0,,,0,,,0,,,1394.7682990999892,1394.7682990999892,1394.7682990999892,1394.7682990999892,25,B,2024-05-01_10h21.31.917,attentional_competition_task,2022.2.4,144.12793947356295,
positions.xlsx,positions_test.xlsx,positions_test_new.xlsx,stimuli.xlsx,stimuli_new.xlsx,stimuli/Social2.png,stimuli/Social1.png,stimuli/Nonsocial2.png,stimuli/Nonsocial1.png,stimuli/Social4.png,stimuli/Social3.png,stimuli/Nonsocial4.png,stimuli/Nonsocial3.png,,,"(-0.7, -0.5)",cs_neg_s,"(-0.7, 0.5)",cs_neg_ns,"(0.7, -0.5)",cs_pos_ns,"(0.7, 0.5)",cs_pos_s,0,0,0,0,,,,,,,,,,,,,,,,,,,,,,,,,,,,,0,3,3,5,2,0,2,0,,,,,,,,,,,,,,,459,reward,,,,,,1395.2960351999936,1395.2960351999936,1395.2960351999936,1395.2960351999936,0,,,0,,,0,,,0,,,1395.2960351999936,1395.2960351999936,1395.2960351999936,1395.2960351999936,25,B,2024-05-01_10h21.31.917,attentional_competition_task,2022.2.4,144.12793947356295,
positions.xlsx,positions_test.xlsx,positions_test_new.xlsx,stimuli.xlsx,stimuli_new.xlsx,stimuli/Social2.png,stimuli/Social1.png,stimuli/Nonsocial2.png,stimuli/Nonsocial1.png,stimuli/Social4.png,stimuli/Social3.png,stimuli/Nonsocial4.png,stimuli/Nonsocial3.png,,,"(-0.7, -0.5)",cs_neg_s,"(-0.7, 0.5)",cs_neg_ns,"(0.7, -0.5)",cs_pos_ns,"(0.7, 0.5)",cs_pos_s,0,0,0,0,,,,,,,,,,,,,,,,,,,,,,,,,,,,,0,3,3,5,,,,,,,,,,,,,,,,,,,,,,,,,,,,,,,,,,,,,,,,,,,,,,25,B,2024-05-01_10h21.31.917,attentional_competition_task,2022.2.4,144.12793947356295,
positions.xlsx,positions_test.xlsx,positions_test_new.xlsx,stimuli.xlsx,stimuli_new.xlsx,stimuli/Social2.png,stimuli/Social1.png,stimuli/Nonsocial2.png,stimuli/Nonsocial1.png,stimuli/Social4.png,stimuli/Social3.png,stimuli/Nonsocial4.png,stimuli/Nonsocial3.png,,,"(-0.7, -0.5)",cs_neg_ns,"(-0.7, 0.5)",cs_pos_s,"(0.7, -0.5)",cs_pos_ns,"(0.7, 0.5)",cs_neg_s,0,0,0,0,,,,,,,,,,,,,,,,,,,,,,,,,,,,,0,4,4,0,0,0,0,0,,,,,,,,,,,,,,,462,reward,,,,,,1402.2193784999981,1402.2193784999981,1402.2193784999981,1402.2193784999981,0,,,1,0.682470599989756,0.6824741000018548,0,,,0,,,1402.9207557999907,1402.9207557999907,1402.9207557999907,1402.9207557999907,25,B,2024-05-01_10h21.31.917,attentional_competition_task,2022.2.4,144.12793947356295,
positions.xlsx,positions_test.xlsx,positions_test_new.xlsx,stimuli.xlsx,stimuli_new.xlsx,stimuli/Social2.png,stimuli/Social1.png,stimuli/Nonsocial2.png,stimuli/Nonsocial1.png,stimuli/Social4.png,stimuli/Social3.png,stimuli/Nonsocial4.png,stimuli/Nonsocial3.png,,,"(-0.7, -0.5)",cs_neg_ns,"(-0.7, 0.5)",cs_pos_s,"(0.7, -0.5)",cs_pos_ns,"(0.7, 0.5)",cs_neg_s,0,0,0,0,,,,,,,,,,,,,,,,,,,,,,,,,,,,,0,4,4,0,1,0,1,0,,,,,,,,,,,,,,,465,reward,,,,,,1403.4068172999978,1403.4068172999978,1403.4068172999978,1403.4068172999978,0,,,0,,,1,0.05029610000201501,0.050299599999561906,0,,,1403.4624132999888,1403.4624132999888,1403.4624132999888,1403.4624132999888,25,B,2024-05-01_10h21.31.917,attentional_competition_task,2022.2.4,144.12793947356295,
positions.xlsx,positions_test.xlsx,positions_test_new.xlsx,stimuli.xlsx,stimuli_new.xlsx,stimuli/Social2.png,stimuli/Social1.png,stimuli/Nonsocial2.png,stimuli/Nonsocial1.png,stimuli/Social4.png,stimuli/Social3.png,stimuli/Nonsocial4.png,stimuli/Nonsocial3.png,,,"(-0.7, -0.5)",cs_neg_ns,"(-0.7, 0.5)",cs_pos_s,"(0.7, -0.5)",cs_pos_ns,"(0.7, 0.5)",cs_neg_s,0,0,0,0,,,,,,,,,,,,,,,,,,,,,,,,,,,,,0,4,4,0,2,0,2,0,,,,,,,,,,,,,,,468,reward,,,,,,1403.9692937999935,1403.9692937999935,1403.9692937999935,1403.9692937999935,0,,,0,,,1,0.03180860000429675,0.26655280000704806,0,,,1404.7331740999944,1404.7331740999944,1404.7331740999944,1404.7331740999944,25,B,2024-05-01_10h21.31.917,attentional_competition_task,2022.2.4,144.12793947356295,
positions.xlsx,positions_test.xlsx,positions_test_new.xlsx,stimuli.xlsx,stimuli_new.xlsx,stimuli/Social2.png,stimuli/Social1.png,stimuli/Nonsocial2.png,stimuli/Nonsocial1.png,stimuli/Social4.png,stimuli/Social3.png,stimuli/Nonsocial4.png,stimuli/Nonsocial3.png,,,"(-0.7, -0.5)",cs_neg_ns,"(-0.7, 0.5)",cs_pos_s,"(0.7, -0.5)",cs_pos_ns,"(0.7, 0.5)",cs_neg_s,0,0,0,0,,,,,,,,,,,,,,,,,,,,,,,,,,,,,0,4,4,0,,,,,,,,,,,,,,,,,,,,,,,,,,,,,,,,,,,,,,,,,,,,,,25,B,2024-05-01_10h21.31.917,attentional_competition_task,2022.2.4,144.12793947356295,
positions.xlsx,positions_test.xlsx,positions_test_new.xlsx,stimuli.xlsx,stimuli_new.xlsx,stimuli/Social2.png,stimuli/Social1.png,stimuli/Nonsocial2.png,stimuli/Nonsocial1.png,stimuli/Social4.png,stimuli/Social3.png,stimuli/Nonsocial4.png,stimuli/Nonsocial3.png,,,"(-0.7, -0.5)",cs_neg_ns,"(-0.7, 0.5)",cs_neg_s,"(0.7, -0.5)",cs_pos_ns,"(0.7, 0.5)",cs_pos_s_new,0,0,0,0,,,,,,,,,,,,,,,,,,,,,,,,,,,,,0,5,5,36,0,0,0,0,,,,,,,,,,,,,,,471,reward,,,,,,1410.5037796999968,1410.5037796999968,1410.5037796999968,1410.5037796999968,0,,,0,,,1,0.7800420999992639,0.7800457999983337,0,,,1411.2884915999894,1411.2884915999894,1411.2884915999894,1411.2884915999894,25,B,2024-05-01_10h21.31.917,attentional_competition_task,2022.2.4,144.12793947356295,
positions.xlsx,positions_test.xlsx,positions_test_new.xlsx,stimuli.xlsx,stimuli_new.xlsx,stimuli/Social2.png,stimuli/Social1.png,stimuli/Nonsocial2.png,stimuli/Nonsocial1.png,stimuli/Social4.png,stimuli/Social3.png,stimuli/Nonsocial4.png,stimuli/Nonsocial3.png,,,"(-0.7, -0.5)",cs_neg_ns,"(-0.7, 0.5)",cs_neg_s,"(0.7, -0.5)",cs_pos_ns,"(0.7, 0.5)",cs_pos_s_new,0,0,0,0,,,,,,,,,,,,,,,,,,,,,,,,,,,,,0,5,5,36,1,0,1,0,,,,,,,,,,,,,,,474,reward,,,,,,1411.8231726999948,1411.8231726999948,1411.8231726999948,1411.8231726999948,0,,,0,,,0,,,1,0.03167640000174288,0.03168060000461992,1411.8231726999948,1411.8231726999948,1411.8231726999948,1411.8231726999948,25,B,2024-05-01_10h21.31.917,attentional_competition_task,2022.2.4,144.12793947356295,
positions.xlsx,positions_test.xlsx,positions_test_new.xlsx,stimuli.xlsx,stimuli_new.xlsx,stimuli/Social2.png,stimuli/Social1.png,stimuli/Nonsocial2.png,stimuli/Nonsocial1.png,stimuli/Social4.png,stimuli/Social3.png,stimuli/Nonsocial4.png,stimuli/Nonsocial3.png,,,"(-0.7, -0.5)",cs_neg_ns,"(-0.7, 0.5)",cs_neg_s,"(0.7, -0.5)",cs_pos_ns,"(0.7, 0.5)",cs_pos_s_new,0,0,0,0,,,,,,,,,,,,,,,,,,,,,,,,,,,,,0,5,5,36,2,0,2,0,,,,,,,,,,,,,,,477,reward,,,,,,1412.3231854999904,1412.3231854999904,1412.3231854999904,1412.3231854999904,0,,,0,,,0,,,0,,,1413.0175814999966,1413.0175814999966,1413.0175814999966,1413.0175814999966,25,B,2024-05-01_10h21.31.917,attentional_competition_task,2022.2.4,144.12793947356295,
positions.xlsx,positions_test.xlsx,positions_test_new.xlsx,stimuli.xlsx,stimuli_new.xlsx,stimuli/Social2.png,stimuli/Social1.png,stimuli/Nonsocial2.png,stimuli/Nonsocial1.png,stimuli/Social4.png,stimuli/Social3.png,stimuli/Nonsocial4.png,stimuli/Nonsocial3.png,,,"(-0.7, -0.5)",cs_neg_ns,"(-0.7, 0.5)",cs_neg_s,"(0.7, -0.5)",cs_pos_ns,"(0.7, 0.5)",cs_pos_s_new,0,0,0,0,,,,,,,,,,,,,,,,,,,,,,,,,,,,,0,5,5,36,,,,,,,,,,,,,,,,,,,,,,,,,,,,,,,,,,,,,,,,,,,,,,25,B,2024-05-01_10h21.31.917,attentional_competition_task,2022.2.4,144.12793947356295,
positions.xlsx,positions_test.xlsx,positions_test_new.xlsx,stimuli.xlsx,stimuli_new.xlsx,stimuli/Social2.png,stimuli/Social1.png,stimuli/Nonsocial2.png,stimuli/Nonsocial1.png,stimuli/Social4.png,stimuli/Social3.png,stimuli/Nonsocial4.png,stimuli/Nonsocial3.png,,,"(-0.7, -0.5)",cs_neg_s,"(-0.7, 0.5)",cs_pos_s,"(0.7, -0.5)",cs_pos_ns,"(0.7, 0.5)",cs_neg_ns_new,0,0,0,0,,,,,,,,,,,,,,,,,,,,,,,,,,,,,0,6,6,24,0,0,0,0,,,,,,,,,,,,,,,480,reward,,,,,,1419.121465899996,1419.121465899996,1419.121465899996,1419.121465899996,0,,,1,0.9122675999969942,0.9122714999975869,0,,,0,,,1420.0381082999957,1420.0381082999957,1420.0381082999957,1420.0381082999957,25,B,2024-05-01_10h21.31.917,attentional_competition_task,2022.2.4,144.12793947356295,
positions.xlsx,positions_test.xlsx,positions_test_new.xlsx,stimuli.xlsx,stimuli_new.xlsx,stimuli/Social2.png,stimuli/Social1.png,stimuli/Nonsocial2.png,stimuli/Nonsocial1.png,stimuli/Social4.png,stimuli/Social3.png,stimuli/Nonsocial4.png,stimuli/Nonsocial3.png,,,"(-0.7, -0.5)",cs_neg_s,"(-0.7, 0.5)",cs_pos_s,"(0.7, -0.5)",cs_pos_ns,"(0.7, 0.5)",cs_neg_ns_new,0,0,0,0,,,,,,,,,,,,,,,,,,,,,,,,,,,,,0,6,6,24,1,0,1,0,,,,,,,,,,,,,,,483,reward,,,,,,1420.5728220999881,1420.5728220999881,1420.5728220999881,1420.5728220999881,0,,,0,,,1,0.029485399994882755,0.02948929999547545,0,,,1420.5728220999881,1420.5728220999881,1420.5728220999881,1420.5728220999881,25,B,2024-05-01_10h21.31.917,attentional_competition_task,2022.2.4,144.12793947356295,
positions.xlsx,positions_test.xlsx,positions_test_new.xlsx,stimuli.xlsx,stimuli_new.xlsx,stimuli/Social2.png,stimuli/Social1.png,stimuli/Nonsocial2.png,stimuli/Nonsocial1.png,stimuli/Social4.png,stimuli/Social3.png,stimuli/Nonsocial4.png,stimuli/Nonsocial3.png,,,"(-0.7, -0.5)",cs_neg_s,"(-0.7, 0.5)",cs_pos_s,"(0.7, -0.5)",cs_pos_ns,"(0.7, 0.5)",cs_neg_ns_new,0,0,0,0,,,,,,,,,,,,,,,,,,,,,,,,,,,,,0,6,6,24,2,0,2,0,,,,,,,,,,,,,,,486,reward,,,,,,1421.0797508999967,1421.0797508999967,1421.0797508999967,1421.0797508999967,0,,,0,,,0,,,0,,,1421.6422566999972,1421.6422566999972,1421.6422566999972,1421.6422566999972,25,B,2024-05-01_10h21.31.917,attentional_competition_task,2022.2.4,144.12793947356295,
positions.xlsx,positions_test.xlsx,positions_test_new.xlsx,stimuli.xlsx,stimuli_new.xlsx,stimuli/Social2.png,stimuli/Social1.png,stimuli/Nonsocial2.png,stimuli/Nonsocial1.png,stimuli/Social4.png,stimuli/Social3.png,stimuli/Nonsocial4.png,stimuli/Nonsocial3.png,,,"(-0.7, -0.5)",cs_neg_s,"(-0.7, 0.5)",cs_pos_s,"(0.7, -0.5)",cs_pos_ns,"(0.7, 0.5)",cs_neg_ns_new,0,0,0,0,,,,,,,,,,,,,,,,,,,,,,,,,,,,,0,6,6,24,,,,,,,,,,,,,,,,,,,,,,,,,,,,,,,,,,,,,,,,,,,,,,25,B,2024-05-01_10h21.31.917,attentional_competition_task,2022.2.4,144.12793947356295,
positions.xlsx,positions_test.xlsx,positions_test_new.xlsx,stimuli.xlsx,stimuli_new.xlsx,stimuli/Social2.png,stimuli/Social1.png,stimuli/Nonsocial2.png,stimuli/Nonsocial1.png,stimuli/Social4.png,stimuli/Social3.png,stimuli/Nonsocial4.png,stimuli/Nonsocial3.png,,,"(-0.7, -0.5)",cs_neg_ns,"(-0.7, 0.5)",cs_neg_s_new,"(0.7, -0.5)",cs_pos_s,"(0.7, 0.5)",cs_pos_ns,0,0,0,0,,,,,,,,,,,,,,,,,,,,,,,,,,,,,0,7,7,11,0,0,0,0,,,,,,,,,,,,,,,489,reward,,,,,,1427.5586296999973,1427.5586296999973,1427.5586296999973,1427.5586296999973,0,,,0,,,1,0.4261919999989914,0.44136949999665376,0,,,1428.0030868999893,1428.0030868999893,1428.0030868999893,1428.0030868999893,25,B,2024-05-01_10h21.31.917,attentional_competition_task,2022.2.4,144.12793947356295,
positions.xlsx,positions_test.xlsx,positions_test_new.xlsx,stimuli.xlsx,stimuli_new.xlsx,stimuli/Social2.png,stimuli/Social1.png,stimuli/Nonsocial2.png,stimuli/Nonsocial1.png,stimuli/Social4.png,stimuli/Social3.png,stimuli/Nonsocial4.png,stimuli/Nonsocial3.png,,,"(-0.7, -0.5)",cs_neg_ns,"(-0.7, 0.5)",cs_neg_s_new,"(0.7, -0.5)",cs_pos_s,"(0.7, 0.5)",cs_pos_ns,0,0,0,0,,,,,,,,,,,,,,,,,,,,,,,,,,,,,0,7,7,11,1,0,1,0,,,,,,,,,,,,,,,492,reward,,,,,,1428.5377527999954,1428.5377527999954,1428.5377527999954,1428.5377527999954,0,,,0,,,0,,,1,0.03234179998980835,0.032345100000384264,1428.5377527999954,1428.5377527999954,1428.5377527999954,1428.5377527999954,25,B,2024-05-01_10h21.31.917,attentional_competition_task,2022.2.4,144.12793947356295,
positions.xlsx,positions_test.xlsx,positions_test_new.xlsx,stimuli.xlsx,stimuli_new.xlsx,stimuli/Social2.png,stimuli/Social1.png,stimuli/Nonsocial2.png,stimuli/Nonsocial1.png,stimuli/Social4.png,stimuli/Social3.png,stimuli/Nonsocial4.png,stimuli/Nonsocial3.png,,,"(-0.7, -0.5)",cs_neg_ns,"(-0.7, 0.5)",cs_neg_s_new,"(0.7, -0.5)",cs_pos_s,"(0.7, 0.5)",cs_pos_ns,0,0,0,0,,,,,,,,,,,,,,,,,,,,,,,,,,,,,0,7,7,11,2,0,2,0,,,,,,,,,,,,,,,489,loss,,,,,,1429.0724969999865,1429.0724969999865,1429.0724969999865,1429.0724969999865,0,,,1,0.030179699999280274,0.030183599999872968,0,,,0,,,1429.0724969999865,1429.0724969999865,1429.0724969999865,1429.0724969999865,25,B,2024-05-01_10h21.31.917,attentional_competition_task,2022.2.4,144.12793947356295,
positions.xlsx,positions_test.xlsx,positions_test_new.xlsx,stimuli.xlsx,stimuli_new.xlsx,stimuli/Social2.png,stimuli/Social1.png,stimuli/Nonsocial2.png,stimuli/Nonsocial1.png,stimuli/Social4.png,stimuli/Social3.png,stimuli/Nonsocial4.png,stimuli/Nonsocial3.png,,,"(-0.7, -0.5)",cs_neg_ns,"(-0.7, 0.5)",cs_neg_s_new,"(0.7, -0.5)",cs_pos_s,"(0.7, 0.5)",cs_pos_ns,0,0,0,0,,,,,,,,,,,,,,,,,,,,,,,,,,,,,0,7,7,11,,,,,,,,,,,,,,,,,,,,,,,,,,,,,,,,,,,,,,,,,,,,,,25,B,2024-05-01_10h21.31.917,attentional_competition_task,2022.2.4,144.12793947356295,
positions.xlsx,positions_test.xlsx,positions_test_new.xlsx,stimuli.xlsx,stimuli_new.xlsx,stimuli/Social2.png,stimuli/Social1.png,stimuli/Nonsocial2.png,stimuli/Nonsocial1.png,stimuli/Social4.png,stimuli/Social3.png,stimuli/Nonsocial4.png,stimuli/Nonsocial3.png,,,"(-0.7, -0.5)",cs_neg_ns,"(-0.7, 0.5)",cs_neg_s_new,"(0.7, -0.5)",cs_pos_ns,"(0.7, 0.5)",cs_pos_s,0,0,0,0,,,,,,,,,,,,,,,,,,,,,,,,,,,,,0,8,8,17,0,0,0,0,,,,,,,,,,,,,,,492,reward,,,,,,1435.468084299995,1435.468084299995,1435.468084299995,1435.468084299995,0,,,0,,,0,,,1,0.5023976999946171,0.5024010999914026,1435.974954899997,1435.974954899997,1435.974954899997,1435.974954899997,25,B,2024-05-01_10h21.31.917,attentional_competition_task,2022.2.4,144.12793947356295,
positions.xlsx,positions_test.xlsx,positions_test_new.xlsx,stimuli.xlsx,stimuli_new.xlsx,stimuli/Social2.png,stimuli/Social1.png,stimuli/Nonsocial2.png,stimuli/Nonsocial1.png,stimuli/Social4.png,stimuli/Social3.png,stimuli/Nonsocial4.png,stimuli/Nonsocial3.png,,,"(-0.7, -0.5)",cs_neg_ns,"(-0.7, 0.5)",cs_neg_s_new,"(0.7, -0.5)",cs_pos_ns,"(0.7, 0.5)",cs_pos_s,0,0,0,0,,,,,,,,,,,,,,,,,,,,,,,,,,,,,0,8,8,17,1,0,1,0,,,,,,,,,,,,,,,495,reward,,,,,,1436.5096837999881,1436.5096837999881,1436.5096837999881,1436.5096837999881,0,,,0,,,1,0.029591500002425164,0.029595400003017858,0,,,1436.5096837999881,1436.5096837999881,1436.5096837999881,1436.5096837999881,25,B,2024-05-01_10h21.31.917,attentional_competition_task,2022.2.4,144.12793947356295,
positions.xlsx,positions_test.xlsx,positions_test_new.xlsx,stimuli.xlsx,stimuli_new.xlsx,stimuli/Social2.png,stimuli/Social1.png,stimuli/Nonsocial2.png,stimuli/Nonsocial1.png,stimuli/Social4.png,stimuli/Social3.png,stimuli/Nonsocial4.png,stimuli/Nonsocial3.png,,,"(-0.7, -0.5)",cs_neg_ns,"(-0.7, 0.5)",cs_neg_s_new,"(0.7, -0.5)",cs_pos_ns,"(0.7, 0.5)",cs_pos_s,0,0,0,0,,,,,,,,,,,,,,,,,,,,,,,,,,,,,0,8,8,17,2,0,2,0,,,,,,,,,,,,,,,498,reward,,,,,,1437.0027170999965,1437.0027170999965,1437.0027170999965,1437.0027170999965,0,,,0,,,0,,,0,,,1437.9818527999887,1437.9818527999887,1437.9818527999887,1437.9818527999887,25,B,2024-05-01_10h21.31.917,attentional_competition_task,2022.2.4,144.12793947356295,
positions.xlsx,positions_test.xlsx,positions_test_new.xlsx,stimuli.xlsx,stimuli_new.xlsx,stimuli/Social2.png,stimuli/Social1.png,stimuli/Nonsocial2.png,stimuli/Nonsocial1.png,stimuli/Social4.png,stimuli/Social3.png,stimuli/Nonsocial4.png,stimuli/Nonsocial3.png,,,"(-0.7, -0.5)",cs_neg_ns,"(-0.7, 0.5)",cs_neg_s_new,"(0.7, -0.5)",cs_pos_ns,"(0.7, 0.5)",cs_pos_s,0,0,0,0,,,,,,,,,,,,,,,,,,,,,,,,,,,,,0,8,8,17,,,,,,,,,,,,,,,,,,,,,,,,,,,,,,,,,,,,,,,,,,,,,,25,B,2024-05-01_10h21.31.917,attentional_competition_task,2022.2.4,144.12793947356295,
