posFile,posFileTest,posFileTestNew,stimFile,stimFileNew,cs_neg_s,cs_pos_s,cs_neg_ns,cs_pos_ns,cs_neg_s_new,cs_pos_s_new,cs_neg_ns_new,cs_pos_ns_new,stim,position,position1,stim1,position2,stim2,position3,stim3,position4,stim4,blocks.thisRepN,blocks.thisTrialN,blocks.thisN,blocks.thisIndex,ratingtrials1.thisRepN,ratingtrials1.thisTrialN,ratingtrials1.thisN,ratingtrials1.thisIndex,search_task_trials.thisRepN,search_task_trials.thisTrialN,search_task_trials.thisN,search_task_trials.thisIndex,learning_trials.thisRepN,learning_trials.thisTrialN,learning_trials.thisN,learning_trials.thisIndex,trials.thisRepN,trials.thisTrialN,trials.thisN,trials.thisIndex,ratingtrials2.thisRepN,ratingtrials2.thisTrialN,ratingtrials2.thisN,ratingtrials2.thisIndex,testtrials.thisRepN,testtrials.thisTrialN,testtrials.thisN,testtrials.thisIndex,loop_test.thisRepN,loop_test.thisTrialN,loop_test.thisN,loop_test.thisIndex,testtrials_novelty.thisRepN,testtrials_novelty.thisTrialN,testtrials_novelty.thisN,testtrials_novelty.thisIndex,loop_test_novelty.thisRepN,loop_test_novelty.thisTrialN,loop_test_novelty.thisN,loop_test_novelty.thisIndex,ratingtrials3.thisRepN,ratingtrials3.thisTrialN,ratingtrials3.thisN,ratingtrials3.thisIndex,textStart.started,textStartExp.started,imageRating.started,sliderStim.response,sliderStim.rt,textStartSearch.started,target_positions,distractor_positions,textStartTask.started,image.started,score,outcome,roi.numLooks,roi.timesOn,roi.timesOff,imageFeedback.started,textTestInstr.started,test_image1.started,test_image2.started,test_image3.started,test_image4.started,test_roi1.numLooks,test_roi1.timesOn,test_roi1.timesOff,test_roi2.numLooks,test_roi2.timesOn,test_roi2.timesOff,test_roi3.numLooks,test_roi3.timesOn,test_roi3.timesOff,test_roi4.numLooks,test_roi4.timesOn,test_roi4.timesOff,test_image_feedback1.started,test_image_feedback2.started,test_iamge_feedback3.started,test_iamge_feedback4.started,participant,group,date,expName,psychopyVersion,frameRate,
positions.xlsx,positions_test.xlsx,positions_test_new.xlsx,stimuli.xlsx,stimuli_new.xlsx,stimuli/Social1.png,stimuli/Social2.png,stimuli/Nonsocial1.png,stimuli/Nonsocial2.png,stimuli/Social3.png,stimuli/Social4.png,stimuli/Nonsocial3.png,stimuli/Nonsocial4.png,cs_pos_ns,,,,,,,,,,0,0,0,0,0,0,0,3,,,,,,,,,,,,,,,,,,,,,,,,,,,,,,,,,,,,,12.87138060014695,126.61542830010876,138.89275520015508,4.0,3.901500499807298,,,,,,,,,,,,,,,,,,,,,,,,,,,,,,,,,10,A,2024-04-19_10h13.09.109,attentional_competition_task,2022.2.4,144.03638885232897,
positions.xlsx,positions_test.xlsx,positions_test_new.xlsx,stimuli.xlsx,stimuli_new.xlsx,stimuli/Social1.png,stimuli/Social2.png,stimuli/Nonsocial1.png,stimuli/Nonsocial2.png,stimuli/Social3.png,stimuli/Social4.png,stimuli/Nonsocial3.png,stimuli/Nonsocial4.png,cs_neg_s,,,,,,,,,,0,0,0,0,0,1,1,0,,,,,,,,,,,,,,,,,,,,,,,,,,,,,,,,,,,,,,,145.35778470011428,5.0,4.029405000153929,,,,,,,,,,,,,,,,,,,,,,,,,,,,,,,,,10,A,2024-04-19_10h13.09.109,attentional_competition_task,2022.2.4,144.03638885232897,
positions.xlsx,positions_test.xlsx,positions_test_new.xlsx,stimuli.xlsx,stimuli_new.xlsx,stimuli/Social1.png,stimuli/Social2.png,stimuli/Nonsocial1.png,stimuli/Nonsocial2.png,stimuli/Social3.png,stimuli/Social4.png,stimuli/Nonsocial3.png,stimuli/Nonsocial4.png,cs_neg_ns,,,,,,,,,,0,0,0,0,0,2,2,1,,,,,,,,,,,,,,,,,,,,,,,,,,,,,,,,,,,,,,,150.1700790002942,4.0,2.264767199754715,,,,,,,,,,,,,,,,,,,,,,,,,,,,,,,,,10,A,2024-04-19_10h13.09.109,attentional_competition_task,2022.2.4,144.03638885232897,
positions.xlsx,positions_test.xlsx,positions_test_new.xlsx,stimuli.xlsx,stimuli_new.xlsx,stimuli/Social1.png,stimuli/Social2.png,stimuli/Nonsocial1.png,stimuli/Nonsocial2.png,stimuli/Social3.png,stimuli/Social4.png,stimuli/Nonsocial3.png,stimuli/Nonsocial4.png,cs_pos_s,,,,,,,,,,0,0,0,0,0,3,3,2,,,,,,,,,,,,,,,,,,,,,,,,,,,,,,,,,,,,,,,153.14911270001903,5.0,2.0231437999755144,,,,,,,,,,,,,,,,,,,,,,,,,,,,,,,,,10,A,2024-04-19_10h13.09.109,attentional_competition_task,2022.2.4,144.03638885232897,
positions.xlsx,positions_test.xlsx,positions_test_new.xlsx,stimuli.xlsx,stimuli_new.xlsx,stimuli/Social1.png,stimuli/Social2.png,stimuli/Nonsocial1.png,stimuli/Nonsocial2.png,stimuli/Social3.png,stimuli/Social4.png,stimuli/Nonsocial3.png,stimuli/Nonsocial4.png,,,,,,,,,,,0,0,0,0,,,,,0,0,0,0,,,,,,,,,,,,,,,,,,,,,,,,,,,,,,,,,,,,,,156.0934339002706,"[[0.45000000000000007, -0.30000000000000004], [-0.22499999999999998, 0.19999999999999996], [0.22499999999999998, 0.7], [-0.9, 0.7], [0.0, -0.8], [0.45000000000000007, 0.7], [-0.22499999999999998, -0.30000000000000004], [0.45000000000000007, -0.8], [-0.45, -0.8], [-0.45, 0.7], [-0.22499999999999998, 0.7], [-0.9, 0.19999999999999996], [0.0, -0.30000000000000004], [-0.22499999999999998, -0.8], [0.45000000000000007, 0.19999999999999996]]","[[0.9, 0.19999999999999996], [-0.675, -0.8], [-0.675, 0.19999999999999996], [0.9, 0.7], [-0.675, -0.30000000000000004], [-0.9, -0.30000000000000004], [0.22499999999999998, -0.30000000000000004], [0.22499999999999998, -0.8], [-0.675, 0.7], [0.6749999999999999, -0.30000000000000004], [0.9, -0.30000000000000004], [-0.9, -0.8], [0.6749999999999999, -0.8], [0.22499999999999998, 0.19999999999999996], [0.0, 0.7]]",,,,,,,,,,,,,,,,,,,,,,,,,,,,,,10,A,2024-04-19_10h13.09.109,attentional_competition_task,2022.2.4,144.03638885232897,
positions.xlsx,positions_test.xlsx,positions_test_new.xlsx,stimuli.xlsx,stimuli_new.xlsx,stimuli/Social1.png,stimuli/Social2.png,stimuli/Nonsocial1.png,stimuli/Nonsocial2.png,stimuli/Social3.png,stimuli/Social4.png,stimuli/Nonsocial3.png,stimuli/Nonsocial4.png,,,,,,,,,,,0,0,0,0,,,,,1,0,1,0,,,,,,,,,,,,,,,,,,,,,,,,,,,,,,,,,,,,,,,"[[-0.22499999999999998, -0.30000000000000004], [0.6749999999999999, -0.30000000000000004], [0.45000000000000007, 0.7], [-0.675, -0.8], [-0.675, -0.30000000000000004], [-0.675, 0.19999999999999996], [-0.45, 0.7], [0.6749999999999999, -0.8], [0.0, 0.7], [0.22499999999999998, 0.19999999999999996], [0.45000000000000007, 0.19999999999999996], [0.9, 0.7], [-0.9, 0.7], [-0.9, 0.19999999999999996], [-0.22499999999999998, 0.19999999999999996]]","[[-0.45, 0.19999999999999996], [-0.675, 0.7], [0.0, -0.8], [0.0, 0.19999999999999996], [0.22499999999999998, -0.30000000000000004], [0.9, -0.30000000000000004], [0.6749999999999999, 0.19999999999999996], [0.0, -0.30000000000000004], [-0.45, -0.30000000000000004], [-0.9, -0.8], [0.22499999999999998, 0.7], [-0.45, -0.8], [0.9, 0.19999999999999996], [0.22499999999999998, -0.8], [0.9, -0.8]]",,,,,,,,,,,,,,,,,,,,,,,,,,,,,,10,A,2024-04-19_10h13.09.109,attentional_competition_task,2022.2.4,144.03638885232897,
positions.xlsx,positions_test.xlsx,positions_test_new.xlsx,stimuli.xlsx,stimuli_new.xlsx,stimuli/Social1.png,stimuli/Social2.png,stimuli/Nonsocial1.png,stimuli/Nonsocial2.png,stimuli/Social3.png,stimuli/Social4.png,stimuli/Nonsocial3.png,stimuli/Nonsocial4.png,cs_neg_s,"(-0.7, -0.5)",,,,,,,,,0,0,0,0,,,,,,,,,0,0,0,1,,,,,,,,,,,,,,,,,,,,,,,,,,,,,,,,,,,,,239.89561300026253,262.55445299996063,-3,loss,1,0.3127609002403915,0.31276490027084947,262.88774259993806,,,,,,,,,,,,,,,,,,,,,,10,A,2024-04-19_10h13.09.109,attentional_competition_task,2022.2.4,144.03638885232897,
positions.xlsx,positions_test.xlsx,positions_test_new.xlsx,stimuli.xlsx,stimuli_new.xlsx,stimuli/Social1.png,stimuli/Social2.png,stimuli/Nonsocial1.png,stimuli/Nonsocial2.png,stimuli/Social3.png,stimuli/Social4.png,stimuli/Nonsocial3.png,stimuli/Nonsocial4.png,cs_neg_s,"(0.7, 0.5)",,,,,,,,,0,0,0,0,,,,,,,,,0,1,1,2,,,,,,,,,,,,,,,,,,,,,,,,,,,,,,,,,,,,,,269.8110445002094,-3,none,0,,,272.82488900003955,,,,,,,,,,,,,,,,,,,,,,10,A,2024-04-19_10h13.09.109,attentional_competition_task,2022.2.4,144.03638885232897,
positions.xlsx,positions_test.xlsx,positions_test_new.xlsx,stimuli.xlsx,stimuli_new.xlsx,stimuli/Social1.png,stimuli/Social2.png,stimuli/Nonsocial1.png,stimuli/Nonsocial2.png,stimuli/Social3.png,stimuli/Social4.png,stimuli/Nonsocial3.png,stimuli/Nonsocial4.png,cs_pos_s,"(0.7, -0.5)",,,,,,,,,0,0,0,0,,,,,,,,,0,2,2,7,,,,,,,,,,,,,,,,,,,,,,,,,,,,,,,,,,,,,,280.29675720026717,0,reward,1,0.7643503001891077,0.7643543998710811,281.0744918002747,,,,,,,,,,,,,,,,,,,,,,10,A,2024-04-19_10h13.09.109,attentional_competition_task,2022.2.4,144.03638885232897,
positions.xlsx,positions_test.xlsx,positions_test_new.xlsx,stimuli.xlsx,stimuli_new.xlsx,stimuli/Social1.png,stimuli/Social2.png,stimuli/Nonsocial1.png,stimuli/Nonsocial2.png,stimuli/Social3.png,stimuli/Social4.png,stimuli/Nonsocial3.png,stimuli/Nonsocial4.png,cs_pos_s,"(0.7, 0.5)",,,,,,,,,0,0,0,0,,,,,,,,,0,3,3,6,,,,,,,,,,,,,,,,,,,,,,,,,,,,,,,,,,,,,,288.3519993000664,3,reward,1,0.7083485000766814,0.7083521001040936,289.0672293002717,,,,,,,,,,,,,,,,,,,,,,10,A,2024-04-19_10h13.09.109,attentional_competition_task,2022.2.4,144.03638885232897,
positions.xlsx,positions_test.xlsx,positions_test_new.xlsx,stimuli.xlsx,stimuli_new.xlsx,stimuli/Social1.png,stimuli/Social2.png,stimuli/Nonsocial1.png,stimuli/Nonsocial2.png,stimuli/Social3.png,stimuli/Social4.png,stimuli/Nonsocial3.png,stimuli/Nonsocial4.png,cs_pos_ns,"(0.7, -0.5)",,,,,,,,,0,0,0,0,,,,,,,,,0,4,4,15,,,,,,,,,,,,,,,,,,,,,,,,,,,,,,,,,,,,,,296.6085446001962,6,reward,1,0.5628844001330435,0.5628880001604557,297.1780765000731,,,,,,,,,,,,,,,,,,,,,,10,A,2024-04-19_10h13.09.109,attentional_competition_task,2022.2.4,144.03638885232897,
positions.xlsx,positions_test.xlsx,positions_test_new.xlsx,stimuli.xlsx,stimuli_new.xlsx,stimuli/Social1.png,stimuli/Social2.png,stimuli/Nonsocial1.png,stimuli/Nonsocial2.png,stimuli/Social3.png,stimuli/Social4.png,stimuli/Nonsocial3.png,stimuli/Nonsocial4.png,cs_pos_s,"(-0.7, -0.5)",,,,,,,,,0,0,0,0,,,,,,,,,0,5,5,5,,,,,,,,,,,,,,,,,,,,,,,,,,,,,,,,,,,,,,304.226342999842,9,reward,1,1.2501213001087308,1.2501248000189662,305.48321950016543,,,,,,,,,,,,,,,,,,,,,,10,A,2024-04-19_10h13.09.109,attentional_competition_task,2022.2.4,144.03638885232897,
positions.xlsx,positions_test.xlsx,positions_test_new.xlsx,stimuli.xlsx,stimuli_new.xlsx,stimuli/Social1.png,stimuli/Social2.png,stimuli/Nonsocial1.png,stimuli/Nonsocial2.png,stimuli/Social3.png,stimuli/Social4.png,stimuli/Nonsocial3.png,stimuli/Nonsocial4.png,cs_neg_ns,"(-0.7, -0.5)",,,,,,,,,0,0,0,0,,,,,,,,,0,6,6,9,,,,,,,,,,,,,,,,,,,,,,,,,,,,,,,,,,,,,,312.33025480015203,9,none,0,,,315.34393260022625,,,,,,,,,,,,,,,,,,,,,,10,A,2024-04-19_10h13.09.109,attentional_competition_task,2022.2.4,144.03638885232897,
positions.xlsx,positions_test.xlsx,positions_test_new.xlsx,stimuli.xlsx,stimuli_new.xlsx,stimuli/Social1.png,stimuli/Social2.png,stimuli/Nonsocial1.png,stimuli/Nonsocial2.png,stimuli/Social3.png,stimuli/Social4.png,stimuli/Nonsocial3.png,stimuli/Nonsocial4.png,cs_neg_ns,"(0.7, 0.5)",,,,,,,,,0,0,0,0,,,,,,,,,0,7,7,10,,,,,,,,,,,,,,,,,,,,,,,,,,,,,,,,,,,,,,322.23256989987567,9,none,0,,,325.2463036002591,,,,,,,,,,,,,,,,,,,,,,10,A,2024-04-19_10h13.09.109,attentional_competition_task,2022.2.4,144.03638885232897,
positions.xlsx,positions_test.xlsx,positions_test_new.xlsx,stimuli.xlsx,stimuli_new.xlsx,stimuli/Social1.png,stimuli/Social2.png,stimuli/Nonsocial1.png,stimuli/Nonsocial2.png,stimuli/Social3.png,stimuli/Social4.png,stimuli/Nonsocial3.png,stimuli/Nonsocial4.png,cs_pos_ns,"(-0.7, 0.5)",,,,,,,,,0,0,0,0,,,,,,,,,0,8,8,12,,,,,,,,,,,,,,,,,,,,,,,,,,,,,,,,,,,,,,333.02375590009615,12,reward,1,1.090230300091207,1.0902342000044882,334.1209963001311,,,,,,,,,,,,,,,,,,,,,,10,A,2024-04-19_10h13.09.109,attentional_competition_task,2022.2.4,144.03638885232897,
positions.xlsx,positions_test.xlsx,positions_test_new.xlsx,stimuli.xlsx,stimuli_new.xlsx,stimuli/Social1.png,stimuli/Social2.png,stimuli/Nonsocial1.png,stimuli/Nonsocial2.png,stimuli/Social3.png,stimuli/Social4.png,stimuli/Nonsocial3.png,stimuli/Nonsocial4.png,cs_neg_ns,"(-0.7, 0.5)",,,,,,,,,0,0,0,0,,,,,,,,,0,9,9,8,,,,,,,,,,,,,,,,,,,,,,,,,,,,,,,,,,,,,,341.84287399984896,9,loss,1,1.597856099717319,1.6049599996767938,343.45393870025873,,,,,,,,,,,,,,,,,,,,,,10,A,2024-04-19_10h13.09.109,attentional_competition_task,2022.2.4,144.03638885232897,
positions.xlsx,positions_test.xlsx,positions_test_new.xlsx,stimuli.xlsx,stimuli_new.xlsx,stimuli/Social1.png,stimuli/Social2.png,stimuli/Nonsocial1.png,stimuli/Nonsocial2.png,stimuli/Social3.png,stimuli/Social4.png,stimuli/Nonsocial3.png,stimuli/Nonsocial4.png,cs_neg_s,"(-0.7, 0.5)",,,,,,,,,0,0,0,0,,,,,,,,,0,10,10,0,,,,,,,,,,,,,,,,,,,,,,,,,,,,,,,,,,,,,,351.41885460028425,9,none,0,,,354.43265890004113,,,,,,,,,,,,,,,,,,,,,,10,A,2024-04-19_10h13.09.109,attentional_competition_task,2022.2.4,144.03638885232897,
positions.xlsx,positions_test.xlsx,positions_test_new.xlsx,stimuli.xlsx,stimuli_new.xlsx,stimuli/Social1.png,stimuli/Social2.png,stimuli/Nonsocial1.png,stimuli/Nonsocial2.png,stimuli/Social3.png,stimuli/Social4.png,stimuli/Nonsocial3.png,stimuli/Nonsocial4.png,cs_pos_ns,"(0.7, 0.5)",,,,,,,,,0,0,0,0,,,,,,,,,0,11,11,14,,,,,,,,,,,,,,,,,,,,,,,,,,,,,,,,,,,,,,361.1545891999267,12,reward,1,0.8825137997046113,0.882517899852246,362.04350179992616,,,,,,,,,,,,,,,,,,,,,,10,A,2024-04-19_10h13.09.109,attentional_competition_task,2022.2.4,144.03638885232897,
positions.xlsx,positions_test.xlsx,positions_test_new.xlsx,stimuli.xlsx,stimuli_new.xlsx,stimuli/Social1.png,stimuli/Social2.png,stimuli/Nonsocial1.png,stimuli/Nonsocial2.png,stimuli/Social3.png,stimuli/Social4.png,stimuli/Nonsocial3.png,stimuli/Nonsocial4.png,cs_neg_s,"(0.7, -0.5)",,,,,,,,,0,0,0,0,,,,,,,,,0,12,12,3,,,,,,,,,,,,,,,,,,,,,,,,,,,,,,,,,,,,,,370.16114749992266,12,none,0,,,373.1750074001029,,,,,,,,,,,,,,,,,,,,,,10,A,2024-04-19_10h13.09.109,attentional_competition_task,2022.2.4,144.03638885232897,
positions.xlsx,positions_test.xlsx,positions_test_new.xlsx,stimuli.xlsx,stimuli_new.xlsx,stimuli/Social1.png,stimuli/Social2.png,stimuli/Nonsocial1.png,stimuli/Nonsocial2.png,stimuli/Social3.png,stimuli/Social4.png,stimuli/Nonsocial3.png,stimuli/Nonsocial4.png,cs_pos_ns,"(-0.7, -0.5)",,,,,,,,,0,0,0,0,,,,,,,,,0,13,13,13,,,,,,,,,,,,,,,,,,,,,,,,,,,,,,,,,,,,,,380.86210979986936,15,reward,1,0.7502982998266816,0.7503022998571396,381.6259981999174,,,,,,,,,,,,,,,,,,,,,,10,A,2024-04-19_10h13.09.109,attentional_competition_task,2022.2.4,144.03638885232897,
positions.xlsx,positions_test.xlsx,positions_test_new.xlsx,stimuli.xlsx,stimuli_new.xlsx,stimuli/Social1.png,stimuli/Social2.png,stimuli/Nonsocial1.png,stimuli/Nonsocial2.png,stimuli/Social3.png,stimuli/Social4.png,stimuli/Nonsocial3.png,stimuli/Nonsocial4.png,cs_pos_s,"(-0.7, 0.5)",,,,,,,,,0,0,0,0,,,,,,,,,0,14,14,4,,,,,,,,,,,,,,,,,,,,,,,,,,,,,,,,,,,,,,389.4451174000278,18,reward,1,0.9029314997605979,0.9029353996738791,390.3548225001432,,,,,,,,,,,,,,,,,,,,,,10,A,2024-04-19_10h13.09.109,attentional_competition_task,2022.2.4,144.03638885232897,
positions.xlsx,positions_test.xlsx,positions_test_new.xlsx,stimuli.xlsx,stimuli_new.xlsx,stimuli/Social1.png,stimuli/Social2.png,stimuli/Nonsocial1.png,stimuli/Nonsocial2.png,stimuli/Social3.png,stimuli/Social4.png,stimuli/Nonsocial3.png,stimuli/Nonsocial4.png,cs_neg_ns,"(0.7, -0.5)",,,,,,,,,0,0,0,0,,,,,,,,,0,15,15,11,,,,,,,,,,,,,,,,,,,,,,,,,,,,,,,,,,,,,,398.43781469995156,18,none,0,,,401.4515805002302,,,,,,,,,,,,,,,,,,,,,,10,A,2024-04-19_10h13.09.109,attentional_competition_task,2022.2.4,144.03638885232897,
positions.xlsx,positions_test.xlsx,positions_test_new.xlsx,stimuli.xlsx,stimuli_new.xlsx,stimuli/Social1.png,stimuli/Social2.png,stimuli/Nonsocial1.png,stimuli/Nonsocial2.png,stimuli/Social3.png,stimuli/Social4.png,stimuli/Nonsocial3.png,stimuli/Nonsocial4.png,cs_pos_ns,"(0.7, -0.5)",,,,,,,,,0,0,0,0,,,,,,,,,1,0,16,15,,,,,,,,,,,,,,,,,,,,,,,,,,,,,,,,,,,,,,409.1456802999601,21,reward,1,0.5975231002084911,0.5975270001217723,409.7498249001801,,,,,,,,,,,,,,,,,,,,,,10,A,2024-04-19_10h13.09.109,attentional_competition_task,2022.2.4,144.03638885232897,
positions.xlsx,positions_test.xlsx,positions_test_new.xlsx,stimuli.xlsx,stimuli_new.xlsx,stimuli/Social1.png,stimuli/Social2.png,stimuli/Nonsocial1.png,stimuli/Nonsocial2.png,stimuli/Social3.png,stimuli/Social4.png,stimuli/Nonsocial3.png,stimuli/Nonsocial4.png,cs_neg_s,"(0.7, -0.5)",,,,,,,,,0,0,0,0,,,,,,,,,1,1,17,3,,,,,,,,,,,,,,,,,,,,,,,,,,,,,,,,,,,,,,417.437047699932,18,loss,1,0.6949462001211941,0.7016435000114143,418.14533320022747,,,,,,,,,,,,,,,,,,,,,,10,A,2024-04-19_10h13.09.109,attentional_competition_task,2022.2.4,144.03638885232897,
positions.xlsx,positions_test.xlsx,positions_test_new.xlsx,stimuli.xlsx,stimuli_new.xlsx,stimuli/Social1.png,stimuli/Social2.png,stimuli/Nonsocial1.png,stimuli/Nonsocial2.png,stimuli/Social3.png,stimuli/Social4.png,stimuli/Nonsocial3.png,stimuli/Nonsocial4.png,cs_pos_s,"(-0.7, -0.5)",,,,,,,,,0,0,0,0,,,,,,,,,1,2,18,5,,,,,,,,,,,,,,,,,,,,,,,,,,,,,,,,,,,,,,425.7145143998787,21,reward,1,0.6461717998608947,0.6530073001049459,426.3741635000333,,,,,,,,,,,,,,,,,,,,,,10,A,2024-04-19_10h13.09.109,attentional_competition_task,2022.2.4,144.03638885232897,
positions.xlsx,positions_test.xlsx,positions_test_new.xlsx,stimuli.xlsx,stimuli_new.xlsx,stimuli/Social1.png,stimuli/Social2.png,stimuli/Nonsocial1.png,stimuli/Nonsocial2.png,stimuli/Social3.png,stimuli/Social4.png,stimuli/Nonsocial3.png,stimuli/Nonsocial4.png,cs_neg_ns,"(-0.7, 0.5)",,,,,,,,,0,0,0,0,,,,,,,,,1,3,19,8,,,,,,,,,,,,,,,,,,,,,,,,,,,,,,,,,,,,,,433.1030779001303,21,none,0,,,436.116867300123,,,,,,,,,,,,,,,,,,,,,,10,A,2024-04-19_10h13.09.109,attentional_competition_task,2022.2.4,144.03638885232897,
positions.xlsx,positions_test.xlsx,positions_test_new.xlsx,stimuli.xlsx,stimuli_new.xlsx,stimuli/Social1.png,stimuli/Social2.png,stimuli/Nonsocial1.png,stimuli/Nonsocial2.png,stimuli/Social3.png,stimuli/Social4.png,stimuli/Nonsocial3.png,stimuli/Nonsocial4.png,cs_pos_s,"(0.7, -0.5)",,,,,,,,,0,0,0,0,,,,,,,,,1,4,20,7,,,,,,,,,,,,,,,,,,,,,,,,,,,,,,,,,,,,,,443.9428953998722,24,reward,1,0.6392580000683665,0.6392616000957787,444.58874930022284,,,,,,,,,,,,,,,,,,,,,,10,A,2024-04-19_10h13.09.109,attentional_competition_task,2022.2.4,144.03638885232897,
positions.xlsx,positions_test.xlsx,positions_test_new.xlsx,stimuli.xlsx,stimuli_new.xlsx,stimuli/Social1.png,stimuli/Social2.png,stimuli/Nonsocial1.png,stimuli/Nonsocial2.png,stimuli/Social3.png,stimuli/Social4.png,stimuli/Nonsocial3.png,stimuli/Nonsocial4.png,cs_neg_ns,"(0.7, 0.5)",,,,,,,,,0,0,0,0,,,,,,,,,1,5,21,10,,,,,,,,,,,,,,,,,,,,,,,,,,,,,,,,,,,,,,452.1995624001138,24,none,0,,,455.21327339997515,,,,,,,,,,,,,,,,,,,,,,10,A,2024-04-19_10h13.09.109,attentional_competition_task,2022.2.4,144.03638885232897,
positions.xlsx,positions_test.xlsx,positions_test_new.xlsx,stimuli.xlsx,stimuli_new.xlsx,stimuli/Social1.png,stimuli/Social2.png,stimuli/Nonsocial1.png,stimuli/Nonsocial2.png,stimuli/Social3.png,stimuli/Social4.png,stimuli/Nonsocial3.png,stimuli/Nonsocial4.png,cs_pos_s,"(-0.7, 0.5)",,,,,,,,,0,0,0,0,,,,,,,,,1,6,22,4,,,,,,,,,,,,,,,,,,,,,,,,,,,,,,,,,,,,,,462.23388720024377,27,reward,1,0.993019400164485,0.9930235003121197,463.2338139000349,,,,,,,,,,,,,,,,,,,,,,10,A,2024-04-19_10h13.09.109,attentional_competition_task,2022.2.4,144.03638885232897,
positions.xlsx,positions_test.xlsx,positions_test_new.xlsx,stimuli.xlsx,stimuli_new.xlsx,stimuli/Social1.png,stimuli/Social2.png,stimuli/Nonsocial1.png,stimuli/Nonsocial2.png,stimuli/Social3.png,stimuli/Social4.png,stimuli/Nonsocial3.png,stimuli/Nonsocial4.png,cs_pos_ns,"(-0.7, -0.5)",,,,,,,,,0,0,0,0,,,,,,,,,1,7,23,13,,,,,,,,,,,,,,,,,,,,,,,,,,,,,,,,,,,,,,470.39322900027037,30,reward,1,0.6882080999203026,0.6882120999507606,471.0876679001376,,,,,,,,,,,,,,,,,,,,,,10,A,2024-04-19_10h13.09.109,attentional_competition_task,2022.2.4,144.03638885232897,
positions.xlsx,positions_test.xlsx,positions_test_new.xlsx,stimuli.xlsx,stimuli_new.xlsx,stimuli/Social1.png,stimuli/Social2.png,stimuli/Nonsocial1.png,stimuli/Nonsocial2.png,stimuli/Social3.png,stimuli/Social4.png,stimuli/Nonsocial3.png,stimuli/Nonsocial4.png,cs_neg_s,"(-0.7, -0.5)",,,,,,,,,0,0,0,0,,,,,,,,,1,8,24,1,,,,,,,,,,,,,,,,,,,,,,,,,,,,,,,,,,,,,,478.0526930000633,30,none,0,,,481.06639289995655,,,,,,,,,,,,,,,,,,,,,,10,A,2024-04-19_10h13.09.109,attentional_competition_task,2022.2.4,144.03638885232897,
positions.xlsx,positions_test.xlsx,positions_test_new.xlsx,stimuli.xlsx,stimuli_new.xlsx,stimuli/Social1.png,stimuli/Social2.png,stimuli/Nonsocial1.png,stimuli/Nonsocial2.png,stimuli/Social3.png,stimuli/Social4.png,stimuli/Nonsocial3.png,stimuli/Nonsocial4.png,cs_pos_ns,"(0.7, 0.5)",,,,,,,,,0,0,0,0,,,,,,,,,1,9,25,14,,,,,,,,,,,,,,,,,,,,,,,,,,,,,,,,,,,,,,488.60084370011464,33,reward,1,0.7290352000854909,0.7290386999957263,489.3369296002202,,,,,,,,,,,,,,,,,,,,,,10,A,2024-04-19_10h13.09.109,attentional_competition_task,2022.2.4,144.03638885232897,
positions.xlsx,positions_test.xlsx,positions_test_new.xlsx,stimuli.xlsx,stimuli_new.xlsx,stimuli/Social1.png,stimuli/Social2.png,stimuli/Nonsocial1.png,stimuli/Nonsocial2.png,stimuli/Social3.png,stimuli/Social4.png,stimuli/Nonsocial3.png,stimuli/Nonsocial4.png,cs_pos_s,"(0.7, 0.5)",,,,,,,,,0,0,0,0,,,,,,,,,1,10,26,6,,,,,,,,,,,,,,,,,,,,,,,,,,,,,,,,,,,,,,496.6838433998637,36,reward,1,0.6742329001426697,0.6742369001731277,497.3643657001667,,,,,,,,,,,,,,,,,,,,,,10,A,2024-04-19_10h13.09.109,attentional_competition_task,2022.2.4,144.03638885232897,
positions.xlsx,positions_test.xlsx,positions_test_new.xlsx,stimuli.xlsx,stimuli_new.xlsx,stimuli/Social1.png,stimuli/Social2.png,stimuli/Nonsocial1.png,stimuli/Nonsocial2.png,stimuli/Social3.png,stimuli/Social4.png,stimuli/Nonsocial3.png,stimuli/Nonsocial4.png,cs_neg_ns,"(0.7, -0.5)",,,,,,,,,0,0,0,0,,,,,,,,,1,11,27,11,,,,,,,,,,,,,,,,,,,,,,,,,,,,,,,,,,,,,,505.5724558001384,36,none,0,,,508.58611410018057,,,,,,,,,,,,,,,,,,,,,,10,A,2024-04-19_10h13.09.109,attentional_competition_task,2022.2.4,144.03638885232897,
positions.xlsx,positions_test.xlsx,positions_test_new.xlsx,stimuli.xlsx,stimuli_new.xlsx,stimuli/Social1.png,stimuli/Social2.png,stimuli/Nonsocial1.png,stimuli/Nonsocial2.png,stimuli/Social3.png,stimuli/Social4.png,stimuli/Nonsocial3.png,stimuli/Nonsocial4.png,cs_neg_s,"(0.7, 0.5)",,,,,,,,,0,0,0,0,,,,,,,,,1,12,28,2,,,,,,,,,,,,,,,,,,,,,,,,,,,,,,,,,,,,,,516.2456386000849,36,none,0,,,519.2524263998494,,,,,,,,,,,,,,,,,,,,,,10,A,2024-04-19_10h13.09.109,attentional_competition_task,2022.2.4,144.03638885232897,
positions.xlsx,positions_test.xlsx,positions_test_new.xlsx,stimuli.xlsx,stimuli_new.xlsx,stimuli/Social1.png,stimuli/Social2.png,stimuli/Nonsocial1.png,stimuli/Nonsocial2.png,stimuli/Social3.png,stimuli/Social4.png,stimuli/Nonsocial3.png,stimuli/Nonsocial4.png,cs_pos_ns,"(-0.7, 0.5)",,,,,,,,,0,0,0,0,,,,,,,,,1,13,29,12,,,,,,,,,,,,,,,,,,,,,,,,,,,,,,,,,,,,,,526.2729342002422,39,reward,1,0.7222838001325727,0.7222879999317229,527.0020536999218,,,,,,,,,,,,,,,,,,,,,,10,A,2024-04-19_10h13.09.109,attentional_competition_task,2022.2.4,144.03638885232897,
positions.xlsx,positions_test.xlsx,positions_test_new.xlsx,stimuli.xlsx,stimuli_new.xlsx,stimuli/Social1.png,stimuli/Social2.png,stimuli/Nonsocial1.png,stimuli/Nonsocial2.png,stimuli/Social3.png,stimuli/Social4.png,stimuli/Nonsocial3.png,stimuli/Nonsocial4.png,cs_neg_ns,"(-0.7, -0.5)",,,,,,,,,0,0,0,0,,,,,,,,,1,14,30,9,,,,,,,,,,,,,,,,,,,,,,,,,,,,,,,,,,,,,,534.6406306000426,39,none,0,,,537.6543951998465,,,,,,,,,,,,,,,,,,,,,,10,A,2024-04-19_10h13.09.109,attentional_competition_task,2022.2.4,144.03638885232897,
positions.xlsx,positions_test.xlsx,positions_test_new.xlsx,stimuli.xlsx,stimuli_new.xlsx,stimuli/Social1.png,stimuli/Social2.png,stimuli/Nonsocial1.png,stimuli/Nonsocial2.png,stimuli/Social3.png,stimuli/Social4.png,stimuli/Nonsocial3.png,stimuli/Nonsocial4.png,cs_neg_s,"(-0.7, 0.5)",,,,,,,,,0,0,0,0,,,,,,,,,1,15,31,0,,,,,,,,,,,,,,,,,,,,,,,,,,,,,,,,,,,,,,545.2027235999703,39,none,0,,,548.209576100111,,,,,,,,,,,,,,,,,,,,,,10,A,2024-04-19_10h13.09.109,attentional_competition_task,2022.2.4,144.03638885232897,
positions.xlsx,positions_test.xlsx,positions_test_new.xlsx,stimuli.xlsx,stimuli_new.xlsx,stimuli/Social1.png,stimuli/Social2.png,stimuli/Nonsocial1.png,stimuli/Nonsocial2.png,stimuli/Social3.png,stimuli/Social4.png,stimuli/Nonsocial3.png,stimuli/Nonsocial4.png,cs_pos_s,"(0.7, 0.5)",,,,,,,,,0,0,0,0,,,,,,,,,,,,,0,0,0,6,,,,,,,,,,,,,,,,,,,,,,,,,,,,,,,,,,569.5906690000556,42,reward,1,0.6600174000486732,0.6600214000791311,570.2572892000899,,,,,,,,,,,,,,,,,,,,,,10,A,2024-04-19_10h13.09.109,attentional_competition_task,2022.2.4,144.03638885232897,
positions.xlsx,positions_test.xlsx,positions_test_new.xlsx,stimuli.xlsx,stimuli_new.xlsx,stimuli/Social1.png,stimuli/Social2.png,stimuli/Nonsocial1.png,stimuli/Nonsocial2.png,stimuli/Social3.png,stimuli/Social4.png,stimuli/Nonsocial3.png,stimuli/Nonsocial4.png,cs_pos_ns,"(-0.7, -0.5)",,,,,,,,,0,0,0,0,,,,,,,,,,,,,0,1,1,13,,,,,,,,,,,,,,,,,,,,,,,,,,,,,,,,,,577.458449699916,45,reward,1,0.5557608003728092,0.5557645000517368,578.0208749999292,,,,,,,,,,,,,,,,,,,,,,10,A,2024-04-19_10h13.09.109,attentional_competition_task,2022.2.4,144.03638885232897,
positions.xlsx,positions_test.xlsx,positions_test_new.xlsx,stimuli.xlsx,stimuli_new.xlsx,stimuli/Social1.png,stimuli/Social2.png,stimuli/Nonsocial1.png,stimuli/Nonsocial2.png,stimuli/Social3.png,stimuli/Social4.png,stimuli/Nonsocial3.png,stimuli/Nonsocial4.png,cs_pos_s,"(-0.7, -0.5)",,,,,,,,,0,0,0,0,,,,,,,,,,,,,0,2,2,5,,,,,,,,,,,,,,,,,,,,,,,,,,,,,,,,,,585.6664062002674,48,reward,1,0.6809128001332283,0.6809163000434637,586.3538786000572,,,,,,,,,,,,,,,,,,,,,,10,A,2024-04-19_10h13.09.109,attentional_competition_task,2022.2.4,144.03638885232897,
positions.xlsx,positions_test.xlsx,positions_test_new.xlsx,stimuli.xlsx,stimuli_new.xlsx,stimuli/Social1.png,stimuli/Social2.png,stimuli/Nonsocial1.png,stimuli/Nonsocial2.png,stimuli/Social3.png,stimuli/Social4.png,stimuli/Nonsocial3.png,stimuli/Nonsocial4.png,cs_pos_ns,"(0.7, -0.5)",,,,,,,,,0,0,0,0,,,,,,,,,,,,,0,3,3,15,,,,,,,,,,,,,,,,,,,,,,,,,,,,,,,,,,593.7078037001193,51,reward,1,0.20878189988434315,0.20878539979457855,593.9230472999625,,,,,,,,,,,,,,,,,,,,,,10,A,2024-04-19_10h13.09.109,attentional_competition_task,2022.2.4,144.03638885232897,
positions.xlsx,positions_test.xlsx,positions_test_new.xlsx,stimuli.xlsx,stimuli_new.xlsx,stimuli/Social1.png,stimuli/Social2.png,stimuli/Nonsocial1.png,stimuli/Nonsocial2.png,stimuli/Social3.png,stimuli/Social4.png,stimuli/Nonsocial3.png,stimuli/Nonsocial4.png,cs_neg_s,"(-0.7, 0.5)",,,,,,,,,0,0,0,0,,,,,,,,,,,,,0,4,4,0,,,,,,,,,,,,,,,,,,,,,,,,,,,,,,,,,,600.9922148999758,51,none,0,,,604.0059390999377,,,,,,,,,,,,,,,,,,,,,,10,A,2024-04-19_10h13.09.109,attentional_competition_task,2022.2.4,144.03638885232897,
positions.xlsx,positions_test.xlsx,positions_test_new.xlsx,stimuli.xlsx,stimuli_new.xlsx,stimuli/Social1.png,stimuli/Social2.png,stimuli/Nonsocial1.png,stimuli/Nonsocial2.png,stimuli/Social3.png,stimuli/Social4.png,stimuli/Nonsocial3.png,stimuli/Nonsocial4.png,cs_neg_ns,"(0.7, -0.5)",,,,,,,,,0,0,0,0,,,,,,,,,,,,,0,5,5,11,,,,,,,,,,,,,,,,,,,,,,,,,,,,,,,,,,611.7904043998569,51,none,0,,,614.8041516998783,,,,,,,,,,,,,,,,,,,,,,10,A,2024-04-19_10h13.09.109,attentional_competition_task,2022.2.4,144.03638885232897,
positions.xlsx,positions_test.xlsx,positions_test_new.xlsx,stimuli.xlsx,stimuli_new.xlsx,stimuli/Social1.png,stimuli/Social2.png,stimuli/Nonsocial1.png,stimuli/Nonsocial2.png,stimuli/Social3.png,stimuli/Social4.png,stimuli/Nonsocial3.png,stimuli/Nonsocial4.png,cs_neg_ns,"(0.7, 0.5)",,,,,,,,,0,0,0,0,,,,,,,,,,,,,0,6,6,10,,,,,,,,,,,,,,,,,,,,,,,,,,,,,,,,,,621.9567312002182,51,none,0,,,624.9703886001371,,,,,,,,,,,,,,,,,,,,,,10,A,2024-04-19_10h13.09.109,attentional_competition_task,2022.2.4,144.03638885232897,
positions.xlsx,positions_test.xlsx,positions_test_new.xlsx,stimuli.xlsx,stimuli_new.xlsx,stimuli/Social1.png,stimuli/Social2.png,stimuli/Nonsocial1.png,stimuli/Nonsocial2.png,stimuli/Social3.png,stimuli/Social4.png,stimuli/Nonsocial3.png,stimuli/Nonsocial4.png,cs_neg_s,"(0.7, 0.5)",,,,,,,,,0,0,0,0,,,,,,,,,,,,,0,7,7,2,,,,,,,,,,,,,,,,,,,,,,,,,,,,,,,,,,631.8868370000273,51,none,0,,,634.8936614999548,,,,,,,,,,,,,,,,,,,,,,10,A,2024-04-19_10h13.09.109,attentional_competition_task,2022.2.4,144.03638885232897,
positions.xlsx,positions_test.xlsx,positions_test_new.xlsx,stimuli.xlsx,stimuli_new.xlsx,stimuli/Social1.png,stimuli/Social2.png,stimuli/Nonsocial1.png,stimuli/Nonsocial2.png,stimuli/Social3.png,stimuli/Social4.png,stimuli/Nonsocial3.png,stimuli/Nonsocial4.png,cs_neg_ns,"(-0.7, -0.5)",,,,,,,,,0,0,0,0,,,,,,,,,,,,,0,8,8,9,,,,,,,,,,,,,,,,,,,,,,,,,,,,,,,,,,641.4698044001125,48,loss,1,0.1875897003337741,0.18759350012987852,641.6642359001562,,,,,,,,,,,,,,,,,,,,,,10,A,2024-04-19_10h13.09.109,attentional_competition_task,2022.2.4,144.03638885232897,
positions.xlsx,positions_test.xlsx,positions_test_new.xlsx,stimuli.xlsx,stimuli_new.xlsx,stimuli/Social1.png,stimuli/Social2.png,stimuli/Nonsocial1.png,stimuli/Nonsocial2.png,stimuli/Social3.png,stimuli/Social4.png,stimuli/Nonsocial3.png,stimuli/Nonsocial4.png,cs_neg_ns,"(-0.7, 0.5)",,,,,,,,,0,0,0,0,,,,,,,,,,,,,0,9,9,8,,,,,,,,,,,,,,,,,,,,,,,,,,,,,,,,,,648.9625003002584,48,none,0,,,651.9762861998752,,,,,,,,,,,,,,,,,,,,,,10,A,2024-04-19_10h13.09.109,attentional_competition_task,2022.2.4,144.03638885232897,
positions.xlsx,positions_test.xlsx,positions_test_new.xlsx,stimuli.xlsx,stimuli_new.xlsx,stimuli/Social1.png,stimuli/Social2.png,stimuli/Nonsocial1.png,stimuli/Nonsocial2.png,stimuli/Social3.png,stimuli/Social4.png,stimuli/Nonsocial3.png,stimuli/Nonsocial4.png,cs_pos_ns,"(-0.7, 0.5)",,,,,,,,,0,0,0,0,,,,,,,,,,,,,0,10,10,12,,,,,,,,,,,,,,,,,,,,,,,,,,,,,,,,,,658.9759943000972,51,reward,1,0.583880300167948,0.5838839001953602,659.5662477998994,,,,,,,,,,,,,,,,,,,,,,10,A,2024-04-19_10h13.09.109,attentional_competition_task,2022.2.4,144.03638885232897,
positions.xlsx,positions_test.xlsx,positions_test_new.xlsx,stimuli.xlsx,stimuli_new.xlsx,stimuli/Social1.png,stimuli/Social2.png,stimuli/Nonsocial1.png,stimuli/Nonsocial2.png,stimuli/Social3.png,stimuli/Social4.png,stimuli/Nonsocial3.png,stimuli/Nonsocial4.png,cs_pos_s,"(0.7, -0.5)",,,,,,,,,0,0,0,0,,,,,,,,,,,,,0,11,11,7,,,,,,,,,,,,,,,,,,,,,,,,,,,,,,,,,,666.8506669001654,54,reward,1,0.78511399962008,0.7851177998818457,667.6423599999398,,,,,,,,,,,,,,,,,,,,,,10,A,2024-04-19_10h13.09.109,attentional_competition_task,2022.2.4,144.03638885232897,
positions.xlsx,positions_test.xlsx,positions_test_new.xlsx,stimuli.xlsx,stimuli_new.xlsx,stimuli/Social1.png,stimuli/Social2.png,stimuli/Nonsocial1.png,stimuli/Nonsocial2.png,stimuli/Social3.png,stimuli/Social4.png,stimuli/Nonsocial3.png,stimuli/Nonsocial4.png,cs_pos_ns,"(0.7, 0.5)",,,,,,,,,0,0,0,0,,,,,,,,,,,,,0,12,12,14,,,,,,,,,,,,,,,,,,,,,,,,,,,,,,,,,,675.1558988001198,57,reward,1,0.625221099704504,0.6252246000804007,675.7878394001164,,,,,,,,,,,,,,,,,,,,,,10,A,2024-04-19_10h13.09.109,attentional_competition_task,2022.2.4,144.03638885232897,
positions.xlsx,positions_test.xlsx,positions_test_new.xlsx,stimuli.xlsx,stimuli_new.xlsx,stimuli/Social1.png,stimuli/Social2.png,stimuli/Nonsocial1.png,stimuli/Nonsocial2.png,stimuli/Social3.png,stimuli/Social4.png,stimuli/Nonsocial3.png,stimuli/Nonsocial4.png,cs_pos_s,"(-0.7, 0.5)",,,,,,,,,0,0,0,0,,,,,,,,,,,,,0,13,13,4,,,,,,,,,,,,,,,,,,,,,,,,,,,,,,,,,,683.3916990002617,60,reward,1,0.19457129994407296,0.19457510020583868,683.5930677000433,,,,,,,,,,,,,,,,,,,,,,10,A,2024-04-19_10h13.09.109,attentional_competition_task,2022.2.4,144.03638885232897,
positions.xlsx,positions_test.xlsx,positions_test_new.xlsx,stimuli.xlsx,stimuli_new.xlsx,stimuli/Social1.png,stimuli/Social2.png,stimuli/Nonsocial1.png,stimuli/Nonsocial2.png,stimuli/Social3.png,stimuli/Social4.png,stimuli/Nonsocial3.png,stimuli/Nonsocial4.png,cs_neg_s,"(-0.7, -0.5)",,,,,,,,,0,0,0,0,,,,,,,,,,,,,0,14,14,1,,,,,,,,,,,,,,,,,,,,,,,,,,,,,,,,,,690.6345263998955,60,none,0,,,693.6482020998374,,,,,,,,,,,,,,,,,,,,,,10,A,2024-04-19_10h13.09.109,attentional_competition_task,2022.2.4,144.03638885232897,
positions.xlsx,positions_test.xlsx,positions_test_new.xlsx,stimuli.xlsx,stimuli_new.xlsx,stimuli/Social1.png,stimuli/Social2.png,stimuli/Nonsocial1.png,stimuli/Nonsocial2.png,stimuli/Social3.png,stimuli/Social4.png,stimuli/Nonsocial3.png,stimuli/Nonsocial4.png,cs_neg_s,"(0.7, -0.5)",,,,,,,,,0,0,0,0,,,,,,,,,,,,,0,15,15,3,,,,,,,,,,,,,,,,,,,,,,,,,,,,,,,,,,701.6409852001816,60,none,0,,,704.6477645002306,,,,,,,,,,,,,,,,,,,,,,10,A,2024-04-19_10h13.09.109,attentional_competition_task,2022.2.4,144.03638885232897,
positions.xlsx,positions_test.xlsx,positions_test_new.xlsx,stimuli.xlsx,stimuli_new.xlsx,stimuli/Social1.png,stimuli/Social2.png,stimuli/Nonsocial1.png,stimuli/Nonsocial2.png,stimuli/Social3.png,stimuli/Social4.png,stimuli/Nonsocial3.png,stimuli/Nonsocial4.png,cs_pos_s,"(0.7, -0.5)",,,,,,,,,0,0,0,0,,,,,,,,,,,,,1,0,16,7,,,,,,,,,,,,,,,,,,,,,,,,,,,,,,,,,,712.4391216002405,63,reward,1,0.8126938999630511,0.81269760010764,713.2585597001016,,,,,,,,,,,,,,,,,,,,,,10,A,2024-04-19_10h13.09.109,attentional_competition_task,2022.2.4,144.03638885232897,
positions.xlsx,positions_test.xlsx,positions_test_new.xlsx,stimuli.xlsx,stimuli_new.xlsx,stimuli/Social1.png,stimuli/Social2.png,stimuli/Nonsocial1.png,stimuli/Nonsocial2.png,stimuli/Social3.png,stimuli/Social4.png,stimuli/Nonsocial3.png,stimuli/Nonsocial4.png,cs_pos_ns,"(-0.7, -0.5)",,,,,,,,,0,0,0,0,,,,,,,,,,,,,1,1,17,13,,,,,,,,,,,,,,,,,,,,,,,,,,,,,,,,,,720.8276709001511,66,reward,1,0.7153885001316667,0.7153924000449479,721.5499404999427,,,,,,,,,,,,,,,,,,,,,,10,A,2024-04-19_10h13.09.109,attentional_competition_task,2022.2.4,144.03638885232897,
positions.xlsx,positions_test.xlsx,positions_test_new.xlsx,stimuli.xlsx,stimuli_new.xlsx,stimuli/Social1.png,stimuli/Social2.png,stimuli/Nonsocial1.png,stimuli/Nonsocial2.png,stimuli/Social3.png,stimuli/Social4.png,stimuli/Nonsocial3.png,stimuli/Nonsocial4.png,cs_neg_ns,"(0.7, -0.5)",,,,,,,,,0,0,0,0,,,,,,,,,,,,,1,2,18,11,,,,,,,,,,,,,,,,,,,,,,,,,,,,,,,,,,729.084304400254,66,none,0,,,732.0980497002602,,,,,,,,,,,,,,,,,,,,,,10,A,2024-04-19_10h13.09.109,attentional_competition_task,2022.2.4,144.03638885232897,
positions.xlsx,positions_test.xlsx,positions_test_new.xlsx,stimuli.xlsx,stimuli_new.xlsx,stimuli/Social1.png,stimuli/Social2.png,stimuli/Nonsocial1.png,stimuli/Nonsocial2.png,stimuli/Social3.png,stimuli/Social4.png,stimuli/Nonsocial3.png,stimuli/Nonsocial4.png,cs_pos_s,"(0.7, 0.5)",,,,,,,,,0,0,0,0,,,,,,,,,,,,,1,3,19,6,,,,,,,,,,,,,,,,,,,,,,,,,,,,,,,,,,739.7436383999884,69,reward,1,0.6245706002227962,0.6245745001360774,740.3755395999178,,,,,,,,,,,,,,,,,,,,,,10,A,2024-04-19_10h13.09.109,attentional_competition_task,2022.2.4,144.03638885232897,
positions.xlsx,positions_test.xlsx,positions_test_new.xlsx,stimuli.xlsx,stimuli_new.xlsx,stimuli/Social1.png,stimuli/Social2.png,stimuli/Nonsocial1.png,stimuli/Nonsocial2.png,stimuli/Social3.png,stimuli/Social4.png,stimuli/Nonsocial3.png,stimuli/Nonsocial4.png,cs_pos_ns,"(-0.7, 0.5)",,,,,,,,,0,0,0,0,,,,,,,,,,,,,1,4,20,12,,,,,,,,,,,,,,,,,,,,,,,,,,,,,,,,,,747.2293969001621,72,reward,1,0.6875169998966157,0.6875207000412047,747.9238435002044,,,,,,,,,,,,,,,,,,,,,,10,A,2024-04-19_10h13.09.109,attentional_competition_task,2022.2.4,144.03638885232897,
positions.xlsx,positions_test.xlsx,positions_test_new.xlsx,stimuli.xlsx,stimuli_new.xlsx,stimuli/Social1.png,stimuli/Social2.png,stimuli/Nonsocial1.png,stimuli/Nonsocial2.png,stimuli/Social3.png,stimuli/Social4.png,stimuli/Nonsocial3.png,stimuli/Nonsocial4.png,cs_neg_s,"(0.7, 0.5)",,,,,,,,,0,0,0,0,,,,,,,,,,,,,1,5,21,2,,,,,,,,,,,,,,,,,,,,,,,,,,,,,,,,,,756.1318526999094,72,none,0,,,759.1456241002306,,,,,,,,,,,,,,,,,,,,,,10,A,2024-04-19_10h13.09.109,attentional_competition_task,2022.2.4,144.03638885232897,
positions.xlsx,positions_test.xlsx,positions_test_new.xlsx,stimuli.xlsx,stimuli_new.xlsx,stimuli/Social1.png,stimuli/Social2.png,stimuli/Nonsocial1.png,stimuli/Nonsocial2.png,stimuli/Social3.png,stimuli/Social4.png,stimuli/Nonsocial3.png,stimuli/Nonsocial4.png,cs_neg_s,"(-0.7, 0.5)",,,,,,,,,0,0,0,0,,,,,,,,,,,,,1,6,22,0,,,,,,,,,,,,,,,,,,,,,,,,,,,,,,,,,,766.3050374998711,72,none,0,,,769.3118308000267,,,,,,,,,,,,,,,,,,,,,,10,A,2024-04-19_10h13.09.109,attentional_competition_task,2022.2.4,144.03638885232897,
positions.xlsx,positions_test.xlsx,positions_test_new.xlsx,stimuli.xlsx,stimuli_new.xlsx,stimuli/Social1.png,stimuli/Social2.png,stimuli/Nonsocial1.png,stimuli/Nonsocial2.png,stimuli/Social3.png,stimuli/Social4.png,stimuli/Nonsocial3.png,stimuli/Nonsocial4.png,cs_neg_s,"(-0.7, -0.5)",,,,,,,,,0,0,0,0,,,,,,,,,,,,,1,7,23,1,,,,,,,,,,,,,,,,,,,,,,,,,,,,,,,,,,776.957466899883,72,none,0,,,779.9641889999621,,,,,,,,,,,,,,,,,,,,,,10,A,2024-04-19_10h13.09.109,attentional_competition_task,2022.2.4,144.03638885232897,
positions.xlsx,positions_test.xlsx,positions_test_new.xlsx,stimuli.xlsx,stimuli_new.xlsx,stimuli/Social1.png,stimuli/Social2.png,stimuli/Nonsocial1.png,stimuli/Nonsocial2.png,stimuli/Social3.png,stimuli/Social4.png,stimuli/Nonsocial3.png,stimuli/Nonsocial4.png,cs_pos_ns,"(0.7, 0.5)",,,,,,,,,0,0,0,0,,,,,,,,,,,,,1,8,24,14,,,,,,,,,,,,,,,,,,,,,,,,,,,,,,,,,,787.790287700016,75,reward,1,0.5559622999280691,0.563327300362289,788.3667159001343,,,,,,,,,,,,,,,,,,,,,,10,A,2024-04-19_10h13.09.109,attentional_competition_task,2022.2.4,144.03638885232897,
positions.xlsx,positions_test.xlsx,positions_test_new.xlsx,stimuli.xlsx,stimuli_new.xlsx,stimuli/Social1.png,stimuli/Social2.png,stimuli/Nonsocial1.png,stimuli/Nonsocial2.png,stimuli/Social3.png,stimuli/Social4.png,stimuli/Nonsocial3.png,stimuli/Nonsocial4.png,cs_pos_s,"(-0.7, 0.5)",,,,,,,,,0,0,0,0,,,,,,,,,,,,,1,9,25,4,,,,,,,,,,,,,,,,,,,,,,,,,,,,,,,,,,795.9497457998805,78,reward,1,0.7505200002342463,0.7505238000303507,796.7066045999527,,,,,,,,,,,,,,,,,,,,,,10,A,2024-04-19_10h13.09.109,attentional_competition_task,2022.2.4,144.03638885232897,
positions.xlsx,positions_test.xlsx,positions_test_new.xlsx,stimuli.xlsx,stimuli_new.xlsx,stimuli/Social1.png,stimuli/Social2.png,stimuli/Nonsocial1.png,stimuli/Nonsocial2.png,stimuli/Social3.png,stimuli/Social4.png,stimuli/Nonsocial3.png,stimuli/Nonsocial4.png,cs_neg_ns,"(0.7, 0.5)",,,,,,,,,0,0,0,0,,,,,,,,,,,,,1,10,26,10,,,,,,,,,,,,,,,,,,,,,,,,,,,,,,,,,,804.0049196998589,78,none,0,,,807.0188008998521,,,,,,,,,,,,,,,,,,,,,,10,A,2024-04-19_10h13.09.109,attentional_competition_task,2022.2.4,144.03638885232897,
positions.xlsx,positions_test.xlsx,positions_test_new.xlsx,stimuli.xlsx,stimuli_new.xlsx,stimuli/Social1.png,stimuli/Social2.png,stimuli/Nonsocial1.png,stimuli/Nonsocial2.png,stimuli/Social3.png,stimuli/Social4.png,stimuli/Nonsocial3.png,stimuli/Nonsocial4.png,cs_neg_ns,"(-0.7, -0.5)",,,,,,,,,0,0,0,0,,,,,,,,,,,,,1,11,27,9,,,,,,,,,,,,,,,,,,,,,,,,,,,,,,,,,,815.0253086001612,75,loss,1,0.22256179992109537,0.22256529983133078,815.2544899000786,,,,,,,,,,,,,,,,,,,,,,10,A,2024-04-19_10h13.09.109,attentional_competition_task,2022.2.4,144.03638885232897,
positions.xlsx,positions_test.xlsx,positions_test_new.xlsx,stimuli.xlsx,stimuli_new.xlsx,stimuli/Social1.png,stimuli/Social2.png,stimuli/Nonsocial1.png,stimuli/Nonsocial2.png,stimuli/Social3.png,stimuli/Social4.png,stimuli/Nonsocial3.png,stimuli/Nonsocial4.png,cs_pos_ns,"(0.7, -0.5)",,,,,,,,,0,0,0,0,,,,,,,,,,,,,1,12,28,15,,,,,,,,,,,,,,,,,,,,,,,,,,,,,,,,,,823.0736263999715,78,reward,1,1.1179180997423828,1.117921699769795,824.1985875000246,,,,,,,,,,,,,,,,,,,,,,10,A,2024-04-19_10h13.09.109,attentional_competition_task,2022.2.4,144.03638885232897,
positions.xlsx,positions_test.xlsx,positions_test_new.xlsx,stimuli.xlsx,stimuli_new.xlsx,stimuli/Social1.png,stimuli/Social2.png,stimuli/Nonsocial1.png,stimuli/Nonsocial2.png,stimuli/Social3.png,stimuli/Social4.png,stimuli/Nonsocial3.png,stimuli/Nonsocial4.png,cs_neg_ns,"(-0.7, 0.5)",,,,,,,,,0,0,0,0,,,,,,,,,,,,,1,13,29,8,,,,,,,,,,,,,,,,,,,,,,,,,,,,,,,,,,831.6496782000177,78,none,0,,,834.6634443001822,,,,,,,,,,,,,,,,,,,,,,10,A,2024-04-19_10h13.09.109,attentional_competition_task,2022.2.4,144.03638885232897,
positions.xlsx,positions_test.xlsx,positions_test_new.xlsx,stimuli.xlsx,stimuli_new.xlsx,stimuli/Social1.png,stimuli/Social2.png,stimuli/Nonsocial1.png,stimuli/Nonsocial2.png,stimuli/Social3.png,stimuli/Social4.png,stimuli/Nonsocial3.png,stimuli/Nonsocial4.png,cs_pos_s,"(-0.7, -0.5)",,,,,,,,,0,0,0,0,,,,,,,,,,,,,1,14,30,5,,,,,,,,,,,,,,,,,,,,,,,,,,,,,,,,,,841.454834499862,81,reward,1,0.6735761999152601,0.6735798995941877,842.1353726000525,,,,,,,,,,,,,,,,,,,,,,10,A,2024-04-19_10h13.09.109,attentional_competition_task,2022.2.4,144.03638885232897,
positions.xlsx,positions_test.xlsx,positions_test_new.xlsx,stimuli.xlsx,stimuli_new.xlsx,stimuli/Social1.png,stimuli/Social2.png,stimuli/Nonsocial1.png,stimuli/Nonsocial2.png,stimuli/Social3.png,stimuli/Social4.png,stimuli/Nonsocial3.png,stimuli/Nonsocial4.png,cs_neg_s,"(0.7, -0.5)",,,,,,,,,0,0,0,0,,,,,,,,,,,,,1,15,31,3,,,,,,,,,,,,,,,,,,,,,,,,,,,,,,,,,,849.1628351998515,81,none,0,,,852.1765898000449,,,,,,,,,,,,,,,,,,,,,,10,A,2024-04-19_10h13.09.109,attentional_competition_task,2022.2.4,144.03638885232897,
positions.xlsx,positions_test.xlsx,positions_test_new.xlsx,stimuli.xlsx,stimuli_new.xlsx,stimuli/Social1.png,stimuli/Social2.png,stimuli/Nonsocial1.png,stimuli/Nonsocial2.png,stimuli/Social3.png,stimuli/Social4.png,stimuli/Nonsocial3.png,stimuli/Nonsocial4.png,cs_pos_s,,,,,,,,,,0,0,0,0,,,,,,,,,,,,,,,,,0,0,0,2,,,,,,,,,,,,,,,,,,,,,,,857.6069840001874,9.0,4.220581399742514,,,,,,,,,,,,,,,,,,,,,,,,,,,,,,,,,10,A,2024-04-19_10h13.09.109,attentional_competition_task,2022.2.4,144.03638885232897,
positions.xlsx,positions_test.xlsx,positions_test_new.xlsx,stimuli.xlsx,stimuli_new.xlsx,stimuli/Social1.png,stimuli/Social2.png,stimuli/Nonsocial1.png,stimuli/Nonsocial2.png,stimuli/Social3.png,stimuli/Social4.png,stimuli/Nonsocial3.png,stimuli/Nonsocial4.png,cs_neg_s,,,,,,,,,,0,0,0,0,,,,,,,,,,,,,,,,,0,1,1,0,,,,,,,,,,,,,,,,,,,,,,,862.9817937002517,3.0,2.009183700196445,,,,,,,,,,,,,,,,,,,,,,,,,,,,,,,,,10,A,2024-04-19_10h13.09.109,attentional_competition_task,2022.2.4,144.03638885232897,
positions.xlsx,positions_test.xlsx,positions_test_new.xlsx,stimuli.xlsx,stimuli_new.xlsx,stimuli/Social1.png,stimuli/Social2.png,stimuli/Nonsocial1.png,stimuli/Nonsocial2.png,stimuli/Social3.png,stimuli/Social4.png,stimuli/Nonsocial3.png,stimuli/Nonsocial4.png,cs_neg_ns,,,,,,,,,,0,0,0,0,,,,,,,,,,,,,,,,,0,2,2,1,,,,,,,,,,,,,,,,,,,,,,,865.7663924000226,4.0,2.7097833999432623,,,,,,,,,,,,,,,,,,,,,,,,,,,,,,,,,10,A,2024-04-19_10h13.09.109,attentional_competition_task,2022.2.4,144.03638885232897,
positions.xlsx,positions_test.xlsx,positions_test_new.xlsx,stimuli.xlsx,stimuli_new.xlsx,stimuli/Social1.png,stimuli/Social2.png,stimuli/Nonsocial1.png,stimuli/Nonsocial2.png,stimuli/Social3.png,stimuli/Social4.png,stimuli/Nonsocial3.png,stimuli/Nonsocial4.png,cs_pos_ns,,,,,,,,,,0,0,0,0,,,,,,,,,,,,,,,,,0,3,3,3,,,,,,,,,,,,,,,,,,,,,,,869.925962000154,9.0,2.0913996999152005,,,,,,,,,,,,,,,,,,,,,,,,,,,,,,,,,10,A,2024-04-19_10h13.09.109,attentional_competition_task,2022.2.4,144.03638885232897,
positions.xlsx,positions_test.xlsx,positions_test_new.xlsx,stimuli.xlsx,stimuli_new.xlsx,stimuli/Social1.png,stimuli/Social2.png,stimuli/Nonsocial1.png,stimuli/Nonsocial2.png,stimuli/Social3.png,stimuli/Social4.png,stimuli/Nonsocial3.png,stimuli/Nonsocial4.png,,,"(-0.7, -0.5)",cs_neg_ns,"(-0.7, 0.5)",cs_pos_s,"(0.7, -0.5)",cs_neg_s,"(0.7, 0.5)",cs_pos_ns,0,0,0,0,,,,,,,,,,,,,,,,,,,,,0,0,0,12,,,,,,,,,,,,,,,,,,,,,,,,,,,84,reward,,,,,872.6480248998851,882.779593499843,882.779593499843,882.779593499843,882.779593499843,0,,,0,,,0,,,1,0.025003899820148945,0.025007199961692095,882.779593499843,882.779593499843,882.779593499843,882.779593499843,10,A,2024-04-19_10h13.09.109,attentional_competition_task,2022.2.4,144.03638885232897,
positions.xlsx,positions_test.xlsx,positions_test_new.xlsx,stimuli.xlsx,stimuli_new.xlsx,stimuli/Social1.png,stimuli/Social2.png,stimuli/Nonsocial1.png,stimuli/Nonsocial2.png,stimuli/Social3.png,stimuli/Social4.png,stimuli/Nonsocial3.png,stimuli/Nonsocial4.png,,,"(-0.7, -0.5)",cs_neg_ns,"(-0.7, 0.5)",cs_pos_s,"(0.7, -0.5)",cs_pos_ns,"(0.7, 0.5)",cs_neg_s,0,0,0,0,,,,,,,,,,,,,,,,,,,,,0,1,1,13,,,,,,,,,,,,,,,,,,,,,,,,,,,87,reward,,,,,,891.2792194001377,891.2792194001377,891.2792194001377,891.2792194001377,0,,,0,,,1,0.028446899726986885,0.028450800105929375,0,,,891.2792194001377,891.2792194001377,891.2792194001377,891.2792194001377,10,A,2024-04-19_10h13.09.109,attentional_competition_task,2022.2.4,144.03638885232897,
positions.xlsx,positions_test.xlsx,positions_test_new.xlsx,stimuli.xlsx,stimuli_new.xlsx,stimuli/Social1.png,stimuli/Social2.png,stimuli/Nonsocial1.png,stimuli/Nonsocial2.png,stimuli/Social3.png,stimuli/Social4.png,stimuli/Nonsocial3.png,stimuli/Nonsocial4.png,,,"(-0.7, -0.5)",cs_pos_s,"(-0.7, 0.5)",cs_neg_s,"(0.7, -0.5)",cs_neg_ns,"(0.7, 0.5)",cs_pos_ns,0,0,0,0,,,,,,,,,,,,,,,,,,,,,0,2,2,6,,,,,,,,,,,,,,,,,,,,,,,,,,,93,reward,,,,,,900.0913821002468,900.0913821002468,900.0913821002468,900.0913821002468,1,0.2673144997097552,0.2673185998573899,0,,,0,,,1,0.028978599701076746,0.2117864997126162,900.3622373002581,900.3622373002581,900.3622373002581,900.3622373002581,10,A,2024-04-19_10h13.09.109,attentional_competition_task,2022.2.4,144.03638885232897,
positions.xlsx,positions_test.xlsx,positions_test_new.xlsx,stimuli.xlsx,stimuli_new.xlsx,stimuli/Social1.png,stimuli/Social2.png,stimuli/Nonsocial1.png,stimuli/Nonsocial2.png,stimuli/Social3.png,stimuli/Social4.png,stimuli/Nonsocial3.png,stimuli/Nonsocial4.png,,,"(-0.7, -0.5)",cs_pos_ns,"(-0.7, 0.5)",cs_neg_ns,"(0.7, -0.5)",cs_neg_s,"(0.7, 0.5)",cs_pos_s,0,0,0,0,,,,,,,,,,,,,,,,,,,,,0,3,3,21,,,,,,,,,,,,,,,,,,,,,,,,,,,96,reward,,,,,,909.3757356000133,909.3757356000133,909.3757356000133,909.3757356000133,0,,,0,,,0,,,1,0.08734860038384795,0.08735250029712915,909.4660562998615,909.4660562998615,909.4660562998615,909.4660562998615,10,A,2024-04-19_10h13.09.109,attentional_competition_task,2022.2.4,144.03638885232897,
positions.xlsx,positions_test.xlsx,positions_test_new.xlsx,stimuli.xlsx,stimuli_new.xlsx,stimuli/Social1.png,stimuli/Social2.png,stimuli/Nonsocial1.png,stimuli/Nonsocial2.png,stimuli/Social3.png,stimuli/Social4.png,stimuli/Nonsocial3.png,stimuli/Nonsocial4.png,,,"(-0.7, -0.5)",cs_neg_ns,"(-0.7, 0.5)",cs_neg_s,"(0.7, -0.5)",cs_pos_s,"(0.7, 0.5)",cs_pos_ns,0,0,0,0,,,,,,,,,,,,,,,,,,,,,0,4,4,14,,,,,,,,,,,,,,,,,,,,,,,,,,,96,loss,,,,,,916.4518722002394,916.4518722002394,916.4518722002394,916.4518722002394,0,,,1,0.3286264999769628,0.3357179998420179,0,,,1,0.029044899623841047,0.28042179998010397,916.7921202001162,916.7921202001162,916.7921202001162,916.7921202001162,10,A,2024-04-19_10h13.09.109,attentional_competition_task,2022.2.4,144.03638885232897,
positions.xlsx,positions_test.xlsx,positions_test_new.xlsx,stimuli.xlsx,stimuli_new.xlsx,stimuli/Social1.png,stimuli/Social2.png,stimuli/Nonsocial1.png,stimuli/Nonsocial2.png,stimuli/Social3.png,stimuli/Social4.png,stimuli/Nonsocial3.png,stimuli/Nonsocial4.png,,,"(-0.7, -0.5)",cs_neg_ns,"(-0.7, 0.5)",cs_pos_ns,"(0.7, -0.5)",cs_pos_s,"(0.7, 0.5)",cs_neg_s,0,0,0,0,,,,,,,,,,,,,,,,,,,,,0,5,5,16,,,,,,,,,,,,,,,,,,,,,,,,,,,102,reward,,,,,,926.2223125998862,926.2223125998862,926.2223125998862,926.2223125998862,0,,,0,,,1,0.02989730006083846,0.029901199974119663,0,,,926.2223125998862,926.2223125998862,926.2223125998862,926.2223125998862,10,A,2024-04-19_10h13.09.109,attentional_competition_task,2022.2.4,144.03638885232897,
positions.xlsx,positions_test.xlsx,positions_test_new.xlsx,stimuli.xlsx,stimuli_new.xlsx,stimuli/Social1.png,stimuli/Social2.png,stimuli/Nonsocial1.png,stimuli/Nonsocial2.png,stimuli/Social3.png,stimuli/Social4.png,stimuli/Nonsocial3.png,stimuli/Nonsocial4.png,,,"(-0.7, -0.5)",cs_neg_ns,"(-0.7, 0.5)",cs_pos_ns,"(0.7, -0.5)",cs_neg_s,"(0.7, 0.5)",cs_pos_s,0,0,0,0,,,,,,,,,,,,,,,,,,,,,0,6,6,17,,,,,,,,,,,,,,,,,,,,,,,,,,,108,reward,,,,,,935.1038506999612,935.1038506999612,935.1038506999612,935.1038506999612,0,,,0,,,0,,,1,0.03474829997867346,0.03475179988890886,935.1038506999612,935.1038506999612,935.1038506999612,935.1038506999612,10,A,2024-04-19_10h13.09.109,attentional_competition_task,2022.2.4,144.03638885232897,
positions.xlsx,positions_test.xlsx,positions_test_new.xlsx,stimuli.xlsx,stimuli_new.xlsx,stimuli/Social1.png,stimuli/Social2.png,stimuli/Nonsocial1.png,stimuli/Nonsocial2.png,stimuli/Social3.png,stimuli/Social4.png,stimuli/Nonsocial3.png,stimuli/Nonsocial4.png,,,"(-0.7, -0.5)",cs_neg_s,"(-0.7, 0.5)",cs_neg_ns,"(0.7, -0.5)",cs_pos_s,"(0.7, 0.5)",cs_pos_ns,0,0,0,0,,,,,,,,,,,,,,,,,,,,,0,7,7,2,,,,,,,,,,,,,,,,,,,,,,,,,,,114,reward,,,,,,942.8674759999849,942.8674759999849,942.8674759999849,942.8674759999849,0,,,0,,,1,0.028985499870032072,0.028989399783313274,0,,,942.8674759999849,942.8674759999849,942.8674759999849,942.8674759999849,10,A,2024-04-19_10h13.09.109,attentional_competition_task,2022.2.4,144.03638885232897,
positions.xlsx,positions_test.xlsx,positions_test_new.xlsx,stimuli.xlsx,stimuli_new.xlsx,stimuli/Social1.png,stimuli/Social2.png,stimuli/Nonsocial1.png,stimuli/Nonsocial2.png,stimuli/Social3.png,stimuli/Social4.png,stimuli/Nonsocial3.png,stimuli/Nonsocial4.png,,,"(-0.7, -0.5)",cs_neg_s,"(-0.7, 0.5)",cs_pos_s,"(0.7, -0.5)",cs_neg_ns,"(0.7, 0.5)",cs_pos_ns,0,0,0,0,,,,,,,,,,,,,,,,,,,,,0,8,8,0,,,,,,,,,,,,,,,,,,,,,,,,,,,123,reward,,,,,,952.9365264000371,952.9365264000371,952.9365264000371,952.9365264000371,0,,,1,0.03190180007368326,0.031905699986964464,0,,,0,,,952.9365264000371,952.9365264000371,952.9365264000371,952.9365264000371,10,A,2024-04-19_10h13.09.109,attentional_competition_task,2022.2.4,144.03638885232897,
positions.xlsx,positions_test.xlsx,positions_test_new.xlsx,stimuli.xlsx,stimuli_new.xlsx,stimuli/Social1.png,stimuli/Social2.png,stimuli/Nonsocial1.png,stimuli/Nonsocial2.png,stimuli/Social3.png,stimuli/Social4.png,stimuli/Nonsocial3.png,stimuli/Nonsocial4.png,,,"(-0.7, -0.5)",cs_pos_ns,"(-0.7, 0.5)",cs_neg_s,"(0.7, -0.5)",cs_pos_s,"(0.7, 0.5)",cs_neg_ns,0,0,0,0,,,,,,,,,,,,,,,,,,,,,0,9,9,22,,,,,,,,,,,,,,,,,,,,,,,,,,,126,reward,,,,,,960.727827699855,960.727827699855,960.727827699855,960.727827699855,0,,,0,,,1,0.024682600051164627,0.024686300195753574,0,,,960.727827699855,960.727827699855,960.727827699855,960.727827699855,10,A,2024-04-19_10h13.09.109,attentional_competition_task,2022.2.4,144.03638885232897,
positions.xlsx,positions_test.xlsx,positions_test_new.xlsx,stimuli.xlsx,stimuli_new.xlsx,stimuli/Social1.png,stimuli/Social2.png,stimuli/Nonsocial1.png,stimuli/Nonsocial2.png,stimuli/Social3.png,stimuli/Social4.png,stimuli/Nonsocial3.png,stimuli/Nonsocial4.png,,,"(-0.7, -0.5)",cs_pos_s,"(-0.7, 0.5)",cs_neg_ns,"(0.7, -0.5)",cs_neg_s,"(0.7, 0.5)",cs_pos_ns,0,0,0,0,,,,,,,,,,,,,,,,,,,,,0,10,10,8,,,,,,,,,,,,,,,,,,,,,,,,,,,126,loss,,,,,,969.262271199841,969.262271199841,969.262271199841,969.262271199841,0,,,0,,,1,0.03341619996353984,0.03342009987682104,0,,,969.262271199841,969.262271199841,969.262271199841,969.262271199841,10,A,2024-04-19_10h13.09.109,attentional_competition_task,2022.2.4,144.03638885232897,
positions.xlsx,positions_test.xlsx,positions_test_new.xlsx,stimuli.xlsx,stimuli_new.xlsx,stimuli/Social1.png,stimuli/Social2.png,stimuli/Nonsocial1.png,stimuli/Nonsocial2.png,stimuli/Social3.png,stimuli/Social4.png,stimuli/Nonsocial3.png,stimuli/Nonsocial4.png,,,"(-0.7, -0.5)",cs_pos_ns,"(-0.7, 0.5)",cs_neg_ns,"(0.7, -0.5)",cs_pos_s,"(0.7, 0.5)",cs_neg_s,0,0,0,0,,,,,,,,,,,,,,,,,,,,,0,11,11,20,,,,,,,,,,,,,,,,,,,,,,,,,,,132,reward,,,,,,977.9424375002272,977.9424375002272,977.9424375002272,977.9424375002272,0,,,0,,,1,0.028504999820142984,0.02850859984755516,0,,,977.9424375002272,977.9424375002272,977.9424375002272,977.9424375002272,10,A,2024-04-19_10h13.09.109,attentional_competition_task,2022.2.4,144.03638885232897,
positions.xlsx,positions_test.xlsx,positions_test_new.xlsx,stimuli.xlsx,stimuli_new.xlsx,stimuli/Social1.png,stimuli/Social2.png,stimuli/Nonsocial1.png,stimuli/Nonsocial2.png,stimuli/Social3.png,stimuli/Social4.png,stimuli/Nonsocial3.png,stimuli/Nonsocial4.png,,,"(-0.7, -0.5)",cs_neg_s,"(-0.7, 0.5)",cs_pos_ns,"(0.7, -0.5)",cs_pos_s,"(0.7, 0.5)",cs_neg_ns,0,0,0,0,,,,,,,,,,,,,,,,,,,,,0,12,12,4,,,,,,,,,,,,,,,,,,,,,,,,,,,135,loss,,,,,,986.9004179001786,986.9004179001786,986.9004179001786,986.9004179001786,0,,,0,,,0,,,1,0.02390510030090809,0.023908800445497036,986.9004179001786,986.9004179001786,986.9004179001786,986.9004179001786,10,A,2024-04-19_10h13.09.109,attentional_competition_task,2022.2.4,144.03638885232897,
positions.xlsx,positions_test.xlsx,positions_test_new.xlsx,stimuli.xlsx,stimuli_new.xlsx,stimuli/Social1.png,stimuli/Social2.png,stimuli/Nonsocial1.png,stimuli/Nonsocial2.png,stimuli/Social3.png,stimuli/Social4.png,stimuli/Nonsocial3.png,stimuli/Nonsocial4.png,,,"(-0.7, -0.5)",cs_pos_ns,"(-0.7, 0.5)",cs_pos_s,"(0.7, -0.5)",cs_neg_s,"(0.7, 0.5)",cs_neg_ns,0,0,0,0,,,,,,,,,,,,,,,,,,,,,0,13,13,19,,,,,,,,,,,,,,,,,,,,,,,,,,,141,reward,,,,,,994.4973542001098,994.4973542001098,994.4973542001098,994.4973542001098,0,,,1,0.02860249998047948,0.028606200125068426,0,,,0,,,994.4973542001098,994.4973542001098,994.4973542001098,994.4973542001098,10,A,2024-04-19_10h13.09.109,attentional_competition_task,2022.2.4,144.03638885232897,
positions.xlsx,positions_test.xlsx,positions_test_new.xlsx,stimuli.xlsx,stimuli_new.xlsx,stimuli/Social1.png,stimuli/Social2.png,stimuli/Nonsocial1.png,stimuli/Nonsocial2.png,stimuli/Social3.png,stimuli/Social4.png,stimuli/Nonsocial3.png,stimuli/Nonsocial4.png,,,"(-0.7, -0.5)",cs_pos_ns,"(-0.7, 0.5)",cs_pos_s,"(0.7, -0.5)",cs_neg_ns,"(0.7, 0.5)",cs_neg_s,0,0,0,0,,,,,,,,,,,,,,,,,,,,,0,14,14,18,,,,,,,,,,,,,,,,,,,,,,,,,,,150,reward,,,,,,1003.8650163002312,1003.8650163002312,1003.8650163002312,1003.8650163002312,0,,,0,,,0,,,0,,,1004.53168250015,1004.53168250015,1004.53168250015,1004.53168250015,10,A,2024-04-19_10h13.09.109,attentional_competition_task,2022.2.4,144.03638885232897,
positions.xlsx,positions_test.xlsx,positions_test_new.xlsx,stimuli.xlsx,stimuli_new.xlsx,stimuli/Social1.png,stimuli/Social2.png,stimuli/Nonsocial1.png,stimuli/Nonsocial2.png,stimuli/Social3.png,stimuli/Social4.png,stimuli/Nonsocial3.png,stimuli/Nonsocial4.png,,,"(-0.7, -0.5)",cs_neg_s,"(-0.7, 0.5)",cs_pos_ns,"(0.7, -0.5)",cs_neg_ns,"(0.7, 0.5)",cs_pos_s,0,0,0,0,,,,,,,,,,,,,,,,,,,,,0,15,15,5,,,,,,,,,,,,,,,,,,,,,,,,,,,159,reward,,,,,,1012.8716151998378,1012.8716151998378,1012.8716151998378,1012.8716151998378,0,,,0,,,0,,,0,,,1013.4827044000849,1013.4827044000849,1013.4827044000849,1013.4827044000849,10,A,2024-04-19_10h13.09.109,attentional_competition_task,2022.2.4,144.03638885232897,
positions.xlsx,positions_test.xlsx,positions_test_new.xlsx,stimuli.xlsx,stimuli_new.xlsx,stimuli/Social1.png,stimuli/Social2.png,stimuli/Nonsocial1.png,stimuli/Nonsocial2.png,stimuli/Social3.png,stimuli/Social4.png,stimuli/Nonsocial3.png,stimuli/Nonsocial4.png,,,"(-0.7, -0.5)",cs_pos_s,"(-0.7, 0.5)",cs_pos_ns,"(0.7, -0.5)",cs_neg_ns,"(0.7, 0.5)",cs_neg_s,0,0,0,0,,,,,,,,,,,,,,,,,,,,,0,16,16,11,,,,,,,,,,,,,,,,,,,,,,,,,,,168,reward,,,,,,1020.8643837999552,1020.8643837999552,1020.8643837999552,1020.8643837999552,1,0.02889029961079359,0.2007152996957302,0,,,0,,,0,,,1021.5657159001566,1021.5657159001566,1021.5657159001566,1021.5657159001566,10,A,2024-04-19_10h13.09.109,attentional_competition_task,2022.2.4,144.03638885232897,
positions.xlsx,positions_test.xlsx,positions_test_new.xlsx,stimuli.xlsx,stimuli_new.xlsx,stimuli/Social1.png,stimuli/Social2.png,stimuli/Nonsocial1.png,stimuli/Nonsocial2.png,stimuli/Social3.png,stimuli/Social4.png,stimuli/Nonsocial3.png,stimuli/Nonsocial4.png,,,"(-0.7, -0.5)",cs_pos_ns,"(-0.7, 0.5)",cs_neg_s,"(0.7, -0.5)",cs_neg_ns,"(0.7, 0.5)",cs_pos_s,0,0,0,0,,,,,,,,,,,,,,,,,,,,,0,17,17,23,,,,,,,,,,,,,,,,,,,,,,,,,,,177,reward,,,,,,1029.718197400216,1029.718197400216,1029.718197400216,1029.718197400216,1,0.0310074002481997,0.08601620001718402,0,,,0,,,0,,,1030.3014699998312,1030.3014699998312,1030.3014699998312,1030.3014699998312,10,A,2024-04-19_10h13.09.109,attentional_competition_task,2022.2.4,144.03638885232897,
positions.xlsx,positions_test.xlsx,positions_test_new.xlsx,stimuli.xlsx,stimuli_new.xlsx,stimuli/Social1.png,stimuli/Social2.png,stimuli/Nonsocial1.png,stimuli/Nonsocial2.png,stimuli/Social3.png,stimuli/Social4.png,stimuli/Nonsocial3.png,stimuli/Nonsocial4.png,,,"(-0.7, -0.5)",cs_neg_s,"(-0.7, 0.5)",cs_neg_ns,"(0.7, -0.5)",cs_pos_ns,"(0.7, 0.5)",cs_pos_s,0,0,0,0,,,,,,,,,,,,,,,,,,,,,0,18,18,3,,,,,,,,,,,,,,,,,,,,,,,,,,,186,reward,,,,,,1038.0997341000475,1038.0997341000475,1038.0997341000475,1038.0997341000475,0,,,0,,,0,,,0,,,1038.6691920002922,1038.6691920002922,1038.6691920002922,1038.6691920002922,10,A,2024-04-19_10h13.09.109,attentional_competition_task,2022.2.4,144.03638885232897,
positions.xlsx,positions_test.xlsx,positions_test_new.xlsx,stimuli.xlsx,stimuli_new.xlsx,stimuli/Social1.png,stimuli/Social2.png,stimuli/Nonsocial1.png,stimuli/Nonsocial2.png,stimuli/Social3.png,stimuli/Social4.png,stimuli/Nonsocial3.png,stimuli/Nonsocial4.png,,,"(-0.7, -0.5)",cs_pos_s,"(-0.7, 0.5)",cs_pos_ns,"(0.7, -0.5)",cs_neg_s,"(0.7, 0.5)",cs_neg_ns,0,0,0,0,,,,,,,,,,,,,,,,,,,,,0,19,19,10,,,,,,,,,,,,,,,,,,,,,,,,,,,195,reward,,,,,,1047.175781799946,1047.175781799946,1047.175781799946,1047.175781799946,1,0.030230399686843157,0.19675179990008473,0,,,0,,,0,,,1047.870214600116,1047.870214600116,1047.870214600116,1047.870214600116,10,A,2024-04-19_10h13.09.109,attentional_competition_task,2022.2.4,144.03638885232897,
positions.xlsx,positions_test.xlsx,positions_test_new.xlsx,stimuli.xlsx,stimuli_new.xlsx,stimuli/Social1.png,stimuli/Social2.png,stimuli/Nonsocial1.png,stimuli/Nonsocial2.png,stimuli/Social3.png,stimuli/Social4.png,stimuli/Nonsocial3.png,stimuli/Nonsocial4.png,,,"(-0.7, -0.5)",cs_pos_s,"(-0.7, 0.5)",cs_neg_ns,"(0.7, -0.5)",cs_pos_ns,"(0.7, 0.5)",cs_neg_s,0,0,0,0,,,,,,,,,,,,,,,,,,,,,0,20,20,9,,,,,,,,,,,,,,,,,,,,,,,,,,,204,reward,,,,,,1055.3490669000894,1055.3490669000894,1055.3490669000894,1055.3490669000894,1,0.02268139971420169,0.2251452999189496,0,,,0,,,0,,,1056.0851622000337,1056.0851622000337,1056.0851622000337,1056.0851622000337,10,A,2024-04-19_10h13.09.109,attentional_competition_task,2022.2.4,144.03638885232897,
positions.xlsx,positions_test.xlsx,positions_test_new.xlsx,stimuli.xlsx,stimuli_new.xlsx,stimuli/Social1.png,stimuli/Social2.png,stimuli/Nonsocial1.png,stimuli/Nonsocial2.png,stimuli/Social3.png,stimuli/Social4.png,stimuli/Nonsocial3.png,stimuli/Nonsocial4.png,,,"(-0.7, -0.5)",cs_neg_ns,"(-0.7, 0.5)",cs_neg_s,"(0.7, -0.5)",cs_pos_ns,"(0.7, 0.5)",cs_pos_s,0,0,0,0,,,,,,,,,,,,,,,,,,,,,0,21,21,15,,,,,,,,,,,,,,,,,,,,,,,,,,,213,reward,,,,,,1063.1821118001826,1063.1821118001826,1063.1821118001826,1063.1821118001826,0,,,0,,,0,,,0,,,1063.883460599929,1063.883460599929,1063.883460599929,1063.883460599929,10,A,2024-04-19_10h13.09.109,attentional_competition_task,2022.2.4,144.03638885232897,
positions.xlsx,positions_test.xlsx,positions_test_new.xlsx,stimuli.xlsx,stimuli_new.xlsx,stimuli/Social1.png,stimuli/Social2.png,stimuli/Nonsocial1.png,stimuli/Nonsocial2.png,stimuli/Social3.png,stimuli/Social4.png,stimuli/Nonsocial3.png,stimuli/Nonsocial4.png,,,"(-0.7, -0.5)",cs_neg_s,"(-0.7, 0.5)",cs_pos_s,"(0.7, -0.5)",cs_pos_ns,"(0.7, 0.5)",cs_neg_ns,0,0,0,0,,,,,,,,,,,,,,,,,,,,,0,22,22,1,,,,,,,,,,,,,,,,,,,,,,,,,,,216,reward,,,,,,1071.7164798001759,1071.7164798001759,1071.7164798001759,1071.7164798001759,0,,,1,0.027933199889957905,0.02793679991737008,0,,,0,,,1071.7164798001759,1071.7164798001759,1071.7164798001759,1071.7164798001759,10,A,2024-04-19_10h13.09.109,attentional_competition_task,2022.2.4,144.03638885232897,
positions.xlsx,positions_test.xlsx,positions_test_new.xlsx,stimuli.xlsx,stimuli_new.xlsx,stimuli/Social1.png,stimuli/Social2.png,stimuli/Nonsocial1.png,stimuli/Nonsocial2.png,stimuli/Social3.png,stimuli/Social4.png,stimuli/Nonsocial3.png,stimuli/Nonsocial4.png,,,"(-0.7, -0.5)",cs_pos_s,"(-0.7, 0.5)",cs_neg_s,"(0.7, -0.5)",cs_pos_ns,"(0.7, 0.5)",cs_neg_ns,0,0,0,0,,,,,,,,,,,,,,,,,,,,,0,23,23,7,,,,,,,,,,,,,,,,,,,,,,,,,,,225,reward,,,,,,1080.1605560001917,1080.1605560001917,1080.1605560001917,1080.1605560001917,0,,,0,,,0,,,0,,,1080.8203083002008,1080.8203083002008,1080.8203083002008,1080.8203083002008,10,A,2024-04-19_10h13.09.109,attentional_competition_task,2022.2.4,144.03638885232897,
positions.xlsx,positions_test.xlsx,positions_test_new.xlsx,stimuli.xlsx,stimuli_new.xlsx,stimuli/Social1.png,stimuli/Social2.png,stimuli/Nonsocial1.png,stimuli/Nonsocial2.png,stimuli/Social3.png,stimuli/Social4.png,stimuli/Nonsocial3.png,stimuli/Nonsocial4.png,,,"(-0.7, -0.5)",cs_pos_ns,"(-0.7, 0.5)",cs_neg_s,"(0.7, -0.5)",cs_neg_ns,"(0.7, 0.5)",cs_pos_s,0,0,0,0,,,,,,,,,,,,,,,,,,,,,1,0,24,23,,,,,,,,,,,,,,,,,,,,,,,,,,,234,reward,,,,,,1088.7435484002344,1088.7435484002344,1088.7435484002344,1088.7435484002344,0,,,0,,,0,,,0,,,1089.424110100139,1089.424110100139,1089.424110100139,1089.424110100139,10,A,2024-04-19_10h13.09.109,attentional_competition_task,2022.2.4,144.03638885232897,
positions.xlsx,positions_test.xlsx,positions_test_new.xlsx,stimuli.xlsx,stimuli_new.xlsx,stimuli/Social1.png,stimuli/Social2.png,stimuli/Nonsocial1.png,stimuli/Nonsocial2.png,stimuli/Social3.png,stimuli/Social4.png,stimuli/Nonsocial3.png,stimuli/Nonsocial4.png,,,"(-0.7, -0.5)",cs_pos_ns,"(-0.7, 0.5)",cs_pos_s,"(0.7, -0.5)",cs_neg_s,"(0.7, 0.5)",cs_neg_ns,0,0,0,0,,,,,,,,,,,,,,,,,,,,,1,1,25,19,,,,,,,,,,,,,,,,,,,,,,,,,,,243,reward,,,,,,1097.1321419999003,1097.1321419999003,1097.1321419999003,1097.1321419999003,0,,,0,,,0,,,0,,,1098.048785999883,1098.048785999883,1098.048785999883,1098.048785999883,10,A,2024-04-19_10h13.09.109,attentional_competition_task,2022.2.4,144.03638885232897,
positions.xlsx,positions_test.xlsx,positions_test_new.xlsx,stimuli.xlsx,stimuli_new.xlsx,stimuli/Social1.png,stimuli/Social2.png,stimuli/Nonsocial1.png,stimuli/Nonsocial2.png,stimuli/Social3.png,stimuli/Social4.png,stimuli/Nonsocial3.png,stimuli/Nonsocial4.png,,,"(-0.7, -0.5)",cs_neg_s,"(-0.7, 0.5)",cs_neg_ns,"(0.7, -0.5)",cs_pos_s,"(0.7, 0.5)",cs_pos_ns,0,0,0,0,,,,,,,,,,,,,,,,,,,,,1,2,26,2,,,,,,,,,,,,,,,,,,,,,,,,,,,252,reward,,,,,,1105.458177200053,1105.458177200053,1105.458177200053,1105.458177200053,0,,,0,,,0,,,0,,,1106.2012177999131,1106.2012177999131,1106.2012177999131,1106.2012177999131,10,A,2024-04-19_10h13.09.109,attentional_competition_task,2022.2.4,144.03638885232897,
positions.xlsx,positions_test.xlsx,positions_test_new.xlsx,stimuli.xlsx,stimuli_new.xlsx,stimuli/Social1.png,stimuli/Social2.png,stimuli/Nonsocial1.png,stimuli/Nonsocial2.png,stimuli/Social3.png,stimuli/Social4.png,stimuli/Nonsocial3.png,stimuli/Nonsocial4.png,,,"(-0.7, -0.5)",cs_pos_s,"(-0.7, 0.5)",cs_neg_ns,"(0.7, -0.5)",cs_neg_s,"(0.7, 0.5)",cs_pos_ns,0,0,0,0,,,,,,,,,,,,,,,,,,,,,1,3,27,8,,,,,,,,,,,,,,,,,,,,,,,,,,,258,reward,,,,,,1114.2703265999444,1114.2703265999444,1114.2703265999444,1114.2703265999444,1,0.028895500116050243,0.028899400029331446,0,,,0,,,0,,,1114.2703265999444,1114.2703265999444,1114.2703265999444,1114.2703265999444,10,A,2024-04-19_10h13.09.109,attentional_competition_task,2022.2.4,144.03638885232897,
positions.xlsx,positions_test.xlsx,positions_test_new.xlsx,stimuli.xlsx,stimuli_new.xlsx,stimuli/Social1.png,stimuli/Social2.png,stimuli/Nonsocial1.png,stimuli/Nonsocial2.png,stimuli/Social3.png,stimuli/Social4.png,stimuli/Nonsocial3.png,stimuli/Nonsocial4.png,,,"(-0.7, -0.5)",cs_neg_ns,"(-0.7, 0.5)",cs_neg_s,"(0.7, -0.5)",cs_pos_s,"(0.7, 0.5)",cs_pos_ns,0,0,0,0,,,,,,,,,,,,,,,,,,,,,1,4,28,14,,,,,,,,,,,,,,,,,,,,,,,,,,,264,reward,,,,,,1122.964421399869,1122.964421399869,1122.964421399869,1122.964421399869,0,,,0,,,1,0.32909079967066646,0.3356601996347308,1,0.03138679964467883,0.12735540000721812,1123.2977283000946,1123.2977283000946,1123.2977283000946,1123.2977283000946,10,A,2024-04-19_10h13.09.109,attentional_competition_task,2022.2.4,144.03638885232897,
positions.xlsx,positions_test.xlsx,positions_test_new.xlsx,stimuli.xlsx,stimuli_new.xlsx,stimuli/Social1.png,stimuli/Social2.png,stimuli/Nonsocial1.png,stimuli/Nonsocial2.png,stimuli/Social3.png,stimuli/Social4.png,stimuli/Nonsocial3.png,stimuli/Nonsocial4.png,,,"(-0.7, -0.5)",cs_pos_ns,"(-0.7, 0.5)",cs_neg_s,"(0.7, -0.5)",cs_pos_s,"(0.7, 0.5)",cs_neg_ns,0,0,0,0,,,,,,,,,,,,,,,,,,,,,1,5,29,22,,,,,,,,,,,,,,,,,,,,,,,,,,,273,reward,,,,,,1131.8113036002032,1131.8113036002032,1131.8113036002032,1131.8113036002032,0,,,0,,,1,0.023997999727725983,0.03947089985013008,0,,,1132.3599188998342,1132.3599188998342,1132.3599188998342,1132.3599188998342,10,A,2024-04-19_10h13.09.109,attentional_competition_task,2022.2.4,144.03638885232897,
positions.xlsx,positions_test.xlsx,positions_test_new.xlsx,stimuli.xlsx,stimuli_new.xlsx,stimuli/Social1.png,stimuli/Social2.png,stimuli/Nonsocial1.png,stimuli/Nonsocial2.png,stimuli/Social3.png,stimuli/Social4.png,stimuli/Nonsocial3.png,stimuli/Nonsocial4.png,,,"(-0.7, -0.5)",cs_neg_ns,"(-0.7, 0.5)",cs_pos_s,"(0.7, -0.5)",cs_pos_ns,"(0.7, 0.5)",cs_neg_s,0,0,0,0,,,,,,,,,,,,,,,,,,,,,1,6,30,13,,,,,,,,,,,,,,,,,,,,,,,,,,,282,reward,,,,,,1140.609597099945,1140.609597099945,1140.609597099945,1140.609597099945,0,,,1,0.024997300002723932,0.07410329999402165,0,,,0,,,1141.18593710009,1141.18593710009,1141.18593710009,1141.18593710009,10,A,2024-04-19_10h13.09.109,attentional_competition_task,2022.2.4,144.03638885232897,
positions.xlsx,positions_test.xlsx,positions_test_new.xlsx,stimuli.xlsx,stimuli_new.xlsx,stimuli/Social1.png,stimuli/Social2.png,stimuli/Nonsocial1.png,stimuli/Nonsocial2.png,stimuli/Social3.png,stimuli/Social4.png,stimuli/Nonsocial3.png,stimuli/Nonsocial4.png,,,"(-0.7, -0.5)",cs_neg_ns,"(-0.7, 0.5)",cs_pos_ns,"(0.7, -0.5)",cs_neg_s,"(0.7, 0.5)",cs_pos_s,0,0,0,0,,,,,,,,,,,,,,,,,,,,,1,7,31,17,,,,,,,,,,,,,,,,,,,,,,,,,,,291,reward,,,,,,1148.9008873002604,1148.9008873002604,1148.9008873002604,1148.9008873002604,0,,,0,,,0,,,0,,,1149.6925484999083,1149.6925484999083,1149.6925484999083,1149.6925484999083,10,A,2024-04-19_10h13.09.109,attentional_competition_task,2022.2.4,144.03638885232897,
positions.xlsx,positions_test.xlsx,positions_test_new.xlsx,stimuli.xlsx,stimuli_new.xlsx,stimuli/Social1.png,stimuli/Social2.png,stimuli/Nonsocial1.png,stimuli/Nonsocial2.png,stimuli/Social3.png,stimuli/Social4.png,stimuli/Nonsocial3.png,stimuli/Nonsocial4.png,,,"(-0.7, -0.5)",cs_pos_ns,"(-0.7, 0.5)",cs_neg_ns,"(0.7, -0.5)",cs_pos_s,"(0.7, 0.5)",cs_neg_s,0,0,0,0,,,,,,,,,,,,,,,,,,,,,1,8,32,20,,,,,,,,,,,,,,,,,,,,,,,,,,,300,reward,,,,,,1158.1574585000053,1158.1574585000053,1158.1574585000053,1158.1574585000053,0,,,0,,,0,,,0,,,1158.9143743999302,1158.9143743999302,1158.9143743999302,1158.9143743999302,10,A,2024-04-19_10h13.09.109,attentional_competition_task,2022.2.4,144.03638885232897,
positions.xlsx,positions_test.xlsx,positions_test_new.xlsx,stimuli.xlsx,stimuli_new.xlsx,stimuli/Social1.png,stimuli/Social2.png,stimuli/Nonsocial1.png,stimuli/Nonsocial2.png,stimuli/Social3.png,stimuli/Social4.png,stimuli/Nonsocial3.png,stimuli/Nonsocial4.png,,,"(-0.7, -0.5)",cs_pos_s,"(-0.7, 0.5)",cs_neg_s,"(0.7, -0.5)",cs_neg_ns,"(0.7, 0.5)",cs_pos_ns,0,0,0,0,,,,,,,,,,,,,,,,,,,,,1,9,33,6,,,,,,,,,,,,,,,,,,,,,,,,,,,309,reward,,,,,,1165.8446673001163,1165.8446673001163,1165.8446673001163,1165.8446673001163,0,,,0,,,0,,,0,,,1166.6085278000683,1166.6085278000683,1166.6085278000683,1166.6085278000683,10,A,2024-04-19_10h13.09.109,attentional_competition_task,2022.2.4,144.03638885232897,
positions.xlsx,positions_test.xlsx,positions_test_new.xlsx,stimuli.xlsx,stimuli_new.xlsx,stimuli/Social1.png,stimuli/Social2.png,stimuli/Nonsocial1.png,stimuli/Nonsocial2.png,stimuli/Social3.png,stimuli/Social4.png,stimuli/Nonsocial3.png,stimuli/Nonsocial4.png,,,"(-0.7, -0.5)",cs_pos_s,"(-0.7, 0.5)",cs_pos_ns,"(0.7, -0.5)",cs_neg_ns,"(0.7, 0.5)",cs_neg_s,0,0,0,0,,,,,,,,,,,,,,,,,,,,,1,10,34,11,,,,,,,,,,,,,,,,,,,,,,,,,,,318,reward,,,,,,1174.6915063001215,1174.6915063001215,1174.6915063001215,1174.6915063001215,0,,,0,,,0,,,0,,,1175.5248456001282,1175.5248456001282,1175.5248456001282,1175.5248456001282,10,A,2024-04-19_10h13.09.109,attentional_competition_task,2022.2.4,144.03638885232897,
positions.xlsx,positions_test.xlsx,positions_test_new.xlsx,stimuli.xlsx,stimuli_new.xlsx,stimuli/Social1.png,stimuli/Social2.png,stimuli/Nonsocial1.png,stimuli/Nonsocial2.png,stimuli/Social3.png,stimuli/Social4.png,stimuli/Nonsocial3.png,stimuli/Nonsocial4.png,,,"(-0.7, -0.5)",cs_neg_s,"(-0.7, 0.5)",cs_pos_ns,"(0.7, -0.5)",cs_pos_s,"(0.7, 0.5)",cs_neg_ns,0,0,0,0,,,,,,,,,,,,,,,,,,,,,1,11,35,4,,,,,,,,,,,,,,,,,,,,,,,,,,,321,reward,,,,,,1183.3093053000048,1183.3093053000048,1183.3093053000048,1183.3093053000048,0,,,0,,,1,0.02525630034506321,0.025259900372475386,0,,,1183.3093053000048,1183.3093053000048,1183.3093053000048,1183.3093053000048,10,A,2024-04-19_10h13.09.109,attentional_competition_task,2022.2.4,144.03638885232897,
positions.xlsx,positions_test.xlsx,positions_test_new.xlsx,stimuli.xlsx,stimuli_new.xlsx,stimuli/Social1.png,stimuli/Social2.png,stimuli/Nonsocial1.png,stimuli/Nonsocial2.png,stimuli/Social3.png,stimuli/Social4.png,stimuli/Nonsocial3.png,stimuli/Nonsocial4.png,,,"(-0.7, -0.5)",cs_neg_ns,"(-0.7, 0.5)",cs_pos_s,"(0.7, -0.5)",cs_neg_s,"(0.7, 0.5)",cs_pos_ns,0,0,0,0,,,,,,,,,,,,,,,,,,,,,1,12,36,12,,,,,,,,,,,,,,,,,,,,,,,,,,,327,reward,,,,,,1191.5103114000522,1191.5103114000522,1191.5103114000522,1191.5103114000522,0,,,1,0.027769299689680338,0.027773099951446056,0,,,0,,,1191.5103114000522,1191.5103114000522,1191.5103114000522,1191.5103114000522,10,A,2024-04-19_10h13.09.109,attentional_competition_task,2022.2.4,144.03638885232897,
positions.xlsx,positions_test.xlsx,positions_test_new.xlsx,stimuli.xlsx,stimuli_new.xlsx,stimuli/Social1.png,stimuli/Social2.png,stimuli/Nonsocial1.png,stimuli/Nonsocial2.png,stimuli/Social3.png,stimuli/Social4.png,stimuli/Nonsocial3.png,stimuli/Nonsocial4.png,,,"(-0.7, -0.5)",cs_pos_ns,"(-0.7, 0.5)",cs_pos_s,"(0.7, -0.5)",cs_neg_ns,"(0.7, 0.5)",cs_neg_s,0,0,0,0,,,,,,,,,,,,,,,,,,,,,1,13,37,18,,,,,,,,,,,,,,,,,,,,,,,,,,,336,reward,,,,,,1200.9266663999297,1200.9266663999297,1200.9266663999297,1200.9266663999297,1,0.02858310006558895,0.028586999978870153,0,,,0,,,0,,,1200.9266663999297,1200.9266663999297,1200.9266663999297,1200.9266663999297,10,A,2024-04-19_10h13.09.109,attentional_competition_task,2022.2.4,144.03638885232897,
positions.xlsx,positions_test.xlsx,positions_test_new.xlsx,stimuli.xlsx,stimuli_new.xlsx,stimuli/Social1.png,stimuli/Social2.png,stimuli/Nonsocial1.png,stimuli/Nonsocial2.png,stimuli/Social3.png,stimuli/Social4.png,stimuli/Nonsocial3.png,stimuli/Nonsocial4.png,,,"(-0.7, -0.5)",cs_pos_s,"(-0.7, 0.5)",cs_neg_ns,"(0.7, -0.5)",cs_pos_ns,"(0.7, 0.5)",cs_neg_s,0,0,0,0,,,,,,,,,,,,,,,,,,,,,1,14,38,9,,,,,,,,,,,,,,,,,,,,,,,,,,,339,loss,,,,,,1208.579088700004,1208.579088700004,1208.579088700004,1208.579088700004,0,,,1,0.03307350026443601,0.033077599946409464,0,,,0,,,1208.6277081002481,1208.6277081002481,1208.6277081002481,1208.6277081002481,10,A,2024-04-19_10h13.09.109,attentional_competition_task,2022.2.4,144.03638885232897,
positions.xlsx,positions_test.xlsx,positions_test_new.xlsx,stimuli.xlsx,stimuli_new.xlsx,stimuli/Social1.png,stimuli/Social2.png,stimuli/Nonsocial1.png,stimuli/Nonsocial2.png,stimuli/Social3.png,stimuli/Social4.png,stimuli/Nonsocial3.png,stimuli/Nonsocial4.png,,,"(-0.7, -0.5)",cs_neg_ns,"(-0.7, 0.5)",cs_neg_s,"(0.7, -0.5)",cs_pos_ns,"(0.7, 0.5)",cs_pos_s,0,0,0,0,,,,,,,,,,,,,,,,,,,,,1,15,39,15,,,,,,,,,,,,,,,,,,,,,,,,,,,348,reward,,,,,,1217.4953844998963,1217.4953844998963,1217.4953844998963,1217.4953844998963,0,,,0,,,0,,,1,0.023086499888449907,0.191359699703753,1218.196759100072,1218.196759100072,1218.196759100072,1218.196759100072,10,A,2024-04-19_10h13.09.109,attentional_competition_task,2022.2.4,144.03638885232897,
positions.xlsx,positions_test.xlsx,positions_test_new.xlsx,stimuli.xlsx,stimuli_new.xlsx,stimuli/Social1.png,stimuli/Social2.png,stimuli/Nonsocial1.png,stimuli/Nonsocial2.png,stimuli/Social3.png,stimuli/Social4.png,stimuli/Nonsocial3.png,stimuli/Nonsocial4.png,,,"(-0.7, -0.5)",cs_pos_ns,"(-0.7, 0.5)",cs_neg_ns,"(0.7, -0.5)",cs_neg_s,"(0.7, 0.5)",cs_pos_s,0,0,0,0,,,,,,,,,,,,,,,,,,,,,1,16,40,21,,,,,,,,,,,,,,,,,,,,,,,,,,,354,reward,,,,,,1226.647779100109,1226.647779100109,1226.647779100109,1226.647779100109,1,0.029187700245529413,0.03777540009468794,0,,,0,,,1,0.10880570020526648,0.10880970023572445,1226.758909900207,1226.758909900207,1226.758909900207,1226.758909900207,10,A,2024-04-19_10h13.09.109,attentional_competition_task,2022.2.4,144.03638885232897,
positions.xlsx,positions_test.xlsx,positions_test_new.xlsx,stimuli.xlsx,stimuli_new.xlsx,stimuli/Social1.png,stimuli/Social2.png,stimuli/Nonsocial1.png,stimuli/Nonsocial2.png,stimuli/Social3.png,stimuli/Social4.png,stimuli/Nonsocial3.png,stimuli/Nonsocial4.png,,,"(-0.7, -0.5)",cs_neg_s,"(-0.7, 0.5)",cs_pos_ns,"(0.7, -0.5)",cs_neg_ns,"(0.7, 0.5)",cs_pos_s,0,0,0,0,,,,,,,,,,,,,,,,,,,,,1,17,41,5,,,,,,,,,,,,,,,,,,,,,,,,,,,363,reward,,,,,,1236.0085984002799,1236.0085984002799,1236.0085984002799,1236.0085984002799,0,,,0,,,0,,,0,,,1236.7863016002811,1236.7863016002811,1236.7863016002811,1236.7863016002811,10,A,2024-04-19_10h13.09.109,attentional_competition_task,2022.2.4,144.03638885232897,
positions.xlsx,positions_test.xlsx,positions_test_new.xlsx,stimuli.xlsx,stimuli_new.xlsx,stimuli/Social1.png,stimuli/Social2.png,stimuli/Nonsocial1.png,stimuli/Nonsocial2.png,stimuli/Social3.png,stimuli/Social4.png,stimuli/Nonsocial3.png,stimuli/Nonsocial4.png,,,"(-0.7, -0.5)",cs_neg_ns,"(-0.7, 0.5)",cs_pos_ns,"(0.7, -0.5)",cs_pos_s,"(0.7, 0.5)",cs_neg_s,0,0,0,0,,,,,,,,,,,,,,,,,,,,,1,18,42,16,,,,,,,,,,,,,,,,,,,,,,,,,,,369,reward,,,,,,1243.8345991000533,1243.8345991000533,1243.8345991000533,1243.8345991000533,0,,,0,,,1,0.1770258997566998,0.17702949978411198,0,,,1244.0151408002712,1244.0151408002712,1244.0151408002712,1244.0151408002712,10,A,2024-04-19_10h13.09.109,attentional_competition_task,2022.2.4,144.03638885232897,
positions.xlsx,positions_test.xlsx,positions_test_new.xlsx,stimuli.xlsx,stimuli_new.xlsx,stimuli/Social1.png,stimuli/Social2.png,stimuli/Nonsocial1.png,stimuli/Nonsocial2.png,stimuli/Social3.png,stimuli/Social4.png,stimuli/Nonsocial3.png,stimuli/Nonsocial4.png,,,"(-0.7, -0.5)",cs_neg_s,"(-0.7, 0.5)",cs_neg_ns,"(0.7, -0.5)",cs_pos_ns,"(0.7, 0.5)",cs_pos_s,0,0,0,0,,,,,,,,,,,,,,,,,,,,,1,19,43,3,,,,,,,,,,,,,,,,,,,,,,,,,,,378,reward,,,,,,1252.7439323998988,1252.7439323998988,1252.7439323998988,1252.7439323998988,0,,,0,,,0,,,0,,,1253.577293000184,1253.577293000184,1253.577293000184,1253.577293000184,10,A,2024-04-19_10h13.09.109,attentional_competition_task,2022.2.4,144.03638885232897,
positions.xlsx,positions_test.xlsx,positions_test_new.xlsx,stimuli.xlsx,stimuli_new.xlsx,stimuli/Social1.png,stimuli/Social2.png,stimuli/Nonsocial1.png,stimuli/Nonsocial2.png,stimuli/Social3.png,stimuli/Social4.png,stimuli/Nonsocial3.png,stimuli/Nonsocial4.png,,,"(-0.7, -0.5)",cs_pos_s,"(-0.7, 0.5)",cs_pos_ns,"(0.7, -0.5)",cs_neg_s,"(0.7, 0.5)",cs_neg_ns,0,0,0,0,,,,,,,,,,,,,,,,,,,,,1,20,44,10,,,,,,,,,,,,,,,,,,,,,,,,,,,384,reward,,,,,,1261.1672362000681,1261.1672362000681,1261.1672362000681,1261.1672362000681,1,0.030234800186008215,0.03023840021342039,0,,,0,,,0,,,1261.1672362000681,1261.1672362000681,1261.1672362000681,1261.1672362000681,10,A,2024-04-19_10h13.09.109,attentional_competition_task,2022.2.4,144.03638885232897,
positions.xlsx,positions_test.xlsx,positions_test_new.xlsx,stimuli.xlsx,stimuli_new.xlsx,stimuli/Social1.png,stimuli/Social2.png,stimuli/Nonsocial1.png,stimuli/Nonsocial2.png,stimuli/Social3.png,stimuli/Social4.png,stimuli/Nonsocial3.png,stimuli/Nonsocial4.png,,,"(-0.7, -0.5)",cs_neg_s,"(-0.7, 0.5)",cs_pos_s,"(0.7, -0.5)",cs_neg_ns,"(0.7, 0.5)",cs_pos_ns,0,0,0,0,,,,,,,,,,,,,,,,,,,,,1,21,45,0,,,,,,,,,,,,,,,,,,,,,,,,,,,393,reward,,,,,,1269.076676600147,1269.076676600147,1269.076676600147,1269.076676600147,0,,,0,,,0,,,0,,,1269.8544204002246,1269.8544204002246,1269.8544204002246,1269.8544204002246,10,A,2024-04-19_10h13.09.109,attentional_competition_task,2022.2.4,144.03638885232897,
positions.xlsx,positions_test.xlsx,positions_test_new.xlsx,stimuli.xlsx,stimuli_new.xlsx,stimuli/Social1.png,stimuli/Social2.png,stimuli/Nonsocial1.png,stimuli/Nonsocial2.png,stimuli/Social3.png,stimuli/Social4.png,stimuli/Nonsocial3.png,stimuli/Nonsocial4.png,,,"(-0.7, -0.5)",cs_neg_s,"(-0.7, 0.5)",cs_pos_s,"(0.7, -0.5)",cs_pos_ns,"(0.7, 0.5)",cs_neg_ns,0,0,0,0,,,,,,,,,,,,,,,,,,,,,1,22,46,1,,,,,,,,,,,,,,,,,,,,,,,,,,,402,reward,,,,,,1276.930494000204,1276.930494000204,1276.930494000204,1276.930494000204,0,,,0,,,0,,,0,,,1277.652728700079,1277.652728700079,1277.652728700079,1277.652728700079,10,A,2024-04-19_10h13.09.109,attentional_competition_task,2022.2.4,144.03638885232897,
positions.xlsx,positions_test.xlsx,positions_test_new.xlsx,stimuli.xlsx,stimuli_new.xlsx,stimuli/Social1.png,stimuli/Social2.png,stimuli/Nonsocial1.png,stimuli/Nonsocial2.png,stimuli/Social3.png,stimuli/Social4.png,stimuli/Nonsocial3.png,stimuli/Nonsocial4.png,,,"(-0.7, -0.5)",cs_pos_s,"(-0.7, 0.5)",cs_neg_s,"(0.7, -0.5)",cs_pos_ns,"(0.7, 0.5)",cs_neg_ns,0,0,0,0,,,,,,,,,,,,,,,,,,,,,1,23,47,7,,,,,,,,,,,,,,,,,,,,,,,,,,,411,reward,,,,,,1284.9163084998727,1284.9163084998727,1284.9163084998727,1284.9163084998727,0,,,0,,,0,,,0,,,1285.4857409000397,1285.4857409000397,1285.4857409000397,1285.4857409000397,10,A,2024-04-19_10h13.09.109,attentional_competition_task,2022.2.4,144.03638885232897,
positions.xlsx,positions_test.xlsx,positions_test_new.xlsx,stimuli.xlsx,stimuli_new.xlsx,stimuli/Social1.png,stimuli/Social2.png,stimuli/Nonsocial1.png,stimuli/Nonsocial2.png,stimuli/Social3.png,stimuli/Social4.png,stimuli/Nonsocial3.png,stimuli/Nonsocial4.png,,,"(-0.7, -0.5)",cs_pos_s,"(-0.7, 0.5)",cs_neg_ns,"(0.7, -0.5)",cs_pos_ns,"(0.7, 0.5)",cs_neg_s,0,0,0,0,,,,,,,,,,,,,,,,,,,,,,,,,,,,,0,0,0,4,0,0,0,0,,,,,,,,,,,,,,,414,reward,,,,,,1290.6313952002674,1290.6313952002674,1290.6313952002674,1290.6313952002674,0,,,0,,,1,0.8841830999590456,0.8841868997551501,0,,,1291.527178700082,1291.527178700082,1291.527178700082,1291.527178700082,10,A,2024-04-19_10h13.09.109,attentional_competition_task,2022.2.4,144.03638885232897,
positions.xlsx,positions_test.xlsx,positions_test_new.xlsx,stimuli.xlsx,stimuli_new.xlsx,stimuli/Social1.png,stimuli/Social2.png,stimuli/Nonsocial1.png,stimuli/Nonsocial2.png,stimuli/Social3.png,stimuli/Social4.png,stimuli/Nonsocial3.png,stimuli/Nonsocial4.png,,,"(-0.7, -0.5)",cs_pos_s,"(-0.7, 0.5)",cs_neg_ns,"(0.7, -0.5)",cs_pos_ns,"(0.7, 0.5)",cs_neg_s,0,0,0,0,,,,,,,,,,,,,,,,,,,,,,,,,,,,,0,0,0,4,1,0,1,0,,,,,,,,,,,,,,,417,reward,,,,,,1292.054967599921,1292.054967599921,1292.054967599921,1292.054967599921,1,0.028242199681699276,0.028245799709111452,0,,,0,,,0,,,1292.054967599921,1292.054967599921,1292.054967599921,1292.054967599921,10,A,2024-04-19_10h13.09.109,attentional_competition_task,2022.2.4,144.03638885232897,
positions.xlsx,positions_test.xlsx,positions_test_new.xlsx,stimuli.xlsx,stimuli_new.xlsx,stimuli/Social1.png,stimuli/Social2.png,stimuli/Nonsocial1.png,stimuli/Nonsocial2.png,stimuli/Social3.png,stimuli/Social4.png,stimuli/Nonsocial3.png,stimuli/Nonsocial4.png,,,"(-0.7, -0.5)",cs_pos_s,"(-0.7, 0.5)",cs_neg_ns,"(0.7, -0.5)",cs_pos_ns,"(0.7, 0.5)",cs_neg_s,0,0,0,0,,,,,,,,,,,,,,,,,,,,,,,,,,,,,0,0,0,4,2,0,2,0,,,,,,,,,,,,,,,420,reward,,,,,,1292.5618123998865,1292.5618123998865,1292.5618123998865,1292.5618123998865,1,0.024361100047826767,0.087404599878937,0,,,0,,,0,,,1293.1451624999754,1293.1451624999754,1293.1451624999754,1293.1451624999754,10,A,2024-04-19_10h13.09.109,attentional_competition_task,2022.2.4,144.03638885232897,
positions.xlsx,positions_test.xlsx,positions_test_new.xlsx,stimuli.xlsx,stimuli_new.xlsx,stimuli/Social1.png,stimuli/Social2.png,stimuli/Nonsocial1.png,stimuli/Nonsocial2.png,stimuli/Social3.png,stimuli/Social4.png,stimuli/Nonsocial3.png,stimuli/Nonsocial4.png,,,"(-0.7, -0.5)",cs_pos_s,"(-0.7, 0.5)",cs_neg_ns,"(0.7, -0.5)",cs_pos_ns,"(0.7, 0.5)",cs_neg_s,0,0,0,0,,,,,,,,,,,,,,,,,,,,,,,,,,,,,0,0,0,4,,,,,,,,,,,,,,,,,,,,,,,,,,,,,,,,,,,,,,,,,,,,,,10,A,2024-04-19_10h13.09.109,attentional_competition_task,2022.2.4,144.03638885232897,
positions.xlsx,positions_test.xlsx,positions_test_new.xlsx,stimuli.xlsx,stimuli_new.xlsx,stimuli/Social1.png,stimuli/Social2.png,stimuli/Nonsocial1.png,stimuli/Nonsocial2.png,stimuli/Social3.png,stimuli/Social4.png,stimuli/Nonsocial3.png,stimuli/Nonsocial4.png,,,"(-0.7, -0.5)",cs_neg_ns,"(-0.7, 0.5)",cs_pos_ns,"(0.7, -0.5)",cs_pos_s,"(0.7, 0.5)",cs_neg_s_new,0,0,0,0,,,,,,,,,,,,,,,,,,,,,,,,,,,,,0,1,1,8,0,0,0,0,,,,,,,,,,,,,,,423,reward,,,,,,1299.0684841000475,1299.0684841000475,1299.0684841000475,1299.0684841000475,0,,,1,0.8286799998022616,0.8286840999498963,0,,,0,,,1299.901818800252,1299.901818800252,1299.901818800252,1299.901818800252,10,A,2024-04-19_10h13.09.109,attentional_competition_task,2022.2.4,144.03638885232897,
positions.xlsx,positions_test.xlsx,positions_test_new.xlsx,stimuli.xlsx,stimuli_new.xlsx,stimuli/Social1.png,stimuli/Social2.png,stimuli/Nonsocial1.png,stimuli/Nonsocial2.png,stimuli/Social3.png,stimuli/Social4.png,stimuli/Nonsocial3.png,stimuli/Nonsocial4.png,,,"(-0.7, -0.5)",cs_neg_ns,"(-0.7, 0.5)",cs_pos_ns,"(0.7, -0.5)",cs_pos_s,"(0.7, 0.5)",cs_neg_s_new,0,0,0,0,,,,,,,,,,,,,,,,,,,,,,,,,,,,,0,1,1,8,1,0,1,0,,,,,,,,,,,,,,,420,loss,,,,,,1300.436573300045,1300.436573300045,1300.436573300045,1300.436573300045,0,,,0,,,0,,,1,0.031215100083500147,0.03121899999678135,1300.436573300045,1300.436573300045,1300.436573300045,1300.436573300045,10,A,2024-04-19_10h13.09.109,attentional_competition_task,2022.2.4,144.03638885232897,
positions.xlsx,positions_test.xlsx,positions_test_new.xlsx,stimuli.xlsx,stimuli_new.xlsx,stimuli/Social1.png,stimuli/Social2.png,stimuli/Nonsocial1.png,stimuli/Nonsocial2.png,stimuli/Social3.png,stimuli/Social4.png,stimuli/Nonsocial3.png,stimuli/Nonsocial4.png,,,"(-0.7, -0.5)",cs_neg_ns,"(-0.7, 0.5)",cs_pos_ns,"(0.7, -0.5)",cs_pos_s,"(0.7, 0.5)",cs_neg_s_new,0,0,0,0,,,,,,,,,,,,,,,,,,,,,,,,,,,,,0,1,1,8,2,0,2,0,,,,,,,,,,,,,,,423,reward,,,,,,1300.9712024000473,1300.9712024000473,1300.9712024000473,1300.9712024000473,0,,,0,,,1,0.030991300009191036,0.030995000153779984,0,,,1300.9712024000473,1300.9712024000473,1300.9712024000473,1300.9712024000473,10,A,2024-04-19_10h13.09.109,attentional_competition_task,2022.2.4,144.03638885232897,
positions.xlsx,positions_test.xlsx,positions_test_new.xlsx,stimuli.xlsx,stimuli_new.xlsx,stimuli/Social1.png,stimuli/Social2.png,stimuli/Nonsocial1.png,stimuli/Nonsocial2.png,stimuli/Social3.png,stimuli/Social4.png,stimuli/Nonsocial3.png,stimuli/Nonsocial4.png,,,"(-0.7, -0.5)",cs_neg_ns,"(-0.7, 0.5)",cs_pos_ns,"(0.7, -0.5)",cs_pos_s,"(0.7, 0.5)",cs_neg_s_new,0,0,0,0,,,,,,,,,,,,,,,,,,,,,,,,,,,,,0,1,1,8,,,,,,,,,,,,,,,,,,,,,,,,,,,,,,,,,,,,,,,,,,,,,,10,A,2024-04-19_10h13.09.109,attentional_competition_task,2022.2.4,144.03638885232897,
positions.xlsx,positions_test.xlsx,positions_test_new.xlsx,stimuli.xlsx,stimuli_new.xlsx,stimuli/Social1.png,stimuli/Social2.png,stimuli/Nonsocial1.png,stimuli/Nonsocial2.png,stimuli/Social3.png,stimuli/Social4.png,stimuli/Nonsocial3.png,stimuli/Nonsocial4.png,,,"(-0.7, -0.5)",cs_pos_ns,"(-0.7, 0.5)",cs_pos_s_new,"(0.7, -0.5)",cs_neg_ns,"(0.7, 0.5)",cs_neg_s,0,0,0,0,,,,,,,,,,,,,,,,,,,,,,,,,,,,,0,2,2,35,0,0,0,0,,,,,,,,,,,,,,,426,reward,,,,,,1308.2000997001305,1308.2000997001305,1308.2000997001305,1308.2000997001305,0,,,1,0.6906675002537668,0.690671400167048,0,,,0,,,1308.8945923000574,1308.8945923000574,1308.8945923000574,1308.8945923000574,10,A,2024-04-19_10h13.09.109,attentional_competition_task,2022.2.4,144.03638885232897,
positions.xlsx,positions_test.xlsx,positions_test_new.xlsx,stimuli.xlsx,stimuli_new.xlsx,stimuli/Social1.png,stimuli/Social2.png,stimuli/Nonsocial1.png,stimuli/Nonsocial2.png,stimuli/Social3.png,stimuli/Social4.png,stimuli/Nonsocial3.png,stimuli/Nonsocial4.png,,,"(-0.7, -0.5)",cs_pos_ns,"(-0.7, 0.5)",cs_pos_s_new,"(0.7, -0.5)",cs_neg_ns,"(0.7, 0.5)",cs_neg_s,0,0,0,0,,,,,,,,,,,,,,,,,,,,,,,,,,,,,0,2,2,35,1,0,1,0,,,,,,,,,,,,,,,429,reward,,,,,,1309.4292187001556,1309.4292187001556,1309.4292187001556,1309.4292187001556,1,0.02959250006824732,0.029596799984574318,0,,,0,,,0,,,1309.4292187001556,1309.4292187001556,1309.4292187001556,1309.4292187001556,10,A,2024-04-19_10h13.09.109,attentional_competition_task,2022.2.4,144.03638885232897,
positions.xlsx,positions_test.xlsx,positions_test_new.xlsx,stimuli.xlsx,stimuli_new.xlsx,stimuli/Social1.png,stimuli/Social2.png,stimuli/Nonsocial1.png,stimuli/Nonsocial2.png,stimuli/Social3.png,stimuli/Social4.png,stimuli/Nonsocial3.png,stimuli/Nonsocial4.png,,,"(-0.7, -0.5)",cs_pos_ns,"(-0.7, 0.5)",cs_pos_s_new,"(0.7, -0.5)",cs_neg_ns,"(0.7, 0.5)",cs_neg_s,0,0,0,0,,,,,,,,,,,,,,,,,,,,,,,,,,,,,0,2,2,35,2,0,2,0,,,,,,,,,,,,,,,426,loss,,,,,,1309.9361274000257,1309.9361274000257,1309.9361274000257,1309.9361274000257,0,,,1,0.02978490013629198,0.20432780031114817,0,,,1,0.2529502999968827,0.2529540001414716,1310.6861227001064,1310.6861227001064,1310.6861227001064,1310.6861227001064,10,A,2024-04-19_10h13.09.109,attentional_competition_task,2022.2.4,144.03638885232897,
positions.xlsx,positions_test.xlsx,positions_test_new.xlsx,stimuli.xlsx,stimuli_new.xlsx,stimuli/Social1.png,stimuli/Social2.png,stimuli/Nonsocial1.png,stimuli/Nonsocial2.png,stimuli/Social3.png,stimuli/Social4.png,stimuli/Nonsocial3.png,stimuli/Nonsocial4.png,,,"(-0.7, -0.5)",cs_pos_ns,"(-0.7, 0.5)",cs_pos_s_new,"(0.7, -0.5)",cs_neg_ns,"(0.7, 0.5)",cs_neg_s,0,0,0,0,,,,,,,,,,,,,,,,,,,,,,,,,,,,,0,2,2,35,,,,,,,,,,,,,,,,,,,,,,,,,,,,,,,,,,,,,,,,,,,,,,10,A,2024-04-19_10h13.09.109,attentional_competition_task,2022.2.4,144.03638885232897,
positions.xlsx,positions_test.xlsx,positions_test_new.xlsx,stimuli.xlsx,stimuli_new.xlsx,stimuli/Social1.png,stimuli/Social2.png,stimuli/Nonsocial1.png,stimuli/Nonsocial2.png,stimuli/Social3.png,stimuli/Social4.png,stimuli/Nonsocial3.png,stimuli/Nonsocial4.png,,,"(-0.7, -0.5)",cs_neg_ns,"(-0.7, 0.5)",cs_neg_s,"(0.7, -0.5)",cs_pos_ns,"(0.7, 0.5)",cs_pos_s,0,0,0,0,,,,,,,,,,,,,,,,,,,,,,,,,,,,,0,3,3,6,0,0,0,0,,,,,,,,,,,,,,,429,reward,,,,,,1316.165061800275,1316.165061800275,1316.165061800275,1316.165061800275,0,,,0,,,0,,,1,0.8428361001424491,0.8428397001698613,1317.0122870998457,1317.0122870998457,1317.0122870998457,1317.0122870998457,10,A,2024-04-19_10h13.09.109,attentional_competition_task,2022.2.4,144.03638885232897,
positions.xlsx,positions_test.xlsx,positions_test_new.xlsx,stimuli.xlsx,stimuli_new.xlsx,stimuli/Social1.png,stimuli/Social2.png,stimuli/Nonsocial1.png,stimuli/Nonsocial2.png,stimuli/Social3.png,stimuli/Social4.png,stimuli/Nonsocial3.png,stimuli/Nonsocial4.png,,,"(-0.7, -0.5)",cs_neg_ns,"(-0.7, 0.5)",cs_neg_s,"(0.7, -0.5)",cs_pos_ns,"(0.7, 0.5)",cs_pos_s,0,0,0,0,,,,,,,,,,,,,,,,,,,,,,,,,,,,,0,3,3,6,1,0,1,0,,,,,,,,,,,,,,,432,reward,,,,,,1317.5400844998658,1317.5400844998658,1317.5400844998658,1317.5400844998658,0,,,0,,,1,0.0294323000125587,0.029436499811708927,0,,,1317.5400844998658,1317.5400844998658,1317.5400844998658,1317.5400844998658,10,A,2024-04-19_10h13.09.109,attentional_competition_task,2022.2.4,144.03638885232897,
positions.xlsx,positions_test.xlsx,positions_test_new.xlsx,stimuli.xlsx,stimuli_new.xlsx,stimuli/Social1.png,stimuli/Social2.png,stimuli/Nonsocial1.png,stimuli/Nonsocial2.png,stimuli/Social3.png,stimuli/Social4.png,stimuli/Nonsocial3.png,stimuli/Nonsocial4.png,,,"(-0.7, -0.5)",cs_neg_ns,"(-0.7, 0.5)",cs_neg_s,"(0.7, -0.5)",cs_pos_ns,"(0.7, 0.5)",cs_pos_s,0,0,0,0,,,,,,,,,,,,,,,,,,,,,,,,,,,,,0,3,3,6,2,0,2,0,,,,,,,,,,,,,,,429,loss,,,,,,1318.0747485999018,1318.0747485999018,1318.0747485999018,1318.0747485999018,0,,,1,0.025013600010424852,0.025017299689352512,0,,,0,,,1318.0747485999018,1318.0747485999018,1318.0747485999018,1318.0747485999018,10,A,2024-04-19_10h13.09.109,attentional_competition_task,2022.2.4,144.03638885232897,
positions.xlsx,positions_test.xlsx,positions_test_new.xlsx,stimuli.xlsx,stimuli_new.xlsx,stimuli/Social1.png,stimuli/Social2.png,stimuli/Nonsocial1.png,stimuli/Nonsocial2.png,stimuli/Social3.png,stimuli/Social4.png,stimuli/Nonsocial3.png,stimuli/Nonsocial4.png,,,"(-0.7, -0.5)",cs_neg_ns,"(-0.7, 0.5)",cs_neg_s,"(0.7, -0.5)",cs_pos_ns,"(0.7, 0.5)",cs_pos_s,0,0,0,0,,,,,,,,,,,,,,,,,,,,,,,,,,,,,0,3,3,6,,,,,,,,,,,,,,,,,,,,,,,,,,,,,,,,,,,,,,,,,,,,,,10,A,2024-04-19_10h13.09.109,attentional_competition_task,2022.2.4,144.03638885232897,
positions.xlsx,positions_test.xlsx,positions_test_new.xlsx,stimuli.xlsx,stimuli_new.xlsx,stimuli/Social1.png,stimuli/Social2.png,stimuli/Nonsocial1.png,stimuli/Nonsocial2.png,stimuli/Social3.png,stimuli/Social4.png,stimuli/Nonsocial3.png,stimuli/Nonsocial4.png,,,"(-0.7, -0.5)",cs_pos_ns,"(-0.7, 0.5)",cs_neg_ns_new,"(0.7, -0.5)",cs_neg_s,"(0.7, 0.5)",cs_pos_s,0,0,0,0,,,,,,,,,,,,,,,,,,,,,,,,,,,,,0,4,4,24,0,0,0,0,,,,,,,,,,,,,,,432,reward,,,,,,1324.5952547001652,1324.5952547001652,1324.5952547001652,1324.5952547001652,1,1.9951920001767576,2.0018564998172224,0,,,0,,,0,,,1327.1021430999972,1327.1021430999972,1327.1021430999972,1327.1021430999972,10,A,2024-04-19_10h13.09.109,attentional_competition_task,2022.2.4,144.03638885232897,
positions.xlsx,positions_test.xlsx,positions_test_new.xlsx,stimuli.xlsx,stimuli_new.xlsx,stimuli/Social1.png,stimuli/Social2.png,stimuli/Nonsocial1.png,stimuli/Nonsocial2.png,stimuli/Social3.png,stimuli/Social4.png,stimuli/Nonsocial3.png,stimuli/Nonsocial4.png,,,"(-0.7, -0.5)",cs_pos_ns,"(-0.7, 0.5)",cs_neg_ns_new,"(0.7, -0.5)",cs_neg_s,"(0.7, 0.5)",cs_pos_s,0,0,0,0,,,,,,,,,,,,,,,,,,,,,,,,,,,,,0,4,4,24,,,,,,,,,,,,,,,,,,,,,,,,,,,,,,,,,,,,,,,,,,,,,,10,A,2024-04-19_10h13.09.109,attentional_competition_task,2022.2.4,144.03638885232897,
positions.xlsx,positions_test.xlsx,positions_test_new.xlsx,stimuli.xlsx,stimuli_new.xlsx,stimuli/Social1.png,stimuli/Social2.png,stimuli/Nonsocial1.png,stimuli/Nonsocial2.png,stimuli/Social3.png,stimuli/Social4.png,stimuli/Nonsocial3.png,stimuli/Nonsocial4.png,,,"(-0.7, -0.5)",cs_neg_ns,"(-0.7, 0.5)",cs_pos_s_new,"(0.7, -0.5)",cs_neg_s,"(0.7, 0.5)",cs_pos_ns,0,0,0,0,,,,,,,,,,,,,,,,,,,,,,,,,,,,,0,5,5,34,0,0,0,0,,,,,,,,,,,,,,,435,reward,,,,,,1333.1782812001184,1333.1782812001184,1333.1782812001184,1333.1782812001184,0,,,0,,,0,,,1,0.5793845998123288,0.5793885998427868,1333.761583399959,1333.761583399959,1333.761583399959,1333.761583399959,10,A,2024-04-19_10h13.09.109,attentional_competition_task,2022.2.4,144.03638885232897,
positions.xlsx,positions_test.xlsx,positions_test_new.xlsx,stimuli.xlsx,stimuli_new.xlsx,stimuli/Social1.png,stimuli/Social2.png,stimuli/Nonsocial1.png,stimuli/Nonsocial2.png,stimuli/Social3.png,stimuli/Social4.png,stimuli/Nonsocial3.png,stimuli/Nonsocial4.png,,,"(-0.7, -0.5)",cs_neg_ns,"(-0.7, 0.5)",cs_pos_s_new,"(0.7, -0.5)",cs_neg_s,"(0.7, 0.5)",cs_pos_ns,0,0,0,0,,,,,,,,,,,,,,,,,,,,,,,,,,,,,0,5,5,34,1,0,1,0,,,,,,,,,,,,,,,438,reward,,,,,,1334.2962791002356,1334.2962791002356,1334.2962791002356,1334.2962791002356,0,,,1,0.03017099993303418,0.03017470007762313,0,,,0,,,1334.2962791002356,1334.2962791002356,1334.2962791002356,1334.2962791002356,10,A,2024-04-19_10h13.09.109,attentional_competition_task,2022.2.4,144.03638885232897,
positions.xlsx,positions_test.xlsx,positions_test_new.xlsx,stimuli.xlsx,stimuli_new.xlsx,stimuli/Social1.png,stimuli/Social2.png,stimuli/Nonsocial1.png,stimuli/Nonsocial2.png,stimuli/Social3.png,stimuli/Social4.png,stimuli/Nonsocial3.png,stimuli/Nonsocial4.png,,,"(-0.7, -0.5)",cs_neg_ns,"(-0.7, 0.5)",cs_pos_s_new,"(0.7, -0.5)",cs_neg_s,"(0.7, 0.5)",cs_pos_ns,0,0,0,0,,,,,,,,,,,,,,,,,,,,,,,,,,,,,0,5,5,34,2,0,2,0,,,,,,,,,,,,,,,441,reward,,,,,,1334.796313200146,1334.796313200146,1334.796313200146,1334.796313200146,0,,,0,,,0,,,0,,,1335.6920686000958,1335.6920686000958,1335.6920686000958,1335.6920686000958,10,A,2024-04-19_10h13.09.109,attentional_competition_task,2022.2.4,144.03638885232897,
positions.xlsx,positions_test.xlsx,positions_test_new.xlsx,stimuli.xlsx,stimuli_new.xlsx,stimuli/Social1.png,stimuli/Social2.png,stimuli/Nonsocial1.png,stimuli/Nonsocial2.png,stimuli/Social3.png,stimuli/Social4.png,stimuli/Nonsocial3.png,stimuli/Nonsocial4.png,,,"(-0.7, -0.5)",cs_neg_ns,"(-0.7, 0.5)",cs_pos_s_new,"(0.7, -0.5)",cs_neg_s,"(0.7, 0.5)",cs_pos_ns,0,0,0,0,,,,,,,,,,,,,,,,,,,,,,,,,,,,,0,5,5,34,,,,,,,,,,,,,,,,,,,,,,,,,,,,,,,,,,,,,,,,,,,,,,10,A,2024-04-19_10h13.09.109,attentional_competition_task,2022.2.4,144.03638885232897,
positions.xlsx,positions_test.xlsx,positions_test_new.xlsx,stimuli.xlsx,stimuli_new.xlsx,stimuli/Social1.png,stimuli/Social2.png,stimuli/Nonsocial1.png,stimuli/Nonsocial2.png,stimuli/Social3.png,stimuli/Social4.png,stimuli/Nonsocial3.png,stimuli/Nonsocial4.png,,,"(-0.7, -0.5)",cs_neg_s,"(-0.7, 0.5)",cs_pos_s,"(0.7, -0.5)",cs_neg_ns_new,"(0.7, 0.5)",cs_pos_ns,0,0,0,0,,,,,,,,,,,,,,,,,,,,,,,,,,,,,0,6,6,25,0,0,0,0,,,,,,,,,,,,,,,444,reward,,,,,,1342.3098909002729,1342.3098909002729,1342.3098909002729,1342.3098909002729,0,,,0,,,0,,,1,0.641928399913013,0.6419321000576019,1342.9556738999672,1342.9556738999672,1342.9556738999672,1342.9556738999672,10,A,2024-04-19_10h13.09.109,attentional_competition_task,2022.2.4,144.03638885232897,
positions.xlsx,positions_test.xlsx,positions_test_new.xlsx,stimuli.xlsx,stimuli_new.xlsx,stimuli/Social1.png,stimuli/Social2.png,stimuli/Nonsocial1.png,stimuli/Nonsocial2.png,stimuli/Social3.png,stimuli/Social4.png,stimuli/Nonsocial3.png,stimuli/Nonsocial4.png,,,"(-0.7, -0.5)",cs_neg_s,"(-0.7, 0.5)",cs_pos_s,"(0.7, -0.5)",cs_neg_ns_new,"(0.7, 0.5)",cs_pos_ns,0,0,0,0,,,,,,,,,,,,,,,,,,,,,,,,,,,,,0,6,6,25,1,0,1,0,,,,,,,,,,,,,,,441,loss,,,,,,1343.4903783998452,1343.4903783998452,1343.4903783998452,1343.4903783998452,0,,,0,,,1,0.03054449986666441,0.03054829966276884,0,,,1343.4903783998452,1343.4903783998452,1343.4903783998452,1343.4903783998452,10,A,2024-04-19_10h13.09.109,attentional_competition_task,2022.2.4,144.03638885232897,
positions.xlsx,positions_test.xlsx,positions_test_new.xlsx,stimuli.xlsx,stimuli_new.xlsx,stimuli/Social1.png,stimuli/Social2.png,stimuli/Nonsocial1.png,stimuli/Nonsocial2.png,stimuli/Social3.png,stimuli/Social4.png,stimuli/Nonsocial3.png,stimuli/Nonsocial4.png,,,"(-0.7, -0.5)",cs_neg_s,"(-0.7, 0.5)",cs_pos_s,"(0.7, -0.5)",cs_neg_ns_new,"(0.7, 0.5)",cs_pos_ns,0,0,0,0,,,,,,,,,,,,,,,,,,,,,,,,,,,,,0,6,6,25,2,0,2,0,,,,,,,,,,,,,,,438,loss,,,,,,1344.0250707999803,1344.0250707999803,1344.0250707999803,1344.0250707999803,1,0.02792479982599616,0.02792860008776188,0,,,0,,,0,,,1344.0250707999803,1344.0250707999803,1344.0250707999803,1344.0250707999803,10,A,2024-04-19_10h13.09.109,attentional_competition_task,2022.2.4,144.03638885232897,
positions.xlsx,positions_test.xlsx,positions_test_new.xlsx,stimuli.xlsx,stimuli_new.xlsx,stimuli/Social1.png,stimuli/Social2.png,stimuli/Nonsocial1.png,stimuli/Nonsocial2.png,stimuli/Social3.png,stimuli/Social4.png,stimuli/Nonsocial3.png,stimuli/Nonsocial4.png,,,"(-0.7, -0.5)",cs_neg_s,"(-0.7, 0.5)",cs_pos_s,"(0.7, -0.5)",cs_neg_ns_new,"(0.7, 0.5)",cs_pos_ns,0,0,0,0,,,,,,,,,,,,,,,,,,,,,,,,,,,,,0,6,6,25,,,,,,,,,,,,,,,,,,,,,,,,,,,,,,,,,,,,,,,,,,,,,,10,A,2024-04-19_10h13.09.109,attentional_competition_task,2022.2.4,144.03638885232897,
positions.xlsx,positions_test.xlsx,positions_test_new.xlsx,stimuli.xlsx,stimuli_new.xlsx,stimuli/Social1.png,stimuli/Social2.png,stimuli/Nonsocial1.png,stimuli/Nonsocial2.png,stimuli/Social3.png,stimuli/Social4.png,stimuli/Nonsocial3.png,stimuli/Nonsocial4.png,,,"(-0.7, -0.5)",cs_pos_ns,"(-0.7, 0.5)",cs_pos_s_new,"(0.7, -0.5)",cs_neg_s,"(0.7, 0.5)",cs_neg_ns,0,0,0,0,,,,,,,,,,,,,,,,,,,,,,,,,,,,,0,7,7,32,0,0,0,0,,,,,,,,,,,,,,,435,loss,,,,,,1350.351208299864,1350.351208299864,1350.351208299864,1350.351208299864,0,,,0,,,0,,,1,0.32180909998714924,0.3218127996660769,1350.6775743002072,1350.6775743002072,1350.6775743002072,1350.6775743002072,10,A,2024-04-19_10h13.09.109,attentional_competition_task,2022.2.4,144.03638885232897,
positions.xlsx,positions_test.xlsx,positions_test_new.xlsx,stimuli.xlsx,stimuli_new.xlsx,stimuli/Social1.png,stimuli/Social2.png,stimuli/Nonsocial1.png,stimuli/Nonsocial2.png,stimuli/Social3.png,stimuli/Social4.png,stimuli/Nonsocial3.png,stimuli/Nonsocial4.png,,,"(-0.7, -0.5)",cs_pos_ns,"(-0.7, 0.5)",cs_pos_s_new,"(0.7, -0.5)",cs_neg_s,"(0.7, 0.5)",cs_neg_ns,0,0,0,0,,,,,,,,,,,,,,,,,,,,,,,,,,,,,0,7,7,32,1,0,1,0,,,,,,,,,,,,,,,438,reward,,,,,,1351.2053554002196,1351.2053554002196,1351.2053554002196,1351.2053554002196,0,,,1,0.02354300022125244,0.023546400014311075,0,,,0,,,1351.2053554002196,1351.2053554002196,1351.2053554002196,1351.2053554002196,10,A,2024-04-19_10h13.09.109,attentional_competition_task,2022.2.4,144.03638885232897,
positions.xlsx,positions_test.xlsx,positions_test_new.xlsx,stimuli.xlsx,stimuli_new.xlsx,stimuli/Social1.png,stimuli/Social2.png,stimuli/Nonsocial1.png,stimuli/Nonsocial2.png,stimuli/Social3.png,stimuli/Social4.png,stimuli/Nonsocial3.png,stimuli/Nonsocial4.png,,,"(-0.7, -0.5)",cs_pos_ns,"(-0.7, 0.5)",cs_pos_s_new,"(0.7, -0.5)",cs_neg_s,"(0.7, 0.5)",cs_neg_ns,0,0,0,0,,,,,,,,,,,,,,,,,,,,,,,,,,,,,0,7,7,32,2,0,2,0,,,,,,,,,,,,,,,441,reward,,,,,,1351.7330984999426,1351.7330984999426,1351.7330984999426,1351.7330984999426,1,0.029723200015723705,0.029726600274443626,0,,,0,,,0,,,1351.7330984999426,1351.7330984999426,1351.7330984999426,1351.7330984999426,10,A,2024-04-19_10h13.09.109,attentional_competition_task,2022.2.4,144.03638885232897,
positions.xlsx,positions_test.xlsx,positions_test_new.xlsx,stimuli.xlsx,stimuli_new.xlsx,stimuli/Social1.png,stimuli/Social2.png,stimuli/Nonsocial1.png,stimuli/Nonsocial2.png,stimuli/Social3.png,stimuli/Social4.png,stimuli/Nonsocial3.png,stimuli/Nonsocial4.png,,,"(-0.7, -0.5)",cs_pos_ns,"(-0.7, 0.5)",cs_pos_s_new,"(0.7, -0.5)",cs_neg_s,"(0.7, 0.5)",cs_neg_ns,0,0,0,0,,,,,,,,,,,,,,,,,,,,,,,,,,,,,0,7,7,32,3,0,3,0,,,,,,,,,,,,,,,438,loss,,,,,,1352.2677923999727,1352.2677923999727,1352.2677923999727,1352.2677923999727,0,,,0,,,1,0.024029700085520744,0.02403340023010969,0,,,1352.2677923999727,1352.2677923999727,1352.2677923999727,1352.2677923999727,10,A,2024-04-19_10h13.09.109,attentional_competition_task,2022.2.4,144.03638885232897,
positions.xlsx,positions_test.xlsx,positions_test_new.xlsx,stimuli.xlsx,stimuli_new.xlsx,stimuli/Social1.png,stimuli/Social2.png,stimuli/Nonsocial1.png,stimuli/Nonsocial2.png,stimuli/Social3.png,stimuli/Social4.png,stimuli/Nonsocial3.png,stimuli/Nonsocial4.png,,,"(-0.7, -0.5)",cs_pos_ns,"(-0.7, 0.5)",cs_pos_s_new,"(0.7, -0.5)",cs_neg_s,"(0.7, 0.5)",cs_neg_ns,0,0,0,0,,,,,,,,,,,,,,,,,,,,,,,,,,,,,0,7,7,32,,,,,,,,,,,,,,,,,,,,,,,,,,,,,,,,,,,,,,,,,,,,,,10,A,2024-04-19_10h13.09.109,attentional_competition_task,2022.2.4,144.03638885232897,
positions.xlsx,positions_test.xlsx,positions_test_new.xlsx,stimuli.xlsx,stimuli_new.xlsx,stimuli/Social1.png,stimuli/Social2.png,stimuli/Nonsocial1.png,stimuli/Nonsocial2.png,stimuli/Social3.png,stimuli/Social4.png,stimuli/Nonsocial3.png,stimuli/Nonsocial4.png,,,"(-0.7, -0.5)",cs_pos_s,"(-0.7, 0.5)",cs_neg_ns,"(0.7, -0.5)",cs_pos_ns,"(0.7, 0.5)",cs_neg_s_new,0,0,0,0,,,,,,,,,,,,,,,,,,,,,,,,,,,,,0,8,8,9,0,0,0,0,,,,,,,,,,,,,,,441,reward,,,,,,1358.6772823999636,1358.6772823999636,1358.6772823999636,1358.6772823999636,0,,,0,,,1,1.328468699939549,1.3284724997356534,0,,,1360.010514699854,1360.010514699854,1360.010514699854,1360.010514699854,10,A,2024-04-19_10h13.09.109,attentional_competition_task,2022.2.4,144.03638885232897,
positions.xlsx,positions_test.xlsx,positions_test_new.xlsx,stimuli.xlsx,stimuli_new.xlsx,stimuli/Social1.png,stimuli/Social2.png,stimuli/Nonsocial1.png,stimuli/Nonsocial2.png,stimuli/Social3.png,stimuli/Social4.png,stimuli/Nonsocial3.png,stimuli/Nonsocial4.png,,,"(-0.7, -0.5)",cs_pos_s,"(-0.7, 0.5)",cs_neg_ns,"(0.7, -0.5)",cs_pos_ns,"(0.7, 0.5)",cs_neg_s_new,0,0,0,0,,,,,,,,,,,,,,,,,,,,,,,,,,,,,0,8,8,9,1,0,1,0,,,,,,,,,,,,,,,444,reward,,,,,,1360.5383490002714,1360.5383490002714,1360.5383490002714,1360.5383490002714,1,0.028177599888294935,0.028181399684399366,0,,,0,,,0,,,1360.5383490002714,1360.5383490002714,1360.5383490002714,1360.5383490002714,10,A,2024-04-19_10h13.09.109,attentional_competition_task,2022.2.4,144.03638885232897,
