posFile,posFileTest,posFileTestNew,stimFile,stimFileNew,cs_neg_s,cs_pos_s,cs_neg_ns,cs_pos_ns,cs_neg_s_new,cs_pos_s_new,cs_neg_ns_new,cs_pos_ns_new,stim,position,position1,stim1,position2,stim2,position3,stim3,position4,stim4,blocks.thisRepN,blocks.thisTrialN,blocks.thisN,blocks.thisIndex,ratingtrials1.thisRepN,ratingtrials1.thisTrialN,ratingtrials1.thisN,ratingtrials1.thisIndex,search_task_trials.thisRepN,search_task_trials.thisTrialN,search_task_trials.thisN,search_task_trials.thisIndex,learning_trials.thisRepN,learning_trials.thisTrialN,learning_trials.thisN,learning_trials.thisIndex,trials.thisRepN,trials.thisTrialN,trials.thisN,trials.thisIndex,ratingtrials2.thisRepN,ratingtrials2.thisTrialN,ratingtrials2.thisN,ratingtrials2.thisIndex,testtrials.thisRepN,testtrials.thisTrialN,testtrials.thisN,testtrials.thisIndex,loop_test.thisRepN,loop_test.thisTrialN,loop_test.thisN,loop_test.thisIndex,testtrials_novelty.thisRepN,testtrials_novelty.thisTrialN,testtrials_novelty.thisN,testtrials_novelty.thisIndex,loop_test_novelty.thisRepN,loop_test_novelty.thisTrialN,loop_test_novelty.thisN,loop_test_novelty.thisIndex,ratingtrials3.thisRepN,ratingtrials3.thisTrialN,ratingtrials3.thisN,ratingtrials3.thisIndex,textStart.started,textStartExp.started,imageRating.started,sliderStim.response,sliderStim.rt,textStartSearch.started,target_positions,distractor_positions,textStartTask.started,image.started,score,outcome,roi.numLooks,roi.timesOn,roi.timesOff,imageFeedback.started,textTestInstr.started,test_image1.started,test_image2.started,test_image3.started,test_image4.started,test_roi1.numLooks,test_roi1.timesOn,test_roi1.timesOff,test_roi2.numLooks,test_roi2.timesOn,test_roi2.timesOff,test_roi3.numLooks,test_roi3.timesOn,test_roi3.timesOff,test_roi4.numLooks,test_roi4.timesOn,test_roi4.timesOff,test_image_feedback1.started,test_image_feedback2.started,test_iamge_feedback3.started,test_iamge_feedback4.started,participant,group,date,expName,psychopyVersion,frameRate,
positions.xlsx,positions_test.xlsx,positions_test_new.xlsx,stimuli.xlsx,stimuli_new.xlsx,stimuli/Social4.png,stimuli/Social3.png,stimuli/Nonsocial4.png,stimuli/Nonsocial3.png,stimuli/Social2.png,stimuli/Social1.png,stimuli/Nonsocial2.png,stimuli/Nonsocial1.png,cs_neg_s,,,,,,,,,,0,0,0,0,0,0,0,0,,,,,,,,,,,,,,,,,,,,,,,,,,,,,,,,,,,,,11.898660900000323,186.04903420000028,201.78529789999993,7.0,67.19204979999995,,,,,,,,,,,,,,,,,,,,,,,,,,,,,,,,,28,D,2024-05-08_09h23.45.426,attentional_competition_task,2022.2.4,143.95904652885525,
positions.xlsx,positions_test.xlsx,positions_test_new.xlsx,stimuli.xlsx,stimuli_new.xlsx,stimuli/Social4.png,stimuli/Social3.png,stimuli/Nonsocial4.png,stimuli/Nonsocial3.png,stimuli/Social2.png,stimuli/Social1.png,stimuli/Nonsocial2.png,stimuli/Nonsocial1.png,cs_pos_ns,,,,,,,,,,0,0,0,0,0,1,1,3,,,,,,,,,,,,,,,,,,,,,,,,,,,,,,,,,,,,,,,272.56011339999986,7.0,5.6609140999999,,,,,,,,,,,,,,,,,,,,,,,,,,,,,,,,,28,D,2024-05-08_09h23.45.426,attentional_competition_task,2022.2.4,143.95904652885525,
positions.xlsx,positions_test.xlsx,positions_test_new.xlsx,stimuli.xlsx,stimuli_new.xlsx,stimuli/Social4.png,stimuli/Social3.png,stimuli/Nonsocial4.png,stimuli/Nonsocial3.png,stimuli/Social2.png,stimuli/Social1.png,stimuli/Nonsocial2.png,stimuli/Nonsocial1.png,cs_neg_ns,,,,,,,,,,0,0,0,0,0,2,2,1,,,,,,,,,,,,,,,,,,,,,,,,,,,,,,,,,,,,,,,278.8515417999997,8.0,3.14021589999993,,,,,,,,,,,,,,,,,,,,,,,,,,,,,,,,,28,D,2024-05-08_09h23.45.426,attentional_competition_task,2022.2.4,143.95904652885525,
positions.xlsx,positions_test.xlsx,positions_test_new.xlsx,stimuli.xlsx,stimuli_new.xlsx,stimuli/Social4.png,stimuli/Social3.png,stimuli/Nonsocial4.png,stimuli/Nonsocial3.png,stimuli/Social2.png,stimuli/Social1.png,stimuli/Nonsocial2.png,stimuli/Nonsocial1.png,cs_pos_s,,,,,,,,,,0,0,0,0,0,3,3,2,,,,,,,,,,,,,,,,,,,,,,,,,,,,,,,,,,,,,,,282.1847396000003,3.0,2.183080400000108,,,,,,,,,,,,,,,,,,,,,,,,,,,,,,,,,28,D,2024-05-08_09h23.45.426,attentional_competition_task,2022.2.4,143.95904652885525,
positions.xlsx,positions_test.xlsx,positions_test_new.xlsx,stimuli.xlsx,stimuli_new.xlsx,stimuli/Social4.png,stimuli/Social3.png,stimuli/Nonsocial4.png,stimuli/Nonsocial3.png,stimuli/Social2.png,stimuli/Social1.png,stimuli/Nonsocial2.png,stimuli/Nonsocial1.png,,,,,,,,,,,0,0,0,0,,,,,0,0,0,0,,,,,,,,,,,,,,,,,,,,,,,,,,,,,,,,,,,,,,285.20541109999976,"[[-0.675, 0.19999999999999996], [0.9, 0.19999999999999996], [0.45000000000000007, 0.7], [0.22499999999999998, 0.19999999999999996], [0.22499999999999998, -0.30000000000000004], [0.9, 0.7], [-0.45, 0.19999999999999996], [0.22499999999999998, 0.7], [-0.45, 0.7], [-0.675, -0.8], [0.45000000000000007, 0.19999999999999996], [0.0, -0.30000000000000004], [0.45000000000000007, -0.8], [-0.9, -0.30000000000000004], [0.6749999999999999, 0.19999999999999996]]","[[0.6749999999999999, 0.7], [-0.22499999999999998, 0.19999999999999996], [0.9, -0.8], [-0.22499999999999998, -0.30000000000000004], [-0.9, 0.19999999999999996], [0.45000000000000007, -0.30000000000000004], [0.0, 0.7], [-0.675, -0.30000000000000004], [0.0, -0.8], [-0.9, 0.7], [-0.675, 0.7], [-0.22499999999999998, 0.7], [0.22499999999999998, -0.8], [0.0, 0.19999999999999996], [0.9, -0.30000000000000004]]",,,,,,,,,,,,,,,,,,,,,,,,,,,,,,28,D,2024-05-08_09h23.45.426,attentional_competition_task,2022.2.4,143.95904652885525,
positions.xlsx,positions_test.xlsx,positions_test_new.xlsx,stimuli.xlsx,stimuli_new.xlsx,stimuli/Social4.png,stimuli/Social3.png,stimuli/Nonsocial4.png,stimuli/Nonsocial3.png,stimuli/Social2.png,stimuli/Social1.png,stimuli/Nonsocial2.png,stimuli/Nonsocial1.png,,,,,,,,,,,0,0,0,0,,,,,1,0,1,0,,,,,,,,,,,,,,,,,,,,,,,,,,,,,,,,,,,,,,,"[[0.45000000000000007, -0.8], [0.9, 0.19999999999999996], [0.6749999999999999, 0.7], [-0.45, -0.8], [0.9, 0.7], [-0.9, -0.30000000000000004], [0.9, -0.8], [0.0, -0.30000000000000004], [-0.9, 0.19999999999999996], [-0.675, 0.19999999999999996], [-0.9, -0.8], [0.22499999999999998, 0.7], [-0.45, 0.7], [0.6749999999999999, -0.30000000000000004], [0.6749999999999999, -0.8]]","[[-0.22499999999999998, -0.8], [-0.675, -0.30000000000000004], [0.45000000000000007, 0.7], [-0.675, 0.7], [0.9, -0.30000000000000004], [-0.45, -0.30000000000000004], [-0.9, 0.7], [0.0, 0.19999999999999996], [0.6749999999999999, 0.19999999999999996], [-0.45, 0.19999999999999996], [0.0, 0.7], [0.22499999999999998, -0.8], [0.22499999999999998, 0.19999999999999996], [-0.22499999999999998, 0.19999999999999996], [-0.675, -0.8]]",,,,,,,,,,,,,,,,,,,,,,,,,,,,,,28,D,2024-05-08_09h23.45.426,attentional_competition_task,2022.2.4,143.95904652885525,
positions.xlsx,positions_test.xlsx,positions_test_new.xlsx,stimuli.xlsx,stimuli_new.xlsx,stimuli/Social4.png,stimuli/Social3.png,stimuli/Nonsocial4.png,stimuli/Nonsocial3.png,stimuli/Social2.png,stimuli/Social1.png,stimuli/Nonsocial2.png,stimuli/Nonsocial1.png,cs_pos_s,"(0.7, -0.5)",,,,,,,,,0,0,0,0,,,,,,,,,0,0,0,7,,,,,,,,,,,,,,,,,,,,,,,,,,,,,,,,,,,,,379.39594320000015,410.42237600000044,3,reward,1,0.2433868000007351,0.24339080000027025,410.67939990000013,,,,,,,,,,,,,,,,,,,,,,28,D,2024-05-08_09h23.45.426,attentional_competition_task,2022.2.4,143.95904652885525,
positions.xlsx,positions_test.xlsx,positions_test_new.xlsx,stimuli.xlsx,stimuli_new.xlsx,stimuli/Social4.png,stimuli/Social3.png,stimuli/Nonsocial4.png,stimuli/Nonsocial3.png,stimuli/Social2.png,stimuli/Social1.png,stimuli/Nonsocial2.png,stimuli/Nonsocial1.png,cs_neg_ns,"(-0.7, -0.5)",,,,,,,,,0,0,0,0,,,,,,,,,0,1,1,9,,,,,,,,,,,,,,,,,,,,,,,,,,,,,,,,,,,,,,417.7137558000004,0,loss,1,0.3266321999999491,0.32663659999980155,418.05408830000033,,,,,,,,,,,,,,,,,,,,,,28,D,2024-05-08_09h23.45.426,attentional_competition_task,2022.2.4,143.95904652885525,
positions.xlsx,positions_test.xlsx,positions_test_new.xlsx,stimuli.xlsx,stimuli_new.xlsx,stimuli/Social4.png,stimuli/Social3.png,stimuli/Nonsocial4.png,stimuli/Nonsocial3.png,stimuli/Social2.png,stimuli/Social1.png,stimuli/Nonsocial2.png,stimuli/Nonsocial1.png,cs_neg_ns,"(0.7, -0.5)",,,,,,,,,0,0,0,0,,,,,,,,,0,2,2,11,,,,,,,,,,,,,,,,,,,,,,,,,,,,,,,,,,,,,,425.2273605999999,-3,loss,1,2.2777994999996736,2.277803799999674,427.5119940000004,,,,,,,,,,,,,,,,,,,,,,28,D,2024-05-08_09h23.45.426,attentional_competition_task,2022.2.4,143.95904652885525,
positions.xlsx,positions_test.xlsx,positions_test_new.xlsx,stimuli.xlsx,stimuli_new.xlsx,stimuli/Social4.png,stimuli/Social3.png,stimuli/Nonsocial4.png,stimuli/Nonsocial3.png,stimuli/Social2.png,stimuli/Social1.png,stimuli/Nonsocial2.png,stimuli/Nonsocial1.png,cs_neg_s,"(0.7, -0.5)",,,,,,,,,0,0,0,0,,,,,,,,,0,3,3,3,,,,,,,,,,,,,,,,,,,,,,,,,,,,,,,,,,,,,,434.71307760000036,-6,loss,1,0.5628059999999095,0.5628101000002061,435.2825407,,,,,,,,,,,,,,,,,,,,,,28,D,2024-05-08_09h23.45.426,attentional_competition_task,2022.2.4,143.95904652885525,
positions.xlsx,positions_test.xlsx,positions_test_new.xlsx,stimuli.xlsx,stimuli_new.xlsx,stimuli/Social4.png,stimuli/Social3.png,stimuli/Nonsocial4.png,stimuli/Nonsocial3.png,stimuli/Social2.png,stimuli/Social1.png,stimuli/Nonsocial2.png,stimuli/Nonsocial1.png,cs_pos_s,"(-0.7, 0.5)",,,,,,,,,0,0,0,0,,,,,,,,,0,4,4,4,,,,,,,,,,,,,,,,,,,,,,,,,,,,,,,,,,,,,,443.1641069999996,-3,reward,1,0.8612604999998439,0.8612646000001405,444.03213979999964,,,,,,,,,,,,,,,,,,,,,,28,D,2024-05-08_09h23.45.426,attentional_competition_task,2022.2.4,143.95904652885525,
positions.xlsx,positions_test.xlsx,positions_test_new.xlsx,stimuli.xlsx,stimuli_new.xlsx,stimuli/Social4.png,stimuli/Social3.png,stimuli/Nonsocial4.png,stimuli/Nonsocial3.png,stimuli/Social2.png,stimuli/Social1.png,stimuli/Nonsocial2.png,stimuli/Nonsocial1.png,cs_neg_s,"(0.7, 0.5)",,,,,,,,,0,0,0,0,,,,,,,,,0,5,5,2,,,,,,,,,,,,,,,,,,,,,,,,,,,,,,,,,,,,,,452.1012215999999,-3,none,0,,,455.1149882999998,,,,,,,,,,,,,,,,,,,,,,28,D,2024-05-08_09h23.45.426,attentional_competition_task,2022.2.4,143.95904652885525,
positions.xlsx,positions_test.xlsx,positions_test_new.xlsx,stimuli.xlsx,stimuli_new.xlsx,stimuli/Social4.png,stimuli/Social3.png,stimuli/Nonsocial4.png,stimuli/Nonsocial3.png,stimuli/Social2.png,stimuli/Social1.png,stimuli/Nonsocial2.png,stimuli/Nonsocial1.png,cs_pos_ns,"(0.7, -0.5)",,,,,,,,,0,0,0,0,,,,,,,,,0,6,6,15,,,,,,,,,,,,,,,,,,,,,,,,,,,,,,,,,,,,,,462.2952406000004,-3,none,0,,,465.30899789999967,,,,,,,,,,,,,,,,,,,,,,28,D,2024-05-08_09h23.45.426,attentional_competition_task,2022.2.4,143.95904652885525,
positions.xlsx,positions_test.xlsx,positions_test_new.xlsx,stimuli.xlsx,stimuli_new.xlsx,stimuli/Social4.png,stimuli/Social3.png,stimuli/Nonsocial4.png,stimuli/Nonsocial3.png,stimuli/Social2.png,stimuli/Social1.png,stimuli/Nonsocial2.png,stimuli/Nonsocial1.png,cs_pos_s,"(-0.7, -0.5)",,,,,,,,,0,0,0,0,,,,,,,,,0,7,7,5,,,,,,,,,,,,,,,,,,,,,,,,,,,,,,,,,,,,,,473.26007649999974,0,reward,1,0.4027181000001292,0.40272270000059507,473.6698274999999,,,,,,,,,,,,,,,,,,,,,,28,D,2024-05-08_09h23.45.426,attentional_competition_task,2022.2.4,143.95904652885525,
positions.xlsx,positions_test.xlsx,positions_test_new.xlsx,stimuli.xlsx,stimuli_new.xlsx,stimuli/Social4.png,stimuli/Social3.png,stimuli/Nonsocial4.png,stimuli/Nonsocial3.png,stimuli/Social2.png,stimuli/Social1.png,stimuli/Nonsocial2.png,stimuli/Nonsocial1.png,cs_pos_ns,"(-0.7, -0.5)",,,,,,,,,0,0,0,0,,,,,,,,,0,8,8,13,,,,,,,,,,,,,,,,,,,,,,,,,,,,,,,,,,,,,,481.13477220000004,0,none,0,,,484.1485376999999,,,,,,,,,,,,,,,,,,,,,,28,D,2024-05-08_09h23.45.426,attentional_competition_task,2022.2.4,143.95904652885525,
positions.xlsx,positions_test.xlsx,positions_test_new.xlsx,stimuli.xlsx,stimuli_new.xlsx,stimuli/Social4.png,stimuli/Social3.png,stimuli/Nonsocial4.png,stimuli/Nonsocial3.png,stimuli/Social2.png,stimuli/Social1.png,stimuli/Nonsocial2.png,stimuli/Nonsocial1.png,cs_pos_ns,"(0.7, 0.5)",,,,,,,,,0,0,0,0,,,,,,,,,0,9,9,14,,,,,,,,,,,,,,,,,,,,,,,,,,,,,,,,,,,,,,491.91908650000005,0,none,0,,,494.9259025000001,,,,,,,,,,,,,,,,,,,,,,28,D,2024-05-08_09h23.45.426,attentional_competition_task,2022.2.4,143.95904652885525,
positions.xlsx,positions_test.xlsx,positions_test_new.xlsx,stimuli.xlsx,stimuli_new.xlsx,stimuli/Social4.png,stimuli/Social3.png,stimuli/Nonsocial4.png,stimuli/Nonsocial3.png,stimuli/Social2.png,stimuli/Social1.png,stimuli/Nonsocial2.png,stimuli/Nonsocial1.png,cs_pos_s,"(0.7, 0.5)",,,,,,,,,0,0,0,0,,,,,,,,,0,10,10,6,,,,,,,,,,,,,,,,,,,,,,,,,,,,,,,,,,,,,,502.62694100000044,3,reward,1,0.7433561999996527,0.743374099999528,503.3769156999997,,,,,,,,,,,,,,,,,,,,,,28,D,2024-05-08_09h23.45.426,attentional_competition_task,2022.2.4,143.95904652885525,
positions.xlsx,positions_test.xlsx,positions_test_new.xlsx,stimuli.xlsx,stimuli_new.xlsx,stimuli/Social4.png,stimuli/Social3.png,stimuli/Nonsocial4.png,stimuli/Nonsocial3.png,stimuli/Social2.png,stimuli/Social1.png,stimuli/Nonsocial2.png,stimuli/Nonsocial1.png,cs_neg_s,"(-0.7, -0.5)",,,,,,,,,0,0,0,0,,,,,,,,,0,11,11,1,,,,,,,,,,,,,,,,,,,,,,,,,,,,,,,,,,,,,,510.75158329999977,3,none,0,,,513.7654197000002,,,,,,,,,,,,,,,,,,,,,,28,D,2024-05-08_09h23.45.426,attentional_competition_task,2022.2.4,143.95904652885525,
positions.xlsx,positions_test.xlsx,positions_test_new.xlsx,stimuli.xlsx,stimuli_new.xlsx,stimuli/Social4.png,stimuli/Social3.png,stimuli/Nonsocial4.png,stimuli/Nonsocial3.png,stimuli/Social2.png,stimuli/Social1.png,stimuli/Nonsocial2.png,stimuli/Nonsocial1.png,cs_pos_ns,"(-0.7, 0.5)",,,,,,,,,0,0,0,0,,,,,,,,,0,12,12,12,,,,,,,,,,,,,,,,,,,,,,,,,,,,,,,,,,,,,,521.9038908000002,3,none,0,,,524.9176843000005,,,,,,,,,,,,,,,,,,,,,,28,D,2024-05-08_09h23.45.426,attentional_competition_task,2022.2.4,143.95904652885525,
positions.xlsx,positions_test.xlsx,positions_test_new.xlsx,stimuli.xlsx,stimuli_new.xlsx,stimuli/Social4.png,stimuli/Social3.png,stimuli/Nonsocial4.png,stimuli/Nonsocial3.png,stimuli/Social2.png,stimuli/Social1.png,stimuli/Nonsocial2.png,stimuli/Nonsocial1.png,cs_neg_s,"(-0.7, 0.5)",,,,,,,,,0,0,0,0,,,,,,,,,0,13,13,0,,,,,,,,,,,,,,,,,,,,,,,,,,,,,,,,,,,,,,531.9174186999999,3,none,0,,,534.9242154000003,,,,,,,,,,,,,,,,,,,,,,28,D,2024-05-08_09h23.45.426,attentional_competition_task,2022.2.4,143.95904652885525,
positions.xlsx,positions_test.xlsx,positions_test_new.xlsx,stimuli.xlsx,stimuli_new.xlsx,stimuli/Social4.png,stimuli/Social3.png,stimuli/Nonsocial4.png,stimuli/Nonsocial3.png,stimuli/Social2.png,stimuli/Social1.png,stimuli/Nonsocial2.png,stimuli/Nonsocial1.png,cs_neg_ns,"(0.7, 0.5)",,,,,,,,,0,0,0,0,,,,,,,,,0,14,14,10,,,,,,,,,,,,,,,,,,,,,,,,,,,,,,,,,,,,,,542.2433492999999,3,none,0,,,545.2501433999996,,,,,,,,,,,,,,,,,,,,,,28,D,2024-05-08_09h23.45.426,attentional_competition_task,2022.2.4,143.95904652885525,
positions.xlsx,positions_test.xlsx,positions_test_new.xlsx,stimuli.xlsx,stimuli_new.xlsx,stimuli/Social4.png,stimuli/Social3.png,stimuli/Nonsocial4.png,stimuli/Nonsocial3.png,stimuli/Social2.png,stimuli/Social1.png,stimuli/Nonsocial2.png,stimuli/Nonsocial1.png,cs_neg_ns,"(-0.7, 0.5)",,,,,,,,,0,0,0,0,,,,,,,,,0,15,15,8,,,,,,,,,,,,,,,,,,,,,,,,,,,,,,,,,,,,,,552.8262168000001,3,none,0,,,555.8399801000005,,,,,,,,,,,,,,,,,,,,,,28,D,2024-05-08_09h23.45.426,attentional_competition_task,2022.2.4,143.95904652885525,
positions.xlsx,positions_test.xlsx,positions_test_new.xlsx,stimuli.xlsx,stimuli_new.xlsx,stimuli/Social4.png,stimuli/Social3.png,stimuli/Nonsocial4.png,stimuli/Nonsocial3.png,stimuli/Social2.png,stimuli/Social1.png,stimuli/Nonsocial2.png,stimuli/Nonsocial1.png,cs_neg_ns,"(-0.7, -0.5)",,,,,,,,,0,0,0,0,,,,,,,,,1,0,16,9,,,,,,,,,,,,,,,,,,,,,,,,,,,,,,,,,,,,,,563.7355198000005,3,none,0,,,566.7492776999998,,,,,,,,,,,,,,,,,,,,,,28,D,2024-05-08_09h23.45.426,attentional_competition_task,2022.2.4,143.95904652885525,
positions.xlsx,positions_test.xlsx,positions_test_new.xlsx,stimuli.xlsx,stimuli_new.xlsx,stimuli/Social4.png,stimuli/Social3.png,stimuli/Nonsocial4.png,stimuli/Nonsocial3.png,stimuli/Social2.png,stimuli/Social1.png,stimuli/Nonsocial2.png,stimuli/Nonsocial1.png,cs_pos_ns,"(-0.7, 0.5)",,,,,,,,,0,0,0,0,,,,,,,,,1,1,17,12,,,,,,,,,,,,,,,,,,,,,,,,,,,,,,,,,,,,,,574.9572975000001,6,reward,1,0.17373780000070838,0.17374190000009548,575.1378138,,,,,,,,,,,,,,,,,,,,,,28,D,2024-05-08_09h23.45.426,attentional_competition_task,2022.2.4,143.95904652885525,
positions.xlsx,positions_test.xlsx,positions_test_new.xlsx,stimuli.xlsx,stimuli_new.xlsx,stimuli/Social4.png,stimuli/Social3.png,stimuli/Nonsocial4.png,stimuli/Nonsocial3.png,stimuli/Social2.png,stimuli/Social1.png,stimuli/Nonsocial2.png,stimuli/Nonsocial1.png,cs_neg_s,"(0.7, 0.5)",,,,,,,,,0,0,0,0,,,,,,,,,1,2,18,2,,,,,,,,,,,,,,,,,,,,,,,,,,,,,,,,,,,,,,582.1028351000004,3,loss,1,0.6948684999997568,0.6948729999994612,582.8041841000004,,,,,,,,,,,,,,,,,,,,,,28,D,2024-05-08_09h23.45.426,attentional_competition_task,2022.2.4,143.95904652885525,
positions.xlsx,positions_test.xlsx,positions_test_new.xlsx,stimuli.xlsx,stimuli_new.xlsx,stimuli/Social4.png,stimuli/Social3.png,stimuli/Nonsocial4.png,stimuli/Nonsocial3.png,stimuli/Social2.png,stimuli/Social1.png,stimuli/Nonsocial2.png,stimuli/Nonsocial1.png,cs_pos_s,"(0.7, -0.5)",,,,,,,,,0,0,0,0,,,,,,,,,1,3,19,7,,,,,,,,,,,,,,,,,,,,,,,,,,,,,,,,,,,,,,590.4635648000003,6,reward,1,0.16756429999986722,0.17403839999951742,590.6441493000002,,,,,,,,,,,,,,,,,,,,,,28,D,2024-05-08_09h23.45.426,attentional_competition_task,2022.2.4,143.95904652885525,
positions.xlsx,positions_test.xlsx,positions_test_new.xlsx,stimuli.xlsx,stimuli_new.xlsx,stimuli/Social4.png,stimuli/Social3.png,stimuli/Nonsocial4.png,stimuli/Nonsocial3.png,stimuli/Social2.png,stimuli/Social1.png,stimuli/Nonsocial2.png,stimuli/Nonsocial1.png,cs_pos_ns,"(0.7, 0.5)",,,,,,,,,0,0,0,0,,,,,,,,,1,4,20,14,,,,,,,,,,,,,,,,,,,,,,,,,,,,,,,,,,,,,,598.1091316000002,9,reward,1,0.6179451000007248,0.617949000000408,598.7340811000004,,,,,,,,,,,,,,,,,,,,,,28,D,2024-05-08_09h23.45.426,attentional_competition_task,2022.2.4,143.95904652885525,
positions.xlsx,positions_test.xlsx,positions_test_new.xlsx,stimuli.xlsx,stimuli_new.xlsx,stimuli/Social4.png,stimuli/Social3.png,stimuli/Nonsocial4.png,stimuli/Nonsocial3.png,stimuli/Social2.png,stimuli/Social1.png,stimuli/Nonsocial2.png,stimuli/Nonsocial1.png,cs_neg_s,"(-0.7, -0.5)",,,,,,,,,0,0,0,0,,,,,,,,,1,5,21,1,,,,,,,,,,,,,,,,,,,,,,,,,,,,,,,,,,,,,,605.9212851000002,9,none,0,,,608.9350371999999,,,,,,,,,,,,,,,,,,,,,,28,D,2024-05-08_09h23.45.426,attentional_competition_task,2022.2.4,143.95904652885525,
positions.xlsx,positions_test.xlsx,positions_test_new.xlsx,stimuli.xlsx,stimuli_new.xlsx,stimuli/Social4.png,stimuli/Social3.png,stimuli/Nonsocial4.png,stimuli/Nonsocial3.png,stimuli/Social2.png,stimuli/Social1.png,stimuli/Nonsocial2.png,stimuli/Nonsocial1.png,cs_neg_s,"(-0.7, 0.5)",,,,,,,,,0,0,0,0,,,,,,,,,1,6,22,0,,,,,,,,,,,,,,,,,,,,,,,,,,,,,,,,,,,,,,616.7194270999998,6,loss,1,1.319630099999813,1.3196344999996654,618.0457698999999,,,,,,,,,,,,,,,,,,,,,,28,D,2024-05-08_09h23.45.426,attentional_competition_task,2022.2.4,143.95904652885525,
positions.xlsx,positions_test.xlsx,positions_test_new.xlsx,stimuli.xlsx,stimuli_new.xlsx,stimuli/Social4.png,stimuli/Social3.png,stimuli/Nonsocial4.png,stimuli/Nonsocial3.png,stimuli/Social2.png,stimuli/Social1.png,stimuli/Nonsocial2.png,stimuli/Nonsocial1.png,cs_pos_ns,"(0.7, -0.5)",,,,,,,,,0,0,0,0,,,,,,,,,1,7,23,15,,,,,,,,,,,,,,,,,,,,,,,,,,,,,,,,,,,,,,625.6496588999998,9,reward,1,0.5348438000000897,0.5348481000000902,626.1912552000003,,,,,,,,,,,,,,,,,,,,,,28,D,2024-05-08_09h23.45.426,attentional_competition_task,2022.2.4,143.95904652885525,
positions.xlsx,positions_test.xlsx,positions_test_new.xlsx,stimuli.xlsx,stimuli_new.xlsx,stimuli/Social4.png,stimuli/Social3.png,stimuli/Nonsocial4.png,stimuli/Nonsocial3.png,stimuli/Social2.png,stimuli/Social1.png,stimuli/Nonsocial2.png,stimuli/Nonsocial1.png,cs_pos_s,"(-0.7, 0.5)",,,,,,,,,0,0,0,0,,,,,,,,,1,8,24,4,,,,,,,,,,,,,,,,,,,,,,,,,,,,,,,,,,,,,,632.9895796000001,12,reward,1,1.1875429000001532,1.1875472000001537,634.1840052999996,,,,,,,,,,,,,,,,,,,,,,28,D,2024-05-08_09h23.45.426,attentional_competition_task,2022.2.4,143.95904652885525,
positions.xlsx,positions_test.xlsx,positions_test_new.xlsx,stimuli.xlsx,stimuli_new.xlsx,stimuli/Social4.png,stimuli/Social3.png,stimuli/Nonsocial4.png,stimuli/Nonsocial3.png,stimuli/Social2.png,stimuli/Social1.png,stimuli/Nonsocial2.png,stimuli/Nonsocial1.png,cs_pos_s,"(0.7, 0.5)",,,,,,,,,0,0,0,0,,,,,,,,,1,9,25,6,,,,,,,,,,,,,,,,,,,,,,,,,,,,,,,,,,,,,,641.7809040000002,15,reward,1,0.6675528000005215,0.667557300000226,642.4544961000001,,,,,,,,,,,,,,,,,,,,,,28,D,2024-05-08_09h23.45.426,attentional_competition_task,2022.2.4,143.95904652885525,
positions.xlsx,positions_test.xlsx,positions_test_new.xlsx,stimuli.xlsx,stimuli_new.xlsx,stimuli/Social4.png,stimuli/Social3.png,stimuli/Nonsocial4.png,stimuli/Nonsocial3.png,stimuli/Social2.png,stimuli/Social1.png,stimuli/Nonsocial2.png,stimuli/Nonsocial1.png,cs_pos_s,"(-0.7, -0.5)",,,,,,,,,0,0,0,0,,,,,,,,,1,10,26,5,,,,,,,,,,,,,,,,,,,,,,,,,,,,,,,,,,,,,,649.6972267000001,18,reward,1,0.8057018999998036,0.8057061999998041,650.5097456000003,,,,,,,,,,,,,,,,,,,,,,28,D,2024-05-08_09h23.45.426,attentional_competition_task,2022.2.4,143.95904652885525,
positions.xlsx,positions_test.xlsx,positions_test_new.xlsx,stimuli.xlsx,stimuli_new.xlsx,stimuli/Social4.png,stimuli/Social3.png,stimuli/Nonsocial4.png,stimuli/Nonsocial3.png,stimuli/Social2.png,stimuli/Social1.png,stimuli/Nonsocial2.png,stimuli/Nonsocial1.png,cs_neg_ns,"(0.7, -0.5)",,,,,,,,,0,0,0,0,,,,,,,,,1,11,27,11,,,,,,,,,,,,,,,,,,,,,,,,,,,,,,,,,,,,,,658.0232795000002,15,loss,1,0.8752616000001581,0.8752660000000105,658.9051975000002,,,,,,,,,,,,,,,,,,,,,,28,D,2024-05-08_09h23.45.426,attentional_competition_task,2022.2.4,143.95904652885525,
positions.xlsx,positions_test.xlsx,positions_test_new.xlsx,stimuli.xlsx,stimuli_new.xlsx,stimuli/Social4.png,stimuli/Social3.png,stimuli/Nonsocial4.png,stimuli/Nonsocial3.png,stimuli/Social2.png,stimuli/Social1.png,stimuli/Nonsocial2.png,stimuli/Nonsocial1.png,cs_neg_ns,"(0.7, 0.5)",,,,,,,,,0,0,0,0,,,,,,,,,1,12,28,10,,,,,,,,,,,,,,,,,,,,,,,,,,,,,,,,,,,,,,666.3146242000003,12,loss,1,1.1390077000005476,1.1390117999999347,667.4603960000004,,,,,,,,,,,,,,,,,,,,,,28,D,2024-05-08_09h23.45.426,attentional_competition_task,2022.2.4,143.95904652885525,
positions.xlsx,positions_test.xlsx,positions_test_new.xlsx,stimuli.xlsx,stimuli_new.xlsx,stimuli/Social4.png,stimuli/Social3.png,stimuli/Nonsocial4.png,stimuli/Nonsocial3.png,stimuli/Social2.png,stimuli/Social1.png,stimuli/Nonsocial2.png,stimuli/Nonsocial1.png,cs_neg_ns,"(-0.7, 0.5)",,,,,,,,,0,0,0,0,,,,,,,,,1,13,29,8,,,,,,,,,,,,,,,,,,,,,,,,,,,,,,,,,,,,,,675.0086970000002,9,loss,1,1.39611960000002,1.3961237000003166,676.4114144000005,,,,,,,,,,,,,,,,,,,,,,28,D,2024-05-08_09h23.45.426,attentional_competition_task,2022.2.4,143.95904652885525,
positions.xlsx,positions_test.xlsx,positions_test_new.xlsx,stimuli.xlsx,stimuli_new.xlsx,stimuli/Social4.png,stimuli/Social3.png,stimuli/Nonsocial4.png,stimuli/Nonsocial3.png,stimuli/Social2.png,stimuli/Social1.png,stimuli/Nonsocial2.png,stimuli/Nonsocial1.png,cs_pos_ns,"(-0.7, -0.5)",,,,,,,,,0,0,0,0,,,,,,,,,1,14,30,13,,,,,,,,,,,,,,,,,,,,,,,,,,,,,,,,,,,,,,684.1750031000001,12,reward,1,2.0627035999996224,2.062708099999327,686.2443878000004,,,,,,,,,,,,,,,,,,,,,,28,D,2024-05-08_09h23.45.426,attentional_competition_task,2022.2.4,143.95904652885525,
positions.xlsx,positions_test.xlsx,positions_test_new.xlsx,stimuli.xlsx,stimuli_new.xlsx,stimuli/Social4.png,stimuli/Social3.png,stimuli/Nonsocial4.png,stimuli/Nonsocial3.png,stimuli/Social2.png,stimuli/Social1.png,stimuli/Nonsocial2.png,stimuli/Nonsocial1.png,cs_neg_s,"(0.7, -0.5)",,,,,,,,,0,0,0,0,,,,,,,,,1,15,31,3,,,,,,,,,,,,,,,,,,,,,,,,,,,,,,,,,,,,,,693.7787286000002,12,none,0,,,696.7925498000004,,,,,,,,,,,,,,,,,,,,,,28,D,2024-05-08_09h23.45.426,attentional_competition_task,2022.2.4,143.95904652885525,
positions.xlsx,positions_test.xlsx,positions_test_new.xlsx,stimuli.xlsx,stimuli_new.xlsx,stimuli/Social4.png,stimuli/Social3.png,stimuli/Nonsocial4.png,stimuli/Nonsocial3.png,stimuli/Social2.png,stimuli/Social1.png,stimuli/Nonsocial2.png,stimuli/Nonsocial1.png,cs_pos_s,"(-0.7, -0.5)",,,,,,,,,0,0,0,0,,,,,,,,,,,,,0,0,0,5,,,,,,,,,,,,,,,,,,,,,,,,,,,,,,,,,,728.6314903000002,15,reward,1,0.6046423999996478,0.6046465999997963,729.2495447000001,,,,,,,,,,,,,,,,,,,,,,28,D,2024-05-08_09h23.45.426,attentional_competition_task,2022.2.4,143.95904652885525,
positions.xlsx,positions_test.xlsx,positions_test_new.xlsx,stimuli.xlsx,stimuli_new.xlsx,stimuli/Social4.png,stimuli/Social3.png,stimuli/Nonsocial4.png,stimuli/Nonsocial3.png,stimuli/Social2.png,stimuli/Social1.png,stimuli/Nonsocial2.png,stimuli/Nonsocial1.png,cs_pos_s,"(0.7, -0.5)",,,,,,,,,0,0,0,0,,,,,,,,,,,,,0,1,1,7,,,,,,,,,,,,,,,,,,,,,,,,,,,,,,,,,,737.5200378999998,18,reward,1,0.7988783000000694,0.7988828999996258,738.3255167999996,,,,,,,,,,,,,,,,,,,,,,28,D,2024-05-08_09h23.45.426,attentional_competition_task,2022.2.4,143.95904652885525,
positions.xlsx,positions_test.xlsx,positions_test_new.xlsx,stimuli.xlsx,stimuli_new.xlsx,stimuli/Social4.png,stimuli/Social3.png,stimuli/Nonsocial4.png,stimuli/Nonsocial3.png,stimuli/Social2.png,stimuli/Social1.png,stimuli/Nonsocial2.png,stimuli/Nonsocial1.png,cs_pos_ns,"(0.7, -0.5)",,,,,,,,,0,0,0,0,,,,,,,,,,,,,0,2,2,15,,,,,,,,,,,,,,,,,,,,,,,,,,,,,,,,,,746.1724532999997,18,none,0,,,749.1862091000003,,,,,,,,,,,,,,,,,,,,,,28,D,2024-05-08_09h23.45.426,attentional_competition_task,2022.2.4,143.95904652885525,
positions.xlsx,positions_test.xlsx,positions_test_new.xlsx,stimuli.xlsx,stimuli_new.xlsx,stimuli/Social4.png,stimuli/Social3.png,stimuli/Nonsocial4.png,stimuli/Nonsocial3.png,stimuli/Social2.png,stimuli/Social1.png,stimuli/Nonsocial2.png,stimuli/Nonsocial1.png,cs_neg_s,"(0.7, -0.5)",,,,,,,,,0,0,0,0,,,,,,,,,,,,,0,3,3,3,,,,,,,,,,,,,,,,,,,,,,,,,,,,,,,,,,757.0400202999999,18,none,0,,,760.0468606000004,,,,,,,,,,,,,,,,,,,,,,28,D,2024-05-08_09h23.45.426,attentional_competition_task,2022.2.4,143.95904652885525,
positions.xlsx,positions_test.xlsx,positions_test_new.xlsx,stimuli.xlsx,stimuli_new.xlsx,stimuli/Social4.png,stimuli/Social3.png,stimuli/Nonsocial4.png,stimuli/Nonsocial3.png,stimuli/Social2.png,stimuli/Social1.png,stimuli/Nonsocial2.png,stimuli/Nonsocial1.png,cs_pos_s,"(-0.7, 0.5)",,,,,,,,,0,0,0,0,,,,,,,,,,,,,0,4,4,4,,,,,,,,,,,,,,,,,,,,,,,,,,,,,,,,,,766.6508196000004,21,reward,1,0.6529601000002003,0.6529642999994394,767.3104635999998,,,,,,,,,,,,,,,,,,,,,,28,D,2024-05-08_09h23.45.426,attentional_competition_task,2022.2.4,143.95904652885525,
positions.xlsx,positions_test.xlsx,positions_test_new.xlsx,stimuli.xlsx,stimuli_new.xlsx,stimuli/Social4.png,stimuli/Social3.png,stimuli/Nonsocial4.png,stimuli/Nonsocial3.png,stimuli/Social2.png,stimuli/Social1.png,stimuli/Nonsocial2.png,stimuli/Nonsocial1.png,cs_neg_ns,"(0.7, 0.5)",,,,,,,,,0,0,0,0,,,,,,,,,,,,,0,5,5,10,,,,,,,,,,,,,,,,,,,,,,,,,,,,,,,,,,775.1711905000002,18,loss,1,1.0069512000000032,1.0069552000004478,776.1850936000001,,,,,,,,,,,,,,,,,,,,,,28,D,2024-05-08_09h23.45.426,attentional_competition_task,2022.2.4,143.95904652885525,
positions.xlsx,positions_test.xlsx,positions_test_new.xlsx,stimuli.xlsx,stimuli_new.xlsx,stimuli/Social4.png,stimuli/Social3.png,stimuli/Nonsocial4.png,stimuli/Nonsocial3.png,stimuli/Social2.png,stimuli/Social1.png,stimuli/Nonsocial2.png,stimuli/Nonsocial1.png,cs_pos_ns,"(-0.7, 0.5)",,,,,,,,,0,0,0,0,,,,,,,,,,,,,0,6,6,12,,,,,,,,,,,,,,,,,,,,,,,,,,,,,,,,,,783.8028374000005,21,reward,1,0.5208560999999463,0.5208603999999468,784.3305909000001,,,,,,,,,,,,,,,,,,,,,,28,D,2024-05-08_09h23.45.426,attentional_competition_task,2022.2.4,143.95904652885525,
positions.xlsx,positions_test.xlsx,positions_test_new.xlsx,stimuli.xlsx,stimuli_new.xlsx,stimuli/Social4.png,stimuli/Social3.png,stimuli/Nonsocial4.png,stimuli/Nonsocial3.png,stimuli/Social2.png,stimuli/Social1.png,stimuli/Nonsocial2.png,stimuli/Nonsocial1.png,cs_pos_ns,"(0.7, 0.5)",,,,,,,,,0,0,0,0,,,,,,,,,,,,,0,7,7,14,,,,,,,,,,,,,,,,,,,,,,,,,,,,,,,,,,791.8025006999997,24,reward,1,1.708835999999792,1.7088403999996444,793.5246201999998,,,,,,,,,,,,,,,,,,,,,,28,D,2024-05-08_09h23.45.426,attentional_competition_task,2022.2.4,143.95904652885525,
positions.xlsx,positions_test.xlsx,positions_test_new.xlsx,stimuli.xlsx,stimuli_new.xlsx,stimuli/Social4.png,stimuli/Social3.png,stimuli/Nonsocial4.png,stimuli/Nonsocial3.png,stimuli/Social2.png,stimuli/Social1.png,stimuli/Nonsocial2.png,stimuli/Nonsocial1.png,cs_neg_s,"(0.7, 0.5)",,,,,,,,,0,0,0,0,,,,,,,,,,,,,0,8,8,2,,,,,,,,,,,,,,,,,,,,,,,,,,,,,,,,,,800.5799356999996,24,none,0,,,803.5936650000003,,,,,,,,,,,,,,,,,,,,,,28,D,2024-05-08_09h23.45.426,attentional_competition_task,2022.2.4,143.95904652885525,
positions.xlsx,positions_test.xlsx,positions_test_new.xlsx,stimuli.xlsx,stimuli_new.xlsx,stimuli/Social4.png,stimuli/Social3.png,stimuli/Nonsocial4.png,stimuli/Nonsocial3.png,stimuli/Social2.png,stimuli/Social1.png,stimuli/Nonsocial2.png,stimuli/Nonsocial1.png,cs_neg_ns,"(-0.7, 0.5)",,,,,,,,,0,0,0,0,,,,,,,,,,,,,0,9,9,8,,,,,,,,,,,,,,,,,,,,,,,,,,,,,,,,,,811.3363910999997,24,none,0,,,814.3432468000001,,,,,,,,,,,,,,,,,,,,,,28,D,2024-05-08_09h23.45.426,attentional_competition_task,2022.2.4,143.95904652885525,
positions.xlsx,positions_test.xlsx,positions_test_new.xlsx,stimuli.xlsx,stimuli_new.xlsx,stimuli/Social4.png,stimuli/Social3.png,stimuli/Nonsocial4.png,stimuli/Nonsocial3.png,stimuli/Social2.png,stimuli/Social1.png,stimuli/Nonsocial2.png,stimuli/Nonsocial1.png,cs_pos_s,"(0.7, 0.5)",,,,,,,,,0,0,0,0,,,,,,,,,,,,,0,10,10,6,,,,,,,,,,,,,,,,,,,,,,,,,,,,,,,,,,821.6832322,27,reward,1,0.8196416999999201,0.8196457000003647,822.5095675000002,,,,,,,,,,,,,,,,,,,,,,28,D,2024-05-08_09h23.45.426,attentional_competition_task,2022.2.4,143.95904652885525,
positions.xlsx,positions_test.xlsx,positions_test_new.xlsx,stimuli.xlsx,stimuli_new.xlsx,stimuli/Social4.png,stimuli/Social3.png,stimuli/Nonsocial4.png,stimuli/Nonsocial3.png,stimuli/Social2.png,stimuli/Social1.png,stimuli/Nonsocial2.png,stimuli/Nonsocial1.png,cs_neg_ns,"(0.7, -0.5)",,,,,,,,,0,0,0,0,,,,,,,,,,,,,0,11,11,11,,,,,,,,,,,,,,,,,,,,,,,,,,,,,,,,,,829.8495190000003,27,none,0,,,832.8632961000003,,,,,,,,,,,,,,,,,,,,,,28,D,2024-05-08_09h23.45.426,attentional_competition_task,2022.2.4,143.95904652885525,
positions.xlsx,positions_test.xlsx,positions_test_new.xlsx,stimuli.xlsx,stimuli_new.xlsx,stimuli/Social4.png,stimuli/Social3.png,stimuli/Nonsocial4.png,stimuli/Nonsocial3.png,stimuli/Social2.png,stimuli/Social1.png,stimuli/Nonsocial2.png,stimuli/Nonsocial1.png,cs_neg_s,"(-0.7, -0.5)",,,,,,,,,0,0,0,0,,,,,,,,,,,,,0,12,12,1,,,,,,,,,,,,,,,,,,,,,,,,,,,,,,,,,,840.1546723000001,27,none,0,,,843.1615686000005,,,,,,,,,,,,,,,,,,,,,,28,D,2024-05-08_09h23.45.426,attentional_competition_task,2022.2.4,143.95904652885525,
positions.xlsx,positions_test.xlsx,positions_test_new.xlsx,stimuli.xlsx,stimuli_new.xlsx,stimuli/Social4.png,stimuli/Social3.png,stimuli/Nonsocial4.png,stimuli/Nonsocial3.png,stimuli/Social2.png,stimuli/Social1.png,stimuli/Nonsocial2.png,stimuli/Nonsocial1.png,cs_neg_ns,"(-0.7, -0.5)",,,,,,,,,0,0,0,0,,,,,,,,,,,,,0,13,13,9,,,,,,,,,,,,,,,,,,,,,,,,,,,,,,,,,,850.3347970000004,27,none,0,,,853.3485628999997,,,,,,,,,,,,,,,,,,,,,,28,D,2024-05-08_09h23.45.426,attentional_competition_task,2022.2.4,143.95904652885525,
positions.xlsx,positions_test.xlsx,positions_test_new.xlsx,stimuli.xlsx,stimuli_new.xlsx,stimuli/Social4.png,stimuli/Social3.png,stimuli/Nonsocial4.png,stimuli/Nonsocial3.png,stimuli/Social2.png,stimuli/Social1.png,stimuli/Nonsocial2.png,stimuli/Nonsocial1.png,cs_neg_s,"(-0.7, 0.5)",,,,,,,,,0,0,0,0,,,,,,,,,,,,,0,14,14,0,,,,,,,,,,,,,,,,,,,,,,,,,,,,,,,,,,860.757987,27,none,0,,,863.7648237000003,,,,,,,,,,,,,,,,,,,,,,28,D,2024-05-08_09h23.45.426,attentional_competition_task,2022.2.4,143.95904652885525,
positions.xlsx,positions_test.xlsx,positions_test_new.xlsx,stimuli.xlsx,stimuli_new.xlsx,stimuli/Social4.png,stimuli/Social3.png,stimuli/Nonsocial4.png,stimuli/Nonsocial3.png,stimuli/Social2.png,stimuli/Social1.png,stimuli/Nonsocial2.png,stimuli/Nonsocial1.png,cs_pos_ns,"(-0.7, -0.5)",,,,,,,,,0,0,0,0,,,,,,,,,,,,,0,15,15,13,,,,,,,,,,,,,,,,,,,,,,,,,,,,,,,,,,870.9658976000001,30,reward,1,1.027740000000449,1.0277442000005976,872.0006110000004,,,,,,,,,,,,,,,,,,,,,,28,D,2024-05-08_09h23.45.426,attentional_competition_task,2022.2.4,143.95904652885525,
positions.xlsx,positions_test.xlsx,positions_test_new.xlsx,stimuli.xlsx,stimuli_new.xlsx,stimuli/Social4.png,stimuli/Social3.png,stimuli/Nonsocial4.png,stimuli/Nonsocial3.png,stimuli/Social2.png,stimuli/Social1.png,stimuli/Nonsocial2.png,stimuli/Nonsocial1.png,cs_neg_s,"(0.7, -0.5)",,,,,,,,,0,0,0,0,,,,,,,,,,,,,1,0,16,3,,,,,,,,,,,,,,,,,,,,,,,,,,,,,,,,,,879.5835986000002,27,loss,1,0.24940719999995054,0.24941130000024714,879.8405389,,,,,,,,,,,,,,,,,,,,,,28,D,2024-05-08_09h23.45.426,attentional_competition_task,2022.2.4,143.95904652885525,
positions.xlsx,positions_test.xlsx,positions_test_new.xlsx,stimuli.xlsx,stimuli_new.xlsx,stimuli/Social4.png,stimuli/Social3.png,stimuli/Nonsocial4.png,stimuli/Nonsocial3.png,stimuli/Social2.png,stimuli/Social1.png,stimuli/Nonsocial2.png,stimuli/Nonsocial1.png,cs_neg_ns,"(-0.7, 0.5)",,,,,,,,,0,0,0,0,,,,,,,,,,,,,1,1,17,8,,,,,,,,,,,,,,,,,,,,,,,,,,,,,,,,,,886.9999648000003,27,none,0,,,890.0137381000004,,,,,,,,,,,,,,,,,,,,,,28,D,2024-05-08_09h23.45.426,attentional_competition_task,2022.2.4,143.95904652885525,
positions.xlsx,positions_test.xlsx,positions_test_new.xlsx,stimuli.xlsx,stimuli_new.xlsx,stimuli/Social4.png,stimuli/Social3.png,stimuli/Nonsocial4.png,stimuli/Nonsocial3.png,stimuli/Social2.png,stimuli/Social1.png,stimuli/Nonsocial2.png,stimuli/Nonsocial1.png,cs_pos_ns,"(-0.7, 0.5)",,,,,,,,,0,0,0,0,,,,,,,,,,,,,1,2,18,12,,,,,,,,,,,,,,,,,,,,,,,,,,,,,,,,,,897.8744628000004,30,reward,1,1.506802200000493,1.5068064000006416,899.3883412000005,,,,,,,,,,,,,,,,,,,,,,28,D,2024-05-08_09h23.45.426,attentional_competition_task,2022.2.4,143.95904652885525,
positions.xlsx,positions_test.xlsx,positions_test_new.xlsx,stimuli.xlsx,stimuli_new.xlsx,stimuli/Social4.png,stimuli/Social3.png,stimuli/Nonsocial4.png,stimuli/Nonsocial3.png,stimuli/Social2.png,stimuli/Social1.png,stimuli/Nonsocial2.png,stimuli/Nonsocial1.png,cs_pos_s,"(-0.7, 0.5)",,,,,,,,,0,0,0,0,,,,,,,,,,,,,1,3,19,4,,,,,,,,,,,,,,,,,,,,,,,,,,,,,,,,,,906.3811220999996,33,reward,1,0.7432364000005691,0.7502529000003051,907.1380212000004,,,,,,,,,,,,,,,,,,,,,,28,D,2024-05-08_09h23.45.426,attentional_competition_task,2022.2.4,143.95904652885525,
positions.xlsx,positions_test.xlsx,positions_test_new.xlsx,stimuli.xlsx,stimuli_new.xlsx,stimuli/Social4.png,stimuli/Social3.png,stimuli/Nonsocial4.png,stimuli/Nonsocial3.png,stimuli/Social2.png,stimuli/Social1.png,stimuli/Nonsocial2.png,stimuli/Nonsocial1.png,cs_neg_s,"(-0.7, 0.5)",,,,,,,,,0,0,0,0,,,,,,,,,,,,,1,4,20,0,,,,,,,,,,,,,,,,,,,,,,,,,,,,,,,,,,914.2557573000004,33,none,0,,,917.269526,,,,,,,,,,,,,,,,,,,,,,28,D,2024-05-08_09h23.45.426,attentional_competition_task,2022.2.4,143.95904652885525,
positions.xlsx,positions_test.xlsx,positions_test_new.xlsx,stimuli.xlsx,stimuli_new.xlsx,stimuli/Social4.png,stimuli/Social3.png,stimuli/Nonsocial4.png,stimuli/Nonsocial3.png,stimuli/Social2.png,stimuli/Social1.png,stimuli/Nonsocial2.png,stimuli/Nonsocial1.png,cs_pos_s,"(0.7, 0.5)",,,,,,,,,0,0,0,0,,,,,,,,,,,,,1,5,21,6,,,,,,,,,,,,,,,,,,,,,,,,,,,,,,,,,,924.4012198,36,reward,1,0.6807787000007011,0.6807828000000882,925.0886750999998,,,,,,,,,,,,,,,,,,,,,,28,D,2024-05-08_09h23.45.426,attentional_competition_task,2022.2.4,143.95904652885525,
positions.xlsx,positions_test.xlsx,positions_test_new.xlsx,stimuli.xlsx,stimuli_new.xlsx,stimuli/Social4.png,stimuli/Social3.png,stimuli/Nonsocial4.png,stimuli/Nonsocial3.png,stimuli/Social2.png,stimuli/Social1.png,stimuli/Nonsocial2.png,stimuli/Nonsocial1.png,cs_pos_ns,"(0.7, -0.5)",,,,,,,,,0,0,0,0,,,,,,,,,,,,,1,6,22,15,,,,,,,,,,,,,,,,,,,,,,,,,,,,,,,,,,932.1994399000005,39,reward,1,0.8264645999997811,0.8331222000006164,933.0397534000003,,,,,,,,,,,,,,,,,,,,,,28,D,2024-05-08_09h23.45.426,attentional_competition_task,2022.2.4,143.95904652885525,
positions.xlsx,positions_test.xlsx,positions_test_new.xlsx,stimuli.xlsx,stimuli_new.xlsx,stimuli/Social4.png,stimuli/Social3.png,stimuli/Nonsocial4.png,stimuli/Nonsocial3.png,stimuli/Social2.png,stimuli/Social1.png,stimuli/Nonsocial2.png,stimuli/Nonsocial1.png,cs_pos_s,"(0.7, -0.5)",,,,,,,,,0,0,0,0,,,,,,,,,,,,,1,7,23,7,,,,,,,,,,,,,,,,,,,,,,,,,,,,,,,,,,940.3311057999999,42,reward,1,0.6529966999996759,0.6530011999993803,940.9907622000001,,,,,,,,,,,,,,,,,,,,,,28,D,2024-05-08_09h23.45.426,attentional_competition_task,2022.2.4,143.95904652885525,
positions.xlsx,positions_test.xlsx,positions_test_new.xlsx,stimuli.xlsx,stimuli_new.xlsx,stimuli/Social4.png,stimuli/Social3.png,stimuli/Nonsocial4.png,stimuli/Nonsocial3.png,stimuli/Social2.png,stimuli/Social1.png,stimuli/Nonsocial2.png,stimuli/Nonsocial1.png,cs_pos_ns,"(0.7, 0.5)",,,,,,,,,0,0,0,0,,,,,,,,,,,,,1,8,24,14,,,,,,,,,,,,,,,,,,,,,,,,,,,,,,,,,,948.7335189000005,45,reward,1,1.2018524999994042,1.2018570000000182,949.9418193000001,,,,,,,,,,,,,,,,,,,,,,28,D,2024-05-08_09h23.45.426,attentional_competition_task,2022.2.4,143.95904652885525,
positions.xlsx,positions_test.xlsx,positions_test_new.xlsx,stimuli.xlsx,stimuli_new.xlsx,stimuli/Social4.png,stimuli/Social3.png,stimuli/Nonsocial4.png,stimuli/Nonsocial3.png,stimuli/Social2.png,stimuli/Social1.png,stimuli/Nonsocial2.png,stimuli/Nonsocial1.png,cs_neg_s,"(0.7, 0.5)",,,,,,,,,0,0,0,0,,,,,,,,,,,,,1,9,25,2,,,,,,,,,,,,,,,,,,,,,,,,,,,,,,,,,,956.9970688000003,45,none,0,,,960.0038722999998,,,,,,,,,,,,,,,,,,,,,,28,D,2024-05-08_09h23.45.426,attentional_competition_task,2022.2.4,143.95904652885525,
positions.xlsx,positions_test.xlsx,positions_test_new.xlsx,stimuli.xlsx,stimuli_new.xlsx,stimuli/Social4.png,stimuli/Social3.png,stimuli/Nonsocial4.png,stimuli/Nonsocial3.png,stimuli/Social2.png,stimuli/Social1.png,stimuli/Nonsocial2.png,stimuli/Nonsocial1.png,cs_pos_s,"(-0.7, -0.5)",,,,,,,,,0,0,0,0,,,,,,,,,,,,,1,10,26,5,,,,,,,,,,,,,,,,,,,,,,,,,,,,,,,,,,968.0799329000001,48,reward,1,0.5561619999998584,0.5627905999999712,968.6493889000003,,,,,,,,,,,,,,,,,,,,,,28,D,2024-05-08_09h23.45.426,attentional_competition_task,2022.2.4,143.95904652885525,
positions.xlsx,positions_test.xlsx,positions_test_new.xlsx,stimuli.xlsx,stimuli_new.xlsx,stimuli/Social4.png,stimuli/Social3.png,stimuli/Nonsocial4.png,stimuli/Nonsocial3.png,stimuli/Social2.png,stimuli/Social1.png,stimuli/Nonsocial2.png,stimuli/Nonsocial1.png,cs_neg_ns,"(0.7, 0.5)",,,,,,,,,0,0,0,0,,,,,,,,,,,,,1,11,27,10,,,,,,,,,,,,,,,,,,,,,,,,,,,,,,,,,,976.1212690000002,45,loss,1,0.5831013999995776,0.5831054000000222,976.7115327000001,,,,,,,,,,,,,,,,,,,,,,28,D,2024-05-08_09h23.45.426,attentional_competition_task,2022.2.4,143.95904652885525,
positions.xlsx,positions_test.xlsx,positions_test_new.xlsx,stimuli.xlsx,stimuli_new.xlsx,stimuli/Social4.png,stimuli/Social3.png,stimuli/Nonsocial4.png,stimuli/Nonsocial3.png,stimuli/Social2.png,stimuli/Social1.png,stimuli/Nonsocial2.png,stimuli/Nonsocial1.png,cs_neg_ns,"(-0.7, -0.5)",,,,,,,,,0,0,0,0,,,,,,,,,,,,,1,12,28,9,,,,,,,,,,,,,,,,,,,,,,,,,,,,,,,,,,984.4403997,45,none,0,,,987.4471961999998,,,,,,,,,,,,,,,,,,,,,,28,D,2024-05-08_09h23.45.426,attentional_competition_task,2022.2.4,143.95904652885525,
positions.xlsx,positions_test.xlsx,positions_test_new.xlsx,stimuli.xlsx,stimuli_new.xlsx,stimuli/Social4.png,stimuli/Social3.png,stimuli/Nonsocial4.png,stimuli/Nonsocial3.png,stimuli/Social2.png,stimuli/Social1.png,stimuli/Nonsocial2.png,stimuli/Nonsocial1.png,cs_pos_ns,"(-0.7, -0.5)",,,,,,,,,0,0,0,0,,,,,,,,,,,,,1,13,29,13,,,,,,,,,,,,,,,,,,,,,,,,,,,,,,,,,,995.6204758000003,48,reward,1,0.8896850999999515,0.8896893000001,996.5232278000003,,,,,,,,,,,,,,,,,,,,,,28,D,2024-05-08_09h23.45.426,attentional_competition_task,2022.2.4,143.95904652885525,
positions.xlsx,positions_test.xlsx,positions_test_new.xlsx,stimuli.xlsx,stimuli_new.xlsx,stimuli/Social4.png,stimuli/Social3.png,stimuli/Nonsocial4.png,stimuli/Nonsocial3.png,stimuli/Social2.png,stimuli/Social1.png,stimuli/Nonsocial2.png,stimuli/Nonsocial1.png,cs_neg_s,"(-0.7, -0.5)",,,,,,,,,0,0,0,0,,,,,,,,,,,,,1,14,30,1,,,,,,,,,,,,,,,,,,,,,,,,,,,,,,,,,,1003.9395641000001,48,none,0,,,1006.9464286000002,,,,,,,,,,,,,,,,,,,,,,28,D,2024-05-08_09h23.45.426,attentional_competition_task,2022.2.4,143.95904652885525,
positions.xlsx,positions_test.xlsx,positions_test_new.xlsx,stimuli.xlsx,stimuli_new.xlsx,stimuli/Social4.png,stimuli/Social3.png,stimuli/Nonsocial4.png,stimuli/Nonsocial3.png,stimuli/Social2.png,stimuli/Social1.png,stimuli/Nonsocial2.png,stimuli/Nonsocial1.png,cs_neg_ns,"(0.7, -0.5)",,,,,,,,,0,0,0,0,,,,,,,,,,,,,1,15,31,11,,,,,,,,,,,,,,,,,,,,,,,,,,,,,,,,,,1013.8072402999996,48,none,0,,,1016.8209973000003,,,,,,,,,,,,,,,,,,,,,,28,D,2024-05-08_09h23.45.426,attentional_competition_task,2022.2.4,143.95904652885525,
positions.xlsx,positions_test.xlsx,positions_test_new.xlsx,stimuli.xlsx,stimuli_new.xlsx,stimuli/Social4.png,stimuli/Social3.png,stimuli/Nonsocial4.png,stimuli/Nonsocial3.png,stimuli/Social2.png,stimuli/Social1.png,stimuli/Nonsocial2.png,stimuli/Nonsocial1.png,cs_pos_ns,,,,,,,,,,0,0,0,0,,,,,,,,,,,,,,,,,0,0,0,3,,,,,,,,,,,,,,,,,,,,,,,1022.0638713999997,8.0,8.454942899999878,,,,,,,,,,,,,,,,,,,,,,,,,,,,,,,,,28,D,2024-05-08_09h23.45.426,attentional_competition_task,2022.2.4,143.95904652885525,
positions.xlsx,positions_test.xlsx,positions_test_new.xlsx,stimuli.xlsx,stimuli_new.xlsx,stimuli/Social4.png,stimuli/Social3.png,stimuli/Nonsocial4.png,stimuli/Nonsocial3.png,stimuli/Social2.png,stimuli/Social1.png,stimuli/Nonsocial2.png,stimuli/Nonsocial1.png,cs_neg_ns,,,,,,,,,,0,0,0,0,,,,,,,,,,,,,,,,,0,1,1,1,,,,,,,,,,,,,,,,,,,,,,,1031.5356429000003,6.0,1.9246034000007057,,,,,,,,,,,,,,,,,,,,,,,,,,,,,,,,,28,D,2024-05-08_09h23.45.426,attentional_competition_task,2022.2.4,143.95904652885525,
positions.xlsx,positions_test.xlsx,positions_test_new.xlsx,stimuli.xlsx,stimuli_new.xlsx,stimuli/Social4.png,stimuli/Social3.png,stimuli/Nonsocial4.png,stimuli/Nonsocial3.png,stimuli/Social2.png,stimuli/Social1.png,stimuli/Nonsocial2.png,stimuli/Nonsocial1.png,cs_neg_s,,,,,,,,,,0,0,0,0,,,,,,,,,,,,,,,,,0,2,2,0,,,,,,,,,,,,,,,,,,,,,,,1033.6744773,5.0,2.2661144000003333,,,,,,,,,,,,,,,,,,,,,,,,,,,,,,,,,28,D,2024-05-08_09h23.45.426,attentional_competition_task,2022.2.4,143.95904652885525,
positions.xlsx,positions_test.xlsx,positions_test_new.xlsx,stimuli.xlsx,stimuli_new.xlsx,stimuli/Social4.png,stimuli/Social3.png,stimuli/Nonsocial4.png,stimuli/Nonsocial3.png,stimuli/Social2.png,stimuli/Social1.png,stimuli/Nonsocial2.png,stimuli/Nonsocial1.png,cs_pos_s,,,,,,,,,,0,0,0,0,,,,,,,,,,,,,,,,,0,3,3,2,,,,,,,,,,,,,,,,,,,,,,,1036.1396783,4.0,1.8913748999993913,,,,,,,,,,,,,,,,,,,,,,,,,,,,,,,,,28,D,2024-05-08_09h23.45.426,attentional_competition_task,2022.2.4,143.95904652885525,
positions.xlsx,positions_test.xlsx,positions_test_new.xlsx,stimuli.xlsx,stimuli_new.xlsx,stimuli/Social4.png,stimuli/Social3.png,stimuli/Nonsocial4.png,stimuli/Nonsocial3.png,stimuli/Social2.png,stimuli/Social1.png,stimuli/Nonsocial2.png,stimuli/Nonsocial1.png,,,"(-0.7, -0.5)",cs_neg_s,"(-0.7, 0.5)",cs_neg_ns,"(0.7, -0.5)",cs_pos_ns,"(0.7, 0.5)",cs_pos_s,0,0,0,0,,,,,,,,,,,,,,,,,,,,,0,0,0,3,,,,,,,,,,,,,,,,,,,,,,,,,,,51,reward,,,,,1038.2715187000003,1048.6044287000004,1048.6044287000004,1048.6044287000004,1048.6044287000004,0,,,0,,,0,,,3,0.02469569999993837,0.0662160000001677,1049.3891192,1049.3891192,1049.3891192,1049.3891192,28,D,2024-05-08_09h23.45.426,attentional_competition_task,2022.2.4,143.95904652885525,
positions.xlsx,positions_test.xlsx,positions_test_new.xlsx,stimuli.xlsx,stimuli_new.xlsx,stimuli/Social4.png,stimuli/Social3.png,stimuli/Nonsocial4.png,stimuli/Nonsocial3.png,stimuli/Social2.png,stimuli/Social1.png,stimuli/Nonsocial2.png,stimuli/Nonsocial1.png,,,"(-0.7, -0.5)",cs_neg_ns,"(-0.7, 0.5)",cs_pos_ns,"(0.7, -0.5)",cs_neg_s,"(0.7, 0.5)",cs_pos_s,0,0,0,0,,,,,,,,,,,,,,,,,,,,,0,1,1,17,,,,,,,,,,,,,,,,,,,,,,,,,,,57,reward,,,,,,1058.1109941000004,1058.1109941000004,1058.1109941000004,1058.1109941000004,0,,,1,0.028869400000075984,0.02887379999992845,0,,,0,,,1058.1109941000004,1058.1109941000004,1058.1109941000004,1058.1109941000004,28,D,2024-05-08_09h23.45.426,attentional_competition_task,2022.2.4,143.95904652885525,
positions.xlsx,positions_test.xlsx,positions_test_new.xlsx,stimuli.xlsx,stimuli_new.xlsx,stimuli/Social4.png,stimuli/Social3.png,stimuli/Nonsocial4.png,stimuli/Nonsocial3.png,stimuli/Social2.png,stimuli/Social1.png,stimuli/Nonsocial2.png,stimuli/Nonsocial1.png,,,"(-0.7, -0.5)",cs_neg_ns,"(-0.7, 0.5)",cs_pos_s,"(0.7, -0.5)",cs_neg_s,"(0.7, 0.5)",cs_pos_ns,0,0,0,0,,,,,,,,,,,,,,,,,,,,,0,2,2,12,,,,,,,,,,,,,,,,,,,,,,,,,,,63,reward,,,,,,1066.3606435000002,1066.3606435000002,1066.3606435000002,1066.3606435000002,0,,,1,0.02508040000066103,0.19341020000047138,0,,,0,,,1067.0619772,1067.0619772,1067.0619772,1067.0619772,28,D,2024-05-08_09h23.45.426,attentional_competition_task,2022.2.4,143.95904652885525,
positions.xlsx,positions_test.xlsx,positions_test_new.xlsx,stimuli.xlsx,stimuli_new.xlsx,stimuli/Social4.png,stimuli/Social3.png,stimuli/Nonsocial4.png,stimuli/Nonsocial3.png,stimuli/Social2.png,stimuli/Social1.png,stimuli/Nonsocial2.png,stimuli/Nonsocial1.png,,,"(-0.7, -0.5)",cs_pos_ns,"(-0.7, 0.5)",cs_neg_ns,"(0.7, -0.5)",cs_pos_s,"(0.7, 0.5)",cs_neg_s,0,0,0,0,,,,,,,,,,,,,,,,,,,,,0,3,3,20,,,,,,,,,,,,,,,,,,,,,,,,,,,69,reward,,,,,,1074.5477792000002,1074.5477792000002,1074.5477792000002,1074.5477792000002,1,0.03678189999936876,0.04360519999954704,0,,,0,,,0,,,1074.5964240000003,1074.5964240000003,1074.5964240000003,1074.5964240000003,28,D,2024-05-08_09h23.45.426,attentional_competition_task,2022.2.4,143.95904652885525,
positions.xlsx,positions_test.xlsx,positions_test_new.xlsx,stimuli.xlsx,stimuli_new.xlsx,stimuli/Social4.png,stimuli/Social3.png,stimuli/Nonsocial4.png,stimuli/Nonsocial3.png,stimuli/Social2.png,stimuli/Social1.png,stimuli/Nonsocial2.png,stimuli/Nonsocial1.png,,,"(-0.7, -0.5)",cs_neg_ns,"(-0.7, 0.5)",cs_neg_s,"(0.7, -0.5)",cs_pos_ns,"(0.7, 0.5)",cs_pos_s,0,0,0,0,,,,,,,,,,,,,,,,,,,,,0,4,4,15,,,,,,,,,,,,,,,,,,,,,,,,,,,78,reward,,,,,,1082.5266545000004,1082.5266545000004,1082.5266545000004,1082.5266545000004,0,,,0,,,1,0.024269200000162527,0.2131604000005609,0,,,1083.2488758999998,1083.2488758999998,1083.2488758999998,1083.2488758999998,28,D,2024-05-08_09h23.45.426,attentional_competition_task,2022.2.4,143.95904652885525,
positions.xlsx,positions_test.xlsx,positions_test_new.xlsx,stimuli.xlsx,stimuli_new.xlsx,stimuli/Social4.png,stimuli/Social3.png,stimuli/Nonsocial4.png,stimuli/Nonsocial3.png,stimuli/Social2.png,stimuli/Social1.png,stimuli/Nonsocial2.png,stimuli/Nonsocial1.png,,,"(-0.7, -0.5)",cs_neg_s,"(-0.7, 0.5)",cs_pos_ns,"(0.7, -0.5)",cs_pos_s,"(0.7, 0.5)",cs_neg_ns,0,0,0,0,,,,,,,,,,,,,,,,,,,,,0,5,5,4,,,,,,,,,,,,,,,,,,,,,,,,,,,84,reward,,,,,,1091.6790787999998,1091.6790787999998,1091.6790787999998,1091.6790787999998,0,,,0,,,0,,,0,,,1092.5540368000002,1092.5540368000002,1092.5540368000002,1092.5540368000002,28,D,2024-05-08_09h23.45.426,attentional_competition_task,2022.2.4,143.95904652885525,
positions.xlsx,positions_test.xlsx,positions_test_new.xlsx,stimuli.xlsx,stimuli_new.xlsx,stimuli/Social4.png,stimuli/Social3.png,stimuli/Nonsocial4.png,stimuli/Nonsocial3.png,stimuli/Social2.png,stimuli/Social1.png,stimuli/Nonsocial2.png,stimuli/Nonsocial1.png,,,"(-0.7, -0.5)",cs_neg_ns,"(-0.7, 0.5)",cs_pos_s,"(0.7, -0.5)",cs_pos_ns,"(0.7, 0.5)",cs_neg_s,0,0,0,0,,,,,,,,,,,,,,,,,,,,,0,6,6,13,,,,,,,,,,,,,,,,,,,,,,,,,,,87,reward,,,,,,1100.4356509999998,1100.4356509999998,1100.4356509999998,1100.4356509999998,0,,,0,,,1,0.023999499999263207,0.024012799999582057,0,,,1100.4356509999998,1100.4356509999998,1100.4356509999998,1100.4356509999998,28,D,2024-05-08_09h23.45.426,attentional_competition_task,2022.2.4,143.95904652885525,
positions.xlsx,positions_test.xlsx,positions_test_new.xlsx,stimuli.xlsx,stimuli_new.xlsx,stimuli/Social4.png,stimuli/Social3.png,stimuli/Nonsocial4.png,stimuli/Nonsocial3.png,stimuli/Social2.png,stimuli/Social1.png,stimuli/Nonsocial2.png,stimuli/Nonsocial1.png,,,"(-0.7, -0.5)",cs_pos_ns,"(-0.7, 0.5)",cs_neg_ns,"(0.7, -0.5)",cs_neg_s,"(0.7, 0.5)",cs_pos_s,0,0,0,0,,,,,,,,,,,,,,,,,,,,,0,7,7,21,,,,,,,,,,,,,,,,,,,,,,,,,,,96,reward,,,,,,1109.581056,1109.581056,1109.581056,1109.581056,0,,,0,,,0,,,0,,,1110.3380130000005,1110.3380130000005,1110.3380130000005,1110.3380130000005,28,D,2024-05-08_09h23.45.426,attentional_competition_task,2022.2.4,143.95904652885525,
positions.xlsx,positions_test.xlsx,positions_test_new.xlsx,stimuli.xlsx,stimuli_new.xlsx,stimuli/Social4.png,stimuli/Social3.png,stimuli/Nonsocial4.png,stimuli/Nonsocial3.png,stimuli/Social2.png,stimuli/Social1.png,stimuli/Nonsocial2.png,stimuli/Nonsocial1.png,,,"(-0.7, -0.5)",cs_pos_s,"(-0.7, 0.5)",cs_neg_ns,"(0.7, -0.5)",cs_neg_s,"(0.7, 0.5)",cs_pos_ns,0,0,0,0,,,,,,,,,,,,,,,,,,,,,0,8,8,8,,,,,,,,,,,,,,,,,,,,,,,,,,,90,loss,,,,,,1118.1987947999996,1118.1987947999996,1118.1987947999996,1118.1987947999996,0,,,0,,,1,0.0299605000000156,0.029964899999868067,0,,,1118.1987947999996,1118.1987947999996,1118.1987947999996,1118.1987947999996,28,D,2024-05-08_09h23.45.426,attentional_competition_task,2022.2.4,143.95904652885525,
positions.xlsx,positions_test.xlsx,positions_test_new.xlsx,stimuli.xlsx,stimuli_new.xlsx,stimuli/Social4.png,stimuli/Social3.png,stimuli/Nonsocial4.png,stimuli/Nonsocial3.png,stimuli/Social2.png,stimuli/Social1.png,stimuli/Nonsocial2.png,stimuli/Nonsocial1.png,,,"(-0.7, -0.5)",cs_neg_s,"(-0.7, 0.5)",cs_pos_s,"(0.7, -0.5)",cs_neg_ns,"(0.7, 0.5)",cs_pos_ns,0,0,0,0,,,,,,,,,,,,,,,,,,,,,0,9,9,0,,,,,,,,,,,,,,,,,,,,,,,,,,,90,loss,,,,,,1126.8442443000004,1126.8442443000004,1126.8442443000004,1126.8442443000004,0,,,0,,,1,0.5077959999998711,0.5078003999997236,0,,,1127.3512355000003,1127.3512355000003,1127.3512355000003,1127.3512355000003,28,D,2024-05-08_09h23.45.426,attentional_competition_task,2022.2.4,143.95904652885525,
positions.xlsx,positions_test.xlsx,positions_test_new.xlsx,stimuli.xlsx,stimuli_new.xlsx,stimuli/Social4.png,stimuli/Social3.png,stimuli/Nonsocial4.png,stimuli/Nonsocial3.png,stimuli/Social2.png,stimuli/Social1.png,stimuli/Nonsocial2.png,stimuli/Nonsocial1.png,,,"(-0.7, -0.5)",cs_neg_s,"(-0.7, 0.5)",cs_pos_s,"(0.7, -0.5)",cs_pos_ns,"(0.7, 0.5)",cs_neg_ns,0,0,0,0,,,,,,,,,,,,,,,,,,,,,0,10,10,1,,,,,,,,,,,,,,,,,,,,,,,,,,,99,reward,,,,,,1136.7049489,1136.7049489,1136.7049489,1136.7049489,0,,,0,,,0,,,0,,,1136.7049489,1136.7049489,1136.7049489,1136.7049489,28,D,2024-05-08_09h23.45.426,attentional_competition_task,2022.2.4,143.95904652885525,
positions.xlsx,positions_test.xlsx,positions_test_new.xlsx,stimuli.xlsx,stimuli_new.xlsx,stimuli/Social4.png,stimuli/Social3.png,stimuli/Nonsocial4.png,stimuli/Nonsocial3.png,stimuli/Social2.png,stimuli/Social1.png,stimuli/Nonsocial2.png,stimuli/Nonsocial1.png,,,"(-0.7, -0.5)",cs_pos_s,"(-0.7, 0.5)",cs_neg_s,"(0.7, -0.5)",cs_pos_ns,"(0.7, 0.5)",cs_neg_ns,0,0,0,0,,,,,,,,,,,,,,,,,,,,,0,11,11,7,,,,,,,,,,,,,,,,,,,,,,,,,,,105,reward,,,,,,1143.5449649000002,1143.5449649000002,1143.5449649000002,1143.5449649000002,2,0.029096199999912642,0.10624390000066342,0,,,0,,,0,,,1144.0657541,1144.0657541,1144.0657541,1144.0657541,28,D,2024-05-08_09h23.45.426,attentional_competition_task,2022.2.4,143.95904652885525,
positions.xlsx,positions_test.xlsx,positions_test_new.xlsx,stimuli.xlsx,stimuli_new.xlsx,stimuli/Social4.png,stimuli/Social3.png,stimuli/Nonsocial4.png,stimuli/Nonsocial3.png,stimuli/Social2.png,stimuli/Social1.png,stimuli/Nonsocial2.png,stimuli/Nonsocial1.png,,,"(-0.7, -0.5)",cs_neg_ns,"(-0.7, 0.5)",cs_pos_ns,"(0.7, -0.5)",cs_pos_s,"(0.7, 0.5)",cs_neg_s,0,0,0,0,,,,,,,,,,,,,,,,,,,,,0,12,12,16,,,,,,,,,,,,,,,,,,,,,,,,,,,111,reward,,,,,,1152.6070848999998,1152.6070848999998,1152.6070848999998,1152.6070848999998,0,,,1,0.029603900000438443,0.029608700000608223,0,,,0,,,1152.6070848999998,1152.6070848999998,1152.6070848999998,1152.6070848999998,28,D,2024-05-08_09h23.45.426,attentional_competition_task,2022.2.4,143.95904652885525,
positions.xlsx,positions_test.xlsx,positions_test_new.xlsx,stimuli.xlsx,stimuli_new.xlsx,stimuli/Social4.png,stimuli/Social3.png,stimuli/Nonsocial4.png,stimuli/Nonsocial3.png,stimuli/Social2.png,stimuli/Social1.png,stimuli/Nonsocial2.png,stimuli/Nonsocial1.png,,,"(-0.7, -0.5)",cs_pos_s,"(-0.7, 0.5)",cs_pos_ns,"(0.7, -0.5)",cs_neg_ns,"(0.7, 0.5)",cs_neg_s,0,0,0,0,,,,,,,,,,,,,,,,,,,,,0,13,13,11,,,,,,,,,,,,,,,,,,,,,,,,,,,117,reward,,,,,,1161.3359320999998,1161.3359320999998,1161.3359320999998,1161.3359320999998,0,,,1,0.3493515000000116,0.3564289000005374,0,,,0,,,1161.6969795000005,1161.6969795000005,1161.6969795000005,1161.6969795000005,28,D,2024-05-08_09h23.45.426,attentional_competition_task,2022.2.4,143.95904652885525,
positions.xlsx,positions_test.xlsx,positions_test_new.xlsx,stimuli.xlsx,stimuli_new.xlsx,stimuli/Social4.png,stimuli/Social3.png,stimuli/Nonsocial4.png,stimuli/Nonsocial3.png,stimuli/Social2.png,stimuli/Social1.png,stimuli/Nonsocial2.png,stimuli/Nonsocial1.png,,,"(-0.7, -0.5)",cs_pos_s,"(-0.7, 0.5)",cs_neg_ns,"(0.7, -0.5)",cs_pos_ns,"(0.7, 0.5)",cs_neg_s,0,0,0,0,,,,,,,,,,,,,,,,,,,,,0,14,14,9,,,,,,,,,,,,,,,,,,,,,,,,,,,126,reward,,,,,,1170.9327284,1170.9327284,1170.9327284,1170.9327284,0,,,0,,,0,,,0,,,1171.4674416999997,1171.4674416999997,1171.4674416999997,1171.4674416999997,28,D,2024-05-08_09h23.45.426,attentional_competition_task,2022.2.4,143.95904652885525,
positions.xlsx,positions_test.xlsx,positions_test_new.xlsx,stimuli.xlsx,stimuli_new.xlsx,stimuli/Social4.png,stimuli/Social3.png,stimuli/Nonsocial4.png,stimuli/Nonsocial3.png,stimuli/Social2.png,stimuli/Social1.png,stimuli/Nonsocial2.png,stimuli/Nonsocial1.png,,,"(-0.7, -0.5)",cs_neg_ns,"(-0.7, 0.5)",cs_neg_s,"(0.7, -0.5)",cs_pos_s,"(0.7, 0.5)",cs_pos_ns,0,0,0,0,,,,,,,,,,,,,,,,,,,,,0,15,15,14,,,,,,,,,,,,,,,,,,,,,,,,,,,132,reward,,,,,,1178.5921048,1178.5921048,1178.5921048,1178.5921048,0,,,0,,,0,,,1,0.028926200000569224,0.028930400000717782,1178.5921048,1178.5921048,1178.5921048,1178.5921048,28,D,2024-05-08_09h23.45.426,attentional_competition_task,2022.2.4,143.95904652885525,
positions.xlsx,positions_test.xlsx,positions_test_new.xlsx,stimuli.xlsx,stimuli_new.xlsx,stimuli/Social4.png,stimuli/Social3.png,stimuli/Nonsocial4.png,stimuli/Nonsocial3.png,stimuli/Social2.png,stimuli/Social1.png,stimuli/Nonsocial2.png,stimuli/Nonsocial1.png,,,"(-0.7, -0.5)",cs_pos_s,"(-0.7, 0.5)",cs_pos_ns,"(0.7, -0.5)",cs_neg_s,"(0.7, 0.5)",cs_neg_ns,0,0,0,0,,,,,,,,,,,,,,,,,,,,,0,16,16,10,,,,,,,,,,,,,,,,,,,,,,,,,,,135,loss,,,,,,1186.3834789000002,1186.3834789000002,1186.3834789000002,1186.3834789000002,0,,,0,,,0,,,1,0.045815099999344966,0.04582010000012815,1186.4391032000003,1186.4391032000003,1186.4391032000003,1186.4391032000003,28,D,2024-05-08_09h23.45.426,attentional_competition_task,2022.2.4,143.95904652885525,
positions.xlsx,positions_test.xlsx,positions_test_new.xlsx,stimuli.xlsx,stimuli_new.xlsx,stimuli/Social4.png,stimuli/Social3.png,stimuli/Nonsocial4.png,stimuli/Nonsocial3.png,stimuli/Social2.png,stimuli/Social1.png,stimuli/Nonsocial2.png,stimuli/Nonsocial1.png,,,"(-0.7, -0.5)",cs_pos_ns,"(-0.7, 0.5)",cs_neg_s,"(0.7, -0.5)",cs_pos_s,"(0.7, 0.5)",cs_neg_ns,0,0,0,0,,,,,,,,,,,,,,,,,,,,,0,17,17,22,,,,,,,,,,,,,,,,,,,,,,,,,,,141,reward,,,,,,1194.6261657000005,1194.6261657000005,1194.6261657000005,1194.6261657000005,0,,,0,,,0,,,0,,,1195.6122566000004,1195.6122566000004,1195.6122566000004,1195.6122566000004,28,D,2024-05-08_09h23.45.426,attentional_competition_task,2022.2.4,143.95904652885525,
positions.xlsx,positions_test.xlsx,positions_test_new.xlsx,stimuli.xlsx,stimuli_new.xlsx,stimuli/Social4.png,stimuli/Social3.png,stimuli/Nonsocial4.png,stimuli/Nonsocial3.png,stimuli/Social2.png,stimuli/Social1.png,stimuli/Nonsocial2.png,stimuli/Nonsocial1.png,,,"(-0.7, -0.5)",cs_pos_ns,"(-0.7, 0.5)",cs_pos_s,"(0.7, -0.5)",cs_neg_s,"(0.7, 0.5)",cs_neg_ns,0,0,0,0,,,,,,,,,,,,,,,,,,,,,0,18,18,19,,,,,,,,,,,,,,,,,,,,,,,,,,,150,reward,,,,,,1203.2647429999997,1203.2647429999997,1203.2647429999997,1203.2647429999997,0,,,0,,,0,,,0,,,1203.9105435000001,1203.9105435000001,1203.9105435000001,1203.9105435000001,28,D,2024-05-08_09h23.45.426,attentional_competition_task,2022.2.4,143.95904652885525,
positions.xlsx,positions_test.xlsx,positions_test_new.xlsx,stimuli.xlsx,stimuli_new.xlsx,stimuli/Social4.png,stimuli/Social3.png,stimuli/Nonsocial4.png,stimuli/Nonsocial3.png,stimuli/Social2.png,stimuli/Social1.png,stimuli/Nonsocial2.png,stimuli/Nonsocial1.png,,,"(-0.7, -0.5)",cs_neg_s,"(-0.7, 0.5)",cs_neg_ns,"(0.7, -0.5)",cs_pos_s,"(0.7, 0.5)",cs_pos_ns,0,0,0,0,,,,,,,,,,,,,,,,,,,,,0,19,19,2,,,,,,,,,,,,,,,,,,,,,,,,,,,159,reward,,,,,,1210.9450324,1210.9450324,1210.9450324,1210.9450324,0,,,0,,,0,,,0,,,1211.7296624,1211.7296624,1211.7296624,1211.7296624,28,D,2024-05-08_09h23.45.426,attentional_competition_task,2022.2.4,143.95904652885525,
positions.xlsx,positions_test.xlsx,positions_test_new.xlsx,stimuli.xlsx,stimuli_new.xlsx,stimuli/Social4.png,stimuli/Social3.png,stimuli/Nonsocial4.png,stimuli/Nonsocial3.png,stimuli/Social2.png,stimuli/Social1.png,stimuli/Nonsocial2.png,stimuli/Nonsocial1.png,,,"(-0.7, -0.5)",cs_pos_ns,"(-0.7, 0.5)",cs_pos_s,"(0.7, -0.5)",cs_neg_ns,"(0.7, 0.5)",cs_neg_s,0,0,0,0,,,,,,,,,,,,,,,,,,,,,0,20,20,18,,,,,,,,,,,,,,,,,,,,,,,,,,,168,reward,,,,,,1219.5140585,1219.5140585,1219.5140585,1219.5140585,0,,,1,0.025416100000256847,0.0730135000003429,0,,,0,,,1220.0903988,1220.0903988,1220.0903988,1220.0903988,28,D,2024-05-08_09h23.45.426,attentional_competition_task,2022.2.4,143.95904652885525,
positions.xlsx,positions_test.xlsx,positions_test_new.xlsx,stimuli.xlsx,stimuli_new.xlsx,stimuli/Social4.png,stimuli/Social3.png,stimuli/Nonsocial4.png,stimuli/Nonsocial3.png,stimuli/Social2.png,stimuli/Social1.png,stimuli/Nonsocial2.png,stimuli/Nonsocial1.png,,,"(-0.7, -0.5)",cs_pos_s,"(-0.7, 0.5)",cs_neg_s,"(0.7, -0.5)",cs_neg_ns,"(0.7, 0.5)",cs_pos_ns,0,0,0,0,,,,,,,,,,,,,,,,,,,,,0,21,21,6,,,,,,,,,,,,,,,,,,,,,,,,,,,174,reward,,,,,,1228.2706338999997,1228.2706338999997,1228.2706338999997,1228.2706338999997,0,,,0,,,0,,,0,,,1228.9997911,1228.9997911,1228.9997911,1228.9997911,28,D,2024-05-08_09h23.45.426,attentional_competition_task,2022.2.4,143.95904652885525,
positions.xlsx,positions_test.xlsx,positions_test_new.xlsx,stimuli.xlsx,stimuli_new.xlsx,stimuli/Social4.png,stimuli/Social3.png,stimuli/Nonsocial4.png,stimuli/Nonsocial3.png,stimuli/Social2.png,stimuli/Social1.png,stimuli/Nonsocial2.png,stimuli/Nonsocial1.png,,,"(-0.7, -0.5)",cs_pos_ns,"(-0.7, 0.5)",cs_neg_s,"(0.7, -0.5)",cs_neg_ns,"(0.7, 0.5)",cs_pos_s,0,0,0,0,,,,,,,,,,,,,,,,,,,,,0,22,22,23,,,,,,,,,,,,,,,,,,,,,,,,,,,183,reward,,,,,,1236.9439619000004,1236.9439619000004,1236.9439619000004,1236.9439619000004,0,,,0,,,0,,,0,,,1237.6175171000004,1237.6175171000004,1237.6175171000004,1237.6175171000004,28,D,2024-05-08_09h23.45.426,attentional_competition_task,2022.2.4,143.95904652885525,
positions.xlsx,positions_test.xlsx,positions_test_new.xlsx,stimuli.xlsx,stimuli_new.xlsx,stimuli/Social4.png,stimuli/Social3.png,stimuli/Nonsocial4.png,stimuli/Nonsocial3.png,stimuli/Social2.png,stimuli/Social1.png,stimuli/Nonsocial2.png,stimuli/Nonsocial1.png,,,"(-0.7, -0.5)",cs_neg_s,"(-0.7, 0.5)",cs_pos_ns,"(0.7, -0.5)",cs_neg_ns,"(0.7, 0.5)",cs_pos_s,0,0,0,0,,,,,,,,,,,,,,,,,,,,,0,23,23,5,,,,,,,,,,,,,,,,,,,,,,,,,,,186,reward,,,,,,1245.2560853000004,1245.2560853000004,1245.2560853000004,1245.2560853000004,0,,,1,0.022724200000084238,0.022728799999640614,0,,,0,,,1245.2560853000004,1245.2560853000004,1245.2560853000004,1245.2560853000004,28,D,2024-05-08_09h23.45.426,attentional_competition_task,2022.2.4,143.95904652885525,
positions.xlsx,positions_test.xlsx,positions_test_new.xlsx,stimuli.xlsx,stimuli_new.xlsx,stimuli/Social4.png,stimuli/Social3.png,stimuli/Nonsocial4.png,stimuli/Nonsocial3.png,stimuli/Social2.png,stimuli/Social1.png,stimuli/Nonsocial2.png,stimuli/Nonsocial1.png,,,"(-0.7, -0.5)",cs_neg_s,"(-0.7, 0.5)",cs_pos_s,"(0.7, -0.5)",cs_neg_ns,"(0.7, 0.5)",cs_pos_ns,0,0,0,0,,,,,,,,,,,,,,,,,,,,,1,0,24,0,,,,,,,,,,,,,,,,,,,,,,,,,,,195,reward,,,,,,1255.2486989,1255.2486989,1255.2486989,1255.2486989,0,,,0,,,0,,,1,0.02252139999927749,0.022525899999891408,1255.2486989,1255.2486989,1255.2486989,1255.2486989,28,D,2024-05-08_09h23.45.426,attentional_competition_task,2022.2.4,143.95904652885525,
positions.xlsx,positions_test.xlsx,positions_test_new.xlsx,stimuli.xlsx,stimuli_new.xlsx,stimuli/Social4.png,stimuli/Social3.png,stimuli/Nonsocial4.png,stimuli/Nonsocial3.png,stimuli/Social2.png,stimuli/Social1.png,stimuli/Nonsocial2.png,stimuli/Nonsocial1.png,,,"(-0.7, -0.5)",cs_pos_ns,"(-0.7, 0.5)",cs_neg_s,"(0.7, -0.5)",cs_pos_s,"(0.7, 0.5)",cs_neg_ns,0,0,0,0,,,,,,,,,,,,,,,,,,,,,1,1,25,22,,,,,,,,,,,,,,,,,,,,,,,,,,,204,reward,,,,,,1263.8733534000003,1263.8733534000003,1263.8733534000003,1263.8733534000003,0,,,0,,,1,0.03014050000001589,0.030145299999276176,0,,,1263.8733534000003,1263.8733534000003,1263.8733534000003,1263.8733534000003,28,D,2024-05-08_09h23.45.426,attentional_competition_task,2022.2.4,143.95904652885525,
positions.xlsx,positions_test.xlsx,positions_test_new.xlsx,stimuli.xlsx,stimuli_new.xlsx,stimuli/Social4.png,stimuli/Social3.png,stimuli/Nonsocial4.png,stimuli/Nonsocial3.png,stimuli/Social2.png,stimuli/Social1.png,stimuli/Nonsocial2.png,stimuli/Nonsocial1.png,,,"(-0.7, -0.5)",cs_neg_ns,"(-0.7, 0.5)",cs_pos_s,"(0.7, -0.5)",cs_pos_ns,"(0.7, 0.5)",cs_neg_s,0,0,0,0,,,,,,,,,,,,,,,,,,,,,1,2,26,13,,,,,,,,,,,,,,,,,,,,,,,,,,,207,reward,,,,,,1271.4632856999997,1271.4632856999997,1271.4632856999997,1271.4632856999997,0,,,0,,,1,0.023673800000324263,0.02367789999971137,0,,,1271.4632856999997,1271.4632856999997,1271.4632856999997,1271.4632856999997,28,D,2024-05-08_09h23.45.426,attentional_competition_task,2022.2.4,143.95904652885525,
positions.xlsx,positions_test.xlsx,positions_test_new.xlsx,stimuli.xlsx,stimuli_new.xlsx,stimuli/Social4.png,stimuli/Social3.png,stimuli/Nonsocial4.png,stimuli/Nonsocial3.png,stimuli/Social2.png,stimuli/Social1.png,stimuli/Nonsocial2.png,stimuli/Nonsocial1.png,,,"(-0.7, -0.5)",cs_pos_s,"(-0.7, 0.5)",cs_neg_s,"(0.7, -0.5)",cs_pos_ns,"(0.7, 0.5)",cs_neg_ns,0,0,0,0,,,,,,,,,,,,,,,,,,,,,1,3,27,7,,,,,,,,,,,,,,,,,,,,,,,,,,,213,reward,,,,,,1279.9629501,1279.9629501,1279.9629501,1279.9629501,0,,,0,,,1,0.029392899999947986,0.029397599999356316,0,,,1279.9629501,1279.9629501,1279.9629501,1279.9629501,28,D,2024-05-08_09h23.45.426,attentional_competition_task,2022.2.4,143.95904652885525,
positions.xlsx,positions_test.xlsx,positions_test_new.xlsx,stimuli.xlsx,stimuli_new.xlsx,stimuli/Social4.png,stimuli/Social3.png,stimuli/Nonsocial4.png,stimuli/Nonsocial3.png,stimuli/Social2.png,stimuli/Social1.png,stimuli/Nonsocial2.png,stimuli/Nonsocial1.png,,,"(-0.7, -0.5)",cs_neg_s,"(-0.7, 0.5)",cs_pos_ns,"(0.7, -0.5)",cs_pos_s,"(0.7, 0.5)",cs_neg_ns,0,0,0,0,,,,,,,,,,,,,,,,,,,,,1,4,28,4,,,,,,,,,,,,,,,,,,,,,,,,,,,222,reward,,,,,,1288.9347801000004,1288.9347801000004,1288.9347801000004,1288.9347801000004,0,,,1,0.028962700000192854,0.28679620000002615,0,,,0,,,1289.7264259000003,1289.7264259000003,1289.7264259000003,1289.7264259000003,28,D,2024-05-08_09h23.45.426,attentional_competition_task,2022.2.4,143.95904652885525,
positions.xlsx,positions_test.xlsx,positions_test_new.xlsx,stimuli.xlsx,stimuli_new.xlsx,stimuli/Social4.png,stimuli/Social3.png,stimuli/Nonsocial4.png,stimuli/Nonsocial3.png,stimuli/Social2.png,stimuli/Social1.png,stimuli/Nonsocial2.png,stimuli/Nonsocial1.png,,,"(-0.7, -0.5)",cs_neg_ns,"(-0.7, 0.5)",cs_neg_s,"(0.7, -0.5)",cs_pos_s,"(0.7, 0.5)",cs_pos_ns,0,0,0,0,,,,,,,,,,,,,,,,,,,,,1,5,29,14,,,,,,,,,,,,,,,,,,,,,,,,,,,228,reward,,,,,,1296.1775849000005,1296.1775849000005,1296.1775849000005,1296.1775849000005,0,,,0,,,1,0.2741316999999981,0.2819176000002699,1,0.393293299999641,0.3932980999998108,1296.5664606999999,1296.5664606999999,1296.5664606999999,1296.5664606999999,28,D,2024-05-08_09h23.45.426,attentional_competition_task,2022.2.4,143.95904652885525,
positions.xlsx,positions_test.xlsx,positions_test_new.xlsx,stimuli.xlsx,stimuli_new.xlsx,stimuli/Social4.png,stimuli/Social3.png,stimuli/Nonsocial4.png,stimuli/Nonsocial3.png,stimuli/Social2.png,stimuli/Social1.png,stimuli/Nonsocial2.png,stimuli/Nonsocial1.png,,,"(-0.7, -0.5)",cs_pos_ns,"(-0.7, 0.5)",cs_neg_ns,"(0.7, -0.5)",cs_neg_s,"(0.7, 0.5)",cs_pos_s,0,0,0,0,,,,,,,,,,,,,,,,,,,,,1,6,30,21,,,,,,,,,,,,,,,,,,,,,,,,,,,228,reward,,,,,,1305.6216673,1305.6216673,1305.6216673,1305.6216673,0,,,0,,,0,,,1,0.030267400000411726,0.030285200000434997,1305.6216673,1305.6216673,1305.6216673,1305.6216673,28,D,2024-05-08_09h23.45.426,attentional_competition_task,2022.2.4,143.95904652885525,
positions.xlsx,positions_test.xlsx,positions_test_new.xlsx,stimuli.xlsx,stimuli_new.xlsx,stimuli/Social4.png,stimuli/Social3.png,stimuli/Nonsocial4.png,stimuli/Nonsocial3.png,stimuli/Social2.png,stimuli/Social1.png,stimuli/Nonsocial2.png,stimuli/Nonsocial1.png,,,"(-0.7, -0.5)",cs_pos_s,"(-0.7, 0.5)",cs_neg_ns,"(0.7, -0.5)",cs_neg_s,"(0.7, 0.5)",cs_pos_ns,0,0,0,0,,,,,,,,,,,,,,,,,,,,,1,7,31,8,,,,,,,,,,,,,,,,,,,,,,,,,,,231,reward,,,,,,1312.0241046,1312.0241046,1312.0241046,1312.0241046,3,1.8836648999995305,1.8908861999998408,0,,,0,,,0,,,1313.9546610999996,1313.9546610999996,1313.9546610999996,1313.9546610999996,28,D,2024-05-08_09h23.45.426,attentional_competition_task,2022.2.4,143.95904652885525,
positions.xlsx,positions_test.xlsx,positions_test_new.xlsx,stimuli.xlsx,stimuli_new.xlsx,stimuli/Social4.png,stimuli/Social3.png,stimuli/Nonsocial4.png,stimuli/Nonsocial3.png,stimuli/Social2.png,stimuli/Social1.png,stimuli/Nonsocial2.png,stimuli/Nonsocial1.png,,,"(-0.7, -0.5)",cs_pos_ns,"(-0.7, 0.5)",cs_neg_ns,"(0.7, -0.5)",cs_pos_s,"(0.7, 0.5)",cs_neg_s,0,0,0,0,,,,,,,,,,,,,,,,,,,,,1,8,32,20,,,,,,,,,,,,,,,,,,,,,,,,,,,237,reward,,,,,,1321.593186,1321.593186,1321.593186,1321.593186,0,,,0,,,0,,,0,,,1322.9056948999996,1322.9056948999996,1322.9056948999996,1322.9056948999996,28,D,2024-05-08_09h23.45.426,attentional_competition_task,2022.2.4,143.95904652885525,
positions.xlsx,positions_test.xlsx,positions_test_new.xlsx,stimuli.xlsx,stimuli_new.xlsx,stimuli/Social4.png,stimuli/Social3.png,stimuli/Nonsocial4.png,stimuli/Nonsocial3.png,stimuli/Social2.png,stimuli/Social1.png,stimuli/Nonsocial2.png,stimuli/Nonsocial1.png,,,"(-0.7, -0.5)",cs_neg_ns,"(-0.7, 0.5)",cs_pos_ns,"(0.7, -0.5)",cs_pos_s,"(0.7, 0.5)",cs_neg_s,0,0,0,0,,,,,,,,,,,,,,,,,,,,,1,9,33,16,,,,,,,,,,,,,,,,,,,,,,,,,,,243,reward,,,,,,1331.0233491,1331.0233491,1331.0233491,1331.0233491,0,,,0,,,1,0.02878340000006574,0.028789099999812606,0,,,1331.0233491,1331.0233491,1331.0233491,1331.0233491,28,D,2024-05-08_09h23.45.426,attentional_competition_task,2022.2.4,143.95904652885525,
positions.xlsx,positions_test.xlsx,positions_test_new.xlsx,stimuli.xlsx,stimuli_new.xlsx,stimuli/Social4.png,stimuli/Social3.png,stimuli/Nonsocial4.png,stimuli/Nonsocial3.png,stimuli/Social2.png,stimuli/Social1.png,stimuli/Nonsocial2.png,stimuli/Nonsocial1.png,,,"(-0.7, -0.5)",cs_pos_s,"(-0.7, 0.5)",cs_neg_s,"(0.7, -0.5)",cs_neg_ns,"(0.7, 0.5)",cs_pos_ns,0,0,0,0,,,,,,,,,,,,,,,,,,,,,1,10,34,6,,,,,,,,,,,,,,,,,,,,,,,,,,,249,reward,,,,,,1339.0716121000005,1339.0716121000005,1339.0716121000005,1339.0716121000005,0,,,0,,,0,,,0,,,1339.738268,1339.738268,1339.738268,1339.738268,28,D,2024-05-08_09h23.45.426,attentional_competition_task,2022.2.4,143.95904652885525,
positions.xlsx,positions_test.xlsx,positions_test_new.xlsx,stimuli.xlsx,stimuli_new.xlsx,stimuli/Social4.png,stimuli/Social3.png,stimuli/Nonsocial4.png,stimuli/Nonsocial3.png,stimuli/Social2.png,stimuli/Social1.png,stimuli/Nonsocial2.png,stimuli/Nonsocial1.png,,,"(-0.7, -0.5)",cs_neg_ns,"(-0.7, 0.5)",cs_pos_s,"(0.7, -0.5)",cs_neg_s,"(0.7, 0.5)",cs_pos_ns,0,0,0,0,,,,,,,,,,,,,,,,,,,,,1,11,35,12,,,,,,,,,,,,,,,,,,,,,,,,,,,255,reward,,,,,,1347.3213599,1347.3213599,1347.3213599,1347.3213599,0,,,1,0.029096299999764597,0.0291004000000612,0,,,0,,,1347.3213599,1347.3213599,1347.3213599,1347.3213599,28,D,2024-05-08_09h23.45.426,attentional_competition_task,2022.2.4,143.95904652885525,
positions.xlsx,positions_test.xlsx,positions_test_new.xlsx,stimuli.xlsx,stimuli_new.xlsx,stimuli/Social4.png,stimuli/Social3.png,stimuli/Nonsocial4.png,stimuli/Nonsocial3.png,stimuli/Social2.png,stimuli/Social1.png,stimuli/Nonsocial2.png,stimuli/Nonsocial1.png,,,"(-0.7, -0.5)",cs_neg_ns,"(-0.7, 0.5)",cs_neg_s,"(0.7, -0.5)",cs_pos_ns,"(0.7, 0.5)",cs_pos_s,0,0,0,0,,,,,,,,,,,,,,,,,,,,,1,12,36,15,,,,,,,,,,,,,,,,,,,,,,,,,,,264,reward,,,,,,1355.7793552000003,1355.7793552000003,1355.7793552000003,1355.7793552000003,0,,,0,,,0,,,0,,,1356.4529105000001,1356.4529105000001,1356.4529105000001,1356.4529105000001,28,D,2024-05-08_09h23.45.426,attentional_competition_task,2022.2.4,143.95904652885525,
positions.xlsx,positions_test.xlsx,positions_test_new.xlsx,stimuli.xlsx,stimuli_new.xlsx,stimuli/Social4.png,stimuli/Social3.png,stimuli/Nonsocial4.png,stimuli/Nonsocial3.png,stimuli/Social2.png,stimuli/Social1.png,stimuli/Nonsocial2.png,stimuli/Nonsocial1.png,,,"(-0.7, -0.5)",cs_pos_ns,"(-0.7, 0.5)",cs_pos_s,"(0.7, -0.5)",cs_neg_s,"(0.7, 0.5)",cs_neg_ns,0,0,0,0,,,,,,,,,,,,,,,,,,,,,1,13,37,19,,,,,,,,,,,,,,,,,,,,,,,,,,,273,reward,,,,,,1364.2928190000002,1364.2928190000002,1364.2928190000002,1364.2928190000002,1,0.024287899999762885,0.20528329999979178,0,,,0,,,0,,,1365.0011321000002,1365.0011321000002,1365.0011321000002,1365.0011321000002,28,D,2024-05-08_09h23.45.426,attentional_competition_task,2022.2.4,143.95904652885525,
positions.xlsx,positions_test.xlsx,positions_test_new.xlsx,stimuli.xlsx,stimuli_new.xlsx,stimuli/Social4.png,stimuli/Social3.png,stimuli/Nonsocial4.png,stimuli/Nonsocial3.png,stimuli/Social2.png,stimuli/Social1.png,stimuli/Nonsocial2.png,stimuli/Nonsocial1.png,,,"(-0.7, -0.5)",cs_neg_s,"(-0.7, 0.5)",cs_neg_ns,"(0.7, -0.5)",cs_pos_ns,"(0.7, 0.5)",cs_pos_s,0,0,0,0,,,,,,,,,,,,,,,,,,,,,1,14,38,3,,,,,,,,,,,,,,,,,,,,,,,,,,,279,reward,,,,,,1372.3411065,1372.3411065,1372.3411065,1372.3411065,0,,,0,,,1,0.029815699999744538,0.02982019999944896,0,,,1372.3411065,1372.3411065,1372.3411065,1372.3411065,28,D,2024-05-08_09h23.45.426,attentional_competition_task,2022.2.4,143.95904652885525,
positions.xlsx,positions_test.xlsx,positions_test_new.xlsx,stimuli.xlsx,stimuli_new.xlsx,stimuli/Social4.png,stimuli/Social3.png,stimuli/Nonsocial4.png,stimuli/Nonsocial3.png,stimuli/Social2.png,stimuli/Social1.png,stimuli/Nonsocial2.png,stimuli/Nonsocial1.png,,,"(-0.7, -0.5)",cs_pos_s,"(-0.7, 0.5)",cs_neg_ns,"(0.7, -0.5)",cs_pos_ns,"(0.7, 0.5)",cs_neg_s,0,0,0,0,,,,,,,,,,,,,,,,,,,,,1,15,39,9,,,,,,,,,,,,,,,,,,,,,,,,,,,285,reward,,,,,,1381.0282588999999,1381.0282588999999,1381.0282588999999,1381.0282588999999,1,0.21811080000043148,0.21811539999998786,0,,,0,,,0,,,1381.2435523000004,1381.2435523000004,1381.2435523000004,1381.2435523000004,28,D,2024-05-08_09h23.45.426,attentional_competition_task,2022.2.4,143.95904652885525,
positions.xlsx,positions_test.xlsx,positions_test_new.xlsx,stimuli.xlsx,stimuli_new.xlsx,stimuli/Social4.png,stimuli/Social3.png,stimuli/Nonsocial4.png,stimuli/Nonsocial3.png,stimuli/Social2.png,stimuli/Social1.png,stimuli/Nonsocial2.png,stimuli/Nonsocial1.png,,,"(-0.7, -0.5)",cs_pos_s,"(-0.7, 0.5)",cs_pos_ns,"(0.7, -0.5)",cs_neg_s,"(0.7, 0.5)",cs_neg_ns,0,0,0,0,,,,,,,,,,,,,,,,,,,,,1,16,40,10,,,,,,,,,,,,,,,,,,,,,,,,,,,291,reward,,,,,,1389.3820662999997,1389.3820662999997,1389.3820662999997,1389.3820662999997,0,,,1,0.03028360000007524,0.030288199999631615,0,,,0,,,1389.3820662999997,1389.3820662999997,1389.3820662999997,1389.3820662999997,28,D,2024-05-08_09h23.45.426,attentional_competition_task,2022.2.4,143.95904652885525,
positions.xlsx,positions_test.xlsx,positions_test_new.xlsx,stimuli.xlsx,stimuli_new.xlsx,stimuli/Social4.png,stimuli/Social3.png,stimuli/Nonsocial4.png,stimuli/Nonsocial3.png,stimuli/Social2.png,stimuli/Social1.png,stimuli/Nonsocial2.png,stimuli/Nonsocial1.png,,,"(-0.7, -0.5)",cs_pos_ns,"(-0.7, 0.5)",cs_pos_s,"(0.7, -0.5)",cs_neg_ns,"(0.7, 0.5)",cs_neg_s,0,0,0,0,,,,,,,,,,,,,,,,,,,,,1,17,41,18,,,,,,,,,,,,,,,,,,,,,,,,,,,300,reward,,,,,,1398.3677424999996,1398.3677424999996,1398.3677424999996,1398.3677424999996,0,,,1,0.024737200000345183,0.052271700000346755,0,,,0,,,1398.9164170000004,1398.9164170000004,1398.9164170000004,1398.9164170000004,28,D,2024-05-08_09h23.45.426,attentional_competition_task,2022.2.4,143.95904652885525,
positions.xlsx,positions_test.xlsx,positions_test_new.xlsx,stimuli.xlsx,stimuli_new.xlsx,stimuli/Social4.png,stimuli/Social3.png,stimuli/Nonsocial4.png,stimuli/Nonsocial3.png,stimuli/Social2.png,stimuli/Social1.png,stimuli/Nonsocial2.png,stimuli/Nonsocial1.png,,,"(-0.7, -0.5)",cs_neg_s,"(-0.7, 0.5)",cs_pos_s,"(0.7, -0.5)",cs_pos_ns,"(0.7, 0.5)",cs_neg_ns,0,0,0,0,,,,,,,,,,,,,,,,,,,,,1,18,42,1,,,,,,,,,,,,,,,,,,,,,,,,,,,306,reward,,,,,,1405.9022378,1405.9022378,1405.9022378,1405.9022378,0,,,0,,,1,0.5658396000007997,0.5721934000002875,0,,,1406.4786089,1406.4786089,1406.4786089,1406.4786089,28,D,2024-05-08_09h23.45.426,attentional_competition_task,2022.2.4,143.95904652885525,
positions.xlsx,positions_test.xlsx,positions_test_new.xlsx,stimuli.xlsx,stimuli_new.xlsx,stimuli/Social4.png,stimuli/Social3.png,stimuli/Nonsocial4.png,stimuli/Nonsocial3.png,stimuli/Social2.png,stimuli/Social1.png,stimuli/Nonsocial2.png,stimuli/Nonsocial1.png,,,"(-0.7, -0.5)",cs_neg_ns,"(-0.7, 0.5)",cs_pos_ns,"(0.7, -0.5)",cs_neg_s,"(0.7, 0.5)",cs_pos_s,0,0,0,0,,,,,,,,,,,,,,,,,,,,,1,19,43,17,,,,,,,,,,,,,,,,,,,,,,,,,,,312,reward,,,,,,1415.4295872000002,1415.4295872000002,1415.4295872000002,1415.4295872000002,0,,,0,,,0,,,1,0.02308519999951386,0.023089799999979732,1415.4295872000002,1415.4295872000002,1415.4295872000002,1415.4295872000002,28,D,2024-05-08_09h23.45.426,attentional_competition_task,2022.2.4,143.95904652885525,
positions.xlsx,positions_test.xlsx,positions_test_new.xlsx,stimuli.xlsx,stimuli_new.xlsx,stimuli/Social4.png,stimuli/Social3.png,stimuli/Nonsocial4.png,stimuli/Nonsocial3.png,stimuli/Social2.png,stimuli/Social1.png,stimuli/Nonsocial2.png,stimuli/Nonsocial1.png,,,"(-0.7, -0.5)",cs_neg_s,"(-0.7, 0.5)",cs_pos_ns,"(0.7, -0.5)",cs_neg_ns,"(0.7, 0.5)",cs_pos_s,0,0,0,0,,,,,,,,,,,,,,,,,,,,,1,20,44,5,,,,,,,,,,,,,,,,,,,,,,,,,,,321,reward,,,,,,1423.8459654999997,1423.8459654999997,1423.8459654999997,1423.8459654999997,0,,,1,0.02581129999998666,0.1300136999998358,0,,,0,,,1424.484861,1424.484861,1424.484861,1424.484861,28,D,2024-05-08_09h23.45.426,attentional_competition_task,2022.2.4,143.95904652885525,
positions.xlsx,positions_test.xlsx,positions_test_new.xlsx,stimuli.xlsx,stimuli_new.xlsx,stimuli/Social4.png,stimuli/Social3.png,stimuli/Nonsocial4.png,stimuli/Nonsocial3.png,stimuli/Social2.png,stimuli/Social1.png,stimuli/Nonsocial2.png,stimuli/Nonsocial1.png,,,"(-0.7, -0.5)",cs_pos_s,"(-0.7, 0.5)",cs_pos_ns,"(0.7, -0.5)",cs_neg_ns,"(0.7, 0.5)",cs_neg_s,0,0,0,0,,,,,,,,,,,,,,,,,,,,,1,21,45,11,,,,,,,,,,,,,,,,,,,,,,,,,,,327,reward,,,,,,1432.4358633000002,1432.4358633000002,1432.4358633000002,1432.4358633000002,1,0.029395300000032876,0.029399699999885343,0,,,0,,,0,,,1432.4358633000002,1432.4358633000002,1432.4358633000002,1432.4358633000002,28,D,2024-05-08_09h23.45.426,attentional_competition_task,2022.2.4,143.95904652885525,
positions.xlsx,positions_test.xlsx,positions_test_new.xlsx,stimuli.xlsx,stimuli_new.xlsx,stimuli/Social4.png,stimuli/Social3.png,stimuli/Nonsocial4.png,stimuli/Nonsocial3.png,stimuli/Social2.png,stimuli/Social1.png,stimuli/Nonsocial2.png,stimuli/Nonsocial1.png,,,"(-0.7, -0.5)",cs_pos_ns,"(-0.7, 0.5)",cs_neg_s,"(0.7, -0.5)",cs_neg_ns,"(0.7, 0.5)",cs_pos_s,0,0,0,0,,,,,,,,,,,,,,,,,,,,,1,22,46,23,,,,,,,,,,,,,,,,,,,,,,,,,,,336,reward,,,,,,1440.8660050999997,1440.8660050999997,1440.8660050999997,1440.8660050999997,0,,,0,,,0,,,0,,,1441.4355086000005,1441.4355086000005,1441.4355086000005,1441.4355086000005,28,D,2024-05-08_09h23.45.426,attentional_competition_task,2022.2.4,143.95904652885525,
positions.xlsx,positions_test.xlsx,positions_test_new.xlsx,stimuli.xlsx,stimuli_new.xlsx,stimuli/Social4.png,stimuli/Social3.png,stimuli/Nonsocial4.png,stimuli/Nonsocial3.png,stimuli/Social2.png,stimuli/Social1.png,stimuli/Nonsocial2.png,stimuli/Nonsocial1.png,,,"(-0.7, -0.5)",cs_neg_s,"(-0.7, 0.5)",cs_neg_ns,"(0.7, -0.5)",cs_pos_s,"(0.7, 0.5)",cs_pos_ns,0,0,0,0,,,,,,,,,,,,,,,,,,,,,1,23,47,2,,,,,,,,,,,,,,,,,,,,,,,,,,,345,reward,,,,,,1449.8795578999998,1449.8795578999998,1449.8795578999998,1449.8795578999998,0,,,0,,,0,,,1,0.023369100000309118,0.17007209999974293,1450.5601028,1450.5601028,1450.5601028,1450.5601028,28,D,2024-05-08_09h23.45.426,attentional_competition_task,2022.2.4,143.95904652885525,
positions.xlsx,positions_test.xlsx,positions_test_new.xlsx,stimuli.xlsx,stimuli_new.xlsx,stimuli/Social4.png,stimuli/Social3.png,stimuli/Nonsocial4.png,stimuli/Nonsocial3.png,stimuli/Social2.png,stimuli/Social1.png,stimuli/Nonsocial2.png,stimuli/Nonsocial1.png,,,"(-0.7, -0.5)",cs_neg_ns,"(-0.7, 0.5)",cs_pos_s,"(0.7, -0.5)",cs_pos_ns_new,"(0.7, 0.5)",cs_neg_s,0,0,0,0,,,,,,,,,,,,,,,,,,,,,,,,,,,,,0,0,0,44,0,0,0,0,,,,,,,,,,,,,,,348,reward,,,,,,1457.0945539000004,1457.0945539000004,1457.0945539000004,1457.0945539000004,0,,,1,0.9535226999996667,0.9535270999995191,0,,,0,,,1458.0528391999997,1458.0528391999997,1458.0528391999997,1458.0528391999997,28,D,2024-05-08_09h23.45.426,attentional_competition_task,2022.2.4,143.95904652885525,
positions.xlsx,positions_test.xlsx,positions_test_new.xlsx,stimuli.xlsx,stimuli_new.xlsx,stimuli/Social4.png,stimuli/Social3.png,stimuli/Nonsocial4.png,stimuli/Nonsocial3.png,stimuli/Social2.png,stimuli/Social1.png,stimuli/Nonsocial2.png,stimuli/Nonsocial1.png,,,"(-0.7, -0.5)",cs_neg_ns,"(-0.7, 0.5)",cs_pos_s,"(0.7, -0.5)",cs_pos_ns_new,"(0.7, 0.5)",cs_neg_s,0,0,0,0,,,,,,,,,,,,,,,,,,,,,,,,,,,,,0,0,0,44,1,0,1,0,,,,,,,,,,,,,,,351,reward,,,,,,1458.5875446999999,1458.5875446999999,1458.5875446999999,1458.5875446999999,0,,,0,,,1,0.029963199999656354,0.029967999999826134,0,,,1458.5875446999999,1458.5875446999999,1458.5875446999999,1458.5875446999999,28,D,2024-05-08_09h23.45.426,attentional_competition_task,2022.2.4,143.95904652885525,
positions.xlsx,positions_test.xlsx,positions_test_new.xlsx,stimuli.xlsx,stimuli_new.xlsx,stimuli/Social4.png,stimuli/Social3.png,stimuli/Nonsocial4.png,stimuli/Nonsocial3.png,stimuli/Social2.png,stimuli/Social1.png,stimuli/Nonsocial2.png,stimuli/Nonsocial1.png,,,"(-0.7, -0.5)",cs_neg_ns,"(-0.7, 0.5)",cs_pos_s,"(0.7, -0.5)",cs_pos_ns_new,"(0.7, 0.5)",cs_neg_s,0,0,0,0,,,,,,,,,,,,,,,,,,,,,,,,,,,,,0,0,0,44,2,0,2,0,,,,,,,,,,,,,,,354,reward,,,,,,1459.6084105999998,1459.6084105999998,1459.6084105999998,1459.6084105999998,0,,,0,,,1,0.0234002999995937,0.023404499999742256,0,,,1459.6084105999998,1459.6084105999998,1459.6084105999998,1459.6084105999998,28,D,2024-05-08_09h23.45.426,attentional_competition_task,2022.2.4,143.95904652885525,
positions.xlsx,positions_test.xlsx,positions_test_new.xlsx,stimuli.xlsx,stimuli_new.xlsx,stimuli/Social4.png,stimuli/Social3.png,stimuli/Nonsocial4.png,stimuli/Nonsocial3.png,stimuli/Social2.png,stimuli/Social1.png,stimuli/Nonsocial2.png,stimuli/Nonsocial1.png,,,"(-0.7, -0.5)",cs_neg_ns,"(-0.7, 0.5)",cs_pos_s,"(0.7, -0.5)",cs_pos_ns_new,"(0.7, 0.5)",cs_neg_s,0,0,0,0,,,,,,,,,,,,,,,,,,,,,,,,,,,,,0,0,0,44,,,,,,,,,,,,,,,,,,,,,,,,,,,,,,,,,,,,,,,,,,,,,,28,D,2024-05-08_09h23.45.426,attentional_competition_task,2022.2.4,143.95904652885525,
positions.xlsx,positions_test.xlsx,positions_test_new.xlsx,stimuli.xlsx,stimuli_new.xlsx,stimuli/Social4.png,stimuli/Social3.png,stimuli/Nonsocial4.png,stimuli/Nonsocial3.png,stimuli/Social2.png,stimuli/Social1.png,stimuli/Nonsocial2.png,stimuli/Nonsocial1.png,,,"(-0.7, -0.5)",cs_pos_s,"(-0.7, 0.5)",cs_neg_ns_new,"(0.7, -0.5)",cs_pos_ns,"(0.7, 0.5)",cs_neg_s,0,0,0,0,,,,,,,,,,,,,,,,,,,,,,,,,,,,,0,1,1,21,0,0,0,0,,,,,,,,,,,,,,,357,reward,,,,,,1465.7053036999996,1465.7053036999996,1465.7053036999996,1465.7053036999996,1,1.7171830999996018,1.7237323999997898,0,,,0,,,0,,,1467.4344117,1467.4344117,1467.4344117,1467.4344117,28,D,2024-05-08_09h23.45.426,attentional_competition_task,2022.2.4,143.95904652885525,
positions.xlsx,positions_test.xlsx,positions_test_new.xlsx,stimuli.xlsx,stimuli_new.xlsx,stimuli/Social4.png,stimuli/Social3.png,stimuli/Nonsocial4.png,stimuli/Nonsocial3.png,stimuli/Social2.png,stimuli/Social1.png,stimuli/Nonsocial2.png,stimuli/Nonsocial1.png,,,"(-0.7, -0.5)",cs_pos_s,"(-0.7, 0.5)",cs_neg_ns_new,"(0.7, -0.5)",cs_pos_ns,"(0.7, 0.5)",cs_neg_s,0,0,0,0,,,,,,,,,,,,,,,,,,,,,,,,,,,,,0,1,1,21,,,,,,,,,,,,,,,,,,,,,,,,,,,,,,,,,,,,,,,,,,,,,,28,D,2024-05-08_09h23.45.426,attentional_competition_task,2022.2.4,143.95904652885525,
positions.xlsx,positions_test.xlsx,positions_test_new.xlsx,stimuli.xlsx,stimuli_new.xlsx,stimuli/Social4.png,stimuli/Social3.png,stimuli/Nonsocial4.png,stimuli/Nonsocial3.png,stimuli/Social2.png,stimuli/Social1.png,stimuli/Nonsocial2.png,stimuli/Nonsocial1.png,,,"(-0.7, -0.5)",cs_neg_s_new,"(-0.7, 0.5)",cs_pos_s,"(0.7, -0.5)",cs_neg_ns,"(0.7, 0.5)",cs_pos_ns,0,0,0,0,,,,,,,,,,,,,,,,,,,,,,,,,,,,,0,2,2,15,0,0,0,0,,,,,,,,,,,,,,,354,loss,,,,,,1474.6285349,1474.6285349,1474.6285349,1474.6285349,0,,,0,,,1,1.2727978000002622,1.2728019999995013,0,,,1475.9132277999997,1475.9132277999997,1475.9132277999997,1475.9132277999997,28,D,2024-05-08_09h23.45.426,attentional_competition_task,2022.2.4,143.95904652885525,
positions.xlsx,positions_test.xlsx,positions_test_new.xlsx,stimuli.xlsx,stimuli_new.xlsx,stimuli/Social4.png,stimuli/Social3.png,stimuli/Nonsocial4.png,stimuli/Nonsocial3.png,stimuli/Social2.png,stimuli/Social1.png,stimuli/Nonsocial2.png,stimuli/Nonsocial1.png,,,"(-0.7, -0.5)",cs_neg_s_new,"(-0.7, 0.5)",cs_pos_s,"(0.7, -0.5)",cs_neg_ns,"(0.7, 0.5)",cs_pos_ns,0,0,0,0,,,,,,,,,,,,,,,,,,,,,,,,,,,,,0,2,2,15,1,0,1,0,,,,,,,,,,,,,,,357,reward,,,,,,1476.4132085,1476.4132085,1476.4132085,1476.4132085,0,,,0,,,1,0.02937110000038956,0.0867459000000963,1,0.1422472000003836,0.14225139999962266,1476.5590511999999,1476.5590511999999,1476.5590511999999,1476.5590511999999,28,D,2024-05-08_09h23.45.426,attentional_competition_task,2022.2.4,143.95904652885525,
positions.xlsx,positions_test.xlsx,positions_test_new.xlsx,stimuli.xlsx,stimuli_new.xlsx,stimuli/Social4.png,stimuli/Social3.png,stimuli/Nonsocial4.png,stimuli/Nonsocial3.png,stimuli/Social2.png,stimuli/Social1.png,stimuli/Nonsocial2.png,stimuli/Nonsocial1.png,,,"(-0.7, -0.5)",cs_neg_s_new,"(-0.7, 0.5)",cs_pos_s,"(0.7, -0.5)",cs_neg_ns,"(0.7, 0.5)",cs_pos_ns,0,0,0,0,,,,,,,,,,,,,,,,,,,,,,,,,,,,,0,2,2,15,,,,,,,,,,,,,,,,,,,,,,,,,,,,,,,,,,,,,,,,,,,,,,28,D,2024-05-08_09h23.45.426,attentional_competition_task,2022.2.4,143.95904652885525,
positions.xlsx,positions_test.xlsx,positions_test_new.xlsx,stimuli.xlsx,stimuli_new.xlsx,stimuli/Social4.png,stimuli/Social3.png,stimuli/Nonsocial4.png,stimuli/Nonsocial3.png,stimuli/Social2.png,stimuli/Social1.png,stimuli/Nonsocial2.png,stimuli/Nonsocial1.png,,,"(-0.7, -0.5)",cs_pos_s,"(-0.7, 0.5)",cs_pos_ns,"(0.7, -0.5)",cs_neg_ns,"(0.7, 0.5)",cs_neg_s_new,0,0,0,0,,,,,,,,,,,,,,,,,,,,,,,,,,,,,0,3,3,13,0,0,0,0,,,,,,,,,,,,,,,354,loss,,,,,,1482.3504582000005,1482.3504582000005,1482.3504582000005,1482.3504582000005,0,,,0,,,1,1.9814747999998872,1.9879139000004216,0,,,1484.8434120000002,1484.8434120000002,1484.8434120000002,1484.8434120000002,28,D,2024-05-08_09h23.45.426,attentional_competition_task,2022.2.4,143.95904652885525,
positions.xlsx,positions_test.xlsx,positions_test_new.xlsx,stimuli.xlsx,stimuli_new.xlsx,stimuli/Social4.png,stimuli/Social3.png,stimuli/Nonsocial4.png,stimuli/Nonsocial3.png,stimuli/Social2.png,stimuli/Social1.png,stimuli/Nonsocial2.png,stimuli/Nonsocial1.png,,,"(-0.7, -0.5)",cs_pos_s,"(-0.7, 0.5)",cs_pos_ns,"(0.7, -0.5)",cs_neg_ns,"(0.7, 0.5)",cs_neg_s_new,0,0,0,0,,,,,,,,,,,,,,,,,,,,,,,,,,,,,0,3,3,13,,,,,,,,,,,,,,,,,,,,,,,,,,,,,,,,,,,,,,,,,,,,,,28,D,2024-05-08_09h23.45.426,attentional_competition_task,2022.2.4,143.95904652885525,
positions.xlsx,positions_test.xlsx,positions_test_new.xlsx,stimuli.xlsx,stimuli_new.xlsx,stimuli/Social4.png,stimuli/Social3.png,stimuli/Nonsocial4.png,stimuli/Nonsocial3.png,stimuli/Social2.png,stimuli/Social1.png,stimuli/Nonsocial2.png,stimuli/Nonsocial1.png,,,"(-0.7, -0.5)",cs_neg_s_new,"(-0.7, 0.5)",cs_neg_ns,"(0.7, -0.5)",cs_pos_s,"(0.7, 0.5)",cs_pos_ns,0,0,0,0,,,,,,,,,,,,,,,,,,,,,,,,,,,,,0,4,4,17,0,0,0,0,,,,,,,,,,,,,,,357,reward,,,,,,1490.8154163,1490.8154163,1490.8154163,1490.8154163,0,,,0,,,1,1.377726700000494,1.3777311000003465,0,,,1492.1972440999998,1492.1972440999998,1492.1972440999998,1492.1972440999998,28,D,2024-05-08_09h23.45.426,attentional_competition_task,2022.2.4,143.95904652885525,
positions.xlsx,positions_test.xlsx,positions_test_new.xlsx,stimuli.xlsx,stimuli_new.xlsx,stimuli/Social4.png,stimuli/Social3.png,stimuli/Nonsocial4.png,stimuli/Nonsocial3.png,stimuli/Social2.png,stimuli/Social1.png,stimuli/Nonsocial2.png,stimuli/Nonsocial1.png,,,"(-0.7, -0.5)",cs_neg_s_new,"(-0.7, 0.5)",cs_neg_ns,"(0.7, -0.5)",cs_pos_s,"(0.7, 0.5)",cs_pos_ns,0,0,0,0,,,,,,,,,,,,,,,,,,,,,,,,,,,,,0,4,4,17,1,0,1,0,,,,,,,,,,,,,,,360,reward,,,,,,1492.7250943999998,1492.7250943999998,1492.7250943999998,1492.7250943999998,0,,,0,,,0,,,1,0.029699900000196067,0.029704500000661938,1492.7250943999998,1492.7250943999998,1492.7250943999998,1492.7250943999998,28,D,2024-05-08_09h23.45.426,attentional_competition_task,2022.2.4,143.95904652885525,
positions.xlsx,positions_test.xlsx,positions_test_new.xlsx,stimuli.xlsx,stimuli_new.xlsx,stimuli/Social4.png,stimuli/Social3.png,stimuli/Nonsocial4.png,stimuli/Nonsocial3.png,stimuli/Social2.png,stimuli/Social1.png,stimuli/Nonsocial2.png,stimuli/Nonsocial1.png,,,"(-0.7, -0.5)",cs_neg_s_new,"(-0.7, 0.5)",cs_neg_ns,"(0.7, -0.5)",cs_pos_s,"(0.7, 0.5)",cs_pos_ns,0,0,0,0,,,,,,,,,,,,,,,,,,,,,,,,,,,,,0,4,4,17,,,,,,,,,,,,,,,,,,,,,,,,,,,,,,,,,,,,,,,,,,,,,,28,D,2024-05-08_09h23.45.426,attentional_competition_task,2022.2.4,143.95904652885525,
positions.xlsx,positions_test.xlsx,positions_test_new.xlsx,stimuli.xlsx,stimuli_new.xlsx,stimuli/Social4.png,stimuli/Social3.png,stimuli/Nonsocial4.png,stimuli/Nonsocial3.png,stimuli/Social2.png,stimuli/Social1.png,stimuli/Nonsocial2.png,stimuli/Nonsocial1.png,,,"(-0.7, -0.5)",cs_neg_s,"(-0.7, 0.5)",cs_pos_s,"(0.7, -0.5)",cs_neg_ns,"(0.7, 0.5)",cs_pos_ns,0,0,0,0,,,,,,,,,,,,,,,,,,,,,,,,,,,,,0,5,5,5,0,0,0,0,,,,,,,,,,,,,,,363,reward,,,,,,1500.1969211000005,1500.1969211000005,1500.1969211000005,1500.1969211000005,0,,,1,0.911514100000204,0.9186693999999989,0,,,0,,,1501.1205160999998,1501.1205160999998,1501.1205160999998,1501.1205160999998,28,D,2024-05-08_09h23.45.426,attentional_competition_task,2022.2.4,143.95904652885525,
positions.xlsx,positions_test.xlsx,positions_test_new.xlsx,stimuli.xlsx,stimuli_new.xlsx,stimuli/Social4.png,stimuli/Social3.png,stimuli/Nonsocial4.png,stimuli/Nonsocial3.png,stimuli/Social2.png,stimuli/Social1.png,stimuli/Nonsocial2.png,stimuli/Nonsocial1.png,,,"(-0.7, -0.5)",cs_neg_s,"(-0.7, 0.5)",cs_pos_s,"(0.7, -0.5)",cs_neg_ns,"(0.7, 0.5)",cs_pos_ns,0,0,0,0,,,,,,,,,,,,,,,,,,,,,,,,,,,,,0,5,5,5,1,0,1,0,,,,,,,,,,,,,,,366,reward,,,,,,1501.620503,1501.620503,1501.620503,1501.620503,0,,,0,,,0,,,1,0.07905889999983629,0.0790631999998368,1501.7107764000002,1501.7107764000002,1501.7107764000002,1501.7107764000002,28,D,2024-05-08_09h23.45.426,attentional_competition_task,2022.2.4,143.95904652885525,
positions.xlsx,positions_test.xlsx,positions_test_new.xlsx,stimuli.xlsx,stimuli_new.xlsx,stimuli/Social4.png,stimuli/Social3.png,stimuli/Nonsocial4.png,stimuli/Nonsocial3.png,stimuli/Social2.png,stimuli/Social1.png,stimuli/Nonsocial2.png,stimuli/Nonsocial1.png,,,"(-0.7, -0.5)",cs_neg_s,"(-0.7, 0.5)",cs_pos_s,"(0.7, -0.5)",cs_neg_ns,"(0.7, 0.5)",cs_pos_ns,0,0,0,0,,,,,,,,,,,,,,,,,,,,,,,,,,,,,0,5,5,5,2,0,2,0,,,,,,,,,,,,,,,363,loss,,,,,,1502.7315939,1502.7315939,1502.7315939,1502.7315939,0,,,0,,,1,0.025666000000455824,0.025670800000625604,0,,,1502.7315939,1502.7315939,1502.7315939,1502.7315939,28,D,2024-05-08_09h23.45.426,attentional_competition_task,2022.2.4,143.95904652885525,
positions.xlsx,positions_test.xlsx,positions_test_new.xlsx,stimuli.xlsx,stimuli_new.xlsx,stimuli/Social4.png,stimuli/Social3.png,stimuli/Nonsocial4.png,stimuli/Nonsocial3.png,stimuli/Social2.png,stimuli/Social1.png,stimuli/Nonsocial2.png,stimuli/Nonsocial1.png,,,"(-0.7, -0.5)",cs_neg_s,"(-0.7, 0.5)",cs_pos_s,"(0.7, -0.5)",cs_neg_ns,"(0.7, 0.5)",cs_pos_ns,0,0,0,0,,,,,,,,,,,,,,,,,,,,,,,,,,,,,0,5,5,5,,,,,,,,,,,,,,,,,,,,,,,,,,,,,,,,,,,,,,,,,,,,,,28,D,2024-05-08_09h23.45.426,attentional_competition_task,2022.2.4,143.95904652885525,
positions.xlsx,positions_test.xlsx,positions_test_new.xlsx,stimuli.xlsx,stimuli_new.xlsx,stimuli/Social4.png,stimuli/Social3.png,stimuli/Nonsocial4.png,stimuli/Nonsocial3.png,stimuli/Social2.png,stimuli/Social1.png,stimuli/Nonsocial2.png,stimuli/Nonsocial1.png,,,"(-0.7, -0.5)",cs_pos_ns_new,"(-0.7, 0.5)",cs_neg_s,"(0.7, -0.5)",cs_neg_ns,"(0.7, 0.5)",cs_pos_s,0,0,0,0,,,,,,,,,,,,,,,,,,,,,,,,,,,,,0,6,6,38,0,0,0,0,,,,,,,,,,,,,,,366,reward,,,,,,1508.4535415,1508.4535415,1508.4535415,1508.4535415,1,1.2797618999993574,1.2797665999996752,0,,,0,,,0,,,1509.738249,1509.738249,1509.738249,1509.738249,28,D,2024-05-08_09h23.45.426,attentional_competition_task,2022.2.4,143.95904652885525,
positions.xlsx,positions_test.xlsx,positions_test_new.xlsx,stimuli.xlsx,stimuli_new.xlsx,stimuli/Social4.png,stimuli/Social3.png,stimuli/Nonsocial4.png,stimuli/Nonsocial3.png,stimuli/Social2.png,stimuli/Social1.png,stimuli/Nonsocial2.png,stimuli/Nonsocial1.png,,,"(-0.7, -0.5)",cs_pos_ns_new,"(-0.7, 0.5)",cs_neg_s,"(0.7, -0.5)",cs_neg_ns,"(0.7, 0.5)",cs_pos_s,0,0,0,0,,,,,,,,,,,,,,,,,,,,,,,,,,,,,0,6,6,38,1,0,1,0,,,,,,,,,,,,,,,369,reward,,,,,,1510.2728967000003,1510.2728967000003,1510.2728967000003,1510.2728967000003,0,,,0,,,0,,,1,0.03040939999937109,0.030414099999688915,1510.2728967000003,1510.2728967000003,1510.2728967000003,1510.2728967000003,28,D,2024-05-08_09h23.45.426,attentional_competition_task,2022.2.4,143.95904652885525,
positions.xlsx,positions_test.xlsx,positions_test_new.xlsx,stimuli.xlsx,stimuli_new.xlsx,stimuli/Social4.png,stimuli/Social3.png,stimuli/Nonsocial4.png,stimuli/Nonsocial3.png,stimuli/Social2.png,stimuli/Social1.png,stimuli/Nonsocial2.png,stimuli/Nonsocial1.png,,,"(-0.7, -0.5)",cs_pos_ns_new,"(-0.7, 0.5)",cs_neg_s,"(0.7, -0.5)",cs_neg_ns,"(0.7, 0.5)",cs_pos_s,0,0,0,0,,,,,,,,,,,,,,,,,,,,,,,,,,,,,0,6,6,38,,,,,,,,,,,,,,,,,,,,,,,,,,,,,,,,,,,,,,,,,,,,,,28,D,2024-05-08_09h23.45.426,attentional_competition_task,2022.2.4,143.95904652885525,
positions.xlsx,positions_test.xlsx,positions_test_new.xlsx,stimuli.xlsx,stimuli_new.xlsx,stimuli/Social4.png,stimuli/Social3.png,stimuli/Nonsocial4.png,stimuli/Nonsocial3.png,stimuli/Social2.png,stimuli/Social1.png,stimuli/Nonsocial2.png,stimuli/Nonsocial1.png,,,"(-0.7, -0.5)",cs_neg_s,"(-0.7, 0.5)",cs_neg_ns_new,"(0.7, -0.5)",cs_pos_ns,"(0.7, 0.5)",cs_pos_s,0,0,0,0,,,,,,,,,,,,,,,,,,,,,,,,,,,,,0,7,7,19,0,0,0,0,,,,,,,,,,,,,,,372,reward,,,,,,1517.2170818000004,1517.2170818000004,1517.2170818000004,1517.2170818000004,0,,,0,,,1,0.6202567000000272,0.620261400000345,0,,,1517.8421011,1517.8421011,1517.8421011,1517.8421011,28,D,2024-05-08_09h23.45.426,attentional_competition_task,2022.2.4,143.95904652885525,
positions.xlsx,positions_test.xlsx,positions_test_new.xlsx,stimuli.xlsx,stimuli_new.xlsx,stimuli/Social4.png,stimuli/Social3.png,stimuli/Nonsocial4.png,stimuli/Nonsocial3.png,stimuli/Social2.png,stimuli/Social1.png,stimuli/Nonsocial2.png,stimuli/Nonsocial1.png,,,"(-0.7, -0.5)",cs_neg_s,"(-0.7, 0.5)",cs_neg_ns_new,"(0.7, -0.5)",cs_pos_ns,"(0.7, 0.5)",cs_pos_s,0,0,0,0,,,,,,,,,,,,,,,,,,,,,,,,,,,,,0,7,7,19,1,0,1,0,,,,,,,,,,,,,,,375,reward,,,,,,1518.3767902,1518.3767902,1518.3767902,1518.3767902,0,,,0,,,0,,,1,0.03158439999970142,0.03158910000001924,1518.3767902,1518.3767902,1518.3767902,1518.3767902,28,D,2024-05-08_09h23.45.426,attentional_competition_task,2022.2.4,143.95904652885525,
positions.xlsx,positions_test.xlsx,positions_test_new.xlsx,stimuli.xlsx,stimuli_new.xlsx,stimuli/Social4.png,stimuli/Social3.png,stimuli/Nonsocial4.png,stimuli/Nonsocial3.png,stimuli/Social2.png,stimuli/Social1.png,stimuli/Nonsocial2.png,stimuli/Nonsocial1.png,,,"(-0.7, -0.5)",cs_neg_s,"(-0.7, 0.5)",cs_neg_ns_new,"(0.7, -0.5)",cs_pos_ns,"(0.7, 0.5)",cs_pos_s,0,0,0,0,,,,,,,,,,,,,,,,,,,,,,,,,,,,,0,7,7,19,2,0,2,0,,,,,,,,,,,,,,,378,reward,,,,,,1518.8836706000002,1518.8836706000002,1518.8836706000002,1518.8836706000002,0,,,0,,,1,0.030644999999822176,0.2385844000000361,1,0.26697539999986475,0.34996289999980945,1519.7308744000002,1519.7308744000002,1519.7308744000002,1519.7308744000002,28,D,2024-05-08_09h23.45.426,attentional_competition_task,2022.2.4,143.95904652885525,
positions.xlsx,positions_test.xlsx,positions_test_new.xlsx,stimuli.xlsx,stimuli_new.xlsx,stimuli/Social4.png,stimuli/Social3.png,stimuli/Nonsocial4.png,stimuli/Nonsocial3.png,stimuli/Social2.png,stimuli/Social1.png,stimuli/Nonsocial2.png,stimuli/Nonsocial1.png,,,"(-0.7, -0.5)",cs_neg_s,"(-0.7, 0.5)",cs_neg_ns_new,"(0.7, -0.5)",cs_pos_ns,"(0.7, 0.5)",cs_pos_s,0,0,0,0,,,,,,,,,,,,,,,,,,,,,,,,,,,,,0,7,7,19,,,,,,,,,,,,,,,,,,,,,,,,,,,,,,,,,,,,,,,,,,,,,,28,D,2024-05-08_09h23.45.426,attentional_competition_task,2022.2.4,143.95904652885525,
positions.xlsx,positions_test.xlsx,positions_test_new.xlsx,stimuli.xlsx,stimuli_new.xlsx,stimuli/Social4.png,stimuli/Social3.png,stimuli/Nonsocial4.png,stimuli/Nonsocial3.png,stimuli/Social2.png,stimuli/Social1.png,stimuli/Nonsocial2.png,stimuli/Nonsocial1.png,,,"(-0.7, -0.5)",cs_pos_ns_new,"(-0.7, 0.5)",cs_neg_s,"(0.7, -0.5)",cs_pos_s,"(0.7, 0.5)",cs_neg_ns,0,0,0,0,,,,,,,,,,,,,,,,,,,,,,,,,,,,,0,8,8,39,0,0,0,0,,,,,,,,,,,,,,,381,reward,,,,,,1525.7653413999997,1525.7653413999997,1525.7653413999997,1525.7653413999997,0,,,0,,,0,,,0,,,1526.5917396000004,1526.5917396000004,1526.5917396000004,1526.5917396000004,28,D,2024-05-08_09h23.45.426,attentional_competition_task,2022.2.4,143.95904652885525,
positions.xlsx,positions_test.xlsx,positions_test_new.xlsx,stimuli.xlsx,stimuli_new.xlsx,stimuli/Social4.png,stimuli/Social3.png,stimuli/Nonsocial4.png,stimuli/Nonsocial3.png,stimuli/Social2.png,stimuli/Social1.png,stimuli/Nonsocial2.png,stimuli/Nonsocial1.png,,,"(-0.7, -0.5)",cs_pos_ns_new,"(-0.7, 0.5)",cs_neg_s,"(0.7, -0.5)",cs_pos_s,"(0.7, 0.5)",cs_neg_ns,0,0,0,0,,,,,,,,,,,,,,,,,,,,,,,,,,,,,0,8,8,39,1,0,1,0,,,,,,,,,,,,,,,384,reward,,,,,,1527.0985919000004,1527.0985919000004,1527.0985919000004,1527.0985919000004,1,0.0292779999999766,0.08471499999996013,0,,,1,0.17549510000026203,0.1754992999995011,0,,,1527.2722169999997,1527.2722169999997,1527.2722169999997,1527.2722169999997,28,D,2024-05-08_09h23.45.426,attentional_competition_task,2022.2.4,143.95904652885525,
positions.xlsx,positions_test.xlsx,positions_test_new.xlsx,stimuli.xlsx,stimuli_new.xlsx,stimuli/Social4.png,stimuli/Social3.png,stimuli/Nonsocial4.png,stimuli/Nonsocial3.png,stimuli/Social2.png,stimuli/Social1.png,stimuli/Nonsocial2.png,stimuli/Nonsocial1.png,,,"(-0.7, -0.5)",cs_pos_ns_new,"(-0.7, 0.5)",cs_neg_s,"(0.7, -0.5)",cs_pos_s,"(0.7, 0.5)",cs_neg_ns,0,0,0,0,,,,,,,,,,,,,,,,,,,,,,,,,,,,,0,8,8,39,2,0,2,0,,,,,,,,,,,,,,,387,reward,,,,,,1528.2999613000002,1528.2999613000002,1528.2999613000002,1528.2999613000002,0,,,0,,,1,0.02365910000025906,0.023663899999519344,0,,,1528.2999613000002,1528.2999613000002,1528.2999613000002,1528.2999613000002,28,D,2024-05-08_09h23.45.426,attentional_competition_task,2022.2.4,143.95904652885525,
positions.xlsx,positions_test.xlsx,positions_test_new.xlsx,stimuli.xlsx,stimuli_new.xlsx,stimuli/Social4.png,stimuli/Social3.png,stimuli/Nonsocial4.png,stimuli/Nonsocial3.png,stimuli/Social2.png,stimuli/Social1.png,stimuli/Nonsocial2.png,stimuli/Nonsocial1.png,,,"(-0.7, -0.5)",cs_pos_ns_new,"(-0.7, 0.5)",cs_neg_s,"(0.7, -0.5)",cs_pos_s,"(0.7, 0.5)",cs_neg_ns,0,0,0,0,,,,,,,,,,,,,,,,,,,,,,,,,,,,,0,8,8,39,,,,,,,,,,,,,,,,,,,,,,,,,,,,,,,,,,,,,,,,,,,,,,28,D,2024-05-08_09h23.45.426,attentional_competition_task,2022.2.4,143.95904652885525,
positions.xlsx,positions_test.xlsx,positions_test_new.xlsx,stimuli.xlsx,stimuli_new.xlsx,stimuli/Social4.png,stimuli/Social3.png,stimuli/Nonsocial4.png,stimuli/Nonsocial3.png,stimuli/Social2.png,stimuli/Social1.png,stimuli/Nonsocial2.png,stimuli/Nonsocial1.png,,,"(-0.7, -0.5)",cs_pos_ns,"(-0.7, 0.5)",cs_neg_ns,"(0.7, -0.5)",cs_pos_s_new,"(0.7, 0.5)",cs_neg_s,0,0,0,0,,,,,,,,,,,,,,,,,,,,,,,,,,,,,0,9,9,34,0,0,0,0,,,,,,,,,,,,,,,390,reward,,,,,,1534.5289048000004,1534.5289048000004,1534.5289048000004,1534.5289048000004,1,0.884226099999978,0.8983592000004137,0,,,0,,,0,,,1535.4315908999997,1535.4315908999997,1535.4315908999997,1535.4315908999997,28,D,2024-05-08_09h23.45.426,attentional_competition_task,2022.2.4,143.95904652885525,
positions.xlsx,positions_test.xlsx,positions_test_new.xlsx,stimuli.xlsx,stimuli_new.xlsx,stimuli/Social4.png,stimuli/Social3.png,stimuli/Nonsocial4.png,stimuli/Nonsocial3.png,stimuli/Social2.png,stimuli/Social1.png,stimuli/Nonsocial2.png,stimuli/Nonsocial1.png,,,"(-0.7, -0.5)",cs_pos_ns,"(-0.7, 0.5)",cs_neg_ns,"(0.7, -0.5)",cs_pos_s_new,"(0.7, 0.5)",cs_neg_s,0,0,0,0,,,,,,,,,,,,,,,,,,,,,,,,,,,,,0,9,9,34,1,0,1,0,,,,,,,,,,,,,,,393,reward,,,,,,1535.9663222,1535.9663222,1535.9663222,1535.9663222,0,,,0,,,1,0.027398800000810297,0.027403400000366673,0,,,1535.9663222,1535.9663222,1535.9663222,1535.9663222,28,D,2024-05-08_09h23.45.426,attentional_competition_task,2022.2.4,143.95904652885525,
positions.xlsx,positions_test.xlsx,positions_test_new.xlsx,stimuli.xlsx,stimuli_new.xlsx,stimuli/Social4.png,stimuli/Social3.png,stimuli/Nonsocial4.png,stimuli/Nonsocial3.png,stimuli/Social2.png,stimuli/Social1.png,stimuli/Nonsocial2.png,stimuli/Nonsocial1.png,,,"(-0.7, -0.5)",cs_pos_ns,"(-0.7, 0.5)",cs_neg_ns,"(0.7, -0.5)",cs_pos_s_new,"(0.7, 0.5)",cs_neg_s,0,0,0,0,,,,,,,,,,,,,,,,,,,,,,,,,,,,,0,9,9,34,2,0,2,0,,,,,,,,,,,,,,,390,loss,,,,,,1536.4732380000005,1536.4732380000005,1536.4732380000005,1536.4732380000005,0,,,0,,,0,,,1,0.04578529999980674,0.045790199999828474,1537.0148789000004,1537.0148789000004,1537.0148789000004,1537.0148789000004,28,D,2024-05-08_09h23.45.426,attentional_competition_task,2022.2.4,143.95904652885525,
positions.xlsx,positions_test.xlsx,positions_test_new.xlsx,stimuli.xlsx,stimuli_new.xlsx,stimuli/Social4.png,stimuli/Social3.png,stimuli/Nonsocial4.png,stimuli/Nonsocial3.png,stimuli/Social2.png,stimuli/Social1.png,stimuli/Nonsocial2.png,stimuli/Nonsocial1.png,,,"(-0.7, -0.5)",cs_pos_ns,"(-0.7, 0.5)",cs_neg_ns,"(0.7, -0.5)",cs_pos_s_new,"(0.7, 0.5)",cs_neg_s,0,0,0,0,,,,,,,,,,,,,,,,,,,,,,,,,,,,,0,9,9,34,,,,,,,,,,,,,,,,,,,,,,,,,,,,,,,,,,,,,,,,,,,,,,28,D,2024-05-08_09h23.45.426,attentional_competition_task,2022.2.4,143.95904652885525,
positions.xlsx,positions_test.xlsx,positions_test_new.xlsx,stimuli.xlsx,stimuli_new.xlsx,stimuli/Social4.png,stimuli/Social3.png,stimuli/Nonsocial4.png,stimuli/Nonsocial3.png,stimuli/Social2.png,stimuli/Social1.png,stimuli/Nonsocial2.png,stimuli/Nonsocial1.png,,,"(-0.7, -0.5)",cs_pos_ns,"(-0.7, 0.5)",cs_pos_s,"(0.7, -0.5)",cs_neg_s,"(0.7, 0.5)",cs_neg_ns_new,0,0,0,0,,,,,,,,,,,,,,,,,,,,,,,,,,,,,0,10,10,22,0,0,0,0,,,,,,,,,,,,,,,393,reward,,,,,,1543.3479453999998,1543.3479453999998,1543.3479453999998,1543.3479453999998,0,,,1,1.0853025999995225,1.0991302000002179,0,,,0,,,1544.4520819999998,1544.4520819999998,1544.4520819999998,1544.4520819999998,28,D,2024-05-08_09h23.45.426,attentional_competition_task,2022.2.4,143.95904652885525,
positions.xlsx,positions_test.xlsx,positions_test_new.xlsx,stimuli.xlsx,stimuli_new.xlsx,stimuli/Social4.png,stimuli/Social3.png,stimuli/Nonsocial4.png,stimuli/Nonsocial3.png,stimuli/Social2.png,stimuli/Social1.png,stimuli/Nonsocial2.png,stimuli/Nonsocial1.png,,,"(-0.7, -0.5)",cs_pos_ns,"(-0.7, 0.5)",cs_pos_s,"(0.7, -0.5)",cs_neg_s,"(0.7, 0.5)",cs_neg_ns_new,0,0,0,0,,,,,,,,,,,,,,,,,,,,,,,,,,,,,0,10,10,22,1,0,1,0,,,,,,,,,,,,,,,396,reward,,,,,,1544.9450974000001,1544.9450974000001,1544.9450974000001,1544.9450974000001,1,0.2592947000002823,0.2592989000004309,1,0.02273810000042431,0.2459967000004326,0,,,0,,,1545.2159387000002,1545.2159387000002,1545.2159387000002,1545.2159387000002,28,D,2024-05-08_09h23.45.426,attentional_competition_task,2022.2.4,143.95904652885525,
