posFile,posFileTest,posFileTestNew,stimFile,stimFileNew,cs_neg_s,cs_pos_s,cs_neg_ns,cs_pos_ns,cs_neg_s_new,cs_pos_s_new,cs_neg_ns_new,cs_pos_ns_new,stim,position,position1,stim1,position2,stim2,position3,stim3,position4,stim4,blocks.thisRepN,blocks.thisTrialN,blocks.thisN,blocks.thisIndex,ratingtrials1.thisRepN,ratingtrials1.thisTrialN,ratingtrials1.thisN,ratingtrials1.thisIndex,search_task_trials.thisRepN,search_task_trials.thisTrialN,search_task_trials.thisN,search_task_trials.thisIndex,learning_trials.thisRepN,learning_trials.thisTrialN,learning_trials.thisN,learning_trials.thisIndex,trials.thisRepN,trials.thisTrialN,trials.thisN,trials.thisIndex,ratingtrials2.thisRepN,ratingtrials2.thisTrialN,ratingtrials2.thisN,ratingtrials2.thisIndex,testtrials.thisRepN,testtrials.thisTrialN,testtrials.thisN,testtrials.thisIndex,loop_test.thisRepN,loop_test.thisTrialN,loop_test.thisN,loop_test.thisIndex,testtrials_novelty.thisRepN,testtrials_novelty.thisTrialN,testtrials_novelty.thisN,testtrials_novelty.thisIndex,loop_test_novelty.thisRepN,loop_test_novelty.thisTrialN,loop_test_novelty.thisN,loop_test_novelty.thisIndex,ratingtrials3.thisRepN,ratingtrials3.thisTrialN,ratingtrials3.thisN,ratingtrials3.thisIndex,textStart.started,textStartExp.started,imageRating.started,sliderStim.response,sliderStim.rt,textStartSearch.started,target_positions,distractor_positions,textStartTask.started,image.started,score,outcome,roi.numLooks,roi.timesOn,roi.timesOff,imageFeedback.started,textTestInstr.started,test_image1.started,test_image2.started,test_image3.started,test_image4.started,test_roi1.numLooks,test_roi1.timesOn,test_roi1.timesOff,test_roi2.numLooks,test_roi2.timesOn,test_roi2.timesOff,test_roi3.numLooks,test_roi3.timesOn,test_roi3.timesOff,test_roi4.numLooks,test_roi4.timesOn,test_roi4.timesOff,test_image_feedback1.started,test_image_feedback2.started,test_iamge_feedback3.started,test_iamge_feedback4.started,participant,group,date,expName,psychopyVersion,frameRate,
positions.xlsx,positions_test.xlsx,positions_test_new.xlsx,stimuli.xlsx,stimuli_new.xlsx,stimuli/Social1.png,stimuli/Social2.png,stimuli/Nonsocial1.png,stimuli/Nonsocial2.png,stimuli/Social3.png,stimuli/Social4.png,stimuli/Nonsocial3.png,stimuli/Nonsocial4.png,cs_neg_s,,,,,,,,,,0,0,0,0,0,0,0,0,,,,,,,,,,,,,,,,,,,,,,,,,,,,,,,,,,,,,13.784343500155956,91.94678280036896,127.59107930026948,5.0,23.154268600046635,,,,,,,,,,,,,,,,,,,,,,,,,,,,,,,,,1,A,2024-04-02_12h49.22.299,attentional_competition_task,2022.2.4,143.9783226464065,
positions.xlsx,positions_test.xlsx,positions_test_new.xlsx,stimuli.xlsx,stimuli_new.xlsx,stimuli/Social1.png,stimuli/Social2.png,stimuli/Nonsocial1.png,stimuli/Nonsocial2.png,stimuli/Social3.png,stimuli/Social4.png,stimuli/Nonsocial3.png,stimuli/Nonsocial4.png,cs_pos_s,,,,,,,,,,0,0,0,0,0,1,1,2,,,,,,,,,,,,,,,,,,,,,,,,,,,,,,,,,,,,,,,154.40250280033797,3.0,5.757948400452733,,,,,,,,,,,,,,,,,,,,,,,,,,,,,,,,,1,A,2024-04-02_12h49.22.299,attentional_competition_task,2022.2.4,143.9783226464065,
positions.xlsx,positions_test.xlsx,positions_test_new.xlsx,stimuli.xlsx,stimuli_new.xlsx,stimuli/Social1.png,stimuli/Social2.png,stimuli/Nonsocial1.png,stimuli/Nonsocial2.png,stimuli/Social3.png,stimuli/Social4.png,stimuli/Nonsocial3.png,stimuli/Nonsocial4.png,cs_pos_ns,,,,,,,,,,0,0,0,0,0,2,2,3,,,,,,,,,,,,,,,,,,,,,,,,,,,,,,,,,,,,,,,160.49949280032888,6.0,12.170471599791199,,,,,,,,,,,,,,,,,,,,,,,,,,,,,,,,,1,A,2024-04-02_12h49.22.299,attentional_competition_task,2022.2.4,143.9783226464065,
positions.xlsx,positions_test.xlsx,positions_test_new.xlsx,stimuli.xlsx,stimuli_new.xlsx,stimuli/Social1.png,stimuli/Social2.png,stimuli/Nonsocial1.png,stimuli/Nonsocial2.png,stimuli/Social3.png,stimuli/Social4.png,stimuli/Nonsocial3.png,stimuli/Nonsocial4.png,cs_neg_ns,,,,,,,,,,0,0,0,0,0,3,3,1,,,,,,,,,,,,,,,,,,,,,,,,,,,,,,,,,,,,,,,173.36005230015144,7.0,14.524949800223112,,,,,,,,,,,,,,,,,,,,,,,,,,,,,,,,,1,A,2024-04-02_12h49.22.299,attentional_competition_task,2022.2.4,143.9783226464065,
positions.xlsx,positions_test.xlsx,positions_test_new.xlsx,stimuli.xlsx,stimuli_new.xlsx,stimuli/Social1.png,stimuli/Social2.png,stimuli/Nonsocial1.png,stimuli/Nonsocial2.png,stimuli/Social3.png,stimuli/Social4.png,stimuli/Nonsocial3.png,stimuli/Nonsocial4.png,,,,,,,,,,,0,0,0,0,,,,,0,0,0,0,,,,,,,,,,,,,,,,,,,,,,,,,,,,,,,,,,,,,,188.9288133000955,"[[-0.22499999999999998, -0.30000000000000004], [0.45000000000000007, -0.8], [0.45000000000000007, 0.7], [-0.675, 0.19999999999999996], [-0.45, 0.7], [-0.45, -0.8], [0.22499999999999998, 0.7], [0.0, -0.8], [-0.22499999999999998, -0.8], [-0.9, -0.8], [0.45000000000000007, 0.19999999999999996], [0.22499999999999998, -0.8], [0.0, 0.7], [-0.675, 0.7], [0.45000000000000007, -0.30000000000000004]]","[[-0.675, -0.30000000000000004], [0.22499999999999998, 0.19999999999999996], [0.9, 0.19999999999999996], [0.22499999999999998, -0.30000000000000004], [-0.22499999999999998, 0.7], [-0.45, -0.30000000000000004], [-0.45, 0.19999999999999996], [-0.22499999999999998, 0.19999999999999996], [0.0, -0.30000000000000004], [-0.9, 0.7], [0.9, 0.7], [0.9, -0.8], [0.6749999999999999, 0.7], [-0.9, 0.19999999999999996], [0.6749999999999999, -0.8]]",,,,,,,,,,,,,,,,,,,,,,,,,,,,,,1,A,2024-04-02_12h49.22.299,attentional_competition_task,2022.2.4,143.9783226464065,
positions.xlsx,positions_test.xlsx,positions_test_new.xlsx,stimuli.xlsx,stimuli_new.xlsx,stimuli/Social1.png,stimuli/Social2.png,stimuli/Nonsocial1.png,stimuli/Nonsocial2.png,stimuli/Social3.png,stimuli/Social4.png,stimuli/Nonsocial3.png,stimuli/Nonsocial4.png,,,,,,,,,,,0,0,0,0,,,,,1,0,1,0,,,,,,,,,,,,,,,,,,,,,,,,,,,,,,,,,,,,,,,"[[-0.45, -0.30000000000000004], [0.9, 0.19999999999999996], [0.45000000000000007, 0.19999999999999996], [-0.22499999999999998, -0.8], [0.9, -0.30000000000000004], [0.22499999999999998, -0.30000000000000004], [0.45000000000000007, -0.30000000000000004], [0.0, 0.19999999999999996], [0.22499999999999998, 0.19999999999999996], [-0.9, 0.7], [0.0, -0.8], [-0.675, 0.7], [-0.675, 0.19999999999999996], [0.6749999999999999, -0.8], [-0.22499999999999998, 0.19999999999999996]]","[[0.45000000000000007, 0.7], [0.45000000000000007, -0.8], [0.9, 0.7], [0.6749999999999999, 0.7], [0.0, -0.30000000000000004], [-0.675, -0.30000000000000004], [-0.9, 0.19999999999999996], [0.6749999999999999, -0.30000000000000004], [0.0, 0.7], [0.6749999999999999, 0.19999999999999996], [0.9, -0.8], [-0.22499999999999998, 0.7], [-0.45, 0.7], [0.22499999999999998, 0.7], [-0.9, -0.30000000000000004]]",,,,,,,,,,,,,,,,,,,,,,,,,,,,,,1,A,2024-04-02_12h49.22.299,attentional_competition_task,2022.2.4,143.9783226464065,
positions.xlsx,positions_test.xlsx,positions_test_new.xlsx,stimuli.xlsx,stimuli_new.xlsx,stimuli/Social1.png,stimuli/Social2.png,stimuli/Nonsocial1.png,stimuli/Nonsocial2.png,stimuli/Social3.png,stimuli/Social4.png,stimuli/Nonsocial3.png,stimuli/Nonsocial4.png,cs_pos_ns,"(-0.7, 0.5)",,,,,,,,,0,0,0,0,,,,,,,,,0,0,0,12,,,,,,,,,,,,,,,,,,,,,,,,,,,,,,,,,,,,,275.7169948001392,313.22236709995195,3,reward,1,0.2434892002493143,0.2504293001256883,313.49320570006967,,,,,,,,,,,,,,,,,,,,,,1,A,2024-04-02_12h49.22.299,attentional_competition_task,2022.2.4,143.9783226464065,
positions.xlsx,positions_test.xlsx,positions_test_new.xlsx,stimuli.xlsx,stimuli_new.xlsx,stimuli/Social1.png,stimuli/Social2.png,stimuli/Nonsocial1.png,stimuli/Nonsocial2.png,stimuli/Social3.png,stimuli/Social4.png,stimuli/Nonsocial3.png,stimuli/Nonsocial4.png,cs_neg_s,"(0.7, 0.5)",,,,,,,,,0,0,0,0,,,,,,,,,0,1,1,2,,,,,,,,,,,,,,,,,,,,,,,,,,,,,,,,,,,,,,320.65956389997154,0,loss,1,0.513950000051409,0.5139540997333825,321.19430010020733,,,,,,,,,,,,,,,,,,,,,,1,A,2024-04-02_12h49.22.299,attentional_competition_task,2022.2.4,143.9783226464065,
positions.xlsx,positions_test.xlsx,positions_test_new.xlsx,stimuli.xlsx,stimuli_new.xlsx,stimuli/Social1.png,stimuli/Social2.png,stimuli/Nonsocial1.png,stimuli/Nonsocial2.png,stimuli/Social3.png,stimuli/Social4.png,stimuli/Nonsocial3.png,stimuli/Nonsocial4.png,cs_pos_ns,"(0.7, -0.5)",,,,,,,,,0,0,0,0,,,,,,,,,0,2,2,15,,,,,,,,,,,,,,,,,,,,,,,,,,,,,,,,,,,,,,328.0412098001689,3,reward,1,0.5833270000293851,0.5833311001770198,328.6315314001404,,,,,,,,,,,,,,,,,,,,,,1,A,2024-04-02_12h49.22.299,attentional_competition_task,2022.2.4,143.9783226464065,
positions.xlsx,positions_test.xlsx,positions_test_new.xlsx,stimuli.xlsx,stimuli_new.xlsx,stimuli/Social1.png,stimuli/Social2.png,stimuli/Nonsocial1.png,stimuli/Nonsocial2.png,stimuli/Social3.png,stimuli/Social4.png,stimuli/Nonsocial3.png,stimuli/Nonsocial4.png,cs_pos_s,"(0.7, -0.5)",,,,,,,,,0,0,0,0,,,,,,,,,0,3,3,7,,,,,,,,,,,,,,,,,,,,,,,,,,,,,,,,,,,,,,336.2075670999475,6,reward,1,0.6253907000645995,0.6253941999748349,336.8395072002895,,,,,,,,,,,,,,,,,,,,,,1,A,2024-04-02_12h49.22.299,attentional_competition_task,2022.2.4,143.9783226464065,
positions.xlsx,positions_test.xlsx,positions_test_new.xlsx,stimuli.xlsx,stimuli_new.xlsx,stimuli/Social1.png,stimuli/Social2.png,stimuli/Nonsocial1.png,stimuli/Nonsocial2.png,stimuli/Social3.png,stimuli/Social4.png,stimuli/Nonsocial3.png,stimuli/Nonsocial4.png,cs_pos_ns,"(-0.7, -0.5)",,,,,,,,,0,0,0,0,,,,,,,,,0,4,4,13,,,,,,,,,,,,,,,,,,,,,,,,,,,,,,,,,,,,,,344.63078350014985,9,reward,1,0.4446646999567747,0.4446682999841869,345.0821374999359,,,,,,,,,,,,,,,,,,,,,,1,A,2024-04-02_12h49.22.299,attentional_competition_task,2022.2.4,143.9783226464065,
positions.xlsx,positions_test.xlsx,positions_test_new.xlsx,stimuli.xlsx,stimuli_new.xlsx,stimuli/Social1.png,stimuli/Social2.png,stimuli/Nonsocial1.png,stimuli/Nonsocial2.png,stimuli/Social3.png,stimuli/Social4.png,stimuli/Nonsocial3.png,stimuli/Nonsocial4.png,cs_pos_s,"(-0.7, 0.5)",,,,,,,,,0,0,0,0,,,,,,,,,0,5,5,4,,,,,,,,,,,,,,,,,,,,,,,,,,,,,,,,,,,,,,352.9082341999747,12,reward,1,0.7155014001764357,0.7155050998553634,353.6304220003076,,,,,,,,,,,,,,,,,,,,,,1,A,2024-04-02_12h49.22.299,attentional_competition_task,2022.2.4,143.9783226464065,
positions.xlsx,positions_test.xlsx,positions_test_new.xlsx,stimuli.xlsx,stimuli_new.xlsx,stimuli/Social1.png,stimuli/Social2.png,stimuli/Nonsocial1.png,stimuli/Nonsocial2.png,stimuli/Social3.png,stimuli/Social4.png,stimuli/Nonsocial3.png,stimuli/Nonsocial4.png,cs_neg_ns,"(0.7, -0.5)",,,,,,,,,0,0,0,0,,,,,,,,,0,6,6,11,,,,,,,,,,,,,,,,,,,,,,,,,,,,,,,,,,,,,,361.6579509000294,9,loss,1,0.5139904003590345,0.5139944003894925,362.1787457000464,,,,,,,,,,,,,,,,,,,,,,1,A,2024-04-02_12h49.22.299,attentional_competition_task,2022.2.4,143.9783226464065,
positions.xlsx,positions_test.xlsx,positions_test_new.xlsx,stimuli.xlsx,stimuli_new.xlsx,stimuli/Social1.png,stimuli/Social2.png,stimuli/Nonsocial1.png,stimuli/Nonsocial2.png,stimuli/Social3.png,stimuli/Social4.png,stimuli/Nonsocial3.png,stimuli/Nonsocial4.png,cs_neg_ns,"(-0.7, 0.5)",,,,,,,,,0,0,0,0,,,,,,,,,0,7,7,8,,,,,,,,,,,,,,,,,,,,,,,,,,,,,,,,,,,,,,369.69925620034337,6,loss,1,0.6597991995513439,0.6598031995818019,370.3659250000492,,,,,,,,,,,,,,,,,,,,,,1,A,2024-04-02_12h49.22.299,attentional_competition_task,2022.2.4,143.9783226464065,
positions.xlsx,positions_test.xlsx,positions_test_new.xlsx,stimuli.xlsx,stimuli_new.xlsx,stimuli/Social1.png,stimuli/Social2.png,stimuli/Nonsocial1.png,stimuli/Nonsocial2.png,stimuli/Social3.png,stimuli/Social4.png,stimuli/Nonsocial3.png,stimuli/Nonsocial4.png,cs_neg_s,"(0.7, -0.5)",,,,,,,,,0,0,0,0,,,,,,,,,0,8,8,3,,,,,,,,,,,,,,,,,,,,,,,,,,,,,,,,,,,,,,377.86558250011876,6,none,0,,,380.8863254003227,,,,,,,,,,,,,,,,,,,,,,1,A,2024-04-02_12h49.22.299,attentional_competition_task,2022.2.4,143.9783226464065,
positions.xlsx,positions_test.xlsx,positions_test_new.xlsx,stimuli.xlsx,stimuli_new.xlsx,stimuli/Social1.png,stimuli/Social2.png,stimuli/Nonsocial1.png,stimuli/Nonsocial2.png,stimuli/Social3.png,stimuli/Social4.png,stimuli/Nonsocial3.png,stimuli/Nonsocial4.png,cs_pos_ns,"(0.7, 0.5)",,,,,,,,,0,0,0,0,,,,,,,,,0,9,9,14,,,,,,,,,,,,,,,,,,,,,,,,,,,,,,,,,,,,,,388.62901150016114,9,reward,1,0.8822441999800503,0.8822478000074625,389.52487670024857,,,,,,,,,,,,,,,,,,,,,,1,A,2024-04-02_12h49.22.299,attentional_competition_task,2022.2.4,143.9783226464065,
positions.xlsx,positions_test.xlsx,positions_test_new.xlsx,stimuli.xlsx,stimuli_new.xlsx,stimuli/Social1.png,stimuli/Social2.png,stimuli/Nonsocial1.png,stimuli/Nonsocial2.png,stimuli/Social3.png,stimuli/Social4.png,stimuli/Nonsocial3.png,stimuli/Nonsocial4.png,cs_pos_s,"(0.7, 0.5)",,,,,,,,,0,0,0,0,,,,,,,,,0,10,10,6,,,,,,,,,,,,,,,,,,,,,,,,,,,,,,,,,,,,,,396.85090070031583,12,reward,1,0.7015421004034579,0.7015458000823855,397.5591775001958,,,,,,,,,,,,,,,,,,,,,,1,A,2024-04-02_12h49.22.299,attentional_competition_task,2022.2.4,143.9783226464065,
positions.xlsx,positions_test.xlsx,positions_test_new.xlsx,stimuli.xlsx,stimuli_new.xlsx,stimuli/Social1.png,stimuli/Social2.png,stimuli/Nonsocial1.png,stimuli/Nonsocial2.png,stimuli/Social3.png,stimuli/Social4.png,stimuli/Nonsocial3.png,stimuli/Nonsocial4.png,cs_neg_s,"(-0.7, 0.5)",,,,,,,,,0,0,0,0,,,,,,,,,0,11,11,0,,,,,,,,,,,,,,,,,,,,,,,,,,,,,,,,,,,,,,405.46167419990525,12,none,0,,,408.47547630034387,,,,,,,,,,,,,,,,,,,,,,1,A,2024-04-02_12h49.22.299,attentional_competition_task,2022.2.4,143.9783226464065,
positions.xlsx,positions_test.xlsx,positions_test_new.xlsx,stimuli.xlsx,stimuli_new.xlsx,stimuli/Social1.png,stimuli/Social2.png,stimuli/Nonsocial1.png,stimuli/Nonsocial2.png,stimuli/Social3.png,stimuli/Social4.png,stimuli/Nonsocial3.png,stimuli/Nonsocial4.png,cs_pos_s,"(-0.7, -0.5)",,,,,,,,,0,0,0,0,,,,,,,,,0,12,12,5,,,,,,,,,,,,,,,,,,,,,,,,,,,,,,,,,,,,,,416.25981830013916,15,reward,1,0.8684827000834048,0.8684861999936402,417.1348397000693,,,,,,,,,,,,,,,,,,,,,,1,A,2024-04-02_12h49.22.299,attentional_competition_task,2022.2.4,143.9783226464065,
positions.xlsx,positions_test.xlsx,positions_test_new.xlsx,stimuli.xlsx,stimuli_new.xlsx,stimuli/Social1.png,stimuli/Social2.png,stimuli/Nonsocial1.png,stimuli/Nonsocial2.png,stimuli/Social3.png,stimuli/Social4.png,stimuli/Nonsocial3.png,stimuli/Nonsocial4.png,cs_neg_ns,"(0.7, 0.5)",,,,,,,,,0,0,0,0,,,,,,,,,0,13,13,10,,,,,,,,,,,,,,,,,,,,,,,,,,,,,,,,,,,,,,424.62070900015533,15,none,0,,,427.6344368001446,,,,,,,,,,,,,,,,,,,,,,1,A,2024-04-02_12h49.22.299,attentional_competition_task,2022.2.4,143.9783226464065,
positions.xlsx,positions_test.xlsx,positions_test_new.xlsx,stimuli.xlsx,stimuli_new.xlsx,stimuli/Social1.png,stimuli/Social2.png,stimuli/Nonsocial1.png,stimuli/Nonsocial2.png,stimuli/Social3.png,stimuli/Social4.png,stimuli/Nonsocial3.png,stimuli/Nonsocial4.png,cs_neg_ns,"(-0.7, -0.5)",,,,,,,,,0,0,0,0,,,,,,,,,0,14,14,9,,,,,,,,,,,,,,,,,,,,,,,,,,,,,,,,,,,,,,435.60625990014523,15,none,0,,,438.6200411003083,,,,,,,,,,,,,,,,,,,,,,1,A,2024-04-02_12h49.22.299,attentional_competition_task,2022.2.4,143.9783226464065,
positions.xlsx,positions_test.xlsx,positions_test_new.xlsx,stimuli.xlsx,stimuli_new.xlsx,stimuli/Social1.png,stimuli/Social2.png,stimuli/Nonsocial1.png,stimuli/Nonsocial2.png,stimuli/Social3.png,stimuli/Social4.png,stimuli/Nonsocial3.png,stimuli/Nonsocial4.png,cs_neg_s,"(-0.7, -0.5)",,,,,,,,,0,0,0,0,,,,,,,,,0,15,15,1,,,,,,,,,,,,,,,,,,,,,,,,,,,,,,,,,,,,,,445.64756510034204,15,none,0,,,448.66133860033005,,,,,,,,,,,,,,,,,,,,,,1,A,2024-04-02_12h49.22.299,attentional_competition_task,2022.2.4,143.9783226464065,
positions.xlsx,positions_test.xlsx,positions_test_new.xlsx,stimuli.xlsx,stimuli_new.xlsx,stimuli/Social1.png,stimuli/Social2.png,stimuli/Nonsocial1.png,stimuli/Nonsocial2.png,stimuli/Social3.png,stimuli/Social4.png,stimuli/Nonsocial3.png,stimuli/Nonsocial4.png,cs_neg_ns,"(0.7, 0.5)",,,,,,,,,0,0,0,0,,,,,,,,,1,0,16,10,,,,,,,,,,,,,,,,,,,,,,,,,,,,,,,,,,,,,,455.9110587001778,15,none,0,,,458.92479730024934,,,,,,,,,,,,,,,,,,,,,,1,A,2024-04-02_12h49.22.299,attentional_competition_task,2022.2.4,143.9783226464065,
positions.xlsx,positions_test.xlsx,positions_test_new.xlsx,stimuli.xlsx,stimuli_new.xlsx,stimuli/Social1.png,stimuli/Social2.png,stimuli/Nonsocial1.png,stimuli/Nonsocial2.png,stimuli/Social3.png,stimuli/Social4.png,stimuli/Nonsocial3.png,stimuli/Nonsocial4.png,cs_neg_ns,"(-0.7, 0.5)",,,,,,,,,0,0,0,0,,,,,,,,,1,1,17,8,,,,,,,,,,,,,,,,,,,,,,,,,,,,,,,,,,,,,,466.8897684002295,12,loss,1,2.3891564002260566,2.3891600002534688,469.285450800322,,,,,,,,,,,,,,,,,,,,,,1,A,2024-04-02_12h49.22.299,attentional_competition_task,2022.2.4,143.9783226464065,
positions.xlsx,positions_test.xlsx,positions_test_new.xlsx,stimuli.xlsx,stimuli_new.xlsx,stimuli/Social1.png,stimuli/Social2.png,stimuli/Nonsocial1.png,stimuli/Nonsocial2.png,stimuli/Social3.png,stimuli/Social4.png,stimuli/Nonsocial3.png,stimuli/Nonsocial4.png,cs_pos_ns,"(0.7, 0.5)",,,,,,,,,0,0,0,0,,,,,,,,,1,2,18,14,,,,,,,,,,,,,,,,,,,,,,,,,,,,,,,,,,,,,,476.51435950025916,15,reward,1,0.6599463000893593,0.6599497999995947,477.1810234002769,,,,,,,,,,,,,,,,,,,,,,1,A,2024-04-02_12h49.22.299,attentional_competition_task,2022.2.4,143.9783226464065,
positions.xlsx,positions_test.xlsx,positions_test_new.xlsx,stimuli.xlsx,stimuli_new.xlsx,stimuli/Social1.png,stimuli/Social2.png,stimuli/Nonsocial1.png,stimuli/Nonsocial2.png,stimuli/Social3.png,stimuli/Social4.png,stimuli/Nonsocial3.png,stimuli/Nonsocial4.png,cs_pos_ns,"(0.7, -0.5)",,,,,,,,,0,0,0,0,,,,,,,,,1,3,19,15,,,,,,,,,,,,,,,,,,,,,,,,,,,,,,,,,,,,,,484.9931751000695,18,reward,1,0.7643923000432551,0.7643961999565363,485.76395840011537,,,,,,,,,,,,,,,,,,,,,,1,A,2024-04-02_12h49.22.299,attentional_competition_task,2022.2.4,143.9783226464065,
positions.xlsx,positions_test.xlsx,positions_test_new.xlsx,stimuli.xlsx,stimuli_new.xlsx,stimuli/Social1.png,stimuli/Social2.png,stimuli/Nonsocial1.png,stimuli/Nonsocial2.png,stimuli/Social3.png,stimuli/Social4.png,stimuli/Nonsocial3.png,stimuli/Nonsocial4.png,cs_pos_s,"(-0.7, -0.5)",,,,,,,,,0,0,0,0,,,,,,,,,1,4,20,5,,,,,,,,,,,,,,,,,,,,,,,,,,,,,,,,,,,,,,493.72198810009286,21,reward,1,0.6462241001427174,0.646227499935776,494.37473240029067,,,,,,,,,,,,,,,,,,,,,,1,A,2024-04-02_12h49.22.299,attentional_competition_task,2022.2.4,143.9783226464065,
positions.xlsx,positions_test.xlsx,positions_test_new.xlsx,stimuli.xlsx,stimuli_new.xlsx,stimuli/Social1.png,stimuli/Social2.png,stimuli/Nonsocial1.png,stimuli/Nonsocial2.png,stimuli/Social3.png,stimuli/Social4.png,stimuli/Nonsocial3.png,stimuli/Nonsocial4.png,cs_pos_s,"(0.7, -0.5)",,,,,,,,,0,0,0,0,,,,,,,,,1,5,21,7,,,,,,,,,,,,,,,,,,,,,,,,,,,,,,,,,,,,,,502.0064310999587,24,reward,1,0.4720418001525104,0.4720454001799226,502.48557620029896,,,,,,,,,,,,,,,,,,,,,,1,A,2024-04-02_12h49.22.299,attentional_competition_task,2022.2.4,143.9783226464065,
positions.xlsx,positions_test.xlsx,positions_test_new.xlsx,stimuli.xlsx,stimuli_new.xlsx,stimuli/Social1.png,stimuli/Social2.png,stimuli/Nonsocial1.png,stimuli/Nonsocial2.png,stimuli/Social3.png,stimuli/Social4.png,stimuli/Nonsocial3.png,stimuli/Nonsocial4.png,cs_neg_s,"(0.7, -0.5)",,,,,,,,,0,0,0,0,,,,,,,,,1,6,22,3,,,,,,,,,,,,,,,,,,,,,,,,,,,,,,,,,,,,,,509.92279110010713,24,none,0,,,512.9365014000796,,,,,,,,,,,,,,,,,,,,,,1,A,2024-04-02_12h49.22.299,attentional_competition_task,2022.2.4,143.9783226464065,
positions.xlsx,positions_test.xlsx,positions_test_new.xlsx,stimuli.xlsx,stimuli_new.xlsx,stimuli/Social1.png,stimuli/Social2.png,stimuli/Nonsocial1.png,stimuli/Nonsocial2.png,stimuli/Social3.png,stimuli/Social4.png,stimuli/Nonsocial3.png,stimuli/Nonsocial4.png,cs_neg_s,"(0.7, 0.5)",,,,,,,,,0,0,0,0,,,,,,,,,1,7,23,2,,,,,,,,,,,,,,,,,,,,,,,,,,,,,,,,,,,,,,519.9709348999895,24,none,0,,,522.9778233002871,,,,,,,,,,,,,,,,,,,,,,1,A,2024-04-02_12h49.22.299,attentional_competition_task,2022.2.4,143.9783226464065,
positions.xlsx,positions_test.xlsx,positions_test_new.xlsx,stimuli.xlsx,stimuli_new.xlsx,stimuli/Social1.png,stimuli/Social2.png,stimuli/Nonsocial1.png,stimuli/Nonsocial2.png,stimuli/Social3.png,stimuli/Social4.png,stimuli/Nonsocial3.png,stimuli/Nonsocial4.png,cs_neg_s,"(-0.7, -0.5)",,,,,,,,,0,0,0,0,,,,,,,,,1,8,24,1,,,,,,,,,,,,,,,,,,,,,,,,,,,,,,,,,,,,,,530.338561099954,24,none,0,,,533.3454062002711,,,,,,,,,,,,,,,,,,,,,,1,A,2024-04-02_12h49.22.299,attentional_competition_task,2022.2.4,143.9783226464065,
positions.xlsx,positions_test.xlsx,positions_test_new.xlsx,stimuli.xlsx,stimuli_new.xlsx,stimuli/Social1.png,stimuli/Social2.png,stimuli/Nonsocial1.png,stimuli/Nonsocial2.png,stimuli/Social3.png,stimuli/Social4.png,stimuli/Nonsocial3.png,stimuli/Nonsocial4.png,cs_neg_s,"(-0.7, 0.5)",,,,,,,,,0,0,0,0,,,,,,,,,1,9,25,0,,,,,,,,,,,,,,,,,,,,,,,,,,,,,,,,,,,,,,541.4909667000175,24,none,0,,,544.497682900168,,,,,,,,,,,,,,,,,,,,,,1,A,2024-04-02_12h49.22.299,attentional_competition_task,2022.2.4,143.9783226464065,
positions.xlsx,positions_test.xlsx,positions_test_new.xlsx,stimuli.xlsx,stimuli_new.xlsx,stimuli/Social1.png,stimuli/Social2.png,stimuli/Nonsocial1.png,stimuli/Nonsocial2.png,stimuli/Social3.png,stimuli/Social4.png,stimuli/Nonsocial3.png,stimuli/Nonsocial4.png,cs_pos_ns,"(-0.7, 0.5)",,,,,,,,,0,0,0,0,,,,,,,,,1,10,26,12,,,,,,,,,,,,,,,,,,,,,,,,,,,,,,,,,,,,,,552.0807340000756,27,reward,1,0.5766335995867848,0.5766372997313738,552.6640858999453,,,,,,,,,,,,,,,,,,,,,,1,A,2024-04-02_12h49.22.299,attentional_competition_task,2022.2.4,143.9783226464065,
positions.xlsx,positions_test.xlsx,positions_test_new.xlsx,stimuli.xlsx,stimuli_new.xlsx,stimuli/Social1.png,stimuli/Social2.png,stimuli/Nonsocial1.png,stimuli/Nonsocial2.png,stimuli/Social3.png,stimuli/Social4.png,stimuli/Nonsocial3.png,stimuli/Nonsocial4.png,cs_neg_ns,"(0.7, -0.5)",,,,,,,,,0,0,0,0,,,,,,,,,1,11,27,11,,,,,,,,,,,,,,,,,,,,,,,,,,,,,,,,,,,,,,560.1290512001142,27,none,0,,,563.1427783002146,,,,,,,,,,,,,,,,,,,,,,1,A,2024-04-02_12h49.22.299,attentional_competition_task,2022.2.4,143.9783226464065,
positions.xlsx,positions_test.xlsx,positions_test_new.xlsx,stimuli.xlsx,stimuli_new.xlsx,stimuli/Social1.png,stimuli/Social2.png,stimuli/Nonsocial1.png,stimuli/Nonsocial2.png,stimuli/Social3.png,stimuli/Social4.png,stimuli/Nonsocial3.png,stimuli/Nonsocial4.png,cs_pos_s,"(0.7, 0.5)",,,,,,,,,0,0,0,0,,,,,,,,,1,12,28,6,,,,,,,,,,,,,,,,,,,,,,,,,,,,,,,,,,,,,,570.5452900999226,30,reward,1,0.556112099904567,0.556116099935025,571.107740000356,,,,,,,,,,,,,,,,,,,,,,1,A,2024-04-02_12h49.22.299,attentional_competition_task,2022.2.4,143.9783226464065,
positions.xlsx,positions_test.xlsx,positions_test_new.xlsx,stimuli.xlsx,stimuli_new.xlsx,stimuli/Social1.png,stimuli/Social2.png,stimuli/Nonsocial1.png,stimuli/Nonsocial2.png,stimuli/Social3.png,stimuli/Social4.png,stimuli/Nonsocial3.png,stimuli/Nonsocial4.png,cs_neg_ns,"(-0.7, -0.5)",,,,,,,,,0,0,0,0,,,,,,,,,1,13,29,9,,,,,,,,,,,,,,,,,,,,,,,,,,,,,,,,,,,,,,578.274090200197,27,loss,1,0.3473276998847723,0.3473312999121845,578.6282922001556,,,,,,,,,,,,,,,,,,,,,,1,A,2024-04-02_12h49.22.299,attentional_competition_task,2022.2.4,143.9783226464065,
positions.xlsx,positions_test.xlsx,positions_test_new.xlsx,stimuli.xlsx,stimuli_new.xlsx,stimuli/Social1.png,stimuli/Social2.png,stimuli/Nonsocial1.png,stimuli/Nonsocial2.png,stimuli/Social3.png,stimuli/Social4.png,stimuli/Nonsocial3.png,stimuli/Nonsocial4.png,cs_pos_ns,"(-0.7, -0.5)",,,,,,,,,0,0,0,0,,,,,,,,,1,14,30,13,,,,,,,,,,,,,,,,,,,,,,,,,,,,,,,,,,,,,,586.2321466002613,30,reward,1,0.7156274002045393,0.7156313001178205,586.9543550000526,,,,,,,,,,,,,,,,,,,,,,1,A,2024-04-02_12h49.22.299,attentional_competition_task,2022.2.4,143.9783226464065,
positions.xlsx,positions_test.xlsx,positions_test_new.xlsx,stimuli.xlsx,stimuli_new.xlsx,stimuli/Social1.png,stimuli/Social2.png,stimuli/Nonsocial1.png,stimuli/Nonsocial2.png,stimuli/Social3.png,stimuli/Social4.png,stimuli/Nonsocial3.png,stimuli/Nonsocial4.png,cs_pos_s,"(-0.7, 0.5)",,,,,,,,,0,0,0,0,,,,,,,,,1,15,31,4,,,,,,,,,,,,,,,,,,,,,,,,,,,,,,,,,,,,,,595.0511880000122,33,reward,1,0.6112329000607133,0.6112366002053022,595.6692439001054,,,,,,,,,,,,,,,,,,,,,,1,A,2024-04-02_12h49.22.299,attentional_competition_task,2022.2.4,143.9783226464065,
positions.xlsx,positions_test.xlsx,positions_test_new.xlsx,stimuli.xlsx,stimuli_new.xlsx,stimuli/Social1.png,stimuli/Social2.png,stimuli/Nonsocial1.png,stimuli/Nonsocial2.png,stimuli/Social3.png,stimuli/Social4.png,stimuli/Nonsocial3.png,stimuli/Nonsocial4.png,cs_neg_s,"(-0.7, -0.5)",,,,,,,,,0,0,0,0,,,,,,,,,,,,,0,0,0,1,,,,,,,,,,,,,,,,,,,,,,,,,,,,,,,,,,671.8259257003665,33,none,0,,,674.8327493001707,,,,,,,,,,,,,,,,,,,,,,1,A,2024-04-02_12h49.22.299,attentional_competition_task,2022.2.4,143.9783226464065,
positions.xlsx,positions_test.xlsx,positions_test_new.xlsx,stimuli.xlsx,stimuli_new.xlsx,stimuli/Social1.png,stimuli/Social2.png,stimuli/Nonsocial1.png,stimuli/Nonsocial2.png,stimuli/Social3.png,stimuli/Social4.png,stimuli/Nonsocial3.png,stimuli/Nonsocial4.png,cs_neg_ns,"(-0.7, -0.5)",,,,,,,,,0,0,0,0,,,,,,,,,,,,,0,1,1,9,,,,,,,,,,,,,,,,,,,,,,,,,,,,,,,,,,683.0755174001679,33,none,0,,,686.0823270003311,,,,,,,,,,,,,,,,,,,,,,1,A,2024-04-02_12h49.22.299,attentional_competition_task,2022.2.4,143.9783226464065,
positions.xlsx,positions_test.xlsx,positions_test_new.xlsx,stimuli.xlsx,stimuli_new.xlsx,stimuli/Social1.png,stimuli/Social2.png,stimuli/Nonsocial1.png,stimuli/Nonsocial2.png,stimuli/Social3.png,stimuli/Social4.png,stimuli/Nonsocial3.png,stimuli/Nonsocial4.png,cs_pos_s,"(-0.7, 0.5)",,,,,,,,,0,0,0,0,,,,,,,,,,,,,0,2,2,4,,,,,,,,,,,,,,,,,,,,,,,,,,,,,,,,,,693.4500258001499,36,reward,1,0.7083494998514652,0.7083533001132309,694.1652764002793,,,,,,,,,,,,,,,,,,,,,,1,A,2024-04-02_12h49.22.299,attentional_competition_task,2022.2.4,143.9783226464065,
positions.xlsx,positions_test.xlsx,positions_test_new.xlsx,stimuli.xlsx,stimuli_new.xlsx,stimuli/Social1.png,stimuli/Social2.png,stimuli/Nonsocial1.png,stimuli/Nonsocial2.png,stimuli/Social3.png,stimuli/Social4.png,stimuli/Nonsocial3.png,stimuli/Nonsocial4.png,cs_neg_s,"(-0.7, 0.5)",,,,,,,,,0,0,0,0,,,,,,,,,,,,,0,3,3,0,,,,,,,,,,,,,,,,,,,,,,,,,,,,,,,,,,701.3733664001338,36,none,0,,,704.4009899999946,,,,,,,,,,,,,,,,,,,,,,1,A,2024-04-02_12h49.22.299,attentional_competition_task,2022.2.4,143.9783226464065,
positions.xlsx,positions_test.xlsx,positions_test_new.xlsx,stimuli.xlsx,stimuli_new.xlsx,stimuli/Social1.png,stimuli/Social2.png,stimuli/Nonsocial1.png,stimuli/Nonsocial2.png,stimuli/Social3.png,stimuli/Social4.png,stimuli/Nonsocial3.png,stimuli/Nonsocial4.png,cs_pos_ns,"(0.7, 0.5)",,,,,,,,,0,0,0,0,,,,,,,,,,,,,0,4,4,14,,,,,,,,,,,,,,,,,,,,,,,,,,,,,,,,,,711.8451439002529,39,reward,1,0.5350028001703322,0.5350063997320831,712.3868220001459,,,,,,,,,,,,,,,,,,,,,,1,A,2024-04-02_12h49.22.299,attentional_competition_task,2022.2.4,143.9783226464065,
positions.xlsx,positions_test.xlsx,positions_test_new.xlsx,stimuli.xlsx,stimuli_new.xlsx,stimuli/Social1.png,stimuli/Social2.png,stimuli/Nonsocial1.png,stimuli/Nonsocial2.png,stimuli/Social3.png,stimuli/Social4.png,stimuli/Nonsocial3.png,stimuli/Nonsocial4.png,cs_neg_s,"(0.7, -0.5)",,,,,,,,,0,0,0,0,,,,,,,,,,,,,0,5,5,3,,,,,,,,,,,,,,,,,,,,,,,,,,,,,,,,,,719.9836913002655,39,none,0,,,722.9905638000928,,,,,,,,,,,,,,,,,,,,,,1,A,2024-04-02_12h49.22.299,attentional_competition_task,2022.2.4,143.9783226464065,
positions.xlsx,positions_test.xlsx,positions_test_new.xlsx,stimuli.xlsx,stimuli_new.xlsx,stimuli/Social1.png,stimuli/Social2.png,stimuli/Nonsocial1.png,stimuli/Nonsocial2.png,stimuli/Social3.png,stimuli/Social4.png,stimuli/Nonsocial3.png,stimuli/Nonsocial4.png,cs_neg_ns,"(0.7, 0.5)",,,,,,,,,0,0,0,0,,,,,,,,,,,,,0,6,6,10,,,,,,,,,,,,,,,,,,,,,,,,,,,,,,,,,,730.1916165999137,39,none,0,,,733.1984916003421,,,,,,,,,,,,,,,,,,,,,,1,A,2024-04-02_12h49.22.299,attentional_competition_task,2022.2.4,143.9783226464065,
positions.xlsx,positions_test.xlsx,positions_test_new.xlsx,stimuli.xlsx,stimuli_new.xlsx,stimuli/Social1.png,stimuli/Social2.png,stimuli/Nonsocial1.png,stimuli/Nonsocial2.png,stimuli/Social3.png,stimuli/Social4.png,stimuli/Nonsocial3.png,stimuli/Nonsocial4.png,cs_neg_s,"(0.7, 0.5)",,,,,,,,,0,0,0,0,,,,,,,,,,,,,0,7,7,2,,,,,,,,,,,,,,,,,,,,,,,,,,,,,,,,,,740.3301157001406,39,none,0,,,743.3368918001652,,,,,,,,,,,,,,,,,,,,,,1,A,2024-04-02_12h49.22.299,attentional_competition_task,2022.2.4,143.9783226464065,
positions.xlsx,positions_test.xlsx,positions_test_new.xlsx,stimuli.xlsx,stimuli_new.xlsx,stimuli/Social1.png,stimuli/Social2.png,stimuli/Nonsocial1.png,stimuli/Nonsocial2.png,stimuli/Social3.png,stimuli/Social4.png,stimuli/Nonsocial3.png,stimuli/Nonsocial4.png,cs_pos_s,"(0.7, 0.5)",,,,,,,,,0,0,0,0,,,,,,,,,,,,,0,8,8,6,,,,,,,,,,,,,,,,,,,,,,,,,,,,,,,,,,750.6352539001964,42,reward,1,0.6671040002256632,0.6671076002530754,751.3088210001588,,,,,,,,,,,,,,,,,,,,,,1,A,2024-04-02_12h49.22.299,attentional_competition_task,2022.2.4,143.9783226464065,
positions.xlsx,positions_test.xlsx,positions_test_new.xlsx,stimuli.xlsx,stimuli_new.xlsx,stimuli/Social1.png,stimuli/Social2.png,stimuli/Nonsocial1.png,stimuli/Nonsocial2.png,stimuli/Social3.png,stimuli/Social4.png,stimuli/Nonsocial3.png,stimuli/Nonsocial4.png,cs_pos_s,"(-0.7, -0.5)",,,,,,,,,0,0,0,0,,,,,,,,,,,,,0,9,9,5,,,,,,,,,,,,,,,,,,,,,,,,,,,,,,,,,,758.4057909003459,45,reward,1,0.8959212996996939,0.9026946998201311,759.315534000285,,,,,,,,,,,,,,,,,,,,,,1,A,2024-04-02_12h49.22.299,attentional_competition_task,2022.2.4,143.9783226464065,
positions.xlsx,positions_test.xlsx,positions_test_new.xlsx,stimuli.xlsx,stimuli_new.xlsx,stimuli/Social1.png,stimuli/Social2.png,stimuli/Nonsocial1.png,stimuli/Nonsocial2.png,stimuli/Social3.png,stimuli/Social4.png,stimuli/Nonsocial3.png,stimuli/Nonsocial4.png,cs_pos_ns,"(-0.7, -0.5)",,,,,,,,,0,0,0,0,,,,,,,,,,,,,0,10,10,13,,,,,,,,,,,,,,,,,,,,,,,,,,,,,,,,,,766.558236700017,48,reward,1,0.8198892003856599,0.8198933000676334,767.3846293999813,,,,,,,,,,,,,,,,,,,,,,1,A,2024-04-02_12h49.22.299,attentional_competition_task,2022.2.4,143.9783226464065,
positions.xlsx,positions_test.xlsx,positions_test_new.xlsx,stimuli.xlsx,stimuli_new.xlsx,stimuli/Social1.png,stimuli/Social2.png,stimuli/Nonsocial1.png,stimuli/Nonsocial2.png,stimuli/Social3.png,stimuli/Social4.png,stimuli/Nonsocial3.png,stimuli/Nonsocial4.png,cs_pos_ns,"(-0.7, 0.5)",,,,,,,,,0,0,0,0,,,,,,,,,,,,,0,11,11,12,,,,,,,,,,,,,,,,,,,,,,,,,,,,,,,,,,774.8218499002978,51,reward,1,0.674112900160253,0.6741166999563575,775.5023408001289,,,,,,,,,,,,,,,,,,,,,,1,A,2024-04-02_12h49.22.299,attentional_competition_task,2022.2.4,143.9783226464065,
positions.xlsx,positions_test.xlsx,positions_test_new.xlsx,stimuli.xlsx,stimuli_new.xlsx,stimuli/Social1.png,stimuli/Social2.png,stimuli/Nonsocial1.png,stimuli/Nonsocial2.png,stimuli/Social3.png,stimuli/Social4.png,stimuli/Nonsocial3.png,stimuli/Nonsocial4.png,cs_pos_ns,"(0.7, -0.5)",,,,,,,,,0,0,0,0,,,,,,,,,,,,,0,12,12,15,,,,,,,,,,,,,,,,,,,,,,,,,,,,,,,,,,783.6964241000824,54,reward,1,0.763996200170368,0.7639998001977801,784.4672357002273,,,,,,,,,,,,,,,,,,,,,,1,A,2024-04-02_12h49.22.299,attentional_competition_task,2022.2.4,143.9783226464065,
positions.xlsx,positions_test.xlsx,positions_test_new.xlsx,stimuli.xlsx,stimuli_new.xlsx,stimuli/Social1.png,stimuli/Social2.png,stimuli/Nonsocial1.png,stimuli/Nonsocial2.png,stimuli/Social3.png,stimuli/Social4.png,stimuli/Nonsocial3.png,stimuli/Nonsocial4.png,cs_neg_ns,"(-0.7, 0.5)",,,,,,,,,0,0,0,0,,,,,,,,,,,,,0,13,13,8,,,,,,,,,,,,,,,,,,,,,,,,,,,,,,,,,,792.6058122003451,54,none,0,,,795.6195660000667,,,,,,,,,,,,,,,,,,,,,,1,A,2024-04-02_12h49.22.299,attentional_competition_task,2022.2.4,143.9783226464065,
positions.xlsx,positions_test.xlsx,positions_test_new.xlsx,stimuli.xlsx,stimuli_new.xlsx,stimuli/Social1.png,stimuli/Social2.png,stimuli/Nonsocial1.png,stimuli/Nonsocial2.png,stimuli/Social3.png,stimuli/Social4.png,stimuli/Nonsocial3.png,stimuli/Nonsocial4.png,cs_neg_ns,"(0.7, -0.5)",,,,,,,,,0,0,0,0,,,,,,,,,,,,,0,14,14,11,,,,,,,,,,,,,,,,,,,,,,,,,,,,,,,,,,802.4665059000254,54,none,0,,,805.473330900073,,,,,,,,,,,,,,,,,,,,,,1,A,2024-04-02_12h49.22.299,attentional_competition_task,2022.2.4,143.9783226464065,
positions.xlsx,positions_test.xlsx,positions_test_new.xlsx,stimuli.xlsx,stimuli_new.xlsx,stimuli/Social1.png,stimuli/Social2.png,stimuli/Nonsocial1.png,stimuli/Nonsocial2.png,stimuli/Social3.png,stimuli/Social4.png,stimuli/Nonsocial3.png,stimuli/Nonsocial4.png,cs_pos_s,"(0.7, -0.5)",,,,,,,,,0,0,0,0,,,,,,,,,,,,,0,15,15,7,,,,,,,,,,,,,,,,,,,,,,,,,,,,,,,,,,813.4452069001272,57,reward,1,0.5625280998647213,0.5625315997749567,814.014667800162,,,,,,,,,,,,,,,,,,,,,,1,A,2024-04-02_12h49.22.299,attentional_competition_task,2022.2.4,143.9783226464065,
positions.xlsx,positions_test.xlsx,positions_test_new.xlsx,stimuli.xlsx,stimuli_new.xlsx,stimuli/Social1.png,stimuli/Social2.png,stimuli/Nonsocial1.png,stimuli/Nonsocial2.png,stimuli/Social3.png,stimuli/Social4.png,stimuli/Nonsocial3.png,stimuli/Nonsocial4.png,cs_pos_s,"(0.7, -0.5)",,,,,,,,,0,0,0,0,,,,,,,,,,,,,1,0,16,7,,,,,,,,,,,,,,,,,,,,,,,,,,,,,,,,,,821.2990862000734,60,reward,1,0.6876929998397827,0.6876970999874175,821.9935671999119,,,,,,,,,,,,,,,,,,,,,,1,A,2024-04-02_12h49.22.299,attentional_competition_task,2022.2.4,143.9783226464065,
positions.xlsx,positions_test.xlsx,positions_test_new.xlsx,stimuli.xlsx,stimuli_new.xlsx,stimuli/Social1.png,stimuli/Social2.png,stimuli/Nonsocial1.png,stimuli/Nonsocial2.png,stimuli/Social3.png,stimuli/Social4.png,stimuli/Nonsocial3.png,stimuli/Nonsocial4.png,cs_neg_ns,"(0.7, -0.5)",,,,,,,,,0,0,0,0,,,,,,,,,,,,,1,1,17,11,,,,,,,,,,,,,,,,,,,,,,,,,,,,,,,,,,829.5835223002359,60,none,0,,,832.5972609003074,,,,,,,,,,,,,,,,,,,,,,1,A,2024-04-02_12h49.22.299,attentional_competition_task,2022.2.4,143.9783226464065,
positions.xlsx,positions_test.xlsx,positions_test_new.xlsx,stimuli.xlsx,stimuli_new.xlsx,stimuli/Social1.png,stimuli/Social2.png,stimuli/Nonsocial1.png,stimuli/Nonsocial2.png,stimuli/Social3.png,stimuli/Social4.png,stimuli/Nonsocial3.png,stimuli/Nonsocial4.png,cs_pos_ns,"(-0.7, -0.5)",,,,,,,,,0,0,0,0,,,,,,,,,,,,,1,2,18,13,,,,,,,,,,,,,,,,,,,,,,,,,,,,,,,,,,840.5483266999945,63,reward,1,0.7083506002090871,0.7083545997738838,841.2635731003247,,,,,,,,,,,,,,,,,,,,,,1,A,2024-04-02_12h49.22.299,attentional_competition_task,2022.2.4,143.9783226464065,
positions.xlsx,positions_test.xlsx,positions_test_new.xlsx,stimuli.xlsx,stimuli_new.xlsx,stimuli/Social1.png,stimuli/Social2.png,stimuli/Nonsocial1.png,stimuli/Nonsocial2.png,stimuli/Social3.png,stimuli/Social4.png,stimuli/Nonsocial3.png,stimuli/Nonsocial4.png,cs_neg_s,"(-0.7, -0.5)",,,,,,,,,0,0,0,0,,,,,,,,,,,,,1,3,19,1,,,,,,,,,,,,,,,,,,,,,,,,,,,,,,,,,,848.2008000002243,63,none,0,,,851.2146238000132,,,,,,,,,,,,,,,,,,,,,,1,A,2024-04-02_12h49.22.299,attentional_competition_task,2022.2.4,143.9783226464065,
positions.xlsx,positions_test.xlsx,positions_test_new.xlsx,stimuli.xlsx,stimuli_new.xlsx,stimuli/Social1.png,stimuli/Social2.png,stimuli/Nonsocial1.png,stimuli/Nonsocial2.png,stimuli/Social3.png,stimuli/Social4.png,stimuli/Nonsocial3.png,stimuli/Nonsocial4.png,cs_neg_s,"(0.7, -0.5)",,,,,,,,,0,0,0,0,,,,,,,,,,,,,1,4,20,3,,,,,,,,,,,,,,,,,,,,,,,,,,,,,,,,,,859.2420628000982,63,none,0,,,862.2488850001246,,,,,,,,,,,,,,,,,,,,,,1,A,2024-04-02_12h49.22.299,attentional_competition_task,2022.2.4,143.9783226464065,
positions.xlsx,positions_test.xlsx,positions_test_new.xlsx,stimuli.xlsx,stimuli_new.xlsx,stimuli/Social1.png,stimuli/Social2.png,stimuli/Nonsocial1.png,stimuli/Nonsocial2.png,stimuli/Social3.png,stimuli/Social4.png,stimuli/Nonsocial3.png,stimuli/Nonsocial4.png,cs_pos_ns,"(-0.7, 0.5)",,,,,,,,,0,0,0,0,,,,,,,,,,,,,1,5,21,12,,,,,,,,,,,,,,,,,,,,,,,,,,,,,,,,,,869.9568378999829,66,reward,1,0.646301300264895,0.6463052998296916,870.6096079000272,,,,,,,,,,,,,,,,,,,,,,1,A,2024-04-02_12h49.22.299,attentional_competition_task,2022.2.4,143.9783226464065,
positions.xlsx,positions_test.xlsx,positions_test_new.xlsx,stimuli.xlsx,stimuli_new.xlsx,stimuli/Social1.png,stimuli/Social2.png,stimuli/Nonsocial1.png,stimuli/Nonsocial2.png,stimuli/Social3.png,stimuli/Social4.png,stimuli/Nonsocial3.png,stimuli/Nonsocial4.png,cs_neg_ns,"(-0.7, -0.5)",,,,,,,,,0,0,0,0,,,,,,,,,,,,,1,6,22,9,,,,,,,,,,,,,,,,,,,,,,,,,,,,,,,,,,878.2482481999323,66,none,0,,,881.2619779002853,,,,,,,,,,,,,,,,,,,,,,1,A,2024-04-02_12h49.22.299,attentional_competition_task,2022.2.4,143.9783226464065,
positions.xlsx,positions_test.xlsx,positions_test_new.xlsx,stimuli.xlsx,stimuli_new.xlsx,stimuli/Social1.png,stimuli/Social2.png,stimuli/Nonsocial1.png,stimuli/Nonsocial2.png,stimuli/Social3.png,stimuli/Social4.png,stimuli/Nonsocial3.png,stimuli/Nonsocial4.png,cs_neg_ns,"(-0.7, 0.5)",,,,,,,,,0,0,0,0,,,,,,,,,,,,,1,7,23,8,,,,,,,,,,,,,,,,,,,,,,,,,,,,,,,,,,889.4352942002006,66,none,0,,,892.4420990003273,,,,,,,,,,,,,,,,,,,,,,1,A,2024-04-02_12h49.22.299,attentional_competition_task,2022.2.4,143.9783226464065,
positions.xlsx,positions_test.xlsx,positions_test_new.xlsx,stimuli.xlsx,stimuli_new.xlsx,stimuli/Social1.png,stimuli/Social2.png,stimuli/Nonsocial1.png,stimuli/Nonsocial2.png,stimuli/Social3.png,stimuli/Social4.png,stimuli/Nonsocial3.png,stimuli/Nonsocial4.png,cs_neg_s,"(0.7, 0.5)",,,,,,,,,0,0,0,0,,,,,,,,,,,,,1,8,24,2,,,,,,,,,,,,,,,,,,,,,,,,,,,,,,,,,,899.0390122001991,66,none,0,,,902.0458702999167,,,,,,,,,,,,,,,,,,,,,,1,A,2024-04-02_12h49.22.299,attentional_competition_task,2022.2.4,143.9783226464065,
positions.xlsx,positions_test.xlsx,positions_test_new.xlsx,stimuli.xlsx,stimuli_new.xlsx,stimuli/Social1.png,stimuli/Social2.png,stimuli/Nonsocial1.png,stimuli/Nonsocial2.png,stimuli/Social3.png,stimuli/Social4.png,stimuli/Nonsocial3.png,stimuli/Nonsocial4.png,cs_pos_ns,"(0.7, -0.5)",,,,,,,,,0,0,0,0,,,,,,,,,,,,,1,9,25,15,,,,,,,,,,,,,,,,,,,,,,,,,,,,,,,,,,910.4066205001436,69,reward,1,1.180589099880308,1.1805929001420736,911.5941445999779,,,,,,,,,,,,,,,,,,,,,,1,A,2024-04-02_12h49.22.299,attentional_competition_task,2022.2.4,143.9783226464065,
positions.xlsx,positions_test.xlsx,positions_test_new.xlsx,stimuli.xlsx,stimuli_new.xlsx,stimuli/Social1.png,stimuli/Social2.png,stimuli/Nonsocial1.png,stimuli/Nonsocial2.png,stimuli/Social3.png,stimuli/Social4.png,stimuli/Nonsocial3.png,stimuli/Nonsocial4.png,cs_pos_s,"(0.7, 0.5)",,,,,,,,,0,0,0,0,,,,,,,,,,,,,1,10,26,6,,,,,,,,,,,,,,,,,,,,,,,,,,,,,,,,,,919.211845099926,72,reward,1,0.7500293999910355,0.7569174999371171,919.9756722003222,,,,,,,,,,,,,,,,,,,,,,1,A,2024-04-02_12h49.22.299,attentional_competition_task,2022.2.4,143.9783226464065,
positions.xlsx,positions_test.xlsx,positions_test_new.xlsx,stimuli.xlsx,stimuli_new.xlsx,stimuli/Social1.png,stimuli/Social2.png,stimuli/Nonsocial1.png,stimuli/Nonsocial2.png,stimuli/Social3.png,stimuli/Social4.png,stimuli/Nonsocial3.png,stimuli/Nonsocial4.png,cs_pos_s,"(-0.7, 0.5)",,,,,,,,,0,0,0,0,,,,,,,,,,,,,1,11,27,4,,,,,,,,,,,,,,,,,,,,,,,,,,,,,,,,,,927.8504486000165,75,reward,1,0.6669206996448338,0.6669247997924685,928.5239784000441,,,,,,,,,,,,,,,,,,,,,,1,A,2024-04-02_12h49.22.299,attentional_competition_task,2022.2.4,143.9783226464065,
positions.xlsx,positions_test.xlsx,positions_test_new.xlsx,stimuli.xlsx,stimuli_new.xlsx,stimuli/Social1.png,stimuli/Social2.png,stimuli/Nonsocial1.png,stimuli/Nonsocial2.png,stimuli/Social3.png,stimuli/Social4.png,stimuli/Nonsocial3.png,stimuli/Nonsocial4.png,cs_neg_ns,"(0.7, 0.5)",,,,,,,,,0,0,0,0,,,,,,,,,,,,,1,12,28,10,,,,,,,,,,,,,,,,,,,,,,,,,,,,,,,,,,936.1417819000781,75,none,0,,,939.1554711000063,,,,,,,,,,,,,,,,,,,,,,1,A,2024-04-02_12h49.22.299,attentional_competition_task,2022.2.4,143.9783226464065,
positions.xlsx,positions_test.xlsx,positions_test_new.xlsx,stimuli.xlsx,stimuli_new.xlsx,stimuli/Social1.png,stimuli/Social2.png,stimuli/Nonsocial1.png,stimuli/Nonsocial2.png,stimuli/Social3.png,stimuli/Social4.png,stimuli/Nonsocial3.png,stimuli/Nonsocial4.png,cs_pos_s,"(-0.7, -0.5)",,,,,,,,,0,0,0,0,,,,,,,,,,,,,1,13,29,5,,,,,,,,,,,,,,,,,,,,,,,,,,,,,,,,,,946.439918000251,78,reward,1,0.45146160013973713,0.4514652001671493,946.8982016001828,,,,,,,,,,,,,,,,,,,,,,1,A,2024-04-02_12h49.22.299,attentional_competition_task,2022.2.4,143.9783226464065,
positions.xlsx,positions_test.xlsx,positions_test_new.xlsx,stimuli.xlsx,stimuli_new.xlsx,stimuli/Social1.png,stimuli/Social2.png,stimuli/Nonsocial1.png,stimuli/Nonsocial2.png,stimuli/Social3.png,stimuli/Social4.png,stimuli/Nonsocial3.png,stimuli/Nonsocial4.png,cs_neg_s,"(-0.7, 0.5)",,,,,,,,,0,0,0,0,,,,,,,,,,,,,1,14,30,0,,,,,,,,,,,,,,,,,,,,,,,,,,,,,,,,,,953.9882252002135,78,none,0,,,956.9950099000707,,,,,,,,,,,,,,,,,,,,,,1,A,2024-04-02_12h49.22.299,attentional_competition_task,2022.2.4,143.9783226464065,
positions.xlsx,positions_test.xlsx,positions_test_new.xlsx,stimuli.xlsx,stimuli_new.xlsx,stimuli/Social1.png,stimuli/Social2.png,stimuli/Nonsocial1.png,stimuli/Nonsocial2.png,stimuli/Social3.png,stimuli/Social4.png,stimuli/Nonsocial3.png,stimuli/Nonsocial4.png,cs_pos_ns,"(0.7, 0.5)",,,,,,,,,0,0,0,0,,,,,,,,,,,,,1,15,31,14,,,,,,,,,,,,,,,,,,,,,,,,,,,,,,,,,,965.2655424000695,81,reward,1,0.5693389000371099,0.5693426001816988,965.8418840002269,,,,,,,,,,,,,,,,,,,,,,1,A,2024-04-02_12h49.22.299,attentional_competition_task,2022.2.4,143.9783226464065,
positions.xlsx,positions_test.xlsx,positions_test_new.xlsx,stimuli.xlsx,stimuli_new.xlsx,stimuli/Social1.png,stimuli/Social2.png,stimuli/Nonsocial1.png,stimuli/Nonsocial2.png,stimuli/Social3.png,stimuli/Social4.png,stimuli/Nonsocial3.png,stimuli/Nonsocial4.png,cs_pos_ns,,,,,,,,,,0,0,0,0,,,,,,,,,,,,,,,,,0,0,0,3,,,,,,,,,,,,,,,,,,,,,,,970.3903752001934,8.0,11.872173900250345,,,,,,,,,,,,,,,,,,,,,,,,,,,,,,,,,1,A,2024-04-02_12h49.22.299,attentional_competition_task,2022.2.4,143.9783226464065,
positions.xlsx,positions_test.xlsx,positions_test_new.xlsx,stimuli.xlsx,stimuli_new.xlsx,stimuli/Social1.png,stimuli/Social2.png,stimuli/Nonsocial1.png,stimuli/Nonsocial2.png,stimuli/Social3.png,stimuli/Social4.png,stimuli/Nonsocial3.png,stimuli/Nonsocial4.png,cs_neg_ns,,,,,,,,,,0,0,0,0,,,,,,,,,,,,,,,,,0,1,1,1,,,,,,,,,,,,,,,,,,,,,,,986.52863180032,3.0,5.528976299799979,,,,,,,,,,,,,,,,,,,,,,,,,,,,,,,,,1,A,2024-04-02_12h49.22.299,attentional_competition_task,2022.2.4,143.9783226464065,
positions.xlsx,positions_test.xlsx,positions_test_new.xlsx,stimuli.xlsx,stimuli_new.xlsx,stimuli/Social1.png,stimuli/Social2.png,stimuli/Nonsocial1.png,stimuli/Nonsocial2.png,stimuli/Social3.png,stimuli/Social4.png,stimuli/Nonsocial3.png,stimuli/Nonsocial4.png,cs_pos_s,,,,,,,,,,0,0,0,0,,,,,,,,,,,,,,,,,0,2,2,2,,,,,,,,,,,,,,,,,,,,,,,992.4867410003208,7.0,6.00809990009293,,,,,,,,,,,,,,,,,,,,,,,,,,,,,,,,,1,A,2024-04-02_12h49.22.299,attentional_competition_task,2022.2.4,143.9783226464065,
positions.xlsx,positions_test.xlsx,positions_test_new.xlsx,stimuli.xlsx,stimuli_new.xlsx,stimuli/Social1.png,stimuli/Social2.png,stimuli/Nonsocial1.png,stimuli/Nonsocial2.png,stimuli/Social3.png,stimuli/Social4.png,stimuli/Nonsocial3.png,stimuli/Nonsocial4.png,cs_neg_s,,,,,,,,,,0,0,0,0,,,,,,,,,,,,,,,,,0,3,3,0,,,,,,,,,,,,,,,,,,,,,,,998.8961379001848,4.0,2.4261103002354503,,,,,,,,,,,,,,,,,,,,,,,,,,,,,,,,,1,A,2024-04-02_12h49.22.299,attentional_competition_task,2022.2.4,143.9783226464065,
positions.xlsx,positions_test.xlsx,positions_test_new.xlsx,stimuli.xlsx,stimuli_new.xlsx,stimuli/Social1.png,stimuli/Social2.png,stimuli/Nonsocial1.png,stimuli/Nonsocial2.png,stimuli/Social3.png,stimuli/Social4.png,stimuli/Nonsocial3.png,stimuli/Nonsocial4.png,,,"(-0.7, -0.5)",cs_pos_ns,"(-0.7, 0.5)",cs_neg_s,"(0.7, -0.5)",cs_neg_ns,"(0.7, 0.5)",cs_pos_s,0,0,0,0,,,,,,,,,,,,,,,,,,,,,0,0,0,23,,,,,,,,,,,,,,,,,,,,,,,,,,,84,reward,,,,,1001.5210585999303,1011.9095514002256,1011.9095514002256,1011.9095514002256,1011.9095514002256,0,,,0,,,0,,,1,0.028006200212985277,0.09444209979847074,1012.5067779999226,1012.5067779999226,1012.5067779999226,1012.5067779999226,1,A,2024-04-02_12h49.22.299,attentional_competition_task,2022.2.4,143.9783226464065,
positions.xlsx,positions_test.xlsx,positions_test_new.xlsx,stimuli.xlsx,stimuli_new.xlsx,stimuli/Social1.png,stimuli/Social2.png,stimuli/Nonsocial1.png,stimuli/Nonsocial2.png,stimuli/Social3.png,stimuli/Social4.png,stimuli/Nonsocial3.png,stimuli/Nonsocial4.png,,,"(-0.7, -0.5)",cs_pos_s,"(-0.7, 0.5)",cs_neg_s,"(0.7, -0.5)",cs_pos_ns,"(0.7, 0.5)",cs_neg_ns,0,0,0,0,,,,,,,,,,,,,,,,,,,,,0,1,1,7,,,,,,,,,,,,,,,,,,,,,,,,,,,93,reward,,,,,,1021.3189835003577,1021.3189835003577,1021.3189835003577,1021.3189835003577,0,,,0,,,0,,,0,,,1021.3189835003577,1021.3189835003577,1021.3189835003577,1021.3189835003577,1,A,2024-04-02_12h49.22.299,attentional_competition_task,2022.2.4,143.9783226464065,
positions.xlsx,positions_test.xlsx,positions_test_new.xlsx,stimuli.xlsx,stimuli_new.xlsx,stimuli/Social1.png,stimuli/Social2.png,stimuli/Nonsocial1.png,stimuli/Nonsocial2.png,stimuli/Social3.png,stimuli/Social4.png,stimuli/Nonsocial3.png,stimuli/Nonsocial4.png,,,"(-0.7, -0.5)",cs_neg_ns,"(-0.7, 0.5)",cs_pos_ns,"(0.7, -0.5)",cs_neg_s,"(0.7, 0.5)",cs_pos_s,0,0,0,0,,,,,,,,,,,,,,,,,,,,,0,2,2,17,,,,,,,,,,,,,,,,,,,,,,,,,,,102,reward,,,,,,1028.742205800023,1028.742205800023,1028.742205800023,1028.742205800023,0,,,1,0.02958389976993203,0.10697959968820214,0,,,0,,,1029.3532966999337,1029.3532966999337,1029.3532966999337,1029.3532966999337,1,A,2024-04-02_12h49.22.299,attentional_competition_task,2022.2.4,143.9783226464065,
positions.xlsx,positions_test.xlsx,positions_test_new.xlsx,stimuli.xlsx,stimuli_new.xlsx,stimuli/Social1.png,stimuli/Social2.png,stimuli/Nonsocial1.png,stimuli/Nonsocial2.png,stimuli/Social3.png,stimuli/Social4.png,stimuli/Nonsocial3.png,stimuli/Nonsocial4.png,,,"(-0.7, -0.5)",cs_pos_s,"(-0.7, 0.5)",cs_pos_ns,"(0.7, -0.5)",cs_neg_ns,"(0.7, 0.5)",cs_neg_s,0,0,0,0,,,,,,,,,,,,,,,,,,,,,0,3,3,11,,,,,,,,,,,,,,,,,,,,,,,,,,,108,reward,,,,,,1036.4571616002358,1036.4571616002358,1036.4571616002358,1036.4571616002358,0,,,1,0.5510012996383011,0.558073999825865,0,,,0,,,1037.0127179999836,1037.0127179999836,1037.0127179999836,1037.0127179999836,1,A,2024-04-02_12h49.22.299,attentional_competition_task,2022.2.4,143.9783226464065,
positions.xlsx,positions_test.xlsx,positions_test_new.xlsx,stimuli.xlsx,stimuli_new.xlsx,stimuli/Social1.png,stimuli/Social2.png,stimuli/Nonsocial1.png,stimuli/Nonsocial2.png,stimuli/Social3.png,stimuli/Social4.png,stimuli/Nonsocial3.png,stimuli/Nonsocial4.png,,,"(-0.7, -0.5)",cs_pos_ns,"(-0.7, 0.5)",cs_neg_s,"(0.7, -0.5)",cs_pos_s,"(0.7, 0.5)",cs_neg_ns,0,0,0,0,,,,,,,,,,,,,,,,,,,,,0,4,4,22,,,,,,,,,,,,,,,,,,,,,,,,,,,117,reward,,,,,,1044.9984695999883,1044.9984695999883,1044.9984695999883,1044.9984695999883,0,,,0,,,0,,,0,,,1045.776258500293,1045.776258500293,1045.776258500293,1045.776258500293,1,A,2024-04-02_12h49.22.299,attentional_competition_task,2022.2.4,143.9783226464065,
positions.xlsx,positions_test.xlsx,positions_test_new.xlsx,stimuli.xlsx,stimuli_new.xlsx,stimuli/Social1.png,stimuli/Social2.png,stimuli/Nonsocial1.png,stimuli/Nonsocial2.png,stimuli/Social3.png,stimuli/Social4.png,stimuli/Nonsocial3.png,stimuli/Nonsocial4.png,,,"(-0.7, -0.5)",cs_neg_ns,"(-0.7, 0.5)",cs_pos_s,"(0.7, -0.5)",cs_neg_s,"(0.7, 0.5)",cs_pos_ns,0,0,0,0,,,,,,,,,,,,,,,,,,,,,0,5,5,12,,,,,,,,,,,,,,,,,,,,,,,,,,,126,reward,,,,,,1053.4287251001224,1053.4287251001224,1053.4287251001224,1053.4287251001224,0,,,0,,,0,,,0,,,1054.289822100196,1054.289822100196,1054.289822100196,1054.289822100196,1,A,2024-04-02_12h49.22.299,attentional_competition_task,2022.2.4,143.9783226464065,
positions.xlsx,positions_test.xlsx,positions_test_new.xlsx,stimuli.xlsx,stimuli_new.xlsx,stimuli/Social1.png,stimuli/Social2.png,stimuli/Nonsocial1.png,stimuli/Nonsocial2.png,stimuli/Social3.png,stimuli/Social4.png,stimuli/Nonsocial3.png,stimuli/Nonsocial4.png,,,"(-0.7, -0.5)",cs_neg_s,"(-0.7, 0.5)",cs_neg_ns,"(0.7, -0.5)",cs_pos_ns,"(0.7, 0.5)",cs_pos_s,0,0,0,0,,,,,,,,,,,,,,,,,,,,,0,6,6,3,,,,,,,,,,,,,,,,,,,,,,,,,,,132,reward,,,,,,1061.602091100067,1061.602091100067,1061.602091100067,1061.602091100067,0,,,0,,,1,0.029004599899053574,0.029021500144153833,0,,,1061.602091100067,1061.602091100067,1061.602091100067,1061.602091100067,1,A,2024-04-02_12h49.22.299,attentional_competition_task,2022.2.4,143.9783226464065,
positions.xlsx,positions_test.xlsx,positions_test_new.xlsx,stimuli.xlsx,stimuli_new.xlsx,stimuli/Social1.png,stimuli/Social2.png,stimuli/Nonsocial1.png,stimuli/Nonsocial2.png,stimuli/Social3.png,stimuli/Social4.png,stimuli/Nonsocial3.png,stimuli/Nonsocial4.png,,,"(-0.7, -0.5)",cs_neg_s,"(-0.7, 0.5)",cs_pos_ns,"(0.7, -0.5)",cs_pos_s,"(0.7, 0.5)",cs_neg_ns,0,0,0,0,,,,,,,,,,,,,,,,,,,,,0,7,7,4,,,,,,,,,,,,,,,,,,,,,,,,,,,141,reward,,,,,,1069.76140760025,1069.76140760025,1069.76140760025,1069.76140760025,0,,,0,,,0,,,0,,,1070.6572722001001,1070.6572722001001,1070.6572722001001,1070.6572722001001,1,A,2024-04-02_12h49.22.299,attentional_competition_task,2022.2.4,143.9783226464065,
positions.xlsx,positions_test.xlsx,positions_test_new.xlsx,stimuli.xlsx,stimuli_new.xlsx,stimuli/Social1.png,stimuli/Social2.png,stimuli/Nonsocial1.png,stimuli/Nonsocial2.png,stimuli/Social3.png,stimuli/Social4.png,stimuli/Nonsocial3.png,stimuli/Nonsocial4.png,,,"(-0.7, -0.5)",cs_pos_s,"(-0.7, 0.5)",cs_pos_ns,"(0.7, -0.5)",cs_neg_s,"(0.7, 0.5)",cs_neg_ns,0,0,0,0,,,,,,,,,,,,,,,,,,,,,0,8,8,10,,,,,,,,,,,,,,,,,,,,,,,,,,,138,loss,,,,,,1078.511098800227,1078.511098800227,1078.511098800227,1078.511098800227,0,,,0,,,0,,,0,,,1079.0943678002805,1079.0943678002805,1079.0943678002805,1079.0943678002805,1,A,2024-04-02_12h49.22.299,attentional_competition_task,2022.2.4,143.9783226464065,
positions.xlsx,positions_test.xlsx,positions_test_new.xlsx,stimuli.xlsx,stimuli_new.xlsx,stimuli/Social1.png,stimuli/Social2.png,stimuli/Nonsocial1.png,stimuli/Nonsocial2.png,stimuli/Social3.png,stimuli/Social4.png,stimuli/Nonsocial3.png,stimuli/Nonsocial4.png,,,"(-0.7, -0.5)",cs_neg_ns,"(-0.7, 0.5)",cs_pos_ns,"(0.7, -0.5)",cs_pos_s,"(0.7, 0.5)",cs_neg_s,0,0,0,0,,,,,,,,,,,,,,,,,,,,,0,9,9,16,,,,,,,,,,,,,,,,,,,,,,,,,,,147,reward,,,,,,1087.3995602000505,1087.3995602000505,1087.3995602000505,1087.3995602000505,0,,,0,,,0,,,0,,,1088.1079216003418,1088.1079216003418,1088.1079216003418,1088.1079216003418,1,A,2024-04-02_12h49.22.299,attentional_competition_task,2022.2.4,143.9783226464065,
positions.xlsx,positions_test.xlsx,positions_test_new.xlsx,stimuli.xlsx,stimuli_new.xlsx,stimuli/Social1.png,stimuli/Social2.png,stimuli/Nonsocial1.png,stimuli/Nonsocial2.png,stimuli/Social3.png,stimuli/Social4.png,stimuli/Nonsocial3.png,stimuli/Nonsocial4.png,,,"(-0.7, -0.5)",cs_neg_s,"(-0.7, 0.5)",cs_pos_s,"(0.7, -0.5)",cs_pos_ns,"(0.7, 0.5)",cs_neg_ns,0,0,0,0,,,,,,,,,,,,,,,,,,,,,0,10,10,1,,,,,,,,,,,,,,,,,,,,,,,,,,,156,reward,,,,,,1096.5172518999316,1096.5172518999316,1096.5172518999316,1096.5172518999316,0,,,0,,,0,,,0,,,1097.3505869000219,1097.3505869000219,1097.3505869000219,1097.3505869000219,1,A,2024-04-02_12h49.22.299,attentional_competition_task,2022.2.4,143.9783226464065,
positions.xlsx,positions_test.xlsx,positions_test_new.xlsx,stimuli.xlsx,stimuli_new.xlsx,stimuli/Social1.png,stimuli/Social2.png,stimuli/Nonsocial1.png,stimuli/Nonsocial2.png,stimuli/Social3.png,stimuli/Social4.png,stimuli/Nonsocial3.png,stimuli/Nonsocial4.png,,,"(-0.7, -0.5)",cs_pos_ns,"(-0.7, 0.5)",cs_pos_s,"(0.7, -0.5)",cs_neg_s,"(0.7, 0.5)",cs_neg_ns,0,0,0,0,,,,,,,,,,,,,,,,,,,,,0,11,11,19,,,,,,,,,,,,,,,,,,,,,,,,,,,165,reward,,,,,,1105.100258300081,1105.100258300081,1105.100258300081,1105.100258300081,0,,,0,,,0,,,0,,,1105.98218609998,1105.98218609998,1105.98218609998,1105.98218609998,1,A,2024-04-02_12h49.22.299,attentional_competition_task,2022.2.4,143.9783226464065,
positions.xlsx,positions_test.xlsx,positions_test_new.xlsx,stimuli.xlsx,stimuli_new.xlsx,stimuli/Social1.png,stimuli/Social2.png,stimuli/Nonsocial1.png,stimuli/Nonsocial2.png,stimuli/Social3.png,stimuli/Social4.png,stimuli/Nonsocial3.png,stimuli/Nonsocial4.png,,,"(-0.7, -0.5)",cs_neg_s,"(-0.7, 0.5)",cs_pos_ns,"(0.7, -0.5)",cs_neg_ns,"(0.7, 0.5)",cs_pos_s,0,0,0,0,,,,,,,,,,,,,,,,,,,,,0,12,12,5,,,,,,,,,,,,,,,,,,,,,,,,,,,174,reward,,,,,,1113.5999018000439,1113.5999018000439,1113.5999018000439,1113.5999018000439,0,,,0,,,0,,,0,,,1114.2874090000987,1114.2874090000987,1114.2874090000987,1114.2874090000987,1,A,2024-04-02_12h49.22.299,attentional_competition_task,2022.2.4,143.9783226464065,
positions.xlsx,positions_test.xlsx,positions_test_new.xlsx,stimuli.xlsx,stimuli_new.xlsx,stimuli/Social1.png,stimuli/Social2.png,stimuli/Nonsocial1.png,stimuli/Nonsocial2.png,stimuli/Social3.png,stimuli/Social4.png,stimuli/Nonsocial3.png,stimuli/Nonsocial4.png,,,"(-0.7, -0.5)",cs_pos_ns,"(-0.7, 0.5)",cs_pos_s,"(0.7, -0.5)",cs_neg_ns,"(0.7, 0.5)",cs_neg_s,0,0,0,0,,,,,,,,,,,,,,,,,,,,,0,13,13,18,,,,,,,,,,,,,,,,,,,,,,,,,,,180,reward,,,,,,1122.4537390000187,1122.4537390000187,1122.4537390000187,1122.4537390000187,0,,,1,0.029753499664366245,0.02975709969177842,0,,,0,,,1122.4537390000187,1122.4537390000187,1122.4537390000187,1122.4537390000187,1,A,2024-04-02_12h49.22.299,attentional_competition_task,2022.2.4,143.9783226464065,
positions.xlsx,positions_test.xlsx,positions_test_new.xlsx,stimuli.xlsx,stimuli_new.xlsx,stimuli/Social1.png,stimuli/Social2.png,stimuli/Nonsocial1.png,stimuli/Nonsocial2.png,stimuli/Social3.png,stimuli/Social4.png,stimuli/Nonsocial3.png,stimuli/Nonsocial4.png,,,"(-0.7, -0.5)",cs_neg_ns,"(-0.7, 0.5)",cs_neg_s,"(0.7, -0.5)",cs_pos_ns,"(0.7, 0.5)",cs_pos_s,0,0,0,0,,,,,,,,,,,,,,,,,,,,,0,14,14,15,,,,,,,,,,,,,,,,,,,,,,,,,,,186,reward,,,,,,1130.515910600312,1130.515910600312,1130.515910600312,1130.515910600312,0,,,0,,,0,,,1,0.03095690021291375,0.030960900243371725,1130.515910600312,1130.515910600312,1130.515910600312,1130.515910600312,1,A,2024-04-02_12h49.22.299,attentional_competition_task,2022.2.4,143.9783226464065,
positions.xlsx,positions_test.xlsx,positions_test_new.xlsx,stimuli.xlsx,stimuli_new.xlsx,stimuli/Social1.png,stimuli/Social2.png,stimuli/Nonsocial1.png,stimuli/Nonsocial2.png,stimuli/Social3.png,stimuli/Social4.png,stimuli/Nonsocial3.png,stimuli/Nonsocial4.png,,,"(-0.7, -0.5)",cs_pos_s,"(-0.7, 0.5)",cs_neg_s,"(0.7, -0.5)",cs_neg_ns,"(0.7, 0.5)",cs_pos_ns,0,0,0,0,,,,,,,,,,,,,,,,,,,,,0,15,15,6,,,,,,,,,,,,,,,,,,,,,,,,,,,195,reward,,,,,,1138.828039899934,1138.828039899934,1138.828039899934,1138.828039899934,0,,,0,,,0,,,0,,,1139.7308295001276,1139.7308295001276,1139.7308295001276,1139.7308295001276,1,A,2024-04-02_12h49.22.299,attentional_competition_task,2022.2.4,143.9783226464065,
positions.xlsx,positions_test.xlsx,positions_test_new.xlsx,stimuli.xlsx,stimuli_new.xlsx,stimuli/Social1.png,stimuli/Social2.png,stimuli/Nonsocial1.png,stimuli/Nonsocial2.png,stimuli/Social3.png,stimuli/Social4.png,stimuli/Nonsocial3.png,stimuli/Nonsocial4.png,,,"(-0.7, -0.5)",cs_pos_s,"(-0.7, 0.5)",cs_neg_ns,"(0.7, -0.5)",cs_pos_ns,"(0.7, 0.5)",cs_neg_s,0,0,0,0,,,,,,,,,,,,,,,,,,,,,0,16,16,9,,,,,,,,,,,,,,,,,,,,,,,,,,,204,reward,,,,,,1147.49439180037,1147.49439180037,1147.49439180037,1147.49439180037,1,0.02438499964773655,0.0373972998932004,0,,,0,,,0,,,1148.2513236999512,1148.2513236999512,1148.2513236999512,1148.2513236999512,1,A,2024-04-02_12h49.22.299,attentional_competition_task,2022.2.4,143.9783226464065,
positions.xlsx,positions_test.xlsx,positions_test_new.xlsx,stimuli.xlsx,stimuli_new.xlsx,stimuli/Social1.png,stimuli/Social2.png,stimuli/Nonsocial1.png,stimuli/Nonsocial2.png,stimuli/Social3.png,stimuli/Social4.png,stimuli/Nonsocial3.png,stimuli/Nonsocial4.png,,,"(-0.7, -0.5)",cs_neg_ns,"(-0.7, 0.5)",cs_neg_s,"(0.7, -0.5)",cs_pos_s,"(0.7, 0.5)",cs_pos_ns,0,0,0,0,,,,,,,,,,,,,,,,,,,,,0,17,17,14,,,,,,,,,,,,,,,,,,,,,,,,,,,210,reward,,,,,,1155.7510421001352,1155.7510421001352,1155.7510421001352,1155.7510421001352,0,,,0,,,1,0.029071100056171417,0.3353321999311447,1,0.35601469967514277,0.3560180999338627,1156.0982270999812,1156.0982270999812,1156.0982270999812,1156.0982270999812,1,A,2024-04-02_12h49.22.299,attentional_competition_task,2022.2.4,143.9783226464065,
positions.xlsx,positions_test.xlsx,positions_test_new.xlsx,stimuli.xlsx,stimuli_new.xlsx,stimuli/Social1.png,stimuli/Social2.png,stimuli/Nonsocial1.png,stimuli/Nonsocial2.png,stimuli/Social3.png,stimuli/Social4.png,stimuli/Nonsocial3.png,stimuli/Nonsocial4.png,,,"(-0.7, -0.5)",cs_neg_s,"(-0.7, 0.5)",cs_neg_ns,"(0.7, -0.5)",cs_pos_s,"(0.7, 0.5)",cs_pos_ns,0,0,0,0,,,,,,,,,,,,,,,,,,,,,0,18,18,2,,,,,,,,,,,,,,,,,,,,,,,,,,,219,reward,,,,,,1165.2297944002785,1165.2297944002785,1165.2297944002785,1165.2297944002785,0,,,0,,,0,,,1,0.02990700025111437,0.04539970029145479,1166.160318300128,1166.160318300128,1166.160318300128,1166.160318300128,1,A,2024-04-02_12h49.22.299,attentional_competition_task,2022.2.4,143.9783226464065,
positions.xlsx,positions_test.xlsx,positions_test_new.xlsx,stimuli.xlsx,stimuli_new.xlsx,stimuli/Social1.png,stimuli/Social2.png,stimuli/Nonsocial1.png,stimuli/Nonsocial2.png,stimuli/Social3.png,stimuli/Social4.png,stimuli/Nonsocial3.png,stimuli/Nonsocial4.png,,,"(-0.7, -0.5)",cs_neg_ns,"(-0.7, 0.5)",cs_pos_s,"(0.7, -0.5)",cs_pos_ns,"(0.7, 0.5)",cs_neg_s,0,0,0,0,,,,,,,,,,,,,,,,,,,,,0,19,19,13,,,,,,,,,,,,,,,,,,,,,,,,,,,228,reward,,,,,,1173.000343600288,1173.000343600288,1173.000343600288,1173.000343600288,0,,,1,0.02793839992955327,0.037066000048071146,0,,,0,,,1173.9517487999983,1173.9517487999983,1173.9517487999983,1173.9517487999983,1,A,2024-04-02_12h49.22.299,attentional_competition_task,2022.2.4,143.9783226464065,
positions.xlsx,positions_test.xlsx,positions_test_new.xlsx,stimuli.xlsx,stimuli_new.xlsx,stimuli/Social1.png,stimuli/Social2.png,stimuli/Nonsocial1.png,stimuli/Nonsocial2.png,stimuli/Social3.png,stimuli/Social4.png,stimuli/Nonsocial3.png,stimuli/Nonsocial4.png,,,"(-0.7, -0.5)",cs_pos_ns,"(-0.7, 0.5)",cs_neg_ns,"(0.7, -0.5)",cs_pos_s,"(0.7, 0.5)",cs_neg_s,0,0,0,0,,,,,,,,,,,,,,,,,,,,,0,20,20,20,,,,,,,,,,,,,,,,,,,,,,,,,,,237,reward,,,,,,1182.1596730002202,1182.1596730002202,1182.1596730002202,1182.1596730002202,0,,,0,,,1,0.02644009981304407,0.0745660001412034,0,,,1182.9652154999785,1182.9652154999785,1182.9652154999785,1182.9652154999785,1,A,2024-04-02_12h49.22.299,attentional_competition_task,2022.2.4,143.9783226464065,
positions.xlsx,positions_test.xlsx,positions_test_new.xlsx,stimuli.xlsx,stimuli_new.xlsx,stimuli/Social1.png,stimuli/Social2.png,stimuli/Nonsocial1.png,stimuli/Nonsocial2.png,stimuli/Social3.png,stimuli/Social4.png,stimuli/Nonsocial3.png,stimuli/Nonsocial4.png,,,"(-0.7, -0.5)",cs_neg_s,"(-0.7, 0.5)",cs_pos_s,"(0.7, -0.5)",cs_neg_ns,"(0.7, 0.5)",cs_pos_ns,0,0,0,0,,,,,,,,,,,,,,,,,,,,,0,21,21,0,,,,,,,,,,,,,,,,,,,,,,,,,,,246,reward,,,,,,1190.207952500321,1190.207952500321,1190.207952500321,1190.207952500321,0,,,1,0.024871500208973885,0.06523679988458753,0,,,0,,,1191.0551837999374,1191.0551837999374,1191.0551837999374,1191.0551837999374,1,A,2024-04-02_12h49.22.299,attentional_competition_task,2022.2.4,143.9783226464065,
positions.xlsx,positions_test.xlsx,positions_test_new.xlsx,stimuli.xlsx,stimuli_new.xlsx,stimuli/Social1.png,stimuli/Social2.png,stimuli/Nonsocial1.png,stimuli/Nonsocial2.png,stimuli/Social3.png,stimuli/Social4.png,stimuli/Nonsocial3.png,stimuli/Nonsocial4.png,,,"(-0.7, -0.5)",cs_pos_ns,"(-0.7, 0.5)",cs_neg_ns,"(0.7, -0.5)",cs_neg_s,"(0.7, 0.5)",cs_pos_s,0,0,0,0,,,,,,,,,,,,,,,,,,,,,0,22,22,21,,,,,,,,,,,,,,,,,,,,,,,,,,,255,reward,,,,,,1198.1104172002524,1198.1104172002524,1198.1104172002524,1198.1104172002524,0,,,0,,,0,,,0,,,1198.971508000046,1198.971508000046,1198.971508000046,1198.971508000046,1,A,2024-04-02_12h49.22.299,attentional_competition_task,2022.2.4,143.9783226464065,
positions.xlsx,positions_test.xlsx,positions_test_new.xlsx,stimuli.xlsx,stimuli_new.xlsx,stimuli/Social1.png,stimuli/Social2.png,stimuli/Nonsocial1.png,stimuli/Nonsocial2.png,stimuli/Social3.png,stimuli/Social4.png,stimuli/Nonsocial3.png,stimuli/Nonsocial4.png,,,"(-0.7, -0.5)",cs_pos_s,"(-0.7, 0.5)",cs_neg_ns,"(0.7, -0.5)",cs_neg_s,"(0.7, 0.5)",cs_pos_ns,0,0,0,0,,,,,,,,,,,,,,,,,,,,,0,23,23,8,,,,,,,,,,,,,,,,,,,,,,,,,,,264,reward,,,,,,1205.8948156000115,1205.8948156000115,1205.8948156000115,1205.8948156000115,1,0.021579300053417683,0.12060360005125403,0,,,0,,,0,,,1206.7975779003464,1206.7975779003464,1206.7975779003464,1206.7975779003464,1,A,2024-04-02_12h49.22.299,attentional_competition_task,2022.2.4,143.9783226464065,
positions.xlsx,positions_test.xlsx,positions_test_new.xlsx,stimuli.xlsx,stimuli_new.xlsx,stimuli/Social1.png,stimuli/Social2.png,stimuli/Nonsocial1.png,stimuli/Nonsocial2.png,stimuli/Social3.png,stimuli/Social4.png,stimuli/Nonsocial3.png,stimuli/Nonsocial4.png,,,"(-0.7, -0.5)",cs_neg_ns,"(-0.7, 0.5)",cs_pos_ns,"(0.7, -0.5)",cs_pos_s,"(0.7, 0.5)",cs_neg_s,0,0,0,0,,,,,,,,,,,,,,,,,,,,,1,0,24,16,,,,,,,,,,,,,,,,,,,,,,,,,,,273,reward,,,,,,1215.0750076002441,1215.0750076002441,1215.0750076002441,1215.0750076002441,0,,,0,,,0,,,0,,,1215.7347082002088,1215.7347082002088,1215.7347082002088,1215.7347082002088,1,A,2024-04-02_12h49.22.299,attentional_competition_task,2022.2.4,143.9783226464065,
positions.xlsx,positions_test.xlsx,positions_test_new.xlsx,stimuli.xlsx,stimuli_new.xlsx,stimuli/Social1.png,stimuli/Social2.png,stimuli/Nonsocial1.png,stimuli/Nonsocial2.png,stimuli/Social3.png,stimuli/Social4.png,stimuli/Nonsocial3.png,stimuli/Nonsocial4.png,,,"(-0.7, -0.5)",cs_pos_s,"(-0.7, 0.5)",cs_neg_ns,"(0.7, -0.5)",cs_neg_s,"(0.7, 0.5)",cs_pos_ns,0,0,0,0,,,,,,,,,,,,,,,,,,,,,1,1,25,8,,,,,,,,,,,,,,,,,,,,,,,,,,,282,reward,,,,,,1223.8385773999617,1223.8385773999617,1223.8385773999617,1223.8385773999617,0,,,0,,,0,,,0,,,1224.588539000135,1224.588539000135,1224.588539000135,1224.588539000135,1,A,2024-04-02_12h49.22.299,attentional_competition_task,2022.2.4,143.9783226464065,
positions.xlsx,positions_test.xlsx,positions_test_new.xlsx,stimuli.xlsx,stimuli_new.xlsx,stimuli/Social1.png,stimuli/Social2.png,stimuli/Nonsocial1.png,stimuli/Nonsocial2.png,stimuli/Social3.png,stimuli/Social4.png,stimuli/Nonsocial3.png,stimuli/Nonsocial4.png,,,"(-0.7, -0.5)",cs_neg_s,"(-0.7, 0.5)",cs_neg_ns,"(0.7, -0.5)",cs_pos_s,"(0.7, 0.5)",cs_pos_ns,0,0,0,0,,,,,,,,,,,,,,,,,,,,,1,2,26,2,,,,,,,,,,,,,,,,,,,,,,,,,,,291,reward,,,,,,1232.0951539999805,1232.0951539999805,1232.0951539999805,1232.0951539999805,0,,,0,,,1,0.024766700342297554,0.09390040021389723,0,,,1232.9770865999162,1232.9770865999162,1232.9770865999162,1232.9770865999162,1,A,2024-04-02_12h49.22.299,attentional_competition_task,2022.2.4,143.9783226464065,
positions.xlsx,positions_test.xlsx,positions_test_new.xlsx,stimuli.xlsx,stimuli_new.xlsx,stimuli/Social1.png,stimuli/Social2.png,stimuli/Nonsocial1.png,stimuli/Nonsocial2.png,stimuli/Social3.png,stimuli/Social4.png,stimuli/Nonsocial3.png,stimuli/Nonsocial4.png,,,"(-0.7, -0.5)",cs_neg_s,"(-0.7, 0.5)",cs_pos_ns,"(0.7, -0.5)",cs_pos_s,"(0.7, 0.5)",cs_neg_ns,0,0,0,0,,,,,,,,,,,,,,,,,,,,,1,3,27,4,,,,,,,,,,,,,,,,,,,,,,,,,,,300,reward,,,,,,1241.0184156000614,1241.0184156000614,1241.0184156000614,1241.0184156000614,0,,,0,,,0,,,0,,,1241.8725662003271,1241.8725662003271,1241.8725662003271,1241.8725662003271,1,A,2024-04-02_12h49.22.299,attentional_competition_task,2022.2.4,143.9783226464065,
positions.xlsx,positions_test.xlsx,positions_test_new.xlsx,stimuli.xlsx,stimuli_new.xlsx,stimuli/Social1.png,stimuli/Social2.png,stimuli/Nonsocial1.png,stimuli/Nonsocial2.png,stimuli/Social3.png,stimuli/Social4.png,stimuli/Nonsocial3.png,stimuli/Nonsocial4.png,,,"(-0.7, -0.5)",cs_neg_ns,"(-0.7, 0.5)",cs_neg_s,"(0.7, -0.5)",cs_pos_ns,"(0.7, 0.5)",cs_pos_s,0,0,0,0,,,,,,,,,,,,,,,,,,,,,1,4,28,15,,,,,,,,,,,,,,,,,,,,,,,,,,,309,reward,,,,,,1249.4070041002706,1249.4070041002706,1249.4070041002706,1249.4070041002706,0,,,0,,,0,,,1,0.023927800357341766,0.06712800031527877,1250.3583563999273,1250.3583563999273,1250.3583563999273,1250.3583563999273,1,A,2024-04-02_12h49.22.299,attentional_competition_task,2022.2.4,143.9783226464065,
positions.xlsx,positions_test.xlsx,positions_test_new.xlsx,stimuli.xlsx,stimuli_new.xlsx,stimuli/Social1.png,stimuli/Social2.png,stimuli/Nonsocial1.png,stimuli/Nonsocial2.png,stimuli/Social3.png,stimuli/Social4.png,stimuli/Nonsocial3.png,stimuli/Nonsocial4.png,,,"(-0.7, -0.5)",cs_pos_s,"(-0.7, 0.5)",cs_pos_ns,"(0.7, -0.5)",cs_neg_s,"(0.7, 0.5)",cs_neg_ns,0,0,0,0,,,,,,,,,,,,,,,,,,,,,1,5,29,10,,,,,,,,,,,,,,,,,,,,,,,,,,,318,reward,,,,,,1257.8996663000435,1257.8996663000435,1257.8996663000435,1257.8996663000435,1,0.027735200244933367,0.0422108001075685,0,,,0,,,0,,,1258.7121744002216,1258.7121744002216,1258.7121744002216,1258.7121744002216,1,A,2024-04-02_12h49.22.299,attentional_competition_task,2022.2.4,143.9783226464065,
positions.xlsx,positions_test.xlsx,positions_test_new.xlsx,stimuli.xlsx,stimuli_new.xlsx,stimuli/Social1.png,stimuli/Social2.png,stimuli/Nonsocial1.png,stimuli/Nonsocial2.png,stimuli/Social3.png,stimuli/Social4.png,stimuli/Nonsocial3.png,stimuli/Nonsocial4.png,,,"(-0.7, -0.5)",cs_neg_ns,"(-0.7, 0.5)",cs_neg_s,"(0.7, -0.5)",cs_pos_s,"(0.7, 0.5)",cs_pos_ns,0,0,0,0,,,,,,,,,,,,,,,,,,,,,1,6,30,14,,,,,,,,,,,,,,,,,,,,,,,,,,,327,reward,,,,,,1266.8298897002824,1266.8298897002824,1266.8298897002824,1266.8298897002824,0,,,0,,,0,,,0,,,1267.6771142999642,1267.6771142999642,1267.6771142999642,1267.6771142999642,1,A,2024-04-02_12h49.22.299,attentional_competition_task,2022.2.4,143.9783226464065,
positions.xlsx,positions_test.xlsx,positions_test_new.xlsx,stimuli.xlsx,stimuli_new.xlsx,stimuli/Social1.png,stimuli/Social2.png,stimuli/Nonsocial1.png,stimuli/Nonsocial2.png,stimuli/Social3.png,stimuli/Social4.png,stimuli/Nonsocial3.png,stimuli/Nonsocial4.png,,,"(-0.7, -0.5)",cs_pos_ns,"(-0.7, 0.5)",cs_pos_s,"(0.7, -0.5)",cs_neg_s,"(0.7, 0.5)",cs_neg_ns,0,0,0,0,,,,,,,,,,,,,,,,,,,,,1,7,31,19,,,,,,,,,,,,,,,,,,,,,,,,,,,336,reward,,,,,,1274.4337603999302,1274.4337603999302,1274.4337603999302,1274.4337603999302,0,,,0,,,0,,,0,,,1275.454589200206,1275.454589200206,1275.454589200206,1275.454589200206,1,A,2024-04-02_12h49.22.299,attentional_competition_task,2022.2.4,143.9783226464065,
positions.xlsx,positions_test.xlsx,positions_test_new.xlsx,stimuli.xlsx,stimuli_new.xlsx,stimuli/Social1.png,stimuli/Social2.png,stimuli/Nonsocial1.png,stimuli/Nonsocial2.png,stimuli/Social3.png,stimuli/Social4.png,stimuli/Nonsocial3.png,stimuli/Nonsocial4.png,,,"(-0.7, -0.5)",cs_neg_ns,"(-0.7, 0.5)",cs_pos_s,"(0.7, -0.5)",cs_pos_ns,"(0.7, 0.5)",cs_neg_s,0,0,0,0,,,,,,,,,,,,,,,,,,,,,1,8,32,13,,,,,,,,,,,,,,,,,,,,,,,,,,,345,reward,,,,,,1283.6069925003685,1283.6069925003685,1283.6069925003685,1283.6069925003685,0,,,0,,,0,,,0,,,1284.5375280999579,1284.5375280999579,1284.5375280999579,1284.5375280999579,1,A,2024-04-02_12h49.22.299,attentional_competition_task,2022.2.4,143.9783226464065,
positions.xlsx,positions_test.xlsx,positions_test_new.xlsx,stimuli.xlsx,stimuli_new.xlsx,stimuli/Social1.png,stimuli/Social2.png,stimuli/Nonsocial1.png,stimuli/Nonsocial2.png,stimuli/Social3.png,stimuli/Social4.png,stimuli/Nonsocial3.png,stimuli/Nonsocial4.png,,,"(-0.7, -0.5)",cs_pos_ns,"(-0.7, 0.5)",cs_neg_ns,"(0.7, -0.5)",cs_neg_s,"(0.7, 0.5)",cs_pos_s,0,0,0,0,,,,,,,,,,,,,,,,,,,,,1,9,33,21,,,,,,,,,,,,,,,,,,,,,,,,,,,354,reward,,,,,,1293.3427333999425,1293.3427333999425,1293.3427333999425,1293.3427333999425,0,,,0,,,0,,,0,,,1293.3427333999425,1293.3427333999425,1293.3427333999425,1293.3427333999425,1,A,2024-04-02_12h49.22.299,attentional_competition_task,2022.2.4,143.9783226464065,
positions.xlsx,positions_test.xlsx,positions_test_new.xlsx,stimuli.xlsx,stimuli_new.xlsx,stimuli/Social1.png,stimuli/Social2.png,stimuli/Nonsocial1.png,stimuli/Nonsocial2.png,stimuli/Social3.png,stimuli/Social4.png,stimuli/Nonsocial3.png,stimuli/Nonsocial4.png,,,"(-0.7, -0.5)",cs_pos_s,"(-0.7, 0.5)",cs_pos_ns,"(0.7, -0.5)",cs_neg_ns,"(0.7, 0.5)",cs_neg_s,0,0,0,0,,,,,,,,,,,,,,,,,,,,,1,10,34,11,,,,,,,,,,,,,,,,,,,,,,,,,,,363,reward,,,,,,1301.6896085999906,1301.6896085999906,1301.6896085999906,1301.6896085999906,0,,,0,,,0,,,0,,,1302.265977400355,1302.265977400355,1302.265977400355,1302.265977400355,1,A,2024-04-02_12h49.22.299,attentional_competition_task,2022.2.4,143.9783226464065,
positions.xlsx,positions_test.xlsx,positions_test_new.xlsx,stimuli.xlsx,stimuli_new.xlsx,stimuli/Social1.png,stimuli/Social2.png,stimuli/Nonsocial1.png,stimuli/Nonsocial2.png,stimuli/Social3.png,stimuli/Social4.png,stimuli/Nonsocial3.png,stimuli/Nonsocial4.png,,,"(-0.7, -0.5)",cs_pos_ns,"(-0.7, 0.5)",cs_neg_ns,"(0.7, -0.5)",cs_pos_s,"(0.7, 0.5)",cs_neg_s,0,0,0,0,,,,,,,,,,,,,,,,,,,,,1,11,35,20,,,,,,,,,,,,,,,,,,,,,,,,,,,372,reward,,,,,,1310.3350867000408,1310.3350867000408,1310.3350867000408,1310.3350867000408,0,,,0,,,1,0.02313280012458563,0.031192199792712927,0,,,1311.008677100297,1311.008677100297,1311.008677100297,1311.008677100297,1,A,2024-04-02_12h49.22.299,attentional_competition_task,2022.2.4,143.9783226464065,
positions.xlsx,positions_test.xlsx,positions_test_new.xlsx,stimuli.xlsx,stimuli_new.xlsx,stimuli/Social1.png,stimuli/Social2.png,stimuli/Nonsocial1.png,stimuli/Nonsocial2.png,stimuli/Social3.png,stimuli/Social4.png,stimuli/Nonsocial3.png,stimuli/Nonsocial4.png,,,"(-0.7, -0.5)",cs_pos_ns,"(-0.7, 0.5)",cs_pos_s,"(0.7, -0.5)",cs_neg_ns,"(0.7, 0.5)",cs_neg_s,0,0,0,0,,,,,,,,,,,,,,,,,,,,,1,12,36,18,,,,,,,,,,,,,,,,,,,,,,,,,,,381,reward,,,,,,1319.0916792000644,1319.0916792000644,1319.0916792000644,1319.0916792000644,0,,,1,0.02370789973065257,0.46169109968468547,0,,,0,,,1320.077764800284,1320.077764800284,1320.077764800284,1320.077764800284,1,A,2024-04-02_12h49.22.299,attentional_competition_task,2022.2.4,143.9783226464065,
positions.xlsx,positions_test.xlsx,positions_test_new.xlsx,stimuli.xlsx,stimuli_new.xlsx,stimuli/Social1.png,stimuli/Social2.png,stimuli/Nonsocial1.png,stimuli/Nonsocial2.png,stimuli/Social3.png,stimuli/Social4.png,stimuli/Nonsocial3.png,stimuli/Nonsocial4.png,,,"(-0.7, -0.5)",cs_pos_ns,"(-0.7, 0.5)",cs_neg_s,"(0.7, -0.5)",cs_neg_ns,"(0.7, 0.5)",cs_pos_s,0,0,0,0,,,,,,,,,,,,,,,,,,,,,1,13,37,23,,,,,,,,,,,,,,,,,,,,,,,,,,,390,reward,,,,,,1327.4246836001985,1327.4246836001985,1327.4246836001985,1327.4246836001985,0,,,0,,,0,,,1,0.023306299932301044,0.07398509979248047,1328.4107590001076,1328.4107590001076,1328.4107590001076,1328.4107590001076,1,A,2024-04-02_12h49.22.299,attentional_competition_task,2022.2.4,143.9783226464065,
positions.xlsx,positions_test.xlsx,positions_test_new.xlsx,stimuli.xlsx,stimuli_new.xlsx,stimuli/Social1.png,stimuli/Social2.png,stimuli/Nonsocial1.png,stimuli/Nonsocial2.png,stimuli/Social3.png,stimuli/Social4.png,stimuli/Nonsocial3.png,stimuli/Nonsocial4.png,,,"(-0.7, -0.5)",cs_neg_s,"(-0.7, 0.5)",cs_neg_ns,"(0.7, -0.5)",cs_pos_ns,"(0.7, 0.5)",cs_pos_s,0,0,0,0,,,,,,,,,,,,,,,,,,,,,1,14,38,3,,,,,,,,,,,,,,,,,,,,,,,,,,,399,reward,,,,,,1335.9868369000033,1335.9868369000033,1335.9868369000033,1335.9868369000033,0,,,0,,,0,,,1,0.02553749969229102,0.11646009981632233,1336.8479448002763,1336.8479448002763,1336.8479448002763,1336.8479448002763,1,A,2024-04-02_12h49.22.299,attentional_competition_task,2022.2.4,143.9783226464065,
positions.xlsx,positions_test.xlsx,positions_test_new.xlsx,stimuli.xlsx,stimuli_new.xlsx,stimuli/Social1.png,stimuli/Social2.png,stimuli/Nonsocial1.png,stimuli/Nonsocial2.png,stimuli/Social3.png,stimuli/Social4.png,stimuli/Nonsocial3.png,stimuli/Nonsocial4.png,,,"(-0.7, -0.5)",cs_neg_s,"(-0.7, 0.5)",cs_pos_s,"(0.7, -0.5)",cs_pos_ns,"(0.7, 0.5)",cs_neg_ns,0,0,0,0,,,,,,,,,,,,,,,,,,,,,1,15,39,1,,,,,,,,,,,,,,,,,,,,,,,,,,,408,reward,,,,,,1344.5698794000782,1344.5698794000782,1344.5698794000782,1344.5698794000782,0,,,0,,,0,,,0,,,1345.4170317999087,1345.4170317999087,1345.4170317999087,1345.4170317999087,1,A,2024-04-02_12h49.22.299,attentional_competition_task,2022.2.4,143.9783226464065,
positions.xlsx,positions_test.xlsx,positions_test_new.xlsx,stimuli.xlsx,stimuli_new.xlsx,stimuli/Social1.png,stimuli/Social2.png,stimuli/Nonsocial1.png,stimuli/Nonsocial2.png,stimuli/Social3.png,stimuli/Social4.png,stimuli/Nonsocial3.png,stimuli/Nonsocial4.png,,,"(-0.7, -0.5)",cs_neg_s,"(-0.7, 0.5)",cs_pos_ns,"(0.7, -0.5)",cs_neg_ns,"(0.7, 0.5)",cs_pos_s,0,0,0,0,,,,,,,,,,,,,,,,,,,,,1,16,40,5,,,,,,,,,,,,,,,,,,,,,,,,,,,417,reward,,,,,,1353.1319822003134,1353.1319822003134,1353.1319822003134,1353.1319822003134,0,,,0,,,0,,,0,,,1354.1250410000794,1354.1250410000794,1354.1250410000794,1354.1250410000794,1,A,2024-04-02_12h49.22.299,attentional_competition_task,2022.2.4,143.9783226464065,
positions.xlsx,positions_test.xlsx,positions_test_new.xlsx,stimuli.xlsx,stimuli_new.xlsx,stimuli/Social1.png,stimuli/Social2.png,stimuli/Nonsocial1.png,stimuli/Nonsocial2.png,stimuli/Social3.png,stimuli/Social4.png,stimuli/Nonsocial3.png,stimuli/Nonsocial4.png,,,"(-0.7, -0.5)",cs_pos_s,"(-0.7, 0.5)",cs_neg_ns,"(0.7, -0.5)",cs_pos_ns,"(0.7, 0.5)",cs_neg_s,0,0,0,0,,,,,,,,,,,,,,,,,,,,,1,17,41,9,,,,,,,,,,,,,,,,,,,,,,,,,,,426,reward,,,,,,1362.0275003002025,1362.0275003002025,1362.0275003002025,1362.0275003002025,0,,,0,,,0,,,0,,,1363.0274435002357,1363.0274435002357,1363.0274435002357,1363.0274435002357,1,A,2024-04-02_12h49.22.299,attentional_competition_task,2022.2.4,143.9783226464065,
positions.xlsx,positions_test.xlsx,positions_test_new.xlsx,stimuli.xlsx,stimuli_new.xlsx,stimuli/Social1.png,stimuli/Social2.png,stimuli/Nonsocial1.png,stimuli/Nonsocial2.png,stimuli/Social3.png,stimuli/Social4.png,stimuli/Nonsocial3.png,stimuli/Nonsocial4.png,,,"(-0.7, -0.5)",cs_pos_ns,"(-0.7, 0.5)",cs_neg_s,"(0.7, -0.5)",cs_pos_s,"(0.7, 0.5)",cs_neg_ns,0,0,0,0,,,,,,,,,,,,,,,,,,,,,1,18,42,22,,,,,,,,,,,,,,,,,,,,,,,,,,,432,reward,,,,,,1369.9091179003008,1369.9091179003008,1369.9091179003008,1369.9091179003008,0,,,0,,,1,0.40558530017733574,0.40558920009061694,0,,,1370.3188118003309,1370.3188118003309,1370.3188118003309,1370.3188118003309,1,A,2024-04-02_12h49.22.299,attentional_competition_task,2022.2.4,143.9783226464065,
positions.xlsx,positions_test.xlsx,positions_test_new.xlsx,stimuli.xlsx,stimuli_new.xlsx,stimuli/Social1.png,stimuli/Social2.png,stimuli/Nonsocial1.png,stimuli/Nonsocial2.png,stimuli/Social3.png,stimuli/Social4.png,stimuli/Nonsocial3.png,stimuli/Nonsocial4.png,,,"(-0.7, -0.5)",cs_neg_ns,"(-0.7, 0.5)",cs_pos_ns,"(0.7, -0.5)",cs_neg_s,"(0.7, 0.5)",cs_pos_s,0,0,0,0,,,,,,,,,,,,,,,,,,,,,1,19,43,17,,,,,,,,,,,,,,,,,,,,,,,,,,,441,reward,,,,,,1378.4851546003483,1378.4851546003483,1378.4851546003483,1378.4851546003483,0,,,0,,,0,,,0,,,1379.4295669002458,1379.4295669002458,1379.4295669002458,1379.4295669002458,1,A,2024-04-02_12h49.22.299,attentional_competition_task,2022.2.4,143.9783226464065,
positions.xlsx,positions_test.xlsx,positions_test_new.xlsx,stimuli.xlsx,stimuli_new.xlsx,stimuli/Social1.png,stimuli/Social2.png,stimuli/Nonsocial1.png,stimuli/Nonsocial2.png,stimuli/Social3.png,stimuli/Social4.png,stimuli/Nonsocial3.png,stimuli/Nonsocial4.png,,,"(-0.7, -0.5)",cs_pos_s,"(-0.7, 0.5)",cs_neg_s,"(0.7, -0.5)",cs_neg_ns,"(0.7, 0.5)",cs_pos_ns,0,0,0,0,,,,,,,,,,,,,,,,,,,,,1,20,44,6,,,,,,,,,,,,,,,,,,,,,,,,,,,450,reward,,,,,,1387.5542609002441,1387.5542609002441,1387.5542609002441,1387.5542609002441,1,0.029276799876242876,0.09226279985159636,0,,,0,,,0,,,1388.151480300352,1388.151480300352,1388.151480300352,1388.151480300352,1,A,2024-04-02_12h49.22.299,attentional_competition_task,2022.2.4,143.9783226464065,
positions.xlsx,positions_test.xlsx,positions_test_new.xlsx,stimuli.xlsx,stimuli_new.xlsx,stimuli/Social1.png,stimuli/Social2.png,stimuli/Nonsocial1.png,stimuli/Nonsocial2.png,stimuli/Social3.png,stimuli/Social4.png,stimuli/Nonsocial3.png,stimuli/Nonsocial4.png,,,"(-0.7, -0.5)",cs_pos_s,"(-0.7, 0.5)",cs_neg_s,"(0.7, -0.5)",cs_pos_ns,"(0.7, 0.5)",cs_neg_ns,0,0,0,0,,,,,,,,,,,,,,,,,,,,,1,21,45,7,,,,,,,,,,,,,,,,,,,,,,,,,,,459,reward,,,,,,1396.2622022000141,1396.2622022000141,1396.2622022000141,1396.2622022000141,0,,,0,,,0,,,0,,,1397.220526699908,1397.220526699908,1397.220526699908,1397.220526699908,1,A,2024-04-02_12h49.22.299,attentional_competition_task,2022.2.4,143.9783226464065,
positions.xlsx,positions_test.xlsx,positions_test_new.xlsx,stimuli.xlsx,stimuli_new.xlsx,stimuli/Social1.png,stimuli/Social2.png,stimuli/Nonsocial1.png,stimuli/Nonsocial2.png,stimuli/Social3.png,stimuli/Social4.png,stimuli/Nonsocial3.png,stimuli/Nonsocial4.png,,,"(-0.7, -0.5)",cs_neg_ns,"(-0.7, 0.5)",cs_pos_s,"(0.7, -0.5)",cs_neg_s,"(0.7, 0.5)",cs_pos_ns,0,0,0,0,,,,,,,,,,,,,,,,,,,,,1,22,46,12,,,,,,,,,,,,,,,,,,,,,,,,,,,462,reward,,,,,,1405.2132824002765,1405.2132824002765,1405.2132824002765,1405.2132824002765,0,,,1,0.05221720039844513,0.05992530006915331,0,,,0,,,1405.2757260003127,1405.2757260003127,1405.2757260003127,1405.2757260003127,1,A,2024-04-02_12h49.22.299,attentional_competition_task,2022.2.4,143.9783226464065,
positions.xlsx,positions_test.xlsx,positions_test_new.xlsx,stimuli.xlsx,stimuli_new.xlsx,stimuli/Social1.png,stimuli/Social2.png,stimuli/Nonsocial1.png,stimuli/Nonsocial2.png,stimuli/Social3.png,stimuli/Social4.png,stimuli/Nonsocial3.png,stimuli/Nonsocial4.png,,,"(-0.7, -0.5)",cs_neg_s,"(-0.7, 0.5)",cs_pos_s,"(0.7, -0.5)",cs_neg_ns,"(0.7, 0.5)",cs_pos_ns,0,0,0,0,,,,,,,,,,,,,,,,,,,,,1,23,47,0,,,,,,,,,,,,,,,,,,,,,,,,,,,471,reward,,,,,,1413.2337676002644,1413.2337676002644,1413.2337676002644,1413.2337676002644,0,,,1,0.022713899612426758,0.10852869972586632,0,,,0,,,1414.16430449998,1414.16430449998,1414.16430449998,1414.16430449998,1,A,2024-04-02_12h49.22.299,attentional_competition_task,2022.2.4,143.9783226464065,
positions.xlsx,positions_test.xlsx,positions_test_new.xlsx,stimuli.xlsx,stimuli_new.xlsx,stimuli/Social1.png,stimuli/Social2.png,stimuli/Nonsocial1.png,stimuli/Nonsocial2.png,stimuli/Social3.png,stimuli/Social4.png,stimuli/Nonsocial3.png,stimuli/Nonsocial4.png,,,"(-0.7, -0.5)",cs_pos_s,"(-0.7, 0.5)",cs_pos_ns,"(0.7, -0.5)",cs_neg_s_new,"(0.7, 0.5)",cs_neg_ns,0,0,0,0,,,,,,,,,,,,,,,,,,,,,,,,,,,,,0,0,0,14,0,0,0,0,,,,,,,,,,,,,,,474,reward,,,,,,1421.0459444001317,1421.0459444001317,1421.0459444001317,1421.0459444001317,0,,,1,0.7592199998907745,0.7592261997051537,0,,,0,,,1421.8029163000174,1421.8029163000174,1421.8029163000174,1421.8029163000174,1,A,2024-04-02_12h49.22.299,attentional_competition_task,2022.2.4,143.9783226464065,
positions.xlsx,positions_test.xlsx,positions_test_new.xlsx,stimuli.xlsx,stimuli_new.xlsx,stimuli/Social1.png,stimuli/Social2.png,stimuli/Nonsocial1.png,stimuli/Nonsocial2.png,stimuli/Social3.png,stimuli/Social4.png,stimuli/Nonsocial3.png,stimuli/Nonsocial4.png,,,"(-0.7, -0.5)",cs_pos_s,"(-0.7, 0.5)",cs_pos_ns,"(0.7, -0.5)",cs_neg_s_new,"(0.7, 0.5)",cs_neg_ns,0,0,0,0,,,,,,,,,,,,,,,,,,,,,,,,,,,,,0,0,0,14,1,0,1,0,,,,,,,,,,,,,,,477,reward,,,,,,1422.3375621000305,1422.3375621000305,1422.3375621000305,1422.3375621000305,1,0.029494999907910824,0.02949910005554557,0,,,0,,,0,,,1422.3375621000305,1422.3375621000305,1422.3375621000305,1422.3375621000305,1,A,2024-04-02_12h49.22.299,attentional_competition_task,2022.2.4,143.9783226464065,
positions.xlsx,positions_test.xlsx,positions_test_new.xlsx,stimuli.xlsx,stimuli_new.xlsx,stimuli/Social1.png,stimuli/Social2.png,stimuli/Nonsocial1.png,stimuli/Nonsocial2.png,stimuli/Social3.png,stimuli/Social4.png,stimuli/Nonsocial3.png,stimuli/Nonsocial4.png,,,"(-0.7, -0.5)",cs_pos_s,"(-0.7, 0.5)",cs_pos_ns,"(0.7, -0.5)",cs_neg_s_new,"(0.7, 0.5)",cs_neg_ns,0,0,0,0,,,,,,,,,,,,,,,,,,,,,,,,,,,,,0,0,0,14,2,0,2,0,,,,,,,,,,,,,,,480,reward,,,,,,1422.8444819003344,1422.8444819003344,1422.8444819003344,1422.8444819003344,0,,,0,,,0,,,0,,,1423.559751600027,1423.559751600027,1423.559751600027,1423.559751600027,1,A,2024-04-02_12h49.22.299,attentional_competition_task,2022.2.4,143.9783226464065,
positions.xlsx,positions_test.xlsx,positions_test_new.xlsx,stimuli.xlsx,stimuli_new.xlsx,stimuli/Social1.png,stimuli/Social2.png,stimuli/Nonsocial1.png,stimuli/Nonsocial2.png,stimuli/Social3.png,stimuli/Social4.png,stimuli/Nonsocial3.png,stimuli/Nonsocial4.png,,,"(-0.7, -0.5)",cs_pos_s,"(-0.7, 0.5)",cs_pos_ns,"(0.7, -0.5)",cs_neg_s_new,"(0.7, 0.5)",cs_neg_ns,0,0,0,0,,,,,,,,,,,,,,,,,,,,,,,,,,,,,0,0,0,14,,,,,,,,,,,,,,,,,,,,,,,,,,,,,,,,,,,,,,,,,,,,,,1,A,2024-04-02_12h49.22.299,attentional_competition_task,2022.2.4,143.9783226464065,
positions.xlsx,positions_test.xlsx,positions_test_new.xlsx,stimuli.xlsx,stimuli_new.xlsx,stimuli/Social1.png,stimuli/Social2.png,stimuli/Nonsocial1.png,stimuli/Nonsocial2.png,stimuli/Social3.png,stimuli/Social4.png,stimuli/Nonsocial3.png,stimuli/Nonsocial4.png,,,"(-0.7, -0.5)",cs_neg_s,"(-0.7, 0.5)",cs_neg_ns,"(0.7, -0.5)",cs_pos_ns_new,"(0.7, 0.5)",cs_pos_s,0,0,0,0,,,,,,,,,,,,,,,,,,,,,,,,,,,,,0,1,1,40,0,0,0,0,,,,,,,,,,,,,,,483,reward,,,,,,1429.3928473000415,1429.3928473000415,1429.3928473000415,1429.3928473000415,0,,,0,,,2,0.683931200299412,0.6893115001730621,0,,,1430.2330733002163,1430.2330733002163,1430.2330733002163,1430.2330733002163,1,A,2024-04-02_12h49.22.299,attentional_competition_task,2022.2.4,143.9783226464065,
positions.xlsx,positions_test.xlsx,positions_test_new.xlsx,stimuli.xlsx,stimuli_new.xlsx,stimuli/Social1.png,stimuli/Social2.png,stimuli/Nonsocial1.png,stimuli/Nonsocial2.png,stimuli/Social3.png,stimuli/Social4.png,stimuli/Nonsocial3.png,stimuli/Nonsocial4.png,,,"(-0.7, -0.5)",cs_neg_s,"(-0.7, 0.5)",cs_neg_ns,"(0.7, -0.5)",cs_pos_ns_new,"(0.7, 0.5)",cs_pos_s,0,0,0,0,,,,,,,,,,,,,,,,,,,,,,,,,,,,,0,1,1,40,1,0,1,0,,,,,,,,,,,,,,,486,reward,,,,,,1430.767828100361,1430.767828100361,1430.767828100361,1430.767828100361,0,,,0,,,0,,,1,0.03147220006212592,0.031489800196141005,1430.767828100361,1430.767828100361,1430.767828100361,1430.767828100361,1,A,2024-04-02_12h49.22.299,attentional_competition_task,2022.2.4,143.9783226464065,
positions.xlsx,positions_test.xlsx,positions_test_new.xlsx,stimuli.xlsx,stimuli_new.xlsx,stimuli/Social1.png,stimuli/Social2.png,stimuli/Nonsocial1.png,stimuli/Nonsocial2.png,stimuli/Social3.png,stimuli/Social4.png,stimuli/Nonsocial3.png,stimuli/Nonsocial4.png,,,"(-0.7, -0.5)",cs_neg_s,"(-0.7, 0.5)",cs_neg_ns,"(0.7, -0.5)",cs_pos_ns_new,"(0.7, 0.5)",cs_pos_s,0,0,0,0,,,,,,,,,,,,,,,,,,,,,,,,,,,,,0,1,1,40,2,0,2,0,,,,,,,,,,,,,,,489,reward,,,,,,1431.2747535002418,1431.2747535002418,1431.2747535002418,1431.2747535002418,0,,,0,,,0,,,0,,,1431.906643600203,1431.906643600203,1431.906643600203,1431.906643600203,1,A,2024-04-02_12h49.22.299,attentional_competition_task,2022.2.4,143.9783226464065,
positions.xlsx,positions_test.xlsx,positions_test_new.xlsx,stimuli.xlsx,stimuli_new.xlsx,stimuli/Social1.png,stimuli/Social2.png,stimuli/Nonsocial1.png,stimuli/Nonsocial2.png,stimuli/Social3.png,stimuli/Social4.png,stimuli/Nonsocial3.png,stimuli/Nonsocial4.png,,,"(-0.7, -0.5)",cs_neg_s,"(-0.7, 0.5)",cs_neg_ns,"(0.7, -0.5)",cs_pos_ns_new,"(0.7, 0.5)",cs_pos_s,0,0,0,0,,,,,,,,,,,,,,,,,,,,,,,,,,,,,0,1,1,40,,,,,,,,,,,,,,,,,,,,,,,,,,,,,,,,,,,,,,,,,,,,,,1,A,2024-04-02_12h49.22.299,attentional_competition_task,2022.2.4,143.9783226464065,
positions.xlsx,positions_test.xlsx,positions_test_new.xlsx,stimuli.xlsx,stimuli_new.xlsx,stimuli/Social1.png,stimuli/Social2.png,stimuli/Nonsocial1.png,stimuli/Nonsocial2.png,stimuli/Social3.png,stimuli/Social4.png,stimuli/Nonsocial3.png,stimuli/Nonsocial4.png,,,"(-0.7, -0.5)",cs_pos_ns,"(-0.7, 0.5)",cs_pos_s,"(0.7, -0.5)",cs_neg_ns,"(0.7, 0.5)",cs_neg_s_new,0,0,0,0,,,,,,,,,,,,,,,,,,,,,,,,,,,,,0,2,2,17,0,0,0,0,,,,,,,,,,,,,,,492,reward,,,,,,1437.267549900338,1437.267549900338,1437.267549900338,1437.267549900338,1,0.5851054000668228,0.592068400233984,0,,,0,,,0,,,1437.8647404001094,1437.8647404001094,1437.8647404001094,1437.8647404001094,1,A,2024-04-02_12h49.22.299,attentional_competition_task,2022.2.4,143.9783226464065,
positions.xlsx,positions_test.xlsx,positions_test_new.xlsx,stimuli.xlsx,stimuli_new.xlsx,stimuli/Social1.png,stimuli/Social2.png,stimuli/Nonsocial1.png,stimuli/Nonsocial2.png,stimuli/Social3.png,stimuli/Social4.png,stimuli/Nonsocial3.png,stimuli/Nonsocial4.png,,,"(-0.7, -0.5)",cs_pos_ns,"(-0.7, 0.5)",cs_pos_s,"(0.7, -0.5)",cs_neg_ns,"(0.7, 0.5)",cs_neg_s_new,0,0,0,0,,,,,,,,,,,,,,,,,,,,,,,,,,,,,0,2,2,17,1,0,1,0,,,,,,,,,,,,,,,495,reward,,,,,,1438.4064215999097,1438.4064215999097,1438.4064215999097,1438.4064215999097,0,,,1,0.029578099958598614,0.029581799637526274,0,,,0,,,1438.4064215999097,1438.4064215999097,1438.4064215999097,1438.4064215999097,1,A,2024-04-02_12h49.22.299,attentional_competition_task,2022.2.4,143.9783226464065,
positions.xlsx,positions_test.xlsx,positions_test_new.xlsx,stimuli.xlsx,stimuli_new.xlsx,stimuli/Social1.png,stimuli/Social2.png,stimuli/Nonsocial1.png,stimuli/Nonsocial2.png,stimuli/Social3.png,stimuli/Social4.png,stimuli/Nonsocial3.png,stimuli/Nonsocial4.png,,,"(-0.7, -0.5)",cs_pos_ns,"(-0.7, 0.5)",cs_pos_s,"(0.7, -0.5)",cs_neg_ns,"(0.7, 0.5)",cs_neg_s_new,0,0,0,0,,,,,,,,,,,,,,,,,,,,,,,,,,,,,0,2,2,17,2,0,2,0,,,,,,,,,,,,,,,498,reward,,,,,,1438.8994960999116,1438.8994960999116,1438.8994960999116,1438.8994960999116,0,,,1,0.023616500198841095,0.0662758001126349,0,,,0,,,1439.7882636999711,1439.7882636999711,1439.7882636999711,1439.7882636999711,1,A,2024-04-02_12h49.22.299,attentional_competition_task,2022.2.4,143.9783226464065,
positions.xlsx,positions_test.xlsx,positions_test_new.xlsx,stimuli.xlsx,stimuli_new.xlsx,stimuli/Social1.png,stimuli/Social2.png,stimuli/Nonsocial1.png,stimuli/Nonsocial2.png,stimuli/Social3.png,stimuli/Social4.png,stimuli/Nonsocial3.png,stimuli/Nonsocial4.png,,,"(-0.7, -0.5)",cs_pos_ns,"(-0.7, 0.5)",cs_pos_s,"(0.7, -0.5)",cs_neg_ns,"(0.7, 0.5)",cs_neg_s_new,0,0,0,0,,,,,,,,,,,,,,,,,,,,,,,,,,,,,0,2,2,17,,,,,,,,,,,,,,,,,,,,,,,,,,,,,,,,,,,,,,,,,,,,,,1,A,2024-04-02_12h49.22.299,attentional_competition_task,2022.2.4,143.9783226464065,
positions.xlsx,positions_test.xlsx,positions_test_new.xlsx,stimuli.xlsx,stimuli_new.xlsx,stimuli/Social1.png,stimuli/Social2.png,stimuli/Nonsocial1.png,stimuli/Nonsocial2.png,stimuli/Social3.png,stimuli/Social4.png,stimuli/Nonsocial3.png,stimuli/Nonsocial4.png,,,"(-0.7, -0.5)",cs_pos_ns_new,"(-0.7, 0.5)",cs_neg_ns,"(0.7, -0.5)",cs_pos_s,"(0.7, 0.5)",cs_neg_s,0,0,0,0,,,,,,,,,,,,,,,,,,,,,,,,,,,,,0,3,3,45,0,0,0,0,,,,,,,,,,,,,,,501,reward,,,,,,1445.8227597000077,1445.8227597000077,1445.8227597000077,1445.8227597000077,0,,,0,,,0,,,0,,,1447.2394091999158,1447.2394091999158,1447.2394091999158,1447.2394091999158,1,A,2024-04-02_12h49.22.299,attentional_competition_task,2022.2.4,143.9783226464065,
positions.xlsx,positions_test.xlsx,positions_test_new.xlsx,stimuli.xlsx,stimuli_new.xlsx,stimuli/Social1.png,stimuli/Social2.png,stimuli/Nonsocial1.png,stimuli/Nonsocial2.png,stimuli/Social3.png,stimuli/Social4.png,stimuli/Nonsocial3.png,stimuli/Nonsocial4.png,,,"(-0.7, -0.5)",cs_pos_ns_new,"(-0.7, 0.5)",cs_neg_ns,"(0.7, -0.5)",cs_pos_s,"(0.7, 0.5)",cs_neg_s,0,0,0,0,,,,,,,,,,,,,,,,,,,,,,,,,,,,,0,3,3,45,1,0,1,0,,,,,,,,,,,,,,,504,reward,,,,,,1447.732383500319,1447.732383500319,1447.732383500319,1447.732383500319,0,,,0,,,1,0.05842590006068349,0.05842959973961115,0,,,1448.3018224001862,1448.3018224001862,1448.3018224001862,1448.3018224001862,1,A,2024-04-02_12h49.22.299,attentional_competition_task,2022.2.4,143.9783226464065,
positions.xlsx,positions_test.xlsx,positions_test_new.xlsx,stimuli.xlsx,stimuli_new.xlsx,stimuli/Social1.png,stimuli/Social2.png,stimuli/Nonsocial1.png,stimuli/Nonsocial2.png,stimuli/Social3.png,stimuli/Social4.png,stimuli/Nonsocial3.png,stimuli/Nonsocial4.png,,,"(-0.7, -0.5)",cs_pos_ns_new,"(-0.7, 0.5)",cs_neg_ns,"(0.7, -0.5)",cs_pos_s,"(0.7, 0.5)",cs_neg_s,0,0,0,0,,,,,,,,,,,,,,,,,,,,,,,,,,,,,0,3,3,45,,,,,,,,,,,,,,,,,,,,,,,,,,,,,,,,,,,,,,,,,,,,,,1,A,2024-04-02_12h49.22.299,attentional_competition_task,2022.2.4,143.9783226464065,
positions.xlsx,positions_test.xlsx,positions_test_new.xlsx,stimuli.xlsx,stimuli_new.xlsx,stimuli/Social1.png,stimuli/Social2.png,stimuli/Nonsocial1.png,stimuli/Nonsocial2.png,stimuli/Social3.png,stimuli/Social4.png,stimuli/Nonsocial3.png,stimuli/Nonsocial4.png,,,"(-0.7, -0.5)",cs_pos_s,"(-0.7, 0.5)",cs_neg_ns,"(0.7, -0.5)",cs_pos_ns_new,"(0.7, 0.5)",cs_neg_s,0,0,0,0,,,,,,,,,,,,,,,,,,,,,,,,,,,,,0,4,4,46,0,0,0,0,,,,,,,,,,,,,,,507,reward,,,,,,1454.364068500232,1454.364068500232,1454.364068500232,1454.364068500232,0,,,0,,,1,0.7114078998565674,0.7114121001213789,0,,,1455.0793268000707,1455.0793268000707,1455.0793268000707,1455.0793268000707,1,A,2024-04-02_12h49.22.299,attentional_competition_task,2022.2.4,143.9783226464065,
positions.xlsx,positions_test.xlsx,positions_test_new.xlsx,stimuli.xlsx,stimuli_new.xlsx,stimuli/Social1.png,stimuli/Social2.png,stimuli/Nonsocial1.png,stimuli/Nonsocial2.png,stimuli/Social3.png,stimuli/Social4.png,stimuli/Nonsocial3.png,stimuli/Nonsocial4.png,,,"(-0.7, -0.5)",cs_pos_s,"(-0.7, 0.5)",cs_neg_ns,"(0.7, -0.5)",cs_pos_ns_new,"(0.7, 0.5)",cs_neg_s,0,0,0,0,,,,,,,,,,,,,,,,,,,,,,,,,,,,,0,4,4,46,1,0,1,0,,,,,,,,,,,,,,,510,reward,,,,,,1455.5862402999774,1455.5862402999774,1455.5862402999774,1455.5862402999774,1,0.09873270010575652,0.10560839995741844,0,,,0,,,0,,,1455.6834788001142,1455.6834788001142,1455.6834788001142,1455.6834788001142,1,A,2024-04-02_12h49.22.299,attentional_competition_task,2022.2.4,143.9783226464065,
positions.xlsx,positions_test.xlsx,positions_test_new.xlsx,stimuli.xlsx,stimuli_new.xlsx,stimuli/Social1.png,stimuli/Social2.png,stimuli/Nonsocial1.png,stimuli/Nonsocial2.png,stimuli/Social3.png,stimuli/Social4.png,stimuli/Nonsocial3.png,stimuli/Nonsocial4.png,,,"(-0.7, -0.5)",cs_pos_s,"(-0.7, 0.5)",cs_neg_ns,"(0.7, -0.5)",cs_pos_ns_new,"(0.7, 0.5)",cs_neg_s,0,0,0,0,,,,,,,,,,,,,,,,,,,,,,,,,,,,,0,4,4,46,2,0,2,0,,,,,,,,,,,,,,,513,reward,,,,,,1456.1834519999102,1456.1834519999102,1456.1834519999102,1456.1834519999102,1,0.021680399775505066,0.1834363997913897,0,,,0,,,0,,,1456.8778614001349,1456.8778614001349,1456.8778614001349,1456.8778614001349,1,A,2024-04-02_12h49.22.299,attentional_competition_task,2022.2.4,143.9783226464065,
positions.xlsx,positions_test.xlsx,positions_test_new.xlsx,stimuli.xlsx,stimuli_new.xlsx,stimuli/Social1.png,stimuli/Social2.png,stimuli/Nonsocial1.png,stimuli/Nonsocial2.png,stimuli/Social3.png,stimuli/Social4.png,stimuli/Nonsocial3.png,stimuli/Nonsocial4.png,,,"(-0.7, -0.5)",cs_pos_s,"(-0.7, 0.5)",cs_neg_ns,"(0.7, -0.5)",cs_pos_ns_new,"(0.7, 0.5)",cs_neg_s,0,0,0,0,,,,,,,,,,,,,,,,,,,,,,,,,,,,,0,4,4,46,,,,,,,,,,,,,,,,,,,,,,,,,,,,,,,,,,,,,,,,,,,,,,1,A,2024-04-02_12h49.22.299,attentional_competition_task,2022.2.4,143.9783226464065,
positions.xlsx,positions_test.xlsx,positions_test_new.xlsx,stimuli.xlsx,stimuli_new.xlsx,stimuli/Social1.png,stimuli/Social2.png,stimuli/Nonsocial1.png,stimuli/Nonsocial2.png,stimuli/Social3.png,stimuli/Social4.png,stimuli/Nonsocial3.png,stimuli/Nonsocial4.png,,,"(-0.7, -0.5)",cs_neg_ns,"(-0.7, 0.5)",cs_pos_s_new,"(0.7, -0.5)",cs_neg_s,"(0.7, 0.5)",cs_pos_ns,0,0,0,0,,,,,,,,,,,,,,,,,,,,,,,,,,,,,0,5,5,28,0,0,0,0,,,,,,,,,,,,,,,516,reward,,,,,,1462.7109209001064,1462.7109209001064,1462.7109209001064,1462.7109209001064,0,,,1,0.550282099749893,0.5502856997773051,0,,,0,,,1463.2665126002394,1463.2665126002394,1463.2665126002394,1463.2665126002394,1,A,2024-04-02_12h49.22.299,attentional_competition_task,2022.2.4,143.9783226464065,
positions.xlsx,positions_test.xlsx,positions_test_new.xlsx,stimuli.xlsx,stimuli_new.xlsx,stimuli/Social1.png,stimuli/Social2.png,stimuli/Nonsocial1.png,stimuli/Nonsocial2.png,stimuli/Social3.png,stimuli/Social4.png,stimuli/Nonsocial3.png,stimuli/Nonsocial4.png,,,"(-0.7, -0.5)",cs_neg_ns,"(-0.7, 0.5)",cs_pos_s_new,"(0.7, -0.5)",cs_neg_s,"(0.7, 0.5)",cs_pos_ns,0,0,0,0,,,,,,,,,,,,,,,,,,,,,,,,,,,,,0,5,5,28,1,0,1,0,,,,,,,,,,,,,,,513,loss,,,,,,1463.7664920003153,1463.7664920003153,1463.7664920003153,1463.7664920003153,0,,,0,,,1,0.11496860021725297,0.1149720000103116,0,,,1463.8845103001222,1463.8845103001222,1463.8845103001222,1463.8845103001222,1,A,2024-04-02_12h49.22.299,attentional_competition_task,2022.2.4,143.9783226464065,
positions.xlsx,positions_test.xlsx,positions_test_new.xlsx,stimuli.xlsx,stimuli_new.xlsx,stimuli/Social1.png,stimuli/Social2.png,stimuli/Nonsocial1.png,stimuli/Nonsocial2.png,stimuli/Social3.png,stimuli/Social4.png,stimuli/Nonsocial3.png,stimuli/Nonsocial4.png,,,"(-0.7, -0.5)",cs_neg_ns,"(-0.7, 0.5)",cs_pos_s_new,"(0.7, -0.5)",cs_neg_s,"(0.7, 0.5)",cs_pos_ns,0,0,0,0,,,,,,,,,,,,,,,,,,,,,,,,,,,,,0,5,5,28,2,0,2,0,,,,,,,,,,,,,,,510,loss,,,,,,1464.419261700008,1464.419261700008,1464.419261700008,1464.419261700008,1,0.030353600159287453,0.03035780042409897,0,,,0,,,0,,,1464.419261700008,1464.419261700008,1464.419261700008,1464.419261700008,1,A,2024-04-02_12h49.22.299,attentional_competition_task,2022.2.4,143.9783226464065,
positions.xlsx,positions_test.xlsx,positions_test_new.xlsx,stimuli.xlsx,stimuli_new.xlsx,stimuli/Social1.png,stimuli/Social2.png,stimuli/Nonsocial1.png,stimuli/Nonsocial2.png,stimuli/Social3.png,stimuli/Social4.png,stimuli/Nonsocial3.png,stimuli/Nonsocial4.png,,,"(-0.7, -0.5)",cs_neg_ns,"(-0.7, 0.5)",cs_pos_s_new,"(0.7, -0.5)",cs_neg_s,"(0.7, 0.5)",cs_pos_ns,0,0,0,0,,,,,,,,,,,,,,,,,,,,,,,,,,,,,0,5,5,28,,,,,,,,,,,,,,,,,,,,,,,,,,,,,,,,,,,,,,,,,,,,,,1,A,2024-04-02_12h49.22.299,attentional_competition_task,2022.2.4,143.9783226464065,
positions.xlsx,positions_test.xlsx,positions_test_new.xlsx,stimuli.xlsx,stimuli_new.xlsx,stimuli/Social1.png,stimuli/Social2.png,stimuli/Nonsocial1.png,stimuli/Nonsocial2.png,stimuli/Social3.png,stimuli/Social4.png,stimuli/Nonsocial3.png,stimuli/Nonsocial4.png,,,"(-0.7, -0.5)",cs_neg_s,"(-0.7, 0.5)",cs_neg_ns_new,"(0.7, -0.5)",cs_pos_ns,"(0.7, 0.5)",cs_pos_s,0,0,0,0,,,,,,,,,,,,,,,,,,,,,,,,,,,,,0,6,6,24,0,0,0,0,,,,,,,,,,,,,,,513,reward,,,,,,1470.8981335000135,1470.8981335000135,1470.8981335000135,1470.8981335000135,0,,,0,,,0,,,1,0.8850783999077976,0.8850821000523865,1471.7869837000035,1471.7869837000035,1471.7869837000035,1471.7869837000035,1,A,2024-04-02_12h49.22.299,attentional_competition_task,2022.2.4,143.9783226464065,
positions.xlsx,positions_test.xlsx,positions_test_new.xlsx,stimuli.xlsx,stimuli_new.xlsx,stimuli/Social1.png,stimuli/Social2.png,stimuli/Nonsocial1.png,stimuli/Nonsocial2.png,stimuli/Social3.png,stimuli/Social4.png,stimuli/Nonsocial3.png,stimuli/Nonsocial4.png,,,"(-0.7, -0.5)",cs_neg_s,"(-0.7, 0.5)",cs_neg_ns_new,"(0.7, -0.5)",cs_pos_ns,"(0.7, 0.5)",cs_pos_s,0,0,0,0,,,,,,,,,,,,,,,,,,,,,,,,,,,,,0,6,6,24,1,0,1,0,,,,,,,,,,,,,,,516,reward,,,,,,1472.321689200122,1472.321689200122,1472.321689200122,1472.321689200122,0,,,0,,,1,0.030171700287610292,0.030175500083714724,0,,,1472.321689200122,1472.321689200122,1472.321689200122,1472.321689200122,1,A,2024-04-02_12h49.22.299,attentional_competition_task,2022.2.4,143.9783226464065,
positions.xlsx,positions_test.xlsx,positions_test_new.xlsx,stimuli.xlsx,stimuli_new.xlsx,stimuli/Social1.png,stimuli/Social2.png,stimuli/Nonsocial1.png,stimuli/Nonsocial2.png,stimuli/Social3.png,stimuli/Social4.png,stimuli/Nonsocial3.png,stimuli/Nonsocial4.png,,,"(-0.7, -0.5)",cs_neg_s,"(-0.7, 0.5)",cs_neg_ns_new,"(0.7, -0.5)",cs_pos_ns,"(0.7, 0.5)",cs_pos_s,0,0,0,0,,,,,,,,,,,,,,,,,,,,,,,,,,,,,0,6,6,24,2,0,2,0,,,,,,,,,,,,,,,519,reward,,,,,,1472.8217023001052,1472.8217023001052,1472.8217023001052,1472.8217023001052,0,,,0,,,0,,,0,,,1473.4188783001155,1473.4188783001155,1473.4188783001155,1473.4188783001155,1,A,2024-04-02_12h49.22.299,attentional_competition_task,2022.2.4,143.9783226464065,
positions.xlsx,positions_test.xlsx,positions_test_new.xlsx,stimuli.xlsx,stimuli_new.xlsx,stimuli/Social1.png,stimuli/Social2.png,stimuli/Nonsocial1.png,stimuli/Nonsocial2.png,stimuli/Social3.png,stimuli/Social4.png,stimuli/Nonsocial3.png,stimuli/Nonsocial4.png,,,"(-0.7, -0.5)",cs_neg_s,"(-0.7, 0.5)",cs_neg_ns_new,"(0.7, -0.5)",cs_pos_ns,"(0.7, 0.5)",cs_pos_s,0,0,0,0,,,,,,,,,,,,,,,,,,,,,,,,,,,,,0,6,6,24,,,,,,,,,,,,,,,,,,,,,,,,,,,,,,,,,,,,,,,,,,,,,,1,A,2024-04-02_12h49.22.299,attentional_competition_task,2022.2.4,143.9783226464065,
positions.xlsx,positions_test.xlsx,positions_test_new.xlsx,stimuli.xlsx,stimuli_new.xlsx,stimuli/Social1.png,stimuli/Social2.png,stimuli/Nonsocial1.png,stimuli/Nonsocial2.png,stimuli/Social3.png,stimuli/Social4.png,stimuli/Nonsocial3.png,stimuli/Nonsocial4.png,,,"(-0.7, -0.5)",cs_pos_s,"(-0.7, 0.5)",cs_pos_ns,"(0.7, -0.5)",cs_neg_ns_new,"(0.7, 0.5)",cs_neg_s,0,0,0,0,,,,,,,,,,,,,,,,,,,,,,,,,,,,,0,7,7,18,0,0,0,0,,,,,,,,,,,,,,,516,loss,,,,,,1479.439485900104,1479.439485900104,1479.439485900104,1479.439485900104,0,,,0,,,0,,,1,0.6629244000650942,0.6629284000955522,1480.099159900099,1480.099159900099,1480.099159900099,1480.099159900099,1,A,2024-04-02_12h49.22.299,attentional_competition_task,2022.2.4,143.9783226464065,
positions.xlsx,positions_test.xlsx,positions_test_new.xlsx,stimuli.xlsx,stimuli_new.xlsx,stimuli/Social1.png,stimuli/Social2.png,stimuli/Nonsocial1.png,stimuli/Nonsocial2.png,stimuli/Social3.png,stimuli/Social4.png,stimuli/Nonsocial3.png,stimuli/Nonsocial4.png,,,"(-0.7, -0.5)",cs_pos_s,"(-0.7, 0.5)",cs_pos_ns,"(0.7, -0.5)",cs_neg_ns_new,"(0.7, 0.5)",cs_neg_s,0,0,0,0,,,,,,,,,,,,,,,,,,,,,,,,,,,,,0,7,7,18,1,0,1,0,,,,,,,,,,,,,,,519,reward,,,,,,1480.6339012999088,1480.6339012999088,1480.6339012999088,1480.6339012999088,0,,,1,0.027362000197172165,0.027366099879145622,0,,,0,,,1480.6339012999088,1480.6339012999088,1480.6339012999088,1480.6339012999088,1,A,2024-04-02_12h49.22.299,attentional_competition_task,2022.2.4,143.9783226464065,
positions.xlsx,positions_test.xlsx,positions_test_new.xlsx,stimuli.xlsx,stimuli_new.xlsx,stimuli/Social1.png,stimuli/Social2.png,stimuli/Nonsocial1.png,stimuli/Nonsocial2.png,stimuli/Social3.png,stimuli/Social4.png,stimuli/Nonsocial3.png,stimuli/Nonsocial4.png,,,"(-0.7, -0.5)",cs_pos_s,"(-0.7, 0.5)",cs_pos_ns,"(0.7, -0.5)",cs_neg_ns_new,"(0.7, 0.5)",cs_neg_s,0,0,0,0,,,,,,,,,,,,,,,,,,,,,,,,,,,,,0,7,7,18,2,0,2,0,,,,,,,,,,,,,,,522,reward,,,,,,1481.1616013003513,1481.1616013003513,1481.1616013003513,1481.1616013003513,1,0.024064899887889624,0.024068899918347597,0,,,0,,,0,,,1481.1616013003513,1481.1616013003513,1481.1616013003513,1481.1616013003513,1,A,2024-04-02_12h49.22.299,attentional_competition_task,2022.2.4,143.9783226464065,
positions.xlsx,positions_test.xlsx,positions_test_new.xlsx,stimuli.xlsx,stimuli_new.xlsx,stimuli/Social1.png,stimuli/Social2.png,stimuli/Nonsocial1.png,stimuli/Nonsocial2.png,stimuli/Social3.png,stimuli/Social4.png,stimuli/Nonsocial3.png,stimuli/Nonsocial4.png,,,"(-0.7, -0.5)",cs_pos_s,"(-0.7, 0.5)",cs_pos_ns,"(0.7, -0.5)",cs_neg_ns_new,"(0.7, 0.5)",cs_neg_s,0,0,0,0,,,,,,,,,,,,,,,,,,,,,,,,,,,,,0,7,7,18,,,,,,,,,,,,,,,,,,,,,,,,,,,,,,,,,,,,,,,,,,,,,,1,A,2024-04-02_12h49.22.299,attentional_competition_task,2022.2.4,143.9783226464065,
positions.xlsx,positions_test.xlsx,positions_test_new.xlsx,stimuli.xlsx,stimuli_new.xlsx,stimuli/Social1.png,stimuli/Social2.png,stimuli/Nonsocial1.png,stimuli/Nonsocial2.png,stimuli/Social3.png,stimuli/Social4.png,stimuli/Nonsocial3.png,stimuli/Nonsocial4.png,,,"(-0.7, -0.5)",cs_pos_s,"(-0.7, 0.5)",cs_neg_s,"(0.7, -0.5)",cs_pos_ns_new,"(0.7, 0.5)",cs_neg_ns,0,0,0,0,,,,,,,,,,,,,,,,,,,,,,,,,,,,,0,8,8,43,0,0,0,0,,,,,,,,,,,,,,,525,reward,,,,,,1487.584999800194,1487.584999800194,1487.584999800194,1487.584999800194,0,,,0,,,1,0.8291628998704255,0.8291670000180602,0,,,1488.418277000077,1488.418277000077,1488.418277000077,1488.418277000077,1,A,2024-04-02_12h49.22.299,attentional_competition_task,2022.2.4,143.9783226464065,
positions.xlsx,positions_test.xlsx,positions_test_new.xlsx,stimuli.xlsx,stimuli_new.xlsx,stimuli/Social1.png,stimuli/Social2.png,stimuli/Nonsocial1.png,stimuli/Nonsocial2.png,stimuli/Social3.png,stimuli/Social4.png,stimuli/Nonsocial3.png,stimuli/Nonsocial4.png,,,"(-0.7, -0.5)",cs_pos_s,"(-0.7, 0.5)",cs_neg_s,"(0.7, -0.5)",cs_pos_ns_new,"(0.7, 0.5)",cs_neg_ns,0,0,0,0,,,,,,,,,,,,,,,,,,,,,,,,,,,,,0,8,8,43,1,0,1,0,,,,,,,,,,,,,,,528,reward,,,,,,1488.9530450003222,1488.9530450003222,1488.9530450003222,1488.9530450003222,1,0.029765599872916937,0.029769500251859426,0,,,0,,,0,,,1488.9530450003222,1488.9530450003222,1488.9530450003222,1488.9530450003222,1,A,2024-04-02_12h49.22.299,attentional_competition_task,2022.2.4,143.9783226464065,
positions.xlsx,positions_test.xlsx,positions_test_new.xlsx,stimuli.xlsx,stimuli_new.xlsx,stimuli/Social1.png,stimuli/Social2.png,stimuli/Nonsocial1.png,stimuli/Nonsocial2.png,stimuli/Social3.png,stimuli/Social4.png,stimuli/Nonsocial3.png,stimuli/Nonsocial4.png,,,"(-0.7, -0.5)",cs_pos_s,"(-0.7, 0.5)",cs_neg_s,"(0.7, -0.5)",cs_pos_ns_new,"(0.7, 0.5)",cs_neg_ns,0,0,0,0,,,,,,,,,,,,,,,,,,,,,,,,,,,,,0,8,8,43,2,0,2,0,,,,,,,,,,,,,,,531,reward,,,,,,1489.4599272003397,1489.4599272003397,1489.4599272003397,1489.4599272003397,0,,,0,,,0,,,0,,,1490.0987655003555,1490.0987655003555,1490.0987655003555,1490.0987655003555,1,A,2024-04-02_12h49.22.299,attentional_competition_task,2022.2.4,143.9783226464065,
