posFile,posFileTest,posFileTestNew,stimFile,stimFileNew,cs_neg_s,cs_pos_s,cs_neg_ns,cs_pos_ns,cs_neg_s_new,cs_pos_s_new,cs_neg_ns_new,cs_pos_ns_new,stim,position,position1,stim1,position2,stim2,position3,stim3,position4,stim4,blocks.thisRepN,blocks.thisTrialN,blocks.thisN,blocks.thisIndex,ratingtrials1.thisRepN,ratingtrials1.thisTrialN,ratingtrials1.thisN,ratingtrials1.thisIndex,search_task_trials.thisRepN,search_task_trials.thisTrialN,search_task_trials.thisN,search_task_trials.thisIndex,learning_trials.thisRepN,learning_trials.thisTrialN,learning_trials.thisN,learning_trials.thisIndex,trials.thisRepN,trials.thisTrialN,trials.thisN,trials.thisIndex,ratingtrials2.thisRepN,ratingtrials2.thisTrialN,ratingtrials2.thisN,ratingtrials2.thisIndex,testtrials.thisRepN,testtrials.thisTrialN,testtrials.thisN,testtrials.thisIndex,loop_test.thisRepN,loop_test.thisTrialN,loop_test.thisN,loop_test.thisIndex,testtrials_novelty.thisRepN,testtrials_novelty.thisTrialN,testtrials_novelty.thisN,testtrials_novelty.thisIndex,loop_test_novelty.thisRepN,loop_test_novelty.thisTrialN,loop_test_novelty.thisN,loop_test_novelty.thisIndex,ratingtrials3.thisRepN,ratingtrials3.thisTrialN,ratingtrials3.thisN,ratingtrials3.thisIndex,textStart.started,textStartExp.started,imageRating.started,sliderStim.response,sliderStim.rt,textStartSearch.started,target_positions,distractor_positions,textStartTask.started,image.started,score,outcome,roi.numLooks,roi.timesOn,roi.timesOff,imageFeedback.started,textTestInstr.started,test_image1.started,test_image2.started,test_image3.started,test_image4.started,test_roi1.numLooks,test_roi1.timesOn,test_roi1.timesOff,test_roi2.numLooks,test_roi2.timesOn,test_roi2.timesOff,test_roi3.numLooks,test_roi3.timesOn,test_roi3.timesOff,test_roi4.numLooks,test_roi4.timesOn,test_roi4.timesOff,test_image_feedback1.started,test_image_feedback2.started,test_iamge_feedback3.started,test_iamge_feedback4.started,participant,group,date,expName,psychopyVersion,frameRate,
positions.xlsx,positions_test.xlsx,positions_test_new.xlsx,stimuli.xlsx,stimuli_new.xlsx,stimuli/Social2.png,stimuli/Social1.png,stimuli/Nonsocial2.png,stimuli/Nonsocial1.png,stimuli/Social4.png,stimuli/Social3.png,stimuli/Nonsocial4.png,stimuli/Nonsocial3.png,cs_pos_ns,,,,,,,,,,0,0,0,0,0,0,0,3,,,,,,,,,,,,,,,,,,,,,,,,,,,,,,,,,,,,,16.134346600156277,222.77178589999676,239.1173793002963,5.0,161.98848949978128,,,,,,,,,,,,,,,,,,,,,,,,,,,,,,,,,8,B,2024-04-18_10h14.42.139,attentional_competition_task,2022.2.4,144.01025331304734,
positions.xlsx,positions_test.xlsx,positions_test_new.xlsx,stimuli.xlsx,stimuli_new.xlsx,stimuli/Social2.png,stimuli/Social1.png,stimuli/Nonsocial2.png,stimuli/Nonsocial1.png,stimuli/Social4.png,stimuli/Social3.png,stimuli/Nonsocial4.png,stimuli/Nonsocial3.png,cs_neg_s,,,,,,,,,,0,0,0,0,0,1,1,0,,,,,,,,,,,,,,,,,,,,,,,,,,,,,,,,,,,,,,,402.0760941002518,5.0,9.023914100136608,,,,,,,,,,,,,,,,,,,,,,,,,,,,,,,,,8,B,2024-04-18_10h14.42.139,attentional_competition_task,2022.2.4,144.01025331304734,
positions.xlsx,positions_test.xlsx,positions_test_new.xlsx,stimuli.xlsx,stimuli_new.xlsx,stimuli/Social2.png,stimuli/Social1.png,stimuli/Nonsocial2.png,stimuli/Nonsocial1.png,stimuli/Social4.png,stimuli/Social3.png,stimuli/Nonsocial4.png,stimuli/Nonsocial3.png,cs_neg_ns,,,,,,,,,,0,0,0,0,0,2,2,1,,,,,,,,,,,,,,,,,,,,,,,,,,,,,,,,,,,,,,,411.3743903003633,8.0,3.3440028997138143,,,,,,,,,,,,,,,,,,,,,,,,,,,,,,,,,8,B,2024-04-18_10h14.42.139,attentional_competition_task,2022.2.4,144.01025331304734,
positions.xlsx,positions_test.xlsx,positions_test_new.xlsx,stimuli.xlsx,stimuli_new.xlsx,stimuli/Social2.png,stimuli/Social1.png,stimuli/Nonsocial2.png,stimuli/Nonsocial1.png,stimuli/Social4.png,stimuli/Social3.png,stimuli/Nonsocial4.png,stimuli/Nonsocial3.png,cs_pos_s,,,,,,,,,,0,0,0,0,0,3,3,2,,,,,,,,,,,,,,,,,,,,,,,,,,,,,,,,,,,,,,,415.02699960023165,4.0,6.591800100170076,,,,,,,,,,,,,,,,,,,,,,,,,,,,,,,,,8,B,2024-04-18_10h14.42.139,attentional_competition_task,2022.2.4,144.01025331304734,
positions.xlsx,positions_test.xlsx,positions_test_new.xlsx,stimuli.xlsx,stimuli_new.xlsx,stimuli/Social2.png,stimuli/Social1.png,stimuli/Nonsocial2.png,stimuli/Nonsocial1.png,stimuli/Social4.png,stimuli/Social3.png,stimuli/Nonsocial4.png,stimuli/Nonsocial3.png,,,,,,,,,,,0,0,0,0,,,,,0,0,0,0,,,,,,,,,,,,,,,,,,,,,,,,,,,,,,,,,,,,,,421.8878631000407,"[[0.6749999999999999, -0.8], [0.9, -0.30000000000000004], [0.22499999999999998, -0.8], [0.9, 0.7], [0.6749999999999999, -0.30000000000000004], [-0.22499999999999998, 0.19999999999999996], [0.9, 0.19999999999999996], [-0.9, 0.19999999999999996], [-0.675, 0.7], [0.45000000000000007, 0.7], [0.22499999999999998, 0.19999999999999996], [-0.675, -0.30000000000000004], [-0.45, -0.30000000000000004], [-0.22499999999999998, -0.8], [0.9, -0.8]]","[[-0.45, 0.19999999999999996], [-0.22499999999999998, -0.30000000000000004], [0.6749999999999999, 0.19999999999999996], [-0.22499999999999998, 0.7], [-0.9, 0.7], [-0.675, -0.8], [0.0, 0.7], [0.6749999999999999, 0.7], [-0.675, 0.19999999999999996], [0.0, -0.30000000000000004], [-0.9, -0.30000000000000004], [-0.45, -0.8], [-0.45, 0.7], [0.45000000000000007, 0.19999999999999996], [0.22499999999999998, 0.7]]",,,,,,,,,,,,,,,,,,,,,,,,,,,,,,8,B,2024-04-18_10h14.42.139,attentional_competition_task,2022.2.4,144.01025331304734,
positions.xlsx,positions_test.xlsx,positions_test_new.xlsx,stimuli.xlsx,stimuli_new.xlsx,stimuli/Social2.png,stimuli/Social1.png,stimuli/Nonsocial2.png,stimuli/Nonsocial1.png,stimuli/Social4.png,stimuli/Social3.png,stimuli/Nonsocial4.png,stimuli/Nonsocial3.png,,,,,,,,,,,0,0,0,0,,,,,1,0,1,0,,,,,,,,,,,,,,,,,,,,,,,,,,,,,,,,,,,,,,,"[[0.6749999999999999, -0.8], [0.22499999999999998, 0.7], [0.9, -0.30000000000000004], [-0.9, 0.7], [0.22499999999999998, 0.19999999999999996], [-0.45, -0.30000000000000004], [-0.675, 0.7], [0.9, 0.19999999999999996], [-0.9, -0.8], [-0.22499999999999998, -0.8], [0.22499999999999998, -0.30000000000000004], [0.0, -0.30000000000000004], [0.6749999999999999, 0.19999999999999996], [0.45000000000000007, 0.19999999999999996], [0.22499999999999998, -0.8]]","[[-0.9, 0.19999999999999996], [-0.45, 0.19999999999999996], [0.0, -0.8], [-0.675, -0.30000000000000004], [0.6749999999999999, -0.30000000000000004], [0.45000000000000007, 0.7], [-0.22499999999999998, 0.7], [-0.675, 0.19999999999999996], [0.45000000000000007, -0.30000000000000004], [-0.45, 0.7], [0.6749999999999999, 0.7], [0.0, 0.7], [-0.45, -0.8], [0.9, -0.8], [-0.675, -0.8]]",,,,,,,,,,,,,,,,,,,,,,,,,,,,,,8,B,2024-04-18_10h14.42.139,attentional_competition_task,2022.2.4,144.01025331304734,
positions.xlsx,positions_test.xlsx,positions_test_new.xlsx,stimuli.xlsx,stimuli_new.xlsx,stimuli/Social2.png,stimuli/Social1.png,stimuli/Nonsocial2.png,stimuli/Nonsocial1.png,stimuli/Social4.png,stimuli/Social3.png,stimuli/Nonsocial4.png,stimuli/Nonsocial3.png,cs_neg_s,"(0.7, -0.5)",,,,,,,,,0,0,0,0,,,,,,,,,0,0,0,3,,,,,,,,,,,,,,,,,,,,,,,,,,,,,,,,,,,,,499.8083144002594,518.4673131001182,-3,loss,1,0.2988693001680076,0.2988732000812888,518.7867364003323,,,,,,,,,,,,,,,,,,,,,,8,B,2024-04-18_10h14.42.139,attentional_competition_task,2022.2.4,144.01025331304734,
positions.xlsx,positions_test.xlsx,positions_test_new.xlsx,stimuli.xlsx,stimuli_new.xlsx,stimuli/Social2.png,stimuli/Social1.png,stimuli/Nonsocial2.png,stimuli/Nonsocial1.png,stimuli/Social4.png,stimuli/Social3.png,stimuli/Nonsocial4.png,stimuli/Nonsocial3.png,cs_pos_ns,"(0.7, -0.5)",,,,,,,,,0,0,0,0,,,,,,,,,0,1,1,15,,,,,,,,,,,,,,,,,,,,,,,,,,,,,,,,,,,,,,526.9600670002401,0,reward,1,0.35465400014072657,0.3546573002822697,527.3350264001638,,,,,,,,,,,,,,,,,,,,,,8,B,2024-04-18_10h14.42.139,attentional_competition_task,2022.2.4,144.01025331304734,
positions.xlsx,positions_test.xlsx,positions_test_new.xlsx,stimuli.xlsx,stimuli_new.xlsx,stimuli/Social2.png,stimuli/Social1.png,stimuli/Nonsocial2.png,stimuli/Nonsocial1.png,stimuli/Social4.png,stimuli/Social3.png,stimuli/Nonsocial4.png,stimuli/Nonsocial3.png,cs_pos_ns,"(0.7, 0.5)",,,,,,,,,0,0,0,0,,,,,,,,,0,2,2,14,,,,,,,,,,,,,,,,,,,,,,,,,,,,,,,,,,,,,,534.5153072001413,3,reward,1,0.2573752999305725,0.2573787998408079,534.7791319000535,,,,,,,,,,,,,,,,,,,,,,8,B,2024-04-18_10h14.42.139,attentional_competition_task,2022.2.4,144.01025331304734,
positions.xlsx,positions_test.xlsx,positions_test_new.xlsx,stimuli.xlsx,stimuli_new.xlsx,stimuli/Social2.png,stimuli/Social1.png,stimuli/Nonsocial2.png,stimuli/Nonsocial1.png,stimuli/Social4.png,stimuli/Social3.png,stimuli/Nonsocial4.png,stimuli/Nonsocial3.png,cs_pos_s,"(-0.7, 0.5)",,,,,,,,,0,0,0,0,,,,,,,,,0,3,3,4,,,,,,,,,,,,,,,,,,,,,,,,,,,,,,,,,,,,,,542.4385447003879,6,reward,1,0.2639429001137614,0.26394640002399683,542.7093482003547,,,,,,,,,,,,,,,,,,,,,,8,B,2024-04-18_10h14.42.139,attentional_competition_task,2022.2.4,144.01025331304734,
positions.xlsx,positions_test.xlsx,positions_test_new.xlsx,stimuli.xlsx,stimuli_new.xlsx,stimuli/Social2.png,stimuli/Social1.png,stimuli/Nonsocial2.png,stimuli/Nonsocial1.png,stimuli/Social4.png,stimuli/Social3.png,stimuli/Nonsocial4.png,stimuli/Nonsocial3.png,cs_pos_ns,"(-0.7, -0.5)",,,,,,,,,0,0,0,0,,,,,,,,,0,4,4,13,,,,,,,,,,,,,,,,,,,,,,,,,,,,,,,,,,,,,,550.695214100182,9,reward,1,0.22224250016734004,0.22224600007757545,550.9243942000903,,,,,,,,,,,,,,,,,,,,,,8,B,2024-04-18_10h14.42.139,attentional_competition_task,2022.2.4,144.01025331304734,
positions.xlsx,positions_test.xlsx,positions_test_new.xlsx,stimuli.xlsx,stimuli_new.xlsx,stimuli/Social2.png,stimuli/Social1.png,stimuli/Nonsocial2.png,stimuli/Nonsocial1.png,stimuli/Social4.png,stimuli/Social3.png,stimuli/Nonsocial4.png,stimuli/Nonsocial3.png,cs_neg_s,"(-0.7, -0.5)",,,,,,,,,0,0,0,0,,,,,,,,,0,5,5,1,,,,,,,,,,,,,,,,,,,,,,,,,,,,,,,,,,,,,,557.5629311003722,6,loss,1,0.2223323001526296,0.22233570041134953,557.792106800247,,,,,,,,,,,,,,,,,,,,,,8,B,2024-04-18_10h14.42.139,attentional_competition_task,2022.2.4,144.01025331304734,
positions.xlsx,positions_test.xlsx,positions_test_new.xlsx,stimuli.xlsx,stimuli_new.xlsx,stimuli/Social2.png,stimuli/Social1.png,stimuli/Nonsocial2.png,stimuli/Nonsocial1.png,stimuli/Social4.png,stimuli/Social3.png,stimuli/Nonsocial4.png,stimuli/Nonsocial3.png,cs_pos_ns,"(-0.7, 0.5)",,,,,,,,,0,0,0,0,,,,,,,,,0,6,6,12,,,,,,,,,,,,,,,,,,,,,,,,,,,,,,,,,,,,,,564.7987478999421,9,reward,1,0.21549959992989898,0.21550309984013438,565.0210285000503,,,,,,,,,,,,,,,,,,,,,,8,B,2024-04-18_10h14.42.139,attentional_competition_task,2022.2.4,144.01025331304734,
positions.xlsx,positions_test.xlsx,positions_test_new.xlsx,stimuli.xlsx,stimuli_new.xlsx,stimuli/Social2.png,stimuli/Social1.png,stimuli/Nonsocial2.png,stimuli/Nonsocial1.png,stimuli/Social4.png,stimuli/Social3.png,stimuli/Nonsocial4.png,stimuli/Nonsocial3.png,cs_neg_ns,"(0.7, -0.5)",,,,,,,,,0,0,0,0,,,,,,,,,0,7,7,11,,,,,,,,,,,,,,,,,,,,,,,,,,,,,,,,,,,,,,572.5068000000902,6,loss,1,0.25049189990386367,0.25049549993127584,572.7637523999438,,,,,,,,,,,,,,,,,,,,,,8,B,2024-04-18_10h14.42.139,attentional_competition_task,2022.2.4,144.01025331304734,
positions.xlsx,positions_test.xlsx,positions_test_new.xlsx,stimuli.xlsx,stimuli_new.xlsx,stimuli/Social2.png,stimuli/Social1.png,stimuli/Nonsocial2.png,stimuli/Nonsocial1.png,stimuli/Social4.png,stimuli/Social3.png,stimuli/Nonsocial4.png,stimuli/Nonsocial3.png,cs_neg_s,"(0.7, 0.5)",,,,,,,,,0,0,0,0,,,,,,,,,0,8,8,2,,,,,,,,,,,,,,,,,,,,,,,,,,,,,,,,,,,,,,579.7634267001413,3,loss,1,0.25031109992414713,0.25031450018286705,580.0203548003919,,,,,,,,,,,,,,,,,,,,,,8,B,2024-04-18_10h14.42.139,attentional_competition_task,2022.2.4,144.01025331304734,
positions.xlsx,positions_test.xlsx,positions_test_new.xlsx,stimuli.xlsx,stimuli_new.xlsx,stimuli/Social2.png,stimuli/Social1.png,stimuli/Nonsocial2.png,stimuli/Nonsocial1.png,stimuli/Social4.png,stimuli/Social3.png,stimuli/Nonsocial4.png,stimuli/Nonsocial3.png,cs_neg_ns,"(0.7, 0.5)",,,,,,,,,0,0,0,0,,,,,,,,,0,9,9,10,,,,,,,,,,,,,,,,,,,,,,,,,,,,,,,,,,,,,,587.1381573001854,0,loss,1,0.2916059996932745,0.29160929983481765,587.4367305999622,,,,,,,,,,,,,,,,,,,,,,8,B,2024-04-18_10h14.42.139,attentional_competition_task,2022.2.4,144.01025331304734,
positions.xlsx,positions_test.xlsx,positions_test_new.xlsx,stimuli.xlsx,stimuli_new.xlsx,stimuli/Social2.png,stimuli/Social1.png,stimuli/Nonsocial2.png,stimuli/Nonsocial1.png,stimuli/Social4.png,stimuli/Social3.png,stimuli/Nonsocial4.png,stimuli/Nonsocial3.png,cs_neg_s,"(-0.7, 0.5)",,,,,,,,,0,0,0,0,,,,,,,,,0,10,10,0,,,,,,,,,,,,,,,,,,,,,,,,,,,,,,,,,,,,,,595.2697542002425,-3,loss,1,0.2500921003520489,0.2500956002622843,595.5267084003426,,,,,,,,,,,,,,,,,,,,,,8,B,2024-04-18_10h14.42.139,attentional_competition_task,2022.2.4,144.01025331304734,
positions.xlsx,positions_test.xlsx,positions_test_new.xlsx,stimuli.xlsx,stimuli_new.xlsx,stimuli/Social2.png,stimuli/Social1.png,stimuli/Nonsocial2.png,stimuli/Nonsocial1.png,stimuli/Social4.png,stimuli/Social3.png,stimuli/Nonsocial4.png,stimuli/Nonsocial3.png,cs_pos_s,"(-0.7, -0.5)",,,,,,,,,0,0,0,0,,,,,,,,,0,11,11,5,,,,,,,,,,,,,,,,,,,,,,,,,,,,,,,,,,,,,,603.5888620000333,0,reward,1,0.2646246999502182,0.26463040011003613,603.8666346003301,,,,,,,,,,,,,,,,,,,,,,8,B,2024-04-18_10h14.42.139,attentional_competition_task,2022.2.4,144.01025331304734,
positions.xlsx,positions_test.xlsx,positions_test_new.xlsx,stimuli.xlsx,stimuli_new.xlsx,stimuli/Social2.png,stimuli/Social1.png,stimuli/Nonsocial2.png,stimuli/Nonsocial1.png,stimuli/Social4.png,stimuli/Social3.png,stimuli/Nonsocial4.png,stimuli/Nonsocial3.png,cs_pos_s,"(0.7, 0.5)",,,,,,,,,0,0,0,0,,,,,,,,,0,12,12,6,,,,,,,,,,,,,,,,,,,,,,,,,,,,,,,,,,,,,,611.4635311001912,3,reward,1,0.27807960007339716,0.2780833998695016,611.74826449994,,,,,,,,,,,,,,,,,,,,,,8,B,2024-04-18_10h14.42.139,attentional_competition_task,2022.2.4,144.01025331304734,
positions.xlsx,positions_test.xlsx,positions_test_new.xlsx,stimuli.xlsx,stimuli_new.xlsx,stimuli/Social2.png,stimuli/Social1.png,stimuli/Nonsocial2.png,stimuli/Nonsocial1.png,stimuli/Social4.png,stimuli/Social3.png,stimuli/Nonsocial4.png,stimuli/Nonsocial3.png,cs_neg_ns,"(-0.7, -0.5)",,,,,,,,,0,0,0,0,,,,,,,,,0,13,13,9,,,,,,,,,,,,,,,,,,,,,,,,,,,,,,,,,,,,,,618.9841057001613,0,loss,1,0.2572067999280989,0.25721050007268786,619.2480275002308,,,,,,,,,,,,,,,,,,,,,,8,B,2024-04-18_10h14.42.139,attentional_competition_task,2022.2.4,144.01025331304734,
positions.xlsx,positions_test.xlsx,positions_test_new.xlsx,stimuli.xlsx,stimuli_new.xlsx,stimuli/Social2.png,stimuli/Social1.png,stimuli/Nonsocial2.png,stimuli/Nonsocial1.png,stimuli/Social4.png,stimuli/Social3.png,stimuli/Nonsocial4.png,stimuli/Nonsocial3.png,cs_pos_s,"(0.7, -0.5)",,,,,,,,,0,0,0,0,,,,,,,,,0,14,14,7,,,,,,,,,,,,,,,,,,,,,,,,,,,,,,,,,,,,,,626.5462821000256,3,reward,1,0.29175389977172017,0.2917575999163091,626.844885900151,,,,,,,,,,,,,,,,,,,,,,8,B,2024-04-18_10h14.42.139,attentional_competition_task,2022.2.4,144.01025331304734,
positions.xlsx,positions_test.xlsx,positions_test_new.xlsx,stimuli.xlsx,stimuli_new.xlsx,stimuli/Social2.png,stimuli/Social1.png,stimuli/Nonsocial2.png,stimuli/Nonsocial1.png,stimuli/Social4.png,stimuli/Social3.png,stimuli/Nonsocial4.png,stimuli/Nonsocial3.png,cs_neg_ns,"(-0.7, 0.5)",,,,,,,,,0,0,0,0,,,,,,,,,0,15,15,8,,,,,,,,,,,,,,,,,,,,,,,,,,,,,,,,,,,,,,634.5251257000491,0,loss,1,0.285298699978739,0.28530240012332797,634.8167836000212,,,,,,,,,,,,,,,,,,,,,,8,B,2024-04-18_10h14.42.139,attentional_competition_task,2022.2.4,144.01025331304734,
positions.xlsx,positions_test.xlsx,positions_test_new.xlsx,stimuli.xlsx,stimuli_new.xlsx,stimuli/Social2.png,stimuli/Social1.png,stimuli/Nonsocial2.png,stimuli/Nonsocial1.png,stimuli/Social4.png,stimuli/Social3.png,stimuli/Nonsocial4.png,stimuli/Nonsocial3.png,cs_neg_s,"(-0.7, 0.5)",,,,,,,,,0,0,0,0,,,,,,,,,1,0,16,0,,,,,,,,,,,,,,,,,,,,,,,,,,,,,,,,,,,,,,642.4067641999573,-3,loss,1,0.3409003997221589,0.3409045999869704,642.7609337000176,,,,,,,,,,,,,,,,,,,,,,8,B,2024-04-18_10h14.42.139,attentional_competition_task,2022.2.4,144.01025331304734,
positions.xlsx,positions_test.xlsx,positions_test_new.xlsx,stimuli.xlsx,stimuli_new.xlsx,stimuli/Social2.png,stimuli/Social1.png,stimuli/Nonsocial2.png,stimuli/Nonsocial1.png,stimuli/Social4.png,stimuli/Social3.png,stimuli/Nonsocial4.png,stimuli/Nonsocial3.png,cs_pos_s,"(0.7, -0.5)",,,,,,,,,0,0,0,0,,,,,,,,,1,1,17,7,,,,,,,,,,,,,,,,,,,,,,,,,,,,,,,,,,,,,,649.7676129001193,0,reward,1,0.2574085998348892,0.2574124997481704,650.0315193999559,,,,,,,,,,,,,,,,,,,,,,8,B,2024-04-18_10h14.42.139,attentional_competition_task,2022.2.4,144.01025331304734,
positions.xlsx,positions_test.xlsx,positions_test_new.xlsx,stimuli.xlsx,stimuli_new.xlsx,stimuli/Social2.png,stimuli/Social1.png,stimuli/Nonsocial2.png,stimuli/Nonsocial1.png,stimuli/Social4.png,stimuli/Social3.png,stimuli/Nonsocial4.png,stimuli/Nonsocial3.png,cs_pos_ns,"(-0.7, 0.5)",,,,,,,,,0,0,0,0,,,,,,,,,1,2,18,12,,,,,,,,,,,,,,,,,,,,,,,,,,,,,,,,,,,,,,657.0589576000348,3,reward,1,0.25703619979321957,0.25703970016911626,657.3228237000294,,,,,,,,,,,,,,,,,,,,,,8,B,2024-04-18_10h14.42.139,attentional_competition_task,2022.2.4,144.01025331304734,
positions.xlsx,positions_test.xlsx,positions_test_new.xlsx,stimuli.xlsx,stimuli_new.xlsx,stimuli/Social2.png,stimuli/Social1.png,stimuli/Nonsocial2.png,stimuli/Nonsocial1.png,stimuli/Social4.png,stimuli/Social3.png,stimuli/Nonsocial4.png,stimuli/Nonsocial3.png,cs_neg_ns,"(0.7, -0.5)",,,,,,,,,0,0,0,0,,,,,,,,,1,3,19,11,,,,,,,,,,,,,,,,,,,,,,,,,,,,,,,,,,,,,,665.4683419000357,0,loss,1,0.3196490998379886,0.31965250009670854,665.7947682002559,,,,,,,,,,,,,,,,,,,,,,8,B,2024-04-18_10h14.42.139,attentional_competition_task,2022.2.4,144.01025331304734,
positions.xlsx,positions_test.xlsx,positions_test_new.xlsx,stimuli.xlsx,stimuli_new.xlsx,stimuli/Social2.png,stimuli/Social1.png,stimuli/Nonsocial2.png,stimuli/Nonsocial1.png,stimuli/Social4.png,stimuli/Social3.png,stimuli/Nonsocial4.png,stimuli/Nonsocial3.png,cs_neg_ns,"(0.7, 0.5)",,,,,,,,,0,0,0,0,,,,,,,,,1,4,20,10,,,,,,,,,,,,,,,,,,,,,,,,,,,,,,,,,,,,,,672.7944285999984,-3,loss,1,0.2780252997763455,0.2780287996865809,673.0791516001336,,,,,,,,,,,,,,,,,,,,,,8,B,2024-04-18_10h14.42.139,attentional_competition_task,2022.2.4,144.01025331304734,
positions.xlsx,positions_test.xlsx,positions_test_new.xlsx,stimuli.xlsx,stimuli_new.xlsx,stimuli/Social2.png,stimuli/Social1.png,stimuli/Nonsocial2.png,stimuli/Nonsocial1.png,stimuli/Social4.png,stimuli/Social3.png,stimuli/Nonsocial4.png,stimuli/Nonsocial3.png,cs_pos_s,"(0.7, 0.5)",,,,,,,,,0,0,0,0,,,,,,,,,1,5,21,6,,,,,,,,,,,,,,,,,,,,,,,,,,,,,,,,,,,,,,680.4538954002783,0,reward,1,0.2572083002887666,0.25722880009561777,680.717705800198,,,,,,,,,,,,,,,,,,,,,,8,B,2024-04-18_10h14.42.139,attentional_competition_task,2022.2.4,144.01025331304734,
positions.xlsx,positions_test.xlsx,positions_test_new.xlsx,stimuli.xlsx,stimuli_new.xlsx,stimuli/Social2.png,stimuli/Social1.png,stimuli/Nonsocial2.png,stimuli/Nonsocial1.png,stimuli/Social4.png,stimuli/Social3.png,stimuli/Nonsocial4.png,stimuli/Nonsocial3.png,cs_pos_s,"(-0.7, -0.5)",,,,,,,,,0,0,0,0,,,,,,,,,1,6,22,5,,,,,,,,,,,,,,,,,,,,,,,,,,,,,,,,,,,,,,688.3354553999379,3,reward,1,0.25726119987666607,0.2572650001384318,688.5993766002357,,,,,,,,,,,,,,,,,,,,,,8,B,2024-04-18_10h14.42.139,attentional_competition_task,2022.2.4,144.01025331304734,
positions.xlsx,positions_test.xlsx,positions_test_new.xlsx,stimuli.xlsx,stimuli_new.xlsx,stimuli/Social2.png,stimuli/Social1.png,stimuli/Nonsocial2.png,stimuli/Nonsocial1.png,stimuli/Social4.png,stimuli/Social3.png,stimuli/Nonsocial4.png,stimuli/Nonsocial3.png,cs_pos_ns,"(0.7, 0.5)",,,,,,,,,0,0,0,0,,,,,,,,,1,7,23,14,,,,,,,,,,,,,,,,,,,,,,,,,,,,,,,,,,,,,,696.4601409002207,6,reward,1,0.26436829986050725,0.26437219977378845,696.7309924000874,,,,,,,,,,,,,,,,,,,,,,8,B,2024-04-18_10h14.42.139,attentional_competition_task,2022.2.4,144.01025331304734,
positions.xlsx,positions_test.xlsx,positions_test_new.xlsx,stimuli.xlsx,stimuli_new.xlsx,stimuli/Social2.png,stimuli/Social1.png,stimuli/Nonsocial2.png,stimuli/Nonsocial1.png,stimuli/Social4.png,stimuli/Social3.png,stimuli/Nonsocial4.png,stimuli/Nonsocial3.png,cs_neg_s,"(0.7, -0.5)",,,,,,,,,0,0,0,0,,,,,,,,,1,8,24,3,,,,,,,,,,,,,,,,,,,,,,,,,,,,,,,,,,,,,,704.0293157999404,3,loss,1,0.2573391003534198,0.25734280003234744,704.2932289000601,,,,,,,,,,,,,,,,,,,,,,8,B,2024-04-18_10h14.42.139,attentional_competition_task,2022.2.4,144.01025331304734,
positions.xlsx,positions_test.xlsx,positions_test_new.xlsx,stimuli.xlsx,stimuli_new.xlsx,stimuli/Social2.png,stimuli/Social1.png,stimuli/Nonsocial2.png,stimuli/Nonsocial1.png,stimuli/Social4.png,stimuli/Social3.png,stimuli/Nonsocial4.png,stimuli/Nonsocial3.png,cs_neg_s,"(-0.7, -0.5)",,,,,,,,,0,0,0,0,,,,,,,,,1,9,25,1,,,,,,,,,,,,,,,,,,,,,,,,,,,,,,,,,,,,,,712.0359213999473,0,loss,1,0.24312870018184185,0.24313209997490048,712.2858763001859,,,,,,,,,,,,,,,,,,,,,,8,B,2024-04-18_10h14.42.139,attentional_competition_task,2022.2.4,144.01025331304734,
positions.xlsx,positions_test.xlsx,positions_test_new.xlsx,stimuli.xlsx,stimuli_new.xlsx,stimuli/Social2.png,stimuli/Social1.png,stimuli/Nonsocial2.png,stimuli/Nonsocial1.png,stimuli/Social4.png,stimuli/Social3.png,stimuli/Nonsocial4.png,stimuli/Nonsocial3.png,cs_neg_ns,"(-0.7, -0.5)",,,,,,,,,0,0,0,0,,,,,,,,,1,10,26,9,,,,,,,,,,,,,,,,,,,,,,,,,,,,,,,,,,,,,,720.3480914002284,-3,loss,1,0.29190370021387935,0.291907100006938,720.6466888003051,,,,,,,,,,,,,,,,,,,,,,8,B,2024-04-18_10h14.42.139,attentional_competition_task,2022.2.4,144.01025331304734,
positions.xlsx,positions_test.xlsx,positions_test_new.xlsx,stimuli.xlsx,stimuli_new.xlsx,stimuli/Social2.png,stimuli/Social1.png,stimuli/Nonsocial2.png,stimuli/Nonsocial1.png,stimuli/Social4.png,stimuli/Social3.png,stimuli/Nonsocial4.png,stimuli/Nonsocial3.png,cs_pos_s,"(-0.7, 0.5)",,,,,,,,,0,0,0,0,,,,,,,,,1,11,27,4,,,,,,,,,,,,,,,,,,,,,,,,,,,,,,,,,,,,,,728.236674300395,0,reward,1,0.25036130007356405,0.2503646998666227,728.4936629002914,,,,,,,,,,,,,,,,,,,,,,8,B,2024-04-18_10h14.42.139,attentional_competition_task,2022.2.4,144.01025331304734,
positions.xlsx,positions_test.xlsx,positions_test_new.xlsx,stimuli.xlsx,stimuli_new.xlsx,stimuli/Social2.png,stimuli/Social1.png,stimuli/Nonsocial2.png,stimuli/Nonsocial1.png,stimuli/Social4.png,stimuli/Social3.png,stimuli/Nonsocial4.png,stimuli/Nonsocial3.png,cs_pos_ns,"(-0.7, -0.5)",,,,,,,,,0,0,0,0,,,,,,,,,1,12,28,13,,,,,,,,,,,,,,,,,,,,,,,,,,,,,,,,,,,,,,735.7224619002081,3,reward,1,0.2643104000017047,0.26431400002911687,735.9932868001051,,,,,,,,,,,,,,,,,,,,,,8,B,2024-04-18_10h14.42.139,attentional_competition_task,2022.2.4,144.01025331304734,
positions.xlsx,positions_test.xlsx,positions_test_new.xlsx,stimuli.xlsx,stimuli_new.xlsx,stimuli/Social2.png,stimuli/Social1.png,stimuli/Nonsocial2.png,stimuli/Nonsocial1.png,stimuli/Social4.png,stimuli/Social3.png,stimuli/Nonsocial4.png,stimuli/Nonsocial3.png,cs_neg_ns,"(-0.7, 0.5)",,,,,,,,,0,0,0,0,,,,,,,,,1,13,29,8,,,,,,,,,,,,,,,,,,,,,,,,,,,,,,,,,,,,,,743.8957471000031,0,loss,1,0.35505500016734004,0.35505879996344447,744.2568276003003,,,,,,,,,,,,,,,,,,,,,,8,B,2024-04-18_10h14.42.139,attentional_competition_task,2022.2.4,144.01025331304734,
positions.xlsx,positions_test.xlsx,positions_test_new.xlsx,stimuli.xlsx,stimuli_new.xlsx,stimuli/Social2.png,stimuli/Social1.png,stimuli/Nonsocial2.png,stimuli/Nonsocial1.png,stimuli/Social4.png,stimuli/Social3.png,stimuli/Nonsocial4.png,stimuli/Nonsocial3.png,cs_neg_s,"(0.7, 0.5)",,,,,,,,,0,0,0,0,,,,,,,,,1,14,30,2,,,,,,,,,,,,,,,,,,,,,,,,,,,,,,,,,,,,,,752.0065417001024,-3,loss,1,0.2157272999174893,0.2157307001762092,752.2287441003136,,,,,,,,,,,,,,,,,,,,,,8,B,2024-04-18_10h14.42.139,attentional_competition_task,2022.2.4,144.01025331304734,
positions.xlsx,positions_test.xlsx,positions_test_new.xlsx,stimuli.xlsx,stimuli_new.xlsx,stimuli/Social2.png,stimuli/Social1.png,stimuli/Nonsocial2.png,stimuli/Nonsocial1.png,stimuli/Social4.png,stimuli/Social3.png,stimuli/Nonsocial4.png,stimuli/Nonsocial3.png,cs_pos_ns,"(0.7, -0.5)",,,,,,,,,0,0,0,0,,,,,,,,,1,15,31,15,,,,,,,,,,,,,,,,,,,,,,,,,,,,,,,,,,,,,,760.0478904000483,0,reward,1,0.22223309986293316,0.22223669989034534,760.2770380000584,,,,,,,,,,,,,,,,,,,,,,8,B,2024-04-18_10h14.42.139,attentional_competition_task,2022.2.4,144.01025331304734,
positions.xlsx,positions_test.xlsx,positions_test_new.xlsx,stimuli.xlsx,stimuli_new.xlsx,stimuli/Social2.png,stimuli/Social1.png,stimuli/Nonsocial2.png,stimuli/Nonsocial1.png,stimuli/Social4.png,stimuli/Social3.png,stimuli/Nonsocial4.png,stimuli/Nonsocial3.png,cs_neg_s,"(-0.7, -0.5)",,,,,,,,,0,0,0,0,,,,,,,,,,,,,0,0,0,1,,,,,,,,,,,,,,,,,,,,,,,,,,,,,,,,,,788.2064622002654,-3,loss,1,0.2644246001727879,0.2644281000830233,788.4773233002052,,,,,,,,,,,,,,,,,,,,,,8,B,2024-04-18_10h14.42.139,attentional_competition_task,2022.2.4,144.01025331304734,
positions.xlsx,positions_test.xlsx,positions_test_new.xlsx,stimuli.xlsx,stimuli_new.xlsx,stimuli/Social2.png,stimuli/Social1.png,stimuli/Nonsocial2.png,stimuli/Nonsocial1.png,stimuli/Social4.png,stimuli/Social3.png,stimuli/Nonsocial4.png,stimuli/Nonsocial3.png,cs_pos_s,"(0.7, 0.5)",,,,,,,,,0,0,0,0,,,,,,,,,,,,,0,1,1,6,,,,,,,,,,,,,,,,,,,,,,,,,,,,,,,,,,795.7339539001696,0,reward,1,0.3959779003635049,0.3959814002737403,796.136735800188,,,,,,,,,,,,,,,,,,,,,,8,B,2024-04-18_10h14.42.139,attentional_competition_task,2022.2.4,144.01025331304734,
positions.xlsx,positions_test.xlsx,positions_test_new.xlsx,stimuli.xlsx,stimuli_new.xlsx,stimuli/Social2.png,stimuli/Social1.png,stimuli/Nonsocial2.png,stimuli/Nonsocial1.png,stimuli/Social4.png,stimuli/Social3.png,stimuli/Nonsocial4.png,stimuli/Nonsocial3.png,cs_pos_s,"(0.7, -0.5)",,,,,,,,,0,0,0,0,,,,,,,,,,,,,0,2,2,7,,,,,,,,,,,,,,,,,,,,,,,,,,,,,,,,,,803.4975216002204,3,reward,1,0.27825869992375374,0.27826220029965043,803.7823453000747,,,,,,,,,,,,,,,,,,,,,,8,B,2024-04-18_10h14.42.139,attentional_competition_task,2022.2.4,144.01025331304734,
positions.xlsx,positions_test.xlsx,positions_test_new.xlsx,stimuli.xlsx,stimuli_new.xlsx,stimuli/Social2.png,stimuli/Social1.png,stimuli/Nonsocial2.png,stimuli/Nonsocial1.png,stimuli/Social4.png,stimuli/Social3.png,stimuli/Nonsocial4.png,stimuli/Nonsocial3.png,cs_pos_ns,"(0.7, -0.5)",,,,,,,,,0,0,0,0,,,,,,,,,,,,,0,3,3,15,,,,,,,,,,,,,,,,,,,,,,,,,,,,,,,,,,811.6777846999466,6,reward,1,0.5141640999354422,0.5141675001941621,812.1986253000796,,,,,,,,,,,,,,,,,,,,,,8,B,2024-04-18_10h14.42.139,attentional_competition_task,2022.2.4,144.01025331304734,
positions.xlsx,positions_test.xlsx,positions_test_new.xlsx,stimuli.xlsx,stimuli_new.xlsx,stimuli/Social2.png,stimuli/Social1.png,stimuli/Nonsocial2.png,stimuli/Nonsocial1.png,stimuli/Social4.png,stimuli/Social3.png,stimuli/Nonsocial4.png,stimuli/Nonsocial3.png,cs_neg_s,"(-0.7, 0.5)",,,,,,,,,0,0,0,0,,,,,,,,,,,,,0,4,4,0,,,,,,,,,,,,,,,,,,,,,,,,,,,,,,,,,,819.4830183000304,3,loss,1,0.22933379979804158,0.22933719959110022,819.7191171003506,,,,,,,,,,,,,,,,,,,,,,8,B,2024-04-18_10h14.42.139,attentional_competition_task,2022.2.4,144.01025331304734,
positions.xlsx,positions_test.xlsx,positions_test_new.xlsx,stimuli.xlsx,stimuli_new.xlsx,stimuli/Social2.png,stimuli/Social1.png,stimuli/Nonsocial2.png,stimuli/Nonsocial1.png,stimuli/Social4.png,stimuli/Social3.png,stimuli/Nonsocial4.png,stimuli/Nonsocial3.png,cs_neg_s,"(0.7, -0.5)",,,,,,,,,0,0,0,0,,,,,,,,,,,,,0,5,5,3,,,,,,,,,,,,,,,,,,,,,,,,,,,,,,,,,,827.3786216001026,0,loss,1,2.382134099956602,2.3821375998668373,829.7673328001983,,,,,,,,,,,,,,,,,,,,,,8,B,2024-04-18_10h14.42.139,attentional_competition_task,2022.2.4,144.01025331304734,
positions.xlsx,positions_test.xlsx,positions_test_new.xlsx,stimuli.xlsx,stimuli_new.xlsx,stimuli/Social2.png,stimuli/Social1.png,stimuli/Nonsocial2.png,stimuli/Nonsocial1.png,stimuli/Social4.png,stimuli/Social3.png,stimuli/Nonsocial4.png,stimuli/Nonsocial3.png,cs_pos_s,"(-0.7, 0.5)",,,,,,,,,0,0,0,0,,,,,,,,,,,,,0,6,6,4,,,,,,,,,,,,,,,,,,,,,,,,,,,,,,,,,,837.0448267003521,3,reward,1,0.6252729999832809,0.6252766000106931,837.6768019003794,,,,,,,,,,,,,,,,,,,,,,8,B,2024-04-18_10h14.42.139,attentional_competition_task,2022.2.4,144.01025331304734,
positions.xlsx,positions_test.xlsx,positions_test_new.xlsx,stimuli.xlsx,stimuli_new.xlsx,stimuli/Social2.png,stimuli/Social1.png,stimuli/Nonsocial2.png,stimuli/Nonsocial1.png,stimuli/Social4.png,stimuli/Social3.png,stimuli/Nonsocial4.png,stimuli/Nonsocial3.png,cs_neg_ns,"(-0.7, -0.5)",,,,,,,,,0,0,0,0,,,,,,,,,,,,,0,7,7,9,,,,,,,,,,,,,,,,,,,,,,,,,,,,,,,,,,845.8222553003579,0,loss,1,0.8617026000283659,0.8617060999386013,846.6902723000385,,,,,,,,,,,,,,,,,,,,,,8,B,2024-04-18_10h14.42.139,attentional_competition_task,2022.2.4,144.01025331304734,
positions.xlsx,positions_test.xlsx,positions_test_new.xlsx,stimuli.xlsx,stimuli_new.xlsx,stimuli/Social2.png,stimuli/Social1.png,stimuli/Nonsocial2.png,stimuli/Nonsocial1.png,stimuli/Social4.png,stimuli/Social3.png,stimuli/Nonsocial4.png,stimuli/Nonsocial3.png,cs_neg_ns,"(-0.7, 0.5)",,,,,,,,,0,0,0,0,,,,,,,,,,,,,0,8,8,8,,,,,,,,,,,,,,,,,,,,,,,,,,,,,,,,,,853.4052797001787,0,none,0,,,856.4260343001224,,,,,,,,,,,,,,,,,,,,,,8,B,2024-04-18_10h14.42.139,attentional_competition_task,2022.2.4,144.01025331304734,
positions.xlsx,positions_test.xlsx,positions_test_new.xlsx,stimuli.xlsx,stimuli_new.xlsx,stimuli/Social2.png,stimuli/Social1.png,stimuli/Nonsocial2.png,stimuli/Nonsocial1.png,stimuli/Social4.png,stimuli/Social3.png,stimuli/Nonsocial4.png,stimuli/Nonsocial3.png,cs_neg_s,"(0.7, 0.5)",,,,,,,,,0,0,0,0,,,,,,,,,,,,,0,9,9,2,,,,,,,,,,,,,,,,,,,,,,,,,,,,,,,,,,863.5715604000725,0,none,0,,,866.5783858001232,,,,,,,,,,,,,,,,,,,,,,8,B,2024-04-18_10h14.42.139,attentional_competition_task,2022.2.4,144.01025331304734,
positions.xlsx,positions_test.xlsx,positions_test_new.xlsx,stimuli.xlsx,stimuli_new.xlsx,stimuli/Social2.png,stimuli/Social1.png,stimuli/Nonsocial2.png,stimuli/Nonsocial1.png,stimuli/Social4.png,stimuli/Social3.png,stimuli/Nonsocial4.png,stimuli/Nonsocial3.png,cs_pos_s,"(-0.7, -0.5)",,,,,,,,,0,0,0,0,,,,,,,,,,,,,0,10,10,5,,,,,,,,,,,,,,,,,,,,,,,,,,,,,,,,,,874.1266894000582,3,reward,1,0.5209523001685739,0.520955900195986,874.6544389999472,,,,,,,,,,,,,,,,,,,,,,8,B,2024-04-18_10h14.42.139,attentional_competition_task,2022.2.4,144.01025331304734,
positions.xlsx,positions_test.xlsx,positions_test_new.xlsx,stimuli.xlsx,stimuli_new.xlsx,stimuli/Social2.png,stimuli/Social1.png,stimuli/Nonsocial2.png,stimuli/Nonsocial1.png,stimuli/Social4.png,stimuli/Social3.png,stimuli/Nonsocial4.png,stimuli/Nonsocial3.png,cs_pos_ns,"(-0.7, 0.5)",,,,,,,,,0,0,0,0,,,,,,,,,,,,,0,11,11,12,,,,,,,,,,,,,,,,,,,,,,,,,,,,,,,,,,882.4249201002531,6,reward,1,0.6251158001832664,0.6251330999657512,883.05683710007,,,,,,,,,,,,,,,,,,,,,,8,B,2024-04-18_10h14.42.139,attentional_competition_task,2022.2.4,144.01025331304734,
positions.xlsx,positions_test.xlsx,positions_test_new.xlsx,stimuli.xlsx,stimuli_new.xlsx,stimuli/Social2.png,stimuli/Social1.png,stimuli/Nonsocial2.png,stimuli/Nonsocial1.png,stimuli/Social4.png,stimuli/Social3.png,stimuli/Nonsocial4.png,stimuli/Nonsocial3.png,cs_pos_ns,"(-0.7, -0.5)",,,,,,,,,0,0,0,0,,,,,,,,,,,,,0,12,12,13,,,,,,,,,,,,,,,,,,,,,,,,,,,,,,,,,,891.2162675000727,9,reward,1,1.7848446001298726,1.7848480003885925,893.0078520001844,,,,,,,,,,,,,,,,,,,,,,8,B,2024-04-18_10h14.42.139,attentional_competition_task,2022.2.4,144.01025331304734,
positions.xlsx,positions_test.xlsx,positions_test_new.xlsx,stimuli.xlsx,stimuli_new.xlsx,stimuli/Social2.png,stimuli/Social1.png,stimuli/Nonsocial2.png,stimuli/Nonsocial1.png,stimuli/Social4.png,stimuli/Social3.png,stimuli/Nonsocial4.png,stimuli/Nonsocial3.png,cs_neg_ns,"(0.7, 0.5)",,,,,,,,,0,0,0,0,,,,,,,,,,,,,0,13,13,10,,,,,,,,,,,,,,,,,,,,,,,,,,,,,,,,,,901.1394539000466,6,loss,1,0.9999195002019405,0.9999230001121759,902.1463638003916,,,,,,,,,,,,,,,,,,,,,,8,B,2024-04-18_10h14.42.139,attentional_competition_task,2022.2.4,144.01025331304734,
positions.xlsx,positions_test.xlsx,positions_test_new.xlsx,stimuli.xlsx,stimuli_new.xlsx,stimuli/Social2.png,stimuli/Social1.png,stimuli/Nonsocial2.png,stimuli/Nonsocial1.png,stimuli/Social4.png,stimuli/Social3.png,stimuli/Nonsocial4.png,stimuli/Nonsocial3.png,cs_pos_ns,"(0.7, 0.5)",,,,,,,,,0,0,0,0,,,,,,,,,,,,,0,14,14,14,,,,,,,,,,,,,,,,,,,,,,,,,,,,,,,,,,908.9656218001619,9,reward,1,0.8611325998790562,0.8611360997892916,909.8335860003717,,,,,,,,,,,,,,,,,,,,,,8,B,2024-04-18_10h14.42.139,attentional_competition_task,2022.2.4,144.01025331304734,
positions.xlsx,positions_test.xlsx,positions_test_new.xlsx,stimuli.xlsx,stimuli_new.xlsx,stimuli/Social2.png,stimuli/Social1.png,stimuli/Nonsocial2.png,stimuli/Nonsocial1.png,stimuli/Social4.png,stimuli/Social3.png,stimuli/Nonsocial4.png,stimuli/Nonsocial3.png,cs_neg_ns,"(0.7, -0.5)",,,,,,,,,0,0,0,0,,,,,,,,,,,,,0,15,15,11,,,,,,,,,,,,,,,,,,,,,,,,,,,,,,,,,,917.6457356000319,9,none,0,,,920.6595360003412,,,,,,,,,,,,,,,,,,,,,,8,B,2024-04-18_10h14.42.139,attentional_competition_task,2022.2.4,144.01025331304734,
positions.xlsx,positions_test.xlsx,positions_test_new.xlsx,stimuli.xlsx,stimuli_new.xlsx,stimuli/Social2.png,stimuli/Social1.png,stimuli/Nonsocial2.png,stimuli/Nonsocial1.png,stimuli/Social4.png,stimuli/Social3.png,stimuli/Nonsocial4.png,stimuli/Nonsocial3.png,cs_pos_s,"(0.7, -0.5)",,,,,,,,,0,0,0,0,,,,,,,,,,,,,1,0,16,7,,,,,,,,,,,,,,,,,,,,,,,,,,,,,,,,,,928.450894200243,12,reward,1,0.5419442998245358,0.5489825997501612,929.0064528002404,,,,,,,,,,,,,,,,,,,,,,8,B,2024-04-18_10h14.42.139,attentional_competition_task,2022.2.4,144.01025331304734,
positions.xlsx,positions_test.xlsx,positions_test_new.xlsx,stimuli.xlsx,stimuli_new.xlsx,stimuli/Social2.png,stimuli/Social1.png,stimuli/Nonsocial2.png,stimuli/Nonsocial1.png,stimuli/Social4.png,stimuli/Social3.png,stimuli/Nonsocial4.png,stimuli/Nonsocial3.png,cs_neg_ns,"(0.7, 0.5)",,,,,,,,,0,0,0,0,,,,,,,,,,,,,1,1,17,10,,,,,,,,,,,,,,,,,,,,,,,,,,,,,,,,,,937.0686040003784,9,loss,1,0.18744820030406117,0.18745210021734238,937.2630386003293,,,,,,,,,,,,,,,,,,,,,,8,B,2024-04-18_10h14.42.139,attentional_competition_task,2022.2.4,144.01025331304734,
positions.xlsx,positions_test.xlsx,positions_test_new.xlsx,stimuli.xlsx,stimuli_new.xlsx,stimuli/Social2.png,stimuli/Social1.png,stimuli/Nonsocial2.png,stimuli/Nonsocial1.png,stimuli/Social4.png,stimuli/Social3.png,stimuli/Nonsocial4.png,stimuli/Nonsocial3.png,cs_pos_s,"(-0.7, -0.5)",,,,,,,,,0,0,0,0,,,,,,,,,,,,,1,2,18,5,,,,,,,,,,,,,,,,,,,,,,,,,,,,,,,,,,944.6932989000343,12,reward,1,0.6669800998643041,0.6669834000058472,945.3668663999997,,,,,,,,,,,,,,,,,,,,,,8,B,2024-04-18_10h14.42.139,attentional_competition_task,2022.2.4,144.01025331304734,
positions.xlsx,positions_test.xlsx,positions_test_new.xlsx,stimuli.xlsx,stimuli_new.xlsx,stimuli/Social2.png,stimuli/Social1.png,stimuli/Nonsocial2.png,stimuli/Nonsocial1.png,stimuli/Social4.png,stimuli/Social3.png,stimuli/Nonsocial4.png,stimuli/Nonsocial3.png,cs_neg_ns,"(0.7, -0.5)",,,,,,,,,0,0,0,0,,,,,,,,,,,,,1,3,19,11,,,,,,,,,,,,,,,,,,,,,,,,,,,,,,,,,,952.4152212003246,12,none,0,,,955.4290034002624,,,,,,,,,,,,,,,,,,,,,,8,B,2024-04-18_10h14.42.139,attentional_competition_task,2022.2.4,144.01025331304734,
positions.xlsx,positions_test.xlsx,positions_test_new.xlsx,stimuli.xlsx,stimuli_new.xlsx,stimuli/Social2.png,stimuli/Social1.png,stimuli/Nonsocial2.png,stimuli/Nonsocial1.png,stimuli/Social4.png,stimuli/Social3.png,stimuli/Nonsocial4.png,stimuli/Nonsocial3.png,cs_neg_s,"(0.7, -0.5)",,,,,,,,,0,0,0,0,,,,,,,,,,,,,1,4,20,3,,,,,,,,,,,,,,,,,,,,,,,,,,,,,,,,,,963.3453263002448,12,none,0,,,966.3521814001724,,,,,,,,,,,,,,,,,,,,,,8,B,2024-04-18_10h14.42.139,attentional_competition_task,2022.2.4,144.01025331304734,
positions.xlsx,positions_test.xlsx,positions_test_new.xlsx,stimuli.xlsx,stimuli_new.xlsx,stimuli/Social2.png,stimuli/Social1.png,stimuli/Nonsocial2.png,stimuli/Nonsocial1.png,stimuli/Social4.png,stimuli/Social3.png,stimuli/Nonsocial4.png,stimuli/Nonsocial3.png,cs_pos_s,"(0.7, 0.5)",,,,,,,,,0,0,0,0,,,,,,,,,,,,,1,5,21,6,,,,,,,,,,,,,,,,,,,,,,,,,,,,,,,,,,973.1644251001999,15,reward,1,0.5352131999097764,0.5352306999266148,973.7060639001429,,,,,,,,,,,,,,,,,,,,,,8,B,2024-04-18_10h14.42.139,attentional_competition_task,2022.2.4,144.01025331304734,
positions.xlsx,positions_test.xlsx,positions_test_new.xlsx,stimuli.xlsx,stimuli_new.xlsx,stimuli/Social2.png,stimuli/Social1.png,stimuli/Nonsocial2.png,stimuli/Nonsocial1.png,stimuli/Social4.png,stimuli/Social3.png,stimuli/Nonsocial4.png,stimuli/Nonsocial3.png,cs_neg_s,"(0.7, 0.5)",,,,,,,,,0,0,0,0,,,,,,,,,,,,,1,6,22,2,,,,,,,,,,,,,,,,,,,,,,,,,,,,,,,,,,980.5252077002078,15,none,0,,,983.5320391003042,,,,,,,,,,,,,,,,,,,,,,8,B,2024-04-18_10h14.42.139,attentional_competition_task,2022.2.4,144.01025331304734,
positions.xlsx,positions_test.xlsx,positions_test_new.xlsx,stimuli.xlsx,stimuli_new.xlsx,stimuli/Social2.png,stimuli/Social1.png,stimuli/Nonsocial2.png,stimuli/Nonsocial1.png,stimuli/Social4.png,stimuli/Social3.png,stimuli/Nonsocial4.png,stimuli/Nonsocial3.png,cs_pos_ns,"(-0.7, 0.5)",,,,,,,,,0,0,0,0,,,,,,,,,,,,,1,7,23,12,,,,,,,,,,,,,,,,,,,,,,,,,,,,,,,,,,991.7122293999419,18,reward,1,0.8266106997616589,0.8335873000323772,992.5525148003362,,,,,,,,,,,,,,,,,,,,,,8,B,2024-04-18_10h14.42.139,attentional_competition_task,2022.2.4,144.01025331304734,
positions.xlsx,positions_test.xlsx,positions_test_new.xlsx,stimuli.xlsx,stimuli_new.xlsx,stimuli/Social2.png,stimuli/Social1.png,stimuli/Nonsocial2.png,stimuli/Nonsocial1.png,stimuli/Social4.png,stimuli/Social3.png,stimuli/Nonsocial4.png,stimuli/Nonsocial3.png,cs_pos_ns,"(0.7, 0.5)",,,,,,,,,0,0,0,0,,,,,,,,,,,,,1,8,24,14,,,,,,,,,,,,,,,,,,,,,,,,,,,,,,,,,,999.7675445000641,21,reward,1,1.222347800154239,1.2223514998331666,1000.9966500001028,,,,,,,,,,,,,,,,,,,,,,8,B,2024-04-18_10h14.42.139,attentional_competition_task,2022.2.4,144.01025331304734,
positions.xlsx,positions_test.xlsx,positions_test_new.xlsx,stimuli.xlsx,stimuli_new.xlsx,stimuli/Social2.png,stimuli/Social1.png,stimuli/Nonsocial2.png,stimuli/Nonsocial1.png,stimuli/Social4.png,stimuli/Social3.png,stimuli/Nonsocial4.png,stimuli/Nonsocial3.png,cs_pos_s,"(-0.7, 0.5)",,,,,,,,,0,0,0,0,,,,,,,,,,,,,1,9,25,4,,,,,,,,,,,,,,,,,,,,,,,,,,,,,,,,,,1007.843565300107,24,reward,1,0.9099709000438452,0.9099746001884341,1008.7601628000848,,,,,,,,,,,,,,,,,,,,,,8,B,2024-04-18_10h14.42.139,attentional_competition_task,2022.2.4,144.01025331304734,
positions.xlsx,positions_test.xlsx,positions_test_new.xlsx,stimuli.xlsx,stimuli_new.xlsx,stimuli/Social2.png,stimuli/Social1.png,stimuli/Nonsocial2.png,stimuli/Nonsocial1.png,stimuli/Social4.png,stimuli/Social3.png,stimuli/Nonsocial4.png,stimuli/Nonsocial3.png,cs_neg_ns,"(-0.7, 0.5)",,,,,,,,,0,0,0,0,,,,,,,,,,,,,1,10,26,8,,,,,,,,,,,,,,,,,,,,,,,,,,,,,,,,,,1015.7807424003258,24,none,0,,,1018.7944792001508,,,,,,,,,,,,,,,,,,,,,,8,B,2024-04-18_10h14.42.139,attentional_competition_task,2022.2.4,144.01025331304734,
positions.xlsx,positions_test.xlsx,positions_test_new.xlsx,stimuli.xlsx,stimuli_new.xlsx,stimuli/Social2.png,stimuli/Social1.png,stimuli/Nonsocial2.png,stimuli/Nonsocial1.png,stimuli/Social4.png,stimuli/Social3.png,stimuli/Nonsocial4.png,stimuli/Nonsocial3.png,cs_neg_s,"(-0.7, -0.5)",,,,,,,,,0,0,0,0,,,,,,,,,,,,,1,11,27,1,,,,,,,,,,,,,,,,,,,,,,,,,,,,,,,,,,1025.9400745001622,24,none,0,,,1028.9469436001964,,,,,,,,,,,,,,,,,,,,,,8,B,2024-04-18_10h14.42.139,attentional_competition_task,2022.2.4,144.01025331304734,
positions.xlsx,positions_test.xlsx,positions_test_new.xlsx,stimuli.xlsx,stimuli_new.xlsx,stimuli/Social2.png,stimuli/Social1.png,stimuli/Nonsocial2.png,stimuli/Nonsocial1.png,stimuli/Social4.png,stimuli/Social3.png,stimuli/Nonsocial4.png,stimuli/Nonsocial3.png,cs_neg_s,"(-0.7, 0.5)",,,,,,,,,0,0,0,0,,,,,,,,,,,,,1,12,28,0,,,,,,,,,,,,,,,,,,,,,,,,,,,,,,,,,,1036.036895800382,24,none,0,,,1039.0436585000716,,,,,,,,,,,,,,,,,,,,,,8,B,2024-04-18_10h14.42.139,attentional_competition_task,2022.2.4,144.01025331304734,
positions.xlsx,positions_test.xlsx,positions_test_new.xlsx,stimuli.xlsx,stimuli_new.xlsx,stimuli/Social2.png,stimuli/Social1.png,stimuli/Nonsocial2.png,stimuli/Nonsocial1.png,stimuli/Social4.png,stimuli/Social3.png,stimuli/Nonsocial4.png,stimuli/Nonsocial3.png,cs_pos_ns,"(-0.7, -0.5)",,,,,,,,,0,0,0,0,,,,,,,,,,,,,1,13,29,13,,,,,,,,,,,,,,,,,,,,,,,,,,,,,,,,,,1047.119751600083,27,reward,1,1.0419931998476386,1.0419967998750508,1048.175305200275,,,,,,,,,,,,,,,,,,,,,,8,B,2024-04-18_10h14.42.139,attentional_competition_task,2022.2.4,144.01025331304734,
positions.xlsx,positions_test.xlsx,positions_test_new.xlsx,stimuli.xlsx,stimuli_new.xlsx,stimuli/Social2.png,stimuli/Social1.png,stimuli/Nonsocial2.png,stimuli/Nonsocial1.png,stimuli/Social4.png,stimuli/Social3.png,stimuli/Nonsocial4.png,stimuli/Nonsocial3.png,cs_neg_ns,"(-0.7, -0.5)",,,,,,,,,0,0,0,0,,,,,,,,,,,,,1,14,30,9,,,,,,,,,,,,,,,,,,,,,,,,,,,,,,,,,,1055.3555583003908,27,none,0,,,1058.3692947002128,,,,,,,,,,,,,,,,,,,,,,8,B,2024-04-18_10h14.42.139,attentional_competition_task,2022.2.4,144.01025331304734,
positions.xlsx,positions_test.xlsx,positions_test_new.xlsx,stimuli.xlsx,stimuli_new.xlsx,stimuli/Social2.png,stimuli/Social1.png,stimuli/Nonsocial2.png,stimuli/Nonsocial1.png,stimuli/Social4.png,stimuli/Social3.png,stimuli/Nonsocial4.png,stimuli/Nonsocial3.png,cs_pos_ns,"(0.7, -0.5)",,,,,,,,,0,0,0,0,,,,,,,,,,,,,1,15,31,15,,,,,,,,,,,,,,,,,,,,,,,,,,,,,,,,,,1065.9037395003252,30,reward,1,0.930874599609524,0.9308784999884665,1066.841220000293,,,,,,,,,,,,,,,,,,,,,,8,B,2024-04-18_10h14.42.139,attentional_competition_task,2022.2.4,144.01025331304734,
positions.xlsx,positions_test.xlsx,positions_test_new.xlsx,stimuli.xlsx,stimuli_new.xlsx,stimuli/Social2.png,stimuli/Social1.png,stimuli/Nonsocial2.png,stimuli/Nonsocial1.png,stimuli/Social4.png,stimuli/Social3.png,stimuli/Nonsocial4.png,stimuli/Nonsocial3.png,cs_pos_ns,,,,,,,,,,0,0,0,0,,,,,,,,,,,,,,,,,0,0,0,3,,,,,,,,,,,,,,,,,,,,,,,1072.1049065999687,6.0,9.816334699746221,,,,,,,,,,,,,,,,,,,,,,,,,,,,,,,,,8,B,2024-04-18_10h14.42.139,attentional_competition_task,2022.2.4,144.01025331304734,
positions.xlsx,positions_test.xlsx,positions_test_new.xlsx,stimuli.xlsx,stimuli_new.xlsx,stimuli/Social2.png,stimuli/Social1.png,stimuli/Nonsocial2.png,stimuli/Nonsocial1.png,stimuli/Social4.png,stimuli/Social3.png,stimuli/Nonsocial4.png,stimuli/Nonsocial3.png,cs_neg_s,,,,,,,,,,0,0,0,0,,,,,,,,,,,,,,,,,0,1,1,0,,,,,,,,,,,,,,,,,,,,,,,1082.5628398000263,3.0,3.224552500061691,,,,,,,,,,,,,,,,,,,,,,,,,,,,,,,,,8,B,2024-04-18_10h14.42.139,attentional_competition_task,2022.2.4,144.01025331304734,
positions.xlsx,positions_test.xlsx,positions_test_new.xlsx,stimuli.xlsx,stimuli_new.xlsx,stimuli/Social2.png,stimuli/Social1.png,stimuli/Nonsocial2.png,stimuli/Nonsocial1.png,stimuli/Social4.png,stimuli/Social3.png,stimuli/Nonsocial4.png,stimuli/Nonsocial3.png,cs_neg_ns,,,,,,,,,,0,0,0,0,,,,,,,,,,,,,,,,,0,2,2,1,,,,,,,,,,,,,,,,,,,,,,,1086.0350036001764,5.0,2.8899047998711467,,,,,,,,,,,,,,,,,,,,,,,,,,,,,,,,,8,B,2024-04-18_10h14.42.139,attentional_competition_task,2022.2.4,144.01025331304734,
positions.xlsx,positions_test.xlsx,positions_test_new.xlsx,stimuli.xlsx,stimuli_new.xlsx,stimuli/Social2.png,stimuli/Social1.png,stimuli/Nonsocial2.png,stimuli/Nonsocial1.png,stimuli/Social4.png,stimuli/Social3.png,stimuli/Nonsocial4.png,stimuli/Nonsocial3.png,cs_pos_s,,,,,,,,,,0,0,0,0,,,,,,,,,,,,,,,,,0,3,3,2,,,,,,,,,,,,,,,,,,,,,,,1090.3611457999796,5.0,2.132867000065744,,,,,,,,,,,,,,,,,,,,,,,,,,,,,,,,,8,B,2024-04-18_10h14.42.139,attentional_competition_task,2022.2.4,144.01025331304734,
positions.xlsx,positions_test.xlsx,positions_test_new.xlsx,stimuli.xlsx,stimuli_new.xlsx,stimuli/Social2.png,stimuli/Social1.png,stimuli/Nonsocial2.png,stimuli/Nonsocial1.png,stimuli/Social4.png,stimuli/Social3.png,stimuli/Nonsocial4.png,stimuli/Nonsocial3.png,,,"(-0.7, -0.5)",cs_pos_s,"(-0.7, 0.5)",cs_neg_ns,"(0.7, -0.5)",cs_neg_s,"(0.7, 0.5)",cs_pos_ns,0,0,0,0,,,,,,,,,,,,,,,,,,,,,0,0,0,8,,,,,,,,,,,,,,,,,,,,,,,,,,,36,reward,,,,,1092.7985131000169,1098.6385651002638,1098.6385651002638,1098.6385651002638,1098.6385651002638,1,0.9466154999099672,1.3213236997835338,0,,,0,,,0,,,1100.4579458003864,1100.4579458003864,1100.4579458003864,1100.4579458003864,8,B,2024-04-18_10h14.42.139,attentional_competition_task,2022.2.4,144.01025331304734,
positions.xlsx,positions_test.xlsx,positions_test_new.xlsx,stimuli.xlsx,stimuli_new.xlsx,stimuli/Social2.png,stimuli/Social1.png,stimuli/Nonsocial2.png,stimuli/Nonsocial1.png,stimuli/Social4.png,stimuli/Social3.png,stimuli/Nonsocial4.png,stimuli/Nonsocial3.png,,,"(-0.7, -0.5)",cs_neg_ns,"(-0.7, 0.5)",cs_neg_s,"(0.7, -0.5)",cs_pos_s,"(0.7, 0.5)",cs_pos_ns,0,0,0,0,,,,,,,,,,,,,,,,,,,,,0,1,1,14,,,,,,,,,,,,,,,,,,,,,,,,,,,36,loss,,,,,,1107.0410291003063,1107.0410291003063,1107.0410291003063,1107.0410291003063,0,,,1,0.6746241999790072,0.6816163002513349,0,,,1,0.02825290011242032,0.4671041998080909,1107.7215321999975,1107.7215321999975,1107.7215321999975,1107.7215321999975,8,B,2024-04-18_10h14.42.139,attentional_competition_task,2022.2.4,144.01025331304734,
positions.xlsx,positions_test.xlsx,positions_test_new.xlsx,stimuli.xlsx,stimuli_new.xlsx,stimuli/Social2.png,stimuli/Social1.png,stimuli/Nonsocial2.png,stimuli/Nonsocial1.png,stimuli/Social4.png,stimuli/Social3.png,stimuli/Nonsocial4.png,stimuli/Nonsocial3.png,,,"(-0.7, -0.5)",cs_neg_s,"(-0.7, 0.5)",cs_pos_ns,"(0.7, -0.5)",cs_neg_ns,"(0.7, 0.5)",cs_pos_s,0,0,0,0,,,,,,,,,,,,,,,,,,,,,0,2,2,5,,,,,,,,,,,,,,,,,,,,,,,,,,,45,reward,,,,,,1116.478172000032,1116.478172000032,1116.478172000032,1116.478172000032,0,,,0,,,0,,,0,,,1117.1378452000208,1117.1378452000208,1117.1378452000208,1117.1378452000208,8,B,2024-04-18_10h14.42.139,attentional_competition_task,2022.2.4,144.01025331304734,
positions.xlsx,positions_test.xlsx,positions_test_new.xlsx,stimuli.xlsx,stimuli_new.xlsx,stimuli/Social2.png,stimuli/Social1.png,stimuli/Nonsocial2.png,stimuli/Nonsocial1.png,stimuli/Social4.png,stimuli/Social3.png,stimuli/Nonsocial4.png,stimuli/Nonsocial3.png,,,"(-0.7, -0.5)",cs_pos_ns,"(-0.7, 0.5)",cs_pos_s,"(0.7, -0.5)",cs_neg_ns,"(0.7, 0.5)",cs_neg_s,0,0,0,0,,,,,,,,,,,,,,,,,,,,,0,3,3,18,,,,,,,,,,,,,,,,,,,,,,,,,,,54,reward,,,,,,1124.3736994001083,1124.3736994001083,1124.3736994001083,1124.3736994001083,0,,,0,,,0,,,0,,,1124.9986670003273,1124.9986670003273,1124.9986670003273,1124.9986670003273,8,B,2024-04-18_10h14.42.139,attentional_competition_task,2022.2.4,144.01025331304734,
positions.xlsx,positions_test.xlsx,positions_test_new.xlsx,stimuli.xlsx,stimuli_new.xlsx,stimuli/Social2.png,stimuli/Social1.png,stimuli/Nonsocial2.png,stimuli/Nonsocial1.png,stimuli/Social4.png,stimuli/Social3.png,stimuli/Nonsocial4.png,stimuli/Nonsocial3.png,,,"(-0.7, -0.5)",cs_neg_ns,"(-0.7, 0.5)",cs_pos_ns,"(0.7, -0.5)",cs_neg_s,"(0.7, 0.5)",cs_pos_s,0,0,0,0,,,,,,,,,,,,,,,,,,,,,0,4,4,17,,,,,,,,,,,,,,,,,,,,,,,,,,,54,reward,,,,,,1131.8316810000688,1131.8316810000688,1131.8316810000688,1131.8316810000688,0,,,1,0.6208644001744688,0.6275690998882055,0,,,0,,,1132.4497325001284,1132.4497325001284,1132.4497325001284,1132.4497325001284,8,B,2024-04-18_10h14.42.139,attentional_competition_task,2022.2.4,144.01025331304734,
positions.xlsx,positions_test.xlsx,positions_test_new.xlsx,stimuli.xlsx,stimuli_new.xlsx,stimuli/Social2.png,stimuli/Social1.png,stimuli/Nonsocial2.png,stimuli/Nonsocial1.png,stimuli/Social4.png,stimuli/Social3.png,stimuli/Nonsocial4.png,stimuli/Nonsocial3.png,,,"(-0.7, -0.5)",cs_pos_s,"(-0.7, 0.5)",cs_neg_ns,"(0.7, -0.5)",cs_pos_ns,"(0.7, 0.5)",cs_neg_s,0,0,0,0,,,,,,,,,,,,,,,,,,,,,0,5,5,9,,,,,,,,,,,,,,,,,,,,,,,,,,,63,reward,,,,,,1141.4076980003156,1141.4076980003156,1141.4076980003156,1141.4076980003156,0,,,0,,,1,0.02294269995763898,0.19808320002630353,0,,,1142.1160115003586,1142.1160115003586,1142.1160115003586,1142.1160115003586,8,B,2024-04-18_10h14.42.139,attentional_competition_task,2022.2.4,144.01025331304734,
positions.xlsx,positions_test.xlsx,positions_test_new.xlsx,stimuli.xlsx,stimuli_new.xlsx,stimuli/Social2.png,stimuli/Social1.png,stimuli/Nonsocial2.png,stimuli/Nonsocial1.png,stimuli/Social4.png,stimuli/Social3.png,stimuli/Nonsocial4.png,stimuli/Nonsocial3.png,,,"(-0.7, -0.5)",cs_pos_s,"(-0.7, 0.5)",cs_neg_s,"(0.7, -0.5)",cs_pos_ns,"(0.7, 0.5)",cs_neg_ns,0,0,0,0,,,,,,,,,,,,,,,,,,,,,0,6,6,7,,,,,,,,,,,,,,,,,,,,,,,,,,,69,reward,,,,,,1150.0809817002155,1150.0809817002155,1150.0809817002155,1150.0809817002155,1,0.02948120003566146,0.02948509994894266,0,,,0,,,0,,,1150.0809817002155,1150.0809817002155,1150.0809817002155,1150.0809817002155,8,B,2024-04-18_10h14.42.139,attentional_competition_task,2022.2.4,144.01025331304734,
positions.xlsx,positions_test.xlsx,positions_test_new.xlsx,stimuli.xlsx,stimuli_new.xlsx,stimuli/Social2.png,stimuli/Social1.png,stimuli/Nonsocial2.png,stimuli/Nonsocial1.png,stimuli/Social4.png,stimuli/Social3.png,stimuli/Nonsocial4.png,stimuli/Nonsocial3.png,,,"(-0.7, -0.5)",cs_neg_s,"(-0.7, 0.5)",cs_neg_ns,"(0.7, -0.5)",cs_pos_ns,"(0.7, 0.5)",cs_pos_s,0,0,0,0,,,,,,,,,,,,,,,,,,,,,0,7,7,3,,,,,,,,,,,,,,,,,,,,,,,,,,,78,reward,,,,,,1159.1986605003476,1159.1986605003476,1159.1986605003476,1159.1986605003476,0,,,0,,,0,,,0,,,1160.0666899001226,1160.0666899001226,1160.0666899001226,1160.0666899001226,8,B,2024-04-18_10h14.42.139,attentional_competition_task,2022.2.4,144.01025331304734,
positions.xlsx,positions_test.xlsx,positions_test_new.xlsx,stimuli.xlsx,stimuli_new.xlsx,stimuli/Social2.png,stimuli/Social1.png,stimuli/Nonsocial2.png,stimuli/Nonsocial1.png,stimuli/Social4.png,stimuli/Social3.png,stimuli/Nonsocial4.png,stimuli/Nonsocial3.png,,,"(-0.7, -0.5)",cs_neg_ns,"(-0.7, 0.5)",cs_pos_s,"(0.7, -0.5)",cs_pos_ns,"(0.7, 0.5)",cs_neg_s,0,0,0,0,,,,,,,,,,,,,,,,,,,,,0,8,8,13,,,,,,,,,,,,,,,,,,,,,,,,,,,87,reward,,,,,,1167.5246846000664,1167.5246846000664,1167.5246846000664,1167.5246846000664,0,,,0,,,1,0.029351699631661177,0.22512489976361394,0,,,1168.3858004999347,1168.3858004999347,1168.3858004999347,1168.3858004999347,8,B,2024-04-18_10h14.42.139,attentional_competition_task,2022.2.4,144.01025331304734,
positions.xlsx,positions_test.xlsx,positions_test_new.xlsx,stimuli.xlsx,stimuli_new.xlsx,stimuli/Social2.png,stimuli/Social1.png,stimuli/Nonsocial2.png,stimuli/Nonsocial1.png,stimuli/Social4.png,stimuli/Social3.png,stimuli/Nonsocial4.png,stimuli/Nonsocial3.png,,,"(-0.7, -0.5)",cs_pos_ns,"(-0.7, 0.5)",cs_neg_s,"(0.7, -0.5)",cs_neg_ns,"(0.7, 0.5)",cs_pos_s,0,0,0,0,,,,,,,,,,,,,,,,,,,,,0,9,9,23,,,,,,,,,,,,,,,,,,,,,,,,,,,90,reward,,,,,,1175.9757409002632,1175.9757409002632,1175.9757409002632,1175.9757409002632,1,0.02922869985923171,0.029232699889689684,0,,,0,,,0,,,1175.9757409002632,1175.9757409002632,1175.9757409002632,1175.9757409002632,8,B,2024-04-18_10h14.42.139,attentional_competition_task,2022.2.4,144.01025331304734,
positions.xlsx,positions_test.xlsx,positions_test_new.xlsx,stimuli.xlsx,stimuli_new.xlsx,stimuli/Social2.png,stimuli/Social1.png,stimuli/Nonsocial2.png,stimuli/Nonsocial1.png,stimuli/Social4.png,stimuli/Social3.png,stimuli/Nonsocial4.png,stimuli/Nonsocial3.png,,,"(-0.7, -0.5)",cs_pos_s,"(-0.7, 0.5)",cs_pos_ns,"(0.7, -0.5)",cs_neg_ns,"(0.7, 0.5)",cs_neg_s,0,0,0,0,,,,,,,,,,,,,,,,,,,,,0,10,10,11,,,,,,,,,,,,,,,,,,,,,,,,,,,99,reward,,,,,,1184.239320800174,1184.239320800174,1184.239320800174,1184.239320800174,0,,,1,0.029629399999976158,0.3766748998314142,0,,,0,,,1185.114274600055,1185.114274600055,1185.114274600055,1185.114274600055,8,B,2024-04-18_10h14.42.139,attentional_competition_task,2022.2.4,144.01025331304734,
positions.xlsx,positions_test.xlsx,positions_test_new.xlsx,stimuli.xlsx,stimuli_new.xlsx,stimuli/Social2.png,stimuli/Social1.png,stimuli/Nonsocial2.png,stimuli/Nonsocial1.png,stimuli/Social4.png,stimuli/Social3.png,stimuli/Nonsocial4.png,stimuli/Nonsocial3.png,,,"(-0.7, -0.5)",cs_neg_s,"(-0.7, 0.5)",cs_pos_s,"(0.7, -0.5)",cs_pos_ns,"(0.7, 0.5)",cs_neg_ns,0,0,0,0,,,,,,,,,,,,,,,,,,,,,0,11,11,1,,,,,,,,,,,,,,,,,,,,,,,,,,,93,loss,,,,,,1192.7667952999473,1192.7667952999473,1192.7667952999473,1192.7667952999473,0,,,0,,,0,,,0,,,1193.9819968002848,1193.9819968002848,1193.9819968002848,1193.9819968002848,8,B,2024-04-18_10h14.42.139,attentional_competition_task,2022.2.4,144.01025331304734,
positions.xlsx,positions_test.xlsx,positions_test_new.xlsx,stimuli.xlsx,stimuli_new.xlsx,stimuli/Social2.png,stimuli/Social1.png,stimuli/Nonsocial2.png,stimuli/Nonsocial1.png,stimuli/Social4.png,stimuli/Social3.png,stimuli/Nonsocial4.png,stimuli/Nonsocial3.png,,,"(-0.7, -0.5)",cs_pos_ns,"(-0.7, 0.5)",cs_neg_ns,"(0.7, -0.5)",cs_neg_s,"(0.7, 0.5)",cs_pos_s,0,0,0,0,,,,,,,,,,,,,,,,,,,,,0,12,12,21,,,,,,,,,,,,,,,,,,,,,,,,,,,93,reward,,,,,,1201.3567097000778,1201.3567097000778,1201.3567097000778,1201.3567097000778,1,0.5236781998537481,0.5236820001155138,0,,,0,,,0,,,1201.8775470000692,1201.8775470000692,1201.8775470000692,1201.8775470000692,8,B,2024-04-18_10h14.42.139,attentional_competition_task,2022.2.4,144.01025331304734,
positions.xlsx,positions_test.xlsx,positions_test_new.xlsx,stimuli.xlsx,stimuli_new.xlsx,stimuli/Social2.png,stimuli/Social1.png,stimuli/Nonsocial2.png,stimuli/Nonsocial1.png,stimuli/Social4.png,stimuli/Social3.png,stimuli/Nonsocial4.png,stimuli/Nonsocial3.png,,,"(-0.7, -0.5)",cs_pos_s,"(-0.7, 0.5)",cs_pos_ns,"(0.7, -0.5)",cs_neg_s,"(0.7, 0.5)",cs_neg_ns,0,0,0,0,,,,,,,,,,,,,,,,,,,,,0,13,13,10,,,,,,,,,,,,,,,,,,,,,,,,,,,99,reward,,,,,,1210.2869035000913,1210.2869035000913,1210.2869035000913,1210.2869035000913,1,0.02943130023777485,0.2520798002369702,1,0.26640160009264946,0.2732689999975264,0,,,0,,,1210.5577181000262,1210.5577181000262,1210.5577181000262,1210.5577181000262,8,B,2024-04-18_10h14.42.139,attentional_competition_task,2022.2.4,144.01025331304734,
positions.xlsx,positions_test.xlsx,positions_test_new.xlsx,stimuli.xlsx,stimuli_new.xlsx,stimuli/Social2.png,stimuli/Social1.png,stimuli/Nonsocial2.png,stimuli/Nonsocial1.png,stimuli/Social4.png,stimuli/Social3.png,stimuli/Nonsocial4.png,stimuli/Nonsocial3.png,,,"(-0.7, -0.5)",cs_neg_s,"(-0.7, 0.5)",cs_neg_ns,"(0.7, -0.5)",cs_pos_s,"(0.7, 0.5)",cs_pos_ns,0,0,0,0,,,,,,,,,,,,,,,,,,,,,0,14,14,2,,,,,,,,,,,,,,,,,,,,,,,,,,,99,reward,,,,,,1217.6338190999813,1217.6338190999813,1217.6338190999813,1217.6338190999813,0,,,0,,,0,,,1,0.7117166998796165,0.7117203995585442,1218.3491170001216,1218.3491170001216,1218.3491170001216,1218.3491170001216,8,B,2024-04-18_10h14.42.139,attentional_competition_task,2022.2.4,144.01025331304734,
positions.xlsx,positions_test.xlsx,positions_test_new.xlsx,stimuli.xlsx,stimuli_new.xlsx,stimuli/Social2.png,stimuli/Social1.png,stimuli/Nonsocial2.png,stimuli/Nonsocial1.png,stimuli/Social4.png,stimuli/Social3.png,stimuli/Nonsocial4.png,stimuli/Nonsocial3.png,,,"(-0.7, -0.5)",cs_neg_s,"(-0.7, 0.5)",cs_pos_ns,"(0.7, -0.5)",cs_pos_s,"(0.7, 0.5)",cs_neg_ns,0,0,0,0,,,,,,,,,,,,,,,,,,,,,0,15,15,4,,,,,,,,,,,,,,,,,,,,,,,,,,,108,reward,,,,,,1227.258464900311,1227.258464900311,1227.258464900311,1227.258464900311,0,,,0,,,0,,,0,,,1227.9875929001719,1227.9875929001719,1227.9875929001719,1227.9875929001719,8,B,2024-04-18_10h14.42.139,attentional_competition_task,2022.2.4,144.01025331304734,
positions.xlsx,positions_test.xlsx,positions_test_new.xlsx,stimuli.xlsx,stimuli_new.xlsx,stimuli/Social2.png,stimuli/Social1.png,stimuli/Nonsocial2.png,stimuli/Nonsocial1.png,stimuli/Social4.png,stimuli/Social3.png,stimuli/Nonsocial4.png,stimuli/Nonsocial3.png,,,"(-0.7, -0.5)",cs_pos_ns,"(-0.7, 0.5)",cs_neg_s,"(0.7, -0.5)",cs_pos_s,"(0.7, 0.5)",cs_neg_ns,0,0,0,0,,,,,,,,,,,,,,,,,,,,,0,16,16,22,,,,,,,,,,,,,,,,,,,,,,,,,,,117,reward,,,,,,1236.0914805000648,1236.0914805000648,1236.0914805000648,1236.0914805000648,0,,,0,,,1,0.029676500242203474,0.08620740007609129,0,,,1236.9733381001279,1236.9733381001279,1236.9733381001279,1236.9733381001279,8,B,2024-04-18_10h14.42.139,attentional_competition_task,2022.2.4,144.01025331304734,
positions.xlsx,positions_test.xlsx,positions_test_new.xlsx,stimuli.xlsx,stimuli_new.xlsx,stimuli/Social2.png,stimuli/Social1.png,stimuli/Nonsocial2.png,stimuli/Nonsocial1.png,stimuli/Social4.png,stimuli/Social3.png,stimuli/Nonsocial4.png,stimuli/Nonsocial3.png,,,"(-0.7, -0.5)",cs_neg_s,"(-0.7, 0.5)",cs_pos_s,"(0.7, -0.5)",cs_neg_ns,"(0.7, 0.5)",cs_pos_ns,0,0,0,0,,,,,,,,,,,,,,,,,,,,,0,17,17,0,,,,,,,,,,,,,,,,,,,,,,,,,,,126,reward,,,,,,1244.5980651001446,1244.5980651001446,1244.5980651001446,1244.5980651001446,0,,,1,0.03093989985063672,0.0861999997869134,0,,,0,,,1245.250786300283,1245.250786300283,1245.250786300283,1245.250786300283,8,B,2024-04-18_10h14.42.139,attentional_competition_task,2022.2.4,144.01025331304734,
positions.xlsx,positions_test.xlsx,positions_test_new.xlsx,stimuli.xlsx,stimuli_new.xlsx,stimuli/Social2.png,stimuli/Social1.png,stimuli/Nonsocial2.png,stimuli/Nonsocial1.png,stimuli/Social4.png,stimuli/Social3.png,stimuli/Nonsocial4.png,stimuli/Nonsocial3.png,,,"(-0.7, -0.5)",cs_neg_ns,"(-0.7, 0.5)",cs_neg_s,"(0.7, -0.5)",cs_pos_ns,"(0.7, 0.5)",cs_pos_s,0,0,0,0,,,,,,,,,,,,,,,,,,,,,0,18,18,15,,,,,,,,,,,,,,,,,,,,,,,,,,,135,reward,,,,,,1253.007415200118,1253.007415200118,1253.007415200118,1253.007415200118,0,,,0,,,1,0.030116899870336056,0.2114690998569131,0,,,1253.7435058001429,1253.7435058001429,1253.7435058001429,1253.7435058001429,8,B,2024-04-18_10h14.42.139,attentional_competition_task,2022.2.4,144.01025331304734,
positions.xlsx,positions_test.xlsx,positions_test_new.xlsx,stimuli.xlsx,stimuli_new.xlsx,stimuli/Social2.png,stimuli/Social1.png,stimuli/Nonsocial2.png,stimuli/Nonsocial1.png,stimuli/Social4.png,stimuli/Social3.png,stimuli/Nonsocial4.png,stimuli/Nonsocial3.png,,,"(-0.7, -0.5)",cs_pos_ns,"(-0.7, 0.5)",cs_neg_ns,"(0.7, -0.5)",cs_pos_s,"(0.7, 0.5)",cs_neg_s,0,0,0,0,,,,,,,,,,,,,,,,,,,,,0,19,19,20,,,,,,,,,,,,,,,,,,,,,,,,,,,144,reward,,,,,,1262.1251278002746,1262.1251278002746,1262.1251278002746,1262.1251278002746,0,,,0,,,1,0.023626400157809258,0.12323309993371367,0,,,1263.0209130002186,1263.0209130002186,1263.0209130002186,1263.0209130002186,8,B,2024-04-18_10h14.42.139,attentional_competition_task,2022.2.4,144.01025331304734,
positions.xlsx,positions_test.xlsx,positions_test_new.xlsx,stimuli.xlsx,stimuli_new.xlsx,stimuli/Social2.png,stimuli/Social1.png,stimuli/Nonsocial2.png,stimuli/Nonsocial1.png,stimuli/Social4.png,stimuli/Social3.png,stimuli/Nonsocial4.png,stimuli/Nonsocial3.png,,,"(-0.7, -0.5)",cs_neg_ns,"(-0.7, 0.5)",cs_pos_ns,"(0.7, -0.5)",cs_pos_s,"(0.7, 0.5)",cs_neg_s,0,0,0,0,,,,,,,,,,,,,,,,,,,,,0,20,20,16,,,,,,,,,,,,,,,,,,,,,,,,,,,153,reward,,,,,,1271.1039130003192,1271.1039130003192,1271.1039130003192,1271.1039130003192,0,,,0,,,1,0.02504009986296296,0.1626639999449253,0,,,1271.7705651000142,1271.7705651000142,1271.7705651000142,1271.7705651000142,8,B,2024-04-18_10h14.42.139,attentional_competition_task,2022.2.4,144.01025331304734,
positions.xlsx,positions_test.xlsx,positions_test_new.xlsx,stimuli.xlsx,stimuli_new.xlsx,stimuli/Social2.png,stimuli/Social1.png,stimuli/Nonsocial2.png,stimuli/Nonsocial1.png,stimuli/Social4.png,stimuli/Social3.png,stimuli/Nonsocial4.png,stimuli/Nonsocial3.png,,,"(-0.7, -0.5)",cs_pos_ns,"(-0.7, 0.5)",cs_pos_s,"(0.7, -0.5)",cs_neg_s,"(0.7, 0.5)",cs_neg_ns,0,0,0,0,,,,,,,,,,,,,,,,,,,,,0,21,21,19,,,,,,,,,,,,,,,,,,,,,,,,,,,162,reward,,,,,,1279.8049395000562,1279.8049395000562,1279.8049395000562,1279.8049395000562,1,0.027601399924606085,0.1196802998892963,0,,,0,,,0,,,1280.5410715001635,1280.5410715001635,1280.5410715001635,1280.5410715001635,8,B,2024-04-18_10h14.42.139,attentional_competition_task,2022.2.4,144.01025331304734,
positions.xlsx,positions_test.xlsx,positions_test_new.xlsx,stimuli.xlsx,stimuli_new.xlsx,stimuli/Social2.png,stimuli/Social1.png,stimuli/Nonsocial2.png,stimuli/Nonsocial1.png,stimuli/Social4.png,stimuli/Social3.png,stimuli/Nonsocial4.png,stimuli/Nonsocial3.png,,,"(-0.7, -0.5)",cs_pos_s,"(-0.7, 0.5)",cs_neg_s,"(0.7, -0.5)",cs_neg_ns,"(0.7, 0.5)",cs_pos_ns,0,0,0,0,,,,,,,,,,,,,,,,,,,,,0,22,22,6,,,,,,,,,,,,,,,,,,,,,,,,,,,171,reward,,,,,,1287.4504650002345,1287.4504650002345,1287.4504650002345,1287.4504650002345,1,0.029554199893027544,0.3774369000457227,0,,,0,,,0,,,1288.325471600052,1288.325471600052,1288.325471600052,1288.325471600052,8,B,2024-04-18_10h14.42.139,attentional_competition_task,2022.2.4,144.01025331304734,
positions.xlsx,positions_test.xlsx,positions_test_new.xlsx,stimuli.xlsx,stimuli_new.xlsx,stimuli/Social2.png,stimuli/Social1.png,stimuli/Nonsocial2.png,stimuli/Nonsocial1.png,stimuli/Social4.png,stimuli/Social3.png,stimuli/Nonsocial4.png,stimuli/Nonsocial3.png,,,"(-0.7, -0.5)",cs_neg_ns,"(-0.7, 0.5)",cs_pos_s,"(0.7, -0.5)",cs_neg_s,"(0.7, 0.5)",cs_pos_ns,0,0,0,0,,,,,,,,,,,,,,,,,,,,,0,23,23,12,,,,,,,,,,,,,,,,,,,,,,,,,,,174,reward,,,,,,1296.1723635001108,1296.1723635001108,1296.1723635001108,1296.1723635001108,0,,,1,0.02382959984242916,0.023833499755710363,0,,,0,,,1296.1723635001108,1296.1723635001108,1296.1723635001108,1296.1723635001108,8,B,2024-04-18_10h14.42.139,attentional_competition_task,2022.2.4,144.01025331304734,
positions.xlsx,positions_test.xlsx,positions_test_new.xlsx,stimuli.xlsx,stimuli_new.xlsx,stimuli/Social2.png,stimuli/Social1.png,stimuli/Nonsocial2.png,stimuli/Nonsocial1.png,stimuli/Social4.png,stimuli/Social3.png,stimuli/Nonsocial4.png,stimuli/Nonsocial3.png,,,"(-0.7, -0.5)",cs_pos_ns,"(-0.7, 0.5)",cs_neg_ns,"(0.7, -0.5)",cs_pos_s,"(0.7, 0.5)",cs_neg_s,0,0,0,0,,,,,,,,,,,,,,,,,,,,,1,0,24,20,,,,,,,,,,,,,,,,,,,,,,,,,,,183,reward,,,,,,1304.2553743002936,1304.2553743002936,1304.2553743002936,1304.2553743002936,0,,,0,,,1,0.024852899834513664,0.09586399979889393,0,,,1304.9220217000693,1304.9220217000693,1304.9220217000693,1304.9220217000693,8,B,2024-04-18_10h14.42.139,attentional_competition_task,2022.2.4,144.01025331304734,
positions.xlsx,positions_test.xlsx,positions_test_new.xlsx,stimuli.xlsx,stimuli_new.xlsx,stimuli/Social2.png,stimuli/Social1.png,stimuli/Nonsocial2.png,stimuli/Nonsocial1.png,stimuli/Social4.png,stimuli/Social3.png,stimuli/Nonsocial4.png,stimuli/Nonsocial3.png,,,"(-0.7, -0.5)",cs_pos_ns,"(-0.7, 0.5)",cs_pos_s,"(0.7, -0.5)",cs_neg_s,"(0.7, 0.5)",cs_neg_ns,0,0,0,0,,,,,,,,,,,,,,,,,,,,,1,1,25,19,,,,,,,,,,,,,,,,,,,,,,,,,,,192,reward,,,,,,1312.074508599937,1312.074508599937,1312.074508599937,1312.074508599937,0,,,1,0.027629300020635128,0.4400758999399841,0,,,0,,,1313.0189301003702,1313.0189301003702,1313.0189301003702,1313.0189301003702,8,B,2024-04-18_10h14.42.139,attentional_competition_task,2022.2.4,144.01025331304734,
positions.xlsx,positions_test.xlsx,positions_test_new.xlsx,stimuli.xlsx,stimuli_new.xlsx,stimuli/Social2.png,stimuli/Social1.png,stimuli/Nonsocial2.png,stimuli/Nonsocial1.png,stimuli/Social4.png,stimuli/Social3.png,stimuli/Nonsocial4.png,stimuli/Nonsocial3.png,,,"(-0.7, -0.5)",cs_neg_ns,"(-0.7, 0.5)",cs_pos_s,"(0.7, -0.5)",cs_neg_s,"(0.7, 0.5)",cs_pos_ns,0,0,0,0,,,,,,,,,,,,,,,,,,,,,1,2,26,12,,,,,,,,,,,,,,,,,,,,,,,,,,,201,reward,,,,,,1321.5116309002042,1321.5116309002042,1321.5116309002042,1321.5116309002042,0,,,1,0.024102000053972006,0.40674900030717254,0,,,0,,,1322.4213442001492,1322.4213442001492,1322.4213442001492,1322.4213442001492,8,B,2024-04-18_10h14.42.139,attentional_competition_task,2022.2.4,144.01025331304734,
positions.xlsx,positions_test.xlsx,positions_test_new.xlsx,stimuli.xlsx,stimuli_new.xlsx,stimuli/Social2.png,stimuli/Social1.png,stimuli/Nonsocial2.png,stimuli/Nonsocial1.png,stimuli/Social4.png,stimuli/Social3.png,stimuli/Nonsocial4.png,stimuli/Nonsocial3.png,,,"(-0.7, -0.5)",cs_pos_ns,"(-0.7, 0.5)",cs_neg_s,"(0.7, -0.5)",cs_pos_s,"(0.7, 0.5)",cs_neg_ns,0,0,0,0,,,,,,,,,,,,,,,,,,,,,1,3,27,22,,,,,,,,,,,,,,,,,,,,,,,,,,,210,reward,,,,,,1329.7890673000365,1329.7890673000365,1329.7890673000365,1329.7890673000365,0,,,0,,,0,,,0,,,1330.7127274000086,1330.7127274000086,1330.7127274000086,1330.7127274000086,8,B,2024-04-18_10h14.42.139,attentional_competition_task,2022.2.4,144.01025331304734,
positions.xlsx,positions_test.xlsx,positions_test_new.xlsx,stimuli.xlsx,stimuli_new.xlsx,stimuli/Social2.png,stimuli/Social1.png,stimuli/Nonsocial2.png,stimuli/Nonsocial1.png,stimuli/Social4.png,stimuli/Social3.png,stimuli/Nonsocial4.png,stimuli/Nonsocial3.png,,,"(-0.7, -0.5)",cs_neg_ns,"(-0.7, 0.5)",cs_neg_s,"(0.7, -0.5)",cs_pos_ns,"(0.7, 0.5)",cs_pos_s,0,0,0,0,,,,,,,,,,,,,,,,,,,,,1,4,28,15,,,,,,,,,,,,,,,,,,,,,,,,,,,219,reward,,,,,,1339.0664946003817,1339.0664946003817,1339.0664946003817,1339.0664946003817,0,,,0,,,0,,,0,,,1340.0386801999994,1340.0386801999994,1340.0386801999994,1340.0386801999994,8,B,2024-04-18_10h14.42.139,attentional_competition_task,2022.2.4,144.01025331304734,
positions.xlsx,positions_test.xlsx,positions_test_new.xlsx,stimuli.xlsx,stimuli_new.xlsx,stimuli/Social2.png,stimuli/Social1.png,stimuli/Nonsocial2.png,stimuli/Nonsocial1.png,stimuli/Social4.png,stimuli/Social3.png,stimuli/Nonsocial4.png,stimuli/Nonsocial3.png,,,"(-0.7, -0.5)",cs_neg_s,"(-0.7, 0.5)",cs_pos_s,"(0.7, -0.5)",cs_pos_ns,"(0.7, 0.5)",cs_neg_ns,0,0,0,0,,,,,,,,,,,,,,,,,,,,,1,5,29,1,,,,,,,,,,,,,,,,,,,,,,,,,,,228,reward,,,,,,1347.4758627000265,1347.4758627000265,1347.4758627000265,1347.4758627000265,0,,,1,0.03118980024009943,0.37776090018451214,0,,,0,,,1348.3925092001446,1348.3925092001446,1348.3925092001446,1348.3925092001446,8,B,2024-04-18_10h14.42.139,attentional_competition_task,2022.2.4,144.01025331304734,
positions.xlsx,positions_test.xlsx,positions_test_new.xlsx,stimuli.xlsx,stimuli_new.xlsx,stimuli/Social2.png,stimuli/Social1.png,stimuli/Nonsocial2.png,stimuli/Nonsocial1.png,stimuli/Social4.png,stimuli/Social3.png,stimuli/Nonsocial4.png,stimuli/Nonsocial3.png,,,"(-0.7, -0.5)",cs_pos_s,"(-0.7, 0.5)",cs_neg_ns,"(0.7, -0.5)",cs_neg_s,"(0.7, 0.5)",cs_pos_ns,0,0,0,0,,,,,,,,,,,,,,,,,,,,,1,6,30,8,,,,,,,,,,,,,,,,,,,,,,,,,,,237,reward,,,,,,1355.9894412001595,1355.9894412001595,1355.9894412001595,1355.9894412001595,1,0.024292099755257368,0.25985309993848205,0,,,0,,,0,,,1356.822740700096,1356.822740700096,1356.822740700096,1356.822740700096,8,B,2024-04-18_10h14.42.139,attentional_competition_task,2022.2.4,144.01025331304734,
positions.xlsx,positions_test.xlsx,positions_test_new.xlsx,stimuli.xlsx,stimuli_new.xlsx,stimuli/Social2.png,stimuli/Social1.png,stimuli/Nonsocial2.png,stimuli/Nonsocial1.png,stimuli/Social4.png,stimuli/Social3.png,stimuli/Nonsocial4.png,stimuli/Nonsocial3.png,,,"(-0.7, -0.5)",cs_neg_ns,"(-0.7, 0.5)",cs_neg_s,"(0.7, -0.5)",cs_pos_s,"(0.7, 0.5)",cs_pos_ns,0,0,0,0,,,,,,,,,,,,,,,,,,,,,1,7,31,14,,,,,,,,,,,,,,,,,,,,,,,,,,,246,reward,,,,,,1364.3779657999985,1364.3779657999985,1364.3779657999985,1364.3779657999985,0,,,0,,,0,,,1,0.02818919997662306,0.12062270008027554,1365.0447459002025,1365.0447459002025,1365.0447459002025,1365.0447459002025,8,B,2024-04-18_10h14.42.139,attentional_competition_task,2022.2.4,144.01025331304734,
positions.xlsx,positions_test.xlsx,positions_test_new.xlsx,stimuli.xlsx,stimuli_new.xlsx,stimuli/Social2.png,stimuli/Social1.png,stimuli/Nonsocial2.png,stimuli/Nonsocial1.png,stimuli/Social4.png,stimuli/Social3.png,stimuli/Nonsocial4.png,stimuli/Nonsocial3.png,,,"(-0.7, -0.5)",cs_neg_ns,"(-0.7, 0.5)",cs_pos_ns,"(0.7, -0.5)",cs_pos_s,"(0.7, 0.5)",cs_neg_s,0,0,0,0,,,,,,,,,,,,,,,,,,,,,1,8,32,16,,,,,,,,,,,,,,,,,,,,,,,,,,,255,reward,,,,,,1372.6970798000693,1372.6970798000693,1372.6970798000693,1372.6970798000693,0,,,0,,,1,0.030971200205385685,0.10023050010204315,0,,,1373.5859622000717,1373.5859622000717,1373.5859622000717,1373.5859622000717,8,B,2024-04-18_10h14.42.139,attentional_competition_task,2022.2.4,144.01025331304734,
positions.xlsx,positions_test.xlsx,positions_test_new.xlsx,stimuli.xlsx,stimuli_new.xlsx,stimuli/Social2.png,stimuli/Social1.png,stimuli/Nonsocial2.png,stimuli/Nonsocial1.png,stimuli/Social4.png,stimuli/Social3.png,stimuli/Nonsocial4.png,stimuli/Nonsocial3.png,,,"(-0.7, -0.5)",cs_neg_s,"(-0.7, 0.5)",cs_pos_ns,"(0.7, -0.5)",cs_pos_s,"(0.7, 0.5)",cs_neg_ns,0,0,0,0,,,,,,,,,,,,,,,,,,,,,1,9,33,4,,,,,,,,,,,,,,,,,,,,,,,,,,,264,reward,,,,,,1380.9051505001262,1380.9051505001262,1380.9051505001262,1380.9051505001262,0,,,1,0.024562899954617023,0.40633489983156323,0,,,0,,,1381.8148051002063,1381.8148051002063,1381.8148051002063,1381.8148051002063,8,B,2024-04-18_10h14.42.139,attentional_competition_task,2022.2.4,144.01025331304734,
positions.xlsx,positions_test.xlsx,positions_test_new.xlsx,stimuli.xlsx,stimuli_new.xlsx,stimuli/Social2.png,stimuli/Social1.png,stimuli/Nonsocial2.png,stimuli/Nonsocial1.png,stimuli/Social4.png,stimuli/Social3.png,stimuli/Nonsocial4.png,stimuli/Nonsocial3.png,,,"(-0.7, -0.5)",cs_neg_s,"(-0.7, 0.5)",cs_pos_ns,"(0.7, -0.5)",cs_neg_ns,"(0.7, 0.5)",cs_pos_s,0,0,0,0,,,,,,,,,,,,,,,,,,,,,1,10,34,5,,,,,,,,,,,,,,,,,,,,,,,,,,,273,reward,,,,,,1389.6825664001517,1389.6825664001517,1389.6825664001517,1389.6825664001517,0,,,1,0.028676100075244904,0.2663058000616729,0,,,0,,,1390.4533517002128,1390.4533517002128,1390.4533517002128,1390.4533517002128,8,B,2024-04-18_10h14.42.139,attentional_competition_task,2022.2.4,144.01025331304734,
positions.xlsx,positions_test.xlsx,positions_test_new.xlsx,stimuli.xlsx,stimuli_new.xlsx,stimuli/Social2.png,stimuli/Social1.png,stimuli/Nonsocial2.png,stimuli/Nonsocial1.png,stimuli/Social4.png,stimuli/Social3.png,stimuli/Nonsocial4.png,stimuli/Nonsocial3.png,,,"(-0.7, -0.5)",cs_pos_ns,"(-0.7, 0.5)",cs_pos_s,"(0.7, -0.5)",cs_neg_ns,"(0.7, 0.5)",cs_neg_s,0,0,0,0,,,,,,,,,,,,,,,,,,,,,1,11,35,18,,,,,,,,,,,,,,,,,,,,,,,,,,,282,reward,,,,,,1398.1127534001134,1398.1127534001134,1398.1127534001134,1398.1127534001134,0,,,1,0.02212390024214983,0.440246700309217,0,,,0,,,1399.0641391002573,1399.0641391002573,1399.0641391002573,1399.0641391002573,8,B,2024-04-18_10h14.42.139,attentional_competition_task,2022.2.4,144.01025331304734,
positions.xlsx,positions_test.xlsx,positions_test_new.xlsx,stimuli.xlsx,stimuli_new.xlsx,stimuli/Social2.png,stimuli/Social1.png,stimuli/Nonsocial2.png,stimuli/Nonsocial1.png,stimuli/Social4.png,stimuli/Social3.png,stimuli/Nonsocial4.png,stimuli/Nonsocial3.png,,,"(-0.7, -0.5)",cs_pos_s,"(-0.7, 0.5)",cs_pos_ns,"(0.7, -0.5)",cs_neg_s,"(0.7, 0.5)",cs_neg_ns,0,0,0,0,,,,,,,,,,,,,,,,,,,,,1,12,36,10,,,,,,,,,,,,,,,,,,,,,,,,,,,291,reward,,,,,,1407.0221505002119,1407.0221505002119,1407.0221505002119,1407.0221505002119,0,,,1,0.030131000094115734,0.32788809994235635,0,,,0,,,1407.848493500147,1407.848493500147,1407.848493500147,1407.848493500147,8,B,2024-04-18_10h14.42.139,attentional_competition_task,2022.2.4,144.01025331304734,
positions.xlsx,positions_test.xlsx,positions_test_new.xlsx,stimuli.xlsx,stimuli_new.xlsx,stimuli/Social2.png,stimuli/Social1.png,stimuli/Nonsocial2.png,stimuli/Nonsocial1.png,stimuli/Social4.png,stimuli/Social3.png,stimuli/Nonsocial4.png,stimuli/Nonsocial3.png,,,"(-0.7, -0.5)",cs_pos_s,"(-0.7, 0.5)",cs_pos_ns,"(0.7, -0.5)",cs_neg_ns,"(0.7, 0.5)",cs_neg_s,0,0,0,0,,,,,,,,,,,,,,,,,,,,,1,13,37,11,,,,,,,,,,,,,,,,,,,,,,,,,,,300,reward,,,,,,1415.2162911002524,1415.2162911002524,1415.2162911002524,1415.2162911002524,1,0.02251269994303584,0.09346089977771044,0,,,0,,,0,,,1416.1606598002836,1416.1606598002836,1416.1606598002836,1416.1606598002836,8,B,2024-04-18_10h14.42.139,attentional_competition_task,2022.2.4,144.01025331304734,
positions.xlsx,positions_test.xlsx,positions_test_new.xlsx,stimuli.xlsx,stimuli_new.xlsx,stimuli/Social2.png,stimuli/Social1.png,stimuli/Nonsocial2.png,stimuli/Nonsocial1.png,stimuli/Social4.png,stimuli/Social3.png,stimuli/Nonsocial4.png,stimuli/Nonsocial3.png,,,"(-0.7, -0.5)",cs_neg_s,"(-0.7, 0.5)",cs_neg_ns,"(0.7, -0.5)",cs_pos_ns,"(0.7, 0.5)",cs_pos_s,0,0,0,0,,,,,,,,,,,,,,,,,,,,,1,14,38,3,,,,,,,,,,,,,,,,,,,,,,,,,,,309,reward,,,,,,1423.3548425002955,1423.3548425002955,1423.3548425002955,1423.3548425002955,0,,,0,,,0,,,0,,,1424.2644977001473,1424.2644977001473,1424.2644977001473,1424.2644977001473,8,B,2024-04-18_10h14.42.139,attentional_competition_task,2022.2.4,144.01025331304734,
positions.xlsx,positions_test.xlsx,positions_test_new.xlsx,stimuli.xlsx,stimuli_new.xlsx,stimuli/Social2.png,stimuli/Social1.png,stimuli/Nonsocial2.png,stimuli/Nonsocial1.png,stimuli/Social4.png,stimuli/Social3.png,stimuli/Nonsocial4.png,stimuli/Nonsocial3.png,,,"(-0.7, -0.5)",cs_pos_s,"(-0.7, 0.5)",cs_neg_s,"(0.7, -0.5)",cs_pos_ns,"(0.7, 0.5)",cs_neg_ns,0,0,0,0,,,,,,,,,,,,,,,,,,,,,1,15,39,7,,,,,,,,,,,,,,,,,,,,,,,,,,,318,reward,,,,,,1432.1599884000607,1432.1599884000607,1432.1599884000607,1432.1599884000607,1,0.02651229966431856,0.0703440997749567,0,,,0,,,0,,,1432.9933456000872,1432.9933456000872,1432.9933456000872,1432.9933456000872,8,B,2024-04-18_10h14.42.139,attentional_competition_task,2022.2.4,144.01025331304734,
positions.xlsx,positions_test.xlsx,positions_test_new.xlsx,stimuli.xlsx,stimuli_new.xlsx,stimuli/Social2.png,stimuli/Social1.png,stimuli/Nonsocial2.png,stimuli/Nonsocial1.png,stimuli/Social4.png,stimuli/Social3.png,stimuli/Nonsocial4.png,stimuli/Nonsocial3.png,,,"(-0.7, -0.5)",cs_pos_s,"(-0.7, 0.5)",cs_neg_s,"(0.7, -0.5)",cs_neg_ns,"(0.7, 0.5)",cs_pos_ns,0,0,0,0,,,,,,,,,,,,,,,,,,,,,1,16,40,6,,,,,,,,,,,,,,,,,,,,,,,,,,,321,reward,,,,,,1440.9999546003528,1440.9999546003528,1440.9999546003528,1440.9999546003528,1,0.028057700023055077,0.16768829990178347,0,,,0,,,0,,,1441.6735325003974,1441.6735325003974,1441.6735325003974,1441.6735325003974,8,B,2024-04-18_10h14.42.139,attentional_competition_task,2022.2.4,144.01025331304734,
positions.xlsx,positions_test.xlsx,positions_test_new.xlsx,stimuli.xlsx,stimuli_new.xlsx,stimuli/Social2.png,stimuli/Social1.png,stimuli/Nonsocial2.png,stimuli/Nonsocial1.png,stimuli/Social4.png,stimuli/Social3.png,stimuli/Nonsocial4.png,stimuli/Nonsocial3.png,,,"(-0.7, -0.5)",cs_pos_ns,"(-0.7, 0.5)",cs_neg_s,"(0.7, -0.5)",cs_neg_ns,"(0.7, 0.5)",cs_pos_s,0,0,0,0,,,,,,,,,,,,,,,,,,,,,1,17,41,23,,,,,,,,,,,,,,,,,,,,,,,,,,,330,reward,,,,,,1449.7843492003158,1449.7843492003158,1449.7843492003158,1449.7843492003158,1,0.024440099950879812,0.1695952001027763,0,,,0,,,0,,,1450.457909299992,1450.457909299992,1450.457909299992,1450.457909299992,8,B,2024-04-18_10h14.42.139,attentional_competition_task,2022.2.4,144.01025331304734,
positions.xlsx,positions_test.xlsx,positions_test_new.xlsx,stimuli.xlsx,stimuli_new.xlsx,stimuli/Social2.png,stimuli/Social1.png,stimuli/Nonsocial2.png,stimuli/Nonsocial1.png,stimuli/Social4.png,stimuli/Social3.png,stimuli/Nonsocial4.png,stimuli/Nonsocial3.png,,,"(-0.7, -0.5)",cs_neg_ns,"(-0.7, 0.5)",cs_pos_s,"(0.7, -0.5)",cs_pos_ns,"(0.7, 0.5)",cs_neg_s,0,0,0,0,,,,,,,,,,,,,,,,,,,,,1,18,42,13,,,,,,,,,,,,,,,,,,,,,,,,,,,336,reward,,,,,,1458.1520481002517,1458.1520481002517,1458.1520481002517,1458.1520481002517,0,,,1,0.02900759968906641,0.02901139995083213,0,,,0,,,1458.1520481002517,1458.1520481002517,1458.1520481002517,1458.1520481002517,8,B,2024-04-18_10h14.42.139,attentional_competition_task,2022.2.4,144.01025331304734,
positions.xlsx,positions_test.xlsx,positions_test_new.xlsx,stimuli.xlsx,stimuli_new.xlsx,stimuli/Social2.png,stimuli/Social1.png,stimuli/Nonsocial2.png,stimuli/Nonsocial1.png,stimuli/Social4.png,stimuli/Social3.png,stimuli/Nonsocial4.png,stimuli/Nonsocial3.png,,,"(-0.7, -0.5)",cs_pos_s,"(-0.7, 0.5)",cs_neg_ns,"(0.7, -0.5)",cs_pos_ns,"(0.7, 0.5)",cs_neg_s,0,0,0,0,,,,,,,,,,,,,,,,,,,,,1,19,43,9,,,,,,,,,,,,,,,,,,,,,,,,,,,345,reward,,,,,,1466.0197904002853,1466.0197904002853,1466.0197904002853,1466.0197904002853,1,0.025498300325125456,0.41315990034490824,0,,,0,,,0,,,1466.9364167000167,1466.9364167000167,1466.9364167000167,1466.9364167000167,8,B,2024-04-18_10h14.42.139,attentional_competition_task,2022.2.4,144.01025331304734,
positions.xlsx,positions_test.xlsx,positions_test_new.xlsx,stimuli.xlsx,stimuli_new.xlsx,stimuli/Social2.png,stimuli/Social1.png,stimuli/Nonsocial2.png,stimuli/Nonsocial1.png,stimuli/Social4.png,stimuli/Social3.png,stimuli/Nonsocial4.png,stimuli/Nonsocial3.png,,,"(-0.7, -0.5)",cs_neg_ns,"(-0.7, 0.5)",cs_pos_ns,"(0.7, -0.5)",cs_neg_s,"(0.7, 0.5)",cs_pos_s,0,0,0,0,,,,,,,,,,,,,,,,,,,,,1,20,44,17,,,,,,,,,,,,,,,,,,,,,,,,,,,342,loss,,,,,,1475.0749955000356,1475.0749955000356,1475.0749955000356,1475.0749955000356,0,,,0,,,1,0.029736900236457586,0.20348310004919767,0,,,1475.9152967003174,1475.9152967003174,1475.9152967003174,1475.9152967003174,8,B,2024-04-18_10h14.42.139,attentional_competition_task,2022.2.4,144.01025331304734,
positions.xlsx,positions_test.xlsx,positions_test_new.xlsx,stimuli.xlsx,stimuli_new.xlsx,stimuli/Social2.png,stimuli/Social1.png,stimuli/Nonsocial2.png,stimuli/Nonsocial1.png,stimuli/Social4.png,stimuli/Social3.png,stimuli/Nonsocial4.png,stimuli/Nonsocial3.png,,,"(-0.7, -0.5)",cs_neg_s,"(-0.7, 0.5)",cs_neg_ns,"(0.7, -0.5)",cs_pos_s,"(0.7, 0.5)",cs_pos_ns,0,0,0,0,,,,,,,,,,,,,,,,,,,,,1,21,45,2,,,,,,,,,,,,,,,,,,,,,,,,,,,351,reward,,,,,,1483.7968546003103,1483.7968546003103,1483.7968546003103,1483.7968546003103,0,,,0,,,0,,,0,,,1484.3593725999817,1484.3593725999817,1484.3593725999817,1484.3593725999817,8,B,2024-04-18_10h14.42.139,attentional_competition_task,2022.2.4,144.01025331304734,
positions.xlsx,positions_test.xlsx,positions_test_new.xlsx,stimuli.xlsx,stimuli_new.xlsx,stimuli/Social2.png,stimuli/Social1.png,stimuli/Nonsocial2.png,stimuli/Nonsocial1.png,stimuli/Social4.png,stimuli/Social3.png,stimuli/Nonsocial4.png,stimuli/Nonsocial3.png,,,"(-0.7, -0.5)",cs_pos_ns,"(-0.7, 0.5)",cs_neg_ns,"(0.7, -0.5)",cs_neg_s,"(0.7, 0.5)",cs_pos_s,0,0,0,0,,,,,,,,,,,,,,,,,,,,,1,22,46,21,,,,,,,,,,,,,,,,,,,,,,,,,,,360,reward,,,,,,1491.4979672003537,1491.4979672003537,1491.4979672003537,1491.4979672003537,0,,,0,,,0,,,1,0.024729300290346146,0.32997839991003275,1492.331269300077,1492.331269300077,1492.331269300077,1492.331269300077,8,B,2024-04-18_10h14.42.139,attentional_competition_task,2022.2.4,144.01025331304734,
positions.xlsx,positions_test.xlsx,positions_test_new.xlsx,stimuli.xlsx,stimuli_new.xlsx,stimuli/Social2.png,stimuli/Social1.png,stimuli/Nonsocial2.png,stimuli/Nonsocial1.png,stimuli/Social4.png,stimuli/Social3.png,stimuli/Nonsocial4.png,stimuli/Nonsocial3.png,,,"(-0.7, -0.5)",cs_neg_s,"(-0.7, 0.5)",cs_pos_s,"(0.7, -0.5)",cs_neg_ns,"(0.7, 0.5)",cs_pos_ns,0,0,0,0,,,,,,,,,,,,,,,,,,,,,1,23,47,0,,,,,,,,,,,,,,,,,,,,,,,,,,,363,reward,,,,,,1500.0115379001945,1500.0115379001945,1500.0115379001945,1500.0115379001945,0,,,1,0.03785429988056421,0.04478870006278157,0,,,0,,,1500.0670833000913,1500.0670833000913,1500.0670833000913,1500.0670833000913,8,B,2024-04-18_10h14.42.139,attentional_competition_task,2022.2.4,144.01025331304734,
positions.xlsx,positions_test.xlsx,positions_test_new.xlsx,stimuli.xlsx,stimuli_new.xlsx,stimuli/Social2.png,stimuli/Social1.png,stimuli/Nonsocial2.png,stimuli/Nonsocial1.png,stimuli/Social4.png,stimuli/Social3.png,stimuli/Nonsocial4.png,stimuli/Nonsocial3.png,,,"(-0.7, -0.5)",cs_neg_s,"(-0.7, 0.5)",cs_pos_s,"(0.7, -0.5)",cs_neg_ns_new,"(0.7, 0.5)",cs_pos_ns,0,0,0,0,,,,,,,,,,,,,,,,,,,,,,,,,,,,,0,0,0,20,0,0,0,0,,,,,,,,,,,,,,,366,reward,,,,,,1507.3723527002148,1507.3723527002148,1507.3723527002148,1507.3723527002148,0,,,0,,,0,,,1,0.5443867999128997,0.5443901000544429,1507.92095900001,1507.92095900001,1507.92095900001,1507.92095900001,8,B,2024-04-18_10h14.42.139,attentional_competition_task,2022.2.4,144.01025331304734,
positions.xlsx,positions_test.xlsx,positions_test_new.xlsx,stimuli.xlsx,stimuli_new.xlsx,stimuli/Social2.png,stimuli/Social1.png,stimuli/Nonsocial2.png,stimuli/Nonsocial1.png,stimuli/Social4.png,stimuli/Social3.png,stimuli/Nonsocial4.png,stimuli/Nonsocial3.png,,,"(-0.7, -0.5)",cs_neg_s,"(-0.7, 0.5)",cs_pos_s,"(0.7, -0.5)",cs_neg_ns_new,"(0.7, 0.5)",cs_pos_ns,0,0,0,0,,,,,,,,,,,,,,,,,,,,,,,,,,,,,0,0,0,20,1,0,1,0,,,,,,,,,,,,,,,369,reward,,,,,,1508.4486433002166,1508.4486433002166,1508.4486433002166,1508.4486433002166,0,,,1,0.028847599867731333,0.02885130001232028,0,,,0,,,1508.4486433002166,1508.4486433002166,1508.4486433002166,1508.4486433002166,8,B,2024-04-18_10h14.42.139,attentional_competition_task,2022.2.4,144.01025331304734,
positions.xlsx,positions_test.xlsx,positions_test_new.xlsx,stimuli.xlsx,stimuli_new.xlsx,stimuli/Social2.png,stimuli/Social1.png,stimuli/Nonsocial2.png,stimuli/Nonsocial1.png,stimuli/Social4.png,stimuli/Social3.png,stimuli/Nonsocial4.png,stimuli/Nonsocial3.png,,,"(-0.7, -0.5)",cs_neg_s,"(-0.7, 0.5)",cs_pos_s,"(0.7, -0.5)",cs_neg_ns_new,"(0.7, 0.5)",cs_pos_ns,0,0,0,0,,,,,,,,,,,,,,,,,,,,,,,,,,,,,0,0,0,20,2,0,2,0,,,,,,,,,,,,,,,366,loss,,,,,,1508.96258520009,1508.96258520009,1508.96258520009,1508.96258520009,0,,,1,0.03276959992945194,0.2876800000667572,0,,,0,,,1509.2680985000916,1509.2680985000916,1509.2680985000916,1509.2680985000916,8,B,2024-04-18_10h14.42.139,attentional_competition_task,2022.2.4,144.01025331304734,
positions.xlsx,positions_test.xlsx,positions_test_new.xlsx,stimuli.xlsx,stimuli_new.xlsx,stimuli/Social2.png,stimuli/Social1.png,stimuli/Nonsocial2.png,stimuli/Nonsocial1.png,stimuli/Social4.png,stimuli/Social3.png,stimuli/Nonsocial4.png,stimuli/Nonsocial3.png,,,"(-0.7, -0.5)",cs_neg_s,"(-0.7, 0.5)",cs_pos_s,"(0.7, -0.5)",cs_neg_ns_new,"(0.7, 0.5)",cs_pos_ns,0,0,0,0,,,,,,,,,,,,,,,,,,,,,,,,,,,,,0,0,0,20,,,,,,,,,,,,,,,,,,,,,,,,,,,,,,,,,,,,,,,,,,,,,,8,B,2024-04-18_10h14.42.139,attentional_competition_task,2022.2.4,144.01025331304734,
positions.xlsx,positions_test.xlsx,positions_test_new.xlsx,stimuli.xlsx,stimuli_new.xlsx,stimuli/Social2.png,stimuli/Social1.png,stimuli/Nonsocial2.png,stimuli/Nonsocial1.png,stimuli/Social4.png,stimuli/Social3.png,stimuli/Nonsocial4.png,stimuli/Nonsocial3.png,,,"(-0.7, -0.5)",cs_pos_s,"(-0.7, 0.5)",cs_pos_ns,"(0.7, -0.5)",cs_neg_ns,"(0.7, 0.5)",cs_neg_s_new,0,0,0,0,,,,,,,,,,,,,,,,,,,,,,,,,,,,,0,1,1,10,0,0,0,0,,,,,,,,,,,,,,,369,reward,,,,,,1515.837255500257,1515.837255500257,1515.837255500257,1515.837255500257,0,,,1,0.5376272001303732,0.5439968002028763,0,,,0,,,1516.385857500136,1516.385857500136,1516.385857500136,1516.385857500136,8,B,2024-04-18_10h14.42.139,attentional_competition_task,2022.2.4,144.01025331304734,
positions.xlsx,positions_test.xlsx,positions_test_new.xlsx,stimuli.xlsx,stimuli_new.xlsx,stimuli/Social2.png,stimuli/Social1.png,stimuli/Nonsocial2.png,stimuli/Nonsocial1.png,stimuli/Social4.png,stimuli/Social3.png,stimuli/Nonsocial4.png,stimuli/Nonsocial3.png,,,"(-0.7, -0.5)",cs_pos_s,"(-0.7, 0.5)",cs_pos_ns,"(0.7, -0.5)",cs_neg_ns,"(0.7, 0.5)",cs_neg_s_new,0,0,0,0,,,,,,,,,,,,,,,,,,,,,,,,,,,,,0,1,1,10,1,0,1,0,,,,,,,,,,,,,,,366,loss,,,,,,1516.8927931999788,1516.8927931999788,1516.8927931999788,1516.8927931999788,0,,,0,,,0,,,1,0.08588739996775985,0.08589099999517202,1516.9761246000417,1516.9761246000417,1516.9761246000417,1516.9761246000417,8,B,2024-04-18_10h14.42.139,attentional_competition_task,2022.2.4,144.01025331304734,
positions.xlsx,positions_test.xlsx,positions_test_new.xlsx,stimuli.xlsx,stimuli_new.xlsx,stimuli/Social2.png,stimuli/Social1.png,stimuli/Nonsocial2.png,stimuli/Nonsocial1.png,stimuli/Social4.png,stimuli/Social3.png,stimuli/Nonsocial4.png,stimuli/Nonsocial3.png,,,"(-0.7, -0.5)",cs_pos_s,"(-0.7, 0.5)",cs_pos_ns,"(0.7, -0.5)",cs_neg_ns,"(0.7, 0.5)",cs_neg_s_new,0,0,0,0,,,,,,,,,,,,,,,,,,,,,,,,,,,,,0,1,1,10,2,0,2,0,,,,,,,,,,,,,,,369,reward,,,,,,1517.4760929001495,1517.4760929001495,1517.4760929001495,1517.4760929001495,1,0.058436600025743246,0.05844009993597865,0,,,0,,,0,,,1517.5386123000644,1517.5386123000644,1517.5386123000644,1517.5386123000644,8,B,2024-04-18_10h14.42.139,attentional_competition_task,2022.2.4,144.01025331304734,
positions.xlsx,positions_test.xlsx,positions_test_new.xlsx,stimuli.xlsx,stimuli_new.xlsx,stimuli/Social2.png,stimuli/Social1.png,stimuli/Nonsocial2.png,stimuli/Nonsocial1.png,stimuli/Social4.png,stimuli/Social3.png,stimuli/Nonsocial4.png,stimuli/Nonsocial3.png,,,"(-0.7, -0.5)",cs_pos_s,"(-0.7, 0.5)",cs_pos_ns,"(0.7, -0.5)",cs_neg_ns,"(0.7, 0.5)",cs_neg_s_new,0,0,0,0,,,,,,,,,,,,,,,,,,,,,,,,,,,,,0,1,1,10,,,,,,,,,,,,,,,,,,,,,,,,,,,,,,,,,,,,,,,,,,,,,,8,B,2024-04-18_10h14.42.139,attentional_competition_task,2022.2.4,144.01025331304734,
positions.xlsx,positions_test.xlsx,positions_test_new.xlsx,stimuli.xlsx,stimuli_new.xlsx,stimuli/Social2.png,stimuli/Social1.png,stimuli/Nonsocial2.png,stimuli/Nonsocial1.png,stimuli/Social4.png,stimuli/Social3.png,stimuli/Nonsocial4.png,stimuli/Nonsocial3.png,,,"(-0.7, -0.5)",cs_pos_ns_new,"(-0.7, 0.5)",cs_pos_s,"(0.7, -0.5)",cs_neg_s,"(0.7, 0.5)",cs_neg_ns,0,0,0,0,,,,,,,,,,,,,,,,,,,,,,,,,,,,,0,2,2,40,0,0,0,0,,,,,,,,,,,,,,,372,reward,,,,,,1523.961916200351,1523.961916200351,1523.961916200351,1523.961916200351,0,,,1,0.8987389001995325,0.8987553999759257,0,,,0,,,1524.8646691003814,1524.8646691003814,1524.8646691003814,1524.8646691003814,8,B,2024-04-18_10h14.42.139,attentional_competition_task,2022.2.4,144.01025331304734,
positions.xlsx,positions_test.xlsx,positions_test_new.xlsx,stimuli.xlsx,stimuli_new.xlsx,stimuli/Social2.png,stimuli/Social1.png,stimuli/Nonsocial2.png,stimuli/Nonsocial1.png,stimuli/Social4.png,stimuli/Social3.png,stimuli/Nonsocial4.png,stimuli/Nonsocial3.png,,,"(-0.7, -0.5)",cs_pos_ns_new,"(-0.7, 0.5)",cs_pos_s,"(0.7, -0.5)",cs_neg_s,"(0.7, 0.5)",cs_neg_ns,0,0,0,0,,,,,,,,,,,,,,,,,,,,,,,,,,,,,0,2,2,40,1,0,1,0,,,,,,,,,,,,,,,369,loss,,,,,,1525.3647513999604,1525.3647513999604,1525.3647513999604,1525.3647513999604,0,,,1,0.028274800162762403,0.1894229999743402,0,,,1,0.2524557001888752,0.2594991000369191,1525.628613400273,1525.628613400273,1525.628613400273,1525.628613400273,8,B,2024-04-18_10h14.42.139,attentional_competition_task,2022.2.4,144.01025331304734,
positions.xlsx,positions_test.xlsx,positions_test_new.xlsx,stimuli.xlsx,stimuli_new.xlsx,stimuli/Social2.png,stimuli/Social1.png,stimuli/Nonsocial2.png,stimuli/Nonsocial1.png,stimuli/Social4.png,stimuli/Social3.png,stimuli/Nonsocial4.png,stimuli/Nonsocial3.png,,,"(-0.7, -0.5)",cs_pos_ns_new,"(-0.7, 0.5)",cs_pos_s,"(0.7, -0.5)",cs_neg_s,"(0.7, 0.5)",cs_neg_ns,0,0,0,0,,,,,,,,,,,,,,,,,,,,,,,,,,,,,0,2,2,40,,,,,,,,,,,,,,,,,,,,,,,,,,,,,,,,,,,,,,,,,,,,,,8,B,2024-04-18_10h14.42.139,attentional_competition_task,2022.2.4,144.01025331304734,
positions.xlsx,positions_test.xlsx,positions_test_new.xlsx,stimuli.xlsx,stimuli_new.xlsx,stimuli/Social2.png,stimuli/Social1.png,stimuli/Nonsocial2.png,stimuli/Nonsocial1.png,stimuli/Social4.png,stimuli/Social3.png,stimuli/Nonsocial4.png,stimuli/Nonsocial3.png,,,"(-0.7, -0.5)",cs_neg_ns,"(-0.7, 0.5)",cs_pos_s_new,"(0.7, -0.5)",cs_neg_s,"(0.7, 0.5)",cs_pos_ns,0,0,0,0,,,,,,,,,,,,,,,,,,,,,,,,,,,,,0,3,3,36,0,0,0,0,,,,,,,,,,,,,,,372,reward,,,,,,1532.2602002001368,1532.2602002001368,1532.2602002001368,1532.2602002001368,0,,,1,1.5232921000570059,1.5232955999672413,0,,,0,,,1533.7879562000744,1533.7879562000744,1533.7879562000744,1533.7879562000744,8,B,2024-04-18_10h14.42.139,attentional_competition_task,2022.2.4,144.01025331304734,
positions.xlsx,positions_test.xlsx,positions_test_new.xlsx,stimuli.xlsx,stimuli_new.xlsx,stimuli/Social2.png,stimuli/Social1.png,stimuli/Nonsocial2.png,stimuli/Nonsocial1.png,stimuli/Social4.png,stimuli/Social3.png,stimuli/Nonsocial4.png,stimuli/Nonsocial3.png,,,"(-0.7, -0.5)",cs_neg_ns,"(-0.7, 0.5)",cs_pos_s_new,"(0.7, -0.5)",cs_neg_s,"(0.7, 0.5)",cs_pos_ns,0,0,0,0,,,,,,,,,,,,,,,,,,,,,,,,,,,,,0,3,3,36,,,,,,,,,,,,,,,,,,,,,,,,,,,,,,,,,,,,,,,,,,,,,,8,B,2024-04-18_10h14.42.139,attentional_competition_task,2022.2.4,144.01025331304734,
positions.xlsx,positions_test.xlsx,positions_test_new.xlsx,stimuli.xlsx,stimuli_new.xlsx,stimuli/Social2.png,stimuli/Social1.png,stimuli/Nonsocial2.png,stimuli/Nonsocial1.png,stimuli/Social4.png,stimuli/Social3.png,stimuli/Nonsocial4.png,stimuli/Nonsocial3.png,,,"(-0.7, -0.5)",cs_neg_ns,"(-0.7, 0.5)",cs_pos_s,"(0.7, -0.5)",cs_pos_ns_new,"(0.7, 0.5)",cs_neg_s,0,0,0,0,,,,,,,,,,,,,,,,,,,,,,,,,,,,,0,4,4,45,0,0,0,0,,,,,,,,,,,,,,,369,loss,,,,,,1540.4404640002176,1540.4404640002176,1540.4404640002176,1540.4404640002176,0,,,0,,,0,,,1,0.6149038998410106,0.6149078998714685,1541.0654192999937,1541.0654192999937,1541.0654192999937,1541.0654192999937,8,B,2024-04-18_10h14.42.139,attentional_competition_task,2022.2.4,144.01025331304734,
positions.xlsx,positions_test.xlsx,positions_test_new.xlsx,stimuli.xlsx,stimuli_new.xlsx,stimuli/Social2.png,stimuli/Social1.png,stimuli/Nonsocial2.png,stimuli/Nonsocial1.png,stimuli/Social4.png,stimuli/Social3.png,stimuli/Nonsocial4.png,stimuli/Nonsocial3.png,,,"(-0.7, -0.5)",cs_neg_ns,"(-0.7, 0.5)",cs_pos_s,"(0.7, -0.5)",cs_pos_ns_new,"(0.7, 0.5)",cs_neg_s,0,0,0,0,,,,,,,,,,,,,,,,,,,,,,,,,,,,,0,4,4,45,1,0,1,0,,,,,,,,,,,,,,,372,reward,,,,,,1541.5932189002633,1541.5932189002633,1541.5932189002633,1541.5932189002633,0,,,1,0.027603700291365385,0.027607900090515614,0,,,0,,,1541.5932189002633,1541.5932189002633,1541.5932189002633,1541.5932189002633,8,B,2024-04-18_10h14.42.139,attentional_competition_task,2022.2.4,144.01025331304734,
positions.xlsx,positions_test.xlsx,positions_test_new.xlsx,stimuli.xlsx,stimuli_new.xlsx,stimuli/Social2.png,stimuli/Social1.png,stimuli/Nonsocial2.png,stimuli/Nonsocial1.png,stimuli/Social4.png,stimuli/Social3.png,stimuli/Nonsocial4.png,stimuli/Nonsocial3.png,,,"(-0.7, -0.5)",cs_neg_ns,"(-0.7, 0.5)",cs_pos_s,"(0.7, -0.5)",cs_pos_ns_new,"(0.7, 0.5)",cs_neg_s,0,0,0,0,,,,,,,,,,,,,,,,,,,,,,,,,,,,,0,4,4,45,2,0,2,0,,,,,,,,,,,,,,,369,loss,,,,,,1542.1278694001958,1542.1278694001958,1542.1278694001958,1542.1278694001958,1,0.023627399932593107,0.023631499614566565,0,,,0,,,0,,,1542.1278694001958,1542.1278694001958,1542.1278694001958,1542.1278694001958,8,B,2024-04-18_10h14.42.139,attentional_competition_task,2022.2.4,144.01025331304734,
positions.xlsx,positions_test.xlsx,positions_test_new.xlsx,stimuli.xlsx,stimuli_new.xlsx,stimuli/Social2.png,stimuli/Social1.png,stimuli/Nonsocial2.png,stimuli/Nonsocial1.png,stimuli/Social4.png,stimuli/Social3.png,stimuli/Nonsocial4.png,stimuli/Nonsocial3.png,,,"(-0.7, -0.5)",cs_neg_ns,"(-0.7, 0.5)",cs_pos_s,"(0.7, -0.5)",cs_pos_ns_new,"(0.7, 0.5)",cs_neg_s,0,0,0,0,,,,,,,,,,,,,,,,,,,,,,,,,,,,,0,4,4,45,,,,,,,,,,,,,,,,,,,,,,,,,,,,,,,,,,,,,,,,,,,,,,8,B,2024-04-18_10h14.42.139,attentional_competition_task,2022.2.4,144.01025331304734,
positions.xlsx,positions_test.xlsx,positions_test_new.xlsx,stimuli.xlsx,stimuli_new.xlsx,stimuli/Social2.png,stimuli/Social1.png,stimuli/Nonsocial2.png,stimuli/Nonsocial1.png,stimuli/Social4.png,stimuli/Social3.png,stimuli/Nonsocial4.png,stimuli/Nonsocial3.png,,,"(-0.7, -0.5)",cs_neg_s,"(-0.7, 0.5)",cs_neg_ns_new,"(0.7, -0.5)",cs_pos_s,"(0.7, 0.5)",cs_pos_ns,0,0,0,0,,,,,,,,,,,,,,,,,,,,,,,,,,,,,0,5,5,22,0,0,0,0,,,,,,,,,,,,,,,372,reward,,,,,,1548.9331832001917,1548.9331832001917,1548.9331832001917,1548.9331832001917,0,,,0,,,0,,,1,0.8708868999965489,0.8708906001411378,1549.808244800195,1549.808244800195,1549.808244800195,1549.808244800195,8,B,2024-04-18_10h14.42.139,attentional_competition_task,2022.2.4,144.01025331304734,
positions.xlsx,positions_test.xlsx,positions_test_new.xlsx,stimuli.xlsx,stimuli_new.xlsx,stimuli/Social2.png,stimuli/Social1.png,stimuli/Nonsocial2.png,stimuli/Nonsocial1.png,stimuli/Social4.png,stimuli/Social3.png,stimuli/Nonsocial4.png,stimuli/Nonsocial3.png,,,"(-0.7, -0.5)",cs_neg_s,"(-0.7, 0.5)",cs_neg_ns_new,"(0.7, -0.5)",cs_pos_s,"(0.7, 0.5)",cs_pos_ns,0,0,0,0,,,,,,,,,,,,,,,,,,,,,,,,,,,,,0,5,5,22,1,0,1,0,,,,,,,,,,,,,,,375,reward,,,,,,1550.335925000254,1550.335925000254,1550.335925000254,1550.335925000254,0,,,0,,,1,0.030166300013661385,0.03016990004107356,0,,,1550.335925000254,1550.335925000254,1550.335925000254,1550.335925000254,8,B,2024-04-18_10h14.42.139,attentional_competition_task,2022.2.4,144.01025331304734,
positions.xlsx,positions_test.xlsx,positions_test_new.xlsx,stimuli.xlsx,stimuli_new.xlsx,stimuli/Social2.png,stimuli/Social1.png,stimuli/Nonsocial2.png,stimuli/Nonsocial1.png,stimuli/Social4.png,stimuli/Social3.png,stimuli/Nonsocial4.png,stimuli/Nonsocial3.png,,,"(-0.7, -0.5)",cs_neg_s,"(-0.7, 0.5)",cs_neg_ns_new,"(0.7, -0.5)",cs_pos_s,"(0.7, 0.5)",cs_pos_ns,0,0,0,0,,,,,,,,,,,,,,,,,,,,,,,,,,,,,0,5,5,22,2,0,2,0,,,,,,,,,,,,,,,378,reward,,,,,,1550.8498944002204,1550.8498944002204,1550.8498944002204,1550.8498944002204,0,,,0,,,0,,,0,,,1551.447006800212,1551.447006800212,1551.447006800212,1551.447006800212,8,B,2024-04-18_10h14.42.139,attentional_competition_task,2022.2.4,144.01025331304734,
positions.xlsx,positions_test.xlsx,positions_test_new.xlsx,stimuli.xlsx,stimuli_new.xlsx,stimuli/Social2.png,stimuli/Social1.png,stimuli/Nonsocial2.png,stimuli/Nonsocial1.png,stimuli/Social4.png,stimuli/Social3.png,stimuli/Nonsocial4.png,stimuli/Nonsocial3.png,,,"(-0.7, -0.5)",cs_neg_s,"(-0.7, 0.5)",cs_neg_ns_new,"(0.7, -0.5)",cs_pos_s,"(0.7, 0.5)",cs_pos_ns,0,0,0,0,,,,,,,,,,,,,,,,,,,,,,,,,,,,,0,5,5,22,,,,,,,,,,,,,,,,,,,,,,,,,,,,,,,,,,,,,,,,,,,,,,8,B,2024-04-18_10h14.42.139,attentional_competition_task,2022.2.4,144.01025331304734,
positions.xlsx,positions_test.xlsx,positions_test_new.xlsx,stimuli.xlsx,stimuli_new.xlsx,stimuli/Social2.png,stimuli/Social1.png,stimuli/Nonsocial2.png,stimuli/Nonsocial1.png,stimuli/Social4.png,stimuli/Social3.png,stimuli/Nonsocial4.png,stimuli/Nonsocial3.png,,,"(-0.7, -0.5)",cs_neg_s,"(-0.7, 0.5)",cs_pos_s_new,"(0.7, -0.5)",cs_pos_ns,"(0.7, 0.5)",cs_neg_ns,0,0,0,0,,,,,,,,,,,,,,,,,,,,,,,,,,,,,0,6,6,30,0,0,0,0,,,,,,,,,,,,,,,381,reward,,,,,,1557.8702916000038,1557.8702916000038,1557.8702916000038,1557.8702916000038,0,,,0,,,1,0.7281216001138091,0.7281263000331819,0,,,1558.606352900155,1558.606352900155,1558.606352900155,1558.606352900155,8,B,2024-04-18_10h14.42.139,attentional_competition_task,2022.2.4,144.01025331304734,
positions.xlsx,positions_test.xlsx,positions_test_new.xlsx,stimuli.xlsx,stimuli_new.xlsx,stimuli/Social2.png,stimuli/Social1.png,stimuli/Nonsocial2.png,stimuli/Nonsocial1.png,stimuli/Social4.png,stimuli/Social3.png,stimuli/Nonsocial4.png,stimuli/Nonsocial3.png,,,"(-0.7, -0.5)",cs_neg_s,"(-0.7, 0.5)",cs_pos_s_new,"(0.7, -0.5)",cs_pos_ns,"(0.7, 0.5)",cs_neg_ns,0,0,0,0,,,,,,,,,,,,,,,,,,,,,,,,,,,,,0,6,6,30,1,0,1,0,,,,,,,,,,,,,,,384,reward,,,,,,1559.1063954001293,1559.1063954001293,1559.1063954001293,1559.1063954001293,0,,,0,,,0,,,0,,,1560.3841230003163,1560.3841230003163,1560.3841230003163,1560.3841230003163,8,B,2024-04-18_10h14.42.139,attentional_competition_task,2022.2.4,144.01025331304734,
positions.xlsx,positions_test.xlsx,positions_test_new.xlsx,stimuli.xlsx,stimuli_new.xlsx,stimuli/Social2.png,stimuli/Social1.png,stimuli/Nonsocial2.png,stimuli/Nonsocial1.png,stimuli/Social4.png,stimuli/Social3.png,stimuli/Nonsocial4.png,stimuli/Nonsocial3.png,,,"(-0.7, -0.5)",cs_neg_s,"(-0.7, 0.5)",cs_pos_s_new,"(0.7, -0.5)",cs_pos_ns,"(0.7, 0.5)",cs_neg_ns,0,0,0,0,,,,,,,,,,,,,,,,,,,,,,,,,,,,,0,6,6,30,,,,,,,,,,,,,,,,,,,,,,,,,,,,,,,,,,,,,,,,,,,,,,8,B,2024-04-18_10h14.42.139,attentional_competition_task,2022.2.4,144.01025331304734,
positions.xlsx,positions_test.xlsx,positions_test_new.xlsx,stimuli.xlsx,stimuli_new.xlsx,stimuli/Social2.png,stimuli/Social1.png,stimuli/Nonsocial2.png,stimuli/Nonsocial1.png,stimuli/Social4.png,stimuli/Social3.png,stimuli/Nonsocial4.png,stimuli/Nonsocial3.png,,,"(-0.7, -0.5)",cs_neg_s_new,"(-0.7, 0.5)",cs_pos_ns,"(0.7, -0.5)",cs_pos_s,"(0.7, 0.5)",cs_neg_ns,0,0,0,0,,,,,,,,,,,,,,,,,,,,,,,,,,,,,0,7,7,17,0,0,0,0,,,,,,,,,,,,,,,387,reward,,,,,,1566.3977651000023,1566.3977651000023,1566.3977651000023,1566.3977651000023,0,,,0,,,1,1.2595025999471545,1.2595061003230512,0,,,1567.6615746002644,1567.6615746002644,1567.6615746002644,1567.6615746002644,8,B,2024-04-18_10h14.42.139,attentional_competition_task,2022.2.4,144.01025331304734,
positions.xlsx,positions_test.xlsx,positions_test_new.xlsx,stimuli.xlsx,stimuli_new.xlsx,stimuli/Social2.png,stimuli/Social1.png,stimuli/Nonsocial2.png,stimuli/Nonsocial1.png,stimuli/Social4.png,stimuli/Social3.png,stimuli/Nonsocial4.png,stimuli/Nonsocial3.png,,,"(-0.7, -0.5)",cs_neg_s_new,"(-0.7, 0.5)",cs_pos_ns,"(0.7, -0.5)",cs_pos_s,"(0.7, 0.5)",cs_neg_ns,0,0,0,0,,,,,,,,,,,,,,,,,,,,,,,,,,,,,0,7,7,17,1,0,1,0,,,,,,,,,,,,,,,384,loss,,,,,,1568.1963082002476,1568.1963082002476,1568.1963082002476,1568.1963082002476,0,,,0,,,0,,,1,0.03085750015452504,0.030861400067806244,1568.1963082002476,1568.1963082002476,1568.1963082002476,1568.1963082002476,8,B,2024-04-18_10h14.42.139,attentional_competition_task,2022.2.4,144.01025331304734,
positions.xlsx,positions_test.xlsx,positions_test_new.xlsx,stimuli.xlsx,stimuli_new.xlsx,stimuli/Social2.png,stimuli/Social1.png,stimuli/Nonsocial2.png,stimuli/Nonsocial1.png,stimuli/Social4.png,stimuli/Social3.png,stimuli/Nonsocial4.png,stimuli/Nonsocial3.png,,,"(-0.7, -0.5)",cs_neg_s_new,"(-0.7, 0.5)",cs_pos_ns,"(0.7, -0.5)",cs_pos_s,"(0.7, 0.5)",cs_neg_ns,0,0,0,0,,,,,,,,,,,,,,,,,,,,,,,,,,,,,0,7,7,17,,,,,,,,,,,,,,,,,,,,,,,,,,,,,,,,,,,,,,,,,,,,,,8,B,2024-04-18_10h14.42.139,attentional_competition_task,2022.2.4,144.01025331304734,
positions.xlsx,positions_test.xlsx,positions_test_new.xlsx,stimuli.xlsx,stimuli_new.xlsx,stimuli/Social2.png,stimuli/Social1.png,stimuli/Nonsocial2.png,stimuli/Nonsocial1.png,stimuli/Social4.png,stimuli/Social3.png,stimuli/Nonsocial4.png,stimuli/Nonsocial3.png,,,"(-0.7, -0.5)",cs_pos_ns,"(-0.7, 0.5)",cs_neg_ns,"(0.7, -0.5)",cs_neg_s_new,"(0.7, 0.5)",cs_pos_s,0,0,0,0,,,,,,,,,,,,,,,,,,,,,,,,,,,,,0,8,8,8,0,0,0,0,,,,,,,,,,,,,,,387,reward,,,,,,1574.536359100137,1574.536359100137,1574.536359100137,1574.536359100137,1,0.7444309997372329,0.7444348996505141,0,,,0,,,0,,,1575.286290900316,1575.286290900316,1575.286290900316,1575.286290900316,8,B,2024-04-18_10h14.42.139,attentional_competition_task,2022.2.4,144.01025331304734,
positions.xlsx,positions_test.xlsx,positions_test_new.xlsx,stimuli.xlsx,stimuli_new.xlsx,stimuli/Social2.png,stimuli/Social1.png,stimuli/Nonsocial2.png,stimuli/Nonsocial1.png,stimuli/Social4.png,stimuli/Social3.png,stimuli/Nonsocial4.png,stimuli/Nonsocial3.png,,,"(-0.7, -0.5)",cs_pos_ns,"(-0.7, 0.5)",cs_neg_ns,"(0.7, -0.5)",cs_neg_s_new,"(0.7, 0.5)",cs_pos_s,0,0,0,0,,,,,,,,,,,,,,,,,,,,,,,,,,,,,0,8,8,8,1,0,1,0,,,,,,,,,,,,,,,390,reward,,,,,,1575.7932406002656,1575.7932406002656,1575.7932406002656,1575.7932406002656,1,0.03065050020813942,0.23128180019557476,0,,,0,,,1,0.29494359996169806,0.294947300106287,1576.0848503001034,1576.0848503001034,1576.0848503001034,1576.0848503001034,8,B,2024-04-18_10h14.42.139,attentional_competition_task,2022.2.4,144.01025331304734,
positions.xlsx,positions_test.xlsx,positions_test_new.xlsx,stimuli.xlsx,stimuli_new.xlsx,stimuli/Social2.png,stimuli/Social1.png,stimuli/Nonsocial2.png,stimuli/Nonsocial1.png,stimuli/Social4.png,stimuli/Social3.png,stimuli/Nonsocial4.png,stimuli/Nonsocial3.png,,,"(-0.7, -0.5)",cs_pos_ns,"(-0.7, 0.5)",cs_neg_ns,"(0.7, -0.5)",cs_neg_s_new,"(0.7, 0.5)",cs_pos_s,0,0,0,0,,,,,,,,,,,,,,,,,,,,,,,,,,,,,0,8,8,8,,,,,,,,,,,,,,,,,,,,,,,,,,,,,,,,,,,,,,,,,,,,,,8,B,2024-04-18_10h14.42.139,attentional_competition_task,2022.2.4,144.01025331304734,
positions.xlsx,positions_test.xlsx,positions_test_new.xlsx,stimuli.xlsx,stimuli_new.xlsx,stimuli/Social2.png,stimuli/Social1.png,stimuli/Nonsocial2.png,stimuli/Nonsocial1.png,stimuli/Social4.png,stimuli/Social3.png,stimuli/Nonsocial4.png,stimuli/Nonsocial3.png,,,"(-0.7, -0.5)",cs_neg_ns,"(-0.7, 0.5)",cs_pos_ns,"(0.7, -0.5)",cs_pos_s_new,"(0.7, 0.5)",cs_neg_s,0,0,0,0,,,,,,,,,,,,,,,,,,,,,,,,,,,,,0,9,9,29,0,0,0,0,,,,,,,,,,,,,,,393,reward,,,,,,1583.8623490002938,1583.8623490002938,1583.8623490002938,1583.8623490002938,0,,,1,0.7175372000783682,0.7175409998744726,1,0.07853440009057522,0.0857319999486208,0,,,1584.5845469003543,1584.5845469003543,1584.5845469003543,1584.5845469003543,8,B,2024-04-18_10h14.42.139,attentional_competition_task,2022.2.4,144.01025331304734,
positions.xlsx,positions_test.xlsx,positions_test_new.xlsx,stimuli.xlsx,stimuli_new.xlsx,stimuli/Social2.png,stimuli/Social1.png,stimuli/Nonsocial2.png,stimuli/Nonsocial1.png,stimuli/Social4.png,stimuli/Social3.png,stimuli/Nonsocial4.png,stimuli/Nonsocial3.png,,,"(-0.7, -0.5)",cs_neg_ns,"(-0.7, 0.5)",cs_pos_ns,"(0.7, -0.5)",cs_pos_s_new,"(0.7, 0.5)",cs_neg_s,0,0,0,0,,,,,,,,,,,,,,,,,,,,,,,,,,,,,0,9,9,29,1,0,1,0,,,,,,,,,,,,,,,396,reward,,,,,,1585.0845118002035,1585.0845118002035,1585.0845118002035,1585.0845118002035,0,,,1,0.028454200364649296,0.45379040017724037,1,0.5162742002867162,0.51627860032022,0,,,1585.598431700375,1585.598431700375,1585.598431700375,1585.598431700375,8,B,2024-04-18_10h14.42.139,attentional_competition_task,2022.2.4,144.01025331304734,
