posFile,posFileTest,posFileTestNew,stimFile,stimFileNew,cs_neg_s,cs_pos_s,cs_neg_ns,cs_pos_ns,cs_neg_s_new,cs_pos_s_new,cs_neg_ns_new,cs_pos_ns_new,stim,position,position1,stim1,position2,stim2,position3,stim3,position4,stim4,blocks.thisRepN,blocks.thisTrialN,blocks.thisN,blocks.thisIndex,ratingtrials1.thisRepN,ratingtrials1.thisTrialN,ratingtrials1.thisN,ratingtrials1.thisIndex,search_task_trials.thisRepN,search_task_trials.thisTrialN,search_task_trials.thisN,search_task_trials.thisIndex,learning_trials.thisRepN,learning_trials.thisTrialN,learning_trials.thisN,learning_trials.thisIndex,trials.thisRepN,trials.thisTrialN,trials.thisN,trials.thisIndex,ratingtrials2.thisRepN,ratingtrials2.thisTrialN,ratingtrials2.thisN,ratingtrials2.thisIndex,testtrials.thisRepN,testtrials.thisTrialN,testtrials.thisN,testtrials.thisIndex,loop_test.thisRepN,loop_test.thisTrialN,loop_test.thisN,loop_test.thisIndex,testtrials_novelty.thisRepN,testtrials_novelty.thisTrialN,testtrials_novelty.thisN,testtrials_novelty.thisIndex,loop_test_novelty.thisRepN,loop_test_novelty.thisTrialN,loop_test_novelty.thisN,loop_test_novelty.thisIndex,ratingtrials3.thisRepN,ratingtrials3.thisTrialN,ratingtrials3.thisN,ratingtrials3.thisIndex,textStart.started,textStartExp.started,imageRating.started,sliderStim.response,sliderStim.rt,textStartSearch.started,target_positions,distractor_positions,textStartTask.started,image.started,score,outcome,roi.numLooks,roi.timesOn,roi.timesOff,imageFeedback.started,textTestInstr.started,test_image1.started,test_image2.started,test_image3.started,test_image4.started,test_roi1.numLooks,test_roi1.timesOn,test_roi1.timesOff,test_roi2.numLooks,test_roi2.timesOn,test_roi2.timesOff,test_roi3.numLooks,test_roi3.timesOn,test_roi3.timesOff,test_roi4.numLooks,test_roi4.timesOn,test_roi4.timesOff,test_image_feedback1.started,test_image_feedback2.started,test_iamge_feedback3.started,test_iamge_feedback4.started,participant,group,date,expName,psychopyVersion,frameRate,
positions.xlsx,positions_test.xlsx,positions_test_new.xlsx,stimuli.xlsx,stimuli_new.xlsx,stimuli/Social1.png,stimuli/Social2.png,stimuli/Nonsocial1.png,stimuli/Nonsocial2.png,stimuli/Social3.png,stimuli/Social4.png,stimuli/Nonsocial3.png,stimuli/Nonsocial4.png,cs_pos_ns,,,,,,,,,,0,0,0,0,0,0,0,3,,,,,,,,,,,,,,,,,,,,,,,,,,,,,,,,,,,,,12.810318700001517,120.12951420000172,139.7763565000023,7.0,18.521870799999306,,,,,,,,,,,,,,,,,,,,,,,,,,,,,,,,,35,A,2024-05-15_13h20.52.872,attentional_competition_task,2022.2.4,144.08349927042383,
positions.xlsx,positions_test.xlsx,positions_test_new.xlsx,stimuli.xlsx,stimuli_new.xlsx,stimuli/Social1.png,stimuli/Social2.png,stimuli/Nonsocial1.png,stimuli/Nonsocial2.png,stimuli/Social3.png,stimuli/Social4.png,stimuli/Nonsocial3.png,stimuli/Nonsocial4.png,cs_neg_ns,,,,,,,,,,0,0,0,0,0,1,1,1,,,,,,,,,,,,,,,,,,,,,,,,,,,,,,,,,,,,,,,158.85199580000335,6.0,10.794621000000916,,,,,,,,,,,,,,,,,,,,,,,,,,,,,,,,,35,A,2024-05-15_13h20.52.872,attentional_competition_task,2022.2.4,144.08349927042383,
positions.xlsx,positions_test.xlsx,positions_test_new.xlsx,stimuli.xlsx,stimuli_new.xlsx,stimuli/Social1.png,stimuli/Social2.png,stimuli/Nonsocial1.png,stimuli/Nonsocial2.png,stimuli/Social3.png,stimuli/Social4.png,stimuli/Nonsocial3.png,stimuli/Nonsocial4.png,cs_neg_s,,,,,,,,,,0,0,0,0,0,2,2,0,,,,,,,,,,,,,,,,,,,,,,,,,,,,,,,,,,,,,,,170.0737089000031,5.0,9.533878099999129,,,,,,,,,,,,,,,,,,,,,,,,,,,,,,,,,35,A,2024-05-15_13h20.52.872,attentional_competition_task,2022.2.4,144.08349927042383,
positions.xlsx,positions_test.xlsx,positions_test_new.xlsx,stimuli.xlsx,stimuli_new.xlsx,stimuli/Social1.png,stimuli/Social2.png,stimuli/Nonsocial1.png,stimuli/Nonsocial2.png,stimuli/Social3.png,stimuli/Social4.png,stimuli/Nonsocial3.png,stimuli/Nonsocial4.png,cs_pos_s,,,,,,,,,,0,0,0,0,0,3,3,2,,,,,,,,,,,,,,,,,,,,,,,,,,,,,,,,,,,,,,,180.28860610000265,6.0,7.4919765000013285,,,,,,,,,,,,,,,,,,,,,,,,,,,,,,,,,35,A,2024-05-15_13h20.52.872,attentional_competition_task,2022.2.4,144.08349927042383,
positions.xlsx,positions_test.xlsx,positions_test_new.xlsx,stimuli.xlsx,stimuli_new.xlsx,stimuli/Social1.png,stimuli/Social2.png,stimuli/Nonsocial1.png,stimuli/Nonsocial2.png,stimuli/Social3.png,stimuli/Social4.png,stimuli/Nonsocial3.png,stimuli/Nonsocial4.png,,,,,,,,,,,0,0,0,0,,,,,0,0,0,0,,,,,,,,,,,,,,,,,,,,,,,,,,,,,,,,,,,,,,188.24660010000298,"[[0.45000000000000007, 0.19999999999999996], [0.6749999999999999, -0.8], [0.9, -0.8], [0.6749999999999999, 0.19999999999999996], [-0.9, 0.19999999999999996], [-0.9, -0.8], [0.22499999999999998, -0.8], [-0.22499999999999998, -0.8], [0.0, -0.30000000000000004], [0.0, 0.19999999999999996], [-0.675, -0.8], [-0.45, -0.8], [-0.22499999999999998, 0.19999999999999996], [-0.675, -0.30000000000000004], [-0.675, 0.19999999999999996]]","[[0.6749999999999999, 0.7], [-0.9, -0.30000000000000004], [0.6749999999999999, -0.30000000000000004], [0.22499999999999998, -0.30000000000000004], [-0.9, 0.7], [-0.675, 0.7], [0.9, 0.19999999999999996], [0.0, -0.8], [-0.45, 0.19999999999999996], [-0.45, -0.30000000000000004], [0.45000000000000007, 0.7], [0.22499999999999998, 0.19999999999999996], [0.9, -0.30000000000000004], [-0.22499999999999998, 0.7], [-0.45, 0.7]]",,,,,,,,,,,,,,,,,,,,,,,,,,,,,,35,A,2024-05-15_13h20.52.872,attentional_competition_task,2022.2.4,144.08349927042383,
positions.xlsx,positions_test.xlsx,positions_test_new.xlsx,stimuli.xlsx,stimuli_new.xlsx,stimuli/Social1.png,stimuli/Social2.png,stimuli/Nonsocial1.png,stimuli/Nonsocial2.png,stimuli/Social3.png,stimuli/Social4.png,stimuli/Nonsocial3.png,stimuli/Nonsocial4.png,,,,,,,,,,,0,0,0,0,,,,,1,0,1,0,,,,,,,,,,,,,,,,,,,,,,,,,,,,,,,,,,,,,,,"[[0.9, 0.7], [-0.22499999999999998, -0.8], [-0.9, 0.19999999999999996], [0.45000000000000007, -0.8], [0.6749999999999999, -0.8], [0.22499999999999998, 0.7], [0.9, 0.19999999999999996], [-0.675, 0.19999999999999996], [0.0, 0.19999999999999996], [0.45000000000000007, 0.7], [-0.9, -0.30000000000000004], [-0.22499999999999998, -0.30000000000000004], [-0.22499999999999998, 0.19999999999999996], [0.6749999999999999, 0.19999999999999996], [0.22499999999999998, 0.19999999999999996]]","[[0.45000000000000007, 0.19999999999999996], [0.45000000000000007, -0.30000000000000004], [-0.45, -0.8], [0.0, -0.8], [0.9, -0.8], [0.0, -0.30000000000000004], [-0.675, -0.8], [-0.675, 0.7], [0.0, 0.7], [-0.45, 0.19999999999999996], [0.22499999999999998, -0.30000000000000004], [-0.9, 0.7], [0.6749999999999999, -0.30000000000000004], [0.6749999999999999, 0.7], [-0.9, -0.8]]",,,,,,,,,,,,,,,,,,,,,,,,,,,,,,35,A,2024-05-15_13h20.52.872,attentional_competition_task,2022.2.4,144.08349927042383,
positions.xlsx,positions_test.xlsx,positions_test_new.xlsx,stimuli.xlsx,stimuli_new.xlsx,stimuli/Social1.png,stimuli/Social2.png,stimuli/Nonsocial1.png,stimuli/Nonsocial2.png,stimuli/Social3.png,stimuli/Social4.png,stimuli/Nonsocial3.png,stimuli/Nonsocial4.png,cs_neg_ns,"(-0.7, 0.5)",,,,,,,,,0,0,0,0,,,,,,,,,0,0,0,8,,,,,,,,,,,,,,,,,,,,,,,,,,,,,,,,,,,,,271.82657890000337,304.6377323000015,-3,loss,1,0.3476182999984303,0.34762209999826155,304.99880720000147,,,,,,,,,,,,,,,,,,,,,,35,A,2024-05-15_13h20.52.872,attentional_competition_task,2022.2.4,144.08349927042383,
positions.xlsx,positions_test.xlsx,positions_test_new.xlsx,stimuli.xlsx,stimuli_new.xlsx,stimuli/Social1.png,stimuli/Social2.png,stimuli/Nonsocial1.png,stimuli/Nonsocial2.png,stimuli/Social3.png,stimuli/Social4.png,stimuli/Nonsocial3.png,stimuli/Nonsocial4.png,cs_neg_s,"(0.7, 0.5)",,,,,,,,,0,0,0,0,,,,,,,,,0,1,1,2,,,,,,,,,,,,,,,,,,,,,,,,,,,,,,,,,,,,,,312.5679181000014,-6,loss,1,0.514111899999989,0.5141161999999895,313.0887908000004,,,,,,,,,,,,,,,,,,,,,,35,A,2024-05-15_13h20.52.872,attentional_competition_task,2022.2.4,144.08349927042383,
positions.xlsx,positions_test.xlsx,positions_test_new.xlsx,stimuli.xlsx,stimuli_new.xlsx,stimuli/Social1.png,stimuli/Social2.png,stimuli/Nonsocial1.png,stimuli/Nonsocial2.png,stimuli/Social3.png,stimuli/Social4.png,stimuli/Nonsocial3.png,stimuli/Nonsocial4.png,cs_pos_s,"(0.7, -0.5)",,,,,,,,,0,0,0,0,,,,,,,,,0,2,2,7,,,,,,,,,,,,,,,,,,,,,,,,,,,,,,,,,,,,,,320.97734590000255,-3,reward,1,0.5283624000003329,0.5352375000002212,321.5259427000019,,,,,,,,,,,,,,,,,,,,,,35,A,2024-05-15_13h20.52.872,attentional_competition_task,2022.2.4,144.08349927042383,
positions.xlsx,positions_test.xlsx,positions_test_new.xlsx,stimuli.xlsx,stimuli_new.xlsx,stimuli/Social1.png,stimuli/Social2.png,stimuli/Nonsocial1.png,stimuli/Nonsocial2.png,stimuli/Social3.png,stimuli/Social4.png,stimuli/Nonsocial3.png,stimuli/Nonsocial4.png,cs_neg_s,"(0.7, -0.5)",,,,,,,,,0,0,0,0,,,,,,,,,0,3,3,3,,,,,,,,,,,,,,,,,,,,,,,,,,,,,,,,,,,,,,329.17145450000316,-6,loss,1,0.2987399999983609,0.29874439999912283,329.4770266000014,,,,,,,,,,,,,,,,,,,,,,35,A,2024-05-15_13h20.52.872,attentional_competition_task,2022.2.4,144.08349927042383,
positions.xlsx,positions_test.xlsx,positions_test_new.xlsx,stimuli.xlsx,stimuli_new.xlsx,stimuli/Social1.png,stimuli/Social2.png,stimuli/Nonsocial1.png,stimuli/Nonsocial2.png,stimuli/Social3.png,stimuli/Social4.png,stimuli/Nonsocial3.png,stimuli/Nonsocial4.png,cs_pos_ns,"(0.7, -0.5)",,,,,,,,,0,0,0,0,,,,,,,,,0,4,4,15,,,,,,,,,,,,,,,,,,,,,,,,,,,,,,,,,,,,,,337.42109520000304,-3,reward,1,0.6315914999977394,0.6315954999990936,338.0599723000014,,,,,,,,,,,,,,,,,,,,,,35,A,2024-05-15_13h20.52.872,attentional_competition_task,2022.2.4,144.08349927042383,
positions.xlsx,positions_test.xlsx,positions_test_new.xlsx,stimuli.xlsx,stimuli_new.xlsx,stimuli/Social1.png,stimuli/Social2.png,stimuli/Nonsocial1.png,stimuli/Nonsocial2.png,stimuli/Social3.png,stimuli/Social4.png,stimuli/Nonsocial3.png,stimuli/Nonsocial4.png,cs_neg_ns,"(-0.7, -0.5)",,,,,,,,,0,0,0,0,,,,,,,,,0,5,5,9,,,,,,,,,,,,,,,,,,,,,,,,,,,,,,,,,,,,,,345.19858999999997,-6,loss,1,1.457996799999819,1.4580012000005809,346.66384740000285,,,,,,,,,,,,,,,,,,,,,,35,A,2024-05-15_13h20.52.872,attentional_competition_task,2022.2.4,144.08349927042383,
positions.xlsx,positions_test.xlsx,positions_test_new.xlsx,stimuli.xlsx,stimuli_new.xlsx,stimuli/Social1.png,stimuli/Social2.png,stimuli/Nonsocial1.png,stimuli/Nonsocial2.png,stimuli/Social3.png,stimuli/Social4.png,stimuli/Nonsocial3.png,stimuli/Nonsocial4.png,cs_pos_ns,"(-0.7, -0.5)",,,,,,,,,0,0,0,0,,,,,,,,,0,6,6,13,,,,,,,,,,,,,,,,,,,,,,,,,,,,,,,,,,,,,,354.96900690000257,-3,reward,1,0.7779445000014675,0.7779489000022295,355.75372530000095,,,,,,,,,,,,,,,,,,,,,,35,A,2024-05-15_13h20.52.872,attentional_competition_task,2022.2.4,144.08349927042383,
positions.xlsx,positions_test.xlsx,positions_test_new.xlsx,stimuli.xlsx,stimuli_new.xlsx,stimuli/Social1.png,stimuli/Social2.png,stimuli/Nonsocial1.png,stimuli/Nonsocial2.png,stimuli/Social3.png,stimuli/Social4.png,stimuli/Nonsocial3.png,stimuli/Nonsocial4.png,cs_pos_s,"(-0.7, 0.5)",,,,,,,,,0,0,0,0,,,,,,,,,0,7,7,4,,,,,,,,,,,,,,,,,,,,,,,,,,,,,,,,,,,,,,363.9408779000005,0,reward,1,0.687824599997839,0.6947041999992507,364.6422378000025,,,,,,,,,,,,,,,,,,,,,,35,A,2024-05-15_13h20.52.872,attentional_competition_task,2022.2.4,144.08349927042383,
positions.xlsx,positions_test.xlsx,positions_test_new.xlsx,stimuli.xlsx,stimuli_new.xlsx,stimuli/Social1.png,stimuli/Social2.png,stimuli/Nonsocial1.png,stimuli/Nonsocial2.png,stimuli/Social3.png,stimuli/Social4.png,stimuli/Nonsocial3.png,stimuli/Nonsocial4.png,cs_neg_s,"(-0.7, 0.5)",,,,,,,,,0,0,0,0,,,,,,,,,0,8,8,0,,,,,,,,,,,,,,,,,,,,,,,,,,,,,,,,,,,,,,372.2113629000014,0,none,0,,,375.22516670000186,,,,,,,,,,,,,,,,,,,,,,35,A,2024-05-15_13h20.52.872,attentional_competition_task,2022.2.4,144.08349927042383,
positions.xlsx,positions_test.xlsx,positions_test_new.xlsx,stimuli.xlsx,stimuli_new.xlsx,stimuli/Social1.png,stimuli/Social2.png,stimuli/Nonsocial1.png,stimuli/Nonsocial2.png,stimuli/Social3.png,stimuli/Social4.png,stimuli/Nonsocial3.png,stimuli/Nonsocial4.png,cs_neg_ns,"(0.7, -0.5)",,,,,,,,,0,0,0,0,,,,,,,,,0,9,9,11,,,,,,,,,,,,,,,,,,,,,,,,,,,,,,,,,,,,,,382.1762552,0,none,0,,,385.1899962000025,,,,,,,,,,,,,,,,,,,,,,35,A,2024-05-15_13h20.52.872,attentional_competition_task,2022.2.4,144.08349927042383,
positions.xlsx,positions_test.xlsx,positions_test_new.xlsx,stimuli.xlsx,stimuli_new.xlsx,stimuli/Social1.png,stimuli/Social2.png,stimuli/Nonsocial1.png,stimuli/Nonsocial2.png,stimuli/Social3.png,stimuli/Social4.png,stimuli/Nonsocial3.png,stimuli/Nonsocial4.png,cs_pos_s,"(0.7, 0.5)",,,,,,,,,0,0,0,0,,,,,,,,,0,10,10,6,,,,,,,,,,,,,,,,,,,,,,,,,,,,,,,,,,,,,,392.36337750000166,3,reward,1,0.7571403999972972,0.7571443999986514,393.1271751000022,,,,,,,,,,,,,,,,,,,,,,35,A,2024-05-15_13h20.52.872,attentional_competition_task,2022.2.4,144.08349927042383,
positions.xlsx,positions_test.xlsx,positions_test_new.xlsx,stimuli.xlsx,stimuli_new.xlsx,stimuli/Social1.png,stimuli/Social2.png,stimuli/Nonsocial1.png,stimuli/Nonsocial2.png,stimuli/Social3.png,stimuli/Social4.png,stimuli/Nonsocial3.png,stimuli/Nonsocial4.png,cs_pos_ns,"(-0.7, 0.5)",,,,,,,,,0,0,0,0,,,,,,,,,0,11,11,12,,,,,,,,,,,,,,,,,,,,,,,,,,,,,,,,,,,,,,400.5435518000013,6,reward,1,0.7780955999987782,0.7780998999987787,401.32825220000086,,,,,,,,,,,,,,,,,,,,,,35,A,2024-05-15_13h20.52.872,attentional_competition_task,2022.2.4,144.08349927042383,
positions.xlsx,positions_test.xlsx,positions_test_new.xlsx,stimuli.xlsx,stimuli_new.xlsx,stimuli/Social1.png,stimuli/Social2.png,stimuli/Nonsocial1.png,stimuli/Nonsocial2.png,stimuli/Social3.png,stimuli/Social4.png,stimuli/Nonsocial3.png,stimuli/Nonsocial4.png,cs_neg_s,"(-0.7, -0.5)",,,,,,,,,0,0,0,0,,,,,,,,,0,12,12,1,,,,,,,,,,,,,,,,,,,,,,,,,,,,,,,,,,,,,,408.5640777000008,6,none,0,,,411.5778377000024,,,,,,,,,,,,,,,,,,,,,,35,A,2024-05-15_13h20.52.872,attentional_competition_task,2022.2.4,144.08349927042383,
positions.xlsx,positions_test.xlsx,positions_test_new.xlsx,stimuli.xlsx,stimuli_new.xlsx,stimuli/Social1.png,stimuli/Social2.png,stimuli/Nonsocial1.png,stimuli/Nonsocial2.png,stimuli/Social3.png,stimuli/Social4.png,stimuli/Nonsocial3.png,stimuli/Nonsocial4.png,cs_pos_s,"(-0.7, -0.5)",,,,,,,,,0,0,0,0,,,,,,,,,0,13,13,5,,,,,,,,,,,,,,,,,,,,,,,,,,,,,,,,,,,,,,419.63308900000266,9,reward,1,0.5841552999991109,0.5841595999991114,420.22336690000157,,,,,,,,,,,,,,,,,,,,,,35,A,2024-05-15_13h20.52.872,attentional_competition_task,2022.2.4,144.08349927042383,
positions.xlsx,positions_test.xlsx,positions_test_new.xlsx,stimuli.xlsx,stimuli_new.xlsx,stimuli/Social1.png,stimuli/Social2.png,stimuli/Nonsocial1.png,stimuli/Nonsocial2.png,stimuli/Social3.png,stimuli/Social4.png,stimuli/Nonsocial3.png,stimuli/Nonsocial4.png,cs_pos_ns,"(0.7, 0.5)",,,,,,,,,0,0,0,0,,,,,,,,,0,14,14,14,,,,,,,,,,,,,,,,,,,,,,,,,,,,,,,,,,,,,,427.9660481000028,12,reward,1,0.9723106999990705,0.972314999999071,428.9452020000026,,,,,,,,,,,,,,,,,,,,,,35,A,2024-05-15_13h20.52.872,attentional_competition_task,2022.2.4,144.08349927042383,
positions.xlsx,positions_test.xlsx,positions_test_new.xlsx,stimuli.xlsx,stimuli_new.xlsx,stimuli/Social1.png,stimuli/Social2.png,stimuli/Nonsocial1.png,stimuli/Nonsocial2.png,stimuli/Social3.png,stimuli/Social4.png,stimuli/Nonsocial3.png,stimuli/Nonsocial4.png,cs_neg_ns,"(0.7, 0.5)",,,,,,,,,0,0,0,0,,,,,,,,,0,15,15,10,,,,,,,,,,,,,,,,,,,,,,,,,,,,,,,,,,,,,,436.3615709000005,12,none,0,,,439.37538660000064,,,,,,,,,,,,,,,,,,,,,,35,A,2024-05-15_13h20.52.872,attentional_competition_task,2022.2.4,144.08349927042383,
positions.xlsx,positions_test.xlsx,positions_test_new.xlsx,stimuli.xlsx,stimuli_new.xlsx,stimuli/Social1.png,stimuli/Social2.png,stimuli/Nonsocial1.png,stimuli/Nonsocial2.png,stimuli/Social3.png,stimuli/Social4.png,stimuli/Nonsocial3.png,stimuli/Nonsocial4.png,cs_pos_ns,"(-0.7, -0.5)",,,,,,,,,0,0,0,0,,,,,,,,,1,0,16,13,,,,,,,,,,,,,,,,,,,,,,,,,,,,,,,,,,,,,,447.0000540000001,15,reward,1,0.6740242000014405,0.6740286000022024,447.687485800001,,,,,,,,,,,,,,,,,,,,,,35,A,2024-05-15_13h20.52.872,attentional_competition_task,2022.2.4,144.08349927042383,
positions.xlsx,positions_test.xlsx,positions_test_new.xlsx,stimuli.xlsx,stimuli_new.xlsx,stimuli/Social1.png,stimuli/Social2.png,stimuli/Nonsocial1.png,stimuli/Nonsocial2.png,stimuli/Social3.png,stimuli/Social4.png,stimuli/Nonsocial3.png,stimuli/Nonsocial4.png,cs_neg_ns,"(0.7, 0.5)",,,,,,,,,0,0,0,0,,,,,,,,,1,1,17,10,,,,,,,,,,,,,,,,,,,,,,,,,,,,,,,,,,,,,,455.3538616000005,15,none,0,,,458.36763030000293,,,,,,,,,,,,,,,,,,,,,,35,A,2024-05-15_13h20.52.872,attentional_competition_task,2022.2.4,144.08349927042383,
positions.xlsx,positions_test.xlsx,positions_test_new.xlsx,stimuli.xlsx,stimuli_new.xlsx,stimuli/Social1.png,stimuli/Social2.png,stimuli/Nonsocial1.png,stimuli/Nonsocial2.png,stimuli/Social3.png,stimuli/Social4.png,stimuli/Nonsocial3.png,stimuli/Nonsocial4.png,cs_pos_s,"(0.7, -0.5)",,,,,,,,,0,0,0,0,,,,,,,,,1,2,18,7,,,,,,,,,,,,,,,,,,,,,,,,,,,,,,,,,,,,,,466.450631300002,18,reward,1,0.6390060999983689,0.639010099999723,467.096438200002,,,,,,,,,,,,,,,,,,,,,,35,A,2024-05-15_13h20.52.872,attentional_competition_task,2022.2.4,144.08349927042383,
positions.xlsx,positions_test.xlsx,positions_test_new.xlsx,stimuli.xlsx,stimuli_new.xlsx,stimuli/Social1.png,stimuli/Social2.png,stimuli/Nonsocial1.png,stimuli/Nonsocial2.png,stimuli/Social3.png,stimuli/Social4.png,stimuli/Nonsocial3.png,stimuli/Nonsocial4.png,cs_pos_s,"(0.7, 0.5)",,,,,,,,,0,0,0,0,,,,,,,,,1,3,19,6,,,,,,,,,,,,,,,,,,,,,,,,,,,,,,,,,,,,,,474.58921340000234,21,reward,1,0.653217200000654,0.6532211000012467,475.2489330000026,,,,,,,,,,,,,,,,,,,,,,35,A,2024-05-15_13h20.52.872,attentional_competition_task,2022.2.4,144.08349927042383,
positions.xlsx,positions_test.xlsx,positions_test_new.xlsx,stimuli.xlsx,stimuli_new.xlsx,stimuli/Social1.png,stimuli/Social2.png,stimuli/Nonsocial1.png,stimuli/Nonsocial2.png,stimuli/Social3.png,stimuli/Social4.png,stimuli/Nonsocial3.png,stimuli/Nonsocial4.png,cs_pos_s,"(-0.7, 0.5)",,,,,,,,,0,0,0,0,,,,,,,,,1,4,20,4,,,,,,,,,,,,,,,,,,,,,,,,,,,,,,,,,,,,,,482.5263907000008,24,reward,1,0.6806034000001091,0.6806074999985867,483.21384880000187,,,,,,,,,,,,,,,,,,,,,,35,A,2024-05-15_13h20.52.872,attentional_competition_task,2022.2.4,144.08349927042383,
positions.xlsx,positions_test.xlsx,positions_test_new.xlsx,stimuli.xlsx,stimuli_new.xlsx,stimuli/Social1.png,stimuli/Social2.png,stimuli/Nonsocial1.png,stimuli/Nonsocial2.png,stimuli/Social3.png,stimuli/Social4.png,stimuli/Nonsocial3.png,stimuli/Nonsocial4.png,cs_neg_s,"(-0.7, -0.5)",,,,,,,,,0,0,0,0,,,,,,,,,1,5,21,1,,,,,,,,,,,,,,,,,,,,,,,,,,,,,,,,,,,,,,490.3385921000008,24,none,0,,,493.3523298,,,,,,,,,,,,,,,,,,,,,,35,A,2024-05-15_13h20.52.872,attentional_competition_task,2022.2.4,144.08349927042383,
positions.xlsx,positions_test.xlsx,positions_test_new.xlsx,stimuli.xlsx,stimuli_new.xlsx,stimuli/Social1.png,stimuli/Social2.png,stimuli/Nonsocial1.png,stimuli/Nonsocial2.png,stimuli/Social3.png,stimuli/Social4.png,stimuli/Nonsocial3.png,stimuli/Nonsocial4.png,cs_neg_s,"(0.7, -0.5)",,,,,,,,,0,0,0,0,,,,,,,,,1,6,22,3,,,,,,,,,,,,,,,,,,,,,,,,,,,,,,,,,,,,,,501.2339505000018,24,none,0,,,504.24079650000203,,,,,,,,,,,,,,,,,,,,,,35,A,2024-05-15_13h20.52.872,attentional_competition_task,2022.2.4,144.08349927042383,
positions.xlsx,positions_test.xlsx,positions_test_new.xlsx,stimuli.xlsx,stimuli_new.xlsx,stimuli/Social1.png,stimuli/Social2.png,stimuli/Nonsocial1.png,stimuli/Nonsocial2.png,stimuli/Social3.png,stimuli/Social4.png,stimuli/Nonsocial3.png,stimuli/Nonsocial4.png,cs_neg_ns,"(0.7, -0.5)",,,,,,,,,0,0,0,0,,,,,,,,,1,7,23,11,,,,,,,,,,,,,,,,,,,,,,,,,,,,,,,,,,,,,,512.1015708000014,24,none,0,,,515.1153904000021,,,,,,,,,,,,,,,,,,,,,,35,A,2024-05-15_13h20.52.872,attentional_competition_task,2022.2.4,144.08349927042383,
positions.xlsx,positions_test.xlsx,positions_test_new.xlsx,stimuli.xlsx,stimuli_new.xlsx,stimuli/Social1.png,stimuli/Social2.png,stimuli/Nonsocial1.png,stimuli/Nonsocial2.png,stimuli/Social3.png,stimuli/Social4.png,stimuli/Nonsocial3.png,stimuli/Nonsocial4.png,cs_neg_ns,"(-0.7, 0.5)",,,,,,,,,0,0,0,0,,,,,,,,,1,8,24,8,,,,,,,,,,,,,,,,,,,,,,,,,,,,,,,,,,,,,,521.9275400000006,24,none,0,,,524.9413660000027,,,,,,,,,,,,,,,,,,,,,,35,A,2024-05-15_13h20.52.872,attentional_competition_task,2022.2.4,144.08349927042383,
positions.xlsx,positions_test.xlsx,positions_test_new.xlsx,stimuli.xlsx,stimuli_new.xlsx,stimuli/Social1.png,stimuli/Social2.png,stimuli/Nonsocial1.png,stimuli/Nonsocial2.png,stimuli/Social3.png,stimuli/Social4.png,stimuli/Nonsocial3.png,stimuli/Nonsocial4.png,cs_pos_ns,"(0.7, 0.5)",,,,,,,,,0,0,0,0,,,,,,,,,1,9,25,14,,,,,,,,,,,,,,,,,,,,,,,,,,,,,,,,,,,,,,532.4757470000004,27,reward,1,0.5144970000001194,0.5145014000008814,532.9965660000016,,,,,,,,,,,,,,,,,,,,,,35,A,2024-05-15_13h20.52.872,attentional_competition_task,2022.2.4,144.08349927042383,
positions.xlsx,positions_test.xlsx,positions_test_new.xlsx,stimuli.xlsx,stimuli_new.xlsx,stimuli/Social1.png,stimuli/Social2.png,stimuli/Nonsocial1.png,stimuli/Nonsocial2.png,stimuli/Social3.png,stimuli/Social4.png,stimuli/Nonsocial3.png,stimuli/Nonsocial4.png,cs_neg_ns,"(-0.7, -0.5)",,,,,,,,,0,0,0,0,,,,,,,,,1,10,26,9,,,,,,,,,,,,,,,,,,,,,,,,,,,,,,,,,,,,,,540.0518252000002,27,none,0,,,543.065601600003,,,,,,,,,,,,,,,,,,,,,,35,A,2024-05-15_13h20.52.872,attentional_competition_task,2022.2.4,144.08349927042383,
positions.xlsx,positions_test.xlsx,positions_test_new.xlsx,stimuli.xlsx,stimuli_new.xlsx,stimuli/Social1.png,stimuli/Social2.png,stimuli/Nonsocial1.png,stimuli/Nonsocial2.png,stimuli/Social3.png,stimuli/Social4.png,stimuli/Nonsocial3.png,stimuli/Nonsocial4.png,cs_pos_ns,"(-0.7, 0.5)",,,,,,,,,0,0,0,0,,,,,,,,,1,11,27,12,,,,,,,,,,,,,,,,,,,,,,,,,,,,,,,,,,,,,,550.1347658000013,30,reward,1,0.5972446000014315,0.597248900001432,550.7389310000035,,,,,,,,,,,,,,,,,,,,,,35,A,2024-05-15_13h20.52.872,attentional_competition_task,2022.2.4,144.08349927042383,
positions.xlsx,positions_test.xlsx,positions_test_new.xlsx,stimuli.xlsx,stimuli_new.xlsx,stimuli/Social1.png,stimuli/Social2.png,stimuli/Nonsocial1.png,stimuli/Nonsocial2.png,stimuli/Social3.png,stimuli/Social4.png,stimuli/Nonsocial3.png,stimuli/Nonsocial4.png,cs_neg_s,"(-0.7, 0.5)",,,,,,,,,0,0,0,0,,,,,,,,,1,12,28,0,,,,,,,,,,,,,,,,,,,,,,,,,,,,,,,,,,,,,,557.7595076000034,30,none,0,,,560.7663012000012,,,,,,,,,,,,,,,,,,,,,,35,A,2024-05-15_13h20.52.872,attentional_competition_task,2022.2.4,144.08349927042383,
positions.xlsx,positions_test.xlsx,positions_test_new.xlsx,stimuli.xlsx,stimuli_new.xlsx,stimuli/Social1.png,stimuli/Social2.png,stimuli/Nonsocial1.png,stimuli/Nonsocial2.png,stimuli/Social3.png,stimuli/Social4.png,stimuli/Nonsocial3.png,stimuli/Nonsocial4.png,cs_pos_ns,"(0.7, -0.5)",,,,,,,,,0,0,0,0,,,,,,,,,1,13,29,15,,,,,,,,,,,,,,,,,,,,,,,,,,,,,,,,,,,,,,568.1201542000017,33,reward,1,0.5901508999995713,0.5901550000016869,568.7173716000034,,,,,,,,,,,,,,,,,,,,,,35,A,2024-05-15_13h20.52.872,attentional_competition_task,2022.2.4,144.08349927042383,
positions.xlsx,positions_test.xlsx,positions_test_new.xlsx,stimuli.xlsx,stimuli_new.xlsx,stimuli/Social1.png,stimuli/Social2.png,stimuli/Nonsocial1.png,stimuli/Nonsocial2.png,stimuli/Social3.png,stimuli/Social4.png,stimuli/Nonsocial3.png,stimuli/Nonsocial4.png,cs_neg_s,"(0.7, 0.5)",,,,,,,,,0,0,0,0,,,,,,,,,1,14,30,2,,,,,,,,,,,,,,,,,,,,,,,,,,,,,,,,,,,,,,576.8072762000011,33,none,0,,,579.8210725000026,,,,,,,,,,,,,,,,,,,,,,35,A,2024-05-15_13h20.52.872,attentional_competition_task,2022.2.4,144.08349927042383,
positions.xlsx,positions_test.xlsx,positions_test_new.xlsx,stimuli.xlsx,stimuli_new.xlsx,stimuli/Social1.png,stimuli/Social2.png,stimuli/Nonsocial1.png,stimuli/Nonsocial2.png,stimuli/Social3.png,stimuli/Social4.png,stimuli/Nonsocial3.png,stimuli/Nonsocial4.png,cs_pos_s,"(-0.7, -0.5)",,,,,,,,,0,0,0,0,,,,,,,,,1,15,31,5,,,,,,,,,,,,,,,,,,,,,,,,,,,,,,,,,,,,,,587.2304811000031,36,reward,1,0.5768004999990808,0.5768048999998427,587.8137779000026,,,,,,,,,,,,,,,,,,,,,,35,A,2024-05-15_13h20.52.872,attentional_competition_task,2022.2.4,144.08349927042383,
positions.xlsx,positions_test.xlsx,positions_test_new.xlsx,stimuli.xlsx,stimuli_new.xlsx,stimuli/Social1.png,stimuli/Social2.png,stimuli/Nonsocial1.png,stimuli/Nonsocial2.png,stimuli/Social3.png,stimuli/Social4.png,stimuli/Nonsocial3.png,stimuli/Nonsocial4.png,cs_pos_ns,"(0.7, -0.5)",,,,,,,,,0,0,0,0,,,,,,,,,,,,,0,0,0,15,,,,,,,,,,,,,,,,,,,,,,,,,,,,,,,,,,611.118421500003,39,reward,1,0.4240179000007629,0.42402210000000196,611.5489303000031,,,,,,,,,,,,,,,,,,,,,,35,A,2024-05-15_13h20.52.872,attentional_competition_task,2022.2.4,144.08349927042383,
positions.xlsx,positions_test.xlsx,positions_test_new.xlsx,stimuli.xlsx,stimuli_new.xlsx,stimuli/Social1.png,stimuli/Social2.png,stimuli/Nonsocial1.png,stimuli/Nonsocial2.png,stimuli/Social3.png,stimuli/Social4.png,stimuli/Nonsocial3.png,stimuli/Nonsocial4.png,cs_pos_ns,"(-0.7, 0.5)",,,,,,,,,0,0,0,0,,,,,,,,,,,,,0,1,1,12,,,,,,,,,,,,,,,,,,,,,,,,,,,,,,,,,,619.4653045000014,42,reward,1,0.7226728999994521,0.7226768000000448,620.194420900003,,,,,,,,,,,,,,,,,,,,,,35,A,2024-05-15_13h20.52.872,attentional_competition_task,2022.2.4,144.08349927042383,
positions.xlsx,positions_test.xlsx,positions_test_new.xlsx,stimuli.xlsx,stimuli_new.xlsx,stimuli/Social1.png,stimuli/Social2.png,stimuli/Nonsocial1.png,stimuli/Nonsocial2.png,stimuli/Social3.png,stimuli/Social4.png,stimuli/Nonsocial3.png,stimuli/Nonsocial4.png,cs_pos_s,"(-0.7, -0.5)",,,,,,,,,0,0,0,0,,,,,,,,,,,,,0,2,2,5,,,,,,,,,,,,,,,,,,,,,,,,,,,,,,,,,,627.798300100003,45,reward,1,0.5072079000019585,0.5072122999990825,628.3122009000035,,,,,,,,,,,,,,,,,,,,,,35,A,2024-05-15_13h20.52.872,attentional_competition_task,2022.2.4,144.08349927042383,
positions.xlsx,positions_test.xlsx,positions_test_new.xlsx,stimuli.xlsx,stimuli_new.xlsx,stimuli/Social1.png,stimuli/Social2.png,stimuli/Nonsocial1.png,stimuli/Nonsocial2.png,stimuli/Social3.png,stimuli/Social4.png,stimuli/Nonsocial3.png,stimuli/Nonsocial4.png,cs_neg_s,"(-0.7, 0.5)",,,,,,,,,0,0,0,0,,,,,,,,,,,,,0,3,3,0,,,,,,,,,,,,,,,,,,,,,,,,,,,,,,,,,,635.6035243000006,42,loss,1,0.43037289999847417,0.43037750000075903,636.0410662000031,,,,,,,,,,,,,,,,,,,,,,35,A,2024-05-15_13h20.52.872,attentional_competition_task,2022.2.4,144.08349927042383,
positions.xlsx,positions_test.xlsx,positions_test_new.xlsx,stimuli.xlsx,stimuli_new.xlsx,stimuli/Social1.png,stimuli/Social2.png,stimuli/Nonsocial1.png,stimuli/Nonsocial2.png,stimuli/Social3.png,stimuli/Social4.png,stimuli/Nonsocial3.png,stimuli/Nonsocial4.png,cs_neg_s,"(-0.7, -0.5)",,,,,,,,,0,0,0,0,,,,,,,,,,,,,0,4,4,1,,,,,,,,,,,,,,,,,,,,,,,,,,,,,,,,,,643.8948863000005,42,none,0,,,646.9086638000008,,,,,,,,,,,,,,,,,,,,,,35,A,2024-05-15_13h20.52.872,attentional_competition_task,2022.2.4,144.08349927042383,
positions.xlsx,positions_test.xlsx,positions_test_new.xlsx,stimuli.xlsx,stimuli_new.xlsx,stimuli/Social1.png,stimuli/Social2.png,stimuli/Nonsocial1.png,stimuli/Nonsocial2.png,stimuli/Social3.png,stimuli/Social4.png,stimuli/Nonsocial3.png,stimuli/Nonsocial4.png,cs_pos_s,"(-0.7, 0.5)",,,,,,,,,0,0,0,0,,,,,,,,,,,,,0,5,5,4,,,,,,,,,,,,,,,,,,,,,,,,,,,,,,,,,,654.0889621000024,45,reward,1,0.7232406000002811,0.7232450999981666,654.8180679000034,,,,,,,,,,,,,,,,,,,,,,35,A,2024-05-15_13h20.52.872,attentional_competition_task,2022.2.4,144.08349927042383,
positions.xlsx,positions_test.xlsx,positions_test_new.xlsx,stimuli.xlsx,stimuli_new.xlsx,stimuli/Social1.png,stimuli/Social2.png,stimuli/Nonsocial1.png,stimuli/Nonsocial2.png,stimuli/Social3.png,stimuli/Social4.png,stimuli/Nonsocial3.png,stimuli/Nonsocial4.png,cs_neg_ns,"(0.7, 0.5)",,,,,,,,,0,0,0,0,,,,,,,,,,,,,0,6,6,10,,,,,,,,,,,,,,,,,,,,,,,,,,,,,,,,,,662.3872016000023,45,none,0,,,665.400972200001,,,,,,,,,,,,,,,,,,,,,,35,A,2024-05-15_13h20.52.872,attentional_competition_task,2022.2.4,144.08349927042383,
positions.xlsx,positions_test.xlsx,positions_test_new.xlsx,stimuli.xlsx,stimuli_new.xlsx,stimuli/Social1.png,stimuli/Social2.png,stimuli/Nonsocial1.png,stimuli/Nonsocial2.png,stimuli/Social3.png,stimuli/Social4.png,stimuli/Nonsocial3.png,stimuli/Nonsocial4.png,cs_pos_s,"(0.7, -0.5)",,,,,,,,,0,0,0,0,,,,,,,,,,,,,0,7,7,7,,,,,,,,,,,,,,,,,,,,,,,,,,,,,,,,,,673.2478686000031,48,reward,1,0.7015343999992183,0.7015387999999803,673.9561863000017,,,,,,,,,,,,,,,,,,,,,,35,A,2024-05-15_13h20.52.872,attentional_competition_task,2022.2.4,144.08349927042383,
positions.xlsx,positions_test.xlsx,positions_test_new.xlsx,stimuli.xlsx,stimuli_new.xlsx,stimuli/Social1.png,stimuli/Social2.png,stimuli/Nonsocial1.png,stimuli/Nonsocial2.png,stimuli/Social3.png,stimuli/Social4.png,stimuli/Nonsocial3.png,stimuli/Nonsocial4.png,cs_neg_ns,"(-0.7, 0.5)",,,,,,,,,0,0,0,0,,,,,,,,,,,,,0,8,8,8,,,,,,,,,,,,,,,,,,,,,,,,,,,,,,,,,,680.9836878000024,48,none,0,,,683.9974481000027,,,,,,,,,,,,,,,,,,,,,,35,A,2024-05-15_13h20.52.872,attentional_competition_task,2022.2.4,144.08349927042383,
positions.xlsx,positions_test.xlsx,positions_test_new.xlsx,stimuli.xlsx,stimuli_new.xlsx,stimuli/Social1.png,stimuli/Social2.png,stimuli/Nonsocial1.png,stimuli/Nonsocial2.png,stimuli/Social3.png,stimuli/Social4.png,stimuli/Nonsocial3.png,stimuli/Nonsocial4.png,cs_pos_s,"(0.7, 0.5)",,,,,,,,,0,0,0,0,,,,,,,,,,,,,0,9,9,6,,,,,,,,,,,,,,,,,,,,,,,,,,,,,,,,,,691.5735071000017,51,reward,1,0.45873389999906067,0.4587381999990612,692.0387968000032,,,,,,,,,,,,,,,,,,,,,,35,A,2024-05-15_13h20.52.872,attentional_competition_task,2022.2.4,144.08349927042383,
positions.xlsx,positions_test.xlsx,positions_test_new.xlsx,stimuli.xlsx,stimuli_new.xlsx,stimuli/Social1.png,stimuli/Social2.png,stimuli/Nonsocial1.png,stimuli/Nonsocial2.png,stimuli/Social3.png,stimuli/Social4.png,stimuli/Nonsocial3.png,stimuli/Nonsocial4.png,cs_pos_ns,"(0.7, 0.5)",,,,,,,,,0,0,0,0,,,,,,,,,,,,,0,10,10,14,,,,,,,,,,,,,,,,,,,,,,,,,,,,,,,,,,699.7676689,54,reward,1,0.5624420000021928,0.5624459000027855,700.3370211000001,,,,,,,,,,,,,,,,,,,,,,35,A,2024-05-15_13h20.52.872,attentional_competition_task,2022.2.4,144.08349927042383,
positions.xlsx,positions_test.xlsx,positions_test_new.xlsx,stimuli.xlsx,stimuli_new.xlsx,stimuli/Social1.png,stimuli/Social2.png,stimuli/Nonsocial1.png,stimuli/Nonsocial2.png,stimuli/Social3.png,stimuli/Social4.png,stimuli/Nonsocial3.png,stimuli/Nonsocial4.png,cs_neg_s,"(0.7, -0.5)",,,,,,,,,0,0,0,0,,,,,,,,,,,,,0,11,11,3,,,,,,,,,,,,,,,,,,,,,,,,,,,,,,,,,,707.649249500002,54,none,0,,,710.6630602000005,,,,,,,,,,,,,,,,,,,,,,35,A,2024-05-15_13h20.52.872,attentional_competition_task,2022.2.4,144.08349927042383,
positions.xlsx,positions_test.xlsx,positions_test_new.xlsx,stimuli.xlsx,stimuli_new.xlsx,stimuli/Social1.png,stimuli/Social2.png,stimuli/Nonsocial1.png,stimuli/Nonsocial2.png,stimuli/Social3.png,stimuli/Social4.png,stimuli/Nonsocial3.png,stimuli/Nonsocial4.png,cs_neg_ns,"(0.7, -0.5)",,,,,,,,,0,0,0,0,,,,,,,,,,,,,0,12,12,11,,,,,,,,,,,,,,,,,,,,,,,,,,,,,,,,,,718.4543888000007,54,none,0,,,721.4611731000005,,,,,,,,,,,,,,,,,,,,,,35,A,2024-05-15_13h20.52.872,attentional_competition_task,2022.2.4,144.08349927042383,
positions.xlsx,positions_test.xlsx,positions_test_new.xlsx,stimuli.xlsx,stimuli_new.xlsx,stimuli/Social1.png,stimuli/Social2.png,stimuli/Nonsocial1.png,stimuli/Nonsocial2.png,stimuli/Social3.png,stimuli/Social4.png,stimuli/Nonsocial3.png,stimuli/Nonsocial4.png,cs_pos_ns,"(-0.7, -0.5)",,,,,,,,,0,0,0,0,,,,,,,,,,,,,0,13,13,13,,,,,,,,,,,,,,,,,,,,,,,,,,,,,,,,,,728.703987500001,57,reward,1,0.4303895000011835,0.4303935000025376,729.1414360000017,,,,,,,,,,,,,,,,,,,,,,35,A,2024-05-15_13h20.52.872,attentional_competition_task,2022.2.4,144.08349927042383,
positions.xlsx,positions_test.xlsx,positions_test_new.xlsx,stimuli.xlsx,stimuli_new.xlsx,stimuli/Social1.png,stimuli/Social2.png,stimuli/Nonsocial1.png,stimuli/Nonsocial2.png,stimuli/Social3.png,stimuli/Social4.png,stimuli/Nonsocial3.png,stimuli/Nonsocial4.png,cs_neg_s,"(0.7, 0.5)",,,,,,,,,0,0,0,0,,,,,,,,,,,,,0,14,14,2,,,,,,,,,,,,,,,,,,,,,,,,,,,,,,,,,,736.2800447000009,57,none,0,,,739.2938129000031,,,,,,,,,,,,,,,,,,,,,,35,A,2024-05-15_13h20.52.872,attentional_competition_task,2022.2.4,144.08349927042383,
positions.xlsx,positions_test.xlsx,positions_test_new.xlsx,stimuli.xlsx,stimuli_new.xlsx,stimuli/Social1.png,stimuli/Social2.png,stimuli/Nonsocial1.png,stimuli/Nonsocial2.png,stimuli/Social3.png,stimuli/Social4.png,stimuli/Nonsocial3.png,stimuli/Nonsocial4.png,cs_neg_ns,"(-0.7, -0.5)",,,,,,,,,0,0,0,0,,,,,,,,,,,,,0,15,15,9,,,,,,,,,,,,,,,,,,,,,,,,,,,,,,,,,,746.4186034000013,57,none,0,,,749.4254235000008,,,,,,,,,,,,,,,,,,,,,,35,A,2024-05-15_13h20.52.872,attentional_competition_task,2022.2.4,144.08349927042383,
positions.xlsx,positions_test.xlsx,positions_test_new.xlsx,stimuli.xlsx,stimuli_new.xlsx,stimuli/Social1.png,stimuli/Social2.png,stimuli/Nonsocial1.png,stimuli/Nonsocial2.png,stimuli/Social3.png,stimuli/Social4.png,stimuli/Nonsocial3.png,stimuli/Nonsocial4.png,cs_neg_s,"(0.7, 0.5)",,,,,,,,,0,0,0,0,,,,,,,,,,,,,1,0,16,2,,,,,,,,,,,,,,,,,,,,,,,,,,,,,,,,,,757.3833796000035,57,none,0,,,760.3902443000006,,,,,,,,,,,,,,,,,,,,,,35,A,2024-05-15_13h20.52.872,attentional_competition_task,2022.2.4,144.08349927042383,
positions.xlsx,positions_test.xlsx,positions_test_new.xlsx,stimuli.xlsx,stimuli_new.xlsx,stimuli/Social1.png,stimuli/Social2.png,stimuli/Nonsocial1.png,stimuli/Nonsocial2.png,stimuli/Social3.png,stimuli/Social4.png,stimuli/Nonsocial3.png,stimuli/Nonsocial4.png,cs_neg_s,"(-0.7, -0.5)",,,,,,,,,0,0,0,0,,,,,,,,,,,,,1,1,17,1,,,,,,,,,,,,,,,,,,,,,,,,,,,,,,,,,,768.0009883000021,57,none,0,,,771.0078371000018,,,,,,,,,,,,,,,,,,,,,,35,A,2024-05-15_13h20.52.872,attentional_competition_task,2022.2.4,144.08349927042383,
positions.xlsx,positions_test.xlsx,positions_test_new.xlsx,stimuli.xlsx,stimuli_new.xlsx,stimuli/Social1.png,stimuli/Social2.png,stimuli/Nonsocial1.png,stimuli/Nonsocial2.png,stimuli/Social3.png,stimuli/Social4.png,stimuli/Nonsocial3.png,stimuli/Nonsocial4.png,cs_pos_s,"(0.7, -0.5)",,,,,,,,,0,0,0,0,,,,,,,,,,,,,1,2,18,7,,,,,,,,,,,,,,,,,,,,,,,,,,,,,,,,,,777.7645125000017,60,reward,1,0.6458272999989276,0.6458311999995203,778.4172726000033,,,,,,,,,,,,,,,,,,,,,,35,A,2024-05-15_13h20.52.872,attentional_competition_task,2022.2.4,144.08349927042383,
positions.xlsx,positions_test.xlsx,positions_test_new.xlsx,stimuli.xlsx,stimuli_new.xlsx,stimuli/Social1.png,stimuli/Social2.png,stimuli/Nonsocial1.png,stimuli/Nonsocial2.png,stimuli/Social3.png,stimuli/Social4.png,stimuli/Nonsocial3.png,stimuli/Nonsocial4.png,cs_pos_s,"(0.7, 0.5)",,,,,,,,,0,0,0,0,,,,,,,,,,,,,1,3,19,6,,,,,,,,,,,,,,,,,,,,,,,,,,,,,,,,,,786.3474962,63,reward,1,0.5975094000023091,0.5975271000024804,786.9516292000008,,,,,,,,,,,,,,,,,,,,,,35,A,2024-05-15_13h20.52.872,attentional_competition_task,2022.2.4,144.08349927042383,
positions.xlsx,positions_test.xlsx,positions_test_new.xlsx,stimuli.xlsx,stimuli_new.xlsx,stimuli/Social1.png,stimuli/Social2.png,stimuli/Nonsocial1.png,stimuli/Nonsocial2.png,stimuli/Social3.png,stimuli/Social4.png,stimuli/Nonsocial3.png,stimuli/Nonsocial4.png,cs_pos_ns,"(-0.7, -0.5)",,,,,,,,,0,0,0,0,,,,,,,,,,,,,1,4,20,13,,,,,,,,,,,,,,,,,,,,,,,,,,,,,,,,,,794.2221592000024,66,reward,1,0.4934468999999808,0.5003585999984352,794.7290835000022,,,,,,,,,,,,,,,,,,,,,,35,A,2024-05-15_13h20.52.872,attentional_competition_task,2022.2.4,144.08349927042383,
positions.xlsx,positions_test.xlsx,positions_test_new.xlsx,stimuli.xlsx,stimuli_new.xlsx,stimuli/Social1.png,stimuli/Social2.png,stimuli/Nonsocial1.png,stimuli/Nonsocial2.png,stimuli/Social3.png,stimuli/Social4.png,stimuli/Nonsocial3.png,stimuli/Nonsocial4.png,cs_pos_ns,"(0.7, -0.5)",,,,,,,,,0,0,0,0,,,,,,,,,,,,,1,5,21,15,,,,,,,,,,,,,,,,,,,,,,,,,,,,,,,,,,801.7079844,69,reward,1,0.7084635999999591,0.7084675000005518,802.4232390000034,,,,,,,,,,,,,,,,,,,,,,35,A,2024-05-15_13h20.52.872,attentional_competition_task,2022.2.4,144.08349927042383,
positions.xlsx,positions_test.xlsx,positions_test_new.xlsx,stimuli.xlsx,stimuli_new.xlsx,stimuli/Social1.png,stimuli/Social2.png,stimuli/Nonsocial1.png,stimuli/Nonsocial2.png,stimuli/Social3.png,stimuli/Social4.png,stimuli/Nonsocial3.png,stimuli/Nonsocial4.png,cs_neg_ns,"(-0.7, 0.5)",,,,,,,,,0,0,0,0,,,,,,,,,,,,,1,6,22,8,,,,,,,,,,,,,,,,,,,,,,,,,,,,,,,,,,809.9992788000018,69,none,0,,,813.0131029000004,,,,,,,,,,,,,,,,,,,,,,35,A,2024-05-15_13h20.52.872,attentional_competition_task,2022.2.4,144.08349927042383,
positions.xlsx,positions_test.xlsx,positions_test_new.xlsx,stimuli.xlsx,stimuli_new.xlsx,stimuli/Social1.png,stimuli/Social2.png,stimuli/Nonsocial1.png,stimuli/Nonsocial2.png,stimuli/Social3.png,stimuli/Social4.png,stimuli/Nonsocial3.png,stimuli/Nonsocial4.png,cs_neg_ns,"(0.7, -0.5)",,,,,,,,,0,0,0,0,,,,,,,,,,,,,1,7,23,11,,,,,,,,,,,,,,,,,,,,,,,,,,,,,,,,,,820.0405556000005,69,none,0,,,823.0474193000009,,,,,,,,,,,,,,,,,,,,,,35,A,2024-05-15_13h20.52.872,attentional_competition_task,2022.2.4,144.08349927042383,
positions.xlsx,positions_test.xlsx,positions_test_new.xlsx,stimuli.xlsx,stimuli_new.xlsx,stimuli/Social1.png,stimuli/Social2.png,stimuli/Nonsocial1.png,stimuli/Nonsocial2.png,stimuli/Social3.png,stimuli/Social4.png,stimuli/Nonsocial3.png,stimuli/Nonsocial4.png,cs_pos_s,"(-0.7, -0.5)",,,,,,,,,0,0,0,0,,,,,,,,,,,,,1,8,24,5,,,,,,,,,,,,,,,,,,,,,,,,,,,,,,,,,,830.1026850000017,72,reward,1,0.583501699999033,0.583506099999795,830.6929450000025,,,,,,,,,,,,,,,,,,,,,,35,A,2024-05-15_13h20.52.872,attentional_competition_task,2022.2.4,144.08349927042383,
positions.xlsx,positions_test.xlsx,positions_test_new.xlsx,stimuli.xlsx,stimuli_new.xlsx,stimuli/Social1.png,stimuli/Social2.png,stimuli/Nonsocial1.png,stimuli/Nonsocial2.png,stimuli/Social3.png,stimuli/Social4.png,stimuli/Nonsocial3.png,stimuli/Nonsocial4.png,cs_pos_ns,"(-0.7, 0.5)",,,,,,,,,0,0,0,0,,,,,,,,,,,,,1,9,25,12,,,,,,,,,,,,,,,,,,,,,,,,,,,,,,,,,,838.5745421000029,75,reward,1,0.5765055000010761,0.576510099999723,839.1578730000001,,,,,,,,,,,,,,,,,,,,,,35,A,2024-05-15_13h20.52.872,attentional_competition_task,2022.2.4,144.08349927042383,
positions.xlsx,positions_test.xlsx,positions_test_new.xlsx,stimuli.xlsx,stimuli_new.xlsx,stimuli/Social1.png,stimuli/Social2.png,stimuli/Nonsocial1.png,stimuli/Nonsocial2.png,stimuli/Social3.png,stimuli/Social4.png,stimuli/Nonsocial3.png,stimuli/Nonsocial4.png,cs_neg_ns,"(0.7, 0.5)",,,,,,,,,0,0,0,0,,,,,,,,,,,,,1,10,26,10,,,,,,,,,,,,,,,,,,,,,,,,,,,,,,,,,,846.9908668000026,75,none,0,,,850.0047456000029,,,,,,,,,,,,,,,,,,,,,,35,A,2024-05-15_13h20.52.872,attentional_competition_task,2022.2.4,144.08349927042383,
positions.xlsx,positions_test.xlsx,positions_test_new.xlsx,stimuli.xlsx,stimuli_new.xlsx,stimuli/Social1.png,stimuli/Social2.png,stimuli/Nonsocial1.png,stimuli/Nonsocial2.png,stimuli/Social3.png,stimuli/Social4.png,stimuli/Nonsocial3.png,stimuli/Nonsocial4.png,cs_neg_ns,"(-0.7, -0.5)",,,,,,,,,0,0,0,0,,,,,,,,,,,,,1,11,27,9,,,,,,,,,,,,,,,,,,,,,,,,,,,,,,,,,,858.0320939000012,75,none,0,,,861.0458694000008,,,,,,,,,,,,,,,,,,,,,,35,A,2024-05-15_13h20.52.872,attentional_competition_task,2022.2.4,144.08349927042383,
positions.xlsx,positions_test.xlsx,positions_test_new.xlsx,stimuli.xlsx,stimuli_new.xlsx,stimuli/Social1.png,stimuli/Social2.png,stimuli/Nonsocial1.png,stimuli/Nonsocial2.png,stimuli/Social3.png,stimuli/Social4.png,stimuli/Nonsocial3.png,stimuli/Nonsocial4.png,cs_neg_s,"(-0.7, 0.5)",,,,,,,,,0,0,0,0,,,,,,,,,,,,,1,12,28,0,,,,,,,,,,,,,,,,,,,,,,,,,,,,,,,,,,868.1289112000013,75,none,0,,,871.1357462000014,,,,,,,,,,,,,,,,,,,,,,35,A,2024-05-15_13h20.52.872,attentional_competition_task,2022.2.4,144.08349927042383,
positions.xlsx,positions_test.xlsx,positions_test_new.xlsx,stimuli.xlsx,stimuli_new.xlsx,stimuli/Social1.png,stimuli/Social2.png,stimuli/Nonsocial1.png,stimuli/Nonsocial2.png,stimuli/Social3.png,stimuli/Social4.png,stimuli/Nonsocial3.png,stimuli/Nonsocial4.png,cs_pos_ns,"(0.7, 0.5)",,,,,,,,,0,0,0,0,,,,,,,,,,,,,1,13,29,14,,,,,,,,,,,,,,,,,,,,,,,,,,,,,,,,,,878.6285181000021,78,reward,1,0.6255511000017577,0.6255555999996432,879.2673987000016,,,,,,,,,,,,,,,,,,,,,,35,A,2024-05-15_13h20.52.872,attentional_competition_task,2022.2.4,144.08349927042383,
positions.xlsx,positions_test.xlsx,positions_test_new.xlsx,stimuli.xlsx,stimuli_new.xlsx,stimuli/Social1.png,stimuli/Social2.png,stimuli/Nonsocial1.png,stimuli/Nonsocial2.png,stimuli/Social3.png,stimuli/Social4.png,stimuli/Nonsocial3.png,stimuli/Nonsocial4.png,cs_neg_s,"(0.7, -0.5)",,,,,,,,,0,0,0,0,,,,,,,,,,,,,1,14,30,3,,,,,,,,,,,,,,,,,,,,,,,,,,,,,,,,,,886.6281488000022,78,none,0,,,889.6350428000005,,,,,,,,,,,,,,,,,,,,,,35,A,2024-05-15_13h20.52.872,attentional_competition_task,2022.2.4,144.08349927042383,
positions.xlsx,positions_test.xlsx,positions_test_new.xlsx,stimuli.xlsx,stimuli_new.xlsx,stimuli/Social1.png,stimuli/Social2.png,stimuli/Nonsocial1.png,stimuli/Nonsocial2.png,stimuli/Social3.png,stimuli/Social4.png,stimuli/Nonsocial3.png,stimuli/Nonsocial4.png,cs_pos_s,"(-0.7, 0.5)",,,,,,,,,0,0,0,0,,,,,,,,,,,,,1,15,31,4,,,,,,,,,,,,,,,,,,,,,,,,,,,,,,,,,,897.4819027000012,81,reward,1,0.6113962999988871,0.6114006999996491,898.0999461000029,,,,,,,,,,,,,,,,,,,,,,35,A,2024-05-15_13h20.52.872,attentional_competition_task,2022.2.4,144.08349927042383,
positions.xlsx,positions_test.xlsx,positions_test_new.xlsx,stimuli.xlsx,stimuli_new.xlsx,stimuli/Social1.png,stimuli/Social2.png,stimuli/Nonsocial1.png,stimuli/Nonsocial2.png,stimuli/Social3.png,stimuli/Social4.png,stimuli/Nonsocial3.png,stimuli/Nonsocial4.png,cs_neg_ns,,,,,,,,,,0,0,0,0,,,,,,,,,,,,,,,,,0,0,0,1,,,,,,,,,,,,,,,,,,,,,,,902.9400677000012,5.0,10.31665939999948,,,,,,,,,,,,,,,,,,,,,,,,,,,,,,,,,35,A,2024-05-15_13h20.52.872,attentional_competition_task,2022.2.4,144.08349927042383,
positions.xlsx,positions_test.xlsx,positions_test_new.xlsx,stimuli.xlsx,stimuli_new.xlsx,stimuli/Social1.png,stimuli/Social2.png,stimuli/Nonsocial1.png,stimuli/Nonsocial2.png,stimuli/Social3.png,stimuli/Social4.png,stimuli/Nonsocial3.png,stimuli/Nonsocial4.png,cs_pos_s,,,,,,,,,,0,0,0,0,,,,,,,,,,,,,,,,,0,1,1,2,,,,,,,,,,,,,,,,,,,,,,,913.8076567000026,7.0,7.44015489999947,,,,,,,,,,,,,,,,,,,,,,,,,,,,,,,,,35,A,2024-05-15_13h20.52.872,attentional_competition_task,2022.2.4,144.08349927042383,
positions.xlsx,positions_test.xlsx,positions_test_new.xlsx,stimuli.xlsx,stimuli_new.xlsx,stimuli/Social1.png,stimuli/Social2.png,stimuli/Nonsocial1.png,stimuli/Nonsocial2.png,stimuli/Social3.png,stimuli/Social4.png,stimuli/Nonsocial3.png,stimuli/Nonsocial4.png,cs_pos_ns,,,,,,,,,,0,0,0,0,,,,,,,,,,,,,,,,,0,2,2,3,,,,,,,,,,,,,,,,,,,,,,,921.6893015000023,7.0,6.097694900003262,,,,,,,,,,,,,,,,,,,,,,,,,,,,,,,,,35,A,2024-05-15_13h20.52.872,attentional_competition_task,2022.2.4,144.08349927042383,
positions.xlsx,positions_test.xlsx,positions_test_new.xlsx,stimuli.xlsx,stimuli_new.xlsx,stimuli/Social1.png,stimuli/Social2.png,stimuli/Nonsocial1.png,stimuli/Nonsocial2.png,stimuli/Social3.png,stimuli/Social4.png,stimuli/Nonsocial3.png,stimuli/Nonsocial4.png,cs_neg_s,,,,,,,,,,0,0,0,0,,,,,,,,,,,,,,,,,0,3,3,0,,,,,,,,,,,,,,,,,,,,,,,928.244588900001,5.0,3.023178300001746,,,,,,,,,,,,,,,,,,,,,,,,,,,,,,,,,35,A,2024-05-15_13h20.52.872,attentional_competition_task,2022.2.4,144.08349927042383,
positions.xlsx,positions_test.xlsx,positions_test_new.xlsx,stimuli.xlsx,stimuli_new.xlsx,stimuli/Social1.png,stimuli/Social2.png,stimuli/Nonsocial1.png,stimuli/Nonsocial2.png,stimuli/Social3.png,stimuli/Social4.png,stimuli/Nonsocial3.png,stimuli/Nonsocial4.png,,,"(-0.7, -0.5)",cs_pos_s,"(-0.7, 0.5)",cs_neg_ns,"(0.7, -0.5)",cs_pos_ns,"(0.7, 0.5)",cs_neg_s,0,0,0,0,,,,,,,,,,,,,,,,,,,,,0,0,0,9,,,,,,,,,,,,,,,,,,,,,,,,,,,75,loss,,,,,932.7027433000003,942.1884726000026,942.1884726000026,942.1884726000026,942.1884726000026,0,,,0,,,0,,,1,0.052068500001041684,0.05207289999816567,942.2510175000025,942.2510175000025,942.2510175000025,942.2510175000025,35,A,2024-05-15_13h20.52.872,attentional_competition_task,2022.2.4,144.08349927042383,
positions.xlsx,positions_test.xlsx,positions_test_new.xlsx,stimuli.xlsx,stimuli_new.xlsx,stimuli/Social1.png,stimuli/Social2.png,stimuli/Nonsocial1.png,stimuli/Nonsocial2.png,stimuli/Social3.png,stimuli/Social4.png,stimuli/Nonsocial3.png,stimuli/Nonsocial4.png,,,"(-0.7, -0.5)",cs_pos_s,"(-0.7, 0.5)",cs_neg_s,"(0.7, -0.5)",cs_pos_ns,"(0.7, 0.5)",cs_neg_ns,0,0,0,0,,,,,,,,,,,,,,,,,,,,,0,1,1,7,,,,,,,,,,,,,,,,,,,,,,,,,,,84,reward,,,,,,950.6742254000019,950.6742254000019,950.6742254000019,950.6742254000019,0,,,0,,,0,,,0,,,951.4033949000004,951.4033949000004,951.4033949000004,951.4033949000004,35,A,2024-05-15_13h20.52.872,attentional_competition_task,2022.2.4,144.08349927042383,
positions.xlsx,positions_test.xlsx,positions_test_new.xlsx,stimuli.xlsx,stimuli_new.xlsx,stimuli/Social1.png,stimuli/Social2.png,stimuli/Nonsocial1.png,stimuli/Nonsocial2.png,stimuli/Social3.png,stimuli/Social4.png,stimuli/Nonsocial3.png,stimuli/Nonsocial4.png,,,"(-0.7, -0.5)",cs_neg_s,"(-0.7, 0.5)",cs_neg_ns,"(0.7, -0.5)",cs_pos_ns,"(0.7, 0.5)",cs_pos_s,0,0,0,0,,,,,,,,,,,,,,,,,,,,,0,2,2,3,,,,,,,,,,,,,,,,,,,,,,,,,,,93,reward,,,,,,958.826738900003,958.826738900003,958.826738900003,958.826738900003,0,,,0,,,0,,,0,,,959.6391712000004,959.6391712000004,959.6391712000004,959.6391712000004,35,A,2024-05-15_13h20.52.872,attentional_competition_task,2022.2.4,144.08349927042383,
positions.xlsx,positions_test.xlsx,positions_test_new.xlsx,stimuli.xlsx,stimuli_new.xlsx,stimuli/Social1.png,stimuli/Social2.png,stimuli/Nonsocial1.png,stimuli/Nonsocial2.png,stimuli/Social3.png,stimuli/Social4.png,stimuli/Nonsocial3.png,stimuli/Nonsocial4.png,,,"(-0.7, -0.5)",cs_pos_ns,"(-0.7, 0.5)",cs_neg_s,"(0.7, -0.5)",cs_pos_s,"(0.7, 0.5)",cs_neg_ns,0,0,0,0,,,,,,,,,,,,,,,,,,,,,0,3,3,22,,,,,,,,,,,,,,,,,,,,,,,,,,,99,reward,,,,,,967.4791042000033,967.4791042000033,967.4791042000033,967.4791042000033,0,,,0,,,1,0.029932299999927636,0.029936900002212496,0,,,967.4791042000033,967.4791042000033,967.4791042000033,967.4791042000033,35,A,2024-05-15_13h20.52.872,attentional_competition_task,2022.2.4,144.08349927042383,
positions.xlsx,positions_test.xlsx,positions_test_new.xlsx,stimuli.xlsx,stimuli_new.xlsx,stimuli/Social1.png,stimuli/Social2.png,stimuli/Nonsocial1.png,stimuli/Nonsocial2.png,stimuli/Social3.png,stimuli/Social4.png,stimuli/Nonsocial3.png,stimuli/Nonsocial4.png,,,"(-0.7, -0.5)",cs_neg_ns,"(-0.7, 0.5)",cs_pos_s,"(0.7, -0.5)",cs_pos_ns,"(0.7, 0.5)",cs_neg_s,0,0,0,0,,,,,,,,,,,,,,,,,,,,,0,4,4,13,,,,,,,,,,,,,,,,,,,,,,,,,,,108,reward,,,,,,976.1454553000003,976.1454553000003,976.1454553000003,976.1454553000003,0,,,0,,,0,,,0,,,976.6940496000025,976.6940496000025,976.6940496000025,976.6940496000025,35,A,2024-05-15_13h20.52.872,attentional_competition_task,2022.2.4,144.08349927042383,
positions.xlsx,positions_test.xlsx,positions_test_new.xlsx,stimuli.xlsx,stimuli_new.xlsx,stimuli/Social1.png,stimuli/Social2.png,stimuli/Nonsocial1.png,stimuli/Nonsocial2.png,stimuli/Social3.png,stimuli/Social4.png,stimuli/Nonsocial3.png,stimuli/Nonsocial4.png,,,"(-0.7, -0.5)",cs_neg_ns,"(-0.7, 0.5)",cs_neg_s,"(0.7, -0.5)",cs_pos_ns,"(0.7, 0.5)",cs_pos_s,0,0,0,0,,,,,,,,,,,,,,,,,,,,,0,5,5,15,,,,,,,,,,,,,,,,,,,,,,,,,,,117,reward,,,,,,984.6867515000013,984.6867515000013,984.6867515000013,984.6867515000013,0,,,0,,,0,,,0,,,985.4923082000023,985.4923082000023,985.4923082000023,985.4923082000023,35,A,2024-05-15_13h20.52.872,attentional_competition_task,2022.2.4,144.08349927042383,
positions.xlsx,positions_test.xlsx,positions_test_new.xlsx,stimuli.xlsx,stimuli_new.xlsx,stimuli/Social1.png,stimuli/Social2.png,stimuli/Nonsocial1.png,stimuli/Nonsocial2.png,stimuli/Social3.png,stimuli/Social4.png,stimuli/Nonsocial3.png,stimuli/Nonsocial4.png,,,"(-0.7, -0.5)",cs_neg_s,"(-0.7, 0.5)",cs_pos_ns,"(0.7, -0.5)",cs_neg_ns,"(0.7, 0.5)",cs_pos_s,0,0,0,0,,,,,,,,,,,,,,,,,,,,,0,6,6,5,,,,,,,,,,,,,,,,,,,,,,,,,,,123,reward,,,,,,993.3808479000036,993.3808479000036,993.3808479000036,993.3808479000036,0,,,0,,,0,,,1,0.024217400001361966,0.02422179999848595,993.3808479000036,993.3808479000036,993.3808479000036,993.3808479000036,35,A,2024-05-15_13h20.52.872,attentional_competition_task,2022.2.4,144.08349927042383,
positions.xlsx,positions_test.xlsx,positions_test_new.xlsx,stimuli.xlsx,stimuli_new.xlsx,stimuli/Social1.png,stimuli/Social2.png,stimuli/Nonsocial1.png,stimuli/Nonsocial2.png,stimuli/Social3.png,stimuli/Social4.png,stimuli/Nonsocial3.png,stimuli/Nonsocial4.png,,,"(-0.7, -0.5)",cs_pos_ns,"(-0.7, 0.5)",cs_neg_s,"(0.7, -0.5)",cs_neg_ns,"(0.7, 0.5)",cs_pos_s,0,0,0,0,,,,,,,,,,,,,,,,,,,,,0,7,7,23,,,,,,,,,,,,,,,,,,,,,,,,,,,132,reward,,,,,,1001.7347129000009,1001.7347129000009,1001.7347129000009,1001.7347129000009,0,,,0,,,0,,,0,,,1002.3596915000016,1002.3596915000016,1002.3596915000016,1002.3596915000016,35,A,2024-05-15_13h20.52.872,attentional_competition_task,2022.2.4,144.08349927042383,
positions.xlsx,positions_test.xlsx,positions_test_new.xlsx,stimuli.xlsx,stimuli_new.xlsx,stimuli/Social1.png,stimuli/Social2.png,stimuli/Nonsocial1.png,stimuli/Nonsocial2.png,stimuli/Social3.png,stimuli/Social4.png,stimuli/Nonsocial3.png,stimuli/Nonsocial4.png,,,"(-0.7, -0.5)",cs_neg_ns,"(-0.7, 0.5)",cs_neg_s,"(0.7, -0.5)",cs_pos_s,"(0.7, 0.5)",cs_pos_ns,0,0,0,0,,,,,,,,,,,,,,,,,,,,,0,8,8,14,,,,,,,,,,,,,,,,,,,,,,,,,,,141,reward,,,,,,1010.6440700000021,1010.6440700000021,1010.6440700000021,1010.6440700000021,0,,,0,,,0,,,0,,,1011.5190410000032,1011.5190410000032,1011.5190410000032,1011.5190410000032,35,A,2024-05-15_13h20.52.872,attentional_competition_task,2022.2.4,144.08349927042383,
positions.xlsx,positions_test.xlsx,positions_test_new.xlsx,stimuli.xlsx,stimuli_new.xlsx,stimuli/Social1.png,stimuli/Social2.png,stimuli/Nonsocial1.png,stimuli/Nonsocial2.png,stimuli/Social3.png,stimuli/Social4.png,stimuli/Nonsocial3.png,stimuli/Nonsocial4.png,,,"(-0.7, -0.5)",cs_pos_s,"(-0.7, 0.5)",cs_pos_ns,"(0.7, -0.5)",cs_neg_ns,"(0.7, 0.5)",cs_neg_s,0,0,0,0,,,,,,,,,,,,,,,,,,,,,0,9,9,11,,,,,,,,,,,,,,,,,,,,,,,,,,,150,reward,,,,,,1020.1229069000001,1020.1229069000001,1020.1229069000001,1020.1229069000001,0,,,0,,,0,,,0,,,1020.7478391000004,1020.7478391000004,1020.7478391000004,1020.7478391000004,35,A,2024-05-15_13h20.52.872,attentional_competition_task,2022.2.4,144.08349927042383,
positions.xlsx,positions_test.xlsx,positions_test_new.xlsx,stimuli.xlsx,stimuli_new.xlsx,stimuli/Social1.png,stimuli/Social2.png,stimuli/Nonsocial1.png,stimuli/Nonsocial2.png,stimuli/Social3.png,stimuli/Social4.png,stimuli/Nonsocial3.png,stimuli/Nonsocial4.png,,,"(-0.7, -0.5)",cs_neg_s,"(-0.7, 0.5)",cs_pos_ns,"(0.7, -0.5)",cs_pos_s,"(0.7, 0.5)",cs_neg_ns,0,0,0,0,,,,,,,,,,,,,,,,,,,,,0,10,10,4,,,,,,,,,,,,,,,,,,,,,,,,,,,159,reward,,,,,,1028.6364304000017,1028.6364304000017,1028.6364304000017,1028.6364304000017,0,,,0,,,0,,,0,,,1029.3100008000001,1029.3100008000001,1029.3100008000001,1029.3100008000001,35,A,2024-05-15_13h20.52.872,attentional_competition_task,2022.2.4,144.08349927042383,
positions.xlsx,positions_test.xlsx,positions_test_new.xlsx,stimuli.xlsx,stimuli_new.xlsx,stimuli/Social1.png,stimuli/Social2.png,stimuli/Nonsocial1.png,stimuli/Nonsocial2.png,stimuli/Social3.png,stimuli/Social4.png,stimuli/Nonsocial3.png,stimuli/Nonsocial4.png,,,"(-0.7, -0.5)",cs_neg_s,"(-0.7, 0.5)",cs_pos_s,"(0.7, -0.5)",cs_pos_ns,"(0.7, 0.5)",cs_neg_ns,0,0,0,0,,,,,,,,,,,,,,,,,,,,,0,11,11,1,,,,,,,,,,,,,,,,,,,,,,,,,,,168,reward,,,,,,1038.0665977000026,1038.0665977000026,1038.0665977000026,1038.0665977000026,0,,,0,,,0,,,0,,,1038.6290627000017,1038.6290627000017,1038.6290627000017,1038.6290627000017,35,A,2024-05-15_13h20.52.872,attentional_competition_task,2022.2.4,144.08349927042383,
positions.xlsx,positions_test.xlsx,positions_test_new.xlsx,stimuli.xlsx,stimuli_new.xlsx,stimuli/Social1.png,stimuli/Social2.png,stimuli/Nonsocial1.png,stimuli/Nonsocial2.png,stimuli/Social3.png,stimuli/Social4.png,stimuli/Nonsocial3.png,stimuli/Nonsocial4.png,,,"(-0.7, -0.5)",cs_pos_s,"(-0.7, 0.5)",cs_neg_s,"(0.7, -0.5)",cs_neg_ns,"(0.7, 0.5)",cs_pos_ns,0,0,0,0,,,,,,,,,,,,,,,,,,,,,0,12,12,6,,,,,,,,,,,,,,,,,,,,,,,,,,,177,reward,,,,,,1046.6565384000023,1046.6565384000023,1046.6565384000023,1046.6565384000023,0,,,0,,,0,,,0,,,1047.3579446000003,1047.3579446000003,1047.3579446000003,1047.3579446000003,35,A,2024-05-15_13h20.52.872,attentional_competition_task,2022.2.4,144.08349927042383,
positions.xlsx,positions_test.xlsx,positions_test_new.xlsx,stimuli.xlsx,stimuli_new.xlsx,stimuli/Social1.png,stimuli/Social2.png,stimuli/Nonsocial1.png,stimuli/Nonsocial2.png,stimuli/Social3.png,stimuli/Social4.png,stimuli/Nonsocial3.png,stimuli/Nonsocial4.png,,,"(-0.7, -0.5)",cs_neg_ns,"(-0.7, 0.5)",cs_pos_s,"(0.7, -0.5)",cs_neg_s,"(0.7, 0.5)",cs_pos_ns,0,0,0,0,,,,,,,,,,,,,,,,,,,,,0,13,13,12,,,,,,,,,,,,,,,,,,,,,,,,,,,186,reward,,,,,,1054.975649600001,1054.975649600001,1054.975649600001,1054.975649600001,0,,,0,,,0,,,0,,,1055.586722600001,1055.586722600001,1055.586722600001,1055.586722600001,35,A,2024-05-15_13h20.52.872,attentional_competition_task,2022.2.4,144.08349927042383,
positions.xlsx,positions_test.xlsx,positions_test_new.xlsx,stimuli.xlsx,stimuli_new.xlsx,stimuli/Social1.png,stimuli/Social2.png,stimuli/Nonsocial1.png,stimuli/Nonsocial2.png,stimuli/Social3.png,stimuli/Social4.png,stimuli/Nonsocial3.png,stimuli/Nonsocial4.png,,,"(-0.7, -0.5)",cs_neg_s,"(-0.7, 0.5)",cs_neg_ns,"(0.7, -0.5)",cs_pos_s,"(0.7, 0.5)",cs_pos_ns,0,0,0,0,,,,,,,,,,,,,,,,,,,,,0,14,14,2,,,,,,,,,,,,,,,,,,,,,,,,,,,195,reward,,,,,,1062.718369000002,1062.718369000002,1062.718369000002,1062.718369000002,0,,,0,,,0,,,0,,,1063.468352400003,1063.468352400003,1063.468352400003,1063.468352400003,35,A,2024-05-15_13h20.52.872,attentional_competition_task,2022.2.4,144.08349927042383,
positions.xlsx,positions_test.xlsx,positions_test_new.xlsx,stimuli.xlsx,stimuli_new.xlsx,stimuli/Social1.png,stimuli/Social2.png,stimuli/Nonsocial1.png,stimuli/Nonsocial2.png,stimuli/Social3.png,stimuli/Social4.png,stimuli/Nonsocial3.png,stimuli/Nonsocial4.png,,,"(-0.7, -0.5)",cs_neg_ns,"(-0.7, 0.5)",cs_pos_ns,"(0.7, -0.5)",cs_pos_s,"(0.7, 0.5)",cs_neg_s,0,0,0,0,,,,,,,,,,,,,,,,,,,,,0,15,15,16,,,,,,,,,,,,,,,,,,,,,,,,,,,201,reward,,,,,,1071.1971761000023,1071.1971761000023,1071.1971761000023,1071.1971761000023,0,,,0,,,1,0.03060650000043097,0.03061090000119293,0,,,1071.1971761000023,1071.1971761000023,1071.1971761000023,1071.1971761000023,35,A,2024-05-15_13h20.52.872,attentional_competition_task,2022.2.4,144.08349927042383,
positions.xlsx,positions_test.xlsx,positions_test_new.xlsx,stimuli.xlsx,stimuli_new.xlsx,stimuli/Social1.png,stimuli/Social2.png,stimuli/Nonsocial1.png,stimuli/Nonsocial2.png,stimuli/Social3.png,stimuli/Social4.png,stimuli/Nonsocial3.png,stimuli/Nonsocial4.png,,,"(-0.7, -0.5)",cs_neg_s,"(-0.7, 0.5)",cs_pos_s,"(0.7, -0.5)",cs_neg_ns,"(0.7, 0.5)",cs_pos_ns,0,0,0,0,,,,,,,,,,,,,,,,,,,,,0,16,16,0,,,,,,,,,,,,,,,,,,,,,,,,,,,210,reward,,,,,,1079.634363600002,1079.634363600002,1079.634363600002,1079.634363600002,0,,,0,,,0,,,0,,,1080.210740800001,1080.210740800001,1080.210740800001,1080.210740800001,35,A,2024-05-15_13h20.52.872,attentional_competition_task,2022.2.4,144.08349927042383,
positions.xlsx,positions_test.xlsx,positions_test_new.xlsx,stimuli.xlsx,stimuli_new.xlsx,stimuli/Social1.png,stimuli/Social2.png,stimuli/Nonsocial1.png,stimuli/Nonsocial2.png,stimuli/Social3.png,stimuli/Social4.png,stimuli/Nonsocial3.png,stimuli/Nonsocial4.png,,,"(-0.7, -0.5)",cs_pos_ns,"(-0.7, 0.5)",cs_neg_ns,"(0.7, -0.5)",cs_neg_s,"(0.7, 0.5)",cs_pos_s,0,0,0,0,,,,,,,,,,,,,,,,,,,,,0,17,17,21,,,,,,,,,,,,,,,,,,,,,,,,,,,219,reward,,,,,,1087.6479306,1087.6479306,1087.6479306,1087.6479306,0,,,0,,,0,,,0,,,1088.3701309000026,1088.3701309000026,1088.3701309000026,1088.3701309000026,35,A,2024-05-15_13h20.52.872,attentional_competition_task,2022.2.4,144.08349927042383,
positions.xlsx,positions_test.xlsx,positions_test_new.xlsx,stimuli.xlsx,stimuli_new.xlsx,stimuli/Social1.png,stimuli/Social2.png,stimuli/Nonsocial1.png,stimuli/Nonsocial2.png,stimuli/Social3.png,stimuli/Social4.png,stimuli/Nonsocial3.png,stimuli/Nonsocial4.png,,,"(-0.7, -0.5)",cs_pos_ns,"(-0.7, 0.5)",cs_pos_s,"(0.7, -0.5)",cs_neg_ns,"(0.7, 0.5)",cs_neg_s,0,0,0,0,,,,,,,,,,,,,,,,,,,,,0,18,18,18,,,,,,,,,,,,,,,,,,,,,,,,,,,228,reward,,,,,,1096.4878214000018,1096.4878214000018,1096.4878214000018,1096.4878214000018,0,,,0,,,0,,,0,,,1097.1822759000024,1097.1822759000024,1097.1822759000024,1097.1822759000024,35,A,2024-05-15_13h20.52.872,attentional_competition_task,2022.2.4,144.08349927042383,
positions.xlsx,positions_test.xlsx,positions_test_new.xlsx,stimuli.xlsx,stimuli_new.xlsx,stimuli/Social1.png,stimuli/Social2.png,stimuli/Nonsocial1.png,stimuli/Nonsocial2.png,stimuli/Social3.png,stimuli/Social4.png,stimuli/Nonsocial3.png,stimuli/Nonsocial4.png,,,"(-0.7, -0.5)",cs_neg_ns,"(-0.7, 0.5)",cs_pos_ns,"(0.7, -0.5)",cs_neg_s,"(0.7, 0.5)",cs_pos_s,0,0,0,0,,,,,,,,,,,,,,,,,,,,,0,19,19,17,,,,,,,,,,,,,,,,,,,,,,,,,,,237,reward,,,,,,1104.758340700002,1104.758340700002,1104.758340700002,1104.758340700002,0,,,0,,,0,,,0,,,1105.4874991000033,1105.4874991000033,1105.4874991000033,1105.4874991000033,35,A,2024-05-15_13h20.52.872,attentional_competition_task,2022.2.4,144.08349927042383,
positions.xlsx,positions_test.xlsx,positions_test_new.xlsx,stimuli.xlsx,stimuli_new.xlsx,stimuli/Social1.png,stimuli/Social2.png,stimuli/Nonsocial1.png,stimuli/Nonsocial2.png,stimuli/Social3.png,stimuli/Social4.png,stimuli/Nonsocial3.png,stimuli/Nonsocial4.png,,,"(-0.7, -0.5)",cs_pos_ns,"(-0.7, 0.5)",cs_pos_s,"(0.7, -0.5)",cs_neg_s,"(0.7, 0.5)",cs_neg_ns,0,0,0,0,,,,,,,,,,,,,,,,,,,,,0,20,20,19,,,,,,,,,,,,,,,,,,,,,,,,,,,246,reward,,,,,,1113.9663426000006,1113.9663426000006,1113.9663426000006,1113.9663426000006,0,,,0,,,0,,,0,,,1114.535752300002,1114.535752300002,1114.535752300002,1114.535752300002,35,A,2024-05-15_13h20.52.872,attentional_competition_task,2022.2.4,144.08349927042383,
positions.xlsx,positions_test.xlsx,positions_test_new.xlsx,stimuli.xlsx,stimuli_new.xlsx,stimuli/Social1.png,stimuli/Social2.png,stimuli/Nonsocial1.png,stimuli/Nonsocial2.png,stimuli/Social3.png,stimuli/Social4.png,stimuli/Nonsocial3.png,stimuli/Nonsocial4.png,,,"(-0.7, -0.5)",cs_pos_ns,"(-0.7, 0.5)",cs_neg_ns,"(0.7, -0.5)",cs_pos_s,"(0.7, 0.5)",cs_neg_s,0,0,0,0,,,,,,,,,,,,,,,,,,,,,0,21,21,20,,,,,,,,,,,,,,,,,,,,,,,,,,,255,reward,,,,,,1122.472902900001,1122.472902900001,1122.472902900001,1122.472902900001,0,,,0,,,0,,,0,,,1123.2506807000027,1123.2506807000027,1123.2506807000027,1123.2506807000027,35,A,2024-05-15_13h20.52.872,attentional_competition_task,2022.2.4,144.08349927042383,
positions.xlsx,positions_test.xlsx,positions_test_new.xlsx,stimuli.xlsx,stimuli_new.xlsx,stimuli/Social1.png,stimuli/Social2.png,stimuli/Nonsocial1.png,stimuli/Nonsocial2.png,stimuli/Social3.png,stimuli/Social4.png,stimuli/Nonsocial3.png,stimuli/Nonsocial4.png,,,"(-0.7, -0.5)",cs_pos_s,"(-0.7, 0.5)",cs_neg_ns,"(0.7, -0.5)",cs_neg_s,"(0.7, 0.5)",cs_pos_ns,0,0,0,0,,,,,,,,,,,,,,,,,,,,,0,22,22,8,,,,,,,,,,,,,,,,,,,,,,,,,,,264,reward,,,,,,1131.3684066000023,1131.3684066000023,1131.3684066000023,1131.3684066000023,0,,,0,,,0,,,0,,,1131.9794923000009,1131.9794923000009,1131.9794923000009,1131.9794923000009,35,A,2024-05-15_13h20.52.872,attentional_competition_task,2022.2.4,144.08349927042383,
positions.xlsx,positions_test.xlsx,positions_test_new.xlsx,stimuli.xlsx,stimuli_new.xlsx,stimuli/Social1.png,stimuli/Social2.png,stimuli/Nonsocial1.png,stimuli/Nonsocial2.png,stimuli/Social3.png,stimuli/Social4.png,stimuli/Nonsocial3.png,stimuli/Nonsocial4.png,,,"(-0.7, -0.5)",cs_pos_s,"(-0.7, 0.5)",cs_pos_ns,"(0.7, -0.5)",cs_neg_s,"(0.7, 0.5)",cs_neg_ns,0,0,0,0,,,,,,,,,,,,,,,,,,,,,0,23,23,10,,,,,,,,,,,,,,,,,,,,,,,,,,,273,reward,,,,,,1139.0069476000026,1139.0069476000026,1139.0069476000026,1139.0069476000026,0,,,0,,,0,,,0,,,1140.0069780000013,1140.0069780000013,1140.0069780000013,1140.0069780000013,35,A,2024-05-15_13h20.52.872,attentional_competition_task,2022.2.4,144.08349927042383,
positions.xlsx,positions_test.xlsx,positions_test_new.xlsx,stimuli.xlsx,stimuli_new.xlsx,stimuli/Social1.png,stimuli/Social2.png,stimuli/Nonsocial1.png,stimuli/Nonsocial2.png,stimuli/Social3.png,stimuli/Social4.png,stimuli/Nonsocial3.png,stimuli/Nonsocial4.png,,,"(-0.7, -0.5)",cs_pos_s,"(-0.7, 0.5)",cs_neg_ns,"(0.7, -0.5)",cs_neg_s,"(0.7, 0.5)",cs_pos_ns,0,0,0,0,,,,,,,,,,,,,,,,,,,,,1,0,24,8,,,,,,,,,,,,,,,,,,,,,,,,,,,282,reward,,,,,,1146.9580350000033,1146.9580350000033,1146.9580350000033,1146.9580350000033,0,,,0,,,0,,,0,,,1147.8608009000018,1147.8608009000018,1147.8608009000018,1147.8608009000018,35,A,2024-05-15_13h20.52.872,attentional_competition_task,2022.2.4,144.08349927042383,
positions.xlsx,positions_test.xlsx,positions_test_new.xlsx,stimuli.xlsx,stimuli_new.xlsx,stimuli/Social1.png,stimuli/Social2.png,stimuli/Nonsocial1.png,stimuli/Nonsocial2.png,stimuli/Social3.png,stimuli/Social4.png,stimuli/Nonsocial3.png,stimuli/Nonsocial4.png,,,"(-0.7, -0.5)",cs_neg_s,"(-0.7, 0.5)",cs_pos_s,"(0.7, -0.5)",cs_pos_ns,"(0.7, 0.5)",cs_neg_ns,0,0,0,0,,,,,,,,,,,,,,,,,,,,,1,1,25,1,,,,,,,,,,,,,,,,,,,,,,,,,,,288,reward,,,,,,1155.8396558000022,1155.8396558000022,1155.8396558000022,1155.8396558000022,0,,,0,,,1,0.24622610000005807,0.24623009999777423,0,,,1156.0896059000006,1156.0896059000006,1156.0896059000006,1156.0896059000006,35,A,2024-05-15_13h20.52.872,attentional_competition_task,2022.2.4,144.08349927042383,
positions.xlsx,positions_test.xlsx,positions_test_new.xlsx,stimuli.xlsx,stimuli_new.xlsx,stimuli/Social1.png,stimuli/Social2.png,stimuli/Nonsocial1.png,stimuli/Nonsocial2.png,stimuli/Social3.png,stimuli/Social4.png,stimuli/Nonsocial3.png,stimuli/Nonsocial4.png,,,"(-0.7, -0.5)",cs_neg_s,"(-0.7, 0.5)",cs_pos_ns,"(0.7, -0.5)",cs_pos_s,"(0.7, 0.5)",cs_neg_ns,0,0,0,0,,,,,,,,,,,,,,,,,,,,,1,2,26,4,,,,,,,,,,,,,,,,,,,,,,,,,,,297,reward,,,,,,1164.5754026000031,1164.5754026000031,1164.5754026000031,1164.5754026000031,0,,,0,,,0,,,0,,,1165.2837476000022,1165.2837476000022,1165.2837476000022,1165.2837476000022,35,A,2024-05-15_13h20.52.872,attentional_competition_task,2022.2.4,144.08349927042383,
positions.xlsx,positions_test.xlsx,positions_test_new.xlsx,stimuli.xlsx,stimuli_new.xlsx,stimuli/Social1.png,stimuli/Social2.png,stimuli/Nonsocial1.png,stimuli/Nonsocial2.png,stimuli/Social3.png,stimuli/Social4.png,stimuli/Nonsocial3.png,stimuli/Nonsocial4.png,,,"(-0.7, -0.5)",cs_pos_ns,"(-0.7, 0.5)",cs_neg_ns,"(0.7, -0.5)",cs_neg_s,"(0.7, 0.5)",cs_pos_s,0,0,0,0,,,,,,,,,,,,,,,,,,,,,1,3,27,21,,,,,,,,,,,,,,,,,,,,,,,,,,,306,reward,,,,,,1172.9916868,1172.9916868,1172.9916868,1172.9916868,0,,,0,,,0,,,0,,,1173.8389268000028,1173.8389268000028,1173.8389268000028,1173.8389268000028,35,A,2024-05-15_13h20.52.872,attentional_competition_task,2022.2.4,144.08349927042383,
positions.xlsx,positions_test.xlsx,positions_test_new.xlsx,stimuli.xlsx,stimuli_new.xlsx,stimuli/Social1.png,stimuli/Social2.png,stimuli/Nonsocial1.png,stimuli/Nonsocial2.png,stimuli/Social3.png,stimuli/Social4.png,stimuli/Nonsocial3.png,stimuli/Nonsocial4.png,,,"(-0.7, -0.5)",cs_pos_ns,"(-0.7, 0.5)",cs_neg_ns,"(0.7, -0.5)",cs_pos_s,"(0.7, 0.5)",cs_neg_s,0,0,0,0,,,,,,,,,,,,,,,,,,,,,1,4,28,20,,,,,,,,,,,,,,,,,,,,,,,,,,,303,loss,,,,,,1182.3733293000005,1182.3733293000005,1182.3733293000005,1182.3733293000005,0,,,0,,,0,,,0,,,1182.9218913000004,1182.9218913000004,1182.9218913000004,1182.9218913000004,35,A,2024-05-15_13h20.52.872,attentional_competition_task,2022.2.4,144.08349927042383,
positions.xlsx,positions_test.xlsx,positions_test_new.xlsx,stimuli.xlsx,stimuli_new.xlsx,stimuli/Social1.png,stimuli/Social2.png,stimuli/Nonsocial1.png,stimuli/Nonsocial2.png,stimuli/Social3.png,stimuli/Social4.png,stimuli/Nonsocial3.png,stimuli/Nonsocial4.png,,,"(-0.7, -0.5)",cs_pos_ns,"(-0.7, 0.5)",cs_pos_s,"(0.7, -0.5)",cs_neg_ns,"(0.7, 0.5)",cs_neg_s,0,0,0,0,,,,,,,,,,,,,,,,,,,,,1,5,29,18,,,,,,,,,,,,,,,,,,,,,,,,,,,309,reward,,,,,,1191.2201763000012,1191.2201763000012,1191.2201763000012,1191.2201763000012,0,,,1,0.02889130000039586,0.02889560000039637,0,,,0,,,1191.2201763000012,1191.2201763000012,1191.2201763000012,1191.2201763000012,35,A,2024-05-15_13h20.52.872,attentional_competition_task,2022.2.4,144.08349927042383,
positions.xlsx,positions_test.xlsx,positions_test_new.xlsx,stimuli.xlsx,stimuli_new.xlsx,stimuli/Social1.png,stimuli/Social2.png,stimuli/Nonsocial1.png,stimuli/Nonsocial2.png,stimuli/Social3.png,stimuli/Social4.png,stimuli/Nonsocial3.png,stimuli/Nonsocial4.png,,,"(-0.7, -0.5)",cs_neg_ns,"(-0.7, 0.5)",cs_neg_s,"(0.7, -0.5)",cs_pos_ns,"(0.7, 0.5)",cs_pos_s,0,0,0,0,,,,,,,,,,,,,,,,,,,,,1,6,30,15,,,,,,,,,,,,,,,,,,,,,,,,,,,318,reward,,,,,,1199.9281481000035,1199.9281481000035,1199.9281481000035,1199.9281481000035,0,,,0,,,0,,,0,,,1200.6156335000014,1200.6156335000014,1200.6156335000014,1200.6156335000014,35,A,2024-05-15_13h20.52.872,attentional_competition_task,2022.2.4,144.08349927042383,
positions.xlsx,positions_test.xlsx,positions_test_new.xlsx,stimuli.xlsx,stimuli_new.xlsx,stimuli/Social1.png,stimuli/Social2.png,stimuli/Nonsocial1.png,stimuli/Nonsocial2.png,stimuli/Social3.png,stimuli/Social4.png,stimuli/Nonsocial3.png,stimuli/Nonsocial4.png,,,"(-0.7, -0.5)",cs_pos_s,"(-0.7, 0.5)",cs_pos_ns,"(0.7, -0.5)",cs_neg_ns,"(0.7, 0.5)",cs_neg_s,0,0,0,0,,,,,,,,,,,,,,,,,,,,,1,7,31,11,,,,,,,,,,,,,,,,,,,,,,,,,,,327,reward,,,,,,1208.6291974000014,1208.6291974000014,1208.6291974000014,1208.6291974000014,0,,,0,,,0,,,0,,,1209.268074800002,1209.268074800002,1209.268074800002,1209.268074800002,35,A,2024-05-15_13h20.52.872,attentional_competition_task,2022.2.4,144.08349927042383,
positions.xlsx,positions_test.xlsx,positions_test_new.xlsx,stimuli.xlsx,stimuli_new.xlsx,stimuli/Social1.png,stimuli/Social2.png,stimuli/Nonsocial1.png,stimuli/Nonsocial2.png,stimuli/Social3.png,stimuli/Social4.png,stimuli/Nonsocial3.png,stimuli/Nonsocial4.png,,,"(-0.7, -0.5)",cs_pos_ns,"(-0.7, 0.5)",cs_neg_s,"(0.7, -0.5)",cs_pos_s,"(0.7, 0.5)",cs_neg_ns,0,0,0,0,,,,,,,,,,,,,,,,,,,,,1,8,32,22,,,,,,,,,,,,,,,,,,,,,,,,,,,336,reward,,,,,,1217.7399756000013,1217.7399756000013,1217.7399756000013,1217.7399756000013,0,,,0,,,0,,,0,,,1217.7399756000013,1217.7399756000013,1217.7399756000013,1217.7399756000013,35,A,2024-05-15_13h20.52.872,attentional_competition_task,2022.2.4,144.08349927042383,
positions.xlsx,positions_test.xlsx,positions_test_new.xlsx,stimuli.xlsx,stimuli_new.xlsx,stimuli/Social1.png,stimuli/Social2.png,stimuli/Nonsocial1.png,stimuli/Nonsocial2.png,stimuli/Social3.png,stimuli/Social4.png,stimuli/Nonsocial3.png,stimuli/Nonsocial4.png,,,"(-0.7, -0.5)",cs_neg_ns,"(-0.7, 0.5)",cs_pos_ns,"(0.7, -0.5)",cs_pos_s,"(0.7, 0.5)",cs_neg_s,0,0,0,0,,,,,,,,,,,,,,,,,,,,,1,9,33,16,,,,,,,,,,,,,,,,,,,,,,,,,,,345,reward,,,,,,1226.9548252000022,1226.9548252000022,1226.9548252000022,1226.9548252000022,0,,,0,,,0,,,0,,,1226.9548252000022,1226.9548252000022,1226.9548252000022,1226.9548252000022,35,A,2024-05-15_13h20.52.872,attentional_competition_task,2022.2.4,144.08349927042383,
positions.xlsx,positions_test.xlsx,positions_test_new.xlsx,stimuli.xlsx,stimuli_new.xlsx,stimuli/Social1.png,stimuli/Social2.png,stimuli/Nonsocial1.png,stimuli/Nonsocial2.png,stimuli/Social3.png,stimuli/Social4.png,stimuli/Nonsocial3.png,stimuli/Nonsocial4.png,,,"(-0.7, -0.5)",cs_neg_ns,"(-0.7, 0.5)",cs_pos_s,"(0.7, -0.5)",cs_pos_ns,"(0.7, 0.5)",cs_neg_s,0,0,0,0,,,,,,,,,,,,,,,,,,,,,1,10,34,13,,,,,,,,,,,,,,,,,,,,,,,,,,,354,reward,,,,,,1234.6767604000015,1234.6767604000015,1234.6767604000015,1234.6767604000015,0,,,0,,,0,,,0,,,1235.3364957000013,1235.3364957000013,1235.3364957000013,1235.3364957000013,35,A,2024-05-15_13h20.52.872,attentional_competition_task,2022.2.4,144.08349927042383,
positions.xlsx,positions_test.xlsx,positions_test_new.xlsx,stimuli.xlsx,stimuli_new.xlsx,stimuli/Social1.png,stimuli/Social2.png,stimuli/Nonsocial1.png,stimuli/Nonsocial2.png,stimuli/Social3.png,stimuli/Social4.png,stimuli/Nonsocial3.png,stimuli/Nonsocial4.png,,,"(-0.7, -0.5)",cs_pos_s,"(-0.7, 0.5)",cs_neg_ns,"(0.7, -0.5)",cs_pos_ns,"(0.7, 0.5)",cs_neg_s,0,0,0,0,,,,,,,,,,,,,,,,,,,,,1,11,35,9,,,,,,,,,,,,,,,,,,,,,,,,,,,363,reward,,,,,,1243.0444867000006,1243.0444867000006,1243.0444867000006,1243.0444867000006,0,,,0,,,0,,,0,,,1243.8222368000024,1243.8222368000024,1243.8222368000024,1243.8222368000024,35,A,2024-05-15_13h20.52.872,attentional_competition_task,2022.2.4,144.08349927042383,
positions.xlsx,positions_test.xlsx,positions_test_new.xlsx,stimuli.xlsx,stimuli_new.xlsx,stimuli/Social1.png,stimuli/Social2.png,stimuli/Nonsocial1.png,stimuli/Nonsocial2.png,stimuli/Social3.png,stimuli/Social4.png,stimuli/Nonsocial3.png,stimuli/Nonsocial4.png,,,"(-0.7, -0.5)",cs_pos_s,"(-0.7, 0.5)",cs_neg_s,"(0.7, -0.5)",cs_neg_ns,"(0.7, 0.5)",cs_pos_ns,0,0,0,0,,,,,,,,,,,,,,,,,,,,,1,12,36,6,,,,,,,,,,,,,,,,,,,,,,,,,,,372,reward,,,,,,1252.280201900001,1252.280201900001,1252.280201900001,1252.280201900001,0,,,0,,,0,,,0,,,1253.085749400001,1253.085749400001,1253.085749400001,1253.085749400001,35,A,2024-05-15_13h20.52.872,attentional_competition_task,2022.2.4,144.08349927042383,
positions.xlsx,positions_test.xlsx,positions_test_new.xlsx,stimuli.xlsx,stimuli_new.xlsx,stimuli/Social1.png,stimuli/Social2.png,stimuli/Nonsocial1.png,stimuli/Nonsocial2.png,stimuli/Social3.png,stimuli/Social4.png,stimuli/Nonsocial3.png,stimuli/Nonsocial4.png,,,"(-0.7, -0.5)",cs_pos_ns,"(-0.7, 0.5)",cs_neg_s,"(0.7, -0.5)",cs_neg_ns,"(0.7, 0.5)",cs_pos_s,0,0,0,0,,,,,,,,,,,,,,,,,,,,,1,13,37,23,,,,,,,,,,,,,,,,,,,,,,,,,,,381,reward,,,,,,1260.2521453000008,1260.2521453000008,1260.2521453000008,1260.2521453000008,0,,,0,,,0,,,0,,,1260.8979392,1260.8979392,1260.8979392,1260.8979392,35,A,2024-05-15_13h20.52.872,attentional_competition_task,2022.2.4,144.08349927042383,
positions.xlsx,positions_test.xlsx,positions_test_new.xlsx,stimuli.xlsx,stimuli_new.xlsx,stimuli/Social1.png,stimuli/Social2.png,stimuli/Nonsocial1.png,stimuli/Nonsocial2.png,stimuli/Social3.png,stimuli/Social4.png,stimuli/Nonsocial3.png,stimuli/Nonsocial4.png,,,"(-0.7, -0.5)",cs_pos_ns,"(-0.7, 0.5)",cs_pos_s,"(0.7, -0.5)",cs_neg_s,"(0.7, 0.5)",cs_neg_ns,0,0,0,0,,,,,,,,,,,,,,,,,,,,,1,14,38,19,,,,,,,,,,,,,,,,,,,,,,,,,,,390,reward,,,,,,1268.8906655000028,1268.8906655000028,1268.8906655000028,1268.8906655000028,0,,,0,,,0,,,0,,,1269.7795707000005,1269.7795707000005,1269.7795707000005,1269.7795707000005,35,A,2024-05-15_13h20.52.872,attentional_competition_task,2022.2.4,144.08349927042383,
positions.xlsx,positions_test.xlsx,positions_test_new.xlsx,stimuli.xlsx,stimuli_new.xlsx,stimuli/Social1.png,stimuli/Social2.png,stimuli/Nonsocial1.png,stimuli/Nonsocial2.png,stimuli/Social3.png,stimuli/Social4.png,stimuli/Nonsocial3.png,stimuli/Nonsocial4.png,,,"(-0.7, -0.5)",cs_neg_ns,"(-0.7, 0.5)",cs_neg_s,"(0.7, -0.5)",cs_pos_s,"(0.7, 0.5)",cs_pos_ns,0,0,0,0,,,,,,,,,,,,,,,,,,,,,1,15,39,14,,,,,,,,,,,,,,,,,,,,,,,,,,,399,reward,,,,,,1278.536135000002,1278.536135000002,1278.536135000002,1278.536135000002,0,,,0,,,0,,,0,,,1279.1055438000003,1279.1055438000003,1279.1055438000003,1279.1055438000003,35,A,2024-05-15_13h20.52.872,attentional_competition_task,2022.2.4,144.08349927042383,
positions.xlsx,positions_test.xlsx,positions_test_new.xlsx,stimuli.xlsx,stimuli_new.xlsx,stimuli/Social1.png,stimuli/Social2.png,stimuli/Nonsocial1.png,stimuli/Nonsocial2.png,stimuli/Social3.png,stimuli/Social4.png,stimuli/Nonsocial3.png,stimuli/Nonsocial4.png,,,"(-0.7, -0.5)",cs_neg_s,"(-0.7, 0.5)",cs_pos_ns,"(0.7, -0.5)",cs_neg_ns,"(0.7, 0.5)",cs_pos_s,0,0,0,0,,,,,,,,,,,,,,,,,,,,,1,16,40,5,,,,,,,,,,,,,,,,,,,,,,,,,,,408,reward,,,,,,1286.3413358000034,1286.3413358000034,1286.3413358000034,1286.3413358000034,0,,,0,,,0,,,0,,,1287.146893000001,1287.146893000001,1287.146893000001,1287.146893000001,35,A,2024-05-15_13h20.52.872,attentional_competition_task,2022.2.4,144.08349927042383,
positions.xlsx,positions_test.xlsx,positions_test_new.xlsx,stimuli.xlsx,stimuli_new.xlsx,stimuli/Social1.png,stimuli/Social2.png,stimuli/Nonsocial1.png,stimuli/Nonsocial2.png,stimuli/Social3.png,stimuli/Social4.png,stimuli/Nonsocial3.png,stimuli/Nonsocial4.png,,,"(-0.7, -0.5)",cs_pos_s,"(-0.7, 0.5)",cs_pos_ns,"(0.7, -0.5)",cs_neg_s,"(0.7, 0.5)",cs_neg_ns,0,0,0,0,,,,,,,,,,,,,,,,,,,,,1,17,41,10,,,,,,,,,,,,,,,,,,,,,,,,,,,417,reward,,,,,,1294.8549012000003,1294.8549012000003,1294.8549012000003,1294.8549012000003,0,,,0,,,0,,,0,,,1295.7090313000008,1295.7090313000008,1295.7090313000008,1295.7090313000008,35,A,2024-05-15_13h20.52.872,attentional_competition_task,2022.2.4,144.08349927042383,
positions.xlsx,positions_test.xlsx,positions_test_new.xlsx,stimuli.xlsx,stimuli_new.xlsx,stimuli/Social1.png,stimuli/Social2.png,stimuli/Nonsocial1.png,stimuli/Nonsocial2.png,stimuli/Social3.png,stimuli/Social4.png,stimuli/Nonsocial3.png,stimuli/Nonsocial4.png,,,"(-0.7, -0.5)",cs_neg_ns,"(-0.7, 0.5)",cs_pos_ns,"(0.7, -0.5)",cs_neg_s,"(0.7, 0.5)",cs_pos_s,0,0,0,0,,,,,,,,,,,,,,,,,,,,,1,18,42,17,,,,,,,,,,,,,,,,,,,,,,,,,,,426,reward,,,,,,1302.9934911000018,1302.9934911000018,1302.9934911000018,1302.9934911000018,0,,,0,,,0,,,0,,,1303.9309543000018,1303.9309543000018,1303.9309543000018,1303.9309543000018,35,A,2024-05-15_13h20.52.872,attentional_competition_task,2022.2.4,144.08349927042383,
positions.xlsx,positions_test.xlsx,positions_test_new.xlsx,stimuli.xlsx,stimuli_new.xlsx,stimuli/Social1.png,stimuli/Social2.png,stimuli/Nonsocial1.png,stimuli/Nonsocial2.png,stimuli/Social3.png,stimuli/Social4.png,stimuli/Nonsocial3.png,stimuli/Nonsocial4.png,,,"(-0.7, -0.5)",cs_neg_s,"(-0.7, 0.5)",cs_neg_ns,"(0.7, -0.5)",cs_pos_s,"(0.7, 0.5)",cs_pos_ns,0,0,0,0,,,,,,,,,,,,,,,,,,,,,1,19,43,2,,,,,,,,,,,,,,,,,,,,,,,,,,,435,reward,,,,,,1311.5487337000013,1311.5487337000013,1311.5487337000013,1311.5487337000013,0,,,0,,,0,,,0,,,1312.354235900002,1312.354235900002,1312.354235900002,1312.354235900002,35,A,2024-05-15_13h20.52.872,attentional_competition_task,2022.2.4,144.08349927042383,
positions.xlsx,positions_test.xlsx,positions_test_new.xlsx,stimuli.xlsx,stimuli_new.xlsx,stimuli/Social1.png,stimuli/Social2.png,stimuli/Nonsocial1.png,stimuli/Nonsocial2.png,stimuli/Social3.png,stimuli/Social4.png,stimuli/Nonsocial3.png,stimuli/Nonsocial4.png,,,"(-0.7, -0.5)",cs_pos_s,"(-0.7, 0.5)",cs_neg_s,"(0.7, -0.5)",cs_pos_ns,"(0.7, 0.5)",cs_neg_ns,0,0,0,0,,,,,,,,,,,,,,,,,,,,,1,20,44,7,,,,,,,,,,,,,,,,,,,,,,,,,,,444,reward,,,,,,1319.4233203000003,1319.4233203000003,1319.4233203000003,1319.4233203000003,0,,,0,,,0,,,0,,,1320.256678200003,1320.256678200003,1320.256678200003,1320.256678200003,35,A,2024-05-15_13h20.52.872,attentional_competition_task,2022.2.4,144.08349927042383,
positions.xlsx,positions_test.xlsx,positions_test_new.xlsx,stimuli.xlsx,stimuli_new.xlsx,stimuli/Social1.png,stimuli/Social2.png,stimuli/Nonsocial1.png,stimuli/Nonsocial2.png,stimuli/Social3.png,stimuli/Social4.png,stimuli/Nonsocial3.png,stimuli/Nonsocial4.png,,,"(-0.7, -0.5)",cs_neg_s,"(-0.7, 0.5)",cs_neg_ns,"(0.7, -0.5)",cs_pos_ns,"(0.7, 0.5)",cs_pos_s,0,0,0,0,,,,,,,,,,,,,,,,,,,,,1,21,45,3,,,,,,,,,,,,,,,,,,,,,,,,,,,453,reward,,,,,,1327.9230449000024,1327.9230449000024,1327.9230449000024,1327.9230449000024,0,,,0,,,0,,,0,,,1328.520239100002,1328.520239100002,1328.520239100002,1328.520239100002,35,A,2024-05-15_13h20.52.872,attentional_competition_task,2022.2.4,144.08349927042383,
positions.xlsx,positions_test.xlsx,positions_test_new.xlsx,stimuli.xlsx,stimuli_new.xlsx,stimuli/Social1.png,stimuli/Social2.png,stimuli/Nonsocial1.png,stimuli/Nonsocial2.png,stimuli/Social3.png,stimuli/Social4.png,stimuli/Nonsocial3.png,stimuli/Nonsocial4.png,,,"(-0.7, -0.5)",cs_neg_ns,"(-0.7, 0.5)",cs_pos_s,"(0.7, -0.5)",cs_neg_s,"(0.7, 0.5)",cs_pos_ns,0,0,0,0,,,,,,,,,,,,,,,,,,,,,1,22,46,12,,,,,,,,,,,,,,,,,,,,,,,,,,,462,reward,,,,,,1336.1935295000003,1336.1935295000003,1336.1935295000003,1336.1935295000003,0,,,0,,,0,,,0,,,1336.7629499000032,1336.7629499000032,1336.7629499000032,1336.7629499000032,35,A,2024-05-15_13h20.52.872,attentional_competition_task,2022.2.4,144.08349927042383,
positions.xlsx,positions_test.xlsx,positions_test_new.xlsx,stimuli.xlsx,stimuli_new.xlsx,stimuli/Social1.png,stimuli/Social2.png,stimuli/Nonsocial1.png,stimuli/Nonsocial2.png,stimuli/Social3.png,stimuli/Social4.png,stimuli/Nonsocial3.png,stimuli/Nonsocial4.png,,,"(-0.7, -0.5)",cs_neg_s,"(-0.7, 0.5)",cs_pos_s,"(0.7, -0.5)",cs_neg_ns,"(0.7, 0.5)",cs_pos_ns,0,0,0,0,,,,,,,,,,,,,,,,,,,,,1,23,47,0,,,,,,,,,,,,,,,,,,,,,,,,,,,471,reward,,,,,,1345.3876528,1345.3876528,1345.3876528,1345.3876528,0,,,0,,,0,,,0,,,1346.0890300000028,1346.0890300000028,1346.0890300000028,1346.0890300000028,35,A,2024-05-15_13h20.52.872,attentional_competition_task,2022.2.4,144.08349927042383,
positions.xlsx,positions_test.xlsx,positions_test_new.xlsx,stimuli.xlsx,stimuli_new.xlsx,stimuli/Social1.png,stimuli/Social2.png,stimuli/Nonsocial1.png,stimuli/Nonsocial2.png,stimuli/Social3.png,stimuli/Social4.png,stimuli/Nonsocial3.png,stimuli/Nonsocial4.png,,,"(-0.7, -0.5)",cs_pos_ns,"(-0.7, 0.5)",cs_pos_s,"(0.7, -0.5)",cs_neg_s,"(0.7, 0.5)",cs_neg_ns_new,0,0,0,0,,,,,,,,,,,,,,,,,,,,,,,,,,,,,0,0,0,23,0,0,0,0,,,,,,,,,,,,,,,474,reward,,,,,,1351.6581949000029,1351.6581949000029,1351.6581949000029,1351.6581949000029,0,,,1,1.0787273999994795,1.0787318000002415,0,,,0,,,1352.7414966000033,1352.7414966000033,1352.7414966000033,1352.7414966000033,35,A,2024-05-15_13h20.52.872,attentional_competition_task,2022.2.4,144.08349927042383,
positions.xlsx,positions_test.xlsx,positions_test_new.xlsx,stimuli.xlsx,stimuli_new.xlsx,stimuli/Social1.png,stimuli/Social2.png,stimuli/Nonsocial1.png,stimuli/Nonsocial2.png,stimuli/Social3.png,stimuli/Social4.png,stimuli/Nonsocial3.png,stimuli/Nonsocial4.png,,,"(-0.7, -0.5)",cs_pos_ns,"(-0.7, 0.5)",cs_pos_s,"(0.7, -0.5)",cs_neg_s,"(0.7, 0.5)",cs_neg_ns_new,0,0,0,0,,,,,,,,,,,,,,,,,,,,,,,,,,,,,0,0,0,23,1,0,1,0,,,,,,,,,,,,,,,477,reward,,,,,,1353.2692378000029,1353.2692378000029,1353.2692378000029,1353.2692378000029,1,0.02928049999900395,0.029284600001119543,0,,,0,,,0,,,1353.2692378000029,1353.2692378000029,1353.2692378000029,1353.2692378000029,35,A,2024-05-15_13h20.52.872,attentional_competition_task,2022.2.4,144.08349927042383,
positions.xlsx,positions_test.xlsx,positions_test_new.xlsx,stimuli.xlsx,stimuli_new.xlsx,stimuli/Social1.png,stimuli/Social2.png,stimuli/Nonsocial1.png,stimuli/Nonsocial2.png,stimuli/Social3.png,stimuli/Social4.png,stimuli/Nonsocial3.png,stimuli/Nonsocial4.png,,,"(-0.7, -0.5)",cs_pos_ns,"(-0.7, 0.5)",cs_pos_s,"(0.7, -0.5)",cs_neg_s,"(0.7, 0.5)",cs_neg_ns_new,0,0,0,0,,,,,,,,,,,,,,,,,,,,,,,,,,,,,0,0,0,23,,,,,,,,,,,,,,,,,,,,,,,,,,,,,,,,,,,,,,,,,,,,,,35,A,2024-05-15_13h20.52.872,attentional_competition_task,2022.2.4,144.08349927042383,
positions.xlsx,positions_test.xlsx,positions_test_new.xlsx,stimuli.xlsx,stimuli_new.xlsx,stimuli/Social1.png,stimuli/Social2.png,stimuli/Nonsocial1.png,stimuli/Nonsocial2.png,stimuli/Social3.png,stimuli/Social4.png,stimuli/Nonsocial3.png,stimuli/Nonsocial4.png,,,"(-0.7, -0.5)",cs_pos_s,"(-0.7, 0.5)",cs_neg_s,"(0.7, -0.5)",cs_pos_ns_new,"(0.7, 0.5)",cs_neg_ns,0,0,0,0,,,,,,,,,,,,,,,,,,,,,,,,,,,,,0,1,1,39,0,0,0,0,,,,,,,,,,,,,,,480,reward,,,,,,1359.8939766000003,1359.8939766000003,1359.8939766000003,1359.8939766000003,1,0.640868300000875,0.6408722000014677,0,,,0,,,0,,,1360.5397839000034,1360.5397839000034,1360.5397839000034,1360.5397839000034,35,A,2024-05-15_13h20.52.872,attentional_competition_task,2022.2.4,144.08349927042383,
positions.xlsx,positions_test.xlsx,positions_test_new.xlsx,stimuli.xlsx,stimuli_new.xlsx,stimuli/Social1.png,stimuli/Social2.png,stimuli/Nonsocial1.png,stimuli/Nonsocial2.png,stimuli/Social3.png,stimuli/Social4.png,stimuli/Nonsocial3.png,stimuli/Nonsocial4.png,,,"(-0.7, -0.5)",cs_pos_s,"(-0.7, 0.5)",cs_neg_s,"(0.7, -0.5)",cs_pos_ns_new,"(0.7, 0.5)",cs_neg_ns,0,0,0,0,,,,,,,,,,,,,,,,,,,,,,,,,,,,,0,1,1,39,1,0,1,0,,,,,,,,,,,,,,,483,reward,,,,,,1361.0397697000008,1361.0397697000008,1361.0397697000008,1361.0397697000008,1,0.02832709999711369,0.04377629999726196,0,,,1,0.11445979999916744,0.1144641999999294,0,,,1361.1578116000019,1361.1578116000019,1361.1578116000019,1361.1578116000019,35,A,2024-05-15_13h20.52.872,attentional_competition_task,2022.2.4,144.08349927042383,
positions.xlsx,positions_test.xlsx,positions_test_new.xlsx,stimuli.xlsx,stimuli_new.xlsx,stimuli/Social1.png,stimuli/Social2.png,stimuli/Nonsocial1.png,stimuli/Nonsocial2.png,stimuli/Social3.png,stimuli/Social4.png,stimuli/Nonsocial3.png,stimuli/Nonsocial4.png,,,"(-0.7, -0.5)",cs_pos_s,"(-0.7, 0.5)",cs_neg_s,"(0.7, -0.5)",cs_pos_ns_new,"(0.7, 0.5)",cs_neg_ns,0,0,0,0,,,,,,,,,,,,,,,,,,,,,,,,,,,,,0,1,1,39,2,0,2,0,,,,,,,,,,,,,,,486,reward,,,,,,1361.6578148000008,1361.6578148000008,1361.6578148000008,1361.6578148000008,0,,,0,,,0,,,0,,,1362.414817500001,1362.414817500001,1362.414817500001,1362.414817500001,35,A,2024-05-15_13h20.52.872,attentional_competition_task,2022.2.4,144.08349927042383,
positions.xlsx,positions_test.xlsx,positions_test_new.xlsx,stimuli.xlsx,stimuli_new.xlsx,stimuli/Social1.png,stimuli/Social2.png,stimuli/Nonsocial1.png,stimuli/Nonsocial2.png,stimuli/Social3.png,stimuli/Social4.png,stimuli/Nonsocial3.png,stimuli/Nonsocial4.png,,,"(-0.7, -0.5)",cs_pos_s,"(-0.7, 0.5)",cs_neg_s,"(0.7, -0.5)",cs_pos_ns_new,"(0.7, 0.5)",cs_neg_ns,0,0,0,0,,,,,,,,,,,,,,,,,,,,,,,,,,,,,0,1,1,39,,,,,,,,,,,,,,,,,,,,,,,,,,,,,,,,,,,,,,,,,,,,,,35,A,2024-05-15_13h20.52.872,attentional_competition_task,2022.2.4,144.08349927042383,
positions.xlsx,positions_test.xlsx,positions_test_new.xlsx,stimuli.xlsx,stimuli_new.xlsx,stimuli/Social1.png,stimuli/Social2.png,stimuli/Nonsocial1.png,stimuli/Nonsocial2.png,stimuli/Social3.png,stimuli/Social4.png,stimuli/Nonsocial3.png,stimuli/Nonsocial4.png,,,"(-0.7, -0.5)",cs_neg_ns,"(-0.7, 0.5)",cs_neg_s_new,"(0.7, -0.5)",cs_pos_ns,"(0.7, 0.5)",cs_pos_s,0,0,0,0,,,,,,,,,,,,,,,,,,,,,,,,,,,,,0,2,2,10,0,0,0,0,,,,,,,,,,,,,,,489,reward,,,,,,1367.9908946000032,1367.9908946000032,1367.9908946000032,1367.9908946000032,0,,,0,,,1,1.050728900001559,1.0507330000000366,0,,,1369.0463761000028,1369.0463761000028,1369.0463761000028,1369.0463761000028,35,A,2024-05-15_13h20.52.872,attentional_competition_task,2022.2.4,144.08349927042383,
positions.xlsx,positions_test.xlsx,positions_test_new.xlsx,stimuli.xlsx,stimuli_new.xlsx,stimuli/Social1.png,stimuli/Social2.png,stimuli/Nonsocial1.png,stimuli/Nonsocial2.png,stimuli/Social3.png,stimuli/Social4.png,stimuli/Nonsocial3.png,stimuli/Nonsocial4.png,,,"(-0.7, -0.5)",cs_neg_ns,"(-0.7, 0.5)",cs_neg_s_new,"(0.7, -0.5)",cs_pos_ns,"(0.7, 0.5)",cs_pos_s,0,0,0,0,,,,,,,,,,,,,,,,,,,,,,,,,,,,,0,2,2,10,1,0,1,0,,,,,,,,,,,,,,,492,reward,,,,,,1369.5741553000007,1369.5741553000007,1369.5741553000007,1369.5741553000007,0,,,0,,,0,,,1,0.023532300001534168,0.02353680000305758,1369.5741553000007,1369.5741553000007,1369.5741553000007,1369.5741553000007,35,A,2024-05-15_13h20.52.872,attentional_competition_task,2022.2.4,144.08349927042383,
positions.xlsx,positions_test.xlsx,positions_test_new.xlsx,stimuli.xlsx,stimuli_new.xlsx,stimuli/Social1.png,stimuli/Social2.png,stimuli/Nonsocial1.png,stimuli/Nonsocial2.png,stimuli/Social3.png,stimuli/Social4.png,stimuli/Nonsocial3.png,stimuli/Nonsocial4.png,,,"(-0.7, -0.5)",cs_neg_ns,"(-0.7, 0.5)",cs_neg_s_new,"(0.7, -0.5)",cs_pos_ns,"(0.7, 0.5)",cs_pos_s,0,0,0,0,,,,,,,,,,,,,,,,,,,,,,,,,,,,,0,2,2,10,,,,,,,,,,,,,,,,,,,,,,,,,,,,,,,,,,,,,,,,,,,,,,35,A,2024-05-15_13h20.52.872,attentional_competition_task,2022.2.4,144.08349927042383,
positions.xlsx,positions_test.xlsx,positions_test_new.xlsx,stimuli.xlsx,stimuli_new.xlsx,stimuli/Social1.png,stimuli/Social2.png,stimuli/Nonsocial1.png,stimuli/Nonsocial2.png,stimuli/Social3.png,stimuli/Social4.png,stimuli/Nonsocial3.png,stimuli/Nonsocial4.png,,,"(-0.7, -0.5)",cs_neg_s_new,"(-0.7, 0.5)",cs_pos_s,"(0.7, -0.5)",cs_pos_ns,"(0.7, 0.5)",cs_neg_ns,0,0,0,0,,,,,,,,,,,,,,,,,,,,,,,,,,,,,0,3,3,8,0,0,0,0,,,,,,,,,,,,,,,495,reward,,,,,,1376.796073100002,1376.796073100002,1376.796073100002,1376.796073100002,0,,,0,,,1,0.5024416999985988,0.5024456999999529,0,,,1377.309954700002,1377.309954700002,1377.309954700002,1377.309954700002,35,A,2024-05-15_13h20.52.872,attentional_competition_task,2022.2.4,144.08349927042383,
positions.xlsx,positions_test.xlsx,positions_test_new.xlsx,stimuli.xlsx,stimuli_new.xlsx,stimuli/Social1.png,stimuli/Social2.png,stimuli/Nonsocial1.png,stimuli/Nonsocial2.png,stimuli/Social3.png,stimuli/Social4.png,stimuli/Nonsocial3.png,stimuli/Nonsocial4.png,,,"(-0.7, -0.5)",cs_neg_s_new,"(-0.7, 0.5)",cs_pos_s,"(0.7, -0.5)",cs_pos_ns,"(0.7, 0.5)",cs_neg_ns,0,0,0,0,,,,,,,,,,,,,,,,,,,,,,,,,,,,,0,3,3,8,1,0,1,0,,,,,,,,,,,,,,,492,loss,,,,,,1377.8377196000001,1377.8377196000001,1377.8377196000001,1377.8377196000001,0,,,0,,,0,,,1,0.02945240000190097,0.029456300002493663,1377.8377196000001,1377.8377196000001,1377.8377196000001,1377.8377196000001,35,A,2024-05-15_13h20.52.872,attentional_competition_task,2022.2.4,144.08349927042383,
positions.xlsx,positions_test.xlsx,positions_test_new.xlsx,stimuli.xlsx,stimuli_new.xlsx,stimuli/Social1.png,stimuli/Social2.png,stimuli/Nonsocial1.png,stimuli/Nonsocial2.png,stimuli/Social3.png,stimuli/Social4.png,stimuli/Nonsocial3.png,stimuli/Nonsocial4.png,,,"(-0.7, -0.5)",cs_neg_s_new,"(-0.7, 0.5)",cs_pos_s,"(0.7, -0.5)",cs_pos_ns,"(0.7, 0.5)",cs_neg_ns,0,0,0,0,,,,,,,,,,,,,,,,,,,,,,,,,,,,,0,3,3,8,2,0,2,0,,,,,,,,,,,,,,,495,reward,,,,,,1378.3724629000026,1378.3724629000026,1378.3724629000026,1378.3724629000026,0,,,1,0.02423809999891091,0.024242699997557793,0,,,0,,,1378.3724629000026,1378.3724629000026,1378.3724629000026,1378.3724629000026,35,A,2024-05-15_13h20.52.872,attentional_competition_task,2022.2.4,144.08349927042383,
positions.xlsx,positions_test.xlsx,positions_test_new.xlsx,stimuli.xlsx,stimuli_new.xlsx,stimuli/Social1.png,stimuli/Social2.png,stimuli/Nonsocial1.png,stimuli/Nonsocial2.png,stimuli/Social3.png,stimuli/Social4.png,stimuli/Nonsocial3.png,stimuli/Nonsocial4.png,,,"(-0.7, -0.5)",cs_neg_s_new,"(-0.7, 0.5)",cs_pos_s,"(0.7, -0.5)",cs_pos_ns,"(0.7, 0.5)",cs_neg_ns,0,0,0,0,,,,,,,,,,,,,,,,,,,,,,,,,,,,,0,3,3,8,,,,,,,,,,,,,,,,,,,,,,,,,,,,,,,,,,,,,,,,,,,,,,35,A,2024-05-15_13h20.52.872,attentional_competition_task,2022.2.4,144.08349927042383,
positions.xlsx,positions_test.xlsx,positions_test_new.xlsx,stimuli.xlsx,stimuli_new.xlsx,stimuli/Social1.png,stimuli/Social2.png,stimuli/Nonsocial1.png,stimuli/Nonsocial2.png,stimuli/Social3.png,stimuli/Social4.png,stimuli/Nonsocial3.png,stimuli/Nonsocial4.png,,,"(-0.7, -0.5)",cs_neg_s_new,"(-0.7, 0.5)",cs_pos_ns,"(0.7, -0.5)",cs_pos_s,"(0.7, 0.5)",cs_neg_ns,0,0,0,0,,,,,,,,,,,,,,,,,,,,,,,,,,,,,0,4,4,15,0,0,0,0,,,,,,,,,,,,,,,498,reward,,,,,,1385.3374275000024,1385.3374275000024,1385.3374275000024,1385.3374275000024,0,,,1,0.9950088000005053,1.0016735000026529,0,,,0,,,1386.3442822000034,1386.3442822000034,1386.3442822000034,1386.3442822000034,35,A,2024-05-15_13h20.52.872,attentional_competition_task,2022.2.4,144.08349927042383,
positions.xlsx,positions_test.xlsx,positions_test_new.xlsx,stimuli.xlsx,stimuli_new.xlsx,stimuli/Social1.png,stimuli/Social2.png,stimuli/Nonsocial1.png,stimuli/Nonsocial2.png,stimuli/Social3.png,stimuli/Social4.png,stimuli/Nonsocial3.png,stimuli/Nonsocial4.png,,,"(-0.7, -0.5)",cs_neg_s_new,"(-0.7, 0.5)",cs_pos_ns,"(0.7, -0.5)",cs_pos_s,"(0.7, 0.5)",cs_neg_ns,0,0,0,0,,,,,,,,,,,,,,,,,,,,,,,,,,,,,0,4,4,15,1,0,1,0,,,,,,,,,,,,,,,501,reward,,,,,,1386.8720377000027,1386.8720377000027,1386.8720377000027,1386.8720377000027,0,,,0,,,1,0.022050600000511622,0.022055199999158503,0,,,1386.8720377000027,1386.8720377000027,1386.8720377000027,1386.8720377000027,35,A,2024-05-15_13h20.52.872,attentional_competition_task,2022.2.4,144.08349927042383,
positions.xlsx,positions_test.xlsx,positions_test_new.xlsx,stimuli.xlsx,stimuli_new.xlsx,stimuli/Social1.png,stimuli/Social2.png,stimuli/Nonsocial1.png,stimuli/Nonsocial2.png,stimuli/Social3.png,stimuli/Social4.png,stimuli/Nonsocial3.png,stimuli/Nonsocial4.png,,,"(-0.7, -0.5)",cs_neg_s_new,"(-0.7, 0.5)",cs_pos_ns,"(0.7, -0.5)",cs_pos_s,"(0.7, 0.5)",cs_neg_ns,0,0,0,0,,,,,,,,,,,,,,,,,,,,,,,,,,,,,0,4,4,15,,,,,,,,,,,,,,,,,,,,,,,,,,,,,,,,,,,,,,,,,,,,,,35,A,2024-05-15_13h20.52.872,attentional_competition_task,2022.2.4,144.08349927042383,
positions.xlsx,positions_test.xlsx,positions_test_new.xlsx,stimuli.xlsx,stimuli_new.xlsx,stimuli/Social1.png,stimuli/Social2.png,stimuli/Nonsocial1.png,stimuli/Nonsocial2.png,stimuli/Social3.png,stimuli/Social4.png,stimuli/Nonsocial3.png,stimuli/Nonsocial4.png,,,"(-0.7, -0.5)",cs_neg_ns,"(-0.7, 0.5)",cs_pos_ns,"(0.7, -0.5)",cs_pos_s,"(0.7, 0.5)",cs_neg_s,0,0,0,0,,,,,,,,,,,,,,,,,,,,,,,,,,,,,0,5,5,2,0,0,0,0,,,,,,,,,,,,,,,504,reward,,,,,,1394.3092634000022,1394.3092634000022,1394.3092634000022,1394.3092634000022,0,,,1,0.675893100000394,0.6758972999996331,0,,,0,,,1394.9898103000014,1394.9898103000014,1394.9898103000014,1394.9898103000014,35,A,2024-05-15_13h20.52.872,attentional_competition_task,2022.2.4,144.08349927042383,
positions.xlsx,positions_test.xlsx,positions_test_new.xlsx,stimuli.xlsx,stimuli_new.xlsx,stimuli/Social1.png,stimuli/Social2.png,stimuli/Nonsocial1.png,stimuli/Nonsocial2.png,stimuli/Social3.png,stimuli/Social4.png,stimuli/Nonsocial3.png,stimuli/Nonsocial4.png,,,"(-0.7, -0.5)",cs_neg_ns,"(-0.7, 0.5)",cs_pos_ns,"(0.7, -0.5)",cs_pos_s,"(0.7, 0.5)",cs_neg_s,0,0,0,0,,,,,,,,,,,,,,,,,,,,,,,,,,,,,0,5,5,2,1,0,1,0,,,,,,,,,,,,,,,507,reward,,,,,,1395.4966902000015,1395.4966902000015,1395.4966902000015,1395.4966902000015,0,,,0,,,1,0.044523599997774,0.04452769999988959,0,,,1395.5383695000019,1395.5383695000019,1395.5383695000019,1395.5383695000019,35,A,2024-05-15_13h20.52.872,attentional_competition_task,2022.2.4,144.08349927042383,
positions.xlsx,positions_test.xlsx,positions_test_new.xlsx,stimuli.xlsx,stimuli_new.xlsx,stimuli/Social1.png,stimuli/Social2.png,stimuli/Nonsocial1.png,stimuli/Nonsocial2.png,stimuli/Social3.png,stimuli/Social4.png,stimuli/Nonsocial3.png,stimuli/Nonsocial4.png,,,"(-0.7, -0.5)",cs_neg_ns,"(-0.7, 0.5)",cs_pos_ns,"(0.7, -0.5)",cs_pos_s,"(0.7, 0.5)",cs_neg_s,0,0,0,0,,,,,,,,,,,,,,,,,,,,,,,,,,,,,0,5,5,2,2,0,2,0,,,,,,,,,,,,,,,510,reward,,,,,,1396.0314034000003,1396.0314034000003,1396.0314034000003,1396.0314034000003,0,,,0,,,0,,,0,,,1396.8230678,1396.8230678,1396.8230678,1396.8230678,35,A,2024-05-15_13h20.52.872,attentional_competition_task,2022.2.4,144.08349927042383,
positions.xlsx,positions_test.xlsx,positions_test_new.xlsx,stimuli.xlsx,stimuli_new.xlsx,stimuli/Social1.png,stimuli/Social2.png,stimuli/Nonsocial1.png,stimuli/Nonsocial2.png,stimuli/Social3.png,stimuli/Social4.png,stimuli/Nonsocial3.png,stimuli/Nonsocial4.png,,,"(-0.7, -0.5)",cs_neg_ns,"(-0.7, 0.5)",cs_pos_ns,"(0.7, -0.5)",cs_pos_s,"(0.7, 0.5)",cs_neg_s,0,0,0,0,,,,,,,,,,,,,,,,,,,,,,,,,,,,,0,5,5,2,,,,,,,,,,,,,,,,,,,,,,,,,,,,,,,,,,,,,,,,,,,,,,35,A,2024-05-15_13h20.52.872,attentional_competition_task,2022.2.4,144.08349927042383,
positions.xlsx,positions_test.xlsx,positions_test_new.xlsx,stimuli.xlsx,stimuli_new.xlsx,stimuli/Social1.png,stimuli/Social2.png,stimuli/Nonsocial1.png,stimuli/Nonsocial2.png,stimuli/Social3.png,stimuli/Social4.png,stimuli/Nonsocial3.png,stimuli/Nonsocial4.png,,,"(-0.7, -0.5)",cs_pos_s_new,"(-0.7, 0.5)",cs_pos_ns,"(0.7, -0.5)",cs_neg_s,"(0.7, 0.5)",cs_neg_ns,0,0,0,0,,,,,,,,,,,,,,,,,,,,,,,,,,,,,0,6,6,34,0,0,0,0,,,,,,,,,,,,,,,513,reward,,,,,,1402.6770021000011,1402.6770021000011,1402.6770021000011,1402.6770021000011,0,,,1,0.6199764999983017,0.6199804999996559,0,,,0,,,1403.3019718000032,1403.3019718000032,1403.3019718000032,1403.3019718000032,35,A,2024-05-15_13h20.52.872,attentional_competition_task,2022.2.4,144.08349927042383,
positions.xlsx,positions_test.xlsx,positions_test_new.xlsx,stimuli.xlsx,stimuli_new.xlsx,stimuli/Social1.png,stimuli/Social2.png,stimuli/Nonsocial1.png,stimuli/Nonsocial2.png,stimuli/Social3.png,stimuli/Social4.png,stimuli/Nonsocial3.png,stimuli/Nonsocial4.png,,,"(-0.7, -0.5)",cs_pos_s_new,"(-0.7, 0.5)",cs_pos_ns,"(0.7, -0.5)",cs_neg_s,"(0.7, 0.5)",cs_neg_ns,0,0,0,0,,,,,,,,,,,,,,,,,,,,,,,,,,,,,0,6,6,34,1,0,1,0,,,,,,,,,,,,,,,516,reward,,,,,,1403.8019163000026,1403.8019163000026,1403.8019163000026,1403.8019163000026,1,0.4263996000008774,0.42640880000180914,0,,,0,,,0,,,1404.2394071000017,1404.2394071000017,1404.2394071000017,1404.2394071000017,35,A,2024-05-15_13h20.52.872,attentional_competition_task,2022.2.4,144.08349927042383,
positions.xlsx,positions_test.xlsx,positions_test_new.xlsx,stimuli.xlsx,stimuli_new.xlsx,stimuli/Social1.png,stimuli/Social2.png,stimuli/Nonsocial1.png,stimuli/Nonsocial2.png,stimuli/Social3.png,stimuli/Social4.png,stimuli/Nonsocial3.png,stimuli/Nonsocial4.png,,,"(-0.7, -0.5)",cs_pos_s_new,"(-0.7, 0.5)",cs_pos_ns,"(0.7, -0.5)",cs_neg_s,"(0.7, 0.5)",cs_neg_ns,0,0,0,0,,,,,,,,,,,,,,,,,,,,,,,,,,,,,0,6,6,34,,,,,,,,,,,,,,,,,,,,,,,,,,,,,,,,,,,,,,,,,,,,,,35,A,2024-05-15_13h20.52.872,attentional_competition_task,2022.2.4,144.08349927042383,
positions.xlsx,positions_test.xlsx,positions_test_new.xlsx,stimuli.xlsx,stimuli_new.xlsx,stimuli/Social1.png,stimuli/Social2.png,stimuli/Nonsocial1.png,stimuli/Nonsocial2.png,stimuli/Social3.png,stimuli/Social4.png,stimuli/Nonsocial3.png,stimuli/Nonsocial4.png,,,"(-0.7, -0.5)",cs_pos_s,"(-0.7, 0.5)",cs_pos_ns_new,"(0.7, -0.5)",cs_neg_ns,"(0.7, 0.5)",cs_neg_s,0,0,0,0,,,,,,,,,,,,,,,,,,,,,,,,,,,,,0,7,7,40,0,0,0,0,,,,,,,,,,,,,,,519,reward,,,,,,1412.1001963000017,1412.1001963000017,1412.1001963000017,1412.1001963000017,0,,,1,0.8290849999975762,0.8358877999999095,0,,,0,,,1412.9474194000031,1412.9474194000031,1412.9474194000031,1412.9474194000031,35,A,2024-05-15_13h20.52.872,attentional_competition_task,2022.2.4,144.08349927042383,
positions.xlsx,positions_test.xlsx,positions_test_new.xlsx,stimuli.xlsx,stimuli_new.xlsx,stimuli/Social1.png,stimuli/Social2.png,stimuli/Nonsocial1.png,stimuli/Nonsocial2.png,stimuli/Social3.png,stimuli/Social4.png,stimuli/Nonsocial3.png,stimuli/Nonsocial4.png,,,"(-0.7, -0.5)",cs_pos_s,"(-0.7, 0.5)",cs_pos_ns_new,"(0.7, -0.5)",cs_neg_ns,"(0.7, 0.5)",cs_neg_s,0,0,0,0,,,,,,,,,,,,,,,,,,,,,,,,,,,,,0,7,7,40,1,0,1,0,,,,,,,,,,,,,,,522,reward,,,,,,1413.4751698,1413.4751698,1413.4751698,1413.4751698,1,0.027824699998745928,0.02782879999722354,0,,,0,,,0,,,1413.4751698,1413.4751698,1413.4751698,1413.4751698,35,A,2024-05-15_13h20.52.872,attentional_competition_task,2022.2.4,144.08349927042383,
positions.xlsx,positions_test.xlsx,positions_test_new.xlsx,stimuli.xlsx,stimuli_new.xlsx,stimuli/Social1.png,stimuli/Social2.png,stimuli/Nonsocial1.png,stimuli/Nonsocial2.png,stimuli/Social3.png,stimuli/Social4.png,stimuli/Nonsocial3.png,stimuli/Nonsocial4.png,,,"(-0.7, -0.5)",cs_pos_s,"(-0.7, 0.5)",cs_pos_ns_new,"(0.7, -0.5)",cs_neg_ns,"(0.7, 0.5)",cs_neg_s,0,0,0,0,,,,,,,,,,,,,,,,,,,,,,,,,,,,,0,7,7,40,2,0,2,0,,,,,,,,,,,,,,,519,loss,,,,,,1414.0098779,1414.0098779,1414.0098779,1414.0098779,0,,,0,,,0,,,1,0.02450210000097286,0.02450669999961974,1414.0098779,1414.0098779,1414.0098779,1414.0098779,35,A,2024-05-15_13h20.52.872,attentional_competition_task,2022.2.4,144.08349927042383,
positions.xlsx,positions_test.xlsx,positions_test_new.xlsx,stimuli.xlsx,stimuli_new.xlsx,stimuli/Social1.png,stimuli/Social2.png,stimuli/Nonsocial1.png,stimuli/Nonsocial2.png,stimuli/Social3.png,stimuli/Social4.png,stimuli/Nonsocial3.png,stimuli/Nonsocial4.png,,,"(-0.7, -0.5)",cs_pos_s,"(-0.7, 0.5)",cs_pos_ns_new,"(0.7, -0.5)",cs_neg_ns,"(0.7, 0.5)",cs_neg_s,0,0,0,0,,,,,,,,,,,,,,,,,,,,,,,,,,,,,0,7,7,40,,,,,,,,,,,,,,,,,,,,,,,,,,,,,,,,,,,,,,,,,,,,,,35,A,2024-05-15_13h20.52.872,attentional_competition_task,2022.2.4,144.08349927042383,
positions.xlsx,positions_test.xlsx,positions_test_new.xlsx,stimuli.xlsx,stimuli_new.xlsx,stimuli/Social1.png,stimuli/Social2.png,stimuli/Nonsocial1.png,stimuli/Nonsocial2.png,stimuli/Social3.png,stimuli/Social4.png,stimuli/Nonsocial3.png,stimuli/Nonsocial4.png,,,"(-0.7, -0.5)",cs_pos_s,"(-0.7, 0.5)",cs_neg_s,"(0.7, -0.5)",cs_neg_ns,"(0.7, 0.5)",cs_pos_ns_new,0,0,0,0,,,,,,,,,,,,,,,,,,,,,,,,,,,,,0,8,8,41,0,0,0,0,,,,,,,,,,,,,,,522,reward,,,,,,1420.1832125,1420.1832125,1420.1832125,1420.1832125,1,0.7860324000030232,0.793003900002077,0,,,0,,,0,,,1420.9818711000007,1420.9818711000007,1420.9818711000007,1420.9818711000007,35,A,2024-05-15_13h20.52.872,attentional_competition_task,2022.2.4,144.08349927042383,
positions.xlsx,positions_test.xlsx,positions_test_new.xlsx,stimuli.xlsx,stimuli_new.xlsx,stimuli/Social1.png,stimuli/Social2.png,stimuli/Nonsocial1.png,stimuli/Nonsocial2.png,stimuli/Social3.png,stimuli/Social4.png,stimuli/Nonsocial3.png,stimuli/Nonsocial4.png,,,"(-0.7, -0.5)",cs_pos_s,"(-0.7, 0.5)",cs_neg_s,"(0.7, -0.5)",cs_neg_ns,"(0.7, 0.5)",cs_pos_ns_new,0,0,0,0,,,,,,,,,,,,,,,,,,,,,,,,,,,,,0,8,8,41,1,0,1,0,,,,,,,,,,,,,,,525,reward,,,,,,1421.481780500002,1421.481780500002,1421.481780500002,1421.481780500002,1,0.029000300000916468,0.25296650000018417,0,,,0,,,1,0.3227447999997821,0.3227489999990212,1421.808146700001,1421.808146700001,1421.808146700001,1421.808146700001,35,A,2024-05-15_13h20.52.872,attentional_competition_task,2022.2.4,144.08349927042383,
positions.xlsx,positions_test.xlsx,positions_test_new.xlsx,stimuli.xlsx,stimuli_new.xlsx,stimuli/Social1.png,stimuli/Social2.png,stimuli/Nonsocial1.png,stimuli/Nonsocial2.png,stimuli/Social3.png,stimuli/Social4.png,stimuli/Nonsocial3.png,stimuli/Nonsocial4.png,,,"(-0.7, -0.5)",cs_pos_s,"(-0.7, 0.5)",cs_neg_s,"(0.7, -0.5)",cs_neg_ns,"(0.7, 0.5)",cs_pos_ns_new,0,0,0,0,,,,,,,,,,,,,,,,,,,,,,,,,,,,,0,8,8,41,,,,,,,,,,,,,,,,,,,,,,,,,,,,,,,,,,,,,,,,,,,,,,35,A,2024-05-15_13h20.52.872,attentional_competition_task,2022.2.4,144.08349927042383,
positions.xlsx,positions_test.xlsx,positions_test_new.xlsx,stimuli.xlsx,stimuli_new.xlsx,stimuli/Social1.png,stimuli/Social2.png,stimuli/Nonsocial1.png,stimuli/Nonsocial2.png,stimuli/Social3.png,stimuli/Social4.png,stimuli/Nonsocial3.png,stimuli/Nonsocial4.png,,,"(-0.7, -0.5)",cs_pos_ns,"(-0.7, 0.5)",cs_neg_s_new,"(0.7, -0.5)",cs_neg_ns,"(0.7, 0.5)",cs_pos_s,0,0,0,0,,,,,,,,,,,,,,,,,,,,,,,,,,,,,0,9,9,11,0,0,0,0,,,,,,,,,,,,,,,528,reward,,,,,,1428.3287002000034,1428.3287002000034,1428.3287002000034,1428.3287002000034,0,,,0,,,0,,,1,0.8079866000007314,0.807990699999209,1429.1412200000013,1429.1412200000013,1429.1412200000013,1429.1412200000013,35,A,2024-05-15_13h20.52.872,attentional_competition_task,2022.2.4,144.08349927042383,
positions.xlsx,positions_test.xlsx,positions_test_new.xlsx,stimuli.xlsx,stimuli_new.xlsx,stimuli/Social1.png,stimuli/Social2.png,stimuli/Nonsocial1.png,stimuli/Nonsocial2.png,stimuli/Social3.png,stimuli/Social4.png,stimuli/Nonsocial3.png,stimuli/Nonsocial4.png,,,"(-0.7, -0.5)",cs_pos_ns,"(-0.7, 0.5)",cs_neg_s_new,"(0.7, -0.5)",cs_neg_ns,"(0.7, 0.5)",cs_pos_s,0,0,0,0,,,,,,,,,,,,,,,,,,,,,,,,,,,,,0,9,9,11,1,0,1,0,,,,,,,,,,,,,,,531,reward,,,,,,1429.6759425000018,1429.6759425000018,1429.6759425000018,1429.6759425000018,1,0.028883200000564102,0.028887299999041716,0,,,0,,,0,,,1429.6759425000018,1429.6759425000018,1429.6759425000018,1429.6759425000018,35,A,2024-05-15_13h20.52.872,attentional_competition_task,2022.2.4,144.08349927042383,
positions.xlsx,positions_test.xlsx,positions_test_new.xlsx,stimuli.xlsx,stimuli_new.xlsx,stimuli/Social1.png,stimuli/Social2.png,stimuli/Nonsocial1.png,stimuli/Nonsocial2.png,stimuli/Social3.png,stimuli/Social4.png,stimuli/Nonsocial3.png,stimuli/Nonsocial4.png,,,"(-0.7, -0.5)",cs_pos_ns,"(-0.7, 0.5)",cs_neg_s_new,"(0.7, -0.5)",cs_neg_ns,"(0.7, 0.5)",cs_pos_s,0,0,0,0,,,,,,,,,,,,,,,,,,,,,,,,,,,,,0,9,9,11,2,0,2,0,,,,,,,,,,,,,,,534,reward,,,,,,1430.1759386000012,1430.1759386000012,1430.1759386000012,1430.1759386000012,0,,,0,,,0,,,0,,,1430.8494648000014,1430.8494648000014,1430.8494648000014,1430.8494648000014,35,A,2024-05-15_13h20.52.872,attentional_competition_task,2022.2.4,144.08349927042383,
positions.xlsx,positions_test.xlsx,positions_test_new.xlsx,stimuli.xlsx,stimuli_new.xlsx,stimuli/Social1.png,stimuli/Social2.png,stimuli/Nonsocial1.png,stimuli/Nonsocial2.png,stimuli/Social3.png,stimuli/Social4.png,stimuli/Nonsocial3.png,stimuli/Nonsocial4.png,,,"(-0.7, -0.5)",cs_pos_ns,"(-0.7, 0.5)",cs_neg_s_new,"(0.7, -0.5)",cs_neg_ns,"(0.7, 0.5)",cs_pos_s,0,0,0,0,,,,,,,,,,,,,,,,,,,,,,,,,,,,,0,9,9,11,,,,,,,,,,,,,,,,,,,,,,,,,,,,,,,,,,,,,,,,,,,,,,35,A,2024-05-15_13h20.52.872,attentional_competition_task,2022.2.4,144.08349927042383,
