posFile,posFileTest,posFileTestNew,stimFile,stimFileNew,cs_neg_s,cs_pos_s,cs_neg_ns,cs_pos_ns,cs_neg_s_new,cs_pos_s_new,cs_neg_ns_new,cs_pos_ns_new,stim,position,position1,stim1,position2,stim2,position3,stim3,position4,stim4,blocks.thisRepN,blocks.thisTrialN,blocks.thisN,blocks.thisIndex,ratingtrials1.thisRepN,ratingtrials1.thisTrialN,ratingtrials1.thisN,ratingtrials1.thisIndex,search_task_trials.thisRepN,search_task_trials.thisTrialN,search_task_trials.thisN,search_task_trials.thisIndex,learning_trials.thisRepN,learning_trials.thisTrialN,learning_trials.thisN,learning_trials.thisIndex,trials.thisRepN,trials.thisTrialN,trials.thisN,trials.thisIndex,ratingtrials2.thisRepN,ratingtrials2.thisTrialN,ratingtrials2.thisN,ratingtrials2.thisIndex,testtrials.thisRepN,testtrials.thisTrialN,testtrials.thisN,testtrials.thisIndex,loop_test.thisRepN,loop_test.thisTrialN,loop_test.thisN,loop_test.thisIndex,testtrials_novelty.thisRepN,testtrials_novelty.thisTrialN,testtrials_novelty.thisN,testtrials_novelty.thisIndex,loop_test_novelty.thisRepN,loop_test_novelty.thisTrialN,loop_test_novelty.thisN,loop_test_novelty.thisIndex,ratingtrials3.thisRepN,ratingtrials3.thisTrialN,ratingtrials3.thisN,ratingtrials3.thisIndex,textStart.started,textStartExp.started,imageRating.started,sliderStim.response,sliderStim.rt,textStartSearch.started,target_positions,distractor_positions,textStartTask.started,image.started,score,outcome,roi.numLooks,roi.timesOn,roi.timesOff,imageFeedback.started,textTestInstr.started,test_image1.started,test_image2.started,test_image3.started,test_image4.started,test_roi1.numLooks,test_roi1.timesOn,test_roi1.timesOff,test_roi2.numLooks,test_roi2.timesOn,test_roi2.timesOff,test_roi3.numLooks,test_roi3.timesOn,test_roi3.timesOff,test_roi4.numLooks,test_roi4.timesOn,test_roi4.timesOff,test_image_feedback1.started,test_image_feedback2.started,test_iamge_feedback3.started,test_iamge_feedback4.started,participant,group,date,expName,psychopyVersion,frameRate,
positions.xlsx,positions_test.xlsx,positions_test_new.xlsx,stimuli.xlsx,stimuli_new.xlsx,stimuli/Social4.png,stimuli/Social3.png,stimuli/Nonsocial4.png,stimuli/Nonsocial3.png,stimuli/Social2.png,stimuli/Social1.png,stimuli/Nonsocial2.png,stimuli/Nonsocial1.png,cs_neg_ns,,,,,,,,,,0,0,0,0,0,0,0,1,,,,,,,,,,,,,,,,,,,,,,,,,,,,,,,,,,,,,16.166673599742353,104.85610509989783,114.64080379996449,6.0,11.644557199906558,,,,,,,,,,,,,,,,,,,,,,,,,,,,,,,,,4,D,2024-04-08_14h25.55.623,attentional_competition_task,2022.2.4,143.9712753028426,
positions.xlsx,positions_test.xlsx,positions_test_new.xlsx,stimuli.xlsx,stimuli_new.xlsx,stimuli/Social4.png,stimuli/Social3.png,stimuli/Nonsocial4.png,stimuli/Nonsocial3.png,stimuli/Social2.png,stimuli/Social1.png,stimuli/Nonsocial2.png,stimuli/Nonsocial1.png,cs_neg_s,,,,,,,,,,0,0,0,0,0,1,1,0,,,,,,,,,,,,,,,,,,,,,,,,,,,,,,,,,,,,,,,126.99448839994147,4.0,4.076510600280017,,,,,,,,,,,,,,,,,,,,,,,,,,,,,,,,,4,D,2024-04-08_14h25.55.623,attentional_competition_task,2022.2.4,143.9712753028426,
positions.xlsx,positions_test.xlsx,positions_test_new.xlsx,stimuli.xlsx,stimuli_new.xlsx,stimuli/Social4.png,stimuli/Social3.png,stimuli/Nonsocial4.png,stimuli/Nonsocial3.png,stimuli/Social2.png,stimuli/Social1.png,stimuli/Nonsocial2.png,stimuli/Nonsocial1.png,cs_pos_ns,,,,,,,,,,0,0,0,0,0,2,2,3,,,,,,,,,,,,,,,,,,,,,,,,,,,,,,,,,,,,,,,131.48039969988167,6.0,2.2437485000118613,,,,,,,,,,,,,,,,,,,,,,,,,,,,,,,,,4,D,2024-04-08_14h25.55.623,attentional_competition_task,2022.2.4,143.9712753028426,
positions.xlsx,positions_test.xlsx,positions_test_new.xlsx,stimuli.xlsx,stimuli_new.xlsx,stimuli/Social4.png,stimuli/Social3.png,stimuli/Nonsocial4.png,stimuli/Nonsocial3.png,stimuli/Social2.png,stimuli/Social1.png,stimuli/Nonsocial2.png,stimuli/Nonsocial1.png,cs_pos_s,,,,,,,,,,0,0,0,0,0,3,3,2,,,,,,,,,,,,,,,,,,,,,,,,,,,,,,,,,,,,,,,133.95252729998901,3.0,1.654750400222838,,,,,,,,,,,,,,,,,,,,,,,,,,,,,,,,,4,D,2024-04-08_14h25.55.623,attentional_competition_task,2022.2.4,143.9712753028426,
positions.xlsx,positions_test.xlsx,positions_test_new.xlsx,stimuli.xlsx,stimuli_new.xlsx,stimuli/Social4.png,stimuli/Social3.png,stimuli/Nonsocial4.png,stimuli/Nonsocial3.png,stimuli/Social2.png,stimuli/Social1.png,stimuli/Nonsocial2.png,stimuli/Nonsocial1.png,,,,,,,,,,,0,0,0,0,,,,,0,0,0,0,,,,,,,,,,,,,,,,,,,,,,,,,,,,,,,,,,,,,,135.8274288997054,"[[-0.45, 0.7], [-0.45, 0.19999999999999996], [-0.675, 0.19999999999999996], [0.0, -0.30000000000000004], [-0.675, -0.8], [0.9, 0.19999999999999996], [0.22499999999999998, -0.30000000000000004], [0.22499999999999998, -0.8], [-0.45, -0.8], [0.9, -0.30000000000000004], [-0.45, -0.30000000000000004], [-0.9, -0.30000000000000004], [0.45000000000000007, -0.8], [-0.22499999999999998, -0.30000000000000004], [0.45000000000000007, 0.19999999999999996]]","[[-0.9, -0.8], [0.45000000000000007, 0.7], [0.6749999999999999, -0.30000000000000004], [0.6749999999999999, 0.19999999999999996], [0.0, 0.7], [0.22499999999999998, 0.19999999999999996], [0.22499999999999998, 0.7], [-0.9, 0.19999999999999996], [-0.22499999999999998, 0.19999999999999996], [0.0, 0.19999999999999996], [0.6749999999999999, 0.7], [-0.9, 0.7], [0.0, -0.8], [-0.675, -0.30000000000000004], [-0.22499999999999998, -0.8]]",,,,,,,,,,,,,,,,,,,,,,,,,,,,,,4,D,2024-04-08_14h25.55.623,attentional_competition_task,2022.2.4,143.9712753028426,
positions.xlsx,positions_test.xlsx,positions_test_new.xlsx,stimuli.xlsx,stimuli_new.xlsx,stimuli/Social4.png,stimuli/Social3.png,stimuli/Nonsocial4.png,stimuli/Nonsocial3.png,stimuli/Social2.png,stimuli/Social1.png,stimuli/Nonsocial2.png,stimuli/Nonsocial1.png,,,,,,,,,,,0,0,0,0,,,,,1,0,1,0,,,,,,,,,,,,,,,,,,,,,,,,,,,,,,,,,,,,,,,"[[0.6749999999999999, 0.19999999999999996], [-0.45, 0.7], [-0.675, -0.30000000000000004], [0.22499999999999998, 0.19999999999999996], [0.45000000000000007, 0.7], [0.6749999999999999, 0.7], [-0.675, -0.8], [0.9, 0.7], [0.45000000000000007, -0.8], [-0.675, 0.7], [0.22499999999999998, -0.8], [-0.45, -0.30000000000000004], [-0.9, -0.8], [-0.45, 0.19999999999999996], [0.45000000000000007, -0.30000000000000004]]","[[0.6749999999999999, -0.30000000000000004], [-0.22499999999999998, -0.8], [0.22499999999999998, 0.7], [-0.675, 0.19999999999999996], [0.22499999999999998, -0.30000000000000004], [-0.9, 0.19999999999999996], [0.0, 0.7], [0.9, -0.8], [0.9, 0.19999999999999996], [-0.22499999999999998, 0.19999999999999996], [0.45000000000000007, 0.19999999999999996], [0.6749999999999999, -0.8], [0.0, -0.30000000000000004], [-0.9, -0.30000000000000004], [-0.45, -0.8]]",,,,,,,,,,,,,,,,,,,,,,,,,,,,,,4,D,2024-04-08_14h25.55.623,attentional_competition_task,2022.2.4,143.9712753028426,
positions.xlsx,positions_test.xlsx,positions_test_new.xlsx,stimuli.xlsx,stimuli_new.xlsx,stimuli/Social4.png,stimuli/Social3.png,stimuli/Nonsocial4.png,stimuli/Nonsocial3.png,stimuli/Social2.png,stimuli/Social1.png,stimuli/Nonsocial2.png,stimuli/Nonsocial1.png,cs_neg_s,"(-0.7, -0.5)",,,,,,,,,0,0,0,0,,,,,,,,,0,0,0,1,,,,,,,,,,,,,,,,,,,,,,,,,,,,,,,,,,,,,215.69227769970894,232.74714089976624,-3,loss,1,0.18812490021809936,0.18812850024551153,232.9485334996134,,,,,,,,,,,,,,,,,,,,,,4,D,2024-04-08_14h25.55.623,attentional_competition_task,2022.2.4,143.9712753028426,
positions.xlsx,positions_test.xlsx,positions_test_new.xlsx,stimuli.xlsx,stimuli_new.xlsx,stimuli/Social4.png,stimuli/Social3.png,stimuli/Nonsocial4.png,stimuli/Nonsocial3.png,stimuli/Social2.png,stimuli/Social1.png,stimuli/Nonsocial2.png,stimuli/Nonsocial1.png,cs_pos_ns,"(0.7, -0.5)",,,,,,,,,0,0,0,0,,,,,,,,,0,1,1,15,,,,,,,,,,,,,,,,,,,,,,,,,,,,,,,,,,,,,,239.6010221997276,0,reward,1,0.1804538001306355,0.18045749980956316,239.79552249982953,,,,,,,,,,,,,,,,,,,,,,4,D,2024-04-08_14h25.55.623,attentional_competition_task,2022.2.4,143.9712753028426,
positions.xlsx,positions_test.xlsx,positions_test_new.xlsx,stimuli.xlsx,stimuli_new.xlsx,stimuli/Social4.png,stimuli/Social3.png,stimuli/Nonsocial4.png,stimuli/Nonsocial3.png,stimuli/Social2.png,stimuli/Social1.png,stimuli/Nonsocial2.png,stimuli/Nonsocial1.png,cs_pos_s,"(-0.7, -0.5)",,,,,,,,,0,0,0,0,,,,,,,,,0,2,2,5,,,,,,,,,,,,,,,,,,,,,,,,,,,,,,,,,,,,,,247.2952053998597,3,reward,1,0.5139085999689996,0.5139121999964118,247.81598409963772,,,,,,,,,,,,,,,,,,,,,,4,D,2024-04-08_14h25.55.623,attentional_competition_task,2022.2.4,143.9712753028426,
positions.xlsx,positions_test.xlsx,positions_test_new.xlsx,stimuli.xlsx,stimuli_new.xlsx,stimuli/Social4.png,stimuli/Social3.png,stimuli/Nonsocial4.png,stimuli/Nonsocial3.png,stimuli/Social2.png,stimuli/Social1.png,stimuli/Nonsocial2.png,stimuli/Nonsocial1.png,cs_pos_s,"(0.7, 0.5)",,,,,,,,,0,0,0,0,,,,,,,,,0,3,3,6,,,,,,,,,,,,,,,,,,,,,,,,,,,,,,,,,,,,,,255.45457579987124,6,reward,1,0.3613120000809431,0.36131570022553205,255.82264689961448,,,,,,,,,,,,,,,,,,,,,,4,D,2024-04-08_14h25.55.623,attentional_competition_task,2022.2.4,143.9712753028426,
positions.xlsx,positions_test.xlsx,positions_test_new.xlsx,stimuli.xlsx,stimuli_new.xlsx,stimuli/Social4.png,stimuli/Social3.png,stimuli/Nonsocial4.png,stimuli/Nonsocial3.png,stimuli/Social2.png,stimuli/Social1.png,stimuli/Nonsocial2.png,stimuli/Nonsocial1.png,cs_neg_ns,"(-0.7, 0.5)",,,,,,,,,0,0,0,0,,,,,,,,,0,4,4,8,,,,,,,,,,,,,,,,,,,,,,,,,,,,,,,,,,,,,,263.822342899628,3,loss,1,0.3959263004362583,0.39592970022931695,264.2250306997448,,,,,,,,,,,,,,,,,,,,,,4,D,2024-04-08_14h25.55.623,attentional_competition_task,2022.2.4,143.9712753028426,
positions.xlsx,positions_test.xlsx,positions_test_new.xlsx,stimuli.xlsx,stimuli_new.xlsx,stimuli/Social4.png,stimuli/Social3.png,stimuli/Nonsocial4.png,stimuli/Nonsocial3.png,stimuli/Social2.png,stimuli/Social1.png,stimuli/Nonsocial2.png,stimuli/Nonsocial1.png,cs_neg_s,"(-0.7, 0.5)",,,,,,,,,0,0,0,0,,,,,,,,,0,5,5,0,,,,,,,,,,,,,,,,,,,,,,,,,,,,,,,,,,,,,,271.3636516998522,0,loss,1,0.20866840006783605,0.20867200009524822,271.57896399963647,,,,,,,,,,,,,,,,,,,,,,4,D,2024-04-08_14h25.55.623,attentional_competition_task,2022.2.4,143.9712753028426,
positions.xlsx,positions_test.xlsx,positions_test_new.xlsx,stimuli.xlsx,stimuli_new.xlsx,stimuli/Social4.png,stimuli/Social3.png,stimuli/Nonsocial4.png,stimuli/Nonsocial3.png,stimuli/Social2.png,stimuli/Social1.png,stimuli/Nonsocial2.png,stimuli/Nonsocial1.png,cs_pos_s,"(0.7, -0.5)",,,,,,,,,0,0,0,0,,,,,,,,,0,6,6,7,,,,,,,,,,,,,,,,,,,,,,,,,,,,,,,,,,,,,,279.43276799982414,3,reward,1,0.4724852000363171,0.47248860029503703,279.91192189976573,,,,,,,,,,,,,,,,,,,,,,4,D,2024-04-08_14h25.55.623,attentional_competition_task,2022.2.4,143.9712753028426,
positions.xlsx,positions_test.xlsx,positions_test_new.xlsx,stimuli.xlsx,stimuli_new.xlsx,stimuli/Social4.png,stimuli/Social3.png,stimuli/Nonsocial4.png,stimuli/Nonsocial3.png,stimuli/Social2.png,stimuli/Social1.png,stimuli/Nonsocial2.png,stimuli/Nonsocial1.png,cs_pos_ns,"(-0.7, 0.5)",,,,,,,,,0,0,0,0,,,,,,,,,0,7,7,12,,,,,,,,,,,,,,,,,,,,,,,,,,,,,,,,,,,,,,287.1407728996128,6,reward,1,1.2221951000392437,1.2221989003010094,288.36990679986775,,,,,,,,,,,,,,,,,,,,,,4,D,2024-04-08_14h25.55.623,attentional_competition_task,2022.2.4,143.9712753028426,
positions.xlsx,positions_test.xlsx,positions_test_new.xlsx,stimuli.xlsx,stimuli_new.xlsx,stimuli/Social4.png,stimuli/Social3.png,stimuli/Nonsocial4.png,stimuli/Nonsocial3.png,stimuli/Social2.png,stimuli/Social1.png,stimuli/Nonsocial2.png,stimuli/Nonsocial1.png,cs_neg_s,"(0.7, 0.5)",,,,,,,,,0,0,0,0,,,,,,,,,0,8,8,2,,,,,,,,,,,,,,,,,,,,,,,,,,,,,,,,,,,,,,295.9667994999327,3,loss,1,0.22228330001235008,0.22228690003976226,296.1959575000219,,,,,,,,,,,,,,,,,,,,,,4,D,2024-04-08_14h25.55.623,attentional_competition_task,2022.2.4,143.9712753028426,
positions.xlsx,positions_test.xlsx,positions_test_new.xlsx,stimuli.xlsx,stimuli_new.xlsx,stimuli/Social4.png,stimuli/Social3.png,stimuli/Nonsocial4.png,stimuli/Nonsocial3.png,stimuli/Social2.png,stimuli/Social1.png,stimuli/Nonsocial2.png,stimuli/Nonsocial1.png,cs_neg_s,"(0.7, -0.5)",,,,,,,,,0,0,0,0,,,,,,,,,0,9,9,3,,,,,,,,,,,,,,,,,,,,,,,,,,,,,,,,,,,,,,302.92486339993775,3,none,0,,,305.93865809962153,,,,,,,,,,,,,,,,,,,,,,4,D,2024-04-08_14h25.55.623,attentional_competition_task,2022.2.4,143.9712753028426,
positions.xlsx,positions_test.xlsx,positions_test_new.xlsx,stimuli.xlsx,stimuli_new.xlsx,stimuli/Social4.png,stimuli/Social3.png,stimuli/Nonsocial4.png,stimuli/Nonsocial3.png,stimuli/Social2.png,stimuli/Social1.png,stimuli/Nonsocial2.png,stimuli/Nonsocial1.png,cs_pos_ns,"(-0.7, -0.5)",,,,,,,,,0,0,0,0,,,,,,,,,0,10,10,13,,,,,,,,,,,,,,,,,,,,,,,,,,,,,,,,,,,,,,312.980047499761,6,reward,1,0.3892561998218298,0.3892596997320652,313.3759180996567,,,,,,,,,,,,,,,,,,,,,,4,D,2024-04-08_14h25.55.623,attentional_competition_task,2022.2.4,143.9712753028426,
positions.xlsx,positions_test.xlsx,positions_test_new.xlsx,stimuli.xlsx,stimuli_new.xlsx,stimuli/Social4.png,stimuli/Social3.png,stimuli/Nonsocial4.png,stimuli/Nonsocial3.png,stimuli/Social2.png,stimuli/Social1.png,stimuli/Nonsocial2.png,stimuli/Nonsocial1.png,cs_pos_s,"(-0.7, 0.5)",,,,,,,,,0,0,0,0,,,,,,,,,0,11,11,4,,,,,,,,,,,,,,,,,,,,,,,,,,,,,,,,,,,,,,321.11166209960356,9,reward,1,0.37558789970353246,0.38241569977253675,321.50050899991766,,,,,,,,,,,,,,,,,,,,,,4,D,2024-04-08_14h25.55.623,attentional_competition_task,2022.2.4,143.9712753028426,
positions.xlsx,positions_test.xlsx,positions_test_new.xlsx,stimuli.xlsx,stimuli_new.xlsx,stimuli/Social4.png,stimuli/Social3.png,stimuli/Nonsocial4.png,stimuli/Nonsocial3.png,stimuli/Social2.png,stimuli/Social1.png,stimuli/Nonsocial2.png,stimuli/Nonsocial1.png,cs_neg_ns,"(0.7, -0.5)",,,,,,,,,0,0,0,0,,,,,,,,,0,12,12,11,,,,,,,,,,,,,,,,,,,,,,,,,,,,,,,,,,,,,,329.2640953999944,6,loss,1,0.4306499003432691,0.4306535003706813,329.70163229992613,,,,,,,,,,,,,,,,,,,,,,4,D,2024-04-08_14h25.55.623,attentional_competition_task,2022.2.4,143.9712753028426,
positions.xlsx,positions_test.xlsx,positions_test_new.xlsx,stimuli.xlsx,stimuli_new.xlsx,stimuli/Social4.png,stimuli/Social3.png,stimuli/Nonsocial4.png,stimuli/Nonsocial3.png,stimuli/Social2.png,stimuli/Social1.png,stimuli/Nonsocial2.png,stimuli/Nonsocial1.png,cs_neg_ns,"(0.7, 0.5)",,,,,,,,,0,0,0,0,,,,,,,,,0,13,13,10,,,,,,,,,,,,,,,,,,,,,,,,,,,,,,,,,,,,,,337.22220409987494,3,loss,1,0.4655085997655988,0.4655120000243187,337.6943449997343,,,,,,,,,,,,,,,,,,,,,,4,D,2024-04-08_14h25.55.623,attentional_competition_task,2022.2.4,143.9712753028426,
positions.xlsx,positions_test.xlsx,positions_test_new.xlsx,stimuli.xlsx,stimuli_new.xlsx,stimuli/Social4.png,stimuli/Social3.png,stimuli/Nonsocial4.png,stimuli/Nonsocial3.png,stimuli/Social2.png,stimuli/Social1.png,stimuli/Nonsocial2.png,stimuli/Nonsocial1.png,cs_neg_ns,"(-0.7, -0.5)",,,,,,,,,0,0,0,0,,,,,,,,,0,14,14,9,,,,,,,,,,,,,,,,,,,,,,,,,,,,,,,,,,,,,,345.2634347998537,0,loss,1,0.3826604997739196,0.38266409980133176,345.65232679992914,,,,,,,,,,,,,,,,,,,,,,4,D,2024-04-08_14h25.55.623,attentional_competition_task,2022.2.4,143.9712753028426,
positions.xlsx,positions_test.xlsx,positions_test_new.xlsx,stimuli.xlsx,stimuli_new.xlsx,stimuli/Social4.png,stimuli/Social3.png,stimuli/Nonsocial4.png,stimuli/Nonsocial3.png,stimuli/Social2.png,stimuli/Social1.png,stimuli/Nonsocial2.png,stimuli/Nonsocial1.png,cs_pos_ns,"(0.7, 0.5)",,,,,,,,,0,0,0,0,,,,,,,,,0,15,15,14,,,,,,,,,,,,,,,,,,,,,,,,,,,,,,,,,,,,,,353.1312229000032,3,reward,1,0.6320613999851048,0.632065000012517,353.7701443997212,,,,,,,,,,,,,,,,,,,,,,4,D,2024-04-08_14h25.55.623,attentional_competition_task,2022.2.4,143.9712753028426,
positions.xlsx,positions_test.xlsx,positions_test_new.xlsx,stimuli.xlsx,stimuli_new.xlsx,stimuli/Social4.png,stimuli/Social3.png,stimuli/Nonsocial4.png,stimuli/Nonsocial3.png,stimuli/Social2.png,stimuli/Social1.png,stimuli/Nonsocial2.png,stimuli/Nonsocial1.png,cs_pos_s,"(0.7, -0.5)",,,,,,,,,0,0,0,0,,,,,,,,,1,0,16,7,,,,,,,,,,,,,,,,,,,,,,,,,,,,,,,,,,,,,,360.90866239974275,6,reward,1,0.42400630004704,0.4240101999603212,361.3392117000185,,,,,,,,,,,,,,,,,,,,,,4,D,2024-04-08_14h25.55.623,attentional_competition_task,2022.2.4,143.9712753028426,
positions.xlsx,positions_test.xlsx,positions_test_new.xlsx,stimuli.xlsx,stimuli_new.xlsx,stimuli/Social4.png,stimuli/Social3.png,stimuli/Nonsocial4.png,stimuli/Nonsocial3.png,stimuli/Social2.png,stimuli/Social1.png,stimuli/Nonsocial2.png,stimuli/Nonsocial1.png,cs_neg_s,"(0.7, -0.5)",,,,,,,,,0,0,0,0,,,,,,,,,1,1,17,3,,,,,,,,,,,,,,,,,,,,,,,,,,,,,,,,,,,,,,368.93612749967724,6,none,0,,,371.94991589989513,,,,,,,,,,,,,,,,,,,,,,4,D,2024-04-08_14h25.55.623,attentional_competition_task,2022.2.4,143.9712753028426,
positions.xlsx,positions_test.xlsx,positions_test_new.xlsx,stimuli.xlsx,stimuli_new.xlsx,stimuli/Social4.png,stimuli/Social3.png,stimuli/Nonsocial4.png,stimuli/Nonsocial3.png,stimuli/Social2.png,stimuli/Social1.png,stimuli/Nonsocial2.png,stimuli/Nonsocial1.png,cs_pos_ns,"(0.7, -0.5)",,,,,,,,,0,0,0,0,,,,,,,,,1,2,18,15,,,,,,,,,,,,,,,,,,,,,,,,,,,,,,,,,,,,,,379.44959559990093,9,reward,1,0.8197445999830961,0.8197486000135541,380.27592129958794,,,,,,,,,,,,,,,,,,,,,,4,D,2024-04-08_14h25.55.623,attentional_competition_task,2022.2.4,143.9712753028426,
positions.xlsx,positions_test.xlsx,positions_test_new.xlsx,stimuli.xlsx,stimuli_new.xlsx,stimuli/Social4.png,stimuli/Social3.png,stimuli/Nonsocial4.png,stimuli/Nonsocial3.png,stimuli/Social2.png,stimuli/Social1.png,stimuli/Nonsocial2.png,stimuli/Nonsocial1.png,cs_neg_s,"(0.7, 0.5)",,,,,,,,,0,0,0,0,,,,,,,,,1,3,19,2,,,,,,,,,,,,,,,,,,,,,,,,,,,,,,,,,,,,,,387.74091409984976,9,none,0,,,390.74772589979693,,,,,,,,,,,,,,,,,,,,,,4,D,2024-04-08_14h25.55.623,attentional_competition_task,2022.2.4,143.9712753028426,
positions.xlsx,positions_test.xlsx,positions_test_new.xlsx,stimuli.xlsx,stimuli_new.xlsx,stimuli/Social4.png,stimuli/Social3.png,stimuli/Nonsocial4.png,stimuli/Nonsocial3.png,stimuli/Social2.png,stimuli/Social1.png,stimuli/Nonsocial2.png,stimuli/Nonsocial1.png,cs_neg_s,"(-0.7, -0.5)",,,,,,,,,0,0,0,0,,,,,,,,,1,4,20,1,,,,,,,,,,,,,,,,,,,,,,,,,,,,,,,,,,,,,,398.7960423999466,6,loss,1,0.6667985999956727,0.6737854001112282,399.4765596999787,,,,,,,,,,,,,,,,,,,,,,4,D,2024-04-08_14h25.55.623,attentional_competition_task,2022.2.4,143.9712753028426,
positions.xlsx,positions_test.xlsx,positions_test_new.xlsx,stimuli.xlsx,stimuli_new.xlsx,stimuli/Social4.png,stimuli/Social3.png,stimuli/Nonsocial4.png,stimuli/Nonsocial3.png,stimuli/Social2.png,stimuli/Social1.png,stimuli/Nonsocial2.png,stimuli/Nonsocial1.png,cs_neg_s,"(-0.7, 0.5)",,,,,,,,,0,0,0,0,,,,,,,,,1,5,21,0,,,,,,,,,,,,,,,,,,,,,,,,,,,,,,,,,,,,,,406.67071389965713,6,none,0,,,409.68446949962527,,,,,,,,,,,,,,,,,,,,,,4,D,2024-04-08_14h25.55.623,attentional_competition_task,2022.2.4,143.9712753028426,
positions.xlsx,positions_test.xlsx,positions_test_new.xlsx,stimuli.xlsx,stimuli_new.xlsx,stimuli/Social4.png,stimuli/Social3.png,stimuli/Nonsocial4.png,stimuli/Nonsocial3.png,stimuli/Social2.png,stimuli/Social1.png,stimuli/Nonsocial2.png,stimuli/Nonsocial1.png,cs_pos_ns,"(0.7, 0.5)",,,,,,,,,0,0,0,0,,,,,,,,,1,6,22,14,,,,,,,,,,,,,,,,,,,,,,,,,,,,,,,,,,,,,,416.6425210996531,9,reward,1,0.9305916000157595,0.9305953998118639,417.58003479987383,,,,,,,,,,,,,,,,,,,,,,4,D,2024-04-08_14h25.55.623,attentional_competition_task,2022.2.4,143.9712753028426,
positions.xlsx,positions_test.xlsx,positions_test_new.xlsx,stimuli.xlsx,stimuli_new.xlsx,stimuli/Social4.png,stimuli/Social3.png,stimuli/Nonsocial4.png,stimuli/Nonsocial3.png,stimuli/Social2.png,stimuli/Social1.png,stimuli/Nonsocial2.png,stimuli/Nonsocial1.png,cs_pos_ns,"(-0.7, -0.5)",,,,,,,,,0,0,0,0,,,,,,,,,1,7,23,13,,,,,,,,,,,,,,,,,,,,,,,,,,,,,,,,,,,,,,425.4546472998336,12,reward,1,0.7088433997705579,0.7088472996838391,426.1699850996956,,,,,,,,,,,,,,,,,,,,,,4,D,2024-04-08_14h25.55.623,attentional_competition_task,2022.2.4,143.9712753028426,
positions.xlsx,positions_test.xlsx,positions_test_new.xlsx,stimuli.xlsx,stimuli_new.xlsx,stimuli/Social4.png,stimuli/Social3.png,stimuli/Nonsocial4.png,stimuli/Nonsocial3.png,stimuli/Social2.png,stimuli/Social1.png,stimuli/Nonsocial2.png,stimuli/Nonsocial1.png,cs_neg_ns,"(0.7, 0.5)",,,,,,,,,0,0,0,0,,,,,,,,,1,8,24,10,,,,,,,,,,,,,,,,,,,,,,,,,,,,,,,,,,,,,,434.4543157997541,12,none,0,,,437.46815710002556,,,,,,,,,,,,,,,,,,,,,,4,D,2024-04-08_14h25.55.623,attentional_competition_task,2022.2.4,143.9712753028426,
positions.xlsx,positions_test.xlsx,positions_test_new.xlsx,stimuli.xlsx,stimuli_new.xlsx,stimuli/Social4.png,stimuli/Social3.png,stimuli/Nonsocial4.png,stimuli/Nonsocial3.png,stimuli/Social2.png,stimuli/Social1.png,stimuli/Nonsocial2.png,stimuli/Nonsocial1.png,cs_pos_s,"(0.7, 0.5)",,,,,,,,,0,0,0,0,,,,,,,,,1,9,25,6,,,,,,,,,,,,,,,,,,,,,,,,,,,,,,,,,,,,,,444.7594490000047,15,reward,1,0.4869122002273798,0.48691589990630746,445.2525247000158,,,,,,,,,,,,,,,,,,,,,,4,D,2024-04-08_14h25.55.623,attentional_competition_task,2022.2.4,143.9712753028426,
positions.xlsx,positions_test.xlsx,positions_test_new.xlsx,stimuli.xlsx,stimuli_new.xlsx,stimuli/Social4.png,stimuli/Social3.png,stimuli/Nonsocial4.png,stimuli/Nonsocial3.png,stimuli/Social2.png,stimuli/Social1.png,stimuli/Nonsocial2.png,stimuli/Nonsocial1.png,cs_pos_s,"(-0.7, -0.5)",,,,,,,,,0,0,0,0,,,,,,,,,1,10,26,5,,,,,,,,,,,,,,,,,,,,,,,,,,,,,,,,,,,,,,452.2869621999562,18,reward,1,0.7642147000879049,0.7642184998840094,453.0577785000205,,,,,,,,,,,,,,,,,,,,,,4,D,2024-04-08_14h25.55.623,attentional_competition_task,2022.2.4,143.9712753028426,
positions.xlsx,positions_test.xlsx,positions_test_new.xlsx,stimuli.xlsx,stimuli_new.xlsx,stimuli/Social4.png,stimuli/Social3.png,stimuli/Nonsocial4.png,stimuli/Nonsocial3.png,stimuli/Social2.png,stimuli/Social1.png,stimuli/Nonsocial2.png,stimuli/Nonsocial1.png,cs_neg_ns,"(0.7, -0.5)",,,,,,,,,0,0,0,0,,,,,,,,,1,11,27,11,,,,,,,,,,,,,,,,,,,,,,,,,,,,,,,,,,,,,,461.15473649976775,18,none,0,,,464.1684488998726,,,,,,,,,,,,,,,,,,,,,,4,D,2024-04-08_14h25.55.623,attentional_competition_task,2022.2.4,143.9712753028426,
positions.xlsx,positions_test.xlsx,positions_test_new.xlsx,stimuli.xlsx,stimuli_new.xlsx,stimuli/Social4.png,stimuli/Social3.png,stimuli/Nonsocial4.png,stimuli/Nonsocial3.png,stimuli/Social2.png,stimuli/Social1.png,stimuli/Nonsocial2.png,stimuli/Nonsocial1.png,cs_pos_s,"(-0.7, 0.5)",,,,,,,,,0,0,0,0,,,,,,,,,1,12,28,4,,,,,,,,,,,,,,,,,,,,,,,,,,,,,,,,,,,,,,472.043117699679,21,reward,1,0.4934576000086963,0.4934616000391543,472.54311319999397,,,,,,,,,,,,,,,,,,,,,,4,D,2024-04-08_14h25.55.623,attentional_competition_task,2022.2.4,143.9712753028426,
positions.xlsx,positions_test.xlsx,positions_test_new.xlsx,stimuli.xlsx,stimuli_new.xlsx,stimuli/Social4.png,stimuli/Social3.png,stimuli/Nonsocial4.png,stimuli/Nonsocial3.png,stimuli/Social2.png,stimuli/Social1.png,stimuli/Nonsocial2.png,stimuli/Nonsocial1.png,cs_neg_ns,"(-0.7, 0.5)",,,,,,,,,0,0,0,0,,,,,,,,,1,13,29,8,,,,,,,,,,,,,,,,,,,,,,,,,,,,,,,,,,,,,,480.32056559994817,18,loss,1,0.7086680000647902,0.708671800326556,481.0358298998326,,,,,,,,,,,,,,,,,,,,,,4,D,2024-04-08_14h25.55.623,attentional_competition_task,2022.2.4,143.9712753028426,
positions.xlsx,positions_test.xlsx,positions_test_new.xlsx,stimuli.xlsx,stimuli_new.xlsx,stimuli/Social4.png,stimuli/Social3.png,stimuli/Nonsocial4.png,stimuli/Nonsocial3.png,stimuli/Social2.png,stimuli/Social1.png,stimuli/Nonsocial2.png,stimuli/Nonsocial1.png,cs_neg_ns,"(-0.7, -0.5)",,,,,,,,,0,0,0,0,,,,,,,,,1,14,30,9,,,,,,,,,,,,,,,,,,,,,,,,,,,,,,,,,,,,,,488.52162539958954,18,none,0,,,491.53536479966715,,,,,,,,,,,,,,,,,,,,,,4,D,2024-04-08_14h25.55.623,attentional_competition_task,2022.2.4,143.9712753028426,
positions.xlsx,positions_test.xlsx,positions_test_new.xlsx,stimuli.xlsx,stimuli_new.xlsx,stimuli/Social4.png,stimuli/Social3.png,stimuli/Nonsocial4.png,stimuli/Nonsocial3.png,stimuli/Social2.png,stimuli/Social1.png,stimuli/Nonsocial2.png,stimuli/Nonsocial1.png,cs_pos_ns,"(-0.7, 0.5)",,,,,,,,,0,0,0,0,,,,,,,,,1,15,31,12,,,,,,,,,,,,,,,,,,,,,,,,,,,,,,,,,,,,,,499.34063349990174,21,reward,1,1.5001359996385872,1.5001399996690452,500.84753709984943,,,,,,,,,,,,,,,,,,,,,,4,D,2024-04-08_14h25.55.623,attentional_competition_task,2022.2.4,143.9712753028426,
positions.xlsx,positions_test.xlsx,positions_test_new.xlsx,stimuli.xlsx,stimuli_new.xlsx,stimuli/Social4.png,stimuli/Social3.png,stimuli/Nonsocial4.png,stimuli/Nonsocial3.png,stimuli/Social2.png,stimuli/Social1.png,stimuli/Nonsocial2.png,stimuli/Nonsocial1.png,cs_neg_ns,"(0.7, -0.5)",,,,,,,,,0,0,0,0,,,,,,,,,,,,,0,0,0,11,,,,,,,,,,,,,,,,,,,,,,,,,,,,,,,,,,517.2913004998118,18,loss,1,1.6251097000204027,1.6251132003962994,518.9232021998614,,,,,,,,,,,,,,,,,,,,,,4,D,2024-04-08_14h25.55.623,attentional_competition_task,2022.2.4,143.9712753028426,
positions.xlsx,positions_test.xlsx,positions_test_new.xlsx,stimuli.xlsx,stimuli_new.xlsx,stimuli/Social4.png,stimuli/Social3.png,stimuli/Nonsocial4.png,stimuli/Nonsocial3.png,stimuli/Social2.png,stimuli/Social1.png,stimuli/Nonsocial2.png,stimuli/Nonsocial1.png,cs_pos_s,"(0.7, 0.5)",,,,,,,,,0,0,0,0,,,,,,,,,,,,,0,1,1,6,,,,,,,,,,,,,,,,,,,,,,,,,,,,,,,,,,527.2978734998032,21,reward,1,0.5765738999471068,0.576577499974519,527.8811699999496,,,,,,,,,,,,,,,,,,,,,,4,D,2024-04-08_14h25.55.623,attentional_competition_task,2022.2.4,143.9712753028426,
positions.xlsx,positions_test.xlsx,positions_test_new.xlsx,stimuli.xlsx,stimuli_new.xlsx,stimuli/Social4.png,stimuli/Social3.png,stimuli/Nonsocial4.png,stimuli/Nonsocial3.png,stimuli/Social2.png,stimuli/Social1.png,stimuli/Nonsocial2.png,stimuli/Nonsocial1.png,cs_neg_ns,"(0.7, 0.5)",,,,,,,,,0,0,0,0,,,,,,,,,,,,,0,2,2,10,,,,,,,,,,,,,,,,,,,,,,,,,,,,,,,,,,535.7419745000079,21,none,0,,,538.7556878998876,,,,,,,,,,,,,,,,,,,,,,4,D,2024-04-08_14h25.55.623,attentional_competition_task,2022.2.4,143.9712753028426,
positions.xlsx,positions_test.xlsx,positions_test_new.xlsx,stimuli.xlsx,stimuli_new.xlsx,stimuli/Social4.png,stimuli/Social3.png,stimuli/Nonsocial4.png,stimuli/Nonsocial3.png,stimuli/Social2.png,stimuli/Social1.png,stimuli/Nonsocial2.png,stimuli/Nonsocial1.png,cs_pos_s,"(0.7, -0.5)",,,,,,,,,0,0,0,0,,,,,,,,,,,,,0,3,3,7,,,,,,,,,,,,,,,,,,,,,,,,,,,,,,,,,,546.3596911998466,24,reward,1,0.5140637997537851,0.5140674998983741,546.8874403997324,,,,,,,,,,,,,,,,,,,,,,4,D,2024-04-08_14h25.55.623,attentional_competition_task,2022.2.4,143.9712753028426,
positions.xlsx,positions_test.xlsx,positions_test_new.xlsx,stimuli.xlsx,stimuli_new.xlsx,stimuli/Social4.png,stimuli/Social3.png,stimuli/Nonsocial4.png,stimuli/Nonsocial3.png,stimuli/Social2.png,stimuli/Social1.png,stimuli/Nonsocial2.png,stimuli/Nonsocial1.png,cs_neg_s,"(0.7, 0.5)",,,,,,,,,0,0,0,0,,,,,,,,,,,,,0,4,4,2,,,,,,,,,,,,,,,,,,,,,,,,,,,,,,,,,,554.8593170996755,24,none,0,,,557.8730580997653,,,,,,,,,,,,,,,,,,,,,,4,D,2024-04-08_14h25.55.623,attentional_competition_task,2022.2.4,143.9712753028426,
positions.xlsx,positions_test.xlsx,positions_test_new.xlsx,stimuli.xlsx,stimuli_new.xlsx,stimuli/Social4.png,stimuli/Social3.png,stimuli/Nonsocial4.png,stimuli/Nonsocial3.png,stimuli/Social2.png,stimuli/Social1.png,stimuli/Nonsocial2.png,stimuli/Nonsocial1.png,cs_pos_s,"(-0.7, 0.5)",,,,,,,,,0,0,0,0,,,,,,,,,,,,,0,5,5,4,,,,,,,,,,,,,,,,,,,,,,,,,,,,,,,,,,565.6713307998143,27,reward,1,0.6954708998091519,0.6954769999720156,566.3796455999836,,,,,,,,,,,,,,,,,,,,,,4,D,2024-04-08_14h25.55.623,attentional_competition_task,2022.2.4,143.9712753028426,
positions.xlsx,positions_test.xlsx,positions_test_new.xlsx,stimuli.xlsx,stimuli_new.xlsx,stimuli/Social4.png,stimuli/Social3.png,stimuli/Nonsocial4.png,stimuli/Nonsocial3.png,stimuli/Social2.png,stimuli/Social1.png,stimuli/Nonsocial2.png,stimuli/Nonsocial1.png,cs_neg_s,"(0.7, -0.5)",,,,,,,,,0,0,0,0,,,,,,,,,,,,,0,6,6,3,,,,,,,,,,,,,,,,,,,,,,,,,,,,,,,,,,573.0599356000312,24,loss,1,0.23688700003549457,0.23689100006595254,573.3099635997787,,,,,,,,,,,,,,,,,,,,,,4,D,2024-04-08_14h25.55.623,attentional_competition_task,2022.2.4,143.9712753028426,
positions.xlsx,positions_test.xlsx,positions_test_new.xlsx,stimuli.xlsx,stimuli_new.xlsx,stimuli/Social4.png,stimuli/Social3.png,stimuli/Nonsocial4.png,stimuli/Nonsocial3.png,stimuli/Social2.png,stimuli/Social1.png,stimuli/Nonsocial2.png,stimuli/Nonsocial1.png,cs_neg_ns,"(-0.7, 0.5)",,,,,,,,,0,0,0,0,,,,,,,,,,,,,0,7,7,8,,,,,,,,,,,,,,,,,,,,,,,,,,,,,,,,,,580.3929914999753,21,loss,1,0.5206808000802994,0.5206844001077116,580.9207585998811,,,,,,,,,,,,,,,,,,,,,,4,D,2024-04-08_14h25.55.623,attentional_competition_task,2022.2.4,143.9712753028426,
positions.xlsx,positions_test.xlsx,positions_test_new.xlsx,stimuli.xlsx,stimuli_new.xlsx,stimuli/Social4.png,stimuli/Social3.png,stimuli/Nonsocial4.png,stimuli/Nonsocial3.png,stimuli/Social2.png,stimuli/Social1.png,stimuli/Nonsocial2.png,stimuli/Nonsocial1.png,cs_pos_ns,"(-0.7, -0.5)",,,,,,,,,0,0,0,0,,,,,,,,,,,,,0,8,8,13,,,,,,,,,,,,,,,,,,,,,,,,,,,,,,,,,,587.962134399917,24,reward,1,0.6390745001845062,0.6390783004462719,588.6080149998888,,,,,,,,,,,,,,,,,,,,,,4,D,2024-04-08_14h25.55.623,attentional_competition_task,2022.2.4,143.9712753028426,
positions.xlsx,positions_test.xlsx,positions_test_new.xlsx,stimuli.xlsx,stimuli_new.xlsx,stimuli/Social4.png,stimuli/Social3.png,stimuli/Nonsocial4.png,stimuli/Nonsocial3.png,stimuli/Social2.png,stimuli/Social1.png,stimuli/Nonsocial2.png,stimuli/Nonsocial1.png,cs_pos_ns,"(0.7, -0.5)",,,,,,,,,0,0,0,0,,,,,,,,,,,,,0,9,9,15,,,,,,,,,,,,,,,,,,,,,,,,,,,,,,,,,,596.2118140999228,27,reward,1,0.5632033003494143,0.5632071001455188,596.7812482998706,,,,,,,,,,,,,,,,,,,,,,4,D,2024-04-08_14h25.55.623,attentional_competition_task,2022.2.4,143.9712753028426,
positions.xlsx,positions_test.xlsx,positions_test_new.xlsx,stimuli.xlsx,stimuli_new.xlsx,stimuli/Social4.png,stimuli/Social3.png,stimuli/Nonsocial4.png,stimuli/Nonsocial3.png,stimuli/Social2.png,stimuli/Social1.png,stimuli/Nonsocial2.png,stimuli/Nonsocial1.png,cs_pos_s,"(-0.7, -0.5)",,,,,,,,,0,0,0,0,,,,,,,,,,,,,0,10,10,5,,,,,,,,,,,,,,,,,,,,,,,,,,,,,,,,,,604.405893899966,30,reward,1,0.6112396996468306,0.6112432996742427,605.0239672996104,,,,,,,,,,,,,,,,,,,,,,4,D,2024-04-08_14h25.55.623,attentional_competition_task,2022.2.4,143.9712753028426,
positions.xlsx,positions_test.xlsx,positions_test_new.xlsx,stimuli.xlsx,stimuli_new.xlsx,stimuli/Social4.png,stimuli/Social3.png,stimuli/Nonsocial4.png,stimuli/Nonsocial3.png,stimuli/Social2.png,stimuli/Social1.png,stimuli/Nonsocial2.png,stimuli/Nonsocial1.png,cs_neg_ns,"(-0.7, -0.5)",,,,,,,,,0,0,0,0,,,,,,,,,,,,,0,11,11,9,,,,,,,,,,,,,,,,,,,,,,,,,,,,,,,,,,611.7806209996343,27,loss,1,0.44509500032290816,0.4450991000048816,612.232013199944,,,,,,,,,,,,,,,,,,,,,,4,D,2024-04-08_14h25.55.623,attentional_competition_task,2022.2.4,143.9712753028426,
positions.xlsx,positions_test.xlsx,positions_test_new.xlsx,stimuli.xlsx,stimuli_new.xlsx,stimuli/Social4.png,stimuli/Social3.png,stimuli/Nonsocial4.png,stimuli/Nonsocial3.png,stimuli/Social2.png,stimuli/Social1.png,stimuli/Nonsocial2.png,stimuli/Nonsocial1.png,cs_pos_ns,"(0.7, 0.5)",,,,,,,,,0,0,0,0,,,,,,,,,,,,,0,12,12,14,,,,,,,,,,,,,,,,,,,,,,,,,,,,,,,,,,620.2386176995933,30,reward,1,0.6179702999070287,0.6179740000516176,620.86360159982,,,,,,,,,,,,,,,,,,,,,,4,D,2024-04-08_14h25.55.623,attentional_competition_task,2022.2.4,143.9712753028426,
positions.xlsx,positions_test.xlsx,positions_test_new.xlsx,stimuli.xlsx,stimuli_new.xlsx,stimuli/Social4.png,stimuli/Social3.png,stimuli/Nonsocial4.png,stimuli/Nonsocial3.png,stimuli/Social2.png,stimuli/Social1.png,stimuli/Nonsocial2.png,stimuli/Nonsocial1.png,cs_neg_s,"(-0.7, 0.5)",,,,,,,,,0,0,0,0,,,,,,,,,,,,,0,13,13,0,,,,,,,,,,,,,,,,,,,,,,,,,,,,,,,,,,628.6827328996733,30,none,0,,,631.6965361000039,,,,,,,,,,,,,,,,,,,,,,4,D,2024-04-08_14h25.55.623,attentional_competition_task,2022.2.4,143.9712753028426,
positions.xlsx,positions_test.xlsx,positions_test_new.xlsx,stimuli.xlsx,stimuli_new.xlsx,stimuli/Social4.png,stimuli/Social3.png,stimuli/Nonsocial4.png,stimuli/Nonsocial3.png,stimuli/Social2.png,stimuli/Social1.png,stimuli/Nonsocial2.png,stimuli/Nonsocial1.png,cs_neg_s,"(-0.7, -0.5)",,,,,,,,,0,0,0,0,,,,,,,,,,,,,0,14,14,1,,,,,,,,,,,,,,,,,,,,,,,,,,,,,,,,,,639.0782000999898,27,loss,1,0.18806400010362267,0.18806770024821162,639.2726165996864,,,,,,,,,,,,,,,,,,,,,,4,D,2024-04-08_14h25.55.623,attentional_competition_task,2022.2.4,143.9712753028426,
positions.xlsx,positions_test.xlsx,positions_test_new.xlsx,stimuli.xlsx,stimuli_new.xlsx,stimuli/Social4.png,stimuli/Social3.png,stimuli/Nonsocial4.png,stimuli/Nonsocial3.png,stimuli/Social2.png,stimuli/Social1.png,stimuli/Nonsocial2.png,stimuli/Nonsocial1.png,cs_pos_ns,"(-0.7, 0.5)",,,,,,,,,0,0,0,0,,,,,,,,,,,,,0,15,15,12,,,,,,,,,,,,,,,,,,,,,,,,,,,,,,,,,,646.4459283999167,30,reward,1,0.6530772997066379,0.6530813998542726,647.1056555998512,,,,,,,,,,,,,,,,,,,,,,4,D,2024-04-08_14h25.55.623,attentional_competition_task,2022.2.4,143.9712753028426,
positions.xlsx,positions_test.xlsx,positions_test_new.xlsx,stimuli.xlsx,stimuli_new.xlsx,stimuli/Social4.png,stimuli/Social3.png,stimuli/Nonsocial4.png,stimuli/Nonsocial3.png,stimuli/Social2.png,stimuli/Social1.png,stimuli/Nonsocial2.png,stimuli/Nonsocial1.png,cs_pos_ns,"(0.7, -0.5)",,,,,,,,,0,0,0,0,,,,,,,,,,,,,1,0,16,15,,,,,,,,,,,,,,,,,,,,,,,,,,,,,,,,,,654.4803170999512,33,reward,1,0.6114149000495672,0.6114186998456717,655.0984083996154,,,,,,,,,,,,,,,,,,,,,,4,D,2024-04-08_14h25.55.623,attentional_competition_task,2022.2.4,143.9712753028426,
positions.xlsx,positions_test.xlsx,positions_test_new.xlsx,stimuli.xlsx,stimuli_new.xlsx,stimuli/Social4.png,stimuli/Social3.png,stimuli/Nonsocial4.png,stimuli/Nonsocial3.png,stimuli/Social2.png,stimuli/Social1.png,stimuli/Nonsocial2.png,stimuli/Nonsocial1.png,cs_pos_s,"(0.7, -0.5)",,,,,,,,,0,0,0,0,,,,,,,,,,,,,1,1,17,7,,,,,,,,,,,,,,,,,,,,,,,,,,,,,,,,,,662.5355279999785,36,reward,1,0.5347477998584509,0.5347513998858631,663.0771963000298,,,,,,,,,,,,,,,,,,,,,,4,D,2024-04-08_14h25.55.623,attentional_competition_task,2022.2.4,143.9712753028426,
positions.xlsx,positions_test.xlsx,positions_test_new.xlsx,stimuli.xlsx,stimuli_new.xlsx,stimuli/Social4.png,stimuli/Social3.png,stimuli/Nonsocial4.png,stimuli/Nonsocial3.png,stimuli/Social2.png,stimuli/Social1.png,stimuli/Nonsocial2.png,stimuli/Nonsocial1.png,cs_pos_ns,"(-0.7, -0.5)",,,,,,,,,0,0,0,0,,,,,,,,,,,,,1,2,18,13,,,,,,,,,,,,,,,,,,,,,,,,,,,,,,,,,,671.0838349997066,39,reward,1,0.5907624000683427,0.5907666999846697,671.6810379000381,,,,,,,,,,,,,,,,,,,,,,4,D,2024-04-08_14h25.55.623,attentional_competition_task,2022.2.4,143.9712753028426,
positions.xlsx,positions_test.xlsx,positions_test_new.xlsx,stimuli.xlsx,stimuli_new.xlsx,stimuli/Social4.png,stimuli/Social3.png,stimuli/Nonsocial4.png,stimuli/Nonsocial3.png,stimuli/Social2.png,stimuli/Social1.png,stimuli/Nonsocial2.png,stimuli/Nonsocial1.png,cs_pos_ns,"(-0.7, 0.5)",,,,,,,,,0,0,0,0,,,,,,,,,,,,,1,3,19,12,,,,,,,,,,,,,,,,,,,,,,,,,,,,,,,,,,679.5348812998272,42,reward,1,0.7013244000263512,0.7013281001709402,680.2431785999797,,,,,,,,,,,,,,,,,,,,,,4,D,2024-04-08_14h25.55.623,attentional_competition_task,2022.2.4,143.9712753028426,
positions.xlsx,positions_test.xlsx,positions_test_new.xlsx,stimuli.xlsx,stimuli_new.xlsx,stimuli/Social4.png,stimuli/Social3.png,stimuli/Nonsocial4.png,stimuli/Nonsocial3.png,stimuli/Social2.png,stimuli/Social1.png,stimuli/Nonsocial2.png,stimuli/Nonsocial1.png,cs_pos_ns,"(0.7, 0.5)",,,,,,,,,0,0,0,0,,,,,,,,,,,,,1,4,20,14,,,,,,,,,,,,,,,,,,,,,,,,,,,,,,,,,,688.3887666999362,45,reward,1,0.4721997999586165,0.4722035997547209,688.8677988997661,,,,,,,,,,,,,,,,,,,,,,4,D,2024-04-08_14h25.55.623,attentional_competition_task,2022.2.4,143.9712753028426,
positions.xlsx,positions_test.xlsx,positions_test_new.xlsx,stimuli.xlsx,stimuli_new.xlsx,stimuli/Social4.png,stimuli/Social3.png,stimuli/Nonsocial4.png,stimuli/Nonsocial3.png,stimuli/Social2.png,stimuli/Social1.png,stimuli/Nonsocial2.png,stimuli/Nonsocial1.png,cs_pos_s,"(0.7, 0.5)",,,,,,,,,0,0,0,0,,,,,,,,,,,,,1,5,21,6,,,,,,,,,,,,,,,,,,,,,,,,,,,,,,,,,,696.7217013998888,48,reward,1,0.520730399992317,0.5207341001369059,697.249501499813,,,,,,,,,,,,,,,,,,,,,,4,D,2024-04-08_14h25.55.623,attentional_competition_task,2022.2.4,143.9712753028426,
positions.xlsx,positions_test.xlsx,positions_test_new.xlsx,stimuli.xlsx,stimuli_new.xlsx,stimuli/Social4.png,stimuli/Social3.png,stimuli/Nonsocial4.png,stimuli/Nonsocial3.png,stimuli/Social2.png,stimuli/Social1.png,stimuli/Nonsocial2.png,stimuli/Nonsocial1.png,cs_neg_s,"(0.7, 0.5)",,,,,,,,,0,0,0,0,,,,,,,,,,,,,1,6,22,2,,,,,,,,,,,,,,,,,,,,,,,,,,,,,,,,,,704.8255369998515,48,none,0,,,707.8393416996114,,,,,,,,,,,,,,,,,,,,,,4,D,2024-04-08_14h25.55.623,attentional_competition_task,2022.2.4,143.9712753028426,
positions.xlsx,positions_test.xlsx,positions_test_new.xlsx,stimuli.xlsx,stimuli_new.xlsx,stimuli/Social4.png,stimuli/Social3.png,stimuli/Nonsocial4.png,stimuli/Nonsocial3.png,stimuli/Social2.png,stimuli/Social1.png,stimuli/Nonsocial2.png,stimuli/Nonsocial1.png,cs_neg_s,"(-0.7, 0.5)",,,,,,,,,0,0,0,0,,,,,,,,,,,,,1,7,23,0,,,,,,,,,,,,,,,,,,,,,,,,,,,,,,,,,,714.9015475995839,48,none,0,,,717.9083624999039,,,,,,,,,,,,,,,,,,,,,,4,D,2024-04-08_14h25.55.623,attentional_competition_task,2022.2.4,143.9712753028426,
positions.xlsx,positions_test.xlsx,positions_test_new.xlsx,stimuli.xlsx,stimuli_new.xlsx,stimuli/Social4.png,stimuli/Social3.png,stimuli/Nonsocial4.png,stimuli/Nonsocial3.png,stimuli/Social2.png,stimuli/Social1.png,stimuli/Nonsocial2.png,stimuli/Nonsocial1.png,cs_neg_ns,"(0.7, -0.5)",,,,,,,,,0,0,0,0,,,,,,,,,,,,,1,8,24,11,,,,,,,,,,,,,,,,,,,,,,,,,,,,,,,,,,725.0469514997676,48,none,0,,,728.0608018999919,,,,,,,,,,,,,,,,,,,,,,4,D,2024-04-08_14h25.55.623,attentional_competition_task,2022.2.4,143.9712753028426,
positions.xlsx,positions_test.xlsx,positions_test_new.xlsx,stimuli.xlsx,stimuli_new.xlsx,stimuli/Social4.png,stimuli/Social3.png,stimuli/Nonsocial4.png,stimuli/Nonsocial3.png,stimuli/Social2.png,stimuli/Social1.png,stimuli/Nonsocial2.png,stimuli/Nonsocial1.png,cs_pos_s,"(-0.7, -0.5)",,,,,,,,,0,0,0,0,,,,,,,,,,,,,1,9,25,5,,,,,,,,,,,,,,,,,,,,,,,,,,,,,,,,,,736.0187368998304,51,reward,1,0.46532770013436675,0.46533160004764795,736.4909490998834,,,,,,,,,,,,,,,,,,,,,,4,D,2024-04-08_14h25.55.623,attentional_competition_task,2022.2.4,143.9712753028426,
positions.xlsx,positions_test.xlsx,positions_test_new.xlsx,stimuli.xlsx,stimuli_new.xlsx,stimuli/Social4.png,stimuli/Social3.png,stimuli/Nonsocial4.png,stimuli/Nonsocial3.png,stimuli/Social2.png,stimuli/Social1.png,stimuli/Nonsocial2.png,stimuli/Nonsocial1.png,cs_neg_s,"(0.7, -0.5)",,,,,,,,,0,0,0,0,,,,,,,,,,,,,1,10,26,3,,,,,,,,,,,,,,,,,,,,,,,,,,,,,,,,,,743.5184329999611,51,none,0,,,746.525269899983,,,,,,,,,,,,,,,,,,,,,,4,D,2024-04-08_14h25.55.623,attentional_competition_task,2022.2.4,143.9712753028426,
positions.xlsx,positions_test.xlsx,positions_test_new.xlsx,stimuli.xlsx,stimuli_new.xlsx,stimuli/Social4.png,stimuli/Social3.png,stimuli/Nonsocial4.png,stimuli/Nonsocial3.png,stimuli/Social2.png,stimuli/Social1.png,stimuli/Nonsocial2.png,stimuli/Nonsocial1.png,cs_pos_s,"(-0.7, 0.5)",,,,,,,,,0,0,0,0,,,,,,,,,,,,,1,11,27,4,,,,,,,,,,,,,,,,,,,,,,,,,,,,,,,,,,753.8722146996297,54,reward,1,0.6458318997174501,0.6528099998831749,754.5318832998164,,,,,,,,,,,,,,,,,,,,,,4,D,2024-04-08_14h25.55.623,attentional_competition_task,2022.2.4,143.9712753028426,
positions.xlsx,positions_test.xlsx,positions_test_new.xlsx,stimuli.xlsx,stimuli_new.xlsx,stimuli/Social4.png,stimuli/Social3.png,stimuli/Nonsocial4.png,stimuli/Nonsocial3.png,stimuli/Social2.png,stimuli/Social1.png,stimuli/Nonsocial2.png,stimuli/Nonsocial1.png,cs_neg_s,"(-0.7, -0.5)",,,,,,,,,0,0,0,0,,,,,,,,,,,,,1,12,28,1,,,,,,,,,,,,,,,,,,,,,,,,,,,,,,,,,,761.71217409987,54,none,0,,,764.7190393996425,,,,,,,,,,,,,,,,,,,,,,4,D,2024-04-08_14h25.55.623,attentional_competition_task,2022.2.4,143.9712753028426,
positions.xlsx,positions_test.xlsx,positions_test_new.xlsx,stimuli.xlsx,stimuli_new.xlsx,stimuli/Social4.png,stimuli/Social3.png,stimuli/Nonsocial4.png,stimuli/Nonsocial3.png,stimuli/Social2.png,stimuli/Social1.png,stimuli/Nonsocial2.png,stimuli/Nonsocial1.png,cs_neg_ns,"(0.7, 0.5)",,,,,,,,,0,0,0,0,,,,,,,,,,,,,1,13,29,10,,,,,,,,,,,,,,,,,,,,,,,,,,,,,,,,,,772.7395146996714,54,none,0,,,775.753279699944,,,,,,,,,,,,,,,,,,,,,,4,D,2024-04-08_14h25.55.623,attentional_competition_task,2022.2.4,143.9712753028426,
positions.xlsx,positions_test.xlsx,positions_test_new.xlsx,stimuli.xlsx,stimuli_new.xlsx,stimuli/Social4.png,stimuli/Social3.png,stimuli/Nonsocial4.png,stimuli/Nonsocial3.png,stimuli/Social2.png,stimuli/Social1.png,stimuli/Nonsocial2.png,stimuli/Nonsocial1.png,cs_neg_ns,"(-0.7, -0.5)",,,,,,,,,0,0,0,0,,,,,,,,,,,,,1,14,30,9,,,,,,,,,,,,,,,,,,,,,,,,,,,,,,,,,,783.4196399999782,54,none,0,,,786.4334208997898,,,,,,,,,,,,,,,,,,,,,,4,D,2024-04-08_14h25.55.623,attentional_competition_task,2022.2.4,143.9712753028426,
positions.xlsx,positions_test.xlsx,positions_test_new.xlsx,stimuli.xlsx,stimuli_new.xlsx,stimuli/Social4.png,stimuli/Social3.png,stimuli/Nonsocial4.png,stimuli/Nonsocial3.png,stimuli/Social2.png,stimuli/Social1.png,stimuli/Nonsocial2.png,stimuli/Nonsocial1.png,cs_neg_ns,"(-0.7, 0.5)",,,,,,,,,0,0,0,0,,,,,,,,,,,,,1,15,31,8,,,,,,,,,,,,,,,,,,,,,,,,,,,,,,,,,,793.7872494999319,51,loss,1,0.6806415999308228,0.6806450998410583,794.4747317000292,,,,,,,,,,,,,,,,,,,,,,4,D,2024-04-08_14h25.55.623,attentional_competition_task,2022.2.4,143.9712753028426,
positions.xlsx,positions_test.xlsx,positions_test_new.xlsx,stimuli.xlsx,stimuli_new.xlsx,stimuli/Social4.png,stimuli/Social3.png,stimuli/Nonsocial4.png,stimuli/Nonsocial3.png,stimuli/Social2.png,stimuli/Social1.png,stimuli/Nonsocial2.png,stimuli/Nonsocial1.png,cs_neg_ns,,,,,,,,,,0,0,0,0,,,,,,,,,,,,,,,,,0,0,0,1,,,,,,,,,,,,,,,,,,,,,,,799.3079140000045,4.0,5.204847100190818,,,,,,,,,,,,,,,,,,,,,,,,,,,,,,,,,4,D,2024-04-08_14h25.55.623,attentional_competition_task,2022.2.4,143.9712753028426,
positions.xlsx,positions_test.xlsx,positions_test_new.xlsx,stimuli.xlsx,stimuli_new.xlsx,stimuli/Social4.png,stimuli/Social3.png,stimuli/Nonsocial4.png,stimuli/Nonsocial3.png,stimuli/Social2.png,stimuli/Social1.png,stimuli/Nonsocial2.png,stimuli/Nonsocial1.png,cs_neg_s,,,,,,,,,,0,0,0,0,,,,,,,,,,,,,,,,,0,1,1,0,,,,,,,,,,,,,,,,,,,,,,,804.8077239999548,3.0,1.7315996997058392,,,,,,,,,,,,,,,,,,,,,,,,,,,,,,,,,4,D,2024-04-08_14h25.55.623,attentional_competition_task,2022.2.4,143.9712753028426,
positions.xlsx,positions_test.xlsx,positions_test_new.xlsx,stimuli.xlsx,stimuli_new.xlsx,stimuli/Social4.png,stimuli/Social3.png,stimuli/Nonsocial4.png,stimuli/Nonsocial3.png,stimuli/Social2.png,stimuli/Social1.png,stimuli/Nonsocial2.png,stimuli/Nonsocial1.png,cs_pos_s,,,,,,,,,,0,0,0,0,,,,,,,,,,,,,,,,,0,2,2,2,,,,,,,,,,,,,,,,,,,,,,,806.7173806997016,6.0,1.2716787001118064,,,,,,,,,,,,,,,,,,,,,,,,,,,,,,,,,4,D,2024-04-08_14h25.55.623,attentional_competition_task,2022.2.4,143.9712753028426,
positions.xlsx,positions_test.xlsx,positions_test_new.xlsx,stimuli.xlsx,stimuli_new.xlsx,stimuli/Social4.png,stimuli/Social3.png,stimuli/Nonsocial4.png,stimuli/Nonsocial3.png,stimuli/Social2.png,stimuli/Social1.png,stimuli/Nonsocial2.png,stimuli/Nonsocial1.png,cs_pos_ns,,,,,,,,,,0,0,0,0,,,,,,,,,,,,,,,,,0,3,3,3,,,,,,,,,,,,,,,,,,,,,,,808.2658879999071,6.0,1.9805557001382113,,,,,,,,,,,,,,,,,,,,,,,,,,,,,,,,,4,D,2024-04-08_14h25.55.623,attentional_competition_task,2022.2.4,143.9712753028426,
positions.xlsx,positions_test.xlsx,positions_test_new.xlsx,stimuli.xlsx,stimuli_new.xlsx,stimuli/Social4.png,stimuli/Social3.png,stimuli/Nonsocial4.png,stimuli/Nonsocial3.png,stimuli/Social2.png,stimuli/Social1.png,stimuli/Nonsocial2.png,stimuli/Nonsocial1.png,,,"(-0.7, -0.5)",cs_pos_ns,"(-0.7, 0.5)",cs_pos_s,"(0.7, -0.5)",cs_neg_s,"(0.7, 0.5)",cs_neg_ns,0,0,0,0,,,,,,,,,,,,,,,,,,,,,0,0,0,19,,,,,,,,,,,,,,,,,,,,,,,,,,,60,reward,,,,,810.3699325998314,817.9043919998221,817.9043919998221,817.9043919998221,817.9043919998221,1,0.023696199990808964,0.23275980027392507,0,,,0,,,0,,,818.6335780997761,818.6335780997761,818.6335780997761,818.6335780997761,4,D,2024-04-08_14h25.55.623,attentional_competition_task,2022.2.4,143.9712753028426,
positions.xlsx,positions_test.xlsx,positions_test_new.xlsx,stimuli.xlsx,stimuli_new.xlsx,stimuli/Social4.png,stimuli/Social3.png,stimuli/Nonsocial4.png,stimuli/Nonsocial3.png,stimuli/Social2.png,stimuli/Social1.png,stimuli/Nonsocial2.png,stimuli/Nonsocial1.png,,,"(-0.7, -0.5)",cs_neg_ns,"(-0.7, 0.5)",cs_neg_s,"(0.7, -0.5)",cs_pos_ns,"(0.7, 0.5)",cs_pos_s,0,0,0,0,,,,,,,,,,,,,,,,,,,,,0,1,1,15,,,,,,,,,,,,,,,,,,,,,,,,,,,69,reward,,,,,,827.0012705996633,827.0012705996633,827.0012705996633,827.0012705996633,0,,,0,,,0,,,1,0.4115900998003781,0.5853400998748839,828.0845529995859,828.0845529995859,828.0845529995859,828.0845529995859,4,D,2024-04-08_14h25.55.623,attentional_competition_task,2022.2.4,143.9712753028426,
positions.xlsx,positions_test.xlsx,positions_test_new.xlsx,stimuli.xlsx,stimuli_new.xlsx,stimuli/Social4.png,stimuli/Social3.png,stimuli/Nonsocial4.png,stimuli/Nonsocial3.png,stimuli/Social2.png,stimuli/Social1.png,stimuli/Nonsocial2.png,stimuli/Nonsocial1.png,,,"(-0.7, -0.5)",cs_neg_s,"(-0.7, 0.5)",cs_pos_s,"(0.7, -0.5)",cs_neg_ns,"(0.7, 0.5)",cs_pos_ns,0,0,0,0,,,,,,,,,,,,,,,,,,,,,0,2,2,0,,,,,,,,,,,,,,,,,,,,,,,,,,,72,reward,,,,,,835.7370188999921,835.7370188999921,835.7370188999921,835.7370188999921,0,,,1,0.15707409987226129,0.15707780001685023,0,,,1,0.02402549982070923,0.0947787999175489,835.8967581996694,835.8967581996694,835.8967581996694,835.8967581996694,4,D,2024-04-08_14h25.55.623,attentional_competition_task,2022.2.4,143.9712753028426,
positions.xlsx,positions_test.xlsx,positions_test_new.xlsx,stimuli.xlsx,stimuli_new.xlsx,stimuli/Social4.png,stimuli/Social3.png,stimuli/Nonsocial4.png,stimuli/Nonsocial3.png,stimuli/Social2.png,stimuli/Social1.png,stimuli/Nonsocial2.png,stimuli/Nonsocial1.png,,,"(-0.7, -0.5)",cs_neg_ns,"(-0.7, 0.5)",cs_pos_ns,"(0.7, -0.5)",cs_neg_s,"(0.7, 0.5)",cs_pos_s,0,0,0,0,,,,,,,,,,,,,,,,,,,,,0,3,3,17,,,,,,,,,,,,,,,,,,,,,,,,,,,81,reward,,,,,,844.2783747999929,844.2783747999929,844.2783747999929,844.2783747999929,0,,,1,0.025010899640619755,0.19785729981958866,0,,,0,,,844.979719999712,844.979719999712,844.979719999712,844.979719999712,4,D,2024-04-08_14h25.55.623,attentional_competition_task,2022.2.4,143.9712753028426,
positions.xlsx,positions_test.xlsx,positions_test_new.xlsx,stimuli.xlsx,stimuli_new.xlsx,stimuli/Social4.png,stimuli/Social3.png,stimuli/Nonsocial4.png,stimuli/Nonsocial3.png,stimuli/Social2.png,stimuli/Social1.png,stimuli/Nonsocial2.png,stimuli/Nonsocial1.png,,,"(-0.7, -0.5)",cs_neg_ns,"(-0.7, 0.5)",cs_neg_s,"(0.7, -0.5)",cs_pos_s,"(0.7, 0.5)",cs_pos_ns,0,0,0,0,,,,,,,,,,,,,,,,,,,,,0,4,4,14,,,,,,,,,,,,,,,,,,,,,,,,,,,90,reward,,,,,,852.6738285999745,852.6738285999745,852.6738285999745,852.6738285999745,0,,,0,,,0,,,1,0.029131100047379732,0.571781599894166,853.7432725997642,853.7432725997642,853.7432725997642,853.7432725997642,4,D,2024-04-08_14h25.55.623,attentional_competition_task,2022.2.4,143.9712753028426,
positions.xlsx,positions_test.xlsx,positions_test_new.xlsx,stimuli.xlsx,stimuli_new.xlsx,stimuli/Social4.png,stimuli/Social3.png,stimuli/Nonsocial4.png,stimuli/Nonsocial3.png,stimuli/Social2.png,stimuli/Social1.png,stimuli/Nonsocial2.png,stimuli/Nonsocial1.png,,,"(-0.7, -0.5)",cs_neg_s,"(-0.7, 0.5)",cs_pos_ns,"(0.7, -0.5)",cs_neg_ns,"(0.7, 0.5)",cs_pos_s,0,0,0,0,,,,,,,,,,,,,,,,,,,,,0,5,5,5,,,,,,,,,,,,,,,,,,,,,,,,,,,99,reward,,,,,,861.7151654995978,861.7151654995978,861.7151654995978,861.7151654995978,0,,,1,0.0233407998457551,0.10065660020336509,0,,,0,,,862.3193128998391,862.3193128998391,862.3193128998391,862.3193128998391,4,D,2024-04-08_14h25.55.623,attentional_competition_task,2022.2.4,143.9712753028426,
positions.xlsx,positions_test.xlsx,positions_test_new.xlsx,stimuli.xlsx,stimuli_new.xlsx,stimuli/Social4.png,stimuli/Social3.png,stimuli/Nonsocial4.png,stimuli/Nonsocial3.png,stimuli/Social2.png,stimuli/Social1.png,stimuli/Nonsocial2.png,stimuli/Nonsocial1.png,,,"(-0.7, -0.5)",cs_pos_ns,"(-0.7, 0.5)",cs_neg_s,"(0.7, -0.5)",cs_pos_s,"(0.7, 0.5)",cs_neg_ns,0,0,0,0,,,,,,,,,,,,,,,,,,,,,0,6,6,22,,,,,,,,,,,,,,,,,,,,,,,,,,,105,reward,,,,,,869.9856745996512,869.9856745996512,869.9856745996512,869.9856745996512,1,0.024139899760484695,0.038251399993896484,0,,,0,,,0,,,870.5273455996066,870.5273455996066,870.5273455996066,870.5273455996066,4,D,2024-04-08_14h25.55.623,attentional_competition_task,2022.2.4,143.9712753028426,
positions.xlsx,positions_test.xlsx,positions_test_new.xlsx,stimuli.xlsx,stimuli_new.xlsx,stimuli/Social4.png,stimuli/Social3.png,stimuli/Nonsocial4.png,stimuli/Nonsocial3.png,stimuli/Social2.png,stimuli/Social1.png,stimuli/Nonsocial2.png,stimuli/Nonsocial1.png,,,"(-0.7, -0.5)",cs_neg_ns,"(-0.7, 0.5)",cs_pos_s,"(0.7, -0.5)",cs_neg_s,"(0.7, 0.5)",cs_pos_ns,0,0,0,0,,,,,,,,,,,,,,,,,,,,,0,7,7,12,,,,,,,,,,,,,,,,,,,,,,,,,,,111,reward,,,,,,878.3117253999226,878.3117253999226,878.3117253999226,878.3117253999226,0,,,1,0.03275380004197359,0.26665910007432103,0,,,0,,,879.0756206996739,879.0756206996739,879.0756206996739,879.0756206996739,4,D,2024-04-08_14h25.55.623,attentional_competition_task,2022.2.4,143.9712753028426,
positions.xlsx,positions_test.xlsx,positions_test_new.xlsx,stimuli.xlsx,stimuli_new.xlsx,stimuli/Social4.png,stimuli/Social3.png,stimuli/Nonsocial4.png,stimuli/Nonsocial3.png,stimuli/Social2.png,stimuli/Social1.png,stimuli/Nonsocial2.png,stimuli/Nonsocial1.png,,,"(-0.7, -0.5)",cs_pos_s,"(-0.7, 0.5)",cs_neg_s,"(0.7, -0.5)",cs_neg_ns,"(0.7, 0.5)",cs_pos_ns,0,0,0,0,,,,,,,,,,,,,,,,,,,,,0,8,8,6,,,,,,,,,,,,,,,,,,,,,,,,,,,108,loss,,,,,,886.7141527999192,886.7141527999192,886.7141527999192,886.7141527999192,1,0.02866510022431612,0.22971130022779107,0,,,0,,,0,,,887.019738599658,887.019738599658,887.019738599658,887.019738599658,4,D,2024-04-08_14h25.55.623,attentional_competition_task,2022.2.4,143.9712753028426,
positions.xlsx,positions_test.xlsx,positions_test_new.xlsx,stimuli.xlsx,stimuli_new.xlsx,stimuli/Social4.png,stimuli/Social3.png,stimuli/Nonsocial4.png,stimuli/Nonsocial3.png,stimuli/Social2.png,stimuli/Social1.png,stimuli/Nonsocial2.png,stimuli/Nonsocial1.png,,,"(-0.7, -0.5)",cs_pos_ns,"(-0.7, 0.5)",cs_pos_s,"(0.7, -0.5)",cs_neg_ns,"(0.7, 0.5)",cs_neg_s,0,0,0,0,,,,,,,,,,,,,,,,,,,,,0,9,9,18,,,,,,,,,,,,,,,,,,,,,,,,,,,108,loss,,,,,,896.1235151998699,896.1235151998699,896.1235151998699,896.1235151998699,0,,,0,,,0,,,1,0.030745400115847588,0.03074940014630556,896.1235151998699,896.1235151998699,896.1235151998699,896.1235151998699,4,D,2024-04-08_14h25.55.623,attentional_competition_task,2022.2.4,143.9712753028426,
positions.xlsx,positions_test.xlsx,positions_test_new.xlsx,stimuli.xlsx,stimuli_new.xlsx,stimuli/Social4.png,stimuli/Social3.png,stimuli/Nonsocial4.png,stimuli/Nonsocial3.png,stimuli/Social2.png,stimuli/Social1.png,stimuli/Nonsocial2.png,stimuli/Nonsocial1.png,,,"(-0.7, -0.5)",cs_neg_s,"(-0.7, 0.5)",cs_pos_s,"(0.7, -0.5)",cs_pos_ns,"(0.7, 0.5)",cs_neg_ns,0,0,0,0,,,,,,,,,,,,,,,,,,,,,0,10,10,1,,,,,,,,,,,,,,,,,,,,,,,,,,,111,reward,,,,,,903.6023795995861,903.6023795995861,903.6023795995861,903.6023795995861,0,,,0,,,1,0.024693800136446953,0.024697700049728155,0,,,903.6023795995861,903.6023795995861,903.6023795995861,903.6023795995861,4,D,2024-04-08_14h25.55.623,attentional_competition_task,2022.2.4,143.9712753028426,
positions.xlsx,positions_test.xlsx,positions_test_new.xlsx,stimuli.xlsx,stimuli_new.xlsx,stimuli/Social4.png,stimuli/Social3.png,stimuli/Nonsocial4.png,stimuli/Nonsocial3.png,stimuli/Social2.png,stimuli/Social1.png,stimuli/Nonsocial2.png,stimuli/Nonsocial1.png,,,"(-0.7, -0.5)",cs_pos_ns,"(-0.7, 0.5)",cs_neg_ns,"(0.7, -0.5)",cs_pos_s,"(0.7, 0.5)",cs_neg_s,0,0,0,0,,,,,,,,,,,,,,,,,,,,,0,11,11,20,,,,,,,,,,,,,,,,,,,,,,,,,,,111,loss,,,,,,912.0673372996971,912.0673372996971,912.0673372996971,912.0673372996971,0,,,1,0.023759299889206886,0.02376319980248809,0,,,0,,,912.0673372996971,912.0673372996971,912.0673372996971,912.0673372996971,4,D,2024-04-08_14h25.55.623,attentional_competition_task,2022.2.4,143.9712753028426,
positions.xlsx,positions_test.xlsx,positions_test_new.xlsx,stimuli.xlsx,stimuli_new.xlsx,stimuli/Social4.png,stimuli/Social3.png,stimuli/Nonsocial4.png,stimuli/Nonsocial3.png,stimuli/Social2.png,stimuli/Social1.png,stimuli/Nonsocial2.png,stimuli/Nonsocial1.png,,,"(-0.7, -0.5)",cs_pos_s,"(-0.7, 0.5)",cs_neg_ns,"(0.7, -0.5)",cs_neg_s,"(0.7, 0.5)",cs_pos_ns,0,0,0,0,,,,,,,,,,,,,,,,,,,,,0,12,12,8,,,,,,,,,,,,,,,,,,,,,,,,,,,120,reward,,,,,,920.1780930999666,920.1780930999666,920.1780930999666,920.1780930999666,0,,,0,,,0,,,1,0.02533390000462532,0.29606599966064095,920.976697999984,920.976697999984,920.976697999984,920.976697999984,4,D,2024-04-08_14h25.55.623,attentional_competition_task,2022.2.4,143.9712753028426,
positions.xlsx,positions_test.xlsx,positions_test_new.xlsx,stimuli.xlsx,stimuli_new.xlsx,stimuli/Social4.png,stimuli/Social3.png,stimuli/Nonsocial4.png,stimuli/Nonsocial3.png,stimuli/Social2.png,stimuli/Social1.png,stimuli/Nonsocial2.png,stimuli/Nonsocial1.png,,,"(-0.7, -0.5)",cs_neg_s,"(-0.7, 0.5)",cs_neg_ns,"(0.7, -0.5)",cs_pos_s,"(0.7, 0.5)",cs_pos_ns,0,0,0,0,,,,,,,,,,,,,,,,,,,,,0,13,13,2,,,,,,,,,,,,,,,,,,,,,,,,,,,123,reward,,,,,,928.0181064996868,928.0181064996868,928.0181064996868,928.0181064996868,0,,,0,,,0,,,1,0.029103099834173918,0.029106699861586094,928.0181064996868,928.0181064996868,928.0181064996868,928.0181064996868,4,D,2024-04-08_14h25.55.623,attentional_competition_task,2022.2.4,143.9712753028426,
positions.xlsx,positions_test.xlsx,positions_test_new.xlsx,stimuli.xlsx,stimuli_new.xlsx,stimuli/Social4.png,stimuli/Social3.png,stimuli/Nonsocial4.png,stimuli/Nonsocial3.png,stimuli/Social2.png,stimuli/Social1.png,stimuli/Nonsocial2.png,stimuli/Nonsocial1.png,,,"(-0.7, -0.5)",cs_pos_s,"(-0.7, 0.5)",cs_neg_ns,"(0.7, -0.5)",cs_pos_ns,"(0.7, 0.5)",cs_neg_s,0,0,0,0,,,,,,,,,,,,,,,,,,,,,0,14,14,9,,,,,,,,,,,,,,,,,,,,,,,,,,,132,reward,,,,,,936.2816515997984,936.2816515997984,936.2816515997984,936.2816515997984,1,0.02920309966430068,0.7660884996876121,0,,,0,,,0,,,937.5454927999526,937.5454927999526,937.5454927999526,937.5454927999526,4,D,2024-04-08_14h25.55.623,attentional_competition_task,2022.2.4,143.9712753028426,
positions.xlsx,positions_test.xlsx,positions_test_new.xlsx,stimuli.xlsx,stimuli_new.xlsx,stimuli/Social4.png,stimuli/Social3.png,stimuli/Nonsocial4.png,stimuli/Nonsocial3.png,stimuli/Social2.png,stimuli/Social1.png,stimuli/Nonsocial2.png,stimuli/Nonsocial1.png,,,"(-0.7, -0.5)",cs_pos_s,"(-0.7, 0.5)",cs_pos_ns,"(0.7, -0.5)",cs_neg_ns,"(0.7, 0.5)",cs_neg_s,0,0,0,0,,,,,,,,,,,,,,,,,,,,,0,15,15,11,,,,,,,,,,,,,,,,,,,,,,,,,,,141,reward,,,,,,945.9617922999896,945.9617922999896,945.9617922999896,945.9617922999896,0,,,1,0.024784500245004892,0.5104580000042915,0,,,0,,,946.9756775996648,946.9756775996648,946.9756775996648,946.9756775996648,4,D,2024-04-08_14h25.55.623,attentional_competition_task,2022.2.4,143.9712753028426,
positions.xlsx,positions_test.xlsx,positions_test_new.xlsx,stimuli.xlsx,stimuli_new.xlsx,stimuli/Social4.png,stimuli/Social3.png,stimuli/Nonsocial4.png,stimuli/Nonsocial3.png,stimuli/Social2.png,stimuli/Social1.png,stimuli/Nonsocial2.png,stimuli/Nonsocial1.png,,,"(-0.7, -0.5)",cs_pos_s,"(-0.7, 0.5)",cs_neg_s,"(0.7, -0.5)",cs_pos_ns,"(0.7, 0.5)",cs_neg_ns,0,0,0,0,,,,,,,,,,,,,,,,,,,,,0,16,16,7,,,,,,,,,,,,,,,,,,,,,,,,,,,147,reward,,,,,,955.4892454999499,955.4892454999499,955.4892454999499,955.4892454999499,0,,,0,,,1,0.031119399704039097,0.11434239987283945,0,,,956.1003174996004,956.1003174996004,956.1003174996004,956.1003174996004,4,D,2024-04-08_14h25.55.623,attentional_competition_task,2022.2.4,143.9712753028426,
positions.xlsx,positions_test.xlsx,positions_test_new.xlsx,stimuli.xlsx,stimuli_new.xlsx,stimuli/Social4.png,stimuli/Social3.png,stimuli/Nonsocial4.png,stimuli/Nonsocial3.png,stimuli/Social2.png,stimuli/Social1.png,stimuli/Nonsocial2.png,stimuli/Nonsocial1.png,,,"(-0.7, -0.5)",cs_pos_ns,"(-0.7, 0.5)",cs_neg_s,"(0.7, -0.5)",cs_neg_ns,"(0.7, 0.5)",cs_pos_s,0,0,0,0,,,,,,,,,,,,,,,,,,,,,0,17,17,23,,,,,,,,,,,,,,,,,,,,,,,,,,,156,reward,,,,,,964.5791521999054,964.5791521999054,964.5791521999054,964.5791521999054,1,0.030823400244116783,0.030827200040221214,0,,,0,,,0,,,964.5791521999054,964.5791521999054,964.5791521999054,964.5791521999054,4,D,2024-04-08_14h25.55.623,attentional_competition_task,2022.2.4,143.9712753028426,
positions.xlsx,positions_test.xlsx,positions_test_new.xlsx,stimuli.xlsx,stimuli_new.xlsx,stimuli/Social4.png,stimuli/Social3.png,stimuli/Nonsocial4.png,stimuli/Nonsocial3.png,stimuli/Social2.png,stimuli/Social1.png,stimuli/Nonsocial2.png,stimuli/Nonsocial1.png,,,"(-0.7, -0.5)",cs_pos_s,"(-0.7, 0.5)",cs_pos_ns,"(0.7, -0.5)",cs_neg_s,"(0.7, 0.5)",cs_neg_ns,0,0,0,0,,,,,,,,,,,,,,,,,,,,,0,18,18,10,,,,,,,,,,,,,,,,,,,,,,,,,,,159,loss,,,,,,972.0372295998968,972.0372295998968,972.0372295998968,972.0372295998968,1,0.030698399990797043,0.3568127998150885,0,,,1,0.43361989967525005,0.433623899705708,0,,,972.4676997000352,972.4676997000352,972.4676997000352,972.4676997000352,4,D,2024-04-08_14h25.55.623,attentional_competition_task,2022.2.4,143.9712753028426,
positions.xlsx,positions_test.xlsx,positions_test_new.xlsx,stimuli.xlsx,stimuli_new.xlsx,stimuli/Social4.png,stimuli/Social3.png,stimuli/Nonsocial4.png,stimuli/Nonsocial3.png,stimuli/Social2.png,stimuli/Social1.png,stimuli/Nonsocial2.png,stimuli/Nonsocial1.png,,,"(-0.7, -0.5)",cs_neg_s,"(-0.7, 0.5)",cs_neg_ns,"(0.7, -0.5)",cs_pos_ns,"(0.7, 0.5)",cs_pos_s,0,0,0,0,,,,,,,,,,,,,,,,,,,,,0,19,19,3,,,,,,,,,,,,,,,,,,,,,,,,,,,165,reward,,,,,,981.3493015998974,981.3493015998974,981.3493015998974,981.3493015998974,0,,,0,,,0,,,0,,,981.9742764998227,981.9742764998227,981.9742764998227,981.9742764998227,4,D,2024-04-08_14h25.55.623,attentional_competition_task,2022.2.4,143.9712753028426,
positions.xlsx,positions_test.xlsx,positions_test_new.xlsx,stimuli.xlsx,stimuli_new.xlsx,stimuli/Social4.png,stimuli/Social3.png,stimuli/Nonsocial4.png,stimuli/Nonsocial3.png,stimuli/Social2.png,stimuli/Social1.png,stimuli/Nonsocial2.png,stimuli/Nonsocial1.png,,,"(-0.7, -0.5)",cs_neg_ns,"(-0.7, 0.5)",cs_pos_s,"(0.7, -0.5)",cs_pos_ns,"(0.7, 0.5)",cs_neg_s,0,0,0,0,,,,,,,,,,,,,,,,,,,,,0,20,20,13,,,,,,,,,,,,,,,,,,,,,,,,,,,168,loss,,,,,,989.6337048998103,989.6337048998103,989.6337048998103,989.6337048998103,0,,,0,,,1,0.024722100235521793,0.31628770008683205,1,0.33045060001313686,0.3304544002749026,990.4669995997101,990.4669995997101,990.4669995997101,990.4669995997101,4,D,2024-04-08_14h25.55.623,attentional_competition_task,2022.2.4,143.9712753028426,
positions.xlsx,positions_test.xlsx,positions_test_new.xlsx,stimuli.xlsx,stimuli_new.xlsx,stimuli/Social4.png,stimuli/Social3.png,stimuli/Nonsocial4.png,stimuli/Nonsocial3.png,stimuli/Social2.png,stimuli/Social1.png,stimuli/Nonsocial2.png,stimuli/Nonsocial1.png,,,"(-0.7, -0.5)",cs_neg_ns,"(-0.7, 0.5)",cs_pos_ns,"(0.7, -0.5)",cs_pos_s,"(0.7, 0.5)",cs_neg_s,0,0,0,0,,,,,,,,,,,,,,,,,,,,,0,21,21,16,,,,,,,,,,,,,,,,,,,,,,,,,,,171,loss,,,,,,997.5430946997367,997.5430946997367,997.5430946997367,997.5430946997367,0,,,1,0.02995909983292222,0.25267460010945797,0,,,1,0.46930549992248416,0.4693093001842499,998.008384599816,998.008384599816,998.008384599816,998.008384599816,4,D,2024-04-08_14h25.55.623,attentional_competition_task,2022.2.4,143.9712753028426,
positions.xlsx,positions_test.xlsx,positions_test_new.xlsx,stimuli.xlsx,stimuli_new.xlsx,stimuli/Social4.png,stimuli/Social3.png,stimuli/Nonsocial4.png,stimuli/Nonsocial3.png,stimuli/Social2.png,stimuli/Social1.png,stimuli/Nonsocial2.png,stimuli/Nonsocial1.png,,,"(-0.7, -0.5)",cs_neg_s,"(-0.7, 0.5)",cs_pos_ns,"(0.7, -0.5)",cs_pos_s,"(0.7, 0.5)",cs_neg_ns,0,0,0,0,,,,,,,,,,,,,,,,,,,,,0,22,22,4,,,,,,,,,,,,,,,,,,,,,,,,,,,177,reward,,,,,,1006.4385797996074,1006.4385797996074,1006.4385797996074,1006.4385797996074,0,,,1,0.02386320009827614,0.14281569980084896,0,,,0,,,1007.0913440999575,1007.0913440999575,1007.0913440999575,1007.0913440999575,4,D,2024-04-08_14h25.55.623,attentional_competition_task,2022.2.4,143.9712753028426,
positions.xlsx,positions_test.xlsx,positions_test_new.xlsx,stimuli.xlsx,stimuli_new.xlsx,stimuli/Social4.png,stimuli/Social3.png,stimuli/Nonsocial4.png,stimuli/Nonsocial3.png,stimuli/Social2.png,stimuli/Social1.png,stimuli/Nonsocial2.png,stimuli/Nonsocial1.png,,,"(-0.7, -0.5)",cs_pos_ns,"(-0.7, 0.5)",cs_neg_ns,"(0.7, -0.5)",cs_neg_s,"(0.7, 0.5)",cs_pos_s,0,0,0,0,,,,,,,,,,,,,,,,,,,,,0,23,23,21,,,,,,,,,,,,,,,,,,,,,,,,,,,177,reward,,,,,,1014.5563154998235,1014.5563154998235,1014.5563154998235,1014.5563154998235,1,0.029971000272780657,0.029974600300192833,0,,,0,,,0,,,1014.5563154998235,1014.5563154998235,1014.5563154998235,1014.5563154998235,4,D,2024-04-08_14h25.55.623,attentional_competition_task,2022.2.4,143.9712753028426,
positions.xlsx,positions_test.xlsx,positions_test_new.xlsx,stimuli.xlsx,stimuli_new.xlsx,stimuli/Social4.png,stimuli/Social3.png,stimuli/Nonsocial4.png,stimuli/Nonsocial3.png,stimuli/Social2.png,stimuli/Social1.png,stimuli/Nonsocial2.png,stimuli/Nonsocial1.png,,,"(-0.7, -0.5)",cs_pos_ns,"(-0.7, 0.5)",cs_pos_s,"(0.7, -0.5)",cs_neg_s,"(0.7, 0.5)",cs_neg_ns,0,0,0,0,,,,,,,,,,,,,,,,,,,,,1,0,24,19,,,,,,,,,,,,,,,,,,,,,,,,,,,180,loss,,,,,,1022.9101885999553,1022.9101885999553,1022.9101885999553,1022.9101885999553,0,,,1,0.03320439998060465,0.0998855996876955,1,0.37045220006257296,0.37045619962736964,0,,,1023.2781654996797,1023.2781654996797,1023.2781654996797,1023.2781654996797,4,D,2024-04-08_14h25.55.623,attentional_competition_task,2022.2.4,143.9712753028426,
positions.xlsx,positions_test.xlsx,positions_test_new.xlsx,stimuli.xlsx,stimuli_new.xlsx,stimuli/Social4.png,stimuli/Social3.png,stimuli/Nonsocial4.png,stimuli/Nonsocial3.png,stimuli/Social2.png,stimuli/Social1.png,stimuli/Nonsocial2.png,stimuli/Nonsocial1.png,,,"(-0.7, -0.5)",cs_pos_ns,"(-0.7, 0.5)",cs_pos_s,"(0.7, -0.5)",cs_neg_ns,"(0.7, 0.5)",cs_neg_s,0,0,0,0,,,,,,,,,,,,,,,,,,,,,1,1,25,18,,,,,,,,,,,,,,,,,,,,,,,,,,,183,loss,,,,,,1031.3611772996373,1031.3611772996373,1031.3611772996373,1031.3611772996373,1,0.022396099753677845,0.08714199997484684,0,,,0,,,1,0.303314299788326,0.30331810005009174,1031.6737240999937,1031.6737240999937,1031.6737240999937,1031.6737240999937,4,D,2024-04-08_14h25.55.623,attentional_competition_task,2022.2.4,143.9712753028426,
positions.xlsx,positions_test.xlsx,positions_test_new.xlsx,stimuli.xlsx,stimuli_new.xlsx,stimuli/Social4.png,stimuli/Social3.png,stimuli/Nonsocial4.png,stimuli/Nonsocial3.png,stimuli/Social2.png,stimuli/Social1.png,stimuli/Nonsocial2.png,stimuli/Nonsocial1.png,,,"(-0.7, -0.5)",cs_neg_ns,"(-0.7, 0.5)",cs_neg_s,"(0.7, -0.5)",cs_pos_ns,"(0.7, 0.5)",cs_pos_s,0,0,0,0,,,,,,,,,,,,,,,,,,,,,1,2,26,15,,,,,,,,,,,,,,,,,,,,,,,,,,,189,reward,,,,,,1040.263642499689,1040.263642499689,1040.263642499689,1040.263642499689,0,,,0,,,0,,,0,,,1040.9094631997868,1040.9094631997868,1040.9094631997868,1040.9094631997868,4,D,2024-04-08_14h25.55.623,attentional_competition_task,2022.2.4,143.9712753028426,
positions.xlsx,positions_test.xlsx,positions_test_new.xlsx,stimuli.xlsx,stimuli_new.xlsx,stimuli/Social4.png,stimuli/Social3.png,stimuli/Nonsocial4.png,stimuli/Nonsocial3.png,stimuli/Social2.png,stimuli/Social1.png,stimuli/Nonsocial2.png,stimuli/Nonsocial1.png,,,"(-0.7, -0.5)",cs_pos_ns,"(-0.7, 0.5)",cs_neg_ns,"(0.7, -0.5)",cs_pos_s,"(0.7, 0.5)",cs_neg_s,0,0,0,0,,,,,,,,,,,,,,,,,,,,,1,3,27,20,,,,,,,,,,,,,,,,,,,,,,,,,,,198,reward,,,,,,1049.020235999953,1049.020235999953,1049.020235999953,1049.020235999953,1,0.030901100020855665,0.2185011999681592,0,,,0,,,0,,,1050.0340863997117,1050.0340863997117,1050.0340863997117,1050.0340863997117,4,D,2024-04-08_14h25.55.623,attentional_competition_task,2022.2.4,143.9712753028426,
positions.xlsx,positions_test.xlsx,positions_test_new.xlsx,stimuli.xlsx,stimuli_new.xlsx,stimuli/Social4.png,stimuli/Social3.png,stimuli/Nonsocial4.png,stimuli/Nonsocial3.png,stimuli/Social2.png,stimuli/Social1.png,stimuli/Nonsocial2.png,stimuli/Nonsocial1.png,,,"(-0.7, -0.5)",cs_neg_s,"(-0.7, 0.5)",cs_neg_ns,"(0.7, -0.5)",cs_pos_s,"(0.7, 0.5)",cs_pos_ns,0,0,0,0,,,,,,,,,,,,,,,,,,,,,1,4,28,2,,,,,,,,,,,,,,,,,,,,,,,,,,,201,loss,,,,,,1057.3602302996442,1057.3602302996442,1057.3602302996442,1057.3602302996442,0,,,1,0.286799100227654,0.2868026001378894,0,,,0,,,1057.644888999872,1057.644888999872,1057.644888999872,1057.644888999872,4,D,2024-04-08_14h25.55.623,attentional_competition_task,2022.2.4,143.9712753028426,
positions.xlsx,positions_test.xlsx,positions_test_new.xlsx,stimuli.xlsx,stimuli_new.xlsx,stimuli/Social4.png,stimuli/Social3.png,stimuli/Nonsocial4.png,stimuli/Nonsocial3.png,stimuli/Social2.png,stimuli/Social1.png,stimuli/Nonsocial2.png,stimuli/Nonsocial1.png,,,"(-0.7, -0.5)",cs_pos_ns,"(-0.7, 0.5)",cs_neg_s,"(0.7, -0.5)",cs_neg_ns,"(0.7, 0.5)",cs_pos_s,0,0,0,0,,,,,,,,,,,,,,,,,,,,,1,5,29,23,,,,,,,,,,,,,,,,,,,,,,,,,,,210,reward,,,,,,1066.1098535996862,1066.1098535996862,1066.1098535996862,1066.1098535996862,1,0.028564500156790018,0.5726407999172807,0,,,0,,,0,,,1067.200071199797,1067.200071199797,1067.200071199797,1067.200071199797,4,D,2024-04-08_14h25.55.623,attentional_competition_task,2022.2.4,143.9712753028426,
positions.xlsx,positions_test.xlsx,positions_test_new.xlsx,stimuli.xlsx,stimuli_new.xlsx,stimuli/Social4.png,stimuli/Social3.png,stimuli/Nonsocial4.png,stimuli/Nonsocial3.png,stimuli/Social2.png,stimuli/Social1.png,stimuli/Nonsocial2.png,stimuli/Nonsocial1.png,,,"(-0.7, -0.5)",cs_neg_ns,"(-0.7, 0.5)",cs_pos_s,"(0.7, -0.5)",cs_neg_s,"(0.7, 0.5)",cs_pos_ns,0,0,0,0,,,,,,,,,,,,,,,,,,,,,1,6,30,12,,,,,,,,,,,,,,,,,,,,,,,,,,,213,loss,,,,,,1074.2553904997185,1074.2553904997185,1074.2553904997185,1074.2553904997185,0,,,0,,,1,0.27430699998512864,0.27431049989536405,1,0.03125880006700754,0.25408060010522604,1074.526190399658,1074.526190399658,1074.526190399658,1074.526190399658,4,D,2024-04-08_14h25.55.623,attentional_competition_task,2022.2.4,143.9712753028426,
positions.xlsx,positions_test.xlsx,positions_test_new.xlsx,stimuli.xlsx,stimuli_new.xlsx,stimuli/Social4.png,stimuli/Social3.png,stimuli/Nonsocial4.png,stimuli/Nonsocial3.png,stimuli/Social2.png,stimuli/Social1.png,stimuli/Nonsocial2.png,stimuli/Nonsocial1.png,,,"(-0.7, -0.5)",cs_pos_ns,"(-0.7, 0.5)",cs_neg_s,"(0.7, -0.5)",cs_pos_s,"(0.7, 0.5)",cs_neg_ns,0,0,0,0,,,,,,,,,,,,,,,,,,,,,1,7,31,22,,,,,,,,,,,,,,,,,,,,,,,,,,,216,reward,,,,,,1082.8383376998827,1082.8383376998827,1082.8383376998827,1082.8383376998827,1,0.25971930008381605,0.259723300114274,0,,,0,,,0,,,1083.0952429999597,1083.0952429999597,1083.0952429999597,1083.0952429999597,4,D,2024-04-08_14h25.55.623,attentional_competition_task,2022.2.4,143.9712753028426,
positions.xlsx,positions_test.xlsx,positions_test_new.xlsx,stimuli.xlsx,stimuli_new.xlsx,stimuli/Social4.png,stimuli/Social3.png,stimuli/Nonsocial4.png,stimuli/Nonsocial3.png,stimuli/Social2.png,stimuli/Social1.png,stimuli/Nonsocial2.png,stimuli/Nonsocial1.png,,,"(-0.7, -0.5)",cs_neg_s,"(-0.7, 0.5)",cs_pos_ns,"(0.7, -0.5)",cs_pos_s,"(0.7, 0.5)",cs_neg_ns,0,0,0,0,,,,,,,,,,,,,,,,,,,,,1,8,32,4,,,,,,,,,,,,,,,,,,,,,,,,,,,222,reward,,,,,,1091.3727017999627,1091.3727017999627,1091.3727017999627,1091.3727017999627,0,,,0,,,0,,,0,,,1092.053254999686,1092.053254999686,1092.053254999686,1092.053254999686,4,D,2024-04-08_14h25.55.623,attentional_competition_task,2022.2.4,143.9712753028426,
positions.xlsx,positions_test.xlsx,positions_test_new.xlsx,stimuli.xlsx,stimuli_new.xlsx,stimuli/Social4.png,stimuli/Social3.png,stimuli/Nonsocial4.png,stimuli/Nonsocial3.png,stimuli/Social2.png,stimuli/Social1.png,stimuli/Nonsocial2.png,stimuli/Nonsocial1.png,,,"(-0.7, -0.5)",cs_pos_s,"(-0.7, 0.5)",cs_neg_s,"(0.7, -0.5)",cs_pos_ns,"(0.7, 0.5)",cs_neg_ns,0,0,0,0,,,,,,,,,,,,,,,,,,,,,1,9,33,7,,,,,,,,,,,,,,,,,,,,,,,,,,,222,loss,,,,,,1099.5529528995976,1099.5529528995976,1099.5529528995976,1099.5529528995976,0,,,0,,,0,,,1,0.15073090000078082,0.150734500028193,1099.6988137997687,1099.6988137997687,1099.6988137997687,1099.6988137997687,4,D,2024-04-08_14h25.55.623,attentional_competition_task,2022.2.4,143.9712753028426,
positions.xlsx,positions_test.xlsx,positions_test_new.xlsx,stimuli.xlsx,stimuli_new.xlsx,stimuli/Social4.png,stimuli/Social3.png,stimuli/Nonsocial4.png,stimuli/Nonsocial3.png,stimuli/Social2.png,stimuli/Social1.png,stimuli/Nonsocial2.png,stimuli/Nonsocial1.png,,,"(-0.7, -0.5)",cs_neg_ns,"(-0.7, 0.5)",cs_pos_s,"(0.7, -0.5)",cs_pos_ns,"(0.7, 0.5)",cs_neg_s,0,0,0,0,,,,,,,,,,,,,,,,,,,,,1,10,34,13,,,,,,,,,,,,,,,,,,,,,,,,,,,231,reward,,,,,,1107.9276060997508,1107.9276060997508,1107.9276060997508,1107.9276060997508,0,,,0,,,1,0.03313230024650693,0.23204550007358193,0,,,1108.6567618995905,1108.6567618995905,1108.6567618995905,1108.6567618995905,4,D,2024-04-08_14h25.55.623,attentional_competition_task,2022.2.4,143.9712753028426,
positions.xlsx,positions_test.xlsx,positions_test_new.xlsx,stimuli.xlsx,stimuli_new.xlsx,stimuli/Social4.png,stimuli/Social3.png,stimuli/Nonsocial4.png,stimuli/Nonsocial3.png,stimuli/Social2.png,stimuli/Social1.png,stimuli/Nonsocial2.png,stimuli/Nonsocial1.png,,,"(-0.7, -0.5)",cs_pos_s,"(-0.7, 0.5)",cs_pos_ns,"(0.7, -0.5)",cs_neg_s,"(0.7, 0.5)",cs_neg_ns,0,0,0,0,,,,,,,,,,,,,,,,,,,,,1,11,35,10,,,,,,,,,,,,,,,,,,,,,,,,,,,234,reward,,,,,,1115.7051102998666,1115.7051102998666,1115.7051102998666,1115.7051102998666,0,,,1,0.028711499646306038,0.028715199790894985,0,,,0,,,1115.7051102998666,1115.7051102998666,1115.7051102998666,1115.7051102998666,4,D,2024-04-08_14h25.55.623,attentional_competition_task,2022.2.4,143.9712753028426,
positions.xlsx,positions_test.xlsx,positions_test_new.xlsx,stimuli.xlsx,stimuli_new.xlsx,stimuli/Social4.png,stimuli/Social3.png,stimuli/Nonsocial4.png,stimuli/Nonsocial3.png,stimuli/Social2.png,stimuli/Social1.png,stimuli/Nonsocial2.png,stimuli/Nonsocial1.png,,,"(-0.7, -0.5)",cs_neg_s,"(-0.7, 0.5)",cs_pos_s,"(0.7, -0.5)",cs_pos_ns,"(0.7, 0.5)",cs_neg_ns,0,0,0,0,,,,,,,,,,,,,,,,,,,,,1,12,36,1,,,,,,,,,,,,,,,,,,,,,,,,,,,243,reward,,,,,,1124.1491793999448,1124.1491793999448,1124.1491793999448,1124.1491793999448,0,,,0,,,1,0.02998700039461255,0.4473598999902606,0,,,1125.1005579996854,1125.1005579996854,1125.1005579996854,1125.1005579996854,4,D,2024-04-08_14h25.55.623,attentional_competition_task,2022.2.4,143.9712753028426,
positions.xlsx,positions_test.xlsx,positions_test_new.xlsx,stimuli.xlsx,stimuli_new.xlsx,stimuli/Social4.png,stimuli/Social3.png,stimuli/Nonsocial4.png,stimuli/Nonsocial3.png,stimuli/Social2.png,stimuli/Social1.png,stimuli/Nonsocial2.png,stimuli/Nonsocial1.png,,,"(-0.7, -0.5)",cs_neg_ns,"(-0.7, 0.5)",cs_pos_ns,"(0.7, -0.5)",cs_pos_s,"(0.7, 0.5)",cs_neg_s,0,0,0,0,,,,,,,,,,,,,,,,,,,,,1,13,37,16,,,,,,,,,,,,,,,,,,,,,,,,,,,246,reward,,,,,,1132.315560899675,1132.315560899675,1132.315560899675,1132.315560899675,0,,,1,0.030014900024980307,0.03001879993826151,0,,,0,,,1132.315560899675,1132.315560899675,1132.315560899675,1132.315560899675,4,D,2024-04-08_14h25.55.623,attentional_competition_task,2022.2.4,143.9712753028426,
positions.xlsx,positions_test.xlsx,positions_test_new.xlsx,stimuli.xlsx,stimuli_new.xlsx,stimuli/Social4.png,stimuli/Social3.png,stimuli/Nonsocial4.png,stimuli/Nonsocial3.png,stimuli/Social2.png,stimuli/Social1.png,stimuli/Nonsocial2.png,stimuli/Nonsocial1.png,,,"(-0.7, -0.5)",cs_pos_s,"(-0.7, 0.5)",cs_neg_s,"(0.7, -0.5)",cs_neg_ns,"(0.7, 0.5)",cs_pos_ns,0,0,0,0,,,,,,,,,,,,,,,,,,,,,1,14,38,6,,,,,,,,,,,,,,,,,,,,,,,,,,,249,reward,,,,,,1140.8082691999152,1140.8082691999152,1140.8082691999152,1140.8082691999152,0,,,0,,,0,,,1,0.02337069995701313,0.02337450021877885,1140.8082691999152,1140.8082691999152,1140.8082691999152,1140.8082691999152,4,D,2024-04-08_14h25.55.623,attentional_competition_task,2022.2.4,143.9712753028426,
positions.xlsx,positions_test.xlsx,positions_test_new.xlsx,stimuli.xlsx,stimuli_new.xlsx,stimuli/Social4.png,stimuli/Social3.png,stimuli/Nonsocial4.png,stimuli/Nonsocial3.png,stimuli/Social2.png,stimuli/Social1.png,stimuli/Nonsocial2.png,stimuli/Nonsocial1.png,,,"(-0.7, -0.5)",cs_neg_ns,"(-0.7, 0.5)",cs_pos_ns,"(0.7, -0.5)",cs_neg_s,"(0.7, 0.5)",cs_pos_s,0,0,0,0,,,,,,,,,,,,,,,,,,,,,1,15,39,17,,,,,,,,,,,,,,,,,,,,,,,,,,,258,reward,,,,,,1149.7940191999078,1149.7940191999078,1149.7940191999078,1149.7940191999078,0,,,1,0.028250799980014563,0.2042594002559781,0,,,0,,,1150.5023459997028,1150.5023459997028,1150.5023459997028,1150.5023459997028,4,D,2024-04-08_14h25.55.623,attentional_competition_task,2022.2.4,143.9712753028426,
positions.xlsx,positions_test.xlsx,positions_test_new.xlsx,stimuli.xlsx,stimuli_new.xlsx,stimuli/Social4.png,stimuli/Social3.png,stimuli/Nonsocial4.png,stimuli/Nonsocial3.png,stimuli/Social2.png,stimuli/Social1.png,stimuli/Nonsocial2.png,stimuli/Nonsocial1.png,,,"(-0.7, -0.5)",cs_neg_ns,"(-0.7, 0.5)",cs_neg_s,"(0.7, -0.5)",cs_pos_s,"(0.7, 0.5)",cs_pos_ns,0,0,0,0,,,,,,,,,,,,,,,,,,,,,1,16,40,14,,,,,,,,,,,,,,,,,,,,,,,,,,,267,reward,,,,,,1157.6409221999347,1157.6409221999347,1157.6409221999347,1157.6409221999347,0,,,0,,,0,,,1,0.27506859973073006,0.5401375996880233,1158.682563699782,1158.682563699782,1158.682563699782,1158.682563699782,4,D,2024-04-08_14h25.55.623,attentional_competition_task,2022.2.4,143.9712753028426,
positions.xlsx,positions_test.xlsx,positions_test_new.xlsx,stimuli.xlsx,stimuli_new.xlsx,stimuli/Social4.png,stimuli/Social3.png,stimuli/Nonsocial4.png,stimuli/Nonsocial3.png,stimuli/Social2.png,stimuli/Social1.png,stimuli/Nonsocial2.png,stimuli/Nonsocial1.png,,,"(-0.7, -0.5)",cs_pos_ns,"(-0.7, 0.5)",cs_neg_ns,"(0.7, -0.5)",cs_neg_s,"(0.7, 0.5)",cs_pos_s,0,0,0,0,,,,,,,,,,,,,,,,,,,,,1,17,41,21,,,,,,,,,,,,,,,,,,,,,,,,,,,273,reward,,,,,,1166.5641844999045,1166.5641844999045,1166.5641844999045,1166.5641844999045,0,,,0,,,0,,,0,,,1167.1058366997167,1167.1058366997167,1167.1058366997167,1167.1058366997167,4,D,2024-04-08_14h25.55.623,attentional_competition_task,2022.2.4,143.9712753028426,
positions.xlsx,positions_test.xlsx,positions_test_new.xlsx,stimuli.xlsx,stimuli_new.xlsx,stimuli/Social4.png,stimuli/Social3.png,stimuli/Nonsocial4.png,stimuli/Nonsocial3.png,stimuli/Social2.png,stimuli/Social1.png,stimuli/Nonsocial2.png,stimuli/Nonsocial1.png,,,"(-0.7, -0.5)",cs_pos_s,"(-0.7, 0.5)",cs_pos_ns,"(0.7, -0.5)",cs_neg_ns,"(0.7, 0.5)",cs_neg_s,0,0,0,0,,,,,,,,,,,,,,,,,,,,,1,18,42,11,,,,,,,,,,,,,,,,,,,,,,,,,,,282,reward,,,,,,1175.1888176999055,1175.1888176999055,1175.1888176999055,1175.1888176999055,0,,,1,0.02563399961218238,0.42815229995176196,0,,,0,,,1176.1888468996622,1176.1888468996622,1176.1888468996622,1176.1888468996622,4,D,2024-04-08_14h25.55.623,attentional_competition_task,2022.2.4,143.9712753028426,
positions.xlsx,positions_test.xlsx,positions_test_new.xlsx,stimuli.xlsx,stimuli_new.xlsx,stimuli/Social4.png,stimuli/Social3.png,stimuli/Nonsocial4.png,stimuli/Nonsocial3.png,stimuli/Social2.png,stimuli/Social1.png,stimuli/Nonsocial2.png,stimuli/Nonsocial1.png,,,"(-0.7, -0.5)",cs_neg_s,"(-0.7, 0.5)",cs_neg_ns,"(0.7, -0.5)",cs_pos_ns,"(0.7, 0.5)",cs_pos_s,0,0,0,0,,,,,,,,,,,,,,,,,,,,,1,19,43,3,,,,,,,,,,,,,,,,,,,,,,,,,,,282,reward,,,,,,1184.8898428999819,1184.8898428999819,1184.8898428999819,1184.8898428999819,0,,,0,,,0,,,0,,,1185.4731691996567,1185.4731691996567,1185.4731691996567,1185.4731691996567,4,D,2024-04-08_14h25.55.623,attentional_competition_task,2022.2.4,143.9712753028426,
positions.xlsx,positions_test.xlsx,positions_test_new.xlsx,stimuli.xlsx,stimuli_new.xlsx,stimuli/Social4.png,stimuli/Social3.png,stimuli/Nonsocial4.png,stimuli/Nonsocial3.png,stimuli/Social2.png,stimuli/Social1.png,stimuli/Nonsocial2.png,stimuli/Nonsocial1.png,,,"(-0.7, -0.5)",cs_pos_s,"(-0.7, 0.5)",cs_neg_ns,"(0.7, -0.5)",cs_pos_ns,"(0.7, 0.5)",cs_neg_s,0,0,0,0,,,,,,,,,,,,,,,,,,,,,1,20,44,9,,,,,,,,,,,,,,,,,,,,,,,,,,,285,reward,,,,,,1192.9450373998843,1192.9450373998843,1192.9450373998843,1192.9450373998843,0,,,0,,,1,0.02926019998267293,0.029264399781823158,0,,,1192.9450373998843,1192.9450373998843,1192.9450373998843,1192.9450373998843,4,D,2024-04-08_14h25.55.623,attentional_competition_task,2022.2.4,143.9712753028426,
positions.xlsx,positions_test.xlsx,positions_test_new.xlsx,stimuli.xlsx,stimuli_new.xlsx,stimuli/Social4.png,stimuli/Social3.png,stimuli/Nonsocial4.png,stimuli/Nonsocial3.png,stimuli/Social2.png,stimuli/Social1.png,stimuli/Nonsocial2.png,stimuli/Nonsocial1.png,,,"(-0.7, -0.5)",cs_neg_s,"(-0.7, 0.5)",cs_pos_s,"(0.7, -0.5)",cs_neg_ns,"(0.7, 0.5)",cs_pos_ns,0,0,0,0,,,,,,,,,,,,,,,,,,,,,1,21,45,0,,,,,,,,,,,,,,,,,,,,,,,,,,,294,reward,,,,,,1201.3544732998125,1201.3544732998125,1201.3544732998125,1201.3544732998125,0,,,0,,,0,,,1,0.02533639967441559,0.5602482999674976,1202.4169453997165,1202.4169453997165,1202.4169453997165,1202.4169453997165,4,D,2024-04-08_14h25.55.623,attentional_competition_task,2022.2.4,143.9712753028426,
positions.xlsx,positions_test.xlsx,positions_test_new.xlsx,stimuli.xlsx,stimuli_new.xlsx,stimuli/Social4.png,stimuli/Social3.png,stimuli/Nonsocial4.png,stimuli/Nonsocial3.png,stimuli/Social2.png,stimuli/Social1.png,stimuli/Nonsocial2.png,stimuli/Nonsocial1.png,,,"(-0.7, -0.5)",cs_neg_s,"(-0.7, 0.5)",cs_pos_ns,"(0.7, -0.5)",cs_neg_ns,"(0.7, 0.5)",cs_pos_s,0,0,0,0,,,,,,,,,,,,,,,,,,,,,1,22,46,5,,,,,,,,,,,,,,,,,,,,,,,,,,,303,reward,,,,,,1210.6110967998393,1210.6110967998393,1210.6110967998393,1210.6110967998393,0,,,1,0.023828700184822083,0.5451318002305925,0,,,0,,,1211.6665499997325,1211.6665499997325,1211.6665499997325,1211.6665499997325,4,D,2024-04-08_14h25.55.623,attentional_competition_task,2022.2.4,143.9712753028426,
positions.xlsx,positions_test.xlsx,positions_test_new.xlsx,stimuli.xlsx,stimuli_new.xlsx,stimuli/Social4.png,stimuli/Social3.png,stimuli/Nonsocial4.png,stimuli/Nonsocial3.png,stimuli/Social2.png,stimuli/Social1.png,stimuli/Nonsocial2.png,stimuli/Nonsocial1.png,,,"(-0.7, -0.5)",cs_pos_s,"(-0.7, 0.5)",cs_neg_ns,"(0.7, -0.5)",cs_neg_s,"(0.7, 0.5)",cs_pos_ns,0,0,0,0,,,,,,,,,,,,,,,,,,,,,1,23,47,8,,,,,,,,,,,,,,,,,,,,,,,,,,,306,loss,,,,,,1219.0760143999942,1219.0760143999942,1219.0760143999942,1219.0760143999942,0,,,0,,,1,0.3023008001036942,0.3023043996654451,1,0.02466639969497919,0.28230229998007417,1219.3815150000155,1219.3815150000155,1219.3815150000155,1219.3815150000155,4,D,2024-04-08_14h25.55.623,attentional_competition_task,2022.2.4,143.9712753028426,
positions.xlsx,positions_test.xlsx,positions_test_new.xlsx,stimuli.xlsx,stimuli_new.xlsx,stimuli/Social4.png,stimuli/Social3.png,stimuli/Nonsocial4.png,stimuli/Nonsocial3.png,stimuli/Social2.png,stimuli/Social1.png,stimuli/Nonsocial2.png,stimuli/Nonsocial1.png,,,"(-0.7, -0.5)",cs_neg_ns,"(-0.7, 0.5)",cs_pos_s,"(0.7, -0.5)",cs_neg_s,"(0.7, 0.5)",cs_pos_ns_new,0,0,0,0,,,,,,,,,,,,,,,,,,,,,,,,,,,,,0,0,0,39,0,0,0,0,,,,,,,,,,,,,,,309,reward,,,,,,1225.8743580998853,1225.8743580998853,1225.8743580998853,1225.8743580998853,0,,,0,,,0,,,1,0.46825639996677637,0.46826030034571886,1226.346547299996,1226.346547299996,1226.346547299996,1226.346547299996,4,D,2024-04-08_14h25.55.623,attentional_competition_task,2022.2.4,143.9712753028426,
positions.xlsx,positions_test.xlsx,positions_test_new.xlsx,stimuli.xlsx,stimuli_new.xlsx,stimuli/Social4.png,stimuli/Social3.png,stimuli/Nonsocial4.png,stimuli/Nonsocial3.png,stimuli/Social2.png,stimuli/Social1.png,stimuli/Nonsocial2.png,stimuli/Nonsocial1.png,,,"(-0.7, -0.5)",cs_neg_ns,"(-0.7, 0.5)",cs_pos_s,"(0.7, -0.5)",cs_neg_s,"(0.7, 0.5)",cs_pos_ns_new,0,0,0,0,,,,,,,,,,,,,,,,,,,,,,,,,,,,,0,0,0,39,1,0,1,0,,,,,,,,,,,,,,,306,loss,,,,,,1226.8882933999412,1226.8882933999412,1226.8882933999412,1226.8882933999412,1,0.032174999825656414,0.03217899985611439,0,,,0,,,0,,,1226.8882933999412,1226.8882933999412,1226.8882933999412,1226.8882933999412,4,D,2024-04-08_14h25.55.623,attentional_competition_task,2022.2.4,143.9712753028426,
positions.xlsx,positions_test.xlsx,positions_test_new.xlsx,stimuli.xlsx,stimuli_new.xlsx,stimuli/Social4.png,stimuli/Social3.png,stimuli/Nonsocial4.png,stimuli/Nonsocial3.png,stimuli/Social2.png,stimuli/Social1.png,stimuli/Nonsocial2.png,stimuli/Nonsocial1.png,,,"(-0.7, -0.5)",cs_neg_ns,"(-0.7, 0.5)",cs_pos_s,"(0.7, -0.5)",cs_neg_s,"(0.7, 0.5)",cs_pos_ns_new,0,0,0,0,,,,,,,,,,,,,,,,,,,,,,,,,,,,,0,0,0,39,2,0,2,0,,,,,,,,,,,,,,,309,reward,,,,,,1227.4159517996013,1227.4159517996013,1227.4159517996013,1227.4159517996013,0,,,1,0.02666589990258217,0.026669800281524658,0,,,0,,,1227.4159517996013,1227.4159517996013,1227.4159517996013,1227.4159517996013,4,D,2024-04-08_14h25.55.623,attentional_competition_task,2022.2.4,143.9712753028426,
positions.xlsx,positions_test.xlsx,positions_test_new.xlsx,stimuli.xlsx,stimuli_new.xlsx,stimuli/Social4.png,stimuli/Social3.png,stimuli/Nonsocial4.png,stimuli/Nonsocial3.png,stimuli/Social2.png,stimuli/Social1.png,stimuli/Nonsocial2.png,stimuli/Nonsocial1.png,,,"(-0.7, -0.5)",cs_neg_ns,"(-0.7, 0.5)",cs_pos_s,"(0.7, -0.5)",cs_neg_s,"(0.7, 0.5)",cs_pos_ns_new,0,0,0,0,,,,,,,,,,,,,,,,,,,,,,,,,,,,,0,0,0,39,,,,,,,,,,,,,,,,,,,,,,,,,,,,,,,,,,,,,,,,,,,,,,4,D,2024-04-08_14h25.55.623,attentional_competition_task,2022.2.4,143.9712753028426,
positions.xlsx,positions_test.xlsx,positions_test_new.xlsx,stimuli.xlsx,stimuli_new.xlsx,stimuli/Social4.png,stimuli/Social3.png,stimuli/Nonsocial4.png,stimuli/Nonsocial3.png,stimuli/Social2.png,stimuli/Social1.png,stimuli/Nonsocial2.png,stimuli/Nonsocial1.png,,,"(-0.7, -0.5)",cs_pos_ns,"(-0.7, 0.5)",cs_pos_s_new,"(0.7, -0.5)",cs_neg_s,"(0.7, 0.5)",cs_neg_ns,0,0,0,0,,,,,,,,,,,,,,,,,,,,,,,,,,,,,0,1,1,35,0,0,0,0,,,,,,,,,,,,,,,312,reward,,,,,,1234.8114608000033,1234.8114608000033,1234.8114608000033,1234.8114608000033,0,,,1,0.3768543996848166,0.3837789995595813,0,,,0,,,1235.2003679997288,1235.2003679997288,1235.2003679997288,1235.2003679997288,4,D,2024-04-08_14h25.55.623,attentional_competition_task,2022.2.4,143.9712753028426,
positions.xlsx,positions_test.xlsx,positions_test_new.xlsx,stimuli.xlsx,stimuli_new.xlsx,stimuli/Social4.png,stimuli/Social3.png,stimuli/Nonsocial4.png,stimuli/Nonsocial3.png,stimuli/Social2.png,stimuli/Social1.png,stimuli/Nonsocial2.png,stimuli/Nonsocial1.png,,,"(-0.7, -0.5)",cs_pos_ns,"(-0.7, 0.5)",cs_pos_s_new,"(0.7, -0.5)",cs_neg_s,"(0.7, 0.5)",cs_neg_ns,0,0,0,0,,,,,,,,,,,,,,,,,,,,,,,,,,,,,0,1,1,35,1,0,1,0,,,,,,,,,,,,,,,315,reward,,,,,,1235.735069599934,1235.735069599934,1235.735069599934,1235.735069599934,1,0.031847700010985136,0.03185180015861988,0,,,0,,,0,,,1235.735069599934,1235.735069599934,1235.735069599934,1235.735069599934,4,D,2024-04-08_14h25.55.623,attentional_competition_task,2022.2.4,143.9712753028426,
positions.xlsx,positions_test.xlsx,positions_test_new.xlsx,stimuli.xlsx,stimuli_new.xlsx,stimuli/Social4.png,stimuli/Social3.png,stimuli/Nonsocial4.png,stimuli/Nonsocial3.png,stimuli/Social2.png,stimuli/Social1.png,stimuli/Nonsocial2.png,stimuli/Nonsocial1.png,,,"(-0.7, -0.5)",cs_pos_ns,"(-0.7, 0.5)",cs_pos_s_new,"(0.7, -0.5)",cs_neg_s,"(0.7, 0.5)",cs_neg_ns,0,0,0,0,,,,,,,,,,,,,,,,,,,,,,,,,,,,,0,1,1,35,2,0,2,0,,,,,,,,,,,,,,,312,loss,,,,,,1236.241990499664,1236.241990499664,1236.241990499664,1236.241990499664,0,,,0,,,0,,,1,0.21683990024030209,0.21684390027076006,1236.45730010001,1236.45730010001,1236.45730010001,1236.45730010001,4,D,2024-04-08_14h25.55.623,attentional_competition_task,2022.2.4,143.9712753028426,
positions.xlsx,positions_test.xlsx,positions_test_new.xlsx,stimuli.xlsx,stimuli_new.xlsx,stimuli/Social4.png,stimuli/Social3.png,stimuli/Nonsocial4.png,stimuli/Nonsocial3.png,stimuli/Social2.png,stimuli/Social1.png,stimuli/Nonsocial2.png,stimuli/Nonsocial1.png,,,"(-0.7, -0.5)",cs_pos_ns,"(-0.7, 0.5)",cs_pos_s_new,"(0.7, -0.5)",cs_neg_s,"(0.7, 0.5)",cs_neg_ns,0,0,0,0,,,,,,,,,,,,,,,,,,,,,,,,,,,,,0,1,1,35,,,,,,,,,,,,,,,,,,,,,,,,,,,,,,,,,,,,,,,,,,,,,,4,D,2024-04-08_14h25.55.623,attentional_competition_task,2022.2.4,143.9712753028426,
positions.xlsx,positions_test.xlsx,positions_test_new.xlsx,stimuli.xlsx,stimuli_new.xlsx,stimuli/Social4.png,stimuli/Social3.png,stimuli/Nonsocial4.png,stimuli/Nonsocial3.png,stimuli/Social2.png,stimuli/Social1.png,stimuli/Nonsocial2.png,stimuli/Nonsocial1.png,,,"(-0.7, -0.5)",cs_neg_ns_new,"(-0.7, 0.5)",cs_pos_s,"(0.7, -0.5)",cs_pos_ns,"(0.7, 0.5)",cs_neg_s,0,0,0,0,,,,,,,,,,,,,,,,,,,,,,,,,,,,,0,2,2,26,0,0,0,0,,,,,,,,,,,,,,,315,reward,,,,,,1243.7555526997894,1243.7555526997894,1243.7555526997894,1243.7555526997894,0,,,1,0.33575950004160404,0.33576290030032396,0,,,0,,,1244.0958899999969,1244.0958899999969,1244.0958899999969,1244.0958899999969,4,D,2024-04-08_14h25.55.623,attentional_competition_task,2022.2.4,143.9712753028426,
positions.xlsx,positions_test.xlsx,positions_test_new.xlsx,stimuli.xlsx,stimuli_new.xlsx,stimuli/Social4.png,stimuli/Social3.png,stimuli/Nonsocial4.png,stimuli/Nonsocial3.png,stimuli/Social2.png,stimuli/Social1.png,stimuli/Nonsocial2.png,stimuli/Nonsocial1.png,,,"(-0.7, -0.5)",cs_neg_ns_new,"(-0.7, 0.5)",cs_pos_s,"(0.7, -0.5)",cs_pos_ns,"(0.7, 0.5)",cs_neg_s,0,0,0,0,,,,,,,,,,,,,,,,,,,,,,,,,,,,,0,2,2,26,1,0,1,0,,,,,,,,,,,,,,,312,loss,,,,,,1244.6305241999216,1244.6305241999216,1244.6305241999216,1244.6305241999216,1,0.03006769996136427,0.0300714997574687,0,,,0,,,0,,,1244.6305241999216,1244.6305241999216,1244.6305241999216,1244.6305241999216,4,D,2024-04-08_14h25.55.623,attentional_competition_task,2022.2.4,143.9712753028426,
positions.xlsx,positions_test.xlsx,positions_test_new.xlsx,stimuli.xlsx,stimuli_new.xlsx,stimuli/Social4.png,stimuli/Social3.png,stimuli/Nonsocial4.png,stimuli/Nonsocial3.png,stimuli/Social2.png,stimuli/Social1.png,stimuli/Nonsocial2.png,stimuli/Nonsocial1.png,,,"(-0.7, -0.5)",cs_neg_ns_new,"(-0.7, 0.5)",cs_pos_s,"(0.7, -0.5)",cs_pos_ns,"(0.7, 0.5)",cs_neg_s,0,0,0,0,,,,,,,,,,,,,,,,,,,,,,,,,,,,,0,2,2,26,2,0,2,0,,,,,,,,,,,,,,,315,reward,,,,,,1245.151354499627,1245.151354499627,1245.151354499627,1245.151354499627,0,,,0,,,1,0.024145799688994884,0.024149499833583832,0,,,1245.151354499627,1245.151354499627,1245.151354499627,1245.151354499627,4,D,2024-04-08_14h25.55.623,attentional_competition_task,2022.2.4,143.9712753028426,
positions.xlsx,positions_test.xlsx,positions_test_new.xlsx,stimuli.xlsx,stimuli_new.xlsx,stimuli/Social4.png,stimuli/Social3.png,stimuli/Nonsocial4.png,stimuli/Nonsocial3.png,stimuli/Social2.png,stimuli/Social1.png,stimuli/Nonsocial2.png,stimuli/Nonsocial1.png,,,"(-0.7, -0.5)",cs_neg_ns_new,"(-0.7, 0.5)",cs_pos_s,"(0.7, -0.5)",cs_pos_ns,"(0.7, 0.5)",cs_neg_s,0,0,0,0,,,,,,,,,,,,,,,,,,,,,,,,,,,,,0,2,2,26,3,0,3,0,,,,,,,,,,,,,,,312,loss,,,,,,1245.686109900009,1245.686109900009,1245.686109900009,1245.686109900009,0,,,0,,,0,,,1,0.022911399602890015,0.022927999962121248,1245.686109900009,1245.686109900009,1245.686109900009,1245.686109900009,4,D,2024-04-08_14h25.55.623,attentional_competition_task,2022.2.4,143.9712753028426,
positions.xlsx,positions_test.xlsx,positions_test_new.xlsx,stimuli.xlsx,stimuli_new.xlsx,stimuli/Social4.png,stimuli/Social3.png,stimuli/Nonsocial4.png,stimuli/Nonsocial3.png,stimuli/Social2.png,stimuli/Social1.png,stimuli/Nonsocial2.png,stimuli/Nonsocial1.png,,,"(-0.7, -0.5)",cs_neg_ns_new,"(-0.7, 0.5)",cs_pos_s,"(0.7, -0.5)",cs_pos_ns,"(0.7, 0.5)",cs_neg_s,0,0,0,0,,,,,,,,,,,,,,,,,,,,,,,,,,,,,0,2,2,26,,,,,,,,,,,,,,,,,,,,,,,,,,,,,,,,,,,,,,,,,,,,,,4,D,2024-04-08_14h25.55.623,attentional_competition_task,2022.2.4,143.9712753028426,
positions.xlsx,positions_test.xlsx,positions_test_new.xlsx,stimuli.xlsx,stimuli_new.xlsx,stimuli/Social4.png,stimuli/Social3.png,stimuli/Nonsocial4.png,stimuli/Nonsocial3.png,stimuli/Social2.png,stimuli/Social1.png,stimuli/Nonsocial2.png,stimuli/Nonsocial1.png,,,"(-0.7, -0.5)",cs_neg_ns,"(-0.7, 0.5)",cs_neg_s_new,"(0.7, -0.5)",cs_pos_s,"(0.7, 0.5)",cs_pos_ns,0,0,0,0,,,,,,,,,,,,,,,,,,,,,,,,,,,,,0,3,3,17,0,0,0,0,,,,,,,,,,,,,,,309,loss,,,,,,1253.046885999851,1253.046885999851,1253.046885999851,1253.046885999851,0,,,1,0.23249439988285303,0.2324979999102652,0,,,0,,,1253.2829821999185,1253.2829821999185,1253.2829821999185,1253.2829821999185,4,D,2024-04-08_14h25.55.623,attentional_competition_task,2022.2.4,143.9712753028426,
positions.xlsx,positions_test.xlsx,positions_test_new.xlsx,stimuli.xlsx,stimuli_new.xlsx,stimuli/Social4.png,stimuli/Social3.png,stimuli/Nonsocial4.png,stimuli/Nonsocial3.png,stimuli/Social2.png,stimuli/Social1.png,stimuli/Nonsocial2.png,stimuli/Nonsocial1.png,,,"(-0.7, -0.5)",cs_neg_ns,"(-0.7, 0.5)",cs_neg_s_new,"(0.7, -0.5)",cs_pos_s,"(0.7, 0.5)",cs_pos_ns,0,0,0,0,,,,,,,,,,,,,,,,,,,,,,,,,,,,,0,3,3,17,1,0,1,0,,,,,,,,,,,,,,,306,loss,,,,,,1253.8107323995791,1253.8107323995791,1253.8107323995791,1253.8107323995791,1,0.028080999851226807,0.028084599878638983,0,,,0,,,0,,,1253.8107323995791,1253.8107323995791,1253.8107323995791,1253.8107323995791,4,D,2024-04-08_14h25.55.623,attentional_competition_task,2022.2.4,143.9712753028426,
positions.xlsx,positions_test.xlsx,positions_test_new.xlsx,stimuli.xlsx,stimuli_new.xlsx,stimuli/Social4.png,stimuli/Social3.png,stimuli/Nonsocial4.png,stimuli/Nonsocial3.png,stimuli/Social2.png,stimuli/Social1.png,stimuli/Nonsocial2.png,stimuli/Nonsocial1.png,,,"(-0.7, -0.5)",cs_neg_ns,"(-0.7, 0.5)",cs_neg_s_new,"(0.7, -0.5)",cs_pos_s,"(0.7, 0.5)",cs_pos_ns,0,0,0,0,,,,,,,,,,,,,,,,,,,,,,,,,,,,,0,3,3,17,2,0,2,0,,,,,,,,,,,,,,,309,reward,,,,,,1254.3455003998242,1254.3455003998242,1254.3455003998242,1254.3455003998242,0,,,0,,,1,0.023950299713760614,0.023954199627041817,0,,,1254.3455003998242,1254.3455003998242,1254.3455003998242,1254.3455003998242,4,D,2024-04-08_14h25.55.623,attentional_competition_task,2022.2.4,143.9712753028426,
positions.xlsx,positions_test.xlsx,positions_test_new.xlsx,stimuli.xlsx,stimuli_new.xlsx,stimuli/Social4.png,stimuli/Social3.png,stimuli/Nonsocial4.png,stimuli/Nonsocial3.png,stimuli/Social2.png,stimuli/Social1.png,stimuli/Nonsocial2.png,stimuli/Nonsocial1.png,,,"(-0.7, -0.5)",cs_neg_ns,"(-0.7, 0.5)",cs_neg_s_new,"(0.7, -0.5)",cs_pos_s,"(0.7, 0.5)",cs_pos_ns,0,0,0,0,,,,,,,,,,,,,,,,,,,,,,,,,,,,,0,3,3,17,3,0,3,0,,,,,,,,,,,,,,,312,reward,,,,,,1254.8662481997162,1254.8662481997162,1254.8662481997162,1254.8662481997162,0,,,0,,,0,,,1,0.024103800300508738,0.024120600428432226,1254.8662481997162,1254.8662481997162,1254.8662481997162,1254.8662481997162,4,D,2024-04-08_14h25.55.623,attentional_competition_task,2022.2.4,143.9712753028426,
positions.xlsx,positions_test.xlsx,positions_test_new.xlsx,stimuli.xlsx,stimuli_new.xlsx,stimuli/Social4.png,stimuli/Social3.png,stimuli/Nonsocial4.png,stimuli/Nonsocial3.png,stimuli/Social2.png,stimuli/Social1.png,stimuli/Nonsocial2.png,stimuli/Nonsocial1.png,,,"(-0.7, -0.5)",cs_neg_ns,"(-0.7, 0.5)",cs_neg_s_new,"(0.7, -0.5)",cs_pos_s,"(0.7, 0.5)",cs_pos_ns,0,0,0,0,,,,,,,,,,,,,,,,,,,,,,,,,,,,,0,3,3,17,,,,,,,,,,,,,,,,,,,,,,,,,,,,,,,,,,,,,,,,,,,,,,4,D,2024-04-08_14h25.55.623,attentional_competition_task,2022.2.4,143.9712753028426,
positions.xlsx,positions_test.xlsx,positions_test_new.xlsx,stimuli.xlsx,stimuli_new.xlsx,stimuli/Social4.png,stimuli/Social3.png,stimuli/Nonsocial4.png,stimuli/Nonsocial3.png,stimuli/Social2.png,stimuli/Social1.png,stimuli/Nonsocial2.png,stimuli/Nonsocial1.png,,,"(-0.7, -0.5)",cs_pos_ns,"(-0.7, 0.5)",cs_neg_ns_new,"(0.7, -0.5)",cs_neg_s,"(0.7, 0.5)",cs_pos_s,0,0,0,0,,,,,,,,,,,,,,,,,,,,,,,,,,,,,0,4,4,18,0,0,0,0,,,,,,,,,,,,,,,309,loss,,,,,,1261.8938203998841,1261.8938203998841,1261.8938203998841,1261.8938203998841,0,,,0,,,1,0.41875339997932315,0.4257705002091825,0,,,1262.3242919999175,1262.3242919999175,1262.3242919999175,1262.3242919999175,4,D,2024-04-08_14h25.55.623,attentional_competition_task,2022.2.4,143.9712753028426,
positions.xlsx,positions_test.xlsx,positions_test_new.xlsx,stimuli.xlsx,stimuli_new.xlsx,stimuli/Social4.png,stimuli/Social3.png,stimuli/Nonsocial4.png,stimuli/Nonsocial3.png,stimuli/Social2.png,stimuli/Social1.png,stimuli/Nonsocial2.png,stimuli/Nonsocial1.png,,,"(-0.7, -0.5)",cs_pos_ns,"(-0.7, 0.5)",cs_neg_ns_new,"(0.7, -0.5)",cs_neg_s,"(0.7, 0.5)",cs_pos_s,0,0,0,0,,,,,,,,,,,,,,,,,,,,,,,,,,,,,0,4,4,18,1,0,1,0,,,,,,,,,,,,,,,312,reward,,,,,,1262.852048299741,1262.852048299741,1262.852048299741,1262.852048299741,0,,,0,,,0,,,1,0.03091759979724884,0.03092140005901456,1262.852048299741,1262.852048299741,1262.852048299741,1262.852048299741,4,D,2024-04-08_14h25.55.623,attentional_competition_task,2022.2.4,143.9712753028426,
positions.xlsx,positions_test.xlsx,positions_test_new.xlsx,stimuli.xlsx,stimuli_new.xlsx,stimuli/Social4.png,stimuli/Social3.png,stimuli/Nonsocial4.png,stimuli/Nonsocial3.png,stimuli/Social2.png,stimuli/Social1.png,stimuli/Nonsocial2.png,stimuli/Nonsocial1.png,,,"(-0.7, -0.5)",cs_pos_ns,"(-0.7, 0.5)",cs_neg_ns_new,"(0.7, -0.5)",cs_neg_s,"(0.7, 0.5)",cs_pos_s,0,0,0,0,,,,,,,,,,,,,,,,,,,,,,,,,,,,,0,4,4,18,2,0,2,0,,,,,,,,,,,,,,,309,loss,,,,,,1263.3937144000083,1263.3937144000083,1263.3937144000083,1263.3937144000083,0,,,1,0.031081699766218662,0.03108550002798438,0,,,0,,,1263.3937144000083,1263.3937144000083,1263.3937144000083,1263.3937144000083,4,D,2024-04-08_14h25.55.623,attentional_competition_task,2022.2.4,143.9712753028426,
positions.xlsx,positions_test.xlsx,positions_test_new.xlsx,stimuli.xlsx,stimuli_new.xlsx,stimuli/Social4.png,stimuli/Social3.png,stimuli/Nonsocial4.png,stimuli/Nonsocial3.png,stimuli/Social2.png,stimuli/Social1.png,stimuli/Nonsocial2.png,stimuli/Nonsocial1.png,,,"(-0.7, -0.5)",cs_pos_ns,"(-0.7, 0.5)",cs_neg_ns_new,"(0.7, -0.5)",cs_neg_s,"(0.7, 0.5)",cs_pos_s,0,0,0,0,,,,,,,,,,,,,,,,,,,,,,,,,,,,,0,4,4,18,3,0,3,0,,,,,,,,,,,,,,,312,reward,,,,,,1264.4283998999745,1264.4283998999745,1264.4283998999745,1264.4283998999745,1,0.029410399962216616,0.029413999989628792,0,,,0,,,0,,,1264.4283998999745,1264.4283998999745,1264.4283998999745,1264.4283998999745,4,D,2024-04-08_14h25.55.623,attentional_competition_task,2022.2.4,143.9712753028426,
positions.xlsx,positions_test.xlsx,positions_test_new.xlsx,stimuli.xlsx,stimuli_new.xlsx,stimuli/Social4.png,stimuli/Social3.png,stimuli/Nonsocial4.png,stimuli/Nonsocial3.png,stimuli/Social2.png,stimuli/Social1.png,stimuli/Nonsocial2.png,stimuli/Nonsocial1.png,,,"(-0.7, -0.5)",cs_pos_ns,"(-0.7, 0.5)",cs_neg_ns_new,"(0.7, -0.5)",cs_neg_s,"(0.7, 0.5)",cs_pos_s,0,0,0,0,,,,,,,,,,,,,,,,,,,,,,,,,,,,,0,4,4,18,,,,,,,,,,,,,,,,,,,,,,,,,,,,,,,,,,,,,,,,,,,,,,4,D,2024-04-08_14h25.55.623,attentional_competition_task,2022.2.4,143.9712753028426,
positions.xlsx,positions_test.xlsx,positions_test_new.xlsx,stimuli.xlsx,stimuli_new.xlsx,stimuli/Social4.png,stimuli/Social3.png,stimuli/Nonsocial4.png,stimuli/Nonsocial3.png,stimuli/Social2.png,stimuli/Social1.png,stimuli/Nonsocial2.png,stimuli/Nonsocial1.png,,,"(-0.7, -0.5)",cs_pos_s,"(-0.7, 0.5)",cs_pos_ns,"(0.7, -0.5)",cs_neg_ns_new,"(0.7, 0.5)",cs_neg_s,0,0,0,0,,,,,,,,,,,,,,,,,,,,,,,,,,,,,0,5,5,24,0,0,0,0,,,,,,,,,,,,,,,315,reward,,,,,,1270.7128324997611,1270.7128324997611,1270.7128324997611,1270.7128324997611,1,0.335302600171417,0.3425648002885282,0,,,0,,,0,,,1271.0670285997912,1271.0670285997912,1271.0670285997912,1271.0670285997912,4,D,2024-04-08_14h25.55.623,attentional_competition_task,2022.2.4,143.9712753028426,
positions.xlsx,positions_test.xlsx,positions_test_new.xlsx,stimuli.xlsx,stimuli_new.xlsx,stimuli/Social4.png,stimuli/Social3.png,stimuli/Nonsocial4.png,stimuli/Nonsocial3.png,stimuli/Social2.png,stimuli/Social1.png,stimuli/Nonsocial2.png,stimuli/Nonsocial1.png,,,"(-0.7, -0.5)",cs_pos_s,"(-0.7, 0.5)",cs_pos_ns,"(0.7, -0.5)",cs_neg_ns_new,"(0.7, 0.5)",cs_neg_s,0,0,0,0,,,,,,,,,,,,,,,,,,,,,,,,,,,,,0,5,5,24,1,0,1,0,,,,,,,,,,,,,,,318,reward,,,,,,1271.6017028000206,1271.6017028000206,1271.6017028000206,1271.6017028000206,0,,,1,0.030330300331115723,0.030334000010043383,0,,,0,,,1271.6017028000206,1271.6017028000206,1271.6017028000206,1271.6017028000206,4,D,2024-04-08_14h25.55.623,attentional_competition_task,2022.2.4,143.9712753028426,
positions.xlsx,positions_test.xlsx,positions_test_new.xlsx,stimuli.xlsx,stimuli_new.xlsx,stimuli/Social4.png,stimuli/Social3.png,stimuli/Nonsocial4.png,stimuli/Nonsocial3.png,stimuli/Social2.png,stimuli/Social1.png,stimuli/Nonsocial2.png,stimuli/Nonsocial1.png,,,"(-0.7, -0.5)",cs_pos_s,"(-0.7, 0.5)",cs_pos_ns,"(0.7, -0.5)",cs_neg_ns_new,"(0.7, 0.5)",cs_neg_s,0,0,0,0,,,,,,,,,,,,,,,,,,,,,,,,,,,,,0,5,5,24,2,0,2,0,,,,,,,,,,,,,,,315,loss,,,,,,1272.1294552995823,1272.1294552995823,1272.1294552995823,1272.1294552995823,0,,,0,,,1,0.025379500351846218,0.025383000262081623,0,,,1272.1294552995823,1272.1294552995823,1272.1294552995823,1272.1294552995823,4,D,2024-04-08_14h25.55.623,attentional_competition_task,2022.2.4,143.9712753028426,
positions.xlsx,positions_test.xlsx,positions_test_new.xlsx,stimuli.xlsx,stimuli_new.xlsx,stimuli/Social4.png,stimuli/Social3.png,stimuli/Nonsocial4.png,stimuli/Nonsocial3.png,stimuli/Social2.png,stimuli/Social1.png,stimuli/Nonsocial2.png,stimuli/Nonsocial1.png,,,"(-0.7, -0.5)",cs_pos_s,"(-0.7, 0.5)",cs_pos_ns,"(0.7, -0.5)",cs_neg_ns_new,"(0.7, 0.5)",cs_neg_s,0,0,0,0,,,,,,,,,,,,,,,,,,,,,,,,,,,,,0,5,5,24,3,0,3,0,,,,,,,,,,,,,,,312,loss,,,,,,1272.6641561998986,1272.6641561998986,1272.6641561998986,1272.6641561998986,0,,,0,,,0,,,1,0.02913320017978549,0.029137100093066692,1272.6641561998986,1272.6641561998986,1272.6641561998986,1272.6641561998986,4,D,2024-04-08_14h25.55.623,attentional_competition_task,2022.2.4,143.9712753028426,
positions.xlsx,positions_test.xlsx,positions_test_new.xlsx,stimuli.xlsx,stimuli_new.xlsx,stimuli/Social4.png,stimuli/Social3.png,stimuli/Nonsocial4.png,stimuli/Nonsocial3.png,stimuli/Social2.png,stimuli/Social1.png,stimuli/Nonsocial2.png,stimuli/Nonsocial1.png,,,"(-0.7, -0.5)",cs_pos_s,"(-0.7, 0.5)",cs_pos_ns,"(0.7, -0.5)",cs_neg_ns_new,"(0.7, 0.5)",cs_neg_s,0,0,0,0,,,,,,,,,,,,,,,,,,,,,,,,,,,,,0,5,5,24,,,,,,,,,,,,,,,,,,,,,,,,,,,,,,,,,,,,,,,,,,,,,,4,D,2024-04-08_14h25.55.623,attentional_competition_task,2022.2.4,143.9712753028426,
positions.xlsx,positions_test.xlsx,positions_test_new.xlsx,stimuli.xlsx,stimuli_new.xlsx,stimuli/Social4.png,stimuli/Social3.png,stimuli/Nonsocial4.png,stimuli/Nonsocial3.png,stimuli/Social2.png,stimuli/Social1.png,stimuli/Nonsocial2.png,stimuli/Nonsocial1.png,,,"(-0.7, -0.5)",cs_neg_s_new,"(-0.7, 0.5)",cs_pos_ns,"(0.7, -0.5)",cs_neg_ns,"(0.7, 0.5)",cs_pos_s,0,0,0,0,,,,,,,,,,,,,,,,,,,,,,,,,,,,,0,6,6,14,0,0,0,0,,,,,,,,,,,,,,,309,loss,,,,,,1279.2402881998569,1279.2402881998569,1279.2402881998569,1279.2402881998569,1,0.2936296002008021,0.2936335001140833,0,,,0,,,0,,,1279.531978199724,1279.531978199724,1279.531978199724,1279.531978199724,4,D,2024-04-08_14h25.55.623,attentional_competition_task,2022.2.4,143.9712753028426,
positions.xlsx,positions_test.xlsx,positions_test_new.xlsx,stimuli.xlsx,stimuli_new.xlsx,stimuli/Social4.png,stimuli/Social3.png,stimuli/Nonsocial4.png,stimuli/Nonsocial3.png,stimuli/Social2.png,stimuli/Social1.png,stimuli/Nonsocial2.png,stimuli/Nonsocial1.png,,,"(-0.7, -0.5)",cs_neg_s_new,"(-0.7, 0.5)",cs_pos_ns,"(0.7, -0.5)",cs_neg_ns,"(0.7, 0.5)",cs_pos_s,0,0,0,0,,,,,,,,,,,,,,,,,,,,,,,,,,,,,0,6,6,14,1,0,1,0,,,,,,,,,,,,,,,312,reward,,,,,,1280.0597001998685,1280.0597001998685,1280.0597001998685,1280.0597001998685,0,,,1,0.02136190002784133,0.02136559970676899,0,,,0,,,1280.0597001998685,1280.0597001998685,1280.0597001998685,1280.0597001998685,4,D,2024-04-08_14h25.55.623,attentional_competition_task,2022.2.4,143.9712753028426,
positions.xlsx,positions_test.xlsx,positions_test_new.xlsx,stimuli.xlsx,stimuli_new.xlsx,stimuli/Social4.png,stimuli/Social3.png,stimuli/Nonsocial4.png,stimuli/Nonsocial3.png,stimuli/Social2.png,stimuli/Social1.png,stimuli/Nonsocial2.png,stimuli/Nonsocial1.png,,,"(-0.7, -0.5)",cs_neg_s_new,"(-0.7, 0.5)",cs_pos_ns,"(0.7, -0.5)",cs_neg_ns,"(0.7, 0.5)",cs_pos_s,0,0,0,0,,,,,,,,,,,,,,,,,,,,,,,,,,,,,0,6,6,14,2,0,2,0,,,,,,,,,,,,,,,315,reward,,,,,,1280.5874558999203,1280.5874558999203,1280.5874558999203,1280.5874558999203,0,,,0,,,0,,,1,0.024336200207471848,0.024339800234884024,1280.5874558999203,1280.5874558999203,1280.5874558999203,1280.5874558999203,4,D,2024-04-08_14h25.55.623,attentional_competition_task,2022.2.4,143.9712753028426,
