posFile,posFileTest,posFileTestNew,stimFile,stimFileNew,cs_neg_s,cs_pos_s,cs_neg_ns,cs_pos_ns,cs_neg_s_new,cs_pos_s_new,cs_neg_ns_new,cs_pos_ns_new,stim,position,position1,stim1,position2,stim2,position3,stim3,position4,stim4,blocks.thisRepN,blocks.thisTrialN,blocks.thisN,blocks.thisIndex,ratingtrials1.thisRepN,ratingtrials1.thisTrialN,ratingtrials1.thisN,ratingtrials1.thisIndex,search_task_trials.thisRepN,search_task_trials.thisTrialN,search_task_trials.thisN,search_task_trials.thisIndex,learning_trials.thisRepN,learning_trials.thisTrialN,learning_trials.thisN,learning_trials.thisIndex,trials.thisRepN,trials.thisTrialN,trials.thisN,trials.thisIndex,ratingtrials2.thisRepN,ratingtrials2.thisTrialN,ratingtrials2.thisN,ratingtrials2.thisIndex,testtrials.thisRepN,testtrials.thisTrialN,testtrials.thisN,testtrials.thisIndex,loop_test.thisRepN,loop_test.thisTrialN,loop_test.thisN,loop_test.thisIndex,testtrials_novelty.thisRepN,testtrials_novelty.thisTrialN,testtrials_novelty.thisN,testtrials_novelty.thisIndex,loop_test_novelty.thisRepN,loop_test_novelty.thisTrialN,loop_test_novelty.thisN,loop_test_novelty.thisIndex,ratingtrials3.thisRepN,ratingtrials3.thisTrialN,ratingtrials3.thisN,ratingtrials3.thisIndex,textStart.started,textStartExp.started,imageRating.started,sliderStim.response,sliderStim.rt,textStartSearch.started,target_positions,distractor_positions,textStartTask.started,image.started,score,outcome,roi.numLooks,roi.timesOn,roi.timesOff,imageFeedback.started,textTestInstr.started,test_image1.started,test_image2.started,test_image3.started,test_image4.started,test_roi1.numLooks,test_roi1.timesOn,test_roi1.timesOff,test_roi2.numLooks,test_roi2.timesOn,test_roi2.timesOff,test_roi3.numLooks,test_roi3.timesOn,test_roi3.timesOff,test_roi4.numLooks,test_roi4.timesOn,test_roi4.timesOff,test_image_feedback1.started,test_image_feedback2.started,test_iamge_feedback3.started,test_iamge_feedback4.started,participant,group,date,expName,psychopyVersion,frameRate,
positions.xlsx,positions_test.xlsx,positions_test_new.xlsx,stimuli.xlsx,stimuli_new.xlsx,stimuli/Social3.png,stimuli/Social4.png,stimuli/Nonsocial3.png,stimuli/Nonsocial4.png,stimuli/Social1.png,stimuli/Social2.png,stimuli/Nonsocial1.png,stimuli/Nonsocial2.png,cs_neg_ns,,,,,,,,,,0,0,0,0,0,0,0,1,,,,,,,,,,,,,,,,,,,,,,,,,,,,,,,,,,,,,12.782452499999636,190.78027819999988,196.41261630000008,6.0,4.346692799999801,,,,,,,,,,,,,,,,,,,,,,,,,,,,,,,,,34,C,2024-05-15_11h18.59.911,attentional_competition_task,2022.2.4,144.0056911059171,
positions.xlsx,positions_test.xlsx,positions_test_new.xlsx,stimuli.xlsx,stimuli_new.xlsx,stimuli/Social3.png,stimuli/Social4.png,stimuli/Nonsocial3.png,stimuli/Nonsocial4.png,stimuli/Social1.png,stimuli/Social2.png,stimuli/Nonsocial1.png,stimuli/Nonsocial2.png,cs_neg_s,,,,,,,,,,0,0,0,0,0,1,1,0,,,,,,,,,,,,,,,,,,,,,,,,,,,,,,,,,,,,,,,201.74568180000097,5.0,2.888678400000572,,,,,,,,,,,,,,,,,,,,,,,,,,,,,,,,,34,C,2024-05-15_11h18.59.911,attentional_competition_task,2022.2.4,144.0056911059171,
positions.xlsx,positions_test.xlsx,positions_test_new.xlsx,stimuli.xlsx,stimuli_new.xlsx,stimuli/Social3.png,stimuli/Social4.png,stimuli/Nonsocial3.png,stimuli/Nonsocial4.png,stimuli/Social1.png,stimuli/Social2.png,stimuli/Nonsocial1.png,stimuli/Nonsocial2.png,cs_pos_ns,,,,,,,,,,0,0,0,0,0,2,2,3,,,,,,,,,,,,,,,,,,,,,,,,,,,,,,,,,,,,,,,205.14831930000037,7.0,1.7094147999996494,,,,,,,,,,,,,,,,,,,,,,,,,,,,,,,,,34,C,2024-05-15_11h18.59.911,attentional_competition_task,2022.2.4,144.0056911059171,
positions.xlsx,positions_test.xlsx,positions_test_new.xlsx,stimuli.xlsx,stimuli_new.xlsx,stimuli/Social3.png,stimuli/Social4.png,stimuli/Nonsocial3.png,stimuli/Nonsocial4.png,stimuli/Social1.png,stimuli/Social2.png,stimuli/Nonsocial1.png,stimuli/Nonsocial2.png,cs_pos_s,,,,,,,,,,0,0,0,0,0,3,3,2,,,,,,,,,,,,,,,,,,,,,,,,,,,,,,,,,,,,,,,207.29406779999954,5.0,1.689300699999876,,,,,,,,,,,,,,,,,,,,,,,,,,,,,,,,,34,C,2024-05-15_11h18.59.911,attentional_competition_task,2022.2.4,144.0056911059171,
positions.xlsx,positions_test.xlsx,positions_test_new.xlsx,stimuli.xlsx,stimuli_new.xlsx,stimuli/Social3.png,stimuli/Social4.png,stimuli/Nonsocial3.png,stimuli/Nonsocial4.png,stimuli/Social1.png,stimuli/Social2.png,stimuli/Nonsocial1.png,stimuli/Nonsocial2.png,,,,,,,,,,,0,0,0,0,,,,,0,0,0,0,,,,,,,,,,,,,,,,,,,,,,,,,,,,,,,,,,,,,,209.32176550000077,"[[0.6749999999999999, -0.30000000000000004], [-0.9, -0.30000000000000004], [0.9, 0.7], [-0.22499999999999998, -0.8], [-0.9, 0.7], [-0.22499999999999998, 0.7], [0.9, -0.30000000000000004], [0.22499999999999998, -0.30000000000000004], [0.45000000000000007, 0.7], [0.6749999999999999, 0.19999999999999996], [0.9, -0.8], [-0.45, 0.7], [-0.675, -0.30000000000000004], [0.45000000000000007, -0.8], [-0.9, 0.19999999999999996]]","[[-0.22499999999999998, 0.19999999999999996], [0.0, 0.7], [-0.9, -0.8], [0.0, 0.19999999999999996], [0.45000000000000007, -0.30000000000000004], [0.9, 0.19999999999999996], [0.45000000000000007, 0.19999999999999996], [-0.45, -0.30000000000000004], [-0.675, 0.19999999999999996], [0.22499999999999998, 0.7], [-0.675, 0.7], [0.0, -0.30000000000000004], [-0.675, -0.8], [0.22499999999999998, -0.8], [0.0, -0.8]]",,,,,,,,,,,,,,,,,,,,,,,,,,,,,,34,C,2024-05-15_11h18.59.911,attentional_competition_task,2022.2.4,144.0056911059171,
positions.xlsx,positions_test.xlsx,positions_test_new.xlsx,stimuli.xlsx,stimuli_new.xlsx,stimuli/Social3.png,stimuli/Social4.png,stimuli/Nonsocial3.png,stimuli/Nonsocial4.png,stimuli/Social1.png,stimuli/Social2.png,stimuli/Nonsocial1.png,stimuli/Nonsocial2.png,,,,,,,,,,,0,0,0,0,,,,,1,0,1,0,,,,,,,,,,,,,,,,,,,,,,,,,,,,,,,,,,,,,,,"[[-0.675, 0.7], [0.0, 0.19999999999999996], [-0.45, 0.19999999999999996], [0.9, 0.7], [-0.9, 0.19999999999999996], [-0.22499999999999998, 0.7], [-0.9, -0.30000000000000004], [0.6749999999999999, 0.7], [0.45000000000000007, -0.8], [-0.675, -0.30000000000000004], [-0.9, 0.7], [0.0, 0.7], [0.6749999999999999, 0.19999999999999996], [0.0, -0.30000000000000004], [0.9, -0.8]]","[[-0.45, 0.7], [0.9, 0.19999999999999996], [0.22499999999999998, -0.8], [-0.45, -0.30000000000000004], [0.45000000000000007, -0.30000000000000004], [-0.675, 0.19999999999999996], [0.6749999999999999, -0.8], [0.6749999999999999, -0.30000000000000004], [0.45000000000000007, 0.19999999999999996], [0.9, -0.30000000000000004], [0.0, -0.8], [-0.45, -0.8], [-0.22499999999999998, -0.8], [0.22499999999999998, 0.19999999999999996], [0.22499999999999998, 0.7]]",,,,,,,,,,,,,,,,,,,,,,,,,,,,,,34,C,2024-05-15_11h18.59.911,attentional_competition_task,2022.2.4,144.0056911059171,
positions.xlsx,positions_test.xlsx,positions_test_new.xlsx,stimuli.xlsx,stimuli_new.xlsx,stimuli/Social3.png,stimuli/Social4.png,stimuli/Nonsocial3.png,stimuli/Nonsocial4.png,stimuli/Social1.png,stimuli/Social2.png,stimuli/Nonsocial1.png,stimuli/Nonsocial2.png,cs_neg_ns,"(0.7, 0.5)",,,,,,,,,0,0,0,0,,,,,,,,,0,0,0,10,,,,,,,,,,,,,,,,,,,,,,,,,,,,,,,,,,,,,286.58249310000065,302.0679837000007,-3,loss,1,0.5000662000002194,0.500070300000516,302.57493310000064,,,,,,,,,,,,,,,,,,,,,,34,C,2024-05-15_11h18.59.911,attentional_competition_task,2022.2.4,144.0056911059171,
positions.xlsx,positions_test.xlsx,positions_test_new.xlsx,stimuli.xlsx,stimuli_new.xlsx,stimuli/Social3.png,stimuli/Social4.png,stimuli/Nonsocial3.png,stimuli/Nonsocial4.png,stimuli/Social1.png,stimuli/Social2.png,stimuli/Nonsocial1.png,stimuli/Nonsocial2.png,cs_pos_ns,"(0.7, -0.5)",,,,,,,,,0,0,0,0,,,,,,,,,0,1,1,15,,,,,,,,,,,,,,,,,,,,,,,,,,,,,,,,,,,,,,310.8801046000008,-3,none,0,,,313.8939435000011,,,,,,,,,,,,,,,,,,,,,,34,C,2024-05-15_11h18.59.911,attentional_competition_task,2022.2.4,144.0056911059171,
positions.xlsx,positions_test.xlsx,positions_test_new.xlsx,stimuli.xlsx,stimuli_new.xlsx,stimuli/Social3.png,stimuli/Social4.png,stimuli/Nonsocial3.png,stimuli/Nonsocial4.png,stimuli/Social1.png,stimuli/Social2.png,stimuli/Nonsocial1.png,stimuli/Nonsocial2.png,cs_neg_ns,"(-0.7, 0.5)",,,,,,,,,0,0,0,0,,,,,,,,,0,2,2,8,,,,,,,,,,,,,,,,,,,,,,,,,,,,,,,,,,,,,,321.5949928000009,-6,loss,1,0.9865370000006806,0.9865411000009772,322.58799200000067,,,,,,,,,,,,,,,,,,,,,,34,C,2024-05-15_11h18.59.911,attentional_competition_task,2022.2.4,144.0056911059171,
positions.xlsx,positions_test.xlsx,positions_test_new.xlsx,stimuli.xlsx,stimuli_new.xlsx,stimuli/Social3.png,stimuli/Social4.png,stimuli/Nonsocial3.png,stimuli/Nonsocial4.png,stimuli/Social1.png,stimuli/Social2.png,stimuli/Nonsocial1.png,stimuli/Nonsocial2.png,cs_neg_s,"(0.7, 0.5)",,,,,,,,,0,0,0,0,,,,,,,,,0,3,3,2,,,,,,,,,,,,,,,,,,,,,,,,,,,,,,,,,,,,,,330.11543600000005,-6,none,0,,,333.1292143999999,,,,,,,,,,,,,,,,,,,,,,34,C,2024-05-15_11h18.59.911,attentional_competition_task,2022.2.4,144.0056911059171,
positions.xlsx,positions_test.xlsx,positions_test_new.xlsx,stimuli.xlsx,stimuli_new.xlsx,stimuli/Social3.png,stimuli/Social4.png,stimuli/Nonsocial3.png,stimuli/Nonsocial4.png,stimuli/Social1.png,stimuli/Social2.png,stimuli/Nonsocial1.png,stimuli/Nonsocial2.png,cs_pos_s,"(-0.7, -0.5)",,,,,,,,,0,0,0,0,,,,,,,,,0,4,4,5,,,,,,,,,,,,,,,,,,,,,,,,,,,,,,,,,,,,,,340.37893540000005,-6,none,0,,,343.38579240000035,,,,,,,,,,,,,,,,,,,,,,34,C,2024-05-15_11h18.59.911,attentional_competition_task,2022.2.4,144.0056911059171,
positions.xlsx,positions_test.xlsx,positions_test_new.xlsx,stimuli.xlsx,stimuli_new.xlsx,stimuli/Social3.png,stimuli/Social4.png,stimuli/Nonsocial3.png,stimuli/Nonsocial4.png,stimuli/Social1.png,stimuli/Social2.png,stimuli/Nonsocial1.png,stimuli/Nonsocial2.png,cs_neg_s,"(0.7, -0.5)",,,,,,,,,0,0,0,0,,,,,,,,,0,5,5,3,,,,,,,,,,,,,,,,,,,,,,,,,,,,,,,,,,,,,,350.66322299999956,-9,loss,1,0.7088488999997935,0.7157406000005722,351.38546040000074,,,,,,,,,,,,,,,,,,,,,,34,C,2024-05-15_11h18.59.911,attentional_competition_task,2022.2.4,144.0056911059171,
positions.xlsx,positions_test.xlsx,positions_test_new.xlsx,stimuli.xlsx,stimuli_new.xlsx,stimuli/Social3.png,stimuli/Social4.png,stimuli/Nonsocial3.png,stimuli/Nonsocial4.png,stimuli/Social1.png,stimuli/Social2.png,stimuli/Nonsocial1.png,stimuli/Nonsocial2.png,cs_pos_s,"(0.7, -0.5)",,,,,,,,,0,0,0,0,,,,,,,,,0,6,6,7,,,,,,,,,,,,,,,,,,,,,,,,,,,,,,,,,,,,,,358.2532377999996,-9,none,0,,,361.2669557999998,,,,,,,,,,,,,,,,,,,,,,34,C,2024-05-15_11h18.59.911,attentional_competition_task,2022.2.4,144.0056911059171,
positions.xlsx,positions_test.xlsx,positions_test_new.xlsx,stimuli.xlsx,stimuli_new.xlsx,stimuli/Social3.png,stimuli/Social4.png,stimuli/Nonsocial3.png,stimuli/Nonsocial4.png,stimuli/Social1.png,stimuli/Social2.png,stimuli/Nonsocial1.png,stimuli/Nonsocial2.png,cs_pos_ns,"(-0.7, 0.5)",,,,,,,,,0,0,0,0,,,,,,,,,0,7,7,12,,,,,,,,,,,,,,,,,,,,,,,,,,,,,,,,,,,,,,368.98888629999965,-9,none,0,,,372.0026288000008,,,,,,,,,,,,,,,,,,,,,,34,C,2024-05-15_11h18.59.911,attentional_competition_task,2022.2.4,144.0056911059171,
positions.xlsx,positions_test.xlsx,positions_test_new.xlsx,stimuli.xlsx,stimuli_new.xlsx,stimuli/Social3.png,stimuli/Social4.png,stimuli/Nonsocial3.png,stimuli/Nonsocial4.png,stimuli/Social1.png,stimuli/Social2.png,stimuli/Nonsocial1.png,stimuli/Nonsocial2.png,cs_neg_ns,"(-0.7, -0.5)",,,,,,,,,0,0,0,0,,,,,,,,,0,8,8,9,,,,,,,,,,,,,,,,,,,,,,,,,,,,,,,,,,,,,,379.76622000000134,-9,none,0,,,382.7730138000006,,,,,,,,,,,,,,,,,,,,,,34,C,2024-05-15_11h18.59.911,attentional_competition_task,2022.2.4,144.0056911059171,
positions.xlsx,positions_test.xlsx,positions_test_new.xlsx,stimuli.xlsx,stimuli_new.xlsx,stimuli/Social3.png,stimuli/Social4.png,stimuli/Nonsocial3.png,stimuli/Nonsocial4.png,stimuli/Social1.png,stimuli/Social2.png,stimuli/Nonsocial1.png,stimuli/Nonsocial2.png,cs_pos_s,"(0.7, 0.5)",,,,,,,,,0,0,0,0,,,,,,,,,0,9,9,6,,,,,,,,,,,,,,,,,,,,,,,,,,,,,,,,,,,,,,390.05745019999995,-6,reward,1,0.43734779999977036,0.4373515999996016,390.5018792999999,,,,,,,,,,,,,,,,,,,,,,34,C,2024-05-15_11h18.59.911,attentional_competition_task,2022.2.4,144.0056911059171,
positions.xlsx,positions_test.xlsx,positions_test_new.xlsx,stimuli.xlsx,stimuli_new.xlsx,stimuli/Social3.png,stimuli/Social4.png,stimuli/Nonsocial3.png,stimuli/Nonsocial4.png,stimuli/Social1.png,stimuli/Social2.png,stimuli/Nonsocial1.png,stimuli/Nonsocial2.png,cs_pos_ns,"(0.7, 0.5)",,,,,,,,,0,0,0,0,,,,,,,,,0,10,10,14,,,,,,,,,,,,,,,,,,,,,,,,,,,,,,,,,,,,,,397.85574650000126,-6,none,0,,,400.86958179999965,,,,,,,,,,,,,,,,,,,,,,34,C,2024-05-15_11h18.59.911,attentional_competition_task,2022.2.4,144.0056911059171,
positions.xlsx,positions_test.xlsx,positions_test_new.xlsx,stimuli.xlsx,stimuli_new.xlsx,stimuli/Social3.png,stimuli/Social4.png,stimuli/Nonsocial3.png,stimuli/Nonsocial4.png,stimuli/Social1.png,stimuli/Social2.png,stimuli/Nonsocial1.png,stimuli/Nonsocial2.png,cs_neg_s,"(-0.7, 0.5)",,,,,,,,,0,0,0,0,,,,,,,,,0,11,11,0,,,,,,,,,,,,,,,,,,,,,,,,,,,,,,,,,,,,,,408.03593,-9,loss,1,1.0490372000003845,1.0490411999999196,409.0914270000012,,,,,,,,,,,,,,,,,,,,,,34,C,2024-05-15_11h18.59.911,attentional_competition_task,2022.2.4,144.0056911059171,
positions.xlsx,positions_test.xlsx,positions_test_new.xlsx,stimuli.xlsx,stimuli_new.xlsx,stimuli/Social3.png,stimuli/Social4.png,stimuli/Nonsocial3.png,stimuli/Nonsocial4.png,stimuli/Social1.png,stimuli/Social2.png,stimuli/Nonsocial1.png,stimuli/Nonsocial2.png,cs_neg_s,"(-0.7, -0.5)",,,,,,,,,0,0,0,0,,,,,,,,,0,12,12,1,,,,,,,,,,,,,,,,,,,,,,,,,,,,,,,,,,,,,,415.78564130000086,-9,none,0,,,418.7993731000006,,,,,,,,,,,,,,,,,,,,,,34,C,2024-05-15_11h18.59.911,attentional_competition_task,2022.2.4,144.0056911059171,
positions.xlsx,positions_test.xlsx,positions_test_new.xlsx,stimuli.xlsx,stimuli_new.xlsx,stimuli/Social3.png,stimuli/Social4.png,stimuli/Nonsocial3.png,stimuli/Nonsocial4.png,stimuli/Social1.png,stimuli/Social2.png,stimuli/Nonsocial1.png,stimuli/Nonsocial2.png,cs_neg_ns,"(0.7, -0.5)",,,,,,,,,0,0,0,0,,,,,,,,,0,13,13,11,,,,,,,,,,,,,,,,,,,,,,,,,,,,,,,,,,,,,,426.01434119999976,-12,loss,1,2.4450035999998363,2.4450075999993715,428.4725857000012,,,,,,,,,,,,,,,,,,,,,,34,C,2024-05-15_11h18.59.911,attentional_competition_task,2022.2.4,144.0056911059171,
positions.xlsx,positions_test.xlsx,positions_test_new.xlsx,stimuli.xlsx,stimuli_new.xlsx,stimuli/Social3.png,stimuli/Social4.png,stimuli/Nonsocial3.png,stimuli/Nonsocial4.png,stimuli/Social1.png,stimuli/Social2.png,stimuli/Nonsocial1.png,stimuli/Nonsocial2.png,cs_pos_s,"(-0.7, 0.5)",,,,,,,,,0,0,0,0,,,,,,,,,0,14,14,4,,,,,,,,,,,,,,,,,,,,,,,,,,,,,,,,,,,,,,436.18755090000013,-9,reward,1,0.7781740999998874,0.7781778000007762,436.97223719999965,,,,,,,,,,,,,,,,,,,,,,34,C,2024-05-15_11h18.59.911,attentional_competition_task,2022.2.4,144.0056911059171,
positions.xlsx,positions_test.xlsx,positions_test_new.xlsx,stimuli.xlsx,stimuli_new.xlsx,stimuli/Social3.png,stimuli/Social4.png,stimuli/Nonsocial3.png,stimuli/Nonsocial4.png,stimuli/Social1.png,stimuli/Social2.png,stimuli/Nonsocial1.png,stimuli/Nonsocial2.png,cs_pos_ns,"(-0.7, -0.5)",,,,,,,,,0,0,0,0,,,,,,,,,0,15,15,13,,,,,,,,,,,,,,,,,,,,,,,,,,,,,,,,,,,,,,445.1802346000004,-9,none,0,,,448.1940443000003,,,,,,,,,,,,,,,,,,,,,,34,C,2024-05-15_11h18.59.911,attentional_competition_task,2022.2.4,144.0056911059171,
positions.xlsx,positions_test.xlsx,positions_test_new.xlsx,stimuli.xlsx,stimuli_new.xlsx,stimuli/Social3.png,stimuli/Social4.png,stimuli/Nonsocial3.png,stimuli/Nonsocial4.png,stimuli/Social1.png,stimuli/Social2.png,stimuli/Nonsocial1.png,stimuli/Nonsocial2.png,cs_neg_ns,"(-0.7, 0.5)",,,,,,,,,0,0,0,0,,,,,,,,,1,0,16,8,,,,,,,,,,,,,,,,,,,,,,,,,,,,,,,,,,,,,,455.4090046000001,-9,none,0,,,458.42276390000006,,,,,,,,,,,,,,,,,,,,,,34,C,2024-05-15_11h18.59.911,attentional_competition_task,2022.2.4,144.0056911059171,
positions.xlsx,positions_test.xlsx,positions_test_new.xlsx,stimuli.xlsx,stimuli_new.xlsx,stimuli/Social3.png,stimuli/Social4.png,stimuli/Nonsocial3.png,stimuli/Nonsocial4.png,stimuli/Social1.png,stimuli/Social2.png,stimuli/Nonsocial1.png,stimuli/Nonsocial2.png,cs_pos_s,"(-0.7, 0.5)",,,,,,,,,0,0,0,0,,,,,,,,,1,1,17,4,,,,,,,,,,,,,,,,,,,,,,,,,,,,,,,,,,,,,,465.73497450000104,-6,reward,1,0.687529099999665,0.6875331000010192,466.4294313999999,,,,,,,,,,,,,,,,,,,,,,34,C,2024-05-15_11h18.59.911,attentional_competition_task,2022.2.4,144.0056911059171,
positions.xlsx,positions_test.xlsx,positions_test_new.xlsx,stimuli.xlsx,stimuli_new.xlsx,stimuli/Social3.png,stimuli/Social4.png,stimuli/Nonsocial3.png,stimuli/Nonsocial4.png,stimuli/Social1.png,stimuli/Social2.png,stimuli/Nonsocial1.png,stimuli/Nonsocial2.png,cs_neg_s,"(0.7, 0.5)",,,,,,,,,0,0,0,0,,,,,,,,,1,2,18,2,,,,,,,,,,,,,,,,,,,,,,,,,,,,,,,,,,,,,,474.6235138000011,-6,none,0,,,477.63728489999994,,,,,,,,,,,,,,,,,,,,,,34,C,2024-05-15_11h18.59.911,attentional_competition_task,2022.2.4,144.0056911059171,
positions.xlsx,positions_test.xlsx,positions_test_new.xlsx,stimuli.xlsx,stimuli_new.xlsx,stimuli/Social3.png,stimuli/Social4.png,stimuli/Nonsocial3.png,stimuli/Nonsocial4.png,stimuli/Social1.png,stimuli/Social2.png,stimuli/Nonsocial1.png,stimuli/Nonsocial2.png,cs_neg_ns,"(0.7, 0.5)",,,,,,,,,0,0,0,0,,,,,,,,,1,3,19,10,,,,,,,,,,,,,,,,,,,,,,,,,,,,,,,,,,,,,,484.7203132000013,-6,none,0,,,487.72714149999956,,,,,,,,,,,,,,,,,,,,,,34,C,2024-05-15_11h18.59.911,attentional_competition_task,2022.2.4,144.0056911059171,
positions.xlsx,positions_test.xlsx,positions_test_new.xlsx,stimuli.xlsx,stimuli_new.xlsx,stimuli/Social3.png,stimuli/Social4.png,stimuli/Nonsocial3.png,stimuli/Nonsocial4.png,stimuli/Social1.png,stimuli/Social2.png,stimuli/Nonsocial1.png,stimuli/Nonsocial2.png,cs_neg_s,"(-0.7, -0.5)",,,,,,,,,0,0,0,0,,,,,,,,,1,4,20,1,,,,,,,,,,,,,,,,,,,,,,,,,,,,,,,,,,,,,,495.76151709999976,-6,none,0,,,498.76833350000015,,,,,,,,,,,,,,,,,,,,,,34,C,2024-05-15_11h18.59.911,attentional_competition_task,2022.2.4,144.0056911059171,
positions.xlsx,positions_test.xlsx,positions_test_new.xlsx,stimuli.xlsx,stimuli_new.xlsx,stimuli/Social3.png,stimuli/Social4.png,stimuli/Nonsocial3.png,stimuli/Nonsocial4.png,stimuli/Social1.png,stimuli/Social2.png,stimuli/Nonsocial1.png,stimuli/Nonsocial2.png,cs_pos_s,"(0.7, 0.5)",,,,,,,,,0,0,0,0,,,,,,,,,1,5,21,6,,,,,,,,,,,,,,,,,,,,,,,,,,,,,,,,,,,,,,505.87221599999975,-3,reward,1,0.5695549000010942,0.5695719000013924,506.4555540000001,,,,,,,,,,,,,,,,,,,,,,34,C,2024-05-15_11h18.59.911,attentional_competition_task,2022.2.4,144.0056911059171,
positions.xlsx,positions_test.xlsx,positions_test_new.xlsx,stimuli.xlsx,stimuli_new.xlsx,stimuli/Social3.png,stimuli/Social4.png,stimuli/Nonsocial3.png,stimuli/Nonsocial4.png,stimuli/Social1.png,stimuli/Social2.png,stimuli/Nonsocial1.png,stimuli/Nonsocial2.png,cs_pos_ns,"(0.7, -0.5)",,,,,,,,,0,0,0,0,,,,,,,,,1,6,22,15,,,,,,,,,,,,,,,,,,,,,,,,,,,,,,,,,,,,,,513.3441662000005,-3,none,0,,,516.3579728000004,,,,,,,,,,,,,,,,,,,,,,34,C,2024-05-15_11h18.59.911,attentional_competition_task,2022.2.4,144.0056911059171,
positions.xlsx,positions_test.xlsx,positions_test_new.xlsx,stimuli.xlsx,stimuli_new.xlsx,stimuli/Social3.png,stimuli/Social4.png,stimuli/Nonsocial3.png,stimuli/Nonsocial4.png,stimuli/Social1.png,stimuli/Social2.png,stimuli/Nonsocial1.png,stimuli/Nonsocial2.png,cs_pos_s,"(0.7, -0.5)",,,,,,,,,0,0,0,0,,,,,,,,,1,7,23,7,,,,,,,,,,,,,,,,,,,,,,,,,,,,,,,,,,,,,,524.3436875999996,0,reward,1,0.7154328999986319,0.7154363999998168,525.0659281999997,,,,,,,,,,,,,,,,,,,,,,34,C,2024-05-15_11h18.59.911,attentional_competition_task,2022.2.4,144.0056911059171,
positions.xlsx,positions_test.xlsx,positions_test_new.xlsx,stimuli.xlsx,stimuli_new.xlsx,stimuli/Social3.png,stimuli/Social4.png,stimuli/Nonsocial3.png,stimuli/Nonsocial4.png,stimuli/Social1.png,stimuli/Social2.png,stimuli/Nonsocial1.png,stimuli/Nonsocial2.png,cs_pos_s,"(-0.7, -0.5)",,,,,,,,,0,0,0,0,,,,,,,,,1,8,24,5,,,,,,,,,,,,,,,,,,,,,,,,,,,,,,,,,,,,,,533.0586175000008,3,reward,1,0.6117333000001963,0.6117374000004929,533.6766743999997,,,,,,,,,,,,,,,,,,,,,,34,C,2024-05-15_11h18.59.911,attentional_competition_task,2022.2.4,144.0056911059171,
positions.xlsx,positions_test.xlsx,positions_test_new.xlsx,stimuli.xlsx,stimuli_new.xlsx,stimuli/Social3.png,stimuli/Social4.png,stimuli/Nonsocial3.png,stimuli/Nonsocial4.png,stimuli/Social1.png,stimuli/Social2.png,stimuli/Nonsocial1.png,stimuli/Nonsocial2.png,cs_neg_ns,"(-0.7, -0.5)",,,,,,,,,0,0,0,0,,,,,,,,,1,9,25,9,,,,,,,,,,,,,,,,,,,,,,,,,,,,,,,,,,,,,,541.1277374000001,3,none,0,,,544.1415783000011,,,,,,,,,,,,,,,,,,,,,,34,C,2024-05-15_11h18.59.911,attentional_competition_task,2022.2.4,144.0056911059171,
positions.xlsx,positions_test.xlsx,positions_test_new.xlsx,stimuli.xlsx,stimuli_new.xlsx,stimuli/Social3.png,stimuli/Social4.png,stimuli/Nonsocial3.png,stimuli/Nonsocial4.png,stimuli/Social1.png,stimuli/Social2.png,stimuli/Nonsocial1.png,stimuli/Nonsocial2.png,cs_neg_s,"(0.7, -0.5)",,,,,,,,,0,0,0,0,,,,,,,,,1,10,26,3,,,,,,,,,,,,,,,,,,,,,,,,,,,,,,,,,,,,,,551.8564781000005,3,none,0,,,554.8633327999996,,,,,,,,,,,,,,,,,,,,,,34,C,2024-05-15_11h18.59.911,attentional_competition_task,2022.2.4,144.0056911059171,
positions.xlsx,positions_test.xlsx,positions_test_new.xlsx,stimuli.xlsx,stimuli_new.xlsx,stimuli/Social3.png,stimuli/Social4.png,stimuli/Nonsocial3.png,stimuli/Nonsocial4.png,stimuli/Social1.png,stimuli/Social2.png,stimuli/Nonsocial1.png,stimuli/Nonsocial2.png,cs_pos_ns,"(-0.7, 0.5)",,,,,,,,,0,0,0,0,,,,,,,,,1,11,27,12,,,,,,,,,,,,,,,,,,,,,,,,,,,,,,,,,,,,,,561.738053000001,3,none,0,,,564.7517755999997,,,,,,,,,,,,,,,,,,,,,,34,C,2024-05-15_11h18.59.911,attentional_competition_task,2022.2.4,144.0056911059171,
positions.xlsx,positions_test.xlsx,positions_test_new.xlsx,stimuli.xlsx,stimuli_new.xlsx,stimuli/Social3.png,stimuli/Social4.png,stimuli/Nonsocial3.png,stimuli/Nonsocial4.png,stimuli/Social1.png,stimuli/Social2.png,stimuli/Nonsocial1.png,stimuli/Nonsocial2.png,cs_neg_s,"(-0.7, 0.5)",,,,,,,,,0,0,0,0,,,,,,,,,1,12,28,0,,,,,,,,,,,,,,,,,,,,,,,,,,,,,,,,,,,,,,572.5500878000003,3,none,0,,,575.5569352000002,,,,,,,,,,,,,,,,,,,,,,34,C,2024-05-15_11h18.59.911,attentional_competition_task,2022.2.4,144.0056911059171,
positions.xlsx,positions_test.xlsx,positions_test_new.xlsx,stimuli.xlsx,stimuli_new.xlsx,stimuli/Social3.png,stimuli/Social4.png,stimuli/Nonsocial3.png,stimuli/Nonsocial4.png,stimuli/Social1.png,stimuli/Social2.png,stimuli/Nonsocial1.png,stimuli/Nonsocial2.png,cs_pos_ns,"(0.7, 0.5)",,,,,,,,,0,0,0,0,,,,,,,,,1,13,29,14,,,,,,,,,,,,,,,,,,,,,,,,,,,,,,,,,,,,,,582.6330359000003,3,none,0,,,585.6398914000001,,,,,,,,,,,,,,,,,,,,,,34,C,2024-05-15_11h18.59.911,attentional_competition_task,2022.2.4,144.0056911059171,
positions.xlsx,positions_test.xlsx,positions_test_new.xlsx,stimuli.xlsx,stimuli_new.xlsx,stimuli/Social3.png,stimuli/Social4.png,stimuli/Nonsocial3.png,stimuli/Nonsocial4.png,stimuli/Social1.png,stimuli/Social2.png,stimuli/Nonsocial1.png,stimuli/Nonsocial2.png,cs_pos_ns,"(-0.7, -0.5)",,,,,,,,,0,0,0,0,,,,,,,,,1,14,30,13,,,,,,,,,,,,,,,,,,,,,,,,,,,,,,,,,,,,,,592.6673666999995,6,reward,1,0.2365190000000439,0.2365231000003405,592.9104626000008,,,,,,,,,,,,,,,,,,,,,,34,C,2024-05-15_11h18.59.911,attentional_competition_task,2022.2.4,144.0056911059171,
positions.xlsx,positions_test.xlsx,positions_test_new.xlsx,stimuli.xlsx,stimuli_new.xlsx,stimuli/Social3.png,stimuli/Social4.png,stimuli/Nonsocial3.png,stimuli/Nonsocial4.png,stimuli/Social1.png,stimuli/Social2.png,stimuli/Nonsocial1.png,stimuli/Nonsocial2.png,cs_neg_ns,"(0.7, -0.5)",,,,,,,,,0,0,0,0,,,,,,,,,1,15,31,11,,,,,,,,,,,,,,,,,,,,,,,,,,,,,,,,,,,,,,600.035139900001,3,loss,1,0.5280320000001666,0.5280361000004632,600.5698017000013,,,,,,,,,,,,,,,,,,,,,,34,C,2024-05-15_11h18.59.911,attentional_competition_task,2022.2.4,144.0056911059171,
positions.xlsx,positions_test.xlsx,positions_test_new.xlsx,stimuli.xlsx,stimuli_new.xlsx,stimuli/Social3.png,stimuli/Social4.png,stimuli/Nonsocial3.png,stimuli/Nonsocial4.png,stimuli/Social1.png,stimuli/Social2.png,stimuli/Nonsocial1.png,stimuli/Nonsocial2.png,cs_neg_s,"(-0.7, -0.5)",,,,,,,,,0,0,0,0,,,,,,,,,,,,,0,0,0,1,,,,,,,,,,,,,,,,,,,,,,,,,,,,,,,,,,614.7012085000006,3,none,0,,,617.7080248000002,,,,,,,,,,,,,,,,,,,,,,34,C,2024-05-15_11h18.59.911,attentional_competition_task,2022.2.4,144.0056911059171,
positions.xlsx,positions_test.xlsx,positions_test_new.xlsx,stimuli.xlsx,stimuli_new.xlsx,stimuli/Social3.png,stimuli/Social4.png,stimuli/Nonsocial3.png,stimuli/Nonsocial4.png,stimuli/Social1.png,stimuli/Social2.png,stimuli/Nonsocial1.png,stimuli/Nonsocial2.png,cs_neg_ns,"(-0.7, -0.5)",,,,,,,,,0,0,0,0,,,,,,,,,,,,,0,1,1,9,,,,,,,,,,,,,,,,,,,,,,,,,,,,,,,,,,625.3118943000009,3,none,0,,,628.3186863999999,,,,,,,,,,,,,,,,,,,,,,34,C,2024-05-15_11h18.59.911,attentional_competition_task,2022.2.4,144.0056911059171,
positions.xlsx,positions_test.xlsx,positions_test_new.xlsx,stimuli.xlsx,stimuli_new.xlsx,stimuli/Social3.png,stimuli/Social4.png,stimuli/Nonsocial3.png,stimuli/Nonsocial4.png,stimuli/Social1.png,stimuli/Social2.png,stimuli/Nonsocial1.png,stimuli/Nonsocial2.png,cs_neg_s,"(-0.7, 0.5)",,,,,,,,,0,0,0,0,,,,,,,,,,,,,0,2,2,0,,,,,,,,,,,,,,,,,,,,,,,,,,,,,,,,,,635.9156178000012,3,none,0,,,638.9224210000011,,,,,,,,,,,,,,,,,,,,,,34,C,2024-05-15_11h18.59.911,attentional_competition_task,2022.2.4,144.0056911059171,
positions.xlsx,positions_test.xlsx,positions_test_new.xlsx,stimuli.xlsx,stimuli_new.xlsx,stimuli/Social3.png,stimuli/Social4.png,stimuli/Nonsocial3.png,stimuli/Nonsocial4.png,stimuli/Social1.png,stimuli/Social2.png,stimuli/Nonsocial1.png,stimuli/Nonsocial2.png,cs_neg_s,"(0.7, -0.5)",,,,,,,,,0,0,0,0,,,,,,,,,,,,,0,3,3,3,,,,,,,,,,,,,,,,,,,,,,,,,,,,,,,,,,647.2276730000012,0,loss,1,2.159932900000058,2.1599365000001853,649.3943010000003,,,,,,,,,,,,,,,,,,,,,,34,C,2024-05-15_11h18.59.911,attentional_competition_task,2022.2.4,144.0056911059171,
positions.xlsx,positions_test.xlsx,positions_test_new.xlsx,stimuli.xlsx,stimuli_new.xlsx,stimuli/Social3.png,stimuli/Social4.png,stimuli/Nonsocial3.png,stimuli/Nonsocial4.png,stimuli/Social1.png,stimuli/Social2.png,stimuli/Nonsocial1.png,stimuli/Nonsocial2.png,cs_pos_s,"(0.7, 0.5)",,,,,,,,,0,0,0,0,,,,,,,,,,,,,0,4,4,6,,,,,,,,,,,,,,,,,,,,,,,,,,,,,,,,,,656.886999100001,3,reward,1,0.6040678000008484,0.6040714999999182,657.4981352000013,,,,,,,,,,,,,,,,,,,,,,34,C,2024-05-15_11h18.59.911,attentional_competition_task,2022.2.4,144.0056911059171,
positions.xlsx,positions_test.xlsx,positions_test_new.xlsx,stimuli.xlsx,stimuli_new.xlsx,stimuli/Social3.png,stimuli/Social4.png,stimuli/Nonsocial3.png,stimuli/Nonsocial4.png,stimuli/Social1.png,stimuli/Social2.png,stimuli/Nonsocial1.png,stimuli/Nonsocial2.png,cs_pos_ns,"(0.7, 0.5)",,,,,,,,,0,0,0,0,,,,,,,,,,,,,0,5,5,14,,,,,,,,,,,,,,,,,,,,,,,,,,,,,,,,,,665.6852643000002,6,reward,1,0.24990859999888926,0.24991249999948195,665.9421911000009,,,,,,,,,,,,,,,,,,,,,,34,C,2024-05-15_11h18.59.911,attentional_competition_task,2022.2.4,144.0056911059171,
positions.xlsx,positions_test.xlsx,positions_test_new.xlsx,stimuli.xlsx,stimuli_new.xlsx,stimuli/Social3.png,stimuli/Social4.png,stimuli/Nonsocial3.png,stimuli/Nonsocial4.png,stimuli/Social1.png,stimuli/Social2.png,stimuli/Nonsocial1.png,stimuli/Nonsocial2.png,cs_pos_ns,"(-0.7, -0.5)",,,,,,,,,0,0,0,0,,,,,,,,,,,,,0,6,6,13,,,,,,,,,,,,,,,,,,,,,,,,,,,,,,,,,,673.6502368000001,9,reward,1,0.6876118999989558,0.6876154999990831,674.3446416000006,,,,,,,,,,,,,,,,,,,,,,34,C,2024-05-15_11h18.59.911,attentional_competition_task,2022.2.4,144.0056911059171,
positions.xlsx,positions_test.xlsx,positions_test_new.xlsx,stimuli.xlsx,stimuli_new.xlsx,stimuli/Social3.png,stimuli/Social4.png,stimuli/Nonsocial3.png,stimuli/Nonsocial4.png,stimuli/Social1.png,stimuli/Social2.png,stimuli/Nonsocial1.png,stimuli/Nonsocial2.png,cs_neg_ns,"(0.7, -0.5)",,,,,,,,,0,0,0,0,,,,,,,,,,,,,0,7,7,11,,,,,,,,,,,,,,,,,,,,,,,,,,,,,,,,,,682.5526097000002,9,none,0,,,685.5664171999997,,,,,,,,,,,,,,,,,,,,,,34,C,2024-05-15_11h18.59.911,attentional_competition_task,2022.2.4,144.0056911059171,
positions.xlsx,positions_test.xlsx,positions_test_new.xlsx,stimuli.xlsx,stimuli_new.xlsx,stimuli/Social3.png,stimuli/Social4.png,stimuli/Nonsocial3.png,stimuli/Nonsocial4.png,stimuli/Social1.png,stimuli/Social2.png,stimuli/Nonsocial1.png,stimuli/Nonsocial2.png,cs_neg_s,"(0.7, 0.5)",,,,,,,,,0,0,0,0,,,,,,,,,,,,,0,8,8,2,,,,,,,,,,,,,,,,,,,,,,,,,,,,,,,,,,692.5522459000003,9,none,0,,,695.5590809000005,,,,,,,,,,,,,,,,,,,,,,34,C,2024-05-15_11h18.59.911,attentional_competition_task,2022.2.4,144.0056911059171,
positions.xlsx,positions_test.xlsx,positions_test_new.xlsx,stimuli.xlsx,stimuli_new.xlsx,stimuli/Social3.png,stimuli/Social4.png,stimuli/Nonsocial3.png,stimuli/Nonsocial4.png,stimuli/Social1.png,stimuli/Social2.png,stimuli/Nonsocial1.png,stimuli/Nonsocial2.png,cs_pos_s,"(-0.7, 0.5)",,,,,,,,,0,0,0,0,,,,,,,,,,,,,0,9,9,4,,,,,,,,,,,,,,,,,,,,,,,,,,,,,,,,,,702.8157064999996,12,reward,1,0.5973056999991968,0.5973097999994934,703.4198623000011,,,,,,,,,,,,,,,,,,,,,,34,C,2024-05-15_11h18.59.911,attentional_competition_task,2022.2.4,144.0056911059171,
positions.xlsx,positions_test.xlsx,positions_test_new.xlsx,stimuli.xlsx,stimuli_new.xlsx,stimuli/Social3.png,stimuli/Social4.png,stimuli/Nonsocial3.png,stimuli/Nonsocial4.png,stimuli/Social1.png,stimuli/Social2.png,stimuli/Nonsocial1.png,stimuli/Nonsocial2.png,cs_neg_ns,"(0.7, 0.5)",,,,,,,,,0,0,0,0,,,,,,,,,,,,,0,10,10,10,,,,,,,,,,,,,,,,,,,,,,,,,,,,,,,,,,711.3223147000008,9,loss,1,1.3752069000001939,1.375210700000025,712.7042180000008,,,,,,,,,,,,,,,,,,,,,,34,C,2024-05-15_11h18.59.911,attentional_competition_task,2022.2.4,144.0056911059171,
positions.xlsx,positions_test.xlsx,positions_test_new.xlsx,stimuli.xlsx,stimuli_new.xlsx,stimuli/Social3.png,stimuli/Social4.png,stimuli/Nonsocial3.png,stimuli/Nonsocial4.png,stimuli/Social1.png,stimuli/Social2.png,stimuli/Nonsocial1.png,stimuli/Nonsocial2.png,cs_pos_ns,"(-0.7, 0.5)",,,,,,,,,0,0,0,0,,,,,,,,,,,,,0,11,11,12,,,,,,,,,,,,,,,,,,,,,,,,,,,,,,,,,,720.1344375000008,9,none,0,,,723.1482178000006,,,,,,,,,,,,,,,,,,,,,,34,C,2024-05-15_11h18.59.911,attentional_competition_task,2022.2.4,144.0056911059171,
positions.xlsx,positions_test.xlsx,positions_test_new.xlsx,stimuli.xlsx,stimuli_new.xlsx,stimuli/Social3.png,stimuli/Social4.png,stimuli/Nonsocial3.png,stimuli/Nonsocial4.png,stimuli/Social1.png,stimuli/Social2.png,stimuli/Nonsocial1.png,stimuli/Nonsocial2.png,cs_pos_s,"(-0.7, -0.5)",,,,,,,,,0,0,0,0,,,,,,,,,,,,,0,12,12,5,,,,,,,,,,,,,,,,,,,,,,,,,,,,,,,,,,730.0715906000005,12,reward,1,0.6119061999997939,0.6119101000003866,730.689601600001,,,,,,,,,,,,,,,,,,,,,,34,C,2024-05-15_11h18.59.911,attentional_competition_task,2022.2.4,144.0056911059171,
positions.xlsx,positions_test.xlsx,positions_test_new.xlsx,stimuli.xlsx,stimuli_new.xlsx,stimuli/Social3.png,stimuli/Social4.png,stimuli/Nonsocial3.png,stimuli/Nonsocial4.png,stimuli/Social1.png,stimuli/Social2.png,stimuli/Nonsocial1.png,stimuli/Nonsocial2.png,cs_pos_ns,"(0.7, -0.5)",,,,,,,,,0,0,0,0,,,,,,,,,,,,,0,13,13,15,,,,,,,,,,,,,,,,,,,,,,,,,,,,,,,,,,737.2796180000005,15,reward,1,0.7712031000010029,0.7712068000000727,738.0573758999999,,,,,,,,,,,,,,,,,,,,,,34,C,2024-05-15_11h18.59.911,attentional_competition_task,2022.2.4,144.0056911059171,
positions.xlsx,positions_test.xlsx,positions_test_new.xlsx,stimuli.xlsx,stimuli_new.xlsx,stimuli/Social3.png,stimuli/Social4.png,stimuli/Nonsocial3.png,stimuli/Nonsocial4.png,stimuli/Social1.png,stimuli/Social2.png,stimuli/Nonsocial1.png,stimuli/Nonsocial2.png,cs_pos_s,"(0.7, -0.5)",,,,,,,,,0,0,0,0,,,,,,,,,,,,,0,14,14,7,,,,,,,,,,,,,,,,,,,,,,,,,,,,,,,,,,745.4042843999996,18,reward,1,0.6044641999997111,0.6112778999995498,746.0223103000008,,,,,,,,,,,,,,,,,,,,,,34,C,2024-05-15_11h18.59.911,attentional_competition_task,2022.2.4,144.0056911059171,
positions.xlsx,positions_test.xlsx,positions_test_new.xlsx,stimuli.xlsx,stimuli_new.xlsx,stimuli/Social3.png,stimuli/Social4.png,stimuli/Nonsocial3.png,stimuli/Nonsocial4.png,stimuli/Social1.png,stimuli/Social2.png,stimuli/Nonsocial1.png,stimuli/Nonsocial2.png,cs_neg_ns,"(-0.7, 0.5)",,,,,,,,,0,0,0,0,,,,,,,,,,,,,0,15,15,8,,,,,,,,,,,,,,,,,,,,,,,,,,,,,,,,,,753.931695700001,15,loss,1,0.22933890000058454,0.22934259999965434,754.1678176000005,,,,,,,,,,,,,,,,,,,,,,34,C,2024-05-15_11h18.59.911,attentional_competition_task,2022.2.4,144.0056911059171,
positions.xlsx,positions_test.xlsx,positions_test_new.xlsx,stimuli.xlsx,stimuli_new.xlsx,stimuli/Social3.png,stimuli/Social4.png,stimuli/Nonsocial3.png,stimuli/Nonsocial4.png,stimuli/Social1.png,stimuli/Social2.png,stimuli/Nonsocial1.png,stimuli/Nonsocial2.png,cs_pos_s,"(-0.7, -0.5)",,,,,,,,,0,0,0,0,,,,,,,,,,,,,1,0,16,5,,,,,,,,,,,,,,,,,,,,,,,,,,,,,,,,,,762.1536109000008,18,reward,1,0.5764748000001418,0.5764787000007345,762.7369392,,,,,,,,,,,,,,,,,,,,,,34,C,2024-05-15_11h18.59.911,attentional_competition_task,2022.2.4,144.0056911059171,
positions.xlsx,positions_test.xlsx,positions_test_new.xlsx,stimuli.xlsx,stimuli_new.xlsx,stimuli/Social3.png,stimuli/Social4.png,stimuli/Nonsocial3.png,stimuli/Nonsocial4.png,stimuli/Social1.png,stimuli/Social2.png,stimuli/Nonsocial1.png,stimuli/Nonsocial2.png,cs_pos_ns,"(-0.7, 0.5)",,,,,,,,,0,0,0,0,,,,,,,,,,,,,1,1,17,12,,,,,,,,,,,,,,,,,,,,,,,,,,,,,,,,,,770.5421688000006,21,reward,1,0.7572110000000976,0.7572149999996327,771.3060308000004,,,,,,,,,,,,,,,,,,,,,,34,C,2024-05-15_11h18.59.911,attentional_competition_task,2022.2.4,144.0056911059171,
positions.xlsx,positions_test.xlsx,positions_test_new.xlsx,stimuli.xlsx,stimuli_new.xlsx,stimuli/Social3.png,stimuli/Social4.png,stimuli/Nonsocial3.png,stimuli/Nonsocial4.png,stimuli/Social1.png,stimuli/Social2.png,stimuli/Nonsocial1.png,stimuli/Nonsocial2.png,cs_pos_ns,"(-0.7, -0.5)",,,,,,,,,0,0,0,0,,,,,,,,,,,,,1,2,18,13,,,,,,,,,,,,,,,,,,,,,,,,,,,,,,,,,,778.8543026000007,24,reward,2,0.3756020000000717,0.3826857999993081,779.2709888999998,,,,,,,,,,,,,,,,,,,,,,34,C,2024-05-15_11h18.59.911,attentional_competition_task,2022.2.4,144.0056911059171,
positions.xlsx,positions_test.xlsx,positions_test_new.xlsx,stimuli.xlsx,stimuli_new.xlsx,stimuli/Social3.png,stimuli/Social4.png,stimuli/Nonsocial3.png,stimuli/Nonsocial4.png,stimuli/Social1.png,stimuli/Social2.png,stimuli/Nonsocial1.png,stimuli/Nonsocial2.png,cs_neg_ns,"(-0.7, -0.5)",,,,,,,,,0,0,0,0,,,,,,,,,,,,,1,3,19,9,,,,,,,,,,,,,,,,,,,,,,,,,,,,,,,,,,786.1318122000011,21,loss,1,1.2431240000005346,1.2431280000000697,787.3817854000008,,,,,,,,,,,,,,,,,,,,,,34,C,2024-05-15_11h18.59.911,attentional_competition_task,2022.2.4,144.0056911059171,
positions.xlsx,positions_test.xlsx,positions_test_new.xlsx,stimuli.xlsx,stimuli_new.xlsx,stimuli/Social3.png,stimuli/Social4.png,stimuli/Nonsocial3.png,stimuli/Nonsocial4.png,stimuli/Social1.png,stimuli/Social2.png,stimuli/Nonsocial1.png,stimuli/Nonsocial2.png,cs_neg_ns,"(0.7, -0.5)",,,,,,,,,0,0,0,0,,,,,,,,,,,,,1,4,20,11,,,,,,,,,,,,,,,,,,,,,,,,,,,,,,,,,,795.1245099000007,21,none,0,,,798.1382480000011,,,,,,,,,,,,,,,,,,,,,,34,C,2024-05-15_11h18.59.911,attentional_competition_task,2022.2.4,144.0056911059171,
positions.xlsx,positions_test.xlsx,positions_test_new.xlsx,stimuli.xlsx,stimuli_new.xlsx,stimuli/Social3.png,stimuli/Social4.png,stimuli/Nonsocial3.png,stimuli/Nonsocial4.png,stimuli/Social1.png,stimuli/Social2.png,stimuli/Nonsocial1.png,stimuli/Nonsocial2.png,cs_pos_s,"(0.7, 0.5)",,,,,,,,,0,0,0,0,,,,,,,,,,,,,1,5,21,6,,,,,,,,,,,,,,,,,,,,,,,,,,,,,,,,,,805.7560457,24,reward,1,0.5765692999993917,0.5765731999999844,806.3393166000005,,,,,,,,,,,,,,,,,,,,,,34,C,2024-05-15_11h18.59.911,attentional_competition_task,2022.2.4,144.0056911059171,
positions.xlsx,positions_test.xlsx,positions_test_new.xlsx,stimuli.xlsx,stimuli_new.xlsx,stimuli/Social3.png,stimuli/Social4.png,stimuli/Nonsocial3.png,stimuli/Nonsocial4.png,stimuli/Social1.png,stimuli/Social2.png,stimuli/Nonsocial1.png,stimuli/Nonsocial2.png,cs_neg_ns,"(-0.7, 0.5)",,,,,,,,,0,0,0,0,,,,,,,,,,,,,1,6,22,8,,,,,,,,,,,,,,,,,,,,,,,,,,,,,,,,,,814.1584478000004,24,none,0,,,817.1722224000005,,,,,,,,,,,,,,,,,,,,,,34,C,2024-05-15_11h18.59.911,attentional_competition_task,2022.2.4,144.0056911059171,
positions.xlsx,positions_test.xlsx,positions_test_new.xlsx,stimuli.xlsx,stimuli_new.xlsx,stimuli/Social3.png,stimuli/Social4.png,stimuli/Nonsocial3.png,stimuli/Nonsocial4.png,stimuli/Social1.png,stimuli/Social2.png,stimuli/Nonsocial1.png,stimuli/Nonsocial2.png,cs_neg_s,"(0.7, 0.5)",,,,,,,,,0,0,0,0,,,,,,,,,,,,,1,7,23,2,,,,,,,,,,,,,,,,,,,,,,,,,,,,,,,,,,825.2135653000005,21,loss,1,0.271344599999793,0.2713482999988628,825.4913756000005,,,,,,,,,,,,,,,,,,,,,,34,C,2024-05-15_11h18.59.911,attentional_competition_task,2022.2.4,144.0056911059171,
positions.xlsx,positions_test.xlsx,positions_test_new.xlsx,stimuli.xlsx,stimuli_new.xlsx,stimuli/Social3.png,stimuli/Social4.png,stimuli/Nonsocial3.png,stimuli/Nonsocial4.png,stimuli/Social1.png,stimuli/Social2.png,stimuli/Nonsocial1.png,stimuli/Nonsocial2.png,cs_pos_s,"(-0.7, 0.5)",,,,,,,,,0,0,0,0,,,,,,,,,,,,,1,8,24,4,,,,,,,,,,,,,,,,,,,,,,,,,,,,,,,,,,833.4076986,24,reward,1,0.5279467000000295,0.5279507000013837,833.9423951000008,,,,,,,,,,,,,,,,,,,,,,34,C,2024-05-15_11h18.59.911,attentional_competition_task,2022.2.4,144.0056911059171,
positions.xlsx,positions_test.xlsx,positions_test_new.xlsx,stimuli.xlsx,stimuli_new.xlsx,stimuli/Social3.png,stimuli/Social4.png,stimuli/Nonsocial3.png,stimuli/Nonsocial4.png,stimuli/Social1.png,stimuli/Social2.png,stimuli/Nonsocial1.png,stimuli/Nonsocial2.png,cs_pos_ns,"(0.7, 0.5)",,,,,,,,,0,0,0,0,,,,,,,,,,,,,1,9,25,14,,,,,,,,,,,,,,,,,,,,,,,,,,,,,,,,,,841.4004416999996,27,reward,1,0.6738330999996833,0.673837000000276,842.0809679000013,,,,,,,,,,,,,,,,,,,,,,34,C,2024-05-15_11h18.59.911,attentional_competition_task,2022.2.4,144.0056911059171,
positions.xlsx,positions_test.xlsx,positions_test_new.xlsx,stimuli.xlsx,stimuli_new.xlsx,stimuli/Social3.png,stimuli/Social4.png,stimuli/Nonsocial3.png,stimuli/Nonsocial4.png,stimuli/Social1.png,stimuli/Social2.png,stimuli/Nonsocial1.png,stimuli/Nonsocial2.png,cs_pos_s,"(0.7, -0.5)",,,,,,,,,0,0,0,0,,,,,,,,,,,,,1,10,26,7,,,,,,,,,,,,,,,,,,,,,,,,,,,,,,,,,,850.0459064000006,30,reward,1,0.6111506999986887,0.6111540999991121,850.6639355999996,,,,,,,,,,,,,,,,,,,,,,34,C,2024-05-15_11h18.59.911,attentional_competition_task,2022.2.4,144.0056911059171,
positions.xlsx,positions_test.xlsx,positions_test_new.xlsx,stimuli.xlsx,stimuli_new.xlsx,stimuli/Social3.png,stimuli/Social4.png,stimuli/Nonsocial3.png,stimuli/Nonsocial4.png,stimuli/Social1.png,stimuli/Social2.png,stimuli/Nonsocial1.png,stimuli/Nonsocial2.png,cs_pos_ns,"(0.7, -0.5)",,,,,,,,,0,0,0,0,,,,,,,,,,,,,1,11,27,15,,,,,,,,,,,,,,,,,,,,,,,,,,,,,,,,,,858.2678173000004,33,reward,1,0.24318569999923056,0.2431894999990618,858.5177985000009,,,,,,,,,,,,,,,,,,,,,,34,C,2024-05-15_11h18.59.911,attentional_competition_task,2022.2.4,144.0056911059171,
positions.xlsx,positions_test.xlsx,positions_test_new.xlsx,stimuli.xlsx,stimuli_new.xlsx,stimuli/Social3.png,stimuli/Social4.png,stimuli/Nonsocial3.png,stimuli/Nonsocial4.png,stimuli/Social1.png,stimuli/Social2.png,stimuli/Nonsocial1.png,stimuli/Nonsocial2.png,cs_neg_s,"(0.7, -0.5)",,,,,,,,,0,0,0,0,,,,,,,,,,,,,1,12,28,3,,,,,,,,,,,,,,,,,,,,,,,,,,,,,,,,,,866.5661065000004,33,none,0,,,869.5798379000007,,,,,,,,,,,,,,,,,,,,,,34,C,2024-05-15_11h18.59.911,attentional_competition_task,2022.2.4,144.0056911059171,
positions.xlsx,positions_test.xlsx,positions_test_new.xlsx,stimuli.xlsx,stimuli_new.xlsx,stimuli/Social3.png,stimuli/Social4.png,stimuli/Nonsocial3.png,stimuli/Nonsocial4.png,stimuli/Social1.png,stimuli/Social2.png,stimuli/Nonsocial1.png,stimuli/Nonsocial2.png,cs_neg_ns,"(0.7, 0.5)",,,,,,,,,0,0,0,0,,,,,,,,,,,,,1,13,29,10,,,,,,,,,,,,,,,,,,,,,,,,,,,,,,,,,,877.114251500001,33,none,0,,,880.1211134000005,,,,,,,,,,,,,,,,,,,,,,34,C,2024-05-15_11h18.59.911,attentional_competition_task,2022.2.4,144.0056911059171,
positions.xlsx,positions_test.xlsx,positions_test_new.xlsx,stimuli.xlsx,stimuli_new.xlsx,stimuli/Social3.png,stimuli/Social4.png,stimuli/Nonsocial3.png,stimuli/Nonsocial4.png,stimuli/Social1.png,stimuli/Social2.png,stimuli/Nonsocial1.png,stimuli/Nonsocial2.png,cs_neg_s,"(-0.7, 0.5)",,,,,,,,,0,0,0,0,,,,,,,,,,,,,1,14,30,0,,,,,,,,,,,,,,,,,,,,,,,,,,,,,,,,,,888.4749348000005,33,none,0,,,891.4817602000003,,,,,,,,,,,,,,,,,,,,,,34,C,2024-05-15_11h18.59.911,attentional_competition_task,2022.2.4,144.0056911059171,
positions.xlsx,positions_test.xlsx,positions_test_new.xlsx,stimuli.xlsx,stimuli_new.xlsx,stimuli/Social3.png,stimuli/Social4.png,stimuli/Nonsocial3.png,stimuli/Nonsocial4.png,stimuli/Social1.png,stimuli/Social2.png,stimuli/Nonsocial1.png,stimuli/Nonsocial2.png,cs_neg_s,"(-0.7, -0.5)",,,,,,,,,0,0,0,0,,,,,,,,,,,,,1,15,31,1,,,,,,,,,,,,,,,,,,,,,,,,,,,,,,,,,,899.1064379,33,none,0,,,902.1132865,,,,,,,,,,,,,,,,,,,,,,34,C,2024-05-15_11h18.59.911,attentional_competition_task,2022.2.4,144.0056911059171,
positions.xlsx,positions_test.xlsx,positions_test_new.xlsx,stimuli.xlsx,stimuli_new.xlsx,stimuli/Social3.png,stimuli/Social4.png,stimuli/Nonsocial3.png,stimuli/Nonsocial4.png,stimuli/Social1.png,stimuli/Social2.png,stimuli/Nonsocial1.png,stimuli/Nonsocial2.png,cs_pos_s,,,,,,,,,,0,0,0,0,,,,,,,,,,,,,,,,,0,0,0,2,,,,,,,,,,,,,,,,,,,,,,,907.4255412000002,6.0,3.0180748000002495,,,,,,,,,,,,,,,,,,,,,,,,,,,,,,,,,34,C,2024-05-15_11h18.59.911,attentional_competition_task,2022.2.4,144.0056911059171,
positions.xlsx,positions_test.xlsx,positions_test_new.xlsx,stimuli.xlsx,stimuli_new.xlsx,stimuli/Social3.png,stimuli/Social4.png,stimuli/Nonsocial3.png,stimuli/Nonsocial4.png,stimuli/Social1.png,stimuli/Social2.png,stimuli/Nonsocial1.png,stimuli/Nonsocial2.png,cs_pos_ns,,,,,,,,,,0,0,0,0,,,,,,,,,,,,,,,,,0,1,1,3,,,,,,,,,,,,,,,,,,,,,,,910.6823947000012,7.0,1.7786338000005344,,,,,,,,,,,,,,,,,,,,,,,,,,,,,,,,,34,C,2024-05-15_11h18.59.911,attentional_competition_task,2022.2.4,144.0056911059171,
positions.xlsx,positions_test.xlsx,positions_test_new.xlsx,stimuli.xlsx,stimuli_new.xlsx,stimuli/Social3.png,stimuli/Social4.png,stimuli/Nonsocial3.png,stimuli/Nonsocial4.png,stimuli/Social1.png,stimuli/Social2.png,stimuli/Nonsocial1.png,stimuli/Nonsocial2.png,cs_neg_s,,,,,,,,,,0,0,0,0,,,,,,,,,,,,,,,,,0,2,2,0,,,,,,,,,,,,,,,,,,,,,,,912.6475979000006,5.0,0.7181156000006013,,,,,,,,,,,,,,,,,,,,,,,,,,,,,,,,,34,C,2024-05-15_11h18.59.911,attentional_competition_task,2022.2.4,144.0056911059171,
positions.xlsx,positions_test.xlsx,positions_test_new.xlsx,stimuli.xlsx,stimuli_new.xlsx,stimuli/Social3.png,stimuli/Social4.png,stimuli/Nonsocial3.png,stimuli/Nonsocial4.png,stimuli/Social1.png,stimuli/Social2.png,stimuli/Nonsocial1.png,stimuli/Nonsocial2.png,cs_neg_ns,,,,,,,,,,0,0,0,0,,,,,,,,,,,,,,,,,0,3,3,1,,,,,,,,,,,,,,,,,,,,,,,913.5364327000007,5.0,0.6397793999985879,,,,,,,,,,,,,,,,,,,,,,,,,,,,,,,,,34,C,2024-05-15_11h18.59.911,attentional_competition_task,2022.2.4,144.0056911059171,
positions.xlsx,positions_test.xlsx,positions_test_new.xlsx,stimuli.xlsx,stimuli_new.xlsx,stimuli/Social3.png,stimuli/Social4.png,stimuli/Nonsocial3.png,stimuli/Nonsocial4.png,stimuli/Social1.png,stimuli/Social2.png,stimuli/Nonsocial1.png,stimuli/Nonsocial2.png,,,"(-0.7, -0.5)",cs_neg_ns,"(-0.7, 0.5)",cs_pos_s,"(0.7, -0.5)",cs_neg_s,"(0.7, 0.5)",cs_pos_ns,0,0,0,0,,,,,,,,,,,,,,,,,,,,,0,0,0,12,,,,,,,,,,,,,,,,,,,,,,,,,,,36,reward,,,,,914.2933437000011,919.4806996999996,919.4806996999996,919.4806996999996,919.4806996999996,0,,,1,0.02451190000101633,0.024515500001143664,0,,,0,,,919.4806996999996,919.4806996999996,919.4806996999996,919.4806996999996,34,C,2024-05-15_11h18.59.911,attentional_competition_task,2022.2.4,144.0056911059171,
positions.xlsx,positions_test.xlsx,positions_test_new.xlsx,stimuli.xlsx,stimuli_new.xlsx,stimuli/Social3.png,stimuli/Social4.png,stimuli/Nonsocial3.png,stimuli/Nonsocial4.png,stimuli/Social1.png,stimuli/Social2.png,stimuli/Nonsocial1.png,stimuli/Nonsocial2.png,,,"(-0.7, -0.5)",cs_neg_s,"(-0.7, 0.5)",cs_pos_s,"(0.7, -0.5)",cs_neg_ns,"(0.7, 0.5)",cs_pos_ns,0,0,0,0,,,,,,,,,,,,,,,,,,,,,0,1,1,0,,,,,,,,,,,,,,,,,,,,,,,,,,,42,reward,,,,,,927.7372789000001,927.7372789000001,927.7372789000001,927.7372789000001,0,,,1,0.5165163999990909,0.5165199999992183,0,,,2,0.030809199999566772,0.04606909999893105,928.2511341000009,928.2511341000009,928.2511341000009,928.2511341000009,34,C,2024-05-15_11h18.59.911,attentional_competition_task,2022.2.4,144.0056911059171,
positions.xlsx,positions_test.xlsx,positions_test_new.xlsx,stimuli.xlsx,stimuli_new.xlsx,stimuli/Social3.png,stimuli/Social4.png,stimuli/Nonsocial3.png,stimuli/Nonsocial4.png,stimuli/Social1.png,stimuli/Social2.png,stimuli/Nonsocial1.png,stimuli/Nonsocial2.png,,,"(-0.7, -0.5)",cs_pos_s,"(-0.7, 0.5)",cs_neg_ns,"(0.7, -0.5)",cs_neg_s,"(0.7, 0.5)",cs_pos_ns,0,0,0,0,,,,,,,,,,,,,,,,,,,,,0,2,2,8,,,,,,,,,,,,,,,,,,,,,,,,,,,48,reward,,,,,,936.8271514999997,936.8271514999997,936.8271514999997,936.8271514999997,0,,,0,,,0,,,1,0.029924999998911517,0.2666786999998294,937.5979915000007,937.5979915000007,937.5979915000007,937.5979915000007,34,C,2024-05-15_11h18.59.911,attentional_competition_task,2022.2.4,144.0056911059171,
positions.xlsx,positions_test.xlsx,positions_test_new.xlsx,stimuli.xlsx,stimuli_new.xlsx,stimuli/Social3.png,stimuli/Social4.png,stimuli/Nonsocial3.png,stimuli/Nonsocial4.png,stimuli/Social1.png,stimuli/Social2.png,stimuli/Nonsocial1.png,stimuli/Nonsocial2.png,,,"(-0.7, -0.5)",cs_pos_s,"(-0.7, 0.5)",cs_pos_ns,"(0.7, -0.5)",cs_neg_ns,"(0.7, 0.5)",cs_neg_s,0,0,0,0,,,,,,,,,,,,,,,,,,,,,0,3,3,11,,,,,,,,,,,,,,,,,,,,,,,,,,,51,reward,,,,,,943.1463714000001,943.1463714000001,943.1463714000001,943.1463714000001,0,,,1,1.6688300000005256,1.668833600000653,0,,,0,,,944.8199025000013,944.8199025000013,944.8199025000013,944.8199025000013,34,C,2024-05-15_11h18.59.911,attentional_competition_task,2022.2.4,144.0056911059171,
positions.xlsx,positions_test.xlsx,positions_test_new.xlsx,stimuli.xlsx,stimuli_new.xlsx,stimuli/Social3.png,stimuli/Social4.png,stimuli/Nonsocial3.png,stimuli/Nonsocial4.png,stimuli/Social1.png,stimuli/Social2.png,stimuli/Nonsocial1.png,stimuli/Nonsocial2.png,,,"(-0.7, -0.5)",cs_pos_s,"(-0.7, 0.5)",cs_pos_ns,"(0.7, -0.5)",cs_neg_s,"(0.7, 0.5)",cs_neg_ns,0,0,0,0,,,,,,,,,,,,,,,,,,,,,0,4,4,10,,,,,,,,,,,,,,,,,,,,,,,,,,,57,reward,,,,,,952.7779554000008,952.7779554000008,952.7779554000008,952.7779554000008,1,0.028875899999547983,0.028879599998617778,0,,,0,,,0,,,952.7779554000008,952.7779554000008,952.7779554000008,952.7779554000008,34,C,2024-05-15_11h18.59.911,attentional_competition_task,2022.2.4,144.0056911059171,
positions.xlsx,positions_test.xlsx,positions_test_new.xlsx,stimuli.xlsx,stimuli_new.xlsx,stimuli/Social3.png,stimuli/Social4.png,stimuli/Nonsocial3.png,stimuli/Nonsocial4.png,stimuli/Social1.png,stimuli/Social2.png,stimuli/Nonsocial1.png,stimuli/Nonsocial2.png,,,"(-0.7, -0.5)",cs_neg_ns,"(-0.7, 0.5)",cs_pos_ns,"(0.7, -0.5)",cs_pos_s,"(0.7, 0.5)",cs_neg_s,0,0,0,0,,,,,,,,,,,,,,,,,,,,,0,5,5,16,,,,,,,,,,,,,,,,,,,,,,,,,,,60,reward,,,,,,961.5137304,961.5137304,961.5137304,961.5137304,0,,,0,,,1,0.030962699998781318,0.030966099999204744,0,,,961.5137304,961.5137304,961.5137304,961.5137304,34,C,2024-05-15_11h18.59.911,attentional_competition_task,2022.2.4,144.0056911059171,
positions.xlsx,positions_test.xlsx,positions_test_new.xlsx,stimuli.xlsx,stimuli_new.xlsx,stimuli/Social3.png,stimuli/Social4.png,stimuli/Nonsocial3.png,stimuli/Nonsocial4.png,stimuli/Social1.png,stimuli/Social2.png,stimuli/Nonsocial1.png,stimuli/Nonsocial2.png,,,"(-0.7, -0.5)",cs_neg_ns,"(-0.7, 0.5)",cs_pos_s,"(0.7, -0.5)",cs_pos_ns,"(0.7, 0.5)",cs_neg_s,0,0,0,0,,,,,,,,,,,,,,,,,,,,,0,6,6,13,,,,,,,,,,,,,,,,,,,,,,,,,,,63,reward,,,,,,969.6522540000005,969.6522540000005,969.6522540000005,969.6522540000005,0,,,1,0.02994580000085989,0.029949699999633594,0,,,0,,,969.6522540000005,969.6522540000005,969.6522540000005,969.6522540000005,34,C,2024-05-15_11h18.59.911,attentional_competition_task,2022.2.4,144.0056911059171,
positions.xlsx,positions_test.xlsx,positions_test_new.xlsx,stimuli.xlsx,stimuli_new.xlsx,stimuli/Social3.png,stimuli/Social4.png,stimuli/Nonsocial3.png,stimuli/Nonsocial4.png,stimuli/Social1.png,stimuli/Social2.png,stimuli/Nonsocial1.png,stimuli/Nonsocial2.png,,,"(-0.7, -0.5)",cs_pos_ns,"(-0.7, 0.5)",cs_pos_s,"(0.7, -0.5)",cs_neg_ns,"(0.7, 0.5)",cs_neg_s,0,0,0,0,,,,,,,,,,,,,,,,,,,,,0,7,7,18,,,,,,,,,,,,,,,,,,,,,,,,,,,72,reward,,,,,,977.7213642000006,977.7213642000006,977.7213642000006,977.7213642000006,1,0.025737599999047234,0.156922799998938,1,0.1641605000004347,0.31666839999888907,0,,,0,,,978.5407998999999,978.5407998999999,978.5407998999999,978.5407998999999,34,C,2024-05-15_11h18.59.911,attentional_competition_task,2022.2.4,144.0056911059171,
positions.xlsx,positions_test.xlsx,positions_test_new.xlsx,stimuli.xlsx,stimuli_new.xlsx,stimuli/Social3.png,stimuli/Social4.png,stimuli/Nonsocial3.png,stimuli/Nonsocial4.png,stimuli/Social1.png,stimuli/Social2.png,stimuli/Nonsocial1.png,stimuli/Nonsocial2.png,,,"(-0.7, -0.5)",cs_neg_ns,"(-0.7, 0.5)",cs_neg_s,"(0.7, -0.5)",cs_pos_s,"(0.7, 0.5)",cs_pos_ns,0,0,0,0,,,,,,,,,,,,,,,,,,,,,0,8,8,14,,,,,,,,,,,,,,,,,,,,,,,,,,,81,reward,,,,,,986.0960675000006,986.0960675000006,986.0960675000006,986.0960675000006,0,,,0,,,1,0.021999200000209385,0.3714380000001256,0,,,986.9779299000002,986.9779299000002,986.9779299000002,986.9779299000002,34,C,2024-05-15_11h18.59.911,attentional_competition_task,2022.2.4,144.0056911059171,
positions.xlsx,positions_test.xlsx,positions_test_new.xlsx,stimuli.xlsx,stimuli_new.xlsx,stimuli/Social3.png,stimuli/Social4.png,stimuli/Nonsocial3.png,stimuli/Nonsocial4.png,stimuli/Social1.png,stimuli/Social2.png,stimuli/Nonsocial1.png,stimuli/Nonsocial2.png,,,"(-0.7, -0.5)",cs_neg_ns,"(-0.7, 0.5)",cs_pos_ns,"(0.7, -0.5)",cs_neg_s,"(0.7, 0.5)",cs_pos_s,0,0,0,0,,,,,,,,,,,,,,,,,,,,,0,9,9,17,,,,,,,,,,,,,,,,,,,,,,,,,,,84,loss,,,,,,994.8456662000008,994.8456662000008,994.8456662000008,994.8456662000008,0,,,0,,,1,0.2670842999996239,0.27406689999952505,1,0.02989479999996547,0.2604166000000987,995.1164926000001,995.1164926000001,995.1164926000001,995.1164926000001,34,C,2024-05-15_11h18.59.911,attentional_competition_task,2022.2.4,144.0056911059171,
positions.xlsx,positions_test.xlsx,positions_test_new.xlsx,stimuli.xlsx,stimuli_new.xlsx,stimuli/Social3.png,stimuli/Social4.png,stimuli/Nonsocial3.png,stimuli/Nonsocial4.png,stimuli/Social1.png,stimuli/Social2.png,stimuli/Nonsocial1.png,stimuli/Nonsocial2.png,,,"(-0.7, -0.5)",cs_neg_ns,"(-0.7, 0.5)",cs_neg_s,"(0.7, -0.5)",cs_pos_ns,"(0.7, 0.5)",cs_pos_s,0,0,0,0,,,,,,,,,,,,,,,,,,,,,0,10,10,15,,,,,,,,,,,,,,,,,,,,,,,,,,,93,reward,,,,,,1003.2064186999996,1003.2064186999996,1003.2064186999996,1003.2064186999996,0,,,0,,,1,0.03017079999881389,0.23138529999960156,0,,,1003.9356103999999,1003.9356103999999,1003.9356103999999,1003.9356103999999,34,C,2024-05-15_11h18.59.911,attentional_competition_task,2022.2.4,144.0056911059171,
positions.xlsx,positions_test.xlsx,positions_test_new.xlsx,stimuli.xlsx,stimuli_new.xlsx,stimuli/Social3.png,stimuli/Social4.png,stimuli/Nonsocial3.png,stimuli/Nonsocial4.png,stimuli/Social1.png,stimuli/Social2.png,stimuli/Nonsocial1.png,stimuli/Nonsocial2.png,,,"(-0.7, -0.5)",cs_neg_s,"(-0.7, 0.5)",cs_pos_ns,"(0.7, -0.5)",cs_neg_ns,"(0.7, 0.5)",cs_pos_s,0,0,0,0,,,,,,,,,,,,,,,,,,,,,0,11,11,5,,,,,,,,,,,,,,,,,,,,,,,,,,,102,reward,,,,,,1011.9422172000013,1011.9422172000013,1011.9422172000013,1011.9422172000013,0,,,0,,,0,,,0,,,1012.8380384000011,1012.8380384000011,1012.8380384000011,1012.8380384000011,34,C,2024-05-15_11h18.59.911,attentional_competition_task,2022.2.4,144.0056911059171,
positions.xlsx,positions_test.xlsx,positions_test_new.xlsx,stimuli.xlsx,stimuli_new.xlsx,stimuli/Social3.png,stimuli/Social4.png,stimuli/Nonsocial3.png,stimuli/Nonsocial4.png,stimuli/Social1.png,stimuli/Social2.png,stimuli/Nonsocial1.png,stimuli/Nonsocial2.png,,,"(-0.7, -0.5)",cs_pos_ns,"(-0.7, 0.5)",cs_neg_ns,"(0.7, -0.5)",cs_pos_s,"(0.7, 0.5)",cs_neg_s,0,0,0,0,,,,,,,,,,,,,,,,,,,,,0,12,12,20,,,,,,,,,,,,,,,,,,,,,,,,,,,111,reward,,,,,,1020.4765900000002,1020.4765900000002,1020.4765900000002,1020.4765900000002,1,0.11316169999918202,0.1189713000003394,0,,,0,,,0,,,1021.3654779000008,1021.3654779000008,1021.3654779000008,1021.3654779000008,34,C,2024-05-15_11h18.59.911,attentional_competition_task,2022.2.4,144.0056911059171,
positions.xlsx,positions_test.xlsx,positions_test_new.xlsx,stimuli.xlsx,stimuli_new.xlsx,stimuli/Social3.png,stimuli/Social4.png,stimuli/Nonsocial3.png,stimuli/Nonsocial4.png,stimuli/Social1.png,stimuli/Social2.png,stimuli/Nonsocial1.png,stimuli/Nonsocial2.png,,,"(-0.7, -0.5)",cs_pos_ns,"(-0.7, 0.5)",cs_neg_ns,"(0.7, -0.5)",cs_neg_s,"(0.7, 0.5)",cs_pos_s,0,0,0,0,,,,,,,,,,,,,,,,,,,,,0,13,13,21,,,,,,,,,,,,,,,,,,,,,,,,,,,114,loss,,,,,,1028.511010600001,1028.511010600001,1028.511010600001,1028.511010600001,0,,,0,,,1,0.32884220000050846,0.3288462000000436,0,,,1028.8443005000008,1028.8443005000008,1028.8443005000008,1028.8443005000008,34,C,2024-05-15_11h18.59.911,attentional_competition_task,2022.2.4,144.0056911059171,
positions.xlsx,positions_test.xlsx,positions_test_new.xlsx,stimuli.xlsx,stimuli_new.xlsx,stimuli/Social3.png,stimuli/Social4.png,stimuli/Nonsocial3.png,stimuli/Nonsocial4.png,stimuli/Social1.png,stimuli/Social2.png,stimuli/Nonsocial1.png,stimuli/Nonsocial2.png,,,"(-0.7, -0.5)",cs_pos_ns,"(-0.7, 0.5)",cs_pos_s,"(0.7, -0.5)",cs_neg_s,"(0.7, 0.5)",cs_neg_ns,0,0,0,0,,,,,,,,,,,,,,,,,,,,,0,14,14,19,,,,,,,,,,,,,,,,,,,,,,,,,,,123,reward,,,,,,1036.3440250000003,1036.3440250000003,1036.3440250000003,1036.3440250000003,0,,,0,,,0,,,0,,,1037.2676026999998,1037.2676026999998,1037.2676026999998,1037.2676026999998,34,C,2024-05-15_11h18.59.911,attentional_competition_task,2022.2.4,144.0056911059171,
positions.xlsx,positions_test.xlsx,positions_test_new.xlsx,stimuli.xlsx,stimuli_new.xlsx,stimuli/Social3.png,stimuli/Social4.png,stimuli/Nonsocial3.png,stimuli/Nonsocial4.png,stimuli/Social1.png,stimuli/Social2.png,stimuli/Nonsocial1.png,stimuli/Nonsocial2.png,,,"(-0.7, -0.5)",cs_neg_s,"(-0.7, 0.5)",cs_pos_s,"(0.7, -0.5)",cs_pos_ns,"(0.7, 0.5)",cs_neg_ns,0,0,0,0,,,,,,,,,,,,,,,,,,,,,0,15,15,1,,,,,,,,,,,,,,,,,,,,,,,,,,,126,reward,,,,,,1045.051983700001,1045.051983700001,1045.051983700001,1045.051983700001,0,,,0,,,1,0.02321259999916947,0.023216800000227522,0,,,1045.051983700001,1045.051983700001,1045.051983700001,1045.051983700001,34,C,2024-05-15_11h18.59.911,attentional_competition_task,2022.2.4,144.0056911059171,
positions.xlsx,positions_test.xlsx,positions_test_new.xlsx,stimuli.xlsx,stimuli_new.xlsx,stimuli/Social3.png,stimuli/Social4.png,stimuli/Nonsocial3.png,stimuli/Nonsocial4.png,stimuli/Social1.png,stimuli/Social2.png,stimuli/Nonsocial1.png,stimuli/Nonsocial2.png,,,"(-0.7, -0.5)",cs_pos_s,"(-0.7, 0.5)",cs_neg_ns,"(0.7, -0.5)",cs_pos_ns,"(0.7, 0.5)",cs_neg_s,0,0,0,0,,,,,,,,,,,,,,,,,,,,,0,16,16,9,,,,,,,,,,,,,,,,,,,,,,,,,,,135,reward,,,,,,1053.2808581999998,1053.2808581999998,1053.2808581999998,1053.2808581999998,0,,,0,,,1,0.035391100000197184,0.3634726000000228,0,,,1054.135009900001,1054.135009900001,1054.135009900001,1054.135009900001,34,C,2024-05-15_11h18.59.911,attentional_competition_task,2022.2.4,144.0056911059171,
positions.xlsx,positions_test.xlsx,positions_test_new.xlsx,stimuli.xlsx,stimuli_new.xlsx,stimuli/Social3.png,stimuli/Social4.png,stimuli/Nonsocial3.png,stimuli/Nonsocial4.png,stimuli/Social1.png,stimuli/Social2.png,stimuli/Nonsocial1.png,stimuli/Nonsocial2.png,,,"(-0.7, -0.5)",cs_neg_s,"(-0.7, 0.5)",cs_pos_ns,"(0.7, -0.5)",cs_pos_s,"(0.7, 0.5)",cs_neg_ns,0,0,0,0,,,,,,,,,,,,,,,,,,,,,0,17,17,4,,,,,,,,,,,,,,,,,,,,,,,,,,,144,reward,,,,,,1062.6485389999998,1062.6485389999998,1062.6485389999998,1062.6485389999998,0,,,0,,,1,0.029085599999234546,0.19037359999856562,0,,,1063.3429410999997,1063.3429410999997,1063.3429410999997,1063.3429410999997,34,C,2024-05-15_11h18.59.911,attentional_competition_task,2022.2.4,144.0056911059171,
positions.xlsx,positions_test.xlsx,positions_test_new.xlsx,stimuli.xlsx,stimuli_new.xlsx,stimuli/Social3.png,stimuli/Social4.png,stimuli/Nonsocial3.png,stimuli/Nonsocial4.png,stimuli/Social1.png,stimuli/Social2.png,stimuli/Nonsocial1.png,stimuli/Nonsocial2.png,,,"(-0.7, -0.5)",cs_pos_ns,"(-0.7, 0.5)",cs_neg_s,"(0.7, -0.5)",cs_pos_s,"(0.7, 0.5)",cs_neg_ns,0,0,0,0,,,,,,,,,,,,,,,,,,,,,0,18,18,22,,,,,,,,,,,,,,,,,,,,,,,,,,,153,reward,,,,,,1070.2801765000004,1070.2801765000004,1070.2801765000004,1070.2801765000004,0,,,0,,,0,,,0,,,1071.0718159000007,1071.0718159000007,1071.0718159000007,1071.0718159000007,34,C,2024-05-15_11h18.59.911,attentional_competition_task,2022.2.4,144.0056911059171,
positions.xlsx,positions_test.xlsx,positions_test_new.xlsx,stimuli.xlsx,stimuli_new.xlsx,stimuli/Social3.png,stimuli/Social4.png,stimuli/Nonsocial3.png,stimuli/Nonsocial4.png,stimuli/Social1.png,stimuli/Social2.png,stimuli/Nonsocial1.png,stimuli/Nonsocial2.png,,,"(-0.7, -0.5)",cs_pos_s,"(-0.7, 0.5)",cs_neg_s,"(0.7, -0.5)",cs_pos_ns,"(0.7, 0.5)",cs_neg_ns,0,0,0,0,,,,,,,,,,,,,,,,,,,,,0,19,19,7,,,,,,,,,,,,,,,,,,,,,,,,,,,162,reward,,,,,,1077.8562319000011,1077.8562319000011,1077.8562319000011,1077.8562319000011,0,,,0,,,0,,,0,,,1078.7937278000009,1078.7937278000009,1078.7937278000009,1078.7937278000009,34,C,2024-05-15_11h18.59.911,attentional_competition_task,2022.2.4,144.0056911059171,
positions.xlsx,positions_test.xlsx,positions_test_new.xlsx,stimuli.xlsx,stimuli_new.xlsx,stimuli/Social3.png,stimuli/Social4.png,stimuli/Nonsocial3.png,stimuli/Nonsocial4.png,stimuli/Social1.png,stimuli/Social2.png,stimuli/Nonsocial1.png,stimuli/Nonsocial2.png,,,"(-0.7, -0.5)",cs_neg_s,"(-0.7, 0.5)",cs_neg_ns,"(0.7, -0.5)",cs_pos_ns,"(0.7, 0.5)",cs_pos_s,0,0,0,0,,,,,,,,,,,,,,,,,,,,,0,20,20,3,,,,,,,,,,,,,,,,,,,,,,,,,,,171,reward,,,,,,1086.8767351999995,1086.8767351999995,1086.8767351999995,1086.8767351999995,0,,,0,,,0,,,0,,,1087.710038700001,1087.710038700001,1087.710038700001,1087.710038700001,34,C,2024-05-15_11h18.59.911,attentional_competition_task,2022.2.4,144.0056911059171,
positions.xlsx,positions_test.xlsx,positions_test_new.xlsx,stimuli.xlsx,stimuli_new.xlsx,stimuli/Social3.png,stimuli/Social4.png,stimuli/Nonsocial3.png,stimuli/Nonsocial4.png,stimuli/Social1.png,stimuli/Social2.png,stimuli/Nonsocial1.png,stimuli/Nonsocial2.png,,,"(-0.7, -0.5)",cs_neg_s,"(-0.7, 0.5)",cs_neg_ns,"(0.7, -0.5)",cs_pos_s,"(0.7, 0.5)",cs_pos_ns,0,0,0,0,,,,,,,,,,,,,,,,,,,,,0,21,21,2,,,,,,,,,,,,,,,,,,,,,,,,,,,180,reward,,,,,,1094.7861479000003,1094.7861479000003,1094.7861479000003,1094.7861479000003,0,,,0,,,0,,,0,,,1095.7444401000012,1095.7444401000012,1095.7444401000012,1095.7444401000012,34,C,2024-05-15_11h18.59.911,attentional_competition_task,2022.2.4,144.0056911059171,
positions.xlsx,positions_test.xlsx,positions_test_new.xlsx,stimuli.xlsx,stimuli_new.xlsx,stimuli/Social3.png,stimuli/Social4.png,stimuli/Nonsocial3.png,stimuli/Nonsocial4.png,stimuli/Social1.png,stimuli/Social2.png,stimuli/Nonsocial1.png,stimuli/Nonsocial2.png,,,"(-0.7, -0.5)",cs_pos_ns,"(-0.7, 0.5)",cs_neg_s,"(0.7, -0.5)",cs_neg_ns,"(0.7, 0.5)",cs_pos_s,0,0,0,0,,,,,,,,,,,,,,,,,,,,,0,22,22,23,,,,,,,,,,,,,,,,,,,,,,,,,,,183,reward,,,,,,1103.6468937999998,1103.6468937999998,1103.6468937999998,1103.6468937999998,0,,,0,,,0,,,1,0.025018899999849964,0.025022800000442658,1103.6468937999998,1103.6468937999998,1103.6468937999998,1103.6468937999998,34,C,2024-05-15_11h18.59.911,attentional_competition_task,2022.2.4,144.0056911059171,
positions.xlsx,positions_test.xlsx,positions_test_new.xlsx,stimuli.xlsx,stimuli_new.xlsx,stimuli/Social3.png,stimuli/Social4.png,stimuli/Nonsocial3.png,stimuli/Nonsocial4.png,stimuli/Social1.png,stimuli/Social2.png,stimuli/Nonsocial1.png,stimuli/Nonsocial2.png,,,"(-0.7, -0.5)",cs_pos_s,"(-0.7, 0.5)",cs_neg_s,"(0.7, -0.5)",cs_neg_ns,"(0.7, 0.5)",cs_pos_ns,0,0,0,0,,,,,,,,,,,,,,,,,,,,,0,23,23,6,,,,,,,,,,,,,,,,,,,,,,,,,,,186,reward,,,,,,1111.1326808000013,1111.1326808000013,1111.1326808000013,1111.1326808000013,0,,,0,,,0,,,1,0.030303399998956593,0.030307199998787837,1111.1326808000013,1111.1326808000013,1111.1326808000013,1111.1326808000013,34,C,2024-05-15_11h18.59.911,attentional_competition_task,2022.2.4,144.0056911059171,
positions.xlsx,positions_test.xlsx,positions_test_new.xlsx,stimuli.xlsx,stimuli_new.xlsx,stimuli/Social3.png,stimuli/Social4.png,stimuli/Nonsocial3.png,stimuli/Nonsocial4.png,stimuli/Social1.png,stimuli/Social2.png,stimuli/Nonsocial1.png,stimuli/Nonsocial2.png,,,"(-0.7, -0.5)",cs_neg_ns,"(-0.7, 0.5)",cs_neg_s,"(0.7, -0.5)",cs_pos_ns,"(0.7, 0.5)",cs_pos_s,0,0,0,0,,,,,,,,,,,,,,,,,,,,,1,0,24,15,,,,,,,,,,,,,,,,,,,,,,,,,,,195,reward,,,,,,1120.1879081999996,1120.1879081999996,1120.1879081999996,1120.1879081999996,0,,,0,,,0,,,0,,,1121.0906535000013,1121.0906535000013,1121.0906535000013,1121.0906535000013,34,C,2024-05-15_11h18.59.911,attentional_competition_task,2022.2.4,144.0056911059171,
positions.xlsx,positions_test.xlsx,positions_test_new.xlsx,stimuli.xlsx,stimuli_new.xlsx,stimuli/Social3.png,stimuli/Social4.png,stimuli/Nonsocial3.png,stimuli/Nonsocial4.png,stimuli/Social1.png,stimuli/Social2.png,stimuli/Nonsocial1.png,stimuli/Nonsocial2.png,,,"(-0.7, -0.5)",cs_neg_s,"(-0.7, 0.5)",cs_pos_ns,"(0.7, -0.5)",cs_neg_ns,"(0.7, 0.5)",cs_pos_s,0,0,0,0,,,,,,,,,,,,,,,,,,,,,1,1,25,5,,,,,,,,,,,,,,,,,,,,,,,,,,,204,reward,,,,,,1129.3958753000006,1129.3958753000006,1129.3958753000006,1129.3958753000006,0,,,0,,,0,,,0,,,1130.2291971000013,1130.2291971000013,1130.2291971000013,1130.2291971000013,34,C,2024-05-15_11h18.59.911,attentional_competition_task,2022.2.4,144.0056911059171,
positions.xlsx,positions_test.xlsx,positions_test_new.xlsx,stimuli.xlsx,stimuli_new.xlsx,stimuli/Social3.png,stimuli/Social4.png,stimuli/Nonsocial3.png,stimuli/Nonsocial4.png,stimuli/Social1.png,stimuli/Social2.png,stimuli/Nonsocial1.png,stimuli/Nonsocial2.png,,,"(-0.7, -0.5)",cs_pos_ns,"(-0.7, 0.5)",cs_pos_s,"(0.7, -0.5)",cs_neg_ns,"(0.7, 0.5)",cs_neg_s,0,0,0,0,,,,,,,,,,,,,,,,,,,,,1,2,26,18,,,,,,,,,,,,,,,,,,,,,,,,,,,213,reward,,,,,,1137.7358366000008,1137.7358366000008,1137.7358366000008,1137.7358366000008,0,,,1,0.02372579999973823,0.29520059999958903,0,,,0,,,1138.5343954,1138.5343954,1138.5343954,1138.5343954,34,C,2024-05-15_11h18.59.911,attentional_competition_task,2022.2.4,144.0056911059171,
positions.xlsx,positions_test.xlsx,positions_test_new.xlsx,stimuli.xlsx,stimuli_new.xlsx,stimuli/Social3.png,stimuli/Social4.png,stimuli/Nonsocial3.png,stimuli/Nonsocial4.png,stimuli/Social1.png,stimuli/Social2.png,stimuli/Nonsocial1.png,stimuli/Nonsocial2.png,,,"(-0.7, -0.5)",cs_neg_s,"(-0.7, 0.5)",cs_pos_s,"(0.7, -0.5)",cs_neg_ns,"(0.7, 0.5)",cs_pos_ns,0,0,0,0,,,,,,,,,,,,,,,,,,,,,1,3,27,0,,,,,,,,,,,,,,,,,,,,,,,,,,,222,reward,,,,,,1146.3813483000013,1146.3813483000013,1146.3813483000013,1146.3813483000013,0,,,0,,,0,,,1,0.0296290999995108,0.41897050000079616,1147.2980126000002,1147.2980126000002,1147.2980126000002,1147.2980126000002,34,C,2024-05-15_11h18.59.911,attentional_competition_task,2022.2.4,144.0056911059171,
positions.xlsx,positions_test.xlsx,positions_test_new.xlsx,stimuli.xlsx,stimuli_new.xlsx,stimuli/Social3.png,stimuli/Social4.png,stimuli/Nonsocial3.png,stimuli/Nonsocial4.png,stimuli/Social1.png,stimuli/Social2.png,stimuli/Nonsocial1.png,stimuli/Nonsocial2.png,,,"(-0.7, -0.5)",cs_neg_ns,"(-0.7, 0.5)",cs_pos_s,"(0.7, -0.5)",cs_pos_ns,"(0.7, 0.5)",cs_neg_s,0,0,0,0,,,,,,,,,,,,,,,,,,,,,1,4,28,13,,,,,,,,,,,,,,,,,,,,,,,,,,,225,reward,,,,,,1154.117110000001,1154.117110000001,1154.117110000001,1154.117110000001,0,,,0,,,1,0.027551899998798035,0.02755570000044827,0,,,1154.117110000001,1154.117110000001,1154.117110000001,1154.117110000001,34,C,2024-05-15_11h18.59.911,attentional_competition_task,2022.2.4,144.0056911059171,
positions.xlsx,positions_test.xlsx,positions_test_new.xlsx,stimuli.xlsx,stimuli_new.xlsx,stimuli/Social3.png,stimuli/Social4.png,stimuli/Nonsocial3.png,stimuli/Nonsocial4.png,stimuli/Social1.png,stimuli/Social2.png,stimuli/Nonsocial1.png,stimuli/Nonsocial2.png,,,"(-0.7, -0.5)",cs_pos_s,"(-0.7, 0.5)",cs_neg_ns,"(0.7, -0.5)",cs_neg_s,"(0.7, 0.5)",cs_pos_ns,0,0,0,0,,,,,,,,,,,,,,,,,,,,,1,5,29,8,,,,,,,,,,,,,,,,,,,,,,,,,,,228,reward,,,,,,1162.3320455000012,1162.3320455000012,1162.3320455000012,1162.3320455000012,1,0.08092090000172902,0.0878658000001451,0,,,0,,,0,,,1162.4292692,1162.4292692,1162.4292692,1162.4292692,34,C,2024-05-15_11h18.59.911,attentional_competition_task,2022.2.4,144.0056911059171,
positions.xlsx,positions_test.xlsx,positions_test_new.xlsx,stimuli.xlsx,stimuli_new.xlsx,stimuli/Social3.png,stimuli/Social4.png,stimuli/Nonsocial3.png,stimuli/Nonsocial4.png,stimuli/Social1.png,stimuli/Social2.png,stimuli/Nonsocial1.png,stimuli/Nonsocial2.png,,,"(-0.7, -0.5)",cs_pos_ns,"(-0.7, 0.5)",cs_pos_s,"(0.7, -0.5)",cs_neg_s,"(0.7, 0.5)",cs_neg_ns,0,0,0,0,,,,,,,,,,,,,,,,,,,,,1,6,30,19,,,,,,,,,,,,,,,,,,,,,,,,,,,237,reward,,,,,,1170.6858849,1170.6858849,1170.6858849,1170.6858849,1,0.20427920000111044,0.6838839000010921,0,,,0,,,0,,,1171.8733252000002,1171.8733252000002,1171.8733252000002,1171.8733252000002,34,C,2024-05-15_11h18.59.911,attentional_competition_task,2022.2.4,144.0056911059171,
positions.xlsx,positions_test.xlsx,positions_test_new.xlsx,stimuli.xlsx,stimuli_new.xlsx,stimuli/Social3.png,stimuli/Social4.png,stimuli/Nonsocial3.png,stimuli/Nonsocial4.png,stimuli/Social1.png,stimuli/Social2.png,stimuli/Nonsocial1.png,stimuli/Nonsocial2.png,,,"(-0.7, -0.5)",cs_neg_s,"(-0.7, 0.5)",cs_pos_ns,"(0.7, -0.5)",cs_pos_s,"(0.7, 0.5)",cs_neg_ns,0,0,0,0,,,,,,,,,,,,,,,,,,,,,1,7,31,4,,,,,,,,,,,,,,,,,,,,,,,,,,,246,reward,,,,,,1178.9285951000002,1178.9285951000002,1178.9285951000002,1178.9285951000002,0,,,0,,,1,0.022536700000273413,0.27412419999927806,0,,,1179.9980448000006,1179.9980448000006,1179.9980448000006,1179.9980448000006,34,C,2024-05-15_11h18.59.911,attentional_competition_task,2022.2.4,144.0056911059171,
positions.xlsx,positions_test.xlsx,positions_test_new.xlsx,stimuli.xlsx,stimuli_new.xlsx,stimuli/Social3.png,stimuli/Social4.png,stimuli/Nonsocial3.png,stimuli/Nonsocial4.png,stimuli/Social1.png,stimuli/Social2.png,stimuli/Nonsocial1.png,stimuli/Nonsocial2.png,,,"(-0.7, -0.5)",cs_pos_ns,"(-0.7, 0.5)",cs_neg_ns,"(0.7, -0.5)",cs_neg_s,"(0.7, 0.5)",cs_pos_s,0,0,0,0,,,,,,,,,,,,,,,,,,,,,1,8,32,21,,,,,,,,,,,,,,,,,,,,,,,,,,,255,reward,,,,,,1187.7546285000008,1187.7546285000008,1187.7546285000008,1187.7546285000008,0,,,0,,,0,,,1,0.025148799999442417,0.3738515000004554,1188.6296359999997,1188.6296359999997,1188.6296359999997,1188.6296359999997,34,C,2024-05-15_11h18.59.911,attentional_competition_task,2022.2.4,144.0056911059171,
positions.xlsx,positions_test.xlsx,positions_test_new.xlsx,stimuli.xlsx,stimuli_new.xlsx,stimuli/Social3.png,stimuli/Social4.png,stimuli/Nonsocial3.png,stimuli/Nonsocial4.png,stimuli/Social1.png,stimuli/Social2.png,stimuli/Nonsocial1.png,stimuli/Nonsocial2.png,,,"(-0.7, -0.5)",cs_neg_ns,"(-0.7, 0.5)",cs_pos_ns,"(0.7, -0.5)",cs_pos_s,"(0.7, 0.5)",cs_neg_s,0,0,0,0,,,,,,,,,,,,,,,,,,,,,1,9,33,16,,,,,,,,,,,,,,,,,,,,,,,,,,,264,reward,,,,,,1196.601497900001,1196.601497900001,1196.601497900001,1196.601497900001,0,,,0,,,1,0.031170800000836607,0.2741072000007989,0,,,1197.3931603,1197.3931603,1197.3931603,1197.3931603,34,C,2024-05-15_11h18.59.911,attentional_competition_task,2022.2.4,144.0056911059171,
positions.xlsx,positions_test.xlsx,positions_test_new.xlsx,stimuli.xlsx,stimuli_new.xlsx,stimuli/Social3.png,stimuli/Social4.png,stimuli/Nonsocial3.png,stimuli/Nonsocial4.png,stimuli/Social1.png,stimuli/Social2.png,stimuli/Nonsocial1.png,stimuli/Nonsocial2.png,,,"(-0.7, -0.5)",cs_pos_s,"(-0.7, 0.5)",cs_neg_ns,"(0.7, -0.5)",cs_pos_ns,"(0.7, 0.5)",cs_neg_s,0,0,0,0,,,,,,,,,,,,,,,,,,,,,1,10,34,9,,,,,,,,,,,,,,,,,,,,,,,,,,,273,reward,,,,,,1204.9970052000008,1204.9970052000008,1204.9970052000008,1204.9970052000008,1,0.02392659999895841,0.2811564999992697,0,,,0,,,0,,,1205.7956003,1205.7956003,1205.7956003,1205.7956003,34,C,2024-05-15_11h18.59.911,attentional_competition_task,2022.2.4,144.0056911059171,
positions.xlsx,positions_test.xlsx,positions_test_new.xlsx,stimuli.xlsx,stimuli_new.xlsx,stimuli/Social3.png,stimuli/Social4.png,stimuli/Nonsocial3.png,stimuli/Nonsocial4.png,stimuli/Social1.png,stimuli/Social2.png,stimuli/Nonsocial1.png,stimuli/Nonsocial2.png,,,"(-0.7, -0.5)",cs_pos_ns,"(-0.7, 0.5)",cs_neg_ns,"(0.7, -0.5)",cs_pos_s,"(0.7, 0.5)",cs_neg_s,0,0,0,0,,,,,,,,,,,,,,,,,,,,,1,11,35,20,,,,,,,,,,,,,,,,,,,,,,,,,,,282,reward,,,,,,1213.0522172,1213.0522172,1213.0522172,1213.0522172,0,,,0,,,1,0.024774600000455393,0.05352339999990363,0,,,1214.038361500001,1214.038361500001,1214.038361500001,1214.038361500001,34,C,2024-05-15_11h18.59.911,attentional_competition_task,2022.2.4,144.0056911059171,
positions.xlsx,positions_test.xlsx,positions_test_new.xlsx,stimuli.xlsx,stimuli_new.xlsx,stimuli/Social3.png,stimuli/Social4.png,stimuli/Nonsocial3.png,stimuli/Nonsocial4.png,stimuli/Social1.png,stimuli/Social2.png,stimuli/Nonsocial1.png,stimuli/Nonsocial2.png,,,"(-0.7, -0.5)",cs_pos_ns,"(-0.7, 0.5)",cs_neg_s,"(0.7, -0.5)",cs_pos_s,"(0.7, 0.5)",cs_neg_ns,0,0,0,0,,,,,,,,,,,,,,,,,,,,,1,12,36,22,,,,,,,,,,,,,,,,,,,,,,,,,,,291,reward,,,,,,1221.8227760000009,1221.8227760000009,1221.8227760000009,1221.8227760000009,0,,,0,,,0,,,0,,,1222.8018673999995,1222.8018673999995,1222.8018673999995,1222.8018673999995,34,C,2024-05-15_11h18.59.911,attentional_competition_task,2022.2.4,144.0056911059171,
positions.xlsx,positions_test.xlsx,positions_test_new.xlsx,stimuli.xlsx,stimuli_new.xlsx,stimuli/Social3.png,stimuli/Social4.png,stimuli/Nonsocial3.png,stimuli/Nonsocial4.png,stimuli/Social1.png,stimuli/Social2.png,stimuli/Nonsocial1.png,stimuli/Nonsocial2.png,,,"(-0.7, -0.5)",cs_neg_s,"(-0.7, 0.5)",cs_neg_ns,"(0.7, -0.5)",cs_pos_ns,"(0.7, 0.5)",cs_pos_s,0,0,0,0,,,,,,,,,,,,,,,,,,,,,1,13,37,3,,,,,,,,,,,,,,,,,,,,,,,,,,,300,reward,,,,,,1230.0237577999997,1230.0237577999997,1230.0237577999997,1230.0237577999997,0,,,0,,,0,,,1,0.024091399998724228,0.03910170000017388,1230.8918586,1230.8918586,1230.8918586,1230.8918586,34,C,2024-05-15_11h18.59.911,attentional_competition_task,2022.2.4,144.0056911059171,
positions.xlsx,positions_test.xlsx,positions_test_new.xlsx,stimuli.xlsx,stimuli_new.xlsx,stimuli/Social3.png,stimuli/Social4.png,stimuli/Nonsocial3.png,stimuli/Nonsocial4.png,stimuli/Social1.png,stimuli/Social2.png,stimuli/Nonsocial1.png,stimuli/Nonsocial2.png,,,"(-0.7, -0.5)",cs_pos_s,"(-0.7, 0.5)",cs_neg_s,"(0.7, -0.5)",cs_pos_ns,"(0.7, 0.5)",cs_neg_ns,0,0,0,0,,,,,,,,,,,,,,,,,,,,,1,14,38,7,,,,,,,,,,,,,,,,,,,,,,,,,,,309,reward,,,,,,1237.822079900001,1237.822079900001,1237.822079900001,1237.822079900001,0,,,0,,,0,,,0,,,1238.7456810000003,1238.7456810000003,1238.7456810000003,1238.7456810000003,34,C,2024-05-15_11h18.59.911,attentional_competition_task,2022.2.4,144.0056911059171,
positions.xlsx,positions_test.xlsx,positions_test_new.xlsx,stimuli.xlsx,stimuli_new.xlsx,stimuli/Social3.png,stimuli/Social4.png,stimuli/Nonsocial3.png,stimuli/Nonsocial4.png,stimuli/Social1.png,stimuli/Social2.png,stimuli/Nonsocial1.png,stimuli/Nonsocial2.png,,,"(-0.7, -0.5)",cs_pos_ns,"(-0.7, 0.5)",cs_neg_s,"(0.7, -0.5)",cs_neg_ns,"(0.7, 0.5)",cs_pos_s,0,0,0,0,,,,,,,,,,,,,,,,,,,,,1,15,39,23,,,,,,,,,,,,,,,,,,,,,,,,,,,318,reward,,,,,,1246.932853100001,1246.932853100001,1246.932853100001,1246.932853100001,0,,,0,,,0,,,1,0.02602599999954691,0.06026489999931073,1247.7939251000007,1247.7939251000007,1247.7939251000007,1247.7939251000007,34,C,2024-05-15_11h18.59.911,attentional_competition_task,2022.2.4,144.0056911059171,
positions.xlsx,positions_test.xlsx,positions_test_new.xlsx,stimuli.xlsx,stimuli_new.xlsx,stimuli/Social3.png,stimuli/Social4.png,stimuli/Nonsocial3.png,stimuli/Nonsocial4.png,stimuli/Social1.png,stimuli/Social2.png,stimuli/Nonsocial1.png,stimuli/Nonsocial2.png,,,"(-0.7, -0.5)",cs_pos_s,"(-0.7, 0.5)",cs_pos_ns,"(0.7, -0.5)",cs_neg_ns,"(0.7, 0.5)",cs_neg_s,0,0,0,0,,,,,,,,,,,,,,,,,,,,,1,16,40,11,,,,,,,,,,,,,,,,,,,,,,,,,,,327,reward,,,,,,1255.5922435000011,1255.5922435000011,1255.5922435000011,1255.5922435000011,1,0.08767059999991034,0.2606930999991164,1,0.024166799999875366,0.07393169999886595,0,,,0,,,1256.356117700001,1256.356117700001,1256.356117700001,1256.356117700001,34,C,2024-05-15_11h18.59.911,attentional_competition_task,2022.2.4,144.0056911059171,
positions.xlsx,positions_test.xlsx,positions_test_new.xlsx,stimuli.xlsx,stimuli_new.xlsx,stimuli/Social3.png,stimuli/Social4.png,stimuli/Nonsocial3.png,stimuli/Nonsocial4.png,stimuli/Social1.png,stimuli/Social2.png,stimuli/Nonsocial1.png,stimuli/Nonsocial2.png,,,"(-0.7, -0.5)",cs_neg_ns,"(-0.7, 0.5)",cs_pos_ns,"(0.7, -0.5)",cs_neg_s,"(0.7, 0.5)",cs_pos_s,0,0,0,0,,,,,,,,,,,,,,,,,,,,,1,17,41,17,,,,,,,,,,,,,,,,,,,,,,,,,,,330,loss,,,,,,1263.8418902000012,1263.8418902000012,1263.8418902000012,1263.8418902000012,0,,,0,,,1,0.44840389999990293,0.44840759999897273,1,0.026029700000435696,0.4347455999995873,1264.2932801999996,1264.2932801999996,1264.2932801999996,1264.2932801999996,34,C,2024-05-15_11h18.59.911,attentional_competition_task,2022.2.4,144.0056911059171,
positions.xlsx,positions_test.xlsx,positions_test_new.xlsx,stimuli.xlsx,stimuli_new.xlsx,stimuli/Social3.png,stimuli/Social4.png,stimuli/Nonsocial3.png,stimuli/Nonsocial4.png,stimuli/Social1.png,stimuli/Social2.png,stimuli/Nonsocial1.png,stimuli/Nonsocial2.png,,,"(-0.7, -0.5)",cs_neg_ns,"(-0.7, 0.5)",cs_neg_s,"(0.7, -0.5)",cs_pos_s,"(0.7, 0.5)",cs_pos_ns,0,0,0,0,,,,,,,,,,,,,,,,,,,,,1,18,42,14,,,,,,,,,,,,,,,,,,,,,,,,,,,339,reward,,,,,,1272.4110007,1272.4110007,1272.4110007,1272.4110007,0,,,0,,,1,0.029720000000452274,0.42027039999993576,0,,,1273.3276287000008,1273.3276287000008,1273.3276287000008,1273.3276287000008,34,C,2024-05-15_11h18.59.911,attentional_competition_task,2022.2.4,144.0056911059171,
positions.xlsx,positions_test.xlsx,positions_test_new.xlsx,stimuli.xlsx,stimuli_new.xlsx,stimuli/Social3.png,stimuli/Social4.png,stimuli/Nonsocial3.png,stimuli/Nonsocial4.png,stimuli/Social1.png,stimuli/Social2.png,stimuli/Nonsocial1.png,stimuli/Nonsocial2.png,,,"(-0.7, -0.5)",cs_neg_s,"(-0.7, 0.5)",cs_neg_ns,"(0.7, -0.5)",cs_pos_s,"(0.7, 0.5)",cs_pos_ns,0,0,0,0,,,,,,,,,,,,,,,,,,,,,1,19,43,2,,,,,,,,,,,,,,,,,,,,,,,,,,,348,reward,,,,,,1281.5217429000004,1281.5217429000004,1281.5217429000004,1281.5217429000004,0,,,0,,,0,,,0,,,1282.5147816999997,1282.5147816999997,1282.5147816999997,1282.5147816999997,34,C,2024-05-15_11h18.59.911,attentional_competition_task,2022.2.4,144.0056911059171,
positions.xlsx,positions_test.xlsx,positions_test_new.xlsx,stimuli.xlsx,stimuli_new.xlsx,stimuli/Social3.png,stimuli/Social4.png,stimuli/Nonsocial3.png,stimuli/Nonsocial4.png,stimuli/Social1.png,stimuli/Social2.png,stimuli/Nonsocial1.png,stimuli/Nonsocial2.png,,,"(-0.7, -0.5)",cs_pos_s,"(-0.7, 0.5)",cs_neg_s,"(0.7, -0.5)",cs_neg_ns,"(0.7, 0.5)",cs_pos_ns,0,0,0,0,,,,,,,,,,,,,,,,,,,,,1,20,44,6,,,,,,,,,,,,,,,,,,,,,,,,,,,357,reward,,,,,,1289.9380614000002,1289.9380614000002,1289.9380614000002,1289.9380614000002,0,,,0,,,0,,,0,,,1290.7366672000007,1290.7366672000007,1290.7366672000007,1290.7366672000007,34,C,2024-05-15_11h18.59.911,attentional_competition_task,2022.2.4,144.0056911059171,
positions.xlsx,positions_test.xlsx,positions_test_new.xlsx,stimuli.xlsx,stimuli_new.xlsx,stimuli/Social3.png,stimuli/Social4.png,stimuli/Nonsocial3.png,stimuli/Nonsocial4.png,stimuli/Social1.png,stimuli/Social2.png,stimuli/Nonsocial1.png,stimuli/Nonsocial2.png,,,"(-0.7, -0.5)",cs_pos_s,"(-0.7, 0.5)",cs_pos_ns,"(0.7, -0.5)",cs_neg_s,"(0.7, 0.5)",cs_neg_ns,0,0,0,0,,,,,,,,,,,,,,,,,,,,,1,21,45,10,,,,,,,,,,,,,,,,,,,,,,,,,,,366,reward,,,,,,1298.7432812000006,1298.7432812000006,1298.7432812000006,1298.7432812000006,0,,,1,0.023841099999117432,0.5104998999995587,0,,,0,,,1299.757123200001,1299.757123200001,1299.757123200001,1299.757123200001,34,C,2024-05-15_11h18.59.911,attentional_competition_task,2022.2.4,144.0056911059171,
positions.xlsx,positions_test.xlsx,positions_test_new.xlsx,stimuli.xlsx,stimuli_new.xlsx,stimuli/Social3.png,stimuli/Social4.png,stimuli/Nonsocial3.png,stimuli/Nonsocial4.png,stimuli/Social1.png,stimuli/Social2.png,stimuli/Nonsocial1.png,stimuli/Nonsocial2.png,,,"(-0.7, -0.5)",cs_neg_s,"(-0.7, 0.5)",cs_pos_s,"(0.7, -0.5)",cs_pos_ns,"(0.7, 0.5)",cs_neg_ns,0,0,0,0,,,,,,,,,,,,,,,,,,,,,1,22,46,1,,,,,,,,,,,,,,,,,,,,,,,,,,,369,reward,,,,,,1306.7846356999999,1306.7846356999999,1306.7846356999999,1306.7846356999999,0,,,0,,,1,0.028940199999851757,0.02894390000074054,0,,,1306.7846356999999,1306.7846356999999,1306.7846356999999,1306.7846356999999,34,C,2024-05-15_11h18.59.911,attentional_competition_task,2022.2.4,144.0056911059171,
positions.xlsx,positions_test.xlsx,positions_test_new.xlsx,stimuli.xlsx,stimuli_new.xlsx,stimuli/Social3.png,stimuli/Social4.png,stimuli/Nonsocial3.png,stimuli/Nonsocial4.png,stimuli/Social1.png,stimuli/Social2.png,stimuli/Nonsocial1.png,stimuli/Nonsocial2.png,,,"(-0.7, -0.5)",cs_neg_ns,"(-0.7, 0.5)",cs_pos_s,"(0.7, -0.5)",cs_neg_s,"(0.7, 0.5)",cs_pos_ns,0,0,0,0,,,,,,,,,,,,,,,,,,,,,1,23,47,12,,,,,,,,,,,,,,,,,,,,,,,,,,,372,reward,,,,,,1316.103718800001,1316.103718800001,1316.103718800001,1316.103718800001,0,,,0,,,0,,,1,0.026653400000213878,0.02665780000097584,1316.103718800001,1316.103718800001,1316.103718800001,1316.103718800001,34,C,2024-05-15_11h18.59.911,attentional_competition_task,2022.2.4,144.0056911059171,
positions.xlsx,positions_test.xlsx,positions_test_new.xlsx,stimuli.xlsx,stimuli_new.xlsx,stimuli/Social3.png,stimuli/Social4.png,stimuli/Nonsocial3.png,stimuli/Nonsocial4.png,stimuli/Social1.png,stimuli/Social2.png,stimuli/Nonsocial1.png,stimuli/Nonsocial2.png,,,"(-0.7, -0.5)",cs_pos_s,"(-0.7, 0.5)",cs_neg_ns_new,"(0.7, -0.5)",cs_neg_s,"(0.7, 0.5)",cs_pos_ns,0,0,0,0,,,,,,,,,,,,,,,,,,,,,,,,,,,,,0,0,0,20,0,0,0,0,,,,,,,,,,,,,,,375,reward,,,,,,1322.1520328000006,1322.1520328000006,1322.1520328000006,1322.1520328000006,1,0.40439040000092064,0.4113687999997637,0,,,0,,,0,,,1322.5756509000003,1322.5756509000003,1322.5756509000003,1322.5756509000003,34,C,2024-05-15_11h18.59.911,attentional_competition_task,2022.2.4,144.0056911059171,
positions.xlsx,positions_test.xlsx,positions_test_new.xlsx,stimuli.xlsx,stimuli_new.xlsx,stimuli/Social3.png,stimuli/Social4.png,stimuli/Nonsocial3.png,stimuli/Nonsocial4.png,stimuli/Social1.png,stimuli/Social2.png,stimuli/Nonsocial1.png,stimuli/Nonsocial2.png,,,"(-0.7, -0.5)",cs_pos_s,"(-0.7, 0.5)",cs_neg_ns_new,"(0.7, -0.5)",cs_neg_s,"(0.7, 0.5)",cs_pos_ns,0,0,0,0,,,,,,,,,,,,,,,,,,,,,,,,,,,,,0,0,0,20,1,0,1,0,,,,,,,,,,,,,,,378,reward,,,,,,1323.110396600001,1323.110396600001,1323.110396600001,1323.110396600001,0,,,0,,,0,,,1,0.031122700000196346,0.03112680000049295,1323.110396600001,1323.110396600001,1323.110396600001,1323.110396600001,34,C,2024-05-15_11h18.59.911,attentional_competition_task,2022.2.4,144.0056911059171,
positions.xlsx,positions_test.xlsx,positions_test_new.xlsx,stimuli.xlsx,stimuli_new.xlsx,stimuli/Social3.png,stimuli/Social4.png,stimuli/Nonsocial3.png,stimuli/Nonsocial4.png,stimuli/Social1.png,stimuli/Social2.png,stimuli/Nonsocial1.png,stimuli/Nonsocial2.png,,,"(-0.7, -0.5)",cs_pos_s,"(-0.7, 0.5)",cs_neg_ns_new,"(0.7, -0.5)",cs_neg_s,"(0.7, 0.5)",cs_pos_ns,0,0,0,0,,,,,,,,,,,,,,,,,,,,,,,,,,,,,0,0,0,20,2,0,2,0,,,,,,,,,,,,,,,381,reward,,,,,,1323.6033771000002,1323.6033771000002,1323.6033771000002,1323.6033771000002,0,,,0,,,0,,,0,,,1324.6659204000007,1324.6659204000007,1324.6659204000007,1324.6659204000007,34,C,2024-05-15_11h18.59.911,attentional_competition_task,2022.2.4,144.0056911059171,
positions.xlsx,positions_test.xlsx,positions_test_new.xlsx,stimuli.xlsx,stimuli_new.xlsx,stimuli/Social3.png,stimuli/Social4.png,stimuli/Nonsocial3.png,stimuli/Nonsocial4.png,stimuli/Social1.png,stimuli/Social2.png,stimuli/Nonsocial1.png,stimuli/Nonsocial2.png,,,"(-0.7, -0.5)",cs_pos_s,"(-0.7, 0.5)",cs_neg_ns_new,"(0.7, -0.5)",cs_neg_s,"(0.7, 0.5)",cs_pos_ns,0,0,0,0,,,,,,,,,,,,,,,,,,,,,,,,,,,,,0,0,0,20,,,,,,,,,,,,,,,,,,,,,,,,,,,,,,,,,,,,,,,,,,,,,,34,C,2024-05-15_11h18.59.911,attentional_competition_task,2022.2.4,144.0056911059171,
positions.xlsx,positions_test.xlsx,positions_test_new.xlsx,stimuli.xlsx,stimuli_new.xlsx,stimuli/Social3.png,stimuli/Social4.png,stimuli/Nonsocial3.png,stimuli/Nonsocial4.png,stimuli/Social1.png,stimuli/Social2.png,stimuli/Nonsocial1.png,stimuli/Nonsocial2.png,,,"(-0.7, -0.5)",cs_neg_s,"(-0.7, 0.5)",cs_neg_ns,"(0.7, -0.5)",cs_pos_s,"(0.7, 0.5)",cs_pos_ns,0,0,0,0,,,,,,,,,,,,,,,,,,,,,,,,,,,,,0,1,1,3,0,0,0,0,,,,,,,,,,,,,,,384,reward,,,,,,1331.304470000001,1331.304470000001,1331.304470000001,1331.304470000001,0,,,0,,,0,,,0,,,1333.811326500001,1333.811326500001,1333.811326500001,1333.811326500001,34,C,2024-05-15_11h18.59.911,attentional_competition_task,2022.2.4,144.0056911059171,
positions.xlsx,positions_test.xlsx,positions_test_new.xlsx,stimuli.xlsx,stimuli_new.xlsx,stimuli/Social3.png,stimuli/Social4.png,stimuli/Nonsocial3.png,stimuli/Nonsocial4.png,stimuli/Social1.png,stimuli/Social2.png,stimuli/Nonsocial1.png,stimuli/Nonsocial2.png,,,"(-0.7, -0.5)",cs_neg_s,"(-0.7, 0.5)",cs_neg_ns,"(0.7, -0.5)",cs_pos_s,"(0.7, 0.5)",cs_pos_ns,0,0,0,0,,,,,,,,,,,,,,,,,,,,,,,,,,,,,0,1,1,3,,,,,,,,,,,,,,,,,,,,,,,,,,,,,,,,,,,,,,,,,,,,,,34,C,2024-05-15_11h18.59.911,attentional_competition_task,2022.2.4,144.0056911059171,
positions.xlsx,positions_test.xlsx,positions_test_new.xlsx,stimuli.xlsx,stimuli_new.xlsx,stimuli/Social3.png,stimuli/Social4.png,stimuli/Nonsocial3.png,stimuli/Nonsocial4.png,stimuli/Social1.png,stimuli/Social2.png,stimuli/Nonsocial1.png,stimuli/Nonsocial2.png,,,"(-0.7, -0.5)",cs_pos_ns,"(-0.7, 0.5)",cs_neg_ns,"(0.7, -0.5)",cs_pos_s_new,"(0.7, 0.5)",cs_neg_s,0,0,0,0,,,,,,,,,,,,,,,,,,,,,,,,,,,,,0,2,2,34,0,0,0,0,,,,,,,,,,,,,,,387,reward,,,,,,1339.4847848000009,1339.4847848000009,1339.4847848000009,1339.4847848000009,1,0.9392248999993171,0.9392289999996137,0,,,0,,,0,,,1340.4290930000006,1340.4290930000006,1340.4290930000006,1340.4290930000006,34,C,2024-05-15_11h18.59.911,attentional_competition_task,2022.2.4,144.0056911059171,
positions.xlsx,positions_test.xlsx,positions_test_new.xlsx,stimuli.xlsx,stimuli_new.xlsx,stimuli/Social3.png,stimuli/Social4.png,stimuli/Nonsocial3.png,stimuli/Nonsocial4.png,stimuli/Social1.png,stimuli/Social2.png,stimuli/Nonsocial1.png,stimuli/Nonsocial2.png,,,"(-0.7, -0.5)",cs_pos_ns,"(-0.7, 0.5)",cs_neg_ns,"(0.7, -0.5)",cs_pos_s_new,"(0.7, 0.5)",cs_neg_s,0,0,0,0,,,,,,,,,,,,,,,,,,,,,,,,,,,,,0,2,2,34,1,0,1,0,,,,,,,,,,,,,,,384,loss,,,,,,1340.9360312999997,1340.9360312999997,1340.9360312999997,1340.9360312999997,0,,,0,,,0,,,1,0.04552479999983916,0.045528900000135764,1340.9777032000002,1340.9777032000002,1340.9777032000002,1340.9777032000002,34,C,2024-05-15_11h18.59.911,attentional_competition_task,2022.2.4,144.0056911059171,
positions.xlsx,positions_test.xlsx,positions_test_new.xlsx,stimuli.xlsx,stimuli_new.xlsx,stimuli/Social3.png,stimuli/Social4.png,stimuli/Nonsocial3.png,stimuli/Nonsocial4.png,stimuli/Social1.png,stimuli/Social2.png,stimuli/Nonsocial1.png,stimuli/Nonsocial2.png,,,"(-0.7, -0.5)",cs_pos_ns,"(-0.7, 0.5)",cs_neg_ns,"(0.7, -0.5)",cs_pos_s_new,"(0.7, 0.5)",cs_neg_s,0,0,0,0,,,,,,,,,,,,,,,,,,,,,,,,,,,,,0,2,2,34,2,0,2,0,,,,,,,,,,,,,,,387,reward,,,,,,1342.0055016000006,1342.0055016000006,1342.0055016000006,1342.0055016000006,0,,,0,,,1,0.027898500000446802,0.027902300000278046,0,,,1342.0055016000006,1342.0055016000006,1342.0055016000006,1342.0055016000006,34,C,2024-05-15_11h18.59.911,attentional_competition_task,2022.2.4,144.0056911059171,
positions.xlsx,positions_test.xlsx,positions_test_new.xlsx,stimuli.xlsx,stimuli_new.xlsx,stimuli/Social3.png,stimuli/Social4.png,stimuli/Nonsocial3.png,stimuli/Nonsocial4.png,stimuli/Social1.png,stimuli/Social2.png,stimuli/Nonsocial1.png,stimuli/Nonsocial2.png,,,"(-0.7, -0.5)",cs_pos_ns,"(-0.7, 0.5)",cs_neg_ns,"(0.7, -0.5)",cs_pos_s_new,"(0.7, 0.5)",cs_neg_s,0,0,0,0,,,,,,,,,,,,,,,,,,,,,,,,,,,,,0,2,2,34,,,,,,,,,,,,,,,,,,,,,,,,,,,,,,,,,,,,,,,,,,,,,,34,C,2024-05-15_11h18.59.911,attentional_competition_task,2022.2.4,144.0056911059171,
positions.xlsx,positions_test.xlsx,positions_test_new.xlsx,stimuli.xlsx,stimuli_new.xlsx,stimuli/Social3.png,stimuli/Social4.png,stimuli/Nonsocial3.png,stimuli/Nonsocial4.png,stimuli/Social1.png,stimuli/Social2.png,stimuli/Nonsocial1.png,stimuli/Nonsocial2.png,,,"(-0.7, -0.5)",cs_neg_ns,"(-0.7, 0.5)",cs_pos_ns,"(0.7, -0.5)",cs_neg_s,"(0.7, 0.5)",cs_pos_s,0,0,0,0,,,,,,,,,,,,,,,,,,,,,,,,,,,,,0,3,3,0,0,0,0,0,,,,,,,,,,,,,,,384,loss,,,,,,1348.0468583000002,1348.0468583000002,1348.0468583000002,1348.0468583000002,1,0.5364879999997356,0.5435980000002019,0,,,0,,,0,,,1348.6023616000002,1348.6023616000002,1348.6023616000002,1348.6023616000002,34,C,2024-05-15_11h18.59.911,attentional_competition_task,2022.2.4,144.0056911059171,
positions.xlsx,positions_test.xlsx,positions_test_new.xlsx,stimuli.xlsx,stimuli_new.xlsx,stimuli/Social3.png,stimuli/Social4.png,stimuli/Nonsocial3.png,stimuli/Nonsocial4.png,stimuli/Social1.png,stimuli/Social2.png,stimuli/Nonsocial1.png,stimuli/Nonsocial2.png,,,"(-0.7, -0.5)",cs_neg_ns,"(-0.7, 0.5)",cs_pos_ns,"(0.7, -0.5)",cs_neg_s,"(0.7, 0.5)",cs_pos_s,0,0,0,0,,,,,,,,,,,,,,,,,,,,,,,,,,,,,0,3,3,0,1,0,1,0,,,,,,,,,,,,,,,387,reward,,,,,,1349.1301700000004,1349.1301700000004,1349.1301700000004,1349.1301700000004,0,,,1,0.02381479999894509,0.023818399999072426,0,,,0,,,1349.1301700000004,1349.1301700000004,1349.1301700000004,1349.1301700000004,34,C,2024-05-15_11h18.59.911,attentional_competition_task,2022.2.4,144.0056911059171,
positions.xlsx,positions_test.xlsx,positions_test_new.xlsx,stimuli.xlsx,stimuli_new.xlsx,stimuli/Social3.png,stimuli/Social4.png,stimuli/Nonsocial3.png,stimuli/Nonsocial4.png,stimuli/Social1.png,stimuli/Social2.png,stimuli/Nonsocial1.png,stimuli/Nonsocial2.png,,,"(-0.7, -0.5)",cs_neg_ns,"(-0.7, 0.5)",cs_pos_ns,"(0.7, -0.5)",cs_neg_s,"(0.7, 0.5)",cs_pos_s,0,0,0,0,,,,,,,,,,,,,,,,,,,,,,,,,,,,,0,3,3,0,2,0,2,0,,,,,,,,,,,,,,,384,loss,,,,,,1349.6648487000002,1349.6648487000002,1349.6648487000002,1349.6648487000002,0,,,0,,,1,0.030329399998663575,0.03033329999925627,0,,,1349.6648487000002,1349.6648487000002,1349.6648487000002,1349.6648487000002,34,C,2024-05-15_11h18.59.911,attentional_competition_task,2022.2.4,144.0056911059171,
positions.xlsx,positions_test.xlsx,positions_test_new.xlsx,stimuli.xlsx,stimuli_new.xlsx,stimuli/Social3.png,stimuli/Social4.png,stimuli/Nonsocial3.png,stimuli/Nonsocial4.png,stimuli/Social1.png,stimuli/Social2.png,stimuli/Nonsocial1.png,stimuli/Nonsocial2.png,,,"(-0.7, -0.5)",cs_neg_ns,"(-0.7, 0.5)",cs_pos_ns,"(0.7, -0.5)",cs_neg_s,"(0.7, 0.5)",cs_pos_s,0,0,0,0,,,,,,,,,,,,,,,,,,,,,,,,,,,,,0,3,3,0,,,,,,,,,,,,,,,,,,,,,,,,,,,,,,,,,,,,,,,,,,,,,,34,C,2024-05-15_11h18.59.911,attentional_competition_task,2022.2.4,144.0056911059171,
positions.xlsx,positions_test.xlsx,positions_test_new.xlsx,stimuli.xlsx,stimuli_new.xlsx,stimuli/Social3.png,stimuli/Social4.png,stimuli/Nonsocial3.png,stimuli/Nonsocial4.png,stimuli/Social1.png,stimuli/Social2.png,stimuli/Nonsocial1.png,stimuli/Nonsocial2.png,,,"(-0.7, -0.5)",cs_pos_ns,"(-0.7, 0.5)",cs_neg_ns_new,"(0.7, -0.5)",cs_pos_s,"(0.7, 0.5)",cs_neg_s,0,0,0,0,,,,,,,,,,,,,,,,,,,,,,,,,,,,,0,4,4,18,0,0,0,0,,,,,,,,,,,,,,,387,reward,,,,,,1356.3867977999998,1356.3867977999998,1356.3867977999998,1356.3867977999998,1,0.5990208000002895,0.6061518999995315,0,,,0,,,0,,,1356.9978908000012,1356.9978908000012,1356.9978908000012,1356.9978908000012,34,C,2024-05-15_11h18.59.911,attentional_competition_task,2022.2.4,144.0056911059171,
positions.xlsx,positions_test.xlsx,positions_test_new.xlsx,stimuli.xlsx,stimuli_new.xlsx,stimuli/Social3.png,stimuli/Social4.png,stimuli/Nonsocial3.png,stimuli/Nonsocial4.png,stimuli/Social1.png,stimuli/Social2.png,stimuli/Nonsocial1.png,stimuli/Nonsocial2.png,,,"(-0.7, -0.5)",cs_pos_ns,"(-0.7, 0.5)",cs_neg_ns_new,"(0.7, -0.5)",cs_pos_s,"(0.7, 0.5)",cs_neg_s,0,0,0,0,,,,,,,,,,,,,,,,,,,,,,,,,,,,,0,4,4,18,1,0,1,0,,,,,,,,,,,,,,,390,reward,,,,,,1357.5048379,1357.5048379,1357.5048379,1357.5048379,1,0.031246499998815125,0.22434029999931226,0,,,1,0.2808986999989429,0.28729269999894314,0,,,1357.7826280000008,1357.7826280000008,1357.7826280000008,1357.7826280000008,34,C,2024-05-15_11h18.59.911,attentional_competition_task,2022.2.4,144.0056911059171,
positions.xlsx,positions_test.xlsx,positions_test_new.xlsx,stimuli.xlsx,stimuli_new.xlsx,stimuli/Social3.png,stimuli/Social4.png,stimuli/Nonsocial3.png,stimuli/Nonsocial4.png,stimuli/Social1.png,stimuli/Social2.png,stimuli/Nonsocial1.png,stimuli/Nonsocial2.png,,,"(-0.7, -0.5)",cs_pos_ns,"(-0.7, 0.5)",cs_neg_ns_new,"(0.7, -0.5)",cs_pos_s,"(0.7, 0.5)",cs_neg_s,0,0,0,0,,,,,,,,,,,,,,,,,,,,,,,,,,,,,0,4,4,18,2,0,2,0,,,,,,,,,,,,,,,393,reward,,,,,,1358.2895048999999,1358.2895048999999,1358.2895048999999,1358.2895048999999,0,,,0,,,1,0.024672599998666556,0.10754949999864039,0,,,1358.9006031000008,1358.9006031000008,1358.9006031000008,1358.9006031000008,34,C,2024-05-15_11h18.59.911,attentional_competition_task,2022.2.4,144.0056911059171,
positions.xlsx,positions_test.xlsx,positions_test_new.xlsx,stimuli.xlsx,stimuli_new.xlsx,stimuli/Social3.png,stimuli/Social4.png,stimuli/Nonsocial3.png,stimuli/Nonsocial4.png,stimuli/Social1.png,stimuli/Social2.png,stimuli/Nonsocial1.png,stimuli/Nonsocial2.png,,,"(-0.7, -0.5)",cs_pos_ns,"(-0.7, 0.5)",cs_neg_ns_new,"(0.7, -0.5)",cs_pos_s,"(0.7, 0.5)",cs_neg_s,0,0,0,0,,,,,,,,,,,,,,,,,,,,,,,,,,,,,0,4,4,18,,,,,,,,,,,,,,,,,,,,,,,,,,,,,,,,,,,,,,,,,,,,,,34,C,2024-05-15_11h18.59.911,attentional_competition_task,2022.2.4,144.0056911059171,
positions.xlsx,positions_test.xlsx,positions_test_new.xlsx,stimuli.xlsx,stimuli_new.xlsx,stimuli/Social3.png,stimuli/Social4.png,stimuli/Nonsocial3.png,stimuli/Nonsocial4.png,stimuli/Social1.png,stimuli/Social2.png,stimuli/Nonsocial1.png,stimuli/Nonsocial2.png,,,"(-0.7, -0.5)",cs_neg_ns,"(-0.7, 0.5)",cs_neg_s,"(0.7, -0.5)",cs_pos_s,"(0.7, 0.5)",cs_pos_ns_new,0,0,0,0,,,,,,,,,,,,,,,,,,,,,,,,,,,,,0,5,5,41,0,0,0,0,,,,,,,,,,,,,,,390,loss,,,,,,1365.5045221,1365.5045221,1365.5045221,1365.5045221,1,0.9325955000003887,0.932599100000516,0,,,0,,,0,,,1366.4419541999996,1366.4419541999996,1366.4419541999996,1366.4419541999996,34,C,2024-05-15_11h18.59.911,attentional_competition_task,2022.2.4,144.0056911059171,
positions.xlsx,positions_test.xlsx,positions_test_new.xlsx,stimuli.xlsx,stimuli_new.xlsx,stimuli/Social3.png,stimuli/Social4.png,stimuli/Nonsocial3.png,stimuli/Nonsocial4.png,stimuli/Social1.png,stimuli/Social2.png,stimuli/Nonsocial1.png,stimuli/Nonsocial2.png,,,"(-0.7, -0.5)",cs_neg_ns,"(-0.7, 0.5)",cs_neg_s,"(0.7, -0.5)",cs_pos_s,"(0.7, 0.5)",cs_pos_ns_new,0,0,0,0,,,,,,,,,,,,,,,,,,,,,,,,,,,,,0,5,5,41,1,0,1,0,,,,,,,,,,,,,,,387,loss,,,,,,1366.9766990000007,1366.9766990000007,1366.9766990000007,1366.9766990000007,0,,,1,0.02955160000055912,0.029555300001447904,0,,,0,,,1366.9766990000007,1366.9766990000007,1366.9766990000007,1366.9766990000007,34,C,2024-05-15_11h18.59.911,attentional_competition_task,2022.2.4,144.0056911059171,
positions.xlsx,positions_test.xlsx,positions_test_new.xlsx,stimuli.xlsx,stimuli_new.xlsx,stimuli/Social3.png,stimuli/Social4.png,stimuli/Nonsocial3.png,stimuli/Nonsocial4.png,stimuli/Social1.png,stimuli/Social2.png,stimuli/Nonsocial1.png,stimuli/Nonsocial2.png,,,"(-0.7, -0.5)",cs_neg_ns,"(-0.7, 0.5)",cs_neg_s,"(0.7, -0.5)",cs_pos_s,"(0.7, 0.5)",cs_pos_ns_new,0,0,0,0,,,,,,,,,,,,,,,,,,,,,,,,,,,,,0,5,5,41,2,0,2,0,,,,,,,,,,,,,,,390,reward,,,,,,1368.0044045000013,1368.0044045000013,1368.0044045000013,1368.0044045000013,0,,,0,,,1,0.024153099999239203,0.024156800000127987,0,,,1368.0044045000013,1368.0044045000013,1368.0044045000013,1368.0044045000013,34,C,2024-05-15_11h18.59.911,attentional_competition_task,2022.2.4,144.0056911059171,
positions.xlsx,positions_test.xlsx,positions_test_new.xlsx,stimuli.xlsx,stimuli_new.xlsx,stimuli/Social3.png,stimuli/Social4.png,stimuli/Nonsocial3.png,stimuli/Nonsocial4.png,stimuli/Social1.png,stimuli/Social2.png,stimuli/Nonsocial1.png,stimuli/Nonsocial2.png,,,"(-0.7, -0.5)",cs_neg_ns,"(-0.7, 0.5)",cs_neg_s,"(0.7, -0.5)",cs_pos_s,"(0.7, 0.5)",cs_pos_ns_new,0,0,0,0,,,,,,,,,,,,,,,,,,,,,,,,,,,,,0,5,5,41,,,,,,,,,,,,,,,,,,,,,,,,,,,,,,,,,,,,,,,,,,,,,,34,C,2024-05-15_11h18.59.911,attentional_competition_task,2022.2.4,144.0056911059171,
positions.xlsx,positions_test.xlsx,positions_test_new.xlsx,stimuli.xlsx,stimuli_new.xlsx,stimuli/Social3.png,stimuli/Social4.png,stimuli/Nonsocial3.png,stimuli/Nonsocial4.png,stimuli/Social1.png,stimuli/Social2.png,stimuli/Nonsocial1.png,stimuli/Nonsocial2.png,,,"(-0.7, -0.5)",cs_pos_ns,"(-0.7, 0.5)",cs_pos_s_new,"(0.7, -0.5)",cs_neg_ns,"(0.7, 0.5)",cs_neg_s,0,0,0,0,,,,,,,,,,,,,,,,,,,,,,,,,,,,,0,6,6,35,0,0,0,0,,,,,,,,,,,,,,,393,reward,,,,,,1373.587539,1373.587539,1373.587539,1373.587539,1,0.6127737000006164,0.6202881999997771,0,,,0,,,0,,,1374.2124705000006,1374.2124705000006,1374.2124705000006,1374.2124705000006,34,C,2024-05-15_11h18.59.911,attentional_competition_task,2022.2.4,144.0056911059171,
positions.xlsx,positions_test.xlsx,positions_test_new.xlsx,stimuli.xlsx,stimuli_new.xlsx,stimuli/Social3.png,stimuli/Social4.png,stimuli/Nonsocial3.png,stimuli/Nonsocial4.png,stimuli/Social1.png,stimuli/Social2.png,stimuli/Nonsocial1.png,stimuli/Nonsocial2.png,,,"(-0.7, -0.5)",cs_pos_ns,"(-0.7, 0.5)",cs_pos_s_new,"(0.7, -0.5)",cs_neg_ns,"(0.7, 0.5)",cs_neg_s,0,0,0,0,,,,,,,,,,,,,,,,,,,,,,,,,,,,,0,6,6,35,1,0,1,0,,,,,,,,,,,,,,,396,reward,,,,,,1374.7402483000005,1374.7402483000005,1374.7402483000005,1374.7402483000005,0,,,1,0.02844360000017332,0.028446999998777756,0,,,0,,,1374.7402483000005,1374.7402483000005,1374.7402483000005,1374.7402483000005,34,C,2024-05-15_11h18.59.911,attentional_competition_task,2022.2.4,144.0056911059171,
positions.xlsx,positions_test.xlsx,positions_test_new.xlsx,stimuli.xlsx,stimuli_new.xlsx,stimuli/Social3.png,stimuli/Social4.png,stimuli/Nonsocial3.png,stimuli/Nonsocial4.png,stimuli/Social1.png,stimuli/Social2.png,stimuli/Nonsocial1.png,stimuli/Nonsocial2.png,,,"(-0.7, -0.5)",cs_pos_ns,"(-0.7, 0.5)",cs_pos_s_new,"(0.7, -0.5)",cs_neg_ns,"(0.7, 0.5)",cs_neg_s,0,0,0,0,,,,,,,,,,,,,,,,,,,,,,,,,,,,,0,6,6,35,2,0,2,0,,,,,,,,,,,,,,,399,reward,,,,,,1375.2402256000005,1375.2402256000005,1375.2402256000005,1375.2402256000005,0,,,1,0.02410079999935988,0.35143020000032266,0,,,0,,,1376.1013036000004,1376.1013036000004,1376.1013036000004,1376.1013036000004,34,C,2024-05-15_11h18.59.911,attentional_competition_task,2022.2.4,144.0056911059171,
positions.xlsx,positions_test.xlsx,positions_test_new.xlsx,stimuli.xlsx,stimuli_new.xlsx,stimuli/Social3.png,stimuli/Social4.png,stimuli/Nonsocial3.png,stimuli/Nonsocial4.png,stimuli/Social1.png,stimuli/Social2.png,stimuli/Nonsocial1.png,stimuli/Nonsocial2.png,,,"(-0.7, -0.5)",cs_pos_ns,"(-0.7, 0.5)",cs_pos_s_new,"(0.7, -0.5)",cs_neg_ns,"(0.7, 0.5)",cs_neg_s,0,0,0,0,,,,,,,,,,,,,,,,,,,,,,,,,,,,,0,6,6,35,,,,,,,,,,,,,,,,,,,,,,,,,,,,,,,,,,,,,,,,,,,,,,34,C,2024-05-15_11h18.59.911,attentional_competition_task,2022.2.4,144.0056911059171,
positions.xlsx,positions_test.xlsx,positions_test_new.xlsx,stimuli.xlsx,stimuli_new.xlsx,stimuli/Social3.png,stimuli/Social4.png,stimuli/Nonsocial3.png,stimuli/Nonsocial4.png,stimuli/Social1.png,stimuli/Social2.png,stimuli/Nonsocial1.png,stimuli/Nonsocial2.png,,,"(-0.7, -0.5)",cs_neg_ns,"(-0.7, 0.5)",cs_pos_ns,"(0.7, -0.5)",cs_neg_s_new,"(0.7, 0.5)",cs_pos_s,0,0,0,0,,,,,,,,,,,,,,,,,,,,,,,,,,,,,0,7,7,11,0,0,0,0,,,,,,,,,,,,,,,402,reward,,,,,,1381.732989,1381.732989,1381.732989,1381.732989,0,,,1,0.460561100000632,0.46056490000046324,0,,,0,,,1382.1982657000008,1382.1982657000008,1382.1982657000008,1382.1982657000008,34,C,2024-05-15_11h18.59.911,attentional_competition_task,2022.2.4,144.0056911059171,
positions.xlsx,positions_test.xlsx,positions_test_new.xlsx,stimuli.xlsx,stimuli_new.xlsx,stimuli/Social3.png,stimuli/Social4.png,stimuli/Nonsocial3.png,stimuli/Nonsocial4.png,stimuli/Social1.png,stimuli/Social2.png,stimuli/Nonsocial1.png,stimuli/Nonsocial2.png,,,"(-0.7, -0.5)",cs_neg_ns,"(-0.7, 0.5)",cs_pos_ns,"(0.7, -0.5)",cs_neg_s_new,"(0.7, 0.5)",cs_pos_s,0,0,0,0,,,,,,,,,,,,,,,,,,,,,,,,,,,,,0,7,7,11,1,0,1,0,,,,,,,,,,,,,,,405,reward,,,,,,1382.7330405000012,1382.7330405000012,1382.7330405000012,1382.7330405000012,0,,,0,,,0,,,1,0.03175109999938286,0.03175499999997555,1382.7330405000012,1382.7330405000012,1382.7330405000012,1382.7330405000012,34,C,2024-05-15_11h18.59.911,attentional_competition_task,2022.2.4,144.0056911059171,
positions.xlsx,positions_test.xlsx,positions_test_new.xlsx,stimuli.xlsx,stimuli_new.xlsx,stimuli/Social3.png,stimuli/Social4.png,stimuli/Nonsocial3.png,stimuli/Nonsocial4.png,stimuli/Social1.png,stimuli/Social2.png,stimuli/Nonsocial1.png,stimuli/Nonsocial2.png,,,"(-0.7, -0.5)",cs_neg_ns,"(-0.7, 0.5)",cs_pos_ns,"(0.7, -0.5)",cs_neg_s_new,"(0.7, 0.5)",cs_pos_s,0,0,0,0,,,,,,,,,,,,,,,,,,,,,,,,,,,,,0,7,7,11,2,0,2,0,,,,,,,,,,,,,,,402,loss,,,,,,1383.2607346000004,1383.2607346000004,1383.2607346000004,1383.2607346000004,0,,,0,,,1,0.02799129999948491,0.02799550000054296,0,,,1383.2607346000004,1383.2607346000004,1383.2607346000004,1383.2607346000004,34,C,2024-05-15_11h18.59.911,attentional_competition_task,2022.2.4,144.0056911059171,
positions.xlsx,positions_test.xlsx,positions_test_new.xlsx,stimuli.xlsx,stimuli_new.xlsx,stimuli/Social3.png,stimuli/Social4.png,stimuli/Nonsocial3.png,stimuli/Nonsocial4.png,stimuli/Social1.png,stimuli/Social2.png,stimuli/Nonsocial1.png,stimuli/Nonsocial2.png,,,"(-0.7, -0.5)",cs_neg_ns,"(-0.7, 0.5)",cs_pos_ns,"(0.7, -0.5)",cs_neg_s_new,"(0.7, 0.5)",cs_pos_s,0,0,0,0,,,,,,,,,,,,,,,,,,,,,,,,,,,,,0,7,7,11,,,,,,,,,,,,,,,,,,,,,,,,,,,,,,,,,,,,,,,,,,,,,,34,C,2024-05-15_11h18.59.911,attentional_competition_task,2022.2.4,144.0056911059171,
positions.xlsx,positions_test.xlsx,positions_test_new.xlsx,stimuli.xlsx,stimuli_new.xlsx,stimuli/Social3.png,stimuli/Social4.png,stimuli/Nonsocial3.png,stimuli/Nonsocial4.png,stimuli/Social1.png,stimuli/Social2.png,stimuli/Nonsocial1.png,stimuli/Nonsocial2.png,,,"(-0.7, -0.5)",cs_neg_ns,"(-0.7, 0.5)",cs_pos_s,"(0.7, -0.5)",cs_pos_ns,"(0.7, 0.5)",cs_neg_s,0,0,0,0,,,,,,,,,,,,,,,,,,,,,,,,,,,,,0,8,8,1,0,0,0,0,,,,,,,,,,,,,,,405,reward,,,,,,1390.295165900001,1390.295165900001,1390.295165900001,1390.295165900001,0,,,1,0.5364303000005748,0.5364339999996446,0,,,0,,,1390.8298730000006,1390.8298730000006,1390.8298730000006,1390.8298730000006,34,C,2024-05-15_11h18.59.911,attentional_competition_task,2022.2.4,144.0056911059171,
positions.xlsx,positions_test.xlsx,positions_test_new.xlsx,stimuli.xlsx,stimuli_new.xlsx,stimuli/Social3.png,stimuli/Social4.png,stimuli/Nonsocial3.png,stimuli/Nonsocial4.png,stimuli/Social1.png,stimuli/Social2.png,stimuli/Nonsocial1.png,stimuli/Nonsocial2.png,,,"(-0.7, -0.5)",cs_neg_ns,"(-0.7, 0.5)",cs_pos_s,"(0.7, -0.5)",cs_pos_ns,"(0.7, 0.5)",cs_neg_s,0,0,0,0,,,,,,,,,,,,,,,,,,,,,,,,,,,,,0,8,8,1,1,0,1,0,,,,,,,,,,,,,,,408,reward,,,,,,1391.336760100001,1391.336760100001,1391.336760100001,1391.336760100001,0,,,0,,,1,0.0514549999988958,0.05819589999919117,0,,,1391.3923534000005,1391.3923534000005,1391.3923534000005,1391.3923534000005,34,C,2024-05-15_11h18.59.911,attentional_competition_task,2022.2.4,144.0056911059171,
positions.xlsx,positions_test.xlsx,positions_test_new.xlsx,stimuli.xlsx,stimuli_new.xlsx,stimuli/Social3.png,stimuli/Social4.png,stimuli/Nonsocial3.png,stimuli/Nonsocial4.png,stimuli/Social1.png,stimuli/Social2.png,stimuli/Nonsocial1.png,stimuli/Nonsocial2.png,,,"(-0.7, -0.5)",cs_neg_ns,"(-0.7, 0.5)",cs_pos_s,"(0.7, -0.5)",cs_pos_ns,"(0.7, 0.5)",cs_neg_s,0,0,0,0,,,,,,,,,,,,,,,,,,,,,,,,,,,,,0,8,8,1,2,0,2,0,,,,,,,,,,,,,,,405,loss,,,,,,1391.9200794999997,1391.9200794999997,1391.9200794999997,1391.9200794999997,0,,,0,,,0,,,1,0.023452700001143967,0.02345680000144057,1391.9200794999997,1391.9200794999997,1391.9200794999997,1391.9200794999997,34,C,2024-05-15_11h18.59.911,attentional_competition_task,2022.2.4,144.0056911059171,
positions.xlsx,positions_test.xlsx,positions_test_new.xlsx,stimuli.xlsx,stimuli_new.xlsx,stimuli/Social3.png,stimuli/Social4.png,stimuli/Nonsocial3.png,stimuli/Nonsocial4.png,stimuli/Social1.png,stimuli/Social2.png,stimuli/Nonsocial1.png,stimuli/Nonsocial2.png,,,"(-0.7, -0.5)",cs_neg_ns,"(-0.7, 0.5)",cs_pos_s,"(0.7, -0.5)",cs_pos_ns,"(0.7, 0.5)",cs_neg_s,0,0,0,0,,,,,,,,,,,,,,,,,,,,,,,,,,,,,0,8,8,1,,,,,,,,,,,,,,,,,,,,,,,,,,,,,,,,,,,,,,,,,,,,,,34,C,2024-05-15_11h18.59.911,attentional_competition_task,2022.2.4,144.0056911059171,
