posFile,posFileTest,posFileTestNew,stimFile,stimFileNew,cs_neg_s,cs_pos_s,cs_neg_ns,cs_pos_ns,cs_neg_s_new,cs_pos_s_new,cs_neg_ns_new,cs_pos_ns_new,stim,position,position1,stim1,position2,stim2,position3,stim3,position4,stim4,blocks.thisRepN,blocks.thisTrialN,blocks.thisN,blocks.thisIndex,ratingtrials1.thisRepN,ratingtrials1.thisTrialN,ratingtrials1.thisN,ratingtrials1.thisIndex,search_task_trials.thisRepN,search_task_trials.thisTrialN,search_task_trials.thisN,search_task_trials.thisIndex,learning_trials.thisRepN,learning_trials.thisTrialN,learning_trials.thisN,learning_trials.thisIndex,trials.thisRepN,trials.thisTrialN,trials.thisN,trials.thisIndex,ratingtrials2.thisRepN,ratingtrials2.thisTrialN,ratingtrials2.thisN,ratingtrials2.thisIndex,testtrials.thisRepN,testtrials.thisTrialN,testtrials.thisN,testtrials.thisIndex,loop_test.thisRepN,loop_test.thisTrialN,loop_test.thisN,loop_test.thisIndex,testtrials_novelty.thisRepN,testtrials_novelty.thisTrialN,testtrials_novelty.thisN,testtrials_novelty.thisIndex,loop_test_novelty.thisRepN,loop_test_novelty.thisTrialN,loop_test_novelty.thisN,loop_test_novelty.thisIndex,ratingtrials3.thisRepN,ratingtrials3.thisTrialN,ratingtrials3.thisN,ratingtrials3.thisIndex,textStart.started,textStartExp.started,imageRating.started,sliderStim.response,sliderStim.rt,textStartSearch.started,target_positions,distractor_positions,textStartTask.started,image.started,score,outcome,roi.numLooks,roi.timesOn,roi.timesOff,imageFeedback.started,textTestInstr.started,test_image1.started,test_image2.started,test_image3.started,test_image4.started,test_roi1.numLooks,test_roi1.timesOn,test_roi1.timesOff,test_roi2.numLooks,test_roi2.timesOn,test_roi2.timesOff,test_roi3.numLooks,test_roi3.timesOn,test_roi3.timesOff,test_roi4.numLooks,test_roi4.timesOn,test_roi4.timesOff,test_image_feedback1.started,test_image_feedback2.started,test_iamge_feedback3.started,test_iamge_feedback4.started,participant,group,date,expName,psychopyVersion,frameRate,
positions.xlsx,positions_test.xlsx,positions_test_new.xlsx,stimuli.xlsx,stimuli_new.xlsx,stimuli/Social4.png,stimuli/Social3.png,stimuli/Nonsocial4.png,stimuli/Nonsocial3.png,stimuli/Social2.png,stimuli/Social1.png,stimuli/Nonsocial2.png,stimuli/Nonsocial1.png,cs_pos_s,,,,,,,,,,0,0,0,0,0,0,0,2,,,,,,,,,,,,,,,,,,,,,,,,,,,,,,,,,,,,,11.536023800028488,126.87493459996767,136.77957749995403,4.0,8.73280369990971,,,,,,,,,,,,,,,,,,,,,,,,,,,,,,,,,45,D,2024-05-22_08h09.17.774,attentional_competition_task,2022.2.4,143.9478563604624,
positions.xlsx,positions_test.xlsx,positions_test_new.xlsx,stimuli.xlsx,stimuli_new.xlsx,stimuli/Social4.png,stimuli/Social3.png,stimuli/Nonsocial4.png,stimuli/Nonsocial3.png,stimuli/Social2.png,stimuli/Social1.png,stimuli/Nonsocial2.png,stimuli/Nonsocial1.png,cs_neg_ns,,,,,,,,,,0,0,0,0,0,1,1,1,,,,,,,,,,,,,,,,,,,,,,,,,,,,,,,,,,,,,,,146.32090129994322,7.0,3.0287764000240713,,,,,,,,,,,,,,,,,,,,,,,,,,,,,,,,,45,D,2024-05-22_08h09.17.774,attentional_competition_task,2022.2.4,143.9478563604624,
positions.xlsx,positions_test.xlsx,positions_test_new.xlsx,stimuli.xlsx,stimuli_new.xlsx,stimuli/Social4.png,stimuli/Social3.png,stimuli/Nonsocial4.png,stimuli/Nonsocial3.png,stimuli/Social2.png,stimuli/Social1.png,stimuli/Nonsocial2.png,stimuli/Nonsocial1.png,cs_neg_s,,,,,,,,,,0,0,0,0,0,2,2,0,,,,,,,,,,,,,,,,,,,,,,,,,,,,,,,,,,,,,,,149.7373673999682,5.0,1.9087139000184834,,,,,,,,,,,,,,,,,,,,,,,,,,,,,,,,,45,D,2024-05-22_08h09.17.774,attentional_competition_task,2022.2.4,143.9478563604624,
positions.xlsx,positions_test.xlsx,positions_test_new.xlsx,stimuli.xlsx,stimuli_new.xlsx,stimuli/Social4.png,stimuli/Social3.png,stimuli/Nonsocial4.png,stimuli/Nonsocial3.png,stimuli/Social2.png,stimuli/Social1.png,stimuli/Nonsocial2.png,stimuli/Nonsocial1.png,cs_pos_ns,,,,,,,,,,0,0,0,0,0,3,3,3,,,,,,,,,,,,,,,,,,,,,,,,,,,,,,,,,,,,,,,154.4871757000219,8.0,4.372456299955957,,,,,,,,,,,,,,,,,,,,,,,,,,,,,,,,,45,D,2024-05-22_08h09.17.774,attentional_competition_task,2022.2.4,143.9478563604624,
positions.xlsx,positions_test.xlsx,positions_test_new.xlsx,stimuli.xlsx,stimuli_new.xlsx,stimuli/Social4.png,stimuli/Social3.png,stimuli/Nonsocial4.png,stimuli/Nonsocial3.png,stimuli/Social2.png,stimuli/Social1.png,stimuli/Nonsocial2.png,stimuli/Nonsocial1.png,,,,,,,,,,,0,0,0,0,,,,,0,0,0,0,,,,,,,,,,,,,,,,,,,,,,,,,,,,,,,,,,,,,,159.04259530000854,"[[-0.45, -0.30000000000000004], [-0.675, -0.8], [0.45000000000000007, 0.19999999999999996], [-0.9, 0.7], [0.45000000000000007, 0.7], [-0.22499999999999998, -0.8], [-0.22499999999999998, -0.30000000000000004], [0.9, 0.7], [-0.9, 0.19999999999999996], [0.6749999999999999, -0.30000000000000004], [0.22499999999999998, -0.8], [0.6749999999999999, 0.19999999999999996], [-0.45, 0.19999999999999996], [-0.675, 0.7], [0.22499999999999998, 0.19999999999999996]]","[[0.22499999999999998, -0.30000000000000004], [-0.675, -0.30000000000000004], [0.22499999999999998, 0.7], [0.45000000000000007, -0.8], [0.6749999999999999, 0.7], [0.0, 0.19999999999999996], [0.6749999999999999, -0.8], [0.0, -0.8], [-0.9, -0.30000000000000004], [-0.45, 0.7], [0.9, -0.30000000000000004], [-0.45, -0.8], [0.45000000000000007, -0.30000000000000004], [-0.675, 0.19999999999999996], [-0.22499999999999998, 0.7]]",,,,,,,,,,,,,,,,,,,,,,,,,,,,,,45,D,2024-05-22_08h09.17.774,attentional_competition_task,2022.2.4,143.9478563604624,
positions.xlsx,positions_test.xlsx,positions_test_new.xlsx,stimuli.xlsx,stimuli_new.xlsx,stimuli/Social4.png,stimuli/Social3.png,stimuli/Nonsocial4.png,stimuli/Nonsocial3.png,stimuli/Social2.png,stimuli/Social1.png,stimuli/Nonsocial2.png,stimuli/Nonsocial1.png,,,,,,,,,,,0,0,0,0,,,,,1,0,1,0,,,,,,,,,,,,,,,,,,,,,,,,,,,,,,,,,,,,,,,"[[-0.675, -0.30000000000000004], [0.22499999999999998, 0.19999999999999996], [-0.22499999999999998, -0.30000000000000004], [-0.22499999999999998, 0.7], [0.6749999999999999, -0.8], [0.0, -0.30000000000000004], [-0.22499999999999998, 0.19999999999999996], [0.0, 0.19999999999999996], [0.45000000000000007, 0.19999999999999996], [0.9, -0.8], [0.9, -0.30000000000000004], [-0.45, -0.8], [-0.9, -0.30000000000000004], [0.9, 0.19999999999999996], [-0.22499999999999998, -0.8]]","[[0.45000000000000007, -0.8], [-0.45, 0.19999999999999996], [0.22499999999999998, 0.7], [0.6749999999999999, -0.30000000000000004], [0.22499999999999998, -0.30000000000000004], [0.6749999999999999, 0.19999999999999996], [0.22499999999999998, -0.8], [-0.9, 0.19999999999999996], [-0.675, -0.8], [-0.9, -0.8], [0.9, 0.7], [0.45000000000000007, -0.30000000000000004], [0.6749999999999999, 0.7], [0.0, 0.7], [0.45000000000000007, 0.7]]",,,,,,,,,,,,,,,,,,,,,,,,,,,,,,45,D,2024-05-22_08h09.17.774,attentional_competition_task,2022.2.4,143.9478563604624,
positions.xlsx,positions_test.xlsx,positions_test_new.xlsx,stimuli.xlsx,stimuli_new.xlsx,stimuli/Social4.png,stimuli/Social3.png,stimuli/Nonsocial4.png,stimuli/Nonsocial3.png,stimuli/Social2.png,stimuli/Social1.png,stimuli/Nonsocial2.png,stimuli/Nonsocial1.png,cs_pos_s,"(-0.7, -0.5)",,,,,,,,,0,0,0,0,,,,,,,,,0,0,0,5,,,,,,,,,,,,,,,,,,,,,,,,,,,,,,,,,,,,,241.8516765999375,259.96901919995435,3,reward,1,0.3334894999861717,0.33349340001586825,260.3162613000022,,,,,,,,,,,,,,,,,,,,,,45,D,2024-05-22_08h09.17.774,attentional_competition_task,2022.2.4,143.9478563604624,
positions.xlsx,positions_test.xlsx,positions_test_new.xlsx,stimuli.xlsx,stimuli_new.xlsx,stimuli/Social4.png,stimuli/Social3.png,stimuli/Nonsocial4.png,stimuli/Nonsocial3.png,stimuli/Social2.png,stimuli/Social1.png,stimuli/Nonsocial2.png,stimuli/Nonsocial1.png,cs_pos_s,"(0.7, -0.5)",,,,,,,,,0,0,0,0,,,,,,,,,0,1,1,7,,,,,,,,,,,,,,,,,,,,,,,,,,,,,,,,,,,,,,267.6284368999768,6,reward,1,0.36172330006957054,0.36845910002011806,268.00349469995126,,,,,,,,,,,,,,,,,,,,,,45,D,2024-05-22_08h09.17.774,attentional_competition_task,2022.2.4,143.9478563604624,
positions.xlsx,positions_test.xlsx,positions_test_new.xlsx,stimuli.xlsx,stimuli_new.xlsx,stimuli/Social4.png,stimuli/Social3.png,stimuli/Nonsocial4.png,stimuli/Nonsocial3.png,stimuli/Social2.png,stimuli/Social1.png,stimuli/Nonsocial2.png,stimuli/Nonsocial1.png,cs_pos_s,"(-0.7, 0.5)",,,,,,,,,0,0,0,0,,,,,,,,,0,2,2,4,,,,,,,,,,,,,,,,,,,,,,,,,,,,,,,,,,,,,,276.1141978999367,9,reward,1,0.31988369999453425,0.3198876999085769,276.4406123999506,,,,,,,,,,,,,,,,,,,,,,45,D,2024-05-22_08h09.17.774,attentional_competition_task,2022.2.4,143.9478563604624,
positions.xlsx,positions_test.xlsx,positions_test_new.xlsx,stimuli.xlsx,stimuli_new.xlsx,stimuli/Social4.png,stimuli/Social3.png,stimuli/Nonsocial4.png,stimuli/Nonsocial3.png,stimuli/Social2.png,stimuli/Social1.png,stimuli/Nonsocial2.png,stimuli/Nonsocial1.png,cs_neg_ns,"(0.7, 0.5)",,,,,,,,,0,0,0,0,,,,,,,,,0,3,3,10,,,,,,,,,,,,,,,,,,,,,,,,,,,,,,,,,,,,,,284.34300470002927,6,loss,1,0.46528349991422147,0.4652871999423951,284.82218189991545,,,,,,,,,,,,,,,,,,,,,,45,D,2024-05-22_08h09.17.774,attentional_competition_task,2022.2.4,143.9478563604624,
positions.xlsx,positions_test.xlsx,positions_test_new.xlsx,stimuli.xlsx,stimuli_new.xlsx,stimuli/Social4.png,stimuli/Social3.png,stimuli/Nonsocial4.png,stimuli/Nonsocial3.png,stimuli/Social2.png,stimuli/Social1.png,stimuli/Nonsocial2.png,stimuli/Nonsocial1.png,cs_pos_ns,"(-0.7, -0.5)",,,,,,,,,0,0,0,0,,,,,,,,,0,4,4,13,,,,,,,,,,,,,,,,,,,,,,,,,,,,,,,,,,,,,,292.42603700002655,6,none,0,,,295.4398462999379,,,,,,,,,,,,,,,,,,,,,,45,D,2024-05-22_08h09.17.774,attentional_competition_task,2022.2.4,143.9478563604624,
positions.xlsx,positions_test.xlsx,positions_test_new.xlsx,stimuli.xlsx,stimuli_new.xlsx,stimuli/Social4.png,stimuli/Social3.png,stimuli/Nonsocial4.png,stimuli/Nonsocial3.png,stimuli/Social2.png,stimuli/Social1.png,stimuli/Nonsocial2.png,stimuli/Nonsocial1.png,cs_pos_ns,"(-0.7, 0.5)",,,,,,,,,0,0,0,0,,,,,,,,,0,5,5,12,,,,,,,,,,,,,,,,,,,,,,,,,,,,,,,,,,,,,,302.74506230000407,6,none,0,,,305.7518751999596,,,,,,,,,,,,,,,,,,,,,,45,D,2024-05-22_08h09.17.774,attentional_competition_task,2022.2.4,143.9478563604624,
positions.xlsx,positions_test.xlsx,positions_test_new.xlsx,stimuli.xlsx,stimuli_new.xlsx,stimuli/Social4.png,stimuli/Social3.png,stimuli/Nonsocial4.png,stimuli/Nonsocial3.png,stimuli/Social2.png,stimuli/Social1.png,stimuli/Nonsocial2.png,stimuli/Nonsocial1.png,cs_neg_s,"(0.7, 0.5)",,,,,,,,,0,0,0,0,,,,,,,,,0,6,6,2,,,,,,,,,,,,,,,,,,,,,,,,,,,,,,,,,,,,,,313.05711860000156,3,loss,1,0.3473678999580443,0.34737149998545647,313.41127609997056,,,,,,,,,,,,,,,,,,,,,,45,D,2024-05-22_08h09.17.774,attentional_competition_task,2022.2.4,143.9478563604624,
positions.xlsx,positions_test.xlsx,positions_test_new.xlsx,stimuli.xlsx,stimuli_new.xlsx,stimuli/Social4.png,stimuli/Social3.png,stimuli/Nonsocial4.png,stimuli/Nonsocial3.png,stimuli/Social2.png,stimuli/Social1.png,stimuli/Nonsocial2.png,stimuli/Nonsocial1.png,cs_neg_s,"(0.7, -0.5)",,,,,,,,,0,0,0,0,,,,,,,,,0,7,7,3,,,,,,,,,,,,,,,,,,,,,,,,,,,,,,,,,,,,,,321.37625779991504,0,loss,1,0.3958104000193998,0.3958144000498578,321.77903149998747,,,,,,,,,,,,,,,,,,,,,,45,D,2024-05-22_08h09.17.774,attentional_competition_task,2022.2.4,143.9478563604624,
positions.xlsx,positions_test.xlsx,positions_test_new.xlsx,stimuli.xlsx,stimuli_new.xlsx,stimuli/Social4.png,stimuli/Social3.png,stimuli/Nonsocial4.png,stimuli/Nonsocial3.png,stimuli/Social2.png,stimuli/Social1.png,stimuli/Nonsocial2.png,stimuli/Nonsocial1.png,cs_neg_ns,"(-0.7, -0.5)",,,,,,,,,0,0,0,0,,,,,,,,,0,8,8,9,,,,,,,,,,,,,,,,,,,,,,,,,,,,,,,,,,,,,,328.4731754999375,-3,loss,1,0.6947897999780253,0.6947938000084832,329.1745463999687,,,,,,,,,,,,,,,,,,,,,,45,D,2024-05-22_08h09.17.774,attentional_competition_task,2022.2.4,143.9478563604624,
positions.xlsx,positions_test.xlsx,positions_test_new.xlsx,stimuli.xlsx,stimuli_new.xlsx,stimuli/Social4.png,stimuli/Social3.png,stimuli/Nonsocial4.png,stimuli/Nonsocial3.png,stimuli/Social2.png,stimuli/Social1.png,stimuli/Nonsocial2.png,stimuli/Nonsocial1.png,cs_neg_s,"(-0.7, 0.5)",,,,,,,,,0,0,0,0,,,,,,,,,0,9,9,0,,,,,,,,,,,,,,,,,,,,,,,,,,,,,,,,,,,,,,336.41731479996815,-3,none,0,,,339.4241630999604,,,,,,,,,,,,,,,,,,,,,,45,D,2024-05-22_08h09.17.774,attentional_competition_task,2022.2.4,143.9478563604624,
positions.xlsx,positions_test.xlsx,positions_test_new.xlsx,stimuli.xlsx,stimuli_new.xlsx,stimuli/Social4.png,stimuli/Social3.png,stimuli/Nonsocial4.png,stimuli/Nonsocial3.png,stimuli/Social2.png,stimuli/Social1.png,stimuli/Nonsocial2.png,stimuli/Nonsocial1.png,cs_pos_ns,"(0.7, -0.5)",,,,,,,,,0,0,0,0,,,,,,,,,0,10,10,15,,,,,,,,,,,,,,,,,,,,,,,,,,,,,,,,,,,,,,346.7363053000299,0,reward,1,0.8545404999749735,0.85454440000467,347.59752469998784,,,,,,,,,,,,,,,,,,,,,,45,D,2024-05-22_08h09.17.774,attentional_competition_task,2022.2.4,143.9478563604624,
positions.xlsx,positions_test.xlsx,positions_test_new.xlsx,stimuli.xlsx,stimuli_new.xlsx,stimuli/Social4.png,stimuli/Social3.png,stimuli/Nonsocial4.png,stimuli/Nonsocial3.png,stimuli/Social2.png,stimuli/Social1.png,stimuli/Nonsocial2.png,stimuli/Nonsocial1.png,cs_neg_ns,"(0.7, -0.5)",,,,,,,,,0,0,0,0,,,,,,,,,0,11,11,11,,,,,,,,,,,,,,,,,,,,,,,,,,,,,,,,,,,,,,355.5971000000136,0,none,0,,,358.61086819996126,,,,,,,,,,,,,,,,,,,,,,45,D,2024-05-22_08h09.17.774,attentional_competition_task,2022.2.4,143.9478563604624,
positions.xlsx,positions_test.xlsx,positions_test_new.xlsx,stimuli.xlsx,stimuli_new.xlsx,stimuli/Social4.png,stimuli/Social3.png,stimuli/Nonsocial4.png,stimuli/Nonsocial3.png,stimuli/Social2.png,stimuli/Social1.png,stimuli/Nonsocial2.png,stimuli/Nonsocial1.png,cs_pos_ns,"(0.7, 0.5)",,,,,,,,,0,0,0,0,,,,,,,,,0,12,12,14,,,,,,,,,,,,,,,,,,,,,,,,,,,,,,,,,,,,,,365.47169019992,3,reward,1,0.5485685999738052,0.5485722000012174,366.02718729991466,,,,,,,,,,,,,,,,,,,,,,45,D,2024-05-22_08h09.17.774,attentional_competition_task,2022.2.4,143.9478563604624,
positions.xlsx,positions_test.xlsx,positions_test_new.xlsx,stimuli.xlsx,stimuli_new.xlsx,stimuli/Social4.png,stimuli/Social3.png,stimuli/Nonsocial4.png,stimuli/Nonsocial3.png,stimuli/Social2.png,stimuli/Social1.png,stimuli/Nonsocial2.png,stimuli/Nonsocial1.png,cs_neg_ns,"(-0.7, 0.5)",,,,,,,,,0,0,0,0,,,,,,,,,0,13,13,8,,,,,,,,,,,,,,,,,,,,,,,,,,,,,,,,,,,,,,373.9782929000212,0,loss,1,0.680577400024049,0.6874709000112489,374.6727139999857,,,,,,,,,,,,,,,,,,,,,,45,D,2024-05-22_08h09.17.774,attentional_competition_task,2022.2.4,143.9478563604624,
positions.xlsx,positions_test.xlsx,positions_test_new.xlsx,stimuli.xlsx,stimuli_new.xlsx,stimuli/Social4.png,stimuli/Social3.png,stimuli/Nonsocial4.png,stimuli/Nonsocial3.png,stimuli/Social2.png,stimuli/Social1.png,stimuli/Nonsocial2.png,stimuli/Nonsocial1.png,cs_neg_s,"(-0.7, -0.5)",,,,,,,,,0,0,0,0,,,,,,,,,0,14,14,1,,,,,,,,,,,,,,,,,,,,,,,,,,,,,,,,,,,,,,382.1376801999286,0,none,0,,,385.1514694999205,,,,,,,,,,,,,,,,,,,,,,45,D,2024-05-22_08h09.17.774,attentional_competition_task,2022.2.4,143.9478563604624,
positions.xlsx,positions_test.xlsx,positions_test_new.xlsx,stimuli.xlsx,stimuli_new.xlsx,stimuli/Social4.png,stimuli/Social3.png,stimuli/Nonsocial4.png,stimuli/Nonsocial3.png,stimuli/Social2.png,stimuli/Social1.png,stimuli/Nonsocial2.png,stimuli/Nonsocial1.png,cs_pos_s,"(0.7, 0.5)",,,,,,,,,0,0,0,0,,,,,,,,,0,15,15,6,,,,,,,,,,,,,,,,,,,,,,,,,,,,,,,,,,,,,,392.3455969999777,3,reward,1,0.39597240008879453,0.3959764000028372,392.7483924999833,,,,,,,,,,,,,,,,,,,,,,45,D,2024-05-22_08h09.17.774,attentional_competition_task,2022.2.4,143.9478563604624,
positions.xlsx,positions_test.xlsx,positions_test_new.xlsx,stimuli.xlsx,stimuli_new.xlsx,stimuli/Social4.png,stimuli/Social3.png,stimuli/Nonsocial4.png,stimuli/Nonsocial3.png,stimuli/Social2.png,stimuli/Social1.png,stimuli/Nonsocial2.png,stimuli/Nonsocial1.png,cs_neg_ns,"(-0.7, 0.5)",,,,,,,,,0,0,0,0,,,,,,,,,1,0,16,8,,,,,,,,,,,,,,,,,,,,,,,,,,,,,,,,,,,,,,399.5675269999774,0,loss,1,0.2152829000260681,0.2152863999363035,399.78973939991556,,,,,,,,,,,,,,,,,,,,,,45,D,2024-05-22_08h09.17.774,attentional_competition_task,2022.2.4,143.9478563604624,
positions.xlsx,positions_test.xlsx,positions_test_new.xlsx,stimuli.xlsx,stimuli_new.xlsx,stimuli/Social4.png,stimuli/Social3.png,stimuli/Nonsocial4.png,stimuli/Nonsocial3.png,stimuli/Social2.png,stimuli/Social1.png,stimuli/Nonsocial2.png,stimuli/Nonsocial1.png,cs_neg_s,"(0.7, -0.5)",,,,,,,,,0,0,0,0,,,,,,,,,1,1,17,3,,,,,,,,,,,,,,,,,,,,,,,,,,,,,,,,,,,,,,407.4908294000197,0,none,0,,,410.5045816999627,,,,,,,,,,,,,,,,,,,,,,45,D,2024-05-22_08h09.17.774,attentional_competition_task,2022.2.4,143.9478563604624,
positions.xlsx,positions_test.xlsx,positions_test_new.xlsx,stimuli.xlsx,stimuli_new.xlsx,stimuli/Social4.png,stimuli/Social3.png,stimuli/Nonsocial4.png,stimuli/Nonsocial3.png,stimuli/Social2.png,stimuli/Social1.png,stimuli/Nonsocial2.png,stimuli/Nonsocial1.png,cs_neg_ns,"(-0.7, -0.5)",,,,,,,,,0,0,0,0,,,,,,,,,1,2,18,9,,,,,,,,,,,,,,,,,,,,,,,,,,,,,,,,,,,,,,418.2890081999358,-3,loss,1,0.548384000081569,0.5483876001089811,418.8445163000142,,,,,,,,,,,,,,,,,,,,,,45,D,2024-05-22_08h09.17.774,attentional_competition_task,2022.2.4,143.9478563604624,
positions.xlsx,positions_test.xlsx,positions_test_new.xlsx,stimuli.xlsx,stimuli_new.xlsx,stimuli/Social4.png,stimuli/Social3.png,stimuli/Nonsocial4.png,stimuli/Nonsocial3.png,stimuli/Social2.png,stimuli/Social1.png,stimuli/Nonsocial2.png,stimuli/Nonsocial1.png,cs_pos_s,"(0.7, 0.5)",,,,,,,,,0,0,0,0,,,,,,,,,1,3,19,6,,,,,,,,,,,,,,,,,,,,,,,,,,,,,,,,,,,,,,425.94142970000394,0,reward,1,0.3895002000499517,0.3895041999639943,426.33724759996403,,,,,,,,,,,,,,,,,,,,,,45,D,2024-05-22_08h09.17.774,attentional_competition_task,2022.2.4,143.9478563604624,
positions.xlsx,positions_test.xlsx,positions_test_new.xlsx,stimuli.xlsx,stimuli_new.xlsx,stimuli/Social4.png,stimuli/Social3.png,stimuli/Nonsocial4.png,stimuli/Nonsocial3.png,stimuli/Social2.png,stimuli/Social1.png,stimuli/Nonsocial2.png,stimuli/Nonsocial1.png,cs_pos_s,"(-0.7, -0.5)",,,,,,,,,0,0,0,0,,,,,,,,,1,4,20,5,,,,,,,,,,,,,,,,,,,,,,,,,,,,,,,,,,,,,,433.23974599991925,3,reward,1,0.5973973999498412,0.5974008999764919,433.8438976999605,,,,,,,,,,,,,,,,,,,,,,45,D,2024-05-22_08h09.17.774,attentional_competition_task,2022.2.4,143.9478563604624,
positions.xlsx,positions_test.xlsx,positions_test_new.xlsx,stimuli.xlsx,stimuli_new.xlsx,stimuli/Social4.png,stimuli/Social3.png,stimuli/Nonsocial4.png,stimuli/Nonsocial3.png,stimuli/Social2.png,stimuli/Social1.png,stimuli/Nonsocial2.png,stimuli/Nonsocial1.png,cs_pos_s,"(0.7, -0.5)",,,,,,,,,0,0,0,0,,,,,,,,,1,5,21,7,,,,,,,,,,,,,,,,,,,,,,,,,,,,,,,,,,,,,,441.8713575999718,6,reward,1,0.5904637000057846,0.59046719991602,442.4685587999411,,,,,,,,,,,,,,,,,,,,,,45,D,2024-05-22_08h09.17.774,attentional_competition_task,2022.2.4,143.9478563604624,
positions.xlsx,positions_test.xlsx,positions_test_new.xlsx,stimuli.xlsx,stimuli_new.xlsx,stimuli/Social4.png,stimuli/Social3.png,stimuli/Nonsocial4.png,stimuli/Nonsocial3.png,stimuli/Social2.png,stimuli/Social1.png,stimuli/Nonsocial2.png,stimuli/Nonsocial1.png,cs_pos_ns,"(0.7, 0.5)",,,,,,,,,0,0,0,0,,,,,,,,,1,6,22,14,,,,,,,,,,,,,,,,,,,,,,,,,,,,,,,,,,,,,,449.7182615000056,9,reward,1,0.46548990008886904,0.46549339999910444,450.1904518000083,,,,,,,,,,,,,,,,,,,,,,45,D,2024-05-22_08h09.17.774,attentional_competition_task,2022.2.4,143.9478563604624,
positions.xlsx,positions_test.xlsx,positions_test_new.xlsx,stimuli.xlsx,stimuli_new.xlsx,stimuli/Social4.png,stimuli/Social3.png,stimuli/Nonsocial4.png,stimuli/Nonsocial3.png,stimuli/Social2.png,stimuli/Social1.png,stimuli/Nonsocial2.png,stimuli/Nonsocial1.png,cs_neg_s,"(-0.7, -0.5)",,,,,,,,,0,0,0,0,,,,,,,,,1,7,23,1,,,,,,,,,,,,,,,,,,,,,,,,,,,,,,,,,,,,,,457.7248868999304,9,none,0,,,460.738667299971,,,,,,,,,,,,,,,,,,,,,,45,D,2024-05-22_08h09.17.774,attentional_competition_task,2022.2.4,143.9478563604624,
positions.xlsx,positions_test.xlsx,positions_test_new.xlsx,stimuli.xlsx,stimuli_new.xlsx,stimuli/Social4.png,stimuli/Social3.png,stimuli/Nonsocial4.png,stimuli/Nonsocial3.png,stimuli/Social2.png,stimuli/Social1.png,stimuli/Nonsocial2.png,stimuli/Nonsocial1.png,cs_neg_s,"(-0.7, 0.5)",,,,,,,,,0,0,0,0,,,,,,,,,1,8,24,0,,,,,,,,,,,,,,,,,,,,,,,,,,,,,,,,,,,,,,468.88416160002816,9,none,0,,,471.8909918999998,,,,,,,,,,,,,,,,,,,,,,45,D,2024-05-22_08h09.17.774,attentional_competition_task,2022.2.4,143.9478563604624,
positions.xlsx,positions_test.xlsx,positions_test_new.xlsx,stimuli.xlsx,stimuli_new.xlsx,stimuli/Social4.png,stimuli/Social3.png,stimuli/Nonsocial4.png,stimuli/Nonsocial3.png,stimuli/Social2.png,stimuli/Social1.png,stimuli/Nonsocial2.png,stimuli/Nonsocial1.png,cs_neg_ns,"(0.7, -0.5)",,,,,,,,,0,0,0,0,,,,,,,,,1,9,25,11,,,,,,,,,,,,,,,,,,,,,,,,,,,,,,,,,,,,,,479.3073513000272,6,loss,1,0.667241399991326,0.667245400021784,479.9809136999538,,,,,,,,,,,,,,,,,,,,,,45,D,2024-05-22_08h09.17.774,attentional_competition_task,2022.2.4,143.9478563604624,
positions.xlsx,positions_test.xlsx,positions_test_new.xlsx,stimuli.xlsx,stimuli_new.xlsx,stimuli/Social4.png,stimuli/Social3.png,stimuli/Nonsocial4.png,stimuli/Nonsocial3.png,stimuli/Social2.png,stimuli/Social1.png,stimuli/Nonsocial2.png,stimuli/Nonsocial1.png,cs_pos_ns,"(0.7, -0.5)",,,,,,,,,0,0,0,0,,,,,,,,,1,10,26,15,,,,,,,,,,,,,,,,,,,,,,,,,,,,,,,,,,,,,,487.6750368999783,9,reward,1,0.21541249996516854,0.2154158999910578,487.8972796999151,,,,,,,,,,,,,,,,,,,,,,45,D,2024-05-22_08h09.17.774,attentional_competition_task,2022.2.4,143.9478563604624,
positions.xlsx,positions_test.xlsx,positions_test_new.xlsx,stimuli.xlsx,stimuli_new.xlsx,stimuli/Social4.png,stimuli/Social3.png,stimuli/Nonsocial4.png,stimuli/Nonsocial3.png,stimuli/Social2.png,stimuli/Social1.png,stimuli/Nonsocial2.png,stimuli/Nonsocial1.png,cs_neg_ns,"(0.7, 0.5)",,,,,,,,,0,0,0,0,,,,,,,,,1,11,27,10,,,,,,,,,,,,,,,,,,,,,,,,,,,,,,,,,,,,,,495.6747357000131,6,loss,1,0.4587777000851929,0.45878149999771267,496.13997649995144,,,,,,,,,,,,,,,,,,,,,,45,D,2024-05-22_08h09.17.774,attentional_competition_task,2022.2.4,143.9478563604624,
positions.xlsx,positions_test.xlsx,positions_test_new.xlsx,stimuli.xlsx,stimuli_new.xlsx,stimuli/Social4.png,stimuli/Social3.png,stimuli/Nonsocial4.png,stimuli/Nonsocial3.png,stimuli/Social2.png,stimuli/Social1.png,stimuli/Nonsocial2.png,stimuli/Nonsocial1.png,cs_neg_s,"(0.7, 0.5)",,,,,,,,,0,0,0,0,,,,,,,,,1,12,28,2,,,,,,,,,,,,,,,,,,,,,,,,,,,,,,,,,,,,,,503.6396939000115,3,loss,1,0.20850380009505898,0.20850720000453293,503.85496509994846,,,,,,,,,,,,,,,,,,,,,,45,D,2024-05-22_08h09.17.774,attentional_competition_task,2022.2.4,143.9478563604624,
positions.xlsx,positions_test.xlsx,positions_test_new.xlsx,stimuli.xlsx,stimuli_new.xlsx,stimuli/Social4.png,stimuli/Social3.png,stimuli/Nonsocial4.png,stimuli/Nonsocial3.png,stimuli/Social2.png,stimuli/Social1.png,stimuli/Nonsocial2.png,stimuli/Nonsocial1.png,cs_pos_s,"(-0.7, 0.5)",,,,,,,,,0,0,0,0,,,,,,,,,1,13,29,4,,,,,,,,,,,,,,,,,,,,,,,,,,,,,,,,,,,,,,511.1740984999342,6,reward,1,0.6257496000034735,0.6257537000346929,511.80603560002055,,,,,,,,,,,,,,,,,,,,,,45,D,2024-05-22_08h09.17.774,attentional_competition_task,2022.2.4,143.9478563604624,
positions.xlsx,positions_test.xlsx,positions_test_new.xlsx,stimuli.xlsx,stimuli_new.xlsx,stimuli/Social4.png,stimuli/Social3.png,stimuli/Nonsocial4.png,stimuli/Nonsocial3.png,stimuli/Social2.png,stimuli/Social1.png,stimuli/Nonsocial2.png,stimuli/Nonsocial1.png,cs_pos_ns,"(-0.7, 0.5)",,,,,,,,,0,0,0,0,,,,,,,,,1,14,30,12,,,,,,,,,,,,,,,,,,,,,,,,,,,,,,,,,,,,,,518.902973499964,9,reward,1,0.9863032000139356,0.9863070000428706,519.8959606999997,,,,,,,,,,,,,,,,,,,,,,45,D,2024-05-22_08h09.17.774,attentional_competition_task,2022.2.4,143.9478563604624,
positions.xlsx,positions_test.xlsx,positions_test_new.xlsx,stimuli.xlsx,stimuli_new.xlsx,stimuli/Social4.png,stimuli/Social3.png,stimuli/Nonsocial4.png,stimuli/Nonsocial3.png,stimuli/Social2.png,stimuli/Social1.png,stimuli/Nonsocial2.png,stimuli/Nonsocial1.png,cs_pos_ns,"(-0.7, -0.5)",,,,,,,,,0,0,0,0,,,,,,,,,1,15,31,13,,,,,,,,,,,,,,,,,,,,,,,,,,,,,,,,,,,,,,527.541517799953,12,reward,1,0.7715354999527335,0.77153939998243,528.3192629999248,,,,,,,,,,,,,,,,,,,,,,45,D,2024-05-22_08h09.17.774,attentional_competition_task,2022.2.4,143.9478563604624,
positions.xlsx,positions_test.xlsx,positions_test_new.xlsx,stimuli.xlsx,stimuli_new.xlsx,stimuli/Social4.png,stimuli/Social3.png,stimuli/Nonsocial4.png,stimuli/Nonsocial3.png,stimuli/Social2.png,stimuli/Social1.png,stimuli/Nonsocial2.png,stimuli/Nonsocial1.png,cs_pos_ns,"(-0.7, 0.5)",,,,,,,,,0,0,0,0,,,,,,,,,,,,,0,0,0,12,,,,,,,,,,,,,,,,,,,,,,,,,,,,,,,,,,547.9226374999853,15,reward,1,0.4583337000804022,0.45833749999292195,548.3878834999632,,,,,,,,,,,,,,,,,,,,,,45,D,2024-05-22_08h09.17.774,attentional_competition_task,2022.2.4,143.9478563604624,
positions.xlsx,positions_test.xlsx,positions_test_new.xlsx,stimuli.xlsx,stimuli_new.xlsx,stimuli/Social4.png,stimuli/Social3.png,stimuli/Nonsocial4.png,stimuli/Nonsocial3.png,stimuli/Social2.png,stimuli/Social1.png,stimuli/Nonsocial2.png,stimuli/Nonsocial1.png,cs_pos_s,"(0.7, -0.5)",,,,,,,,,0,0,0,0,,,,,,,,,,,,,0,1,1,7,,,,,,,,,,,,,,,,,,,,,,,,,,,,,,,,,,555.6722979999613,18,reward,1,0.7920382000738755,0.7920418001012877,556.4709731999319,,,,,,,,,,,,,,,,,,,,,,45,D,2024-05-22_08h09.17.774,attentional_competition_task,2022.2.4,143.9478563604624,
positions.xlsx,positions_test.xlsx,positions_test_new.xlsx,stimuli.xlsx,stimuli_new.xlsx,stimuli/Social4.png,stimuli/Social3.png,stimuli/Nonsocial4.png,stimuli/Nonsocial3.png,stimuli/Social2.png,stimuli/Social1.png,stimuli/Nonsocial2.png,stimuli/Nonsocial1.png,cs_neg_s,"(0.7, -0.5)",,,,,,,,,0,0,0,0,,,,,,,,,,,,,0,2,2,3,,,,,,,,,,,,,,,,,,,,,,,,,,,,,,,,,,564.581727599958,18,none,0,,,567.59545969998,,,,,,,,,,,,,,,,,,,,,,45,D,2024-05-22_08h09.17.774,attentional_competition_task,2022.2.4,143.9478563604624,
positions.xlsx,positions_test.xlsx,positions_test_new.xlsx,stimuli.xlsx,stimuli_new.xlsx,stimuli/Social4.png,stimuli/Social3.png,stimuli/Nonsocial4.png,stimuli/Nonsocial3.png,stimuli/Social2.png,stimuli/Social1.png,stimuli/Nonsocial2.png,stimuli/Nonsocial1.png,cs_pos_s,"(0.7, 0.5)",,,,,,,,,0,0,0,0,,,,,,,,,,,,,0,3,3,6,,,,,,,,,,,,,,,,,,,,,,,,,,,,,,,,,,575.7201278000139,21,reward,1,0.590331600047648,0.5903487000614405,576.3173472000053,,,,,,,,,,,,,,,,,,,,,,45,D,2024-05-22_08h09.17.774,attentional_competition_task,2022.2.4,143.9478563604624,
positions.xlsx,positions_test.xlsx,positions_test_new.xlsx,stimuli.xlsx,stimuli_new.xlsx,stimuli/Social4.png,stimuli/Social3.png,stimuli/Nonsocial4.png,stimuli/Nonsocial3.png,stimuli/Social2.png,stimuli/Social1.png,stimuli/Nonsocial2.png,stimuli/Nonsocial1.png,cs_neg_s,"(0.7, 0.5)",,,,,,,,,0,0,0,0,,,,,,,,,,,,,0,4,4,2,,,,,,,,,,,,,,,,,,,,,,,,,,,,,,,,,,583.9073164999718,18,loss,1,0.3958132000407204,0.3958172000711784,584.310045799939,,,,,,,,,,,,,,,,,,,,,,45,D,2024-05-22_08h09.17.774,attentional_competition_task,2022.2.4,143.9478563604624,
positions.xlsx,positions_test.xlsx,positions_test_new.xlsx,stimuli.xlsx,stimuli_new.xlsx,stimuli/Social4.png,stimuli/Social3.png,stimuli/Nonsocial4.png,stimuli/Nonsocial3.png,stimuli/Social2.png,stimuli/Social1.png,stimuli/Nonsocial2.png,stimuli/Nonsocial1.png,cs_neg_ns,"(0.7, 0.5)",,,,,,,,,0,0,0,0,,,,,,,,,,,,,0,5,5,10,,,,,,,,,,,,,,,,,,,,,,,,,,,,,,,,,,591.962528700009,18,none,0,,,594.9762967999559,,,,,,,,,,,,,,,,,,,,,,45,D,2024-05-22_08h09.17.774,attentional_competition_task,2022.2.4,143.9478563604624,
positions.xlsx,positions_test.xlsx,positions_test_new.xlsx,stimuli.xlsx,stimuli_new.xlsx,stimuli/Social4.png,stimuli/Social3.png,stimuli/Nonsocial4.png,stimuli/Nonsocial3.png,stimuli/Social2.png,stimuli/Social1.png,stimuli/Nonsocial2.png,stimuli/Nonsocial1.png,cs_pos_s,"(-0.7, -0.5)",,,,,,,,,0,0,0,0,,,,,,,,,,,,,0,6,6,5,,,,,,,,,,,,,,,,,,,,,,,,,,,,,,,,,,602.0385097999824,21,reward,1,0.5072058000368997,0.5072097000665963,602.5523670000257,,,,,,,,,,,,,,,,,,,,,,45,D,2024-05-22_08h09.17.774,attentional_competition_task,2022.2.4,143.9478563604624,
positions.xlsx,positions_test.xlsx,positions_test_new.xlsx,stimuli.xlsx,stimuli_new.xlsx,stimuli/Social4.png,stimuli/Social3.png,stimuli/Nonsocial4.png,stimuli/Nonsocial3.png,stimuli/Social2.png,stimuli/Social1.png,stimuli/Nonsocial2.png,stimuli/Nonsocial1.png,cs_pos_ns,"(0.7, 0.5)",,,,,,,,,0,0,0,0,,,,,,,,,,,,,0,7,7,14,,,,,,,,,,,,,,,,,,,,,,,,,,,,,,,,,,610.4687358000083,24,reward,1,0.8687706999480724,0.8751861000200734,611.3506400999613,,,,,,,,,,,,,,,,,,,,,,45,D,2024-05-22_08h09.17.774,attentional_competition_task,2022.2.4,143.9478563604624,
positions.xlsx,positions_test.xlsx,positions_test_new.xlsx,stimuli.xlsx,stimuli_new.xlsx,stimuli/Social4.png,stimuli/Social3.png,stimuli/Nonsocial4.png,stimuli/Nonsocial3.png,stimuli/Social2.png,stimuli/Social1.png,stimuli/Nonsocial2.png,stimuli/Nonsocial1.png,cs_pos_ns,"(-0.7, -0.5)",,,,,,,,,0,0,0,0,,,,,,,,,,,,,0,8,8,13,,,,,,,,,,,,,,,,,,,,,,,,,,,,,,,,,,618.2739529999672,27,reward,1,0.6110440999036655,0.6110475999303162,618.8920151999919,,,,,,,,,,,,,,,,,,,,,,45,D,2024-05-22_08h09.17.774,attentional_competition_task,2022.2.4,143.9478563604624,
positions.xlsx,positions_test.xlsx,positions_test_new.xlsx,stimuli.xlsx,stimuli_new.xlsx,stimuli/Social4.png,stimuli/Social3.png,stimuli/Nonsocial4.png,stimuli/Nonsocial3.png,stimuli/Social2.png,stimuli/Social1.png,stimuli/Nonsocial2.png,stimuli/Nonsocial1.png,cs_neg_s,"(-0.7, -0.5)",,,,,,,,,0,0,0,0,,,,,,,,,,,,,0,9,9,1,,,,,,,,,,,,,,,,,,,,,,,,,,,,,,,,,,626.3986521000043,27,none,0,,,629.4054463999346,,,,,,,,,,,,,,,,,,,,,,45,D,2024-05-22_08h09.17.774,attentional_competition_task,2022.2.4,143.9478563604624,
positions.xlsx,positions_test.xlsx,positions_test_new.xlsx,stimuli.xlsx,stimuli_new.xlsx,stimuli/Social4.png,stimuli/Social3.png,stimuli/Nonsocial4.png,stimuli/Nonsocial3.png,stimuli/Social2.png,stimuli/Social1.png,stimuli/Nonsocial2.png,stimuli/Nonsocial1.png,cs_pos_s,"(-0.7, 0.5)",,,,,,,,,0,0,0,0,,,,,,,,,,,,,0,10,10,4,,,,,,,,,,,,,,,,,,,,,,,,,,,,,,,,,,637.2245862999698,30,reward,1,0.5283179999096319,0.528321799938567,637.7593024999369,,,,,,,,,,,,,,,,,,,,,,45,D,2024-05-22_08h09.17.774,attentional_competition_task,2022.2.4,143.9478563604624,
positions.xlsx,positions_test.xlsx,positions_test_new.xlsx,stimuli.xlsx,stimuli_new.xlsx,stimuli/Social4.png,stimuli/Social3.png,stimuli/Nonsocial4.png,stimuli/Nonsocial3.png,stimuli/Social2.png,stimuli/Social1.png,stimuli/Nonsocial2.png,stimuli/Nonsocial1.png,cs_pos_ns,"(0.7, -0.5)",,,,,,,,,0,0,0,0,,,,,,,,,,,,,0,11,11,15,,,,,,,,,,,,,,,,,,,,,,,,,,,,,,,,,,645.2868034000276,33,reward,1,0.7987468999344856,0.7987504999618977,646.0923144000117,,,,,,,,,,,,,,,,,,,,,,45,D,2024-05-22_08h09.17.774,attentional_competition_task,2022.2.4,143.9478563604624,
positions.xlsx,positions_test.xlsx,positions_test_new.xlsx,stimuli.xlsx,stimuli_new.xlsx,stimuli/Social4.png,stimuli/Social3.png,stimuli/Nonsocial4.png,stimuli/Nonsocial3.png,stimuli/Social2.png,stimuli/Social1.png,stimuli/Nonsocial2.png,stimuli/Nonsocial1.png,cs_neg_ns,"(-0.7, 0.5)",,,,,,,,,0,0,0,0,,,,,,,,,,,,,0,12,12,8,,,,,,,,,,,,,,,,,,,,,,,,,,,,,,,,,,652.7378795000259,33,none,0,,,655.7516355999978,,,,,,,,,,,,,,,,,,,,,,45,D,2024-05-22_08h09.17.774,attentional_competition_task,2022.2.4,143.9478563604624,
positions.xlsx,positions_test.xlsx,positions_test_new.xlsx,stimuli.xlsx,stimuli_new.xlsx,stimuli/Social4.png,stimuli/Social3.png,stimuli/Nonsocial4.png,stimuli/Nonsocial3.png,stimuli/Social2.png,stimuli/Social1.png,stimuli/Nonsocial2.png,stimuli/Nonsocial1.png,cs_neg_ns,"(0.7, -0.5)",,,,,,,,,0,0,0,0,,,,,,,,,,,,,0,13,13,11,,,,,,,,,,,,,,,,,,,,,,,,,,,,,,,,,,662.9388352999231,30,loss,1,0.32682190008927137,0.3268252999987453,663.2721418000292,,,,,,,,,,,,,,,,,,,,,,45,D,2024-05-22_08h09.17.774,attentional_competition_task,2022.2.4,143.9478563604624,
positions.xlsx,positions_test.xlsx,positions_test_new.xlsx,stimuli.xlsx,stimuli_new.xlsx,stimuli/Social4.png,stimuli/Social3.png,stimuli/Nonsocial4.png,stimuli/Nonsocial3.png,stimuli/Social2.png,stimuli/Social1.png,stimuli/Nonsocial2.png,stimuli/Nonsocial1.png,cs_neg_s,"(-0.7, 0.5)",,,,,,,,,0,0,0,0,,,,,,,,,,,,,0,14,14,0,,,,,,,,,,,,,,,,,,,,,,,,,,,,,,,,,,670.8482369999401,30,none,0,,,673.8620341999922,,,,,,,,,,,,,,,,,,,,,,45,D,2024-05-22_08h09.17.774,attentional_competition_task,2022.2.4,143.9478563604624,
positions.xlsx,positions_test.xlsx,positions_test_new.xlsx,stimuli.xlsx,stimuli_new.xlsx,stimuli/Social4.png,stimuli/Social3.png,stimuli/Nonsocial4.png,stimuli/Nonsocial3.png,stimuli/Social2.png,stimuli/Social1.png,stimuli/Nonsocial2.png,stimuli/Nonsocial1.png,cs_neg_ns,"(-0.7, -0.5)",,,,,,,,,0,0,0,0,,,,,,,,,,,,,0,15,15,9,,,,,,,,,,,,,,,,,,,,,,,,,,,,,,,,,,681.0561876000138,30,none,0,,,684.0699718999676,,,,,,,,,,,,,,,,,,,,,,45,D,2024-05-22_08h09.17.774,attentional_competition_task,2022.2.4,143.9478563604624,
positions.xlsx,positions_test.xlsx,positions_test_new.xlsx,stimuli.xlsx,stimuli_new.xlsx,stimuli/Social4.png,stimuli/Social3.png,stimuli/Nonsocial4.png,stimuli/Nonsocial3.png,stimuli/Social2.png,stimuli/Social1.png,stimuli/Nonsocial2.png,stimuli/Nonsocial1.png,cs_neg_ns,"(0.7, -0.5)",,,,,,,,,0,0,0,0,,,,,,,,,,,,,1,0,16,11,,,,,,,,,,,,,,,,,,,,,,,,,,,,,,,,,,691.5974493999965,27,loss,1,0.409963299985975,0.40996719989925623,692.0140933999792,,,,,,,,,,,,,,,,,,,,,,45,D,2024-05-22_08h09.17.774,attentional_competition_task,2022.2.4,143.9478563604624,
positions.xlsx,positions_test.xlsx,positions_test_new.xlsx,stimuli.xlsx,stimuli_new.xlsx,stimuli/Social4.png,stimuli/Social3.png,stimuli/Nonsocial4.png,stimuli/Nonsocial3.png,stimuli/Social2.png,stimuli/Social1.png,stimuli/Nonsocial2.png,stimuli/Nonsocial1.png,cs_pos_ns,"(0.7, -0.5)",,,,,,,,,0,0,0,0,,,,,,,,,,,,,1,1,17,15,,,,,,,,,,,,,,,,,,,,,,,,,,,,,,,,,,699.7290405000094,30,reward,1,0.805597500060685,0.8056016999762505,700.5415033999598,,,,,,,,,,,,,,,,,,,,,,45,D,2024-05-22_08h09.17.774,attentional_competition_task,2022.2.4,143.9478563604624,
positions.xlsx,positions_test.xlsx,positions_test_new.xlsx,stimuli.xlsx,stimuli_new.xlsx,stimuli/Social4.png,stimuli/Social3.png,stimuli/Nonsocial4.png,stimuli/Nonsocial3.png,stimuli/Social2.png,stimuli/Social1.png,stimuli/Nonsocial2.png,stimuli/Nonsocial1.png,cs_neg_s,"(-0.7, -0.5)",,,,,,,,,0,0,0,0,,,,,,,,,,,,,1,2,18,1,,,,,,,,,,,,,,,,,,,,,,,,,,,,,,,,,,708.6662197000114,30,none,0,,,711.6799505000236,,,,,,,,,,,,,,,,,,,,,,45,D,2024-05-22_08h09.17.774,attentional_competition_task,2022.2.4,143.9478563604624,
positions.xlsx,positions_test.xlsx,positions_test_new.xlsx,stimuli.xlsx,stimuli_new.xlsx,stimuli/Social4.png,stimuli/Social3.png,stimuli/Nonsocial4.png,stimuli/Nonsocial3.png,stimuli/Social2.png,stimuli/Social1.png,stimuli/Nonsocial2.png,stimuli/Nonsocial1.png,cs_neg_s,"(0.7, 0.5)",,,,,,,,,0,0,0,0,,,,,,,,,,,,,1,3,19,2,,,,,,,,,,,,,,,,,,,,,,,,,,,,,,,,,,719.5615600999445,30,none,0,,,722.5683840999845,,,,,,,,,,,,,,,,,,,,,,45,D,2024-05-22_08h09.17.774,attentional_competition_task,2022.2.4,143.9478563604624,
positions.xlsx,positions_test.xlsx,positions_test_new.xlsx,stimuli.xlsx,stimuli_new.xlsx,stimuli/Social4.png,stimuli/Social3.png,stimuli/Nonsocial4.png,stimuli/Nonsocial3.png,stimuli/Social2.png,stimuli/Social1.png,stimuli/Nonsocial2.png,stimuli/Nonsocial1.png,cs_neg_ns,"(0.7, 0.5)",,,,,,,,,0,0,0,0,,,,,,,,,,,,,1,4,20,10,,,,,,,,,,,,,,,,,,,,,,,,,,,,,,,,,,730.0055961000035,30,none,0,,,733.0193909999216,,,,,,,,,,,,,,,,,,,,,,45,D,2024-05-22_08h09.17.774,attentional_competition_task,2022.2.4,143.9478563604624,
positions.xlsx,positions_test.xlsx,positions_test_new.xlsx,stimuli.xlsx,stimuli_new.xlsx,stimuli/Social4.png,stimuli/Social3.png,stimuli/Nonsocial4.png,stimuli/Nonsocial3.png,stimuli/Social2.png,stimuli/Social1.png,stimuli/Nonsocial2.png,stimuli/Nonsocial1.png,cs_pos_s,"(0.7, 0.5)",,,,,,,,,0,0,0,0,,,,,,,,,,,,,1,5,21,6,,,,,,,,,,,,,,,,,,,,,,,,,,,,,,,,,,740.3801689000102,33,reward,1,0.6808020999887958,0.6808059000177309,741.06766099995,,,,,,,,,,,,,,,,,,,,,,45,D,2024-05-22_08h09.17.774,attentional_competition_task,2022.2.4,143.9478563604624,
positions.xlsx,positions_test.xlsx,positions_test_new.xlsx,stimuli.xlsx,stimuli_new.xlsx,stimuli/Social4.png,stimuli/Social3.png,stimuli/Nonsocial4.png,stimuli/Nonsocial3.png,stimuli/Social2.png,stimuli/Social1.png,stimuli/Nonsocial2.png,stimuli/Nonsocial1.png,cs_pos_ns,"(-0.7, -0.5)",,,,,,,,,0,0,0,0,,,,,,,,,,,,,1,6,22,13,,,,,,,,,,,,,,,,,,,,,,,,,,,,,,,,,,748.0395802999847,36,reward,1,0.4795996999600902,0.47960359998978674,748.5256796999602,,,,,,,,,,,,,,,,,,,,,,45,D,2024-05-22_08h09.17.774,attentional_competition_task,2022.2.4,143.9478563604624,
positions.xlsx,positions_test.xlsx,positions_test_new.xlsx,stimuli.xlsx,stimuli_new.xlsx,stimuli/Social4.png,stimuli/Social3.png,stimuli/Nonsocial4.png,stimuli/Nonsocial3.png,stimuli/Social2.png,stimuli/Social1.png,stimuli/Nonsocial2.png,stimuli/Nonsocial1.png,cs_pos_s,"(-0.7, 0.5)",,,,,,,,,0,0,0,0,,,,,,,,,,,,,1,7,23,4,,,,,,,,,,,,,,,,,,,,,,,,,,,,,,,,,,755.7198359000031,39,reward,1,0.5347789999796078,0.5347826000070199,756.2615011999151,,,,,,,,,,,,,,,,,,,,,,45,D,2024-05-22_08h09.17.774,attentional_competition_task,2022.2.4,143.9478563604624,
positions.xlsx,positions_test.xlsx,positions_test_new.xlsx,stimuli.xlsx,stimuli_new.xlsx,stimuli/Social4.png,stimuli/Social3.png,stimuli/Nonsocial4.png,stimuli/Nonsocial3.png,stimuli/Social2.png,stimuli/Social1.png,stimuli/Nonsocial2.png,stimuli/Nonsocial1.png,cs_neg_s,"(0.7, -0.5)",,,,,,,,,0,0,0,0,,,,,,,,,,,,,1,8,24,3,,,,,,,,,,,,,,,,,,,,,,,,,,,,,,,,,,763.0042591999518,36,loss,1,0.38907469995319843,0.3890782999806106,763.4001089999219,,,,,,,,,,,,,,,,,,,,,,45,D,2024-05-22_08h09.17.774,attentional_competition_task,2022.2.4,143.9478563604624,
positions.xlsx,positions_test.xlsx,positions_test_new.xlsx,stimuli.xlsx,stimuli_new.xlsx,stimuli/Social4.png,stimuli/Social3.png,stimuli/Nonsocial4.png,stimuli/Nonsocial3.png,stimuli/Social2.png,stimuli/Social1.png,stimuli/Nonsocial2.png,stimuli/Nonsocial1.png,cs_pos_s,"(-0.7, -0.5)",,,,,,,,,0,0,0,0,,,,,,,,,,,,,1,9,25,5,,,,,,,,,,,,,,,,,,,,,,,,,,,,,,,,,,770.8998045999324,39,reward,1,0.5903329999418929,0.5903365999693051,771.4970162999816,,,,,,,,,,,,,,,,,,,,,,45,D,2024-05-22_08h09.17.774,attentional_competition_task,2022.2.4,143.9478563604624,
positions.xlsx,positions_test.xlsx,positions_test_new.xlsx,stimuli.xlsx,stimuli_new.xlsx,stimuli/Social4.png,stimuli/Social3.png,stimuli/Nonsocial4.png,stimuli/Nonsocial3.png,stimuli/Social2.png,stimuli/Social1.png,stimuli/Nonsocial2.png,stimuli/Nonsocial1.png,cs_pos_ns,"(0.7, 0.5)",,,,,,,,,0,0,0,0,,,,,,,,,,,,,1,10,26,14,,,,,,,,,,,,,,,,,,,,,,,,,,,,,,,,,,779.8438863999909,42,reward,1,0.16671150003094226,0.166715000057593,780.0174589999951,,,,,,,,,,,,,,,,,,,,,,45,D,2024-05-22_08h09.17.774,attentional_competition_task,2022.2.4,143.9478563604624,
positions.xlsx,positions_test.xlsx,positions_test_new.xlsx,stimuli.xlsx,stimuli_new.xlsx,stimuli/Social4.png,stimuli/Social3.png,stimuli/Nonsocial4.png,stimuli/Nonsocial3.png,stimuli/Social2.png,stimuli/Social1.png,stimuli/Nonsocial2.png,stimuli/Nonsocial1.png,cs_neg_ns,"(-0.7, 0.5)",,,,,,,,,0,0,0,0,,,,,,,,,,,,,1,11,27,8,,,,,,,,,,,,,,,,,,,,,,,,,,,,,,,,,,787.6282952999463,42,none,0,,,790.6420710999519,,,,,,,,,,,,,,,,,,,,,,45,D,2024-05-22_08h09.17.774,attentional_competition_task,2022.2.4,143.9478563604624,
positions.xlsx,positions_test.xlsx,positions_test_new.xlsx,stimuli.xlsx,stimuli_new.xlsx,stimuli/Social4.png,stimuli/Social3.png,stimuli/Nonsocial4.png,stimuli/Nonsocial3.png,stimuli/Social2.png,stimuli/Social1.png,stimuli/Nonsocial2.png,stimuli/Nonsocial1.png,cs_neg_ns,"(-0.7, -0.5)",,,,,,,,,0,0,0,0,,,,,,,,,,,,,1,12,28,9,,,,,,,,,,,,,,,,,,,,,,,,,,,,,,,,,,798.495949300006,42,none,0,,,801.502720199991,,,,,,,,,,,,,,,,,,,,,,45,D,2024-05-22_08h09.17.774,attentional_competition_task,2022.2.4,143.9478563604624,
positions.xlsx,positions_test.xlsx,positions_test_new.xlsx,stimuli.xlsx,stimuli_new.xlsx,stimuli/Social4.png,stimuli/Social3.png,stimuli/Nonsocial4.png,stimuli/Nonsocial3.png,stimuli/Social2.png,stimuli/Social1.png,stimuli/Nonsocial2.png,stimuli/Nonsocial1.png,cs_pos_ns,"(-0.7, 0.5)",,,,,,,,,0,0,0,0,,,,,,,,,,,,,1,13,29,12,,,,,,,,,,,,,,,,,,,,,,,,,,,,,,,,,,808.2177246999927,45,reward,1,1.0139825000660494,1.0139863999793306,809.2385609999765,,,,,,,,,,,,,,,,,,,,,,45,D,2024-05-22_08h09.17.774,attentional_competition_task,2022.2.4,143.9478563604624,
positions.xlsx,positions_test.xlsx,positions_test_new.xlsx,stimuli.xlsx,stimuli_new.xlsx,stimuli/Social4.png,stimuli/Social3.png,stimuli/Nonsocial4.png,stimuli/Nonsocial3.png,stimuli/Social2.png,stimuli/Social1.png,stimuli/Nonsocial2.png,stimuli/Nonsocial1.png,cs_neg_s,"(-0.7, 0.5)",,,,,,,,,0,0,0,0,,,,,,,,,,,,,1,14,30,0,,,,,,,,,,,,,,,,,,,,,,,,,,,,,,,,,,816.8701861000154,42,loss,1,0.18802620004862547,0.18803009996190667,817.0646239999915,,,,,,,,,,,,,,,,,,,,,,45,D,2024-05-22_08h09.17.774,attentional_competition_task,2022.2.4,143.9478563604624,
positions.xlsx,positions_test.xlsx,positions_test_new.xlsx,stimuli.xlsx,stimuli_new.xlsx,stimuli/Social4.png,stimuli/Social3.png,stimuli/Nonsocial4.png,stimuli/Nonsocial3.png,stimuli/Social2.png,stimuli/Social1.png,stimuli/Nonsocial2.png,stimuli/Nonsocial1.png,cs_pos_s,"(0.7, -0.5)",,,,,,,,,0,0,0,0,,,,,,,,,,,,,1,15,31,7,,,,,,,,,,,,,,,,,,,,,,,,,,,,,,,,,,824.5851295000175,45,reward,1,0.6386174999643117,0.6386213999940082,825.2309697999153,,,,,,,,,,,,,,,,,,,,,,45,D,2024-05-22_08h09.17.774,attentional_competition_task,2022.2.4,143.9478563604624,
positions.xlsx,positions_test.xlsx,positions_test_new.xlsx,stimuli.xlsx,stimuli_new.xlsx,stimuli/Social4.png,stimuli/Social3.png,stimuli/Nonsocial4.png,stimuli/Nonsocial3.png,stimuli/Social2.png,stimuli/Social1.png,stimuli/Nonsocial2.png,stimuli/Nonsocial1.png,cs_pos_s,,,,,,,,,,0,0,0,0,,,,,,,,,,,,,,,,,0,0,0,2,,,,,,,,,,,,,,,,,,,,,,,830.1613171999343,5.0,5.359070500009693,,,,,,,,,,,,,,,,,,,,,,,,,,,,,,,,,45,D,2024-05-22_08h09.17.774,attentional_competition_task,2022.2.4,143.9478563604624,
positions.xlsx,positions_test.xlsx,positions_test_new.xlsx,stimuli.xlsx,stimuli_new.xlsx,stimuli/Social4.png,stimuli/Social3.png,stimuli/Nonsocial4.png,stimuli/Nonsocial3.png,stimuli/Social2.png,stimuli/Social1.png,stimuli/Nonsocial2.png,stimuli/Nonsocial1.png,cs_pos_ns,,,,,,,,,,0,0,0,0,,,,,,,,,,,,,,,,,0,1,1,3,,,,,,,,,,,,,,,,,,,,,,,836.8416116000153,8.0,3.556767600006424,,,,,,,,,,,,,,,,,,,,,,,,,,,,,,,,,45,D,2024-05-22_08h09.17.774,attentional_competition_task,2022.2.4,143.9478563604624,
positions.xlsx,positions_test.xlsx,positions_test_new.xlsx,stimuli.xlsx,stimuli_new.xlsx,stimuli/Social4.png,stimuli/Social3.png,stimuli/Nonsocial4.png,stimuli/Nonsocial3.png,stimuli/Social2.png,stimuli/Social1.png,stimuli/Nonsocial2.png,stimuli/Nonsocial1.png,cs_neg_ns,,,,,,,,,,0,0,0,0,,,,,,,,,,,,,,,,,0,2,2,1,,,,,,,,,,,,,,,,,,,,,,,840.5845133999828,5.0,2.7173638999229297,,,,,,,,,,,,,,,,,,,,,,,,,,,,,,,,,45,D,2024-05-22_08h09.17.774,attentional_competition_task,2022.2.4,143.9478563604624,
positions.xlsx,positions_test.xlsx,positions_test_new.xlsx,stimuli.xlsx,stimuli_new.xlsx,stimuli/Social4.png,stimuli/Social3.png,stimuli/Nonsocial4.png,stimuli/Nonsocial3.png,stimuli/Social2.png,stimuli/Social1.png,stimuli/Nonsocial2.png,stimuli/Nonsocial1.png,cs_neg_s,,,,,,,,,,0,0,0,0,,,,,,,,,,,,,,,,,0,3,3,0,,,,,,,,,,,,,,,,,,,,,,,843.5358246000251,4.0,3.3977087000384927,,,,,,,,,,,,,,,,,,,,,,,,,,,,,,,,,45,D,2024-05-22_08h09.17.774,attentional_competition_task,2022.2.4,143.9478563604624,
positions.xlsx,positions_test.xlsx,positions_test_new.xlsx,stimuli.xlsx,stimuli_new.xlsx,stimuli/Social4.png,stimuli/Social3.png,stimuli/Nonsocial4.png,stimuli/Nonsocial3.png,stimuli/Social2.png,stimuli/Social1.png,stimuli/Nonsocial2.png,stimuli/Nonsocial1.png,,,"(-0.7, -0.5)",cs_pos_s,"(-0.7, 0.5)",cs_neg_s,"(0.7, -0.5)",cs_pos_ns,"(0.7, 0.5)",cs_neg_ns,0,0,0,0,,,,,,,,,,,,,,,,,,,,,0,0,0,7,,,,,,,,,,,,,,,,,,,,,,,,,,,39,loss,,,,,847.1328671999509,854.6742369999411,854.6742369999411,854.6742369999411,854.6742369999411,0,,,1,0.0299966000020504,0.09269360010512173,0,,,0,,,855.2645720000146,855.2645720000146,855.2645720000146,855.2645720000146,45,D,2024-05-22_08h09.17.774,attentional_competition_task,2022.2.4,143.9478563604624,
positions.xlsx,positions_test.xlsx,positions_test_new.xlsx,stimuli.xlsx,stimuli_new.xlsx,stimuli/Social4.png,stimuli/Social3.png,stimuli/Nonsocial4.png,stimuli/Nonsocial3.png,stimuli/Social2.png,stimuli/Social1.png,stimuli/Nonsocial2.png,stimuli/Nonsocial1.png,,,"(-0.7, -0.5)",cs_neg_s,"(-0.7, 0.5)",cs_pos_ns,"(0.7, -0.5)",cs_neg_ns,"(0.7, 0.5)",cs_pos_s,0,0,0,0,,,,,,,,,,,,,,,,,,,,,0,1,1,5,,,,,,,,,,,,,,,,,,,,,,,,,,,36,loss,,,,,,863.0558632999891,863.0558632999891,863.0558632999891,863.0558632999891,0,,,0,,,1,0.024256299948319793,0.25411219999659806,0,,,863.8197069999296,863.8197069999296,863.8197069999296,863.8197069999296,45,D,2024-05-22_08h09.17.774,attentional_competition_task,2022.2.4,143.9478563604624,
positions.xlsx,positions_test.xlsx,positions_test_new.xlsx,stimuli.xlsx,stimuli_new.xlsx,stimuli/Social4.png,stimuli/Social3.png,stimuli/Nonsocial4.png,stimuli/Nonsocial3.png,stimuli/Social2.png,stimuli/Social1.png,stimuli/Nonsocial2.png,stimuli/Nonsocial1.png,,,"(-0.7, -0.5)",cs_pos_ns,"(-0.7, 0.5)",cs_pos_s,"(0.7, -0.5)",cs_neg_s,"(0.7, 0.5)",cs_neg_ns,0,0,0,0,,,,,,,,,,,,,,,,,,,,,0,2,2,19,,,,,,,,,,,,,,,,,,,,,,,,,,,42,reward,,,,,,872.0624309999403,872.0624309999403,872.0624309999403,872.0624309999403,1,0.21078869991470128,0.2107927999459207,1,0.030375399976037443,0.19688419997692108,0,,,0,,,872.2776752000209,872.2776752000209,872.2776752000209,872.2776752000209,45,D,2024-05-22_08h09.17.774,attentional_competition_task,2022.2.4,143.9478563604624,
positions.xlsx,positions_test.xlsx,positions_test_new.xlsx,stimuli.xlsx,stimuli_new.xlsx,stimuli/Social4.png,stimuli/Social3.png,stimuli/Nonsocial4.png,stimuli/Nonsocial3.png,stimuli/Social2.png,stimuli/Social1.png,stimuli/Nonsocial2.png,stimuli/Nonsocial1.png,,,"(-0.7, -0.5)",cs_pos_s,"(-0.7, 0.5)",cs_pos_ns,"(0.7, -0.5)",cs_neg_s,"(0.7, 0.5)",cs_neg_ns,0,0,0,0,,,,,,,,,,,,,,,,,,,,,0,3,3,10,,,,,,,,,,,,,,,,,,,,,,,,,,,48,reward,,,,,,881.1315299000125,881.1315299000125,881.1315299000125,881.1315299000125,0,,,1,0.030001800041645765,0.03000550006981939,0,,,0,,,881.1315299000125,881.1315299000125,881.1315299000125,881.1315299000125,45,D,2024-05-22_08h09.17.774,attentional_competition_task,2022.2.4,143.9478563604624,
positions.xlsx,positions_test.xlsx,positions_test_new.xlsx,stimuli.xlsx,stimuli_new.xlsx,stimuli/Social4.png,stimuli/Social3.png,stimuli/Nonsocial4.png,stimuli/Nonsocial3.png,stimuli/Social2.png,stimuli/Social1.png,stimuli/Nonsocial2.png,stimuli/Nonsocial1.png,,,"(-0.7, -0.5)",cs_pos_s,"(-0.7, 0.5)",cs_neg_s,"(0.7, -0.5)",cs_neg_ns,"(0.7, 0.5)",cs_pos_ns,0,0,0,0,,,,,,,,,,,,,,,,,,,,,0,4,4,6,,,,,,,,,,,,,,,,,,,,,,,,,,,48,reward,,,,,,889.8672607999761,889.8672607999761,889.8672607999761,889.8672607999761,1,0.027839799993671477,0.027843400021083653,0,,,0,,,0,,,889.8672607999761,889.8672607999761,889.8672607999761,889.8672607999761,45,D,2024-05-22_08h09.17.774,attentional_competition_task,2022.2.4,143.9478563604624,
positions.xlsx,positions_test.xlsx,positions_test_new.xlsx,stimuli.xlsx,stimuli_new.xlsx,stimuli/Social4.png,stimuli/Social3.png,stimuli/Nonsocial4.png,stimuli/Nonsocial3.png,stimuli/Social2.png,stimuli/Social1.png,stimuli/Nonsocial2.png,stimuli/Nonsocial1.png,,,"(-0.7, -0.5)",cs_neg_ns,"(-0.7, 0.5)",cs_pos_s,"(0.7, -0.5)",cs_pos_ns,"(0.7, 0.5)",cs_neg_s,0,0,0,0,,,,,,,,,,,,,,,,,,,,,0,5,5,13,,,,,,,,,,,,,,,,,,,,,,,,,,,51,reward,,,,,,898.5127530000173,898.5127530000173,898.5127530000173,898.5127530000173,0,,,0,,,1,0.023743500001728535,0.02374740003142506,0,,,898.5127530000173,898.5127530000173,898.5127530000173,898.5127530000173,45,D,2024-05-22_08h09.17.774,attentional_competition_task,2022.2.4,143.9478563604624,
positions.xlsx,positions_test.xlsx,positions_test_new.xlsx,stimuli.xlsx,stimuli_new.xlsx,stimuli/Social4.png,stimuli/Social3.png,stimuli/Nonsocial4.png,stimuli/Nonsocial3.png,stimuli/Social2.png,stimuli/Social1.png,stimuli/Nonsocial2.png,stimuli/Nonsocial1.png,,,"(-0.7, -0.5)",cs_neg_ns,"(-0.7, 0.5)",cs_pos_ns,"(0.7, -0.5)",cs_pos_s,"(0.7, 0.5)",cs_neg_s,0,0,0,0,,,,,,,,,,,,,,,,,,,,,0,6,6,16,,,,,,,,,,,,,,,,,,,,,,,,,,,51,loss,,,,,,907.4915732999798,907.4915732999798,907.4915732999798,907.4915732999798,1,0.1482094000093639,0.14821340003982186,0,,,1,0.031476099975407124,0.06593439995776862,0,,,907.6304620999144,907.6304620999144,907.6304620999144,907.6304620999144,45,D,2024-05-22_08h09.17.774,attentional_competition_task,2022.2.4,143.9478563604624,
positions.xlsx,positions_test.xlsx,positions_test_new.xlsx,stimuli.xlsx,stimuli_new.xlsx,stimuli/Social4.png,stimuli/Social3.png,stimuli/Nonsocial4.png,stimuli/Nonsocial3.png,stimuli/Social2.png,stimuli/Social1.png,stimuli/Nonsocial2.png,stimuli/Nonsocial1.png,,,"(-0.7, -0.5)",cs_pos_ns,"(-0.7, 0.5)",cs_pos_s,"(0.7, -0.5)",cs_neg_ns,"(0.7, 0.5)",cs_neg_s,0,0,0,0,,,,,,,,,,,,,,,,,,,,,0,7,7,18,,,,,,,,,,,,,,,,,,,,,,,,,,,60,reward,,,,,,916.5537444999209,916.5537444999209,916.5537444999209,916.5537444999209,0,,,0,,,0,,,0,,,917.3314711999847,917.3314711999847,917.3314711999847,917.3314711999847,45,D,2024-05-22_08h09.17.774,attentional_competition_task,2022.2.4,143.9478563604624,
positions.xlsx,positions_test.xlsx,positions_test_new.xlsx,stimuli.xlsx,stimuli_new.xlsx,stimuli/Social4.png,stimuli/Social3.png,stimuli/Nonsocial4.png,stimuli/Nonsocial3.png,stimuli/Social2.png,stimuli/Social1.png,stimuli/Nonsocial2.png,stimuli/Nonsocial1.png,,,"(-0.7, -0.5)",cs_pos_s,"(-0.7, 0.5)",cs_pos_ns,"(0.7, -0.5)",cs_neg_ns,"(0.7, 0.5)",cs_neg_s,0,0,0,0,,,,,,,,,,,,,,,,,,,,,0,8,8,11,,,,,,,,,,,,,,,,,,,,,,,,,,,66,reward,,,,,,924.9214965000283,924.9214965000283,924.9214965000283,924.9214965000283,1,0.024296600022353232,0.2042549999896437,1,0.35046490002423525,0.35046879993751645,0,,,0,,,925.275617999956,925.275617999956,925.275617999956,925.275617999956,45,D,2024-05-22_08h09.17.774,attentional_competition_task,2022.2.4,143.9478563604624,
positions.xlsx,positions_test.xlsx,positions_test_new.xlsx,stimuli.xlsx,stimuli_new.xlsx,stimuli/Social4.png,stimuli/Social3.png,stimuli/Nonsocial4.png,stimuli/Nonsocial3.png,stimuli/Social2.png,stimuli/Social1.png,stimuli/Nonsocial2.png,stimuli/Nonsocial1.png,,,"(-0.7, -0.5)",cs_neg_s,"(-0.7, 0.5)",cs_neg_ns,"(0.7, -0.5)",cs_pos_ns,"(0.7, 0.5)",cs_pos_s,0,0,0,0,,,,,,,,,,,,,,,,,,,,,0,9,9,3,,,,,,,,,,,,,,,,,,,,,,,,,,,72,reward,,,,,,933.3585916999727,933.3585916999727,933.3585916999727,933.3585916999727,0,,,0,,,0,,,1,0.023041000007651746,0.02304490003734827,933.3585916999727,933.3585916999727,933.3585916999727,933.3585916999727,45,D,2024-05-22_08h09.17.774,attentional_competition_task,2022.2.4,143.9478563604624,
positions.xlsx,positions_test.xlsx,positions_test_new.xlsx,stimuli.xlsx,stimuli_new.xlsx,stimuli/Social4.png,stimuli/Social3.png,stimuli/Nonsocial4.png,stimuli/Nonsocial3.png,stimuli/Social2.png,stimuli/Social1.png,stimuli/Nonsocial2.png,stimuli/Nonsocial1.png,,,"(-0.7, -0.5)",cs_neg_ns,"(-0.7, 0.5)",cs_pos_s,"(0.7, -0.5)",cs_neg_s,"(0.7, 0.5)",cs_pos_ns,0,0,0,0,,,,,,,,,,,,,,,,,,,,,0,10,10,12,,,,,,,,,,,,,,,,,,,,,,,,,,,75,reward,,,,,,942.3721172999358,942.3721172999358,942.3721172999358,942.3721172999358,0,,,0,,,0,,,1,0.029514199937693775,0.0295178999658674,942.3721172999358,942.3721172999358,942.3721172999358,942.3721172999358,45,D,2024-05-22_08h09.17.774,attentional_competition_task,2022.2.4,143.9478563604624,
positions.xlsx,positions_test.xlsx,positions_test_new.xlsx,stimuli.xlsx,stimuli_new.xlsx,stimuli/Social4.png,stimuli/Social3.png,stimuli/Nonsocial4.png,stimuli/Nonsocial3.png,stimuli/Social2.png,stimuli/Social1.png,stimuli/Nonsocial2.png,stimuli/Nonsocial1.png,,,"(-0.7, -0.5)",cs_pos_ns,"(-0.7, 0.5)",cs_neg_ns,"(0.7, -0.5)",cs_pos_s,"(0.7, 0.5)",cs_neg_s,0,0,0,0,,,,,,,,,,,,,,,,,,,,,0,11,11,20,,,,,,,,,,,,,,,,,,,,,,,,,,,75,loss,,,,,,950.0662351999199,950.0662351999199,950.0662351999199,950.0662351999199,0,,,1,0.5084737000288442,0.5084775999421254,1,0.027597000007517636,0.2657999999355525,0,,,950.580105299945,950.580105299945,950.580105299945,950.580105299945,45,D,2024-05-22_08h09.17.774,attentional_competition_task,2022.2.4,143.9478563604624,
positions.xlsx,positions_test.xlsx,positions_test_new.xlsx,stimuli.xlsx,stimuli_new.xlsx,stimuli/Social4.png,stimuli/Social3.png,stimuli/Nonsocial4.png,stimuli/Nonsocial3.png,stimuli/Social2.png,stimuli/Social1.png,stimuli/Nonsocial2.png,stimuli/Nonsocial1.png,,,"(-0.7, -0.5)",cs_neg_ns,"(-0.7, 0.5)",cs_pos_ns,"(0.7, -0.5)",cs_neg_s,"(0.7, 0.5)",cs_pos_s,0,0,0,0,,,,,,,,,,,,,,,,,,,,,0,12,12,17,,,,,,,,,,,,,,,,,,,,,,,,,,,72,loss,,,,,,959.0242356000235,959.0242356000235,959.0242356000235,959.0242356000235,1,0.02947670000139624,0.029480299912393093,0,,,0,,,0,,,959.0242356000235,959.0242356000235,959.0242356000235,959.0242356000235,45,D,2024-05-22_08h09.17.774,attentional_competition_task,2022.2.4,143.9478563604624,
positions.xlsx,positions_test.xlsx,positions_test_new.xlsx,stimuli.xlsx,stimuli_new.xlsx,stimuli/Social4.png,stimuli/Social3.png,stimuli/Nonsocial4.png,stimuli/Nonsocial3.png,stimuli/Social2.png,stimuli/Social1.png,stimuli/Nonsocial2.png,stimuli/Nonsocial1.png,,,"(-0.7, -0.5)",cs_pos_s,"(-0.7, 0.5)",cs_neg_ns,"(0.7, -0.5)",cs_pos_ns,"(0.7, 0.5)",cs_neg_s,0,0,0,0,,,,,,,,,,,,,,,,,,,,,0,13,13,9,,,,,,,,,,,,,,,,,,,,,,,,,,,75,loss,,,,,,967.218401900027,967.218401900027,967.218401900027,967.218401900027,0,,,0,,,0,,,1,0.02997130004223436,0.029975000070407987,967.218401900027,967.218401900027,967.218401900027,967.218401900027,45,D,2024-05-22_08h09.17.774,attentional_competition_task,2022.2.4,143.9478563604624,
positions.xlsx,positions_test.xlsx,positions_test_new.xlsx,stimuli.xlsx,stimuli_new.xlsx,stimuli/Social4.png,stimuli/Social3.png,stimuli/Nonsocial4.png,stimuli/Nonsocial3.png,stimuli/Social2.png,stimuli/Social1.png,stimuli/Nonsocial2.png,stimuli/Nonsocial1.png,,,"(-0.7, -0.5)",cs_pos_ns,"(-0.7, 0.5)",cs_neg_s,"(0.7, -0.5)",cs_pos_s,"(0.7, 0.5)",cs_neg_ns,0,0,0,0,,,,,,,,,,,,,,,,,,,,,0,14,14,22,,,,,,,,,,,,,,,,,,,,,,,,,,,81,reward,,,,,,974.676386600011,974.676386600011,974.676386600011,974.676386600011,1,0.5510855000466108,0.5510891999583691,0,,,1,0.03059820004273206,0.35750030004419386,0,,,975.724964199937,975.724964199937,975.724964199937,975.724964199937,45,D,2024-05-22_08h09.17.774,attentional_competition_task,2022.2.4,143.9478563604624,
positions.xlsx,positions_test.xlsx,positions_test_new.xlsx,stimuli.xlsx,stimuli_new.xlsx,stimuli/Social4.png,stimuli/Social3.png,stimuli/Nonsocial4.png,stimuli/Nonsocial3.png,stimuli/Social2.png,stimuli/Social1.png,stimuli/Nonsocial2.png,stimuli/Nonsocial1.png,,,"(-0.7, -0.5)",cs_neg_ns,"(-0.7, 0.5)",cs_neg_s,"(0.7, -0.5)",cs_pos_ns,"(0.7, 0.5)",cs_pos_s,0,0,0,0,,,,,,,,,,,,,,,,,,,,,0,15,15,15,,,,,,,,,,,,,,,,,,,,,,,,,,,90,reward,,,,,,983.4121347999899,983.4121347999899,983.4121347999899,983.4121347999899,0,,,0,,,1,0.022852499969303608,0.25321919994894415,0,,,984.1760425999528,984.1760425999528,984.1760425999528,984.1760425999528,45,D,2024-05-22_08h09.17.774,attentional_competition_task,2022.2.4,143.9478563604624,
positions.xlsx,positions_test.xlsx,positions_test_new.xlsx,stimuli.xlsx,stimuli_new.xlsx,stimuli/Social4.png,stimuli/Social3.png,stimuli/Nonsocial4.png,stimuli/Nonsocial3.png,stimuli/Social2.png,stimuli/Social1.png,stimuli/Nonsocial2.png,stimuli/Nonsocial1.png,,,"(-0.7, -0.5)",cs_neg_s,"(-0.7, 0.5)",cs_neg_ns,"(0.7, -0.5)",cs_pos_s,"(0.7, 0.5)",cs_pos_ns,0,0,0,0,,,,,,,,,,,,,,,,,,,,,0,16,16,2,,,,,,,,,,,,,,,,,,,,,,,,,,,93,loss,,,,,,991.2937495999504,991.2937495999504,991.2937495999504,991.2937495999504,0,,,0,,,0,,,0,,,991.7382044999395,991.7382044999395,991.7382044999395,991.7382044999395,45,D,2024-05-22_08h09.17.774,attentional_competition_task,2022.2.4,143.9478563604624,
positions.xlsx,positions_test.xlsx,positions_test_new.xlsx,stimuli.xlsx,stimuli_new.xlsx,stimuli/Social4.png,stimuli/Social3.png,stimuli/Nonsocial4.png,stimuli/Nonsocial3.png,stimuli/Social2.png,stimuli/Social1.png,stimuli/Nonsocial2.png,stimuli/Nonsocial1.png,,,"(-0.7, -0.5)",cs_pos_s,"(-0.7, 0.5)",cs_neg_ns,"(0.7, -0.5)",cs_neg_s,"(0.7, 0.5)",cs_pos_ns,0,0,0,0,,,,,,,,,,,,,,,,,,,,,0,17,17,8,,,,,,,,,,,,,,,,,,,,,,,,,,,99,reward,,,,,,999.9739875999512,999.9739875999512,999.9739875999512,999.9739875999512,1,0.028776100021786988,0.27306929999031126,0,,,0,,,0,,,1000.3420164999552,1000.3420164999552,1000.3420164999552,1000.3420164999552,45,D,2024-05-22_08h09.17.774,attentional_competition_task,2022.2.4,143.9478563604624,
positions.xlsx,positions_test.xlsx,positions_test_new.xlsx,stimuli.xlsx,stimuli_new.xlsx,stimuli/Social4.png,stimuli/Social3.png,stimuli/Nonsocial4.png,stimuli/Nonsocial3.png,stimuli/Social2.png,stimuli/Social1.png,stimuli/Nonsocial2.png,stimuli/Nonsocial1.png,,,"(-0.7, -0.5)",cs_neg_s,"(-0.7, 0.5)",cs_pos_s,"(0.7, -0.5)",cs_pos_ns,"(0.7, 0.5)",cs_neg_ns,0,0,0,0,,,,,,,,,,,,,,,,,,,,,0,18,18,1,,,,,,,,,,,,,,,,,,,,,,,,,,,105,reward,,,,,,1007.8070021999301,1007.8070021999301,1007.8070021999301,1007.8070021999301,0,,,1,0.03042650001589209,0.3147305999882519,1,0.40495849994476885,0.4049618999706581,0,,,1008.2097380999476,1008.2097380999476,1008.2097380999476,1008.2097380999476,45,D,2024-05-22_08h09.17.774,attentional_competition_task,2022.2.4,143.9478563604624,
positions.xlsx,positions_test.xlsx,positions_test_new.xlsx,stimuli.xlsx,stimuli_new.xlsx,stimuli/Social4.png,stimuli/Social3.png,stimuli/Nonsocial4.png,stimuli/Nonsocial3.png,stimuli/Social2.png,stimuli/Social1.png,stimuli/Nonsocial2.png,stimuli/Nonsocial1.png,,,"(-0.7, -0.5)",cs_neg_s,"(-0.7, 0.5)",cs_pos_ns,"(0.7, -0.5)",cs_pos_s,"(0.7, 0.5)",cs_neg_ns,0,0,0,0,,,,,,,,,,,,,,,,,,,,,0,19,19,4,,,,,,,,,,,,,,,,,,,,,,,,,,,111,reward,,,,,,1016.1816828999436,1016.1816828999436,1016.1816828999436,1016.1816828999436,0,,,1,0.4528698999201879,0.45935999997891486,0,,,0,,,1016.633047399926,1016.633047399926,1016.633047399926,1016.633047399926,45,D,2024-05-22_08h09.17.774,attentional_competition_task,2022.2.4,143.9478563604624,
positions.xlsx,positions_test.xlsx,positions_test_new.xlsx,stimuli.xlsx,stimuli_new.xlsx,stimuli/Social4.png,stimuli/Social3.png,stimuli/Nonsocial4.png,stimuli/Nonsocial3.png,stimuli/Social2.png,stimuli/Social1.png,stimuli/Nonsocial2.png,stimuli/Nonsocial1.png,,,"(-0.7, -0.5)",cs_pos_ns,"(-0.7, 0.5)",cs_neg_s,"(0.7, -0.5)",cs_neg_ns,"(0.7, 0.5)",cs_pos_s,0,0,0,0,,,,,,,,,,,,,,,,,,,,,0,20,20,23,,,,,,,,,,,,,,,,,,,,,,,,,,,111,loss,,,,,,1025.2438206999796,1025.2438206999796,1025.2438206999796,1025.2438206999796,0,,,0,,,1,0.02997109992429614,0.029974899953231215,0,,,1025.2438206999796,1025.2438206999796,1025.2438206999796,1025.2438206999796,45,D,2024-05-22_08h09.17.774,attentional_competition_task,2022.2.4,143.9478563604624,
positions.xlsx,positions_test.xlsx,positions_test_new.xlsx,stimuli.xlsx,stimuli_new.xlsx,stimuli/Social4.png,stimuli/Social3.png,stimuli/Nonsocial4.png,stimuli/Nonsocial3.png,stimuli/Social2.png,stimuli/Social1.png,stimuli/Nonsocial2.png,stimuli/Nonsocial1.png,,,"(-0.7, -0.5)",cs_neg_s,"(-0.7, 0.5)",cs_pos_s,"(0.7, -0.5)",cs_neg_ns,"(0.7, 0.5)",cs_pos_ns,0,0,0,0,,,,,,,,,,,,,,,,,,,,,0,21,21,0,,,,,,,,,,,,,,,,,,,,,,,,,,,111,loss,,,,,,1032.7712869999232,1032.7712869999232,1032.7712869999232,1032.7712869999232,0,,,1,0.028278399957343936,0.28631759993731976,1,0.3833644000114873,0.38336999993771315,0,,,1033.160216499935,1033.160216499935,1033.160216499935,1033.160216499935,45,D,2024-05-22_08h09.17.774,attentional_competition_task,2022.2.4,143.9478563604624,
positions.xlsx,positions_test.xlsx,positions_test_new.xlsx,stimuli.xlsx,stimuli_new.xlsx,stimuli/Social4.png,stimuli/Social3.png,stimuli/Nonsocial4.png,stimuli/Nonsocial3.png,stimuli/Social2.png,stimuli/Social1.png,stimuli/Nonsocial2.png,stimuli/Nonsocial1.png,,,"(-0.7, -0.5)",cs_pos_ns,"(-0.7, 0.5)",cs_neg_ns,"(0.7, -0.5)",cs_neg_s,"(0.7, 0.5)",cs_pos_s,0,0,0,0,,,,,,,,,,,,,,,,,,,,,0,22,22,21,,,,,,,,,,,,,,,,,,,,,,,,,,,114,reward,,,,,,1042.4444769999245,1042.4444769999245,1042.4444769999245,1042.4444769999245,1,0.023580300039611757,0.023597000050358474,0,,,0,,,0,,,1042.4444769999245,1042.4444769999245,1042.4444769999245,1042.4444769999245,45,D,2024-05-22_08h09.17.774,attentional_competition_task,2022.2.4,143.9478563604624,
positions.xlsx,positions_test.xlsx,positions_test_new.xlsx,stimuli.xlsx,stimuli_new.xlsx,stimuli/Social4.png,stimuli/Social3.png,stimuli/Nonsocial4.png,stimuli/Nonsocial3.png,stimuli/Social2.png,stimuli/Social1.png,stimuli/Nonsocial2.png,stimuli/Nonsocial1.png,,,"(-0.7, -0.5)",cs_neg_ns,"(-0.7, 0.5)",cs_neg_s,"(0.7, -0.5)",cs_pos_s,"(0.7, 0.5)",cs_pos_ns,0,0,0,0,,,,,,,,,,,,,,,,,,,,,0,23,23,14,,,,,,,,,,,,,,,,,,,,,,,,,,,123,reward,,,,,,1051.478933300008,1051.478933300008,1051.478933300008,1051.478933300008,0,,,0,,,0,,,0,,,1051.478933300008,1051.478933300008,1051.478933300008,1051.478933300008,45,D,2024-05-22_08h09.17.774,attentional_competition_task,2022.2.4,143.9478563604624,
positions.xlsx,positions_test.xlsx,positions_test_new.xlsx,stimuli.xlsx,stimuli_new.xlsx,stimuli/Social4.png,stimuli/Social3.png,stimuli/Nonsocial4.png,stimuli/Nonsocial3.png,stimuli/Social2.png,stimuli/Social1.png,stimuli/Nonsocial2.png,stimuli/Nonsocial1.png,,,"(-0.7, -0.5)",cs_neg_s,"(-0.7, 0.5)",cs_pos_ns,"(0.7, -0.5)",cs_pos_s,"(0.7, 0.5)",cs_neg_ns,0,0,0,0,,,,,,,,,,,,,,,,,,,,,1,0,24,4,,,,,,,,,,,,,,,,,,,,,,,,,,,126,reward,,,,,,1059.7701833000174,1059.7701833000174,1059.7701833000174,1059.7701833000174,0,,,1,0.023162600002251565,0.02316650003194809,0,,,0,,,1059.7701833000174,1059.7701833000174,1059.7701833000174,1059.7701833000174,45,D,2024-05-22_08h09.17.774,attentional_competition_task,2022.2.4,143.9478563604624,
positions.xlsx,positions_test.xlsx,positions_test_new.xlsx,stimuli.xlsx,stimuli_new.xlsx,stimuli/Social4.png,stimuli/Social3.png,stimuli/Nonsocial4.png,stimuli/Nonsocial3.png,stimuli/Social2.png,stimuli/Social1.png,stimuli/Nonsocial2.png,stimuli/Nonsocial1.png,,,"(-0.7, -0.5)",cs_neg_s,"(-0.7, 0.5)",cs_pos_s,"(0.7, -0.5)",cs_neg_ns,"(0.7, 0.5)",cs_pos_ns,0,0,0,0,,,,,,,,,,,,,,,,,,,,,1,1,25,0,,,,,,,,,,,,,,,,,,,,,,,,,,,126,loss,,,,,,1067.401832500007,1067.401832500007,1067.401832500007,1067.401832500007,0,,,1,0.021827899967320263,0.3921782999532297,1,0.621837200014852,0.6218411999288946,0,,,1068.033761599916,1068.033761599916,1068.033761599916,1068.033761599916,45,D,2024-05-22_08h09.17.774,attentional_competition_task,2022.2.4,143.9478563604624,
positions.xlsx,positions_test.xlsx,positions_test_new.xlsx,stimuli.xlsx,stimuli_new.xlsx,stimuli/Social4.png,stimuli/Social3.png,stimuli/Nonsocial4.png,stimuli/Nonsocial3.png,stimuli/Social2.png,stimuli/Social1.png,stimuli/Nonsocial2.png,stimuli/Nonsocial1.png,,,"(-0.7, -0.5)",cs_neg_ns,"(-0.7, 0.5)",cs_pos_s,"(0.7, -0.5)",cs_pos_ns,"(0.7, 0.5)",cs_neg_s,0,0,0,0,,,,,,,,,,,,,,,,,,,,,1,2,26,13,,,,,,,,,,,,,,,,,,,,,,,,,,,126,reward,,,,,,1077.2278579999693,1077.2278579999693,1077.2278579999693,1077.2278579999693,1,0.028176099993288517,0.06351560004986823,1,0.07759430003352463,0.07759799994528294,0,,,0,,,1077.3111396000022,1077.3111396000022,1077.3111396000022,1077.3111396000022,45,D,2024-05-22_08h09.17.774,attentional_competition_task,2022.2.4,143.9478563604624,
positions.xlsx,positions_test.xlsx,positions_test_new.xlsx,stimuli.xlsx,stimuli_new.xlsx,stimuli/Social4.png,stimuli/Social3.png,stimuli/Nonsocial4.png,stimuli/Nonsocial3.png,stimuli/Social2.png,stimuli/Social1.png,stimuli/Nonsocial2.png,stimuli/Nonsocial1.png,,,"(-0.7, -0.5)",cs_neg_ns,"(-0.7, 0.5)",cs_pos_s,"(0.7, -0.5)",cs_neg_s,"(0.7, 0.5)",cs_pos_ns,0,0,0,0,,,,,,,,,,,,,,,,,,,,,1,3,27,12,,,,,,,,,,,,,,,,,,,,,,,,,,,123,loss,,,,,,1085.331655899994,1085.331655899994,1085.331655899994,1085.331655899994,1,0.024081100011244416,0.19710160000249743,0,,,0,,,0,,,1086.0330481999554,1086.0330481999554,1086.0330481999554,1086.0330481999554,45,D,2024-05-22_08h09.17.774,attentional_competition_task,2022.2.4,143.9478563604624,
positions.xlsx,positions_test.xlsx,positions_test_new.xlsx,stimuli.xlsx,stimuli_new.xlsx,stimuli/Social4.png,stimuli/Social3.png,stimuli/Nonsocial4.png,stimuli/Nonsocial3.png,stimuli/Social2.png,stimuli/Social1.png,stimuli/Nonsocial2.png,stimuli/Nonsocial1.png,,,"(-0.7, -0.5)",cs_neg_s,"(-0.7, 0.5)",cs_pos_ns,"(0.7, -0.5)",cs_neg_ns,"(0.7, 0.5)",cs_pos_s,0,0,0,0,,,,,,,,,,,,,,,,,,,,,1,4,28,5,,,,,,,,,,,,,,,,,,,,,,,,,,,129,reward,,,,,,1092.560544900014,1092.560544900014,1092.560544900014,1092.560544900014,0,,,1,0.030284499982371926,0.1273746999213472,0,,,1,0.36371479998342693,0.36371830001007766,1092.9285968999611,1092.9285968999611,1092.9285968999611,1092.9285968999611,45,D,2024-05-22_08h09.17.774,attentional_competition_task,2022.2.4,143.9478563604624,
positions.xlsx,positions_test.xlsx,positions_test_new.xlsx,stimuli.xlsx,stimuli_new.xlsx,stimuli/Social4.png,stimuli/Social3.png,stimuli/Nonsocial4.png,stimuli/Nonsocial3.png,stimuli/Social2.png,stimuli/Social1.png,stimuli/Nonsocial2.png,stimuli/Nonsocial1.png,,,"(-0.7, -0.5)",cs_pos_ns,"(-0.7, 0.5)",cs_neg_ns,"(0.7, -0.5)",cs_pos_s,"(0.7, 0.5)",cs_neg_s,0,0,0,0,,,,,,,,,,,,,,,,,,,,,1,5,29,20,,,,,,,,,,,,,,,,,,,,,,,,,,,129,loss,,,,,,1101.3171520999167,1101.3171520999167,1101.3171520999167,1101.3171520999167,0,,,1,0.3990983000257984,0.4053649000125006,1,0.030430100043304265,0.1831832000752911,0,,,1101.7199077999685,1101.7199077999685,1101.7199077999685,1101.7199077999685,45,D,2024-05-22_08h09.17.774,attentional_competition_task,2022.2.4,143.9478563604624,
positions.xlsx,positions_test.xlsx,positions_test_new.xlsx,stimuli.xlsx,stimuli_new.xlsx,stimuli/Social4.png,stimuli/Social3.png,stimuli/Nonsocial4.png,stimuli/Nonsocial3.png,stimuli/Social2.png,stimuli/Social1.png,stimuli/Nonsocial2.png,stimuli/Nonsocial1.png,,,"(-0.7, -0.5)",cs_pos_ns,"(-0.7, 0.5)",cs_neg_s,"(0.7, -0.5)",cs_pos_s,"(0.7, 0.5)",cs_neg_ns,0,0,0,0,,,,,,,,,,,,,,,,,,,,,1,6,30,22,,,,,,,,,,,,,,,,,,,,,,,,,,,126,loss,,,,,,1110.3653898999328,1110.3653898999328,1110.3653898999328,1110.3653898999328,0,,,0,,,0,,,1,0.03196589997969568,0.07218459993600845,1110.9348559000064,1110.9348559000064,1110.9348559000064,1110.9348559000064,45,D,2024-05-22_08h09.17.774,attentional_competition_task,2022.2.4,143.9478563604624,
positions.xlsx,positions_test.xlsx,positions_test_new.xlsx,stimuli.xlsx,stimuli_new.xlsx,stimuli/Social4.png,stimuli/Social3.png,stimuli/Nonsocial4.png,stimuli/Nonsocial3.png,stimuli/Social2.png,stimuli/Social1.png,stimuli/Nonsocial2.png,stimuli/Nonsocial1.png,,,"(-0.7, -0.5)",cs_neg_s,"(-0.7, 0.5)",cs_neg_ns,"(0.7, -0.5)",cs_pos_ns,"(0.7, 0.5)",cs_pos_s,0,0,0,0,,,,,,,,,,,,,,,,,,,,,1,7,31,3,,,,,,,,,,,,,,,,,,,,,,,,,,,129,reward,,,,,,1117.0943006000016,1117.0943006000016,1117.0943006000016,1117.0943006000016,0,,,0,,,0,,,1,1.5178982999641448,1.5179021999938414,1118.6150673999218,1118.6150673999218,1118.6150673999218,1118.6150673999218,45,D,2024-05-22_08h09.17.774,attentional_competition_task,2022.2.4,143.9478563604624,
positions.xlsx,positions_test.xlsx,positions_test_new.xlsx,stimuli.xlsx,stimuli_new.xlsx,stimuli/Social4.png,stimuli/Social3.png,stimuli/Nonsocial4.png,stimuli/Nonsocial3.png,stimuli/Social2.png,stimuli/Social1.png,stimuli/Nonsocial2.png,stimuli/Nonsocial1.png,,,"(-0.7, -0.5)",cs_neg_ns,"(-0.7, 0.5)",cs_neg_s,"(0.7, -0.5)",cs_pos_ns,"(0.7, 0.5)",cs_pos_s,0,0,0,0,,,,,,,,,,,,,,,,,,,,,1,8,32,15,,,,,,,,,,,,,,,,,,,,,,,,,,,138,reward,,,,,,1128.0660604999866,1128.0660604999866,1128.0660604999866,1128.0660604999866,0,,,0,,,0,,,0,,,1128.6146813000087,1128.6146813000087,1128.6146813000087,1128.6146813000087,45,D,2024-05-22_08h09.17.774,attentional_competition_task,2022.2.4,143.9478563604624,
positions.xlsx,positions_test.xlsx,positions_test_new.xlsx,stimuli.xlsx,stimuli_new.xlsx,stimuli/Social4.png,stimuli/Social3.png,stimuli/Nonsocial4.png,stimuli/Nonsocial3.png,stimuli/Social2.png,stimuli/Social1.png,stimuli/Nonsocial2.png,stimuli/Nonsocial1.png,,,"(-0.7, -0.5)",cs_pos_ns,"(-0.7, 0.5)",cs_pos_s,"(0.7, -0.5)",cs_neg_s,"(0.7, 0.5)",cs_neg_ns,0,0,0,0,,,,,,,,,,,,,,,,,,,,,1,9,33,19,,,,,,,,,,,,,,,,,,,,,,,,,,,147,reward,,,,,,1136.2602002000203,1136.2602002000203,1136.2602002000203,1136.2602002000203,0,,,0,,,0,,,0,,,1137.0379665999208,1137.0379665999208,1137.0379665999208,1137.0379665999208,45,D,2024-05-22_08h09.17.774,attentional_competition_task,2022.2.4,143.9478563604624,
positions.xlsx,positions_test.xlsx,positions_test_new.xlsx,stimuli.xlsx,stimuli_new.xlsx,stimuli/Social4.png,stimuli/Social3.png,stimuli/Nonsocial4.png,stimuli/Nonsocial3.png,stimuli/Social2.png,stimuli/Social1.png,stimuli/Nonsocial2.png,stimuli/Nonsocial1.png,,,"(-0.7, -0.5)",cs_pos_s,"(-0.7, 0.5)",cs_neg_s,"(0.7, -0.5)",cs_pos_ns,"(0.7, 0.5)",cs_neg_ns,0,0,0,0,,,,,,,,,,,,,,,,,,,,,1,10,34,7,,,,,,,,,,,,,,,,,,,,,,,,,,,153,reward,,,,,,1144.7043292999733,1144.7043292999733,1144.7043292999733,1144.7043292999733,0,,,0,,,1,0.025162399979308248,0.1843339999904856,0,,,1145.3917954999488,1145.3917954999488,1145.3917954999488,1145.3917954999488,45,D,2024-05-22_08h09.17.774,attentional_competition_task,2022.2.4,143.9478563604624,
positions.xlsx,positions_test.xlsx,positions_test_new.xlsx,stimuli.xlsx,stimuli_new.xlsx,stimuli/Social4.png,stimuli/Social3.png,stimuli/Nonsocial4.png,stimuli/Nonsocial3.png,stimuli/Social2.png,stimuli/Social1.png,stimuli/Nonsocial2.png,stimuli/Nonsocial1.png,,,"(-0.7, -0.5)",cs_pos_ns,"(-0.7, 0.5)",cs_pos_s,"(0.7, -0.5)",cs_neg_ns,"(0.7, 0.5)",cs_neg_s,0,0,0,0,,,,,,,,,,,,,,,,,,,,,1,11,35,18,,,,,,,,,,,,,,,,,,,,,,,,,,,162,reward,,,,,,1153.627571500023,1153.627571500023,1153.627571500023,1153.627571500023,1,0.023442600038833916,0.023446799954399467,0,,,0,,,0,,,1153.627571500023,1153.627571500023,1153.627571500023,1153.627571500023,45,D,2024-05-22_08h09.17.774,attentional_competition_task,2022.2.4,143.9478563604624,
positions.xlsx,positions_test.xlsx,positions_test_new.xlsx,stimuli.xlsx,stimuli_new.xlsx,stimuli/Social4.png,stimuli/Social3.png,stimuli/Nonsocial4.png,stimuli/Nonsocial3.png,stimuli/Social2.png,stimuli/Social1.png,stimuli/Nonsocial2.png,stimuli/Nonsocial1.png,,,"(-0.7, -0.5)",cs_pos_s,"(-0.7, 0.5)",cs_pos_ns,"(0.7, -0.5)",cs_neg_ns,"(0.7, 0.5)",cs_neg_s,0,0,0,0,,,,,,,,,,,,,,,,,,,,,1,12,36,11,,,,,,,,,,,,,,,,,,,,,,,,,,,165,reward,,,,,,1161.4119791999692,1161.4119791999692,1161.4119791999692,1161.4119791999692,0,,,1,0.16436099994461983,0.17774189996998757,0,,,0,,,1162.0925157999154,1162.0925157999154,1162.0925157999154,1162.0925157999154,45,D,2024-05-22_08h09.17.774,attentional_competition_task,2022.2.4,143.9478563604624,
positions.xlsx,positions_test.xlsx,positions_test_new.xlsx,stimuli.xlsx,stimuli_new.xlsx,stimuli/Social4.png,stimuli/Social3.png,stimuli/Nonsocial4.png,stimuli/Nonsocial3.png,stimuli/Social2.png,stimuli/Social1.png,stimuli/Nonsocial2.png,stimuli/Nonsocial1.png,,,"(-0.7, -0.5)",cs_neg_ns,"(-0.7, 0.5)",cs_neg_s,"(0.7, -0.5)",cs_pos_s,"(0.7, 0.5)",cs_pos_ns,0,0,0,0,,,,,,,,,,,,,,,,,,,,,1,13,37,14,,,,,,,,,,,,,,,,,,,,,,,,,,,171,reward,,,,,,1170.0921966999304,1170.0921966999304,1170.0921966999304,1170.0921966999304,0,,,0,,,0,,,1,0.03070640005171299,0.030709899961948395,1170.0921966999304,1170.0921966999304,1170.0921966999304,1170.0921966999304,45,D,2024-05-22_08h09.17.774,attentional_competition_task,2022.2.4,143.9478563604624,
positions.xlsx,positions_test.xlsx,positions_test_new.xlsx,stimuli.xlsx,stimuli_new.xlsx,stimuli/Social4.png,stimuli/Social3.png,stimuli/Nonsocial4.png,stimuli/Nonsocial3.png,stimuli/Social2.png,stimuli/Social1.png,stimuli/Nonsocial2.png,stimuli/Nonsocial1.png,,,"(-0.7, -0.5)",cs_neg_s,"(-0.7, 0.5)",cs_pos_s,"(0.7, -0.5)",cs_pos_ns,"(0.7, 0.5)",cs_neg_ns,0,0,0,0,,,,,,,,,,,,,,,,,,,,,1,14,38,1,,,,,,,,,,,,,,,,,,,,,,,,,,,174,reward,,,,,,1177.8279904000228,1177.8279904000228,1177.8279904000228,1177.8279904000228,0,,,1,0.02872699999716133,0.02873110002838075,0,,,0,,,1177.8279904000228,1177.8279904000228,1177.8279904000228,1177.8279904000228,45,D,2024-05-22_08h09.17.774,attentional_competition_task,2022.2.4,143.9478563604624,
positions.xlsx,positions_test.xlsx,positions_test_new.xlsx,stimuli.xlsx,stimuli_new.xlsx,stimuli/Social4.png,stimuli/Social3.png,stimuli/Nonsocial4.png,stimuli/Nonsocial3.png,stimuli/Social2.png,stimuli/Social1.png,stimuli/Nonsocial2.png,stimuli/Nonsocial1.png,,,"(-0.7, -0.5)",cs_pos_ns,"(-0.7, 0.5)",cs_neg_s,"(0.7, -0.5)",cs_neg_ns,"(0.7, 0.5)",cs_pos_s,0,0,0,0,,,,,,,,,,,,,,,,,,,,,1,15,39,23,,,,,,,,,,,,,,,,,,,,,,,,,,,168,loss,,,,,,1185.7373755999142,1185.7373755999142,1185.7373755999142,1185.7373755999142,0,,,0,,,0,,,0,,,1186.7859761000145,1186.7859761000145,1186.7859761000145,1186.7859761000145,45,D,2024-05-22_08h09.17.774,attentional_competition_task,2022.2.4,143.9478563604624,
positions.xlsx,positions_test.xlsx,positions_test_new.xlsx,stimuli.xlsx,stimuli_new.xlsx,stimuli/Social4.png,stimuli/Social3.png,stimuli/Nonsocial4.png,stimuli/Nonsocial3.png,stimuli/Social2.png,stimuli/Social1.png,stimuli/Nonsocial2.png,stimuli/Nonsocial1.png,,,"(-0.7, -0.5)",cs_pos_s,"(-0.7, 0.5)",cs_pos_ns,"(0.7, -0.5)",cs_neg_s,"(0.7, 0.5)",cs_neg_ns,0,0,0,0,,,,,,,,,,,,,,,,,,,,,1,16,40,10,,,,,,,,,,,,,,,,,,,,,,,,,,,168,reward,,,,,,1195.3481269999174,1195.3481269999174,1195.3481269999174,1195.3481269999174,0,,,1,0.030150000005960464,0.030154299922287464,0,,,0,,,1195.3481269999174,1195.3481269999174,1195.3481269999174,1195.3481269999174,45,D,2024-05-22_08h09.17.774,attentional_competition_task,2022.2.4,143.9478563604624,
positions.xlsx,positions_test.xlsx,positions_test_new.xlsx,stimuli.xlsx,stimuli_new.xlsx,stimuli/Social4.png,stimuli/Social3.png,stimuli/Nonsocial4.png,stimuli/Nonsocial3.png,stimuli/Social2.png,stimuli/Social1.png,stimuli/Nonsocial2.png,stimuli/Nonsocial1.png,,,"(-0.7, -0.5)",cs_pos_s,"(-0.7, 0.5)",cs_neg_ns,"(0.7, -0.5)",cs_pos_ns,"(0.7, 0.5)",cs_neg_s,0,0,0,0,,,,,,,,,,,,,,,,,,,,,1,17,41,9,,,,,,,,,,,,,,,,,,,,,,,,,,,174,reward,,,,,,1203.8547260999912,1203.8547260999912,1203.8547260999912,1203.8547260999912,1,0.028322799946181476,0.0283264999743551,0,,,0,,,0,,,1203.8547260999912,1203.8547260999912,1203.8547260999912,1203.8547260999912,45,D,2024-05-22_08h09.17.774,attentional_competition_task,2022.2.4,143.9478563604624,
positions.xlsx,positions_test.xlsx,positions_test_new.xlsx,stimuli.xlsx,stimuli_new.xlsx,stimuli/Social4.png,stimuli/Social3.png,stimuli/Nonsocial4.png,stimuli/Nonsocial3.png,stimuli/Social2.png,stimuli/Social1.png,stimuli/Nonsocial2.png,stimuli/Nonsocial1.png,,,"(-0.7, -0.5)",cs_neg_ns,"(-0.7, 0.5)",cs_pos_ns,"(0.7, -0.5)",cs_neg_s,"(0.7, 0.5)",cs_pos_s,0,0,0,0,,,,,,,,,,,,,,,,,,,,,1,18,42,17,,,,,,,,,,,,,,,,,,,,,,,,,,,171,loss,,,,,,1212.8752384999534,1212.8752384999534,1212.8752384999534,1212.8752384999534,1,0.02368209999985993,0.023686000029556453,0,,,0,,,0,,,1212.8752384999534,1212.8752384999534,1212.8752384999534,1212.8752384999534,45,D,2024-05-22_08h09.17.774,attentional_competition_task,2022.2.4,143.9478563604624,
positions.xlsx,positions_test.xlsx,positions_test_new.xlsx,stimuli.xlsx,stimuli_new.xlsx,stimuli/Social4.png,stimuli/Social3.png,stimuli/Nonsocial4.png,stimuli/Nonsocial3.png,stimuli/Social2.png,stimuli/Social1.png,stimuli/Nonsocial2.png,stimuli/Nonsocial1.png,,,"(-0.7, -0.5)",cs_neg_ns,"(-0.7, 0.5)",cs_pos_ns,"(0.7, -0.5)",cs_pos_s,"(0.7, 0.5)",cs_neg_s,0,0,0,0,,,,,,,,,,,,,,,,,,,,,1,19,43,16,,,,,,,,,,,,,,,,,,,,,,,,,,,177,reward,,,,,,1221.5832266999641,1221.5832266999641,1221.5832266999641,1221.5832266999641,0,,,1,0.030516300001181662,0.030520600033923984,0,,,0,,,1221.5832266999641,1221.5832266999641,1221.5832266999641,1221.5832266999641,45,D,2024-05-22_08h09.17.774,attentional_competition_task,2022.2.4,143.9478563604624,
positions.xlsx,positions_test.xlsx,positions_test_new.xlsx,stimuli.xlsx,stimuli_new.xlsx,stimuli/Social4.png,stimuli/Social3.png,stimuli/Nonsocial4.png,stimuli/Nonsocial3.png,stimuli/Social2.png,stimuli/Social1.png,stimuli/Nonsocial2.png,stimuli/Nonsocial1.png,,,"(-0.7, -0.5)",cs_pos_ns,"(-0.7, 0.5)",cs_neg_ns,"(0.7, -0.5)",cs_neg_s,"(0.7, 0.5)",cs_pos_s,0,0,0,0,,,,,,,,,,,,,,,,,,,,,1,20,44,21,,,,,,,,,,,,,,,,,,,,,,,,,,,180,reward,,,,,,1230.1870303999167,1230.1870303999167,1230.1870303999167,1230.1870303999167,0,,,0,,,0,,,1,0.024100599926896393,0.02410419995430857,1230.1870303999167,1230.1870303999167,1230.1870303999167,1230.1870303999167,45,D,2024-05-22_08h09.17.774,attentional_competition_task,2022.2.4,143.9478563604624,
positions.xlsx,positions_test.xlsx,positions_test_new.xlsx,stimuli.xlsx,stimuli_new.xlsx,stimuli/Social4.png,stimuli/Social3.png,stimuli/Nonsocial4.png,stimuli/Nonsocial3.png,stimuli/Social2.png,stimuli/Social1.png,stimuli/Nonsocial2.png,stimuli/Nonsocial1.png,,,"(-0.7, -0.5)",cs_neg_s,"(-0.7, 0.5)",cs_neg_ns,"(0.7, -0.5)",cs_pos_s,"(0.7, 0.5)",cs_pos_ns,0,0,0,0,,,,,,,,,,,,,,,,,,,,,1,21,45,2,,,,,,,,,,,,,,,,,,,,,,,,,,,186,reward,,,,,,1238.353357499931,1238.353357499931,1238.353357499931,1238.353357499931,0,,,0,,,1,0.03055489994585514,0.030558499973267317,0,,,1238.353357499931,1238.353357499931,1238.353357499931,1238.353357499931,45,D,2024-05-22_08h09.17.774,attentional_competition_task,2022.2.4,143.9478563604624,
positions.xlsx,positions_test.xlsx,positions_test_new.xlsx,stimuli.xlsx,stimuli_new.xlsx,stimuli/Social4.png,stimuli/Social3.png,stimuli/Nonsocial4.png,stimuli/Nonsocial3.png,stimuli/Social2.png,stimuli/Social1.png,stimuli/Nonsocial2.png,stimuli/Nonsocial1.png,,,"(-0.7, -0.5)",cs_pos_s,"(-0.7, 0.5)",cs_neg_ns,"(0.7, -0.5)",cs_neg_s,"(0.7, 0.5)",cs_pos_ns,0,0,0,0,,,,,,,,,,,,,,,,,,,,,1,22,46,8,,,,,,,,,,,,,,,,,,,,,,,,,,,186,reward,,,,,,1246.9918686000165,1246.9918686000165,1246.9918686000165,1246.9918686000165,1,0.027990799979306757,0.027994600008241832,0,,,0,,,0,,,1246.9918686000165,1246.9918686000165,1246.9918686000165,1246.9918686000165,45,D,2024-05-22_08h09.17.774,attentional_competition_task,2022.2.4,143.9478563604624,
positions.xlsx,positions_test.xlsx,positions_test_new.xlsx,stimuli.xlsx,stimuli_new.xlsx,stimuli/Social4.png,stimuli/Social3.png,stimuli/Nonsocial4.png,stimuli/Nonsocial3.png,stimuli/Social2.png,stimuli/Social1.png,stimuli/Nonsocial2.png,stimuli/Nonsocial1.png,,,"(-0.7, -0.5)",cs_pos_s,"(-0.7, 0.5)",cs_neg_s,"(0.7, -0.5)",cs_neg_ns,"(0.7, 0.5)",cs_pos_ns,0,0,0,0,,,,,,,,,,,,,,,,,,,,,1,23,47,6,,,,,,,,,,,,,,,,,,,,,,,,,,,189,reward,,,,,,1255.3040751999943,1255.3040751999943,1255.3040751999943,1255.3040751999943,1,0.026358600007370114,0.02636250003706664,0,,,0,,,0,,,1255.3040751999943,1255.3040751999943,1255.3040751999943,1255.3040751999943,45,D,2024-05-22_08h09.17.774,attentional_competition_task,2022.2.4,143.9478563604624,
positions.xlsx,positions_test.xlsx,positions_test_new.xlsx,stimuli.xlsx,stimuli_new.xlsx,stimuli/Social4.png,stimuli/Social3.png,stimuli/Nonsocial4.png,stimuli/Nonsocial3.png,stimuli/Social2.png,stimuli/Social1.png,stimuli/Nonsocial2.png,stimuli/Nonsocial1.png,,,"(-0.7, -0.5)",cs_neg_ns,"(-0.7, 0.5)",cs_pos_ns,"(0.7, -0.5)",cs_neg_s,"(0.7, 0.5)",cs_pos_s_new,0,0,0,0,,,,,,,,,,,,,,,,,,,,,,,,,,,,,0,0,0,28,0,0,0,0,,,,,,,,,,,,,,,192,reward,,,,,,1262.706591199967,1262.706591199967,1262.706591199967,1262.706591199967,0,,,1,1.2381176999770105,1.2381214000051841,0,,,0,,,1263.9495935000014,1263.9495935000014,1263.9495935000014,1263.9495935000014,45,D,2024-05-22_08h09.17.774,attentional_competition_task,2022.2.4,143.9478563604624,
positions.xlsx,positions_test.xlsx,positions_test_new.xlsx,stimuli.xlsx,stimuli_new.xlsx,stimuli/Social4.png,stimuli/Social3.png,stimuli/Nonsocial4.png,stimuli/Nonsocial3.png,stimuli/Social2.png,stimuli/Social1.png,stimuli/Nonsocial2.png,stimuli/Nonsocial1.png,,,"(-0.7, -0.5)",cs_neg_ns,"(-0.7, 0.5)",cs_pos_ns,"(0.7, -0.5)",cs_neg_s,"(0.7, 0.5)",cs_pos_s_new,0,0,0,0,,,,,,,,,,,,,,,,,,,,,,,,,,,,,0,0,0,28,1,0,1,0,,,,,,,,,,,,,,,195,reward,,,,,,1264.442566899932,1264.442566899932,1264.442566899932,1264.442566899932,0,,,1,0.02269529993645847,0.26660509989596903,0,,,0,,,1265.220348099945,1265.220348099945,1265.220348099945,1265.220348099945,45,D,2024-05-22_08h09.17.774,attentional_competition_task,2022.2.4,143.9478563604624,
positions.xlsx,positions_test.xlsx,positions_test_new.xlsx,stimuli.xlsx,stimuli_new.xlsx,stimuli/Social4.png,stimuli/Social3.png,stimuli/Nonsocial4.png,stimuli/Nonsocial3.png,stimuli/Social2.png,stimuli/Social1.png,stimuli/Nonsocial2.png,stimuli/Nonsocial1.png,,,"(-0.7, -0.5)",cs_neg_ns,"(-0.7, 0.5)",cs_pos_ns,"(0.7, -0.5)",cs_neg_s,"(0.7, 0.5)",cs_pos_s_new,0,0,0,0,,,,,,,,,,,,,,,,,,,,,,,,,,,,,0,0,0,28,,,,,,,,,,,,,,,,,,,,,,,,,,,,,,,,,,,,,,,,,,,,,,45,D,2024-05-22_08h09.17.774,attentional_competition_task,2022.2.4,143.9478563604624,
positions.xlsx,positions_test.xlsx,positions_test_new.xlsx,stimuli.xlsx,stimuli_new.xlsx,stimuli/Social4.png,stimuli/Social3.png,stimuli/Nonsocial4.png,stimuli/Nonsocial3.png,stimuli/Social2.png,stimuli/Social1.png,stimuli/Nonsocial2.png,stimuli/Nonsocial1.png,,,"(-0.7, -0.5)",cs_neg_s,"(-0.7, 0.5)",cs_pos_ns,"(0.7, -0.5)",cs_pos_s,"(0.7, 0.5)",cs_neg_ns_new,0,0,0,0,,,,,,,,,,,,,,,,,,,,,,,,,,,,,0,1,1,25,0,0,0,0,,,,,,,,,,,,,,,198,reward,,,,,,1271.6575900999596,1271.6575900999596,1271.6575900999596,1271.6575900999596,0,,,0,,,1,0.7451537000015378,0.7527427999302745,0,,,1272.4145079000155,1272.4145079000155,1272.4145079000155,1272.4145079000155,45,D,2024-05-22_08h09.17.774,attentional_competition_task,2022.2.4,143.9478563604624,
positions.xlsx,positions_test.xlsx,positions_test_new.xlsx,stimuli.xlsx,stimuli_new.xlsx,stimuli/Social4.png,stimuli/Social3.png,stimuli/Nonsocial4.png,stimuli/Nonsocial3.png,stimuli/Social2.png,stimuli/Social1.png,stimuli/Nonsocial2.png,stimuli/Nonsocial1.png,,,"(-0.7, -0.5)",cs_neg_s,"(-0.7, 0.5)",cs_pos_ns,"(0.7, -0.5)",cs_pos_s,"(0.7, 0.5)",cs_neg_ns_new,0,0,0,0,,,,,,,,,,,,,,,,,,,,,,,,,,,,,0,1,1,25,1,0,1,0,,,,,,,,,,,,,,,195,loss,,,,,,1272.942252399982,1272.942252399982,1272.942252399982,1272.942252399982,0,,,0,,,0,,,1,0.029745499952696264,0.029749499983154237,1272.942252399982,1272.942252399982,1272.942252399982,1272.942252399982,45,D,2024-05-22_08h09.17.774,attentional_competition_task,2022.2.4,143.9478563604624,
positions.xlsx,positions_test.xlsx,positions_test_new.xlsx,stimuli.xlsx,stimuli_new.xlsx,stimuli/Social4.png,stimuli/Social3.png,stimuli/Nonsocial4.png,stimuli/Nonsocial3.png,stimuli/Social2.png,stimuli/Social1.png,stimuli/Nonsocial2.png,stimuli/Nonsocial1.png,,,"(-0.7, -0.5)",cs_neg_s,"(-0.7, 0.5)",cs_pos_ns,"(0.7, -0.5)",cs_pos_s,"(0.7, 0.5)",cs_neg_ns_new,0,0,0,0,,,,,,,,,,,,,,,,,,,,,,,,,,,,,0,1,1,25,2,0,2,0,,,,,,,,,,,,,,,198,reward,,,,,,1273.4700113999425,1273.4700113999425,1273.4700113999425,1273.4700113999425,0,,,1,0.022779299993999302,0.022783300024457276,0,,,0,,,1273.4700113999425,1273.4700113999425,1273.4700113999425,1273.4700113999425,45,D,2024-05-22_08h09.17.774,attentional_competition_task,2022.2.4,143.9478563604624,
positions.xlsx,positions_test.xlsx,positions_test_new.xlsx,stimuli.xlsx,stimuli_new.xlsx,stimuli/Social4.png,stimuli/Social3.png,stimuli/Nonsocial4.png,stimuli/Nonsocial3.png,stimuli/Social2.png,stimuli/Social1.png,stimuli/Nonsocial2.png,stimuli/Nonsocial1.png,,,"(-0.7, -0.5)",cs_neg_s,"(-0.7, 0.5)",cs_pos_ns,"(0.7, -0.5)",cs_pos_s,"(0.7, 0.5)",cs_neg_ns_new,0,0,0,0,,,,,,,,,,,,,,,,,,,,,,,,,,,,,0,1,1,25,,,,,,,,,,,,,,,,,,,,,,,,,,,,,,,,,,,,,,,,,,,,,,45,D,2024-05-22_08h09.17.774,attentional_competition_task,2022.2.4,143.9478563604624,
positions.xlsx,positions_test.xlsx,positions_test_new.xlsx,stimuli.xlsx,stimuli_new.xlsx,stimuli/Social4.png,stimuli/Social3.png,stimuli/Nonsocial4.png,stimuli/Nonsocial3.png,stimuli/Social2.png,stimuli/Social1.png,stimuli/Nonsocial2.png,stimuli/Nonsocial1.png,,,"(-0.7, -0.5)",cs_pos_ns,"(-0.7, 0.5)",cs_neg_s,"(0.7, -0.5)",cs_pos_s,"(0.7, 0.5)",cs_neg_ns_new,0,0,0,0,,,,,,,,,,,,,,,,,,,,,,,,,,,,,0,2,2,27,0,0,0,0,,,,,,,,,,,,,,,201,reward,,,,,,1279.8725174999563,1279.8725174999563,1279.8725174999563,1279.8725174999563,0,,,0,,,1,0.662091700010933,0.6620955999242142,0,,,1280.5391766999383,1280.5391766999383,1280.5391766999383,1280.5391766999383,45,D,2024-05-22_08h09.17.774,attentional_competition_task,2022.2.4,143.9478563604624,
positions.xlsx,positions_test.xlsx,positions_test_new.xlsx,stimuli.xlsx,stimuli_new.xlsx,stimuli/Social4.png,stimuli/Social3.png,stimuli/Nonsocial4.png,stimuli/Nonsocial3.png,stimuli/Social2.png,stimuli/Social1.png,stimuli/Nonsocial2.png,stimuli/Nonsocial1.png,,,"(-0.7, -0.5)",cs_pos_ns,"(-0.7, 0.5)",cs_neg_s,"(0.7, -0.5)",cs_pos_s,"(0.7, 0.5)",cs_neg_ns_new,0,0,0,0,,,,,,,,,,,,,,,,,,,,,,,,,,,,,0,2,2,27,1,0,1,0,,,,,,,,,,,,,,,198,loss,,,,,,1281.0738500999287,1281.0738500999287,1281.0738500999287,1281.0738500999287,0,,,0,,,0,,,1,0.030253599979914725,0.030257699894718826,1281.0738500999287,1281.0738500999287,1281.0738500999287,1281.0738500999287,45,D,2024-05-22_08h09.17.774,attentional_competition_task,2022.2.4,143.9478563604624,
positions.xlsx,positions_test.xlsx,positions_test_new.xlsx,stimuli.xlsx,stimuli_new.xlsx,stimuli/Social4.png,stimuli/Social3.png,stimuli/Nonsocial4.png,stimuli/Nonsocial3.png,stimuli/Social2.png,stimuli/Social1.png,stimuli/Nonsocial2.png,stimuli/Nonsocial1.png,,,"(-0.7, -0.5)",cs_pos_ns,"(-0.7, 0.5)",cs_neg_s,"(0.7, -0.5)",cs_pos_s,"(0.7, 0.5)",cs_neg_ns_new,0,0,0,0,,,,,,,,,,,,,,,,,,,,,,,,,,,,,0,2,2,27,2,0,2,0,,,,,,,,,,,,,,,201,reward,,,,,,1281.5738526999485,1281.5738526999485,1281.5738526999485,1281.5738526999485,1,0.1832698000362143,0.19087000004947186,0,,,0,,,0,,,1281.7682664999738,1281.7682664999738,1281.7682664999738,1281.7682664999738,45,D,2024-05-22_08h09.17.774,attentional_competition_task,2022.2.4,143.9478563604624,
positions.xlsx,positions_test.xlsx,positions_test_new.xlsx,stimuli.xlsx,stimuli_new.xlsx,stimuli/Social4.png,stimuli/Social3.png,stimuli/Nonsocial4.png,stimuli/Nonsocial3.png,stimuli/Social2.png,stimuli/Social1.png,stimuli/Nonsocial2.png,stimuli/Nonsocial1.png,,,"(-0.7, -0.5)",cs_pos_ns,"(-0.7, 0.5)",cs_neg_s,"(0.7, -0.5)",cs_pos_s,"(0.7, 0.5)",cs_neg_ns_new,0,0,0,0,,,,,,,,,,,,,,,,,,,,,,,,,,,,,0,2,2,27,,,,,,,,,,,,,,,,,,,,,,,,,,,,,,,,,,,,,,,,,,,,,,45,D,2024-05-22_08h09.17.774,attentional_competition_task,2022.2.4,143.9478563604624,
positions.xlsx,positions_test.xlsx,positions_test_new.xlsx,stimuli.xlsx,stimuli_new.xlsx,stimuli/Social4.png,stimuli/Social3.png,stimuli/Nonsocial4.png,stimuli/Nonsocial3.png,stimuli/Social2.png,stimuli/Social1.png,stimuli/Nonsocial2.png,stimuli/Nonsocial1.png,,,"(-0.7, -0.5)",cs_neg_ns,"(-0.7, 0.5)",cs_pos_ns,"(0.7, -0.5)",cs_neg_s_new,"(0.7, 0.5)",cs_pos_s,0,0,0,0,,,,,,,,,,,,,,,,,,,,,,,,,,,,,0,3,3,14,0,0,0,0,,,,,,,,,,,,,,,198,loss,,,,,,1288.781908200006,1288.781908200006,1288.781908200006,1288.781908200006,0,,,0,,,1,0.523111299960874,0.5231150999898091,0,,,1289.2958081000252,1289.2958081000252,1289.2958081000252,1289.2958081000252,45,D,2024-05-22_08h09.17.774,attentional_competition_task,2022.2.4,143.9478563604624,
positions.xlsx,positions_test.xlsx,positions_test_new.xlsx,stimuli.xlsx,stimuli_new.xlsx,stimuli/Social4.png,stimuli/Social3.png,stimuli/Nonsocial4.png,stimuli/Nonsocial3.png,stimuli/Social2.png,stimuli/Social1.png,stimuli/Nonsocial2.png,stimuli/Nonsocial1.png,,,"(-0.7, -0.5)",cs_neg_ns,"(-0.7, 0.5)",cs_pos_ns,"(0.7, -0.5)",cs_neg_s_new,"(0.7, 0.5)",cs_pos_s,0,0,0,0,,,,,,,,,,,,,,,,,,,,,,,,,,,,,0,3,3,14,1,0,1,0,,,,,,,,,,,,,,,201,reward,,,,,,1289.8374156999635,1289.8374156999635,1289.8374156999635,1289.8374156999635,0,,,0,,,0,,,1,0.03028549998998642,0.03028980002272874,1289.8374156999635,1289.8374156999635,1289.8374156999635,1289.8374156999635,45,D,2024-05-22_08h09.17.774,attentional_competition_task,2022.2.4,143.9478563604624,
positions.xlsx,positions_test.xlsx,positions_test_new.xlsx,stimuli.xlsx,stimuli_new.xlsx,stimuli/Social4.png,stimuli/Social3.png,stimuli/Nonsocial4.png,stimuli/Nonsocial3.png,stimuli/Social2.png,stimuli/Social1.png,stimuli/Nonsocial2.png,stimuli/Nonsocial1.png,,,"(-0.7, -0.5)",cs_neg_ns,"(-0.7, 0.5)",cs_pos_ns,"(0.7, -0.5)",cs_neg_s_new,"(0.7, 0.5)",cs_pos_s,0,0,0,0,,,,,,,,,,,,,,,,,,,,,,,,,,,,,0,3,3,14,2,0,2,0,,,,,,,,,,,,,,,198,loss,,,,,,1290.3651790999575,1290.3651790999575,1290.3651790999575,1290.3651790999575,1,0.025442500016652048,0.0254464999306947,0,,,0,,,0,,,1290.3651790999575,1290.3651790999575,1290.3651790999575,1290.3651790999575,45,D,2024-05-22_08h09.17.774,attentional_competition_task,2022.2.4,143.9478563604624,
positions.xlsx,positions_test.xlsx,positions_test_new.xlsx,stimuli.xlsx,stimuli_new.xlsx,stimuli/Social4.png,stimuli/Social3.png,stimuli/Nonsocial4.png,stimuli/Nonsocial3.png,stimuli/Social2.png,stimuli/Social1.png,stimuli/Nonsocial2.png,stimuli/Nonsocial1.png,,,"(-0.7, -0.5)",cs_neg_ns,"(-0.7, 0.5)",cs_pos_ns,"(0.7, -0.5)",cs_neg_s_new,"(0.7, 0.5)",cs_pos_s,0,0,0,0,,,,,,,,,,,,,,,,,,,,,,,,,,,,,0,3,3,14,,,,,,,,,,,,,,,,,,,,,,,,,,,,,,,,,,,,,,,,,,,,,,45,D,2024-05-22_08h09.17.774,attentional_competition_task,2022.2.4,143.9478563604624,
positions.xlsx,positions_test.xlsx,positions_test_new.xlsx,stimuli.xlsx,stimuli_new.xlsx,stimuli/Social4.png,stimuli/Social3.png,stimuli/Nonsocial4.png,stimuli/Nonsocial3.png,stimuli/Social2.png,stimuli/Social1.png,stimuli/Nonsocial2.png,stimuli/Nonsocial1.png,,,"(-0.7, -0.5)",cs_neg_ns,"(-0.7, 0.5)",cs_pos_ns,"(0.7, -0.5)",cs_pos_s,"(0.7, 0.5)",cs_neg_s,0,0,0,0,,,,,,,,,,,,,,,,,,,,,,,,,,,,,0,4,4,7,0,0,0,0,,,,,,,,,,,,,,,201,reward,,,,,,1296.4760390999727,1296.4760390999727,1296.4760390999727,1296.4760390999727,0,,,0,,,1,0.6756033999845386,0.6828100000275299,0,,,1297.1634971000021,1297.1634971000021,1297.1634971000021,1297.1634971000021,45,D,2024-05-22_08h09.17.774,attentional_competition_task,2022.2.4,143.9478563604624,
positions.xlsx,positions_test.xlsx,positions_test_new.xlsx,stimuli.xlsx,stimuli_new.xlsx,stimuli/Social4.png,stimuli/Social3.png,stimuli/Nonsocial4.png,stimuli/Nonsocial3.png,stimuli/Social2.png,stimuli/Social1.png,stimuli/Nonsocial2.png,stimuli/Nonsocial1.png,,,"(-0.7, -0.5)",cs_neg_ns,"(-0.7, 0.5)",cs_pos_ns,"(0.7, -0.5)",cs_pos_s,"(0.7, 0.5)",cs_neg_s,0,0,0,0,,,,,,,,,,,,,,,,,,,,,,,,,,,,,0,4,4,7,1,0,1,0,,,,,,,,,,,,,,,204,reward,,,,,,1297.6704735999228,1297.6704735999228,1297.6704735999228,1297.6704735999228,0,,,1,0.09287319995928556,0.09287689998745918,0,,,0,,,1297.7607174000004,1297.7607174000004,1297.7607174000004,1297.7607174000004,45,D,2024-05-22_08h09.17.774,attentional_competition_task,2022.2.4,143.9478563604624,
positions.xlsx,positions_test.xlsx,positions_test_new.xlsx,stimuli.xlsx,stimuli_new.xlsx,stimuli/Social4.png,stimuli/Social3.png,stimuli/Nonsocial4.png,stimuli/Nonsocial3.png,stimuli/Social2.png,stimuli/Social1.png,stimuli/Nonsocial2.png,stimuli/Nonsocial1.png,,,"(-0.7, -0.5)",cs_neg_ns,"(-0.7, 0.5)",cs_pos_ns,"(0.7, -0.5)",cs_pos_s,"(0.7, 0.5)",cs_neg_s,0,0,0,0,,,,,,,,,,,,,,,,,,,,,,,,,,,,,0,4,4,7,2,0,2,0,,,,,,,,,,,,,,,201,loss,,,,,,1298.2606813999591,1298.2606813999591,1298.2606813999591,1298.2606813999591,1,0.05847869999706745,0.06590369995683432,1,0.023822999908588827,0.0517212999984622,0,,,0,,,1298.3301318999147,1298.3301318999147,1298.3301318999147,1298.3301318999147,45,D,2024-05-22_08h09.17.774,attentional_competition_task,2022.2.4,143.9478563604624,
positions.xlsx,positions_test.xlsx,positions_test_new.xlsx,stimuli.xlsx,stimuli_new.xlsx,stimuli/Social4.png,stimuli/Social3.png,stimuli/Nonsocial4.png,stimuli/Nonsocial3.png,stimuli/Social2.png,stimuli/Social1.png,stimuli/Nonsocial2.png,stimuli/Nonsocial1.png,,,"(-0.7, -0.5)",cs_neg_ns,"(-0.7, 0.5)",cs_pos_ns,"(0.7, -0.5)",cs_pos_s,"(0.7, 0.5)",cs_neg_s,0,0,0,0,,,,,,,,,,,,,,,,,,,,,,,,,,,,,0,4,4,7,,,,,,,,,,,,,,,,,,,,,,,,,,,,,,,,,,,,,,,,,,,,,,45,D,2024-05-22_08h09.17.774,attentional_competition_task,2022.2.4,143.9478563604624,
positions.xlsx,positions_test.xlsx,positions_test_new.xlsx,stimuli.xlsx,stimuli_new.xlsx,stimuli/Social4.png,stimuli/Social3.png,stimuli/Nonsocial4.png,stimuli/Nonsocial3.png,stimuli/Social2.png,stimuli/Social1.png,stimuli/Nonsocial2.png,stimuli/Nonsocial1.png,,,"(-0.7, -0.5)",cs_pos_ns,"(-0.7, 0.5)",cs_neg_s,"(0.7, -0.5)",cs_neg_ns_new,"(0.7, 0.5)",cs_pos_s,0,0,0,0,,,,,,,,,,,,,,,,,,,,,,,,,,,,,0,5,5,19,0,0,0,0,,,,,,,,,,,,,,,198,loss,,,,,,1304.7118169999449,1304.7118169999449,1304.7118169999449,1304.7118169999449,0,,,0,,,1,0.34275469998829067,0.3427586000179872,0,,,1305.0659966999665,1305.0659966999665,1305.0659966999665,1305.0659966999665,45,D,2024-05-22_08h09.17.774,attentional_competition_task,2022.2.4,143.9478563604624,
positions.xlsx,positions_test.xlsx,positions_test_new.xlsx,stimuli.xlsx,stimuli_new.xlsx,stimuli/Social4.png,stimuli/Social3.png,stimuli/Nonsocial4.png,stimuli/Nonsocial3.png,stimuli/Social2.png,stimuli/Social1.png,stimuli/Nonsocial2.png,stimuli/Nonsocial1.png,,,"(-0.7, -0.5)",cs_pos_ns,"(-0.7, 0.5)",cs_neg_s,"(0.7, -0.5)",cs_neg_ns_new,"(0.7, 0.5)",cs_pos_s,0,0,0,0,,,,,,,,,,,,,,,,,,,,,,,,,,,,,0,5,5,19,1,0,1,0,,,,,,,,,,,,,,,201,reward,,,,,,1305.6007000999525,1305.6007000999525,1305.6007000999525,1305.6007000999525,0,,,0,,,0,,,1,0.029997200006619096,0.03000079991761595,1305.6007000999525,1305.6007000999525,1305.6007000999525,1305.6007000999525,45,D,2024-05-22_08h09.17.774,attentional_competition_task,2022.2.4,143.9478563604624,
positions.xlsx,positions_test.xlsx,positions_test_new.xlsx,stimuli.xlsx,stimuli_new.xlsx,stimuli/Social4.png,stimuli/Social3.png,stimuli/Nonsocial4.png,stimuli/Nonsocial3.png,stimuli/Social2.png,stimuli/Social1.png,stimuli/Nonsocial2.png,stimuli/Nonsocial1.png,,,"(-0.7, -0.5)",cs_pos_ns,"(-0.7, 0.5)",cs_neg_s,"(0.7, -0.5)",cs_neg_ns_new,"(0.7, 0.5)",cs_pos_s,0,0,0,0,,,,,,,,,,,,,,,,,,,,,,,,,,,,,0,5,5,19,2,0,2,0,,,,,,,,,,,,,,,198,loss,,,,,,1306.1284188999562,1306.1284188999562,1306.1284188999562,1306.1284188999562,0,,,1,0.023919499944895506,0.02392319997306913,0,,,0,,,1306.1284188999562,1306.1284188999562,1306.1284188999562,1306.1284188999562,45,D,2024-05-22_08h09.17.774,attentional_competition_task,2022.2.4,143.9478563604624,
positions.xlsx,positions_test.xlsx,positions_test_new.xlsx,stimuli.xlsx,stimuli_new.xlsx,stimuli/Social4.png,stimuli/Social3.png,stimuli/Nonsocial4.png,stimuli/Nonsocial3.png,stimuli/Social2.png,stimuli/Social1.png,stimuli/Nonsocial2.png,stimuli/Nonsocial1.png,,,"(-0.7, -0.5)",cs_pos_ns,"(-0.7, 0.5)",cs_neg_s,"(0.7, -0.5)",cs_neg_ns_new,"(0.7, 0.5)",cs_pos_s,0,0,0,0,,,,,,,,,,,,,,,,,,,,,,,,,,,,,0,5,5,19,3,0,3,0,,,,,,,,,,,,,,,201,reward,,,,,,1306.6561569999903,1306.6561569999903,1306.6561569999903,1306.6561569999903,1,0.022819099947810173,0.0228225999744609,0,,,0,,,0,,,1306.6561569999903,1306.6561569999903,1306.6561569999903,1306.6561569999903,45,D,2024-05-22_08h09.17.774,attentional_competition_task,2022.2.4,143.9478563604624,
positions.xlsx,positions_test.xlsx,positions_test_new.xlsx,stimuli.xlsx,stimuli_new.xlsx,stimuli/Social4.png,stimuli/Social3.png,stimuli/Nonsocial4.png,stimuli/Nonsocial3.png,stimuli/Social2.png,stimuli/Social1.png,stimuli/Nonsocial2.png,stimuli/Nonsocial1.png,,,"(-0.7, -0.5)",cs_pos_ns,"(-0.7, 0.5)",cs_neg_s,"(0.7, -0.5)",cs_neg_ns_new,"(0.7, 0.5)",cs_pos_s,0,0,0,0,,,,,,,,,,,,,,,,,,,,,,,,,,,,,0,5,5,19,,,,,,,,,,,,,,,,,,,,,,,,,,,,,,,,,,,,,,,,,,,,,,45,D,2024-05-22_08h09.17.774,attentional_competition_task,2022.2.4,143.9478563604624,
positions.xlsx,positions_test.xlsx,positions_test_new.xlsx,stimuli.xlsx,stimuli_new.xlsx,stimuli/Social4.png,stimuli/Social3.png,stimuli/Nonsocial4.png,stimuli/Nonsocial3.png,stimuli/Social2.png,stimuli/Social1.png,stimuli/Nonsocial2.png,stimuli/Nonsocial1.png,,,"(-0.7, -0.5)",cs_pos_s,"(-0.7, 0.5)",cs_neg_s,"(0.7, -0.5)",cs_neg_ns,"(0.7, 0.5)",cs_pos_ns,0,0,0,0,,,,,,,,,,,,,,,,,,,,,,,,,,,,,0,6,6,2,0,0,0,0,,,,,,,,,,,,,,,198,loss,,,,,,1313.3850484000286,1313.3850484000286,1313.3850484000286,1313.3850484000286,0,,,0,,,1,1.488780399900861,1.4950834999326617,0,,,1314.8850348999258,1314.8850348999258,1314.8850348999258,1314.8850348999258,45,D,2024-05-22_08h09.17.774,attentional_competition_task,2022.2.4,143.9478563604624,
positions.xlsx,positions_test.xlsx,positions_test_new.xlsx,stimuli.xlsx,stimuli_new.xlsx,stimuli/Social4.png,stimuli/Social3.png,stimuli/Nonsocial4.png,stimuli/Nonsocial3.png,stimuli/Social2.png,stimuli/Social1.png,stimuli/Nonsocial2.png,stimuli/Nonsocial1.png,,,"(-0.7, -0.5)",cs_pos_s,"(-0.7, 0.5)",cs_neg_s,"(0.7, -0.5)",cs_neg_ns,"(0.7, 0.5)",cs_pos_ns,0,0,0,0,,,,,,,,,,,,,,,,,,,,,,,,,,,,,0,6,6,2,1,0,1,0,,,,,,,,,,,,,,,195,loss,,,,,,1315.9197067000205,1315.9197067000205,1315.9197067000205,1315.9197067000205,0,,,0,,,0,,,0,,,1315.9197067000205,1315.9197067000205,1315.9197067000205,1315.9197067000205,45,D,2024-05-22_08h09.17.774,attentional_competition_task,2022.2.4,143.9478563604624,
positions.xlsx,positions_test.xlsx,positions_test_new.xlsx,stimuli.xlsx,stimuli_new.xlsx,stimuli/Social4.png,stimuli/Social3.png,stimuli/Nonsocial4.png,stimuli/Nonsocial3.png,stimuli/Social2.png,stimuli/Social1.png,stimuli/Nonsocial2.png,stimuli/Nonsocial1.png,,,"(-0.7, -0.5)",cs_pos_s,"(-0.7, 0.5)",cs_neg_s,"(0.7, -0.5)",cs_neg_ns,"(0.7, 0.5)",cs_pos_ns,0,0,0,0,,,,,,,,,,,,,,,,,,,,,,,,,,,,,0,6,6,2,,,,,,,,,,,,,,,,,,,,,,,,,,,,,,,,,,,,,,,,,,,,,,45,D,2024-05-22_08h09.17.774,attentional_competition_task,2022.2.4,143.9478563604624,
positions.xlsx,positions_test.xlsx,positions_test_new.xlsx,stimuli.xlsx,stimuli_new.xlsx,stimuli/Social4.png,stimuli/Social3.png,stimuli/Nonsocial4.png,stimuli/Nonsocial3.png,stimuli/Social2.png,stimuli/Social1.png,stimuli/Nonsocial2.png,stimuli/Nonsocial1.png,,,"(-0.7, -0.5)",cs_neg_ns,"(-0.7, 0.5)",cs_neg_s,"(0.7, -0.5)",cs_pos_ns_new,"(0.7, 0.5)",cs_pos_s,0,0,0,0,,,,,,,,,,,,,,,,,,,,,,,,,,,,,0,7,7,42,0,0,0,0,,,,,,,,,,,,,,,198,reward,,,,,,1321.8014103999594,1321.8014103999594,1321.8014103999594,1321.8014103999594,0,,,0,,,1,0.9045802999753505,0.9045842998893932,0,,,1322.711075500003,1322.711075500003,1322.711075500003,1322.711075500003,45,D,2024-05-22_08h09.17.774,attentional_competition_task,2022.2.4,143.9478563604624,
positions.xlsx,positions_test.xlsx,positions_test_new.xlsx,stimuli.xlsx,stimuli_new.xlsx,stimuli/Social4.png,stimuli/Social3.png,stimuli/Nonsocial4.png,stimuli/Nonsocial3.png,stimuli/Social2.png,stimuli/Social1.png,stimuli/Nonsocial2.png,stimuli/Nonsocial1.png,,,"(-0.7, -0.5)",cs_neg_ns,"(-0.7, 0.5)",cs_neg_s,"(0.7, -0.5)",cs_pos_ns_new,"(0.7, 0.5)",cs_pos_s,0,0,0,0,,,,,,,,,,,,,,,,,,,,,,,,,,,,,0,7,7,42,1,0,1,0,,,,,,,,,,,,,,,201,reward,,,,,,1323.2111055999994,1323.2111055999994,1323.2111055999994,1323.2111055999994,0,,,0,,,1,0.02957280003465712,0.10676039999816567,1,0.114197300048545,0.11420130007900298,1323.329154899926,1323.329154899926,1323.329154899926,1323.329154899926,45,D,2024-05-22_08h09.17.774,attentional_competition_task,2022.2.4,143.9478563604624,
positions.xlsx,positions_test.xlsx,positions_test_new.xlsx,stimuli.xlsx,stimuli_new.xlsx,stimuli/Social4.png,stimuli/Social3.png,stimuli/Nonsocial4.png,stimuli/Nonsocial3.png,stimuli/Social2.png,stimuli/Social1.png,stimuli/Nonsocial2.png,stimuli/Nonsocial1.png,,,"(-0.7, -0.5)",cs_neg_ns,"(-0.7, 0.5)",cs_neg_s,"(0.7, -0.5)",cs_pos_ns_new,"(0.7, 0.5)",cs_pos_s,0,0,0,0,,,,,,,,,,,,,,,,,,,,,,,,,,,,,0,7,7,42,,,,,,,,,,,,,,,,,,,,,,,,,,,,,,,,,,,,,,,,,,,,,,45,D,2024-05-22_08h09.17.774,attentional_competition_task,2022.2.4,143.9478563604624,
positions.xlsx,positions_test.xlsx,positions_test_new.xlsx,stimuli.xlsx,stimuli_new.xlsx,stimuli/Social4.png,stimuli/Social3.png,stimuli/Nonsocial4.png,stimuli/Nonsocial3.png,stimuli/Social2.png,stimuli/Social1.png,stimuli/Nonsocial2.png,stimuli/Nonsocial1.png,,,"(-0.7, -0.5)",cs_neg_s,"(-0.7, 0.5)",cs_neg_ns_new,"(0.7, -0.5)",cs_pos_s,"(0.7, 0.5)",cs_pos_ns,0,0,0,0,,,,,,,,,,,,,,,,,,,,,,,,,,,,,0,8,8,24,0,0,0,0,,,,,,,,,,,,,,,198,loss,,,,,,1329.7802726000082,1329.7802726000082,1329.7802726000082,1329.7802726000082,0,,,1,0.8906320000533015,0.897675700020045,0,,,0,,,1330.6830090999138,1330.6830090999138,1330.6830090999138,1330.6830090999138,45,D,2024-05-22_08h09.17.774,attentional_competition_task,2022.2.4,143.9478563604624,
positions.xlsx,positions_test.xlsx,positions_test_new.xlsx,stimuli.xlsx,stimuli_new.xlsx,stimuli/Social4.png,stimuli/Social3.png,stimuli/Nonsocial4.png,stimuli/Nonsocial3.png,stimuli/Social2.png,stimuli/Social1.png,stimuli/Nonsocial2.png,stimuli/Nonsocial1.png,,,"(-0.7, -0.5)",cs_neg_s,"(-0.7, 0.5)",cs_neg_ns_new,"(0.7, -0.5)",cs_pos_s,"(0.7, 0.5)",cs_pos_ns,0,0,0,0,,,,,,,,,,,,,,,,,,,,,,,,,,,,,0,8,8,24,1,0,1,0,,,,,,,,,,,,,,,195,loss,,,,,,1331.2176579999505,1331.2176579999505,1331.2176579999505,1331.2176579999505,1,0.03002180007752031,0.030025199986994267,0,,,0,,,0,,,1331.2176579999505,1331.2176579999505,1331.2176579999505,1331.2176579999505,45,D,2024-05-22_08h09.17.774,attentional_competition_task,2022.2.4,143.9478563604624,
