posFile,posFileTest,posFileTestNew,stimFile,stimFileNew,cs_neg_s,cs_pos_s,cs_neg_ns,cs_pos_ns,cs_neg_s_new,cs_pos_s_new,cs_neg_ns_new,cs_pos_ns_new,stim,position,position1,stim1,position2,stim2,position3,stim3,position4,stim4,blocks.thisRepN,blocks.thisTrialN,blocks.thisN,blocks.thisIndex,ratingtrials1.thisRepN,ratingtrials1.thisTrialN,ratingtrials1.thisN,ratingtrials1.thisIndex,search_task_trials.thisRepN,search_task_trials.thisTrialN,search_task_trials.thisN,search_task_trials.thisIndex,learning_trials.thisRepN,learning_trials.thisTrialN,learning_trials.thisN,learning_trials.thisIndex,trials.thisRepN,trials.thisTrialN,trials.thisN,trials.thisIndex,ratingtrials2.thisRepN,ratingtrials2.thisTrialN,ratingtrials2.thisN,ratingtrials2.thisIndex,testtrials.thisRepN,testtrials.thisTrialN,testtrials.thisN,testtrials.thisIndex,loop_test.thisRepN,loop_test.thisTrialN,loop_test.thisN,loop_test.thisIndex,testtrials_novelty.thisRepN,testtrials_novelty.thisTrialN,testtrials_novelty.thisN,testtrials_novelty.thisIndex,loop_test_novelty.thisRepN,loop_test_novelty.thisTrialN,loop_test_novelty.thisN,loop_test_novelty.thisIndex,ratingtrials3.thisRepN,ratingtrials3.thisTrialN,ratingtrials3.thisN,ratingtrials3.thisIndex,textStart.started,textStartExp.started,imageRating.started,sliderStim.response,sliderStim.rt,textStartSearch.started,target_positions,distractor_positions,textStartTask.started,image.started,score,outcome,roi.numLooks,roi.timesOn,roi.timesOff,imageFeedback.started,textTestInstr.started,test_image1.started,test_image2.started,test_image3.started,test_image4.started,test_roi1.numLooks,test_roi1.timesOn,test_roi1.timesOff,test_roi2.numLooks,test_roi2.timesOn,test_roi2.timesOff,test_roi3.numLooks,test_roi3.timesOn,test_roi3.timesOff,test_roi4.numLooks,test_roi4.timesOn,test_roi4.timesOff,test_image_feedback1.started,test_image_feedback2.started,test_iamge_feedback3.started,test_iamge_feedback4.started,participant,group,date,expName,psychopyVersion,frameRate,
positions.xlsx,positions_test.xlsx,positions_test_new.xlsx,stimuli.xlsx,stimuli_new.xlsx,stimuli/Social3.png,stimuli/Social4.png,stimuli/Nonsocial3.png,stimuli/Nonsocial4.png,stimuli/Social1.png,stimuli/Social2.png,stimuli/Nonsocial1.png,stimuli/Nonsocial2.png,cs_pos_s,,,,,,,,,,0,0,0,0,0,0,0,2,,,,,,,,,,,,,,,,,,,,,,,,,,,,,,,,,,,,,81.40366289997473,693.9936797000119,703.7577443000046,5.0,12.381401900027413,,,,,,,,,,,,,,,,,,,,,,,,,,,,,,,,,20,C,2024-04-29_17h21.41.975,attentional_competition_task,2022.2.4,144.01087560978226,
positions.xlsx,positions_test.xlsx,positions_test_new.xlsx,stimuli.xlsx,stimuli_new.xlsx,stimuli/Social3.png,stimuli/Social4.png,stimuli/Nonsocial3.png,stimuli/Nonsocial4.png,stimuli/Social1.png,stimuli/Social2.png,stimuli/Nonsocial1.png,stimuli/Nonsocial2.png,cs_neg_ns,,,,,,,,,,0,0,0,0,0,1,1,1,,,,,,,,,,,,,,,,,,,,,,,,,,,,,,,,,,,,,,,717.4377559999702,6.0,2.019798699999228,,,,,,,,,,,,,,,,,,,,,,,,,,,,,,,,,20,C,2024-04-29_17h21.41.975,attentional_competition_task,2022.2.4,144.01087560978226,
positions.xlsx,positions_test.xlsx,positions_test_new.xlsx,stimuli.xlsx,stimuli_new.xlsx,stimuli/Social3.png,stimuli/Social4.png,stimuli/Nonsocial3.png,stimuli/Nonsocial4.png,stimuli/Social1.png,stimuli/Social2.png,stimuli/Nonsocial1.png,stimuli/Nonsocial2.png,cs_pos_ns,,,,,,,,,,0,0,0,0,0,2,2,3,,,,,,,,,,,,,,,,,,,,,,,,,,,,,,,,,,,,,,,720.2779184000101,7.0,1.3204379999660887,,,,,,,,,,,,,,,,,,,,,,,,,,,,,,,,,20,C,2024-04-29_17h21.41.975,attentional_competition_task,2022.2.4,144.01087560978226,
positions.xlsx,positions_test.xlsx,positions_test_new.xlsx,stimuli.xlsx,stimuli_new.xlsx,stimuli/Social3.png,stimuli/Social4.png,stimuli/Nonsocial3.png,stimuli/Nonsocial4.png,stimuli/Social1.png,stimuli/Social2.png,stimuli/Nonsocial1.png,stimuli/Nonsocial2.png,cs_neg_s,,,,,,,,,,0,0,0,0,0,3,3,0,,,,,,,,,,,,,,,,,,,,,,,,,,,,,,,,,,,,,,,721.8958947999636,5.0,2.1968787999940105,,,,,,,,,,,,,,,,,,,,,,,,,,,,,,,,,20,C,2024-04-29_17h21.41.975,attentional_competition_task,2022.2.4,144.01087560978226,
positions.xlsx,positions_test.xlsx,positions_test_new.xlsx,stimuli.xlsx,stimuli_new.xlsx,stimuli/Social3.png,stimuli/Social4.png,stimuli/Nonsocial3.png,stimuli/Nonsocial4.png,stimuli/Social1.png,stimuli/Social2.png,stimuli/Nonsocial1.png,stimuli/Nonsocial2.png,,,,,,,,,,,0,0,0,0,,,,,0,0,0,0,,,,,,,,,,,,,,,,,,,,,,,,,,,,,,,,,,,,,,724.3610905999667,"[[0.9, 0.7], [0.22499999999999998, -0.30000000000000004], [0.0, 0.7], [-0.675, 0.19999999999999996], [-0.675, 0.7], [-0.45, 0.19999999999999996], [-0.675, -0.30000000000000004], [0.6749999999999999, 0.19999999999999996], [-0.9, 0.19999999999999996], [0.6749999999999999, 0.7], [0.9, 0.19999999999999996], [0.22499999999999998, 0.7], [-0.45, 0.7], [0.22499999999999998, -0.8], [0.6749999999999999, -0.30000000000000004]]","[[-0.22499999999999998, -0.30000000000000004], [0.9, -0.30000000000000004], [0.45000000000000007, 0.7], [0.45000000000000007, 0.19999999999999996], [0.45000000000000007, -0.8], [-0.9, -0.8], [0.0, 0.19999999999999996], [-0.45, -0.8], [0.9, -0.8], [-0.22499999999999998, 0.19999999999999996], [-0.9, -0.30000000000000004], [0.22499999999999998, 0.19999999999999996], [0.6749999999999999, -0.8], [-0.9, 0.7], [0.45000000000000007, -0.30000000000000004]]",,,,,,,,,,,,,,,,,,,,,,,,,,,,,,20,C,2024-04-29_17h21.41.975,attentional_competition_task,2022.2.4,144.01087560978226,
positions.xlsx,positions_test.xlsx,positions_test_new.xlsx,stimuli.xlsx,stimuli_new.xlsx,stimuli/Social3.png,stimuli/Social4.png,stimuli/Nonsocial3.png,stimuli/Nonsocial4.png,stimuli/Social1.png,stimuli/Social2.png,stimuli/Nonsocial1.png,stimuli/Nonsocial2.png,,,,,,,,,,,0,0,0,0,,,,,1,0,1,0,,,,,,,,,,,,,,,,,,,,,,,,,,,,,,,,,,,,,,,"[[-0.45, 0.7], [0.45000000000000007, 0.19999999999999996], [0.6749999999999999, -0.8], [-0.675, 0.19999999999999996], [0.0, -0.8], [0.6749999999999999, 0.7], [0.0, -0.30000000000000004], [-0.9, -0.8], [-0.22499999999999998, 0.7], [0.45000000000000007, 0.7], [-0.45, -0.30000000000000004], [0.22499999999999998, -0.8], [0.9, 0.7], [-0.9, -0.30000000000000004], [0.6749999999999999, -0.30000000000000004]]","[[0.9, -0.30000000000000004], [0.45000000000000007, -0.8], [-0.675, -0.8], [-0.22499999999999998, -0.30000000000000004], [0.45000000000000007, -0.30000000000000004], [0.22499999999999998, 0.19999999999999996], [-0.675, -0.30000000000000004], [-0.45, -0.8], [0.9, -0.8], [-0.22499999999999998, -0.8], [-0.22499999999999998, 0.19999999999999996], [0.0, 0.7], [-0.675, 0.7], [0.22499999999999998, 0.7], [-0.9, 0.19999999999999996]]",,,,,,,,,,,,,,,,,,,,,,,,,,,,,,20,C,2024-04-29_17h21.41.975,attentional_competition_task,2022.2.4,144.01087560978226,
positions.xlsx,positions_test.xlsx,positions_test_new.xlsx,stimuli.xlsx,stimuli_new.xlsx,stimuli/Social3.png,stimuli/Social4.png,stimuli/Nonsocial3.png,stimuli/Nonsocial4.png,stimuli/Social1.png,stimuli/Social2.png,stimuli/Nonsocial1.png,stimuli/Nonsocial2.png,cs_neg_ns,"(0.7, 0.5)",,,,,,,,,0,0,0,0,,,,,,,,,0,0,0,10,,,,,,,,,,,,,,,,,,,,,,,,,,,,,,,,,,,,,802.8996727999765,819.6281569999992,-3,loss,1,0.31235710001783445,0.31236109999008477,819.9476128999959,,,,,,,,,,,,,,,,,,,,,,20,C,2024-04-29_17h21.41.975,attentional_competition_task,2022.2.4,144.01087560978226,
positions.xlsx,positions_test.xlsx,positions_test_new.xlsx,stimuli.xlsx,stimuli_new.xlsx,stimuli/Social3.png,stimuli/Social4.png,stimuli/Nonsocial3.png,stimuli/Nonsocial4.png,stimuli/Social1.png,stimuli/Social2.png,stimuli/Nonsocial1.png,stimuli/Nonsocial2.png,cs_neg_ns,"(-0.7, 0.5)",,,,,,,,,0,0,0,0,,,,,,,,,0,1,1,8,,,,,,,,,,,,,,,,,,,,,,,,,,,,,,,,,,,,,,827.4472708000103,-6,loss,1,0.395952999999281,0.39595659996848553,827.850057100004,,,,,,,,,,,,,,,,,,,,,,20,C,2024-04-29_17h21.41.975,attentional_competition_task,2022.2.4,144.01087560978226,
positions.xlsx,positions_test.xlsx,positions_test_new.xlsx,stimuli.xlsx,stimuli_new.xlsx,stimuli/Social3.png,stimuli/Social4.png,stimuli/Nonsocial3.png,stimuli/Nonsocial4.png,stimuli/Social1.png,stimuli/Social2.png,stimuli/Nonsocial1.png,stimuli/Nonsocial2.png,cs_neg_s,"(-0.7, -0.5)",,,,,,,,,0,0,0,0,,,,,,,,,0,2,2,1,,,,,,,,,,,,,,,,,,,,,,,,,,,,,,,,,,,,,,835.3358540000045,-9,loss,1,0.5212227999581955,0.5212267999886535,835.8636436999659,,,,,,,,,,,,,,,,,,,,,,20,C,2024-04-29_17h21.41.975,attentional_competition_task,2022.2.4,144.01087560978226,
positions.xlsx,positions_test.xlsx,positions_test_new.xlsx,stimuli.xlsx,stimuli_new.xlsx,stimuli/Social3.png,stimuli/Social4.png,stimuli/Nonsocial3.png,stimuli/Nonsocial4.png,stimuli/Social1.png,stimuli/Social2.png,stimuli/Nonsocial1.png,stimuli/Nonsocial2.png,cs_neg_ns,"(0.7, -0.5)",,,,,,,,,0,0,0,0,,,,,,,,,0,3,3,11,,,,,,,,,,,,,,,,,,,,,,,,,,,,,,,,,,,,,,843.3841493999935,-9,none,0,,,846.3979485000018,,,,,,,,,,,,,,,,,,,,,,20,C,2024-04-29_17h21.41.975,attentional_competition_task,2022.2.4,144.01087560978226,
positions.xlsx,positions_test.xlsx,positions_test_new.xlsx,stimuli.xlsx,stimuli_new.xlsx,stimuli/Social3.png,stimuli/Social4.png,stimuli/Nonsocial3.png,stimuli/Nonsocial4.png,stimuli/Social1.png,stimuli/Social2.png,stimuli/Nonsocial1.png,stimuli/Nonsocial2.png,cs_neg_ns,"(-0.7, -0.5)",,,,,,,,,0,0,0,0,,,,,,,,,0,4,4,9,,,,,,,,,,,,,,,,,,,,,,,,,,,,,,,,,,,,,,853.7448795000091,-9,none,0,,,856.7517070999602,,,,,,,,,,,,,,,,,,,,,,20,C,2024-04-29_17h21.41.975,attentional_competition_task,2022.2.4,144.01087560978226,
positions.xlsx,positions_test.xlsx,positions_test_new.xlsx,stimuli.xlsx,stimuli_new.xlsx,stimuli/Social3.png,stimuli/Social4.png,stimuli/Nonsocial3.png,stimuli/Nonsocial4.png,stimuli/Social1.png,stimuli/Social2.png,stimuli/Nonsocial1.png,stimuli/Nonsocial2.png,cs_pos_s,"(0.7, -0.5)",,,,,,,,,0,0,0,0,,,,,,,,,0,5,5,7,,,,,,,,,,,,,,,,,,,,,,,,,,,,,,,,,,,,,,863.3764132999931,-6,reward,1,0.791654699947685,0.7916584999766201,864.1750395999989,,,,,,,,,,,,,,,,,,,,,,20,C,2024-04-29_17h21.41.975,attentional_competition_task,2022.2.4,144.01087560978226,
positions.xlsx,positions_test.xlsx,positions_test_new.xlsx,stimuli.xlsx,stimuli_new.xlsx,stimuli/Social3.png,stimuli/Social4.png,stimuli/Nonsocial3.png,stimuli/Nonsocial4.png,stimuli/Social1.png,stimuli/Social2.png,stimuli/Nonsocial1.png,stimuli/Nonsocial2.png,cs_pos_s,"(-0.7, -0.5)",,,,,,,,,0,0,0,0,,,,,,,,,0,6,6,5,,,,,,,,,,,,,,,,,,,,,,,,,,,,,,,,,,,,,,871.9524900999968,-3,reward,1,0.5209302000002936,0.5209340000292286,872.4802275999682,,,,,,,,,,,,,,,,,,,,,,20,C,2024-04-29_17h21.41.975,attentional_competition_task,2022.2.4,144.01087560978226,
positions.xlsx,positions_test.xlsx,positions_test_new.xlsx,stimuli.xlsx,stimuli_new.xlsx,stimuli/Social3.png,stimuli/Social4.png,stimuli/Nonsocial3.png,stimuli/Nonsocial4.png,stimuli/Social1.png,stimuli/Social2.png,stimuli/Nonsocial1.png,stimuli/Nonsocial2.png,cs_neg_s,"(0.7, -0.5)",,,,,,,,,0,0,0,0,,,,,,,,,0,7,7,3,,,,,,,,,,,,,,,,,,,,,,,,,,,,,,,,,,,,,,880.0771696000011,-6,loss,1,1.2290314999991097,1.2290349999675527,881.3132352000102,,,,,,,,,,,,,,,,,,,,,,20,C,2024-04-29_17h21.41.975,attentional_competition_task,2022.2.4,144.01087560978226,
positions.xlsx,positions_test.xlsx,positions_test_new.xlsx,stimuli.xlsx,stimuli_new.xlsx,stimuli/Social3.png,stimuli/Social4.png,stimuli/Nonsocial3.png,stimuli/Nonsocial4.png,stimuli/Social1.png,stimuli/Social2.png,stimuli/Nonsocial1.png,stimuli/Nonsocial2.png,cs_neg_s,"(0.7, 0.5)",,,,,,,,,0,0,0,0,,,,,,,,,0,8,8,2,,,,,,,,,,,,,,,,,,,,,,,,,,,,,,,,,,,,,,888.1324204999837,-9,loss,1,0.6251321000163443,0.6251359999878332,888.7643249999965,,,,,,,,,,,,,,,,,,,,,,20,C,2024-04-29_17h21.41.975,attentional_competition_task,2022.2.4,144.01087560978226,
positions.xlsx,positions_test.xlsx,positions_test_new.xlsx,stimuli.xlsx,stimuli_new.xlsx,stimuli/Social3.png,stimuli/Social4.png,stimuli/Nonsocial3.png,stimuli/Nonsocial4.png,stimuli/Social1.png,stimuli/Social2.png,stimuli/Nonsocial1.png,stimuli/Nonsocial2.png,cs_pos_s,"(-0.7, 0.5)",,,,,,,,,0,0,0,0,,,,,,,,,0,9,9,4,,,,,,,,,,,,,,,,,,,,,,,,,,,,,,,,,,,,,,895.9237717000069,-6,reward,1,0.792137099953834,0.7989605999900959,896.7293306000065,,,,,,,,,,,,,,,,,,,,,,20,C,2024-04-29_17h21.41.975,attentional_competition_task,2022.2.4,144.01087560978226,
positions.xlsx,positions_test.xlsx,positions_test_new.xlsx,stimuli.xlsx,stimuli_new.xlsx,stimuli/Social3.png,stimuli/Social4.png,stimuli/Nonsocial3.png,stimuli/Nonsocial4.png,stimuli/Social1.png,stimuli/Social2.png,stimuli/Nonsocial1.png,stimuli/Nonsocial2.png,cs_pos_ns,"(0.7, -0.5)",,,,,,,,,0,0,0,0,,,,,,,,,0,10,10,15,,,,,,,,,,,,,,,,,,,,,,,,,,,,,,,,,,,,,,904.1317880999995,-3,reward,1,0.7502794999745674,0.7502831000019796,904.8887164999614,,,,,,,,,,,,,,,,,,,,,,20,C,2024-04-29_17h21.41.975,attentional_competition_task,2022.2.4,144.01087560978226,
positions.xlsx,positions_test.xlsx,positions_test_new.xlsx,stimuli.xlsx,stimuli_new.xlsx,stimuli/Social3.png,stimuli/Social4.png,stimuli/Nonsocial3.png,stimuli/Nonsocial4.png,stimuli/Social1.png,stimuli/Social2.png,stimuli/Nonsocial1.png,stimuli/Nonsocial2.png,cs_pos_ns,"(0.7, 0.5)",,,,,,,,,0,0,0,0,,,,,,,,,0,11,11,14,,,,,,,,,,,,,,,,,,,,,,,,,,,,,,,,,,,,,,912.3189647999825,0,reward,1,0.8821291999774985,0.8821330000064336,913.2077646999969,,,,,,,,,,,,,,,,,,,,,,20,C,2024-04-29_17h21.41.975,attentional_competition_task,2022.2.4,144.01087560978226,
positions.xlsx,positions_test.xlsx,positions_test_new.xlsx,stimuli.xlsx,stimuli_new.xlsx,stimuli/Social3.png,stimuli/Social4.png,stimuli/Nonsocial3.png,stimuli/Nonsocial4.png,stimuli/Social1.png,stimuli/Social2.png,stimuli/Nonsocial1.png,stimuli/Nonsocial2.png,cs_pos_ns,"(-0.7, -0.5)",,,,,,,,,0,0,0,0,,,,,,,,,0,12,12,13,,,,,,,,,,,,,,,,,,,,,,,,,,,,,,,,,,,,,,921.0338974999613,3,reward,1,0.7362055000266992,0.7362088999943808,921.7769217999885,,,,,,,,,,,,,,,,,,,,,,20,C,2024-04-29_17h21.41.975,attentional_competition_task,2022.2.4,144.01087560978226,
positions.xlsx,positions_test.xlsx,positions_test_new.xlsx,stimuli.xlsx,stimuli_new.xlsx,stimuli/Social3.png,stimuli/Social4.png,stimuli/Nonsocial3.png,stimuli/Nonsocial4.png,stimuli/Social1.png,stimuli/Social2.png,stimuli/Nonsocial1.png,stimuli/Nonsocial2.png,cs_pos_ns,"(-0.7, 0.5)",,,,,,,,,0,0,0,0,,,,,,,,,0,13,13,12,,,,,,,,,,,,,,,,,,,,,,,,,,,,,,,,,,,,,,929.4988357999828,6,reward,1,0.666626299964264,0.6666299999924377,930.1724085999886,,,,,,,,,,,,,,,,,,,,,,20,C,2024-04-29_17h21.41.975,attentional_competition_task,2022.2.4,144.01087560978226,
positions.xlsx,positions_test.xlsx,positions_test_new.xlsx,stimuli.xlsx,stimuli_new.xlsx,stimuli/Social3.png,stimuli/Social4.png,stimuli/Nonsocial3.png,stimuli/Nonsocial4.png,stimuli/Social1.png,stimuli/Social2.png,stimuli/Nonsocial1.png,stimuli/Nonsocial2.png,cs_pos_s,"(0.7, 0.5)",,,,,,,,,0,0,0,0,,,,,,,,,0,14,14,6,,,,,,,,,,,,,,,,,,,,,,,,,,,,,,,,,,,,,,937.9498901999905,9,reward,1,0.7020386000513099,0.7020425000227988,938.6582160000107,,,,,,,,,,,,,,,,,,,,,,20,C,2024-04-29_17h21.41.975,attentional_competition_task,2022.2.4,144.01087560978226,
positions.xlsx,positions_test.xlsx,positions_test_new.xlsx,stimuli.xlsx,stimuli_new.xlsx,stimuli/Social3.png,stimuli/Social4.png,stimuli/Nonsocial3.png,stimuli/Nonsocial4.png,stimuli/Social1.png,stimuli/Social2.png,stimuli/Nonsocial1.png,stimuli/Nonsocial2.png,cs_neg_s,"(-0.7, 0.5)",,,,,,,,,0,0,0,0,,,,,,,,,0,15,15,0,,,,,,,,,,,,,,,,,,,,,,,,,,,,,,,,,,,,,,946.4773339999956,9,none,0,,,949.4910927999881,,,,,,,,,,,,,,,,,,,,,,20,C,2024-04-29_17h21.41.975,attentional_competition_task,2022.2.4,144.01087560978226,
positions.xlsx,positions_test.xlsx,positions_test_new.xlsx,stimuli.xlsx,stimuli_new.xlsx,stimuli/Social3.png,stimuli/Social4.png,stimuli/Nonsocial3.png,stimuli/Nonsocial4.png,stimuli/Social1.png,stimuli/Social2.png,stimuli/Nonsocial1.png,stimuli/Nonsocial2.png,cs_pos_ns,"(-0.7, -0.5)",,,,,,,,,0,0,0,0,,,,,,,,,1,0,16,13,,,,,,,,,,,,,,,,,,,,,,,,,,,,,,,,,,,,,,957.4282851999742,12,reward,1,0.7084465000079945,0.7084501999779604,958.1504736999632,,,,,,,,,,,,,,,,,,,,,,20,C,2024-04-29_17h21.41.975,attentional_competition_task,2022.2.4,144.01087560978226,
positions.xlsx,positions_test.xlsx,positions_test_new.xlsx,stimuli.xlsx,stimuli_new.xlsx,stimuli/Social3.png,stimuli/Social4.png,stimuli/Nonsocial3.png,stimuli/Nonsocial4.png,stimuli/Social1.png,stimuli/Social2.png,stimuli/Nonsocial1.png,stimuli/Nonsocial2.png,cs_neg_s,"(-0.7, -0.5)",,,,,,,,,0,0,0,0,,,,,,,,,1,1,17,1,,,,,,,,,,,,,,,,,,,,,,,,,,,,,,,,,,,,,,965.7335326999892,12,none,0,,,968.7473136999761,,,,,,,,,,,,,,,,,,,,,,20,C,2024-04-29_17h21.41.975,attentional_competition_task,2022.2.4,144.01087560978226,
positions.xlsx,positions_test.xlsx,positions_test_new.xlsx,stimuli.xlsx,stimuli_new.xlsx,stimuli/Social3.png,stimuli/Social4.png,stimuli/Nonsocial3.png,stimuli/Nonsocial4.png,stimuli/Social1.png,stimuli/Social2.png,stimuli/Nonsocial1.png,stimuli/Nonsocial2.png,cs_neg_ns,"(0.7, -0.5)",,,,,,,,,0,0,0,0,,,,,,,,,1,2,18,11,,,,,,,,,,,,,,,,,,,,,,,,,,,,,,,,,,,,,,976.6775181000121,9,loss,1,0.6462871999829076,0.6462911000126041,977.3303528999677,,,,,,,,,,,,,,,,,,,,,,20,C,2024-04-29_17h21.41.975,attentional_competition_task,2022.2.4,144.01087560978226,
positions.xlsx,positions_test.xlsx,positions_test_new.xlsx,stimuli.xlsx,stimuli_new.xlsx,stimuli/Social3.png,stimuli/Social4.png,stimuli/Nonsocial3.png,stimuli/Nonsocial4.png,stimuli/Social1.png,stimuli/Social2.png,stimuli/Nonsocial1.png,stimuli/Nonsocial2.png,cs_pos_s,"(-0.7, 0.5)",,,,,,,,,0,0,0,0,,,,,,,,,1,3,19,4,,,,,,,,,,,,,,,,,,,,,,,,,,,,,,,,,,,,,,985.3091639999766,12,reward,1,0.6946996000478975,0.6947035000193864,986.0243783000042,,,,,,,,,,,,,,,,,,,,,,20,C,2024-04-29_17h21.41.975,attentional_competition_task,2022.2.4,144.01087560978226,
positions.xlsx,positions_test.xlsx,positions_test_new.xlsx,stimuli.xlsx,stimuli_new.xlsx,stimuli/Social3.png,stimuli/Social4.png,stimuli/Nonsocial3.png,stimuli/Nonsocial4.png,stimuli/Social1.png,stimuli/Social2.png,stimuli/Nonsocial1.png,stimuli/Nonsocial2.png,cs_neg_ns,"(-0.7, 0.5)",,,,,,,,,0,0,0,0,,,,,,,,,1,4,20,8,,,,,,,,,,,,,,,,,,,,,,,,,,,,,,,,,,,,,,993.579631200002,9,loss,1,0.6740489999647252,0.6740528999944218,994.2601839000126,,,,,,,,,,,,,,,,,,,,,,20,C,2024-04-29_17h21.41.975,attentional_competition_task,2022.2.4,144.01087560978226,
positions.xlsx,positions_test.xlsx,positions_test_new.xlsx,stimuli.xlsx,stimuli_new.xlsx,stimuli/Social3.png,stimuli/Social4.png,stimuli/Nonsocial3.png,stimuli/Nonsocial4.png,stimuli/Social1.png,stimuli/Social2.png,stimuli/Nonsocial1.png,stimuli/Nonsocial2.png,cs_pos_ns,"(0.7, 0.5)",,,,,,,,,0,0,0,0,,,,,,,,,1,5,21,14,,,,,,,,,,,,,,,,,,,,,,,,,,,,,,,,,,,,,,1001.7182171999593,12,reward,1,1.257400200003758,1.2574037000304088,1002.9820658999961,,,,,,,,,,,,,,,,,,,,,,20,C,2024-04-29_17h21.41.975,attentional_competition_task,2022.2.4,144.01087560978226,
positions.xlsx,positions_test.xlsx,positions_test_new.xlsx,stimuli.xlsx,stimuli_new.xlsx,stimuli/Social3.png,stimuli/Social4.png,stimuli/Nonsocial3.png,stimuli/Nonsocial4.png,stimuli/Social1.png,stimuli/Social2.png,stimuli/Nonsocial1.png,stimuli/Nonsocial2.png,cs_pos_s,"(0.7, 0.5)",,,,,,,,,0,0,0,0,,,,,,,,,1,6,22,6,,,,,,,,,,,,,,,,,,,,,,,,,,,,,,,,,,,,,,1010.5789868999855,15,reward,1,0.6528566000051796,0.6528602000325918,1011.2386934999959,,,,,,,,,,,,,,,,,,,,,,20,C,2024-04-29_17h21.41.975,attentional_competition_task,2022.2.4,144.01087560978226,
positions.xlsx,positions_test.xlsx,positions_test_new.xlsx,stimuli.xlsx,stimuli_new.xlsx,stimuli/Social3.png,stimuli/Social4.png,stimuli/Nonsocial3.png,stimuli/Nonsocial4.png,stimuli/Social1.png,stimuli/Social2.png,stimuli/Nonsocial1.png,stimuli/Nonsocial2.png,cs_neg_s,"(0.7, 0.5)",,,,,,,,,0,0,0,0,,,,,,,,,1,7,23,2,,,,,,,,,,,,,,,,,,,,,,,,,,,,,,,,,,,,,,1018.3425450999639,15,none,0,,,1021.3563491000095,,,,,,,,,,,,,,,,,,,,,,20,C,2024-04-29_17h21.41.975,attentional_competition_task,2022.2.4,144.01087560978226,
positions.xlsx,positions_test.xlsx,positions_test_new.xlsx,stimuli.xlsx,stimuli_new.xlsx,stimuli/Social3.png,stimuli/Social4.png,stimuli/Nonsocial3.png,stimuli/Nonsocial4.png,stimuli/Social1.png,stimuli/Social2.png,stimuli/Nonsocial1.png,stimuli/Nonsocial2.png,cs_pos_s,"(0.7, -0.5)",,,,,,,,,0,0,0,0,,,,,,,,,1,8,24,7,,,,,,,,,,,,,,,,,,,,,,,,,,,,,,,,,,,,,,1028.3560784999863,18,reward,1,0.6595755000016652,0.6595792000298388,1029.0227068999666,,,,,,,,,,,,,,,,,,,,,,20,C,2024-04-29_17h21.41.975,attentional_competition_task,2022.2.4,144.01087560978226,
positions.xlsx,positions_test.xlsx,positions_test_new.xlsx,stimuli.xlsx,stimuli_new.xlsx,stimuli/Social3.png,stimuli/Social4.png,stimuli/Nonsocial3.png,stimuli/Nonsocial4.png,stimuli/Social1.png,stimuli/Social2.png,stimuli/Nonsocial1.png,stimuli/Nonsocial2.png,cs_neg_s,"(0.7, -0.5)",,,,,,,,,0,0,0,0,,,,,,,,,1,9,25,3,,,,,,,,,,,,,,,,,,,,,,,,,,,,,,,,,,,,,,1036.7932261999813,18,none,0,,,1039.8070005999762,,,,,,,,,,,,,,,,,,,,,,20,C,2024-04-29_17h21.41.975,attentional_competition_task,2022.2.4,144.01087560978226,
positions.xlsx,positions_test.xlsx,positions_test_new.xlsx,stimuli.xlsx,stimuli_new.xlsx,stimuli/Social3.png,stimuli/Social4.png,stimuli/Nonsocial3.png,stimuli/Nonsocial4.png,stimuli/Social1.png,stimuli/Social2.png,stimuli/Nonsocial1.png,stimuli/Nonsocial2.png,cs_pos_ns,"(0.7, -0.5)",,,,,,,,,0,0,0,0,,,,,,,,,1,10,26,15,,,,,,,,,,,,,,,,,,,,,,,,,,,,,,,,,,,,,,1046.987301999994,21,reward,1,0.7365512000396848,0.736555400013458,1047.7302861000062,,,,,,,,,,,,,,,,,,,,,,20,C,2024-04-29_17h21.41.975,attentional_competition_task,2022.2.4,144.01087560978226,
positions.xlsx,positions_test.xlsx,positions_test_new.xlsx,stimuli.xlsx,stimuli_new.xlsx,stimuli/Social3.png,stimuli/Social4.png,stimuli/Nonsocial3.png,stimuli/Nonsocial4.png,stimuli/Social1.png,stimuli/Social2.png,stimuli/Nonsocial1.png,stimuli/Nonsocial2.png,cs_neg_ns,"(0.7, 0.5)",,,,,,,,,0,0,0,0,,,,,,,,,1,11,27,10,,,,,,,,,,,,,,,,,,,,,,,,,,,,,,,,,,,,,,1055.5355713000172,18,loss,1,0.7574037999729626,0.7574078000034206,1056.3688728999696,,,,,,,,,,,,,,,,,,,,,,20,C,2024-04-29_17h21.41.975,attentional_competition_task,2022.2.4,144.01087560978226,
positions.xlsx,positions_test.xlsx,positions_test_new.xlsx,stimuli.xlsx,stimuli_new.xlsx,stimuli/Social3.png,stimuli/Social4.png,stimuli/Nonsocial3.png,stimuli/Nonsocial4.png,stimuli/Social1.png,stimuli/Social2.png,stimuli/Nonsocial1.png,stimuli/Nonsocial2.png,cs_pos_s,"(-0.7, -0.5)",,,,,,,,,0,0,0,0,,,,,,,,,1,12,28,5,,,,,,,,,,,,,,,,,,,,,,,,,,,,,,,,,,,,,,1063.757461400004,21,reward,1,0.6186293000355363,0.6186332000070252,1064.3824368999922,,,,,,,,,,,,,,,,,,,,,,20,C,2024-04-29_17h21.41.975,attentional_competition_task,2022.2.4,144.01087560978226,
positions.xlsx,positions_test.xlsx,positions_test_new.xlsx,stimuli.xlsx,stimuli_new.xlsx,stimuli/Social3.png,stimuli/Social4.png,stimuli/Nonsocial3.png,stimuli/Nonsocial4.png,stimuli/Social1.png,stimuli/Social2.png,stimuli/Nonsocial1.png,stimuli/Nonsocial2.png,cs_neg_s,"(-0.7, 0.5)",,,,,,,,,0,0,0,0,,,,,,,,,1,13,29,0,,,,,,,,,,,,,,,,,,,,,,,,,,,,,,,,,,,,,,1071.4238011999987,21,none,0,,,1074.4306711999816,,,,,,,,,,,,,,,,,,,,,,20,C,2024-04-29_17h21.41.975,attentional_competition_task,2022.2.4,144.01087560978226,
positions.xlsx,positions_test.xlsx,positions_test_new.xlsx,stimuli.xlsx,stimuli_new.xlsx,stimuli/Social3.png,stimuli/Social4.png,stimuli/Nonsocial3.png,stimuli/Nonsocial4.png,stimuli/Social1.png,stimuli/Social2.png,stimuli/Nonsocial1.png,stimuli/Nonsocial2.png,cs_pos_ns,"(-0.7, 0.5)",,,,,,,,,0,0,0,0,,,,,,,,,1,14,30,12,,,,,,,,,,,,,,,,,,,,,,,,,,,,,,,,,,,,,,1081.4442367000156,24,reward,1,0.7430230000172742,0.7430265999864787,1082.1942328999867,,,,,,,,,,,,,,,,,,,,,,20,C,2024-04-29_17h21.41.975,attentional_competition_task,2022.2.4,144.01087560978226,
positions.xlsx,positions_test.xlsx,positions_test_new.xlsx,stimuli.xlsx,stimuli_new.xlsx,stimuli/Social3.png,stimuli/Social4.png,stimuli/Nonsocial3.png,stimuli/Nonsocial4.png,stimuli/Social1.png,stimuli/Social2.png,stimuli/Nonsocial1.png,stimuli/Nonsocial2.png,cs_neg_ns,"(-0.7, -0.5)",,,,,,,,,0,0,0,0,,,,,,,,,1,15,31,9,,,,,,,,,,,,,,,,,,,,,,,,,,,,,,,,,,,,,,1089.6175498999655,24,none,0,,,1092.631317399966,,,,,,,,,,,,,,,,,,,,,,20,C,2024-04-29_17h21.41.975,attentional_competition_task,2022.2.4,144.01087560978226,
positions.xlsx,positions_test.xlsx,positions_test_new.xlsx,stimuli.xlsx,stimuli_new.xlsx,stimuli/Social3.png,stimuli/Social4.png,stimuli/Nonsocial3.png,stimuli/Nonsocial4.png,stimuli/Social1.png,stimuli/Social2.png,stimuli/Nonsocial1.png,stimuli/Nonsocial2.png,cs_neg_ns,"(-0.7, -0.5)",,,,,,,,,0,0,0,0,,,,,,,,,,,,,0,0,0,9,,,,,,,,,,,,,,,,,,,,,,,,,,,,,,,,,,1111.0542083999608,21,loss,1,1.2851917000371031,1.2851950000040233,1112.345833099971,,,,,,,,,,,,,,,,,,,,,,20,C,2024-04-29_17h21.41.975,attentional_competition_task,2022.2.4,144.01087560978226,
positions.xlsx,positions_test.xlsx,positions_test_new.xlsx,stimuli.xlsx,stimuli_new.xlsx,stimuli/Social3.png,stimuli/Social4.png,stimuli/Nonsocial3.png,stimuli/Nonsocial4.png,stimuli/Social1.png,stimuli/Social2.png,stimuli/Nonsocial1.png,stimuli/Nonsocial2.png,cs_pos_s,"(-0.7, -0.5)",,,,,,,,,0,0,0,0,,,,,,,,,,,,,0,1,1,5,,,,,,,,,,,,,,,,,,,,,,,,,,,,,,,,,,1119.7482877000002,24,reward,1,0.6876534000039101,0.6876567999715917,1120.4427026999765,,,,,,,,,,,,,,,,,,,,,,20,C,2024-04-29_17h21.41.975,attentional_competition_task,2022.2.4,144.01087560978226,
positions.xlsx,positions_test.xlsx,positions_test_new.xlsx,stimuli.xlsx,stimuli_new.xlsx,stimuli/Social3.png,stimuli/Social4.png,stimuli/Nonsocial3.png,stimuli/Nonsocial4.png,stimuli/Social1.png,stimuli/Social2.png,stimuli/Nonsocial1.png,stimuli/Nonsocial2.png,cs_neg_s,"(-0.7, 0.5)",,,,,,,,,0,0,0,0,,,,,,,,,,,,,0,2,2,0,,,,,,,,,,,,,,,,,,,,,,,,,,,,,,,,,,1128.3104417999857,24,none,0,,,1131.3242477999884,,,,,,,,,,,,,,,,,,,,,,20,C,2024-04-29_17h21.41.975,attentional_competition_task,2022.2.4,144.01087560978226,
positions.xlsx,positions_test.xlsx,positions_test_new.xlsx,stimuli.xlsx,stimuli_new.xlsx,stimuli/Social3.png,stimuli/Social4.png,stimuli/Nonsocial3.png,stimuli/Nonsocial4.png,stimuli/Social1.png,stimuli/Social2.png,stimuli/Nonsocial1.png,stimuli/Nonsocial2.png,cs_neg_ns,"(0.7, 0.5)",,,,,,,,,0,0,0,0,,,,,,,,,,,,,0,3,3,10,,,,,,,,,,,,,,,,,,,,,,,,,,,,,,,,,,1138.9905833000084,21,loss,1,0.6112572000129148,0.6112610999844037,1139.6086429000134,,,,,,,,,,,,,,,,,,,,,,20,C,2024-04-29_17h21.41.975,attentional_competition_task,2022.2.4,144.01087560978226,
positions.xlsx,positions_test.xlsx,positions_test_new.xlsx,stimuli.xlsx,stimuli_new.xlsx,stimuli/Social3.png,stimuli/Social4.png,stimuli/Nonsocial3.png,stimuli/Nonsocial4.png,stimuli/Social1.png,stimuli/Social2.png,stimuli/Nonsocial1.png,stimuli/Nonsocial2.png,cs_pos_ns,"(-0.7, -0.5)",,,,,,,,,0,0,0,0,,,,,,,,,,,,,0,4,4,13,,,,,,,,,,,,,,,,,,,,,,,,,,,,,,,,,,1146.3514486000058,24,reward,1,0.7360423000063747,0.736045700032264,1147.0944613000029,,,,,,,,,,,,,,,,,,,,,,20,C,2024-04-29_17h21.41.975,attentional_competition_task,2022.2.4,144.01087560978226,
positions.xlsx,positions_test.xlsx,positions_test_new.xlsx,stimuli.xlsx,stimuli_new.xlsx,stimuli/Social3.png,stimuli/Social4.png,stimuli/Nonsocial3.png,stimuli/Nonsocial4.png,stimuli/Social1.png,stimuli/Social2.png,stimuli/Nonsocial1.png,stimuli/Nonsocial2.png,cs_pos_ns,"(-0.7, 0.5)",,,,,,,,,0,0,0,0,,,,,,,,,,,,,0,5,5,12,,,,,,,,,,,,,,,,,,,,,,,,,,,,,,,,,,1154.5733067999827,27,reward,1,0.8748571000178345,0.874860699987039,1155.4552554999827,,,,,,,,,,,,,,,,,,,,,,20,C,2024-04-29_17h21.41.975,attentional_competition_task,2022.2.4,144.01087560978226,
positions.xlsx,positions_test.xlsx,positions_test_new.xlsx,stimuli.xlsx,stimuli_new.xlsx,stimuli/Social3.png,stimuli/Social4.png,stimuli/Nonsocial3.png,stimuli/Nonsocial4.png,stimuli/Social1.png,stimuli/Social2.png,stimuli/Nonsocial1.png,stimuli/Nonsocial2.png,cs_pos_s,"(-0.7, 0.5)",,,,,,,,,0,0,0,0,,,,,,,,,,,,,0,6,6,4,,,,,,,,,,,,,,,,,,,,,,,,,,,,,,,,,,1162.4896597999614,30,reward,1,0.6181343999924138,0.6181380999623798,1163.1147039000061,,,,,,,,,,,,,,,,,,,,,,20,C,2024-04-29_17h21.41.975,attentional_competition_task,2022.2.4,144.01087560978226,
positions.xlsx,positions_test.xlsx,positions_test_new.xlsx,stimuli.xlsx,stimuli_new.xlsx,stimuli/Social3.png,stimuli/Social4.png,stimuli/Nonsocial3.png,stimuli/Nonsocial4.png,stimuli/Social1.png,stimuli/Social2.png,stimuli/Nonsocial1.png,stimuli/Nonsocial2.png,cs_pos_s,"(0.7, -0.5)",,,,,,,,,0,0,0,0,,,,,,,,,,,,,0,7,7,7,,,,,,,,,,,,,,,,,,,,,,,,,,,,,,,,,,1171.058770100004,33,reward,1,0.25745989999268204,0.2574637000216171,1171.3226715999772,,,,,,,,,,,,,,,,,,,,,,20,C,2024-04-29_17h21.41.975,attentional_competition_task,2022.2.4,144.01087560978226,
positions.xlsx,positions_test.xlsx,positions_test_new.xlsx,stimuli.xlsx,stimuli_new.xlsx,stimuli/Social3.png,stimuli/Social4.png,stimuli/Nonsocial3.png,stimuli/Nonsocial4.png,stimuli/Social1.png,stimuli/Social2.png,stimuli/Nonsocial1.png,stimuli/Nonsocial2.png,cs_pos_ns,"(0.7, 0.5)",,,,,,,,,0,0,0,0,,,,,,,,,,,,,0,8,8,14,,,,,,,,,,,,,,,,,,,,,,,,,,,,,,,,,,1179.0098926000064,36,reward,1,0.6741605999995954,0.674177500011865,1179.6903966999962,,,,,,,,,,,,,,,,,,,,,,20,C,2024-04-29_17h21.41.975,attentional_competition_task,2022.2.4,144.01087560978226,
positions.xlsx,positions_test.xlsx,positions_test_new.xlsx,stimuli.xlsx,stimuli_new.xlsx,stimuli/Social3.png,stimuli/Social4.png,stimuli/Nonsocial3.png,stimuli/Nonsocial4.png,stimuli/Social1.png,stimuli/Social2.png,stimuli/Nonsocial1.png,stimuli/Nonsocial2.png,cs_neg_ns,"(-0.7, 0.5)",,,,,,,,,0,0,0,0,,,,,,,,,,,,,0,9,9,8,,,,,,,,,,,,,,,,,,,,,,,,,,,,,,,,,,1187.4331709999824,33,loss,1,0.7084037000313401,0.7084073000005446,1188.148373599979,,,,,,,,,,,,,,,,,,,,,,20,C,2024-04-29_17h21.41.975,attentional_competition_task,2022.2.4,144.01087560978226,
positions.xlsx,positions_test.xlsx,positions_test_new.xlsx,stimuli.xlsx,stimuli_new.xlsx,stimuli/Social3.png,stimuli/Social4.png,stimuli/Nonsocial3.png,stimuli/Nonsocial4.png,stimuli/Social1.png,stimuli/Social2.png,stimuli/Nonsocial1.png,stimuli/Nonsocial2.png,cs_pos_s,"(0.7, 0.5)",,,,,,,,,0,0,0,0,,,,,,,,,,,,,0,10,10,6,,,,,,,,,,,,,,,,,,,,,,,,,,,,,,,,,,1195.8703330999706,36,reward,1,0.5211060000001453,0.5279369999771006,1196.4050148999668,,,,,,,,,,,,,,,,,,,,,,20,C,2024-04-29_17h21.41.975,attentional_competition_task,2022.2.4,144.01087560978226,
positions.xlsx,positions_test.xlsx,positions_test_new.xlsx,stimuli.xlsx,stimuli_new.xlsx,stimuli/Social3.png,stimuli/Social4.png,stimuli/Nonsocial3.png,stimuli/Nonsocial4.png,stimuli/Social1.png,stimuli/Social2.png,stimuli/Nonsocial1.png,stimuli/Nonsocial2.png,cs_neg_s,"(-0.7, -0.5)",,,,,,,,,0,0,0,0,,,,,,,,,,,,,0,11,11,1,,,,,,,,,,,,,,,,,,,,,,,,,,,,,,,,,,1203.7311387999798,36,none,0,,,1206.744892799994,,,,,,,,,,,,,,,,,,,,,,20,C,2024-04-29_17h21.41.975,attentional_competition_task,2022.2.4,144.01087560978226,
positions.xlsx,positions_test.xlsx,positions_test_new.xlsx,stimuli.xlsx,stimuli_new.xlsx,stimuli/Social3.png,stimuli/Social4.png,stimuli/Nonsocial3.png,stimuli/Nonsocial4.png,stimuli/Social1.png,stimuli/Social2.png,stimuli/Nonsocial1.png,stimuli/Nonsocial2.png,cs_neg_s,"(0.7, -0.5)",,,,,,,,,0,0,0,0,,,,,,,,,,,,,0,12,12,3,,,,,,,,,,,,,,,,,,,,,,,,,,,,,,,,,,1214.4390443000011,36,none,0,,,1217.4459115999634,,,,,,,,,,,,,,,,,,,,,,20,C,2024-04-29_17h21.41.975,attentional_competition_task,2022.2.4,144.01087560978226,
positions.xlsx,positions_test.xlsx,positions_test_new.xlsx,stimuli.xlsx,stimuli_new.xlsx,stimuli/Social3.png,stimuli/Social4.png,stimuli/Nonsocial3.png,stimuli/Nonsocial4.png,stimuli/Social1.png,stimuli/Social2.png,stimuli/Nonsocial1.png,stimuli/Nonsocial2.png,cs_neg_ns,"(0.7, -0.5)",,,,,,,,,0,0,0,0,,,,,,,,,,,,,0,13,13,11,,,,,,,,,,,,,,,,,,,,,,,,,,,,,,,,,,1225.1122458999744,36,none,0,,,1228.126014199981,,,,,,,,,,,,,,,,,,,,,,20,C,2024-04-29_17h21.41.975,attentional_competition_task,2022.2.4,144.01087560978226,
positions.xlsx,positions_test.xlsx,positions_test_new.xlsx,stimuli.xlsx,stimuli_new.xlsx,stimuli/Social3.png,stimuli/Social4.png,stimuli/Nonsocial3.png,stimuli/Nonsocial4.png,stimuli/Social1.png,stimuli/Social2.png,stimuli/Nonsocial1.png,stimuli/Nonsocial2.png,cs_pos_ns,"(0.7, -0.5)",,,,,,,,,0,0,0,0,,,,,,,,,,,,,0,14,14,15,,,,,,,,,,,,,,,,,,,,,,,,,,,,,,,,,,1235.7646023000125,39,reward,1,0.7155347000225447,0.7155384999932721,1236.4867939999676,,,,,,,,,,,,,,,,,,,,,,20,C,2024-04-29_17h21.41.975,attentional_competition_task,2022.2.4,144.01087560978226,
positions.xlsx,positions_test.xlsx,positions_test_new.xlsx,stimuli.xlsx,stimuli_new.xlsx,stimuli/Social3.png,stimuli/Social4.png,stimuli/Nonsocial3.png,stimuli/Nonsocial4.png,stimuli/Social1.png,stimuli/Social2.png,stimuli/Nonsocial1.png,stimuli/Nonsocial2.png,cs_neg_s,"(0.7, 0.5)",,,,,,,,,0,0,0,0,,,,,,,,,,,,,0,15,15,2,,,,,,,,,,,,,,,,,,,,,,,,,,,,,,,,,,1244.229553000012,39,none,0,,,1247.2363669999759,,,,,,,,,,,,,,,,,,,,,,20,C,2024-04-29_17h21.41.975,attentional_competition_task,2022.2.4,144.01087560978226,
positions.xlsx,positions_test.xlsx,positions_test_new.xlsx,stimuli.xlsx,stimuli_new.xlsx,stimuli/Social3.png,stimuli/Social4.png,stimuli/Nonsocial3.png,stimuli/Nonsocial4.png,stimuli/Social1.png,stimuli/Social2.png,stimuli/Nonsocial1.png,stimuli/Nonsocial2.png,cs_pos_ns,"(-0.7, 0.5)",,,,,,,,,0,0,0,0,,,,,,,,,,,,,1,0,16,12,,,,,,,,,,,,,,,,,,,,,,,,,,,,,,,,,,1255.2499434999772,42,reward,1,0.7780015000025742,0.7780049999710172,1256.0346810999908,,,,,,,,,,,,,,,,,,,,,,20,C,2024-04-29_17h21.41.975,attentional_competition_task,2022.2.4,144.01087560978226,
positions.xlsx,positions_test.xlsx,positions_test_new.xlsx,stimuli.xlsx,stimuli_new.xlsx,stimuli/Social3.png,stimuli/Social4.png,stimuli/Nonsocial3.png,stimuli/Nonsocial4.png,stimuli/Social1.png,stimuli/Social2.png,stimuli/Nonsocial1.png,stimuli/Nonsocial2.png,cs_neg_ns,"(-0.7, 0.5)",,,,,,,,,0,0,0,0,,,,,,,,,,,,,1,1,17,8,,,,,,,,,,,,,,,,,,,,,,,,,,,,,,,,,,1263.8884994999971,42,none,0,,,1266.9022586999927,,,,,,,,,,,,,,,,,,,,,,20,C,2024-04-29_17h21.41.975,attentional_competition_task,2022.2.4,144.01087560978226,
positions.xlsx,positions_test.xlsx,positions_test_new.xlsx,stimuli.xlsx,stimuli_new.xlsx,stimuli/Social3.png,stimuli/Social4.png,stimuli/Nonsocial3.png,stimuli/Nonsocial4.png,stimuli/Social1.png,stimuli/Social2.png,stimuli/Nonsocial1.png,stimuli/Nonsocial2.png,cs_neg_ns,"(-0.7, -0.5)",,,,,,,,,0,0,0,0,,,,,,,,,,,,,1,2,18,9,,,,,,,,,,,,,,,,,,,,,,,,,,,,,,,,,,1274.3950144000119,42,none,0,,,1277.4087941999896,,,,,,,,,,,,,,,,,,,,,,20,C,2024-04-29_17h21.41.975,attentional_competition_task,2022.2.4,144.01087560978226,
positions.xlsx,positions_test.xlsx,positions_test_new.xlsx,stimuli.xlsx,stimuli_new.xlsx,stimuli/Social3.png,stimuli/Social4.png,stimuli/Nonsocial3.png,stimuli/Nonsocial4.png,stimuli/Social1.png,stimuli/Social2.png,stimuli/Nonsocial1.png,stimuli/Nonsocial2.png,cs_pos_s,"(-0.7, -0.5)",,,,,,,,,0,0,0,0,,,,,,,,,,,,,1,3,19,5,,,,,,,,,,,,,,,,,,,,,,,,,,,,,,,,,,1285.241835599998,45,reward,1,0.43094379996182397,0.4309478999930434,1285.679297900002,,,,,,,,,,,,,,,,,,,,,,20,C,2024-04-29_17h21.41.975,attentional_competition_task,2022.2.4,144.01087560978226,
positions.xlsx,positions_test.xlsx,positions_test_new.xlsx,stimuli.xlsx,stimuli_new.xlsx,stimuli/Social3.png,stimuli/Social4.png,stimuli/Nonsocial3.png,stimuli/Nonsocial4.png,stimuli/Social1.png,stimuli/Social2.png,stimuli/Nonsocial1.png,stimuli/Nonsocial2.png,cs_pos_s,"(-0.7, 0.5)",,,,,,,,,0,0,0,0,,,,,,,,,,,,,1,4,20,4,,,,,,,,,,,,,,,,,,,,,,,,,,,,,,,,,,1293.241504799982,48,reward,1,0.5280202999711037,0.5280237999977544,1293.776223599969,,,,,,,,,,,,,,,,,,,,,,20,C,2024-04-29_17h21.41.975,attentional_competition_task,2022.2.4,144.01087560978226,
positions.xlsx,positions_test.xlsx,positions_test_new.xlsx,stimuli.xlsx,stimuli_new.xlsx,stimuli/Social3.png,stimuli/Social4.png,stimuli/Nonsocial3.png,stimuli/Nonsocial4.png,stimuli/Social1.png,stimuli/Social2.png,stimuli/Nonsocial1.png,stimuli/Nonsocial2.png,cs_pos_ns,"(0.7, -0.5)",,,,,,,,,0,0,0,0,,,,,,,,,,,,,1,5,21,15,,,,,,,,,,,,,,,,,,,,,,,,,,,,,,,,,,1301.5398205000092,51,reward,1,0.7851272000116296,0.7851308000390418,1302.3314716999885,,,,,,,,,,,,,,,,,,,,,,20,C,2024-04-29_17h21.41.975,attentional_competition_task,2022.2.4,144.01087560978226,
positions.xlsx,positions_test.xlsx,positions_test_new.xlsx,stimuli.xlsx,stimuli_new.xlsx,stimuli/Social3.png,stimuli/Social4.png,stimuli/Nonsocial3.png,stimuli/Nonsocial4.png,stimuli/Social1.png,stimuli/Social2.png,stimuli/Nonsocial1.png,stimuli/Nonsocial2.png,cs_neg_ns,"(0.7, -0.5)",,,,,,,,,0,0,0,0,,,,,,,,,,,,,1,6,22,11,,,,,,,,,,,,,,,,,,,,,,,,,,,,,,,,,,1310.4144703999627,48,loss,1,0.5907838999992236,0.5907874000258744,1311.0116253999877,,,,,,,,,,,,,,,,,,,,,,20,C,2024-04-29_17h21.41.975,attentional_competition_task,2022.2.4,144.01087560978226,
positions.xlsx,positions_test.xlsx,positions_test_new.xlsx,stimuli.xlsx,stimuli_new.xlsx,stimuli/Social3.png,stimuli/Social4.png,stimuli/Nonsocial3.png,stimuli/Nonsocial4.png,stimuli/Social1.png,stimuli/Social2.png,stimuli/Nonsocial1.png,stimuli/Nonsocial2.png,cs_neg_ns,"(0.7, 0.5)",,,,,,,,,0,0,0,0,,,,,,,,,,,,,1,7,23,10,,,,,,,,,,,,,,,,,,,,,,,,,,,,,,,,,,1318.476643299975,45,loss,1,0.7154180000070482,0.715421500033699,1319.1988236999605,,,,,,,,,,,,,,,,,,,,,,20,C,2024-04-29_17h21.41.975,attentional_competition_task,2022.2.4,144.01087560978226,
positions.xlsx,positions_test.xlsx,positions_test_new.xlsx,stimuli.xlsx,stimuli_new.xlsx,stimuli/Social3.png,stimuli/Social4.png,stimuli/Nonsocial3.png,stimuli/Nonsocial4.png,stimuli/Social1.png,stimuli/Social2.png,stimuli/Nonsocial1.png,stimuli/Nonsocial2.png,cs_pos_ns,"(0.7, 0.5)",,,,,,,,,0,0,0,0,,,,,,,,,,,,,1,8,24,14,,,,,,,,,,,,,,,,,,,,,,,,,,,,,,,,,,1326.254103299987,48,reward,1,0.6323606999940239,0.6323643000214361,1326.8929778999882,,,,,,,,,,,,,,,,,,,,,,20,C,2024-04-29_17h21.41.975,attentional_competition_task,2022.2.4,144.01087560978226,
positions.xlsx,positions_test.xlsx,positions_test_new.xlsx,stimuli.xlsx,stimuli_new.xlsx,stimuli/Social3.png,stimuli/Social4.png,stimuli/Nonsocial3.png,stimuli/Nonsocial4.png,stimuli/Social1.png,stimuli/Social2.png,stimuli/Nonsocial1.png,stimuli/Nonsocial2.png,cs_pos_s,"(0.7, 0.5)",,,,,,,,,0,0,0,0,,,,,,,,,,,,,1,9,25,6,,,,,,,,,,,,,,,,,,,,,,,,,,,,,,,,,,1334.489944299974,51,reward,1,0.6113829999812879,0.6113866000087,1335.1079522999935,,,,,,,,,,,,,,,,,,,,,,20,C,2024-04-29_17h21.41.975,attentional_competition_task,2022.2.4,144.01087560978226,
positions.xlsx,positions_test.xlsx,positions_test_new.xlsx,stimuli.xlsx,stimuli_new.xlsx,stimuli/Social3.png,stimuli/Social4.png,stimuli/Nonsocial3.png,stimuli/Nonsocial4.png,stimuli/Social1.png,stimuli/Social2.png,stimuli/Nonsocial1.png,stimuli/Nonsocial2.png,cs_neg_s,"(-0.7, 0.5)",,,,,,,,,0,0,0,0,,,,,,,,,,,,,1,10,26,0,,,,,,,,,,,,,,,,,,,,,,,,,,,,,,,,,,1342.8645964000025,51,none,0,,,1345.8713974999846,,,,,,,,,,,,,,,,,,,,,,20,C,2024-04-29_17h21.41.975,attentional_competition_task,2022.2.4,144.01087560978226,
positions.xlsx,positions_test.xlsx,positions_test_new.xlsx,stimuli.xlsx,stimuli_new.xlsx,stimuli/Social3.png,stimuli/Social4.png,stimuli/Nonsocial3.png,stimuli/Nonsocial4.png,stimuli/Social1.png,stimuli/Social2.png,stimuli/Nonsocial1.png,stimuli/Nonsocial2.png,cs_neg_s,"(0.7, 0.5)",,,,,,,,,0,0,0,0,,,,,,,,,,,,,1,11,27,2,,,,,,,,,,,,,,,,,,,,,,,,,,,,,,,,,,1353.718313499994,51,none,0,,,1356.7321372000151,,,,,,,,,,,,,,,,,,,,,,20,C,2024-04-29_17h21.41.975,attentional_competition_task,2022.2.4,144.01087560978226,
positions.xlsx,positions_test.xlsx,positions_test_new.xlsx,stimuli.xlsx,stimuli_new.xlsx,stimuli/Social3.png,stimuli/Social4.png,stimuli/Nonsocial3.png,stimuli/Nonsocial4.png,stimuli/Social1.png,stimuli/Social2.png,stimuli/Nonsocial1.png,stimuli/Nonsocial2.png,cs_neg_s,"(-0.7, -0.5)",,,,,,,,,0,0,0,0,,,,,,,,,,,,,1,12,28,1,,,,,,,,,,,,,,,,,,,,,,,,,,,,,,,,,,1364.7804127999698,51,none,0,,,1367.7872343999916,,,,,,,,,,,,,,,,,,,,,,20,C,2024-04-29_17h21.41.975,attentional_competition_task,2022.2.4,144.01087560978226,
positions.xlsx,positions_test.xlsx,positions_test_new.xlsx,stimuli.xlsx,stimuli_new.xlsx,stimuli/Social3.png,stimuli/Social4.png,stimuli/Nonsocial3.png,stimuli/Nonsocial4.png,stimuli/Social1.png,stimuli/Social2.png,stimuli/Nonsocial1.png,stimuli/Nonsocial2.png,cs_pos_ns,"(-0.7, -0.5)",,,,,,,,,0,0,0,0,,,,,,,,,,,,,1,13,29,13,,,,,,,,,,,,,,,,,,,,,,,,,,,,,,,,,,1375.2522338000126,54,reward,1,0.5905945000122301,0.5905982999829575,1375.8494497999782,,,,,,,,,,,,,,,,,,,,,,20,C,2024-04-29_17h21.41.975,attentional_competition_task,2022.2.4,144.01087560978226,
positions.xlsx,positions_test.xlsx,positions_test_new.xlsx,stimuli.xlsx,stimuli_new.xlsx,stimuli/Social3.png,stimuli/Social4.png,stimuli/Nonsocial3.png,stimuli/Nonsocial4.png,stimuli/Social1.png,stimuli/Social2.png,stimuli/Nonsocial1.png,stimuli/Nonsocial2.png,cs_neg_s,"(0.7, -0.5)",,,,,,,,,0,0,0,0,,,,,,,,,,,,,1,14,30,3,,,,,,,,,,,,,,,,,,,,,,,,,,,,,,,,,,1383.3352155999746,54,none,0,,,1386.3490211999742,,,,,,,,,,,,,,,,,,,,,,20,C,2024-04-29_17h21.41.975,attentional_competition_task,2022.2.4,144.01087560978226,
positions.xlsx,positions_test.xlsx,positions_test_new.xlsx,stimuli.xlsx,stimuli_new.xlsx,stimuli/Social3.png,stimuli/Social4.png,stimuli/Nonsocial3.png,stimuli/Nonsocial4.png,stimuli/Social1.png,stimuli/Social2.png,stimuli/Nonsocial1.png,stimuli/Nonsocial2.png,cs_pos_s,"(0.7, -0.5)",,,,,,,,,0,0,0,0,,,,,,,,,,,,,1,15,31,7,,,,,,,,,,,,,,,,,,,,,,,,,,,,,,,,,,1393.3765503999894,57,reward,1,0.6180222000111826,0.6180257999803871,1394.0015179999755,,,,,,,,,,,,,,,,,,,,,,20,C,2024-04-29_17h21.41.975,attentional_competition_task,2022.2.4,144.01087560978226,
positions.xlsx,positions_test.xlsx,positions_test_new.xlsx,stimuli.xlsx,stimuli_new.xlsx,stimuli/Social3.png,stimuli/Social4.png,stimuli/Nonsocial3.png,stimuli/Nonsocial4.png,stimuli/Social1.png,stimuli/Social2.png,stimuli/Nonsocial1.png,stimuli/Nonsocial2.png,cs_neg_ns,,,,,,,,,,0,0,0,0,,,,,,,,,,,,,,,,,0,0,0,1,,,,,,,,,,,,,,,,,,,,,,,1398.7166051999666,6.0,4.2129755000351,,,,,,,,,,,,,,,,,,,,,,,,,,,,,,,,,20,C,2024-04-29_17h21.41.975,attentional_competition_task,2022.2.4,144.01087560978226,
positions.xlsx,positions_test.xlsx,positions_test_new.xlsx,stimuli.xlsx,stimuli_new.xlsx,stimuli/Social3.png,stimuli/Social4.png,stimuli/Nonsocial3.png,stimuli/Nonsocial4.png,stimuli/Social1.png,stimuli/Social2.png,stimuli/Nonsocial1.png,stimuli/Nonsocial2.png,cs_neg_s,,,,,,,,,,0,0,0,0,,,,,,,,,,,,,,,,,0,1,1,0,,,,,,,,,,,,,,,,,,,,,,,1403.3483571999823,5.0,1.772795099997893,,,,,,,,,,,,,,,,,,,,,,,,,,,,,,,,,20,C,2024-04-29_17h21.41.975,attentional_competition_task,2022.2.4,144.01087560978226,
positions.xlsx,positions_test.xlsx,positions_test_new.xlsx,stimuli.xlsx,stimuli_new.xlsx,stimuli/Social3.png,stimuli/Social4.png,stimuli/Nonsocial3.png,stimuli/Nonsocial4.png,stimuli/Social1.png,stimuli/Social2.png,stimuli/Nonsocial1.png,stimuli/Nonsocial2.png,cs_pos_s,,,,,,,,,,0,0,0,0,,,,,,,,,,,,,,,,,0,2,2,2,,,,,,,,,,,,,,,,,,,,,,,1405.5288008999778,5.0,0.8074142999830656,,,,,,,,,,,,,,,,,,,,,,,,,,,,,,,,,20,C,2024-04-29_17h21.41.975,attentional_competition_task,2022.2.4,144.01087560978226,
positions.xlsx,positions_test.xlsx,positions_test_new.xlsx,stimuli.xlsx,stimuli_new.xlsx,stimuli/Social3.png,stimuli/Social4.png,stimuli/Nonsocial3.png,stimuli/Nonsocial4.png,stimuli/Social1.png,stimuli/Social2.png,stimuli/Nonsocial1.png,stimuli/Nonsocial2.png,cs_pos_ns,,,,,,,,,,0,0,0,0,,,,,,,,,,,,,,,,,0,3,3,3,,,,,,,,,,,,,,,,,,,,,,,1406.702385200013,7.0,1.0571662000147626,,,,,,,,,,,,,,,,,,,,,,,,,,,,,,,,,20,C,2024-04-29_17h21.41.975,attentional_competition_task,2022.2.4,144.01087560978226,
positions.xlsx,positions_test.xlsx,positions_test_new.xlsx,stimuli.xlsx,stimuli_new.xlsx,stimuli/Social3.png,stimuli/Social4.png,stimuli/Nonsocial3.png,stimuli/Nonsocial4.png,stimuli/Social1.png,stimuli/Social2.png,stimuli/Nonsocial1.png,stimuli/Nonsocial2.png,,,"(-0.7, -0.5)",cs_neg_ns,"(-0.7, 0.5)",cs_neg_s,"(0.7, -0.5)",cs_pos_s,"(0.7, 0.5)",cs_pos_ns,0,0,0,0,,,,,,,,,,,,,,,,,,,,,0,0,0,14,,,,,,,,,,,,,,,,,,,,,,,,,,,63,reward,,,,,1408.000934700016,1414.9867913000053,1414.9867913000053,1414.9867913000053,1414.9867913000053,0,,,0,,,1,0.4389361999928951,0.43893999996362254,1,0.03014019998954609,0.42582569998921826,1415.4242790999706,1415.4242790999706,1415.4242790999706,1415.4242790999706,20,C,2024-04-29_17h21.41.975,attentional_competition_task,2022.2.4,144.01087560978226,
positions.xlsx,positions_test.xlsx,positions_test_new.xlsx,stimuli.xlsx,stimuli_new.xlsx,stimuli/Social3.png,stimuli/Social4.png,stimuli/Nonsocial3.png,stimuli/Nonsocial4.png,stimuli/Social1.png,stimuli/Social2.png,stimuli/Nonsocial1.png,stimuli/Nonsocial2.png,,,"(-0.7, -0.5)",cs_neg_s,"(-0.7, 0.5)",cs_pos_s,"(0.7, -0.5)",cs_neg_ns,"(0.7, 0.5)",cs_pos_ns,0,0,0,0,,,,,,,,,,,,,,,,,,,,,0,1,1,0,,,,,,,,,,,,,,,,,,,,,,,,,,,69,reward,,,,,,1423.3823267999687,1423.3823267999687,1423.3823267999687,1423.3823267999687,0,,,1,0.030258500017225742,0.4397363999742083,0,,,0,,,1424.4031141999876,1424.4031141999876,1424.4031141999876,1424.4031141999876,20,C,2024-04-29_17h21.41.975,attentional_competition_task,2022.2.4,144.01087560978226,
positions.xlsx,positions_test.xlsx,positions_test_new.xlsx,stimuli.xlsx,stimuli_new.xlsx,stimuli/Social3.png,stimuli/Social4.png,stimuli/Nonsocial3.png,stimuli/Nonsocial4.png,stimuli/Social1.png,stimuli/Social2.png,stimuli/Nonsocial1.png,stimuli/Nonsocial2.png,,,"(-0.7, -0.5)",cs_neg_s,"(-0.7, 0.5)",cs_pos_ns,"(0.7, -0.5)",cs_pos_s,"(0.7, 0.5)",cs_neg_ns,0,0,0,0,,,,,,,,,,,,,,,,,,,,,0,2,2,4,,,,,,,,,,,,,,,,,,,,,,,,,,,72,reward,,,,,,1432.2430529000121,1432.2430529000121,1432.2430529000121,1432.2430529000121,0,,,0,,,1,0.02418850001413375,0.024192299984861165,0,,,1432.2430529000121,1432.2430529000121,1432.2430529000121,1432.2430529000121,20,C,2024-04-29_17h21.41.975,attentional_competition_task,2022.2.4,144.01087560978226,
positions.xlsx,positions_test.xlsx,positions_test_new.xlsx,stimuli.xlsx,stimuli_new.xlsx,stimuli/Social3.png,stimuli/Social4.png,stimuli/Nonsocial3.png,stimuli/Nonsocial4.png,stimuli/Social1.png,stimuli/Social2.png,stimuli/Nonsocial1.png,stimuli/Nonsocial2.png,,,"(-0.7, -0.5)",cs_neg_s,"(-0.7, 0.5)",cs_neg_ns,"(0.7, -0.5)",cs_pos_s,"(0.7, 0.5)",cs_pos_ns,0,0,0,0,,,,,,,,,,,,,,,,,,,,,0,3,3,2,,,,,,,,,,,,,,,,,,,,,,,,,,,81,reward,,,,,,1441.4718809999758,1441.4718809999758,1441.4718809999758,1441.4718809999758,0,,,0,,,1,0.02390999998897314,0.17031329998280853,0,,,1442.1524204000016,1442.1524204000016,1442.1524204000016,1442.1524204000016,20,C,2024-04-29_17h21.41.975,attentional_competition_task,2022.2.4,144.01087560978226,
positions.xlsx,positions_test.xlsx,positions_test_new.xlsx,stimuli.xlsx,stimuli_new.xlsx,stimuli/Social3.png,stimuli/Social4.png,stimuli/Nonsocial3.png,stimuli/Nonsocial4.png,stimuli/Social1.png,stimuli/Social2.png,stimuli/Nonsocial1.png,stimuli/Nonsocial2.png,,,"(-0.7, -0.5)",cs_neg_ns,"(-0.7, 0.5)",cs_pos_s,"(0.7, -0.5)",cs_neg_s,"(0.7, 0.5)",cs_pos_ns,0,0,0,0,,,,,,,,,,,,,,,,,,,,,0,4,4,12,,,,,,,,,,,,,,,,,,,,,,,,,,,90,reward,,,,,,1450.1867991999607,1450.1867991999607,1450.1867991999607,1450.1867991999607,0,,,1,0.030941199976950884,0.23830710002221167,0,,,0,,,1450.9715176000027,1450.9715176000027,1450.9715176000027,1450.9715176000027,20,C,2024-04-29_17h21.41.975,attentional_competition_task,2022.2.4,144.01087560978226,
positions.xlsx,positions_test.xlsx,positions_test_new.xlsx,stimuli.xlsx,stimuli_new.xlsx,stimuli/Social3.png,stimuli/Social4.png,stimuli/Nonsocial3.png,stimuli/Nonsocial4.png,stimuli/Social1.png,stimuli/Social2.png,stimuli/Nonsocial1.png,stimuli/Nonsocial2.png,,,"(-0.7, -0.5)",cs_neg_ns,"(-0.7, 0.5)",cs_pos_ns,"(0.7, -0.5)",cs_neg_s,"(0.7, 0.5)",cs_pos_s,0,0,0,0,,,,,,,,,,,,,,,,,,,,,0,5,5,17,,,,,,,,,,,,,,,,,,,,,,,,,,,99,reward,,,,,,1458.68650229997,1458.68650229997,1458.68650229997,1458.68650229997,0,,,0,,,0,,,1,0.024066800018772483,0.06639260001247749,1459.429523699975,1459.429523699975,1459.429523699975,1459.429523699975,20,C,2024-04-29_17h21.41.975,attentional_competition_task,2022.2.4,144.01087560978226,
positions.xlsx,positions_test.xlsx,positions_test_new.xlsx,stimuli.xlsx,stimuli_new.xlsx,stimuli/Social3.png,stimuli/Social4.png,stimuli/Nonsocial3.png,stimuli/Nonsocial4.png,stimuli/Social1.png,stimuli/Social2.png,stimuli/Nonsocial1.png,stimuli/Nonsocial2.png,,,"(-0.7, -0.5)",cs_neg_ns,"(-0.7, 0.5)",cs_pos_ns,"(0.7, -0.5)",cs_pos_s,"(0.7, 0.5)",cs_neg_s,0,0,0,0,,,,,,,,,,,,,,,,,,,,,0,6,6,16,,,,,,,,,,,,,,,,,,,,,,,,,,,102,reward,,,,,,1467.7139202000108,1467.7139202000108,1467.7139202000108,1467.7139202000108,0,,,0,,,1,0.029138099984265864,0.02914169995347038,0,,,1467.7139202000108,1467.7139202000108,1467.7139202000108,1467.7139202000108,20,C,2024-04-29_17h21.41.975,attentional_competition_task,2022.2.4,144.01087560978226,
positions.xlsx,positions_test.xlsx,positions_test_new.xlsx,stimuli.xlsx,stimuli_new.xlsx,stimuli/Social3.png,stimuli/Social4.png,stimuli/Nonsocial3.png,stimuli/Nonsocial4.png,stimuli/Social1.png,stimuli/Social2.png,stimuli/Nonsocial1.png,stimuli/Nonsocial2.png,,,"(-0.7, -0.5)",cs_pos_s,"(-0.7, 0.5)",cs_pos_ns,"(0.7, -0.5)",cs_neg_s,"(0.7, 0.5)",cs_neg_ns,0,0,0,0,,,,,,,,,,,,,,,,,,,,,0,7,7,10,,,,,,,,,,,,,,,,,,,,,,,,,,,108,reward,,,,,,1475.7483219999704,1475.7483219999704,1475.7483219999704,1475.7483219999704,1,0.022125499963294715,0.19066009996458888,1,0.21151699998881668,0.2115207999595441,0,,,0,,,1475.9636000999599,1475.9636000999599,1475.9636000999599,1475.9636000999599,20,C,2024-04-29_17h21.41.975,attentional_competition_task,2022.2.4,144.01087560978226,
positions.xlsx,positions_test.xlsx,positions_test_new.xlsx,stimuli.xlsx,stimuli_new.xlsx,stimuli/Social3.png,stimuli/Social4.png,stimuli/Nonsocial3.png,stimuli/Nonsocial4.png,stimuli/Social1.png,stimuli/Social2.png,stimuli/Nonsocial1.png,stimuli/Nonsocial2.png,,,"(-0.7, -0.5)",cs_pos_ns,"(-0.7, 0.5)",cs_neg_s,"(0.7, -0.5)",cs_neg_ns,"(0.7, 0.5)",cs_pos_s,0,0,0,0,,,,,,,,,,,,,,,,,,,,,0,8,8,23,,,,,,,,,,,,,,,,,,,,,,,,,,,117,reward,,,,,,1484.8312994000153,1484.8312994000153,1484.8312994000153,1484.8312994000153,0,,,0,,,0,,,1,0.024668199999723583,0.20546790002845228,1485.539632799977,1485.539632799977,1485.539632799977,1485.539632799977,20,C,2024-04-29_17h21.41.975,attentional_competition_task,2022.2.4,144.01087560978226,
positions.xlsx,positions_test.xlsx,positions_test_new.xlsx,stimuli.xlsx,stimuli_new.xlsx,stimuli/Social3.png,stimuli/Social4.png,stimuli/Nonsocial3.png,stimuli/Nonsocial4.png,stimuli/Social1.png,stimuli/Social2.png,stimuli/Nonsocial1.png,stimuli/Nonsocial2.png,,,"(-0.7, -0.5)",cs_neg_s,"(-0.7, 0.5)",cs_pos_ns,"(0.7, -0.5)",cs_neg_ns,"(0.7, 0.5)",cs_pos_s,0,0,0,0,,,,,,,,,,,,,,,,,,,,,0,9,9,5,,,,,,,,,,,,,,,,,,,,,,,,,,,126,reward,,,,,,1492.6295817999635,1492.6295817999635,1492.6295817999635,1492.6295817999635,0,,,1,0.022282999998424202,0.21782889997120947,0,,,0,,,1493.5046253000037,1493.5046253000037,1493.5046253000037,1493.5046253000037,20,C,2024-04-29_17h21.41.975,attentional_competition_task,2022.2.4,144.01087560978226,
positions.xlsx,positions_test.xlsx,positions_test_new.xlsx,stimuli.xlsx,stimuli_new.xlsx,stimuli/Social3.png,stimuli/Social4.png,stimuli/Nonsocial3.png,stimuli/Nonsocial4.png,stimuli/Social1.png,stimuli/Social2.png,stimuli/Nonsocial1.png,stimuli/Nonsocial2.png,,,"(-0.7, -0.5)",cs_neg_s,"(-0.7, 0.5)",cs_pos_s,"(0.7, -0.5)",cs_pos_ns,"(0.7, 0.5)",cs_neg_ns,0,0,0,0,,,,,,,,,,,,,,,,,,,,,0,10,10,1,,,,,,,,,,,,,,,,,,,,,,,,,,,135,reward,,,,,,1501.504269899975,1501.504269899975,1501.504269899975,1501.504269899975,0,,,0,,,1,0.023462000011932105,0.2052583000040613,0,,,1502.2195298000006,1502.2195298000006,1502.2195298000006,1502.2195298000006,20,C,2024-04-29_17h21.41.975,attentional_competition_task,2022.2.4,144.01087560978226,
positions.xlsx,positions_test.xlsx,positions_test_new.xlsx,stimuli.xlsx,stimuli_new.xlsx,stimuli/Social3.png,stimuli/Social4.png,stimuli/Nonsocial3.png,stimuli/Nonsocial4.png,stimuli/Social1.png,stimuli/Social2.png,stimuli/Nonsocial1.png,stimuli/Nonsocial2.png,,,"(-0.7, -0.5)",cs_pos_s,"(-0.7, 0.5)",cs_pos_ns,"(0.7, -0.5)",cs_neg_ns,"(0.7, 0.5)",cs_neg_s,0,0,0,0,,,,,,,,,,,,,,,,,,,,,0,11,11,11,,,,,,,,,,,,,,,,,,,,,,,,,,,144,reward,,,,,,1509.3025695999968,1509.3025695999968,1509.3025695999968,1509.3025695999968,0,,,1,0.026658300019335,0.20756940002320334,0,,,0,,,1510.2053710999899,1510.2053710999899,1510.2053710999899,1510.2053710999899,20,C,2024-04-29_17h21.41.975,attentional_competition_task,2022.2.4,144.01087560978226,
positions.xlsx,positions_test.xlsx,positions_test_new.xlsx,stimuli.xlsx,stimuli_new.xlsx,stimuli/Social3.png,stimuli/Social4.png,stimuli/Nonsocial3.png,stimuli/Nonsocial4.png,stimuli/Social1.png,stimuli/Social2.png,stimuli/Nonsocial1.png,stimuli/Nonsocial2.png,,,"(-0.7, -0.5)",cs_neg_s,"(-0.7, 0.5)",cs_neg_ns,"(0.7, -0.5)",cs_pos_ns,"(0.7, 0.5)",cs_pos_s,0,0,0,0,,,,,,,,,,,,,,,,,,,,,0,12,12,3,,,,,,,,,,,,,,,,,,,,,,,,,,,141,loss,,,,,,1517.8994630000088,1517.8994630000088,1517.8994630000088,1517.8994630000088,0,,,1,0.022884600039105862,0.03128430002834648,0,,,0,,,1518.7813805000042,1518.7813805000042,1518.7813805000042,1518.7813805000042,20,C,2024-04-29_17h21.41.975,attentional_competition_task,2022.2.4,144.01087560978226,
positions.xlsx,positions_test.xlsx,positions_test_new.xlsx,stimuli.xlsx,stimuli_new.xlsx,stimuli/Social3.png,stimuli/Social4.png,stimuli/Nonsocial3.png,stimuli/Nonsocial4.png,stimuli/Social1.png,stimuli/Social2.png,stimuli/Nonsocial1.png,stimuli/Nonsocial2.png,,,"(-0.7, -0.5)",cs_pos_ns,"(-0.7, 0.5)",cs_pos_s,"(0.7, -0.5)",cs_neg_s,"(0.7, 0.5)",cs_neg_ns,0,0,0,0,,,,,,,,,,,,,,,,,,,,,0,13,13,19,,,,,,,,,,,,,,,,,,,,,,,,,,,150,reward,,,,,,1526.322748799983,1526.322748799983,1526.322748799983,1526.322748799983,1,0.02920079999603331,0.18212860001949593,0,,,0,,,0,,,1527.2185616999632,1527.2185616999632,1527.2185616999632,1527.2185616999632,20,C,2024-04-29_17h21.41.975,attentional_competition_task,2022.2.4,144.01087560978226,
positions.xlsx,positions_test.xlsx,positions_test_new.xlsx,stimuli.xlsx,stimuli_new.xlsx,stimuli/Social3.png,stimuli/Social4.png,stimuli/Nonsocial3.png,stimuli/Nonsocial4.png,stimuli/Social1.png,stimuli/Social2.png,stimuli/Nonsocial1.png,stimuli/Nonsocial2.png,,,"(-0.7, -0.5)",cs_neg_ns,"(-0.7, 0.5)",cs_pos_s,"(0.7, -0.5)",cs_pos_ns,"(0.7, 0.5)",cs_neg_s,0,0,0,0,,,,,,,,,,,,,,,,,,,,,0,14,14,13,,,,,,,,,,,,,,,,,,,,,,,,,,,156,reward,,,,,,1535.5515539000044,1535.5515539000044,1535.5515539000044,1535.5515539000044,0,,,0,,,1,0.03068409999832511,0.030687900027260184,0,,,1535.5515539000044,1535.5515539000044,1535.5515539000044,1535.5515539000044,20,C,2024-04-29_17h21.41.975,attentional_competition_task,2022.2.4,144.01087560978226,
positions.xlsx,positions_test.xlsx,positions_test_new.xlsx,stimuli.xlsx,stimuli_new.xlsx,stimuli/Social3.png,stimuli/Social4.png,stimuli/Nonsocial3.png,stimuli/Nonsocial4.png,stimuli/Social1.png,stimuli/Social2.png,stimuli/Nonsocial1.png,stimuli/Nonsocial2.png,,,"(-0.7, -0.5)",cs_pos_ns,"(-0.7, 0.5)",cs_neg_ns,"(0.7, -0.5)",cs_neg_s,"(0.7, 0.5)",cs_pos_s,0,0,0,0,,,,,,,,,,,,,,,,,,,,,0,15,15,21,,,,,,,,,,,,,,,,,,,,,,,,,,,165,reward,,,,,,1544.4539865999832,1544.4539865999832,1544.4539865999832,1544.4539865999832,0,,,0,,,0,,,1,0.029189399967435747,0.11351160000776872,1545.0720437999698,1545.0720437999698,1545.0720437999698,1545.0720437999698,20,C,2024-04-29_17h21.41.975,attentional_competition_task,2022.2.4,144.01087560978226,
positions.xlsx,positions_test.xlsx,positions_test_new.xlsx,stimuli.xlsx,stimuli_new.xlsx,stimuli/Social3.png,stimuli/Social4.png,stimuli/Nonsocial3.png,stimuli/Nonsocial4.png,stimuli/Social1.png,stimuli/Social2.png,stimuli/Nonsocial1.png,stimuli/Nonsocial2.png,,,"(-0.7, -0.5)",cs_neg_ns,"(-0.7, 0.5)",cs_neg_s,"(0.7, -0.5)",cs_pos_ns,"(0.7, 0.5)",cs_pos_s,0,0,0,0,,,,,,,,,,,,,,,,,,,,,0,16,16,15,,,,,,,,,,,,,,,,,,,,,,,,,,,174,reward,,,,,,1553.1064447999815,1553.1064447999815,1553.1064447999815,1553.1064447999815,0,,,0,,,0,,,1,0.0328575000166893,0.406713500036858,1554.009185599978,1554.009185599978,1554.009185599978,1554.009185599978,20,C,2024-04-29_17h21.41.975,attentional_competition_task,2022.2.4,144.01087560978226,
positions.xlsx,positions_test.xlsx,positions_test_new.xlsx,stimuli.xlsx,stimuli_new.xlsx,stimuli/Social3.png,stimuli/Social4.png,stimuli/Nonsocial3.png,stimuli/Nonsocial4.png,stimuli/Social1.png,stimuli/Social2.png,stimuli/Nonsocial1.png,stimuli/Nonsocial2.png,,,"(-0.7, -0.5)",cs_pos_s,"(-0.7, 0.5)",cs_neg_s,"(0.7, -0.5)",cs_neg_ns,"(0.7, 0.5)",cs_pos_ns,0,0,0,0,,,,,,,,,,,,,,,,,,,,,0,17,17,6,,,,,,,,,,,,,,,,,,,,,,,,,,,183,reward,,,,,,1562.1338474999648,1562.1338474999648,1562.1338474999648,1562.1338474999648,1,0.029063499998301268,0.056752200005576015,0,,,0,,,0,,,1562.8282834999845,1562.8282834999845,1562.8282834999845,1562.8282834999845,20,C,2024-04-29_17h21.41.975,attentional_competition_task,2022.2.4,144.01087560978226,
positions.xlsx,positions_test.xlsx,positions_test_new.xlsx,stimuli.xlsx,stimuli_new.xlsx,stimuli/Social3.png,stimuli/Social4.png,stimuli/Nonsocial3.png,stimuli/Nonsocial4.png,stimuli/Social1.png,stimuli/Social2.png,stimuli/Nonsocial1.png,stimuli/Nonsocial2.png,,,"(-0.7, -0.5)",cs_pos_ns,"(-0.7, 0.5)",cs_pos_s,"(0.7, -0.5)",cs_neg_ns,"(0.7, 0.5)",cs_neg_s,0,0,0,0,,,,,,,,,,,,,,,,,,,,,0,18,18,18,,,,,,,,,,,,,,,,,,,,,,,,,,,192,reward,,,,,,1571.2237559999921,1571.2237559999921,1571.2237559999921,1571.2237559999921,0,,,1,0.02369499998167157,0.03787850000662729,0,,,0,,,1571.7654327999917,1571.7654327999917,1571.7654327999917,1571.7654327999917,20,C,2024-04-29_17h21.41.975,attentional_competition_task,2022.2.4,144.01087560978226,
positions.xlsx,positions_test.xlsx,positions_test_new.xlsx,stimuli.xlsx,stimuli_new.xlsx,stimuli/Social3.png,stimuli/Social4.png,stimuli/Nonsocial3.png,stimuli/Nonsocial4.png,stimuli/Social1.png,stimuli/Social2.png,stimuli/Nonsocial1.png,stimuli/Nonsocial2.png,,,"(-0.7, -0.5)",cs_pos_s,"(-0.7, 0.5)",cs_neg_s,"(0.7, -0.5)",cs_pos_ns,"(0.7, 0.5)",cs_neg_ns,0,0,0,0,,,,,,,,,,,,,,,,,,,,,0,19,19,7,,,,,,,,,,,,,,,,,,,,,,,,,,,198,reward,,,,,,1579.1540267000091,1579.1540267000091,1579.1540267000091,1579.1540267000091,1,0.030180999950971454,0.10657750000245869,0,,,1,0.3787127999821678,0.3787167999544181,0,,,1579.5290234999848,1579.5290234999848,1579.5290234999848,1579.5290234999848,20,C,2024-04-29_17h21.41.975,attentional_competition_task,2022.2.4,144.01087560978226,
positions.xlsx,positions_test.xlsx,positions_test_new.xlsx,stimuli.xlsx,stimuli_new.xlsx,stimuli/Social3.png,stimuli/Social4.png,stimuli/Nonsocial3.png,stimuli/Nonsocial4.png,stimuli/Social1.png,stimuli/Social2.png,stimuli/Nonsocial1.png,stimuli/Nonsocial2.png,,,"(-0.7, -0.5)",cs_pos_s,"(-0.7, 0.5)",cs_neg_ns,"(0.7, -0.5)",cs_neg_s,"(0.7, 0.5)",cs_pos_ns,0,0,0,0,,,,,,,,,,,,,,,,,,,,,0,20,20,8,,,,,,,,,,,,,,,,,,,,,,,,,,,207,reward,,,,,,1587.584255099995,1587.584255099995,1587.584255099995,1587.584255099995,0,,,0,,,0,,,1,0.024741700035519898,0.12850960000650957,1588.4870017999783,1588.4870017999783,1588.4870017999783,1588.4870017999783,20,C,2024-04-29_17h21.41.975,attentional_competition_task,2022.2.4,144.01087560978226,
positions.xlsx,positions_test.xlsx,positions_test_new.xlsx,stimuli.xlsx,stimuli_new.xlsx,stimuli/Social3.png,stimuli/Social4.png,stimuli/Nonsocial3.png,stimuli/Nonsocial4.png,stimuli/Social1.png,stimuli/Social2.png,stimuli/Nonsocial1.png,stimuli/Nonsocial2.png,,,"(-0.7, -0.5)",cs_pos_ns,"(-0.7, 0.5)",cs_neg_ns,"(0.7, -0.5)",cs_pos_s,"(0.7, 0.5)",cs_neg_s,0,0,0,0,,,,,,,,,,,,,,,,,,,,,0,21,21,20,,,,,,,,,,,,,,,,,,,,,,,,,,,210,reward,,,,,,1595.5283590999898,1595.5283590999898,1595.5283590999898,1595.5283590999898,0,,,0,,,1,0.03105430002324283,0.031058099993970245,0,,,1595.5283590999898,1595.5283590999898,1595.5283590999898,1595.5283590999898,20,C,2024-04-29_17h21.41.975,attentional_competition_task,2022.2.4,144.01087560978226,
positions.xlsx,positions_test.xlsx,positions_test_new.xlsx,stimuli.xlsx,stimuli_new.xlsx,stimuli/Social3.png,stimuli/Social4.png,stimuli/Nonsocial3.png,stimuli/Nonsocial4.png,stimuli/Social1.png,stimuli/Social2.png,stimuli/Nonsocial1.png,stimuli/Nonsocial2.png,,,"(-0.7, -0.5)",cs_pos_ns,"(-0.7, 0.5)",cs_neg_s,"(0.7, -0.5)",cs_pos_s,"(0.7, 0.5)",cs_neg_ns,0,0,0,0,,,,,,,,,,,,,,,,,,,,,0,22,22,22,,,,,,,,,,,,,,,,,,,,,,,,,,,216,reward,,,,,,1603.2016745000146,1603.2016745000146,1603.2016745000146,1603.2016745000146,1,0.2733042999752797,0.2801760000293143,0,,,1,0.030666499980725348,0.20563749998109415,0,,,1603.47947999998,1603.47947999998,1603.47947999998,1603.47947999998,20,C,2024-04-29_17h21.41.975,attentional_competition_task,2022.2.4,144.01087560978226,
positions.xlsx,positions_test.xlsx,positions_test_new.xlsx,stimuli.xlsx,stimuli_new.xlsx,stimuli/Social3.png,stimuli/Social4.png,stimuli/Nonsocial3.png,stimuli/Nonsocial4.png,stimuli/Social1.png,stimuli/Social2.png,stimuli/Nonsocial1.png,stimuli/Nonsocial2.png,,,"(-0.7, -0.5)",cs_pos_s,"(-0.7, 0.5)",cs_neg_ns,"(0.7, -0.5)",cs_pos_ns,"(0.7, 0.5)",cs_neg_s,0,0,0,0,,,,,,,,,,,,,,,,,,,,,0,23,23,9,,,,,,,,,,,,,,,,,,,,,,,,,,,225,reward,,,,,,1612.4930028999806,1612.4930028999806,1612.4930028999806,1612.4930028999806,1,0.02339600003324449,0.14077120000729337,0,,,0,,,0,,,1613.312427399971,1613.312427399971,1613.312427399971,1613.312427399971,20,C,2024-04-29_17h21.41.975,attentional_competition_task,2022.2.4,144.01087560978226,
positions.xlsx,positions_test.xlsx,positions_test_new.xlsx,stimuli.xlsx,stimuli_new.xlsx,stimuli/Social3.png,stimuli/Social4.png,stimuli/Nonsocial3.png,stimuli/Nonsocial4.png,stimuli/Social1.png,stimuli/Social2.png,stimuli/Nonsocial1.png,stimuli/Nonsocial2.png,,,"(-0.7, -0.5)",cs_pos_ns,"(-0.7, 0.5)",cs_neg_s,"(0.7, -0.5)",cs_neg_ns,"(0.7, 0.5)",cs_pos_s,0,0,0,0,,,,,,,,,,,,,,,,,,,,,1,0,24,23,,,,,,,,,,,,,,,,,,,,,,,,,,,234,reward,,,,,,1620.9718507999787,1620.9718507999787,1620.9718507999787,1620.9718507999787,1,0.02252170001156628,0.07280990004073828,0,,,0,,,0,,,1621.6732159999665,1621.6732159999665,1621.6732159999665,1621.6732159999665,20,C,2024-04-29_17h21.41.975,attentional_competition_task,2022.2.4,144.01087560978226,
positions.xlsx,positions_test.xlsx,positions_test_new.xlsx,stimuli.xlsx,stimuli_new.xlsx,stimuli/Social3.png,stimuli/Social4.png,stimuli/Nonsocial3.png,stimuli/Nonsocial4.png,stimuli/Social1.png,stimuli/Social2.png,stimuli/Nonsocial1.png,stimuli/Nonsocial2.png,,,"(-0.7, -0.5)",cs_pos_ns,"(-0.7, 0.5)",cs_neg_s,"(0.7, -0.5)",cs_pos_s,"(0.7, 0.5)",cs_neg_ns,0,0,0,0,,,,,,,,,,,,,,,,,,,,,1,1,25,22,,,,,,,,,,,,,,,,,,,,,,,,,,,243,reward,,,,,,1629.7353924000054,1629.7353924000054,1629.7353924000054,1629.7353924000054,1,0.023124300001654774,0.044647199974860996,0,,,0,,,0,,,1630.2909403999802,1630.2909403999802,1630.2909403999802,1630.2909403999802,20,C,2024-04-29_17h21.41.975,attentional_competition_task,2022.2.4,144.01087560978226,
positions.xlsx,positions_test.xlsx,positions_test_new.xlsx,stimuli.xlsx,stimuli_new.xlsx,stimuli/Social3.png,stimuli/Social4.png,stimuli/Nonsocial3.png,stimuli/Nonsocial4.png,stimuli/Social1.png,stimuli/Social2.png,stimuli/Nonsocial1.png,stimuli/Nonsocial2.png,,,"(-0.7, -0.5)",cs_neg_s,"(-0.7, 0.5)",cs_pos_ns,"(0.7, -0.5)",cs_neg_ns,"(0.7, 0.5)",cs_pos_s,0,0,0,0,,,,,,,,,,,,,,,,,,,,,1,2,26,5,,,,,,,,,,,,,,,,,,,,,,,,,,,249,reward,,,,,,1638.0614689000067,1638.0614689000067,1638.0614689000067,1638.0614689000067,0,,,1,0.14561219996539876,0.14561619999585673,0,,,1,0.027572099992539734,0.07721349998610094,1638.2072944999672,1638.2072944999672,1638.2072944999672,1638.2072944999672,20,C,2024-04-29_17h21.41.975,attentional_competition_task,2022.2.4,144.01087560978226,
positions.xlsx,positions_test.xlsx,positions_test_new.xlsx,stimuli.xlsx,stimuli_new.xlsx,stimuli/Social3.png,stimuli/Social4.png,stimuli/Nonsocial3.png,stimuli/Nonsocial4.png,stimuli/Social1.png,stimuli/Social2.png,stimuli/Nonsocial1.png,stimuli/Nonsocial2.png,,,"(-0.7, -0.5)",cs_pos_s,"(-0.7, 0.5)",cs_pos_ns,"(0.7, -0.5)",cs_neg_ns,"(0.7, 0.5)",cs_neg_s,0,0,0,0,,,,,,,,,,,,,,,,,,,,,1,3,27,11,,,,,,,,,,,,,,,,,,,,,,,,,,,258,reward,,,,,,1646.4153135999804,1646.4153135999804,1646.4153135999804,1646.4153135999804,0,,,0,,,0,,,0,,,1646.9847373999655,1646.9847373999655,1646.9847373999655,1646.9847373999655,20,C,2024-04-29_17h21.41.975,attentional_competition_task,2022.2.4,144.01087560978226,
positions.xlsx,positions_test.xlsx,positions_test_new.xlsx,stimuli.xlsx,stimuli_new.xlsx,stimuli/Social3.png,stimuli/Social4.png,stimuli/Nonsocial3.png,stimuli/Nonsocial4.png,stimuli/Social1.png,stimuli/Social2.png,stimuli/Nonsocial1.png,stimuli/Nonsocial2.png,,,"(-0.7, -0.5)",cs_pos_s,"(-0.7, 0.5)",cs_neg_s,"(0.7, -0.5)",cs_neg_ns,"(0.7, 0.5)",cs_pos_ns,0,0,0,0,,,,,,,,,,,,,,,,,,,,,1,4,28,6,,,,,,,,,,,,,,,,,,,,,,,,,,,267,reward,,,,,,1655.1788844999974,1655.1788844999974,1655.1788844999974,1655.1788844999974,0,,,0,,,0,,,1,0.031016699969768524,0.059761199983768165,1655.7343985000043,1655.7343985000043,1655.7343985000043,1655.7343985000043,20,C,2024-04-29_17h21.41.975,attentional_competition_task,2022.2.4,144.01087560978226,
positions.xlsx,positions_test.xlsx,positions_test_new.xlsx,stimuli.xlsx,stimuli_new.xlsx,stimuli/Social3.png,stimuli/Social4.png,stimuli/Nonsocial3.png,stimuli/Nonsocial4.png,stimuli/Social1.png,stimuli/Social2.png,stimuli/Nonsocial1.png,stimuli/Nonsocial2.png,,,"(-0.7, -0.5)",cs_pos_ns,"(-0.7, 0.5)",cs_neg_ns,"(0.7, -0.5)",cs_neg_s,"(0.7, 0.5)",cs_pos_s,0,0,0,0,,,,,,,,,,,,,,,,,,,,,1,5,29,21,,,,,,,,,,,,,,,,,,,,,,,,,,,267,loss,,,,,,1662.9355061000097,1662.9355061000097,1662.9355061000097,1662.9355061000097,0,,,1,0.29390999994939193,0.301184399984777,0,,,1,0.030232399993110448,0.22518069995567203,1663.241045599978,1663.241045599978,1663.241045599978,1663.241045599978,20,C,2024-04-29_17h21.41.975,attentional_competition_task,2022.2.4,144.01087560978226,
positions.xlsx,positions_test.xlsx,positions_test_new.xlsx,stimuli.xlsx,stimuli_new.xlsx,stimuli/Social3.png,stimuli/Social4.png,stimuli/Nonsocial3.png,stimuli/Nonsocial4.png,stimuli/Social1.png,stimuli/Social2.png,stimuli/Nonsocial1.png,stimuli/Nonsocial2.png,,,"(-0.7, -0.5)",cs_pos_ns,"(-0.7, 0.5)",cs_neg_ns,"(0.7, -0.5)",cs_pos_s,"(0.7, 0.5)",cs_neg_s,0,0,0,0,,,,,,,,,,,,,,,,,,,,,1,6,30,20,,,,,,,,,,,,,,,,,,,,,,,,,,,276,reward,,,,,,1672.6295783999958,1672.6295783999958,1672.6295783999958,1672.6295783999958,1,0.028320100042037666,0.05625309998868033,0,,,0,,,0,,,1673.1851308000041,1673.1851308000041,1673.1851308000041,1673.1851308000041,20,C,2024-04-29_17h21.41.975,attentional_competition_task,2022.2.4,144.01087560978226,
positions.xlsx,positions_test.xlsx,positions_test_new.xlsx,stimuli.xlsx,stimuli_new.xlsx,stimuli/Social3.png,stimuli/Social4.png,stimuli/Nonsocial3.png,stimuli/Nonsocial4.png,stimuli/Social1.png,stimuli/Social2.png,stimuli/Nonsocial1.png,stimuli/Nonsocial2.png,,,"(-0.7, -0.5)",cs_neg_s,"(-0.7, 0.5)",cs_neg_ns,"(0.7, -0.5)",cs_pos_ns,"(0.7, 0.5)",cs_pos_s,0,0,0,0,,,,,,,,,,,,,,,,,,,,,1,7,31,3,,,,,,,,,,,,,,,,,,,,,,,,,,,276,loss,,,,,,1680.205668599985,1680.205668599985,1680.205668599985,1680.205668599985,0,,,1,0.48903879994759336,0.4890426999772899,0,,,1,0.03015639999648556,0.413059999991674,1680.6986950999708,1680.6986950999708,1680.6986950999708,1680.6986950999708,20,C,2024-04-29_17h21.41.975,attentional_competition_task,2022.2.4,144.01087560978226,
positions.xlsx,positions_test.xlsx,positions_test_new.xlsx,stimuli.xlsx,stimuli_new.xlsx,stimuli/Social3.png,stimuli/Social4.png,stimuli/Nonsocial3.png,stimuli/Nonsocial4.png,stimuli/Social1.png,stimuli/Social2.png,stimuli/Nonsocial1.png,stimuli/Nonsocial2.png,,,"(-0.7, -0.5)",cs_neg_ns,"(-0.7, 0.5)",cs_neg_s,"(0.7, -0.5)",cs_pos_ns,"(0.7, 0.5)",cs_pos_s,0,0,0,0,,,,,,,,,,,,,,,,,,,,,1,8,32,15,,,,,,,,,,,,,,,,,,,,,,,,,,,285,reward,,,,,,1689.281689299969,1689.281689299969,1689.281689299969,1689.281689299969,0,,,0,,,1,0.02856250002514571,0.25817869999445975,0,,,1690.0455646999762,1690.0455646999762,1690.0455646999762,1690.0455646999762,20,C,2024-04-29_17h21.41.975,attentional_competition_task,2022.2.4,144.01087560978226,
positions.xlsx,positions_test.xlsx,positions_test_new.xlsx,stimuli.xlsx,stimuli_new.xlsx,stimuli/Social3.png,stimuli/Social4.png,stimuli/Nonsocial3.png,stimuli/Nonsocial4.png,stimuli/Social1.png,stimuli/Social2.png,stimuli/Nonsocial1.png,stimuli/Nonsocial2.png,,,"(-0.7, -0.5)",cs_pos_ns,"(-0.7, 0.5)",cs_pos_s,"(0.7, -0.5)",cs_neg_s,"(0.7, 0.5)",cs_neg_ns,0,0,0,0,,,,,,,,,,,,,,,,,,,,,1,9,33,19,,,,,,,,,,,,,,,,,,,,,,,,,,,294,reward,,,,,,1697.8230378999724,1697.8230378999724,1697.8230378999724,1697.8230378999724,1,0.028875400021206588,0.224540600029286,0,,,0,,,0,,,1698.5452192999655,1698.5452192999655,1698.5452192999655,1698.5452192999655,20,C,2024-04-29_17h21.41.975,attentional_competition_task,2022.2.4,144.01087560978226,
positions.xlsx,positions_test.xlsx,positions_test_new.xlsx,stimuli.xlsx,stimuli_new.xlsx,stimuli/Social3.png,stimuli/Social4.png,stimuli/Nonsocial3.png,stimuli/Nonsocial4.png,stimuli/Social1.png,stimuli/Social2.png,stimuli/Nonsocial1.png,stimuli/Nonsocial2.png,,,"(-0.7, -0.5)",cs_neg_ns,"(-0.7, 0.5)",cs_pos_s,"(0.7, -0.5)",cs_pos_ns,"(0.7, 0.5)",cs_neg_s,0,0,0,0,,,,,,,,,,,,,,,,,,,,,1,10,34,13,,,,,,,,,,,,,,,,,,,,,,,,,,,303,reward,,,,,,1706.3157588999602,1706.3157588999602,1706.3157588999602,1706.3157588999602,0,,,0,,,1,0.03130069997860119,0.05851000000257045,0,,,1707.0587912999908,1707.0587912999908,1707.0587912999908,1707.0587912999908,20,C,2024-04-29_17h21.41.975,attentional_competition_task,2022.2.4,144.01087560978226,
positions.xlsx,positions_test.xlsx,positions_test_new.xlsx,stimuli.xlsx,stimuli_new.xlsx,stimuli/Social3.png,stimuli/Social4.png,stimuli/Nonsocial3.png,stimuli/Nonsocial4.png,stimuli/Social1.png,stimuli/Social2.png,stimuli/Nonsocial1.png,stimuli/Nonsocial2.png,,,"(-0.7, -0.5)",cs_neg_ns,"(-0.7, 0.5)",cs_pos_ns,"(0.7, -0.5)",cs_pos_s,"(0.7, 0.5)",cs_neg_s,0,0,0,0,,,,,,,,,,,,,,,,,,,,,1,11,35,16,,,,,,,,,,,,,,,,,,,,,,,,,,,306,reward,,,,,,1714.5654918999644,1714.5654918999644,1714.5654918999644,1714.5654918999644,0,,,1,0.028576600016094744,0.02858019998529926,0,,,0,,,1714.5654918999644,1714.5654918999644,1714.5654918999644,1714.5654918999644,20,C,2024-04-29_17h21.41.975,attentional_competition_task,2022.2.4,144.01087560978226,
positions.xlsx,positions_test.xlsx,positions_test_new.xlsx,stimuli.xlsx,stimuli_new.xlsx,stimuli/Social3.png,stimuli/Social4.png,stimuli/Nonsocial3.png,stimuli/Nonsocial4.png,stimuli/Social1.png,stimuli/Social2.png,stimuli/Nonsocial1.png,stimuli/Nonsocial2.png,,,"(-0.7, -0.5)",cs_neg_s,"(-0.7, 0.5)",cs_pos_s,"(0.7, -0.5)",cs_pos_ns,"(0.7, 0.5)",cs_neg_ns,0,0,0,0,,,,,,,,,,,,,,,,,,,,,1,12,36,1,,,,,,,,,,,,,,,,,,,,,,,,,,,303,loss,,,,,,1723.1692754999967,1723.1692754999967,1723.1692754999967,1723.1692754999967,0,,,0,,,0,,,1,0.025569999997969717,0.02557399997022003,1723.1692754999967,1723.1692754999967,1723.1692754999967,1723.1692754999967,20,C,2024-04-29_17h21.41.975,attentional_competition_task,2022.2.4,144.01087560978226,
positions.xlsx,positions_test.xlsx,positions_test_new.xlsx,stimuli.xlsx,stimuli_new.xlsx,stimuli/Social3.png,stimuli/Social4.png,stimuli/Nonsocial3.png,stimuli/Nonsocial4.png,stimuli/Social1.png,stimuli/Social2.png,stimuli/Nonsocial1.png,stimuli/Nonsocial2.png,,,"(-0.7, -0.5)",cs_neg_s,"(-0.7, 0.5)",cs_neg_ns,"(0.7, -0.5)",cs_pos_s,"(0.7, 0.5)",cs_pos_ns,0,0,0,0,,,,,,,,,,,,,,,,,,,,,1,13,37,2,,,,,,,,,,,,,,,,,,,,,,,,,,,312,reward,,,,,,1731.911945800006,1731.911945800006,1731.911945800006,1731.911945800006,0,,,0,,,0,,,0,,,1732.5369787999662,1732.5369787999662,1732.5369787999662,1732.5369787999662,20,C,2024-04-29_17h21.41.975,attentional_competition_task,2022.2.4,144.01087560978226,
positions.xlsx,positions_test.xlsx,positions_test_new.xlsx,stimuli.xlsx,stimuli_new.xlsx,stimuli/Social3.png,stimuli/Social4.png,stimuli/Nonsocial3.png,stimuli/Nonsocial4.png,stimuli/Social1.png,stimuli/Social2.png,stimuli/Nonsocial1.png,stimuli/Nonsocial2.png,,,"(-0.7, -0.5)",cs_pos_s,"(-0.7, 0.5)",cs_neg_ns,"(0.7, -0.5)",cs_neg_s,"(0.7, 0.5)",cs_pos_ns,0,0,0,0,,,,,,,,,,,,,,,,,,,,,1,14,38,8,,,,,,,,,,,,,,,,,,,,,,,,,,,315,loss,,,,,,1741.481067799963,1741.481067799963,1741.481067799963,1741.481067799963,0,,,0,,,1,0.030544099980033934,0.03054790000896901,0,,,1741.481067799963,1741.481067799963,1741.481067799963,1741.481067799963,20,C,2024-04-29_17h21.41.975,attentional_competition_task,2022.2.4,144.01087560978226,
positions.xlsx,positions_test.xlsx,positions_test_new.xlsx,stimuli.xlsx,stimuli_new.xlsx,stimuli/Social3.png,stimuli/Social4.png,stimuli/Nonsocial3.png,stimuli/Nonsocial4.png,stimuli/Social1.png,stimuli/Social2.png,stimuli/Nonsocial1.png,stimuli/Nonsocial2.png,,,"(-0.7, -0.5)",cs_pos_s,"(-0.7, 0.5)",cs_neg_s,"(0.7, -0.5)",cs_pos_ns,"(0.7, 0.5)",cs_neg_ns,0,0,0,0,,,,,,,,,,,,,,,,,,,,,1,15,39,7,,,,,,,,,,,,,,,,,,,,,,,,,,,324,reward,,,,,,1748.7376963999704,1748.7376963999704,1748.7376963999704,1748.7376963999704,0,,,0,,,0,,,0,,,1749.369650800014,1749.369650800014,1749.369650800014,1749.369650800014,20,C,2024-04-29_17h21.41.975,attentional_competition_task,2022.2.4,144.01087560978226,
positions.xlsx,positions_test.xlsx,positions_test_new.xlsx,stimuli.xlsx,stimuli_new.xlsx,stimuli/Social3.png,stimuli/Social4.png,stimuli/Nonsocial3.png,stimuli/Nonsocial4.png,stimuli/Social1.png,stimuli/Social2.png,stimuli/Nonsocial1.png,stimuli/Nonsocial2.png,,,"(-0.7, -0.5)",cs_pos_s,"(-0.7, 0.5)",cs_pos_ns,"(0.7, -0.5)",cs_neg_s,"(0.7, 0.5)",cs_neg_ns,0,0,0,0,,,,,,,,,,,,,,,,,,,,,1,16,40,10,,,,,,,,,,,,,,,,,,,,,,,,,,,333,reward,,,,,,1756.7165475999936,1756.7165475999936,1756.7165475999936,1756.7165475999936,0,,,1,0.028889000008348376,0.12520720000611618,0,,,0,,,1757.5568301999592,1757.5568301999592,1757.5568301999592,1757.5568301999592,20,C,2024-04-29_17h21.41.975,attentional_competition_task,2022.2.4,144.01087560978226,
positions.xlsx,positions_test.xlsx,positions_test_new.xlsx,stimuli.xlsx,stimuli_new.xlsx,stimuli/Social3.png,stimuli/Social4.png,stimuli/Nonsocial3.png,stimuli/Nonsocial4.png,stimuli/Social1.png,stimuli/Social2.png,stimuli/Nonsocial1.png,stimuli/Nonsocial2.png,,,"(-0.7, -0.5)",cs_neg_ns,"(-0.7, 0.5)",cs_pos_ns,"(0.7, -0.5)",cs_neg_s,"(0.7, 0.5)",cs_pos_s,0,0,0,0,,,,,,,,,,,,,,,,,,,,,1,17,41,17,,,,,,,,,,,,,,,,,,,,,,,,,,,342,reward,,,,,,1765.313480700017,1765.313480700017,1765.313480700017,1765.313480700017,0,,,1,0.02937559998827055,0.1765148999984376,0,,,0,,,1766.0217762999819,1766.0217762999819,1766.0217762999819,1766.0217762999819,20,C,2024-04-29_17h21.41.975,attentional_competition_task,2022.2.4,144.01087560978226,
positions.xlsx,positions_test.xlsx,positions_test_new.xlsx,stimuli.xlsx,stimuli_new.xlsx,stimuli/Social3.png,stimuli/Social4.png,stimuli/Nonsocial3.png,stimuli/Nonsocial4.png,stimuli/Social1.png,stimuli/Social2.png,stimuli/Nonsocial1.png,stimuli/Nonsocial2.png,,,"(-0.7, -0.5)",cs_neg_s,"(-0.7, 0.5)",cs_pos_s,"(0.7, -0.5)",cs_neg_ns,"(0.7, 0.5)",cs_pos_ns,0,0,0,0,,,,,,,,,,,,,,,,,,,,,1,18,42,0,,,,,,,,,,,,,,,,,,,,,,,,,,,351,reward,,,,,,1774.4033822999918,1774.4033822999918,1774.4033822999918,1774.4033822999918,0,,,0,,,0,,,0,,,1775.3061342000146,1775.3061342000146,1775.3061342000146,1775.3061342000146,20,C,2024-04-29_17h21.41.975,attentional_competition_task,2022.2.4,144.01087560978226,
positions.xlsx,positions_test.xlsx,positions_test_new.xlsx,stimuli.xlsx,stimuli_new.xlsx,stimuli/Social3.png,stimuli/Social4.png,stimuli/Nonsocial3.png,stimuli/Nonsocial4.png,stimuli/Social1.png,stimuli/Social2.png,stimuli/Nonsocial1.png,stimuli/Nonsocial2.png,,,"(-0.7, -0.5)",cs_neg_ns,"(-0.7, 0.5)",cs_neg_s,"(0.7, -0.5)",cs_pos_s,"(0.7, 0.5)",cs_pos_ns,0,0,0,0,,,,,,,,,,,,,,,,,,,,,1,19,43,14,,,,,,,,,,,,,,,,,,,,,,,,,,,360,reward,,,,,,1783.618316099979,1783.618316099979,1783.618316099979,1783.618316099979,0,,,0,,,0,,,1,0.02463160001207143,0.04701290000230074,1784.2155141999829,1784.2155141999829,1784.2155141999829,1784.2155141999829,20,C,2024-04-29_17h21.41.975,attentional_competition_task,2022.2.4,144.01087560978226,
positions.xlsx,positions_test.xlsx,positions_test_new.xlsx,stimuli.xlsx,stimuli_new.xlsx,stimuli/Social3.png,stimuli/Social4.png,stimuli/Nonsocial3.png,stimuli/Nonsocial4.png,stimuli/Social1.png,stimuli/Social2.png,stimuli/Nonsocial1.png,stimuli/Nonsocial2.png,,,"(-0.7, -0.5)",cs_neg_ns,"(-0.7, 0.5)",cs_pos_s,"(0.7, -0.5)",cs_neg_s,"(0.7, 0.5)",cs_pos_ns,0,0,0,0,,,,,,,,,,,,,,,,,,,,,1,20,44,12,,,,,,,,,,,,,,,,,,,,,,,,,,,369,reward,,,,,,1791.9374409000156,1791.9374409000156,1791.9374409000156,1791.9374409000156,0,,,0,,,0,,,0,,,1792.624936099979,1792.624936099979,1792.624936099979,1792.624936099979,20,C,2024-04-29_17h21.41.975,attentional_competition_task,2022.2.4,144.01087560978226,
positions.xlsx,positions_test.xlsx,positions_test_new.xlsx,stimuli.xlsx,stimuli_new.xlsx,stimuli/Social3.png,stimuli/Social4.png,stimuli/Nonsocial3.png,stimuli/Nonsocial4.png,stimuli/Social1.png,stimuli/Social2.png,stimuli/Nonsocial1.png,stimuli/Nonsocial2.png,,,"(-0.7, -0.5)",cs_pos_s,"(-0.7, 0.5)",cs_neg_ns,"(0.7, -0.5)",cs_pos_ns,"(0.7, 0.5)",cs_neg_s,0,0,0,0,,,,,,,,,,,,,,,,,,,,,1,21,45,9,,,,,,,,,,,,,,,,,,,,,,,,,,,378,reward,,,,,,1800.2218013000092,1800.2218013000092,1800.2218013000092,1800.2218013000092,0,,,0,,,1,0.031589899968821555,0.1549652999965474,0,,,1801.1106734999921,1801.1106734999921,1801.1106734999921,1801.1106734999921,20,C,2024-04-29_17h21.41.975,attentional_competition_task,2022.2.4,144.01087560978226,
positions.xlsx,positions_test.xlsx,positions_test_new.xlsx,stimuli.xlsx,stimuli_new.xlsx,stimuli/Social3.png,stimuli/Social4.png,stimuli/Nonsocial3.png,stimuli/Nonsocial4.png,stimuli/Social1.png,stimuli/Social2.png,stimuli/Nonsocial1.png,stimuli/Nonsocial2.png,,,"(-0.7, -0.5)",cs_neg_s,"(-0.7, 0.5)",cs_pos_ns,"(0.7, -0.5)",cs_pos_s,"(0.7, 0.5)",cs_neg_ns,0,0,0,0,,,,,,,,,,,,,,,,,,,,,1,22,46,4,,,,,,,,,,,,,,,,,,,,,,,,,,,384,reward,,,,,,1808.2979242000147,1808.2979242000147,1808.2979242000147,1808.2979242000147,0,,,1,0.3351024999865331,0.3351064999587834,0,,,0,,,1808.6312171999598,1808.6312171999598,1808.6312171999598,1808.6312171999598,20,C,2024-04-29_17h21.41.975,attentional_competition_task,2022.2.4,144.01087560978226,
positions.xlsx,positions_test.xlsx,positions_test_new.xlsx,stimuli.xlsx,stimuli_new.xlsx,stimuli/Social3.png,stimuli/Social4.png,stimuli/Nonsocial3.png,stimuli/Nonsocial4.png,stimuli/Social1.png,stimuli/Social2.png,stimuli/Nonsocial1.png,stimuli/Nonsocial2.png,,,"(-0.7, -0.5)",cs_pos_ns,"(-0.7, 0.5)",cs_pos_s,"(0.7, -0.5)",cs_neg_ns,"(0.7, 0.5)",cs_neg_s,0,0,0,0,,,,,,,,,,,,,,,,,,,,,1,23,47,18,,,,,,,,,,,,,,,,,,,,,,,,,,,393,reward,,,,,,1816.797570499999,1816.797570499999,1816.797570499999,1816.797570499999,1,0.023020199965685606,0.24545089999446645,0,,,0,,,0,,,1817.5475382999866,1817.5475382999866,1817.5475382999866,1817.5475382999866,20,C,2024-04-29_17h21.41.975,attentional_competition_task,2022.2.4,144.01087560978226,
positions.xlsx,positions_test.xlsx,positions_test_new.xlsx,stimuli.xlsx,stimuli_new.xlsx,stimuli/Social3.png,stimuli/Social4.png,stimuli/Nonsocial3.png,stimuli/Nonsocial4.png,stimuli/Social1.png,stimuli/Social2.png,stimuli/Nonsocial1.png,stimuli/Nonsocial2.png,,,"(-0.7, -0.5)",cs_pos_ns,"(-0.7, 0.5)",cs_pos_s_new,"(0.7, -0.5)",cs_neg_s,"(0.7, 0.5)",cs_neg_ns,0,0,0,0,,,,,,,,,,,,,,,,,,,,,,,,,,,,,0,0,0,33,0,0,0,0,,,,,,,,,,,,,,,396,reward,,,,,,1823.811182299978,1823.811182299978,1823.811182299978,1823.811182299978,0,,,1,0.8081293000141159,0.8081335999886505,0,,,0,,,1824.6305955999997,1824.6305955999997,1824.6305955999997,1824.6305955999997,20,C,2024-04-29_17h21.41.975,attentional_competition_task,2022.2.4,144.01087560978226,
positions.xlsx,positions_test.xlsx,positions_test_new.xlsx,stimuli.xlsx,stimuli_new.xlsx,stimuli/Social3.png,stimuli/Social4.png,stimuli/Nonsocial3.png,stimuli/Nonsocial4.png,stimuli/Social1.png,stimuli/Social2.png,stimuli/Nonsocial1.png,stimuli/Nonsocial2.png,,,"(-0.7, -0.5)",cs_pos_ns,"(-0.7, 0.5)",cs_pos_s_new,"(0.7, -0.5)",cs_neg_s,"(0.7, 0.5)",cs_neg_ns,0,0,0,0,,,,,,,,,,,,,,,,,,,,,,,,,,,,,0,0,0,33,1,0,1,0,,,,,,,,,,,,,,,399,reward,,,,,,1825.130622399971,1825.130622399971,1825.130622399971,1825.130622399971,1,0.2794979000464082,0.2866799000184983,1,0.027879800007212907,0.26582920004148036,0,,,0,,,1825.415292699996,1825.415292699996,1825.415292699996,1825.415292699996,20,C,2024-04-29_17h21.41.975,attentional_competition_task,2022.2.4,144.01087560978226,
positions.xlsx,positions_test.xlsx,positions_test_new.xlsx,stimuli.xlsx,stimuli_new.xlsx,stimuli/Social3.png,stimuli/Social4.png,stimuli/Nonsocial3.png,stimuli/Nonsocial4.png,stimuli/Social1.png,stimuli/Social2.png,stimuli/Nonsocial1.png,stimuli/Nonsocial2.png,,,"(-0.7, -0.5)",cs_pos_ns,"(-0.7, 0.5)",cs_pos_s_new,"(0.7, -0.5)",cs_neg_s,"(0.7, 0.5)",cs_neg_ns,0,0,0,0,,,,,,,,,,,,,,,,,,,,,,,,,,,,,0,0,0,33,,,,,,,,,,,,,,,,,,,,,,,,,,,,,,,,,,,,,,,,,,,,,,20,C,2024-04-29_17h21.41.975,attentional_competition_task,2022.2.4,144.01087560978226,
positions.xlsx,positions_test.xlsx,positions_test_new.xlsx,stimuli.xlsx,stimuli_new.xlsx,stimuli/Social3.png,stimuli/Social4.png,stimuli/Nonsocial3.png,stimuli/Nonsocial4.png,stimuli/Social1.png,stimuli/Social2.png,stimuli/Nonsocial1.png,stimuli/Nonsocial2.png,,,"(-0.7, -0.5)",cs_pos_s_new,"(-0.7, 0.5)",cs_neg_ns,"(0.7, -0.5)",cs_neg_s,"(0.7, 0.5)",cs_pos_ns,0,0,0,0,,,,,,,,,,,,,,,,,,,,,,,,,,,,,0,1,1,32,0,0,0,0,,,,,,,,,,,,,,,402,reward,,,,,,1832.366406199988,1832.366406199988,1832.366406199988,1832.366406199988,1,0.8491032000165433,0.8491070999880321,0,,,0,,,0,,,1833.2205247000093,1833.2205247000093,1833.2205247000093,1833.2205247000093,20,C,2024-04-29_17h21.41.975,attentional_competition_task,2022.2.4,144.01087560978226,
positions.xlsx,positions_test.xlsx,positions_test_new.xlsx,stimuli.xlsx,stimuli_new.xlsx,stimuli/Social3.png,stimuli/Social4.png,stimuli/Nonsocial3.png,stimuli/Nonsocial4.png,stimuli/Social1.png,stimuli/Social2.png,stimuli/Nonsocial1.png,stimuli/Nonsocial2.png,,,"(-0.7, -0.5)",cs_pos_s_new,"(-0.7, 0.5)",cs_neg_ns,"(0.7, -0.5)",cs_neg_s,"(0.7, 0.5)",cs_pos_ns,0,0,0,0,,,,,,,,,,,,,,,,,,,,,,,,,,,,,0,1,1,32,1,0,1,0,,,,,,,,,,,,,,,399,loss,,,,,,1833.755266799999,1833.755266799999,1833.755266799999,1833.755266799999,0,,,1,0.030327700020279735,0.03033149999100715,0,,,0,,,1833.755266799999,1833.755266799999,1833.755266799999,1833.755266799999,20,C,2024-04-29_17h21.41.975,attentional_competition_task,2022.2.4,144.01087560978226,
positions.xlsx,positions_test.xlsx,positions_test_new.xlsx,stimuli.xlsx,stimuli_new.xlsx,stimuli/Social3.png,stimuli/Social4.png,stimuli/Nonsocial3.png,stimuli/Nonsocial4.png,stimuli/Social1.png,stimuli/Social2.png,stimuli/Nonsocial1.png,stimuli/Nonsocial2.png,,,"(-0.7, -0.5)",cs_pos_s_new,"(-0.7, 0.5)",cs_neg_ns,"(0.7, -0.5)",cs_neg_s,"(0.7, 0.5)",cs_pos_ns,0,0,0,0,,,,,,,,,,,,,,,,,,,,,,,,,,,,,0,1,1,32,2,0,2,0,,,,,,,,,,,,,,,402,reward,,,,,,1834.276056099974,1834.276056099974,1834.276056099974,1834.276056099974,0,,,0,,,0,,,1,0.022773300006520003,0.022777299978770316,1834.276056099974,1834.276056099974,1834.276056099974,1834.276056099974,20,C,2024-04-29_17h21.41.975,attentional_competition_task,2022.2.4,144.01087560978226,
positions.xlsx,positions_test.xlsx,positions_test_new.xlsx,stimuli.xlsx,stimuli_new.xlsx,stimuli/Social3.png,stimuli/Social4.png,stimuli/Nonsocial3.png,stimuli/Nonsocial4.png,stimuli/Social1.png,stimuli/Social2.png,stimuli/Nonsocial1.png,stimuli/Nonsocial2.png,,,"(-0.7, -0.5)",cs_pos_s_new,"(-0.7, 0.5)",cs_neg_ns,"(0.7, -0.5)",cs_neg_s,"(0.7, 0.5)",cs_pos_ns,0,0,0,0,,,,,,,,,,,,,,,,,,,,,,,,,,,,,0,1,1,32,,,,,,,,,,,,,,,,,,,,,,,,,,,,,,,,,,,,,,,,,,,,,,20,C,2024-04-29_17h21.41.975,attentional_competition_task,2022.2.4,144.01087560978226,
positions.xlsx,positions_test.xlsx,positions_test_new.xlsx,stimuli.xlsx,stimuli_new.xlsx,stimuli/Social3.png,stimuli/Social4.png,stimuli/Nonsocial3.png,stimuli/Nonsocial4.png,stimuli/Social1.png,stimuli/Social2.png,stimuli/Nonsocial1.png,stimuli/Nonsocial2.png,,,"(-0.7, -0.5)",cs_neg_ns,"(-0.7, 0.5)",cs_pos_ns,"(0.7, -0.5)",cs_neg_s_new,"(0.7, 0.5)",cs_pos_s,0,0,0,0,,,,,,,,,,,,,,,,,,,,,,,,,,,,,0,2,2,15,0,0,0,0,,,,,,,,,,,,,,,405,reward,,,,,,1841.6924353999784,1841.6924353999784,1841.6924353999784,1841.6924353999784,0,,,0,,,0,,,1,0.8297005000058562,0.8297041000332683,1842.5257624000078,1842.5257624000078,1842.5257624000078,1842.5257624000078,20,C,2024-04-29_17h21.41.975,attentional_competition_task,2022.2.4,144.01087560978226,
positions.xlsx,positions_test.xlsx,positions_test_new.xlsx,stimuli.xlsx,stimuli_new.xlsx,stimuli/Social3.png,stimuli/Social4.png,stimuli/Nonsocial3.png,stimuli/Nonsocial4.png,stimuli/Social1.png,stimuli/Social2.png,stimuli/Nonsocial1.png,stimuli/Nonsocial2.png,,,"(-0.7, -0.5)",cs_neg_ns,"(-0.7, 0.5)",cs_pos_ns,"(0.7, -0.5)",cs_neg_s_new,"(0.7, 0.5)",cs_pos_s,0,0,0,0,,,,,,,,,,,,,,,,,,,,,,,,,,,,,0,2,2,15,1,0,1,0,,,,,,,,,,,,,,,408,reward,,,,,,1843.0257565999636,1843.0257565999636,1843.0257565999636,1843.0257565999636,0,,,1,0.2664284000056796,0.2664323999779299,0,,,1,0.0295314000104554,0.19031639996683225,1843.2965113999671,1843.2965113999671,1843.2965113999671,1843.2965113999671,20,C,2024-04-29_17h21.41.975,attentional_competition_task,2022.2.4,144.01087560978226,
positions.xlsx,positions_test.xlsx,positions_test_new.xlsx,stimuli.xlsx,stimuli_new.xlsx,stimuli/Social3.png,stimuli/Social4.png,stimuli/Nonsocial3.png,stimuli/Nonsocial4.png,stimuli/Social1.png,stimuli/Social2.png,stimuli/Nonsocial1.png,stimuli/Nonsocial2.png,,,"(-0.7, -0.5)",cs_neg_ns,"(-0.7, 0.5)",cs_pos_ns,"(0.7, -0.5)",cs_neg_s_new,"(0.7, 0.5)",cs_pos_s,0,0,0,0,,,,,,,,,,,,,,,,,,,,,,,,,,,,,0,2,2,15,,,,,,,,,,,,,,,,,,,,,,,,,,,,,,,,,,,,,,,,,,,,,,20,C,2024-04-29_17h21.41.975,attentional_competition_task,2022.2.4,144.01087560978226,
positions.xlsx,positions_test.xlsx,positions_test_new.xlsx,stimuli.xlsx,stimuli_new.xlsx,stimuli/Social3.png,stimuli/Social4.png,stimuli/Nonsocial3.png,stimuli/Nonsocial4.png,stimuli/Social1.png,stimuli/Social2.png,stimuli/Nonsocial1.png,stimuli/Nonsocial2.png,,,"(-0.7, -0.5)",cs_pos_s,"(-0.7, 0.5)",cs_neg_s_new,"(0.7, -0.5)",cs_neg_ns,"(0.7, 0.5)",cs_pos_ns,0,0,0,0,,,,,,,,,,,,,,,,,,,,,,,,,,,,,0,3,3,13,0,0,0,0,,,,,,,,,,,,,,,411,reward,,,,,,1850.4907139000134,1850.4907139000134,1850.4907139000134,1850.4907139000134,0,,,0,,,0,,,1,0.5308243000181392,0.5308280999888666,1851.032308099966,1851.032308099966,1851.032308099966,1851.032308099966,20,C,2024-04-29_17h21.41.975,attentional_competition_task,2022.2.4,144.01087560978226,
positions.xlsx,positions_test.xlsx,positions_test_new.xlsx,stimuli.xlsx,stimuli_new.xlsx,stimuli/Social3.png,stimuli/Social4.png,stimuli/Nonsocial3.png,stimuli/Nonsocial4.png,stimuli/Social1.png,stimuli/Social2.png,stimuli/Nonsocial1.png,stimuli/Nonsocial2.png,,,"(-0.7, -0.5)",cs_pos_s,"(-0.7, 0.5)",cs_neg_s_new,"(0.7, -0.5)",cs_neg_ns,"(0.7, 0.5)",cs_pos_ns,0,0,0,0,,,,,,,,,,,,,,,,,,,,,,,,,,,,,0,3,3,13,1,0,1,0,,,,,,,,,,,,,,,408,loss,,,,,,1851.5322971999994,1851.5322971999994,1851.5322971999994,1851.5322971999994,0,,,1,0.280084700032603,0.2872514000046067,0,,,1,0.029565000033471733,0.1280529000214301,1851.8239601000096,1851.8239601000096,1851.8239601000096,1851.8239601000096,20,C,2024-04-29_17h21.41.975,attentional_competition_task,2022.2.4,144.01087560978226,
positions.xlsx,positions_test.xlsx,positions_test_new.xlsx,stimuli.xlsx,stimuli_new.xlsx,stimuli/Social3.png,stimuli/Social4.png,stimuli/Nonsocial3.png,stimuli/Nonsocial4.png,stimuli/Social1.png,stimuli/Social2.png,stimuli/Nonsocial1.png,stimuli/Nonsocial2.png,,,"(-0.7, -0.5)",cs_pos_s,"(-0.7, 0.5)",cs_neg_s_new,"(0.7, -0.5)",cs_neg_ns,"(0.7, 0.5)",cs_pos_ns,0,0,0,0,,,,,,,,,,,,,,,,,,,,,,,,,,,,,0,3,3,13,2,0,2,0,,,,,,,,,,,,,,,411,reward,,,,,,1852.3517398000113,1852.3517398000113,1852.3517398000113,1852.3517398000113,1,0.023343299981206656,0.02334740001242608,0,,,0,,,0,,,1852.3517398000113,1852.3517398000113,1852.3517398000113,1852.3517398000113,20,C,2024-04-29_17h21.41.975,attentional_competition_task,2022.2.4,144.01087560978226,
positions.xlsx,positions_test.xlsx,positions_test_new.xlsx,stimuli.xlsx,stimuli_new.xlsx,stimuli/Social3.png,stimuli/Social4.png,stimuli/Nonsocial3.png,stimuli/Nonsocial4.png,stimuli/Social1.png,stimuli/Social2.png,stimuli/Nonsocial1.png,stimuli/Nonsocial2.png,,,"(-0.7, -0.5)",cs_pos_s,"(-0.7, 0.5)",cs_neg_s_new,"(0.7, -0.5)",cs_neg_ns,"(0.7, 0.5)",cs_pos_ns,0,0,0,0,,,,,,,,,,,,,,,,,,,,,,,,,,,,,0,3,3,13,,,,,,,,,,,,,,,,,,,,,,,,,,,,,,,,,,,,,,,,,,,,,,20,C,2024-04-29_17h21.41.975,attentional_competition_task,2022.2.4,144.01087560978226,
positions.xlsx,positions_test.xlsx,positions_test_new.xlsx,stimuli.xlsx,stimuli_new.xlsx,stimuli/Social3.png,stimuli/Social4.png,stimuli/Nonsocial3.png,stimuli/Nonsocial4.png,stimuli/Social1.png,stimuli/Social2.png,stimuli/Nonsocial1.png,stimuli/Nonsocial2.png,,,"(-0.7, -0.5)",cs_neg_ns_new,"(-0.7, 0.5)",cs_pos_s,"(0.7, -0.5)",cs_neg_s,"(0.7, 0.5)",cs_pos_ns,0,0,0,0,,,,,,,,,,,,,,,,,,,,,,,,,,,,,0,4,4,27,0,0,0,0,,,,,,,,,,,,,,,414,reward,,,,,,1859.1917506000027,1859.1917506000027,1859.1917506000027,1859.1917506000027,0,,,0,,,0,,,1,0.6618487000232562,0.6618524999939837,1859.8583665000042,1859.8583665000042,1859.8583665000042,1859.8583665000042,20,C,2024-04-29_17h21.41.975,attentional_competition_task,2022.2.4,144.01087560978226,
positions.xlsx,positions_test.xlsx,positions_test_new.xlsx,stimuli.xlsx,stimuli_new.xlsx,stimuli/Social3.png,stimuli/Social4.png,stimuli/Nonsocial3.png,stimuli/Nonsocial4.png,stimuli/Social1.png,stimuli/Social2.png,stimuli/Nonsocial1.png,stimuli/Nonsocial2.png,,,"(-0.7, -0.5)",cs_neg_ns_new,"(-0.7, 0.5)",cs_pos_s,"(0.7, -0.5)",cs_neg_s,"(0.7, 0.5)",cs_pos_ns,0,0,0,0,,,,,,,,,,,,,,,,,,,,,,,,,,,,,0,4,4,27,1,0,1,0,,,,,,,,,,,,,,,417,reward,,,,,,1860.3653511999873,1860.3653511999873,1860.3653511999873,1860.3653511999873,0,,,1,0.3924295000033453,0.3924335000338033,0,,,1,0.03075360000366345,0.05961799999931827,1860.7542013999773,1860.7542013999773,1860.7542013999773,1860.7542013999773,20,C,2024-04-29_17h21.41.975,attentional_competition_task,2022.2.4,144.01087560978226,
positions.xlsx,positions_test.xlsx,positions_test_new.xlsx,stimuli.xlsx,stimuli_new.xlsx,stimuli/Social3.png,stimuli/Social4.png,stimuli/Nonsocial3.png,stimuli/Nonsocial4.png,stimuli/Social1.png,stimuli/Social2.png,stimuli/Nonsocial1.png,stimuli/Nonsocial2.png,,,"(-0.7, -0.5)",cs_neg_ns_new,"(-0.7, 0.5)",cs_pos_s,"(0.7, -0.5)",cs_neg_s,"(0.7, 0.5)",cs_pos_ns,0,0,0,0,,,,,,,,,,,,,,,,,,,,,,,,,,,,,0,4,4,27,,,,,,,,,,,,,,,,,,,,,,,,,,,,,,,,,,,,,,,,,,,,,,20,C,2024-04-29_17h21.41.975,attentional_competition_task,2022.2.4,144.01087560978226,
positions.xlsx,positions_test.xlsx,positions_test_new.xlsx,stimuli.xlsx,stimuli_new.xlsx,stimuli/Social3.png,stimuli/Social4.png,stimuli/Nonsocial3.png,stimuli/Nonsocial4.png,stimuli/Social1.png,stimuli/Social2.png,stimuli/Nonsocial1.png,stimuli/Nonsocial2.png,,,"(-0.7, -0.5)",cs_neg_s_new,"(-0.7, 0.5)",cs_pos_s,"(0.7, -0.5)",cs_pos_ns,"(0.7, 0.5)",cs_neg_ns,0,0,0,0,,,,,,,,,,,,,,,,,,,,,,,,,,,,,0,5,5,17,0,0,0,0,,,,,,,,,,,,,,,420,reward,,,,,,1867.9206106999773,1867.9206106999773,1867.9206106999773,1867.9206106999773,0,,,1,0.8634301000274718,0.8634338999981992,0,,,0,,,1868.7955272999825,1868.7955272999825,1868.7955272999825,1868.7955272999825,20,C,2024-04-29_17h21.41.975,attentional_competition_task,2022.2.4,144.01087560978226,
positions.xlsx,positions_test.xlsx,positions_test_new.xlsx,stimuli.xlsx,stimuli_new.xlsx,stimuli/Social3.png,stimuli/Social4.png,stimuli/Nonsocial3.png,stimuli/Nonsocial4.png,stimuli/Social1.png,stimuli/Social2.png,stimuli/Nonsocial1.png,stimuli/Nonsocial2.png,,,"(-0.7, -0.5)",cs_neg_s_new,"(-0.7, 0.5)",cs_pos_s,"(0.7, -0.5)",cs_pos_ns,"(0.7, 0.5)",cs_neg_ns,0,0,0,0,,,,,,,,,,,,,,,,,,,,,,,,,,,,,0,5,5,17,1,0,1,0,,,,,,,,,,,,,,,417,loss,,,,,,1869.2955190999783,1869.2955190999783,1869.2955190999783,1869.2955190999783,0,,,1,0.026364399993326515,0.0826783999800682,0,,,1,0.2840373999788426,0.2840413999510929,1869.580237499962,1869.580237499962,1869.580237499962,1869.580237499962,20,C,2024-04-29_17h21.41.975,attentional_competition_task,2022.2.4,144.01087560978226,
positions.xlsx,positions_test.xlsx,positions_test_new.xlsx,stimuli.xlsx,stimuli_new.xlsx,stimuli/Social3.png,stimuli/Social4.png,stimuli/Nonsocial3.png,stimuli/Nonsocial4.png,stimuli/Social1.png,stimuli/Social2.png,stimuli/Nonsocial1.png,stimuli/Nonsocial2.png,,,"(-0.7, -0.5)",cs_neg_s_new,"(-0.7, 0.5)",cs_pos_s,"(0.7, -0.5)",cs_pos_ns,"(0.7, 0.5)",cs_neg_ns,0,0,0,0,,,,,,,,,,,,,,,,,,,,,,,,,,,,,0,5,5,17,,,,,,,,,,,,,,,,,,,,,,,,,,,,,,,,,,,,,,,,,,,,,,20,C,2024-04-29_17h21.41.975,attentional_competition_task,2022.2.4,144.01087560978226,
positions.xlsx,positions_test.xlsx,positions_test_new.xlsx,stimuli.xlsx,stimuli_new.xlsx,stimuli/Social3.png,stimuli/Social4.png,stimuli/Nonsocial3.png,stimuli/Nonsocial4.png,stimuli/Social1.png,stimuli/Social2.png,stimuli/Nonsocial1.png,stimuli/Nonsocial2.png,,,"(-0.7, -0.5)",cs_pos_s,"(-0.7, 0.5)",cs_pos_ns,"(0.7, -0.5)",cs_neg_s,"(0.7, 0.5)",cs_neg_ns,0,0,0,0,,,,,,,,,,,,,,,,,,,,,,,,,,,,,0,6,6,5,0,0,0,0,,,,,,,,,,,,,,,420,reward,,,,,,1876.1286090000067,1876.1286090000067,1876.1286090000067,1876.1286090000067,1,0.8290871999925002,0.836209700035397,0,,,0,,,0,,,1876.9688154999749,1876.9688154999749,1876.9688154999749,1876.9688154999749,20,C,2024-04-29_17h21.41.975,attentional_competition_task,2022.2.4,144.01087560978226,
positions.xlsx,positions_test.xlsx,positions_test_new.xlsx,stimuli.xlsx,stimuli_new.xlsx,stimuli/Social3.png,stimuli/Social4.png,stimuli/Nonsocial3.png,stimuli/Nonsocial4.png,stimuli/Social1.png,stimuli/Social2.png,stimuli/Nonsocial1.png,stimuli/Nonsocial2.png,,,"(-0.7, -0.5)",cs_pos_s,"(-0.7, 0.5)",cs_pos_ns,"(0.7, -0.5)",cs_neg_s,"(0.7, 0.5)",cs_neg_ns,0,0,0,0,,,,,,,,,,,,,,,,,,,,,,,,,,,,,0,6,6,5,1,0,1,0,,,,,,,,,,,,,,,423,reward,,,,,,1877.496614100004,1877.496614100004,1877.496614100004,1877.496614100004,0,,,1,0.02772970002843067,0.027733399998396635,0,,,0,,,1877.496614100004,1877.496614100004,1877.496614100004,1877.496614100004,20,C,2024-04-29_17h21.41.975,attentional_competition_task,2022.2.4,144.01087560978226,
positions.xlsx,positions_test.xlsx,positions_test_new.xlsx,stimuli.xlsx,stimuli_new.xlsx,stimuli/Social3.png,stimuli/Social4.png,stimuli/Nonsocial3.png,stimuli/Nonsocial4.png,stimuli/Social1.png,stimuli/Social2.png,stimuli/Nonsocial1.png,stimuli/Nonsocial2.png,,,"(-0.7, -0.5)",cs_pos_s,"(-0.7, 0.5)",cs_pos_ns,"(0.7, -0.5)",cs_neg_s,"(0.7, 0.5)",cs_neg_ns,0,0,0,0,,,,,,,,,,,,,,,,,,,,,,,,,,,,,0,6,6,5,2,0,2,0,,,,,,,,,,,,,,,426,reward,,,,,,1878.0035228999914,1878.0035228999914,1878.0035228999914,1878.0035228999914,0,,,1,0.02515750000020489,0.059611800010316074,0,,,0,,,1878.6423956999788,1878.6423956999788,1878.6423956999788,1878.6423956999788,20,C,2024-04-29_17h21.41.975,attentional_competition_task,2022.2.4,144.01087560978226,
positions.xlsx,positions_test.xlsx,positions_test_new.xlsx,stimuli.xlsx,stimuli_new.xlsx,stimuli/Social3.png,stimuli/Social4.png,stimuli/Nonsocial3.png,stimuli/Nonsocial4.png,stimuli/Social1.png,stimuli/Social2.png,stimuli/Nonsocial1.png,stimuli/Nonsocial2.png,,,"(-0.7, -0.5)",cs_pos_s,"(-0.7, 0.5)",cs_pos_ns,"(0.7, -0.5)",cs_neg_s,"(0.7, 0.5)",cs_neg_ns,0,0,0,0,,,,,,,,,,,,,,,,,,,,,,,,,,,,,0,6,6,5,,,,,,,,,,,,,,,,,,,,,,,,,,,,,,,,,,,,,,,,,,,,,,20,C,2024-04-29_17h21.41.975,attentional_competition_task,2022.2.4,144.01087560978226,
positions.xlsx,positions_test.xlsx,positions_test_new.xlsx,stimuli.xlsx,stimuli_new.xlsx,stimuli/Social3.png,stimuli/Social4.png,stimuli/Nonsocial3.png,stimuli/Nonsocial4.png,stimuli/Social1.png,stimuli/Social2.png,stimuli/Nonsocial1.png,stimuli/Nonsocial2.png,,,"(-0.7, -0.5)",cs_pos_ns,"(-0.7, 0.5)",cs_neg_ns,"(0.7, -0.5)",cs_pos_s,"(0.7, 0.5)",cs_neg_s,0,0,0,0,,,,,,,,,,,,,,,,,,,,,,,,,,,,,0,7,7,4,0,0,0,0,,,,,,,,,,,,,,,429,reward,,,,,,1883.7394054000033,1883.7394054000033,1883.7394054000033,1883.7394054000033,0,,,0,,,1,0.6903769000200555,0.6903808999923058,0,,,1884.4338345999713,1884.4338345999713,1884.4338345999713,1884.4338345999713,20,C,2024-04-29_17h21.41.975,attentional_competition_task,2022.2.4,144.01087560978226,
positions.xlsx,positions_test.xlsx,positions_test_new.xlsx,stimuli.xlsx,stimuli_new.xlsx,stimuli/Social3.png,stimuli/Social4.png,stimuli/Nonsocial3.png,stimuli/Nonsocial4.png,stimuli/Social1.png,stimuli/Social2.png,stimuli/Nonsocial1.png,stimuli/Nonsocial2.png,,,"(-0.7, -0.5)",cs_pos_ns,"(-0.7, 0.5)",cs_neg_ns,"(0.7, -0.5)",cs_pos_s,"(0.7, 0.5)",cs_neg_s,0,0,0,0,,,,,,,,,,,,,,,,,,,,,,,,,,,,,0,7,7,4,1,0,1,0,,,,,,,,,,,,,,,432,reward,,,,,,1884.9407588999602,1884.9407588999602,1884.9407588999602,1884.9407588999602,1,0.07148440001765266,0.07148799998685718,0,,,0,,,0,,,1885.0102007999667,1885.0102007999667,1885.0102007999667,1885.0102007999667,20,C,2024-04-29_17h21.41.975,attentional_competition_task,2022.2.4,144.01087560978226,
positions.xlsx,positions_test.xlsx,positions_test_new.xlsx,stimuli.xlsx,stimuli_new.xlsx,stimuli/Social3.png,stimuli/Social4.png,stimuli/Nonsocial3.png,stimuli/Nonsocial4.png,stimuli/Social1.png,stimuli/Social2.png,stimuli/Nonsocial1.png,stimuli/Nonsocial2.png,,,"(-0.7, -0.5)",cs_pos_ns,"(-0.7, 0.5)",cs_neg_ns,"(0.7, -0.5)",cs_pos_s,"(0.7, 0.5)",cs_neg_s,0,0,0,0,,,,,,,,,,,,,,,,,,,,,,,,,,,,,0,7,7,4,2,0,2,0,,,,,,,,,,,,,,,435,reward,,,,,,1885.5032333999989,1885.5032333999989,1885.5032333999989,1885.5032333999989,1,0.021956699958536774,0.057388899964280427,0,,,0,,,0,,,1886.2532085999846,1886.2532085999846,1886.2532085999846,1886.2532085999846,20,C,2024-04-29_17h21.41.975,attentional_competition_task,2022.2.4,144.01087560978226,
positions.xlsx,positions_test.xlsx,positions_test_new.xlsx,stimuli.xlsx,stimuli_new.xlsx,stimuli/Social3.png,stimuli/Social4.png,stimuli/Nonsocial3.png,stimuli/Nonsocial4.png,stimuli/Social1.png,stimuli/Social2.png,stimuli/Nonsocial1.png,stimuli/Nonsocial2.png,,,"(-0.7, -0.5)",cs_pos_ns,"(-0.7, 0.5)",cs_neg_ns,"(0.7, -0.5)",cs_pos_s,"(0.7, 0.5)",cs_neg_s,0,0,0,0,,,,,,,,,,,,,,,,,,,,,,,,,,,,,0,7,7,4,,,,,,,,,,,,,,,,,,,,,,,,,,,,,,,,,,,,,,,,,,,,,,20,C,2024-04-29_17h21.41.975,attentional_competition_task,2022.2.4,144.01087560978226,
positions.xlsx,positions_test.xlsx,positions_test_new.xlsx,stimuli.xlsx,stimuli_new.xlsx,stimuli/Social3.png,stimuli/Social4.png,stimuli/Nonsocial3.png,stimuli/Nonsocial4.png,stimuli/Social1.png,stimuli/Social2.png,stimuli/Nonsocial1.png,stimuli/Nonsocial2.png,,,"(-0.7, -0.5)",cs_pos_s,"(-0.7, 0.5)",cs_pos_ns_new,"(0.7, -0.5)",cs_neg_ns,"(0.7, 0.5)",cs_neg_s,0,0,0,0,,,,,,,,,,,,,,,,,,,,,,,,,,,,,0,8,8,43,0,0,0,0,,,,,,,,,,,,,,,438,reward,,,,,,1892.7112910000142,1892.7112910000142,1892.7112910000142,1892.7112910000142,1,0.536668999993708,0.5366729000234045,0,,,0,,,0,,,1893.2528965999954,1893.2528965999954,1893.2528965999954,1893.2528965999954,20,C,2024-04-29_17h21.41.975,attentional_competition_task,2022.2.4,144.01087560978226,
positions.xlsx,positions_test.xlsx,positions_test_new.xlsx,stimuli.xlsx,stimuli_new.xlsx,stimuli/Social3.png,stimuli/Social4.png,stimuli/Nonsocial3.png,stimuli/Nonsocial4.png,stimuli/Social1.png,stimuli/Social2.png,stimuli/Nonsocial1.png,stimuli/Nonsocial2.png,,,"(-0.7, -0.5)",cs_pos_s,"(-0.7, 0.5)",cs_pos_ns_new,"(0.7, -0.5)",cs_neg_ns,"(0.7, 0.5)",cs_neg_s,0,0,0,0,,,,,,,,,,,,,,,,,,,,,,,,,,,,,0,8,8,43,1,0,1,0,,,,,,,,,,,,,,,435,loss,,,,,,1893.7528803999885,1893.7528803999885,1893.7528803999885,1893.7528803999885,0,,,0,,,1,0.07886639999924228,0.08594449999509379,0,,,1893.8431591999833,1893.8431591999833,1893.8431591999833,1893.8431591999833,20,C,2024-04-29_17h21.41.975,attentional_competition_task,2022.2.4,144.01087560978226,
positions.xlsx,positions_test.xlsx,positions_test_new.xlsx,stimuli.xlsx,stimuli_new.xlsx,stimuli/Social3.png,stimuli/Social4.png,stimuli/Nonsocial3.png,stimuli/Nonsocial4.png,stimuli/Social1.png,stimuli/Social2.png,stimuli/Nonsocial1.png,stimuli/Nonsocial2.png,,,"(-0.7, -0.5)",cs_pos_s,"(-0.7, 0.5)",cs_pos_ns_new,"(0.7, -0.5)",cs_neg_ns,"(0.7, 0.5)",cs_neg_s,0,0,0,0,,,,,,,,,,,,,,,,,,,,,,,,,,,,,0,8,8,43,2,0,2,0,,,,,,,,,,,,,,,438,reward,,,,,,1894.34316270001,1894.34316270001,1894.34316270001,1894.34316270001,0,,,1,0.037922599993180484,0.037926800025161356,0,,,0,,,1894.384847600013,1894.384847600013,1894.384847600013,1894.384847600013,20,C,2024-04-29_17h21.41.975,attentional_competition_task,2022.2.4,144.01087560978226,
positions.xlsx,positions_test.xlsx,positions_test_new.xlsx,stimuli.xlsx,stimuli_new.xlsx,stimuli/Social3.png,stimuli/Social4.png,stimuli/Nonsocial3.png,stimuli/Nonsocial4.png,stimuli/Social1.png,stimuli/Social2.png,stimuli/Nonsocial1.png,stimuli/Nonsocial2.png,,,"(-0.7, -0.5)",cs_pos_s,"(-0.7, 0.5)",cs_pos_ns_new,"(0.7, -0.5)",cs_neg_ns,"(0.7, 0.5)",cs_neg_s,0,0,0,0,,,,,,,,,,,,,,,,,,,,,,,,,,,,,0,8,8,43,,,,,,,,,,,,,,,,,,,,,,,,,,,,,,,,,,,,,,,,,,,,,,20,C,2024-04-29_17h21.41.975,attentional_competition_task,2022.2.4,144.01087560978226,
