posFile,posFileTest,posFileTestNew,stimFile,stimFileNew,cs_neg_s,cs_pos_s,cs_neg_ns,cs_pos_ns,cs_neg_s_new,cs_pos_s_new,cs_neg_ns_new,cs_pos_ns_new,stim,position,position1,stim1,position2,stim2,position3,stim3,position4,stim4,blocks.thisRepN,blocks.thisTrialN,blocks.thisN,blocks.thisIndex,ratingtrials1.thisRepN,ratingtrials1.thisTrialN,ratingtrials1.thisN,ratingtrials1.thisIndex,search_task_trials.thisRepN,search_task_trials.thisTrialN,search_task_trials.thisN,search_task_trials.thisIndex,learning_trials.thisRepN,learning_trials.thisTrialN,learning_trials.thisN,learning_trials.thisIndex,trials.thisRepN,trials.thisTrialN,trials.thisN,trials.thisIndex,ratingtrials2.thisRepN,ratingtrials2.thisTrialN,ratingtrials2.thisN,ratingtrials2.thisIndex,testtrials.thisRepN,testtrials.thisTrialN,testtrials.thisN,testtrials.thisIndex,loop_test.thisRepN,loop_test.thisTrialN,loop_test.thisN,loop_test.thisIndex,testtrials_novelty.thisRepN,testtrials_novelty.thisTrialN,testtrials_novelty.thisN,testtrials_novelty.thisIndex,loop_test_novelty.thisRepN,loop_test_novelty.thisTrialN,loop_test_novelty.thisN,loop_test_novelty.thisIndex,ratingtrials3.thisRepN,ratingtrials3.thisTrialN,ratingtrials3.thisN,ratingtrials3.thisIndex,textStart.started,textStartExp.started,imageRating.started,sliderStim.response,sliderStim.rt,textStartSearch.started,target_positions,distractor_positions,textStartTask.started,image.started,score,outcome,roi.numLooks,roi.timesOn,roi.timesOff,imageFeedback.started,textTestInstr.started,test_image1.started,test_image2.started,test_image3.started,test_image4.started,test_roi1.numLooks,test_roi1.timesOn,test_roi1.timesOff,test_roi2.numLooks,test_roi2.timesOn,test_roi2.timesOff,test_roi3.numLooks,test_roi3.timesOn,test_roi3.timesOff,test_roi4.numLooks,test_roi4.timesOn,test_roi4.timesOff,test_image_feedback1.started,test_image_feedback2.started,test_iamge_feedback3.started,test_iamge_feedback4.started,participant,group,date,expName,psychopyVersion,frameRate,
positions.xlsx,positions_test.xlsx,positions_test_new.xlsx,stimuli.xlsx,stimuli_new.xlsx,stimuli/Social3.png,stimuli/Social4.png,stimuli/Nonsocial3.png,stimuli/Nonsocial4.png,stimuli/Social1.png,stimuli/Social2.png,stimuli/Nonsocial1.png,stimuli/Nonsocial2.png,cs_pos_ns,,,,,,,,,,0,0,0,0,0,0,0,3,,,,,,,,,,,,,,,,,,,,,,,,,,,,,,,,,,,,,46.74582840001676,294.6624067000812,302.68592550000176,8.0,11.089163199998438,,,,,,,,,,,,,,,,,,,,,,,,,,,,,,,,,50,C,2024-05-22_15h23.54.522,attentional_competition_task,2022.2.4,144.0160607397374,
positions.xlsx,positions_test.xlsx,positions_test_new.xlsx,stimuli.xlsx,stimuli_new.xlsx,stimuli/Social3.png,stimuli/Social4.png,stimuli/Nonsocial3.png,stimuli/Nonsocial4.png,stimuli/Social1.png,stimuli/Social2.png,stimuli/Nonsocial1.png,stimuli/Nonsocial2.png,cs_neg_ns,,,,,,,,,,0,0,0,0,0,1,1,1,,,,,,,,,,,,,,,,,,,,,,,,,,,,,,,,,,,,,,,315.13679290004075,9.0,2.345978599973023,,,,,,,,,,,,,,,,,,,,,,,,,,,,,,,,,50,C,2024-05-22_15h23.54.522,attentional_competition_task,2022.2.4,144.0160607397374,
positions.xlsx,positions_test.xlsx,positions_test_new.xlsx,stimuli.xlsx,stimuli_new.xlsx,stimuli/Social3.png,stimuli/Social4.png,stimuli/Nonsocial3.png,stimuli/Nonsocial4.png,stimuli/Social1.png,stimuli/Social2.png,stimuli/Nonsocial1.png,stimuli/Nonsocial2.png,cs_pos_s,,,,,,,,,,0,0,0,0,0,2,2,2,,,,,,,,,,,,,,,,,,,,,,,,,,,,,,,,,,,,,,,317.6922398000024,6.0,5.876684200018644,,,,,,,,,,,,,,,,,,,,,,,,,,,,,,,,,50,C,2024-05-22_15h23.54.522,attentional_competition_task,2022.2.4,144.0160607397374,
positions.xlsx,positions_test.xlsx,positions_test_new.xlsx,stimuli.xlsx,stimuli_new.xlsx,stimuli/Social3.png,stimuli/Social4.png,stimuli/Nonsocial3.png,stimuli/Nonsocial4.png,stimuli/Social1.png,stimuli/Social2.png,stimuli/Nonsocial1.png,stimuli/Nonsocial2.png,cs_neg_s,,,,,,,,,,0,0,0,0,0,3,3,0,,,,,,,,,,,,,,,,,,,,,,,,,,,,,,,,,,,,,,,323.87259530008305,5.0,1.905279100057669,,,,,,,,,,,,,,,,,,,,,,,,,,,,,,,,,50,C,2024-05-22_15h23.54.522,attentional_competition_task,2022.2.4,144.0160607397374,
positions.xlsx,positions_test.xlsx,positions_test_new.xlsx,stimuli.xlsx,stimuli_new.xlsx,stimuli/Social3.png,stimuli/Social4.png,stimuli/Nonsocial3.png,stimuli/Nonsocial4.png,stimuli/Social1.png,stimuli/Social2.png,stimuli/Nonsocial1.png,stimuli/Nonsocial2.png,,,,,,,,,,,0,0,0,0,,,,,0,0,0,0,,,,,,,,,,,,,,,,,,,,,,,,,,,,,,,,,,,,,,325.9489220000105,"[[0.45000000000000007, 0.19999999999999996], [0.22499999999999998, -0.8], [-0.9, -0.30000000000000004], [-0.22499999999999998, -0.8], [0.6749999999999999, -0.30000000000000004], [0.9, 0.19999999999999996], [-0.45, 0.7], [0.45000000000000007, 0.7], [-0.22499999999999998, -0.30000000000000004], [-0.675, 0.19999999999999996], [0.22499999999999998, 0.7], [0.22499999999999998, 0.19999999999999996], [0.9, 0.7], [-0.9, 0.19999999999999996], [-0.675, 0.7]]","[[0.6749999999999999, 0.7], [-0.675, -0.30000000000000004], [0.6749999999999999, 0.19999999999999996], [-0.45, -0.8], [0.0, -0.8], [0.45000000000000007, -0.8], [0.9, -0.8], [0.0, 0.19999999999999996], [-0.22499999999999998, 0.7], [0.9, -0.30000000000000004], [-0.9, -0.8], [0.45000000000000007, -0.30000000000000004], [-0.45, 0.19999999999999996], [-0.22499999999999998, 0.19999999999999996], [0.0, -0.30000000000000004]]",,,,,,,,,,,,,,,,,,,,,,,,,,,,,,50,C,2024-05-22_15h23.54.522,attentional_competition_task,2022.2.4,144.0160607397374,
positions.xlsx,positions_test.xlsx,positions_test_new.xlsx,stimuli.xlsx,stimuli_new.xlsx,stimuli/Social3.png,stimuli/Social4.png,stimuli/Nonsocial3.png,stimuli/Nonsocial4.png,stimuli/Social1.png,stimuli/Social2.png,stimuli/Nonsocial1.png,stimuli/Nonsocial2.png,,,,,,,,,,,0,0,0,0,,,,,1,0,1,0,,,,,,,,,,,,,,,,,,,,,,,,,,,,,,,,,,,,,,,"[[0.6749999999999999, 0.7], [-0.45, -0.8], [0.9, 0.7], [0.45000000000000007, 0.7], [0.45000000000000007, -0.8], [-0.675, -0.30000000000000004], [0.9, -0.8], [-0.22499999999999998, 0.7], [0.22499999999999998, -0.30000000000000004], [0.22499999999999998, 0.19999999999999996], [0.0, -0.8], [-0.675, 0.7], [0.0, 0.7], [0.22499999999999998, -0.8], [0.9, 0.19999999999999996]]","[[0.6749999999999999, -0.30000000000000004], [0.9, -0.30000000000000004], [0.6749999999999999, -0.8], [0.0, 0.19999999999999996], [-0.9, -0.30000000000000004], [0.45000000000000007, -0.30000000000000004], [-0.9, -0.8], [-0.9, 0.19999999999999996], [-0.675, -0.8], [0.22499999999999998, 0.7], [-0.45, 0.7], [-0.675, 0.19999999999999996], [-0.9, 0.7], [-0.45, -0.30000000000000004], [-0.22499999999999998, -0.30000000000000004]]",,,,,,,,,,,,,,,,,,,,,,,,,,,,,,50,C,2024-05-22_15h23.54.522,attentional_competition_task,2022.2.4,144.0160607397374,
positions.xlsx,positions_test.xlsx,positions_test_new.xlsx,stimuli.xlsx,stimuli_new.xlsx,stimuli/Social3.png,stimuli/Social4.png,stimuli/Nonsocial3.png,stimuli/Nonsocial4.png,stimuli/Social1.png,stimuli/Social2.png,stimuli/Nonsocial1.png,stimuli/Nonsocial2.png,cs_pos_ns,"(-0.7, -0.5)",,,,,,,,,0,0,0,0,,,,,,,,,0,0,0,13,,,,,,,,,,,,,,,,,,,,,,,,,,,,,,,,,,,,,407.02198700001463,426.88926109997556,3,reward,1,0.30610779998824,0.306111800018698,427.20173630001955,,,,,,,,,,,,,,,,,,,,,,50,C,2024-05-22_15h23.54.522,attentional_competition_task,2022.2.4,144.0160607397374,
positions.xlsx,positions_test.xlsx,positions_test_new.xlsx,stimuli.xlsx,stimuli_new.xlsx,stimuli/Social3.png,stimuli/Social4.png,stimuli/Nonsocial3.png,stimuli/Nonsocial4.png,stimuli/Social1.png,stimuli/Social2.png,stimuli/Nonsocial1.png,stimuli/Nonsocial2.png,cs_pos_s,"(0.7, -0.5)",,,,,,,,,0,0,0,0,,,,,,,,,0,1,1,7,,,,,,,,,,,,,,,,,,,,,,,,,,,,,,,,,,,,,,434.47225490002893,6,reward,1,0.305991799919866,0.30599569994956255,434.7847586000571,,,,,,,,,,,,,,,,,,,,,,50,C,2024-05-22_15h23.54.522,attentional_competition_task,2022.2.4,144.0160607397374,
positions.xlsx,positions_test.xlsx,positions_test_new.xlsx,stimuli.xlsx,stimuli_new.xlsx,stimuli/Social3.png,stimuli/Social4.png,stimuli/Nonsocial3.png,stimuli/Nonsocial4.png,stimuli/Social1.png,stimuli/Social2.png,stimuli/Nonsocial1.png,stimuli/Nonsocial2.png,cs_pos_s,"(0.7, 0.5)",,,,,,,,,0,0,0,0,,,,,,,,,0,2,2,6,,,,,,,,,,,,,,,,,,,,,,,,,,,,,,,,,,,,,,442.20112440001685,9,reward,1,0.2922137000132352,0.29221769992727786,442.49969349999446,,,,,,,,,,,,,,,,,,,,,,50,C,2024-05-22_15h23.54.522,attentional_competition_task,2022.2.4,144.0160607397374,
positions.xlsx,positions_test.xlsx,positions_test_new.xlsx,stimuli.xlsx,stimuli_new.xlsx,stimuli/Social3.png,stimuli/Social4.png,stimuli/Nonsocial3.png,stimuli/Nonsocial4.png,stimuli/Social1.png,stimuli/Social2.png,stimuli/Nonsocial1.png,stimuli/Nonsocial2.png,cs_pos_ns,"(-0.7, 0.5)",,,,,,,,,0,0,0,0,,,,,,,,,0,3,3,12,,,,,,,,,,,,,,,,,,,,,,,,,,,,,,,,,,,,,,450.19382929999847,12,reward,1,0.2994074000744149,0.29941110010258853,450.5063978000544,,,,,,,,,,,,,,,,,,,,,,50,C,2024-05-22_15h23.54.522,attentional_competition_task,2022.2.4,144.0160607397374,
positions.xlsx,positions_test.xlsx,positions_test_new.xlsx,stimuli.xlsx,stimuli_new.xlsx,stimuli/Social3.png,stimuli/Social4.png,stimuli/Nonsocial3.png,stimuli/Nonsocial4.png,stimuli/Social1.png,stimuli/Social2.png,stimuli/Nonsocial1.png,stimuli/Nonsocial2.png,cs_neg_ns,"(-0.7, -0.5)",,,,,,,,,0,0,0,0,,,,,,,,,0,4,4,9,,,,,,,,,,,,,,,,,,,,,,,,,,,,,,,,,,,,,,458.0268706000643,9,loss,1,0.3125238000648096,0.3125273999758065,458.3462541999761,,,,,,,,,,,,,,,,,,,,,,50,C,2024-05-22_15h23.54.522,attentional_competition_task,2022.2.4,144.0160607397374,
positions.xlsx,positions_test.xlsx,positions_test_new.xlsx,stimuli.xlsx,stimuli_new.xlsx,stimuli/Social3.png,stimuli/Social4.png,stimuli/Nonsocial3.png,stimuli/Nonsocial4.png,stimuli/Social1.png,stimuli/Social2.png,stimuli/Nonsocial1.png,stimuli/Nonsocial2.png,cs_pos_s,"(-0.7, -0.5)",,,,,,,,,0,0,0,0,,,,,,,,,0,5,5,5,,,,,,,,,,,,,,,,,,,,,,,,,,,,,,,,,,,,,,465.12380579998717,12,reward,1,0.28478959994390607,0.28479319997131824,465.41546030004974,,,,,,,,,,,,,,,,,,,,,,50,C,2024-05-22_15h23.54.522,attentional_competition_task,2022.2.4,144.0160607397374,
positions.xlsx,positions_test.xlsx,positions_test_new.xlsx,stimuli.xlsx,stimuli_new.xlsx,stimuli/Social3.png,stimuli/Social4.png,stimuli/Nonsocial3.png,stimuli/Nonsocial4.png,stimuli/Social1.png,stimuli/Social2.png,stimuli/Nonsocial1.png,stimuli/Nonsocial2.png,cs_neg_ns,"(0.7, 0.5)",,,,,,,,,0,0,0,0,,,,,,,,,0,6,6,10,,,,,,,,,,,,,,,,,,,,,,,,,,,,,,,,,,,,,,472.3110464999918,9,loss,1,0.27787410002201796,0.27787750004790723,472.5957496999763,,,,,,,,,,,,,,,,,,,,,,50,C,2024-05-22_15h23.54.522,attentional_competition_task,2022.2.4,144.0160607397374,
positions.xlsx,positions_test.xlsx,positions_test_new.xlsx,stimuli.xlsx,stimuli_new.xlsx,stimuli/Social3.png,stimuli/Social4.png,stimuli/Nonsocial3.png,stimuli/Nonsocial4.png,stimuli/Social1.png,stimuli/Social2.png,stimuli/Nonsocial1.png,stimuli/Nonsocial2.png,cs_neg_s,"(-0.7, 0.5)",,,,,,,,,0,0,0,0,,,,,,,,,0,7,7,0,,,,,,,,,,,,,,,,,,,,,,,,,,,,,,,,,,,,,,480.9842499999795,6,loss,1,0.29192089999560267,0.2919244000222534,481.2828677999787,,,,,,,,,,,,,,,,,,,,,,50,C,2024-05-22_15h23.54.522,attentional_competition_task,2022.2.4,144.0160607397374,
positions.xlsx,positions_test.xlsx,positions_test_new.xlsx,stimuli.xlsx,stimuli_new.xlsx,stimuli/Social3.png,stimuli/Social4.png,stimuli/Nonsocial3.png,stimuli/Nonsocial4.png,stimuli/Social1.png,stimuli/Social2.png,stimuli/Nonsocial1.png,stimuli/Nonsocial2.png,cs_neg_ns,"(0.7, -0.5)",,,,,,,,,0,0,0,0,,,,,,,,,0,8,8,11,,,,,,,,,,,,,,,,,,,,,,,,,,,,,,,,,,,,,,488.81035170005634,3,loss,1,0.23634850000962615,0.23635200003627688,489.0533947000513,,,,,,,,,,,,,,,,,,,,,,50,C,2024-05-22_15h23.54.522,attentional_competition_task,2022.2.4,144.0160607397374,
positions.xlsx,positions_test.xlsx,positions_test_new.xlsx,stimuli.xlsx,stimuli_new.xlsx,stimuli/Social3.png,stimuli/Social4.png,stimuli/Nonsocial3.png,stimuli/Nonsocial4.png,stimuli/Social1.png,stimuli/Social2.png,stimuli/Nonsocial1.png,stimuli/Nonsocial2.png,cs_neg_ns,"(-0.7, 0.5)",,,,,,,,,0,0,0,0,,,,,,,,,0,9,9,8,,,,,,,,,,,,,,,,,,,,,,,,,,,,,,,,,,,,,,496.8030777000822,0,loss,1,0.2154260000679642,0.21542939997743815,497.0253055000212,,,,,,,,,,,,,,,,,,,,,,50,C,2024-05-22_15h23.54.522,attentional_competition_task,2022.2.4,144.0160607397374,
positions.xlsx,positions_test.xlsx,positions_test_new.xlsx,stimuli.xlsx,stimuli_new.xlsx,stimuli/Social3.png,stimuli/Social4.png,stimuli/Nonsocial3.png,stimuli/Nonsocial4.png,stimuli/Social1.png,stimuli/Social2.png,stimuli/Nonsocial1.png,stimuli/Nonsocial2.png,cs_pos_s,"(-0.7, 0.5)",,,,,,,,,0,0,0,0,,,,,,,,,0,10,10,4,,,,,,,,,,,,,,,,,,,,,,,,,,,,,,,,,,,,,,504.7819308000617,3,reward,1,0.24362889991607517,0.2436327999457717,505.0319218999939,,,,,,,,,,,,,,,,,,,,,,50,C,2024-05-22_15h23.54.522,attentional_competition_task,2022.2.4,144.0160607397374,
positions.xlsx,positions_test.xlsx,positions_test_new.xlsx,stimuli.xlsx,stimuli_new.xlsx,stimuli/Social3.png,stimuli/Social4.png,stimuli/Nonsocial3.png,stimuli/Nonsocial4.png,stimuli/Social1.png,stimuli/Social2.png,stimuli/Nonsocial1.png,stimuli/Nonsocial2.png,cs_neg_s,"(0.7, 0.5)",,,,,,,,,0,0,0,0,,,,,,,,,0,11,11,2,,,,,,,,,,,,,,,,,,,,,,,,,,,,,,,,,,,,,,512.4343904000707,0,loss,1,0.25033449998591095,0.2503384000156075,512.6913439000491,,,,,,,,,,,,,,,,,,,,,,50,C,2024-05-22_15h23.54.522,attentional_competition_task,2022.2.4,144.0160607397374,
positions.xlsx,positions_test.xlsx,positions_test_new.xlsx,stimuli.xlsx,stimuli_new.xlsx,stimuli/Social3.png,stimuli/Social4.png,stimuli/Nonsocial3.png,stimuli/Nonsocial4.png,stimuli/Social1.png,stimuli/Social2.png,stimuli/Nonsocial1.png,stimuli/Nonsocial2.png,cs_pos_ns,"(0.7, 0.5)",,,,,,,,,0,0,0,0,,,,,,,,,0,12,12,14,,,,,,,,,,,,,,,,,,,,,,,,,,,,,,,,,,,,,,520.1146283000708,3,reward,1,0.24320290004834533,0.24320640007499605,520.3646386000328,,,,,,,,,,,,,,,,,,,,,,50,C,2024-05-22_15h23.54.522,attentional_competition_task,2022.2.4,144.0160607397374,
positions.xlsx,positions_test.xlsx,positions_test_new.xlsx,stimuli.xlsx,stimuli_new.xlsx,stimuli/Social3.png,stimuli/Social4.png,stimuli/Nonsocial3.png,stimuli/Nonsocial4.png,stimuli/Social1.png,stimuli/Social2.png,stimuli/Nonsocial1.png,stimuli/Nonsocial2.png,cs_neg_s,"(-0.7, -0.5)",,,,,,,,,0,0,0,0,,,,,,,,,0,13,13,1,,,,,,,,,,,,,,,,,,,,,,,,,,,,,,,,,,,,,,527.5240693000378,0,loss,1,0.24343180004507303,0.24997570004779845,527.7809820000548,,,,,,,,,,,,,,,,,,,,,,50,C,2024-05-22_15h23.54.522,attentional_competition_task,2022.2.4,144.0160607397374,
positions.xlsx,positions_test.xlsx,positions_test_new.xlsx,stimuli.xlsx,stimuli_new.xlsx,stimuli/Social3.png,stimuli/Social4.png,stimuli/Nonsocial3.png,stimuli/Nonsocial4.png,stimuli/Social1.png,stimuli/Social2.png,stimuli/Nonsocial1.png,stimuli/Nonsocial2.png,cs_pos_ns,"(0.7, -0.5)",,,,,,,,,0,0,0,0,,,,,,,,,0,14,14,15,,,,,,,,,,,,,,,,,,,,,,,,,,,,,,,,,,,,,,535.509836900048,3,reward,1,0.2781209999229759,0.2781245999503881,535.7945420000469,,,,,,,,,,,,,,,,,,,,,,50,C,2024-05-22_15h23.54.522,attentional_competition_task,2022.2.4,144.0160607397374,
positions.xlsx,positions_test.xlsx,positions_test_new.xlsx,stimuli.xlsx,stimuli_new.xlsx,stimuli/Social3.png,stimuli/Social4.png,stimuli/Nonsocial3.png,stimuli/Nonsocial4.png,stimuli/Social1.png,stimuli/Social2.png,stimuli/Nonsocial1.png,stimuli/Nonsocial2.png,cs_neg_s,"(0.7, -0.5)",,,,,,,,,0,0,0,0,,,,,,,,,0,15,15,3,,,,,,,,,,,,,,,,,,,,,,,,,,,,,,,,,,,,,,543.8914637999842,0,loss,1,0.28511499997694045,0.285118900006637,544.1831144000171,,,,,,,,,,,,,,,,,,,,,,50,C,2024-05-22_15h23.54.522,attentional_competition_task,2022.2.4,144.0160607397374,
positions.xlsx,positions_test.xlsx,positions_test_new.xlsx,stimuli.xlsx,stimuli_new.xlsx,stimuli/Social3.png,stimuli/Social4.png,stimuli/Nonsocial3.png,stimuli/Nonsocial4.png,stimuli/Social1.png,stimuli/Social2.png,stimuli/Nonsocial1.png,stimuli/Nonsocial2.png,cs_neg_s,"(0.7, 0.5)",,,,,,,,,0,0,0,0,,,,,,,,,1,0,16,2,,,,,,,,,,,,,,,,,,,,,,,,,,,,,,,,,,,,,,552.3911153000081,-3,loss,1,0.2433172999881208,0.24332130001857877,552.6411389000714,,,,,,,,,,,,,,,,,,,,,,50,C,2024-05-22_15h23.54.522,attentional_competition_task,2022.2.4,144.0160607397374,
positions.xlsx,positions_test.xlsx,positions_test_new.xlsx,stimuli.xlsx,stimuli_new.xlsx,stimuli/Social3.png,stimuli/Social4.png,stimuli/Nonsocial3.png,stimuli/Nonsocial4.png,stimuli/Social1.png,stimuli/Social2.png,stimuli/Nonsocial1.png,stimuli/Nonsocial2.png,cs_neg_s,"(-0.7, -0.5)",,,,,,,,,0,0,0,0,,,,,,,,,1,1,17,1,,,,,,,,,,,,,,,,,,,,,,,,,,,,,,,,,,,,,,560.4602579000639,-6,loss,1,0.4722689000191167,0.47227289993315935,560.9393793999916,,,,,,,,,,,,,,,,,,,,,,50,C,2024-05-22_15h23.54.522,attentional_competition_task,2022.2.4,144.0160607397374,
positions.xlsx,positions_test.xlsx,positions_test_new.xlsx,stimuli.xlsx,stimuli_new.xlsx,stimuli/Social3.png,stimuli/Social4.png,stimuli/Nonsocial3.png,stimuli/Nonsocial4.png,stimuli/Social1.png,stimuli/Social2.png,stimuli/Nonsocial1.png,stimuli/Nonsocial2.png,cs_pos_ns,"(-0.7, 0.5)",,,,,,,,,0,0,0,0,,,,,,,,,1,2,18,12,,,,,,,,,,,,,,,,,,,,,,,,,,,,,,,,,,,,,,569.2029277000111,-3,reward,1,0.42378950002603233,0.4237935000564903,569.6334537999937,,,,,,,,,,,,,,,,,,,,,,50,C,2024-05-22_15h23.54.522,attentional_competition_task,2022.2.4,144.0160607397374,
positions.xlsx,positions_test.xlsx,positions_test_new.xlsx,stimuli.xlsx,stimuli_new.xlsx,stimuli/Social3.png,stimuli/Social4.png,stimuli/Nonsocial3.png,stimuli/Nonsocial4.png,stimuli/Social1.png,stimuli/Social2.png,stimuli/Nonsocial1.png,stimuli/Nonsocial2.png,cs_neg_s,"(0.7, -0.5)",,,,,,,,,0,0,0,0,,,,,,,,,1,3,19,3,,,,,,,,,,,,,,,,,,,,,,,,,,,,,,,,,,,,,,577.0776193999918,-6,loss,1,1.02803489996586,1.0280389999970794,578.1122778999852,,,,,,,,,,,,,,,,,,,,,,50,C,2024-05-22_15h23.54.522,attentional_competition_task,2022.2.4,144.0160607397374,
positions.xlsx,positions_test.xlsx,positions_test_new.xlsx,stimuli.xlsx,stimuli_new.xlsx,stimuli/Social3.png,stimuli/Social4.png,stimuli/Nonsocial3.png,stimuli/Nonsocial4.png,stimuli/Social1.png,stimuli/Social2.png,stimuli/Nonsocial1.png,stimuli/Nonsocial2.png,cs_pos_s,"(0.7, -0.5)",,,,,,,,,0,0,0,0,,,,,,,,,1,4,20,7,,,,,,,,,,,,,,,,,,,,,,,,,,,,,,,,,,,,,,584.952304800041,-3,reward,1,0.38921149994712323,0.3892150999745354,585.3481125000399,,,,,,,,,,,,,,,,,,,,,,50,C,2024-05-22_15h23.54.522,attentional_competition_task,2022.2.4,144.0160607397374,
positions.xlsx,positions_test.xlsx,positions_test_new.xlsx,stimuli.xlsx,stimuli_new.xlsx,stimuli/Social3.png,stimuli/Social4.png,stimuli/Nonsocial3.png,stimuli/Nonsocial4.png,stimuli/Social1.png,stimuli/Social2.png,stimuli/Nonsocial1.png,stimuli/Nonsocial2.png,cs_pos_s,"(0.7, 0.5)",,,,,,,,,0,0,0,0,,,,,,,,,1,5,21,6,,,,,,,,,,,,,,,,,,,,,,,,,,,,,,,,,,,,,,593.6047416999936,0,reward,1,0.4583852000068873,0.4583888999186456,594.0699717000825,,,,,,,,,,,,,,,,,,,,,,50,C,2024-05-22_15h23.54.522,attentional_competition_task,2022.2.4,144.0160607397374,
positions.xlsx,positions_test.xlsx,positions_test_new.xlsx,stimuli.xlsx,stimuli_new.xlsx,stimuli/Social3.png,stimuli/Social4.png,stimuli/Nonsocial3.png,stimuli/Nonsocial4.png,stimuli/Social1.png,stimuli/Social2.png,stimuli/Nonsocial1.png,stimuli/Nonsocial2.png,cs_pos_ns,"(0.7, 0.5)",,,,,,,,,0,0,0,0,,,,,,,,,1,6,22,14,,,,,,,,,,,,,,,,,,,,,,,,,,,,,,,,,,,,,,601.8682797000511,3,reward,1,0.6529672000324354,0.6529707000590861,602.5279912999831,,,,,,,,,,,,,,,,,,,,,,50,C,2024-05-22_15h23.54.522,attentional_competition_task,2022.2.4,144.0160607397374,
positions.xlsx,positions_test.xlsx,positions_test_new.xlsx,stimuli.xlsx,stimuli_new.xlsx,stimuli/Social3.png,stimuli/Social4.png,stimuli/Nonsocial3.png,stimuli/Nonsocial4.png,stimuli/Social1.png,stimuli/Social2.png,stimuli/Nonsocial1.png,stimuli/Nonsocial2.png,cs_pos_ns,"(-0.7, -0.5)",,,,,,,,,0,0,0,0,,,,,,,,,1,7,23,13,,,,,,,,,,,,,,,,,,,,,,,,,,,,,,,,,,,,,,609.61799170007,6,reward,1,0.44423219992313534,0.44423569994978607,610.0693285000743,,,,,,,,,,,,,,,,,,,,,,50,C,2024-05-22_15h23.54.522,attentional_competition_task,2022.2.4,144.0160607397374,
positions.xlsx,positions_test.xlsx,positions_test_new.xlsx,stimuli.xlsx,stimuli_new.xlsx,stimuli/Social3.png,stimuli/Social4.png,stimuli/Nonsocial3.png,stimuli/Nonsocial4.png,stimuli/Social1.png,stimuli/Social2.png,stimuli/Nonsocial1.png,stimuli/Nonsocial2.png,cs_pos_ns,"(0.7, -0.5)",,,,,,,,,0,0,0,0,,,,,,,,,1,8,24,15,,,,,,,,,,,,,,,,,,,,,,,,,,,,,,,,,,,,,,617.3398716000374,9,reward,1,0.597291300073266,0.5973088999744505,617.9439945999766,,,,,,,,,,,,,,,,,,,,,,50,C,2024-05-22_15h23.54.522,attentional_competition_task,2022.2.4,144.0160607397374,
positions.xlsx,positions_test.xlsx,positions_test_new.xlsx,stimuli.xlsx,stimuli_new.xlsx,stimuli/Social3.png,stimuli/Social4.png,stimuli/Nonsocial3.png,stimuli/Nonsocial4.png,stimuli/Social1.png,stimuli/Social2.png,stimuli/Nonsocial1.png,stimuli/Nonsocial2.png,cs_pos_s,"(-0.7, -0.5)",,,,,,,,,0,0,0,0,,,,,,,,,1,9,25,5,,,,,,,,,,,,,,,,,,,,,,,,,,,,,,,,,,,,,,625.3118012000341,12,reward,1,0.4657726000295952,0.4657765000592917,625.7840056000277,,,,,,,,,,,,,,,,,,,,,,50,C,2024-05-22_15h23.54.522,attentional_competition_task,2022.2.4,144.0160607397374,
positions.xlsx,positions_test.xlsx,positions_test_new.xlsx,stimuli.xlsx,stimuli_new.xlsx,stimuli/Social3.png,stimuli/Social4.png,stimuli/Nonsocial3.png,stimuli/Nonsocial4.png,stimuli/Social1.png,stimuli/Social2.png,stimuli/Nonsocial1.png,stimuli/Nonsocial2.png,cs_pos_s,"(-0.7, 0.5)",,,,,,,,,0,0,0,0,,,,,,,,,1,10,26,4,,,,,,,,,,,,,,,,,,,,,,,,,,,,,,,,,,,,,,632.7142565000104,15,reward,1,0.4311120000202209,0.4311159000499174,633.1517420000164,,,,,,,,,,,,,,,,,,,,,,50,C,2024-05-22_15h23.54.522,attentional_competition_task,2022.2.4,144.0160607397374,
positions.xlsx,positions_test.xlsx,positions_test_new.xlsx,stimuli.xlsx,stimuli_new.xlsx,stimuli/Social3.png,stimuli/Social4.png,stimuli/Nonsocial3.png,stimuli/Nonsocial4.png,stimuli/Social1.png,stimuli/Social2.png,stimuli/Nonsocial1.png,stimuli/Nonsocial2.png,cs_neg_ns,"(0.7, -0.5)",,,,,,,,,0,0,0,0,,,,,,,,,1,11,27,11,,,,,,,,,,,,,,,,,,,,,,,,,,,,,,,,,,,,,,640.7487013000064,12,loss,1,0.45154909999109805,0.4515529000200331,641.2069916999899,,,,,,,,,,,,,,,,,,,,,,50,C,2024-05-22_15h23.54.522,attentional_competition_task,2022.2.4,144.0160607397374,
positions.xlsx,positions_test.xlsx,positions_test_new.xlsx,stimuli.xlsx,stimuli_new.xlsx,stimuli/Social3.png,stimuli/Social4.png,stimuli/Nonsocial3.png,stimuli/Nonsocial4.png,stimuli/Social1.png,stimuli/Social2.png,stimuli/Nonsocial1.png,stimuli/Nonsocial2.png,cs_neg_s,"(-0.7, 0.5)",,,,,,,,,0,0,0,0,,,,,,,,,1,12,28,0,,,,,,,,,,,,,,,,,,,,,,,,,,,,,,,,,,,,,,649.0678068000125,12,none,0,,,652.0815771999769,,,,,,,,,,,,,,,,,,,,,,50,C,2024-05-22_15h23.54.522,attentional_competition_task,2022.2.4,144.0160607397374,
positions.xlsx,positions_test.xlsx,positions_test_new.xlsx,stimuli.xlsx,stimuli_new.xlsx,stimuli/Social3.png,stimuli/Social4.png,stimuli/Nonsocial3.png,stimuli/Nonsocial4.png,stimuli/Social1.png,stimuli/Social2.png,stimuli/Nonsocial1.png,stimuli/Nonsocial2.png,cs_neg_ns,"(-0.7, -0.5)",,,,,,,,,0,0,0,0,,,,,,,,,1,13,29,9,,,,,,,,,,,,,,,,,,,,,,,,,,,,,,,,,,,,,,659.1507126999786,9,loss,1,0.4379964000545442,0.43800030008424073,659.5951144000283,,,,,,,,,,,,,,,,,,,,,,50,C,2024-05-22_15h23.54.522,attentional_competition_task,2022.2.4,144.0160607397374,
positions.xlsx,positions_test.xlsx,positions_test_new.xlsx,stimuli.xlsx,stimuli_new.xlsx,stimuli/Social3.png,stimuli/Social4.png,stimuli/Nonsocial3.png,stimuli/Nonsocial4.png,stimuli/Social1.png,stimuli/Social2.png,stimuli/Nonsocial1.png,stimuli/Nonsocial2.png,cs_neg_ns,"(0.7, 0.5)",,,,,,,,,0,0,0,0,,,,,,,,,1,14,30,10,,,,,,,,,,,,,,,,,,,,,,,,,,,,,,,,,,,,,,667.5601026000222,6,loss,1,0.6947197000263259,0.6947232999373227,668.2614702000283,,,,,,,,,,,,,,,,,,,,,,50,C,2024-05-22_15h23.54.522,attentional_competition_task,2022.2.4,144.0160607397374,
positions.xlsx,positions_test.xlsx,positions_test_new.xlsx,stimuli.xlsx,stimuli_new.xlsx,stimuli/Social3.png,stimuli/Social4.png,stimuli/Nonsocial3.png,stimuli/Nonsocial4.png,stimuli/Social1.png,stimuli/Social2.png,stimuli/Nonsocial1.png,stimuli/Nonsocial2.png,cs_neg_ns,"(-0.7, 0.5)",,,,,,,,,0,0,0,0,,,,,,,,,1,15,31,8,,,,,,,,,,,,,,,,,,,,,,,,,,,,,,,,,,,,,,676.1430911000352,6,none,0,,,679.1568843000568,,,,,,,,,,,,,,,,,,,,,,50,C,2024-05-22_15h23.54.522,attentional_competition_task,2022.2.4,144.0160607397374,
positions.xlsx,positions_test.xlsx,positions_test_new.xlsx,stimuli.xlsx,stimuli_new.xlsx,stimuli/Social3.png,stimuli/Social4.png,stimuli/Nonsocial3.png,stimuli/Nonsocial4.png,stimuli/Social1.png,stimuli/Social2.png,stimuli/Nonsocial1.png,stimuli/Nonsocial2.png,cs_neg_s,"(-0.7, -0.5)",,,,,,,,,0,0,0,0,,,,,,,,,,,,,0,0,0,1,,,,,,,,,,,,,,,,,,,,,,,,,,,,,,,,,,697.0242015999975,6,none,0,,,700.0309986000648,,,,,,,,,,,,,,,,,,,,,,50,C,2024-05-22_15h23.54.522,attentional_competition_task,2022.2.4,144.0160607397374,
positions.xlsx,positions_test.xlsx,positions_test_new.xlsx,stimuli.xlsx,stimuli_new.xlsx,stimuli/Social3.png,stimuli/Social4.png,stimuli/Nonsocial3.png,stimuli/Nonsocial4.png,stimuli/Social1.png,stimuli/Social2.png,stimuli/Nonsocial1.png,stimuli/Nonsocial2.png,cs_pos_s,"(-0.7, 0.5)",,,,,,,,,0,0,0,0,,,,,,,,,,,,,0,1,1,4,,,,,,,,,,,,,,,,,,,,,,,,,,,,,,,,,,707.8293243000517,9,reward,1,0.47921229992061853,0.4792158999480307,708.3154425000539,,,,,,,,,,,,,,,,,,,,,,50,C,2024-05-22_15h23.54.522,attentional_competition_task,2022.2.4,144.0160607397374,
positions.xlsx,positions_test.xlsx,positions_test_new.xlsx,stimuli.xlsx,stimuli_new.xlsx,stimuli/Social3.png,stimuli/Social4.png,stimuli/Nonsocial3.png,stimuli/Nonsocial4.png,stimuli/Social1.png,stimuli/Social2.png,stimuli/Nonsocial1.png,stimuli/Nonsocial2.png,cs_pos_ns,"(0.7, 0.5)",,,,,,,,,0,0,0,0,,,,,,,,,,,,,0,2,2,14,,,,,,,,,,,,,,,,,,,,,,,,,,,,,,,,,,715.3220860000001,12,reward,1,0.6320922001032159,0.6320960000157356,715.9609228000045,,,,,,,,,,,,,,,,,,,,,,50,C,2024-05-22_15h23.54.522,attentional_competition_task,2022.2.4,144.0160607397374,
positions.xlsx,positions_test.xlsx,positions_test_new.xlsx,stimuli.xlsx,stimuli_new.xlsx,stimuli/Social3.png,stimuli/Social4.png,stimuli/Nonsocial3.png,stimuli/Nonsocial4.png,stimuli/Social1.png,stimuli/Social2.png,stimuli/Nonsocial1.png,stimuli/Nonsocial2.png,cs_neg_ns,"(0.7, -0.5)",,,,,,,,,0,0,0,0,,,,,,,,,,,,,0,3,3,11,,,,,,,,,,,,,,,,,,,,,,,,,,,,,,,,,,723.412023800076,12,none,0,,,726.4257996000815,,,,,,,,,,,,,,,,,,,,,,50,C,2024-05-22_15h23.54.522,attentional_competition_task,2022.2.4,144.0160607397374,
positions.xlsx,positions_test.xlsx,positions_test_new.xlsx,stimuli.xlsx,stimuli_new.xlsx,stimuli/Social3.png,stimuli/Social4.png,stimuli/Nonsocial3.png,stimuli/Nonsocial4.png,stimuli/Social1.png,stimuli/Social2.png,stimuli/Nonsocial1.png,stimuli/Nonsocial2.png,cs_neg_ns,"(0.7, 0.5)",,,,,,,,,0,0,0,0,,,,,,,,,,,,,0,4,4,10,,,,,,,,,,,,,,,,,,,,,,,,,,,,,,,,,,734.7518781999825,12,none,0,,,737.7586520999903,,,,,,,,,,,,,,,,,,,,,,50,C,2024-05-22_15h23.54.522,attentional_competition_task,2022.2.4,144.0160607397374,
positions.xlsx,positions_test.xlsx,positions_test_new.xlsx,stimuli.xlsx,stimuli_new.xlsx,stimuli/Social3.png,stimuli/Social4.png,stimuli/Nonsocial3.png,stimuli/Nonsocial4.png,stimuli/Social1.png,stimuli/Social2.png,stimuli/Nonsocial1.png,stimuli/Nonsocial2.png,cs_pos_ns,"(-0.7, -0.5)",,,,,,,,,0,0,0,0,,,,,,,,,,,,,0,5,5,13,,,,,,,,,,,,,,,,,,,,,,,,,,,,,,,,,,745.2653456000844,15,reward,1,1.4168654999230057,1.4168694999534637,746.6888770000078,,,,,,,,,,,,,,,,,,,,,,50,C,2024-05-22_15h23.54.522,attentional_competition_task,2022.2.4,144.0160607397374,
positions.xlsx,positions_test.xlsx,positions_test_new.xlsx,stimuli.xlsx,stimuli_new.xlsx,stimuli/Social3.png,stimuli/Social4.png,stimuli/Nonsocial3.png,stimuli/Nonsocial4.png,stimuli/Social1.png,stimuli/Social2.png,stimuli/Nonsocial1.png,stimuli/Nonsocial2.png,cs_neg_ns,"(-0.7, -0.5)",,,,,,,,,0,0,0,0,,,,,,,,,,,,,0,6,6,9,,,,,,,,,,,,,,,,,,,,,,,,,,,,,,,,,,754.2302518000361,12,loss,1,1.409710199921392,1.409713799948804,755.6468687000452,,,,,,,,,,,,,,,,,,,,,,50,C,2024-05-22_15h23.54.522,attentional_competition_task,2022.2.4,144.0160607397374,
positions.xlsx,positions_test.xlsx,positions_test_new.xlsx,stimuli.xlsx,stimuli_new.xlsx,stimuli/Social3.png,stimuli/Social4.png,stimuli/Nonsocial3.png,stimuli/Nonsocial4.png,stimuli/Social1.png,stimuli/Social2.png,stimuli/Nonsocial1.png,stimuli/Nonsocial2.png,cs_pos_ns,"(-0.7, 0.5)",,,,,,,,,0,0,0,0,,,,,,,,,,,,,0,7,7,12,,,,,,,,,,,,,,,,,,,,,,,,,,,,,,,,,,763.1118746000575,15,reward,1,1.201494700042531,1.2014983999542892,764.3201099000871,,,,,,,,,,,,,,,,,,,,,,50,C,2024-05-22_15h23.54.522,attentional_competition_task,2022.2.4,144.0160607397374,
positions.xlsx,positions_test.xlsx,positions_test_new.xlsx,stimuli.xlsx,stimuli_new.xlsx,stimuli/Social3.png,stimuli/Social4.png,stimuli/Nonsocial3.png,stimuli/Nonsocial4.png,stimuli/Social1.png,stimuli/Social2.png,stimuli/Nonsocial1.png,stimuli/Nonsocial2.png,cs_pos_ns,"(0.7, -0.5)",,,,,,,,,0,0,0,0,,,,,,,,,,,,,0,8,8,15,,,,,,,,,,,,,,,,,,,,,,,,,,,,,,,,,,771.6045410999795,18,reward,1,0.9588480000384152,0.9588519000681117,772.5698133000406,,,,,,,,,,,,,,,,,,,,,,50,C,2024-05-22_15h23.54.522,attentional_competition_task,2022.2.4,144.0160607397374,
positions.xlsx,positions_test.xlsx,positions_test_new.xlsx,stimuli.xlsx,stimuli_new.xlsx,stimuli/Social3.png,stimuli/Social4.png,stimuli/Nonsocial3.png,stimuli/Nonsocial4.png,stimuli/Social1.png,stimuli/Social2.png,stimuli/Nonsocial1.png,stimuli/Nonsocial2.png,cs_neg_ns,"(-0.7, 0.5)",,,,,,,,,0,0,0,0,,,,,,,,,,,,,0,9,9,8,,,,,,,,,,,,,,,,,,,,,,,,,,,,,,,,,,780.0833766000578,18,none,0,,,783.0972171999747,,,,,,,,,,,,,,,,,,,,,,50,C,2024-05-22_15h23.54.522,attentional_competition_task,2022.2.4,144.0160607397374,
positions.xlsx,positions_test.xlsx,positions_test_new.xlsx,stimuli.xlsx,stimuli_new.xlsx,stimuli/Social3.png,stimuli/Social4.png,stimuli/Nonsocial3.png,stimuli/Nonsocial4.png,stimuli/Social1.png,stimuli/Social2.png,stimuli/Nonsocial1.png,stimuli/Nonsocial2.png,cs_pos_s,"(0.7, -0.5)",,,,,,,,,0,0,0,0,,,,,,,,,,,,,0,10,10,7,,,,,,,,,,,,,,,,,,,,,,,,,,,,,,,,,,790.7565821000608,21,reward,1,0.5559953999472782,0.5559993999777362,791.3190554000903,,,,,,,,,,,,,,,,,,,,,,50,C,2024-05-22_15h23.54.522,attentional_competition_task,2022.2.4,144.0160607397374,
positions.xlsx,positions_test.xlsx,positions_test_new.xlsx,stimuli.xlsx,stimuli_new.xlsx,stimuli/Social3.png,stimuli/Social4.png,stimuli/Nonsocial3.png,stimuli/Nonsocial4.png,stimuli/Social1.png,stimuli/Social2.png,stimuli/Nonsocial1.png,stimuli/Nonsocial2.png,cs_neg_s,"(-0.7, 0.5)",,,,,,,,,0,0,0,0,,,,,,,,,,,,,0,11,11,0,,,,,,,,,,,,,,,,,,,,,,,,,,,,,,,,,,799.0062409000238,21,none,0,,,802.0200367000652,,,,,,,,,,,,,,,,,,,,,,50,C,2024-05-22_15h23.54.522,attentional_competition_task,2022.2.4,144.0160607397374,
positions.xlsx,positions_test.xlsx,positions_test_new.xlsx,stimuli.xlsx,stimuli_new.xlsx,stimuli/Social3.png,stimuli/Social4.png,stimuli/Nonsocial3.png,stimuli/Nonsocial4.png,stimuli/Social1.png,stimuli/Social2.png,stimuli/Nonsocial1.png,stimuli/Nonsocial2.png,cs_neg_s,"(0.7, -0.5)",,,,,,,,,0,0,0,0,,,,,,,,,,,,,0,12,12,3,,,,,,,,,,,,,,,,,,,,,,,,,,,,,,,,,,809.2280555000762,21,none,0,,,812.2419372000732,,,,,,,,,,,,,,,,,,,,,,50,C,2024-05-22_15h23.54.522,attentional_competition_task,2022.2.4,144.0160607397374,
positions.xlsx,positions_test.xlsx,positions_test_new.xlsx,stimuli.xlsx,stimuli_new.xlsx,stimuli/Social3.png,stimuli/Social4.png,stimuli/Nonsocial3.png,stimuli/Nonsocial4.png,stimuli/Social1.png,stimuli/Social2.png,stimuli/Nonsocial1.png,stimuli/Nonsocial2.png,cs_neg_s,"(0.7, 0.5)",,,,,,,,,0,0,0,0,,,,,,,,,,,,,0,13,13,2,,,,,,,,,,,,,,,,,,,,,,,,,,,,,,,,,,820.0193372999784,21,none,0,,,823.0261096000904,,,,,,,,,,,,,,,,,,,,,,50,C,2024-05-22_15h23.54.522,attentional_competition_task,2022.2.4,144.0160607397374,
positions.xlsx,positions_test.xlsx,positions_test_new.xlsx,stimuli.xlsx,stimuli_new.xlsx,stimuli/Social3.png,stimuli/Social4.png,stimuli/Nonsocial3.png,stimuli/Nonsocial4.png,stimuli/Social1.png,stimuli/Social2.png,stimuli/Nonsocial1.png,stimuli/Nonsocial2.png,cs_pos_s,"(0.7, 0.5)",,,,,,,,,0,0,0,0,,,,,,,,,,,,,0,14,14,6,,,,,,,,,,,,,,,,,,,,,,,,,,,,,,,,,,830.6369418000104,24,reward,1,0.4727217999752611,0.4727253000019118,831.1160741000203,,,,,,,,,,,,,,,,,,,,,,50,C,2024-05-22_15h23.54.522,attentional_competition_task,2022.2.4,144.0160607397374,
positions.xlsx,positions_test.xlsx,positions_test_new.xlsx,stimuli.xlsx,stimuli_new.xlsx,stimuli/Social3.png,stimuli/Social4.png,stimuli/Nonsocial3.png,stimuli/Nonsocial4.png,stimuli/Social1.png,stimuli/Social2.png,stimuli/Nonsocial1.png,stimuli/Nonsocial2.png,cs_pos_s,"(-0.7, -0.5)",,,,,,,,,0,0,0,0,,,,,,,,,,,,,0,15,15,5,,,,,,,,,,,,,,,,,,,,,,,,,,,,,,,,,,839.3379659000784,27,reward,1,0.5555705999722704,0.5555746000027284,839.9004450000357,,,,,,,,,,,,,,,,,,,,,,50,C,2024-05-22_15h23.54.522,attentional_competition_task,2022.2.4,144.0160607397374,
positions.xlsx,positions_test.xlsx,positions_test_new.xlsx,stimuli.xlsx,stimuli_new.xlsx,stimuli/Social3.png,stimuli/Social4.png,stimuli/Nonsocial3.png,stimuli/Nonsocial4.png,stimuli/Social1.png,stimuli/Social2.png,stimuli/Nonsocial1.png,stimuli/Nonsocial2.png,cs_pos_ns,"(0.7, 0.5)",,,,,,,,,0,0,0,0,,,,,,,,,,,,,1,0,16,14,,,,,,,,,,,,,,,,,,,,,,,,,,,,,,,,,,846.9001469999785,30,reward,1,0.9866810999810696,0.9866849000100046,847.8931594000896,,,,,,,,,,,,,,,,,,,,,,50,C,2024-05-22_15h23.54.522,attentional_competition_task,2022.2.4,144.0160607397374,
positions.xlsx,positions_test.xlsx,positions_test_new.xlsx,stimuli.xlsx,stimuli_new.xlsx,stimuli/Social3.png,stimuli/Social4.png,stimuli/Nonsocial3.png,stimuli/Nonsocial4.png,stimuli/Social1.png,stimuli/Social2.png,stimuli/Nonsocial1.png,stimuli/Nonsocial2.png,cs_neg_s,"(-0.7, -0.5)",,,,,,,,,0,0,0,0,,,,,,,,,,,,,1,1,17,1,,,,,,,,,,,,,,,,,,,,,,,,,,,,,,,,,,855.4067593000364,30,none,0,,,858.4135649000527,,,,,,,,,,,,,,,,,,,,,,50,C,2024-05-22_15h23.54.522,attentional_competition_task,2022.2.4,144.0160607397374,
positions.xlsx,positions_test.xlsx,positions_test_new.xlsx,stimuli.xlsx,stimuli_new.xlsx,stimuli/Social3.png,stimuli/Social4.png,stimuli/Nonsocial3.png,stimuli/Nonsocial4.png,stimuli/Social1.png,stimuli/Social2.png,stimuli/Nonsocial1.png,stimuli/Nonsocial2.png,cs_pos_s,"(-0.7, -0.5)",,,,,,,,,0,0,0,0,,,,,,,,,,,,,1,2,18,5,,,,,,,,,,,,,,,,,,,,,,,,,,,,,,,,,,865.5313667000737,33,reward,1,0.6182179000461474,0.6182218000758439,866.1563220000826,,,,,,,,,,,,,,,,,,,,,,50,C,2024-05-22_15h23.54.522,attentional_competition_task,2022.2.4,144.0160607397374,
positions.xlsx,positions_test.xlsx,positions_test_new.xlsx,stimuli.xlsx,stimuli_new.xlsx,stimuli/Social3.png,stimuli/Social4.png,stimuli/Nonsocial3.png,stimuli/Nonsocial4.png,stimuli/Social1.png,stimuli/Social2.png,stimuli/Nonsocial1.png,stimuli/Nonsocial2.png,cs_pos_s,"(0.7, 0.5)",,,,,,,,,0,0,0,0,,,,,,,,,,,,,1,3,19,6,,,,,,,,,,,,,,,,,,,,,,,,,,,,,,,,,,873.399090000079,36,reward,1,0.49339939991477877,0.4934028999414295,873.8991063000867,,,,,,,,,,,,,,,,,,,,,,50,C,2024-05-22_15h23.54.522,attentional_competition_task,2022.2.4,144.0160607397374,
positions.xlsx,positions_test.xlsx,positions_test_new.xlsx,stimuli.xlsx,stimuli_new.xlsx,stimuli/Social3.png,stimuli/Social4.png,stimuli/Nonsocial3.png,stimuli/Nonsocial4.png,stimuli/Social1.png,stimuli/Social2.png,stimuli/Nonsocial1.png,stimuli/Nonsocial2.png,cs_neg_ns,"(-0.7, -0.5)",,,,,,,,,0,0,0,0,,,,,,,,,,,,,1,4,20,9,,,,,,,,,,,,,,,,,,,,,,,,,,,,,,,,,,880.9196482000407,36,none,0,,,883.9334106000606,,,,,,,,,,,,,,,,,,,,,,50,C,2024-05-22_15h23.54.522,attentional_competition_task,2022.2.4,144.0160607397374,
positions.xlsx,positions_test.xlsx,positions_test_new.xlsx,stimuli.xlsx,stimuli_new.xlsx,stimuli/Social3.png,stimuli/Social4.png,stimuli/Nonsocial3.png,stimuli/Nonsocial4.png,stimuli/Social1.png,stimuli/Social2.png,stimuli/Nonsocial1.png,stimuli/Nonsocial2.png,cs_pos_s,"(0.7, -0.5)",,,,,,,,,0,0,0,0,,,,,,,,,,,,,1,5,21,7,,,,,,,,,,,,,,,,,,,,,,,,,,,,,,,,,,891.8428090000525,39,reward,1,0.528010500012897,0.5280140999238938,892.3775283000432,,,,,,,,,,,,,,,,,,,,,,50,C,2024-05-22_15h23.54.522,attentional_competition_task,2022.2.4,144.0160607397374,
positions.xlsx,positions_test.xlsx,positions_test_new.xlsx,stimuli.xlsx,stimuli_new.xlsx,stimuli/Social3.png,stimuli/Social4.png,stimuli/Nonsocial3.png,stimuli/Nonsocial4.png,stimuli/Social1.png,stimuli/Social2.png,stimuli/Nonsocial1.png,stimuli/Nonsocial2.png,cs_pos_ns,"(0.7, -0.5)",,,,,,,,,0,0,0,0,,,,,,,,,,,,,1,6,22,15,,,,,,,,,,,,,,,,,,,,,,,,,,,,,,,,,,899.7035993000027,42,reward,1,1.062537100049667,1.0625407000770792,900.7729916999815,,,,,,,,,,,,,,,,,,,,,,50,C,2024-05-22_15h23.54.522,attentional_competition_task,2022.2.4,144.0160607397374,
positions.xlsx,positions_test.xlsx,positions_test_new.xlsx,stimuli.xlsx,stimuli_new.xlsx,stimuli/Social3.png,stimuli/Social4.png,stimuli/Nonsocial3.png,stimuli/Nonsocial4.png,stimuli/Social1.png,stimuli/Social2.png,stimuli/Nonsocial1.png,stimuli/Nonsocial2.png,cs_neg_ns,"(0.7, -0.5)",,,,,,,,,0,0,0,0,,,,,,,,,,,,,1,7,23,11,,,,,,,,,,,,,,,,,,,,,,,,,,,,,,,,,,908.2102018999867,42,none,0,,,911.223965800018,,,,,,,,,,,,,,,,,,,,,,50,C,2024-05-22_15h23.54.522,attentional_competition_task,2022.2.4,144.0160607397374,
positions.xlsx,positions_test.xlsx,positions_test_new.xlsx,stimuli.xlsx,stimuli_new.xlsx,stimuli/Social3.png,stimuli/Social4.png,stimuli/Nonsocial3.png,stimuli/Nonsocial4.png,stimuli/Social1.png,stimuli/Social2.png,stimuli/Nonsocial1.png,stimuli/Nonsocial2.png,cs_pos_s,"(-0.7, 0.5)",,,,,,,,,0,0,0,0,,,,,,,,,,,,,1,8,24,4,,,,,,,,,,,,,,,,,,,,,,,,,,,,,,,,,,918.591762600001,45,reward,1,0.5491014999570325,0.549105399986729,919.1472784000216,,,,,,,,,,,,,,,,,,,,,,50,C,2024-05-22_15h23.54.522,attentional_competition_task,2022.2.4,144.0160607397374,
positions.xlsx,positions_test.xlsx,positions_test_new.xlsx,stimuli.xlsx,stimuli_new.xlsx,stimuli/Social3.png,stimuli/Social4.png,stimuli/Nonsocial3.png,stimuli/Nonsocial4.png,stimuli/Social1.png,stimuli/Social2.png,stimuli/Nonsocial1.png,stimuli/Nonsocial2.png,cs_neg_ns,"(0.7, 0.5)",,,,,,,,,0,0,0,0,,,,,,,,,,,,,1,9,25,10,,,,,,,,,,,,,,,,,,,,,,,,,,,,,,,,,,926.7581185000017,45,none,0,,,929.7718704000581,,,,,,,,,,,,,,,,,,,,,,50,C,2024-05-22_15h23.54.522,attentional_competition_task,2022.2.4,144.0160607397374,
positions.xlsx,positions_test.xlsx,positions_test_new.xlsx,stimuli.xlsx,stimuli_new.xlsx,stimuli/Social3.png,stimuli/Social4.png,stimuli/Nonsocial3.png,stimuli/Nonsocial4.png,stimuli/Social1.png,stimuli/Social2.png,stimuli/Nonsocial1.png,stimuli/Nonsocial2.png,cs_neg_s,"(0.7, 0.5)",,,,,,,,,0,0,0,0,,,,,,,,,,,,,1,10,26,2,,,,,,,,,,,,,,,,,,,,,,,,,,,,,,,,,,937.3271056000376,45,none,0,,,940.333957200055,,,,,,,,,,,,,,,,,,,,,,50,C,2024-05-22_15h23.54.522,attentional_competition_task,2022.2.4,144.0160607397374,
positions.xlsx,positions_test.xlsx,positions_test_new.xlsx,stimuli.xlsx,stimuli_new.xlsx,stimuli/Social3.png,stimuli/Social4.png,stimuli/Nonsocial3.png,stimuli/Nonsocial4.png,stimuli/Social1.png,stimuli/Social2.png,stimuli/Nonsocial1.png,stimuli/Nonsocial2.png,cs_neg_s,"(0.7, -0.5)",,,,,,,,,0,0,0,0,,,,,,,,,,,,,1,11,27,3,,,,,,,,,,,,,,,,,,,,,,,,,,,,,,,,,,947.569740600069,45,none,0,,,950.5765795999905,,,,,,,,,,,,,,,,,,,,,,50,C,2024-05-22_15h23.54.522,attentional_competition_task,2022.2.4,144.0160607397374,
positions.xlsx,positions_test.xlsx,positions_test_new.xlsx,stimuli.xlsx,stimuli_new.xlsx,stimuli/Social3.png,stimuli/Social4.png,stimuli/Nonsocial3.png,stimuli/Nonsocial4.png,stimuli/Social1.png,stimuli/Social2.png,stimuli/Nonsocial1.png,stimuli/Nonsocial2.png,cs_pos_ns,"(-0.7, -0.5)",,,,,,,,,0,0,0,0,,,,,,,,,,,,,1,12,28,13,,,,,,,,,,,,,,,,,,,,,,,,,,,,,,,,,,957.8679621000774,48,reward,0,,,958.9651354000671,,,,,,,,,,,,,,,,,,,,,,50,C,2024-05-22_15h23.54.522,attentional_competition_task,2022.2.4,144.0160607397374,
positions.xlsx,positions_test.xlsx,positions_test_new.xlsx,stimuli.xlsx,stimuli_new.xlsx,stimuli/Social3.png,stimuli/Social4.png,stimuli/Nonsocial3.png,stimuli/Nonsocial4.png,stimuli/Social1.png,stimuli/Social2.png,stimuli/Nonsocial1.png,stimuli/Nonsocial2.png,cs_pos_ns,"(-0.7, 0.5)",,,,,,,,,0,0,0,0,,,,,,,,,,,,,1,13,29,12,,,,,,,,,,,,,,,,,,,,,,,,,,,,,,,,,,966.4509596000426,51,reward,1,1.6461217000614852,1.6461253999732435,968.1036572000012,,,,,,,,,,,,,,,,,,,,,,50,C,2024-05-22_15h23.54.522,attentional_competition_task,2022.2.4,144.0160607397374,
positions.xlsx,positions_test.xlsx,positions_test_new.xlsx,stimuli.xlsx,stimuli_new.xlsx,stimuli/Social3.png,stimuli/Social4.png,stimuli/Nonsocial3.png,stimuli/Nonsocial4.png,stimuli/Social1.png,stimuli/Social2.png,stimuli/Nonsocial1.png,stimuli/Nonsocial2.png,cs_neg_ns,"(-0.7, 0.5)",,,,,,,,,0,0,0,0,,,,,,,,,,,,,1,14,30,8,,,,,,,,,,,,,,,,,,,,,,,,,,,,,,,,,,976.3603354999796,51,none,0,,,979.3740619000746,,,,,,,,,,,,,,,,,,,,,,50,C,2024-05-22_15h23.54.522,attentional_competition_task,2022.2.4,144.0160607397374,
positions.xlsx,positions_test.xlsx,positions_test_new.xlsx,stimuli.xlsx,stimuli_new.xlsx,stimuli/Social3.png,stimuli/Social4.png,stimuli/Nonsocial3.png,stimuli/Nonsocial4.png,stimuli/Social1.png,stimuli/Social2.png,stimuli/Nonsocial1.png,stimuli/Nonsocial2.png,cs_neg_s,"(-0.7, 0.5)",,,,,,,,,0,0,0,0,,,,,,,,,,,,,1,15,31,0,,,,,,,,,,,,,,,,,,,,,,,,,,,,,,,,,,987.1237091000658,51,none,0,,,990.1305716000497,,,,,,,,,,,,,,,,,,,,,,50,C,2024-05-22_15h23.54.522,attentional_competition_task,2022.2.4,144.0160607397374,
positions.xlsx,positions_test.xlsx,positions_test_new.xlsx,stimuli.xlsx,stimuli_new.xlsx,stimuli/Social3.png,stimuli/Social4.png,stimuli/Nonsocial3.png,stimuli/Nonsocial4.png,stimuli/Social1.png,stimuli/Social2.png,stimuli/Nonsocial1.png,stimuli/Nonsocial2.png,cs_pos_ns,,,,,,,,,,0,0,0,0,,,,,,,,,,,,,,,,,0,0,0,3,,,,,,,,,,,,,,,,,,,,,,,995.0192755999742,8.0,4.6432521000970155,,,,,,,,,,,,,,,,,,,,,,,,,,,,,,,,,50,C,2024-05-22_15h23.54.522,attentional_competition_task,2022.2.4,144.0160607397374,
positions.xlsx,positions_test.xlsx,positions_test_new.xlsx,stimuli.xlsx,stimuli_new.xlsx,stimuli/Social3.png,stimuli/Social4.png,stimuli/Nonsocial3.png,stimuli/Nonsocial4.png,stimuli/Social1.png,stimuli/Social2.png,stimuli/Nonsocial1.png,stimuli/Nonsocial2.png,cs_neg_ns,,,,,,,,,,0,0,0,0,,,,,,,,,,,,,,,,,0,1,1,1,,,,,,,,,,,,,,,,,,,,,,,1001.7621378999902,5.0,3.4318267999915406,,,,,,,,,,,,,,,,,,,,,,,,,,,,,,,,,50,C,2024-05-22_15h23.54.522,attentional_competition_task,2022.2.4,144.0160607397374,
positions.xlsx,positions_test.xlsx,positions_test_new.xlsx,stimuli.xlsx,stimuli_new.xlsx,stimuli/Social3.png,stimuli/Social4.png,stimuli/Nonsocial3.png,stimuli/Nonsocial4.png,stimuli/Social1.png,stimuli/Social2.png,stimuli/Nonsocial1.png,stimuli/Nonsocial2.png,cs_neg_s,,,,,,,,,,0,0,0,0,,,,,,,,,,,,,,,,,0,2,2,0,,,,,,,,,,,,,,,,,,,,,,,1006.5049524999922,4.0,3.113644600030966,,,,,,,,,,,,,,,,,,,,,,,,,,,,,,,,,50,C,2024-05-22_15h23.54.522,attentional_competition_task,2022.2.4,144.0160607397374,
positions.xlsx,positions_test.xlsx,positions_test_new.xlsx,stimuli.xlsx,stimuli_new.xlsx,stimuli/Social3.png,stimuli/Social4.png,stimuli/Nonsocial3.png,stimuli/Nonsocial4.png,stimuli/Social1.png,stimuli/Social2.png,stimuli/Nonsocial1.png,stimuli/Nonsocial2.png,cs_pos_s,,,,,,,,,,0,0,0,0,,,,,,,,,,,,,,,,,0,3,3,2,,,,,,,,,,,,,,,,,,,,,,,1009.8728983000619,6.0,1.321585000026971,,,,,,,,,,,,,,,,,,,,,,,,,,,,,,,,,50,C,2024-05-22_15h23.54.522,attentional_competition_task,2022.2.4,144.0160607397374,
positions.xlsx,positions_test.xlsx,positions_test_new.xlsx,stimuli.xlsx,stimuli_new.xlsx,stimuli/Social3.png,stimuli/Social4.png,stimuli/Nonsocial3.png,stimuli/Nonsocial4.png,stimuli/Social1.png,stimuli/Social2.png,stimuli/Nonsocial1.png,stimuli/Nonsocial2.png,,,"(-0.7, -0.5)",cs_pos_ns,"(-0.7, 0.5)",cs_pos_s,"(0.7, -0.5)",cs_neg_ns,"(0.7, 0.5)",cs_neg_s,0,0,0,0,,,,,,,,,,,,,,,,,,,,,0,0,0,18,,,,,,,,,,,,,,,,,,,,,,,,,,,57,reward,,,,,1011.4908359000692,1018.46281060006,1018.46281060006,1018.46281060006,1018.46281060006,1,0.3701307999435812,0.37730259995441884,1,0.02964870003052056,0.12723879993427545,0,,,0,,,1018.8447574999882,1018.8447574999882,1018.8447574999882,1018.8447574999882,50,C,2024-05-22_15h23.54.522,attentional_competition_task,2022.2.4,144.0160607397374,
positions.xlsx,positions_test.xlsx,positions_test_new.xlsx,stimuli.xlsx,stimuli_new.xlsx,stimuli/Social3.png,stimuli/Social4.png,stimuli/Nonsocial3.png,stimuli/Nonsocial4.png,stimuli/Social1.png,stimuli/Social2.png,stimuli/Nonsocial1.png,stimuli/Nonsocial2.png,,,"(-0.7, -0.5)",cs_pos_ns,"(-0.7, 0.5)",cs_pos_s,"(0.7, -0.5)",cs_neg_s,"(0.7, 0.5)",cs_neg_ns,0,0,0,0,,,,,,,,,,,,,,,,,,,,,0,1,1,19,,,,,,,,,,,,,,,,,,,,,,,,,,,66,reward,,,,,,1028.122126400005,1028.122126400005,1028.122126400005,1028.122126400005,1,0.03051980002783239,0.07187960005830973,0,,,0,,,0,,,1028.6915452000685,1028.6915452000685,1028.6915452000685,1028.6915452000685,50,C,2024-05-22_15h23.54.522,attentional_competition_task,2022.2.4,144.0160607397374,
positions.xlsx,positions_test.xlsx,positions_test_new.xlsx,stimuli.xlsx,stimuli_new.xlsx,stimuli/Social3.png,stimuli/Social4.png,stimuli/Nonsocial3.png,stimuli/Nonsocial4.png,stimuli/Social1.png,stimuli/Social2.png,stimuli/Nonsocial1.png,stimuli/Nonsocial2.png,,,"(-0.7, -0.5)",cs_neg_s,"(-0.7, 0.5)",cs_neg_ns,"(0.7, -0.5)",cs_pos_ns,"(0.7, 0.5)",cs_pos_s,0,0,0,0,,,,,,,,,,,,,,,,,,,,,0,2,2,3,,,,,,,,,,,,,,,,,,,,,,,,,,,72,reward,,,,,,1035.7398770999862,1035.7398770999862,1035.7398770999862,1035.7398770999862,0,,,0,,,1,0.2668568999506533,0.2668604999780655,1,0.029816299909725785,0.24614419997669756,1036.0107076000422,1036.0107076000422,1036.0107076000422,1036.0107076000422,50,C,2024-05-22_15h23.54.522,attentional_competition_task,2022.2.4,144.0160607397374,
positions.xlsx,positions_test.xlsx,positions_test_new.xlsx,stimuli.xlsx,stimuli_new.xlsx,stimuli/Social3.png,stimuli/Social4.png,stimuli/Nonsocial3.png,stimuli/Nonsocial4.png,stimuli/Social1.png,stimuli/Social2.png,stimuli/Nonsocial1.png,stimuli/Nonsocial2.png,,,"(-0.7, -0.5)",cs_neg_ns,"(-0.7, 0.5)",cs_neg_s,"(0.7, -0.5)",cs_pos_s,"(0.7, 0.5)",cs_pos_ns,0,0,0,0,,,,,,,,,,,,,,,,,,,,,0,3,3,14,,,,,,,,,,,,,,,,,,,,,,,,,,,78,reward,,,,,,1044.9270523000741,1044.9270523000741,1044.9270523000741,1044.9270523000741,0,,,0,,,1,0.029401700012385845,0.02940570004284382,0,,,1044.9270523000741,1044.9270523000741,1044.9270523000741,1044.9270523000741,50,C,2024-05-22_15h23.54.522,attentional_competition_task,2022.2.4,144.0160607397374,
positions.xlsx,positions_test.xlsx,positions_test_new.xlsx,stimuli.xlsx,stimuli_new.xlsx,stimuli/Social3.png,stimuli/Social4.png,stimuli/Nonsocial3.png,stimuli/Nonsocial4.png,stimuli/Social1.png,stimuli/Social2.png,stimuli/Nonsocial1.png,stimuli/Nonsocial2.png,,,"(-0.7, -0.5)",cs_pos_s,"(-0.7, 0.5)",cs_pos_ns,"(0.7, -0.5)",cs_neg_s,"(0.7, 0.5)",cs_neg_ns,0,0,0,0,,,,,,,,,,,,,,,,,,,,,0,4,4,10,,,,,,,,,,,,,,,,,,,,,,,,,,,84,reward,,,,,,1053.4197305000853,1053.4197305000853,1053.4197305000853,1053.4197305000853,1,0.029204400023445487,0.11446579999756068,1,0.12820080004166812,0.1282048000721261,0,,,0,,,1053.5586298999842,1053.5586298999842,1053.5586298999842,1053.5586298999842,50,C,2024-05-22_15h23.54.522,attentional_competition_task,2022.2.4,144.0160607397374,
positions.xlsx,positions_test.xlsx,positions_test_new.xlsx,stimuli.xlsx,stimuli_new.xlsx,stimuli/Social3.png,stimuli/Social4.png,stimuli/Nonsocial3.png,stimuli/Nonsocial4.png,stimuli/Social1.png,stimuli/Social2.png,stimuli/Nonsocial1.png,stimuli/Nonsocial2.png,,,"(-0.7, -0.5)",cs_neg_ns,"(-0.7, 0.5)",cs_pos_ns,"(0.7, -0.5)",cs_neg_s,"(0.7, 0.5)",cs_pos_s,0,0,0,0,,,,,,,,,,,,,,,,,,,,,0,5,5,17,,,,,,,,,,,,,,,,,,,,,,,,,,,90,reward,,,,,,1061.5930224000476,1061.5930224000476,1061.5930224000476,1061.5930224000476,0,,,0,,,0,,,0,,,1062.676316200057,1062.676316200057,1062.676316200057,1062.676316200057,50,C,2024-05-22_15h23.54.522,attentional_competition_task,2022.2.4,144.0160607397374,
positions.xlsx,positions_test.xlsx,positions_test_new.xlsx,stimuli.xlsx,stimuli_new.xlsx,stimuli/Social3.png,stimuli/Social4.png,stimuli/Nonsocial3.png,stimuli/Nonsocial4.png,stimuli/Social1.png,stimuli/Social2.png,stimuli/Nonsocial1.png,stimuli/Nonsocial2.png,,,"(-0.7, -0.5)",cs_pos_s,"(-0.7, 0.5)",cs_neg_ns,"(0.7, -0.5)",cs_neg_s,"(0.7, 0.5)",cs_pos_ns,0,0,0,0,,,,,,,,,,,,,,,,,,,,,0,6,6,8,,,,,,,,,,,,,,,,,,,,,,,,,,,93,reward,,,,,,1070.0371326000895,1070.0371326000895,1070.0371326000895,1070.0371326000895,0,,,0,,,0,,,1,0.05050850007683039,0.050512000103481114,1070.0857455000514,1070.0857455000514,1070.0857455000514,1070.0857455000514,50,C,2024-05-22_15h23.54.522,attentional_competition_task,2022.2.4,144.0160607397374,
positions.xlsx,positions_test.xlsx,positions_test_new.xlsx,stimuli.xlsx,stimuli_new.xlsx,stimuli/Social3.png,stimuli/Social4.png,stimuli/Nonsocial3.png,stimuli/Nonsocial4.png,stimuli/Social1.png,stimuli/Social2.png,stimuli/Nonsocial1.png,stimuli/Nonsocial2.png,,,"(-0.7, -0.5)",cs_pos_s,"(-0.7, 0.5)",cs_neg_ns,"(0.7, -0.5)",cs_pos_ns,"(0.7, 0.5)",cs_neg_s,0,0,0,0,,,,,,,,,,,,,,,,,,,,,0,7,7,9,,,,,,,,,,,,,,,,,,,,,,,,,,,99,reward,,,,,,1077.5923970000586,1077.5923970000586,1077.5923970000586,1077.5923970000586,1,0.028124899952672422,0.5503868999658152,0,,,0,,,0,,,1078.8284300999949,1078.8284300999949,1078.8284300999949,1078.8284300999949,50,C,2024-05-22_15h23.54.522,attentional_competition_task,2022.2.4,144.0160607397374,
positions.xlsx,positions_test.xlsx,positions_test_new.xlsx,stimuli.xlsx,stimuli_new.xlsx,stimuli/Social3.png,stimuli/Social4.png,stimuli/Nonsocial3.png,stimuli/Nonsocial4.png,stimuli/Social1.png,stimuli/Social2.png,stimuli/Nonsocial1.png,stimuli/Nonsocial2.png,,,"(-0.7, -0.5)",cs_neg_ns,"(-0.7, 0.5)",cs_neg_s,"(0.7, -0.5)",cs_pos_ns,"(0.7, 0.5)",cs_pos_s,0,0,0,0,,,,,,,,,,,,,,,,,,,,,0,8,8,15,,,,,,,,,,,,,,,,,,,,,,,,,,,108,reward,,,,,,1086.7309128000634,1086.7309128000634,1086.7309128000634,1086.7309128000634,0,,,0,,,0,,,1,0.029181299963966012,0.040593900019302964,1087.5919965000357,1087.5919965000357,1087.5919965000357,1087.5919965000357,50,C,2024-05-22_15h23.54.522,attentional_competition_task,2022.2.4,144.0160607397374,
positions.xlsx,positions_test.xlsx,positions_test_new.xlsx,stimuli.xlsx,stimuli_new.xlsx,stimuli/Social3.png,stimuli/Social4.png,stimuli/Nonsocial3.png,stimuli/Nonsocial4.png,stimuli/Social1.png,stimuli/Social2.png,stimuli/Nonsocial1.png,stimuli/Nonsocial2.png,,,"(-0.7, -0.5)",cs_pos_ns,"(-0.7, 0.5)",cs_neg_ns,"(0.7, -0.5)",cs_pos_s,"(0.7, 0.5)",cs_neg_s,0,0,0,0,,,,,,,,,,,,,,,,,,,,,0,9,9,20,,,,,,,,,,,,,,,,,,,,,,,,,,,117,reward,,,,,,1094.7306052000495,1094.7306052000495,1094.7306052000495,1094.7306052000495,1,0.0238420000532642,0.0516544000711292,0,,,0,,,0,,,1095.695838500047,1095.695838500047,1095.695838500047,1095.695838500047,50,C,2024-05-22_15h23.54.522,attentional_competition_task,2022.2.4,144.0160607397374,
positions.xlsx,positions_test.xlsx,positions_test_new.xlsx,stimuli.xlsx,stimuli_new.xlsx,stimuli/Social3.png,stimuli/Social4.png,stimuli/Nonsocial3.png,stimuli/Nonsocial4.png,stimuli/Social1.png,stimuli/Social2.png,stimuli/Nonsocial1.png,stimuli/Nonsocial2.png,,,"(-0.7, -0.5)",cs_pos_s,"(-0.7, 0.5)",cs_neg_s,"(0.7, -0.5)",cs_pos_ns,"(0.7, 0.5)",cs_neg_ns,0,0,0,0,,,,,,,,,,,,,,,,,,,,,0,10,10,7,,,,,,,,,,,,,,,,,,,,,,,,,,,123,reward,,,,,,1103.5218640000094,1103.5218640000094,1103.5218640000094,1103.5218640000094,1,0.03056969994213432,0.5511436000233516,0,,,1,0.7942842999473214,0.7942882999777794,0,,,1104.8135570000159,1104.8135570000159,1104.8135570000159,1104.8135570000159,50,C,2024-05-22_15h23.54.522,attentional_competition_task,2022.2.4,144.0160607397374,
positions.xlsx,positions_test.xlsx,positions_test_new.xlsx,stimuli.xlsx,stimuli_new.xlsx,stimuli/Social3.png,stimuli/Social4.png,stimuli/Nonsocial3.png,stimuli/Nonsocial4.png,stimuli/Social1.png,stimuli/Social2.png,stimuli/Nonsocial1.png,stimuli/Nonsocial2.png,,,"(-0.7, -0.5)",cs_neg_ns,"(-0.7, 0.5)",cs_pos_s,"(0.7, -0.5)",cs_neg_s,"(0.7, 0.5)",cs_pos_ns,0,0,0,0,,,,,,,,,,,,,,,,,,,,,0,11,11,12,,,,,,,,,,,,,,,,,,,,,,,,,,,126,reward,,,,,,1112.514600399998,1112.514600399998,1112.514600399998,1112.514600399998,0,,,0,,,0,,,1,0.02464660000987351,0.02465080004185438,1112.514600399998,1112.514600399998,1112.514600399998,1112.514600399998,50,C,2024-05-22_15h23.54.522,attentional_competition_task,2022.2.4,144.0160607397374,
positions.xlsx,positions_test.xlsx,positions_test_new.xlsx,stimuli.xlsx,stimuli_new.xlsx,stimuli/Social3.png,stimuli/Social4.png,stimuli/Nonsocial3.png,stimuli/Nonsocial4.png,stimuli/Social1.png,stimuli/Social2.png,stimuli/Nonsocial1.png,stimuli/Nonsocial2.png,,,"(-0.7, -0.5)",cs_neg_s,"(-0.7, 0.5)",cs_pos_ns,"(0.7, -0.5)",cs_pos_s,"(0.7, 0.5)",cs_neg_ns,0,0,0,0,,,,,,,,,,,,,,,,,,,,,0,12,12,4,,,,,,,,,,,,,,,,,,,,,,,,,,,129,reward,,,,,,1121.298962400062,1121.298962400062,1121.298962400062,1121.298962400062,0,,,1,0.027480000047944486,0.02748380007687956,0,,,0,,,1121.298962400062,1121.298962400062,1121.298962400062,1121.298962400062,50,C,2024-05-22_15h23.54.522,attentional_competition_task,2022.2.4,144.0160607397374,
positions.xlsx,positions_test.xlsx,positions_test_new.xlsx,stimuli.xlsx,stimuli_new.xlsx,stimuli/Social3.png,stimuli/Social4.png,stimuli/Nonsocial3.png,stimuli/Nonsocial4.png,stimuli/Social1.png,stimuli/Social2.png,stimuli/Nonsocial1.png,stimuli/Nonsocial2.png,,,"(-0.7, -0.5)",cs_neg_s,"(-0.7, 0.5)",cs_pos_ns,"(0.7, -0.5)",cs_neg_ns,"(0.7, 0.5)",cs_pos_s,0,0,0,0,,,,,,,,,,,,,,,,,,,,,0,13,13,5,,,,,,,,,,,,,,,,,,,,,,,,,,,138,reward,,,,,,1129.548660499975,1129.548660499975,1129.548660499975,1129.548660499975,0,,,1,0.031098200008273125,0.3779103000415489,0,,,0,,,1130.4236199000152,1130.4236199000152,1130.4236199000152,1130.4236199000152,50,C,2024-05-22_15h23.54.522,attentional_competition_task,2022.2.4,144.0160607397374,
positions.xlsx,positions_test.xlsx,positions_test_new.xlsx,stimuli.xlsx,stimuli_new.xlsx,stimuli/Social3.png,stimuli/Social4.png,stimuli/Nonsocial3.png,stimuli/Nonsocial4.png,stimuli/Social1.png,stimuli/Social2.png,stimuli/Nonsocial1.png,stimuli/Nonsocial2.png,,,"(-0.7, -0.5)",cs_neg_ns,"(-0.7, 0.5)",cs_pos_ns,"(0.7, -0.5)",cs_pos_s,"(0.7, 0.5)",cs_neg_s,0,0,0,0,,,,,,,,,,,,,,,,,,,,,0,14,14,16,,,,,,,,,,,,,,,,,,,,,,,,,,,144,reward,,,,,,1138.1386759000598,1138.1386759000598,1138.1386759000598,1138.1386759000598,0,,,1,0.02256459998898208,0.022568400017917156,0,,,0,,,1138.1386759000598,1138.1386759000598,1138.1386759000598,1138.1386759000598,50,C,2024-05-22_15h23.54.522,attentional_competition_task,2022.2.4,144.0160607397374,
positions.xlsx,positions_test.xlsx,positions_test_new.xlsx,stimuli.xlsx,stimuli_new.xlsx,stimuli/Social3.png,stimuli/Social4.png,stimuli/Nonsocial3.png,stimuli/Nonsocial4.png,stimuli/Social1.png,stimuli/Social2.png,stimuli/Nonsocial1.png,stimuli/Nonsocial2.png,,,"(-0.7, -0.5)",cs_pos_s,"(-0.7, 0.5)",cs_pos_ns,"(0.7, -0.5)",cs_neg_ns,"(0.7, 0.5)",cs_neg_s,0,0,0,0,,,,,,,,,,,,,,,,,,,,,0,15,15,11,,,,,,,,,,,,,,,,,,,,,,,,,,,153,reward,,,,,,1146.8465662000235,1146.8465662000235,1146.8465662000235,1146.8465662000235,0,,,0,,,0,,,0,,,1147.9020554000745,1147.9020554000745,1147.9020554000745,1147.9020554000745,50,C,2024-05-22_15h23.54.522,attentional_competition_task,2022.2.4,144.0160607397374,
positions.xlsx,positions_test.xlsx,positions_test_new.xlsx,stimuli.xlsx,stimuli_new.xlsx,stimuli/Social3.png,stimuli/Social4.png,stimuli/Nonsocial3.png,stimuli/Nonsocial4.png,stimuli/Social1.png,stimuli/Social2.png,stimuli/Nonsocial1.png,stimuli/Nonsocial2.png,,,"(-0.7, -0.5)",cs_pos_ns,"(-0.7, 0.5)",cs_neg_ns,"(0.7, -0.5)",cs_neg_s,"(0.7, 0.5)",cs_pos_s,0,0,0,0,,,,,,,,,,,,,,,,,,,,,0,16,16,21,,,,,,,,,,,,,,,,,,,,,,,,,,,162,reward,,,,,,1155.8045285000699,1155.8045285000699,1155.8045285000699,1155.8045285000699,0,,,0,,,0,,,0,,,1156.7489667000482,1156.7489667000482,1156.7489667000482,1156.7489667000482,50,C,2024-05-22_15h23.54.522,attentional_competition_task,2022.2.4,144.0160607397374,
positions.xlsx,positions_test.xlsx,positions_test_new.xlsx,stimuli.xlsx,stimuli_new.xlsx,stimuli/Social3.png,stimuli/Social4.png,stimuli/Nonsocial3.png,stimuli/Nonsocial4.png,stimuli/Social1.png,stimuli/Social2.png,stimuli/Nonsocial1.png,stimuli/Nonsocial2.png,,,"(-0.7, -0.5)",cs_neg_ns,"(-0.7, 0.5)",cs_pos_s,"(0.7, -0.5)",cs_pos_ns,"(0.7, 0.5)",cs_neg_s,0,0,0,0,,,,,,,,,,,,,,,,,,,,,0,17,17,13,,,,,,,,,,,,,,,,,,,,,,,,,,,171,reward,,,,,,1164.3944767999928,1164.3944767999928,1164.3944767999928,1164.3944767999928,0,,,0,,,0,,,0,,,1165.3597292000195,1165.3597292000195,1165.3597292000195,1165.3597292000195,50,C,2024-05-22_15h23.54.522,attentional_competition_task,2022.2.4,144.0160607397374,
positions.xlsx,positions_test.xlsx,positions_test_new.xlsx,stimuli.xlsx,stimuli_new.xlsx,stimuli/Social3.png,stimuli/Social4.png,stimuli/Nonsocial3.png,stimuli/Nonsocial4.png,stimuli/Social1.png,stimuli/Social2.png,stimuli/Nonsocial1.png,stimuli/Nonsocial2.png,,,"(-0.7, -0.5)",cs_neg_s,"(-0.7, 0.5)",cs_neg_ns,"(0.7, -0.5)",cs_pos_s,"(0.7, 0.5)",cs_pos_ns,0,0,0,0,,,,,,,,,,,,,,,,,,,,,0,18,18,2,,,,,,,,,,,,,,,,,,,,,,,,,,,174,reward,,,,,,1172.3594739000546,1172.3594739000546,1172.3594739000546,1172.3594739000546,0,,,0,,,0,,,1,0.025202899938449264,0.02520669996738434,1172.3594739000546,1172.3594739000546,1172.3594739000546,1172.3594739000546,50,C,2024-05-22_15h23.54.522,attentional_competition_task,2022.2.4,144.0160607397374,
positions.xlsx,positions_test.xlsx,positions_test_new.xlsx,stimuli.xlsx,stimuli_new.xlsx,stimuli/Social3.png,stimuli/Social4.png,stimuli/Nonsocial3.png,stimuli/Nonsocial4.png,stimuli/Social1.png,stimuli/Social2.png,stimuli/Nonsocial1.png,stimuli/Nonsocial2.png,,,"(-0.7, -0.5)",cs_pos_ns,"(-0.7, 0.5)",cs_neg_s,"(0.7, -0.5)",cs_pos_s,"(0.7, 0.5)",cs_neg_ns,0,0,0,0,,,,,,,,,,,,,,,,,,,,,0,19,19,22,,,,,,,,,,,,,,,,,,,,,,,,,,,183,reward,,,,,,1181.268813300063,1181.268813300063,1181.268813300063,1181.268813300063,0,,,0,,,1,0.030893999966792762,0.04468990000896156,0,,,1181.8104715000372,1181.8104715000372,1181.8104715000372,1181.8104715000372,50,C,2024-05-22_15h23.54.522,attentional_competition_task,2022.2.4,144.0160607397374,
positions.xlsx,positions_test.xlsx,positions_test_new.xlsx,stimuli.xlsx,stimuli_new.xlsx,stimuli/Social3.png,stimuli/Social4.png,stimuli/Nonsocial3.png,stimuli/Nonsocial4.png,stimuli/Social1.png,stimuli/Social2.png,stimuli/Nonsocial1.png,stimuli/Nonsocial2.png,,,"(-0.7, -0.5)",cs_pos_s,"(-0.7, 0.5)",cs_neg_s,"(0.7, -0.5)",cs_neg_ns,"(0.7, 0.5)",cs_pos_ns,0,0,0,0,,,,,,,,,,,,,,,,,,,,,0,20,20,6,,,,,,,,,,,,,,,,,,,,,,,,,,,192,reward,,,,,,1189.7129165000515,1189.7129165000515,1189.7129165000515,1189.7129165000515,0,,,1,0.3641321000177413,0.36413580004591495,0,,,1,0.02438119996804744,0.31594220001716167,1190.5878913999768,1190.5878913999768,1190.5878913999768,1190.5878913999768,50,C,2024-05-22_15h23.54.522,attentional_competition_task,2022.2.4,144.0160607397374,
positions.xlsx,positions_test.xlsx,positions_test_new.xlsx,stimuli.xlsx,stimuli_new.xlsx,stimuli/Social3.png,stimuli/Social4.png,stimuli/Nonsocial3.png,stimuli/Nonsocial4.png,stimuli/Social1.png,stimuli/Social2.png,stimuli/Nonsocial1.png,stimuli/Nonsocial2.png,,,"(-0.7, -0.5)",cs_pos_ns,"(-0.7, 0.5)",cs_neg_s,"(0.7, -0.5)",cs_neg_ns,"(0.7, 0.5)",cs_pos_s,0,0,0,0,,,,,,,,,,,,,,,,,,,,,0,21,21,23,,,,,,,,,,,,,,,,,,,,,,,,,,,195,reward,,,,,,1197.6848405000055,1197.6848405000055,1197.6848405000055,1197.6848405000055,1,0.022618800052441657,0.02262259996496141,0,,,0,,,0,,,1197.6848405000055,1197.6848405000055,1197.6848405000055,1197.6848405000055,50,C,2024-05-22_15h23.54.522,attentional_competition_task,2022.2.4,144.0160607397374,
positions.xlsx,positions_test.xlsx,positions_test_new.xlsx,stimuli.xlsx,stimuli_new.xlsx,stimuli/Social3.png,stimuli/Social4.png,stimuli/Nonsocial3.png,stimuli/Nonsocial4.png,stimuli/Social1.png,stimuli/Social2.png,stimuli/Nonsocial1.png,stimuli/Nonsocial2.png,,,"(-0.7, -0.5)",cs_neg_s,"(-0.7, 0.5)",cs_pos_s,"(0.7, -0.5)",cs_pos_ns,"(0.7, 0.5)",cs_neg_ns,0,0,0,0,,,,,,,,,,,,,,,,,,,,,0,22,22,1,,,,,,,,,,,,,,,,,,,,,,,,,,,198,reward,,,,,,1206.3511264000554,1206.3511264000554,1206.3511264000554,1206.3511264000554,0,,,0,,,1,0.028432599967345595,0.028436699998565018,0,,,1206.3511264000554,1206.3511264000554,1206.3511264000554,1206.3511264000554,50,C,2024-05-22_15h23.54.522,attentional_competition_task,2022.2.4,144.0160607397374,
positions.xlsx,positions_test.xlsx,positions_test_new.xlsx,stimuli.xlsx,stimuli_new.xlsx,stimuli/Social3.png,stimuli/Social4.png,stimuli/Nonsocial3.png,stimuli/Nonsocial4.png,stimuli/Social1.png,stimuli/Social2.png,stimuli/Nonsocial1.png,stimuli/Nonsocial2.png,,,"(-0.7, -0.5)",cs_neg_s,"(-0.7, 0.5)",cs_pos_s,"(0.7, -0.5)",cs_neg_ns,"(0.7, 0.5)",cs_pos_ns,0,0,0,0,,,,,,,,,,,,,,,,,,,,,0,23,23,0,,,,,,,,,,,,,,,,,,,,,,,,,,,201,loss,,,,,,1214.2674767000135,1214.2674767000135,1214.2674767000135,1214.2674767000135,0,,,0,,,1,0.025201300042681396,0.02520530007313937,0,,,1214.2674767000135,1214.2674767000135,1214.2674767000135,1214.2674767000135,50,C,2024-05-22_15h23.54.522,attentional_competition_task,2022.2.4,144.0160607397374,
positions.xlsx,positions_test.xlsx,positions_test_new.xlsx,stimuli.xlsx,stimuli_new.xlsx,stimuli/Social3.png,stimuli/Social4.png,stimuli/Nonsocial3.png,stimuli/Nonsocial4.png,stimuli/Social1.png,stimuli/Social2.png,stimuli/Nonsocial1.png,stimuli/Nonsocial2.png,,,"(-0.7, -0.5)",cs_pos_s,"(-0.7, 0.5)",cs_neg_ns,"(0.7, -0.5)",cs_pos_ns,"(0.7, 0.5)",cs_neg_s,0,0,0,0,,,,,,,,,,,,,,,,,,,,,1,0,24,9,,,,,,,,,,,,,,,,,,,,,,,,,,,210,reward,,,,,,1223.5379896999802,1223.5379896999802,1223.5379896999802,1223.5379896999802,0,,,0,,,1,0.024335100082680583,0.5444755000062287,0,,,1224.5865355000133,1224.5865355000133,1224.5865355000133,1224.5865355000133,50,C,2024-05-22_15h23.54.522,attentional_competition_task,2022.2.4,144.0160607397374,
positions.xlsx,positions_test.xlsx,positions_test_new.xlsx,stimuli.xlsx,stimuli_new.xlsx,stimuli/Social3.png,stimuli/Social4.png,stimuli/Nonsocial3.png,stimuli/Nonsocial4.png,stimuli/Social1.png,stimuli/Social2.png,stimuli/Nonsocial1.png,stimuli/Nonsocial2.png,,,"(-0.7, -0.5)",cs_neg_ns,"(-0.7, 0.5)",cs_pos_ns,"(0.7, -0.5)",cs_pos_s,"(0.7, 0.5)",cs_neg_s,0,0,0,0,,,,,,,,,,,,,,,,,,,,,1,1,25,16,,,,,,,,,,,,,,,,,,,,,,,,,,,213,reward,,,,,,1231.8570618000813,1231.8570618000813,1231.8570618000813,1231.8570618000813,0,,,1,0.02858909999486059,0.028593100025318563,0,,,0,,,1231.8570618000813,1231.8570618000813,1231.8570618000813,1231.8570618000813,50,C,2024-05-22_15h23.54.522,attentional_competition_task,2022.2.4,144.0160607397374,
positions.xlsx,positions_test.xlsx,positions_test_new.xlsx,stimuli.xlsx,stimuli_new.xlsx,stimuli/Social3.png,stimuli/Social4.png,stimuli/Nonsocial3.png,stimuli/Nonsocial4.png,stimuli/Social1.png,stimuli/Social2.png,stimuli/Nonsocial1.png,stimuli/Nonsocial2.png,,,"(-0.7, -0.5)",cs_neg_s,"(-0.7, 0.5)",cs_pos_s,"(0.7, -0.5)",cs_neg_ns,"(0.7, 0.5)",cs_pos_ns,0,0,0,0,,,,,,,,,,,,,,,,,,,,,1,2,26,0,,,,,,,,,,,,,,,,,,,,,,,,,,,222,reward,,,,,,1241.0372842000797,1241.0372842000797,1241.0372842000797,1241.0372842000797,0,,,0,,,0,,,1,0.02617389999795705,0.2677782999817282,1241.9955690000206,1241.9955690000206,1241.9955690000206,1241.9955690000206,50,C,2024-05-22_15h23.54.522,attentional_competition_task,2022.2.4,144.0160607397374,
positions.xlsx,positions_test.xlsx,positions_test_new.xlsx,stimuli.xlsx,stimuli_new.xlsx,stimuli/Social3.png,stimuli/Social4.png,stimuli/Nonsocial3.png,stimuli/Nonsocial4.png,stimuli/Social1.png,stimuli/Social2.png,stimuli/Nonsocial1.png,stimuli/Nonsocial2.png,,,"(-0.7, -0.5)",cs_pos_s,"(-0.7, 0.5)",cs_neg_s,"(0.7, -0.5)",cs_pos_ns,"(0.7, 0.5)",cs_neg_ns,0,0,0,0,,,,,,,,,,,,,,,,,,,,,1,3,27,7,,,,,,,,,,,,,,,,,,,,,,,,,,,231,reward,,,,,,1249.0091748000123,1249.0091748000123,1249.0091748000123,1249.0091748000123,0,,,0,,,0,,,0,,,1249.9396963000763,1249.9396963000763,1249.9396963000763,1249.9396963000763,50,C,2024-05-22_15h23.54.522,attentional_competition_task,2022.2.4,144.0160607397374,
positions.xlsx,positions_test.xlsx,positions_test_new.xlsx,stimuli.xlsx,stimuli_new.xlsx,stimuli/Social3.png,stimuli/Social4.png,stimuli/Nonsocial3.png,stimuli/Nonsocial4.png,stimuli/Social1.png,stimuli/Social2.png,stimuli/Nonsocial1.png,stimuli/Nonsocial2.png,,,"(-0.7, -0.5)",cs_neg_ns,"(-0.7, 0.5)",cs_neg_s,"(0.7, -0.5)",cs_pos_ns,"(0.7, 0.5)",cs_pos_s,0,0,0,0,,,,,,,,,,,,,,,,,,,,,1,4,28,15,,,,,,,,,,,,,,,,,,,,,,,,,,,240,reward,,,,,,1257.6338311000727,1257.6338311000727,1257.6338311000727,1257.6338311000727,0,,,0,,,0,,,1,0.023274699924513698,0.3996162998955697,1258.55741940008,1258.55741940008,1258.55741940008,1258.55741940008,50,C,2024-05-22_15h23.54.522,attentional_competition_task,2022.2.4,144.0160607397374,
positions.xlsx,positions_test.xlsx,positions_test_new.xlsx,stimuli.xlsx,stimuli_new.xlsx,stimuli/Social3.png,stimuli/Social4.png,stimuli/Nonsocial3.png,stimuli/Nonsocial4.png,stimuli/Social1.png,stimuli/Social2.png,stimuli/Nonsocial1.png,stimuli/Nonsocial2.png,,,"(-0.7, -0.5)",cs_neg_ns,"(-0.7, 0.5)",cs_pos_s,"(0.7, -0.5)",cs_pos_ns,"(0.7, 0.5)",cs_neg_s,0,0,0,0,,,,,,,,,,,,,,,,,,,,,1,5,29,13,,,,,,,,,,,,,,,,,,,,,,,,,,,243,loss,,,,,,1265.6543751000427,1265.6543751000427,1265.6543751000427,1265.6543751000427,0,,,0,,,1,0.023092399933375418,0.07304459996521473,1,0.10136540001258254,0.10136940004304051,1265.758551200037,1265.758551200037,1265.758551200037,1265.758551200037,50,C,2024-05-22_15h23.54.522,attentional_competition_task,2022.2.4,144.0160607397374,
positions.xlsx,positions_test.xlsx,positions_test_new.xlsx,stimuli.xlsx,stimuli_new.xlsx,stimuli/Social3.png,stimuli/Social4.png,stimuli/Nonsocial3.png,stimuli/Nonsocial4.png,stimuli/Social1.png,stimuli/Social2.png,stimuli/Nonsocial1.png,stimuli/Nonsocial2.png,,,"(-0.7, -0.5)",cs_pos_ns,"(-0.7, 0.5)",cs_pos_s,"(0.7, -0.5)",cs_neg_ns,"(0.7, 0.5)",cs_neg_s,0,0,0,0,,,,,,,,,,,,,,,,,,,,,1,6,30,18,,,,,,,,,,,,,,,,,,,,,,,,,,,252,reward,,,,,,1273.230405600043,1273.230405600043,1273.230405600043,1273.230405600043,0,,,1,0.35541389998979867,0.5233684999402612,0,,,0,,,1274.2512531999964,1274.2512531999964,1274.2512531999964,1274.2512531999964,50,C,2024-05-22_15h23.54.522,attentional_competition_task,2022.2.4,144.0160607397374,
positions.xlsx,positions_test.xlsx,positions_test_new.xlsx,stimuli.xlsx,stimuli_new.xlsx,stimuli/Social3.png,stimuli/Social4.png,stimuli/Nonsocial3.png,stimuli/Nonsocial4.png,stimuli/Social1.png,stimuli/Social2.png,stimuli/Nonsocial1.png,stimuli/Nonsocial2.png,,,"(-0.7, -0.5)",cs_pos_s,"(-0.7, 0.5)",cs_pos_ns,"(0.7, -0.5)",cs_neg_s,"(0.7, 0.5)",cs_neg_ns,0,0,0,0,,,,,,,,,,,,,,,,,,,,,1,7,31,10,,,,,,,,,,,,,,,,,,,,,,,,,,,261,reward,,,,,,1281.6606433000416,1281.6606433000416,1281.6606433000416,1281.6606433000416,0,,,1,0.02304759994149208,0.06580659991595894,0,,,0,,,1282.2648089000722,1282.2648089000722,1282.2648089000722,1282.2648089000722,50,C,2024-05-22_15h23.54.522,attentional_competition_task,2022.2.4,144.0160607397374,
positions.xlsx,positions_test.xlsx,positions_test_new.xlsx,stimuli.xlsx,stimuli_new.xlsx,stimuli/Social3.png,stimuli/Social4.png,stimuli/Nonsocial3.png,stimuli/Nonsocial4.png,stimuli/Social1.png,stimuli/Social2.png,stimuli/Nonsocial1.png,stimuli/Nonsocial2.png,,,"(-0.7, -0.5)",cs_neg_s,"(-0.7, 0.5)",cs_neg_ns,"(0.7, -0.5)",cs_pos_ns,"(0.7, 0.5)",cs_pos_s,0,0,0,0,,,,,,,,,,,,,,,,,,,,,1,8,32,3,,,,,,,,,,,,,,,,,,,,,,,,,,,270,reward,,,,,,1290.1811476000585,1290.1811476000585,1290.1811476000585,1290.1811476000585,0,,,0,,,1,0.029114199918694794,0.2456114999949932,0,,,1291.1325343999779,1291.1325343999779,1291.1325343999779,1291.1325343999779,50,C,2024-05-22_15h23.54.522,attentional_competition_task,2022.2.4,144.0160607397374,
positions.xlsx,positions_test.xlsx,positions_test_new.xlsx,stimuli.xlsx,stimuli_new.xlsx,stimuli/Social3.png,stimuli/Social4.png,stimuli/Nonsocial3.png,stimuli/Nonsocial4.png,stimuli/Social1.png,stimuli/Social2.png,stimuli/Nonsocial1.png,stimuli/Nonsocial2.png,,,"(-0.7, -0.5)",cs_pos_ns,"(-0.7, 0.5)",cs_neg_ns,"(0.7, -0.5)",cs_neg_s,"(0.7, 0.5)",cs_pos_s,0,0,0,0,,,,,,,,,,,,,,,,,,,,,1,9,33,21,,,,,,,,,,,,,,,,,,,,,,,,,,,279,reward,,,,,,1298.9308183999965,1298.9308183999965,1298.9308183999965,1298.9308183999965,1,0.02329539996571839,0.06591959996148944,0,,,0,,,0,,,1299.923823500052,1299.923823500052,1299.923823500052,1299.923823500052,50,C,2024-05-22_15h23.54.522,attentional_competition_task,2022.2.4,144.0160607397374,
positions.xlsx,positions_test.xlsx,positions_test_new.xlsx,stimuli.xlsx,stimuli_new.xlsx,stimuli/Social3.png,stimuli/Social4.png,stimuli/Nonsocial3.png,stimuli/Nonsocial4.png,stimuli/Social1.png,stimuli/Social2.png,stimuli/Nonsocial1.png,stimuli/Nonsocial2.png,,,"(-0.7, -0.5)",cs_neg_s,"(-0.7, 0.5)",cs_pos_s,"(0.7, -0.5)",cs_pos_ns,"(0.7, 0.5)",cs_neg_ns,0,0,0,0,,,,,,,,,,,,,,,,,,,,,1,10,34,1,,,,,,,,,,,,,,,,,,,,,,,,,,,282,reward,,,,,,1307.2499157000566,1307.2499157000566,1307.2499157000566,1307.2499157000566,0,,,0,,,1,0.022988200071267784,0.022991799982264638,0,,,1307.2499157000566,1307.2499157000566,1307.2499157000566,1307.2499157000566,50,C,2024-05-22_15h23.54.522,attentional_competition_task,2022.2.4,144.0160607397374,
positions.xlsx,positions_test.xlsx,positions_test_new.xlsx,stimuli.xlsx,stimuli_new.xlsx,stimuli/Social3.png,stimuli/Social4.png,stimuli/Nonsocial3.png,stimuli/Nonsocial4.png,stimuli/Social1.png,stimuli/Social2.png,stimuli/Nonsocial1.png,stimuli/Nonsocial2.png,,,"(-0.7, -0.5)",cs_neg_ns,"(-0.7, 0.5)",cs_pos_ns,"(0.7, -0.5)",cs_neg_s,"(0.7, 0.5)",cs_pos_s,0,0,0,0,,,,,,,,,,,,,,,,,,,,,1,11,35,17,,,,,,,,,,,,,,,,,,,,,,,,,,,291,reward,,,,,,1315.8815184000414,1315.8815184000414,1315.8815184000414,1315.8815184000414,0,,,1,0.02857279998715967,0.08612520003225654,0,,,1,0.1490654000081122,0.4820566000416875,1316.8606716999784,1316.8606716999784,1316.8606716999784,1316.8606716999784,50,C,2024-05-22_15h23.54.522,attentional_competition_task,2022.2.4,144.0160607397374,
positions.xlsx,positions_test.xlsx,positions_test_new.xlsx,stimuli.xlsx,stimuli_new.xlsx,stimuli/Social3.png,stimuli/Social4.png,stimuli/Nonsocial3.png,stimuli/Nonsocial4.png,stimuli/Social1.png,stimuli/Social2.png,stimuli/Nonsocial1.png,stimuli/Nonsocial2.png,,,"(-0.7, -0.5)",cs_pos_s,"(-0.7, 0.5)",cs_pos_ns,"(0.7, -0.5)",cs_neg_ns,"(0.7, 0.5)",cs_neg_s,0,0,0,0,,,,,,,,,,,,,,,,,,,,,1,12,36,11,,,,,,,,,,,,,,,,,,,,,,,,,,,300,reward,,,,,,1324.53395740001,1324.53395740001,1324.53395740001,1324.53395740001,0,,,1,0.023407100001350045,0.4486242999555543,0,,,0,,,1325.4922683000332,1325.4922683000332,1325.4922683000332,1325.4922683000332,50,C,2024-05-22_15h23.54.522,attentional_competition_task,2022.2.4,144.0160607397374,
positions.xlsx,positions_test.xlsx,positions_test_new.xlsx,stimuli.xlsx,stimuli_new.xlsx,stimuli/Social3.png,stimuli/Social4.png,stimuli/Nonsocial3.png,stimuli/Nonsocial4.png,stimuli/Social1.png,stimuli/Social2.png,stimuli/Nonsocial1.png,stimuli/Nonsocial2.png,,,"(-0.7, -0.5)",cs_pos_ns,"(-0.7, 0.5)",cs_neg_s,"(0.7, -0.5)",cs_pos_s,"(0.7, 0.5)",cs_neg_ns,0,0,0,0,,,,,,,,,,,,,,,,,,,,,1,13,37,22,,,,,,,,,,,,,,,,,,,,,,,,,,,309,reward,,,,,,1333.2488806999754,1333.2488806999754,1333.2488806999754,1333.2488806999754,0,,,0,,,0,,,0,,,1334.2141349000158,1334.2141349000158,1334.2141349000158,1334.2141349000158,50,C,2024-05-22_15h23.54.522,attentional_competition_task,2022.2.4,144.0160607397374,
positions.xlsx,positions_test.xlsx,positions_test_new.xlsx,stimuli.xlsx,stimuli_new.xlsx,stimuli/Social3.png,stimuli/Social4.png,stimuli/Nonsocial3.png,stimuli/Nonsocial4.png,stimuli/Social1.png,stimuli/Social2.png,stimuli/Nonsocial1.png,stimuli/Nonsocial2.png,,,"(-0.7, -0.5)",cs_neg_s,"(-0.7, 0.5)",cs_neg_ns,"(0.7, -0.5)",cs_pos_s,"(0.7, 0.5)",cs_pos_ns,0,0,0,0,,,,,,,,,,,,,,,,,,,,,1,14,38,2,,,,,,,,,,,,,,,,,,,,,,,,,,,318,reward,,,,,,1341.8526775999926,1341.8526775999926,1341.8526775999926,1341.8526775999926,0,,,0,,,1,0.028473599930293858,0.4407202999573201,0,,,1342.797079400043,1342.797079400043,1342.797079400043,1342.797079400043,50,C,2024-05-22_15h23.54.522,attentional_competition_task,2022.2.4,144.0160607397374,
positions.xlsx,positions_test.xlsx,positions_test_new.xlsx,stimuli.xlsx,stimuli_new.xlsx,stimuli/Social3.png,stimuli/Social4.png,stimuli/Nonsocial3.png,stimuli/Nonsocial4.png,stimuli/Social1.png,stimuli/Social2.png,stimuli/Nonsocial1.png,stimuli/Nonsocial2.png,,,"(-0.7, -0.5)",cs_neg_s,"(-0.7, 0.5)",cs_pos_ns,"(0.7, -0.5)",cs_pos_s,"(0.7, 0.5)",cs_neg_ns,0,0,0,0,,,,,,,,,,,,,,,,,,,,,1,15,39,4,,,,,,,,,,,,,,,,,,,,,,,,,,,321,reward,,,,,,1349.9287891000276,1349.9287891000276,1349.9287891000276,1349.9287891000276,0,,,1,0.024880099925212562,0.024884099955670536,0,,,0,,,1349.9287891000276,1349.9287891000276,1349.9287891000276,1349.9287891000276,50,C,2024-05-22_15h23.54.522,attentional_competition_task,2022.2.4,144.0160607397374,
positions.xlsx,positions_test.xlsx,positions_test_new.xlsx,stimuli.xlsx,stimuli_new.xlsx,stimuli/Social3.png,stimuli/Social4.png,stimuli/Nonsocial3.png,stimuli/Nonsocial4.png,stimuli/Social1.png,stimuli/Social2.png,stimuli/Nonsocial1.png,stimuli/Nonsocial2.png,,,"(-0.7, -0.5)",cs_pos_ns,"(-0.7, 0.5)",cs_neg_ns,"(0.7, -0.5)",cs_pos_s,"(0.7, 0.5)",cs_neg_s,0,0,0,0,,,,,,,,,,,,,,,,,,,,,1,16,40,20,,,,,,,,,,,,,,,,,,,,,,,,,,,330,reward,,,,,,1358.095111600007,1358.095111600007,1358.095111600007,1358.095111600007,1,0.029945299960672855,0.45348589995410293,0,,,0,,,0,,,1359.0464787000092,1359.0464787000092,1359.0464787000092,1359.0464787000092,50,C,2024-05-22_15h23.54.522,attentional_competition_task,2022.2.4,144.0160607397374,
positions.xlsx,positions_test.xlsx,positions_test_new.xlsx,stimuli.xlsx,stimuli_new.xlsx,stimuli/Social3.png,stimuli/Social4.png,stimuli/Nonsocial3.png,stimuli/Nonsocial4.png,stimuli/Social1.png,stimuli/Social2.png,stimuli/Nonsocial1.png,stimuli/Nonsocial2.png,,,"(-0.7, -0.5)",cs_neg_ns,"(-0.7, 0.5)",cs_neg_s,"(0.7, -0.5)",cs_pos_s,"(0.7, 0.5)",cs_pos_ns,0,0,0,0,,,,,,,,,,,,,,,,,,,,,1,17,41,14,,,,,,,,,,,,,,,,,,,,,,,,,,,336,reward,,,,,,1366.9142169000115,1366.9142169000115,1366.9142169000115,1366.9142169000115,0,,,0,,,0,,,1,0.023574999999254942,0.023578800028190017,1366.9142169000115,1366.9142169000115,1366.9142169000115,1366.9142169000115,50,C,2024-05-22_15h23.54.522,attentional_competition_task,2022.2.4,144.0160607397374,
positions.xlsx,positions_test.xlsx,positions_test_new.xlsx,stimuli.xlsx,stimuli_new.xlsx,stimuli/Social3.png,stimuli/Social4.png,stimuli/Nonsocial3.png,stimuli/Nonsocial4.png,stimuli/Social1.png,stimuli/Social2.png,stimuli/Nonsocial1.png,stimuli/Nonsocial2.png,,,"(-0.7, -0.5)",cs_neg_s,"(-0.7, 0.5)",cs_pos_ns,"(0.7, -0.5)",cs_neg_ns,"(0.7, 0.5)",cs_pos_s,0,0,0,0,,,,,,,,,,,,,,,,,,,,,1,18,42,5,,,,,,,,,,,,,,,,,,,,,,,,,,,339,reward,,,,,,1375.3166527000722,1375.3166527000722,1375.3166527000722,1375.3166527000722,0,,,1,0.029494000016711652,0.029497700044885278,0,,,0,,,1375.3166527000722,1375.3166527000722,1375.3166527000722,1375.3166527000722,50,C,2024-05-22_15h23.54.522,attentional_competition_task,2022.2.4,144.0160607397374,
positions.xlsx,positions_test.xlsx,positions_test_new.xlsx,stimuli.xlsx,stimuli_new.xlsx,stimuli/Social3.png,stimuli/Social4.png,stimuli/Nonsocial3.png,stimuli/Nonsocial4.png,stimuli/Social1.png,stimuli/Social2.png,stimuli/Nonsocial1.png,stimuli/Nonsocial2.png,,,"(-0.7, -0.5)",cs_pos_s,"(-0.7, 0.5)",cs_neg_s,"(0.7, -0.5)",cs_neg_ns,"(0.7, 0.5)",cs_pos_ns,0,0,0,0,,,,,,,,,,,,,,,,,,,,,1,19,43,6,,,,,,,,,,,,,,,,,,,,,,,,,,,345,reward,,,,,,1383.670550800045,1383.670550800045,1383.670550800045,1383.670550800045,0,,,0,,,0,,,1,0.029929099953733385,0.02993289998266846,1383.670550800045,1383.670550800045,1383.670550800045,1383.670550800045,50,C,2024-05-22_15h23.54.522,attentional_competition_task,2022.2.4,144.0160607397374,
positions.xlsx,positions_test.xlsx,positions_test_new.xlsx,stimuli.xlsx,stimuli_new.xlsx,stimuli/Social3.png,stimuli/Social4.png,stimuli/Nonsocial3.png,stimuli/Nonsocial4.png,stimuli/Social1.png,stimuli/Social2.png,stimuli/Nonsocial1.png,stimuli/Nonsocial2.png,,,"(-0.7, -0.5)",cs_pos_s,"(-0.7, 0.5)",cs_neg_ns,"(0.7, -0.5)",cs_neg_s,"(0.7, 0.5)",cs_pos_ns,0,0,0,0,,,,,,,,,,,,,,,,,,,,,1,20,44,8,,,,,,,,,,,,,,,,,,,,,,,,,,,354,reward,,,,,,1392.5868260000134,1392.5868260000134,1392.5868260000134,1392.5868260000134,0,,,0,,,0,,,1,0.023912299890071154,0.14396779995877296,1393.2395796000492,1393.2395796000492,1393.2395796000492,1393.2395796000492,50,C,2024-05-22_15h23.54.522,attentional_competition_task,2022.2.4,144.0160607397374,
positions.xlsx,positions_test.xlsx,positions_test_new.xlsx,stimuli.xlsx,stimuli_new.xlsx,stimuli/Social3.png,stimuli/Social4.png,stimuli/Nonsocial3.png,stimuli/Nonsocial4.png,stimuli/Social1.png,stimuli/Social2.png,stimuli/Nonsocial1.png,stimuli/Nonsocial2.png,,,"(-0.7, -0.5)",cs_pos_ns,"(-0.7, 0.5)",cs_neg_s,"(0.7, -0.5)",cs_neg_ns,"(0.7, 0.5)",cs_pos_s,0,0,0,0,,,,,,,,,,,,,,,,,,,,,1,21,45,23,,,,,,,,,,,,,,,,,,,,,,,,,,,363,reward,,,,,,1401.662829500041,1401.662829500041,1401.662829500041,1401.662829500041,0,,,0,,,0,,,0,,,1402.6211252000649,1402.6211252000649,1402.6211252000649,1402.6211252000649,50,C,2024-05-22_15h23.54.522,attentional_competition_task,2022.2.4,144.0160607397374,
positions.xlsx,positions_test.xlsx,positions_test_new.xlsx,stimuli.xlsx,stimuli_new.xlsx,stimuli/Social3.png,stimuli/Social4.png,stimuli/Nonsocial3.png,stimuli/Nonsocial4.png,stimuli/Social1.png,stimuli/Social2.png,stimuli/Nonsocial1.png,stimuli/Nonsocial2.png,,,"(-0.7, -0.5)",cs_pos_ns,"(-0.7, 0.5)",cs_pos_s,"(0.7, -0.5)",cs_neg_s,"(0.7, 0.5)",cs_neg_ns,0,0,0,0,,,,,,,,,,,,,,,,,,,,,1,22,46,19,,,,,,,,,,,,,,,,,,,,,,,,,,,372,reward,,,,,,1410.0166341000004,1410.0166341000004,1410.0166341000004,1410.0166341000004,0,,,1,0.022575100068934262,0.4338020000141114,0,,,0,,,1410.9749596000183,1410.9749596000183,1410.9749596000183,1410.9749596000183,50,C,2024-05-22_15h23.54.522,attentional_competition_task,2022.2.4,144.0160607397374,
positions.xlsx,positions_test.xlsx,positions_test_new.xlsx,stimuli.xlsx,stimuli_new.xlsx,stimuli/Social3.png,stimuli/Social4.png,stimuli/Nonsocial3.png,stimuli/Nonsocial4.png,stimuli/Social1.png,stimuli/Social2.png,stimuli/Nonsocial1.png,stimuli/Nonsocial2.png,,,"(-0.7, -0.5)",cs_neg_ns,"(-0.7, 0.5)",cs_pos_s,"(0.7, -0.5)",cs_neg_s,"(0.7, 0.5)",cs_pos_ns,0,0,0,0,,,,,,,,,,,,,,,,,,,,,1,23,47,12,,,,,,,,,,,,,,,,,,,,,,,,,,,381,reward,,,,,,1417.884405400022,1417.884405400022,1417.884405400022,1417.884405400022,0,,,0,,,0,,,1,0.024556600023061037,0.05289019993506372,1418.8149285999825,1418.8149285999825,1418.8149285999825,1418.8149285999825,50,C,2024-05-22_15h23.54.522,attentional_competition_task,2022.2.4,144.0160607397374,
positions.xlsx,positions_test.xlsx,positions_test_new.xlsx,stimuli.xlsx,stimuli_new.xlsx,stimuli/Social3.png,stimuli/Social4.png,stimuli/Nonsocial3.png,stimuli/Nonsocial4.png,stimuli/Social1.png,stimuli/Social2.png,stimuli/Nonsocial1.png,stimuli/Nonsocial2.png,,,"(-0.7, -0.5)",cs_pos_s,"(-0.7, 0.5)",cs_pos_ns,"(0.7, -0.5)",cs_neg_ns,"(0.7, 0.5)",cs_neg_s_new,0,0,0,0,,,,,,,,,,,,,,,,,,,,,,,,,,,,,0,0,0,12,0,0,0,0,,,,,,,,,,,,,,,384,reward,,,,,,1424.4257831000723,1424.4257831000723,1424.4257831000723,1424.4257831000723,0,,,1,0.5020678000291809,0.5020718000596389,0,,,0,,,1424.939679000061,1424.939679000061,1424.939679000061,1424.939679000061,50,C,2024-05-22_15h23.54.522,attentional_competition_task,2022.2.4,144.0160607397374,
positions.xlsx,positions_test.xlsx,positions_test_new.xlsx,stimuli.xlsx,stimuli_new.xlsx,stimuli/Social3.png,stimuli/Social4.png,stimuli/Nonsocial3.png,stimuli/Nonsocial4.png,stimuli/Social1.png,stimuli/Social2.png,stimuli/Nonsocial1.png,stimuli/Nonsocial2.png,,,"(-0.7, -0.5)",cs_pos_s,"(-0.7, 0.5)",cs_pos_ns,"(0.7, -0.5)",cs_neg_ns,"(0.7, 0.5)",cs_neg_s_new,0,0,0,0,,,,,,,,,,,,,,,,,,,,,,,,,,,,,0,0,0,12,1,0,1,0,,,,,,,,,,,,,,,387,reward,,,,,,1425.4674350999994,1425.4674350999994,1425.4674350999994,1425.4674350999994,1,0.029631800018250942,0.029635700047947466,0,,,0,,,0,,,1425.4674350999994,1425.4674350999994,1425.4674350999994,1425.4674350999994,50,C,2024-05-22_15h23.54.522,attentional_competition_task,2022.2.4,144.0160607397374,
positions.xlsx,positions_test.xlsx,positions_test_new.xlsx,stimuli.xlsx,stimuli_new.xlsx,stimuli/Social3.png,stimuli/Social4.png,stimuli/Nonsocial3.png,stimuli/Nonsocial4.png,stimuli/Social1.png,stimuli/Social2.png,stimuli/Nonsocial1.png,stimuli/Nonsocial2.png,,,"(-0.7, -0.5)",cs_pos_s,"(-0.7, 0.5)",cs_pos_ns,"(0.7, -0.5)",cs_neg_ns,"(0.7, 0.5)",cs_neg_s_new,0,0,0,0,,,,,,,,,,,,,,,,,,,,,,,,,,,,,0,0,0,12,2,0,2,0,,,,,,,,,,,,,,,390,reward,,,,,,1425.9674509000033,1425.9674509000033,1425.9674509000033,1425.9674509000033,0,,,0,,,0,,,0,,,1426.9534971000394,1426.9534971000394,1426.9534971000394,1426.9534971000394,50,C,2024-05-22_15h23.54.522,attentional_competition_task,2022.2.4,144.0160607397374,
positions.xlsx,positions_test.xlsx,positions_test_new.xlsx,stimuli.xlsx,stimuli_new.xlsx,stimuli/Social3.png,stimuli/Social4.png,stimuli/Nonsocial3.png,stimuli/Nonsocial4.png,stimuli/Social1.png,stimuli/Social2.png,stimuli/Nonsocial1.png,stimuli/Nonsocial2.png,,,"(-0.7, -0.5)",cs_pos_s,"(-0.7, 0.5)",cs_pos_ns,"(0.7, -0.5)",cs_neg_ns,"(0.7, 0.5)",cs_neg_s_new,0,0,0,0,,,,,,,,,,,,,,,,,,,,,,,,,,,,,0,0,0,12,,,,,,,,,,,,,,,,,,,,,,,,,,,,,,,,,,,,,,,,,,,,,,50,C,2024-05-22_15h23.54.522,attentional_competition_task,2022.2.4,144.0160607397374,
positions.xlsx,positions_test.xlsx,positions_test_new.xlsx,stimuli.xlsx,stimuli_new.xlsx,stimuli/Social3.png,stimuli/Social4.png,stimuli/Nonsocial3.png,stimuli/Nonsocial4.png,stimuli/Social1.png,stimuli/Social2.png,stimuli/Nonsocial1.png,stimuli/Nonsocial2.png,,,"(-0.7, -0.5)",cs_pos_s,"(-0.7, 0.5)",cs_neg_ns,"(0.7, -0.5)",cs_neg_s,"(0.7, 0.5)",cs_pos_ns_new,0,0,0,0,,,,,,,,,,,,,,,,,,,,,,,,,,,,,0,1,1,42,0,0,0,0,,,,,,,,,,,,,,,393,reward,,,,,,1433.2310061000753,1433.2310061000753,1433.2310061000753,1433.2310061000753,1,0.6265915000112727,0.6265950000379235,0,,,0,,,0,,,1433.8629293000558,1433.8629293000558,1433.8629293000558,1433.8629293000558,50,C,2024-05-22_15h23.54.522,attentional_competition_task,2022.2.4,144.0160607397374,
positions.xlsx,positions_test.xlsx,positions_test_new.xlsx,stimuli.xlsx,stimuli_new.xlsx,stimuli/Social3.png,stimuli/Social4.png,stimuli/Nonsocial3.png,stimuli/Nonsocial4.png,stimuli/Social1.png,stimuli/Social2.png,stimuli/Nonsocial1.png,stimuli/Nonsocial2.png,,,"(-0.7, -0.5)",cs_pos_s,"(-0.7, 0.5)",cs_neg_ns,"(0.7, -0.5)",cs_neg_s,"(0.7, 0.5)",cs_pos_ns_new,0,0,0,0,,,,,,,,,,,,,,,,,,,,,,,,,,,,,0,1,1,42,1,0,1,0,,,,,,,,,,,,,,,396,reward,,,,,,1434.362888499978,1434.362888499978,1434.362888499978,1434.362888499978,1,0.028870300040580332,0.37777240003924817,0,,,0,,,0,,,1435.7448112000711,1435.7448112000711,1435.7448112000711,1435.7448112000711,50,C,2024-05-22_15h23.54.522,attentional_competition_task,2022.2.4,144.0160607397374,
positions.xlsx,positions_test.xlsx,positions_test_new.xlsx,stimuli.xlsx,stimuli_new.xlsx,stimuli/Social3.png,stimuli/Social4.png,stimuli/Nonsocial3.png,stimuli/Nonsocial4.png,stimuli/Social1.png,stimuli/Social2.png,stimuli/Nonsocial1.png,stimuli/Nonsocial2.png,,,"(-0.7, -0.5)",cs_pos_s,"(-0.7, 0.5)",cs_neg_ns,"(0.7, -0.5)",cs_neg_s,"(0.7, 0.5)",cs_pos_ns_new,0,0,0,0,,,,,,,,,,,,,,,,,,,,,,,,,,,,,0,1,1,42,,,,,,,,,,,,,,,,,,,,,,,,,,,,,,,,,,,,,,,,,,,,,,50,C,2024-05-22_15h23.54.522,attentional_competition_task,2022.2.4,144.0160607397374,
positions.xlsx,positions_test.xlsx,positions_test_new.xlsx,stimuli.xlsx,stimuli_new.xlsx,stimuli/Social3.png,stimuli/Social4.png,stimuli/Nonsocial3.png,stimuli/Nonsocial4.png,stimuli/Social1.png,stimuli/Social2.png,stimuli/Nonsocial1.png,stimuli/Nonsocial2.png,,,"(-0.7, -0.5)",cs_pos_ns,"(-0.7, 0.5)",cs_pos_s,"(0.7, -0.5)",cs_neg_s_new,"(0.7, 0.5)",cs_neg_ns,0,0,0,0,,,,,,,,,,,,,,,,,,,,,,,,,,,,,0,2,2,13,0,0,0,0,,,,,,,,,,,,,,,399,reward,,,,,,1441.94594720006,1441.94594720006,1441.94594720006,1441.94594720006,0,,,1,0.5928545000497252,0.5928581999614835,0,,,0,,,1442.5500828999793,1442.5500828999793,1442.5500828999793,1442.5500828999793,50,C,2024-05-22_15h23.54.522,attentional_competition_task,2022.2.4,144.0160607397374,
positions.xlsx,positions_test.xlsx,positions_test_new.xlsx,stimuli.xlsx,stimuli_new.xlsx,stimuli/Social3.png,stimuli/Social4.png,stimuli/Nonsocial3.png,stimuli/Nonsocial4.png,stimuli/Social1.png,stimuli/Social2.png,stimuli/Nonsocial1.png,stimuli/Nonsocial2.png,,,"(-0.7, -0.5)",cs_pos_ns,"(-0.7, 0.5)",cs_pos_s,"(0.7, -0.5)",cs_neg_s_new,"(0.7, 0.5)",cs_neg_ns,0,0,0,0,,,,,,,,,,,,,,,,,,,,,,,,,,,,,0,2,2,13,1,0,1,0,,,,,,,,,,,,,,,402,reward,,,,,,1443.0778215000173,1443.0778215000173,1443.0778215000173,1443.0778215000173,1,0.02885740005876869,0.02886139997281134,0,,,0,,,0,,,1443.0778215000173,1443.0778215000173,1443.0778215000173,1443.0778215000173,50,C,2024-05-22_15h23.54.522,attentional_competition_task,2022.2.4,144.0160607397374,
positions.xlsx,positions_test.xlsx,positions_test_new.xlsx,stimuli.xlsx,stimuli_new.xlsx,stimuli/Social3.png,stimuli/Social4.png,stimuli/Nonsocial3.png,stimuli/Nonsocial4.png,stimuli/Social1.png,stimuli/Social2.png,stimuli/Nonsocial1.png,stimuli/Nonsocial2.png,,,"(-0.7, -0.5)",cs_pos_ns,"(-0.7, 0.5)",cs_pos_s,"(0.7, -0.5)",cs_neg_s_new,"(0.7, 0.5)",cs_neg_ns,0,0,0,0,,,,,,,,,,,,,,,,,,,,,,,,,,,,,0,2,2,13,2,0,2,0,,,,,,,,,,,,,,,405,reward,,,,,,1443.584743399988,1443.584743399988,1443.584743399988,1443.584743399988,1,0.023594300029799342,0.3783711999421939,0,,,0,,,0,,,1444.4666871000081,1444.4666871000081,1444.4666871000081,1444.4666871000081,50,C,2024-05-22_15h23.54.522,attentional_competition_task,2022.2.4,144.0160607397374,
positions.xlsx,positions_test.xlsx,positions_test_new.xlsx,stimuli.xlsx,stimuli_new.xlsx,stimuli/Social3.png,stimuli/Social4.png,stimuli/Nonsocial3.png,stimuli/Nonsocial4.png,stimuli/Social1.png,stimuli/Social2.png,stimuli/Nonsocial1.png,stimuli/Nonsocial2.png,,,"(-0.7, -0.5)",cs_pos_ns,"(-0.7, 0.5)",cs_pos_s,"(0.7, -0.5)",cs_neg_s_new,"(0.7, 0.5)",cs_neg_ns,0,0,0,0,,,,,,,,,,,,,,,,,,,,,,,,,,,,,0,2,2,13,,,,,,,,,,,,,,,,,,,,,,,,,,,,,,,,,,,,,,,,,,,,,,50,C,2024-05-22_15h23.54.522,attentional_competition_task,2022.2.4,144.0160607397374,
positions.xlsx,positions_test.xlsx,positions_test_new.xlsx,stimuli.xlsx,stimuli_new.xlsx,stimuli/Social3.png,stimuli/Social4.png,stimuli/Nonsocial3.png,stimuli/Nonsocial4.png,stimuli/Social1.png,stimuli/Social2.png,stimuli/Nonsocial1.png,stimuli/Nonsocial2.png,,,"(-0.7, -0.5)",cs_neg_s,"(-0.7, 0.5)",cs_pos_s_new,"(0.7, -0.5)",cs_neg_ns,"(0.7, 0.5)",cs_pos_ns,0,0,0,0,,,,,,,,,,,,,,,,,,,,,,,,,,,,,0,3,3,28,0,0,0,0,,,,,,,,,,,,,,,408,reward,,,,,,1450.4872692000354,1450.4872692000354,1450.4872692000354,1450.4872692000354,0,,,0,,,0,,,1,1.2176155999768525,1.2176196000073105,1451.7094167000614,1451.7094167000614,1451.7094167000614,1451.7094167000614,50,C,2024-05-22_15h23.54.522,attentional_competition_task,2022.2.4,144.0160607397374,
positions.xlsx,positions_test.xlsx,positions_test_new.xlsx,stimuli.xlsx,stimuli_new.xlsx,stimuli/Social3.png,stimuli/Social4.png,stimuli/Nonsocial3.png,stimuli/Nonsocial4.png,stimuli/Social1.png,stimuli/Social2.png,stimuli/Nonsocial1.png,stimuli/Nonsocial2.png,,,"(-0.7, -0.5)",cs_neg_s,"(-0.7, 0.5)",cs_pos_s_new,"(0.7, -0.5)",cs_neg_ns,"(0.7, 0.5)",cs_pos_ns,0,0,0,0,,,,,,,,,,,,,,,,,,,,,,,,,,,,,0,3,3,28,1,0,1,0,,,,,,,,,,,,,,,405,loss,,,,,,1452.2372159999795,1452.2372159999795,1452.2372159999795,1452.2372159999795,0,,,0,,,1,0.0290779999922961,0.029081800021231174,0,,,1452.2372159999795,1452.2372159999795,1452.2372159999795,1452.2372159999795,50,C,2024-05-22_15h23.54.522,attentional_competition_task,2022.2.4,144.0160607397374,
positions.xlsx,positions_test.xlsx,positions_test_new.xlsx,stimuli.xlsx,stimuli_new.xlsx,stimuli/Social3.png,stimuli/Social4.png,stimuli/Nonsocial3.png,stimuli/Nonsocial4.png,stimuli/Social1.png,stimuli/Social2.png,stimuli/Nonsocial1.png,stimuli/Nonsocial2.png,,,"(-0.7, -0.5)",cs_neg_s,"(-0.7, 0.5)",cs_pos_s_new,"(0.7, -0.5)",cs_neg_ns,"(0.7, 0.5)",cs_pos_ns,0,0,0,0,,,,,,,,,,,,,,,,,,,,,,,,,,,,,0,3,3,28,,,,,,,,,,,,,,,,,,,,,,,,,,,,,,,,,,,,,,,,,,,,,,50,C,2024-05-22_15h23.54.522,attentional_competition_task,2022.2.4,144.0160607397374,
positions.xlsx,positions_test.xlsx,positions_test_new.xlsx,stimuli.xlsx,stimuli_new.xlsx,stimuli/Social3.png,stimuli/Social4.png,stimuli/Nonsocial3.png,stimuli/Nonsocial4.png,stimuli/Social1.png,stimuli/Social2.png,stimuli/Nonsocial1.png,stimuli/Nonsocial2.png,,,"(-0.7, -0.5)",cs_pos_ns,"(-0.7, 0.5)",cs_neg_s,"(0.7, -0.5)",cs_neg_ns,"(0.7, 0.5)",cs_pos_s,0,0,0,0,,,,,,,,,,,,,,,,,,,,,,,,,,,,,0,4,4,3,0,0,0,0,,,,,,,,,,,,,,,408,reward,,,,,,1459.3063389000017,1459.3063389000017,1459.3063389000017,1459.3063389000017,0,,,0,,,0,,,1,0.7520055000204593,0.7520095000509173,1460.063305900083,1460.063305900083,1460.063305900083,1460.063305900083,50,C,2024-05-22_15h23.54.522,attentional_competition_task,2022.2.4,144.0160607397374,
positions.xlsx,positions_test.xlsx,positions_test_new.xlsx,stimuli.xlsx,stimuli_new.xlsx,stimuli/Social3.png,stimuli/Social4.png,stimuli/Nonsocial3.png,stimuli/Nonsocial4.png,stimuli/Social1.png,stimuli/Social2.png,stimuli/Nonsocial1.png,stimuli/Nonsocial2.png,,,"(-0.7, -0.5)",cs_pos_ns,"(-0.7, 0.5)",cs_neg_s,"(0.7, -0.5)",cs_neg_ns,"(0.7, 0.5)",cs_pos_s,0,0,0,0,,,,,,,,,,,,,,,,,,,,,,,,,,,,,0,4,4,3,1,0,1,0,,,,,,,,,,,,,,,411,reward,,,,,,1460.5910108999815,1460.5910108999815,1460.5910108999815,1460.5910108999815,1,0.022101599955931306,0.022104999981820583,0,,,0,,,0,,,1460.5910108999815,1460.5910108999815,1460.5910108999815,1460.5910108999815,50,C,2024-05-22_15h23.54.522,attentional_competition_task,2022.2.4,144.0160607397374,
positions.xlsx,positions_test.xlsx,positions_test_new.xlsx,stimuli.xlsx,stimuli_new.xlsx,stimuli/Social3.png,stimuli/Social4.png,stimuli/Nonsocial3.png,stimuli/Nonsocial4.png,stimuli/Social1.png,stimuli/Social2.png,stimuli/Nonsocial1.png,stimuli/Nonsocial2.png,,,"(-0.7, -0.5)",cs_pos_ns,"(-0.7, 0.5)",cs_neg_s,"(0.7, -0.5)",cs_neg_ns,"(0.7, 0.5)",cs_pos_s,0,0,0,0,,,,,,,,,,,,,,,,,,,,,,,,,,,,,0,4,4,3,2,0,2,0,,,,,,,,,,,,,,,414,reward,,,,,,1461.0840666000731,1461.0840666000731,1461.0840666000731,1461.0840666000731,1,0.02345110010355711,0.05201800004579127,0,,,0,,,0,,,1461.820169200073,1461.820169200073,1461.820169200073,1461.820169200073,50,C,2024-05-22_15h23.54.522,attentional_competition_task,2022.2.4,144.0160607397374,
positions.xlsx,positions_test.xlsx,positions_test_new.xlsx,stimuli.xlsx,stimuli_new.xlsx,stimuli/Social3.png,stimuli/Social4.png,stimuli/Nonsocial3.png,stimuli/Nonsocial4.png,stimuli/Social1.png,stimuli/Social2.png,stimuli/Nonsocial1.png,stimuli/Nonsocial2.png,,,"(-0.7, -0.5)",cs_pos_ns,"(-0.7, 0.5)",cs_neg_s,"(0.7, -0.5)",cs_neg_ns,"(0.7, 0.5)",cs_pos_s,0,0,0,0,,,,,,,,,,,,,,,,,,,,,,,,,,,,,0,4,4,3,,,,,,,,,,,,,,,,,,,,,,,,,,,,,,,,,,,,,,,,,,,,,,50,C,2024-05-22_15h23.54.522,attentional_competition_task,2022.2.4,144.0160607397374,
positions.xlsx,positions_test.xlsx,positions_test_new.xlsx,stimuli.xlsx,stimuli_new.xlsx,stimuli/Social3.png,stimuli/Social4.png,stimuli/Nonsocial3.png,stimuli/Nonsocial4.png,stimuli/Social1.png,stimuli/Social2.png,stimuli/Nonsocial1.png,stimuli/Nonsocial2.png,,,"(-0.7, -0.5)",cs_neg_s,"(-0.7, 0.5)",cs_neg_ns,"(0.7, -0.5)",cs_pos_s,"(0.7, 0.5)",cs_pos_ns_new,0,0,0,0,,,,,,,,,,,,,,,,,,,,,,,,,,,,,0,5,5,45,0,0,0,0,,,,,,,,,,,,,,,417,reward,,,,,,1467.8615713000763,1467.8615713000763,1467.8615713000763,1467.8615713000763,0,,,0,,,0,,,1,0.5793421999551356,0.579346299986355,1468.4449103000807,1468.4449103000807,1468.4449103000807,1468.4449103000807,50,C,2024-05-22_15h23.54.522,attentional_competition_task,2022.2.4,144.0160607397374,
positions.xlsx,positions_test.xlsx,positions_test_new.xlsx,stimuli.xlsx,stimuli_new.xlsx,stimuli/Social3.png,stimuli/Social4.png,stimuli/Nonsocial3.png,stimuli/Nonsocial4.png,stimuli/Social1.png,stimuli/Social2.png,stimuli/Nonsocial1.png,stimuli/Nonsocial2.png,,,"(-0.7, -0.5)",cs_neg_s,"(-0.7, 0.5)",cs_neg_ns,"(0.7, -0.5)",cs_pos_s,"(0.7, 0.5)",cs_pos_ns_new,0,0,0,0,,,,,,,,,,,,,,,,,,,,,,,,,,,,,0,5,5,45,1,0,1,0,,,,,,,,,,,,,,,420,reward,,,,,,1468.9795695000794,1468.9795695000794,1468.9795695000794,1468.9795695000794,0,,,0,,,1,0.030239999992772937,0.030243600020185113,0,,,1468.9795695000794,1468.9795695000794,1468.9795695000794,1468.9795695000794,50,C,2024-05-22_15h23.54.522,attentional_competition_task,2022.2.4,144.0160607397374,
positions.xlsx,positions_test.xlsx,positions_test_new.xlsx,stimuli.xlsx,stimuli_new.xlsx,stimuli/Social3.png,stimuli/Social4.png,stimuli/Nonsocial3.png,stimuli/Nonsocial4.png,stimuli/Social1.png,stimuli/Social2.png,stimuli/Nonsocial1.png,stimuli/Nonsocial2.png,,,"(-0.7, -0.5)",cs_neg_s,"(-0.7, 0.5)",cs_neg_ns,"(0.7, -0.5)",cs_pos_s,"(0.7, 0.5)",cs_pos_ns_new,0,0,0,0,,,,,,,,,,,,,,,,,,,,,,,,,,,,,0,5,5,45,2,0,2,0,,,,,,,,,,,,,,,423,reward,,,,,,1469.486497899983,1469.486497899983,1469.486497899983,1469.486497899983,0,,,0,,,1,0.03112409997265786,0.05838669999502599,0,,,1470.375379199977,1470.375379199977,1470.375379199977,1470.375379199977,50,C,2024-05-22_15h23.54.522,attentional_competition_task,2022.2.4,144.0160607397374,
positions.xlsx,positions_test.xlsx,positions_test_new.xlsx,stimuli.xlsx,stimuli_new.xlsx,stimuli/Social3.png,stimuli/Social4.png,stimuli/Nonsocial3.png,stimuli/Nonsocial4.png,stimuli/Social1.png,stimuli/Social2.png,stimuli/Nonsocial1.png,stimuli/Nonsocial2.png,,,"(-0.7, -0.5)",cs_neg_s,"(-0.7, 0.5)",cs_neg_ns,"(0.7, -0.5)",cs_pos_s,"(0.7, 0.5)",cs_pos_ns_new,0,0,0,0,,,,,,,,,,,,,,,,,,,,,,,,,,,,,0,5,5,45,,,,,,,,,,,,,,,,,,,,,,,,,,,,,,,,,,,,,,,,,,,,,,50,C,2024-05-22_15h23.54.522,attentional_competition_task,2022.2.4,144.0160607397374,
positions.xlsx,positions_test.xlsx,positions_test_new.xlsx,stimuli.xlsx,stimuli_new.xlsx,stimuli/Social3.png,stimuli/Social4.png,stimuli/Nonsocial3.png,stimuli/Nonsocial4.png,stimuli/Social1.png,stimuli/Social2.png,stimuli/Nonsocial1.png,stimuli/Nonsocial2.png,,,"(-0.7, -0.5)",cs_neg_ns,"(-0.7, 0.5)",cs_pos_s,"(0.7, -0.5)",cs_pos_ns,"(0.7, 0.5)",cs_neg_s_new,0,0,0,0,,,,,,,,,,,,,,,,,,,,,,,,,,,,,0,6,6,11,0,0,0,0,,,,,,,,,,,,,,,420,loss,,,,,,1476.5348491000477,1476.5348491000477,1476.5348491000477,1476.5348491000477,1,0.6413498000474647,0.6413531000725925,0,,,0,,,0,,,1477.1875922000036,1477.1875922000036,1477.1875922000036,1477.1875922000036,50,C,2024-05-22_15h23.54.522,attentional_competition_task,2022.2.4,144.0160607397374,
positions.xlsx,positions_test.xlsx,positions_test_new.xlsx,stimuli.xlsx,stimuli_new.xlsx,stimuli/Social3.png,stimuli/Social4.png,stimuli/Nonsocial3.png,stimuli/Nonsocial4.png,stimuli/Social1.png,stimuli/Social2.png,stimuli/Nonsocial1.png,stimuli/Nonsocial2.png,,,"(-0.7, -0.5)",cs_neg_ns,"(-0.7, 0.5)",cs_pos_s,"(0.7, -0.5)",cs_pos_ns,"(0.7, 0.5)",cs_neg_s_new,0,0,0,0,,,,,,,,,,,,,,,,,,,,,,,,,,,,,0,6,6,11,1,0,1,0,,,,,,,,,,,,,,,423,reward,,,,,,1477.7223028000444,1477.7223028000444,1477.7223028000444,1477.7223028000444,0,,,1,0.028819500003010035,0.02882300002966076,0,,,0,,,1477.7223028000444,1477.7223028000444,1477.7223028000444,1477.7223028000444,50,C,2024-05-22_15h23.54.522,attentional_competition_task,2022.2.4,144.0160607397374,
positions.xlsx,positions_test.xlsx,positions_test_new.xlsx,stimuli.xlsx,stimuli_new.xlsx,stimuli/Social3.png,stimuli/Social4.png,stimuli/Nonsocial3.png,stimuli/Nonsocial4.png,stimuli/Social1.png,stimuli/Social2.png,stimuli/Nonsocial1.png,stimuli/Nonsocial2.png,,,"(-0.7, -0.5)",cs_neg_ns,"(-0.7, 0.5)",cs_pos_s,"(0.7, -0.5)",cs_pos_ns,"(0.7, 0.5)",cs_neg_s_new,0,0,0,0,,,,,,,,,,,,,,,,,,,,,,,,,,,,,0,6,6,11,2,0,2,0,,,,,,,,,,,,,,,426,reward,,,,,,1478.2430937000317,1478.2430937000317,1478.2430937000317,1478.2430937000317,0,,,0,,,1,0.022919500013813376,0.022923100041225553,0,,,1478.2430937000317,1478.2430937000317,1478.2430937000317,1478.2430937000317,50,C,2024-05-22_15h23.54.522,attentional_competition_task,2022.2.4,144.0160607397374,
positions.xlsx,positions_test.xlsx,positions_test_new.xlsx,stimuli.xlsx,stimuli_new.xlsx,stimuli/Social3.png,stimuli/Social4.png,stimuli/Nonsocial3.png,stimuli/Nonsocial4.png,stimuli/Social1.png,stimuli/Social2.png,stimuli/Nonsocial1.png,stimuli/Nonsocial2.png,,,"(-0.7, -0.5)",cs_neg_ns,"(-0.7, 0.5)",cs_pos_s,"(0.7, -0.5)",cs_pos_ns,"(0.7, 0.5)",cs_neg_s_new,0,0,0,0,,,,,,,,,,,,,,,,,,,,,,,,,,,,,0,6,6,11,,,,,,,,,,,,,,,,,,,,,,,,,,,,,,,,,,,,,,,,,,,,,,50,C,2024-05-22_15h23.54.522,attentional_competition_task,2022.2.4,144.0160607397374,
positions.xlsx,positions_test.xlsx,positions_test_new.xlsx,stimuli.xlsx,stimuli_new.xlsx,stimuli/Social3.png,stimuli/Social4.png,stimuli/Nonsocial3.png,stimuli/Nonsocial4.png,stimuli/Social1.png,stimuli/Social2.png,stimuli/Nonsocial1.png,stimuli/Nonsocial2.png,,,"(-0.7, -0.5)",cs_pos_s,"(-0.7, 0.5)",cs_neg_s,"(0.7, -0.5)",cs_pos_ns_new,"(0.7, 0.5)",cs_neg_ns,0,0,0,0,,,,,,,,,,,,,,,,,,,,,,,,,,,,,0,7,7,39,0,0,0,0,,,,,,,,,,,,,,,429,reward,,,,,,1484.9719909999985,1484.9719909999985,1484.9719909999985,1484.9719909999985,1,0.6897479000035673,0.6960015000076964,0,,,0,,,0,,,1485.6734144000802,1485.6734144000802,1485.6734144000802,1485.6734144000802,50,C,2024-05-22_15h23.54.522,attentional_competition_task,2022.2.4,144.0160607397374,
positions.xlsx,positions_test.xlsx,positions_test_new.xlsx,stimuli.xlsx,stimuli_new.xlsx,stimuli/Social3.png,stimuli/Social4.png,stimuli/Nonsocial3.png,stimuli/Nonsocial4.png,stimuli/Social1.png,stimuli/Social2.png,stimuli/Nonsocial1.png,stimuli/Nonsocial2.png,,,"(-0.7, -0.5)",cs_pos_s,"(-0.7, 0.5)",cs_neg_s,"(0.7, -0.5)",cs_pos_ns_new,"(0.7, 0.5)",cs_neg_ns,0,0,0,0,,,,,,,,,,,,,,,,,,,,,,,,,,,,,0,7,7,39,1,0,1,0,,,,,,,,,,,,,,,426,loss,,,,,,1486.1733461000258,1486.1733461000258,1486.1733461000258,1486.1733461000258,1,0.029331900062970817,0.22462220001034439,0,,,0,,,1,0.6349225000012666,0.6349262000294402,1486.8121678000316,1486.8121678000316,1486.8121678000316,1486.8121678000316,50,C,2024-05-22_15h23.54.522,attentional_competition_task,2022.2.4,144.0160607397374,
positions.xlsx,positions_test.xlsx,positions_test_new.xlsx,stimuli.xlsx,stimuli_new.xlsx,stimuli/Social3.png,stimuli/Social4.png,stimuli/Nonsocial3.png,stimuli/Nonsocial4.png,stimuli/Social1.png,stimuli/Social2.png,stimuli/Nonsocial1.png,stimuli/Nonsocial2.png,,,"(-0.7, -0.5)",cs_pos_s,"(-0.7, 0.5)",cs_neg_s,"(0.7, -0.5)",cs_pos_ns_new,"(0.7, 0.5)",cs_neg_ns,0,0,0,0,,,,,,,,,,,,,,,,,,,,,,,,,,,,,0,7,7,39,,,,,,,,,,,,,,,,,,,,,,,,,,,,,,,,,,,,,,,,,,,,,,50,C,2024-05-22_15h23.54.522,attentional_competition_task,2022.2.4,144.0160607397374,
positions.xlsx,positions_test.xlsx,positions_test_new.xlsx,stimuli.xlsx,stimuli_new.xlsx,stimuli/Social3.png,stimuli/Social4.png,stimuli/Nonsocial3.png,stimuli/Nonsocial4.png,stimuli/Social1.png,stimuli/Social2.png,stimuli/Nonsocial1.png,stimuli/Nonsocial2.png,,,"(-0.7, -0.5)",cs_pos_ns,"(-0.7, 0.5)",cs_pos_s,"(0.7, -0.5)",cs_neg_s,"(0.7, 0.5)",cs_neg_ns,0,0,0,0,,,,,,,,,,,,,,,,,,,,,,,,,,,,,0,8,8,2,0,0,0,0,,,,,,,,,,,,,,,429,reward,,,,,,1494.2354879999766,1494.2354879999766,1494.2354879999766,1494.2354879999766,0,,,1,0.7455958999926224,0.7455999999074265,0,,,0,,,1494.9855656999862,1494.9855656999862,1494.9855656999862,1494.9855656999862,50,C,2024-05-22_15h23.54.522,attentional_competition_task,2022.2.4,144.0160607397374,
positions.xlsx,positions_test.xlsx,positions_test_new.xlsx,stimuli.xlsx,stimuli_new.xlsx,stimuli/Social3.png,stimuli/Social4.png,stimuli/Nonsocial3.png,stimuli/Nonsocial4.png,stimuli/Social1.png,stimuli/Social2.png,stimuli/Nonsocial1.png,stimuli/Nonsocial2.png,,,"(-0.7, -0.5)",cs_pos_ns,"(-0.7, 0.5)",cs_pos_s,"(0.7, -0.5)",cs_neg_s,"(0.7, 0.5)",cs_neg_ns,0,0,0,0,,,,,,,,,,,,,,,,,,,,,,,,,,,,,0,8,8,2,1,0,1,0,,,,,,,,,,,,,,,432,reward,,,,,,1495.5202075000852,1495.5202075000852,1495.5202075000852,1495.5202075000852,1,0.028040100005455315,0.02804410003591329,0,,,0,,,0,,,1495.5202075000852,1495.5202075000852,1495.5202075000852,1495.5202075000852,50,C,2024-05-22_15h23.54.522,attentional_competition_task,2022.2.4,144.0160607397374,
positions.xlsx,positions_test.xlsx,positions_test_new.xlsx,stimuli.xlsx,stimuli_new.xlsx,stimuli/Social3.png,stimuli/Social4.png,stimuli/Nonsocial3.png,stimuli/Nonsocial4.png,stimuli/Social1.png,stimuli/Social2.png,stimuli/Nonsocial1.png,stimuli/Nonsocial2.png,,,"(-0.7, -0.5)",cs_pos_ns,"(-0.7, 0.5)",cs_pos_s,"(0.7, -0.5)",cs_neg_s,"(0.7, 0.5)",cs_neg_ns,0,0,0,0,,,,,,,,,,,,,,,,,,,,,,,,,,,,,0,8,8,2,2,0,2,0,,,,,,,,,,,,,,,435,reward,,,,,,1496.0132444000337,1496.0132444000337,1496.0132444000337,1496.0132444000337,0,,,0,,,0,,,0,,,1496.7493316000327,1496.7493316000327,1496.7493316000327,1496.7493316000327,50,C,2024-05-22_15h23.54.522,attentional_competition_task,2022.2.4,144.0160607397374,
