posFile,posFileTest,posFileTestNew,stimFile,stimFileNew,cs_neg_s,cs_pos_s,cs_neg_ns,cs_pos_ns,cs_neg_s_new,cs_pos_s_new,cs_neg_ns_new,cs_pos_ns_new,stim,position,position1,stim1,position2,stim2,position3,stim3,position4,stim4,blocks.thisRepN,blocks.thisTrialN,blocks.thisN,blocks.thisIndex,ratingtrials1.thisRepN,ratingtrials1.thisTrialN,ratingtrials1.thisN,ratingtrials1.thisIndex,search_task_trials.thisRepN,search_task_trials.thisTrialN,search_task_trials.thisN,search_task_trials.thisIndex,learning_trials.thisRepN,learning_trials.thisTrialN,learning_trials.thisN,learning_trials.thisIndex,trials.thisRepN,trials.thisTrialN,trials.thisN,trials.thisIndex,ratingtrials2.thisRepN,ratingtrials2.thisTrialN,ratingtrials2.thisN,ratingtrials2.thisIndex,testtrials.thisRepN,testtrials.thisTrialN,testtrials.thisN,testtrials.thisIndex,loop_test.thisRepN,loop_test.thisTrialN,loop_test.thisN,loop_test.thisIndex,testtrials_novelty.thisRepN,testtrials_novelty.thisTrialN,testtrials_novelty.thisN,testtrials_novelty.thisIndex,loop_test_novelty.thisRepN,loop_test_novelty.thisTrialN,loop_test_novelty.thisN,loop_test_novelty.thisIndex,ratingtrials3.thisRepN,ratingtrials3.thisTrialN,ratingtrials3.thisN,ratingtrials3.thisIndex,textStart.started,textStartExp.started,imageRating.started,sliderStim.response,sliderStim.rt,textStartSearch.started,target_positions,distractor_positions,textStartTask.started,image.started,score,outcome,roi.numLooks,roi.timesOn,roi.timesOff,imageFeedback.started,textTestInstr.started,test_image1.started,test_image2.started,test_image3.started,test_image4.started,test_roi1.numLooks,test_roi1.timesOn,test_roi1.timesOff,test_roi2.numLooks,test_roi2.timesOn,test_roi2.timesOff,test_roi3.numLooks,test_roi3.timesOn,test_roi3.timesOff,test_roi4.numLooks,test_roi4.timesOn,test_roi4.timesOff,test_image_feedback1.started,test_image_feedback2.started,test_iamge_feedback3.started,test_iamge_feedback4.started,participant,group,date,expName,psychopyVersion,frameRate,
positions.xlsx,positions_test.xlsx,positions_test_new.xlsx,stimuli.xlsx,stimuli_new.xlsx,stimuli/Social1.png,stimuli/Social2.png,stimuli/Nonsocial1.png,stimuli/Nonsocial2.png,stimuli/Social3.png,stimuli/Social4.png,stimuli/Nonsocial3.png,stimuli/Nonsocial4.png,cs_neg_s,,,,,,,,,,0,0,0,0,0,0,0,0,,,,,,,,,,,,,,,,,,,,,,,,,,,,,,,,,,,,,14.640234400052577,283.0716027999297,289.7804739000276,9.0,16.940832799766213,,,,,,,,,,,,,,,,,,,,,,,,,,,,,,,,,16,A,2024-04-23_14h35.20.098,attentional_competition_task,2022.2.4,144.0173044731411,
positions.xlsx,positions_test.xlsx,positions_test_new.xlsx,stimuli.xlsx,stimuli_new.xlsx,stimuli/Social1.png,stimuli/Social2.png,stimuli/Nonsocial1.png,stimuli/Nonsocial2.png,stimuli/Social3.png,stimuli/Social4.png,stimuli/Nonsocial3.png,stimuli/Nonsocial4.png,cs_pos_s,,,,,,,,,,0,0,0,0,0,1,1,2,,,,,,,,,,,,,,,,,,,,,,,,,,,,,,,,,,,,,,,307.4741722997278,8.0,5.0265989997424185,,,,,,,,,,,,,,,,,,,,,,,,,,,,,,,,,16,A,2024-04-23_14h35.20.098,attentional_competition_task,2022.2.4,144.0173044731411,
positions.xlsx,positions_test.xlsx,positions_test_new.xlsx,stimuli.xlsx,stimuli_new.xlsx,stimuli/Social1.png,stimuli/Social2.png,stimuli/Nonsocial1.png,stimuli/Nonsocial2.png,stimuli/Social3.png,stimuli/Social4.png,stimuli/Nonsocial3.png,stimuli/Nonsocial4.png,cs_pos_ns,,,,,,,,,,0,0,0,0,0,2,2,3,,,,,,,,,,,,,,,,,,,,,,,,,,,,,,,,,,,,,,,312.66144639998674,7.0,2.5445612999610603,,,,,,,,,,,,,,,,,,,,,,,,,,,,,,,,,16,A,2024-04-23_14h35.20.098,attentional_competition_task,2022.2.4,144.0173044731411,
positions.xlsx,positions_test.xlsx,positions_test_new.xlsx,stimuli.xlsx,stimuli_new.xlsx,stimuli/Social1.png,stimuli/Social2.png,stimuli/Nonsocial1.png,stimuli/Nonsocial2.png,stimuli/Social3.png,stimuli/Social4.png,stimuli/Nonsocial3.png,stimuli/Nonsocial4.png,cs_neg_ns,,,,,,,,,,0,0,0,0,0,3,3,1,,,,,,,,,,,,,,,,,,,,,,,,,,,,,,,,,,,,,,,315.38359660003334,7.0,2.2473607999272645,,,,,,,,,,,,,,,,,,,,,,,,,,,,,,,,,16,A,2024-04-23_14h35.20.098,attentional_competition_task,2022.2.4,144.0173044731411,
positions.xlsx,positions_test.xlsx,positions_test_new.xlsx,stimuli.xlsx,stimuli_new.xlsx,stimuli/Social1.png,stimuli/Social2.png,stimuli/Nonsocial1.png,stimuli/Nonsocial2.png,stimuli/Social3.png,stimuli/Social4.png,stimuli/Nonsocial3.png,stimuli/Nonsocial4.png,,,,,,,,,,,0,0,0,0,,,,,0,0,0,0,,,,,,,,,,,,,,,,,,,,,,,,,,,,,,,,,,,,,,317.77236439986154,"[[0.22499999999999998, -0.30000000000000004], [0.0, 0.19999999999999996], [0.6749999999999999, -0.30000000000000004], [-0.22499999999999998, -0.8], [0.45000000000000007, 0.7], [0.22499999999999998, -0.8], [-0.45, -0.30000000000000004], [-0.9, -0.30000000000000004], [0.9, 0.19999999999999996], [-0.675, -0.8], [-0.9, -0.8], [0.45000000000000007, 0.19999999999999996], [-0.22499999999999998, 0.19999999999999996], [0.22499999999999998, 0.19999999999999996], [0.9, -0.8]]","[[0.45000000000000007, -0.30000000000000004], [-0.675, 0.7], [-0.45, 0.19999999999999996], [-0.22499999999999998, -0.30000000000000004], [-0.675, -0.30000000000000004], [0.45000000000000007, -0.8], [-0.9, 0.19999999999999996], [0.22499999999999998, 0.7], [0.0, -0.8], [0.0, -0.30000000000000004], [0.6749999999999999, 0.7], [0.0, 0.7], [-0.22499999999999998, 0.7], [0.9, 0.7], [-0.675, 0.19999999999999996]]",,,,,,,,,,,,,,,,,,,,,,,,,,,,,,16,A,2024-04-23_14h35.20.098,attentional_competition_task,2022.2.4,144.0173044731411,
positions.xlsx,positions_test.xlsx,positions_test_new.xlsx,stimuli.xlsx,stimuli_new.xlsx,stimuli/Social1.png,stimuli/Social2.png,stimuli/Nonsocial1.png,stimuli/Nonsocial2.png,stimuli/Social3.png,stimuli/Social4.png,stimuli/Nonsocial3.png,stimuli/Nonsocial4.png,,,,,,,,,,,0,0,0,0,,,,,1,0,1,0,,,,,,,,,,,,,,,,,,,,,,,,,,,,,,,,,,,,,,,"[[0.45000000000000007, -0.8], [-0.22499999999999998, -0.8], [0.22499999999999998, -0.30000000000000004], [-0.675, -0.30000000000000004], [-0.675, 0.7], [0.6749999999999999, 0.7], [-0.22499999999999998, 0.19999999999999996], [0.9, -0.8], [-0.45, -0.8], [0.45000000000000007, -0.30000000000000004], [-0.9, -0.30000000000000004], [0.22499999999999998, 0.7], [0.0, 0.19999999999999996], [0.6749999999999999, -0.8], [0.9, 0.7]]","[[0.0, -0.8], [-0.675, 0.19999999999999996], [0.45000000000000007, 0.19999999999999996], [-0.45, -0.30000000000000004], [0.0, -0.30000000000000004], [-0.9, 0.7], [-0.675, -0.8], [-0.45, 0.7], [0.6749999999999999, -0.30000000000000004], [0.9, 0.19999999999999996], [-0.22499999999999998, 0.7], [-0.45, 0.19999999999999996], [0.22499999999999998, 0.19999999999999996], [0.6749999999999999, 0.19999999999999996], [0.45000000000000007, 0.7]]",,,,,,,,,,,,,,,,,,,,,,,,,,,,,,16,A,2024-04-23_14h35.20.098,attentional_competition_task,2022.2.4,144.0173044731411,
positions.xlsx,positions_test.xlsx,positions_test_new.xlsx,stimuli.xlsx,stimuli_new.xlsx,stimuli/Social1.png,stimuli/Social2.png,stimuli/Nonsocial1.png,stimuli/Nonsocial2.png,stimuli/Social3.png,stimuli/Social4.png,stimuli/Nonsocial3.png,stimuli/Nonsocial4.png,cs_neg_s,"(0.7, -0.5)",,,,,,,,,0,0,0,0,,,,,,,,,0,0,0,3,,,,,,,,,,,,,,,,,,,,,,,,,,,,,,,,,,,,,397.6787954000756,413.90037899976596,-3,loss,1,1.313370699994266,1.3133761999197304,415.24056589975953,,,,,,,,,,,,,,,,,,,,,,16,A,2024-04-23_14h35.20.098,attentional_competition_task,2022.2.4,144.0173044731411,
positions.xlsx,positions_test.xlsx,positions_test_new.xlsx,stimuli.xlsx,stimuli_new.xlsx,stimuli/Social1.png,stimuli/Social2.png,stimuli/Nonsocial1.png,stimuli/Nonsocial2.png,stimuli/Social3.png,stimuli/Social4.png,stimuli/Nonsocial3.png,stimuli/Nonsocial4.png,cs_pos_ns,"(-0.7, 0.5)",,,,,,,,,0,0,0,0,,,,,,,,,0,1,1,12,,,,,,,,,,,,,,,,,,,,,,,,,,,,,,,,,,,,,,422.7472188998945,-3,none,0,,,425.7679280997254,,,,,,,,,,,,,,,,,,,,,,16,A,2024-04-23_14h35.20.098,attentional_competition_task,2022.2.4,144.0173044731411,
positions.xlsx,positions_test.xlsx,positions_test_new.xlsx,stimuli.xlsx,stimuli_new.xlsx,stimuli/Social1.png,stimuli/Social2.png,stimuli/Nonsocial1.png,stimuli/Nonsocial2.png,stimuli/Social3.png,stimuli/Social4.png,stimuli/Nonsocial3.png,stimuli/Nonsocial4.png,cs_pos_s,"(0.7, -0.5)",,,,,,,,,0,0,0,0,,,,,,,,,0,2,2,7,,,,,,,,,,,,,,,,,,,,,,,,,,,,,,,,,,,,,,432.89262219984084,-3,none,0,,,435.89945819973946,,,,,,,,,,,,,,,,,,,,,,16,A,2024-04-23_14h35.20.098,attentional_competition_task,2022.2.4,144.0173044731411,
positions.xlsx,positions_test.xlsx,positions_test_new.xlsx,stimuli.xlsx,stimuli_new.xlsx,stimuli/Social1.png,stimuli/Social2.png,stimuli/Nonsocial1.png,stimuli/Nonsocial2.png,stimuli/Social3.png,stimuli/Social4.png,stimuli/Nonsocial3.png,stimuli/Nonsocial4.png,cs_pos_s,"(0.7, 0.5)",,,,,,,,,0,0,0,0,,,,,,,,,0,3,3,6,,,,,,,,,,,,,,,,,,,,,,,,,,,,,,,,,,,,,,443.80190309975296,0,reward,1,0.42396469973027706,0.42396820010617375,444.23940979968756,,,,,,,,,,,,,,,,,,,,,,16,A,2024-04-23_14h35.20.098,attentional_competition_task,2022.2.4,144.0173044731411,
positions.xlsx,positions_test.xlsx,positions_test_new.xlsx,stimuli.xlsx,stimuli_new.xlsx,stimuli/Social1.png,stimuli/Social2.png,stimuli/Nonsocial1.png,stimuli/Nonsocial2.png,stimuli/Social3.png,stimuli/Social4.png,stimuli/Nonsocial3.png,stimuli/Nonsocial4.png,cs_pos_s,"(-0.7, 0.5)",,,,,,,,,0,0,0,0,,,,,,,,,0,4,4,4,,,,,,,,,,,,,,,,,,,,,,,,,,,,,,,,,,,,,,451.8848983999342,3,reward,1,0.3197057000361383,0.3197093000635505,452.21130109997466,,,,,,,,,,,,,,,,,,,,,,16,A,2024-04-23_14h35.20.098,attentional_competition_task,2022.2.4,144.0173044731411,
positions.xlsx,positions_test.xlsx,positions_test_new.xlsx,stimuli.xlsx,stimuli_new.xlsx,stimuli/Social1.png,stimuli/Social2.png,stimuli/Nonsocial1.png,stimuli/Nonsocial2.png,stimuli/Social3.png,stimuli/Social4.png,stimuli/Nonsocial3.png,stimuli/Nonsocial4.png,cs_neg_ns,"(-0.7, -0.5)",,,,,,,,,0,0,0,0,,,,,,,,,0,5,5,9,,,,,,,,,,,,,,,,,,,,,,,,,,,,,,,,,,,,,,459.3429350000806,0,loss,1,0.45899710012599826,0.45900060003623366,459.8082187999971,,,,,,,,,,,,,,,,,,,,,,16,A,2024-04-23_14h35.20.098,attentional_competition_task,2022.2.4,144.0173044731411,
positions.xlsx,positions_test.xlsx,positions_test_new.xlsx,stimuli.xlsx,stimuli_new.xlsx,stimuli/Social1.png,stimuli/Social2.png,stimuli/Nonsocial1.png,stimuli/Nonsocial2.png,stimuli/Social3.png,stimuli/Social4.png,stimuli/Nonsocial3.png,stimuli/Nonsocial4.png,cs_neg_s,"(-0.7, 0.5)",,,,,,,,,0,0,0,0,,,,,,,,,0,6,6,0,,,,,,,,,,,,,,,,,,,,,,,,,,,,,,,,,,,,,,467.0856820996851,-3,loss,1,0.25029929960146546,0.25030319998040795,467.34266480011865,,,,,,,,,,,,,,,,,,,,,,16,A,2024-04-23_14h35.20.098,attentional_competition_task,2022.2.4,144.0173044731411,
positions.xlsx,positions_test.xlsx,positions_test_new.xlsx,stimuli.xlsx,stimuli_new.xlsx,stimuli/Social1.png,stimuli/Social2.png,stimuli/Nonsocial1.png,stimuli/Nonsocial2.png,stimuli/Social3.png,stimuli/Social4.png,stimuli/Nonsocial3.png,stimuli/Nonsocial4.png,cs_pos_s,"(-0.7, -0.5)",,,,,,,,,0,0,0,0,,,,,,,,,0,7,7,5,,,,,,,,,,,,,,,,,,,,,,,,,,,,,,,,,,,,,,474.6201218999922,0,reward,1,0.4168819999322295,0.41688580019399524,475.0437424001284,,,,,,,,,,,,,,,,,,,,,,16,A,2024-04-23_14h35.20.098,attentional_competition_task,2022.2.4,144.0173044731411,
positions.xlsx,positions_test.xlsx,positions_test_new.xlsx,stimuli.xlsx,stimuli_new.xlsx,stimuli/Social1.png,stimuli/Social2.png,stimuli/Nonsocial1.png,stimuli/Nonsocial2.png,stimuli/Social3.png,stimuli/Social4.png,stimuli/Nonsocial3.png,stimuli/Nonsocial4.png,cs_neg_ns,"(0.7, 0.5)",,,,,,,,,0,0,0,0,,,,,,,,,0,8,8,10,,,,,,,,,,,,,,,,,,,,,,,,,,,,,,,,,,,,,,482.7795055001043,-3,loss,1,0.2502116998657584,0.25021509965881705,483.0364381996915,,,,,,,,,,,,,,,,,,,,,,16,A,2024-04-23_14h35.20.098,attentional_competition_task,2022.2.4,144.0173044731411,
positions.xlsx,positions_test.xlsx,positions_test_new.xlsx,stimuli.xlsx,stimuli_new.xlsx,stimuli/Social1.png,stimuli/Social2.png,stimuli/Nonsocial1.png,stimuli/Nonsocial2.png,stimuli/Social3.png,stimuli/Social4.png,stimuli/Nonsocial3.png,stimuli/Nonsocial4.png,cs_neg_ns,"(0.7, -0.5)",,,,,,,,,0,0,0,0,,,,,,,,,0,9,9,11,,,,,,,,,,,,,,,,,,,,,,,,,,,,,,,,,,,,,,490.66125669982284,-6,loss,1,0.4099997002631426,0.41000340040773153,491.0777839999646,,,,,,,,,,,,,,,,,,,,,,16,A,2024-04-23_14h35.20.098,attentional_competition_task,2022.2.4,144.0173044731411,
positions.xlsx,positions_test.xlsx,positions_test_new.xlsx,stimuli.xlsx,stimuli_new.xlsx,stimuli/Social1.png,stimuli/Social2.png,stimuli/Nonsocial1.png,stimuli/Nonsocial2.png,stimuli/Social3.png,stimuli/Social4.png,stimuli/Nonsocial3.png,stimuli/Nonsocial4.png,cs_pos_ns,"(-0.7, -0.5)",,,,,,,,,0,0,0,0,,,,,,,,,0,10,10,13,,,,,,,,,,,,,,,,,,,,,,,,,,,,,,,,,,,,,,498.7718760999851,-3,reward,1,0.5907586999237537,0.5907622999511659,499.3691552998498,,,,,,,,,,,,,,,,,,,,,,16,A,2024-04-23_14h35.20.098,attentional_competition_task,2022.2.4,144.0173044731411,
positions.xlsx,positions_test.xlsx,positions_test_new.xlsx,stimuli.xlsx,stimuli_new.xlsx,stimuli/Social1.png,stimuli/Social2.png,stimuli/Nonsocial1.png,stimuli/Nonsocial2.png,stimuli/Social3.png,stimuli/Social4.png,stimuli/Nonsocial3.png,stimuli/Nonsocial4.png,cs_neg_s,"(0.7, 0.5)",,,,,,,,,0,0,0,0,,,,,,,,,0,11,11,2,,,,,,,,,,,,,,,,,,,,,,,,,,,,,,,,,,,,,,506.7021367996931,-6,loss,1,0.45129150012508035,0.4512951001524925,507.16045570001006,,,,,,,,,,,,,,,,,,,,,,16,A,2024-04-23_14h35.20.098,attentional_competition_task,2022.2.4,144.0173044731411,
positions.xlsx,positions_test.xlsx,positions_test_new.xlsx,stimuli.xlsx,stimuli_new.xlsx,stimuli/Social1.png,stimuli/Social2.png,stimuli/Nonsocial1.png,stimuli/Nonsocial2.png,stimuli/Social3.png,stimuli/Social4.png,stimuli/Nonsocial3.png,stimuli/Nonsocial4.png,cs_neg_ns,"(-0.7, 0.5)",,,,,,,,,0,0,0,0,,,,,,,,,0,12,12,8,,,,,,,,,,,,,,,,,,,,,,,,,,,,,,,,,,,,,,514.576811700128,-6,none,0,,,517.5906010000035,,,,,,,,,,,,,,,,,,,,,,16,A,2024-04-23_14h35.20.098,attentional_competition_task,2022.2.4,144.0173044731411,
positions.xlsx,positions_test.xlsx,positions_test_new.xlsx,stimuli.xlsx,stimuli_new.xlsx,stimuli/Social1.png,stimuli/Social2.png,stimuli/Nonsocial1.png,stimuli/Nonsocial2.png,stimuli/Social3.png,stimuli/Social4.png,stimuli/Nonsocial3.png,stimuli/Nonsocial4.png,cs_pos_ns,"(0.7, 0.5)",,,,,,,,,0,0,0,0,,,,,,,,,0,13,13,14,,,,,,,,,,,,,,,,,,,,,,,,,,,,,,,,,,,,,,524.986111599952,-3,reward,1,2.1740680001676083,2.1740717999637127,527.166679199785,,,,,,,,,,,,,,,,,,,,,,16,A,2024-04-23_14h35.20.098,attentional_competition_task,2022.2.4,144.0173044731411,
positions.xlsx,positions_test.xlsx,positions_test_new.xlsx,stimuli.xlsx,stimuli_new.xlsx,stimuli/Social1.png,stimuli/Social2.png,stimuli/Nonsocial1.png,stimuli/Nonsocial2.png,stimuli/Social3.png,stimuli/Social4.png,stimuli/Nonsocial3.png,stimuli/Nonsocial4.png,cs_neg_s,"(-0.7, -0.5)",,,,,,,,,0,0,0,0,,,,,,,,,0,14,14,1,,,,,,,,,,,,,,,,,,,,,,,,,,,,,,,,,,,,,,534.9440130000003,-6,loss,1,0.4168999996036291,0.4169034999795258,535.3676819000393,,,,,,,,,,,,,,,,,,,,,,16,A,2024-04-23_14h35.20.098,attentional_competition_task,2022.2.4,144.0173044731411,
positions.xlsx,positions_test.xlsx,positions_test_new.xlsx,stimuli.xlsx,stimuli_new.xlsx,stimuli/Social1.png,stimuli/Social2.png,stimuli/Nonsocial1.png,stimuli/Nonsocial2.png,stimuli/Social3.png,stimuli/Social4.png,stimuli/Nonsocial3.png,stimuli/Nonsocial4.png,cs_pos_ns,"(0.7, -0.5)",,,,,,,,,0,0,0,0,,,,,,,,,0,15,15,15,,,,,,,,,,,,,,,,,,,,,,,,,,,,,,,,,,,,,,543.0895158001222,-3,reward,1,0.6045202999375761,0.604524000082165,543.7075803996995,,,,,,,,,,,,,,,,,,,,,,16,A,2024-04-23_14h35.20.098,attentional_competition_task,2022.2.4,144.0173044731411,
positions.xlsx,positions_test.xlsx,positions_test_new.xlsx,stimuli.xlsx,stimuli_new.xlsx,stimuli/Social1.png,stimuli/Social2.png,stimuli/Nonsocial1.png,stimuli/Nonsocial2.png,stimuli/Social3.png,stimuli/Social4.png,stimuli/Nonsocial3.png,stimuli/Nonsocial4.png,cs_pos_s,"(0.7, 0.5)",,,,,,,,,0,0,0,0,,,,,,,,,1,0,16,6,,,,,,,,,,,,,,,,,,,,,,,,,,,,,,,,,,,,,,550.9086388996802,0,reward,1,0.4723366000689566,0.47234040033072233,551.3878767997958,,,,,,,,,,,,,,,,,,,,,,16,A,2024-04-23_14h35.20.098,attentional_competition_task,2022.2.4,144.0173044731411,
positions.xlsx,positions_test.xlsx,positions_test_new.xlsx,stimuli.xlsx,stimuli_new.xlsx,stimuli/Social1.png,stimuli/Social2.png,stimuli/Nonsocial1.png,stimuli/Nonsocial2.png,stimuli/Social3.png,stimuli/Social4.png,stimuli/Nonsocial3.png,stimuli/Nonsocial4.png,cs_neg_s,"(0.7, 0.5)",,,,,,,,,0,0,0,0,,,,,,,,,1,1,17,2,,,,,,,,,,,,,,,,,,,,,,,,,,,,,,,,,,,,,,558.8597419001162,0,none,0,,,561.8665443998761,,,,,,,,,,,,,,,,,,,,,,16,A,2024-04-23_14h35.20.098,attentional_competition_task,2022.2.4,144.0173044731411,
positions.xlsx,positions_test.xlsx,positions_test_new.xlsx,stimuli.xlsx,stimuli_new.xlsx,stimuli/Social1.png,stimuli/Social2.png,stimuli/Nonsocial1.png,stimuli/Nonsocial2.png,stimuli/Social3.png,stimuli/Social4.png,stimuli/Nonsocial3.png,stimuli/Nonsocial4.png,cs_neg_ns,"(-0.7, 0.5)",,,,,,,,,0,0,0,0,,,,,,,,,1,2,18,8,,,,,,,,,,,,,,,,,,,,,,,,,,,,,,,,,,,,,,568.9357111998834,0,none,0,,,571.9494469999336,,,,,,,,,,,,,,,,,,,,,,16,A,2024-04-23_14h35.20.098,attentional_competition_task,2022.2.4,144.0173044731411,
positions.xlsx,positions_test.xlsx,positions_test_new.xlsx,stimuli.xlsx,stimuli_new.xlsx,stimuli/Social1.png,stimuli/Social2.png,stimuli/Nonsocial1.png,stimuli/Nonsocial2.png,stimuli/Social3.png,stimuli/Social4.png,stimuli/Nonsocial3.png,stimuli/Nonsocial4.png,cs_pos_ns,"(-0.7, 0.5)",,,,,,,,,0,0,0,0,,,,,,,,,1,3,19,12,,,,,,,,,,,,,,,,,,,,,,,,,,,,,,,,,,,,,,578.8519653999247,3,reward,1,2.062395699787885,2.062399399932474,580.9213084997609,,,,,,,,,,,,,,,,,,,,,,16,A,2024-04-23_14h35.20.098,attentional_competition_task,2022.2.4,144.0173044731411,
positions.xlsx,positions_test.xlsx,positions_test_new.xlsx,stimuli.xlsx,stimuli_new.xlsx,stimuli/Social1.png,stimuli/Social2.png,stimuli/Nonsocial1.png,stimuli/Nonsocial2.png,stimuli/Social3.png,stimuli/Social4.png,stimuli/Nonsocial3.png,stimuli/Nonsocial4.png,cs_neg_ns,"(-0.7, -0.5)",,,,,,,,,0,0,0,0,,,,,,,,,1,4,20,9,,,,,,,,,,,,,,,,,,,,,,,,,,,,,,,,,,,,,,588.1015984998085,3,none,0,,,591.1153922998346,,,,,,,,,,,,,,,,,,,,,,16,A,2024-04-23_14h35.20.098,attentional_competition_task,2022.2.4,144.0173044731411,
positions.xlsx,positions_test.xlsx,positions_test_new.xlsx,stimuli.xlsx,stimuli_new.xlsx,stimuli/Social1.png,stimuli/Social2.png,stimuli/Nonsocial1.png,stimuli/Nonsocial2.png,stimuli/Social3.png,stimuli/Social4.png,stimuli/Nonsocial3.png,stimuli/Nonsocial4.png,cs_neg_ns,"(0.7, -0.5)",,,,,,,,,0,0,0,0,,,,,,,,,1,5,21,11,,,,,,,,,,,,,,,,,,,,,,,,,,,,,,,,,,,,,,598.6844787998125,3,none,0,,,601.6912936000153,,,,,,,,,,,,,,,,,,,,,,16,A,2024-04-23_14h35.20.098,attentional_competition_task,2022.2.4,144.0173044731411,
positions.xlsx,positions_test.xlsx,positions_test_new.xlsx,stimuli.xlsx,stimuli_new.xlsx,stimuli/Social1.png,stimuli/Social2.png,stimuli/Nonsocial1.png,stimuli/Nonsocial2.png,stimuli/Social3.png,stimuli/Social4.png,stimuli/Nonsocial3.png,stimuli/Nonsocial4.png,cs_pos_ns,"(0.7, 0.5)",,,,,,,,,0,0,0,0,,,,,,,,,1,6,22,14,,,,,,,,,,,,,,,,,,,,,,,,,,,,,,,,,,,,,,608.9618584997952,6,reward,1,0.5904325996525586,0.5904361996799707,609.5590317999013,,,,,,,,,,,,,,,,,,,,,,16,A,2024-04-23_14h35.20.098,attentional_competition_task,2022.2.4,144.0173044731411,
positions.xlsx,positions_test.xlsx,positions_test_new.xlsx,stimuli.xlsx,stimuli_new.xlsx,stimuli/Social1.png,stimuli/Social2.png,stimuli/Nonsocial1.png,stimuli/Nonsocial2.png,stimuli/Social3.png,stimuli/Social4.png,stimuli/Nonsocial3.png,stimuli/Nonsocial4.png,cs_neg_s,"(-0.7, -0.5)",,,,,,,,,0,0,0,0,,,,,,,,,1,7,23,1,,,,,,,,,,,,,,,,,,,,,,,,,,,,,,,,,,,,,,617.6907110000029,3,loss,1,0.20826990017667413,0.20827360032126307,617.9059310997836,,,,,,,,,,,,,,,,,,,,,,16,A,2024-04-23_14h35.20.098,attentional_competition_task,2022.2.4,144.0173044731411,
positions.xlsx,positions_test.xlsx,positions_test_new.xlsx,stimuli.xlsx,stimuli_new.xlsx,stimuli/Social1.png,stimuli/Social2.png,stimuli/Nonsocial1.png,stimuli/Nonsocial2.png,stimuli/Social3.png,stimuli/Social4.png,stimuli/Nonsocial3.png,stimuli/Nonsocial4.png,cs_pos_ns,"(0.7, -0.5)",,,,,,,,,0,0,0,0,,,,,,,,,1,8,24,15,,,,,,,,,,,,,,,,,,,,,,,,,,,,,,,,,,,,,,626.2944664000534,6,reward,1,0.5557293999008834,0.5557328001596034,626.8569338996895,,,,,,,,,,,,,,,,,,,,,,16,A,2024-04-23_14h35.20.098,attentional_competition_task,2022.2.4,144.0173044731411,
positions.xlsx,positions_test.xlsx,positions_test_new.xlsx,stimuli.xlsx,stimuli_new.xlsx,stimuli/Social1.png,stimuli/Social2.png,stimuli/Nonsocial1.png,stimuli/Nonsocial2.png,stimuli/Social3.png,stimuli/Social4.png,stimuli/Nonsocial3.png,stimuli/Nonsocial4.png,cs_pos_s,"(-0.7, 0.5)",,,,,,,,,0,0,0,0,,,,,,,,,1,9,25,4,,,,,,,,,,,,,,,,,,,,,,,,,,,,,,,,,,,,,,634.5371837997809,9,reward,1,0.22934669954702258,0.22935059992596507,634.7732886997983,,,,,,,,,,,,,,,,,,,,,,16,A,2024-04-23_14h35.20.098,attentional_competition_task,2022.2.4,144.0173044731411,
positions.xlsx,positions_test.xlsx,positions_test_new.xlsx,stimuli.xlsx,stimuli_new.xlsx,stimuli/Social1.png,stimuli/Social2.png,stimuli/Nonsocial1.png,stimuli/Nonsocial2.png,stimuli/Social3.png,stimuli/Social4.png,stimuli/Nonsocial3.png,stimuli/Nonsocial4.png,cs_neg_s,"(0.7, -0.5)",,,,,,,,,0,0,0,0,,,,,,,,,1,10,26,3,,,,,,,,,,,,,,,,,,,,,,,,,,,,,,,,,,,,,,642.4743840000592,6,loss,1,0.3405319997109473,0.34053599974140525,642.8215684001334,,,,,,,,,,,,,,,,,,,,,,16,A,2024-04-23_14h35.20.098,attentional_competition_task,2022.2.4,144.0173044731411,
positions.xlsx,positions_test.xlsx,positions_test_new.xlsx,stimuli.xlsx,stimuli_new.xlsx,stimuli/Social1.png,stimuli/Social2.png,stimuli/Nonsocial1.png,stimuli/Nonsocial2.png,stimuli/Social3.png,stimuli/Social4.png,stimuli/Nonsocial3.png,stimuli/Nonsocial4.png,cs_neg_s,"(-0.7, 0.5)",,,,,,,,,0,0,0,0,,,,,,,,,1,11,27,0,,,,,,,,,,,,,,,,,,,,,,,,,,,,,,,,,,,,,,650.5435251998715,3,loss,1,0.47977539990097284,0.479778999928385,651.0296175000258,,,,,,,,,,,,,,,,,,,,,,16,A,2024-04-23_14h35.20.098,attentional_competition_task,2022.2.4,144.0173044731411,
positions.xlsx,positions_test.xlsx,positions_test_new.xlsx,stimuli.xlsx,stimuli_new.xlsx,stimuli/Social1.png,stimuli/Social2.png,stimuli/Nonsocial1.png,stimuli/Nonsocial2.png,stimuli/Social3.png,stimuli/Social4.png,stimuli/Nonsocial3.png,stimuli/Nonsocial4.png,cs_pos_ns,"(-0.7, -0.5)",,,,,,,,,0,0,0,0,,,,,,,,,1,12,28,13,,,,,,,,,,,,,,,,,,,,,,,,,,,,,,,,,,,,,,657.7099053999409,6,reward,1,0.6878592004068196,0.687863000202924,658.4042691998184,,,,,,,,,,,,,,,,,,,,,,16,A,2024-04-23_14h35.20.098,attentional_competition_task,2022.2.4,144.0173044731411,
positions.xlsx,positions_test.xlsx,positions_test_new.xlsx,stimuli.xlsx,stimuli_new.xlsx,stimuli/Social1.png,stimuli/Social2.png,stimuli/Nonsocial1.png,stimuli/Nonsocial2.png,stimuli/Social3.png,stimuli/Social4.png,stimuli/Nonsocial3.png,stimuli/Nonsocial4.png,cs_pos_s,"(-0.7, -0.5)",,,,,,,,,0,0,0,0,,,,,,,,,1,13,29,5,,,,,,,,,,,,,,,,,,,,,,,,,,,,,,,,,,,,,,665.5567680001259,9,reward,1,0.5975247002206743,0.5975283002480865,666.1608975999989,,,,,,,,,,,,,,,,,,,,,,16,A,2024-04-23_14h35.20.098,attentional_competition_task,2022.2.4,144.0173044731411,
positions.xlsx,positions_test.xlsx,positions_test_new.xlsx,stimuli.xlsx,stimuli_new.xlsx,stimuli/Social1.png,stimuli/Social2.png,stimuli/Nonsocial1.png,stimuli/Nonsocial2.png,stimuli/Social3.png,stimuli/Social4.png,stimuli/Nonsocial3.png,stimuli/Nonsocial4.png,cs_neg_ns,"(0.7, 0.5)",,,,,,,,,0,0,0,0,,,,,,,,,1,14,30,10,,,,,,,,,,,,,,,,,,,,,,,,,,,,,,,,,,,,,,673.4245186997578,9,none,0,,,676.4383243001066,,,,,,,,,,,,,,,,,,,,,,16,A,2024-04-23_14h35.20.098,attentional_competition_task,2022.2.4,144.0173044731411,
positions.xlsx,positions_test.xlsx,positions_test_new.xlsx,stimuli.xlsx,stimuli_new.xlsx,stimuli/Social1.png,stimuli/Social2.png,stimuli/Nonsocial1.png,stimuli/Nonsocial2.png,stimuli/Social3.png,stimuli/Social4.png,stimuli/Nonsocial3.png,stimuli/Nonsocial4.png,cs_pos_s,"(0.7, -0.5)",,,,,,,,,0,0,0,0,,,,,,,,,1,15,31,7,,,,,,,,,,,,,,,,,,,,,,,,,,,,,,,,,,,,,,683.7505024001002,12,reward,1,0.4516497999429703,0.4516536998562515,684.2088321996853,,,,,,,,,,,,,,,,,,,,,,16,A,2024-04-23_14h35.20.098,attentional_competition_task,2022.2.4,144.0173044731411,
positions.xlsx,positions_test.xlsx,positions_test_new.xlsx,stimuli.xlsx,stimuli_new.xlsx,stimuli/Social1.png,stimuli/Social2.png,stimuli/Nonsocial1.png,stimuli/Nonsocial2.png,stimuli/Social3.png,stimuli/Social4.png,stimuli/Nonsocial3.png,stimuli/Nonsocial4.png,cs_pos_ns,"(0.7, 0.5)",,,,,,,,,0,0,0,0,,,,,,,,,,,,,0,0,0,14,,,,,,,,,,,,,,,,,,,,,,,,,,,,,,,,,,706.652384699788,15,reward,1,0.5976320002228022,0.5976359001360834,707.2564500998706,,,,,,,,,,,,,,,,,,,,,,16,A,2024-04-23_14h35.20.098,attentional_competition_task,2022.2.4,144.0173044731411,
positions.xlsx,positions_test.xlsx,positions_test_new.xlsx,stimuli.xlsx,stimuli_new.xlsx,stimuli/Social1.png,stimuli/Social2.png,stimuli/Nonsocial1.png,stimuli/Nonsocial2.png,stimuli/Social3.png,stimuli/Social4.png,stimuli/Nonsocial3.png,stimuli/Nonsocial4.png,cs_pos_ns,"(-0.7, -0.5)",,,,,,,,,0,0,0,0,,,,,,,,,,,,,0,1,1,13,,,,,,,,,,,,,,,,,,,,,,,,,,,,,,,,,,714.6242581997067,18,reward,1,0.6387524995952845,0.6387560996226966,715.270103499759,,,,,,,,,,,,,,,,,,,,,,16,A,2024-04-23_14h35.20.098,attentional_competition_task,2022.2.4,144.0173044731411,
positions.xlsx,positions_test.xlsx,positions_test_new.xlsx,stimuli.xlsx,stimuli_new.xlsx,stimuli/Social1.png,stimuli/Social2.png,stimuli/Nonsocial1.png,stimuli/Nonsocial2.png,stimuli/Social3.png,stimuli/Social4.png,stimuli/Nonsocial3.png,stimuli/Nonsocial4.png,cs_pos_s,"(0.7, 0.5)",,,,,,,,,0,0,0,0,,,,,,,,,,,,,0,2,2,6,,,,,,,,,,,,,,,,,,,,,,,,,,,,,,,,,,722.033623999916,21,reward,1,0.4653174001723528,0.46532070031389594,722.5058661997318,,,,,,,,,,,,,,,,,,,,,,16,A,2024-04-23_14h35.20.098,attentional_competition_task,2022.2.4,144.0173044731411,
positions.xlsx,positions_test.xlsx,positions_test_new.xlsx,stimuli.xlsx,stimuli_new.xlsx,stimuli/Social1.png,stimuli/Social2.png,stimuli/Nonsocial1.png,stimuli/Nonsocial2.png,stimuli/Social3.png,stimuli/Social4.png,stimuli/Nonsocial3.png,stimuli/Nonsocial4.png,cs_pos_ns,"(0.7, -0.5)",,,,,,,,,0,0,0,0,,,,,,,,,,,,,0,3,3,15,,,,,,,,,,,,,,,,,,,,,,,,,,,,,,,,,,730.234681900125,24,reward,1,0.6600915999151766,0.660095099825412,730.901342399884,,,,,,,,,,,,,,,,,,,,,,16,A,2024-04-23_14h35.20.098,attentional_competition_task,2022.2.4,144.0173044731411,
positions.xlsx,positions_test.xlsx,positions_test_new.xlsx,stimuli.xlsx,stimuli_new.xlsx,stimuli/Social1.png,stimuli/Social2.png,stimuli/Nonsocial1.png,stimuli/Nonsocial2.png,stimuli/Social3.png,stimuli/Social4.png,stimuli/Nonsocial3.png,stimuli/Nonsocial4.png,cs_pos_ns,"(-0.7, 0.5)",,,,,,,,,0,0,0,0,,,,,,,,,,,,,0,4,4,12,,,,,,,,,,,,,,,,,,,,,,,,,,,,,,,,,,738.255210199859,27,reward,1,0.7371165002696216,0.737122000195086,739.0052144997753,,,,,,,,,,,,,,,,,,,,,,16,A,2024-04-23_14h35.20.098,attentional_competition_task,2022.2.4,144.0173044731411,
positions.xlsx,positions_test.xlsx,positions_test_new.xlsx,stimuli.xlsx,stimuli_new.xlsx,stimuli/Social1.png,stimuli/Social2.png,stimuli/Nonsocial1.png,stimuli/Nonsocial2.png,stimuli/Social3.png,stimuli/Social4.png,stimuli/Nonsocial3.png,stimuli/Nonsocial4.png,cs_neg_ns,"(-0.7, 0.5)",,,,,,,,,0,0,0,0,,,,,,,,,,,,,0,5,5,8,,,,,,,,,,,,,,,,,,,,,,,,,,,,,,,,,,746.4631977998652,27,none,0,,,749.4770141998306,,,,,,,,,,,,,,,,,,,,,,16,A,2024-04-23_14h35.20.098,attentional_competition_task,2022.2.4,144.0173044731411,
positions.xlsx,positions_test.xlsx,positions_test_new.xlsx,stimuli.xlsx,stimuli_new.xlsx,stimuli/Social1.png,stimuli/Social2.png,stimuli/Nonsocial1.png,stimuli/Nonsocial2.png,stimuli/Social3.png,stimuli/Social4.png,stimuli/Nonsocial3.png,stimuli/Nonsocial4.png,cs_neg_s,"(-0.7, 0.5)",,,,,,,,,0,0,0,0,,,,,,,,,,,,,0,6,6,0,,,,,,,,,,,,,,,,,,,,,,,,,,,,,,,,,,757.2544435998425,27,none,0,,,760.2613216997124,,,,,,,,,,,,,,,,,,,,,,16,A,2024-04-23_14h35.20.098,attentional_competition_task,2022.2.4,144.0173044731411,
positions.xlsx,positions_test.xlsx,positions_test_new.xlsx,stimuli.xlsx,stimuli_new.xlsx,stimuli/Social1.png,stimuli/Social2.png,stimuli/Nonsocial1.png,stimuli/Nonsocial2.png,stimuli/Social3.png,stimuli/Social4.png,stimuli/Nonsocial3.png,stimuli/Nonsocial4.png,cs_neg_ns,"(-0.7, -0.5)",,,,,,,,,0,0,0,0,,,,,,,,,,,,,0,7,7,9,,,,,,,,,,,,,,,,,,,,,,,,,,,,,,,,,,767.4901152998209,27,none,0,,,770.4969353997149,,,,,,,,,,,,,,,,,,,,,,16,A,2024-04-23_14h35.20.098,attentional_competition_task,2022.2.4,144.0173044731411,
positions.xlsx,positions_test.xlsx,positions_test_new.xlsx,stimuli.xlsx,stimuli_new.xlsx,stimuli/Social1.png,stimuli/Social2.png,stimuli/Nonsocial1.png,stimuli/Nonsocial2.png,stimuli/Social3.png,stimuli/Social4.png,stimuli/Nonsocial3.png,stimuli/Nonsocial4.png,cs_neg_ns,"(0.7, -0.5)",,,,,,,,,0,0,0,0,,,,,,,,,,,,,0,8,8,11,,,,,,,,,,,,,,,,,,,,,,,,,,,,,,,,,,777.5730421999469,27,none,0,,,780.5868108998984,,,,,,,,,,,,,,,,,,,,,,16,A,2024-04-23_14h35.20.098,attentional_competition_task,2022.2.4,144.0173044731411,
positions.xlsx,positions_test.xlsx,positions_test_new.xlsx,stimuli.xlsx,stimuli_new.xlsx,stimuli/Social1.png,stimuli/Social2.png,stimuli/Nonsocial1.png,stimuli/Nonsocial2.png,stimuli/Social3.png,stimuli/Social4.png,stimuli/Nonsocial3.png,stimuli/Nonsocial4.png,cs_pos_s,"(0.7, -0.5)",,,,,,,,,0,0,0,0,,,,,,,,,,,,,0,9,9,7,,,,,,,,,,,,,,,,,,,,,,,,,,,,,,,,,,788.0796063998714,30,reward,1,0.30603899993002415,0.3060425999574363,788.3920499999076,,,,,,,,,,,,,,,,,,,,,,16,A,2024-04-23_14h35.20.098,attentional_competition_task,2022.2.4,144.0173044731411,
positions.xlsx,positions_test.xlsx,positions_test_new.xlsx,stimuli.xlsx,stimuli_new.xlsx,stimuli/Social1.png,stimuli/Social2.png,stimuli/Nonsocial1.png,stimuli/Nonsocial2.png,stimuli/Social3.png,stimuli/Social4.png,stimuli/Nonsocial3.png,stimuli/Nonsocial4.png,cs_pos_s,"(-0.7, -0.5)",,,,,,,,,0,0,0,0,,,,,,,,,,,,,0,10,10,5,,,,,,,,,,,,,,,,,,,,,,,,,,,,,,,,,,796.0792290000245,33,reward,1,0.39581310003995895,0.4027227000333369,796.4889706000686,,,,,,,,,,,,,,,,,,,,,,16,A,2024-04-23_14h35.20.098,attentional_competition_task,2022.2.4,144.0173044731411,
positions.xlsx,positions_test.xlsx,positions_test_new.xlsx,stimuli.xlsx,stimuli_new.xlsx,stimuli/Social1.png,stimuli/Social2.png,stimuli/Nonsocial1.png,stimuli/Nonsocial2.png,stimuli/Social3.png,stimuli/Social4.png,stimuli/Nonsocial3.png,stimuli/Nonsocial4.png,cs_neg_s,"(0.7, 0.5)",,,,,,,,,0,0,0,0,,,,,,,,,,,,,0,11,11,2,,,,,,,,,,,,,,,,,,,,,,,,,,,,,,,,,,803.6414177999832,33,none,0,,,806.6552033000626,,,,,,,,,,,,,,,,,,,,,,16,A,2024-04-23_14h35.20.098,attentional_competition_task,2022.2.4,144.0173044731411,
positions.xlsx,positions_test.xlsx,positions_test_new.xlsx,stimuli.xlsx,stimuli_new.xlsx,stimuli/Social1.png,stimuli/Social2.png,stimuli/Nonsocial1.png,stimuli/Nonsocial2.png,stimuli/Social3.png,stimuli/Social4.png,stimuli/Nonsocial3.png,stimuli/Nonsocial4.png,cs_neg_ns,"(0.7, 0.5)",,,,,,,,,0,0,0,0,,,,,,,,,,,,,0,12,12,10,,,,,,,,,,,,,,,,,,,,,,,,,,,,,,,,,,813.7799085997976,33,none,0,,,816.7936899000779,,,,,,,,,,,,,,,,,,,,,,16,A,2024-04-23_14h35.20.098,attentional_competition_task,2022.2.4,144.0173044731411,
positions.xlsx,positions_test.xlsx,positions_test_new.xlsx,stimuli.xlsx,stimuli_new.xlsx,stimuli/Social1.png,stimuli/Social2.png,stimuli/Nonsocial1.png,stimuli/Nonsocial2.png,stimuli/Social3.png,stimuli/Social4.png,stimuli/Nonsocial3.png,stimuli/Nonsocial4.png,cs_neg_s,"(-0.7, -0.5)",,,,,,,,,0,0,0,0,,,,,,,,,,,,,0,13,13,1,,,,,,,,,,,,,,,,,,,,,,,,,,,,,,,,,,824.293364000041,33,none,0,,,827.3001665999182,,,,,,,,,,,,,,,,,,,,,,16,A,2024-04-23_14h35.20.098,attentional_competition_task,2022.2.4,144.0173044731411,
positions.xlsx,positions_test.xlsx,positions_test_new.xlsx,stimuli.xlsx,stimuli_new.xlsx,stimuli/Social1.png,stimuli/Social2.png,stimuli/Nonsocial1.png,stimuli/Nonsocial2.png,stimuli/Social3.png,stimuli/Social4.png,stimuli/Nonsocial3.png,stimuli/Nonsocial4.png,cs_neg_s,"(0.7, -0.5)",,,,,,,,,0,0,0,0,,,,,,,,,,,,,0,14,14,3,,,,,,,,,,,,,,,,,,,,,,,,,,,,,,,,,,835.105434899684,30,loss,1,0.4793325001373887,0.4862098000012338,835.598487299867,,,,,,,,,,,,,,,,,,,,,,16,A,2024-04-23_14h35.20.098,attentional_competition_task,2022.2.4,144.0173044731411,
positions.xlsx,positions_test.xlsx,positions_test_new.xlsx,stimuli.xlsx,stimuli_new.xlsx,stimuli/Social1.png,stimuli/Social2.png,stimuli/Nonsocial1.png,stimuli/Nonsocial2.png,stimuli/Social3.png,stimuli/Social4.png,stimuli/Nonsocial3.png,stimuli/Nonsocial4.png,cs_pos_s,"(-0.7, 0.5)",,,,,,,,,0,0,0,0,,,,,,,,,,,,,0,15,15,4,,,,,,,,,,,,,,,,,,,,,,,,,,,,,,,,,,842.6606719000265,33,reward,1,0.5347433001734316,0.5347469002008438,843.2023948999122,,,,,,,,,,,,,,,,,,,,,,16,A,2024-04-23_14h35.20.098,attentional_competition_task,2022.2.4,144.0173044731411,
positions.xlsx,positions_test.xlsx,positions_test_new.xlsx,stimuli.xlsx,stimuli_new.xlsx,stimuli/Social1.png,stimuli/Social2.png,stimuli/Nonsocial1.png,stimuli/Nonsocial2.png,stimuli/Social3.png,stimuli/Social4.png,stimuli/Nonsocial3.png,stimuli/Nonsocial4.png,cs_pos_s,"(-0.7, -0.5)",,,,,,,,,0,0,0,0,,,,,,,,,,,,,1,0,16,5,,,,,,,,,,,,,,,,,,,,,,,,,,,,,,,,,,850.5284617999569,36,reward,1,0.29218959994614124,0.2921931999735534,850.8270334997214,,,,,,,,,,,,,,,,,,,,,,16,A,2024-04-23_14h35.20.098,attentional_competition_task,2022.2.4,144.0173044731411,
positions.xlsx,positions_test.xlsx,positions_test_new.xlsx,stimuli.xlsx,stimuli_new.xlsx,stimuli/Social1.png,stimuli/Social2.png,stimuli/Nonsocial1.png,stimuli/Nonsocial2.png,stimuli/Social3.png,stimuli/Social4.png,stimuli/Nonsocial3.png,stimuli/Nonsocial4.png,cs_pos_ns,"(-0.7, -0.5)",,,,,,,,,0,0,0,0,,,,,,,,,,,,,1,1,17,13,,,,,,,,,,,,,,,,,,,,,,,,,,,,,,,,,,857.9795339000411,39,reward,1,0.5073954002000391,0.5073989001102746,858.4933682000265,,,,,,,,,,,,,,,,,,,,,,16,A,2024-04-23_14h35.20.098,attentional_competition_task,2022.2.4,144.0173044731411,
positions.xlsx,positions_test.xlsx,positions_test_new.xlsx,stimuli.xlsx,stimuli_new.xlsx,stimuli/Social1.png,stimuli/Social2.png,stimuli/Nonsocial1.png,stimuli/Nonsocial2.png,stimuli/Social3.png,stimuli/Social4.png,stimuli/Nonsocial3.png,stimuli/Nonsocial4.png,cs_neg_s,"(-0.7, 0.5)",,,,,,,,,0,0,0,0,,,,,,,,,,,,,1,2,18,0,,,,,,,,,,,,,,,,,,,,,,,,,,,,,,,,,,865.8125734999776,39,none,0,,,868.8263158998452,,,,,,,,,,,,,,,,,,,,,,16,A,2024-04-23_14h35.20.098,attentional_competition_task,2022.2.4,144.0173044731411,
positions.xlsx,positions_test.xlsx,positions_test_new.xlsx,stimuli.xlsx,stimuli_new.xlsx,stimuli/Social1.png,stimuli/Social2.png,stimuli/Nonsocial1.png,stimuli/Nonsocial2.png,stimuli/Social3.png,stimuli/Social4.png,stimuli/Nonsocial3.png,stimuli/Nonsocial4.png,cs_pos_ns,"(0.7, 0.5)",,,,,,,,,0,0,0,0,,,,,,,,,,,,,1,3,19,14,,,,,,,,,,,,,,,,,,,,,,,,,,,,,,,,,,876.5829273997806,42,reward,1,0.48696539970114827,0.4869690998457372,877.0829695998691,,,,,,,,,,,,,,,,,,,,,,16,A,2024-04-23_14h35.20.098,attentional_competition_task,2022.2.4,144.0173044731411,
positions.xlsx,positions_test.xlsx,positions_test_new.xlsx,stimuli.xlsx,stimuli_new.xlsx,stimuli/Social1.png,stimuli/Social2.png,stimuli/Nonsocial1.png,stimuli/Nonsocial2.png,stimuli/Social3.png,stimuli/Social4.png,stimuli/Nonsocial3.png,stimuli/Nonsocial4.png,cs_neg_ns,"(0.7, -0.5)",,,,,,,,,0,0,0,0,,,,,,,,,,,,,1,4,20,11,,,,,,,,,,,,,,,,,,,,,,,,,,,,,,,,,,884.6798470998183,42,none,0,,,887.6936666998081,,,,,,,,,,,,,,,,,,,,,,16,A,2024-04-23_14h35.20.098,attentional_competition_task,2022.2.4,144.0173044731411,
positions.xlsx,positions_test.xlsx,positions_test_new.xlsx,stimuli.xlsx,stimuli_new.xlsx,stimuli/Social1.png,stimuli/Social2.png,stimuli/Nonsocial1.png,stimuli/Nonsocial2.png,stimuli/Social3.png,stimuli/Social4.png,stimuli/Nonsocial3.png,stimuli/Nonsocial4.png,cs_pos_ns,"(-0.7, 0.5)",,,,,,,,,0,0,0,0,,,,,,,,,,,,,1,5,21,12,,,,,,,,,,,,,,,,,,,,,,,,,,,,,,,,,,894.6030510999262,45,reward,1,0.24355960031971335,0.24356310022994876,894.8530236999504,,,,,,,,,,,,,,,,,,,,,,16,A,2024-04-23_14h35.20.098,attentional_competition_task,2022.2.4,144.0173044731411,
positions.xlsx,positions_test.xlsx,positions_test_new.xlsx,stimuli.xlsx,stimuli_new.xlsx,stimuli/Social1.png,stimuli/Social2.png,stimuli/Nonsocial1.png,stimuli/Nonsocial2.png,stimuli/Social3.png,stimuli/Social4.png,stimuli/Nonsocial3.png,stimuli/Nonsocial4.png,cs_pos_ns,"(0.7, -0.5)",,,,,,,,,0,0,0,0,,,,,,,,,,,,,1,6,22,15,,,,,,,,,,,,,,,,,,,,,,,,,,,,,,,,,,902.5750158997253,48,reward,1,0.514024700038135,0.5140285002999008,903.0958059998229,,,,,,,,,,,,,,,,,,,,,,16,A,2024-04-23_14h35.20.098,attentional_competition_task,2022.2.4,144.0173044731411,
positions.xlsx,positions_test.xlsx,positions_test_new.xlsx,stimuli.xlsx,stimuli_new.xlsx,stimuli/Social1.png,stimuli/Social2.png,stimuli/Nonsocial1.png,stimuli/Nonsocial2.png,stimuli/Social3.png,stimuli/Social4.png,stimuli/Nonsocial3.png,stimuli/Nonsocial4.png,cs_neg_s,"(0.7, -0.5)",,,,,,,,,0,0,0,0,,,,,,,,,,,,,1,7,23,3,,,,,,,,,,,,,,,,,,,,,,,,,,,,,,,,,,911.1788270999677,48,none,0,,,914.192544199992,,,,,,,,,,,,,,,,,,,,,,16,A,2024-04-23_14h35.20.098,attentional_competition_task,2022.2.4,144.0173044731411,
positions.xlsx,positions_test.xlsx,positions_test_new.xlsx,stimuli.xlsx,stimuli_new.xlsx,stimuli/Social1.png,stimuli/Social2.png,stimuli/Nonsocial1.png,stimuli/Nonsocial2.png,stimuli/Social3.png,stimuli/Social4.png,stimuli/Nonsocial3.png,stimuli/Nonsocial4.png,cs_neg_ns,"(-0.7, -0.5)",,,,,,,,,0,0,0,0,,,,,,,,,,,,,1,8,24,9,,,,,,,,,,,,,,,,,,,,,,,,,,,,,,,,,,921.1645026998594,48,none,0,,,924.1782690999098,,,,,,,,,,,,,,,,,,,,,,16,A,2024-04-23_14h35.20.098,attentional_competition_task,2022.2.4,144.0173044731411,
positions.xlsx,positions_test.xlsx,positions_test_new.xlsx,stimuli.xlsx,stimuli_new.xlsx,stimuli/Social1.png,stimuli/Social2.png,stimuli/Nonsocial1.png,stimuli/Nonsocial2.png,stimuli/Social3.png,stimuli/Social4.png,stimuli/Nonsocial3.png,stimuli/Nonsocial4.png,cs_pos_s,"(-0.7, 0.5)",,,,,,,,,0,0,0,0,,,,,,,,,,,,,1,9,25,4,,,,,,,,,,,,,,,,,,,,,,,,,,,,,,,,,,931.0877085998654,51,reward,1,0.5073600998148322,0.5073784999549389,931.6015663999133,,,,,,,,,,,,,,,,,,,,,,16,A,2024-04-23_14h35.20.098,attentional_competition_task,2022.2.4,144.0173044731411,
positions.xlsx,positions_test.xlsx,positions_test_new.xlsx,stimuli.xlsx,stimuli_new.xlsx,stimuli/Social1.png,stimuli/Social2.png,stimuli/Nonsocial1.png,stimuli/Nonsocial2.png,stimuli/Social3.png,stimuli/Social4.png,stimuli/Nonsocial3.png,stimuli/Nonsocial4.png,cs_neg_s,"(0.7, 0.5)",,,,,,,,,0,0,0,0,,,,,,,,,,,,,1,10,26,2,,,,,,,,,,,,,,,,,,,,,,,,,,,,,,,,,,939.2124016000889,48,loss,1,0.2573949000798166,0.25739890011027455,939.4762598001398,,,,,,,,,,,,,,,,,,,,,,16,A,2024-04-23_14h35.20.098,attentional_competition_task,2022.2.4,144.0173044731411,
positions.xlsx,positions_test.xlsx,positions_test_new.xlsx,stimuli.xlsx,stimuli_new.xlsx,stimuli/Social1.png,stimuli/Social2.png,stimuli/Nonsocial1.png,stimuli/Nonsocial2.png,stimuli/Social3.png,stimuli/Social4.png,stimuli/Nonsocial3.png,stimuli/Nonsocial4.png,cs_neg_ns,"(0.7, 0.5)",,,,,,,,,0,0,0,0,,,,,,,,,,,,,1,11,27,10,,,,,,,,,,,,,,,,,,,,,,,,,,,,,,,,,,946.9065362000838,48,none,0,,,949.920267299749,,,,,,,,,,,,,,,,,,,,,,16,A,2024-04-23_14h35.20.098,attentional_competition_task,2022.2.4,144.0173044731411,
positions.xlsx,positions_test.xlsx,positions_test_new.xlsx,stimuli.xlsx,stimuli_new.xlsx,stimuli/Social1.png,stimuli/Social2.png,stimuli/Nonsocial1.png,stimuli/Nonsocial2.png,stimuli/Social3.png,stimuli/Social4.png,stimuli/Nonsocial3.png,stimuli/Nonsocial4.png,cs_pos_s,"(0.7, -0.5)",,,,,,,,,0,0,0,0,,,,,,,,,,,,,1,12,28,7,,,,,,,,,,,,,,,,,,,,,,,,,,,,,,,,,,957.9894473999739,51,reward,1,0.5143113997764885,0.5143148000352085,958.5102141001262,,,,,,,,,,,,,,,,,,,,,,16,A,2024-04-23_14h35.20.098,attentional_competition_task,2022.2.4,144.0173044731411,
positions.xlsx,positions_test.xlsx,positions_test_new.xlsx,stimuli.xlsx,stimuli_new.xlsx,stimuli/Social1.png,stimuli/Social2.png,stimuli/Nonsocial1.png,stimuli/Nonsocial2.png,stimuli/Social3.png,stimuli/Social4.png,stimuli/Nonsocial3.png,stimuli/Nonsocial4.png,cs_neg_s,"(-0.7, -0.5)",,,,,,,,,0,0,0,0,,,,,,,,,,,,,1,13,29,1,,,,,,,,,,,,,,,,,,,,,,,,,,,,,,,,,,966.6626800000668,51,none,0,,,969.6764148999937,,,,,,,,,,,,,,,,,,,,,,16,A,2024-04-23_14h35.20.098,attentional_competition_task,2022.2.4,144.0173044731411,
positions.xlsx,positions_test.xlsx,positions_test_new.xlsx,stimuli.xlsx,stimuli_new.xlsx,stimuli/Social1.png,stimuli/Social2.png,stimuli/Nonsocial1.png,stimuli/Nonsocial2.png,stimuli/Social3.png,stimuli/Social4.png,stimuli/Nonsocial3.png,stimuli/Nonsocial4.png,cs_pos_s,"(0.7, 0.5)",,,,,,,,,0,0,0,0,,,,,,,,,,,,,1,14,30,6,,,,,,,,,,,,,,,,,,,,,,,,,,,,,,,,,,977.4886141000316,54,reward,0,,,978.1969237998128,,,,,,,,,,,,,,,,,,,,,,16,A,2024-04-23_14h35.20.098,attentional_competition_task,2022.2.4,144.0173044731411,
positions.xlsx,positions_test.xlsx,positions_test_new.xlsx,stimuli.xlsx,stimuli_new.xlsx,stimuli/Social1.png,stimuli/Social2.png,stimuli/Nonsocial1.png,stimuli/Nonsocial2.png,stimuli/Social3.png,stimuli/Social4.png,stimuli/Nonsocial3.png,stimuli/Nonsocial4.png,cs_neg_ns,"(-0.7, 0.5)",,,,,,,,,0,0,0,0,,,,,,,,,,,,,1,15,31,8,,,,,,,,,,,,,,,,,,,,,,,,,,,,,,,,,,986.2243305998854,54,none,0,,,989.2381174000911,,,,,,,,,,,,,,,,,,,,,,16,A,2024-04-23_14h35.20.098,attentional_competition_task,2022.2.4,144.0173044731411,
positions.xlsx,positions_test.xlsx,positions_test_new.xlsx,stimuli.xlsx,stimuli_new.xlsx,stimuli/Social1.png,stimuli/Social2.png,stimuli/Nonsocial1.png,stimuli/Nonsocial2.png,stimuli/Social3.png,stimuli/Social4.png,stimuli/Nonsocial3.png,stimuli/Nonsocial4.png,cs_pos_s,,,,,,,,,,0,0,0,0,,,,,,,,,,,,,,,,,0,0,0,2,,,,,,,,,,,,,,,,,,,,,,,994.22405899968,8.0,4.581369000021368,,,,,,,,,,,,,,,,,,,,,,,,,,,,,,,,,16,A,2024-04-23_14h35.20.098,attentional_competition_task,2022.2.4,144.0173044731411,
positions.xlsx,positions_test.xlsx,positions_test_new.xlsx,stimuli.xlsx,stimuli_new.xlsx,stimuli/Social1.png,stimuli/Social2.png,stimuli/Nonsocial1.png,stimuli/Nonsocial2.png,stimuli/Social3.png,stimuli/Social4.png,stimuli/Nonsocial3.png,stimuli/Nonsocial4.png,cs_neg_s,,,,,,,,,,0,0,0,0,,,,,,,,,,,,,,,,,0,1,1,0,,,,,,,,,,,,,,,,,,,,,,,999.8626997997053,8.0,1.7730411998927593,,,,,,,,,,,,,,,,,,,,,,,,,,,,,,,,,16,A,2024-04-23_14h35.20.098,attentional_competition_task,2022.2.4,144.0173044731411,
positions.xlsx,positions_test.xlsx,positions_test_new.xlsx,stimuli.xlsx,stimuli_new.xlsx,stimuli/Social1.png,stimuli/Social2.png,stimuli/Nonsocial1.png,stimuli/Nonsocial2.png,stimuli/Social3.png,stimuli/Social4.png,stimuli/Nonsocial3.png,stimuli/Nonsocial4.png,cs_neg_ns,,,,,,,,,,0,0,0,0,,,,,,,,,,,,,,,,,0,2,2,1,,,,,,,,,,,,,,,,,,,,,,,1002.5431969999336,8.0,1.7649098997935653,,,,,,,,,,,,,,,,,,,,,,,,,,,,,,,,,16,A,2024-04-23_14h35.20.098,attentional_competition_task,2022.2.4,144.0173044731411,
positions.xlsx,positions_test.xlsx,positions_test_new.xlsx,stimuli.xlsx,stimuli_new.xlsx,stimuli/Social1.png,stimuli/Social2.png,stimuli/Nonsocial1.png,stimuli/Nonsocial2.png,stimuli/Social3.png,stimuli/Social4.png,stimuli/Nonsocial3.png,stimuli/Nonsocial4.png,cs_pos_ns,,,,,,,,,,0,0,0,0,,,,,,,,,,,,,,,,,0,3,3,3,,,,,,,,,,,,,,,,,,,,,,,1004.3903018999845,8.0,0.8202962996438146,,,,,,,,,,,,,,,,,,,,,,,,,,,,,,,,,16,A,2024-04-23_14h35.20.098,attentional_competition_task,2022.2.4,144.0173044731411,
positions.xlsx,positions_test.xlsx,positions_test_new.xlsx,stimuli.xlsx,stimuli_new.xlsx,stimuli/Social1.png,stimuli/Social2.png,stimuli/Nonsocial1.png,stimuli/Nonsocial2.png,stimuli/Social3.png,stimuli/Social4.png,stimuli/Nonsocial3.png,stimuli/Nonsocial4.png,,,"(-0.7, -0.5)",cs_neg_s,"(-0.7, 0.5)",cs_neg_ns,"(0.7, -0.5)",cs_pos_ns,"(0.7, 0.5)",cs_pos_s,0,0,0,0,,,,,,,,,,,,,,,,,,,,,0,0,0,3,,,,,,,,,,,,,,,,,,,,,,,,,,,57,reward,,,,,1005.2374770999886,1012.3414181997068,1012.3414181997068,1012.3414181997068,1012.3414181997068,0,,,0,,,1,0.02373229991644621,0.023736299946904182,0,,,1012.3414181997068,1012.3414181997068,1012.3414181997068,1012.3414181997068,16,A,2024-04-23_14h35.20.098,attentional_competition_task,2022.2.4,144.0173044731411,
positions.xlsx,positions_test.xlsx,positions_test_new.xlsx,stimuli.xlsx,stimuli_new.xlsx,stimuli/Social1.png,stimuli/Social2.png,stimuli/Nonsocial1.png,stimuli/Nonsocial2.png,stimuli/Social3.png,stimuli/Social4.png,stimuli/Nonsocial3.png,stimuli/Nonsocial4.png,,,"(-0.7, -0.5)",cs_neg_s,"(-0.7, 0.5)",cs_pos_ns,"(0.7, -0.5)",cs_neg_ns,"(0.7, 0.5)",cs_pos_s,0,0,0,0,,,,,,,,,,,,,,,,,,,,,0,1,1,5,,,,,,,,,,,,,,,,,,,,,,,,,,,57,loss,,,,,,1021.5562887997366,1021.5562887997366,1021.5562887997366,1021.5562887997366,1,0.024014099966734648,0.024017699994146824,0,,,0,,,0,,,1021.5562887997366,1021.5562887997366,1021.5562887997366,1021.5562887997366,16,A,2024-04-23_14h35.20.098,attentional_competition_task,2022.2.4,144.0173044731411,
positions.xlsx,positions_test.xlsx,positions_test_new.xlsx,stimuli.xlsx,stimuli_new.xlsx,stimuli/Social1.png,stimuli/Social2.png,stimuli/Nonsocial1.png,stimuli/Nonsocial2.png,stimuli/Social3.png,stimuli/Social4.png,stimuli/Nonsocial3.png,stimuli/Nonsocial4.png,,,"(-0.7, -0.5)",cs_neg_s,"(-0.7, 0.5)",cs_pos_ns,"(0.7, -0.5)",cs_pos_s,"(0.7, 0.5)",cs_neg_ns,0,0,0,0,,,,,,,,,,,,,,,,,,,,,0,2,2,4,,,,,,,,,,,,,,,,,,,,,,,,,,,66,reward,,,,,,1029.597608699929,1029.597608699929,1029.597608699929,1029.597608699929,0,,,0,,,1,0.025352700147777796,0.05290520004928112,0,,,1030.389265799895,1030.389265799895,1030.389265799895,1030.389265799895,16,A,2024-04-23_14h35.20.098,attentional_competition_task,2022.2.4,144.0173044731411,
positions.xlsx,positions_test.xlsx,positions_test_new.xlsx,stimuli.xlsx,stimuli_new.xlsx,stimuli/Social1.png,stimuli/Social2.png,stimuli/Nonsocial1.png,stimuli/Nonsocial2.png,stimuli/Social3.png,stimuli/Social4.png,stimuli/Nonsocial3.png,stimuli/Nonsocial4.png,,,"(-0.7, -0.5)",cs_neg_s,"(-0.7, 0.5)",cs_pos_s,"(0.7, -0.5)",cs_pos_ns,"(0.7, 0.5)",cs_neg_ns,0,0,0,0,,,,,,,,,,,,,,,,,,,,,0,3,3,1,,,,,,,,,,,,,,,,,,,,,,,,,,,69,reward,,,,,,1037.8681378997862,1037.8681378997862,1037.8681378997862,1037.8681378997862,0,,,0,,,1,0.028851599898189306,0.028855100274086,0,,,1037.8681378997862,1037.8681378997862,1037.8681378997862,1037.8681378997862,16,A,2024-04-23_14h35.20.098,attentional_competition_task,2022.2.4,144.0173044731411,
positions.xlsx,positions_test.xlsx,positions_test_new.xlsx,stimuli.xlsx,stimuli_new.xlsx,stimuli/Social1.png,stimuli/Social2.png,stimuli/Nonsocial1.png,stimuli/Nonsocial2.png,stimuli/Social3.png,stimuli/Social4.png,stimuli/Nonsocial3.png,stimuli/Nonsocial4.png,,,"(-0.7, -0.5)",cs_pos_ns,"(-0.7, 0.5)",cs_pos_s,"(0.7, -0.5)",cs_neg_ns,"(0.7, 0.5)",cs_neg_s,0,0,0,0,,,,,,,,,,,,,,,,,,,,,0,4,4,18,,,,,,,,,,,,,,,,,,,,,,,,,,,78,reward,,,,,,1047.0552519997582,1047.0552519997582,1047.0552519997582,1047.0552519997582,0,,,0,,,0,,,0,,,1048.096888099797,1048.096888099797,1048.096888099797,1048.096888099797,16,A,2024-04-23_14h35.20.098,attentional_competition_task,2022.2.4,144.0173044731411,
positions.xlsx,positions_test.xlsx,positions_test_new.xlsx,stimuli.xlsx,stimuli_new.xlsx,stimuli/Social1.png,stimuli/Social2.png,stimuli/Nonsocial1.png,stimuli/Nonsocial2.png,stimuli/Social3.png,stimuli/Social4.png,stimuli/Nonsocial3.png,stimuli/Nonsocial4.png,,,"(-0.7, -0.5)",cs_neg_s,"(-0.7, 0.5)",cs_pos_s,"(0.7, -0.5)",cs_neg_ns,"(0.7, 0.5)",cs_pos_ns,0,0,0,0,,,,,,,,,,,,,,,,,,,,,0,5,5,0,,,,,,,,,,,,,,,,,,,,,,,,,,,87,reward,,,,,,1056.186863800045,1056.186863800045,1056.186863800045,1056.186863800045,0,,,0,,,0,,,0,,,1057.186795100104,1057.186795100104,1057.186795100104,1057.186795100104,16,A,2024-04-23_14h35.20.098,attentional_competition_task,2022.2.4,144.0173044731411,
positions.xlsx,positions_test.xlsx,positions_test_new.xlsx,stimuli.xlsx,stimuli_new.xlsx,stimuli/Social1.png,stimuli/Social2.png,stimuli/Nonsocial1.png,stimuli/Nonsocial2.png,stimuli/Social3.png,stimuli/Social4.png,stimuli/Nonsocial3.png,stimuli/Nonsocial4.png,,,"(-0.7, -0.5)",cs_pos_s,"(-0.7, 0.5)",cs_pos_ns,"(0.7, -0.5)",cs_neg_s,"(0.7, 0.5)",cs_neg_ns,0,0,0,0,,,,,,,,,,,,,,,,,,,,,0,6,6,10,,,,,,,,,,,,,,,,,,,,,,,,,,,96,reward,,,,,,1064.9642654000781,1064.9642654000781,1064.9642654000781,1064.9642654000781,0,,,0,,,0,,,0,,,1065.9225646001287,1065.9225646001287,1065.9225646001287,1065.9225646001287,16,A,2024-04-23_14h35.20.098,attentional_competition_task,2022.2.4,144.0173044731411,
positions.xlsx,positions_test.xlsx,positions_test_new.xlsx,stimuli.xlsx,stimuli_new.xlsx,stimuli/Social1.png,stimuli/Social2.png,stimuli/Nonsocial1.png,stimuli/Nonsocial2.png,stimuli/Social3.png,stimuli/Social4.png,stimuli/Nonsocial3.png,stimuli/Nonsocial4.png,,,"(-0.7, -0.5)",cs_neg_ns,"(-0.7, 0.5)",cs_pos_ns,"(0.7, -0.5)",cs_pos_s,"(0.7, 0.5)",cs_neg_s,0,0,0,0,,,,,,,,,,,,,,,,,,,,,0,7,7,16,,,,,,,,,,,,,,,,,,,,,,,,,,,99,reward,,,,,,1074.0958314999007,1074.0958314999007,1074.0958314999007,1074.0958314999007,0,,,0,,,1,0.029693900141865015,0.02969750016927719,0,,,1074.0958314999007,1074.0958314999007,1074.0958314999007,1074.0958314999007,16,A,2024-04-23_14h35.20.098,attentional_competition_task,2022.2.4,144.0173044731411,
positions.xlsx,positions_test.xlsx,positions_test_new.xlsx,stimuli.xlsx,stimuli_new.xlsx,stimuli/Social1.png,stimuli/Social2.png,stimuli/Nonsocial1.png,stimuli/Nonsocial2.png,stimuli/Social3.png,stimuli/Social4.png,stimuli/Nonsocial3.png,stimuli/Nonsocial4.png,,,"(-0.7, -0.5)",cs_pos_s,"(-0.7, 0.5)",cs_neg_s,"(0.7, -0.5)",cs_neg_ns,"(0.7, 0.5)",cs_pos_ns,0,0,0,0,,,,,,,,,,,,,,,,,,,,,0,8,8,6,,,,,,,,,,,,,,,,,,,,,,,,,,,96,loss,,,,,,1083.0468514999375,1083.0468514999375,1083.0468514999375,1083.0468514999375,0,,,0,,,1,0.029172599781304598,0.029176800046116114,0,,,1083.0468514999375,1083.0468514999375,1083.0468514999375,1083.0468514999375,16,A,2024-04-23_14h35.20.098,attentional_competition_task,2022.2.4,144.0173044731411,
positions.xlsx,positions_test.xlsx,positions_test_new.xlsx,stimuli.xlsx,stimuli_new.xlsx,stimuli/Social1.png,stimuli/Social2.png,stimuli/Nonsocial1.png,stimuli/Nonsocial2.png,stimuli/Social3.png,stimuli/Social4.png,stimuli/Nonsocial3.png,stimuli/Nonsocial4.png,,,"(-0.7, -0.5)",cs_neg_s,"(-0.7, 0.5)",cs_neg_ns,"(0.7, -0.5)",cs_pos_s,"(0.7, 0.5)",cs_pos_ns,0,0,0,0,,,,,,,,,,,,,,,,,,,,,0,9,9,2,,,,,,,,,,,,,,,,,,,,,,,,,,,105,reward,,,,,,1091.7617907999083,1091.7617907999083,1091.7617907999083,1091.7617907999083,0,,,0,,,0,,,0,,,1092.6784859998152,1092.6784859998152,1092.6784859998152,1092.6784859998152,16,A,2024-04-23_14h35.20.098,attentional_competition_task,2022.2.4,144.0173044731411,
positions.xlsx,positions_test.xlsx,positions_test_new.xlsx,stimuli.xlsx,stimuli_new.xlsx,stimuli/Social1.png,stimuli/Social2.png,stimuli/Nonsocial1.png,stimuli/Nonsocial2.png,stimuli/Social3.png,stimuli/Social4.png,stimuli/Nonsocial3.png,stimuli/Nonsocial4.png,,,"(-0.7, -0.5)",cs_pos_ns,"(-0.7, 0.5)",cs_neg_s,"(0.7, -0.5)",cs_pos_s,"(0.7, 0.5)",cs_neg_ns,0,0,0,0,,,,,,,,,,,,,,,,,,,,,0,10,10,22,,,,,,,,,,,,,,,,,,,,,,,,,,,114,reward,,,,,,1099.9420618996955,1099.9420618996955,1099.9420618996955,1099.9420618996955,1,0.025394000113010406,0.13603849988430738,0,,,0,,,0,,,1100.7753515997902,1100.7753515997902,1100.7753515997902,1100.7753515997902,16,A,2024-04-23_14h35.20.098,attentional_competition_task,2022.2.4,144.0173044731411,
positions.xlsx,positions_test.xlsx,positions_test_new.xlsx,stimuli.xlsx,stimuli_new.xlsx,stimuli/Social1.png,stimuli/Social2.png,stimuli/Nonsocial1.png,stimuli/Nonsocial2.png,stimuli/Social3.png,stimuli/Social4.png,stimuli/Nonsocial3.png,stimuli/Nonsocial4.png,,,"(-0.7, -0.5)",cs_pos_s,"(-0.7, 0.5)",cs_pos_ns,"(0.7, -0.5)",cs_neg_ns,"(0.7, 0.5)",cs_neg_s,0,0,0,0,,,,,,,,,,,,,,,,,,,,,0,11,11,11,,,,,,,,,,,,,,,,,,,,,,,,,,,117,loss,,,,,,1109.1013625999913,1109.1013625999913,1109.1013625999913,1109.1013625999913,0,,,0,,,0,,,1,0.030727799981832504,0.030731699895113707,1109.1013625999913,1109.1013625999913,1109.1013625999913,1109.1013625999913,16,A,2024-04-23_14h35.20.098,attentional_competition_task,2022.2.4,144.0173044731411,
positions.xlsx,positions_test.xlsx,positions_test_new.xlsx,stimuli.xlsx,stimuli_new.xlsx,stimuli/Social1.png,stimuli/Social2.png,stimuli/Nonsocial1.png,stimuli/Nonsocial2.png,stimuli/Social3.png,stimuli/Social4.png,stimuli/Nonsocial3.png,stimuli/Nonsocial4.png,,,"(-0.7, -0.5)",cs_neg_ns,"(-0.7, 0.5)",cs_neg_s,"(0.7, -0.5)",cs_pos_ns,"(0.7, 0.5)",cs_pos_s,0,0,0,0,,,,,,,,,,,,,,,,,,,,,0,12,12,15,,,,,,,,,,,,,,,,,,,,,,,,,,,126,reward,,,,,,1118.2537607997656,1118.2537607997656,1118.2537607997656,1118.2537607997656,0,,,0,,,0,,,0,,,1119.003740400076,1119.003740400076,1119.003740400076,1119.003740400076,16,A,2024-04-23_14h35.20.098,attentional_competition_task,2022.2.4,144.0173044731411,
positions.xlsx,positions_test.xlsx,positions_test_new.xlsx,stimuli.xlsx,stimuli_new.xlsx,stimuli/Social1.png,stimuli/Social2.png,stimuli/Nonsocial1.png,stimuli/Nonsocial2.png,stimuli/Social3.png,stimuli/Social4.png,stimuli/Nonsocial3.png,stimuli/Nonsocial4.png,,,"(-0.7, -0.5)",cs_pos_ns,"(-0.7, 0.5)",cs_neg_ns,"(0.7, -0.5)",cs_pos_s,"(0.7, 0.5)",cs_neg_s,0,0,0,0,,,,,,,,,,,,,,,,,,,,,0,13,13,20,,,,,,,,,,,,,,,,,,,,,,,,,,,135,reward,,,,,,1126.8714807997458,1126.8714807997458,1126.8714807997458,1126.8714807997458,0,,,0,,,0,,,0,,,1127.8575893999077,1127.8575893999077,1127.8575893999077,1127.8575893999077,16,A,2024-04-23_14h35.20.098,attentional_competition_task,2022.2.4,144.0173044731411,
positions.xlsx,positions_test.xlsx,positions_test_new.xlsx,stimuli.xlsx,stimuli_new.xlsx,stimuli/Social1.png,stimuli/Social2.png,stimuli/Nonsocial1.png,stimuli/Nonsocial2.png,stimuli/Social3.png,stimuli/Social4.png,stimuli/Nonsocial3.png,stimuli/Nonsocial4.png,,,"(-0.7, -0.5)",cs_pos_s,"(-0.7, 0.5)",cs_neg_ns,"(0.7, -0.5)",cs_pos_ns,"(0.7, 0.5)",cs_neg_s,0,0,0,0,,,,,,,,,,,,,,,,,,,,,0,14,14,9,,,,,,,,,,,,,,,,,,,,,,,,,,,144,reward,,,,,,1135.0517319999635,1135.0517319999635,1135.0517319999635,1135.0517319999635,0,,,0,,,1,0.024425300303846598,0.059267000295221806,0,,,1135.996126299724,1135.996126299724,1135.996126299724,1135.996126299724,16,A,2024-04-23_14h35.20.098,attentional_competition_task,2022.2.4,144.0173044731411,
positions.xlsx,positions_test.xlsx,positions_test_new.xlsx,stimuli.xlsx,stimuli_new.xlsx,stimuli/Social1.png,stimuli/Social2.png,stimuli/Nonsocial1.png,stimuli/Nonsocial2.png,stimuli/Social3.png,stimuli/Social4.png,stimuli/Nonsocial3.png,stimuli/Nonsocial4.png,,,"(-0.7, -0.5)",cs_pos_ns,"(-0.7, 0.5)",cs_pos_s,"(0.7, -0.5)",cs_neg_s,"(0.7, 0.5)",cs_neg_ns,0,0,0,0,,,,,,,,,,,,,,,,,,,,,0,15,15,19,,,,,,,,,,,,,,,,,,,,,,,,,,,147,loss,,,,,,1143.9749344000593,1143.9749344000593,1143.9749344000593,1143.9749344000593,0,,,1,0.02852049982175231,0.23070009984076023,0,,,0,,,1144.3847396997735,1144.3847396997735,1144.3847396997735,1144.3847396997735,16,A,2024-04-23_14h35.20.098,attentional_competition_task,2022.2.4,144.0173044731411,
positions.xlsx,positions_test.xlsx,positions_test_new.xlsx,stimuli.xlsx,stimuli_new.xlsx,stimuli/Social1.png,stimuli/Social2.png,stimuli/Nonsocial1.png,stimuli/Nonsocial2.png,stimuli/Social3.png,stimuli/Social4.png,stimuli/Nonsocial3.png,stimuli/Nonsocial4.png,,,"(-0.7, -0.5)",cs_pos_ns,"(-0.7, 0.5)",cs_neg_ns,"(0.7, -0.5)",cs_neg_s,"(0.7, 0.5)",cs_pos_s,0,0,0,0,,,,,,,,,,,,,,,,,,,,,0,16,16,21,,,,,,,,,,,,,,,,,,,,,,,,,,,156,reward,,,,,,1153.016270800028,1153.016270800028,1153.016270800028,1153.016270800028,0,,,0,,,0,,,0,,,1153.7871023998596,1153.7871023998596,1153.7871023998596,1153.7871023998596,16,A,2024-04-23_14h35.20.098,attentional_competition_task,2022.2.4,144.0173044731411,
positions.xlsx,positions_test.xlsx,positions_test_new.xlsx,stimuli.xlsx,stimuli_new.xlsx,stimuli/Social1.png,stimuli/Social2.png,stimuli/Nonsocial1.png,stimuli/Nonsocial2.png,stimuli/Social3.png,stimuli/Social4.png,stimuli/Nonsocial3.png,stimuli/Nonsocial4.png,,,"(-0.7, -0.5)",cs_neg_ns,"(-0.7, 0.5)",cs_pos_s,"(0.7, -0.5)",cs_neg_s,"(0.7, 0.5)",cs_pos_ns,0,0,0,0,,,,,,,,,,,,,,,,,,,,,0,17,17,12,,,,,,,,,,,,,,,,,,,,,,,,,,,165,reward,,,,,,1160.8909787000157,1160.8909787000157,1160.8909787000157,1160.8909787000157,0,,,0,,,0,,,0,,,1161.9811971997842,1161.9811971997842,1161.9811971997842,1161.9811971997842,16,A,2024-04-23_14h35.20.098,attentional_competition_task,2022.2.4,144.0173044731411,
positions.xlsx,positions_test.xlsx,positions_test_new.xlsx,stimuli.xlsx,stimuli_new.xlsx,stimuli/Social1.png,stimuli/Social2.png,stimuli/Nonsocial1.png,stimuli/Nonsocial2.png,stimuli/Social3.png,stimuli/Social4.png,stimuli/Nonsocial3.png,stimuli/Nonsocial4.png,,,"(-0.7, -0.5)",cs_neg_ns,"(-0.7, 0.5)",cs_pos_s,"(0.7, -0.5)",cs_pos_ns,"(0.7, 0.5)",cs_neg_s,0,0,0,0,,,,,,,,,,,,,,,,,,,,,0,18,18,13,,,,,,,,,,,,,,,,,,,,,,,,,,,174,reward,,,,,,1170.1614184998907,1170.1614184998907,1170.1614184998907,1170.1614184998907,0,,,0,,,0,,,0,,,1171.2655620998703,1171.2655620998703,1171.2655620998703,1171.2655620998703,16,A,2024-04-23_14h35.20.098,attentional_competition_task,2022.2.4,144.0173044731411,
positions.xlsx,positions_test.xlsx,positions_test_new.xlsx,stimuli.xlsx,stimuli_new.xlsx,stimuli/Social1.png,stimuli/Social2.png,stimuli/Nonsocial1.png,stimuli/Nonsocial2.png,stimuli/Social3.png,stimuli/Social4.png,stimuli/Nonsocial3.png,stimuli/Nonsocial4.png,,,"(-0.7, -0.5)",cs_neg_ns,"(-0.7, 0.5)",cs_neg_s,"(0.7, -0.5)",cs_pos_s,"(0.7, 0.5)",cs_pos_ns,0,0,0,0,,,,,,,,,,,,,,,,,,,,,0,19,19,14,,,,,,,,,,,,,,,,,,,,,,,,,,,180,reward,,,,,,1179.1263137999922,1179.1263137999922,1179.1263137999922,1179.1263137999922,0,,,0,,,0,,,0,,,1179.7512948000804,1179.7512948000804,1179.7512948000804,1179.7512948000804,16,A,2024-04-23_14h35.20.098,attentional_competition_task,2022.2.4,144.0173044731411,
positions.xlsx,positions_test.xlsx,positions_test_new.xlsx,stimuli.xlsx,stimuli_new.xlsx,stimuli/Social1.png,stimuli/Social2.png,stimuli/Nonsocial1.png,stimuli/Nonsocial2.png,stimuli/Social3.png,stimuli/Social4.png,stimuli/Nonsocial3.png,stimuli/Nonsocial4.png,,,"(-0.7, -0.5)",cs_pos_s,"(-0.7, 0.5)",cs_neg_s,"(0.7, -0.5)",cs_pos_ns,"(0.7, 0.5)",cs_neg_ns,0,0,0,0,,,,,,,,,,,,,,,,,,,,,0,20,20,7,,,,,,,,,,,,,,,,,,,,,,,,,,,183,loss,,,,,,1188.0287399999797,1188.0287399999797,1188.0287399999797,1188.0287399999797,0,,,0,,,0,,,1,0.16643959982320666,0.17350419983267784,1188.2093783998862,1188.2093783998862,1188.2093783998862,1188.2093783998862,16,A,2024-04-23_14h35.20.098,attentional_competition_task,2022.2.4,144.0173044731411,
positions.xlsx,positions_test.xlsx,positions_test_new.xlsx,stimuli.xlsx,stimuli_new.xlsx,stimuli/Social1.png,stimuli/Social2.png,stimuli/Nonsocial1.png,stimuli/Nonsocial2.png,stimuli/Social3.png,stimuli/Social4.png,stimuli/Nonsocial3.png,stimuli/Nonsocial4.png,,,"(-0.7, -0.5)",cs_pos_s,"(-0.7, 0.5)",cs_neg_ns,"(0.7, -0.5)",cs_neg_s,"(0.7, 0.5)",cs_pos_ns,0,0,0,0,,,,,,,,,,,,,,,,,,,,,0,21,21,8,,,,,,,,,,,,,,,,,,,,,,,,,,,192,reward,,,,,,1196.3825860000215,1196.3825860000215,1196.3825860000215,1196.3825860000215,0,,,0,,,0,,,0,,,1197.2506148000248,1197.2506148000248,1197.2506148000248,1197.2506148000248,16,A,2024-04-23_14h35.20.098,attentional_competition_task,2022.2.4,144.0173044731411,
positions.xlsx,positions_test.xlsx,positions_test_new.xlsx,stimuli.xlsx,stimuli_new.xlsx,stimuli/Social1.png,stimuli/Social2.png,stimuli/Nonsocial1.png,stimuli/Nonsocial2.png,stimuli/Social3.png,stimuli/Social4.png,stimuli/Nonsocial3.png,stimuli/Nonsocial4.png,,,"(-0.7, -0.5)",cs_pos_ns,"(-0.7, 0.5)",cs_neg_s,"(0.7, -0.5)",cs_neg_ns,"(0.7, 0.5)",cs_pos_s,0,0,0,0,,,,,,,,,,,,,,,,,,,,,0,22,22,23,,,,,,,,,,,,,,,,,,,,,,,,,,,201,reward,,,,,,1205.0211768997833,1205.0211768997833,1205.0211768997833,1205.0211768997833,0,,,0,,,0,,,0,,,1205.923874899745,1205.923874899745,1205.923874899745,1205.923874899745,16,A,2024-04-23_14h35.20.098,attentional_competition_task,2022.2.4,144.0173044731411,
positions.xlsx,positions_test.xlsx,positions_test_new.xlsx,stimuli.xlsx,stimuli_new.xlsx,stimuli/Social1.png,stimuli/Social2.png,stimuli/Nonsocial1.png,stimuli/Nonsocial2.png,stimuli/Social3.png,stimuli/Social4.png,stimuli/Nonsocial3.png,stimuli/Nonsocial4.png,,,"(-0.7, -0.5)",cs_neg_ns,"(-0.7, 0.5)",cs_pos_ns,"(0.7, -0.5)",cs_neg_s,"(0.7, 0.5)",cs_pos_s,0,0,0,0,,,,,,,,,,,,,,,,,,,,,0,23,23,17,,,,,,,,,,,,,,,,,,,,,,,,,,,210,reward,,,,,,1214.0693485001102,1214.0693485001102,1214.0693485001102,1214.0693485001102,0,,,0,,,0,,,0,,,1215.076283399947,1215.076283399947,1215.076283399947,1215.076283399947,16,A,2024-04-23_14h35.20.098,attentional_competition_task,2022.2.4,144.0173044731411,
positions.xlsx,positions_test.xlsx,positions_test_new.xlsx,stimuli.xlsx,stimuli_new.xlsx,stimuli/Social1.png,stimuli/Social2.png,stimuli/Nonsocial1.png,stimuli/Nonsocial2.png,stimuli/Social3.png,stimuli/Social4.png,stimuli/Nonsocial3.png,stimuli/Nonsocial4.png,,,"(-0.7, -0.5)",cs_neg_s,"(-0.7, 0.5)",cs_pos_s,"(0.7, -0.5)",cs_neg_ns,"(0.7, 0.5)",cs_pos_ns,0,0,0,0,,,,,,,,,,,,,,,,,,,,,1,0,24,0,,,,,,,,,,,,,,,,,,,,,,,,,,,219,reward,,,,,,1222.2148647001013,1222.2148647001013,1222.2148647001013,1222.2148647001013,0,,,0,,,0,,,0,,,1223.360669199843,1223.360669199843,1223.360669199843,1223.360669199843,16,A,2024-04-23_14h35.20.098,attentional_competition_task,2022.2.4,144.0173044731411,
positions.xlsx,positions_test.xlsx,positions_test_new.xlsx,stimuli.xlsx,stimuli_new.xlsx,stimuli/Social1.png,stimuli/Social2.png,stimuli/Nonsocial1.png,stimuli/Nonsocial2.png,stimuli/Social3.png,stimuli/Social4.png,stimuli/Nonsocial3.png,stimuli/Nonsocial4.png,,,"(-0.7, -0.5)",cs_neg_ns,"(-0.7, 0.5)",cs_neg_s,"(0.7, -0.5)",cs_pos_s,"(0.7, 0.5)",cs_pos_ns,0,0,0,0,,,,,,,,,,,,,,,,,,,,,1,1,25,14,,,,,,,,,,,,,,,,,,,,,,,,,,,228,reward,,,,,,1230.3881505997851,1230.3881505997851,1230.3881505997851,1230.3881505997851,0,,,0,,,1,0.030097899958491325,0.0434536999091506,0,,,1231.3186988998204,1231.3186988998204,1231.3186988998204,1231.3186988998204,16,A,2024-04-23_14h35.20.098,attentional_competition_task,2022.2.4,144.0173044731411,
positions.xlsx,positions_test.xlsx,positions_test_new.xlsx,stimuli.xlsx,stimuli_new.xlsx,stimuli/Social1.png,stimuli/Social2.png,stimuli/Nonsocial1.png,stimuli/Nonsocial2.png,stimuli/Social3.png,stimuli/Social4.png,stimuli/Nonsocial3.png,stimuli/Nonsocial4.png,,,"(-0.7, -0.5)",cs_pos_s,"(-0.7, 0.5)",cs_neg_s,"(0.7, -0.5)",cs_pos_ns,"(0.7, 0.5)",cs_neg_ns,0,0,0,0,,,,,,,,,,,,,,,,,,,,,1,2,26,7,,,,,,,,,,,,,,,,,,,,,,,,,,,237,reward,,,,,,1238.8044841997325,1238.8044841997325,1238.8044841997325,1238.8044841997325,0,,,0,,,0,,,0,,,1239.707213500049,1239.707213500049,1239.707213500049,1239.707213500049,16,A,2024-04-23_14h35.20.098,attentional_competition_task,2022.2.4,144.0173044731411,
positions.xlsx,positions_test.xlsx,positions_test_new.xlsx,stimuli.xlsx,stimuli_new.xlsx,stimuli/Social1.png,stimuli/Social2.png,stimuli/Nonsocial1.png,stimuli/Nonsocial2.png,stimuli/Social3.png,stimuli/Social4.png,stimuli/Nonsocial3.png,stimuli/Nonsocial4.png,,,"(-0.7, -0.5)",cs_neg_s,"(-0.7, 0.5)",cs_pos_ns,"(0.7, -0.5)",cs_pos_s,"(0.7, 0.5)",cs_neg_ns,0,0,0,0,,,,,,,,,,,,,,,,,,,,,1,3,27,4,,,,,,,,,,,,,,,,,,,,,,,,,,,240,loss,,,,,,1247.5402174000628,1247.5402174000628,1247.5402174000628,1247.5402174000628,1,0.0246437001042068,0.024648200254887342,0,,,0,,,0,,,1247.5402174000628,1247.5402174000628,1247.5402174000628,1247.5402174000628,16,A,2024-04-23_14h35.20.098,attentional_competition_task,2022.2.4,144.0173044731411,
positions.xlsx,positions_test.xlsx,positions_test_new.xlsx,stimuli.xlsx,stimuli_new.xlsx,stimuli/Social1.png,stimuli/Social2.png,stimuli/Nonsocial1.png,stimuli/Nonsocial2.png,stimuli/Social3.png,stimuli/Social4.png,stimuli/Nonsocial3.png,stimuli/Nonsocial4.png,,,"(-0.7, -0.5)",cs_neg_s,"(-0.7, 0.5)",cs_pos_s,"(0.7, -0.5)",cs_pos_ns,"(0.7, 0.5)",cs_neg_ns,0,0,0,0,,,,,,,,,,,,,,,,,,,,,1,4,28,1,,,,,,,,,,,,,,,,,,,,,,,,,,,249,reward,,,,,,1256.4149357997812,1256.4149357997812,1256.4149357997812,1256.4149357997812,0,,,0,,,0,,,0,,,1257.3106959997676,1257.3106959997676,1257.3106959997676,1257.3106959997676,16,A,2024-04-23_14h35.20.098,attentional_competition_task,2022.2.4,144.0173044731411,
positions.xlsx,positions_test.xlsx,positions_test_new.xlsx,stimuli.xlsx,stimuli_new.xlsx,stimuli/Social1.png,stimuli/Social2.png,stimuli/Nonsocial1.png,stimuli/Nonsocial2.png,stimuli/Social3.png,stimuli/Social4.png,stimuli/Nonsocial3.png,stimuli/Nonsocial4.png,,,"(-0.7, -0.5)",cs_neg_s,"(-0.7, 0.5)",cs_neg_ns,"(0.7, -0.5)",cs_pos_s,"(0.7, 0.5)",cs_pos_ns,0,0,0,0,,,,,,,,,,,,,,,,,,,,,1,5,29,2,,,,,,,,,,,,,,,,,,,,,,,,,,,258,reward,,,,,,1265.1854078001343,1265.1854078001343,1265.1854078001343,1265.1854078001343,0,,,0,,,0,,,1,0.0314792999997735,0.0721379998140037,1266.1228561997414,1266.1228561997414,1266.1228561997414,1266.1228561997414,16,A,2024-04-23_14h35.20.098,attentional_competition_task,2022.2.4,144.0173044731411,
positions.xlsx,positions_test.xlsx,positions_test_new.xlsx,stimuli.xlsx,stimuli_new.xlsx,stimuli/Social1.png,stimuli/Social2.png,stimuli/Nonsocial1.png,stimuli/Nonsocial2.png,stimuli/Social3.png,stimuli/Social4.png,stimuli/Nonsocial3.png,stimuli/Nonsocial4.png,,,"(-0.7, -0.5)",cs_pos_s,"(-0.7, 0.5)",cs_neg_ns,"(0.7, -0.5)",cs_neg_s,"(0.7, 0.5)",cs_pos_ns,0,0,0,0,,,,,,,,,,,,,,,,,,,,,1,6,30,8,,,,,,,,,,,,,,,,,,,,,,,,,,,264,reward,,,,,,1274.6919382996857,1274.6919382996857,1274.6919382996857,1274.6919382996857,0,,,0,,,0,,,0,,,1274.6919382996857,1274.6919382996857,1274.6919382996857,1274.6919382996857,16,A,2024-04-23_14h35.20.098,attentional_competition_task,2022.2.4,144.0173044731411,
positions.xlsx,positions_test.xlsx,positions_test_new.xlsx,stimuli.xlsx,stimuli_new.xlsx,stimuli/Social1.png,stimuli/Social2.png,stimuli/Nonsocial1.png,stimuli/Nonsocial2.png,stimuli/Social3.png,stimuli/Social4.png,stimuli/Nonsocial3.png,stimuli/Nonsocial4.png,,,"(-0.7, -0.5)",cs_pos_ns,"(-0.7, 0.5)",cs_pos_s,"(0.7, -0.5)",cs_neg_s,"(0.7, 0.5)",cs_neg_ns,0,0,0,0,,,,,,,,,,,,,,,,,,,,,1,7,31,19,,,,,,,,,,,,,,,,,,,,,,,,,,,273,reward,,,,,,1281.7610574997962,1281.7610574997962,1281.7610574997962,1281.7610574997962,1,0.022505300119519234,0.2809283002279699,0,,,0,,,0,,,1282.7124485000968,1282.7124485000968,1282.7124485000968,1282.7124485000968,16,A,2024-04-23_14h35.20.098,attentional_competition_task,2022.2.4,144.0173044731411,
positions.xlsx,positions_test.xlsx,positions_test_new.xlsx,stimuli.xlsx,stimuli_new.xlsx,stimuli/Social1.png,stimuli/Social2.png,stimuli/Nonsocial1.png,stimuli/Nonsocial2.png,stimuli/Social3.png,stimuli/Social4.png,stimuli/Nonsocial3.png,stimuli/Nonsocial4.png,,,"(-0.7, -0.5)",cs_pos_ns,"(-0.7, 0.5)",cs_neg_s,"(0.7, -0.5)",cs_neg_ns,"(0.7, 0.5)",cs_pos_s,0,0,0,0,,,,,,,,,,,,,,,,,,,,,1,8,32,23,,,,,,,,,,,,,,,,,,,,,,,,,,,282,reward,,,,,,1291.0315219997428,1291.0315219997428,1291.0315219997428,1291.0315219997428,0,,,0,,,0,,,0,,,1292.038435800001,1292.038435800001,1292.038435800001,1292.038435800001,16,A,2024-04-23_14h35.20.098,attentional_competition_task,2022.2.4,144.0173044731411,
positions.xlsx,positions_test.xlsx,positions_test_new.xlsx,stimuli.xlsx,stimuli_new.xlsx,stimuli/Social1.png,stimuli/Social2.png,stimuli/Nonsocial1.png,stimuli/Nonsocial2.png,stimuli/Social3.png,stimuli/Social4.png,stimuli/Nonsocial3.png,stimuli/Nonsocial4.png,,,"(-0.7, -0.5)",cs_neg_ns,"(-0.7, 0.5)",cs_pos_ns,"(0.7, -0.5)",cs_pos_s,"(0.7, 0.5)",cs_neg_s,0,0,0,0,,,,,,,,,,,,,,,,,,,,,1,9,33,16,,,,,,,,,,,,,,,,,,,,,,,,,,,291,reward,,,,,,1299.1076507000253,1299.1076507000253,1299.1076507000253,1299.1076507000253,0,,,0,,,0,,,0,,,1300.0311741000041,1300.0311741000041,1300.0311741000041,1300.0311741000041,16,A,2024-04-23_14h35.20.098,attentional_competition_task,2022.2.4,144.0173044731411,
positions.xlsx,positions_test.xlsx,positions_test_new.xlsx,stimuli.xlsx,stimuli_new.xlsx,stimuli/Social1.png,stimuli/Social2.png,stimuli/Nonsocial1.png,stimuli/Nonsocial2.png,stimuli/Social3.png,stimuli/Social4.png,stimuli/Nonsocial3.png,stimuli/Nonsocial4.png,,,"(-0.7, -0.5)",cs_pos_ns,"(-0.7, 0.5)",cs_neg_s,"(0.7, -0.5)",cs_pos_s,"(0.7, 0.5)",cs_neg_ns,0,0,0,0,,,,,,,,,,,,,,,,,,,,,1,10,34,22,,,,,,,,,,,,,,,,,,,,,,,,,,,300,reward,,,,,,1306.9128336999565,1306.9128336999565,1306.9128336999565,1306.9128336999565,0,,,0,,,0,,,0,,,1307.8711490998976,1307.8711490998976,1307.8711490998976,1307.8711490998976,16,A,2024-04-23_14h35.20.098,attentional_competition_task,2022.2.4,144.0173044731411,
positions.xlsx,positions_test.xlsx,positions_test_new.xlsx,stimuli.xlsx,stimuli_new.xlsx,stimuli/Social1.png,stimuli/Social2.png,stimuli/Nonsocial1.png,stimuli/Nonsocial2.png,stimuli/Social3.png,stimuli/Social4.png,stimuli/Nonsocial3.png,stimuli/Nonsocial4.png,,,"(-0.7, -0.5)",cs_pos_s,"(-0.7, 0.5)",cs_pos_ns,"(0.7, -0.5)",cs_neg_ns,"(0.7, 0.5)",cs_neg_s,0,0,0,0,,,,,,,,,,,,,,,,,,,,,1,11,35,11,,,,,,,,,,,,,,,,,,,,,,,,,,,303,loss,,,,,,1315.6416748999618,1315.6416748999618,1315.6416748999618,1315.6416748999618,0,,,0,,,0,,,1,0.4275839999318123,0.42758759995922446,1316.0791747998446,1316.0791747998446,1316.0791747998446,1316.0791747998446,16,A,2024-04-23_14h35.20.098,attentional_competition_task,2022.2.4,144.0173044731411,
positions.xlsx,positions_test.xlsx,positions_test_new.xlsx,stimuli.xlsx,stimuli_new.xlsx,stimuli/Social1.png,stimuli/Social2.png,stimuli/Nonsocial1.png,stimuli/Nonsocial2.png,stimuli/Social3.png,stimuli/Social4.png,stimuli/Nonsocial3.png,stimuli/Nonsocial4.png,,,"(-0.7, -0.5)",cs_pos_s,"(-0.7, 0.5)",cs_pos_ns,"(0.7, -0.5)",cs_neg_s,"(0.7, 0.5)",cs_neg_ns,0,0,0,0,,,,,,,,,,,,,,,,,,,,,1,12,36,10,,,,,,,,,,,,,,,,,,,,,,,,,,,312,reward,,,,,,1324.183028999716,1324.183028999716,1324.183028999716,1324.183028999716,0,,,1,0.025502599775791168,0.05109729990363121,0,,,0,,,1324.8565809996799,1324.8565809996799,1324.8565809996799,1324.8565809996799,16,A,2024-04-23_14h35.20.098,attentional_competition_task,2022.2.4,144.0173044731411,
positions.xlsx,positions_test.xlsx,positions_test_new.xlsx,stimuli.xlsx,stimuli_new.xlsx,stimuli/Social1.png,stimuli/Social2.png,stimuli/Nonsocial1.png,stimuli/Nonsocial2.png,stimuli/Social3.png,stimuli/Social4.png,stimuli/Nonsocial3.png,stimuli/Nonsocial4.png,,,"(-0.7, -0.5)",cs_pos_s,"(-0.7, 0.5)",cs_neg_ns,"(0.7, -0.5)",cs_pos_ns,"(0.7, 0.5)",cs_neg_s,0,0,0,0,,,,,,,,,,,,,,,,,,,,,1,13,37,9,,,,,,,,,,,,,,,,,,,,,,,,,,,315,reward,,,,,,1333.1756802997552,1333.1756802997552,1333.1756802997552,1333.1756802997552,0,,,0,,,1,0.023232900071889162,0.02323670033365488,0,,,1333.1756802997552,1333.1756802997552,1333.1756802997552,1333.1756802997552,16,A,2024-04-23_14h35.20.098,attentional_competition_task,2022.2.4,144.0173044731411,
positions.xlsx,positions_test.xlsx,positions_test_new.xlsx,stimuli.xlsx,stimuli_new.xlsx,stimuli/Social1.png,stimuli/Social2.png,stimuli/Nonsocial1.png,stimuli/Nonsocial2.png,stimuli/Social3.png,stimuli/Social4.png,stimuli/Nonsocial3.png,stimuli/Nonsocial4.png,,,"(-0.7, -0.5)",cs_neg_ns,"(-0.7, 0.5)",cs_pos_ns,"(0.7, -0.5)",cs_neg_s,"(0.7, 0.5)",cs_pos_s,0,0,0,0,,,,,,,,,,,,,,,,,,,,,1,14,38,17,,,,,,,,,,,,,,,,,,,,,,,,,,,324,reward,,,,,,1340.8697953000665,1340.8697953000665,1340.8697953000665,1340.8697953000665,0,,,0,,,0,,,1,0.024849100038409233,0.2661287998780608,1341.807293599937,1341.807293599937,1341.807293599937,1341.807293599937,16,A,2024-04-23_14h35.20.098,attentional_competition_task,2022.2.4,144.0173044731411,
positions.xlsx,positions_test.xlsx,positions_test_new.xlsx,stimuli.xlsx,stimuli_new.xlsx,stimuli/Social1.png,stimuli/Social2.png,stimuli/Nonsocial1.png,stimuli/Nonsocial2.png,stimuli/Social3.png,stimuli/Social4.png,stimuli/Nonsocial3.png,stimuli/Nonsocial4.png,,,"(-0.7, -0.5)",cs_pos_s,"(-0.7, 0.5)",cs_neg_s,"(0.7, -0.5)",cs_neg_ns,"(0.7, 0.5)",cs_pos_ns,0,0,0,0,,,,,,,,,,,,,,,,,,,,,1,15,39,6,,,,,,,,,,,,,,,,,,,,,,,,,,,327,reward,,,,,,1349.0709224999882,1349.0709224999882,1349.0709224999882,1349.0709224999882,1,0.029498199932277203,0.029502499848604202,0,,,0,,,0,,,1349.0709224999882,1349.0709224999882,1349.0709224999882,1349.0709224999882,16,A,2024-04-23_14h35.20.098,attentional_competition_task,2022.2.4,144.0173044731411,
positions.xlsx,positions_test.xlsx,positions_test_new.xlsx,stimuli.xlsx,stimuli_new.xlsx,stimuli/Social1.png,stimuli/Social2.png,stimuli/Nonsocial1.png,stimuli/Nonsocial2.png,stimuli/Social3.png,stimuli/Social4.png,stimuli/Nonsocial3.png,stimuli/Nonsocial4.png,,,"(-0.7, -0.5)",cs_pos_ns,"(-0.7, 0.5)",cs_neg_ns,"(0.7, -0.5)",cs_pos_s,"(0.7, 0.5)",cs_neg_s,0,0,0,0,,,,,,,,,,,,,,,,,,,,,1,16,40,20,,,,,,,,,,,,,,,,,,,,,,,,,,,336,reward,,,,,,1356.7303710998967,1356.7303710998967,1356.7303710998967,1356.7303710998967,0,,,0,,,0,,,0,,,1357.626112099737,1357.626112099737,1357.626112099737,1357.626112099737,16,A,2024-04-23_14h35.20.098,attentional_competition_task,2022.2.4,144.0173044731411,
positions.xlsx,positions_test.xlsx,positions_test_new.xlsx,stimuli.xlsx,stimuli_new.xlsx,stimuli/Social1.png,stimuli/Social2.png,stimuli/Nonsocial1.png,stimuli/Nonsocial2.png,stimuli/Social3.png,stimuli/Social4.png,stimuli/Nonsocial3.png,stimuli/Nonsocial4.png,,,"(-0.7, -0.5)",cs_neg_ns,"(-0.7, 0.5)",cs_pos_s,"(0.7, -0.5)",cs_pos_ns,"(0.7, 0.5)",cs_neg_s,0,0,0,0,,,,,,,,,,,,,,,,,,,,,1,17,41,13,,,,,,,,,,,,,,,,,,,,,,,,,,,345,reward,,,,,,1365.6605006000027,1365.6605006000027,1365.6605006000027,1365.6605006000027,0,,,1,0.0230471002869308,0.26748469984158874,0,,,0,,,1366.5563238998875,1366.5563238998875,1366.5563238998875,1366.5563238998875,16,A,2024-04-23_14h35.20.098,attentional_competition_task,2022.2.4,144.0173044731411,
positions.xlsx,positions_test.xlsx,positions_test_new.xlsx,stimuli.xlsx,stimuli_new.xlsx,stimuli/Social1.png,stimuli/Social2.png,stimuli/Nonsocial1.png,stimuli/Nonsocial2.png,stimuli/Social3.png,stimuli/Social4.png,stimuli/Nonsocial3.png,stimuli/Nonsocial4.png,,,"(-0.7, -0.5)",cs_neg_s,"(-0.7, 0.5)",cs_pos_ns,"(0.7, -0.5)",cs_neg_ns,"(0.7, 0.5)",cs_pos_s,0,0,0,0,,,,,,,,,,,,,,,,,,,,,1,18,42,5,,,,,,,,,,,,,,,,,,,,,,,,,,,345,loss,,,,,,1375.1601224998012,1375.1601224998012,1375.1601224998012,1375.1601224998012,0,,,0,,,0,,,0,,,1375.1601224998012,1375.1601224998012,1375.1601224998012,1375.1601224998012,16,A,2024-04-23_14h35.20.098,attentional_competition_task,2022.2.4,144.0173044731411,
positions.xlsx,positions_test.xlsx,positions_test_new.xlsx,stimuli.xlsx,stimuli_new.xlsx,stimuli/Social1.png,stimuli/Social2.png,stimuli/Nonsocial1.png,stimuli/Nonsocial2.png,stimuli/Social3.png,stimuli/Social4.png,stimuli/Nonsocial3.png,stimuli/Nonsocial4.png,,,"(-0.7, -0.5)",cs_pos_ns,"(-0.7, 0.5)",cs_pos_s,"(0.7, -0.5)",cs_neg_ns,"(0.7, 0.5)",cs_neg_s,0,0,0,0,,,,,,,,,,,,,,,,,,,,,1,19,43,18,,,,,,,,,,,,,,,,,,,,,,,,,,,348,loss,,,,,,1382.4514947999269,1382.4514947999269,1382.4514947999269,1382.4514947999269,0,,,0,,,0,,,1,0.3500883001834154,0.3500919002108276,1383.2986873998307,1383.2986873998307,1383.2986873998307,1383.2986873998307,16,A,2024-04-23_14h35.20.098,attentional_competition_task,2022.2.4,144.0173044731411,
positions.xlsx,positions_test.xlsx,positions_test_new.xlsx,stimuli.xlsx,stimuli_new.xlsx,stimuli/Social1.png,stimuli/Social2.png,stimuli/Nonsocial1.png,stimuli/Nonsocial2.png,stimuli/Social3.png,stimuli/Social4.png,stimuli/Nonsocial3.png,stimuli/Nonsocial4.png,,,"(-0.7, -0.5)",cs_neg_ns,"(-0.7, 0.5)",cs_neg_s,"(0.7, -0.5)",cs_pos_ns,"(0.7, 0.5)",cs_pos_s,0,0,0,0,,,,,,,,,,,,,,,,,,,,,1,20,44,15,,,,,,,,,,,,,,,,,,,,,,,,,,,357,reward,,,,,,1391.26379599981,1391.26379599981,1391.26379599981,1391.26379599981,0,,,0,,,0,,,0,,,1392.083056899719,1392.083056899719,1392.083056899719,1392.083056899719,16,A,2024-04-23_14h35.20.098,attentional_competition_task,2022.2.4,144.0173044731411,
positions.xlsx,positions_test.xlsx,positions_test_new.xlsx,stimuli.xlsx,stimuli_new.xlsx,stimuli/Social1.png,stimuli/Social2.png,stimuli/Nonsocial1.png,stimuli/Nonsocial2.png,stimuli/Social3.png,stimuli/Social4.png,stimuli/Nonsocial3.png,stimuli/Nonsocial4.png,,,"(-0.7, -0.5)",cs_pos_ns,"(-0.7, 0.5)",cs_neg_ns,"(0.7, -0.5)",cs_neg_s,"(0.7, 0.5)",cs_pos_s,0,0,0,0,,,,,,,,,,,,,,,,,,,,,1,21,45,21,,,,,,,,,,,,,,,,,,,,,,,,,,,366,reward,,,,,,1399.1730093001388,1399.1730093001388,1399.1730093001388,1399.1730093001388,0,,,0,,,0,,,0,,,1400.0272041000426,1400.0272041000426,1400.0272041000426,1400.0272041000426,16,A,2024-04-23_14h35.20.098,attentional_competition_task,2022.2.4,144.0173044731411,
positions.xlsx,positions_test.xlsx,positions_test_new.xlsx,stimuli.xlsx,stimuli_new.xlsx,stimuli/Social1.png,stimuli/Social2.png,stimuli/Nonsocial1.png,stimuli/Nonsocial2.png,stimuli/Social3.png,stimuli/Social4.png,stimuli/Nonsocial3.png,stimuli/Nonsocial4.png,,,"(-0.7, -0.5)",cs_neg_s,"(-0.7, 0.5)",cs_neg_ns,"(0.7, -0.5)",cs_pos_ns,"(0.7, 0.5)",cs_pos_s,0,0,0,0,,,,,,,,,,,,,,,,,,,,,1,22,46,3,,,,,,,,,,,,,,,,,,,,,,,,,,,375,reward,,,,,,1408.5059887999669,1408.5059887999669,1408.5059887999669,1408.5059887999669,0,,,0,,,0,,,0,,,1409.1934817000292,1409.1934817000292,1409.1934817000292,1409.1934817000292,16,A,2024-04-23_14h35.20.098,attentional_competition_task,2022.2.4,144.0173044731411,
positions.xlsx,positions_test.xlsx,positions_test_new.xlsx,stimuli.xlsx,stimuli_new.xlsx,stimuli/Social1.png,stimuli/Social2.png,stimuli/Nonsocial1.png,stimuli/Nonsocial2.png,stimuli/Social3.png,stimuli/Social4.png,stimuli/Nonsocial3.png,stimuli/Nonsocial4.png,,,"(-0.7, -0.5)",cs_neg_ns,"(-0.7, 0.5)",cs_pos_s,"(0.7, -0.5)",cs_neg_s,"(0.7, 0.5)",cs_pos_ns,0,0,0,0,,,,,,,,,,,,,,,,,,,,,1,23,47,12,,,,,,,,,,,,,,,,,,,,,,,,,,,384,reward,,,,,,1417.7070273999125,1417.7070273999125,1417.7070273999125,1417.7070273999125,0,,,0,,,0,,,0,,,1418.6444727997296,1418.6444727997296,1418.6444727997296,1418.6444727997296,16,A,2024-04-23_14h35.20.098,attentional_competition_task,2022.2.4,144.0173044731411,
positions.xlsx,positions_test.xlsx,positions_test_new.xlsx,stimuli.xlsx,stimuli_new.xlsx,stimuli/Social1.png,stimuli/Social2.png,stimuli/Nonsocial1.png,stimuli/Nonsocial2.png,stimuli/Social3.png,stimuli/Social4.png,stimuli/Nonsocial3.png,stimuli/Nonsocial4.png,,,"(-0.7, -0.5)",cs_pos_ns,"(-0.7, 0.5)",cs_pos_s,"(0.7, -0.5)",cs_neg_ns,"(0.7, 0.5)",cs_neg_s_new,0,0,0,0,,,,,,,,,,,,,,,,,,,,,,,,,,,,,0,0,0,13,0,0,0,0,,,,,,,,,,,,,,,387,reward,,,,,,1425.3386629000306,1425.3386629000306,1425.3386629000306,1425.3386629000306,0,,,1,0.5645344997756183,0.5645384998060763,0,,,0,,,1425.9011578997597,1425.9011578997597,1425.9011578997597,1425.9011578997597,16,A,2024-04-23_14h35.20.098,attentional_competition_task,2022.2.4,144.0173044731411,
positions.xlsx,positions_test.xlsx,positions_test_new.xlsx,stimuli.xlsx,stimuli_new.xlsx,stimuli/Social1.png,stimuli/Social2.png,stimuli/Nonsocial1.png,stimuli/Nonsocial2.png,stimuli/Social3.png,stimuli/Social4.png,stimuli/Nonsocial3.png,stimuli/Nonsocial4.png,,,"(-0.7, -0.5)",cs_pos_ns,"(-0.7, 0.5)",cs_pos_s,"(0.7, -0.5)",cs_neg_ns,"(0.7, 0.5)",cs_neg_s_new,0,0,0,0,,,,,,,,,,,,,,,,,,,,,,,,,,,,,0,0,0,13,1,0,1,0,,,,,,,,,,,,,,,390,reward,,,,,,1426.4358473997563,1426.4358473997563,1426.4358473997563,1426.4358473997563,1,0.027958699967712164,0.027962499763816595,0,,,0,,,0,,,1426.4358473997563,1426.4358473997563,1426.4358473997563,1426.4358473997563,16,A,2024-04-23_14h35.20.098,attentional_competition_task,2022.2.4,144.0173044731411,
positions.xlsx,positions_test.xlsx,positions_test_new.xlsx,stimuli.xlsx,stimuli_new.xlsx,stimuli/Social1.png,stimuli/Social2.png,stimuli/Nonsocial1.png,stimuli/Nonsocial2.png,stimuli/Social3.png,stimuli/Social4.png,stimuli/Nonsocial3.png,stimuli/Nonsocial4.png,,,"(-0.7, -0.5)",cs_pos_ns,"(-0.7, 0.5)",cs_pos_s,"(0.7, -0.5)",cs_neg_ns,"(0.7, 0.5)",cs_neg_s_new,0,0,0,0,,,,,,,,,,,,,,,,,,,,,,,,,,,,,0,0,0,13,2,0,2,0,,,,,,,,,,,,,,,387,loss,,,,,,1426.9427732997574,1426.9427732997574,1426.9427732997574,1426.9427732997574,0,,,0,,,0,,,1,0.1651364997960627,0.16514009982347488,1427.1094038998708,1427.1094038998708,1427.1094038998708,1427.1094038998708,16,A,2024-04-23_14h35.20.098,attentional_competition_task,2022.2.4,144.0173044731411,
positions.xlsx,positions_test.xlsx,positions_test_new.xlsx,stimuli.xlsx,stimuli_new.xlsx,stimuli/Social1.png,stimuli/Social2.png,stimuli/Nonsocial1.png,stimuli/Nonsocial2.png,stimuli/Social3.png,stimuli/Social4.png,stimuli/Nonsocial3.png,stimuli/Nonsocial4.png,,,"(-0.7, -0.5)",cs_pos_ns,"(-0.7, 0.5)",cs_pos_s,"(0.7, -0.5)",cs_neg_ns,"(0.7, 0.5)",cs_neg_s_new,0,0,0,0,,,,,,,,,,,,,,,,,,,,,,,,,,,,,0,0,0,13,,,,,,,,,,,,,,,,,,,,,,,,,,,,,,,,,,,,,,,,,,,,,,16,A,2024-04-23_14h35.20.098,attentional_competition_task,2022.2.4,144.0173044731411,
positions.xlsx,positions_test.xlsx,positions_test_new.xlsx,stimuli.xlsx,stimuli_new.xlsx,stimuli/Social1.png,stimuli/Social2.png,stimuli/Nonsocial1.png,stimuli/Nonsocial2.png,stimuli/Social3.png,stimuli/Social4.png,stimuli/Nonsocial3.png,stimuli/Nonsocial4.png,,,"(-0.7, -0.5)",cs_neg_s,"(-0.7, 0.5)",cs_pos_s,"(0.7, -0.5)",cs_pos_ns_new,"(0.7, 0.5)",cs_neg_ns,0,0,0,0,,,,,,,,,,,,,,,,,,,,,,,,,,,,,0,1,1,45,0,0,0,0,,,,,,,,,,,,,,,390,reward,,,,,,1434.1647159000859,1434.1647159000859,1434.1647159000859,1434.1647159000859,0,,,0,,,1,0.8284402997232974,0.8284442997537553,0,,,1434.9980170000345,1434.9980170000345,1434.9980170000345,1434.9980170000345,16,A,2024-04-23_14h35.20.098,attentional_competition_task,2022.2.4,144.0173044731411,
positions.xlsx,positions_test.xlsx,positions_test_new.xlsx,stimuli.xlsx,stimuli_new.xlsx,stimuli/Social1.png,stimuli/Social2.png,stimuli/Nonsocial1.png,stimuli/Nonsocial2.png,stimuli/Social3.png,stimuli/Social4.png,stimuli/Nonsocial3.png,stimuli/Nonsocial4.png,,,"(-0.7, -0.5)",cs_neg_s,"(-0.7, 0.5)",cs_pos_s,"(0.7, -0.5)",cs_pos_ns_new,"(0.7, 0.5)",cs_neg_ns,0,0,0,0,,,,,,,,,,,,,,,,,,,,,,,,,,,,,0,1,1,45,1,0,1,0,,,,,,,,,,,,,,,393,reward,,,,,,1435.5049132998101,1435.5049132998101,1435.5049132998101,1435.5049132998101,0,,,1,0.23856489965692163,0.2385684996843338,0,,,0,,,1435.7410560999997,1435.7410560999997,1435.7410560999997,1435.7410560999997,16,A,2024-04-23_14h35.20.098,attentional_competition_task,2022.2.4,144.0173044731411,
positions.xlsx,positions_test.xlsx,positions_test_new.xlsx,stimuli.xlsx,stimuli_new.xlsx,stimuli/Social1.png,stimuli/Social2.png,stimuli/Nonsocial1.png,stimuli/Nonsocial2.png,stimuli/Social3.png,stimuli/Social4.png,stimuli/Nonsocial3.png,stimuli/Nonsocial4.png,,,"(-0.7, -0.5)",cs_neg_s,"(-0.7, 0.5)",cs_pos_s,"(0.7, -0.5)",cs_pos_ns_new,"(0.7, 0.5)",cs_neg_ns,0,0,0,0,,,,,,,,,,,,,,,,,,,,,,,,,,,,,0,1,1,45,,,,,,,,,,,,,,,,,,,,,,,,,,,,,,,,,,,,,,,,,,,,,,16,A,2024-04-23_14h35.20.098,attentional_competition_task,2022.2.4,144.0173044731411,
positions.xlsx,positions_test.xlsx,positions_test_new.xlsx,stimuli.xlsx,stimuli_new.xlsx,stimuli/Social1.png,stimuli/Social2.png,stimuli/Nonsocial1.png,stimuli/Nonsocial2.png,stimuli/Social3.png,stimuli/Social4.png,stimuli/Nonsocial3.png,stimuli/Nonsocial4.png,,,"(-0.7, -0.5)",cs_pos_s,"(-0.7, 0.5)",cs_neg_ns,"(0.7, -0.5)",cs_pos_ns,"(0.7, 0.5)",cs_neg_s,0,0,0,0,,,,,,,,,,,,,,,,,,,,,,,,,,,,,0,2,2,0,0,0,0,0,,,,,,,,,,,,,,,396,reward,,,,,,1442.8935051998124,1442.8935051998124,1442.8935051998124,1442.8935051998124,0,,,0,,,1,0.49492349987849593,0.49492699978873134,0,,,1443.4004283999093,1443.4004283999093,1443.4004283999093,1443.4004283999093,16,A,2024-04-23_14h35.20.098,attentional_competition_task,2022.2.4,144.0173044731411,
positions.xlsx,positions_test.xlsx,positions_test_new.xlsx,stimuli.xlsx,stimuli_new.xlsx,stimuli/Social1.png,stimuli/Social2.png,stimuli/Nonsocial1.png,stimuli/Nonsocial2.png,stimuli/Social3.png,stimuli/Social4.png,stimuli/Nonsocial3.png,stimuli/Nonsocial4.png,,,"(-0.7, -0.5)",cs_pos_s,"(-0.7, 0.5)",cs_neg_ns,"(0.7, -0.5)",cs_pos_ns,"(0.7, 0.5)",cs_neg_s,0,0,0,0,,,,,,,,,,,,,,,,,,,,,,,,,,,,,0,2,2,0,1,0,1,0,,,,,,,,,,,,,,,393,loss,,,,,,1443.9003912000917,1443.9003912000917,1443.9003912000917,1443.9003912000917,0,,,1,0.037662300281226635,0.03766580019146204,0,,,0,,,1443.935176699888,1443.935176699888,1443.935176699888,1443.935176699888,16,A,2024-04-23_14h35.20.098,attentional_competition_task,2022.2.4,144.0173044731411,
positions.xlsx,positions_test.xlsx,positions_test_new.xlsx,stimuli.xlsx,stimuli_new.xlsx,stimuli/Social1.png,stimuli/Social2.png,stimuli/Nonsocial1.png,stimuli/Nonsocial2.png,stimuli/Social3.png,stimuli/Social4.png,stimuli/Nonsocial3.png,stimuli/Nonsocial4.png,,,"(-0.7, -0.5)",cs_pos_s,"(-0.7, 0.5)",cs_neg_ns,"(0.7, -0.5)",cs_pos_ns,"(0.7, 0.5)",cs_neg_s,0,0,0,0,,,,,,,,,,,,,,,,,,,,,,,,,,,,,0,2,2,0,2,0,2,0,,,,,,,,,,,,,,,396,reward,,,,,,1444.4421290997416,1444.4421290997416,1444.4421290997416,1444.4421290997416,1,0.27365759992972016,0.2736609997227788,1,0.024055299814790487,0.2599624996073544,0,,,0,,,1444.7198359998874,1444.7198359998874,1444.7198359998874,1444.7198359998874,16,A,2024-04-23_14h35.20.098,attentional_competition_task,2022.2.4,144.0173044731411,
positions.xlsx,positions_test.xlsx,positions_test_new.xlsx,stimuli.xlsx,stimuli_new.xlsx,stimuli/Social1.png,stimuli/Social2.png,stimuli/Nonsocial1.png,stimuli/Nonsocial2.png,stimuli/Social3.png,stimuli/Social4.png,stimuli/Nonsocial3.png,stimuli/Nonsocial4.png,,,"(-0.7, -0.5)",cs_pos_s,"(-0.7, 0.5)",cs_neg_ns,"(0.7, -0.5)",cs_pos_ns,"(0.7, 0.5)",cs_neg_s,0,0,0,0,,,,,,,,,,,,,,,,,,,,,,,,,,,,,0,2,2,0,,,,,,,,,,,,,,,,,,,,,,,,,,,,,,,,,,,,,,,,,,,,,,16,A,2024-04-23_14h35.20.098,attentional_competition_task,2022.2.4,144.0173044731411,
positions.xlsx,positions_test.xlsx,positions_test_new.xlsx,stimuli.xlsx,stimuli_new.xlsx,stimuli/Social1.png,stimuli/Social2.png,stimuli/Nonsocial1.png,stimuli/Nonsocial2.png,stimuli/Social3.png,stimuli/Social4.png,stimuli/Nonsocial3.png,stimuli/Nonsocial4.png,,,"(-0.7, -0.5)",cs_neg_ns_new,"(-0.7, 0.5)",cs_neg_s,"(0.7, -0.5)",cs_pos_s,"(0.7, 0.5)",cs_pos_ns,0,0,0,0,,,,,,,,,,,,,,,,,,,,,,,,,,,,,0,3,3,22,0,0,0,0,,,,,,,,,,,,,,,393,loss,,,,,,1451.2959972997196,1451.2959972997196,1451.2959972997196,1451.2959972997196,1,0.6615610001608729,0.6615645997226238,0,,,0,,,0,,,1451.9625534997322,1451.9625534997322,1451.9625534997322,1451.9625534997322,16,A,2024-04-23_14h35.20.098,attentional_competition_task,2022.2.4,144.0173044731411,
positions.xlsx,positions_test.xlsx,positions_test_new.xlsx,stimuli.xlsx,stimuli_new.xlsx,stimuli/Social1.png,stimuli/Social2.png,stimuli/Nonsocial1.png,stimuli/Nonsocial2.png,stimuli/Social3.png,stimuli/Social4.png,stimuli/Nonsocial3.png,stimuli/Nonsocial4.png,,,"(-0.7, -0.5)",cs_neg_ns_new,"(-0.7, 0.5)",cs_neg_s,"(0.7, -0.5)",cs_pos_s,"(0.7, 0.5)",cs_pos_ns,0,0,0,0,,,,,,,,,,,,,,,,,,,,,,,,,,,,,0,3,3,22,1,0,1,0,,,,,,,,,,,,,,,390,loss,,,,,,1452.490367999766,1452.490367999766,1452.490367999766,1452.490367999766,0,,,1,0.03010139986872673,0.030104900244623423,0,,,0,,,1452.490367999766,1452.490367999766,1452.490367999766,1452.490367999766,16,A,2024-04-23_14h35.20.098,attentional_competition_task,2022.2.4,144.0173044731411,
positions.xlsx,positions_test.xlsx,positions_test_new.xlsx,stimuli.xlsx,stimuli_new.xlsx,stimuli/Social1.png,stimuli/Social2.png,stimuli/Nonsocial1.png,stimuli/Nonsocial2.png,stimuli/Social3.png,stimuli/Social4.png,stimuli/Nonsocial3.png,stimuli/Nonsocial4.png,,,"(-0.7, -0.5)",cs_neg_ns_new,"(-0.7, 0.5)",cs_neg_s,"(0.7, -0.5)",cs_pos_s,"(0.7, 0.5)",cs_pos_ns,0,0,0,0,,,,,,,,,,,,,,,,,,,,,,,,,,,,,0,3,3,22,2,0,2,0,,,,,,,,,,,,,,,393,reward,,,,,,1453.0319819999859,1453.0319819999859,1453.0319819999859,1453.0319819999859,0,,,0,,,1,0.030613699927926064,0.030617999844253063,0,,,1453.0319819999859,1453.0319819999859,1453.0319819999859,1453.0319819999859,16,A,2024-04-23_14h35.20.098,attentional_competition_task,2022.2.4,144.0173044731411,
positions.xlsx,positions_test.xlsx,positions_test_new.xlsx,stimuli.xlsx,stimuli_new.xlsx,stimuli/Social1.png,stimuli/Social2.png,stimuli/Nonsocial1.png,stimuli/Nonsocial2.png,stimuli/Social3.png,stimuli/Social4.png,stimuli/Nonsocial3.png,stimuli/Nonsocial4.png,,,"(-0.7, -0.5)",cs_neg_ns_new,"(-0.7, 0.5)",cs_neg_s,"(0.7, -0.5)",cs_pos_s,"(0.7, 0.5)",cs_pos_ns,0,0,0,0,,,,,,,,,,,,,,,,,,,,,,,,,,,,,0,3,3,22,,,,,,,,,,,,,,,,,,,,,,,,,,,,,,,,,,,,,,,,,,,,,,16,A,2024-04-23_14h35.20.098,attentional_competition_task,2022.2.4,144.0173044731411,
positions.xlsx,positions_test.xlsx,positions_test_new.xlsx,stimuli.xlsx,stimuli_new.xlsx,stimuli/Social1.png,stimuli/Social2.png,stimuli/Nonsocial1.png,stimuli/Nonsocial2.png,stimuli/Social3.png,stimuli/Social4.png,stimuli/Nonsocial3.png,stimuli/Nonsocial4.png,,,"(-0.7, -0.5)",cs_pos_ns,"(-0.7, 0.5)",cs_neg_s_new,"(0.7, -0.5)",cs_neg_ns,"(0.7, 0.5)",cs_pos_s,0,0,0,0,,,,,,,,,,,,,,,,,,,,,,,,,,,,,0,4,4,14,0,0,0,0,,,,,,,,,,,,,,,396,reward,,,,,,1460.3789006001316,1460.3789006001316,1460.3789006001316,1460.3789006001316,0,,,0,,,0,,,1,0.3359444001689553,0.33594790007919073,1460.7191870999523,1460.7191870999523,1460.7191870999523,1460.7191870999523,16,A,2024-04-23_14h35.20.098,attentional_competition_task,2022.2.4,144.0173044731411,
positions.xlsx,positions_test.xlsx,positions_test_new.xlsx,stimuli.xlsx,stimuli_new.xlsx,stimuli/Social1.png,stimuli/Social2.png,stimuli/Nonsocial1.png,stimuli/Nonsocial2.png,stimuli/Social3.png,stimuli/Social4.png,stimuli/Nonsocial3.png,stimuli/Nonsocial4.png,,,"(-0.7, -0.5)",cs_pos_ns,"(-0.7, 0.5)",cs_neg_s_new,"(0.7, -0.5)",cs_neg_ns,"(0.7, 0.5)",cs_pos_s,0,0,0,0,,,,,,,,,,,,,,,,,,,,,,,,,,,,,0,4,4,14,1,0,1,0,,,,,,,,,,,,,,,393,loss,,,,,,1461.2539210999385,1461.2539210999385,1461.2539210999385,1461.2539210999385,0,,,0,,,1,0.030969100072979927,0.030973299872130156,0,,,1461.2539210999385,1461.2539210999385,1461.2539210999385,1461.2539210999385,16,A,2024-04-23_14h35.20.098,attentional_competition_task,2022.2.4,144.0173044731411,
positions.xlsx,positions_test.xlsx,positions_test_new.xlsx,stimuli.xlsx,stimuli_new.xlsx,stimuli/Social1.png,stimuli/Social2.png,stimuli/Nonsocial1.png,stimuli/Nonsocial2.png,stimuli/Social3.png,stimuli/Social4.png,stimuli/Nonsocial3.png,stimuli/Nonsocial4.png,,,"(-0.7, -0.5)",cs_pos_ns,"(-0.7, 0.5)",cs_neg_s_new,"(0.7, -0.5)",cs_neg_ns,"(0.7, 0.5)",cs_pos_s,0,0,0,0,,,,,,,,,,,,,,,,,,,,,,,,,,,,,0,4,4,14,2,0,2,0,,,,,,,,,,,,,,,390,loss,,,,,,1461.7885754997842,1461.7885754997842,1461.7885754997842,1461.7885754997842,0,,,1,0.031114600133150816,0.031118399929255247,0,,,0,,,1461.7885754997842,1461.7885754997842,1461.7885754997842,1461.7885754997842,16,A,2024-04-23_14h35.20.098,attentional_competition_task,2022.2.4,144.0173044731411,
positions.xlsx,positions_test.xlsx,positions_test_new.xlsx,stimuli.xlsx,stimuli_new.xlsx,stimuli/Social1.png,stimuli/Social2.png,stimuli/Nonsocial1.png,stimuli/Nonsocial2.png,stimuli/Social3.png,stimuli/Social4.png,stimuli/Nonsocial3.png,stimuli/Nonsocial4.png,,,"(-0.7, -0.5)",cs_pos_ns,"(-0.7, 0.5)",cs_neg_s_new,"(0.7, -0.5)",cs_neg_ns,"(0.7, 0.5)",cs_pos_s,0,0,0,0,,,,,,,,,,,,,,,,,,,,,,,,,,,,,0,4,4,14,3,0,3,0,,,,,,,,,,,,,,,393,reward,,,,,,1462.2886349000037,1462.2886349000037,1462.2886349000037,1462.2886349000037,1,0.028263199608772993,0.03775199968367815,0,,,0,,,0,,,1462.3302334998734,1462.3302334998734,1462.3302334998734,1462.3302334998734,16,A,2024-04-23_14h35.20.098,attentional_competition_task,2022.2.4,144.0173044731411,
positions.xlsx,positions_test.xlsx,positions_test_new.xlsx,stimuli.xlsx,stimuli_new.xlsx,stimuli/Social1.png,stimuli/Social2.png,stimuli/Nonsocial1.png,stimuli/Nonsocial2.png,stimuli/Social3.png,stimuli/Social4.png,stimuli/Nonsocial3.png,stimuli/Nonsocial4.png,,,"(-0.7, -0.5)",cs_pos_ns,"(-0.7, 0.5)",cs_neg_s_new,"(0.7, -0.5)",cs_neg_ns,"(0.7, 0.5)",cs_pos_s,0,0,0,0,,,,,,,,,,,,,,,,,,,,,,,,,,,,,0,4,4,14,,,,,,,,,,,,,,,,,,,,,,,,,,,,,,,,,,,,,,,,,,,,,,16,A,2024-04-23_14h35.20.098,attentional_competition_task,2022.2.4,144.0173044731411,
positions.xlsx,positions_test.xlsx,positions_test_new.xlsx,stimuli.xlsx,stimuli_new.xlsx,stimuli/Social1.png,stimuli/Social2.png,stimuli/Nonsocial1.png,stimuli/Nonsocial2.png,stimuli/Social3.png,stimuli/Social4.png,stimuli/Nonsocial3.png,stimuli/Nonsocial4.png,,,"(-0.7, -0.5)",cs_pos_s,"(-0.7, 0.5)",cs_neg_ns,"(0.7, -0.5)",cs_pos_ns,"(0.7, 0.5)",cs_neg_s_new,0,0,0,0,,,,,,,,,,,,,,,,,,,,,,,,,,,,,0,5,5,12,0,0,0,0,,,,,,,,,,,,,,,390,loss,,,,,,1468.9827350997366,1468.9827350997366,1468.9827350997366,1468.9827350997366,0,,,0,,,0,,,1,0.4888277002610266,0.4888316001743078,1469.4757563997991,1469.4757563997991,1469.4757563997991,1469.4757563997991,16,A,2024-04-23_14h35.20.098,attentional_competition_task,2022.2.4,144.0173044731411,
positions.xlsx,positions_test.xlsx,positions_test_new.xlsx,stimuli.xlsx,stimuli_new.xlsx,stimuli/Social1.png,stimuli/Social2.png,stimuli/Nonsocial1.png,stimuli/Nonsocial2.png,stimuli/Social3.png,stimuli/Social4.png,stimuli/Nonsocial3.png,stimuli/Nonsocial4.png,,,"(-0.7, -0.5)",cs_pos_s,"(-0.7, 0.5)",cs_neg_ns,"(0.7, -0.5)",cs_pos_ns,"(0.7, 0.5)",cs_neg_s_new,0,0,0,0,,,,,,,,,,,,,,,,,,,,,,,,,,,,,0,5,5,12,1,0,1,0,,,,,,,,,,,,,,,393,reward,,,,,,1470.0104745998979,1470.0104745998979,1470.0104745998979,1470.0104745998979,1,0.02993529988452792,0.029938899911940098,0,,,0,,,0,,,1470.0104745998979,1470.0104745998979,1470.0104745998979,1470.0104745998979,16,A,2024-04-23_14h35.20.098,attentional_competition_task,2022.2.4,144.0173044731411,
positions.xlsx,positions_test.xlsx,positions_test_new.xlsx,stimuli.xlsx,stimuli_new.xlsx,stimuli/Social1.png,stimuli/Social2.png,stimuli/Nonsocial1.png,stimuli/Nonsocial2.png,stimuli/Social3.png,stimuli/Social4.png,stimuli/Nonsocial3.png,stimuli/Nonsocial4.png,,,"(-0.7, -0.5)",cs_pos_s,"(-0.7, 0.5)",cs_neg_ns,"(0.7, -0.5)",cs_pos_ns,"(0.7, 0.5)",cs_neg_s_new,0,0,0,0,,,,,,,,,,,,,,,,,,,,,,,,,,,,,0,5,5,12,2,0,2,0,,,,,,,,,,,,,,,396,reward,,,,,,1470.545215500053,1470.545215500053,1470.545215500053,1470.545215500053,0,,,0,,,1,0.029790100175887346,0.02979400008916855,0,,,1470.545215500053,1470.545215500053,1470.545215500053,1470.545215500053,16,A,2024-04-23_14h35.20.098,attentional_competition_task,2022.2.4,144.0173044731411,
positions.xlsx,positions_test.xlsx,positions_test_new.xlsx,stimuli.xlsx,stimuli_new.xlsx,stimuli/Social1.png,stimuli/Social2.png,stimuli/Nonsocial1.png,stimuli/Nonsocial2.png,stimuli/Social3.png,stimuli/Social4.png,stimuli/Nonsocial3.png,stimuli/Nonsocial4.png,,,"(-0.7, -0.5)",cs_pos_s,"(-0.7, 0.5)",cs_neg_ns,"(0.7, -0.5)",cs_pos_ns,"(0.7, 0.5)",cs_neg_s_new,0,0,0,0,,,,,,,,,,,,,,,,,,,,,,,,,,,,,0,5,5,12,,,,,,,,,,,,,,,,,,,,,,,,,,,,,,,,,,,,,,,,,,,,,,16,A,2024-04-23_14h35.20.098,attentional_competition_task,2022.2.4,144.0173044731411,
positions.xlsx,positions_test.xlsx,positions_test_new.xlsx,stimuli.xlsx,stimuli_new.xlsx,stimuli/Social1.png,stimuli/Social2.png,stimuli/Nonsocial1.png,stimuli/Nonsocial2.png,stimuli/Social3.png,stimuli/Social4.png,stimuli/Nonsocial3.png,stimuli/Nonsocial4.png,,,"(-0.7, -0.5)",cs_pos_s,"(-0.7, 0.5)",cs_neg_s,"(0.7, -0.5)",cs_pos_ns,"(0.7, 0.5)",cs_neg_ns_new,0,0,0,0,,,,,,,,,,,,,,,,,,,,,,,,,,,,,0,6,6,26,0,0,0,0,,,,,,,,,,,,,,,399,reward,,,,,,1477.7324274997227,1477.7324274997227,1477.7324274997227,1477.7324274997227,1,0.530039600096643,0.5364941000007093,0,,,0,,,0,,,1478.2740545999259,1478.2740545999259,1478.2740545999259,1478.2740545999259,16,A,2024-04-23_14h35.20.098,attentional_competition_task,2022.2.4,144.0173044731411,
positions.xlsx,positions_test.xlsx,positions_test_new.xlsx,stimuli.xlsx,stimuli_new.xlsx,stimuli/Social1.png,stimuli/Social2.png,stimuli/Nonsocial1.png,stimuli/Nonsocial2.png,stimuli/Social3.png,stimuli/Social4.png,stimuli/Nonsocial3.png,stimuli/Nonsocial4.png,,,"(-0.7, -0.5)",cs_pos_s,"(-0.7, 0.5)",cs_neg_s,"(0.7, -0.5)",cs_pos_ns,"(0.7, 0.5)",cs_neg_ns_new,0,0,0,0,,,,,,,,,,,,,,,,,,,,,,,,,,,,,0,6,6,26,1,0,1,0,,,,,,,,,,,,,,,402,reward,,,,,,1478.8087313999422,1478.8087313999422,1478.8087313999422,1478.8087313999422,0,,,0,,,1,0.030902499798685312,0.030905999708920717,0,,,1478.8087313999422,1478.8087313999422,1478.8087313999422,1478.8087313999422,16,A,2024-04-23_14h35.20.098,attentional_competition_task,2022.2.4,144.0173044731411,
positions.xlsx,positions_test.xlsx,positions_test_new.xlsx,stimuli.xlsx,stimuli_new.xlsx,stimuli/Social1.png,stimuli/Social2.png,stimuli/Nonsocial1.png,stimuli/Nonsocial2.png,stimuli/Social3.png,stimuli/Social4.png,stimuli/Nonsocial3.png,stimuli/Nonsocial4.png,,,"(-0.7, -0.5)",cs_pos_s,"(-0.7, 0.5)",cs_neg_s,"(0.7, -0.5)",cs_pos_ns,"(0.7, 0.5)",cs_neg_ns_new,0,0,0,0,,,,,,,,,,,,,,,,,,,,,,,,,,,,,0,6,6,26,2,0,2,0,,,,,,,,,,,,,,,405,reward,,,,,,1479.3156408998184,1479.3156408998184,1479.3156408998184,1479.3156408998184,0,,,0,,,0,,,0,,,1480.2392974998802,1480.2392974998802,1480.2392974998802,1480.2392974998802,16,A,2024-04-23_14h35.20.098,attentional_competition_task,2022.2.4,144.0173044731411,
positions.xlsx,positions_test.xlsx,positions_test_new.xlsx,stimuli.xlsx,stimuli_new.xlsx,stimuli/Social1.png,stimuli/Social2.png,stimuli/Nonsocial1.png,stimuli/Nonsocial2.png,stimuli/Social3.png,stimuli/Social4.png,stimuli/Nonsocial3.png,stimuli/Nonsocial4.png,,,"(-0.7, -0.5)",cs_pos_s,"(-0.7, 0.5)",cs_neg_s,"(0.7, -0.5)",cs_pos_ns,"(0.7, 0.5)",cs_neg_ns_new,0,0,0,0,,,,,,,,,,,,,,,,,,,,,,,,,,,,,0,6,6,26,,,,,,,,,,,,,,,,,,,,,,,,,,,,,,,,,,,,,,,,,,,,,,16,A,2024-04-23_14h35.20.098,attentional_competition_task,2022.2.4,144.0173044731411,
positions.xlsx,positions_test.xlsx,positions_test_new.xlsx,stimuli.xlsx,stimuli_new.xlsx,stimuli/Social1.png,stimuli/Social2.png,stimuli/Nonsocial1.png,stimuli/Nonsocial2.png,stimuli/Social3.png,stimuli/Social4.png,stimuli/Nonsocial3.png,stimuli/Nonsocial4.png,,,"(-0.7, -0.5)",cs_pos_s_new,"(-0.7, 0.5)",cs_neg_ns,"(0.7, -0.5)",cs_neg_s,"(0.7, 0.5)",cs_pos_ns,0,0,0,0,,,,,,,,,,,,,,,,,,,,,,,,,,,,,0,7,7,33,0,0,0,0,,,,,,,,,,,,,,,402,loss,,,,,,1485.6487978999503,1485.6487978999503,1485.6487978999503,1485.6487978999503,0,,,0,,,1,0.48815679969266057,0.49548229994252324,0,,,1486.1487715998664,1486.1487715998664,1486.1487715998664,1486.1487715998664,16,A,2024-04-23_14h35.20.098,attentional_competition_task,2022.2.4,144.0173044731411,
positions.xlsx,positions_test.xlsx,positions_test_new.xlsx,stimuli.xlsx,stimuli_new.xlsx,stimuli/Social1.png,stimuli/Social2.png,stimuli/Nonsocial1.png,stimuli/Nonsocial2.png,stimuli/Social3.png,stimuli/Social4.png,stimuli/Nonsocial3.png,stimuli/Nonsocial4.png,,,"(-0.7, -0.5)",cs_pos_s_new,"(-0.7, 0.5)",cs_neg_ns,"(0.7, -0.5)",cs_neg_s,"(0.7, 0.5)",cs_pos_ns,0,0,0,0,,,,,,,,,,,,,,,,,,,,,,,,,,,,,0,7,7,33,1,0,1,0,,,,,,,,,,,,,,,405,reward,,,,,,1486.6834998996928,1486.6834998996928,1486.6834998996928,1486.6834998996928,1,0.03235829994082451,0.03236249973997474,0,,,0,,,0,,,1486.6834998996928,1486.6834998996928,1486.6834998996928,1486.6834998996928,16,A,2024-04-23_14h35.20.098,attentional_competition_task,2022.2.4,144.0173044731411,
positions.xlsx,positions_test.xlsx,positions_test_new.xlsx,stimuli.xlsx,stimuli_new.xlsx,stimuli/Social1.png,stimuli/Social2.png,stimuli/Nonsocial1.png,stimuli/Nonsocial2.png,stimuli/Social3.png,stimuli/Social4.png,stimuli/Nonsocial3.png,stimuli/Nonsocial4.png,,,"(-0.7, -0.5)",cs_pos_s_new,"(-0.7, 0.5)",cs_neg_ns,"(0.7, -0.5)",cs_neg_s,"(0.7, 0.5)",cs_pos_ns,0,0,0,0,,,,,,,,,,,,,,,,,,,,,,,,,,,,,0,7,7,33,2,0,2,0,,,,,,,,,,,,,,,408,reward,,,,,,1487.2111835000105,1487.2111835000105,1487.2111835000105,1487.2111835000105,0,,,0,,,0,,,1,0.027540199924260378,0.027543699834495783,1487.2111835000105,1487.2111835000105,1487.2111835000105,1487.2111835000105,16,A,2024-04-23_14h35.20.098,attentional_competition_task,2022.2.4,144.0173044731411,
positions.xlsx,positions_test.xlsx,positions_test_new.xlsx,stimuli.xlsx,stimuli_new.xlsx,stimuli/Social1.png,stimuli/Social2.png,stimuli/Nonsocial1.png,stimuli/Nonsocial2.png,stimuli/Social3.png,stimuli/Social4.png,stimuli/Nonsocial3.png,stimuli/Nonsocial4.png,,,"(-0.7, -0.5)",cs_pos_s_new,"(-0.7, 0.5)",cs_neg_ns,"(0.7, -0.5)",cs_neg_s,"(0.7, 0.5)",cs_pos_ns,0,0,0,0,,,,,,,,,,,,,,,,,,,,,,,,,,,,,0,7,7,33,,,,,,,,,,,,,,,,,,,,,,,,,,,,,,,,,,,,,,,,,,,,,,16,A,2024-04-23_14h35.20.098,attentional_competition_task,2022.2.4,144.0173044731411,
positions.xlsx,positions_test.xlsx,positions_test_new.xlsx,stimuli.xlsx,stimuli_new.xlsx,stimuli/Social1.png,stimuli/Social2.png,stimuli/Nonsocial1.png,stimuli/Nonsocial2.png,stimuli/Social3.png,stimuli/Social4.png,stimuli/Nonsocial3.png,stimuli/Nonsocial4.png,,,"(-0.7, -0.5)",cs_neg_s,"(-0.7, 0.5)",cs_pos_s,"(0.7, -0.5)",cs_neg_ns,"(0.7, 0.5)",cs_pos_ns,0,0,0,0,,,,,,,,,,,,,,,,,,,,,,,,,,,,,0,8,8,5,0,0,0,0,,,,,,,,,,,,,,,411,reward,,,,,,1493.7873046998866,1493.7873046998866,1493.7873046998866,1493.7873046998866,0,,,0,,,0,,,1,0.6344436998479068,0.6344473999924958,1494.426185300108,1494.426185300108,1494.426185300108,1494.426185300108,16,A,2024-04-23_14h35.20.098,attentional_competition_task,2022.2.4,144.0173044731411,
