posFile,posFileTest,posFileTestNew,stimFile,stimFileNew,cs_neg_s,cs_pos_s,cs_neg_ns,cs_pos_ns,cs_neg_s_new,cs_pos_s_new,cs_neg_ns_new,cs_pos_ns_new,stim,position,position1,stim1,position2,stim2,position3,stim3,position4,stim4,blocks.thisRepN,blocks.thisTrialN,blocks.thisN,blocks.thisIndex,ratingtrials1.thisRepN,ratingtrials1.thisTrialN,ratingtrials1.thisN,ratingtrials1.thisIndex,search_task_trials.thisRepN,search_task_trials.thisTrialN,search_task_trials.thisN,search_task_trials.thisIndex,learning_trials.thisRepN,learning_trials.thisTrialN,learning_trials.thisN,learning_trials.thisIndex,trials.thisRepN,trials.thisTrialN,trials.thisN,trials.thisIndex,ratingtrials2.thisRepN,ratingtrials2.thisTrialN,ratingtrials2.thisN,ratingtrials2.thisIndex,testtrials.thisRepN,testtrials.thisTrialN,testtrials.thisN,testtrials.thisIndex,loop_test.thisRepN,loop_test.thisTrialN,loop_test.thisN,loop_test.thisIndex,testtrials_novelty.thisRepN,testtrials_novelty.thisTrialN,testtrials_novelty.thisN,testtrials_novelty.thisIndex,loop_test_novelty.thisRepN,loop_test_novelty.thisTrialN,loop_test_novelty.thisN,loop_test_novelty.thisIndex,ratingtrials3.thisRepN,ratingtrials3.thisTrialN,ratingtrials3.thisN,ratingtrials3.thisIndex,textStart.started,textStartExp.started,imageRating.started,sliderStim.response,sliderStim.rt,textStartSearch.started,target_positions,distractor_positions,textStartTask.started,image.started,score,outcome,roi.numLooks,roi.timesOn,roi.timesOff,imageFeedback.started,textTestInstr.started,test_image1.started,test_image2.started,test_image3.started,test_image4.started,test_roi1.numLooks,test_roi1.timesOn,test_roi1.timesOff,test_roi2.numLooks,test_roi2.timesOn,test_roi2.timesOff,test_roi3.numLooks,test_roi3.timesOn,test_roi3.timesOff,test_roi4.numLooks,test_roi4.timesOn,test_roi4.timesOff,test_image_feedback1.started,test_image_feedback2.started,test_iamge_feedback3.started,test_iamge_feedback4.started,participant,group,date,expName,psychopyVersion,frameRate,
positions.xlsx,positions_test.xlsx,positions_test_new.xlsx,stimuli.xlsx,stimuli_new.xlsx,stimuli/Social4.png,stimuli/Social3.png,stimuli/Nonsocial4.png,stimuli/Nonsocial3.png,stimuli/Social2.png,stimuli/Social1.png,stimuli/Nonsocial2.png,stimuli/Nonsocial1.png,cs_pos_ns,,,,,,,,,,0,0,0,0,0,0,0,3,,,,,,,,,,,,,,,,,,,,,,,,,,,,,,,,,,,,,15.02853380003944,112.75575719994958,124.77987830003258,5.0,15.33371260005515,,,,,,,,,,,,,,,,,,,,,,,,,,,,,,,,,42,D,2024-05-21_11h15.03.375,attentional_competition_task,2022.2.4,144.0133644883388,
positions.xlsx,positions_test.xlsx,positions_test_new.xlsx,stimuli.xlsx,stimuli_new.xlsx,stimuli/Social4.png,stimuli/Social3.png,stimuli/Nonsocial4.png,stimuli/Nonsocial3.png,stimuli/Social2.png,stimuli/Social1.png,stimuli/Nonsocial2.png,stimuli/Nonsocial1.png,cs_neg_s,,,,,,,,,,0,0,0,0,0,1,1,0,,,,,,,,,,,,,,,,,,,,,,,,,,,,,,,,,,,,,,,144.04296250001062,6.0,4.189667199971154,,,,,,,,,,,,,,,,,,,,,,,,,,,,,,,,,42,D,2024-05-21_11h15.03.375,attentional_competition_task,2022.2.4,144.0133644883388,
positions.xlsx,positions_test.xlsx,positions_test_new.xlsx,stimuli.xlsx,stimuli_new.xlsx,stimuli/Social4.png,stimuli/Social3.png,stimuli/Nonsocial4.png,stimuli/Nonsocial3.png,stimuli/Social2.png,stimuli/Social1.png,stimuli/Nonsocial2.png,stimuli/Nonsocial1.png,cs_pos_s,,,,,,,,,,0,0,0,0,0,2,2,2,,,,,,,,,,,,,,,,,,,,,,,,,,,,,,,,,,,,,,,149.66076760005672,4.0,8.734266999992542,,,,,,,,,,,,,,,,,,,,,,,,,,,,,,,,,42,D,2024-05-21_11h15.03.375,attentional_competition_task,2022.2.4,144.0133644883388,
positions.xlsx,positions_test.xlsx,positions_test_new.xlsx,stimuli.xlsx,stimuli_new.xlsx,stimuli/Social4.png,stimuli/Social3.png,stimuli/Nonsocial4.png,stimuli/Nonsocial3.png,stimuli/Social2.png,stimuli/Social1.png,stimuli/Nonsocial2.png,stimuli/Nonsocial1.png,cs_neg_ns,,,,,,,,,,0,0,0,0,0,3,3,1,,,,,,,,,,,,,,,,,,,,,,,,,,,,,,,,,,,,,,,158.72286890004762,6.0,3.202912600012496,,,,,,,,,,,,,,,,,,,,,,,,,,,,,,,,,42,D,2024-05-21_11h15.03.375,attentional_competition_task,2022.2.4,144.0133644883388,
positions.xlsx,positions_test.xlsx,positions_test_new.xlsx,stimuli.xlsx,stimuli_new.xlsx,stimuli/Social4.png,stimuli/Social3.png,stimuli/Nonsocial4.png,stimuli/Nonsocial3.png,stimuli/Social2.png,stimuli/Social1.png,stimuli/Nonsocial2.png,stimuli/Nonsocial1.png,,,,,,,,,,,0,0,0,0,,,,,0,0,0,0,,,,,,,,,,,,,,,,,,,,,,,,,,,,,,,,,,,,,,164.80599110003095,"[[-0.9, 0.7], [-0.9, -0.8], [-0.22499999999999998, -0.8], [0.0, -0.8], [0.0, 0.19999999999999996], [0.9, 0.19999999999999996], [0.22499999999999998, 0.19999999999999996], [-0.22499999999999998, -0.30000000000000004], [-0.22499999999999998, 0.7], [-0.9, -0.30000000000000004], [0.9, -0.8], [0.0, 0.7], [-0.45, 0.7], [-0.9, 0.19999999999999996], [-0.675, 0.19999999999999996]]","[[0.6749999999999999, 0.7], [-0.675, -0.8], [0.45000000000000007, 0.19999999999999996], [0.45000000000000007, -0.30000000000000004], [-0.22499999999999998, 0.19999999999999996], [0.45000000000000007, 0.7], [0.6749999999999999, -0.30000000000000004], [-0.45, 0.19999999999999996], [0.22499999999999998, 0.7], [0.6749999999999999, -0.8], [0.0, -0.30000000000000004], [0.22499999999999998, -0.30000000000000004], [0.9, -0.30000000000000004], [-0.675, -0.30000000000000004], [0.45000000000000007, -0.8]]",,,,,,,,,,,,,,,,,,,,,,,,,,,,,,42,D,2024-05-21_11h15.03.375,attentional_competition_task,2022.2.4,144.0133644883388,
positions.xlsx,positions_test.xlsx,positions_test_new.xlsx,stimuli.xlsx,stimuli_new.xlsx,stimuli/Social4.png,stimuli/Social3.png,stimuli/Nonsocial4.png,stimuli/Nonsocial3.png,stimuli/Social2.png,stimuli/Social1.png,stimuli/Nonsocial2.png,stimuli/Nonsocial1.png,,,,,,,,,,,0,0,0,0,,,,,1,0,1,0,,,,,,,,,,,,,,,,,,,,,,,,,,,,,,,,,,,,,,,"[[-0.45, 0.19999999999999996], [-0.45, -0.30000000000000004], [-0.45, 0.7], [0.45000000000000007, -0.8], [0.9, -0.30000000000000004], [0.6749999999999999, 0.19999999999999996], [0.22499999999999998, 0.7], [0.9, 0.19999999999999996], [0.9, -0.8], [-0.9, 0.19999999999999996], [-0.675, -0.8], [0.45000000000000007, 0.19999999999999996], [0.9, 0.7], [0.0, -0.8], [0.6749999999999999, 0.7]]","[[0.0, 0.7], [-0.675, 0.7], [-0.22499999999999998, 0.19999999999999996], [-0.22499999999999998, 0.7], [0.22499999999999998, -0.30000000000000004], [-0.45, -0.8], [0.45000000000000007, 0.7], [-0.675, -0.30000000000000004], [0.0, -0.30000000000000004], [-0.9, -0.30000000000000004], [-0.9, 0.7], [0.45000000000000007, -0.30000000000000004], [-0.22499999999999998, -0.30000000000000004], [-0.675, 0.19999999999999996], [0.0, 0.19999999999999996]]",,,,,,,,,,,,,,,,,,,,,,,,,,,,,,42,D,2024-05-21_11h15.03.375,attentional_competition_task,2022.2.4,144.0133644883388,
positions.xlsx,positions_test.xlsx,positions_test_new.xlsx,stimuli.xlsx,stimuli_new.xlsx,stimuli/Social4.png,stimuli/Social3.png,stimuli/Nonsocial4.png,stimuli/Nonsocial3.png,stimuli/Social2.png,stimuli/Social1.png,stimuli/Nonsocial2.png,stimuli/Nonsocial1.png,cs_neg_s,"(-0.7, 0.5)",,,,,,,,,0,0,0,0,,,,,,,,,0,0,0,0,,,,,,,,,,,,,,,,,,,,,,,,,,,,,,,,,,,,,247.3026168999495,281.3290211999556,-3,loss,1,0.17388109990861267,0.17388469993602484,281.5303990000393,,,,,,,,,,,,,,,,,,,,,,42,D,2024-05-21_11h15.03.375,attentional_competition_task,2022.2.4,144.0133644883388,
positions.xlsx,positions_test.xlsx,positions_test_new.xlsx,stimuli.xlsx,stimuli_new.xlsx,stimuli/Social4.png,stimuli/Social3.png,stimuli/Nonsocial4.png,stimuli/Nonsocial3.png,stimuli/Social2.png,stimuli/Social1.png,stimuli/Nonsocial2.png,stimuli/Nonsocial1.png,cs_pos_s,"(0.7, -0.5)",,,,,,,,,0,0,0,0,,,,,,,,,0,1,1,7,,,,,,,,,,,,,,,,,,,,,,,,,,,,,,,,,,,,,,288.76625540002715,0,reward,1,0.17401870002504438,0.17402259993832558,288.9606826000381,,,,,,,,,,,,,,,,,,,,,,42,D,2024-05-21_11h15.03.375,attentional_competition_task,2022.2.4,144.0133644883388,
positions.xlsx,positions_test.xlsx,positions_test_new.xlsx,stimuli.xlsx,stimuli_new.xlsx,stimuli/Social4.png,stimuli/Social3.png,stimuli/Nonsocial4.png,stimuli/Nonsocial3.png,stimuli/Social2.png,stimuli/Social1.png,stimuli/Nonsocial2.png,stimuli/Nonsocial1.png,cs_neg_ns,"(-0.7, -0.5)",,,,,,,,,0,0,0,0,,,,,,,,,0,2,2,9,,,,,,,,,,,,,,,,,,,,,,,,,,,,,,,,,,,,,,296.62010990001727,-3,loss,1,0.8958115000277758,0.8958150999387726,297.52283679996617,,,,,,,,,,,,,,,,,,,,,,42,D,2024-05-21_11h15.03.375,attentional_competition_task,2022.2.4,144.0133644883388,
positions.xlsx,positions_test.xlsx,positions_test_new.xlsx,stimuli.xlsx,stimuli_new.xlsx,stimuli/Social4.png,stimuli/Social3.png,stimuli/Nonsocial4.png,stimuli/Nonsocial3.png,stimuli/Social2.png,stimuli/Social1.png,stimuli/Nonsocial2.png,stimuli/Nonsocial1.png,cs_pos_ns,"(0.7, -0.5)",,,,,,,,,0,0,0,0,,,,,,,,,0,3,3,15,,,,,,,,,,,,,,,,,,,,,,,,,,,,,,,,,,,,,,305.3280860000523,0,reward,1,0.5207835999317467,0.520786999957636,305.8558463000227,,,,,,,,,,,,,,,,,,,,,,42,D,2024-05-21_11h15.03.375,attentional_competition_task,2022.2.4,144.0133644883388,
positions.xlsx,positions_test.xlsx,positions_test_new.xlsx,stimuli.xlsx,stimuli_new.xlsx,stimuli/Social4.png,stimuli/Social3.png,stimuli/Nonsocial4.png,stimuli/Nonsocial3.png,stimuli/Social2.png,stimuli/Social1.png,stimuli/Nonsocial2.png,stimuli/Nonsocial1.png,cs_pos_s,"(-0.7, -0.5)",,,,,,,,,0,0,0,0,,,,,,,,,0,4,4,5,,,,,,,,,,,,,,,,,,,,,,,,,,,,,,,,,,,,,,312.9666348999599,3,reward,1,0.7087400000309572,0.7087439000606537,313.68191809998825,,,,,,,,,,,,,,,,,,,,,,42,D,2024-05-21_11h15.03.375,attentional_competition_task,2022.2.4,144.0133644883388,
positions.xlsx,positions_test.xlsx,positions_test_new.xlsx,stimuli.xlsx,stimuli_new.xlsx,stimuli/Social4.png,stimuli/Social3.png,stimuli/Nonsocial4.png,stimuli/Nonsocial3.png,stimuli/Social2.png,stimuli/Social1.png,stimuli/Nonsocial2.png,stimuli/Nonsocial1.png,cs_neg_s,"(-0.7, -0.5)",,,,,,,,,0,0,0,0,,,,,,,,,0,5,5,1,,,,,,,,,,,,,,,,,,,,,,,,,,,,,,,,,,,,,,320.37606529996265,3,none,0,,,323.39680480002426,,,,,,,,,,,,,,,,,,,,,,42,D,2024-05-21_11h15.03.375,attentional_competition_task,2022.2.4,144.0133644883388,
positions.xlsx,positions_test.xlsx,positions_test_new.xlsx,stimuli.xlsx,stimuli_new.xlsx,stimuli/Social4.png,stimuli/Social3.png,stimuli/Nonsocial4.png,stimuli/Nonsocial3.png,stimuli/Social2.png,stimuli/Social1.png,stimuli/Nonsocial2.png,stimuli/Nonsocial1.png,cs_pos_ns,"(0.7, 0.5)",,,,,,,,,0,0,0,0,,,,,,,,,0,6,6,14,,,,,,,,,,,,,,,,,,,,,,,,,,,,,,,,,,,,,,331.15343489998486,6,reward,1,0.1598674999549985,0.15987139998469502,331.3200595000526,,,,,,,,,,,,,,,,,,,,,,42,D,2024-05-21_11h15.03.375,attentional_competition_task,2022.2.4,144.0133644883388,
positions.xlsx,positions_test.xlsx,positions_test_new.xlsx,stimuli.xlsx,stimuli_new.xlsx,stimuli/Social4.png,stimuli/Social3.png,stimuli/Nonsocial4.png,stimuli/Nonsocial3.png,stimuli/Social2.png,stimuli/Social1.png,stimuli/Nonsocial2.png,stimuli/Nonsocial1.png,cs_neg_ns,"(-0.7, 0.5)",,,,,,,,,0,0,0,0,,,,,,,,,0,7,7,8,,,,,,,,,,,,,,,,,,,,,,,,,,,,,,,,,,,,,,338.06287270004395,6,none,0,,,341.0766403999878,,,,,,,,,,,,,,,,,,,,,,42,D,2024-05-21_11h15.03.375,attentional_competition_task,2022.2.4,144.0133644883388,
positions.xlsx,positions_test.xlsx,positions_test_new.xlsx,stimuli.xlsx,stimuli_new.xlsx,stimuli/Social4.png,stimuli/Social3.png,stimuli/Nonsocial4.png,stimuli/Nonsocial3.png,stimuli/Social2.png,stimuli/Social1.png,stimuli/Nonsocial2.png,stimuli/Nonsocial1.png,cs_pos_ns,"(-0.7, -0.5)",,,,,,,,,0,0,0,0,,,,,,,,,0,8,8,13,,,,,,,,,,,,,,,,,,,,,,,,,,,,,,,,,,,,,,348.33330589998513,9,reward,1,0.8266459999140352,0.8266493999399245,349.1665401000064,,,,,,,,,,,,,,,,,,,,,,42,D,2024-05-21_11h15.03.375,attentional_competition_task,2022.2.4,144.0133644883388,
positions.xlsx,positions_test.xlsx,positions_test_new.xlsx,stimuli.xlsx,stimuli_new.xlsx,stimuli/Social4.png,stimuli/Social3.png,stimuli/Nonsocial4.png,stimuli/Nonsocial3.png,stimuli/Social2.png,stimuli/Social1.png,stimuli/Nonsocial2.png,stimuli/Nonsocial1.png,cs_pos_ns,"(-0.7, 0.5)",,,,,,,,,0,0,0,0,,,,,,,,,0,9,9,12,,,,,,,,,,,,,,,,,,,,,,,,,,,,,,,,,,,,,,356.00659120001364,9,none,0,,,359.0203746999614,,,,,,,,,,,,,,,,,,,,,,42,D,2024-05-21_11h15.03.375,attentional_competition_task,2022.2.4,144.0133644883388,
positions.xlsx,positions_test.xlsx,positions_test_new.xlsx,stimuli.xlsx,stimuli_new.xlsx,stimuli/Social4.png,stimuli/Social3.png,stimuli/Nonsocial4.png,stimuli/Nonsocial3.png,stimuli/Social2.png,stimuli/Social1.png,stimuli/Nonsocial2.png,stimuli/Nonsocial1.png,cs_neg_ns,"(0.7, 0.5)",,,,,,,,,0,0,0,0,,,,,,,,,0,10,10,10,,,,,,,,,,,,,,,,,,,,,,,,,,,,,,,,,,,,,,366.7145353000378,9,none,0,,,369.7212859999854,,,,,,,,,,,,,,,,,,,,,,42,D,2024-05-21_11h15.03.375,attentional_competition_task,2022.2.4,144.0133644883388,
positions.xlsx,positions_test.xlsx,positions_test_new.xlsx,stimuli.xlsx,stimuli_new.xlsx,stimuli/Social4.png,stimuli/Social3.png,stimuli/Nonsocial4.png,stimuli/Nonsocial3.png,stimuli/Social2.png,stimuli/Social1.png,stimuli/Nonsocial2.png,stimuli/Nonsocial1.png,cs_neg_s,"(0.7, -0.5)",,,,,,,,,0,0,0,0,,,,,,,,,0,11,11,3,,,,,,,,,,,,,,,,,,,,,,,,,,,,,,,,,,,,,,377.4918650999898,6,loss,1,0.18776150001212955,0.18776519992388785,377.68628540006466,,,,,,,,,,,,,,,,,,,,,,42,D,2024-05-21_11h15.03.375,attentional_competition_task,2022.2.4,144.0133644883388,
positions.xlsx,positions_test.xlsx,positions_test_new.xlsx,stimuli.xlsx,stimuli_new.xlsx,stimuli/Social4.png,stimuli/Social3.png,stimuli/Nonsocial4.png,stimuli/Nonsocial3.png,stimuli/Social2.png,stimuli/Social1.png,stimuli/Nonsocial2.png,stimuli/Nonsocial1.png,cs_pos_s,"(-0.7, 0.5)",,,,,,,,,0,0,0,0,,,,,,,,,0,12,12,4,,,,,,,,,,,,,,,,,,,,,,,,,,,,,,,,,,,,,,384.637382099987,9,reward,1,0.5140214000130072,0.5140252000419423,385.1581869999645,,,,,,,,,,,,,,,,,,,,,,42,D,2024-05-21_11h15.03.375,attentional_competition_task,2022.2.4,144.0133644883388,
positions.xlsx,positions_test.xlsx,positions_test_new.xlsx,stimuli.xlsx,stimuli_new.xlsx,stimuli/Social4.png,stimuli/Social3.png,stimuli/Nonsocial4.png,stimuli/Nonsocial3.png,stimuli/Social2.png,stimuli/Social1.png,stimuli/Nonsocial2.png,stimuli/Nonsocial1.png,cs_neg_s,"(0.7, 0.5)",,,,,,,,,0,0,0,0,,,,,,,,,0,13,13,2,,,,,,,,,,,,,,,,,,,,,,,,,,,,,,,,,,,,,,392.616204299964,9,none,0,,,395.62305970001034,,,,,,,,,,,,,,,,,,,,,,42,D,2024-05-21_11h15.03.375,attentional_competition_task,2022.2.4,144.0133644883388,
positions.xlsx,positions_test.xlsx,positions_test_new.xlsx,stimuli.xlsx,stimuli_new.xlsx,stimuli/Social4.png,stimuli/Social3.png,stimuli/Nonsocial4.png,stimuli/Nonsocial3.png,stimuli/Social2.png,stimuli/Social1.png,stimuli/Nonsocial2.png,stimuli/Nonsocial1.png,cs_pos_s,"(0.7, 0.5)",,,,,,,,,0,0,0,0,,,,,,,,,0,14,14,6,,,,,,,,,,,,,,,,,,,,,,,,,,,,,,,,,,,,,,402.8033176000463,12,reward,1,0.708294800017029,0.7082984999287874,403.5185703999596,,,,,,,,,,,,,,,,,,,,,,42,D,2024-05-21_11h15.03.375,attentional_competition_task,2022.2.4,144.0133644883388,
positions.xlsx,positions_test.xlsx,positions_test_new.xlsx,stimuli.xlsx,stimuli_new.xlsx,stimuli/Social4.png,stimuli/Social3.png,stimuli/Nonsocial4.png,stimuli/Nonsocial3.png,stimuli/Social2.png,stimuli/Social1.png,stimuli/Nonsocial2.png,stimuli/Nonsocial1.png,cs_neg_ns,"(0.7, -0.5)",,,,,,,,,0,0,0,0,,,,,,,,,0,15,15,11,,,,,,,,,,,,,,,,,,,,,,,,,,,,,,,,,,,,,,411.4001717000501,9,loss,1,0.6526460000313818,0.6526493999408558,412.05989829998,,,,,,,,,,,,,,,,,,,,,,42,D,2024-05-21_11h15.03.375,attentional_competition_task,2022.2.4,144.0133644883388,
positions.xlsx,positions_test.xlsx,positions_test_new.xlsx,stimuli.xlsx,stimuli_new.xlsx,stimuli/Social4.png,stimuli/Social3.png,stimuli/Nonsocial4.png,stimuli/Nonsocial3.png,stimuli/Social2.png,stimuli/Social1.png,stimuli/Nonsocial2.png,stimuli/Nonsocial1.png,cs_neg_s,"(-0.7, -0.5)",,,,,,,,,0,0,0,0,,,,,,,,,1,0,16,1,,,,,,,,,,,,,,,,,,,,,,,,,,,,,,,,,,,,,,419.8790380000137,9,none,0,,,422.89278650004417,,,,,,,,,,,,,,,,,,,,,,42,D,2024-05-21_11h15.03.375,attentional_competition_task,2022.2.4,144.0133644883388,
positions.xlsx,positions_test.xlsx,positions_test_new.xlsx,stimuli.xlsx,stimuli_new.xlsx,stimuli/Social4.png,stimuli/Social3.png,stimuli/Nonsocial4.png,stimuli/Nonsocial3.png,stimuli/Social2.png,stimuli/Social1.png,stimuli/Nonsocial2.png,stimuli/Nonsocial1.png,cs_neg_ns,"(0.7, 0.5)",,,,,,,,,0,0,0,0,,,,,,,,,1,1,17,10,,,,,,,,,,,,,,,,,,,,,,,,,,,,,,,,,,,,,,430.38551609998103,9,none,0,,,433.39932039997075,,,,,,,,,,,,,,,,,,,,,,42,D,2024-05-21_11h15.03.375,attentional_competition_task,2022.2.4,144.0133644883388,
positions.xlsx,positions_test.xlsx,positions_test_new.xlsx,stimuli.xlsx,stimuli_new.xlsx,stimuli/Social4.png,stimuli/Social3.png,stimuli/Nonsocial4.png,stimuli/Nonsocial3.png,stimuli/Social2.png,stimuli/Social1.png,stimuli/Nonsocial2.png,stimuli/Nonsocial1.png,cs_pos_ns,"(-0.7, 0.5)",,,,,,,,,0,0,0,0,,,,,,,,,1,2,18,12,,,,,,,,,,,,,,,,,,,,,,,,,,,,,,,,,,,,,,440.8156450999668,12,reward,1,0.7292793999658898,0.7292830999940634,441.5517587000504,,,,,,,,,,,,,,,,,,,,,,42,D,2024-05-21_11h15.03.375,attentional_competition_task,2022.2.4,144.0133644883388,
positions.xlsx,positions_test.xlsx,positions_test_new.xlsx,stimuli.xlsx,stimuli_new.xlsx,stimuli/Social4.png,stimuli/Social3.png,stimuli/Nonsocial4.png,stimuli/Nonsocial3.png,stimuli/Social2.png,stimuli/Social1.png,stimuli/Nonsocial2.png,stimuli/Nonsocial1.png,cs_pos_ns,"(0.7, 0.5)",,,,,,,,,0,0,0,0,,,,,,,,,1,3,19,14,,,,,,,,,,,,,,,,,,,,,,,,,,,,,,,,,,,,,,449.08615940005984,15,reward,1,2.6806540000252426,2.68762850004714,451.7805154999951,,,,,,,,,,,,,,,,,,,,,,42,D,2024-05-21_11h15.03.375,attentional_competition_task,2022.2.4,144.0133644883388,
positions.xlsx,positions_test.xlsx,positions_test_new.xlsx,stimuli.xlsx,stimuli_new.xlsx,stimuli/Social4.png,stimuli/Social3.png,stimuli/Nonsocial4.png,stimuli/Nonsocial3.png,stimuli/Social2.png,stimuli/Social1.png,stimuli/Nonsocial2.png,stimuli/Nonsocial1.png,cs_pos_ns,"(-0.7, -0.5)",,,,,,,,,0,0,0,0,,,,,,,,,1,4,20,13,,,,,,,,,,,,,,,,,,,,,,,,,,,,,,,,,,,,,,459.1691545000067,18,reward,1,0.1877925000153482,0.1877963999286294,459.3635766999796,,,,,,,,,,,,,,,,,,,,,,42,D,2024-05-21_11h15.03.375,attentional_competition_task,2022.2.4,144.0133644883388,
positions.xlsx,positions_test.xlsx,positions_test_new.xlsx,stimuli.xlsx,stimuli_new.xlsx,stimuli/Social4.png,stimuli/Social3.png,stimuli/Nonsocial4.png,stimuli/Nonsocial3.png,stimuli/Social2.png,stimuli/Social1.png,stimuli/Nonsocial2.png,stimuli/Nonsocial1.png,cs_pos_ns,"(0.7, -0.5)",,,,,,,,,0,0,0,0,,,,,,,,,1,5,21,15,,,,,,,,,,,,,,,,,,,,,,,,,,,,,,,,,,,,,,466.4882587000029,21,reward,1,0.18027140002232045,0.18027530005201697,466.67581809998956,,,,,,,,,,,,,,,,,,,,,,42,D,2024-05-21_11h15.03.375,attentional_competition_task,2022.2.4,144.0133644883388,
positions.xlsx,positions_test.xlsx,positions_test_new.xlsx,stimuli.xlsx,stimuli_new.xlsx,stimuli/Social4.png,stimuli/Social3.png,stimuli/Nonsocial4.png,stimuli/Nonsocial3.png,stimuli/Social2.png,stimuli/Social1.png,stimuli/Nonsocial2.png,stimuli/Nonsocial1.png,cs_neg_ns,"(-0.7, 0.5)",,,,,,,,,0,0,0,0,,,,,,,,,1,6,22,8,,,,,,,,,,,,,,,,,,,,,,,,,,,,,,,,,,,,,,474.64768549997825,18,loss,1,1.8263651999877766,1.826368499896489,476.4809210000094,,,,,,,,,,,,,,,,,,,,,,42,D,2024-05-21_11h15.03.375,attentional_competition_task,2022.2.4,144.0133644883388,
positions.xlsx,positions_test.xlsx,positions_test_new.xlsx,stimuli.xlsx,stimuli_new.xlsx,stimuli/Social4.png,stimuli/Social3.png,stimuli/Nonsocial4.png,stimuli/Nonsocial3.png,stimuli/Social2.png,stimuli/Social1.png,stimuli/Nonsocial2.png,stimuli/Nonsocial1.png,cs_pos_s,"(0.7, -0.5)",,,,,,,,,0,0,0,0,,,,,,,,,1,7,23,7,,,,,,,,,,,,,,,,,,,,,,,,,,,,,,,,,,,,,,483.5153902999591,21,reward,1,0.16014890000224113,0.16015300003346056,483.68202029995155,,,,,,,,,,,,,,,,,,,,,,42,D,2024-05-21_11h15.03.375,attentional_competition_task,2022.2.4,144.0133644883388,
positions.xlsx,positions_test.xlsx,positions_test_new.xlsx,stimuli.xlsx,stimuli_new.xlsx,stimuli/Social4.png,stimuli/Social3.png,stimuli/Nonsocial4.png,stimuli/Nonsocial3.png,stimuli/Social2.png,stimuli/Social1.png,stimuli/Nonsocial2.png,stimuli/Nonsocial1.png,cs_neg_s,"(0.7, 0.5)",,,,,,,,,0,0,0,0,,,,,,,,,1,8,24,2,,,,,,,,,,,,,,,,,,,,,,,,,,,,,,,,,,,,,,490.77896659995895,21,none,0,,,493.79273890005425,,,,,,,,,,,,,,,,,,,,,,42,D,2024-05-21_11h15.03.375,attentional_competition_task,2022.2.4,144.0133644883388,
positions.xlsx,positions_test.xlsx,positions_test_new.xlsx,stimuli.xlsx,stimuli_new.xlsx,stimuli/Social4.png,stimuli/Social3.png,stimuli/Nonsocial4.png,stimuli/Nonsocial3.png,stimuli/Social2.png,stimuli/Social1.png,stimuli/Nonsocial2.png,stimuli/Nonsocial1.png,cs_pos_s,"(-0.7, 0.5)",,,,,,,,,0,0,0,0,,,,,,,,,1,9,25,4,,,,,,,,,,,,,,,,,,,,,,,,,,,,,,,,,,,,,,501.26461169996765,24,reward,1,0.6735669000772759,0.6735706999897957,501.9451721999794,,,,,,,,,,,,,,,,,,,,,,42,D,2024-05-21_11h15.03.375,attentional_competition_task,2022.2.4,144.0133644883388,
positions.xlsx,positions_test.xlsx,positions_test_new.xlsx,stimuli.xlsx,stimuli_new.xlsx,stimuli/Social4.png,stimuli/Social3.png,stimuli/Nonsocial4.png,stimuli/Nonsocial3.png,stimuli/Social2.png,stimuli/Social1.png,stimuli/Nonsocial2.png,stimuli/Nonsocial1.png,cs_pos_s,"(0.7, 0.5)",,,,,,,,,0,0,0,0,,,,,,,,,1,10,26,6,,,,,,,,,,,,,,,,,,,,,,,,,,,,,,,,,,,,,,509.5420611000154,27,reward,1,0.8471432999940589,0.8471469000214711,510.3961992999539,,,,,,,,,,,,,,,,,,,,,,42,D,2024-05-21_11h15.03.375,attentional_competition_task,2022.2.4,144.0133644883388,
positions.xlsx,positions_test.xlsx,positions_test_new.xlsx,stimuli.xlsx,stimuli_new.xlsx,stimuli/Social4.png,stimuli/Social3.png,stimuli/Nonsocial4.png,stimuli/Nonsocial3.png,stimuli/Social2.png,stimuli/Social1.png,stimuli/Nonsocial2.png,stimuli/Nonsocial1.png,cs_neg_s,"(-0.7, 0.5)",,,,,,,,,0,0,0,0,,,,,,,,,1,11,27,0,,,,,,,,,,,,,,,,,,,,,,,,,,,,,,,,,,,,,,518.416751199984,24,loss,1,0.2501678999979049,0.2501718000276014,518.6736407000571,,,,,,,,,,,,,,,,,,,,,,42,D,2024-05-21_11h15.03.375,attentional_competition_task,2022.2.4,144.0133644883388,
positions.xlsx,positions_test.xlsx,positions_test_new.xlsx,stimuli.xlsx,stimuli_new.xlsx,stimuli/Social4.png,stimuli/Social3.png,stimuli/Nonsocial4.png,stimuli/Nonsocial3.png,stimuli/Social2.png,stimuli/Social1.png,stimuli/Nonsocial2.png,stimuli/Nonsocial1.png,cs_neg_ns,"(-0.7, -0.5)",,,,,,,,,0,0,0,0,,,,,,,,,1,12,28,9,,,,,,,,,,,,,,,,,,,,,,,,,,,,,,,,,,,,,,526.8260917000007,21,loss,1,2.7086134999990463,2.70861720002722,529.5413188999519,,,,,,,,,,,,,,,,,,,,,,42,D,2024-05-21_11h15.03.375,attentional_competition_task,2022.2.4,144.0133644883388,
positions.xlsx,positions_test.xlsx,positions_test_new.xlsx,stimuli.xlsx,stimuli_new.xlsx,stimuli/Social4.png,stimuli/Social3.png,stimuli/Nonsocial4.png,stimuli/Nonsocial3.png,stimuli/Social2.png,stimuli/Social1.png,stimuli/Nonsocial2.png,stimuli/Nonsocial1.png,cs_neg_s,"(0.7, -0.5)",,,,,,,,,0,0,0,0,,,,,,,,,1,13,29,3,,,,,,,,,,,,,,,,,,,,,,,,,,,,,,,,,,,,,,537.1242948999861,21,none,0,,,540.138056900003,,,,,,,,,,,,,,,,,,,,,,42,D,2024-05-21_11h15.03.375,attentional_competition_task,2022.2.4,144.0133644883388,
positions.xlsx,positions_test.xlsx,positions_test_new.xlsx,stimuli.xlsx,stimuli_new.xlsx,stimuli/Social4.png,stimuli/Social3.png,stimuli/Nonsocial4.png,stimuli/Nonsocial3.png,stimuli/Social2.png,stimuli/Social1.png,stimuli/Nonsocial2.png,stimuli/Nonsocial1.png,cs_neg_ns,"(0.7, -0.5)",,,,,,,,,0,0,0,0,,,,,,,,,1,14,30,11,,,,,,,,,,,,,,,,,,,,,,,,,,,,,,,,,,,,,,547.5127449999563,21,none,0,,,550.5265746000223,,,,,,,,,,,,,,,,,,,,,,42,D,2024-05-21_11h15.03.375,attentional_competition_task,2022.2.4,144.0133644883388,
positions.xlsx,positions_test.xlsx,positions_test_new.xlsx,stimuli.xlsx,stimuli_new.xlsx,stimuli/Social4.png,stimuli/Social3.png,stimuli/Nonsocial4.png,stimuli/Nonsocial3.png,stimuli/Social2.png,stimuli/Social1.png,stimuli/Nonsocial2.png,stimuli/Nonsocial1.png,cs_pos_s,"(-0.7, -0.5)",,,,,,,,,0,0,0,0,,,,,,,,,1,15,31,5,,,,,,,,,,,,,,,,,,,,,,,,,,,,,,,,,,,,,,558.0749331000261,24,reward,1,0.5491466000676155,0.5491504000965506,558.6304144000169,,,,,,,,,,,,,,,,,,,,,,42,D,2024-05-21_11h15.03.375,attentional_competition_task,2022.2.4,144.0133644883388,
positions.xlsx,positions_test.xlsx,positions_test_new.xlsx,stimuli.xlsx,stimuli_new.xlsx,stimuli/Social4.png,stimuli/Social3.png,stimuli/Nonsocial4.png,stimuli/Nonsocial3.png,stimuli/Social2.png,stimuli/Social1.png,stimuli/Nonsocial2.png,stimuli/Nonsocial1.png,cs_pos_ns,"(0.7, 0.5)",,,,,,,,,0,0,0,0,,,,,,,,,,,,,0,0,0,14,,,,,,,,,,,,,,,,,,,,,,,,,,,,,,,,,,585.802956199972,27,reward,1,0.15980560006573796,0.15980940009467304,585.9696098000277,,,,,,,,,,,,,,,,,,,,,,42,D,2024-05-21_11h15.03.375,attentional_competition_task,2022.2.4,144.0133644883388,
positions.xlsx,positions_test.xlsx,positions_test_new.xlsx,stimuli.xlsx,stimuli_new.xlsx,stimuli/Social4.png,stimuli/Social3.png,stimuli/Nonsocial4.png,stimuli/Nonsocial3.png,stimuli/Social2.png,stimuli/Social1.png,stimuli/Nonsocial2.png,stimuli/Nonsocial1.png,cs_pos_ns,"(0.7, -0.5)",,,,,,,,,0,0,0,0,,,,,,,,,,,,,0,1,1,15,,,,,,,,,,,,,,,,,,,,,,,,,,,,,,,,,,593.4345559000503,30,reward,1,0.1733904000138864,0.1803684999467805,593.6220582999522,,,,,,,,,,,,,,,,,,,,,,42,D,2024-05-21_11h15.03.375,attentional_competition_task,2022.2.4,144.0133644883388,
positions.xlsx,positions_test.xlsx,positions_test_new.xlsx,stimuli.xlsx,stimuli_new.xlsx,stimuli/Social4.png,stimuli/Social3.png,stimuli/Nonsocial4.png,stimuli/Nonsocial3.png,stimuli/Social2.png,stimuli/Social1.png,stimuli/Nonsocial2.png,stimuli/Nonsocial1.png,cs_pos_s,"(0.7, -0.5)",,,,,,,,,0,0,0,0,,,,,,,,,,,,,0,2,2,7,,,,,,,,,,,,,,,,,,,,,,,,,,,,,,,,,,601.0731639000587,33,reward,1,0.7848019000375643,0.784805600065738,601.8648108000634,,,,,,,,,,,,,,,,,,,,,,42,D,2024-05-21_11h15.03.375,attentional_competition_task,2022.2.4,144.0133644883388,
positions.xlsx,positions_test.xlsx,positions_test_new.xlsx,stimuli.xlsx,stimuli_new.xlsx,stimuli/Social4.png,stimuli/Social3.png,stimuli/Nonsocial4.png,stimuli/Nonsocial3.png,stimuli/Social2.png,stimuli/Social1.png,stimuli/Nonsocial2.png,stimuli/Nonsocial1.png,cs_pos_ns,"(-0.7, 0.5)",,,,,,,,,0,0,0,0,,,,,,,,,,,,,0,3,3,12,,,,,,,,,,,,,,,,,,,,,,,,,,,,,,,,,,609.2881361000473,36,reward,1,0.8061459999298677,0.8061496999580413,610.1005943999626,,,,,,,,,,,,,,,,,,,,,,42,D,2024-05-21_11h15.03.375,attentional_competition_task,2022.2.4,144.0133644883388,
positions.xlsx,positions_test.xlsx,positions_test_new.xlsx,stimuli.xlsx,stimuli_new.xlsx,stimuli/Social4.png,stimuli/Social3.png,stimuli/Nonsocial4.png,stimuli/Nonsocial3.png,stimuli/Social2.png,stimuli/Social1.png,stimuli/Nonsocial2.png,stimuli/Nonsocial1.png,cs_neg_ns,"(0.7, -0.5)",,,,,,,,,0,0,0,0,,,,,,,,,,,,,0,4,4,11,,,,,,,,,,,,,,,,,,,,,,,,,,,,,,,,,,617.2808569000335,36,none,0,,,620.2946190000512,,,,,,,,,,,,,,,,,,,,,,42,D,2024-05-21_11h15.03.375,attentional_competition_task,2022.2.4,144.0133644883388,
positions.xlsx,positions_test.xlsx,positions_test_new.xlsx,stimuli.xlsx,stimuli_new.xlsx,stimuli/Social4.png,stimuli/Social3.png,stimuli/Nonsocial4.png,stimuli/Nonsocial3.png,stimuli/Social2.png,stimuli/Social1.png,stimuli/Nonsocial2.png,stimuli/Nonsocial1.png,cs_neg_s,"(0.7, 0.5)",,,,,,,,,0,0,0,0,,,,,,,,,,,,,0,5,5,2,,,,,,,,,,,,,,,,,,,,,,,,,,,,,,,,,,626.8846093000611,36,none,0,,,629.8914558000397,,,,,,,,,,,,,,,,,,,,,,42,D,2024-05-21_11h15.03.375,attentional_competition_task,2022.2.4,144.0133644883388,
positions.xlsx,positions_test.xlsx,positions_test_new.xlsx,stimuli.xlsx,stimuli_new.xlsx,stimuli/Social4.png,stimuli/Social3.png,stimuli/Nonsocial4.png,stimuli/Nonsocial3.png,stimuli/Social2.png,stimuli/Social1.png,stimuli/Nonsocial2.png,stimuli/Nonsocial1.png,cs_neg_ns,"(-0.7, 0.5)",,,,,,,,,0,0,0,0,,,,,,,,,,,,,0,6,6,8,,,,,,,,,,,,,,,,,,,,,,,,,,,,,,,,,,638.0925221999642,33,loss,1,1.1806981000117958,1.1807016999227926,639.2799676000141,,,,,,,,,,,,,,,,,,,,,,42,D,2024-05-21_11h15.03.375,attentional_competition_task,2022.2.4,144.0133644883388,
positions.xlsx,positions_test.xlsx,positions_test_new.xlsx,stimuli.xlsx,stimuli_new.xlsx,stimuli/Social4.png,stimuli/Social3.png,stimuli/Nonsocial4.png,stimuli/Nonsocial3.png,stimuli/Social2.png,stimuli/Social1.png,stimuli/Nonsocial2.png,stimuli/Nonsocial1.png,cs_neg_s,"(0.7, -0.5)",,,,,,,,,0,0,0,0,,,,,,,,,,,,,0,7,7,3,,,,,,,,,,,,,,,,,,,,,,,,,,,,,,,,,,646.8699379999889,33,none,0,,,649.8767557999818,,,,,,,,,,,,,,,,,,,,,,42,D,2024-05-21_11h15.03.375,attentional_competition_task,2022.2.4,144.0133644883388,
positions.xlsx,positions_test.xlsx,positions_test_new.xlsx,stimuli.xlsx,stimuli_new.xlsx,stimuli/Social4.png,stimuli/Social3.png,stimuli/Nonsocial4.png,stimuli/Nonsocial3.png,stimuli/Social2.png,stimuli/Social1.png,stimuli/Nonsocial2.png,stimuli/Nonsocial1.png,cs_pos_s,"(0.7, 0.5)",,,,,,,,,0,0,0,0,,,,,,,,,,,,,0,8,8,6,,,,,,,,,,,,,,,,,,,,,,,,,,,,,,,,,,657.5847992000636,36,reward,1,0.6669762999517843,0.6669799999799579,658.2583906999789,,,,,,,,,,,,,,,,,,,,,,42,D,2024-05-21_11h15.03.375,attentional_competition_task,2022.2.4,144.0133644883388,
positions.xlsx,positions_test.xlsx,positions_test_new.xlsx,stimuli.xlsx,stimuli_new.xlsx,stimuli/Social4.png,stimuli/Social3.png,stimuli/Nonsocial4.png,stimuli/Nonsocial3.png,stimuli/Social2.png,stimuli/Social1.png,stimuli/Nonsocial2.png,stimuli/Nonsocial1.png,cs_pos_s,"(-0.7, 0.5)",,,,,,,,,0,0,0,0,,,,,,,,,,,,,0,9,9,4,,,,,,,,,,,,,,,,,,,,,,,,,,,,,,,,,,665.5497752999654,39,reward,1,0.8544057999970391,0.8544098000274971,666.4108028999763,,,,,,,,,,,,,,,,,,,,,,42,D,2024-05-21_11h15.03.375,attentional_competition_task,2022.2.4,144.0133644883388,
positions.xlsx,positions_test.xlsx,positions_test_new.xlsx,stimuli.xlsx,stimuli_new.xlsx,stimuli/Social4.png,stimuli/Social3.png,stimuli/Nonsocial4.png,stimuli/Nonsocial3.png,stimuli/Social2.png,stimuli/Social1.png,stimuli/Nonsocial2.png,stimuli/Nonsocial1.png,cs_pos_ns,"(-0.7, -0.5)",,,,,,,,,0,0,0,0,,,,,,,,,,,,,0,10,10,13,,,,,,,,,,,,,,,,,,,,,,,,,,,,,,,,,,674.257737100008,42,reward,1,0.8475455000298098,0.8475494000595063,675.1118628999684,,,,,,,,,,,,,,,,,,,,,,42,D,2024-05-21_11h15.03.375,attentional_competition_task,2022.2.4,144.0133644883388,
positions.xlsx,positions_test.xlsx,positions_test_new.xlsx,stimuli.xlsx,stimuli_new.xlsx,stimuli/Social4.png,stimuli/Social3.png,stimuli/Nonsocial4.png,stimuli/Nonsocial3.png,stimuli/Social2.png,stimuli/Social1.png,stimuli/Nonsocial2.png,stimuli/Nonsocial1.png,cs_neg_ns,"(-0.7, -0.5)",,,,,,,,,0,0,0,0,,,,,,,,,,,,,0,11,11,9,,,,,,,,,,,,,,,,,,,,,,,,,,,,,,,,,,681.9310254000593,39,loss,1,0.31279460003133863,0.31279829994309694,682.2504144000122,,,,,,,,,,,,,,,,,,,,,,42,D,2024-05-21_11h15.03.375,attentional_competition_task,2022.2.4,144.0133644883388,
positions.xlsx,positions_test.xlsx,positions_test_new.xlsx,stimuli.xlsx,stimuli_new.xlsx,stimuli/Social4.png,stimuli/Social3.png,stimuli/Nonsocial4.png,stimuli/Nonsocial3.png,stimuli/Social2.png,stimuli/Social1.png,stimuli/Nonsocial2.png,stimuli/Nonsocial1.png,cs_neg_ns,"(0.7, 0.5)",,,,,,,,,0,0,0,0,,,,,,,,,,,,,0,12,12,10,,,,,,,,,,,,,,,,,,,,,,,,,,,,,,,,,,689.8334696999518,39,none,0,,,692.8472950999858,,,,,,,,,,,,,,,,,,,,,,42,D,2024-05-21_11h15.03.375,attentional_competition_task,2022.2.4,144.0133644883388,
positions.xlsx,positions_test.xlsx,positions_test_new.xlsx,stimuli.xlsx,stimuli_new.xlsx,stimuli/Social4.png,stimuli/Social3.png,stimuli/Nonsocial4.png,stimuli/Nonsocial3.png,stimuli/Social2.png,stimuli/Social1.png,stimuli/Nonsocial2.png,stimuli/Nonsocial1.png,cs_neg_s,"(-0.7, -0.5)",,,,,,,,,0,0,0,0,,,,,,,,,,,,,0,13,13,1,,,,,,,,,,,,,,,,,,,,,,,,,,,,,,,,,,700.7635919000022,39,none,0,,,703.7773808999918,,,,,,,,,,,,,,,,,,,,,,42,D,2024-05-21_11h15.03.375,attentional_competition_task,2022.2.4,144.0133644883388,
positions.xlsx,positions_test.xlsx,positions_test_new.xlsx,stimuli.xlsx,stimuli_new.xlsx,stimuli/Social4.png,stimuli/Social3.png,stimuli/Nonsocial4.png,stimuli/Nonsocial3.png,stimuli/Social2.png,stimuli/Social1.png,stimuli/Nonsocial2.png,stimuli/Nonsocial1.png,cs_neg_s,"(-0.7, 0.5)",,,,,,,,,0,0,0,0,,,,,,,,,,,,,0,14,14,0,,,,,,,,,,,,,,,,,,,,,,,,,,,,,,,,,,711.27014649997,39,none,0,,,714.2769337999634,,,,,,,,,,,,,,,,,,,,,,42,D,2024-05-21_11h15.03.375,attentional_competition_task,2022.2.4,144.0133644883388,
positions.xlsx,positions_test.xlsx,positions_test_new.xlsx,stimuli.xlsx,stimuli_new.xlsx,stimuli/Social4.png,stimuli/Social3.png,stimuli/Nonsocial4.png,stimuli/Nonsocial3.png,stimuli/Social2.png,stimuli/Social1.png,stimuli/Nonsocial2.png,stimuli/Nonsocial1.png,cs_pos_s,"(-0.7, -0.5)",,,,,,,,,0,0,0,0,,,,,,,,,,,,,0,15,15,5,,,,,,,,,,,,,,,,,,,,,,,,,,,,,,,,,,722.1169239999726,42,reward,1,0.6525916999671608,0.652595299994573,722.7766449999763,,,,,,,,,,,,,,,,,,,,,,42,D,2024-05-21_11h15.03.375,attentional_competition_task,2022.2.4,144.0133644883388,
positions.xlsx,positions_test.xlsx,positions_test_new.xlsx,stimuli.xlsx,stimuli_new.xlsx,stimuli/Social4.png,stimuli/Social3.png,stimuli/Nonsocial4.png,stimuli/Nonsocial3.png,stimuli/Social2.png,stimuli/Social1.png,stimuli/Nonsocial2.png,stimuli/Nonsocial1.png,cs_pos_s,"(0.7, 0.5)",,,,,,,,,0,0,0,0,,,,,,,,,,,,,1,0,16,6,,,,,,,,,,,,,,,,,,,,,,,,,,,,,,,,,,731.1929607000202,45,reward,1,0.6316875999327749,0.63169139996171,731.831801500055,,,,,,,,,,,,,,,,,,,,,,42,D,2024-05-21_11h15.03.375,attentional_competition_task,2022.2.4,144.0133644883388,
positions.xlsx,positions_test.xlsx,positions_test_new.xlsx,stimuli.xlsx,stimuli_new.xlsx,stimuli/Social4.png,stimuli/Social3.png,stimuli/Nonsocial4.png,stimuli/Nonsocial3.png,stimuli/Social2.png,stimuli/Social1.png,stimuli/Nonsocial2.png,stimuli/Nonsocial1.png,cs_pos_s,"(0.7, -0.5)",,,,,,,,,0,0,0,0,,,,,,,,,,,,,1,1,17,7,,,,,,,,,,,,,,,,,,,,,,,,,,,,,,,,,,740.0814984999597,48,reward,1,0.569604599964805,0.5696084999945015,740.6578566000098,,,,,,,,,,,,,,,,,,,,,,42,D,2024-05-21_11h15.03.375,attentional_competition_task,2022.2.4,144.0133644883388,
positions.xlsx,positions_test.xlsx,positions_test_new.xlsx,stimuli.xlsx,stimuli_new.xlsx,stimuli/Social4.png,stimuli/Social3.png,stimuli/Nonsocial4.png,stimuli/Nonsocial3.png,stimuli/Social2.png,stimuli/Social1.png,stimuli/Nonsocial2.png,stimuli/Nonsocial1.png,cs_pos_s,"(-0.7, 0.5)",,,,,,,,,0,0,0,0,,,,,,,,,,,,,1,2,18,4,,,,,,,,,,,,,,,,,,,,,,,,,,,,,,,,,,748.0464448999846,51,reward,1,0.5693781999871135,0.56938210001681,748.6228449000046,,,,,,,,,,,,,,,,,,,,,,42,D,2024-05-21_11h15.03.375,attentional_competition_task,2022.2.4,144.0133644883388,
positions.xlsx,positions_test.xlsx,positions_test_new.xlsx,stimuli.xlsx,stimuli_new.xlsx,stimuli/Social4.png,stimuli/Social3.png,stimuli/Nonsocial4.png,stimuli/Nonsocial3.png,stimuli/Social2.png,stimuli/Social1.png,stimuli/Nonsocial2.png,stimuli/Nonsocial1.png,cs_neg_ns,"(0.7, -0.5)",,,,,,,,,0,0,0,0,,,,,,,,,,,,,1,3,19,11,,,,,,,,,,,,,,,,,,,,,,,,,,,,,,,,,,756.1225164999487,51,none,0,,,759.1362784999656,,,,,,,,,,,,,,,,,,,,,,42,D,2024-05-21_11h15.03.375,attentional_competition_task,2022.2.4,144.0133644883388,
positions.xlsx,positions_test.xlsx,positions_test_new.xlsx,stimuli.xlsx,stimuli_new.xlsx,stimuli/Social4.png,stimuli/Social3.png,stimuli/Nonsocial4.png,stimuli/Nonsocial3.png,stimuli/Social2.png,stimuli/Social1.png,stimuli/Nonsocial2.png,stimuli/Nonsocial1.png,cs_neg_ns,"(-0.7, 0.5)",,,,,,,,,0,0,0,0,,,,,,,,,,,,,1,4,20,8,,,,,,,,,,,,,,,,,,,,,,,,,,,,,,,,,,766.6290162999649,48,loss,1,0.7155379001051188,0.7224143000785261,767.3581631999696,,,,,,,,,,,,,,,,,,,,,,42,D,2024-05-21_11h15.03.375,attentional_competition_task,2022.2.4,144.0133644883388,
positions.xlsx,positions_test.xlsx,positions_test_new.xlsx,stimuli.xlsx,stimuli_new.xlsx,stimuli/Social4.png,stimuli/Social3.png,stimuli/Nonsocial4.png,stimuli/Nonsocial3.png,stimuli/Social2.png,stimuli/Social1.png,stimuli/Nonsocial2.png,stimuli/Nonsocial1.png,cs_pos_ns,"(-0.7, 0.5)",,,,,,,,,0,0,0,0,,,,,,,,,,,,,1,5,21,12,,,,,,,,,,,,,,,,,,,,,,,,,,,,,,,,,,774.6634125000564,51,reward,1,1.7363240999402478,1.7363277999684215,776.4064387000399,,,,,,,,,,,,,,,,,,,,,,42,D,2024-05-21_11h15.03.375,attentional_competition_task,2022.2.4,144.0133644883388,
positions.xlsx,positions_test.xlsx,positions_test_new.xlsx,stimuli.xlsx,stimuli_new.xlsx,stimuli/Social4.png,stimuli/Social3.png,stimuli/Nonsocial4.png,stimuli/Nonsocial3.png,stimuli/Social2.png,stimuli/Social1.png,stimuli/Nonsocial2.png,stimuli/Nonsocial1.png,cs_neg_s,"(0.7, -0.5)",,,,,,,,,0,0,0,0,,,,,,,,,,,,,1,6,22,3,,,,,,,,,,,,,,,,,,,,,,,,,,,,,,,,,,783.524216299993,48,loss,1,0.17408529995009303,0.174089299980551,783.704747300013,,,,,,,,,,,,,,,,,,,,,,42,D,2024-05-21_11h15.03.375,attentional_competition_task,2022.2.4,144.0133644883388,
positions.xlsx,positions_test.xlsx,positions_test_new.xlsx,stimuli.xlsx,stimuli_new.xlsx,stimuli/Social4.png,stimuli/Social3.png,stimuli/Nonsocial4.png,stimuli/Nonsocial3.png,stimuli/Social2.png,stimuli/Social1.png,stimuli/Nonsocial2.png,stimuli/Nonsocial1.png,cs_neg_s,"(-0.7, -0.5)",,,,,,,,,0,0,0,0,,,,,,,,,,,,,1,7,23,1,,,,,,,,,,,,,,,,,,,,,,,,,,,,,,,,,,791.6696823999519,48,none,0,,,794.6834498000098,,,,,,,,,,,,,,,,,,,,,,42,D,2024-05-21_11h15.03.375,attentional_competition_task,2022.2.4,144.0133644883388,
positions.xlsx,positions_test.xlsx,positions_test_new.xlsx,stimuli.xlsx,stimuli_new.xlsx,stimuli/Social4.png,stimuli/Social3.png,stimuli/Nonsocial4.png,stimuli/Nonsocial3.png,stimuli/Social2.png,stimuli/Social1.png,stimuli/Nonsocial2.png,stimuli/Nonsocial1.png,cs_neg_ns,"(0.7, 0.5)",,,,,,,,,0,0,0,0,,,,,,,,,,,,,1,8,24,10,,,,,,,,,,,,,,,,,,,,,,,,,,,,,,,,,,802.8150644999696,48,none,0,,,805.8218878000043,,,,,,,,,,,,,,,,,,,,,,42,D,2024-05-21_11h15.03.375,attentional_competition_task,2022.2.4,144.0133644883388,
positions.xlsx,positions_test.xlsx,positions_test_new.xlsx,stimuli.xlsx,stimuli_new.xlsx,stimuli/Social4.png,stimuli/Social3.png,stimuli/Nonsocial4.png,stimuli/Nonsocial3.png,stimuli/Social2.png,stimuli/Social1.png,stimuli/Nonsocial2.png,stimuli/Nonsocial1.png,cs_pos_ns,"(0.7, -0.5)",,,,,,,,,0,0,0,0,,,,,,,,,,,,,1,9,25,15,,,,,,,,,,,,,,,,,,,,,,,,,,,,,,,,,,812.5785747000482,51,reward,1,0.20802540006116033,0.2080292000900954,812.7938303999836,,,,,,,,,,,,,,,,,,,,,,42,D,2024-05-21_11h15.03.375,attentional_competition_task,2022.2.4,144.0133644883388,
positions.xlsx,positions_test.xlsx,positions_test_new.xlsx,stimuli.xlsx,stimuli_new.xlsx,stimuli/Social4.png,stimuli/Social3.png,stimuli/Nonsocial4.png,stimuli/Nonsocial3.png,stimuli/Social2.png,stimuli/Social1.png,stimuli/Nonsocial2.png,stimuli/Nonsocial1.png,cs_pos_ns,"(-0.7, -0.5)",,,,,,,,,0,0,0,0,,,,,,,,,,,,,1,10,26,13,,,,,,,,,,,,,,,,,,,,,,,,,,,,,,,,,,820.2102081000339,54,reward,1,0.6597913999576122,0.6597953999880701,820.876943500014,,,,,,,,,,,,,,,,,,,,,,42,D,2024-05-21_11h15.03.375,attentional_competition_task,2022.2.4,144.0133644883388,
positions.xlsx,positions_test.xlsx,positions_test_new.xlsx,stimuli.xlsx,stimuli_new.xlsx,stimuli/Social4.png,stimuli/Social3.png,stimuli/Nonsocial4.png,stimuli/Nonsocial3.png,stimuli/Social2.png,stimuli/Social1.png,stimuli/Nonsocial2.png,stimuli/Nonsocial1.png,cs_neg_s,"(-0.7, 0.5)",,,,,,,,,0,0,0,0,,,,,,,,,,,,,1,11,27,0,,,,,,,,,,,,,,,,,,,,,,,,,,,,,,,,,,828.4459798999596,54,none,0,,,831.4597585999873,,,,,,,,,,,,,,,,,,,,,,42,D,2024-05-21_11h15.03.375,attentional_competition_task,2022.2.4,144.0133644883388,
positions.xlsx,positions_test.xlsx,positions_test_new.xlsx,stimuli.xlsx,stimuli_new.xlsx,stimuli/Social4.png,stimuli/Social3.png,stimuli/Nonsocial4.png,stimuli/Nonsocial3.png,stimuli/Social2.png,stimuli/Social1.png,stimuli/Nonsocial2.png,stimuli/Nonsocial1.png,cs_pos_ns,"(0.7, 0.5)",,,,,,,,,0,0,0,0,,,,,,,,,,,,,1,12,28,14,,,,,,,,,,,,,,,,,,,,,,,,,,,,,,,,,,838.2719854000024,57,reward,1,0.18060349998995662,0.18060700001660734,838.4594921000535,,,,,,,,,,,,,,,,,,,,,,42,D,2024-05-21_11h15.03.375,attentional_competition_task,2022.2.4,144.0133644883388,
positions.xlsx,positions_test.xlsx,positions_test_new.xlsx,stimuli.xlsx,stimuli_new.xlsx,stimuli/Social4.png,stimuli/Social3.png,stimuli/Nonsocial4.png,stimuli/Nonsocial3.png,stimuli/Social2.png,stimuli/Social1.png,stimuli/Nonsocial2.png,stimuli/Nonsocial1.png,cs_neg_ns,"(-0.7, -0.5)",,,,,,,,,0,0,0,0,,,,,,,,,,,,,1,13,29,9,,,,,,,,,,,,,,,,,,,,,,,,,,,,,,,,,,846.2577964999946,57,none,0,,,849.2715879000025,,,,,,,,,,,,,,,,,,,,,,42,D,2024-05-21_11h15.03.375,attentional_competition_task,2022.2.4,144.0133644883388,
positions.xlsx,positions_test.xlsx,positions_test_new.xlsx,stimuli.xlsx,stimuli_new.xlsx,stimuli/Social4.png,stimuli/Social3.png,stimuli/Nonsocial4.png,stimuli/Nonsocial3.png,stimuli/Social2.png,stimuli/Social1.png,stimuli/Nonsocial2.png,stimuli/Nonsocial1.png,cs_pos_s,"(-0.7, -0.5)",,,,,,,,,0,0,0,0,,,,,,,,,,,,,1,14,30,5,,,,,,,,,,,,,,,,,,,,,,,,,,,,,,,,,,857.319885200006,60,reward,1,0.25034400005824864,0.2503477999707684,857.576794099994,,,,,,,,,,,,,,,,,,,,,,42,D,2024-05-21_11h15.03.375,attentional_competition_task,2022.2.4,144.0133644883388,
positions.xlsx,positions_test.xlsx,positions_test_new.xlsx,stimuli.xlsx,stimuli_new.xlsx,stimuli/Social4.png,stimuli/Social3.png,stimuli/Nonsocial4.png,stimuli/Nonsocial3.png,stimuli/Social2.png,stimuli/Social1.png,stimuli/Nonsocial2.png,stimuli/Nonsocial1.png,cs_neg_s,"(0.7, 0.5)",,,,,,,,,0,0,0,0,,,,,,,,,,,,,1,15,31,2,,,,,,,,,,,,,,,,,,,,,,,,,,,,,,,,,,864.604263599962,60,none,0,,,867.618089800002,,,,,,,,,,,,,,,,,,,,,,42,D,2024-05-21_11h15.03.375,attentional_competition_task,2022.2.4,144.0133644883388,
positions.xlsx,positions_test.xlsx,positions_test_new.xlsx,stimuli.xlsx,stimuli_new.xlsx,stimuli/Social4.png,stimuli/Social3.png,stimuli/Nonsocial4.png,stimuli/Nonsocial3.png,stimuli/Social2.png,stimuli/Social1.png,stimuli/Nonsocial2.png,stimuli/Nonsocial1.png,cs_pos_ns,,,,,,,,,,0,0,0,0,,,,,,,,,,,,,,,,,0,0,0,3,,,,,,,,,,,,,,,,,,,,,,,872.6525849000318,6.0,6.9696480999700725,,,,,,,,,,,,,,,,,,,,,,,,,,,,,,,,,42,D,2024-05-21_11h15.03.375,attentional_competition_task,2022.2.4,144.0133644883388,
positions.xlsx,positions_test.xlsx,positions_test_new.xlsx,stimuli.xlsx,stimuli_new.xlsx,stimuli/Social4.png,stimuli/Social3.png,stimuli/Nonsocial4.png,stimuli/Nonsocial3.png,stimuli/Social2.png,stimuli/Social1.png,stimuli/Nonsocial2.png,stimuli/Nonsocial1.png,cs_neg_s,,,,,,,,,,0,0,0,0,,,,,,,,,,,,,,,,,0,1,1,0,,,,,,,,,,,,,,,,,,,,,,,880.7494867000496,3.0,5.0295934999594465,,,,,,,,,,,,,,,,,,,,,,,,,,,,,,,,,42,D,2024-05-21_11h15.03.375,attentional_competition_task,2022.2.4,144.0133644883388,
positions.xlsx,positions_test.xlsx,positions_test_new.xlsx,stimuli.xlsx,stimuli_new.xlsx,stimuli/Social4.png,stimuli/Social3.png,stimuli/Nonsocial4.png,stimuli/Nonsocial3.png,stimuli/Social2.png,stimuli/Social1.png,stimuli/Nonsocial2.png,stimuli/Nonsocial1.png,cs_neg_ns,,,,,,,,,,0,0,0,0,,,,,,,,,,,,,,,,,0,2,2,1,,,,,,,,,,,,,,,,,,,,,,,886.5062351999804,5.0,2.32072329998482,,,,,,,,,,,,,,,,,,,,,,,,,,,,,,,,,42,D,2024-05-21_11h15.03.375,attentional_competition_task,2022.2.4,144.0133644883388,
positions.xlsx,positions_test.xlsx,positions_test_new.xlsx,stimuli.xlsx,stimuli_new.xlsx,stimuli/Social4.png,stimuli/Social3.png,stimuli/Nonsocial4.png,stimuli/Nonsocial3.png,stimuli/Social2.png,stimuli/Social1.png,stimuli/Nonsocial2.png,stimuli/Nonsocial1.png,cs_pos_s,,,,,,,,,,0,0,0,0,,,,,,,,,,,,,,,,,0,3,3,2,,,,,,,,,,,,,,,,,,,,,,,889.401925800019,5.0,4.446200999896973,,,,,,,,,,,,,,,,,,,,,,,,,,,,,,,,,42,D,2024-05-21_11h15.03.375,attentional_competition_task,2022.2.4,144.0133644883388,
positions.xlsx,positions_test.xlsx,positions_test_new.xlsx,stimuli.xlsx,stimuli_new.xlsx,stimuli/Social4.png,stimuli/Social3.png,stimuli/Nonsocial4.png,stimuli/Nonsocial3.png,stimuli/Social2.png,stimuli/Social1.png,stimuli/Nonsocial2.png,stimuli/Nonsocial1.png,,,"(-0.7, -0.5)",cs_pos_ns,"(-0.7, 0.5)",cs_pos_s,"(0.7, -0.5)",cs_neg_s,"(0.7, 0.5)",cs_neg_ns,0,0,0,0,,,,,,,,,,,,,,,,,,,,,0,0,0,19,,,,,,,,,,,,,,,,,,,,,,,,,,,66,reward,,,,,893.9989664000459,905.0610782000003,905.0610782000003,905.0610782000003,905.0610782000003,1,0.024703299975953996,0.02470710000488907,0,,,0,,,0,,,905.0610782000003,905.0610782000003,905.0610782000003,905.0610782000003,42,D,2024-05-21_11h15.03.375,attentional_competition_task,2022.2.4,144.0133644883388,
positions.xlsx,positions_test.xlsx,positions_test_new.xlsx,stimuli.xlsx,stimuli_new.xlsx,stimuli/Social4.png,stimuli/Social3.png,stimuli/Nonsocial4.png,stimuli/Nonsocial3.png,stimuli/Social2.png,stimuli/Social1.png,stimuli/Nonsocial2.png,stimuli/Nonsocial1.png,,,"(-0.7, -0.5)",cs_neg_s,"(-0.7, 0.5)",cs_pos_ns,"(0.7, -0.5)",cs_pos_s,"(0.7, 0.5)",cs_neg_ns,0,0,0,0,,,,,,,,,,,,,,,,,,,,,0,1,1,4,,,,,,,,,,,,,,,,,,,,,,,,,,,69,loss,,,,,,913.4634648000356,913.4634648000356,913.4634648000356,913.4634648000356,0,,,0,,,0,,,1,0.02321799995843321,0.023221599985845387,913.4634648000356,913.4634648000356,913.4634648000356,913.4634648000356,42,D,2024-05-21_11h15.03.375,attentional_competition_task,2022.2.4,144.0133644883388,
positions.xlsx,positions_test.xlsx,positions_test_new.xlsx,stimuli.xlsx,stimuli_new.xlsx,stimuli/Social4.png,stimuli/Social3.png,stimuli/Nonsocial4.png,stimuli/Nonsocial3.png,stimuli/Social2.png,stimuli/Social1.png,stimuli/Nonsocial2.png,stimuli/Nonsocial1.png,,,"(-0.7, -0.5)",cs_pos_ns,"(-0.7, 0.5)",cs_neg_ns,"(0.7, -0.5)",cs_pos_s,"(0.7, 0.5)",cs_neg_s,0,0,0,0,,,,,,,,,,,,,,,,,,,,,0,2,2,20,,,,,,,,,,,,,,,,,,,,,,,,,,,69,loss,,,,,,921.0673560999567,921.0673560999567,921.0673560999567,921.0673560999567,0,,,1,0.029027199954725802,0.029031199985183775,0,,,0,,,921.0673560999567,921.0673560999567,921.0673560999567,921.0673560999567,42,D,2024-05-21_11h15.03.375,attentional_competition_task,2022.2.4,144.0133644883388,
positions.xlsx,positions_test.xlsx,positions_test_new.xlsx,stimuli.xlsx,stimuli_new.xlsx,stimuli/Social4.png,stimuli/Social3.png,stimuli/Nonsocial4.png,stimuli/Nonsocial3.png,stimuli/Social2.png,stimuli/Social1.png,stimuli/Nonsocial2.png,stimuli/Nonsocial1.png,,,"(-0.7, -0.5)",cs_pos_ns,"(-0.7, 0.5)",cs_neg_s,"(0.7, -0.5)",cs_pos_s,"(0.7, 0.5)",cs_neg_ns,0,0,0,0,,,,,,,,,,,,,,,,,,,,,0,3,3,22,,,,,,,,,,,,,,,,,,,,,,,,,,,75,reward,,,,,,930.0392084000632,930.0392084000632,930.0392084000632,930.0392084000632,0,,,0,,,1,0.031271199928596616,0.03127499995753169,0,,,930.0392084000632,930.0392084000632,930.0392084000632,930.0392084000632,42,D,2024-05-21_11h15.03.375,attentional_competition_task,2022.2.4,144.0133644883388,
positions.xlsx,positions_test.xlsx,positions_test_new.xlsx,stimuli.xlsx,stimuli_new.xlsx,stimuli/Social4.png,stimuli/Social3.png,stimuli/Nonsocial4.png,stimuli/Nonsocial3.png,stimuli/Social2.png,stimuli/Social1.png,stimuli/Nonsocial2.png,stimuli/Nonsocial1.png,,,"(-0.7, -0.5)",cs_neg_ns,"(-0.7, 0.5)",cs_pos_s,"(0.7, -0.5)",cs_neg_s,"(0.7, 0.5)",cs_pos_ns,0,0,0,0,,,,,,,,,,,,,,,,,,,,,0,4,4,12,,,,,,,,,,,,,,,,,,,,,,,,,,,81,reward,,,,,,938.6569079000037,938.6569079000037,938.6569079000037,938.6569079000037,0,,,0,,,0,,,1,0.07241510006133467,0.07241899997461587,938.7333077000221,938.7333077000221,938.7333077000221,938.7333077000221,42,D,2024-05-21_11h15.03.375,attentional_competition_task,2022.2.4,144.0133644883388,
positions.xlsx,positions_test.xlsx,positions_test_new.xlsx,stimuli.xlsx,stimuli_new.xlsx,stimuli/Social4.png,stimuli/Social3.png,stimuli/Nonsocial4.png,stimuli/Nonsocial3.png,stimuli/Social2.png,stimuli/Social1.png,stimuli/Nonsocial2.png,stimuli/Nonsocial1.png,,,"(-0.7, -0.5)",cs_pos_ns,"(-0.7, 0.5)",cs_neg_s,"(0.7, -0.5)",cs_neg_ns,"(0.7, 0.5)",cs_pos_s,0,0,0,0,,,,,,,,,,,,,,,,,,,,,0,5,5,23,,,,,,,,,,,,,,,,,,,,,,,,,,,84,reward,,,,,,947.1288036999758,947.1288036999758,947.1288036999758,947.1288036999758,1,0.023974900017492473,0.02397850004490465,0,,,0,,,0,,,947.1288036999758,947.1288036999758,947.1288036999758,947.1288036999758,42,D,2024-05-21_11h15.03.375,attentional_competition_task,2022.2.4,144.0133644883388,
positions.xlsx,positions_test.xlsx,positions_test_new.xlsx,stimuli.xlsx,stimuli_new.xlsx,stimuli/Social4.png,stimuli/Social3.png,stimuli/Nonsocial4.png,stimuli/Nonsocial3.png,stimuli/Social2.png,stimuli/Social1.png,stimuli/Nonsocial2.png,stimuli/Nonsocial1.png,,,"(-0.7, -0.5)",cs_neg_ns,"(-0.7, 0.5)",cs_neg_s,"(0.7, -0.5)",cs_pos_s,"(0.7, 0.5)",cs_pos_ns,0,0,0,0,,,,,,,,,,,,,,,,,,,,,0,6,6,14,,,,,,,,,,,,,,,,,,,,,,,,,,,84,reward,,,,,,955.4132230000105,955.4132230000105,955.4132230000105,955.4132230000105,0,,,0,,,0,,,1,0.04473099997267127,0.051625699969008565,955.4618091000011,955.4618091000011,955.4618091000011,955.4618091000011,42,D,2024-05-21_11h15.03.375,attentional_competition_task,2022.2.4,144.0133644883388,
positions.xlsx,positions_test.xlsx,positions_test_new.xlsx,stimuli.xlsx,stimuli_new.xlsx,stimuli/Social4.png,stimuli/Social3.png,stimuli/Nonsocial4.png,stimuli/Nonsocial3.png,stimuli/Social2.png,stimuli/Social1.png,stimuli/Nonsocial2.png,stimuli/Nonsocial1.png,,,"(-0.7, -0.5)",cs_pos_s,"(-0.7, 0.5)",cs_neg_s,"(0.7, -0.5)",cs_pos_ns,"(0.7, 0.5)",cs_neg_ns,0,0,0,0,,,,,,,,,,,,,,,,,,,,,0,7,7,7,,,,,,,,,,,,,,,,,,,,,,,,,,,87,reward,,,,,,964.4058953999775,964.4058953999775,964.4058953999775,964.4058953999775,0,,,0,,,1,0.023895799997262657,0.023899100022390485,0,,,964.4058953999775,964.4058953999775,964.4058953999775,964.4058953999775,42,D,2024-05-21_11h15.03.375,attentional_competition_task,2022.2.4,144.0133644883388,
positions.xlsx,positions_test.xlsx,positions_test_new.xlsx,stimuli.xlsx,stimuli_new.xlsx,stimuli/Social4.png,stimuli/Social3.png,stimuli/Nonsocial4.png,stimuli/Nonsocial3.png,stimuli/Social2.png,stimuli/Social1.png,stimuli/Nonsocial2.png,stimuli/Nonsocial1.png,,,"(-0.7, -0.5)",cs_pos_ns,"(-0.7, 0.5)",cs_pos_s,"(0.7, -0.5)",cs_neg_ns,"(0.7, 0.5)",cs_neg_s,0,0,0,0,,,,,,,,,,,,,,,,,,,,,0,8,8,18,,,,,,,,,,,,,,,,,,,,,,,,,,,96,reward,,,,,,972.6764044000302,972.6764044000302,972.6764044000302,972.6764044000302,0,,,0,,,0,,,0,,,973.3708217999665,973.3708217999665,973.3708217999665,973.3708217999665,42,D,2024-05-21_11h15.03.375,attentional_competition_task,2022.2.4,144.0133644883388,
positions.xlsx,positions_test.xlsx,positions_test_new.xlsx,stimuli.xlsx,stimuli_new.xlsx,stimuli/Social4.png,stimuli/Social3.png,stimuli/Nonsocial4.png,stimuli/Nonsocial3.png,stimuli/Social2.png,stimuli/Social1.png,stimuli/Nonsocial2.png,stimuli/Nonsocial1.png,,,"(-0.7, -0.5)",cs_neg_ns,"(-0.7, 0.5)",cs_neg_s,"(0.7, -0.5)",cs_pos_ns,"(0.7, 0.5)",cs_pos_s,0,0,0,0,,,,,,,,,,,,,,,,,,,,,0,9,9,15,,,,,,,,,,,,,,,,,,,,,,,,,,,105,reward,,,,,,981.3427451000316,981.3427451000316,981.3427451000316,981.3427451000316,0,,,0,,,0,,,0,,,981.8843723000027,981.8843723000027,981.8843723000027,981.8843723000027,42,D,2024-05-21_11h15.03.375,attentional_competition_task,2022.2.4,144.0133644883388,
positions.xlsx,positions_test.xlsx,positions_test_new.xlsx,stimuli.xlsx,stimuli_new.xlsx,stimuli/Social4.png,stimuli/Social3.png,stimuli/Nonsocial4.png,stimuli/Nonsocial3.png,stimuli/Social2.png,stimuli/Social1.png,stimuli/Nonsocial2.png,stimuli/Nonsocial1.png,,,"(-0.7, -0.5)",cs_pos_s,"(-0.7, 0.5)",cs_neg_ns,"(0.7, -0.5)",cs_neg_s,"(0.7, 0.5)",cs_pos_ns,0,0,0,0,,,,,,,,,,,,,,,,,,,,,0,10,10,8,,,,,,,,,,,,,,,,,,,,,,,,,,,108,reward,,,,,,989.8354471999919,989.8354471999919,989.8354471999919,989.8354471999919,0,,,0,,,0,,,1,0.024726900039240718,0.024730800068937242,989.8354471999919,989.8354471999919,989.8354471999919,989.8354471999919,42,D,2024-05-21_11h15.03.375,attentional_competition_task,2022.2.4,144.0133644883388,
positions.xlsx,positions_test.xlsx,positions_test_new.xlsx,stimuli.xlsx,stimuli_new.xlsx,stimuli/Social4.png,stimuli/Social3.png,stimuli/Nonsocial4.png,stimuli/Nonsocial3.png,stimuli/Social2.png,stimuli/Social1.png,stimuli/Nonsocial2.png,stimuli/Nonsocial1.png,,,"(-0.7, -0.5)",cs_neg_ns,"(-0.7, 0.5)",cs_pos_ns,"(0.7, -0.5)",cs_neg_s,"(0.7, 0.5)",cs_pos_s,0,0,0,0,,,,,,,,,,,,,,,,,,,,,0,11,11,17,,,,,,,,,,,,,,,,,,,,,,,,,,,117,reward,,,,,,998.8489855000516,998.8489855000516,998.8489855000516,998.8489855000516,0,,,0,,,0,,,0,,,999.5503377000568,999.5503377000568,999.5503377000568,999.5503377000568,42,D,2024-05-21_11h15.03.375,attentional_competition_task,2022.2.4,144.0133644883388,
positions.xlsx,positions_test.xlsx,positions_test_new.xlsx,stimuli.xlsx,stimuli_new.xlsx,stimuli/Social4.png,stimuli/Social3.png,stimuli/Nonsocial4.png,stimuli/Nonsocial3.png,stimuli/Social2.png,stimuli/Social1.png,stimuli/Nonsocial2.png,stimuli/Nonsocial1.png,,,"(-0.7, -0.5)",cs_pos_ns,"(-0.7, 0.5)",cs_neg_ns,"(0.7, -0.5)",cs_neg_s,"(0.7, 0.5)",cs_pos_s,0,0,0,0,,,,,,,,,,,,,,,,,,,,,0,12,12,21,,,,,,,,,,,,,,,,,,,,,,,,,,,123,reward,,,,,,1007.8277502000565,1007.8277502000565,1007.8277502000565,1007.8277502000565,1,0.02967069996520877,0.029674599994905293,0,,,0,,,0,,,1007.8277502000565,1007.8277502000565,1007.8277502000565,1007.8277502000565,42,D,2024-05-21_11h15.03.375,attentional_competition_task,2022.2.4,144.0133644883388,
positions.xlsx,positions_test.xlsx,positions_test_new.xlsx,stimuli.xlsx,stimuli_new.xlsx,stimuli/Social4.png,stimuli/Social3.png,stimuli/Nonsocial4.png,stimuli/Nonsocial3.png,stimuli/Social2.png,stimuli/Social1.png,stimuli/Nonsocial2.png,stimuli/Nonsocial1.png,,,"(-0.7, -0.5)",cs_neg_s,"(-0.7, 0.5)",cs_neg_ns,"(0.7, -0.5)",cs_pos_ns,"(0.7, 0.5)",cs_pos_s,0,0,0,0,,,,,,,,,,,,,,,,,,,,,0,13,13,3,,,,,,,,,,,,,,,,,,,,,,,,,,,126,reward,,,,,,1017.4315935999621,1017.4315935999621,1017.4315935999621,1017.4315935999621,0,,,0,,,1,0.02902790007647127,0.029031199985183775,0,,,1017.4315935999621,1017.4315935999621,1017.4315935999621,1017.4315935999621,42,D,2024-05-21_11h15.03.375,attentional_competition_task,2022.2.4,144.0133644883388,
positions.xlsx,positions_test.xlsx,positions_test_new.xlsx,stimuli.xlsx,stimuli_new.xlsx,stimuli/Social4.png,stimuli/Social3.png,stimuli/Nonsocial4.png,stimuli/Nonsocial3.png,stimuli/Social2.png,stimuli/Social1.png,stimuli/Nonsocial2.png,stimuli/Nonsocial1.png,,,"(-0.7, -0.5)",cs_pos_s,"(-0.7, 0.5)",cs_neg_ns,"(0.7, -0.5)",cs_pos_ns,"(0.7, 0.5)",cs_neg_s,0,0,0,0,,,,,,,,,,,,,,,,,,,,,0,14,14,9,,,,,,,,,,,,,,,,,,,,,,,,,,,129,reward,,,,,,1026.2298593999585,1026.2298593999585,1026.2298593999585,1026.2298593999585,0,,,0,,,1,0.024851700058206916,0.02485550008714199,0,,,1026.2298593999585,1026.2298593999585,1026.2298593999585,1026.2298593999585,42,D,2024-05-21_11h15.03.375,attentional_competition_task,2022.2.4,144.0133644883388,
positions.xlsx,positions_test.xlsx,positions_test_new.xlsx,stimuli.xlsx,stimuli_new.xlsx,stimuli/Social4.png,stimuli/Social3.png,stimuli/Nonsocial4.png,stimuli/Nonsocial3.png,stimuli/Social2.png,stimuli/Social1.png,stimuli/Nonsocial2.png,stimuli/Nonsocial1.png,,,"(-0.7, -0.5)",cs_neg_s,"(-0.7, 0.5)",cs_neg_ns,"(0.7, -0.5)",cs_pos_s,"(0.7, 0.5)",cs_pos_ns,0,0,0,0,,,,,,,,,,,,,,,,,,,,,0,15,15,2,,,,,,,,,,,,,,,,,,,,,,,,,,,132,loss,,,,,,1035.0351150999777,1035.0351150999777,1035.0351150999777,1035.0351150999777,0,,,1,0.2455692000221461,0.24557260004803538,0,,,0,,,1035.2780860000057,1035.2780860000057,1035.2780860000057,1035.2780860000057,42,D,2024-05-21_11h15.03.375,attentional_competition_task,2022.2.4,144.0133644883388,
positions.xlsx,positions_test.xlsx,positions_test_new.xlsx,stimuli.xlsx,stimuli_new.xlsx,stimuli/Social4.png,stimuli/Social3.png,stimuli/Nonsocial4.png,stimuli/Nonsocial3.png,stimuli/Social2.png,stimuli/Social1.png,stimuli/Nonsocial2.png,stimuli/Nonsocial1.png,,,"(-0.7, -0.5)",cs_neg_s,"(-0.7, 0.5)",cs_pos_s,"(0.7, -0.5)",cs_pos_ns,"(0.7, 0.5)",cs_neg_ns,0,0,0,0,,,,,,,,,,,,,,,,,,,,,0,16,16,1,,,,,,,,,,,,,,,,,,,,,,,,,,,135,reward,,,,,,1044.1666015000083,1044.1666015000083,1044.1666015000083,1044.1666015000083,0,,,0,,,1,0.024678400019183755,0.02468230004888028,0,,,1044.1666015000083,1044.1666015000083,1044.1666015000083,1044.1666015000083,42,D,2024-05-21_11h15.03.375,attentional_competition_task,2022.2.4,144.0133644883388,
positions.xlsx,positions_test.xlsx,positions_test_new.xlsx,stimuli.xlsx,stimuli_new.xlsx,stimuli/Social4.png,stimuli/Social3.png,stimuli/Nonsocial4.png,stimuli/Nonsocial3.png,stimuli/Social2.png,stimuli/Social1.png,stimuli/Nonsocial2.png,stimuli/Nonsocial1.png,,,"(-0.7, -0.5)",cs_neg_ns,"(-0.7, 0.5)",cs_pos_ns,"(0.7, -0.5)",cs_pos_s,"(0.7, 0.5)",cs_neg_s,0,0,0,0,,,,,,,,,,,,,,,,,,,,,0,17,17,16,,,,,,,,,,,,,,,,,,,,,,,,,,,132,reward,,,,,,1052.666279500001,1052.666279500001,1052.666279500001,1052.666279500001,0,,,1,0.028755899984389544,0.02875940001104027,0,,,0,,,1052.666279500001,1052.666279500001,1052.666279500001,1052.666279500001,42,D,2024-05-21_11h15.03.375,attentional_competition_task,2022.2.4,144.0133644883388,
positions.xlsx,positions_test.xlsx,positions_test_new.xlsx,stimuli.xlsx,stimuli_new.xlsx,stimuli/Social4.png,stimuli/Social3.png,stimuli/Nonsocial4.png,stimuli/Nonsocial3.png,stimuli/Social2.png,stimuli/Social1.png,stimuli/Nonsocial2.png,stimuli/Nonsocial1.png,,,"(-0.7, -0.5)",cs_neg_s,"(-0.7, 0.5)",cs_pos_ns,"(0.7, -0.5)",cs_neg_ns,"(0.7, 0.5)",cs_pos_s,0,0,0,0,,,,,,,,,,,,,,,,,,,,,0,18,18,5,,,,,,,,,,,,,,,,,,,,,,,,,,,141,reward,,,,,,1060.5340110999532,1060.5340110999532,1060.5340110999532,1060.5340110999532,0,,,0,,,0,,,0,,,1061.4645343000302,1061.4645343000302,1061.4645343000302,1061.4645343000302,42,D,2024-05-21_11h15.03.375,attentional_competition_task,2022.2.4,144.0133644883388,
positions.xlsx,positions_test.xlsx,positions_test_new.xlsx,stimuli.xlsx,stimuli_new.xlsx,stimuli/Social4.png,stimuli/Social3.png,stimuli/Nonsocial4.png,stimuli/Nonsocial3.png,stimuli/Social2.png,stimuli/Social1.png,stimuli/Nonsocial2.png,stimuli/Nonsocial1.png,,,"(-0.7, -0.5)",cs_pos_s,"(-0.7, 0.5)",cs_pos_ns,"(0.7, -0.5)",cs_neg_ns,"(0.7, 0.5)",cs_neg_s,0,0,0,0,,,,,,,,,,,,,,,,,,,,,0,19,19,11,,,,,,,,,,,,,,,,,,,,,,,,,,,144,loss,,,,,,1069.1864359000465,1069.1864359000465,1069.1864359000465,1069.1864359000465,0,,,0,,,0,,,1,0.2330456000054255,0.2330494000343606,1069.4156167999608,1069.4156167999608,1069.4156167999608,1069.4156167999608,42,D,2024-05-21_11h15.03.375,attentional_competition_task,2022.2.4,144.0133644883388,
positions.xlsx,positions_test.xlsx,positions_test_new.xlsx,stimuli.xlsx,stimuli_new.xlsx,stimuli/Social4.png,stimuli/Social3.png,stimuli/Nonsocial4.png,stimuli/Nonsocial3.png,stimuli/Social2.png,stimuli/Social1.png,stimuli/Nonsocial2.png,stimuli/Nonsocial1.png,,,"(-0.7, -0.5)",cs_neg_ns,"(-0.7, 0.5)",cs_pos_s,"(0.7, -0.5)",cs_pos_ns,"(0.7, 0.5)",cs_neg_s,0,0,0,0,,,,,,,,,,,,,,,,,,,,,0,20,20,13,,,,,,,,,,,,,,,,,,,,,,,,,,,153,reward,,,,,,1077.3041797999758,1077.3041797999758,1077.3041797999758,1077.3041797999758,0,,,1,0.3007523000705987,0.3493226000573486,0,,,0,,,1078.1583313000156,1078.1583313000156,1078.1583313000156,1078.1583313000156,42,D,2024-05-21_11h15.03.375,attentional_competition_task,2022.2.4,144.0133644883388,
positions.xlsx,positions_test.xlsx,positions_test_new.xlsx,stimuli.xlsx,stimuli_new.xlsx,stimuli/Social4.png,stimuli/Social3.png,stimuli/Nonsocial4.png,stimuli/Nonsocial3.png,stimuli/Social2.png,stimuli/Social1.png,stimuli/Nonsocial2.png,stimuli/Nonsocial1.png,,,"(-0.7, -0.5)",cs_pos_s,"(-0.7, 0.5)",cs_neg_s,"(0.7, -0.5)",cs_neg_ns,"(0.7, 0.5)",cs_pos_ns,0,0,0,0,,,,,,,,,,,,,,,,,,,,,0,21,21,6,,,,,,,,,,,,,,,,,,,,,,,,,,,162,reward,,,,,,1086.3246322000632,1086.3246322000632,1086.3246322000632,1086.3246322000632,0,,,0,,,0,,,0,,,1086.991301800008,1086.991301800008,1086.991301800008,1086.991301800008,42,D,2024-05-21_11h15.03.375,attentional_competition_task,2022.2.4,144.0133644883388,
positions.xlsx,positions_test.xlsx,positions_test_new.xlsx,stimuli.xlsx,stimuli_new.xlsx,stimuli/Social4.png,stimuli/Social3.png,stimuli/Nonsocial4.png,stimuli/Nonsocial3.png,stimuli/Social2.png,stimuli/Social1.png,stimuli/Nonsocial2.png,stimuli/Nonsocial1.png,,,"(-0.7, -0.5)",cs_pos_s,"(-0.7, 0.5)",cs_pos_ns,"(0.7, -0.5)",cs_neg_s,"(0.7, 0.5)",cs_neg_ns,0,0,0,0,,,,,,,,,,,,,,,,,,,,,0,22,22,10,,,,,,,,,,,,,,,,,,,,,,,,,,,165,loss,,,,,,1094.0813034999883,1094.0813034999883,1094.0813034999883,1094.0813034999883,0,,,0,,,0,,,1,0.025450200075283647,0.0254537999862805,1094.0813034999883,1094.0813034999883,1094.0813034999883,1094.0813034999883,42,D,2024-05-21_11h15.03.375,attentional_competition_task,2022.2.4,144.0133644883388,
positions.xlsx,positions_test.xlsx,positions_test_new.xlsx,stimuli.xlsx,stimuli_new.xlsx,stimuli/Social4.png,stimuli/Social3.png,stimuli/Nonsocial4.png,stimuli/Nonsocial3.png,stimuli/Social2.png,stimuli/Social1.png,stimuli/Nonsocial2.png,stimuli/Nonsocial1.png,,,"(-0.7, -0.5)",cs_neg_s,"(-0.7, 0.5)",cs_pos_s,"(0.7, -0.5)",cs_neg_ns,"(0.7, 0.5)",cs_pos_ns,0,0,0,0,,,,,,,,,,,,,,,,,,,,,0,23,23,0,,,,,,,,,,,,,,,,,,,,,,,,,,,174,reward,,,,,,1102.9212200000184,1102.9212200000184,1102.9212200000184,1102.9212200000184,0,,,1,0.02476519998162985,0.22588649997487664,0,,,0,,,1103.698990899953,1103.698990899953,1103.698990899953,1103.698990899953,42,D,2024-05-21_11h15.03.375,attentional_competition_task,2022.2.4,144.0133644883388,
positions.xlsx,positions_test.xlsx,positions_test_new.xlsx,stimuli.xlsx,stimuli_new.xlsx,stimuli/Social4.png,stimuli/Social3.png,stimuli/Nonsocial4.png,stimuli/Nonsocial3.png,stimuli/Social2.png,stimuli/Social1.png,stimuli/Nonsocial2.png,stimuli/Nonsocial1.png,,,"(-0.7, -0.5)",cs_pos_ns,"(-0.7, 0.5)",cs_pos_s,"(0.7, -0.5)",cs_neg_ns,"(0.7, 0.5)",cs_neg_s,0,0,0,0,,,,,,,,,,,,,,,,,,,,,1,0,24,18,,,,,,,,,,,,,,,,,,,,,,,,,,,183,reward,,,,,,1111.0528520999942,1111.0528520999942,1111.0528520999942,1111.0528520999942,1,0.027968700043857098,0.2257176999701187,1,0.2389279999770224,0.4331049000611529,0,,,0,,,1111.9903060999932,1111.9903060999932,1111.9903060999932,1111.9903060999932,42,D,2024-05-21_11h15.03.375,attentional_competition_task,2022.2.4,144.0133644883388,
positions.xlsx,positions_test.xlsx,positions_test_new.xlsx,stimuli.xlsx,stimuli_new.xlsx,stimuli/Social4.png,stimuli/Social3.png,stimuli/Nonsocial4.png,stimuli/Nonsocial3.png,stimuli/Social2.png,stimuli/Social1.png,stimuli/Nonsocial2.png,stimuli/Nonsocial1.png,,,"(-0.7, -0.5)",cs_pos_s,"(-0.7, 0.5)",cs_pos_ns,"(0.7, -0.5)",cs_neg_s,"(0.7, 0.5)",cs_neg_ns,0,0,0,0,,,,,,,,,,,,,,,,,,,,,1,1,25,10,,,,,,,,,,,,,,,,,,,,,,,,,,,186,loss,,,,,,1119.4552821000107,1119.4552821000107,1119.4552821000107,1119.4552821000107,0,,,0,,,0,,,1,0.3832906000316143,0.3896004999987781,1119.8510821999516,1119.8510821999516,1119.8510821999516,1119.8510821999516,42,D,2024-05-21_11h15.03.375,attentional_competition_task,2022.2.4,144.0133644883388,
positions.xlsx,positions_test.xlsx,positions_test_new.xlsx,stimuli.xlsx,stimuli_new.xlsx,stimuli/Social4.png,stimuli/Social3.png,stimuli/Nonsocial4.png,stimuli/Nonsocial3.png,stimuli/Social2.png,stimuli/Social1.png,stimuli/Nonsocial2.png,stimuli/Nonsocial1.png,,,"(-0.7, -0.5)",cs_pos_ns,"(-0.7, 0.5)",cs_neg_ns,"(0.7, -0.5)",cs_neg_s,"(0.7, 0.5)",cs_pos_s,0,0,0,0,,,,,,,,,,,,,,,,,,,,,1,2,26,21,,,,,,,,,,,,,,,,,,,,,,,,,,,189,reward,,,,,,1127.5938436000142,1127.5938436000142,1127.5938436000142,1127.5938436000142,1,0.0274156000232324,0.027419400052167475,0,,,0,,,0,,,1127.5938436000142,1127.5938436000142,1127.5938436000142,1127.5938436000142,42,D,2024-05-21_11h15.03.375,attentional_competition_task,2022.2.4,144.0133644883388,
positions.xlsx,positions_test.xlsx,positions_test_new.xlsx,stimuli.xlsx,stimuli_new.xlsx,stimuli/Social4.png,stimuli/Social3.png,stimuli/Nonsocial4.png,stimuli/Nonsocial3.png,stimuli/Social2.png,stimuli/Social1.png,stimuli/Nonsocial2.png,stimuli/Nonsocial1.png,,,"(-0.7, -0.5)",cs_neg_s,"(-0.7, 0.5)",cs_neg_ns,"(0.7, -0.5)",cs_pos_ns,"(0.7, 0.5)",cs_pos_s,0,0,0,0,,,,,,,,,,,,,,,,,,,,,1,3,27,3,,,,,,,,,,,,,,,,,,,,,,,,,,,192,reward,,,,,,1136.440711800009,1136.440711800009,1136.440711800009,1136.440711800009,0,,,0,,,1,0.02376789995469153,0.023771299980580807,0,,,1136.440711800009,1136.440711800009,1136.440711800009,1136.440711800009,42,D,2024-05-21_11h15.03.375,attentional_competition_task,2022.2.4,144.0133644883388,
positions.xlsx,positions_test.xlsx,positions_test_new.xlsx,stimuli.xlsx,stimuli_new.xlsx,stimuli/Social4.png,stimuli/Social3.png,stimuli/Nonsocial4.png,stimuli/Nonsocial3.png,stimuli/Social2.png,stimuli/Social1.png,stimuli/Nonsocial2.png,stimuli/Nonsocial1.png,,,"(-0.7, -0.5)",cs_neg_s,"(-0.7, 0.5)",cs_pos_ns,"(0.7, -0.5)",cs_pos_s,"(0.7, 0.5)",cs_neg_ns,0,0,0,0,,,,,,,,,,,,,,,,,,,,,1,4,28,4,,,,,,,,,,,,,,,,,,,,,,,,,,,195,reward,,,,,,1145.4750567000592,1145.4750567000592,1145.4750567000592,1145.4750567000592,0,,,1,0.025367300026118755,0.02537089993711561,0,,,0,,,1145.4750567000592,1145.4750567000592,1145.4750567000592,1145.4750567000592,42,D,2024-05-21_11h15.03.375,attentional_competition_task,2022.2.4,144.0133644883388,
positions.xlsx,positions_test.xlsx,positions_test_new.xlsx,stimuli.xlsx,stimuli_new.xlsx,stimuli/Social4.png,stimuli/Social3.png,stimuli/Nonsocial4.png,stimuli/Nonsocial3.png,stimuli/Social2.png,stimuli/Social1.png,stimuli/Nonsocial2.png,stimuli/Nonsocial1.png,,,"(-0.7, -0.5)",cs_neg_ns,"(-0.7, 0.5)",cs_pos_ns,"(0.7, -0.5)",cs_pos_s,"(0.7, 0.5)",cs_neg_s,0,0,0,0,,,,,,,,,,,,,,,,,,,,,1,5,29,16,,,,,,,,,,,,,,,,,,,,,,,,,,,204,reward,,,,,,1154.8982834999915,1154.8982834999915,1154.8982834999915,1154.8982834999915,0,,,0,,,0,,,0,,,1155.7177314000437,1155.7177314000437,1155.7177314000437,1155.7177314000437,42,D,2024-05-21_11h15.03.375,attentional_competition_task,2022.2.4,144.0133644883388,
positions.xlsx,positions_test.xlsx,positions_test_new.xlsx,stimuli.xlsx,stimuli_new.xlsx,stimuli/Social4.png,stimuli/Social3.png,stimuli/Nonsocial4.png,stimuli/Nonsocial3.png,stimuli/Social2.png,stimuli/Social1.png,stimuli/Nonsocial2.png,stimuli/Nonsocial1.png,,,"(-0.7, -0.5)",cs_neg_s,"(-0.7, 0.5)",cs_pos_s,"(0.7, -0.5)",cs_pos_ns,"(0.7, 0.5)",cs_neg_ns,0,0,0,0,,,,,,,,,,,,,,,,,,,,,1,6,30,1,,,,,,,,,,,,,,,,,,,,,,,,,,,201,reward,,,,,,1163.821578699979,1163.821578699979,1163.821578699979,1163.821578699979,0,,,1,0.023278199951164424,0.02328169997781515,0,,,0,,,1163.821578699979,1163.821578699979,1163.821578699979,1163.821578699979,42,D,2024-05-21_11h15.03.375,attentional_competition_task,2022.2.4,144.0133644883388,
positions.xlsx,positions_test.xlsx,positions_test_new.xlsx,stimuli.xlsx,stimuli_new.xlsx,stimuli/Social4.png,stimuli/Social3.png,stimuli/Nonsocial4.png,stimuli/Nonsocial3.png,stimuli/Social2.png,stimuli/Social1.png,stimuli/Nonsocial2.png,stimuli/Nonsocial1.png,,,"(-0.7, -0.5)",cs_pos_ns,"(-0.7, 0.5)",cs_neg_s,"(0.7, -0.5)",cs_neg_ns,"(0.7, 0.5)",cs_pos_s,0,0,0,0,,,,,,,,,,,,,,,,,,,,,1,7,31,23,,,,,,,,,,,,,,,,,,,,,,,,,,,204,reward,,,,,,1171.8629115000367,1171.8629115000367,1171.8629115000367,1171.8629115000367,1,0.02436179993674159,0.024365499964915216,0,,,0,,,0,,,1171.8629115000367,1171.8629115000367,1171.8629115000367,1171.8629115000367,42,D,2024-05-21_11h15.03.375,attentional_competition_task,2022.2.4,144.0133644883388,
positions.xlsx,positions_test.xlsx,positions_test_new.xlsx,stimuli.xlsx,stimuli_new.xlsx,stimuli/Social4.png,stimuli/Social3.png,stimuli/Nonsocial4.png,stimuli/Nonsocial3.png,stimuli/Social2.png,stimuli/Social1.png,stimuli/Nonsocial2.png,stimuli/Nonsocial1.png,,,"(-0.7, -0.5)",cs_neg_s,"(-0.7, 0.5)",cs_pos_ns,"(0.7, -0.5)",cs_neg_ns,"(0.7, 0.5)",cs_pos_s,0,0,0,0,,,,,,,,,,,,,,,,,,,,,1,8,32,5,,,,,,,,,,,,,,,,,,,,,,,,,,,213,reward,,,,,,1180.8139274000423,1180.8139274000423,1180.8139274000423,1180.8139274000423,0,,,0,,,0,,,0,,,1181.7097788000247,1181.7097788000247,1181.7097788000247,1181.7097788000247,42,D,2024-05-21_11h15.03.375,attentional_competition_task,2022.2.4,144.0133644883388,
positions.xlsx,positions_test.xlsx,positions_test_new.xlsx,stimuli.xlsx,stimuli_new.xlsx,stimuli/Social4.png,stimuli/Social3.png,stimuli/Nonsocial4.png,stimuli/Nonsocial3.png,stimuli/Social2.png,stimuli/Social1.png,stimuli/Nonsocial2.png,stimuli/Nonsocial1.png,,,"(-0.7, -0.5)",cs_neg_ns,"(-0.7, 0.5)",cs_pos_s,"(0.7, -0.5)",cs_neg_s,"(0.7, 0.5)",cs_pos_ns,0,0,0,0,,,,,,,,,,,,,,,,,,,,,1,9,33,12,,,,,,,,,,,,,,,,,,,,,,,,,,,222,reward,,,,,,1190.0219158000546,1190.0219158000546,1190.0219158000546,1190.0219158000546,0,,,0,,,0,,,0,,,1190.9038302999688,1190.9038302999688,1190.9038302999688,1190.9038302999688,42,D,2024-05-21_11h15.03.375,attentional_competition_task,2022.2.4,144.0133644883388,
positions.xlsx,positions_test.xlsx,positions_test_new.xlsx,stimuli.xlsx,stimuli_new.xlsx,stimuli/Social4.png,stimuli/Social3.png,stimuli/Nonsocial4.png,stimuli/Nonsocial3.png,stimuli/Social2.png,stimuli/Social1.png,stimuli/Nonsocial2.png,stimuli/Nonsocial1.png,,,"(-0.7, -0.5)",cs_pos_ns,"(-0.7, 0.5)",cs_neg_ns,"(0.7, -0.5)",cs_pos_s,"(0.7, 0.5)",cs_neg_s,0,0,0,0,,,,,,,,,,,,,,,,,,,,,1,10,34,20,,,,,,,,,,,,,,,,,,,,,,,,,,,231,reward,,,,,,1198.792399100028,1198.792399100028,1198.792399100028,1198.792399100028,0,,,0,,,0,,,0,,,1199.3896041000262,1199.3896041000262,1199.3896041000262,1199.3896041000262,42,D,2024-05-21_11h15.03.375,attentional_competition_task,2022.2.4,144.0133644883388,
positions.xlsx,positions_test.xlsx,positions_test_new.xlsx,stimuli.xlsx,stimuli_new.xlsx,stimuli/Social4.png,stimuli/Social3.png,stimuli/Nonsocial4.png,stimuli/Nonsocial3.png,stimuli/Social2.png,stimuli/Social1.png,stimuli/Nonsocial2.png,stimuli/Nonsocial1.png,,,"(-0.7, -0.5)",cs_neg_s,"(-0.7, 0.5)",cs_neg_ns,"(0.7, -0.5)",cs_pos_s,"(0.7, 0.5)",cs_pos_ns,0,0,0,0,,,,,,,,,,,,,,,,,,,,,1,11,35,2,,,,,,,,,,,,,,,,,,,,,,,,,,,240,reward,,,,,,1206.417051400058,1206.417051400058,1206.417051400058,1206.417051400058,0,,,0,,,0,,,0,,,1207.611496699974,1207.611496699974,1207.611496699974,1207.611496699974,42,D,2024-05-21_11h15.03.375,attentional_competition_task,2022.2.4,144.0133644883388,
positions.xlsx,positions_test.xlsx,positions_test_new.xlsx,stimuli.xlsx,stimuli_new.xlsx,stimuli/Social4.png,stimuli/Social3.png,stimuli/Nonsocial4.png,stimuli/Nonsocial3.png,stimuli/Social2.png,stimuli/Social1.png,stimuli/Nonsocial2.png,stimuli/Nonsocial1.png,,,"(-0.7, -0.5)",cs_pos_ns,"(-0.7, 0.5)",cs_pos_s,"(0.7, -0.5)",cs_neg_s,"(0.7, 0.5)",cs_neg_ns,0,0,0,0,,,,,,,,,,,,,,,,,,,,,1,12,36,19,,,,,,,,,,,,,,,,,,,,,,,,,,,249,reward,,,,,,1216.0903259000042,1216.0903259000042,1216.0903259000042,1216.0903259000042,0,,,1,0.02907769999001175,0.0504607999464497,0,,,0,,,1216.7014079999644,1216.7014079999644,1216.7014079999644,1216.7014079999644,42,D,2024-05-21_11h15.03.375,attentional_competition_task,2022.2.4,144.0133644883388,
positions.xlsx,positions_test.xlsx,positions_test_new.xlsx,stimuli.xlsx,stimuli_new.xlsx,stimuli/Social4.png,stimuli/Social3.png,stimuli/Nonsocial4.png,stimuli/Nonsocial3.png,stimuli/Social2.png,stimuli/Social1.png,stimuli/Nonsocial2.png,stimuli/Nonsocial1.png,,,"(-0.7, -0.5)",cs_neg_s,"(-0.7, 0.5)",cs_pos_s,"(0.7, -0.5)",cs_neg_ns,"(0.7, 0.5)",cs_pos_ns,0,0,0,0,,,,,,,,,,,,,,,,,,,,,1,13,37,0,,,,,,,,,,,,,,,,,,,,,,,,,,,258,reward,,,,,,1224.249719299958,1224.249719299958,1224.249719299958,1224.249719299958,0,,,0,,,0,,,1,0.02348930004518479,0.36541690002195537,1225.1246861000545,1225.1246861000545,1225.1246861000545,1225.1246861000545,42,D,2024-05-21_11h15.03.375,attentional_competition_task,2022.2.4,144.0133644883388,
positions.xlsx,positions_test.xlsx,positions_test_new.xlsx,stimuli.xlsx,stimuli_new.xlsx,stimuli/Social4.png,stimuli/Social3.png,stimuli/Nonsocial4.png,stimuli/Nonsocial3.png,stimuli/Social2.png,stimuli/Social1.png,stimuli/Nonsocial2.png,stimuli/Nonsocial1.png,,,"(-0.7, -0.5)",cs_pos_s,"(-0.7, 0.5)",cs_neg_ns,"(0.7, -0.5)",cs_neg_s,"(0.7, 0.5)",cs_pos_ns,0,0,0,0,,,,,,,,,,,,,,,,,,,,,1,14,38,8,,,,,,,,,,,,,,,,,,,,,,,,,,,261,reward,,,,,,1233.1521489999723,1233.1521489999723,1233.1521489999723,1233.1521489999723,0,,,0,,,0,,,1,0.030555299948900938,0.03055939998012036,1233.1521489999723,1233.1521489999723,1233.1521489999723,1233.1521489999723,42,D,2024-05-21_11h15.03.375,attentional_competition_task,2022.2.4,144.0133644883388,
positions.xlsx,positions_test.xlsx,positions_test_new.xlsx,stimuli.xlsx,stimuli_new.xlsx,stimuli/Social4.png,stimuli/Social3.png,stimuli/Nonsocial4.png,stimuli/Nonsocial3.png,stimuli/Social2.png,stimuli/Social1.png,stimuli/Nonsocial2.png,stimuli/Nonsocial1.png,,,"(-0.7, -0.5)",cs_neg_ns,"(-0.7, 0.5)",cs_pos_s,"(0.7, -0.5)",cs_pos_ns,"(0.7, 0.5)",cs_neg_s,0,0,0,0,,,,,,,,,,,,,,,,,,,,,1,15,39,13,,,,,,,,,,,,,,,,,,,,,,,,,,,264,reward,,,,,,1241.6934359000297,1241.6934359000297,1241.6934359000297,1241.6934359000297,0,,,0,,,1,0.026646099984645844,0.026650200015865266,0,,,1241.6934359000297,1241.6934359000297,1241.6934359000297,1241.6934359000297,42,D,2024-05-21_11h15.03.375,attentional_competition_task,2022.2.4,144.0133644883388,
positions.xlsx,positions_test.xlsx,positions_test_new.xlsx,stimuli.xlsx,stimuli_new.xlsx,stimuli/Social4.png,stimuli/Social3.png,stimuli/Nonsocial4.png,stimuli/Nonsocial3.png,stimuli/Social2.png,stimuli/Social1.png,stimuli/Nonsocial2.png,stimuli/Nonsocial1.png,,,"(-0.7, -0.5)",cs_neg_ns,"(-0.7, 0.5)",cs_neg_s,"(0.7, -0.5)",cs_pos_s,"(0.7, 0.5)",cs_pos_ns,0,0,0,0,,,,,,,,,,,,,,,,,,,,,1,16,40,14,,,,,,,,,,,,,,,,,,,,,,,,,,,273,reward,,,,,,1250.4778336000163,1250.4778336000163,1250.4778336000163,1250.4778336000163,0,,,0,,,0,,,0,,,1251.040321300039,1251.040321300039,1251.040321300039,1251.040321300039,42,D,2024-05-21_11h15.03.375,attentional_competition_task,2022.2.4,144.0133644883388,
positions.xlsx,positions_test.xlsx,positions_test_new.xlsx,stimuli.xlsx,stimuli_new.xlsx,stimuli/Social4.png,stimuli/Social3.png,stimuli/Nonsocial4.png,stimuli/Nonsocial3.png,stimuli/Social2.png,stimuli/Social1.png,stimuli/Nonsocial2.png,stimuli/Nonsocial1.png,,,"(-0.7, -0.5)",cs_pos_s,"(-0.7, 0.5)",cs_neg_s,"(0.7, -0.5)",cs_neg_ns,"(0.7, 0.5)",cs_pos_ns,0,0,0,0,,,,,,,,,,,,,,,,,,,,,1,17,41,6,,,,,,,,,,,,,,,,,,,,,,,,,,,282,reward,,,,,,1259.0816354999552,1259.0816354999552,1259.0816354999552,1259.0816354999552,0,,,0,,,0,,,1,0.0244302999926731,0.12902789993677288,1259.9010855000233,1259.9010855000233,1259.9010855000233,1259.9010855000233,42,D,2024-05-21_11h15.03.375,attentional_competition_task,2022.2.4,144.0133644883388,
positions.xlsx,positions_test.xlsx,positions_test_new.xlsx,stimuli.xlsx,stimuli_new.xlsx,stimuli/Social4.png,stimuli/Social3.png,stimuli/Nonsocial4.png,stimuli/Nonsocial3.png,stimuli/Social2.png,stimuli/Social1.png,stimuli/Nonsocial2.png,stimuli/Nonsocial1.png,,,"(-0.7, -0.5)",cs_pos_s,"(-0.7, 0.5)",cs_pos_ns,"(0.7, -0.5)",cs_neg_ns,"(0.7, 0.5)",cs_neg_s,0,0,0,0,,,,,,,,,,,,,,,,,,,,,1,18,42,11,,,,,,,,,,,,,,,,,,,,,,,,,,,285,loss,,,,,,1267.9285225999774,1267.9285225999774,1267.9285225999774,1267.9285225999774,0,,,0,,,1,0.06613339995965362,0.06613859999924898,0,,,1267.9980001000222,1267.9980001000222,1267.9980001000222,1267.9980001000222,42,D,2024-05-21_11h15.03.375,attentional_competition_task,2022.2.4,144.0133644883388,
positions.xlsx,positions_test.xlsx,positions_test_new.xlsx,stimuli.xlsx,stimuli_new.xlsx,stimuli/Social4.png,stimuli/Social3.png,stimuli/Nonsocial4.png,stimuli/Nonsocial3.png,stimuli/Social2.png,stimuli/Social1.png,stimuli/Nonsocial2.png,stimuli/Nonsocial1.png,,,"(-0.7, -0.5)",cs_pos_s,"(-0.7, 0.5)",cs_neg_s,"(0.7, -0.5)",cs_pos_ns,"(0.7, 0.5)",cs_neg_ns,0,0,0,0,,,,,,,,,,,,,,,,,,,,,1,19,43,7,,,,,,,,,,,,,,,,,,,,,,,,,,,294,reward,,,,,,1276.1920936000533,1276.1920936000533,1276.1920936000533,1276.1920936000533,0,,,0,,,0,,,0,,,1277.0184803999728,1277.0184803999728,1277.0184803999728,1277.0184803999728,42,D,2024-05-21_11h15.03.375,attentional_competition_task,2022.2.4,144.0133644883388,
positions.xlsx,positions_test.xlsx,positions_test_new.xlsx,stimuli.xlsx,stimuli_new.xlsx,stimuli/Social4.png,stimuli/Social3.png,stimuli/Nonsocial4.png,stimuli/Nonsocial3.png,stimuli/Social2.png,stimuli/Social1.png,stimuli/Nonsocial2.png,stimuli/Nonsocial1.png,,,"(-0.7, -0.5)",cs_pos_ns,"(-0.7, 0.5)",cs_neg_s,"(0.7, -0.5)",cs_pos_s,"(0.7, 0.5)",cs_neg_ns,0,0,0,0,,,,,,,,,,,,,,,,,,,,,1,20,44,22,,,,,,,,,,,,,,,,,,,,,,,,,,,297,reward,,,,,,1282.9209609000245,1282.9209609000245,1282.9209609000245,1282.9209609000245,0,,,0,,,1,1.6268322999821976,1.6268358998931944,0,,,1284.5528779999586,1284.5528779999586,1284.5528779999586,1284.5528779999586,42,D,2024-05-21_11h15.03.375,attentional_competition_task,2022.2.4,144.0133644883388,
positions.xlsx,positions_test.xlsx,positions_test_new.xlsx,stimuli.xlsx,stimuli_new.xlsx,stimuli/Social4.png,stimuli/Social3.png,stimuli/Nonsocial4.png,stimuli/Nonsocial3.png,stimuli/Social2.png,stimuli/Social1.png,stimuli/Nonsocial2.png,stimuli/Nonsocial1.png,,,"(-0.7, -0.5)",cs_neg_ns,"(-0.7, 0.5)",cs_neg_s,"(0.7, -0.5)",cs_pos_ns,"(0.7, 0.5)",cs_pos_s,0,0,0,0,,,,,,,,,,,,,,,,,,,,,1,21,45,15,,,,,,,,,,,,,,,,,,,,,,,,,,,306,reward,,,,,,1293.4691904999781,1293.4691904999781,1293.4691904999781,1293.4691904999781,0,,,0,,,0,,,0,,,1294.3997374000028,1294.3997374000028,1294.3997374000028,1294.3997374000028,42,D,2024-05-21_11h15.03.375,attentional_competition_task,2022.2.4,144.0133644883388,
positions.xlsx,positions_test.xlsx,positions_test_new.xlsx,stimuli.xlsx,stimuli_new.xlsx,stimuli/Social4.png,stimuli/Social3.png,stimuli/Nonsocial4.png,stimuli/Nonsocial3.png,stimuli/Social2.png,stimuli/Social1.png,stimuli/Nonsocial2.png,stimuli/Nonsocial1.png,,,"(-0.7, -0.5)",cs_pos_s,"(-0.7, 0.5)",cs_neg_ns,"(0.7, -0.5)",cs_pos_ns,"(0.7, 0.5)",cs_neg_s,0,0,0,0,,,,,,,,,,,,,,,,,,,,,1,22,46,9,,,,,,,,,,,,,,,,,,,,,,,,,,,315,reward,,,,,,1302.8437890000641,1302.8437890000641,1302.8437890000641,1302.8437890000641,0,,,0,,,0,,,0,,,1303.7674505000468,1303.7674505000468,1303.7674505000468,1303.7674505000468,42,D,2024-05-21_11h15.03.375,attentional_competition_task,2022.2.4,144.0133644883388,
positions.xlsx,positions_test.xlsx,positions_test_new.xlsx,stimuli.xlsx,stimuli_new.xlsx,stimuli/Social4.png,stimuli/Social3.png,stimuli/Nonsocial4.png,stimuli/Nonsocial3.png,stimuli/Social2.png,stimuli/Social1.png,stimuli/Nonsocial2.png,stimuli/Nonsocial1.png,,,"(-0.7, -0.5)",cs_neg_ns,"(-0.7, 0.5)",cs_pos_ns,"(0.7, -0.5)",cs_neg_s,"(0.7, 0.5)",cs_pos_s,0,0,0,0,,,,,,,,,,,,,,,,,,,,,1,23,47,17,,,,,,,,,,,,,,,,,,,,,,,,,,,324,reward,,,,,,1311.2671153000556,1311.2671153000556,1311.2671153000556,1311.2671153000556,0,,,0,,,0,,,0,,,1312.0101457999554,1312.0101457999554,1312.0101457999554,1312.0101457999554,42,D,2024-05-21_11h15.03.375,attentional_competition_task,2022.2.4,144.0133644883388,
positions.xlsx,positions_test.xlsx,positions_test_new.xlsx,stimuli.xlsx,stimuli_new.xlsx,stimuli/Social4.png,stimuli/Social3.png,stimuli/Nonsocial4.png,stimuli/Nonsocial3.png,stimuli/Social2.png,stimuli/Social1.png,stimuli/Nonsocial2.png,stimuli/Nonsocial1.png,,,"(-0.7, -0.5)",cs_neg_ns,"(-0.7, 0.5)",cs_neg_s,"(0.7, -0.5)",cs_pos_ns,"(0.7, 0.5)",cs_pos_s,0,0,0,0,,,,,,,,,,,,,,,,,,,,,,,,,,,,,0,0,0,5,0,0,0,0,,,,,,,,,,,,,,,327,reward,,,,,,1317.7529396000318,1317.7529396000318,1317.7529396000318,1317.7529396000318,0,,,0,,,0,,,0,,,1318.2598916999996,1318.2598916999996,1318.2598916999996,1318.2598916999996,42,D,2024-05-21_11h15.03.375,attentional_competition_task,2022.2.4,144.0133644883388,
positions.xlsx,positions_test.xlsx,positions_test_new.xlsx,stimuli.xlsx,stimuli_new.xlsx,stimuli/Social4.png,stimuli/Social3.png,stimuli/Nonsocial4.png,stimuli/Nonsocial3.png,stimuli/Social2.png,stimuli/Social1.png,stimuli/Nonsocial2.png,stimuli/Nonsocial1.png,,,"(-0.7, -0.5)",cs_neg_ns,"(-0.7, 0.5)",cs_neg_s,"(0.7, -0.5)",cs_pos_ns,"(0.7, 0.5)",cs_pos_s,0,0,0,0,,,,,,,,,,,,,,,,,,,,,,,,,,,,,0,0,0,5,1,0,1,0,,,,,,,,,,,,,,,330,reward,,,,,,1318.794540300034,1318.794540300034,1318.794540300034,1318.794540300034,0,,,0,,,1,0.028338400064967573,0.028342099976725876,0,,,1318.794540300034,1318.794540300034,1318.794540300034,1318.794540300034,42,D,2024-05-21_11h15.03.375,attentional_competition_task,2022.2.4,144.0133644883388,
positions.xlsx,positions_test.xlsx,positions_test_new.xlsx,stimuli.xlsx,stimuli_new.xlsx,stimuli/Social4.png,stimuli/Social3.png,stimuli/Nonsocial4.png,stimuli/Nonsocial3.png,stimuli/Social2.png,stimuli/Social1.png,stimuli/Nonsocial2.png,stimuli/Nonsocial1.png,,,"(-0.7, -0.5)",cs_neg_ns,"(-0.7, 0.5)",cs_neg_s,"(0.7, -0.5)",cs_pos_ns,"(0.7, 0.5)",cs_pos_s,0,0,0,0,,,,,,,,,,,,,,,,,,,,,,,,,,,,,0,0,0,5,2,0,2,0,,,,,,,,,,,,,,,333,reward,,,,,,1319.2945495999884,1319.2945495999884,1319.2945495999884,1319.2945495999884,0,,,0,,,0,,,0,,,1320.2667385999812,1320.2667385999812,1320.2667385999812,1320.2667385999812,42,D,2024-05-21_11h15.03.375,attentional_competition_task,2022.2.4,144.0133644883388,
positions.xlsx,positions_test.xlsx,positions_test_new.xlsx,stimuli.xlsx,stimuli_new.xlsx,stimuli/Social4.png,stimuli/Social3.png,stimuli/Nonsocial4.png,stimuli/Nonsocial3.png,stimuli/Social2.png,stimuli/Social1.png,stimuli/Nonsocial2.png,stimuli/Nonsocial1.png,,,"(-0.7, -0.5)",cs_neg_ns,"(-0.7, 0.5)",cs_neg_s,"(0.7, -0.5)",cs_pos_ns,"(0.7, 0.5)",cs_pos_s,0,0,0,0,,,,,,,,,,,,,,,,,,,,,,,,,,,,,0,0,0,5,,,,,,,,,,,,,,,,,,,,,,,,,,,,,,,,,,,,,,,,,,,,,,42,D,2024-05-21_11h15.03.375,attentional_competition_task,2022.2.4,144.0133644883388,
positions.xlsx,positions_test.xlsx,positions_test_new.xlsx,stimuli.xlsx,stimuli_new.xlsx,stimuli/Social4.png,stimuli/Social3.png,stimuli/Nonsocial4.png,stimuli/Nonsocial3.png,stimuli/Social2.png,stimuli/Social1.png,stimuli/Nonsocial2.png,stimuli/Nonsocial1.png,,,"(-0.7, -0.5)",cs_neg_ns,"(-0.7, 0.5)",cs_pos_s_new,"(0.7, -0.5)",cs_neg_s,"(0.7, 0.5)",cs_pos_ns,0,0,0,0,,,,,,,,,,,,,,,,,,,,,,,,,,,,,0,1,1,34,0,0,0,0,,,,,,,,,,,,,,,336,reward,,,,,,1326.6831705999793,1326.6831705999793,1326.6831705999793,1326.6831705999793,0,,,1,0.5166940999915823,0.5166979000205174,0,,,0,,,1327.2039481999818,1327.2039481999818,1327.2039481999818,1327.2039481999818,42,D,2024-05-21_11h15.03.375,attentional_competition_task,2022.2.4,144.0133644883388,
positions.xlsx,positions_test.xlsx,positions_test_new.xlsx,stimuli.xlsx,stimuli_new.xlsx,stimuli/Social4.png,stimuli/Social3.png,stimuli/Nonsocial4.png,stimuli/Nonsocial3.png,stimuli/Social2.png,stimuli/Social1.png,stimuli/Nonsocial2.png,stimuli/Nonsocial1.png,,,"(-0.7, -0.5)",cs_neg_ns,"(-0.7, 0.5)",cs_pos_s_new,"(0.7, -0.5)",cs_neg_s,"(0.7, 0.5)",cs_pos_ns,0,0,0,0,,,,,,,,,,,,,,,,,,,,,,,,,,,,,0,1,1,34,1,0,1,0,,,,,,,,,,,,,,,339,reward,,,,,,1327.738672700012,1327.738672700012,1327.738672700012,1327.738672700012,0,,,0,,,0,,,1,0.028908100095577538,0.02891200000885874,1327.738672700012,1327.738672700012,1327.738672700012,1327.738672700012,42,D,2024-05-21_11h15.03.375,attentional_competition_task,2022.2.4,144.0133644883388,
positions.xlsx,positions_test.xlsx,positions_test_new.xlsx,stimuli.xlsx,stimuli_new.xlsx,stimuli/Social4.png,stimuli/Social3.png,stimuli/Nonsocial4.png,stimuli/Nonsocial3.png,stimuli/Social2.png,stimuli/Social1.png,stimuli/Nonsocial2.png,stimuli/Nonsocial1.png,,,"(-0.7, -0.5)",cs_neg_ns,"(-0.7, 0.5)",cs_pos_s_new,"(0.7, -0.5)",cs_neg_s,"(0.7, 0.5)",cs_pos_ns,0,0,0,0,,,,,,,,,,,,,,,,,,,,,,,,,,,,,0,1,1,34,2,0,2,0,,,,,,,,,,,,,,,336,loss,,,,,,1328.2386234999867,1328.2386234999867,1328.2386234999867,1328.2386234999867,0,,,1,0.02461830002721399,0.2123155000153929,1,0.2751189999980852,0.2751228000270203,0,,,1328.5164083000273,1328.5164083000273,1328.5164083000273,1328.5164083000273,42,D,2024-05-21_11h15.03.375,attentional_competition_task,2022.2.4,144.0133644883388,
positions.xlsx,positions_test.xlsx,positions_test_new.xlsx,stimuli.xlsx,stimuli_new.xlsx,stimuli/Social4.png,stimuli/Social3.png,stimuli/Nonsocial4.png,stimuli/Nonsocial3.png,stimuli/Social2.png,stimuli/Social1.png,stimuli/Nonsocial2.png,stimuli/Nonsocial1.png,,,"(-0.7, -0.5)",cs_neg_ns,"(-0.7, 0.5)",cs_pos_s_new,"(0.7, -0.5)",cs_neg_s,"(0.7, 0.5)",cs_pos_ns,0,0,0,0,,,,,,,,,,,,,,,,,,,,,,,,,,,,,0,1,1,34,,,,,,,,,,,,,,,,,,,,,,,,,,,,,,,,,,,,,,,,,,,,,,42,D,2024-05-21_11h15.03.375,attentional_competition_task,2022.2.4,144.0133644883388,
positions.xlsx,positions_test.xlsx,positions_test_new.xlsx,stimuli.xlsx,stimuli_new.xlsx,stimuli/Social4.png,stimuli/Social3.png,stimuli/Nonsocial4.png,stimuli/Nonsocial3.png,stimuli/Social2.png,stimuli/Social1.png,stimuli/Nonsocial2.png,stimuli/Nonsocial1.png,,,"(-0.7, -0.5)",cs_pos_ns_new,"(-0.7, 0.5)",cs_neg_ns,"(0.7, -0.5)",cs_neg_s,"(0.7, 0.5)",cs_pos_s,0,0,0,0,,,,,,,,,,,,,,,,,,,,,,,,,,,,,0,2,2,40,0,0,0,0,,,,,,,,,,,,,,,339,reward,,,,,,1335.3494529000018,1335.3494529000018,1335.3494529000018,1335.3494529000018,0,,,0,,,0,,,1,0.25983580003958195,0.2598393000662327,1335.613369000028,1335.613369000028,1335.613369000028,1335.613369000028,42,D,2024-05-21_11h15.03.375,attentional_competition_task,2022.2.4,144.0133644883388,
positions.xlsx,positions_test.xlsx,positions_test_new.xlsx,stimuli.xlsx,stimuli_new.xlsx,stimuli/Social4.png,stimuli/Social3.png,stimuli/Nonsocial4.png,stimuli/Nonsocial3.png,stimuli/Social2.png,stimuli/Social1.png,stimuli/Nonsocial2.png,stimuli/Nonsocial1.png,,,"(-0.7, -0.5)",cs_pos_ns_new,"(-0.7, 0.5)",cs_neg_ns,"(0.7, -0.5)",cs_neg_s,"(0.7, 0.5)",cs_pos_s,0,0,0,0,,,,,,,,,,,,,,,,,,,,,,,,,,,,,0,2,2,40,1,0,1,0,,,,,,,,,,,,,,,336,loss,,,,,,1336.1480513999704,1336.1480513999704,1336.1480513999704,1336.1480513999704,0,,,0,,,1,0.030283099971711636,0.030287300003692508,0,,,1336.1480513999704,1336.1480513999704,1336.1480513999704,1336.1480513999704,42,D,2024-05-21_11h15.03.375,attentional_competition_task,2022.2.4,144.0133644883388,
positions.xlsx,positions_test.xlsx,positions_test_new.xlsx,stimuli.xlsx,stimuli_new.xlsx,stimuli/Social4.png,stimuli/Social3.png,stimuli/Nonsocial4.png,stimuli/Nonsocial3.png,stimuli/Social2.png,stimuli/Social1.png,stimuli/Nonsocial2.png,stimuli/Nonsocial1.png,,,"(-0.7, -0.5)",cs_pos_ns_new,"(-0.7, 0.5)",cs_neg_ns,"(0.7, -0.5)",cs_neg_s,"(0.7, 0.5)",cs_pos_s,0,0,0,0,,,,,,,,,,,,,,,,,,,,,,,,,,,,,0,2,2,40,2,0,2,0,,,,,,,,,,,,,,,339,reward,,,,,,1336.6827523000538,1336.6827523000538,1336.6827523000538,1336.6827523000538,1,0.030158599955029786,0.03016249998472631,0,,,0,,,0,,,1336.6827523000538,1336.6827523000538,1336.6827523000538,1336.6827523000538,42,D,2024-05-21_11h15.03.375,attentional_competition_task,2022.2.4,144.0133644883388,
positions.xlsx,positions_test.xlsx,positions_test_new.xlsx,stimuli.xlsx,stimuli_new.xlsx,stimuli/Social4.png,stimuli/Social3.png,stimuli/Nonsocial4.png,stimuli/Nonsocial3.png,stimuli/Social2.png,stimuli/Social1.png,stimuli/Nonsocial2.png,stimuli/Nonsocial1.png,,,"(-0.7, -0.5)",cs_pos_ns_new,"(-0.7, 0.5)",cs_neg_ns,"(0.7, -0.5)",cs_neg_s,"(0.7, 0.5)",cs_pos_s,0,0,0,0,,,,,,,,,,,,,,,,,,,,,,,,,,,,,0,2,2,40,3,0,3,0,,,,,,,,,,,,,,,336,loss,,,,,,1337.217433199985,1337.217433199985,1337.217433199985,1337.217433199985,0,,,1,0.02895639999769628,0.028960100025869906,0,,,0,,,1337.217433199985,1337.217433199985,1337.217433199985,1337.217433199985,42,D,2024-05-21_11h15.03.375,attentional_competition_task,2022.2.4,144.0133644883388,
positions.xlsx,positions_test.xlsx,positions_test_new.xlsx,stimuli.xlsx,stimuli_new.xlsx,stimuli/Social4.png,stimuli/Social3.png,stimuli/Nonsocial4.png,stimuli/Nonsocial3.png,stimuli/Social2.png,stimuli/Social1.png,stimuli/Nonsocial2.png,stimuli/Nonsocial1.png,,,"(-0.7, -0.5)",cs_pos_ns_new,"(-0.7, 0.5)",cs_neg_ns,"(0.7, -0.5)",cs_neg_s,"(0.7, 0.5)",cs_pos_s,0,0,0,0,,,,,,,,,,,,,,,,,,,,,,,,,,,,,0,2,2,40,,,,,,,,,,,,,,,,,,,,,,,,,,,,,,,,,,,,,,,,,,,,,,42,D,2024-05-21_11h15.03.375,attentional_competition_task,2022.2.4,144.0133644883388,
positions.xlsx,positions_test.xlsx,positions_test_new.xlsx,stimuli.xlsx,stimuli_new.xlsx,stimuli/Social4.png,stimuli/Social3.png,stimuli/Nonsocial4.png,stimuli/Nonsocial3.png,stimuli/Social2.png,stimuli/Social1.png,stimuli/Nonsocial2.png,stimuli/Nonsocial1.png,,,"(-0.7, -0.5)",cs_neg_s,"(-0.7, 0.5)",cs_pos_s,"(0.7, -0.5)",cs_pos_ns_new,"(0.7, 0.5)",cs_neg_ns,0,0,0,0,,,,,,,,,,,,,,,,,,,,,,,,,,,,,0,3,3,47,0,0,0,0,,,,,,,,,,,,,,,333,loss,,,,,,1343.515805699979,1343.515805699979,1343.515805699979,1343.515805699979,1,0.49452020006719977,0.49452380009461194,0,,,0,,,0,,,1344.0157866999507,1344.0157866999507,1344.0157866999507,1344.0157866999507,42,D,2024-05-21_11h15.03.375,attentional_competition_task,2022.2.4,144.0133644883388,
positions.xlsx,positions_test.xlsx,positions_test_new.xlsx,stimuli.xlsx,stimuli_new.xlsx,stimuli/Social4.png,stimuli/Social3.png,stimuli/Nonsocial4.png,stimuli/Nonsocial3.png,stimuli/Social2.png,stimuli/Social1.png,stimuli/Nonsocial2.png,stimuli/Nonsocial1.png,,,"(-0.7, -0.5)",cs_neg_s,"(-0.7, 0.5)",cs_pos_s,"(0.7, -0.5)",cs_pos_ns_new,"(0.7, 0.5)",cs_neg_ns,0,0,0,0,,,,,,,,,,,,,,,,,,,,,,,,,,,,,0,3,3,47,1,0,1,0,,,,,,,,,,,,,,,336,reward,,,,,,1344.5435756000225,1344.5435756000225,1344.5435756000225,1344.5435756000225,0,,,1,0.023803300107829273,0.023806900018826127,0,,,0,,,1344.5435756000225,1344.5435756000225,1344.5435756000225,1344.5435756000225,42,D,2024-05-21_11h15.03.375,attentional_competition_task,2022.2.4,144.0133644883388,
positions.xlsx,positions_test.xlsx,positions_test_new.xlsx,stimuli.xlsx,stimuli_new.xlsx,stimuli/Social4.png,stimuli/Social3.png,stimuli/Nonsocial4.png,stimuli/Nonsocial3.png,stimuli/Social2.png,stimuli/Social1.png,stimuli/Nonsocial2.png,stimuli/Nonsocial1.png,,,"(-0.7, -0.5)",cs_neg_s,"(-0.7, 0.5)",cs_pos_s,"(0.7, -0.5)",cs_pos_ns_new,"(0.7, 0.5)",cs_neg_ns,0,0,0,0,,,,,,,,,,,,,,,,,,,,,,,,,,,,,0,3,3,47,2,0,2,0,,,,,,,,,,,,,,,339,reward,,,,,,1345.071306800004,1345.071306800004,1345.071306800004,1345.071306800004,0,,,0,,,1,0.023399500059895217,0.02340339997317642,0,,,1345.071306800004,1345.071306800004,1345.071306800004,1345.071306800004,42,D,2024-05-21_11h15.03.375,attentional_competition_task,2022.2.4,144.0133644883388,
positions.xlsx,positions_test.xlsx,positions_test_new.xlsx,stimuli.xlsx,stimuli_new.xlsx,stimuli/Social4.png,stimuli/Social3.png,stimuli/Nonsocial4.png,stimuli/Nonsocial3.png,stimuli/Social2.png,stimuli/Social1.png,stimuli/Nonsocial2.png,stimuli/Nonsocial1.png,,,"(-0.7, -0.5)",cs_neg_s,"(-0.7, 0.5)",cs_pos_s,"(0.7, -0.5)",cs_pos_ns_new,"(0.7, 0.5)",cs_neg_ns,0,0,0,0,,,,,,,,,,,,,,,,,,,,,,,,,,,,,0,3,3,47,,,,,,,,,,,,,,,,,,,,,,,,,,,,,,,,,,,,,,,,,,,,,,42,D,2024-05-21_11h15.03.375,attentional_competition_task,2022.2.4,144.0133644883388,
positions.xlsx,positions_test.xlsx,positions_test_new.xlsx,stimuli.xlsx,stimuli_new.xlsx,stimuli/Social4.png,stimuli/Social3.png,stimuli/Nonsocial4.png,stimuli/Nonsocial3.png,stimuli/Social2.png,stimuli/Social1.png,stimuli/Nonsocial2.png,stimuli/Nonsocial1.png,,,"(-0.7, -0.5)",cs_neg_ns,"(-0.7, 0.5)",cs_neg_s,"(0.7, -0.5)",cs_pos_ns,"(0.7, 0.5)",cs_pos_s_new,0,0,0,0,,,,,,,,,,,,,,,,,,,,,,,,,,,,,0,4,4,32,0,0,0,0,,,,,,,,,,,,,,,342,reward,,,,,,1352.376554699964,1352.376554699964,1352.376554699964,1352.376554699964,0,,,0,,,0,,,1,0.45448079996276647,0.45448459999170154,1352.83489920001,1352.83489920001,1352.83489920001,1352.83489920001,42,D,2024-05-21_11h15.03.375,attentional_competition_task,2022.2.4,144.0133644883388,
positions.xlsx,positions_test.xlsx,positions_test_new.xlsx,stimuli.xlsx,stimuli_new.xlsx,stimuli/Social4.png,stimuli/Social3.png,stimuli/Nonsocial4.png,stimuli/Nonsocial3.png,stimuli/Social2.png,stimuli/Social1.png,stimuli/Nonsocial2.png,stimuli/Nonsocial1.png,,,"(-0.7, -0.5)",cs_neg_ns,"(-0.7, 0.5)",cs_neg_s,"(0.7, -0.5)",cs_pos_ns,"(0.7, 0.5)",cs_pos_s_new,0,0,0,0,,,,,,,,,,,,,,,,,,,,,,,,,,,,,0,4,4,32,1,0,1,0,,,,,,,,,,,,,,,345,reward,,,,,,1353.3695597000187,1353.3695597000187,1353.3695597000187,1353.3695597000187,0,,,0,,,1,0.029645900009199977,0.0296498000388965,0,,,1353.3695597000187,1353.3695597000187,1353.3695597000187,1353.3695597000187,42,D,2024-05-21_11h15.03.375,attentional_competition_task,2022.2.4,144.0133644883388,
positions.xlsx,positions_test.xlsx,positions_test_new.xlsx,stimuli.xlsx,stimuli_new.xlsx,stimuli/Social4.png,stimuli/Social3.png,stimuli/Nonsocial4.png,stimuli/Nonsocial3.png,stimuli/Social2.png,stimuli/Social1.png,stimuli/Nonsocial2.png,stimuli/Nonsocial1.png,,,"(-0.7, -0.5)",cs_neg_ns,"(-0.7, 0.5)",cs_neg_s,"(0.7, -0.5)",cs_pos_ns,"(0.7, 0.5)",cs_pos_s_new,0,0,0,0,,,,,,,,,,,,,,,,,,,,,,,,,,,,,0,4,4,32,2,0,2,0,,,,,,,,,,,,,,,342,loss,,,,,,1353.89042099996,1353.89042099996,1353.89042099996,1353.89042099996,1,0.024166899966076016,0.02417079999577254,0,,,0,,,0,,,1353.89042099996,1353.89042099996,1353.89042099996,1353.89042099996,42,D,2024-05-21_11h15.03.375,attentional_competition_task,2022.2.4,144.0133644883388,
positions.xlsx,positions_test.xlsx,positions_test_new.xlsx,stimuli.xlsx,stimuli_new.xlsx,stimuli/Social4.png,stimuli/Social3.png,stimuli/Nonsocial4.png,stimuli/Nonsocial3.png,stimuli/Social2.png,stimuli/Social1.png,stimuli/Nonsocial2.png,stimuli/Nonsocial1.png,,,"(-0.7, -0.5)",cs_neg_ns,"(-0.7, 0.5)",cs_neg_s,"(0.7, -0.5)",cs_pos_ns,"(0.7, 0.5)",cs_pos_s_new,0,0,0,0,,,,,,,,,,,,,,,,,,,,,,,,,,,,,0,4,4,32,,,,,,,,,,,,,,,,,,,,,,,,,,,,,,,,,,,,,,,,,,,,,,42,D,2024-05-21_11h15.03.375,attentional_competition_task,2022.2.4,144.0133644883388,
positions.xlsx,positions_test.xlsx,positions_test_new.xlsx,stimuli.xlsx,stimuli_new.xlsx,stimuli/Social4.png,stimuli/Social3.png,stimuli/Nonsocial4.png,stimuli/Nonsocial3.png,stimuli/Social2.png,stimuli/Social1.png,stimuli/Nonsocial2.png,stimuli/Nonsocial1.png,,,"(-0.7, -0.5)",cs_pos_ns,"(-0.7, 0.5)",cs_neg_s_new,"(0.7, -0.5)",cs_pos_s,"(0.7, 0.5)",cs_neg_ns,0,0,0,0,,,,,,,,,,,,,,,,,,,,,,,,,,,,,0,5,5,15,0,0,0,0,,,,,,,,,,,,,,,339,loss,,,,,,1360.7095343000256,1360.7095343000256,1360.7095343000256,1360.7095343000256,0,,,1,0.5439249000046402,0.543928400031291,0,,,0,,,1361.2581640999997,1361.2581640999997,1361.2581640999997,1361.2581640999997,42,D,2024-05-21_11h15.03.375,attentional_competition_task,2022.2.4,144.0133644883388,
positions.xlsx,positions_test.xlsx,positions_test_new.xlsx,stimuli.xlsx,stimuli_new.xlsx,stimuli/Social4.png,stimuli/Social3.png,stimuli/Nonsocial4.png,stimuli/Nonsocial3.png,stimuli/Social2.png,stimuli/Social1.png,stimuli/Nonsocial2.png,stimuli/Nonsocial1.png,,,"(-0.7, -0.5)",cs_pos_ns,"(-0.7, 0.5)",cs_neg_s_new,"(0.7, -0.5)",cs_pos_s,"(0.7, 0.5)",cs_neg_ns,0,0,0,0,,,,,,,,,,,,,,,,,,,,,,,,,,,,,0,5,5,15,1,0,1,0,,,,,,,,,,,,,,,342,reward,,,,,,1361.7859152000165,1361.7859152000165,1361.7859152000165,1361.7859152000165,0,,,0,,,1,0.029512900044210255,0.02951659995596856,0,,,1361.7859152000165,1361.7859152000165,1361.7859152000165,1361.7859152000165,42,D,2024-05-21_11h15.03.375,attentional_competition_task,2022.2.4,144.0133644883388,
positions.xlsx,positions_test.xlsx,positions_test_new.xlsx,stimuli.xlsx,stimuli_new.xlsx,stimuli/Social4.png,stimuli/Social3.png,stimuli/Nonsocial4.png,stimuli/Nonsocial3.png,stimuli/Social2.png,stimuli/Social1.png,stimuli/Nonsocial2.png,stimuli/Nonsocial1.png,,,"(-0.7, -0.5)",cs_pos_ns,"(-0.7, 0.5)",cs_neg_s_new,"(0.7, -0.5)",cs_pos_s,"(0.7, 0.5)",cs_neg_ns,0,0,0,0,,,,,,,,,,,,,,,,,,,,,,,,,,,,,0,5,5,15,2,0,2,0,,,,,,,,,,,,,,,339,loss,,,,,,1362.3206236000406,1362.3206236000406,1362.3206236000406,1362.3206236000406,0,,,0,,,0,,,1,0.025105000007897615,0.02510880003683269,1362.3206236000406,1362.3206236000406,1362.3206236000406,1362.3206236000406,42,D,2024-05-21_11h15.03.375,attentional_competition_task,2022.2.4,144.0133644883388,
positions.xlsx,positions_test.xlsx,positions_test_new.xlsx,stimuli.xlsx,stimuli_new.xlsx,stimuli/Social4.png,stimuli/Social3.png,stimuli/Nonsocial4.png,stimuli/Nonsocial3.png,stimuli/Social2.png,stimuli/Social1.png,stimuli/Nonsocial2.png,stimuli/Nonsocial1.png,,,"(-0.7, -0.5)",cs_pos_ns,"(-0.7, 0.5)",cs_neg_s_new,"(0.7, -0.5)",cs_pos_s,"(0.7, 0.5)",cs_neg_ns,0,0,0,0,,,,,,,,,,,,,,,,,,,,,,,,,,,,,0,5,5,15,,,,,,,,,,,,,,,,,,,,,,,,,,,,,,,,,,,,,,,,,,,,,,42,D,2024-05-21_11h15.03.375,attentional_competition_task,2022.2.4,144.0133644883388,
positions.xlsx,positions_test.xlsx,positions_test_new.xlsx,stimuli.xlsx,stimuli_new.xlsx,stimuli/Social4.png,stimuli/Social3.png,stimuli/Nonsocial4.png,stimuli/Nonsocial3.png,stimuli/Social2.png,stimuli/Social1.png,stimuli/Nonsocial2.png,stimuli/Nonsocial1.png,,,"(-0.7, -0.5)",cs_pos_ns,"(-0.7, 0.5)",cs_pos_s,"(0.7, -0.5)",cs_neg_s,"(0.7, 0.5)",cs_neg_ns,0,0,0,0,,,,,,,,,,,,,,,,,,,,,,,,,,,,,0,6,6,3,0,0,0,0,,,,,,,,,,,,,,,342,reward,,,,,,1369.3342187999515,1369.3342187999515,1369.3342187999515,1369.3342187999515,0,,,1,0.5783539999974892,0.5783577000256628,0,,,0,,,1369.917539200047,1369.917539200047,1369.917539200047,1369.917539200047,42,D,2024-05-21_11h15.03.375,attentional_competition_task,2022.2.4,144.0133644883388,
positions.xlsx,positions_test.xlsx,positions_test_new.xlsx,stimuli.xlsx,stimuli_new.xlsx,stimuli/Social4.png,stimuli/Social3.png,stimuli/Nonsocial4.png,stimuli/Nonsocial3.png,stimuli/Social2.png,stimuli/Social1.png,stimuli/Nonsocial2.png,stimuli/Nonsocial1.png,,,"(-0.7, -0.5)",cs_pos_ns,"(-0.7, 0.5)",cs_pos_s,"(0.7, -0.5)",cs_neg_s,"(0.7, 0.5)",cs_neg_ns,0,0,0,0,,,,,,,,,,,,,,,,,,,,,,,,,,,,,0,6,6,3,1,0,1,0,,,,,,,,,,,,,,,345,reward,,,,,,1370.452214900055,1370.452214900055,1370.452214900055,1370.452214900055,1,0.030116799985989928,0.030120700015686452,0,,,0,,,0,,,1370.452214900055,1370.452214900055,1370.452214900055,1370.452214900055,42,D,2024-05-21_11h15.03.375,attentional_competition_task,2022.2.4,144.0133644883388,
positions.xlsx,positions_test.xlsx,positions_test_new.xlsx,stimuli.xlsx,stimuli_new.xlsx,stimuli/Social4.png,stimuli/Social3.png,stimuli/Nonsocial4.png,stimuli/Nonsocial3.png,stimuli/Social2.png,stimuli/Social1.png,stimuli/Nonsocial2.png,stimuli/Nonsocial1.png,,,"(-0.7, -0.5)",cs_pos_ns,"(-0.7, 0.5)",cs_pos_s,"(0.7, -0.5)",cs_neg_s,"(0.7, 0.5)",cs_neg_ns,0,0,0,0,,,,,,,,,,,,,,,,,,,,,,,,,,,,,0,6,6,3,2,0,2,0,,,,,,,,,,,,,,,348,reward,,,,,,1370.9522112000268,1370.9522112000268,1370.9522112000268,1370.9522112000268,0,,,0,,,0,,,0,,,1371.8480254999595,1371.8480254999595,1371.8480254999595,1371.8480254999595,42,D,2024-05-21_11h15.03.375,attentional_competition_task,2022.2.4,144.0133644883388,
positions.xlsx,positions_test.xlsx,positions_test_new.xlsx,stimuli.xlsx,stimuli_new.xlsx,stimuli/Social4.png,stimuli/Social3.png,stimuli/Nonsocial4.png,stimuli/Nonsocial3.png,stimuli/Social2.png,stimuli/Social1.png,stimuli/Nonsocial2.png,stimuli/Nonsocial1.png,,,"(-0.7, -0.5)",cs_pos_ns,"(-0.7, 0.5)",cs_pos_s,"(0.7, -0.5)",cs_neg_s,"(0.7, 0.5)",cs_neg_ns,0,0,0,0,,,,,,,,,,,,,,,,,,,,,,,,,,,,,0,6,6,3,,,,,,,,,,,,,,,,,,,,,,,,,,,,,,,,,,,,,,,,,,,,,,42,D,2024-05-21_11h15.03.375,attentional_competition_task,2022.2.4,144.0133644883388,
positions.xlsx,positions_test.xlsx,positions_test_new.xlsx,stimuli.xlsx,stimuli_new.xlsx,stimuli/Social4.png,stimuli/Social3.png,stimuli/Nonsocial4.png,stimuli/Nonsocial3.png,stimuli/Social2.png,stimuli/Social1.png,stimuli/Nonsocial2.png,stimuli/Nonsocial1.png,,,"(-0.7, -0.5)",cs_pos_ns,"(-0.7, 0.5)",cs_neg_ns,"(0.7, -0.5)",cs_pos_s,"(0.7, 0.5)",cs_neg_s,0,0,0,0,,,,,,,,,,,,,,,,,,,,,,,,,,,,,0,7,7,4,0,0,0,0,,,,,,,,,,,,,,,351,reward,,,,,,1378.0213791000424,1378.0213791000424,1378.0213791000424,1378.0213791000424,1,1.0712879000930116,1.0781025000615045,0,,,1,0.9952471000142395,1.0026472000172362,0,,,1379.1116629999597,1379.1116629999597,1379.1116629999597,1379.1116629999597,42,D,2024-05-21_11h15.03.375,attentional_competition_task,2022.2.4,144.0133644883388,
positions.xlsx,positions_test.xlsx,positions_test_new.xlsx,stimuli.xlsx,stimuli_new.xlsx,stimuli/Social4.png,stimuli/Social3.png,stimuli/Nonsocial4.png,stimuli/Nonsocial3.png,stimuli/Social2.png,stimuli/Social1.png,stimuli/Nonsocial2.png,stimuli/Nonsocial1.png,,,"(-0.7, -0.5)",cs_pos_ns,"(-0.7, 0.5)",cs_neg_ns,"(0.7, -0.5)",cs_pos_s,"(0.7, 0.5)",cs_neg_s,0,0,0,0,,,,,,,,,,,,,,,,,,,,,,,,,,,,,0,7,7,4,1,0,1,0,,,,,,,,,,,,,,,354,reward,,,,,,1379.6115891999798,1379.6115891999798,1379.6115891999798,1379.6115891999798,0,,,0,,,0,,,0,,,1380.5421424000524,1380.5421424000524,1380.5421424000524,1380.5421424000524,42,D,2024-05-21_11h15.03.375,attentional_competition_task,2022.2.4,144.0133644883388,
positions.xlsx,positions_test.xlsx,positions_test_new.xlsx,stimuli.xlsx,stimuli_new.xlsx,stimuli/Social4.png,stimuli/Social3.png,stimuli/Nonsocial4.png,stimuli/Nonsocial3.png,stimuli/Social2.png,stimuli/Social1.png,stimuli/Nonsocial2.png,stimuli/Nonsocial1.png,,,"(-0.7, -0.5)",cs_pos_ns,"(-0.7, 0.5)",cs_neg_ns,"(0.7, -0.5)",cs_pos_s,"(0.7, 0.5)",cs_neg_s,0,0,0,0,,,,,,,,,,,,,,,,,,,,,,,,,,,,,0,7,7,4,,,,,,,,,,,,,,,,,,,,,,,,,,,,,,,,,,,,,,,,,,,,,,42,D,2024-05-21_11h15.03.375,attentional_competition_task,2022.2.4,144.0133644883388,
positions.xlsx,positions_test.xlsx,positions_test_new.xlsx,stimuli.xlsx,stimuli_new.xlsx,stimuli/Social4.png,stimuli/Social3.png,stimuli/Nonsocial4.png,stimuli/Nonsocial3.png,stimuli/Social2.png,stimuli/Social1.png,stimuli/Nonsocial2.png,stimuli/Nonsocial1.png,,,"(-0.7, -0.5)",cs_neg_s,"(-0.7, 0.5)",cs_pos_ns_new,"(0.7, -0.5)",cs_pos_s,"(0.7, 0.5)",cs_neg_ns,0,0,0,0,,,,,,,,,,,,,,,,,,,,,,,,,,,,,0,8,8,46,0,0,0,0,,,,,,,,,,,,,,,351,loss,,,,,,1387.3890765999677,1387.3890765999677,1387.3890765999677,1387.3890765999677,1,0.23828839999623597,0.23829209990799427,0,,,0,,,0,,,1387.6320986000355,1387.6320986000355,1387.6320986000355,1387.6320986000355,42,D,2024-05-21_11h15.03.375,attentional_competition_task,2022.2.4,144.0133644883388,
