posFile,posFileTest,posFileTestNew,stimFile,stimFileNew,cs_neg_s,cs_pos_s,cs_neg_ns,cs_pos_ns,cs_neg_s_new,cs_pos_s_new,cs_neg_ns_new,cs_pos_ns_new,stim,position,position1,stim1,position2,stim2,position3,stim3,position4,stim4,blocks.thisRepN,blocks.thisTrialN,blocks.thisN,blocks.thisIndex,ratingtrials1.thisRepN,ratingtrials1.thisTrialN,ratingtrials1.thisN,ratingtrials1.thisIndex,search_task_trials.thisRepN,search_task_trials.thisTrialN,search_task_trials.thisN,search_task_trials.thisIndex,learning_trials.thisRepN,learning_trials.thisTrialN,learning_trials.thisN,learning_trials.thisIndex,trials.thisRepN,trials.thisTrialN,trials.thisN,trials.thisIndex,ratingtrials2.thisRepN,ratingtrials2.thisTrialN,ratingtrials2.thisN,ratingtrials2.thisIndex,testtrials.thisRepN,testtrials.thisTrialN,testtrials.thisN,testtrials.thisIndex,loop_test.thisRepN,loop_test.thisTrialN,loop_test.thisN,loop_test.thisIndex,testtrials_novelty.thisRepN,testtrials_novelty.thisTrialN,testtrials_novelty.thisN,testtrials_novelty.thisIndex,loop_test_novelty.thisRepN,loop_test_novelty.thisTrialN,loop_test_novelty.thisN,loop_test_novelty.thisIndex,ratingtrials3.thisRepN,ratingtrials3.thisTrialN,ratingtrials3.thisN,ratingtrials3.thisIndex,textStart.started,textStartExp.started,imageRating.started,sliderStim.response,sliderStim.rt,textStartSearch.started,target_positions,distractor_positions,textStartTask.started,image.started,score,outcome,roi.numLooks,roi.timesOn,roi.timesOff,imageFeedback.started,textTestInstr.started,test_image1.started,test_image2.started,test_image3.started,test_image4.started,test_roi1.numLooks,test_roi1.timesOn,test_roi1.timesOff,test_roi2.numLooks,test_roi2.timesOn,test_roi2.timesOff,test_roi3.numLooks,test_roi3.timesOn,test_roi3.timesOff,test_roi4.numLooks,test_roi4.timesOn,test_roi4.timesOff,test_image_feedback1.started,test_image_feedback2.started,test_iamge_feedback3.started,test_iamge_feedback4.started,participant,group,date,expName,psychopyVersion,frameRate,
positions.xlsx,positions_test.xlsx,positions_test_new.xlsx,stimuli.xlsx,stimuli_new.xlsx,stimuli/Social4.png,stimuli/Social3.png,stimuli/Nonsocial4.png,stimuli/Nonsocial3.png,stimuli/Social2.png,stimuli/Social1.png,stimuli/Nonsocial2.png,stimuli/Nonsocial1.png,cs_pos_ns,,,,,,,,,,0,0,0,0,0,0,0,3,,,,,,,,,,,,,,,,,,,,,,,,,,,,,,,,,,,,,16.743464999992284,96.45104299999366,109.99540790000174,10.0,7.431558999989647,,,,,,,,,,,,,,,,,,,,,,,,,,,,,,,,,38,D,2024-05-16_08h15.05.738,attentional_competition_task,2022.2.4,144.01253483247456,
positions.xlsx,positions_test.xlsx,positions_test_new.xlsx,stimuli.xlsx,stimuli_new.xlsx,stimuli/Social4.png,stimuli/Social3.png,stimuli/Nonsocial4.png,stimuli/Nonsocial3.png,stimuli/Social2.png,stimuli/Social1.png,stimuli/Nonsocial2.png,stimuli/Nonsocial1.png,cs_neg_s,,,,,,,,,,0,0,0,0,0,1,1,0,,,,,,,,,,,,,,,,,,,,,,,,,,,,,,,,,,,,,,,118.69640059999074,8.0,3.943742799994652,,,,,,,,,,,,,,,,,,,,,,,,,,,,,,,,,38,D,2024-05-16_08h15.05.738,attentional_competition_task,2022.2.4,144.01253483247456,
positions.xlsx,positions_test.xlsx,positions_test_new.xlsx,stimuli.xlsx,stimuli_new.xlsx,stimuli/Social4.png,stimuli/Social3.png,stimuli/Nonsocial4.png,stimuli/Nonsocial3.png,stimuli/Social2.png,stimuli/Social1.png,stimuli/Nonsocial2.png,stimuli/Nonsocial1.png,cs_neg_ns,,,,,,,,,,0,0,0,0,0,2,2,1,,,,,,,,,,,,,,,,,,,,,,,,,,,,,,,,,,,,,,,124.27255090000108,10.0,2.107446099995286,,,,,,,,,,,,,,,,,,,,,,,,,,,,,,,,,38,D,2024-05-16_08h15.05.738,attentional_competition_task,2022.2.4,144.01253483247456,
positions.xlsx,positions_test.xlsx,positions_test_new.xlsx,stimuli.xlsx,stimuli_new.xlsx,stimuli/Social4.png,stimuli/Social3.png,stimuli/Nonsocial4.png,stimuli/Nonsocial3.png,stimuli/Social2.png,stimuli/Social1.png,stimuli/Nonsocial2.png,stimuli/Nonsocial1.png,cs_pos_s,,,,,,,,,,0,0,0,0,0,3,3,2,,,,,,,,,,,,,,,,,,,,,,,,,,,,,,,,,,,,,,,127.05019629999879,6.0,2.10076799998933,,,,,,,,,,,,,,,,,,,,,,,,,,,,,,,,,38,D,2024-05-16_08h15.05.738,attentional_competition_task,2022.2.4,144.01253483247456,
positions.xlsx,positions_test.xlsx,positions_test_new.xlsx,stimuli.xlsx,stimuli_new.xlsx,stimuli/Social4.png,stimuli/Social3.png,stimuli/Nonsocial4.png,stimuli/Nonsocial3.png,stimuli/Social2.png,stimuli/Social1.png,stimuli/Nonsocial2.png,stimuli/Nonsocial1.png,,,,,,,,,,,0,0,0,0,,,,,0,0,0,0,,,,,,,,,,,,,,,,,,,,,,,,,,,,,,,,,,,,,,132.6750073000003,"[[0.22499999999999998, 0.19999999999999996], [0.0, 0.7], [0.6749999999999999, 0.19999999999999996], [-0.675, -0.30000000000000004], [-0.45, -0.8], [0.0, -0.8], [-0.45, -0.30000000000000004], [-0.9, -0.8], [-0.45, 0.7], [0.45000000000000007, -0.30000000000000004], [0.22499999999999998, 0.7], [0.9, -0.8], [0.6749999999999999, -0.8], [0.9, 0.7], [-0.675, 0.19999999999999996]]","[[-0.9, 0.7], [0.6749999999999999, 0.7], [0.9, 0.19999999999999996], [0.22499999999999998, -0.8], [-0.9, -0.30000000000000004], [0.45000000000000007, 0.7], [-0.22499999999999998, -0.30000000000000004], [0.45000000000000007, -0.8], [0.6749999999999999, -0.30000000000000004], [0.0, 0.19999999999999996], [0.0, -0.30000000000000004], [0.9, -0.30000000000000004], [0.22499999999999998, -0.30000000000000004], [-0.22499999999999998, -0.8], [-0.45, 0.19999999999999996]]",,,,,,,,,,,,,,,,,,,,,,,,,,,,,,38,D,2024-05-16_08h15.05.738,attentional_competition_task,2022.2.4,144.01253483247456,
positions.xlsx,positions_test.xlsx,positions_test_new.xlsx,stimuli.xlsx,stimuli_new.xlsx,stimuli/Social4.png,stimuli/Social3.png,stimuli/Nonsocial4.png,stimuli/Nonsocial3.png,stimuli/Social2.png,stimuli/Social1.png,stimuli/Nonsocial2.png,stimuli/Nonsocial1.png,,,,,,,,,,,0,0,0,0,,,,,1,0,1,0,,,,,,,,,,,,,,,,,,,,,,,,,,,,,,,,,,,,,,,"[[-0.45, 0.7], [-0.45, -0.8], [-0.675, -0.8], [0.0, -0.30000000000000004], [-0.45, -0.30000000000000004], [0.22499999999999998, 0.7], [0.45000000000000007, 0.7], [0.22499999999999998, -0.8], [0.0, 0.7], [0.9, -0.8], [0.9, -0.30000000000000004], [-0.9, -0.30000000000000004], [0.6749999999999999, 0.7], [-0.22499999999999998, -0.8], [0.22499999999999998, 0.19999999999999996]]","[[0.6749999999999999, -0.8], [-0.675, 0.19999999999999996], [0.9, 0.19999999999999996], [0.9, 0.7], [-0.22499999999999998, 0.7], [-0.9, -0.8], [-0.675, 0.7], [0.6749999999999999, 0.19999999999999996], [0.45000000000000007, 0.19999999999999996], [-0.22499999999999998, -0.30000000000000004], [0.45000000000000007, -0.30000000000000004], [-0.45, 0.19999999999999996], [-0.22499999999999998, 0.19999999999999996], [-0.9, 0.19999999999999996], [0.45000000000000007, -0.8]]",,,,,,,,,,,,,,,,,,,,,,,,,,,,,,38,D,2024-05-16_08h15.05.738,attentional_competition_task,2022.2.4,144.01253483247456,
positions.xlsx,positions_test.xlsx,positions_test_new.xlsx,stimuli.xlsx,stimuli_new.xlsx,stimuli/Social4.png,stimuli/Social3.png,stimuli/Nonsocial4.png,stimuli/Nonsocial3.png,stimuli/Social2.png,stimuli/Social1.png,stimuli/Nonsocial2.png,stimuli/Nonsocial1.png,cs_neg_ns,"(0.7, 0.5)",,,,,,,,,0,0,0,0,,,,,,,,,0,0,0,10,,,,,,,,,,,,,,,,,,,,,,,,,,,,,,,,,,,,,212.09536169999046,232.15007930000138,-3,loss,1,0.2085879000078421,0.2085918000084348,232.37229800000205,,,,,,,,,,,,,,,,,,,,,,38,D,2024-05-16_08h15.05.738,attentional_competition_task,2022.2.4,144.01253483247456,
positions.xlsx,positions_test.xlsx,positions_test_new.xlsx,stimuli.xlsx,stimuli_new.xlsx,stimuli/Social4.png,stimuli/Social3.png,stimuli/Nonsocial4.png,stimuli/Nonsocial3.png,stimuli/Social2.png,stimuli/Social1.png,stimuli/Nonsocial2.png,stimuli/Nonsocial1.png,cs_neg_s,"(0.7, -0.5)",,,,,,,,,0,0,0,0,,,,,,,,,0,1,1,3,,,,,,,,,,,,,,,,,,,,,,,,,,,,,,,,,,,,,,239.98309149999113,-6,loss,1,1.9654492999979993,1.9654529999970691,241.95525449998968,,,,,,,,,,,,,,,,,,,,,,38,D,2024-05-16_08h15.05.738,attentional_competition_task,2022.2.4,144.01253483247456,
positions.xlsx,positions_test.xlsx,positions_test_new.xlsx,stimuli.xlsx,stimuli_new.xlsx,stimuli/Social4.png,stimuli/Social3.png,stimuli/Nonsocial4.png,stimuli/Nonsocial3.png,stimuli/Social2.png,stimuli/Social1.png,stimuli/Nonsocial2.png,stimuli/Nonsocial1.png,cs_pos_ns,"(0.7, 0.5)",,,,,,,,,0,0,0,0,,,,,,,,,0,2,2,14,,,,,,,,,,,,,,,,,,,,,,,,,,,,,,,,,,,,,,249.92715319999843,-6,none,0,,,252.94095659999584,,,,,,,,,,,,,,,,,,,,,,38,D,2024-05-16_08h15.05.738,attentional_competition_task,2022.2.4,144.01253483247456,
positions.xlsx,positions_test.xlsx,positions_test_new.xlsx,stimuli.xlsx,stimuli_new.xlsx,stimuli/Social4.png,stimuli/Social3.png,stimuli/Nonsocial4.png,stimuli/Nonsocial3.png,stimuli/Social2.png,stimuli/Social1.png,stimuli/Nonsocial2.png,stimuli/Nonsocial1.png,cs_pos_ns,"(-0.7, 0.5)",,,,,,,,,0,0,0,0,,,,,,,,,0,3,3,12,,,,,,,,,,,,,,,,,,,,,,,,,,,,,,,,,,,,,,260.1628511000017,-6,none,0,,,263.17662699999346,,,,,,,,,,,,,,,,,,,,,,38,D,2024-05-16_08h15.05.738,attentional_competition_task,2022.2.4,144.01253483247456,
positions.xlsx,positions_test.xlsx,positions_test_new.xlsx,stimuli.xlsx,stimuli_new.xlsx,stimuli/Social4.png,stimuli/Social3.png,stimuli/Nonsocial4.png,stimuli/Nonsocial3.png,stimuli/Social2.png,stimuli/Social1.png,stimuli/Nonsocial2.png,stimuli/Nonsocial1.png,cs_pos_ns,"(0.7, -0.5)",,,,,,,,,0,0,0,0,,,,,,,,,0,4,4,15,,,,,,,,,,,,,,,,,,,,,,,,,,,,,,,,,,,,,,270.70406170000206,-3,reward,1,0.2223461999965366,0.22234999999636784,270.9471319000004,,,,,,,,,,,,,,,,,,,,,,38,D,2024-05-16_08h15.05.738,attentional_competition_task,2022.2.4,144.01253483247456,
positions.xlsx,positions_test.xlsx,positions_test_new.xlsx,stimuli.xlsx,stimuli_new.xlsx,stimuli/Social4.png,stimuli/Social3.png,stimuli/Nonsocial4.png,stimuli/Nonsocial3.png,stimuli/Social2.png,stimuli/Social1.png,stimuli/Nonsocial2.png,stimuli/Nonsocial1.png,cs_pos_s,"(0.7, -0.5)",,,,,,,,,0,0,0,0,,,,,,,,,0,5,5,7,,,,,,,,,,,,,,,,,,,,,,,,,,,,,,,,,,,,,,279.16207320000103,0,reward,1,0.18797869999252725,0.18798259999311995,279.356526699994,,,,,,,,,,,,,,,,,,,,,,38,D,2024-05-16_08h15.05.738,attentional_competition_task,2022.2.4,144.01253483247456,
positions.xlsx,positions_test.xlsx,positions_test_new.xlsx,stimuli.xlsx,stimuli_new.xlsx,stimuli/Social4.png,stimuli/Social3.png,stimuli/Nonsocial4.png,stimuli/Nonsocial3.png,stimuli/Social2.png,stimuli/Social1.png,stimuli/Nonsocial2.png,stimuli/Nonsocial1.png,cs_neg_s,"(-0.7, -0.5)",,,,,,,,,0,0,0,0,,,,,,,,,0,6,6,1,,,,,,,,,,,,,,,,,,,,,,,,,,,,,,,,,,,,,,286.8839561999921,-3,loss,1,0.18759280000813305,0.1875960000033956,287.07843100000173,,,,,,,,,,,,,,,,,,,,,,38,D,2024-05-16_08h15.05.738,attentional_competition_task,2022.2.4,144.01253483247456,
positions.xlsx,positions_test.xlsx,positions_test_new.xlsx,stimuli.xlsx,stimuli_new.xlsx,stimuli/Social4.png,stimuli/Social3.png,stimuli/Nonsocial4.png,stimuli/Nonsocial3.png,stimuli/Social2.png,stimuli/Social1.png,stimuli/Nonsocial2.png,stimuli/Nonsocial1.png,cs_pos_s,"(0.7, 0.5)",,,,,,,,,0,0,0,0,,,,,,,,,0,7,7,6,,,,,,,,,,,,,,,,,,,,,,,,,,,,,,,,,,,,,,293.9600508000003,0,reward,1,0.4795275000069523,0.4795310000044992,294.44620869999926,,,,,,,,,,,,,,,,,,,,,,38,D,2024-05-16_08h15.05.738,attentional_competition_task,2022.2.4,144.01253483247456,
positions.xlsx,positions_test.xlsx,positions_test_new.xlsx,stimuli.xlsx,stimuli_new.xlsx,stimuli/Social4.png,stimuli/Social3.png,stimuli/Nonsocial4.png,stimuli/Nonsocial3.png,stimuli/Social2.png,stimuli/Social1.png,stimuli/Nonsocial2.png,stimuli/Nonsocial1.png,cs_pos_s,"(-0.7, -0.5)",,,,,,,,,0,0,0,0,,,,,,,,,0,8,8,5,,,,,,,,,,,,,,,,,,,,,,,,,,,,,,,,,,,,,,302.1194378999935,3,reward,1,0.7153445000003558,0.7153479999979027,302.84162949999154,,,,,,,,,,,,,,,,,,,,,,38,D,2024-05-16_08h15.05.738,attentional_competition_task,2022.2.4,144.01253483247456,
positions.xlsx,positions_test.xlsx,positions_test_new.xlsx,stimuli.xlsx,stimuli_new.xlsx,stimuli/Social4.png,stimuli/Social3.png,stimuli/Nonsocial4.png,stimuli/Nonsocial3.png,stimuli/Social2.png,stimuli/Social1.png,stimuli/Nonsocial2.png,stimuli/Nonsocial1.png,cs_neg_ns,"(-0.7, 0.5)",,,,,,,,,0,0,0,0,,,,,,,,,0,9,9,8,,,,,,,,,,,,,,,,,,,,,,,,,,,,,,,,,,,,,,309.86219059998984,0,loss,1,1.0903263000072911,1.0903301000071224,310.9594905999984,,,,,,,,,,,,,,,,,,,,,,38,D,2024-05-16_08h15.05.738,attentional_competition_task,2022.2.4,144.01253483247456,
positions.xlsx,positions_test.xlsx,positions_test_new.xlsx,stimuli.xlsx,stimuli_new.xlsx,stimuli/Social4.png,stimuli/Social3.png,stimuli/Nonsocial4.png,stimuli/Nonsocial3.png,stimuli/Social2.png,stimuli/Social1.png,stimuli/Nonsocial2.png,stimuli/Nonsocial1.png,cs_neg_ns,"(-0.7, -0.5)",,,,,,,,,0,0,0,0,,,,,,,,,0,10,10,9,,,,,,,,,,,,,,,,,,,,,,,,,,,,,,,,,,,,,,318.01469159999397,-3,loss,1,0.6671524999983376,0.6671560999966459,318.68827469999087,,,,,,,,,,,,,,,,,,,,,,38,D,2024-05-16_08h15.05.738,attentional_competition_task,2022.2.4,144.01253483247456,
positions.xlsx,positions_test.xlsx,positions_test_new.xlsx,stimuli.xlsx,stimuli_new.xlsx,stimuli/Social4.png,stimuli/Social3.png,stimuli/Nonsocial4.png,stimuli/Nonsocial3.png,stimuli/Social2.png,stimuli/Social1.png,stimuli/Nonsocial2.png,stimuli/Nonsocial1.png,cs_pos_s,"(-0.7, 0.5)",,,,,,,,,0,0,0,0,,,,,,,,,0,11,11,4,,,,,,,,,,,,,,,,,,,,,,,,,,,,,,,,,,,,,,325.98653699998977,0,reward,1,0.6880838000070071,0.6880872000037925,326.68100479998975,,,,,,,,,,,,,,,,,,,,,,38,D,2024-05-16_08h15.05.738,attentional_competition_task,2022.2.4,144.01253483247456,
positions.xlsx,positions_test.xlsx,positions_test_new.xlsx,stimuli.xlsx,stimuli_new.xlsx,stimuli/Social4.png,stimuli/Social3.png,stimuli/Nonsocial4.png,stimuli/Nonsocial3.png,stimuli/Social2.png,stimuli/Social1.png,stimuli/Nonsocial2.png,stimuli/Nonsocial1.png,cs_neg_s,"(0.7, 0.5)",,,,,,,,,0,0,0,0,,,,,,,,,0,12,12,2,,,,,,,,,,,,,,,,,,,,,,,,,,,,,,,,,,,,,,334.1806484999979,-3,loss,1,0.5352266999980202,0.5352305999986129,334.72231779999856,,,,,,,,,,,,,,,,,,,,,,38,D,2024-05-16_08h15.05.738,attentional_competition_task,2022.2.4,144.01253483247456,
positions.xlsx,positions_test.xlsx,positions_test_new.xlsx,stimuli.xlsx,stimuli_new.xlsx,stimuli/Social4.png,stimuli/Social3.png,stimuli/Nonsocial4.png,stimuli/Nonsocial3.png,stimuli/Social2.png,stimuli/Social1.png,stimuli/Nonsocial2.png,stimuli/Nonsocial1.png,cs_neg_s,"(-0.7, 0.5)",,,,,,,,,0,0,0,0,,,,,,,,,0,13,13,0,,,,,,,,,,,,,,,,,,,,,,,,,,,,,,,,,,,,,,342.0901014999981,-3,none,0,,,345.103870299994,,,,,,,,,,,,,,,,,,,,,,38,D,2024-05-16_08h15.05.738,attentional_competition_task,2022.2.4,144.01253483247456,
positions.xlsx,positions_test.xlsx,positions_test_new.xlsx,stimuli.xlsx,stimuli_new.xlsx,stimuli/Social4.png,stimuli/Social3.png,stimuli/Nonsocial4.png,stimuli/Nonsocial3.png,stimuli/Social2.png,stimuli/Social1.png,stimuli/Nonsocial2.png,stimuli/Nonsocial1.png,cs_neg_ns,"(0.7, -0.5)",,,,,,,,,0,0,0,0,,,,,,,,,0,14,14,11,,,,,,,,,,,,,,,,,,,,,,,,,,,,,,,,,,,,,,353.4924292999931,-6,loss,1,0.49991980000049807,0.49992349999956787,353.9993548999919,,,,,,,,,,,,,,,,,,,,,,38,D,2024-05-16_08h15.05.738,attentional_competition_task,2022.2.4,144.01253483247456,
positions.xlsx,positions_test.xlsx,positions_test_new.xlsx,stimuli.xlsx,stimuli_new.xlsx,stimuli/Social4.png,stimuli/Social3.png,stimuli/Nonsocial4.png,stimuli/Nonsocial3.png,stimuli/Social2.png,stimuli/Social1.png,stimuli/Nonsocial2.png,stimuli/Nonsocial1.png,cs_pos_ns,"(-0.7, -0.5)",,,,,,,,,0,0,0,0,,,,,,,,,0,15,15,13,,,,,,,,,,,,,,,,,,,,,,,,,,,,,,,,,,,,,,361.7698237000004,-3,reward,1,0.7014709000068251,0.7014745000051335,362.47819080000045,,,,,,,,,,,,,,,,,,,,,,38,D,2024-05-16_08h15.05.738,attentional_competition_task,2022.2.4,144.01253483247456,
positions.xlsx,positions_test.xlsx,positions_test_new.xlsx,stimuli.xlsx,stimuli_new.xlsx,stimuli/Social4.png,stimuli/Social3.png,stimuli/Nonsocial4.png,stimuli/Nonsocial3.png,stimuli/Social2.png,stimuli/Social1.png,stimuli/Nonsocial2.png,stimuli/Nonsocial1.png,cs_neg_ns,"(0.7, -0.5)",,,,,,,,,0,0,0,0,,,,,,,,,1,0,16,11,,,,,,,,,,,,,,,,,,,,,,,,,,,,,,,,,,,,,,370.2694727999915,-3,none,0,,,373.28330460000143,,,,,,,,,,,,,,,,,,,,,,38,D,2024-05-16_08h15.05.738,attentional_competition_task,2022.2.4,144.01253483247456,
positions.xlsx,positions_test.xlsx,positions_test_new.xlsx,stimuli.xlsx,stimuli_new.xlsx,stimuli/Social4.png,stimuli/Social3.png,stimuli/Nonsocial4.png,stimuli/Nonsocial3.png,stimuli/Social2.png,stimuli/Social1.png,stimuli/Nonsocial2.png,stimuli/Nonsocial1.png,cs_pos_ns,"(0.7, 0.5)",,,,,,,,,0,0,0,0,,,,,,,,,1,1,17,14,,,,,,,,,,,,,,,,,,,,,,,,,,,,,,,,,,,,,,381.0676601000014,0,reward,1,1.2222002999915276,1.2222039999905974,382.2967324999918,,,,,,,,,,,,,,,,,,,,,,38,D,2024-05-16_08h15.05.738,attentional_competition_task,2022.2.4,144.01253483247456,
positions.xlsx,positions_test.xlsx,positions_test_new.xlsx,stimuli.xlsx,stimuli_new.xlsx,stimuli/Social4.png,stimuli/Social3.png,stimuli/Nonsocial4.png,stimuli/Nonsocial3.png,stimuli/Social2.png,stimuli/Social1.png,stimuli/Nonsocial2.png,stimuli/Nonsocial1.png,cs_neg_ns,"(-0.7, 0.5)",,,,,,,,,0,0,0,0,,,,,,,,,1,2,18,8,,,,,,,,,,,,,,,,,,,,,,,,,,,,,,,,,,,,,,389.6436893999926,0,none,0,,,392.6574668999965,,,,,,,,,,,,,,,,,,,,,,38,D,2024-05-16_08h15.05.738,attentional_competition_task,2022.2.4,144.01253483247456,
positions.xlsx,positions_test.xlsx,positions_test_new.xlsx,stimuli.xlsx,stimuli_new.xlsx,stimuli/Social4.png,stimuli/Social3.png,stimuli/Nonsocial4.png,stimuli/Nonsocial3.png,stimuli/Social2.png,stimuli/Social1.png,stimuli/Nonsocial2.png,stimuli/Nonsocial1.png,cs_pos_ns,"(0.7, -0.5)",,,,,,,,,0,0,0,0,,,,,,,,,1,3,19,15,,,,,,,,,,,,,,,,,,,,,,,,,,,,,,,,,,,,,,400.33073899999727,3,reward,1,2.3471933999971952,2.347197299997788,402.68483749999723,,,,,,,,,,,,,,,,,,,,,,38,D,2024-05-16_08h15.05.738,attentional_competition_task,2022.2.4,144.01253483247456,
positions.xlsx,positions_test.xlsx,positions_test_new.xlsx,stimuli.xlsx,stimuli_new.xlsx,stimuli/Social4.png,stimuli/Social3.png,stimuli/Nonsocial4.png,stimuli/Nonsocial3.png,stimuli/Social2.png,stimuli/Social1.png,stimuli/Nonsocial2.png,stimuli/Nonsocial1.png,cs_neg_s,"(-0.7, 0.5)",,,,,,,,,0,0,0,0,,,,,,,,,1,4,20,0,,,,,,,,,,,,,,,,,,,,,,,,,,,,,,,,,,,,,,410.9969898999989,3,none,0,,,414.01076379998995,,,,,,,,,,,,,,,,,,,,,,38,D,2024-05-16_08h15.05.738,attentional_competition_task,2022.2.4,144.01253483247456,
positions.xlsx,positions_test.xlsx,positions_test_new.xlsx,stimuli.xlsx,stimuli_new.xlsx,stimuli/Social4.png,stimuli/Social3.png,stimuli/Nonsocial4.png,stimuli/Nonsocial3.png,stimuli/Social2.png,stimuli/Social1.png,stimuli/Nonsocial2.png,stimuli/Nonsocial1.png,cs_neg_ns,"(-0.7, -0.5)",,,,,,,,,0,0,0,0,,,,,,,,,1,5,21,9,,,,,,,,,,,,,,,,,,,,,,,,,,,,,,,,,,,,,,421.27435429999605,3,none,0,,,424.2881303999893,,,,,,,,,,,,,,,,,,,,,,38,D,2024-05-16_08h15.05.738,attentional_competition_task,2022.2.4,144.01253483247456,
positions.xlsx,positions_test.xlsx,positions_test_new.xlsx,stimuli.xlsx,stimuli_new.xlsx,stimuli/Social4.png,stimuli/Social3.png,stimuli/Nonsocial4.png,stimuli/Nonsocial3.png,stimuli/Social2.png,stimuli/Social1.png,stimuli/Nonsocial2.png,stimuli/Nonsocial1.png,cs_pos_s,"(-0.7, -0.5)",,,,,,,,,0,0,0,0,,,,,,,,,1,6,22,5,,,,,,,,,,,,,,,,,,,,,,,,,,,,,,,,,,,,,,430.98926770000253,6,reward,1,0.7225514000019757,0.722555000000284,431.71843379999336,,,,,,,,,,,,,,,,,,,,,,38,D,2024-05-16_08h15.05.738,attentional_competition_task,2022.2.4,144.01253483247456,
positions.xlsx,positions_test.xlsx,positions_test_new.xlsx,stimuli.xlsx,stimuli_new.xlsx,stimuli/Social4.png,stimuli/Social3.png,stimuli/Nonsocial4.png,stimuli/Nonsocial3.png,stimuli/Social2.png,stimuli/Social1.png,stimuli/Nonsocial2.png,stimuli/Nonsocial1.png,cs_pos_s,"(0.7, -0.5)",,,,,,,,,0,0,0,0,,,,,,,,,1,7,23,7,,,,,,,,,,,,,,,,,,,,,,,,,,,,,,,,,,,,,,438.9264477999968,9,reward,1,0.6529322999995202,0.6529362000001129,439.58619639999233,,,,,,,,,,,,,,,,,,,,,,38,D,2024-05-16_08h15.05.738,attentional_competition_task,2022.2.4,144.01253483247456,
positions.xlsx,positions_test.xlsx,positions_test_new.xlsx,stimuli.xlsx,stimuli_new.xlsx,stimuli/Social4.png,stimuli/Social3.png,stimuli/Nonsocial4.png,stimuli/Nonsocial3.png,stimuli/Social2.png,stimuli/Social1.png,stimuli/Nonsocial2.png,stimuli/Nonsocial1.png,cs_pos_ns,"(-0.7, -0.5)",,,,,,,,,0,0,0,0,,,,,,,,,1,8,24,13,,,,,,,,,,,,,,,,,,,,,,,,,,,,,,,,,,,,,,447.0511710999999,12,reward,1,0.8126079000066966,0.812611300003482,447.8705020999914,,,,,,,,,,,,,,,,,,,,,,38,D,2024-05-16_08h15.05.738,attentional_competition_task,2022.2.4,144.01253483247456,
positions.xlsx,positions_test.xlsx,positions_test_new.xlsx,stimuli.xlsx,stimuli_new.xlsx,stimuli/Social4.png,stimuli/Social3.png,stimuli/Nonsocial4.png,stimuli/Nonsocial3.png,stimuli/Social2.png,stimuli/Social1.png,stimuli/Nonsocial2.png,stimuli/Nonsocial1.png,cs_pos_s,"(-0.7, 0.5)",,,,,,,,,0,0,0,0,,,,,,,,,1,9,25,4,,,,,,,,,,,,,,,,,,,,,,,,,,,,,,,,,,,,,,455.7452418999892,15,reward,1,0.6322018000064418,0.6322057000070345,456.3910668999888,,,,,,,,,,,,,,,,,,,,,,38,D,2024-05-16_08h15.05.738,attentional_competition_task,2022.2.4,144.01253483247456,
positions.xlsx,positions_test.xlsx,positions_test_new.xlsx,stimuli.xlsx,stimuli_new.xlsx,stimuli/Social4.png,stimuli/Social3.png,stimuli/Nonsocial4.png,stimuli/Nonsocial3.png,stimuli/Social2.png,stimuli/Social1.png,stimuli/Nonsocial2.png,stimuli/Nonsocial1.png,cs_neg_ns,"(0.7, 0.5)",,,,,,,,,0,0,0,0,,,,,,,,,1,10,26,10,,,,,,,,,,,,,,,,,,,,,,,,,,,,,,,,,,,,,,463.3629460999946,15,none,0,,,466.3767586999893,,,,,,,,,,,,,,,,,,,,,,38,D,2024-05-16_08h15.05.738,attentional_competition_task,2022.2.4,144.01253483247456,
positions.xlsx,positions_test.xlsx,positions_test_new.xlsx,stimuli.xlsx,stimuli_new.xlsx,stimuli/Social4.png,stimuli/Social3.png,stimuli/Nonsocial4.png,stimuli/Nonsocial3.png,stimuli/Social2.png,stimuli/Social1.png,stimuli/Nonsocial2.png,stimuli/Nonsocial1.png,cs_pos_s,"(0.7, 0.5)",,,,,,,,,0,0,0,0,,,,,,,,,1,11,27,6,,,,,,,,,,,,,,,,,,,,,,,,,,,,,,,,,,,,,,473.81392029998824,18,reward,1,0.6043197999970289,0.6043234000098892,474.42500999999174,,,,,,,,,,,,,,,,,,,,,,38,D,2024-05-16_08h15.05.738,attentional_competition_task,2022.2.4,144.01253483247456,
positions.xlsx,positions_test.xlsx,positions_test_new.xlsx,stimuli.xlsx,stimuli_new.xlsx,stimuli/Social4.png,stimuli/Social3.png,stimuli/Nonsocial4.png,stimuli/Nonsocial3.png,stimuli/Social2.png,stimuli/Social1.png,stimuli/Nonsocial2.png,stimuli/Nonsocial1.png,cs_neg_s,"(0.7, -0.5)",,,,,,,,,0,0,0,0,,,,,,,,,1,12,28,3,,,,,,,,,,,,,,,,,,,,,,,,,,,,,,,,,,,,,,482.2510814999987,18,none,0,,,485.2648659999977,,,,,,,,,,,,,,,,,,,,,,38,D,2024-05-16_08h15.05.738,attentional_competition_task,2022.2.4,144.01253483247456,
positions.xlsx,positions_test.xlsx,positions_test_new.xlsx,stimuli.xlsx,stimuli_new.xlsx,stimuli/Social4.png,stimuli/Social3.png,stimuli/Nonsocial4.png,stimuli/Nonsocial3.png,stimuli/Social2.png,stimuli/Social1.png,stimuli/Nonsocial2.png,stimuli/Nonsocial1.png,cs_neg_s,"(-0.7, -0.5)",,,,,,,,,0,0,0,0,,,,,,,,,1,13,29,1,,,,,,,,,,,,,,,,,,,,,,,,,,,,,,,,,,,,,,492.68817319998925,18,none,0,,,495.69499459999497,,,,,,,,,,,,,,,,,,,,,,38,D,2024-05-16_08h15.05.738,attentional_competition_task,2022.2.4,144.01253483247456,
positions.xlsx,positions_test.xlsx,positions_test_new.xlsx,stimuli.xlsx,stimuli_new.xlsx,stimuli/Social4.png,stimuli/Social3.png,stimuli/Nonsocial4.png,stimuli/Nonsocial3.png,stimuli/Social2.png,stimuli/Social1.png,stimuli/Nonsocial2.png,stimuli/Nonsocial1.png,cs_neg_s,"(0.7, 0.5)",,,,,,,,,0,0,0,0,,,,,,,,,1,14,30,2,,,,,,,,,,,,,,,,,,,,,,,,,,,,,,,,,,,,,,503.375226499993,18,none,0,,,506.38899429999583,,,,,,,,,,,,,,,,,,,,,,38,D,2024-05-16_08h15.05.738,attentional_competition_task,2022.2.4,144.01253483247456,
positions.xlsx,positions_test.xlsx,positions_test_new.xlsx,stimuli.xlsx,stimuli_new.xlsx,stimuli/Social4.png,stimuli/Social3.png,stimuli/Nonsocial4.png,stimuli/Nonsocial3.png,stimuli/Social2.png,stimuli/Social1.png,stimuli/Nonsocial2.png,stimuli/Nonsocial1.png,cs_pos_ns,"(-0.7, 0.5)",,,,,,,,,0,0,0,0,,,,,,,,,1,15,31,12,,,,,,,,,,,,,,,,,,,,,,,,,,,,,,,,,,,,,,514.4025672999996,21,reward,1,0.8263908999942942,0.8263951999979327,515.235857599997,,,,,,,,,,,,,,,,,,,,,,38,D,2024-05-16_08h15.05.738,attentional_competition_task,2022.2.4,144.01253483247456,
positions.xlsx,positions_test.xlsx,positions_test_new.xlsx,stimuli.xlsx,stimuli_new.xlsx,stimuli/Social4.png,stimuli/Social3.png,stimuli/Nonsocial4.png,stimuli/Nonsocial3.png,stimuli/Social2.png,stimuli/Social1.png,stimuli/Nonsocial2.png,stimuli/Nonsocial1.png,cs_neg_s,"(-0.7, -0.5)",,,,,,,,,0,0,0,0,,,,,,,,,,,,,0,0,0,1,,,,,,,,,,,,,,,,,,,,,,,,,,,,,,,,,,540.7486992999911,21,none,0,,,543.7624978999957,,,,,,,,,,,,,,,,,,,,,,38,D,2024-05-16_08h15.05.738,attentional_competition_task,2022.2.4,144.01253483247456,
positions.xlsx,positions_test.xlsx,positions_test_new.xlsx,stimuli.xlsx,stimuli_new.xlsx,stimuli/Social4.png,stimuli/Social3.png,stimuli/Nonsocial4.png,stimuli/Nonsocial3.png,stimuli/Social2.png,stimuli/Social1.png,stimuli/Nonsocial2.png,stimuli/Nonsocial1.png,cs_pos_s,"(-0.7, 0.5)",,,,,,,,,0,0,0,0,,,,,,,,,,,,,0,1,1,4,,,,,,,,,,,,,,,,,,,,,,,,,,,,,,,,,,551.8871433999884,24,reward,1,0.7017033000010997,0.7017070000001695,552.5954972999898,,,,,,,,,,,,,,,,,,,,,,38,D,2024-05-16_08h15.05.738,attentional_competition_task,2022.2.4,144.01253483247456,
positions.xlsx,positions_test.xlsx,positions_test_new.xlsx,stimuli.xlsx,stimuli_new.xlsx,stimuli/Social4.png,stimuli/Social3.png,stimuli/Nonsocial4.png,stimuli/Nonsocial3.png,stimuli/Social2.png,stimuli/Social1.png,stimuli/Nonsocial2.png,stimuli/Nonsocial1.png,cs_pos_s,"(-0.7, -0.5)",,,,,,,,,0,0,0,0,,,,,,,,,,,,,0,2,2,5,,,,,,,,,,,,,,,,,,,,,,,,,,,,,,,,,,559.963204300002,27,reward,1,0.562684899996384,0.5695828000025358,560.5395971999969,,,,,,,,,,,,,,,,,,,,,,38,D,2024-05-16_08h15.05.738,attentional_competition_task,2022.2.4,144.01253483247456,
positions.xlsx,positions_test.xlsx,positions_test_new.xlsx,stimuli.xlsx,stimuli_new.xlsx,stimuli/Social4.png,stimuli/Social3.png,stimuli/Nonsocial4.png,stimuli/Nonsocial3.png,stimuli/Social2.png,stimuli/Social1.png,stimuli/Nonsocial2.png,stimuli/Nonsocial1.png,cs_pos_ns,"(0.7, -0.5)",,,,,,,,,0,0,0,0,,,,,,,,,,,,,0,3,3,15,,,,,,,,,,,,,,,,,,,,,,,,,,,,,,,,,,567.9559456999996,30,reward,1,0.5628738000086742,0.5628776000085054,568.5253912999906,,,,,,,,,,,,,,,,,,,,,,38,D,2024-05-16_08h15.05.738,attentional_competition_task,2022.2.4,144.01253483247456,
positions.xlsx,positions_test.xlsx,positions_test_new.xlsx,stimuli.xlsx,stimuli_new.xlsx,stimuli/Social4.png,stimuli/Social3.png,stimuli/Nonsocial4.png,stimuli/Nonsocial3.png,stimuli/Social2.png,stimuli/Social1.png,stimuli/Nonsocial2.png,stimuli/Nonsocial1.png,cs_neg_s,"(0.7, -0.5)",,,,,,,,,0,0,0,0,,,,,,,,,,,,,0,4,4,3,,,,,,,,,,,,,,,,,,,,,,,,,,,,,,,,,,576.8305809000012,30,none,0,,,579.8443555999984,,,,,,,,,,,,,,,,,,,,,,38,D,2024-05-16_08h15.05.738,attentional_competition_task,2022.2.4,144.01253483247456,
positions.xlsx,positions_test.xlsx,positions_test_new.xlsx,stimuli.xlsx,stimuli_new.xlsx,stimuli/Social4.png,stimuli/Social3.png,stimuli/Nonsocial4.png,stimuli/Nonsocial3.png,stimuli/Social2.png,stimuli/Social1.png,stimuli/Nonsocial2.png,stimuli/Nonsocial1.png,cs_neg_ns,"(-0.7, 0.5)",,,,,,,,,0,0,0,0,,,,,,,,,,,,,0,5,5,8,,,,,,,,,,,,,,,,,,,,,,,,,,,,,,,,,,587.3163000999921,30,none,0,,,590.3231191999948,,,,,,,,,,,,,,,,,,,,,,38,D,2024-05-16_08h15.05.738,attentional_competition_task,2022.2.4,144.01253483247456,
positions.xlsx,positions_test.xlsx,positions_test_new.xlsx,stimuli.xlsx,stimuli_new.xlsx,stimuli/Social4.png,stimuli/Social3.png,stimuli/Nonsocial4.png,stimuli/Nonsocial3.png,stimuli/Social2.png,stimuli/Social1.png,stimuli/Nonsocial2.png,stimuli/Nonsocial1.png,cs_neg_ns,"(0.7, 0.5)",,,,,,,,,0,0,0,0,,,,,,,,,,,,,0,6,6,10,,,,,,,,,,,,,,,,,,,,,,,,,,,,,,,,,,598.2880480000022,27,loss,1,0.6253829000052065,0.6253880000003846,598.9269554999919,,,,,,,,,,,,,,,,,,,,,,38,D,2024-05-16_08h15.05.738,attentional_competition_task,2022.2.4,144.01253483247456,
positions.xlsx,positions_test.xlsx,positions_test_new.xlsx,stimuli.xlsx,stimuli_new.xlsx,stimuli/Social4.png,stimuli/Social3.png,stimuli/Nonsocial4.png,stimuli/Nonsocial3.png,stimuli/Social2.png,stimuli/Social1.png,stimuli/Nonsocial2.png,stimuli/Nonsocial1.png,cs_neg_s,"(-0.7, 0.5)",,,,,,,,,0,0,0,0,,,,,,,,,,,,,0,7,7,0,,,,,,,,,,,,,,,,,,,,,,,,,,,,,,,,,,606.3710900000005,27,none,0,,,609.3848718999943,,,,,,,,,,,,,,,,,,,,,,38,D,2024-05-16_08h15.05.738,attentional_competition_task,2022.2.4,144.01253483247456,
positions.xlsx,positions_test.xlsx,positions_test_new.xlsx,stimuli.xlsx,stimuli_new.xlsx,stimuli/Social4.png,stimuli/Social3.png,stimuli/Nonsocial4.png,stimuli/Nonsocial3.png,stimuli/Social2.png,stimuli/Social1.png,stimuli/Nonsocial2.png,stimuli/Nonsocial1.png,cs_neg_ns,"(-0.7, -0.5)",,,,,,,,,0,0,0,0,,,,,,,,,,,,,0,8,8,9,,,,,,,,,,,,,,,,,,,,,,,,,,,,,,,,,,617.0025967999973,27,none,0,,,620.0163710999914,,,,,,,,,,,,,,,,,,,,,,38,D,2024-05-16_08h15.05.738,attentional_competition_task,2022.2.4,144.01253483247456,
positions.xlsx,positions_test.xlsx,positions_test_new.xlsx,stimuli.xlsx,stimuli_new.xlsx,stimuli/Social4.png,stimuli/Social3.png,stimuli/Nonsocial4.png,stimuli/Nonsocial3.png,stimuli/Social2.png,stimuli/Social1.png,stimuli/Nonsocial2.png,stimuli/Nonsocial1.png,cs_pos_ns,"(-0.7, -0.5)",,,,,,,,,0,0,0,0,,,,,,,,,,,,,0,9,9,13,,,,,,,,,,,,,,,,,,,,,,,,,,,,,,,,,,627.3563581999915,30,reward,1,0.8544351000018651,0.8544391000032192,628.2174536999955,,,,,,,,,,,,,,,,,,,,,,38,D,2024-05-16_08h15.05.738,attentional_competition_task,2022.2.4,144.01253483247456,
positions.xlsx,positions_test.xlsx,positions_test_new.xlsx,stimuli.xlsx,stimuli_new.xlsx,stimuli/Social4.png,stimuli/Social3.png,stimuli/Nonsocial4.png,stimuli/Nonsocial3.png,stimuli/Social2.png,stimuli/Social1.png,stimuli/Nonsocial2.png,stimuli/Nonsocial1.png,cs_neg_ns,"(0.7, -0.5)",,,,,,,,,0,0,0,0,,,,,,,,,,,,,0,10,10,11,,,,,,,,,,,,,,,,,,,,,,,,,,,,,,,,,,635.8768176000012,30,none,0,,,638.8906215999887,,,,,,,,,,,,,,,,,,,,,,38,D,2024-05-16_08h15.05.738,attentional_competition_task,2022.2.4,144.01253483247456,
positions.xlsx,positions_test.xlsx,positions_test_new.xlsx,stimuli.xlsx,stimuli_new.xlsx,stimuli/Social4.png,stimuli/Social3.png,stimuli/Nonsocial4.png,stimuli/Nonsocial3.png,stimuli/Social2.png,stimuli/Social1.png,stimuli/Nonsocial2.png,stimuli/Nonsocial1.png,cs_pos_ns,"(0.7, 0.5)",,,,,,,,,0,0,0,0,,,,,,,,,,,,,0,11,11,14,,,,,,,,,,,,,,,,,,,,,,,,,,,,,,,,,,646.4875351999945,33,reward,1,0.7849896999978228,0.7849929999938468,647.2792039999913,,,,,,,,,,,,,,,,,,,,,,38,D,2024-05-16_08h15.05.738,attentional_competition_task,2022.2.4,144.01253483247456,
positions.xlsx,positions_test.xlsx,positions_test_new.xlsx,stimuli.xlsx,stimuli_new.xlsx,stimuli/Social4.png,stimuli/Social3.png,stimuli/Nonsocial4.png,stimuli/Nonsocial3.png,stimuli/Social2.png,stimuli/Social1.png,stimuli/Nonsocial2.png,stimuli/Nonsocial1.png,cs_pos_s,"(0.7, -0.5)",,,,,,,,,0,0,0,0,,,,,,,,,,,,,0,12,12,7,,,,,,,,,,,,,,,,,,,,,,,,,,,,,,,,,,654.8899395999906,36,reward,1,0.604333700001007,0.6043376000015996,655.5010555999907,,,,,,,,,,,,,,,,,,,,,,38,D,2024-05-16_08h15.05.738,attentional_competition_task,2022.2.4,144.01253483247456,
positions.xlsx,positions_test.xlsx,positions_test_new.xlsx,stimuli.xlsx,stimuli_new.xlsx,stimuli/Social4.png,stimuli/Social3.png,stimuli/Nonsocial4.png,stimuli/Nonsocial3.png,stimuli/Social2.png,stimuli/Social1.png,stimuli/Nonsocial2.png,stimuli/Nonsocial1.png,cs_pos_s,"(0.7, 0.5)",,,,,,,,,0,0,0,0,,,,,,,,,,,,,0,13,13,6,,,,,,,,,,,,,,,,,,,,,,,,,,,,,,,,,,663.7646071999916,39,reward,1,0.7641298999951687,0.7641335999942385,664.5354060999962,,,,,,,,,,,,,,,,,,,,,,38,D,2024-05-16_08h15.05.738,attentional_competition_task,2022.2.4,144.01253483247456,
positions.xlsx,positions_test.xlsx,positions_test_new.xlsx,stimuli.xlsx,stimuli_new.xlsx,stimuli/Social4.png,stimuli/Social3.png,stimuli/Nonsocial4.png,stimuli/Nonsocial3.png,stimuli/Social2.png,stimuli/Social1.png,stimuli/Nonsocial2.png,stimuli/Nonsocial1.png,cs_pos_ns,"(-0.7, 0.5)",,,,,,,,,0,0,0,0,,,,,,,,,,,,,0,14,14,12,,,,,,,,,,,,,,,,,,,,,,,,,,,,,,,,,,671.930950599999,42,reward,1,0.799827800001367,0.7998316000011982,672.7364525000012,,,,,,,,,,,,,,,,,,,,,,38,D,2024-05-16_08h15.05.738,attentional_competition_task,2022.2.4,144.01253483247456,
positions.xlsx,positions_test.xlsx,positions_test_new.xlsx,stimuli.xlsx,stimuli_new.xlsx,stimuli/Social4.png,stimuli/Social3.png,stimuli/Nonsocial4.png,stimuli/Nonsocial3.png,stimuli/Social2.png,stimuli/Social1.png,stimuli/Nonsocial2.png,stimuli/Nonsocial1.png,cs_neg_s,"(0.7, 0.5)",,,,,,,,,0,0,0,0,,,,,,,,,,,,,0,15,15,2,,,,,,,,,,,,,,,,,,,,,,,,,,,,,,,,,,680.0347876000014,42,none,0,,,683.0416240999912,,,,,,,,,,,,,,,,,,,,,,38,D,2024-05-16_08h15.05.738,attentional_competition_task,2022.2.4,144.01253483247456,
positions.xlsx,positions_test.xlsx,positions_test_new.xlsx,stimuli.xlsx,stimuli_new.xlsx,stimuli/Social4.png,stimuli/Social3.png,stimuli/Nonsocial4.png,stimuli/Nonsocial3.png,stimuli/Social2.png,stimuli/Social1.png,stimuli/Nonsocial2.png,stimuli/Nonsocial1.png,cs_neg_s,"(-0.7, 0.5)",,,,,,,,,0,0,0,0,,,,,,,,,,,,,1,0,16,0,,,,,,,,,,,,,,,,,,,,,,,,,,,,,,,,,,690.5551813999919,42,none,0,,,693.5620543999976,,,,,,,,,,,,,,,,,,,,,,38,D,2024-05-16_08h15.05.738,attentional_competition_task,2022.2.4,144.01253483247456,
positions.xlsx,positions_test.xlsx,positions_test_new.xlsx,stimuli.xlsx,stimuli_new.xlsx,stimuli/Social4.png,stimuli/Social3.png,stimuli/Nonsocial4.png,stimuli/Nonsocial3.png,stimuli/Social2.png,stimuli/Social1.png,stimuli/Nonsocial2.png,stimuli/Nonsocial1.png,cs_pos_ns,"(-0.7, 0.5)",,,,,,,,,0,0,0,0,,,,,,,,,,,,,1,1,17,12,,,,,,,,,,,,,,,,,,,,,,,,,,,,,,,,,,701.8464169999934,45,reward,1,0.42341500001202803,0.4304314000037266,702.2838925999968,,,,,,,,,,,,,,,,,,,,,,38,D,2024-05-16_08h15.05.738,attentional_competition_task,2022.2.4,144.01253483247456,
positions.xlsx,positions_test.xlsx,positions_test_new.xlsx,stimuli.xlsx,stimuli_new.xlsx,stimuli/Social4.png,stimuli/Social3.png,stimuli/Nonsocial4.png,stimuli/Nonsocial3.png,stimuli/Social2.png,stimuli/Social1.png,stimuli/Nonsocial2.png,stimuli/Nonsocial1.png,cs_pos_ns,"(-0.7, -0.5)",,,,,,,,,0,0,0,0,,,,,,,,,,,,,1,2,18,13,,,,,,,,,,,,,,,,,,,,,,,,,,,,,,,,,,710.4085722000018,48,reward,1,0.7223091000050772,0.722312800004147,711.1376826999913,,,,,,,,,,,,,,,,,,,,,,38,D,2024-05-16_08h15.05.738,attentional_competition_task,2022.2.4,144.01253483247456,
positions.xlsx,positions_test.xlsx,positions_test_new.xlsx,stimuli.xlsx,stimuli_new.xlsx,stimuli/Social4.png,stimuli/Social3.png,stimuli/Nonsocial4.png,stimuli/Nonsocial3.png,stimuli/Social2.png,stimuli/Social1.png,stimuli/Nonsocial2.png,stimuli/Nonsocial1.png,cs_neg_ns,"(-0.7, 0.5)",,,,,,,,,0,0,0,0,,,,,,,,,,,,,1,3,19,8,,,,,,,,,,,,,,,,,,,,,,,,,,,,,,,,,,718.2971276000026,48,none,0,,,721.3109034999943,,,,,,,,,,,,,,,,,,,,,,38,D,2024-05-16_08h15.05.738,attentional_competition_task,2022.2.4,144.01253483247456,
positions.xlsx,positions_test.xlsx,positions_test_new.xlsx,stimuli.xlsx,stimuli_new.xlsx,stimuli/Social4.png,stimuli/Social3.png,stimuli/Nonsocial4.png,stimuli/Nonsocial3.png,stimuli/Social2.png,stimuli/Social1.png,stimuli/Nonsocial2.png,stimuli/Nonsocial1.png,cs_neg_s,"(0.7, -0.5)",,,,,,,,,0,0,0,0,,,,,,,,,,,,,1,4,20,3,,,,,,,,,,,,,,,,,,,,,,,,,,,,,,,,,,729.3661159999901,45,loss,1,0.31275499999173917,0.312772599994787,729.6924932999973,,,,,,,,,,,,,,,,,,,,,,38,D,2024-05-16_08h15.05.738,attentional_competition_task,2022.2.4,144.01253483247456,
positions.xlsx,positions_test.xlsx,positions_test_new.xlsx,stimuli.xlsx,stimuli_new.xlsx,stimuli/Social4.png,stimuli/Social3.png,stimuli/Nonsocial4.png,stimuli/Nonsocial3.png,stimuli/Social2.png,stimuli/Social1.png,stimuli/Nonsocial2.png,stimuli/Nonsocial1.png,cs_neg_s,"(0.7, 0.5)",,,,,,,,,0,0,0,0,,,,,,,,,,,,,1,5,21,2,,,,,,,,,,,,,,,,,,,,,,,,,,,,,,,,,,737.1436056999955,45,none,0,,,740.1573943999974,,,,,,,,,,,,,,,,,,,,,,38,D,2024-05-16_08h15.05.738,attentional_competition_task,2022.2.4,144.01253483247456,
positions.xlsx,positions_test.xlsx,positions_test_new.xlsx,stimuli.xlsx,stimuli_new.xlsx,stimuli/Social4.png,stimuli/Social3.png,stimuli/Nonsocial4.png,stimuli/Nonsocial3.png,stimuli/Social2.png,stimuli/Social1.png,stimuli/Nonsocial2.png,stimuli/Nonsocial1.png,cs_neg_ns,"(-0.7, -0.5)",,,,,,,,,0,0,0,0,,,,,,,,,,,,,1,6,22,9,,,,,,,,,,,,,,,,,,,,,,,,,,,,,,,,,,747.9765320000006,45,none,0,,,750.9903058999917,,,,,,,,,,,,,,,,,,,,,,38,D,2024-05-16_08h15.05.738,attentional_competition_task,2022.2.4,144.01253483247456,
positions.xlsx,positions_test.xlsx,positions_test_new.xlsx,stimuli.xlsx,stimuli_new.xlsx,stimuli/Social4.png,stimuli/Social3.png,stimuli/Nonsocial4.png,stimuli/Nonsocial3.png,stimuli/Social2.png,stimuli/Social1.png,stimuli/Nonsocial2.png,stimuli/Nonsocial1.png,cs_pos_s,"(0.7, -0.5)",,,,,,,,,0,0,0,0,,,,,,,,,,,,,1,7,23,7,,,,,,,,,,,,,,,,,,,,,,,,,,,,,,,,,,759.0524480999884,48,reward,1,0.5761580999969738,0.5761618000105955,759.635758599994,,,,,,,,,,,,,,,,,,,,,,38,D,2024-05-16_08h15.05.738,attentional_competition_task,2022.2.4,144.01253483247456,
positions.xlsx,positions_test.xlsx,positions_test_new.xlsx,stimuli.xlsx,stimuli_new.xlsx,stimuli/Social4.png,stimuli/Social3.png,stimuli/Nonsocial4.png,stimuli/Nonsocial3.png,stimuli/Social2.png,stimuli/Social1.png,stimuli/Nonsocial2.png,stimuli/Nonsocial1.png,cs_pos_ns,"(0.7, 0.5)",,,,,,,,,0,0,0,0,,,,,,,,,,,,,1,8,24,14,,,,,,,,,,,,,,,,,,,,,,,,,,,,,,,,,,767.1910158999963,51,reward,1,0.6470482000004267,0.6470523000025423,767.8508997000026,,,,,,,,,,,,,,,,,,,,,,38,D,2024-05-16_08h15.05.738,attentional_competition_task,2022.2.4,144.01253483247456,
positions.xlsx,positions_test.xlsx,positions_test_new.xlsx,stimuli.xlsx,stimuli_new.xlsx,stimuli/Social4.png,stimuli/Social3.png,stimuli/Nonsocial4.png,stimuli/Nonsocial3.png,stimuli/Social2.png,stimuli/Social1.png,stimuli/Nonsocial2.png,stimuli/Nonsocial1.png,cs_neg_ns,"(0.7, 0.5)",,,,,,,,,0,0,0,0,,,,,,,,,,,,,1,9,25,10,,,,,,,,,,,,,,,,,,,,,,,,,,,,,,,,,,774.9893115000013,51,none,0,,,778.0030811999895,,,,,,,,,,,,,,,,,,,,,,38,D,2024-05-16_08h15.05.738,attentional_competition_task,2022.2.4,144.01253483247456,
positions.xlsx,positions_test.xlsx,positions_test_new.xlsx,stimuli.xlsx,stimuli_new.xlsx,stimuli/Social4.png,stimuli/Social3.png,stimuli/Nonsocial4.png,stimuli/Nonsocial3.png,stimuli/Social2.png,stimuli/Social1.png,stimuli/Nonsocial2.png,stimuli/Nonsocial1.png,cs_pos_ns,"(0.7, -0.5)",,,,,,,,,0,0,0,0,,,,,,,,,,,,,1,10,26,15,,,,,,,,,,,,,,,,,,,,,,,,,,,,,,,,,,785.6486160999921,54,reward,1,0.5210858000064036,0.5210898999939673,786.1763703999895,,,,,,,,,,,,,,,,,,,,,,38,D,2024-05-16_08h15.05.738,attentional_competition_task,2022.2.4,144.01253483247456,
positions.xlsx,positions_test.xlsx,positions_test_new.xlsx,stimuli.xlsx,stimuli_new.xlsx,stimuli/Social4.png,stimuli/Social3.png,stimuli/Nonsocial4.png,stimuli/Nonsocial3.png,stimuli/Social2.png,stimuli/Social1.png,stimuli/Nonsocial2.png,stimuli/Nonsocial1.png,cs_neg_s,"(-0.7, -0.5)",,,,,,,,,0,0,0,0,,,,,,,,,,,,,1,11,27,1,,,,,,,,,,,,,,,,,,,,,,,,,,,,,,,,,,793.0580402999913,51,loss,1,0.25030990000232123,0.25031389998912346,793.3150540999923,,,,,,,,,,,,,,,,,,,,,,38,D,2024-05-16_08h15.05.738,attentional_competition_task,2022.2.4,144.01253483247456,
positions.xlsx,positions_test.xlsx,positions_test_new.xlsx,stimuli.xlsx,stimuli_new.xlsx,stimuli/Social4.png,stimuli/Social3.png,stimuli/Nonsocial4.png,stimuli/Nonsocial3.png,stimuli/Social2.png,stimuli/Social1.png,stimuli/Nonsocial2.png,stimuli/Nonsocial1.png,cs_pos_s,"(0.7, 0.5)",,,,,,,,,0,0,0,0,,,,,,,,,,,,,1,12,28,6,,,,,,,,,,,,,,,,,,,,,,,,,,,,,,,,,,800.1619116999937,54,reward,1,0.6251435000012862,0.6251608000020497,800.7938330999896,,,,,,,,,,,,,,,,,,,,,,38,D,2024-05-16_08h15.05.738,attentional_competition_task,2022.2.4,144.01253483247456,
positions.xlsx,positions_test.xlsx,positions_test_new.xlsx,stimuli.xlsx,stimuli_new.xlsx,stimuli/Social4.png,stimuli/Social3.png,stimuli/Nonsocial4.png,stimuli/Nonsocial3.png,stimuli/Social2.png,stimuli/Social1.png,stimuli/Nonsocial2.png,stimuli/Nonsocial1.png,cs_pos_s,"(-0.7, 0.5)",,,,,,,,,0,0,0,0,,,,,,,,,,,,,1,13,29,4,,,,,,,,,,,,,,,,,,,,,,,,,,,,,,,,,,808.6546314000007,57,reward,1,0.5072097999945981,0.5072137999959523,809.1684778999916,,,,,,,,,,,,,,,,,,,,,,38,D,2024-05-16_08h15.05.738,attentional_competition_task,2022.2.4,144.01253483247456,
positions.xlsx,positions_test.xlsx,positions_test_new.xlsx,stimuli.xlsx,stimuli_new.xlsx,stimuli/Social4.png,stimuli/Social3.png,stimuli/Nonsocial4.png,stimuli/Nonsocial3.png,stimuli/Social2.png,stimuli/Social1.png,stimuli/Nonsocial2.png,stimuli/Nonsocial1.png,cs_neg_ns,"(0.7, -0.5)",,,,,,,,,0,0,0,0,,,,,,,,,,,,,1,14,30,11,,,,,,,,,,,,,,,,,,,,,,,,,,,,,,,,,,816.2168296000018,57,none,0,,,819.2306007000007,,,,,,,,,,,,,,,,,,,,,,38,D,2024-05-16_08h15.05.738,attentional_competition_task,2022.2.4,144.01253483247456,
positions.xlsx,positions_test.xlsx,positions_test_new.xlsx,stimuli.xlsx,stimuli_new.xlsx,stimuli/Social4.png,stimuli/Social3.png,stimuli/Nonsocial4.png,stimuli/Nonsocial3.png,stimuli/Social2.png,stimuli/Social1.png,stimuli/Nonsocial2.png,stimuli/Nonsocial1.png,cs_pos_s,"(-0.7, -0.5)",,,,,,,,,0,0,0,0,,,,,,,,,,,,,1,15,31,5,,,,,,,,,,,,,,,,,,,,,,,,,,,,,,,,,,826.3691831999895,60,reward,1,0.5420956999878399,0.5420993999869097,826.9178021999978,,,,,,,,,,,,,,,,,,,,,,38,D,2024-05-16_08h15.05.738,attentional_competition_task,2022.2.4,144.01253483247456,
positions.xlsx,positions_test.xlsx,positions_test_new.xlsx,stimuli.xlsx,stimuli_new.xlsx,stimuli/Social4.png,stimuli/Social3.png,stimuli/Nonsocial4.png,stimuli/Nonsocial3.png,stimuli/Social2.png,stimuli/Social1.png,stimuli/Nonsocial2.png,stimuli/Nonsocial1.png,cs_pos_ns,,,,,,,,,,0,0,0,0,,,,,,,,,,,,,,,,,0,0,0,3,,,,,,,,,,,,,,,,,,,,,,,831.6953823999938,10.0,2.9349456999916583,,,,,,,,,,,,,,,,,,,,,,,,,,,,,,,,,38,D,2024-05-16_08h15.05.738,attentional_competition_task,2022.2.4,144.01253483247456,
positions.xlsx,positions_test.xlsx,positions_test_new.xlsx,stimuli.xlsx,stimuli_new.xlsx,stimuli/Social4.png,stimuli/Social3.png,stimuli/Nonsocial4.png,stimuli/Nonsocial3.png,stimuli/Social2.png,stimuli/Social1.png,stimuli/Nonsocial2.png,stimuli/Nonsocial1.png,cs_pos_s,,,,,,,,,,0,0,0,0,,,,,,,,,,,,,,,,,0,1,1,2,,,,,,,,,,,,,,,,,,,,,,,835.2577310999914,8.0,4.2872509000007994,,,,,,,,,,,,,,,,,,,,,,,,,,,,,,,,,38,D,2024-05-16_08h15.05.738,attentional_competition_task,2022.2.4,144.01253483247456,
positions.xlsx,positions_test.xlsx,positions_test_new.xlsx,stimuli.xlsx,stimuli_new.xlsx,stimuli/Social4.png,stimuli/Social3.png,stimuli/Nonsocial4.png,stimuli/Nonsocial3.png,stimuli/Social2.png,stimuli/Social1.png,stimuli/Nonsocial2.png,stimuli/Nonsocial1.png,cs_neg_ns,,,,,,,,,,0,0,0,0,,,,,,,,,,,,,,,,,0,2,2,1,,,,,,,,,,,,,,,,,,,,,,,839.7645038999908,7.0,3.1956970999890473,,,,,,,,,,,,,,,,,,,,,,,,,,,,,,,,,38,D,2024-05-16_08h15.05.738,attentional_competition_task,2022.2.4,144.01253483247456,
positions.xlsx,positions_test.xlsx,positions_test_new.xlsx,stimuli.xlsx,stimuli_new.xlsx,stimuli/Social4.png,stimuli/Social3.png,stimuli/Nonsocial4.png,stimuli/Nonsocial3.png,stimuli/Social2.png,stimuli/Social1.png,stimuli/Nonsocial2.png,stimuli/Nonsocial1.png,cs_neg_s,,,,,,,,,,0,0,0,0,,,,,,,,,,,,,,,,,0,3,3,0,,,,,,,,,,,,,,,,,,,,,,,843.7921189999906,6.0,1.2661910000024363,,,,,,,,,,,,,,,,,,,,,,,,,,,,,,,,,38,D,2024-05-16_08h15.05.738,attentional_competition_task,2022.2.4,144.01253483247456,
positions.xlsx,positions_test.xlsx,positions_test_new.xlsx,stimuli.xlsx,stimuli_new.xlsx,stimuli/Social4.png,stimuli/Social3.png,stimuli/Nonsocial4.png,stimuli/Nonsocial3.png,stimuli/Social2.png,stimuli/Social1.png,stimuli/Nonsocial2.png,stimuli/Nonsocial1.png,,,"(-0.7, -0.5)",cs_pos_s,"(-0.7, 0.5)",cs_neg_ns,"(0.7, -0.5)",cs_pos_ns,"(0.7, 0.5)",cs_neg_s,0,0,0,0,,,,,,,,,,,,,,,,,,,,,0,0,0,9,,,,,,,,,,,,,,,,,,,,,,,,,,,63,reward,,,,,847.8614099999977,855.5972440999903,855.5972440999903,855.5972440999903,855.5972440999903,0,,,0,,,1,0.024273500006529503,0.024277400007122196,0,,,855.5972440999903,855.5972440999903,855.5972440999903,855.5972440999903,38,D,2024-05-16_08h15.05.738,attentional_competition_task,2022.2.4,144.01253483247456,
positions.xlsx,positions_test.xlsx,positions_test_new.xlsx,stimuli.xlsx,stimuli_new.xlsx,stimuli/Social4.png,stimuli/Social3.png,stimuli/Nonsocial4.png,stimuli/Nonsocial3.png,stimuli/Social2.png,stimuli/Social1.png,stimuli/Nonsocial2.png,stimuli/Nonsocial1.png,,,"(-0.7, -0.5)",cs_pos_ns,"(-0.7, 0.5)",cs_neg_ns,"(0.7, -0.5)",cs_pos_s,"(0.7, 0.5)",cs_neg_s,0,0,0,0,,,,,,,,,,,,,,,,,,,,,0,1,1,20,,,,,,,,,,,,,,,,,,,,,,,,,,,66,reward,,,,,,865.6801497999986,865.6801497999986,865.6801497999986,865.6801497999986,0,,,0,,,1,0.023866400006227195,0.02387030000681989,0,,,865.6801497999986,865.6801497999986,865.6801497999986,865.6801497999986,38,D,2024-05-16_08h15.05.738,attentional_competition_task,2022.2.4,144.01253483247456,
positions.xlsx,positions_test.xlsx,positions_test_new.xlsx,stimuli.xlsx,stimuli_new.xlsx,stimuli/Social4.png,stimuli/Social3.png,stimuli/Nonsocial4.png,stimuli/Nonsocial3.png,stimuli/Social2.png,stimuli/Social1.png,stimuli/Nonsocial2.png,stimuli/Nonsocial1.png,,,"(-0.7, -0.5)",cs_pos_s,"(-0.7, 0.5)",cs_neg_s,"(0.7, -0.5)",cs_neg_ns,"(0.7, 0.5)",cs_pos_ns,0,0,0,0,,,,,,,,,,,,,,,,,,,,,0,2,2,6,,,,,,,,,,,,,,,,,,,,,,,,,,,75,reward,,,,,,874.2075846999942,874.2075846999942,874.2075846999942,874.2075846999942,0,,,0,,,0,,,1,0.02318050000758376,0.023184400008176453,874.2075846999942,874.2075846999942,874.2075846999942,874.2075846999942,38,D,2024-05-16_08h15.05.738,attentional_competition_task,2022.2.4,144.01253483247456,
positions.xlsx,positions_test.xlsx,positions_test_new.xlsx,stimuli.xlsx,stimuli_new.xlsx,stimuli/Social4.png,stimuli/Social3.png,stimuli/Nonsocial4.png,stimuli/Nonsocial3.png,stimuli/Social2.png,stimuli/Social1.png,stimuli/Nonsocial2.png,stimuli/Nonsocial1.png,,,"(-0.7, -0.5)",cs_neg_ns,"(-0.7, 0.5)",cs_neg_s,"(0.7, -0.5)",cs_pos_s,"(0.7, 0.5)",cs_pos_ns,0,0,0,0,,,,,,,,,,,,,,,,,,,,,0,3,3,14,,,,,,,,,,,,,,,,,,,,,,,,,,,84,reward,,,,,,883.0475274999917,883.0475274999917,883.0475274999917,883.0475274999917,0,,,0,,,0,,,1,0.028382100004819222,0.02838839999458287,883.0475274999917,883.0475274999917,883.0475274999917,883.0475274999917,38,D,2024-05-16_08h15.05.738,attentional_competition_task,2022.2.4,144.01253483247456,
positions.xlsx,positions_test.xlsx,positions_test_new.xlsx,stimuli.xlsx,stimuli_new.xlsx,stimuli/Social4.png,stimuli/Social3.png,stimuli/Nonsocial4.png,stimuli/Nonsocial3.png,stimuli/Social2.png,stimuli/Social1.png,stimuli/Nonsocial2.png,stimuli/Nonsocial1.png,,,"(-0.7, -0.5)",cs_pos_s,"(-0.7, 0.5)",cs_neg_s,"(0.7, -0.5)",cs_pos_ns,"(0.7, 0.5)",cs_neg_ns,0,0,0,0,,,,,,,,,,,,,,,,,,,,,0,4,4,7,,,,,,,,,,,,,,,,,,,,,,,,,,,90,reward,,,,,,889.9639071999991,889.9639071999991,889.9639071999991,889.9639071999991,1,0.022536999997100793,0.03770780000195373,0,,,1,0.4752314000070328,0.48287449999770615,0,,,890.4499610999919,890.4499610999919,890.4499610999919,890.4499610999919,38,D,2024-05-16_08h15.05.738,attentional_competition_task,2022.2.4,144.01253483247456,
positions.xlsx,positions_test.xlsx,positions_test_new.xlsx,stimuli.xlsx,stimuli_new.xlsx,stimuli/Social4.png,stimuli/Social3.png,stimuli/Nonsocial4.png,stimuli/Nonsocial3.png,stimuli/Social2.png,stimuli/Social1.png,stimuli/Nonsocial2.png,stimuli/Nonsocial1.png,,,"(-0.7, -0.5)",cs_neg_s,"(-0.7, 0.5)",cs_pos_s,"(0.7, -0.5)",cs_neg_ns,"(0.7, 0.5)",cs_pos_ns,0,0,0,0,,,,,,,,,,,,,,,,,,,,,0,5,5,0,,,,,,,,,,,,,,,,,,,,,,,,,,,99,reward,,,,,,898.1510986999929,898.1510986999929,898.1510986999929,898.1510986999929,0,,,0,,,0,,,0,,,899.0260290000006,899.0260290000006,899.0260290000006,899.0260290000006,38,D,2024-05-16_08h15.05.738,attentional_competition_task,2022.2.4,144.01253483247456,
positions.xlsx,positions_test.xlsx,positions_test_new.xlsx,stimuli.xlsx,stimuli_new.xlsx,stimuli/Social4.png,stimuli/Social3.png,stimuli/Nonsocial4.png,stimuli/Nonsocial3.png,stimuli/Social2.png,stimuli/Social1.png,stimuli/Nonsocial2.png,stimuli/Nonsocial1.png,,,"(-0.7, -0.5)",cs_pos_ns,"(-0.7, 0.5)",cs_pos_s,"(0.7, -0.5)",cs_neg_ns,"(0.7, 0.5)",cs_neg_s,0,0,0,0,,,,,,,,,,,,,,,,,,,,,0,6,6,18,,,,,,,,,,,,,,,,,,,,,,,,,,,108,reward,,,,,,906.5118202000012,906.5118202000012,906.5118202000012,906.5118202000012,0,,,0,,,0,,,0,,,907.2063011999999,907.2063011999999,907.2063011999999,907.2063011999999,38,D,2024-05-16_08h15.05.738,attentional_competition_task,2022.2.4,144.01253483247456,
positions.xlsx,positions_test.xlsx,positions_test_new.xlsx,stimuli.xlsx,stimuli_new.xlsx,stimuli/Social4.png,stimuli/Social3.png,stimuli/Nonsocial4.png,stimuli/Nonsocial3.png,stimuli/Social2.png,stimuli/Social1.png,stimuli/Nonsocial2.png,stimuli/Nonsocial1.png,,,"(-0.7, -0.5)",cs_neg_s,"(-0.7, 0.5)",cs_neg_ns,"(0.7, -0.5)",cs_pos_s,"(0.7, 0.5)",cs_pos_ns,0,0,0,0,,,,,,,,,,,,,,,,,,,,,0,7,7,2,,,,,,,,,,,,,,,,,,,,,,,,,,,114,reward,,,,,,914.4698702000023,914.4698702000023,914.4698702000023,914.4698702000023,0,,,0,,,0,,,1,0.024044200006756,0.024048300008871593,914.4698702000023,914.4698702000023,914.4698702000023,914.4698702000023,38,D,2024-05-16_08h15.05.738,attentional_competition_task,2022.2.4,144.01253483247456,
positions.xlsx,positions_test.xlsx,positions_test_new.xlsx,stimuli.xlsx,stimuli_new.xlsx,stimuli/Social4.png,stimuli/Social3.png,stimuli/Nonsocial4.png,stimuli/Nonsocial3.png,stimuli/Social2.png,stimuli/Social1.png,stimuli/Nonsocial2.png,stimuli/Nonsocial1.png,,,"(-0.7, -0.5)",cs_neg_ns,"(-0.7, 0.5)",cs_pos_s,"(0.7, -0.5)",cs_pos_ns,"(0.7, 0.5)",cs_neg_s,0,0,0,0,,,,,,,,,,,,,,,,,,,,,0,8,8,13,,,,,,,,,,,,,,,,,,,,,,,,,,,117,reward,,,,,,922.4973360000004,922.4973360000004,922.4973360000004,922.4973360000004,0,,,0,,,1,0.024711100006243214,0.024715100007597357,0,,,922.4973360000004,922.4973360000004,922.4973360000004,922.4973360000004,38,D,2024-05-16_08h15.05.738,attentional_competition_task,2022.2.4,144.01253483247456,
positions.xlsx,positions_test.xlsx,positions_test_new.xlsx,stimuli.xlsx,stimuli_new.xlsx,stimuli/Social4.png,stimuli/Social3.png,stimuli/Nonsocial4.png,stimuli/Nonsocial3.png,stimuli/Social2.png,stimuli/Social1.png,stimuli/Nonsocial2.png,stimuli/Nonsocial1.png,,,"(-0.7, -0.5)",cs_neg_ns,"(-0.7, 0.5)",cs_pos_ns,"(0.7, -0.5)",cs_pos_s,"(0.7, 0.5)",cs_neg_s,0,0,0,0,,,,,,,,,,,,,,,,,,,,,0,9,9,16,,,,,,,,,,,,,,,,,,,,,,,,,,,117,loss,,,,,,930.6775752999965,930.6775752999965,930.6775752999965,930.6775752999965,1,0.3009935000009136,0.30099700001301244,0,,,1,0.02976080001099035,0.12123890001385007,0,,,930.9761580999912,930.9761580999912,930.9761580999912,930.9761580999912,38,D,2024-05-16_08h15.05.738,attentional_competition_task,2022.2.4,144.01253483247456,
positions.xlsx,positions_test.xlsx,positions_test_new.xlsx,stimuli.xlsx,stimuli_new.xlsx,stimuli/Social4.png,stimuli/Social3.png,stimuli/Nonsocial4.png,stimuli/Nonsocial3.png,stimuli/Social2.png,stimuli/Social1.png,stimuli/Nonsocial2.png,stimuli/Nonsocial1.png,,,"(-0.7, -0.5)",cs_neg_s,"(-0.7, 0.5)",cs_neg_ns,"(0.7, -0.5)",cs_pos_ns,"(0.7, 0.5)",cs_pos_s,0,0,0,0,,,,,,,,,,,,,,,,,,,,,0,10,10,3,,,,,,,,,,,,,,,,,,,,,,,,,,,120,loss,,,,,,939.8785868999985,939.8785868999985,939.8785868999985,939.8785868999985,0,,,1,0.25412779999896884,0.2541320000018459,0,,,0,,,940.1355499999918,940.1355499999918,940.1355499999918,940.1355499999918,38,D,2024-05-16_08h15.05.738,attentional_competition_task,2022.2.4,144.01253483247456,
positions.xlsx,positions_test.xlsx,positions_test_new.xlsx,stimuli.xlsx,stimuli_new.xlsx,stimuli/Social4.png,stimuli/Social3.png,stimuli/Nonsocial4.png,stimuli/Nonsocial3.png,stimuli/Social2.png,stimuli/Social1.png,stimuli/Nonsocial2.png,stimuli/Nonsocial1.png,,,"(-0.7, -0.5)",cs_pos_ns,"(-0.7, 0.5)",cs_pos_s,"(0.7, -0.5)",cs_neg_s,"(0.7, 0.5)",cs_neg_ns,0,0,0,0,,,,,,,,,,,,,,,,,,,,,0,11,11,19,,,,,,,,,,,,,,,,,,,,,,,,,,,129,reward,,,,,,948.5309806000005,948.5309806000005,948.5309806000005,948.5309806000005,0,,,0,,,0,,,0,,,949.3018309999898,949.3018309999898,949.3018309999898,949.3018309999898,38,D,2024-05-16_08h15.05.738,attentional_competition_task,2022.2.4,144.01253483247456,
positions.xlsx,positions_test.xlsx,positions_test_new.xlsx,stimuli.xlsx,stimuli_new.xlsx,stimuli/Social4.png,stimuli/Social3.png,stimuli/Nonsocial4.png,stimuli/Nonsocial3.png,stimuli/Social2.png,stimuli/Social1.png,stimuli/Nonsocial2.png,stimuli/Nonsocial1.png,,,"(-0.7, -0.5)",cs_pos_s,"(-0.7, 0.5)",cs_pos_ns,"(0.7, -0.5)",cs_neg_s,"(0.7, 0.5)",cs_neg_ns,0,0,0,0,,,,,,,,,,,,,,,,,,,,,0,12,12,10,,,,,,,,,,,,,,,,,,,,,,,,,,,132,reward,,,,,,957.245969399999,957.245969399999,957.245969399999,957.245969399999,0,,,1,0.023516200002632104,0.023520100003224798,0,,,0,,,957.245969399999,957.245969399999,957.245969399999,957.245969399999,38,D,2024-05-16_08h15.05.738,attentional_competition_task,2022.2.4,144.01253483247456,
positions.xlsx,positions_test.xlsx,positions_test_new.xlsx,stimuli.xlsx,stimuli_new.xlsx,stimuli/Social4.png,stimuli/Social3.png,stimuli/Nonsocial4.png,stimuli/Nonsocial3.png,stimuli/Social2.png,stimuli/Social1.png,stimuli/Nonsocial2.png,stimuli/Nonsocial1.png,,,"(-0.7, -0.5)",cs_neg_s,"(-0.7, 0.5)",cs_pos_s,"(0.7, -0.5)",cs_pos_ns,"(0.7, 0.5)",cs_neg_ns,0,0,0,0,,,,,,,,,,,,,,,,,,,,,0,13,13,1,,,,,,,,,,,,,,,,,,,,,,,,,,,141,reward,,,,,,966.1136319999932,966.1136319999932,966.1136319999932,966.1136319999932,0,,,0,,,0,,,0,,,966.7525019999885,966.7525019999885,966.7525019999885,966.7525019999885,38,D,2024-05-16_08h15.05.738,attentional_competition_task,2022.2.4,144.01253483247456,
positions.xlsx,positions_test.xlsx,positions_test_new.xlsx,stimuli.xlsx,stimuli_new.xlsx,stimuli/Social4.png,stimuli/Social3.png,stimuli/Nonsocial4.png,stimuli/Nonsocial3.png,stimuli/Social2.png,stimuli/Social1.png,stimuli/Nonsocial2.png,stimuli/Nonsocial1.png,,,"(-0.7, -0.5)",cs_pos_s,"(-0.7, 0.5)",cs_neg_ns,"(0.7, -0.5)",cs_neg_s,"(0.7, 0.5)",cs_pos_ns,0,0,0,0,,,,,,,,,,,,,,,,,,,,,0,14,14,8,,,,,,,,,,,,,,,,,,,,,,,,,,,147,reward,,,,,,973.7244122999982,973.7244122999982,973.7244122999982,973.7244122999982,1,0.028261200000997633,0.2244329000095604,0,,,0,,,1,0.28812480000487994,0.28812870000547264,974.0160816999996,974.0160816999996,974.0160816999996,974.0160816999996,38,D,2024-05-16_08h15.05.738,attentional_competition_task,2022.2.4,144.01253483247456,
positions.xlsx,positions_test.xlsx,positions_test_new.xlsx,stimuli.xlsx,stimuli_new.xlsx,stimuli/Social4.png,stimuli/Social3.png,stimuli/Nonsocial4.png,stimuli/Nonsocial3.png,stimuli/Social2.png,stimuli/Social1.png,stimuli/Nonsocial2.png,stimuli/Nonsocial1.png,,,"(-0.7, -0.5)",cs_pos_ns,"(-0.7, 0.5)",cs_neg_s,"(0.7, -0.5)",cs_neg_ns,"(0.7, 0.5)",cs_pos_s,0,0,0,0,,,,,,,,,,,,,,,,,,,,,0,15,15,23,,,,,,,,,,,,,,,,,,,,,,,,,,,156,reward,,,,,,983.6059905000002,983.6059905000002,983.6059905000002,983.6059905000002,1,0.02916979999281466,0.10018490000220481,0,,,0,,,0,,,984.2032512000005,984.2032512000005,984.2032512000005,984.2032512000005,38,D,2024-05-16_08h15.05.738,attentional_competition_task,2022.2.4,144.01253483247456,
positions.xlsx,positions_test.xlsx,positions_test_new.xlsx,stimuli.xlsx,stimuli_new.xlsx,stimuli/Social4.png,stimuli/Social3.png,stimuli/Nonsocial4.png,stimuli/Nonsocial3.png,stimuli/Social2.png,stimuli/Social1.png,stimuli/Nonsocial2.png,stimuli/Nonsocial1.png,,,"(-0.7, -0.5)",cs_neg_s,"(-0.7, 0.5)",cs_pos_ns,"(0.7, -0.5)",cs_pos_s,"(0.7, 0.5)",cs_neg_ns,0,0,0,0,,,,,,,,,,,,,,,,,,,,,0,16,16,4,,,,,,,,,,,,,,,,,,,,,,,,,,,165,reward,,,,,,992.0917587000004,992.0917587000004,992.0917587000004,992.0917587000004,0,,,1,0.023799399990821257,0.08599359999061562,0,,,0,,,992.9806148999924,992.9806148999924,992.9806148999924,992.9806148999924,38,D,2024-05-16_08h15.05.738,attentional_competition_task,2022.2.4,144.01253483247456,
positions.xlsx,positions_test.xlsx,positions_test_new.xlsx,stimuli.xlsx,stimuli_new.xlsx,stimuli/Social4.png,stimuli/Social3.png,stimuli/Nonsocial4.png,stimuli/Nonsocial3.png,stimuli/Social2.png,stimuli/Social1.png,stimuli/Nonsocial2.png,stimuli/Nonsocial1.png,,,"(-0.7, -0.5)",cs_neg_ns,"(-0.7, 0.5)",cs_pos_s,"(0.7, -0.5)",cs_neg_s,"(0.7, 0.5)",cs_pos_ns,0,0,0,0,,,,,,,,,,,,,,,,,,,,,0,17,17,12,,,,,,,,,,,,,,,,,,,,,,,,,,,165,loss,,,,,,1000.598379899995,1000.598379899995,1000.598379899995,1000.598379899995,1,0.8143756999925245,0.8143792999908328,1,0.02909630000067409,0.8005555999989156,0,,,0,,,1001.4177688999916,1001.4177688999916,1001.4177688999916,1001.4177688999916,38,D,2024-05-16_08h15.05.738,attentional_competition_task,2022.2.4,144.01253483247456,
positions.xlsx,positions_test.xlsx,positions_test_new.xlsx,stimuli.xlsx,stimuli_new.xlsx,stimuli/Social4.png,stimuli/Social3.png,stimuli/Nonsocial4.png,stimuli/Nonsocial3.png,stimuli/Social2.png,stimuli/Social1.png,stimuli/Nonsocial2.png,stimuli/Nonsocial1.png,,,"(-0.7, -0.5)",cs_pos_ns,"(-0.7, 0.5)",cs_neg_s,"(0.7, -0.5)",cs_pos_s,"(0.7, 0.5)",cs_neg_ns,0,0,0,0,,,,,,,,,,,,,,,,,,,,,0,18,18,22,,,,,,,,,,,,,,,,,,,,,,,,,,,174,reward,,,,,,1010.6049167999881,1010.6049167999881,1010.6049167999881,1010.6049167999881,1,0.023714499999186955,0.0237180999974953,0,,,0,,,0,,,1010.6049167999881,1010.6049167999881,1010.6049167999881,1010.6049167999881,38,D,2024-05-16_08h15.05.738,attentional_competition_task,2022.2.4,144.01253483247456,
positions.xlsx,positions_test.xlsx,positions_test_new.xlsx,stimuli.xlsx,stimuli_new.xlsx,stimuli/Social4.png,stimuli/Social3.png,stimuli/Nonsocial4.png,stimuli/Nonsocial3.png,stimuli/Social2.png,stimuli/Social1.png,stimuli/Nonsocial2.png,stimuli/Nonsocial1.png,,,"(-0.7, -0.5)",cs_neg_ns,"(-0.7, 0.5)",cs_neg_s,"(0.7, -0.5)",cs_pos_ns,"(0.7, 0.5)",cs_pos_s,0,0,0,0,,,,,,,,,,,,,,,,,,,,,0,19,19,15,,,,,,,,,,,,,,,,,,,,,,,,,,,183,reward,,,,,,1018.5212584999972,1018.5212584999972,1018.5212584999972,1018.5212584999972,0,,,0,,,0,,,0,,,1019.083813499994,1019.083813499994,1019.083813499994,1019.083813499994,38,D,2024-05-16_08h15.05.738,attentional_competition_task,2022.2.4,144.01253483247456,
positions.xlsx,positions_test.xlsx,positions_test_new.xlsx,stimuli.xlsx,stimuli_new.xlsx,stimuli/Social4.png,stimuli/Social3.png,stimuli/Nonsocial4.png,stimuli/Nonsocial3.png,stimuli/Social2.png,stimuli/Social1.png,stimuli/Nonsocial2.png,stimuli/Nonsocial1.png,,,"(-0.7, -0.5)",cs_neg_s,"(-0.7, 0.5)",cs_pos_ns,"(0.7, -0.5)",cs_neg_ns,"(0.7, 0.5)",cs_pos_s,0,0,0,0,,,,,,,,,,,,,,,,,,,,,0,20,20,5,,,,,,,,,,,,,,,,,,,,,,,,,,,189,reward,,,,,,1025.479310900002,1025.479310900002,1025.479310900002,1025.479310900002,0,,,0,,,0,,,1,0.03214310000475962,0.7807284000009531,1026.7570498999994,1026.7570498999994,1026.7570498999994,1026.7570498999994,38,D,2024-05-16_08h15.05.738,attentional_competition_task,2022.2.4,144.01253483247456,
positions.xlsx,positions_test.xlsx,positions_test_new.xlsx,stimuli.xlsx,stimuli_new.xlsx,stimuli/Social4.png,stimuli/Social3.png,stimuli/Nonsocial4.png,stimuli/Nonsocial3.png,stimuli/Social2.png,stimuli/Social1.png,stimuli/Nonsocial2.png,stimuli/Nonsocial1.png,,,"(-0.7, -0.5)",cs_neg_ns,"(-0.7, 0.5)",cs_pos_ns,"(0.7, -0.5)",cs_neg_s,"(0.7, 0.5)",cs_pos_s,0,0,0,0,,,,,,,,,,,,,,,,,,,,,0,21,21,17,,,,,,,,,,,,,,,,,,,,,,,,,,,198,reward,,,,,,1035.1456164999981,1035.1456164999981,1035.1456164999981,1035.1456164999981,0,,,1,0.025162700010696426,0.14637450000736862,0,,,0,,,1035.8192143999913,1035.8192143999913,1035.8192143999913,1035.8192143999913,38,D,2024-05-16_08h15.05.738,attentional_competition_task,2022.2.4,144.01253483247456,
positions.xlsx,positions_test.xlsx,positions_test_new.xlsx,stimuli.xlsx,stimuli_new.xlsx,stimuli/Social4.png,stimuli/Social3.png,stimuli/Nonsocial4.png,stimuli/Nonsocial3.png,stimuli/Social2.png,stimuli/Social1.png,stimuli/Nonsocial2.png,stimuli/Nonsocial1.png,,,"(-0.7, -0.5)",cs_pos_s,"(-0.7, 0.5)",cs_pos_ns,"(0.7, -0.5)",cs_neg_ns,"(0.7, 0.5)",cs_neg_s,0,0,0,0,,,,,,,,,,,,,,,,,,,,,0,22,22,11,,,,,,,,,,,,,,,,,,,,,,,,,,,207,reward,,,,,,1043.4994786999887,1043.4994786999887,1043.4994786999887,1043.4994786999887,1,0.43442760000471026,0.5039798000070732,1,0.24766950000775978,0.42759370000567287,0,,,0,,,1044.5063324999937,1044.5063324999937,1044.5063324999937,1044.5063324999937,38,D,2024-05-16_08h15.05.738,attentional_competition_task,2022.2.4,144.01253483247456,
positions.xlsx,positions_test.xlsx,positions_test_new.xlsx,stimuli.xlsx,stimuli_new.xlsx,stimuli/Social4.png,stimuli/Social3.png,stimuli/Nonsocial4.png,stimuli/Nonsocial3.png,stimuli/Social2.png,stimuli/Social1.png,stimuli/Nonsocial2.png,stimuli/Nonsocial1.png,,,"(-0.7, -0.5)",cs_pos_ns,"(-0.7, 0.5)",cs_neg_ns,"(0.7, -0.5)",cs_neg_s,"(0.7, 0.5)",cs_pos_s,0,0,0,0,,,,,,,,,,,,,,,,,,,,,0,23,23,21,,,,,,,,,,,,,,,,,,,,,,,,,,,216,reward,,,,,,1051.700488699993,1051.700488699993,1051.700488699993,1051.700488699993,1,0.02312510000774637,0.18362870000419207,0,,,0,,,0,,,1052.3879642999964,1052.3879642999964,1052.3879642999964,1052.3879642999964,38,D,2024-05-16_08h15.05.738,attentional_competition_task,2022.2.4,144.01253483247456,
positions.xlsx,positions_test.xlsx,positions_test_new.xlsx,stimuli.xlsx,stimuli_new.xlsx,stimuli/Social4.png,stimuli/Social3.png,stimuli/Nonsocial4.png,stimuli/Nonsocial3.png,stimuli/Social2.png,stimuli/Social1.png,stimuli/Nonsocial2.png,stimuli/Nonsocial1.png,,,"(-0.7, -0.5)",cs_pos_s,"(-0.7, 0.5)",cs_neg_s,"(0.7, -0.5)",cs_pos_ns,"(0.7, 0.5)",cs_neg_ns,0,0,0,0,,,,,,,,,,,,,,,,,,,,,1,0,24,7,,,,,,,,,,,,,,,,,,,,,,,,,,,225,reward,,,,,,1060.075153400001,1060.075153400001,1060.075153400001,1060.075153400001,0,,,0,,,1,0.023324699999648146,0.20460539999476168,0,,,1060.79040849999,1060.79040849999,1060.79040849999,1060.79040849999,38,D,2024-05-16_08h15.05.738,attentional_competition_task,2022.2.4,144.01253483247456,
positions.xlsx,positions_test.xlsx,positions_test_new.xlsx,stimuli.xlsx,stimuli_new.xlsx,stimuli/Social4.png,stimuli/Social3.png,stimuli/Nonsocial4.png,stimuli/Nonsocial3.png,stimuli/Social2.png,stimuli/Social1.png,stimuli/Nonsocial2.png,stimuli/Nonsocial1.png,,,"(-0.7, -0.5)",cs_neg_ns,"(-0.7, 0.5)",cs_neg_s,"(0.7, -0.5)",cs_pos_s,"(0.7, 0.5)",cs_pos_ns,0,0,0,0,,,,,,,,,,,,,,,,,,,,,1,1,25,14,,,,,,,,,,,,,,,,,,,,,,,,,,,234,reward,,,,,,1068.4011886999942,1068.4011886999942,1068.4011886999942,1068.4011886999942,0,,,0,,,0,,,1,0.024309700005687773,0.3374949999997625,1069.24839909999,1069.24839909999,1069.24839909999,1069.24839909999,38,D,2024-05-16_08h15.05.738,attentional_competition_task,2022.2.4,144.01253483247456,
positions.xlsx,positions_test.xlsx,positions_test_new.xlsx,stimuli.xlsx,stimuli_new.xlsx,stimuli/Social4.png,stimuli/Social3.png,stimuli/Nonsocial4.png,stimuli/Nonsocial3.png,stimuli/Social2.png,stimuli/Social1.png,stimuli/Nonsocial2.png,stimuli/Nonsocial1.png,,,"(-0.7, -0.5)",cs_neg_s,"(-0.7, 0.5)",cs_pos_s,"(0.7, -0.5)",cs_neg_ns,"(0.7, 0.5)",cs_pos_ns,0,0,0,0,,,,,,,,,,,,,,,,,,,,,1,2,26,0,,,,,,,,,,,,,,,,,,,,,,,,,,,234,loss,,,,,,1076.9842098999943,1076.9842098999943,1076.9842098999943,1076.9842098999943,0,,,0,,,1,0.49722509999992326,0.49723600001016166,0,,,1077.4772102999996,1077.4772102999996,1077.4772102999996,1077.4772102999996,38,D,2024-05-16_08h15.05.738,attentional_competition_task,2022.2.4,144.01253483247456,
positions.xlsx,positions_test.xlsx,positions_test_new.xlsx,stimuli.xlsx,stimuli_new.xlsx,stimuli/Social4.png,stimuli/Social3.png,stimuli/Nonsocial4.png,stimuli/Nonsocial3.png,stimuli/Social2.png,stimuli/Social1.png,stimuli/Nonsocial2.png,stimuli/Nonsocial1.png,,,"(-0.7, -0.5)",cs_neg_ns,"(-0.7, 0.5)",cs_pos_ns,"(0.7, -0.5)",cs_pos_s,"(0.7, 0.5)",cs_neg_s,0,0,0,0,,,,,,,,,,,,,,,,,,,,,1,3,27,16,,,,,,,,,,,,,,,,,,,,,,,,,,,240,reward,,,,,,1085.935232799995,1085.935232799995,1085.935232799995,1085.935232799995,0,,,1,0.4462475999898743,0.4537397999956738,1,0.02934889998869039,0.39110019999498036,0,,,1086.3865969999897,1086.3865969999897,1086.3865969999897,1086.3865969999897,38,D,2024-05-16_08h15.05.738,attentional_competition_task,2022.2.4,144.01253483247456,
positions.xlsx,positions_test.xlsx,positions_test_new.xlsx,stimuli.xlsx,stimuli_new.xlsx,stimuli/Social4.png,stimuli/Social3.png,stimuli/Nonsocial4.png,stimuli/Nonsocial3.png,stimuli/Social2.png,stimuli/Social1.png,stimuli/Nonsocial2.png,stimuli/Nonsocial1.png,,,"(-0.7, -0.5)",cs_neg_ns,"(-0.7, 0.5)",cs_neg_s,"(0.7, -0.5)",cs_pos_ns,"(0.7, 0.5)",cs_pos_s,0,0,0,0,,,,,,,,,,,,,,,,,,,,,1,4,28,15,,,,,,,,,,,,,,,,,,,,,,,,,,,249,reward,,,,,,1095.1640681999997,1095.1640681999997,1095.1640681999997,1095.1640681999997,0,,,0,,,1,0.0303624999942258,0.11395919999631587,0,,,1095.7750971999922,1095.7750971999922,1095.7750971999922,1095.7750971999922,38,D,2024-05-16_08h15.05.738,attentional_competition_task,2022.2.4,144.01253483247456,
positions.xlsx,positions_test.xlsx,positions_test_new.xlsx,stimuli.xlsx,stimuli_new.xlsx,stimuli/Social4.png,stimuli/Social3.png,stimuli/Nonsocial4.png,stimuli/Nonsocial3.png,stimuli/Social2.png,stimuli/Social1.png,stimuli/Nonsocial2.png,stimuli/Nonsocial1.png,,,"(-0.7, -0.5)",cs_neg_ns,"(-0.7, 0.5)",cs_pos_ns,"(0.7, -0.5)",cs_neg_s,"(0.7, 0.5)",cs_pos_s,0,0,0,0,,,,,,,,,,,,,,,,,,,,,1,5,29,17,,,,,,,,,,,,,,,,,,,,,,,,,,,255,reward,,,,,,1102.6776534999954,1102.6776534999954,1102.6776534999954,1102.6776534999954,0,,,1,0.8703080999985104,0.8703114999952959,0,,,1,0.03053649999492336,0.8083589999878313,1103.5455974999932,1103.5455974999932,1103.5455974999932,1103.5455974999932,38,D,2024-05-16_08h15.05.738,attentional_competition_task,2022.2.4,144.01253483247456,
positions.xlsx,positions_test.xlsx,positions_test_new.xlsx,stimuli.xlsx,stimuli_new.xlsx,stimuli/Social4.png,stimuli/Social3.png,stimuli/Nonsocial4.png,stimuli/Nonsocial3.png,stimuli/Social2.png,stimuli/Social1.png,stimuli/Nonsocial2.png,stimuli/Nonsocial1.png,,,"(-0.7, -0.5)",cs_pos_s,"(-0.7, 0.5)",cs_neg_ns,"(0.7, -0.5)",cs_pos_ns,"(0.7, 0.5)",cs_neg_s,0,0,0,0,,,,,,,,,,,,,,,,,,,,,1,6,30,9,,,,,,,,,,,,,,,,,,,,,,,,,,,264,reward,,,,,,1110.7606439999945,1110.7606439999945,1110.7606439999945,1110.7606439999945,1,0.4057036000012886,0.53793439999572,0,,,1,0.023445900005754083,0.34440210000320803,0,,,1111.8091978000011,1111.8091978000011,1111.8091978000011,1111.8091978000011,38,D,2024-05-16_08h15.05.738,attentional_competition_task,2022.2.4,144.01253483247456,
positions.xlsx,positions_test.xlsx,positions_test_new.xlsx,stimuli.xlsx,stimuli_new.xlsx,stimuli/Social4.png,stimuli/Social3.png,stimuli/Nonsocial4.png,stimuli/Nonsocial3.png,stimuli/Social2.png,stimuli/Social1.png,stimuli/Nonsocial2.png,stimuli/Nonsocial1.png,,,"(-0.7, -0.5)",cs_pos_ns,"(-0.7, 0.5)",cs_neg_ns,"(0.7, -0.5)",cs_neg_s,"(0.7, 0.5)",cs_pos_s,0,0,0,0,,,,,,,,,,,,,,,,,,,,,1,7,31,21,,,,,,,,,,,,,,,,,,,,,,,,,,,270,reward,,,,,,1119.8922108999977,1119.8922108999977,1119.8922108999977,1119.8922108999977,0,,,0,,,0,,,0,,,1120.55190939999,1120.55190939999,1120.55190939999,1120.55190939999,38,D,2024-05-16_08h15.05.738,attentional_competition_task,2022.2.4,144.01253483247456,
positions.xlsx,positions_test.xlsx,positions_test_new.xlsx,stimuli.xlsx,stimuli_new.xlsx,stimuli/Social4.png,stimuli/Social3.png,stimuli/Nonsocial4.png,stimuli/Nonsocial3.png,stimuli/Social2.png,stimuli/Social1.png,stimuli/Nonsocial2.png,stimuli/Nonsocial1.png,,,"(-0.7, -0.5)",cs_neg_ns,"(-0.7, 0.5)",cs_pos_s,"(0.7, -0.5)",cs_pos_ns,"(0.7, 0.5)",cs_neg_s,0,0,0,0,,,,,,,,,,,,,,,,,,,,,1,8,32,13,,,,,,,,,,,,,,,,,,,,,,,,,,,279,reward,,,,,,1127.8502099999896,1127.8502099999896,1127.8502099999896,1127.8502099999896,0,,,0,,,0,,,0,,,1128.891856999995,1128.891856999995,1128.891856999995,1128.891856999995,38,D,2024-05-16_08h15.05.738,attentional_competition_task,2022.2.4,144.01253483247456,
positions.xlsx,positions_test.xlsx,positions_test_new.xlsx,stimuli.xlsx,stimuli_new.xlsx,stimuli/Social4.png,stimuli/Social3.png,stimuli/Nonsocial4.png,stimuli/Nonsocial3.png,stimuli/Social2.png,stimuli/Social1.png,stimuli/Nonsocial2.png,stimuli/Nonsocial1.png,,,"(-0.7, -0.5)",cs_pos_ns,"(-0.7, 0.5)",cs_pos_s,"(0.7, -0.5)",cs_neg_s,"(0.7, 0.5)",cs_neg_ns,0,0,0,0,,,,,,,,,,,,,,,,,,,,,1,9,33,19,,,,,,,,,,,,,,,,,,,,,,,,,,,288,reward,,,,,,1136.481835899991,1136.481835899991,1136.481835899991,1136.481835899991,1,0.023755700007313862,0.3652056000137236,0,,,0,,,0,,,1137.3498562000023,1137.3498562000023,1137.3498562000023,1137.3498562000023,38,D,2024-05-16_08h15.05.738,attentional_competition_task,2022.2.4,144.01253483247456,
positions.xlsx,positions_test.xlsx,positions_test_new.xlsx,stimuli.xlsx,stimuli_new.xlsx,stimuli/Social4.png,stimuli/Social3.png,stimuli/Nonsocial4.png,stimuli/Nonsocial3.png,stimuli/Social2.png,stimuli/Social1.png,stimuli/Nonsocial2.png,stimuli/Nonsocial1.png,,,"(-0.7, -0.5)",cs_pos_s,"(-0.7, 0.5)",cs_pos_ns,"(0.7, -0.5)",cs_neg_s,"(0.7, 0.5)",cs_neg_ns,0,0,0,0,,,,,,,,,,,,,,,,,,,,,1,10,34,10,,,,,,,,,,,,,,,,,,,,,,,,,,,291,reward,,,,,,1145.0440012999898,1145.0440012999898,1145.0440012999898,1145.0440012999898,0,,,1,0.025590699995518662,0.025594499995349906,0,,,0,,,1145.0440012999898,1145.0440012999898,1145.0440012999898,1145.0440012999898,38,D,2024-05-16_08h15.05.738,attentional_competition_task,2022.2.4,144.01253483247456,
positions.xlsx,positions_test.xlsx,positions_test_new.xlsx,stimuli.xlsx,stimuli_new.xlsx,stimuli/Social4.png,stimuli/Social3.png,stimuli/Nonsocial4.png,stimuli/Nonsocial3.png,stimuli/Social2.png,stimuli/Social1.png,stimuli/Nonsocial2.png,stimuli/Nonsocial1.png,,,"(-0.7, -0.5)",cs_pos_s,"(-0.7, 0.5)",cs_neg_ns,"(0.7, -0.5)",cs_neg_s,"(0.7, 0.5)",cs_pos_ns,0,0,0,0,,,,,,,,,,,,,,,,,,,,,1,11,35,8,,,,,,,,,,,,,,,,,,,,,,,,,,,294,reward,,,,,,1153.4672711999883,1153.4672711999883,1153.4672711999883,1153.4672711999883,0,,,0,,,0,,,1,0.02274030000262428,0.022744499990949407,1153.4672711999883,1153.4672711999883,1153.4672711999883,1153.4672711999883,38,D,2024-05-16_08h15.05.738,attentional_competition_task,2022.2.4,144.01253483247456,
positions.xlsx,positions_test.xlsx,positions_test_new.xlsx,stimuli.xlsx,stimuli_new.xlsx,stimuli/Social4.png,stimuli/Social3.png,stimuli/Nonsocial4.png,stimuli/Nonsocial3.png,stimuli/Social2.png,stimuli/Social1.png,stimuli/Nonsocial2.png,stimuli/Nonsocial1.png,,,"(-0.7, -0.5)",cs_neg_s,"(-0.7, 0.5)",cs_pos_s,"(0.7, -0.5)",cs_pos_ns,"(0.7, 0.5)",cs_neg_ns,0,0,0,0,,,,,,,,,,,,,,,,,,,,,1,12,36,1,,,,,,,,,,,,,,,,,,,,,,,,,,,300,reward,,,,,,1161.022518999991,1161.022518999991,1161.022518999991,1161.022518999991,0,,,1,0.02902479999465868,0.3911547000025166,1,0.4470748000021558,0.4470782999997027,0,,,1161.4738889,1161.4738889,1161.4738889,1161.4738889,38,D,2024-05-16_08h15.05.738,attentional_competition_task,2022.2.4,144.01253483247456,
positions.xlsx,positions_test.xlsx,positions_test_new.xlsx,stimuli.xlsx,stimuli_new.xlsx,stimuli/Social4.png,stimuli/Social3.png,stimuli/Nonsocial4.png,stimuli/Nonsocial3.png,stimuli/Social2.png,stimuli/Social1.png,stimuli/Nonsocial2.png,stimuli/Nonsocial1.png,,,"(-0.7, -0.5)",cs_neg_ns,"(-0.7, 0.5)",cs_pos_s,"(0.7, -0.5)",cs_neg_s,"(0.7, 0.5)",cs_pos_ns,0,0,0,0,,,,,,,,,,,,,,,,,,,,,1,13,37,12,,,,,,,,,,,,,,,,,,,,,,,,,,,303,loss,,,,,,1170.751283599995,1170.751283599995,1170.751283599995,1170.751283599995,0,,,0,,,1,0.5432597999897553,0.5432634999888251,1,0.029618299988214858,0.5234854000009364,1171.7929038000002,1171.7929038000002,1171.7929038000002,1171.7929038000002,38,D,2024-05-16_08h15.05.738,attentional_competition_task,2022.2.4,144.01253483247456,
positions.xlsx,positions_test.xlsx,positions_test_new.xlsx,stimuli.xlsx,stimuli_new.xlsx,stimuli/Social4.png,stimuli/Social3.png,stimuli/Nonsocial4.png,stimuli/Nonsocial3.png,stimuli/Social2.png,stimuli/Social1.png,stimuli/Nonsocial2.png,stimuli/Nonsocial1.png,,,"(-0.7, -0.5)",cs_neg_s,"(-0.7, 0.5)",cs_pos_ns,"(0.7, -0.5)",cs_pos_s,"(0.7, 0.5)",cs_neg_ns,0,0,0,0,,,,,,,,,,,,,,,,,,,,,1,14,38,4,,,,,,,,,,,,,,,,,,,,,,,,,,,306,reward,,,,,,1179.4939925999934,1179.4939925999934,1179.4939925999934,1179.4939925999934,0,,,1,0.02207000000635162,0.022074299995438196,0,,,0,,,1179.4939925999934,1179.4939925999934,1179.4939925999934,1179.4939925999934,38,D,2024-05-16_08h15.05.738,attentional_competition_task,2022.2.4,144.01253483247456,
positions.xlsx,positions_test.xlsx,positions_test_new.xlsx,stimuli.xlsx,stimuli_new.xlsx,stimuli/Social4.png,stimuli/Social3.png,stimuli/Nonsocial4.png,stimuli/Nonsocial3.png,stimuli/Social2.png,stimuli/Social1.png,stimuli/Nonsocial2.png,stimuli/Nonsocial1.png,,,"(-0.7, -0.5)",cs_pos_ns,"(-0.7, 0.5)",cs_neg_s,"(0.7, -0.5)",cs_neg_ns,"(0.7, 0.5)",cs_pos_s,0,0,0,0,,,,,,,,,,,,,,,,,,,,,1,15,39,23,,,,,,,,,,,,,,,,,,,,,,,,,,,312,reward,,,,,,1187.6950542999984,1187.6950542999984,1187.6950542999984,1187.6950542999984,1,0.02987070000381209,0.02987490000668913,0,,,0,,,0,,,1187.6950542999984,1187.6950542999984,1187.6950542999984,1187.6950542999984,38,D,2024-05-16_08h15.05.738,attentional_competition_task,2022.2.4,144.01253483247456,
positions.xlsx,positions_test.xlsx,positions_test_new.xlsx,stimuli.xlsx,stimuli_new.xlsx,stimuli/Social4.png,stimuli/Social3.png,stimuli/Nonsocial4.png,stimuli/Nonsocial3.png,stimuli/Social2.png,stimuli/Social1.png,stimuli/Nonsocial2.png,stimuli/Nonsocial1.png,,,"(-0.7, -0.5)",cs_neg_s,"(-0.7, 0.5)",cs_pos_ns,"(0.7, -0.5)",cs_neg_ns,"(0.7, 0.5)",cs_pos_s,0,0,0,0,,,,,,,,,,,,,,,,,,,,,1,16,40,5,,,,,,,,,,,,,,,,,,,,,,,,,,,321,reward,,,,,,1195.6808283999999,1195.6808283999999,1195.6808283999999,1195.6808283999999,0,,,1,0.029729100002441555,0.23100549999799114,0,,,0,,,1196.5141582999931,1196.5141582999931,1196.5141582999931,1196.5141582999931,38,D,2024-05-16_08h15.05.738,attentional_competition_task,2022.2.4,144.01253483247456,
positions.xlsx,positions_test.xlsx,positions_test_new.xlsx,stimuli.xlsx,stimuli_new.xlsx,stimuli/Social4.png,stimuli/Social3.png,stimuli/Nonsocial4.png,stimuli/Nonsocial3.png,stimuli/Social2.png,stimuli/Social1.png,stimuli/Nonsocial2.png,stimuli/Nonsocial1.png,,,"(-0.7, -0.5)",cs_pos_s,"(-0.7, 0.5)",cs_pos_ns,"(0.7, -0.5)",cs_neg_ns,"(0.7, 0.5)",cs_neg_s,0,0,0,0,,,,,,,,,,,,,,,,,,,,,1,17,41,11,,,,,,,,,,,,,,,,,,,,,,,,,,,327,reward,,,,,,1204.201351399999,1204.201351399999,1204.201351399999,1204.201351399999,0,,,0,,,0,,,0,,,1204.8124327999976,1204.8124327999976,1204.8124327999976,1204.8124327999976,38,D,2024-05-16_08h15.05.738,attentional_competition_task,2022.2.4,144.01253483247456,
positions.xlsx,positions_test.xlsx,positions_test_new.xlsx,stimuli.xlsx,stimuli_new.xlsx,stimuli/Social4.png,stimuli/Social3.png,stimuli/Nonsocial4.png,stimuli/Nonsocial3.png,stimuli/Social2.png,stimuli/Social1.png,stimuli/Nonsocial2.png,stimuli/Nonsocial1.png,,,"(-0.7, -0.5)",cs_pos_ns,"(-0.7, 0.5)",cs_neg_ns,"(0.7, -0.5)",cs_pos_s,"(0.7, 0.5)",cs_neg_s,0,0,0,0,,,,,,,,,,,,,,,,,,,,,1,18,42,20,,,,,,,,,,,,,,,,,,,,,,,,,,,330,reward,,,,,,1213.1384802999964,1213.1384802999964,1213.1384802999964,1213.1384802999964,1,0.028767099996912293,0.028770899996743537,0,,,0,,,0,,,1213.1384802999964,1213.1384802999964,1213.1384802999964,1213.1384802999964,38,D,2024-05-16_08h15.05.738,attentional_competition_task,2022.2.4,144.01253483247456,
positions.xlsx,positions_test.xlsx,positions_test_new.xlsx,stimuli.xlsx,stimuli_new.xlsx,stimuli/Social4.png,stimuli/Social3.png,stimuli/Nonsocial4.png,stimuli/Nonsocial3.png,stimuli/Social2.png,stimuli/Social1.png,stimuli/Nonsocial2.png,stimuli/Nonsocial1.png,,,"(-0.7, -0.5)",cs_pos_s,"(-0.7, 0.5)",cs_neg_s,"(0.7, -0.5)",cs_neg_ns,"(0.7, 0.5)",cs_pos_ns,0,0,0,0,,,,,,,,,,,,,,,,,,,,,1,19,43,6,,,,,,,,,,,,,,,,,,,,,,,,,,,336,reward,,,,,,1221.4229046999972,1221.4229046999972,1221.4229046999972,1221.4229046999972,0,,,0,,,0,,,1,0.030861499995808117,0.03086529999563936,1221.4229046999972,1221.4229046999972,1221.4229046999972,1221.4229046999972,38,D,2024-05-16_08h15.05.738,attentional_competition_task,2022.2.4,144.01253483247456,
positions.xlsx,positions_test.xlsx,positions_test_new.xlsx,stimuli.xlsx,stimuli_new.xlsx,stimuli/Social4.png,stimuli/Social3.png,stimuli/Nonsocial4.png,stimuli/Nonsocial3.png,stimuli/Social2.png,stimuli/Social1.png,stimuli/Nonsocial2.png,stimuli/Nonsocial1.png,,,"(-0.7, -0.5)",cs_pos_ns,"(-0.7, 0.5)",cs_pos_s,"(0.7, -0.5)",cs_neg_ns,"(0.7, 0.5)",cs_neg_s,0,0,0,0,,,,,,,,,,,,,,,,,,,,,1,20,44,18,,,,,,,,,,,,,,,,,,,,,,,,,,,345,reward,,,,,,1229.971125600001,1229.971125600001,1229.971125600001,1229.971125600001,1,0.024283799997647293,0.19079160000546835,0,,,0,,,0,,,1230.665570600002,1230.665570600002,1230.665570600002,1230.665570600002,38,D,2024-05-16_08h15.05.738,attentional_competition_task,2022.2.4,144.01253483247456,
positions.xlsx,positions_test.xlsx,positions_test_new.xlsx,stimuli.xlsx,stimuli_new.xlsx,stimuli/Social4.png,stimuli/Social3.png,stimuli/Nonsocial4.png,stimuli/Nonsocial3.png,stimuli/Social2.png,stimuli/Social1.png,stimuli/Nonsocial2.png,stimuli/Nonsocial1.png,,,"(-0.7, -0.5)",cs_neg_s,"(-0.7, 0.5)",cs_neg_ns,"(0.7, -0.5)",cs_pos_s,"(0.7, 0.5)",cs_pos_ns,0,0,0,0,,,,,,,,,,,,,,,,,,,,,1,21,45,2,,,,,,,,,,,,,,,,,,,,,,,,,,,354,reward,,,,,,1239.220777399998,1239.220777399998,1239.220777399998,1239.220777399998,0,,,0,,,0,,,1,0.02436340000713244,0.024367000005440786,1239.220777399998,1239.220777399998,1239.220777399998,1239.220777399998,38,D,2024-05-16_08h15.05.738,attentional_competition_task,2022.2.4,144.01253483247456,
positions.xlsx,positions_test.xlsx,positions_test_new.xlsx,stimuli.xlsx,stimuli_new.xlsx,stimuli/Social4.png,stimuli/Social3.png,stimuli/Nonsocial4.png,stimuli/Nonsocial3.png,stimuli/Social2.png,stimuli/Social1.png,stimuli/Nonsocial2.png,stimuli/Nonsocial1.png,,,"(-0.7, -0.5)",cs_neg_s,"(-0.7, 0.5)",cs_neg_ns,"(0.7, -0.5)",cs_pos_ns,"(0.7, 0.5)",cs_pos_s,0,0,0,0,,,,,,,,,,,,,,,,,,,,,1,22,46,3,,,,,,,,,,,,,,,,,,,,,,,,,,,360,reward,,,,,,1246.7830047999887,1246.7830047999887,1246.7830047999887,1246.7830047999887,0,,,0,,,1,0.21801870000490453,0.21802220000245143,1,0.031127300011576153,0.20416360000672285,1246.998220900001,1246.998220900001,1246.998220900001,1246.998220900001,38,D,2024-05-16_08h15.05.738,attentional_competition_task,2022.2.4,144.01253483247456,
positions.xlsx,positions_test.xlsx,positions_test_new.xlsx,stimuli.xlsx,stimuli_new.xlsx,stimuli/Social4.png,stimuli/Social3.png,stimuli/Nonsocial4.png,stimuli/Nonsocial3.png,stimuli/Social2.png,stimuli/Social1.png,stimuli/Nonsocial2.png,stimuli/Nonsocial1.png,,,"(-0.7, -0.5)",cs_pos_ns,"(-0.7, 0.5)",cs_neg_s,"(0.7, -0.5)",cs_pos_s,"(0.7, 0.5)",cs_neg_ns,0,0,0,0,,,,,,,,,,,,,,,,,,,,,1,23,47,22,,,,,,,,,,,,,,,,,,,,,,,,,,,363,reward,,,,,,1256.2825944999931,1256.2825944999931,1256.2825944999931,1256.2825944999931,1,0.028759599998011254,0.028763499998603947,0,,,0,,,0,,,1256.2825944999931,1256.2825944999931,1256.2825944999931,1256.2825944999931,38,D,2024-05-16_08h15.05.738,attentional_competition_task,2022.2.4,144.01253483247456,
positions.xlsx,positions_test.xlsx,positions_test_new.xlsx,stimuli.xlsx,stimuli_new.xlsx,stimuli/Social4.png,stimuli/Social3.png,stimuli/Nonsocial4.png,stimuli/Nonsocial3.png,stimuli/Social2.png,stimuli/Social1.png,stimuli/Nonsocial2.png,stimuli/Nonsocial1.png,,,"(-0.7, -0.5)",cs_pos_s,"(-0.7, 0.5)",cs_neg_ns_new,"(0.7, -0.5)",cs_pos_ns,"(0.7, 0.5)",cs_neg_s,0,0,0,0,,,,,,,,,,,,,,,,,,,,,,,,,,,,,0,0,0,26,0,0,0,0,,,,,,,,,,,,,,,366,reward,,,,,,1263.3031921999936,1263.3031921999936,1263.3031921999936,1263.3031921999936,1,0.7306621000025189,0.7306662000046344,0,,,0,,,0,,,1264.0392270000011,1264.0392270000011,1264.0392270000011,1264.0392270000011,38,D,2024-05-16_08h15.05.738,attentional_competition_task,2022.2.4,144.01253483247456,
positions.xlsx,positions_test.xlsx,positions_test_new.xlsx,stimuli.xlsx,stimuli_new.xlsx,stimuli/Social4.png,stimuli/Social3.png,stimuli/Nonsocial4.png,stimuli/Nonsocial3.png,stimuli/Social2.png,stimuli/Social1.png,stimuli/Nonsocial2.png,stimuli/Nonsocial1.png,,,"(-0.7, -0.5)",cs_pos_s,"(-0.7, 0.5)",cs_neg_ns_new,"(0.7, -0.5)",cs_pos_ns,"(0.7, 0.5)",cs_neg_s,0,0,0,0,,,,,,,,,,,,,,,,,,,,,,,,,,,,,0,0,0,26,1,0,1,0,,,,,,,,,,,,,,,369,reward,,,,,,1264.5739253999927,1264.5739253999927,1264.5739253999927,1264.5739253999927,0,,,0,,,1,0.03046530000574421,0.030469200006336905,0,,,1264.5739253999927,1264.5739253999927,1264.5739253999927,1264.5739253999927,38,D,2024-05-16_08h15.05.738,attentional_competition_task,2022.2.4,144.01253483247456,
positions.xlsx,positions_test.xlsx,positions_test_new.xlsx,stimuli.xlsx,stimuli_new.xlsx,stimuli/Social4.png,stimuli/Social3.png,stimuli/Nonsocial4.png,stimuli/Nonsocial3.png,stimuli/Social2.png,stimuli/Social1.png,stimuli/Nonsocial2.png,stimuli/Nonsocial1.png,,,"(-0.7, -0.5)",cs_pos_s,"(-0.7, 0.5)",cs_neg_ns_new,"(0.7, -0.5)",cs_pos_ns,"(0.7, 0.5)",cs_neg_s,0,0,0,0,,,,,,,,,,,,,,,,,,,,,,,,,,,,,0,0,0,26,2,0,2,0,,,,,,,,,,,,,,,372,reward,,,,,,1265.0739100999926,1265.0739100999926,1265.0739100999926,1265.0739100999926,0,,,0,,,1,0.025934299992513843,0.10832430000300519,0,,,1265.8169401999912,1265.8169401999912,1265.8169401999912,1265.8169401999912,38,D,2024-05-16_08h15.05.738,attentional_competition_task,2022.2.4,144.01253483247456,
positions.xlsx,positions_test.xlsx,positions_test_new.xlsx,stimuli.xlsx,stimuli_new.xlsx,stimuli/Social4.png,stimuli/Social3.png,stimuli/Nonsocial4.png,stimuli/Nonsocial3.png,stimuli/Social2.png,stimuli/Social1.png,stimuli/Nonsocial2.png,stimuli/Nonsocial1.png,,,"(-0.7, -0.5)",cs_pos_s,"(-0.7, 0.5)",cs_neg_ns_new,"(0.7, -0.5)",cs_pos_ns,"(0.7, 0.5)",cs_neg_s,0,0,0,0,,,,,,,,,,,,,,,,,,,,,,,,,,,,,0,0,0,26,,,,,,,,,,,,,,,,,,,,,,,,,,,,,,,,,,,,,,,,,,,,,,38,D,2024-05-16_08h15.05.738,attentional_competition_task,2022.2.4,144.01253483247456,
positions.xlsx,positions_test.xlsx,positions_test_new.xlsx,stimuli.xlsx,stimuli_new.xlsx,stimuli/Social4.png,stimuli/Social3.png,stimuli/Nonsocial4.png,stimuli/Nonsocial3.png,stimuli/Social2.png,stimuli/Social1.png,stimuli/Nonsocial2.png,stimuli/Nonsocial1.png,,,"(-0.7, -0.5)",cs_neg_ns_new,"(-0.7, 0.5)",cs_pos_ns,"(0.7, -0.5)",cs_pos_s,"(0.7, 0.5)",cs_neg_s,0,0,0,0,,,,,,,,,,,,,,,,,,,,,,,,,,,,,0,1,1,22,0,0,0,0,,,,,,,,,,,,,,,375,reward,,,,,,1271.455586600001,1271.455586600001,1271.455586600001,1271.455586600001,0,,,0,,,1,0.5650639000086812,0.5650673000054667,0,,,1272.0250161000004,1272.0250161000004,1272.0250161000004,1272.0250161000004,38,D,2024-05-16_08h15.05.738,attentional_competition_task,2022.2.4,144.01253483247456,
positions.xlsx,positions_test.xlsx,positions_test_new.xlsx,stimuli.xlsx,stimuli_new.xlsx,stimuli/Social4.png,stimuli/Social3.png,stimuli/Nonsocial4.png,stimuli/Nonsocial3.png,stimuli/Social2.png,stimuli/Social1.png,stimuli/Nonsocial2.png,stimuli/Nonsocial1.png,,,"(-0.7, -0.5)",cs_neg_ns_new,"(-0.7, 0.5)",cs_pos_ns,"(0.7, -0.5)",cs_pos_s,"(0.7, 0.5)",cs_neg_s,0,0,0,0,,,,,,,,,,,,,,,,,,,,,,,,,,,,,0,1,1,22,1,0,1,0,,,,,,,,,,,,,,,378,reward,,,,,,1272.5319351999933,1272.5319351999933,1272.5319351999933,1272.5319351999933,0,,,1,0.12156890000915155,0.13485440000658855,1,0.031354999999166466,0.06572260000393726,0,,,1272.6638845999987,1272.6638845999987,1272.6638845999987,1272.6638845999987,38,D,2024-05-16_08h15.05.738,attentional_competition_task,2022.2.4,144.01253483247456,
positions.xlsx,positions_test.xlsx,positions_test_new.xlsx,stimuli.xlsx,stimuli_new.xlsx,stimuli/Social4.png,stimuli/Social3.png,stimuli/Nonsocial4.png,stimuli/Nonsocial3.png,stimuli/Social2.png,stimuli/Social1.png,stimuli/Nonsocial2.png,stimuli/Nonsocial1.png,,,"(-0.7, -0.5)",cs_neg_ns_new,"(-0.7, 0.5)",cs_pos_ns,"(0.7, -0.5)",cs_pos_s,"(0.7, 0.5)",cs_neg_s,0,0,0,0,,,,,,,,,,,,,,,,,,,,,,,,,,,,,0,1,1,22,2,0,2,0,,,,,,,,,,,,,,,375,loss,,,,,,1273.1707836999994,1273.1707836999994,1273.1707836999994,1273.1707836999994,0,,,1,0.03160589998879004,0.25922589999390766,0,,,0,,,1273.9415971999988,1273.9415971999988,1273.9415971999988,1273.9415971999988,38,D,2024-05-16_08h15.05.738,attentional_competition_task,2022.2.4,144.01253483247456,
positions.xlsx,positions_test.xlsx,positions_test_new.xlsx,stimuli.xlsx,stimuli_new.xlsx,stimuli/Social4.png,stimuli/Social3.png,stimuli/Nonsocial4.png,stimuli/Nonsocial3.png,stimuli/Social2.png,stimuli/Social1.png,stimuli/Nonsocial2.png,stimuli/Nonsocial1.png,,,"(-0.7, -0.5)",cs_neg_ns_new,"(-0.7, 0.5)",cs_pos_ns,"(0.7, -0.5)",cs_pos_s,"(0.7, 0.5)",cs_neg_s,0,0,0,0,,,,,,,,,,,,,,,,,,,,,,,,,,,,,0,1,1,22,,,,,,,,,,,,,,,,,,,,,,,,,,,,,,,,,,,,,,,,,,,,,,38,D,2024-05-16_08h15.05.738,attentional_competition_task,2022.2.4,144.01253483247456,
positions.xlsx,positions_test.xlsx,positions_test_new.xlsx,stimuli.xlsx,stimuli_new.xlsx,stimuli/Social4.png,stimuli/Social3.png,stimuli/Nonsocial4.png,stimuli/Nonsocial3.png,stimuli/Social2.png,stimuli/Social1.png,stimuli/Nonsocial2.png,stimuli/Nonsocial1.png,,,"(-0.7, -0.5)",cs_neg_s_new,"(-0.7, 0.5)",cs_pos_ns,"(0.7, -0.5)",cs_pos_s,"(0.7, 0.5)",cs_neg_ns,0,0,0,0,,,,,,,,,,,,,,,,,,,,,,,,,,,,,0,2,2,13,0,0,0,0,,,,,,,,,,,,,,,378,reward,,,,,,1279.719153099999,1279.719153099999,1279.719153099999,1279.719153099999,0,,,0,,,1,0.8634867999935523,0.8708565999986604,0,,,1280.5871948999993,1280.5871948999993,1280.5871948999993,1280.5871948999993,38,D,2024-05-16_08h15.05.738,attentional_competition_task,2022.2.4,144.01253483247456,
positions.xlsx,positions_test.xlsx,positions_test_new.xlsx,stimuli.xlsx,stimuli_new.xlsx,stimuli/Social4.png,stimuli/Social3.png,stimuli/Nonsocial4.png,stimuli/Nonsocial3.png,stimuli/Social2.png,stimuli/Social1.png,stimuli/Nonsocial2.png,stimuli/Nonsocial1.png,,,"(-0.7, -0.5)",cs_neg_s_new,"(-0.7, 0.5)",cs_pos_ns,"(0.7, -0.5)",cs_pos_s,"(0.7, 0.5)",cs_neg_ns,0,0,0,0,,,,,,,,,,,,,,,,,,,,,,,,,,,,,0,2,2,13,1,0,1,0,,,,,,,,,,,,,,,375,loss,,,,,,1281.114883999995,1281.114883999995,1281.114883999995,1281.114883999995,0,,,0,,,0,,,1,0.02884970000013709,0.028853700001491234,1281.114883999995,1281.114883999995,1281.114883999995,1281.114883999995,38,D,2024-05-16_08h15.05.738,attentional_competition_task,2022.2.4,144.01253483247456,
positions.xlsx,positions_test.xlsx,positions_test_new.xlsx,stimuli.xlsx,stimuli_new.xlsx,stimuli/Social4.png,stimuli/Social3.png,stimuli/Nonsocial4.png,stimuli/Nonsocial3.png,stimuli/Social2.png,stimuli/Social1.png,stimuli/Nonsocial2.png,stimuli/Nonsocial1.png,,,"(-0.7, -0.5)",cs_neg_s_new,"(-0.7, 0.5)",cs_pos_ns,"(0.7, -0.5)",cs_pos_s,"(0.7, 0.5)",cs_neg_ns,0,0,0,0,,,,,,,,,,,,,,,,,,,,,,,,,,,,,0,2,2,13,2,0,2,0,,,,,,,,,,,,,,,378,reward,,,,,,1281.649638399991,1281.649638399991,1281.649638399991,1281.649638399991,0,,,1,0.02512370000476949,0.025127700006123632,0,,,0,,,1281.649638399991,1281.649638399991,1281.649638399991,1281.649638399991,38,D,2024-05-16_08h15.05.738,attentional_competition_task,2022.2.4,144.01253483247456,
positions.xlsx,positions_test.xlsx,positions_test_new.xlsx,stimuli.xlsx,stimuli_new.xlsx,stimuli/Social4.png,stimuli/Social3.png,stimuli/Nonsocial4.png,stimuli/Nonsocial3.png,stimuli/Social2.png,stimuli/Social1.png,stimuli/Nonsocial2.png,stimuli/Nonsocial1.png,,,"(-0.7, -0.5)",cs_neg_s_new,"(-0.7, 0.5)",cs_pos_ns,"(0.7, -0.5)",cs_pos_s,"(0.7, 0.5)",cs_neg_ns,0,0,0,0,,,,,,,,,,,,,,,,,,,,,,,,,,,,,0,2,2,13,,,,,,,,,,,,,,,,,,,,,,,,,,,,,,,,,,,,,,,,,,,,,,38,D,2024-05-16_08h15.05.738,attentional_competition_task,2022.2.4,144.01253483247456,
positions.xlsx,positions_test.xlsx,positions_test_new.xlsx,stimuli.xlsx,stimuli_new.xlsx,stimuli/Social4.png,stimuli/Social3.png,stimuli/Nonsocial4.png,stimuli/Nonsocial3.png,stimuli/Social2.png,stimuli/Social1.png,stimuli/Nonsocial2.png,stimuli/Nonsocial1.png,,,"(-0.7, -0.5)",cs_neg_ns,"(-0.7, 0.5)",cs_pos_s_new,"(0.7, -0.5)",cs_pos_ns,"(0.7, 0.5)",cs_neg_s,0,0,0,0,,,,,,,,,,,,,,,,,,,,,,,,,,,,,0,3,3,37,0,0,0,0,,,,,,,,,,,,,,,381,reward,,,,,,1288.4688056000014,1288.4688056000014,1288.4688056000014,1288.4688056000014,0,,,1,1.0296177999989595,1.0296220000018366,0,,,0,,,1289.5035046999983,1289.5035046999983,1289.5035046999983,1289.5035046999983,38,D,2024-05-16_08h15.05.738,attentional_competition_task,2022.2.4,144.01253483247456,
positions.xlsx,positions_test.xlsx,positions_test_new.xlsx,stimuli.xlsx,stimuli_new.xlsx,stimuli/Social4.png,stimuli/Social3.png,stimuli/Nonsocial4.png,stimuli/Nonsocial3.png,stimuli/Social2.png,stimuli/Social1.png,stimuli/Nonsocial2.png,stimuli/Nonsocial1.png,,,"(-0.7, -0.5)",cs_neg_ns,"(-0.7, 0.5)",cs_pos_s_new,"(0.7, -0.5)",cs_pos_ns,"(0.7, 0.5)",cs_neg_s,0,0,0,0,,,,,,,,,,,,,,,,,,,,,,,,,,,,,0,3,3,37,1,0,1,0,,,,,,,,,,,,,,,384,reward,,,,,,1290.0243006999954,1290.0243006999954,1290.0243006999954,1290.0243006999954,0,,,0,,,1,0.022870299988426268,0.022874100002809428,0,,,1290.0243006999954,1290.0243006999954,1290.0243006999954,1290.0243006999954,38,D,2024-05-16_08h15.05.738,attentional_competition_task,2022.2.4,144.01253483247456,
positions.xlsx,positions_test.xlsx,positions_test_new.xlsx,stimuli.xlsx,stimuli_new.xlsx,stimuli/Social4.png,stimuli/Social3.png,stimuli/Nonsocial4.png,stimuli/Nonsocial3.png,stimuli/Social2.png,stimuli/Social1.png,stimuli/Nonsocial2.png,stimuli/Nonsocial1.png,,,"(-0.7, -0.5)",cs_neg_ns,"(-0.7, 0.5)",cs_pos_s_new,"(0.7, -0.5)",cs_pos_ns,"(0.7, 0.5)",cs_neg_s,0,0,0,0,,,,,,,,,,,,,,,,,,,,,,,,,,,,,0,3,3,37,,,,,,,,,,,,,,,,,,,,,,,,,,,,,,,,,,,,,,,,,,,,,,38,D,2024-05-16_08h15.05.738,attentional_competition_task,2022.2.4,144.01253483247456,
positions.xlsx,positions_test.xlsx,positions_test_new.xlsx,stimuli.xlsx,stimuli_new.xlsx,stimuli/Social4.png,stimuli/Social3.png,stimuli/Nonsocial4.png,stimuli/Nonsocial3.png,stimuli/Social2.png,stimuli/Social1.png,stimuli/Nonsocial2.png,stimuli/Nonsocial1.png,,,"(-0.7, -0.5)",cs_neg_s,"(-0.7, 0.5)",cs_pos_s,"(0.7, -0.5)",cs_pos_ns_new,"(0.7, 0.5)",cs_neg_ns,0,0,0,0,,,,,,,,,,,,,,,,,,,,,,,,,,,,,0,4,4,44,0,0,0,0,,,,,,,,,,,,,,,387,reward,,,,,,1297.5031758999976,1297.5031758999976,1297.5031758999976,1297.5031758999976,0,,,1,0.46697979999589734,0.4669833999942057,0,,,0,,,1297.9753488999995,1297.9753488999995,1297.9753488999995,1297.9753488999995,38,D,2024-05-16_08h15.05.738,attentional_competition_task,2022.2.4,144.01253483247456,
positions.xlsx,positions_test.xlsx,positions_test_new.xlsx,stimuli.xlsx,stimuli_new.xlsx,stimuli/Social4.png,stimuli/Social3.png,stimuli/Nonsocial4.png,stimuli/Nonsocial3.png,stimuli/Social2.png,stimuli/Social1.png,stimuli/Nonsocial2.png,stimuli/Nonsocial1.png,,,"(-0.7, -0.5)",cs_neg_s,"(-0.7, 0.5)",cs_pos_s,"(0.7, -0.5)",cs_pos_ns_new,"(0.7, 0.5)",cs_neg_ns,0,0,0,0,,,,,,,,,,,,,,,,,,,,,,,,,,,,,0,4,4,44,1,0,1,0,,,,,,,,,,,,,,,390,reward,,,,,,1298.4822874999954,1298.4822874999954,1298.4822874999954,1298.4822874999954,0,,,1,0.03143209998961538,0.10167709999950603,1,0.15580429999681655,0.15582099999301136,0,,,1298.635050500001,1298.635050500001,1298.635050500001,1298.635050500001,38,D,2024-05-16_08h15.05.738,attentional_competition_task,2022.2.4,144.01253483247456,
positions.xlsx,positions_test.xlsx,positions_test_new.xlsx,stimuli.xlsx,stimuli_new.xlsx,stimuli/Social4.png,stimuli/Social3.png,stimuli/Nonsocial4.png,stimuli/Nonsocial3.png,stimuli/Social2.png,stimuli/Social1.png,stimuli/Nonsocial2.png,stimuli/Nonsocial1.png,,,"(-0.7, -0.5)",cs_neg_s,"(-0.7, 0.5)",cs_pos_s,"(0.7, -0.5)",cs_pos_ns_new,"(0.7, 0.5)",cs_neg_ns,0,0,0,0,,,,,,,,,,,,,,,,,,,,,,,,,,,,,0,4,4,44,2,0,2,0,,,,,,,,,,,,,,,387,loss,,,,,,1299.135018999994,1299.135018999994,1299.135018999994,1299.135018999994,0,,,0,,,1,0.029281299997819588,0.3362398999888683,1,0.3496129999984987,0.34961699999985285,1299.9891860999924,1299.9891860999924,1299.9891860999924,1299.9891860999924,38,D,2024-05-16_08h15.05.738,attentional_competition_task,2022.2.4,144.01253483247456,
positions.xlsx,positions_test.xlsx,positions_test_new.xlsx,stimuli.xlsx,stimuli_new.xlsx,stimuli/Social4.png,stimuli/Social3.png,stimuli/Nonsocial4.png,stimuli/Nonsocial3.png,stimuli/Social2.png,stimuli/Social1.png,stimuli/Nonsocial2.png,stimuli/Nonsocial1.png,,,"(-0.7, -0.5)",cs_neg_s,"(-0.7, 0.5)",cs_pos_s,"(0.7, -0.5)",cs_pos_ns_new,"(0.7, 0.5)",cs_neg_ns,0,0,0,0,,,,,,,,,,,,,,,,,,,,,,,,,,,,,0,4,4,44,,,,,,,,,,,,,,,,,,,,,,,,,,,,,,,,,,,,,,,,,,,,,,38,D,2024-05-16_08h15.05.738,attentional_competition_task,2022.2.4,144.01253483247456,
positions.xlsx,positions_test.xlsx,positions_test_new.xlsx,stimuli.xlsx,stimuli_new.xlsx,stimuli/Social4.png,stimuli/Social3.png,stimuli/Nonsocial4.png,stimuli/Nonsocial3.png,stimuli/Social2.png,stimuli/Social1.png,stimuli/Nonsocial2.png,stimuli/Nonsocial1.png,,,"(-0.7, -0.5)",cs_pos_s,"(-0.7, 0.5)",cs_neg_ns,"(0.7, -0.5)",cs_pos_ns_new,"(0.7, 0.5)",cs_neg_s,0,0,0,0,,,,,,,,,,,,,,,,,,,,,,,,,,,,,0,5,5,41,0,0,0,0,,,,,,,,,,,,,,,390,reward,,,,,,1305.9750504999975,1305.9750504999975,1305.9750504999975,1305.9750504999975,0,,,0,,,1,0.7107926000026055,0.7107962000009138,0,,,1306.690306599994,1306.690306599994,1306.690306599994,1306.690306599994,38,D,2024-05-16_08h15.05.738,attentional_competition_task,2022.2.4,144.01253483247456,
positions.xlsx,positions_test.xlsx,positions_test_new.xlsx,stimuli.xlsx,stimuli_new.xlsx,stimuli/Social4.png,stimuli/Social3.png,stimuli/Nonsocial4.png,stimuli/Nonsocial3.png,stimuli/Social2.png,stimuli/Social1.png,stimuli/Nonsocial2.png,stimuli/Nonsocial1.png,,,"(-0.7, -0.5)",cs_pos_s,"(-0.7, 0.5)",cs_neg_ns,"(0.7, -0.5)",cs_pos_ns_new,"(0.7, 0.5)",cs_neg_s,0,0,0,0,,,,,,,,,,,,,,,,,,,,,,,,,,,,,0,5,5,41,1,0,1,0,,,,,,,,,,,,,,,393,reward,,,,,,1307.2180688999943,1307.2180688999943,1307.2180688999943,1307.2180688999943,1,0.0286640999984229,0.02866820000053849,0,,,0,,,0,,,1307.2180688999943,1307.2180688999943,1307.2180688999943,1307.2180688999943,38,D,2024-05-16_08h15.05.738,attentional_competition_task,2022.2.4,144.01253483247456,
positions.xlsx,positions_test.xlsx,positions_test_new.xlsx,stimuli.xlsx,stimuli_new.xlsx,stimuli/Social4.png,stimuli/Social3.png,stimuli/Nonsocial4.png,stimuli/Nonsocial3.png,stimuli/Social2.png,stimuli/Social1.png,stimuli/Nonsocial2.png,stimuli/Nonsocial1.png,,,"(-0.7, -0.5)",cs_pos_s,"(-0.7, 0.5)",cs_neg_ns,"(0.7, -0.5)",cs_pos_ns_new,"(0.7, 0.5)",cs_neg_s,0,0,0,0,,,,,,,,,,,,,,,,,,,,,,,,,,,,,0,5,5,41,2,0,2,0,,,,,,,,,,,,,,,396,reward,,,,,,1307.7249812999944,1307.7249812999944,1307.7249812999944,1307.7249812999944,1,0.023873400001320988,0.19788259999768343,0,,,0,,,0,,,1308.488850099995,1308.488850099995,1308.488850099995,1308.488850099995,38,D,2024-05-16_08h15.05.738,attentional_competition_task,2022.2.4,144.01253483247456,
positions.xlsx,positions_test.xlsx,positions_test_new.xlsx,stimuli.xlsx,stimuli_new.xlsx,stimuli/Social4.png,stimuli/Social3.png,stimuli/Nonsocial4.png,stimuli/Nonsocial3.png,stimuli/Social2.png,stimuli/Social1.png,stimuli/Nonsocial2.png,stimuli/Nonsocial1.png,,,"(-0.7, -0.5)",cs_pos_s,"(-0.7, 0.5)",cs_neg_ns,"(0.7, -0.5)",cs_pos_ns_new,"(0.7, 0.5)",cs_neg_s,0,0,0,0,,,,,,,,,,,,,,,,,,,,,,,,,,,,,0,5,5,41,,,,,,,,,,,,,,,,,,,,,,,,,,,,,,,,,,,,,,,,,,,,,,38,D,2024-05-16_08h15.05.738,attentional_competition_task,2022.2.4,144.01253483247456,
positions.xlsx,positions_test.xlsx,positions_test_new.xlsx,stimuli.xlsx,stimuli_new.xlsx,stimuli/Social4.png,stimuli/Social3.png,stimuli/Nonsocial4.png,stimuli/Nonsocial3.png,stimuli/Social2.png,stimuli/Social1.png,stimuli/Nonsocial2.png,stimuli/Nonsocial1.png,,,"(-0.7, -0.5)",cs_pos_ns,"(-0.7, 0.5)",cs_neg_ns,"(0.7, -0.5)",cs_neg_s,"(0.7, 0.5)",cs_pos_s,0,0,0,0,,,,,,,,,,,,,,,,,,,,,,,,,,,,,0,6,6,1,0,0,0,0,,,,,,,,,,,,,,,399,reward,,,,,,1314.4330543999968,1314.4330543999968,1314.4330543999968,1314.4330543999968,0,,,0,,,0,,,1,0.5865630000043893,0.5865668000042206,1315.023296799991,1315.023296799991,1315.023296799991,1315.023296799991,38,D,2024-05-16_08h15.05.738,attentional_competition_task,2022.2.4,144.01253483247456,
positions.xlsx,positions_test.xlsx,positions_test_new.xlsx,stimuli.xlsx,stimuli_new.xlsx,stimuli/Social4.png,stimuli/Social3.png,stimuli/Nonsocial4.png,stimuli/Nonsocial3.png,stimuli/Social2.png,stimuli/Social1.png,stimuli/Nonsocial2.png,stimuli/Nonsocial1.png,,,"(-0.7, -0.5)",cs_pos_ns,"(-0.7, 0.5)",cs_neg_ns,"(0.7, -0.5)",cs_neg_s,"(0.7, 0.5)",cs_pos_s,0,0,0,0,,,,,,,,,,,,,,,,,,,,,,,,,,,,,0,6,6,1,1,0,1,0,,,,,,,,,,,,,,,402,reward,,,,,,1315.523278099994,1315.523278099994,1315.523278099994,1315.523278099994,1,0.07135939999716356,0.07136339999851771,0,,,0,,,0,,,1315.5996727999882,1315.5996727999882,1315.5996727999882,1315.5996727999882,38,D,2024-05-16_08h15.05.738,attentional_competition_task,2022.2.4,144.01253483247456,
positions.xlsx,positions_test.xlsx,positions_test_new.xlsx,stimuli.xlsx,stimuli_new.xlsx,stimuli/Social4.png,stimuli/Social3.png,stimuli/Nonsocial4.png,stimuli/Nonsocial3.png,stimuli/Social2.png,stimuli/Social1.png,stimuli/Nonsocial2.png,stimuli/Nonsocial1.png,,,"(-0.7, -0.5)",cs_pos_ns,"(-0.7, 0.5)",cs_neg_ns,"(0.7, -0.5)",cs_neg_s,"(0.7, 0.5)",cs_pos_s,0,0,0,0,,,,,,,,,,,,,,,,,,,,,,,,,,,,,0,6,6,1,2,0,2,0,,,,,,,,,,,,,,,399,loss,,,,,,1316.0926971000008,1316.0926971000008,1316.0926971000008,1316.0926971000008,1,0.022404099989216775,0.05204619999858551,1,0.058693099999800324,0.05869669999810867,0,,,0,,,1316.1552096999949,1316.1552096999949,1316.1552096999949,1316.1552096999949,38,D,2024-05-16_08h15.05.738,attentional_competition_task,2022.2.4,144.01253483247456,
positions.xlsx,positions_test.xlsx,positions_test_new.xlsx,stimuli.xlsx,stimuli_new.xlsx,stimuli/Social4.png,stimuli/Social3.png,stimuli/Nonsocial4.png,stimuli/Nonsocial3.png,stimuli/Social2.png,stimuli/Social1.png,stimuli/Nonsocial2.png,stimuli/Nonsocial1.png,,,"(-0.7, -0.5)",cs_pos_ns,"(-0.7, 0.5)",cs_neg_ns,"(0.7, -0.5)",cs_neg_s,"(0.7, 0.5)",cs_pos_s,0,0,0,0,,,,,,,,,,,,,,,,,,,,,,,,,,,,,0,6,6,1,,,,,,,,,,,,,,,,,,,,,,,,,,,,,,,,,,,,,,,,,,,,,,38,D,2024-05-16_08h15.05.738,attentional_competition_task,2022.2.4,144.01253483247456,
positions.xlsx,positions_test.xlsx,positions_test_new.xlsx,stimuli.xlsx,stimuli_new.xlsx,stimuli/Social4.png,stimuli/Social3.png,stimuli/Nonsocial4.png,stimuli/Nonsocial3.png,stimuli/Social2.png,stimuli/Social1.png,stimuli/Nonsocial2.png,stimuli/Nonsocial1.png,,,"(-0.7, -0.5)",cs_pos_ns,"(-0.7, 0.5)",cs_pos_s,"(0.7, -0.5)",cs_neg_ns,"(0.7, 0.5)",cs_neg_s_new,0,0,0,0,,,,,,,,,,,,,,,,,,,,,,,,,,,,,0,7,7,12,0,0,0,0,,,,,,,,,,,,,,,396,loss,,,,,,1322.3285639999958,1322.3285639999958,1322.3285639999958,1322.3285639999958,0,,,0,,,1,0.6616716999997152,0.6616750000102911,0,,,1322.995178600002,1322.995178600002,1322.995178600002,1322.995178600002,38,D,2024-05-16_08h15.05.738,attentional_competition_task,2022.2.4,144.01253483247456,
positions.xlsx,positions_test.xlsx,positions_test_new.xlsx,stimuli.xlsx,stimuli_new.xlsx,stimuli/Social4.png,stimuli/Social3.png,stimuli/Nonsocial4.png,stimuli/Nonsocial3.png,stimuli/Social2.png,stimuli/Social1.png,stimuli/Nonsocial2.png,stimuli/Nonsocial1.png,,,"(-0.7, -0.5)",cs_pos_ns,"(-0.7, 0.5)",cs_pos_s,"(0.7, -0.5)",cs_neg_ns,"(0.7, 0.5)",cs_neg_s_new,0,0,0,0,,,,,,,,,,,,,,,,,,,,,,,,,,,,,0,7,7,12,1,0,1,0,,,,,,,,,,,,,,,399,reward,,,,,,1323.5160389999946,1323.5160389999946,1323.5160389999946,1323.5160389999946,1,0.02129869999771472,0.021302299996023066,0,,,0,,,0,,,1323.5160389999946,1323.5160389999946,1323.5160389999946,1323.5160389999946,38,D,2024-05-16_08h15.05.738,attentional_competition_task,2022.2.4,144.01253483247456,
positions.xlsx,positions_test.xlsx,positions_test_new.xlsx,stimuli.xlsx,stimuli_new.xlsx,stimuli/Social4.png,stimuli/Social3.png,stimuli/Nonsocial4.png,stimuli/Nonsocial3.png,stimuli/Social2.png,stimuli/Social1.png,stimuli/Nonsocial2.png,stimuli/Nonsocial1.png,,,"(-0.7, -0.5)",cs_pos_ns,"(-0.7, 0.5)",cs_pos_s,"(0.7, -0.5)",cs_neg_ns,"(0.7, 0.5)",cs_neg_s_new,0,0,0,0,,,,,,,,,,,,,,,,,,,,,,,,,,,,,0,7,7,12,2,0,2,0,,,,,,,,,,,,,,,402,reward,,,,,,1324.0159725999983,1324.0159725999983,1324.0159725999983,1324.0159725999983,0,,,1,0.12357619999966118,0.12357959999644663,0,,,0,,,1324.147962499992,1324.147962499992,1324.147962499992,1324.147962499992,38,D,2024-05-16_08h15.05.738,attentional_competition_task,2022.2.4,144.01253483247456,
positions.xlsx,positions_test.xlsx,positions_test_new.xlsx,stimuli.xlsx,stimuli_new.xlsx,stimuli/Social4.png,stimuli/Social3.png,stimuli/Nonsocial4.png,stimuli/Nonsocial3.png,stimuli/Social2.png,stimuli/Social1.png,stimuli/Nonsocial2.png,stimuli/Nonsocial1.png,,,"(-0.7, -0.5)",cs_pos_ns,"(-0.7, 0.5)",cs_pos_s,"(0.7, -0.5)",cs_neg_ns,"(0.7, 0.5)",cs_neg_s_new,0,0,0,0,,,,,,,,,,,,,,,,,,,,,,,,,,,,,0,7,7,12,,,,,,,,,,,,,,,,,,,,,,,,,,,,,,,,,,,,,,,,,,,,,,38,D,2024-05-16_08h15.05.738,attentional_competition_task,2022.2.4,144.01253483247456,
positions.xlsx,positions_test.xlsx,positions_test_new.xlsx,stimuli.xlsx,stimuli_new.xlsx,stimuli/Social4.png,stimuli/Social3.png,stimuli/Nonsocial4.png,stimuli/Nonsocial3.png,stimuli/Social2.png,stimuli/Social1.png,stimuli/Nonsocial2.png,stimuli/Nonsocial1.png,,,"(-0.7, -0.5)",cs_neg_ns,"(-0.7, 0.5)",cs_neg_s,"(0.7, -0.5)",cs_pos_s,"(0.7, 0.5)",cs_pos_ns_new,0,0,0,0,,,,,,,,,,,,,,,,,,,,,,,,,,,,,0,8,8,39,0,0,0,0,,,,,,,,,,,,,,,405,reward,,,,,,1330.9948802,1330.9948802,1330.9948802,1330.9948802,0,,,0,,,1,0.5925513999973191,0.5925549999956274,0,,,1331.5920649999898,1331.5920649999898,1331.5920649999898,1331.5920649999898,38,D,2024-05-16_08h15.05.738,attentional_competition_task,2022.2.4,144.01253483247456,
