posFile,posFileTest,posFileTestNew,stimFile,stimFileNew,cs_neg_s,cs_pos_s,cs_neg_ns,cs_pos_ns,cs_neg_s_new,cs_pos_s_new,cs_neg_ns_new,cs_pos_ns_new,stim,position,position1,stim1,position2,stim2,position3,stim3,position4,stim4,blocks.thisRepN,blocks.thisTrialN,blocks.thisN,blocks.thisIndex,ratingtrials1.thisRepN,ratingtrials1.thisTrialN,ratingtrials1.thisN,ratingtrials1.thisIndex,search_task_trials.thisRepN,search_task_trials.thisTrialN,search_task_trials.thisN,search_task_trials.thisIndex,learning_trials.thisRepN,learning_trials.thisTrialN,learning_trials.thisN,learning_trials.thisIndex,trials.thisRepN,trials.thisTrialN,trials.thisN,trials.thisIndex,ratingtrials2.thisRepN,ratingtrials2.thisTrialN,ratingtrials2.thisN,ratingtrials2.thisIndex,testtrials.thisRepN,testtrials.thisTrialN,testtrials.thisN,testtrials.thisIndex,loop_test.thisRepN,loop_test.thisTrialN,loop_test.thisN,loop_test.thisIndex,testtrials_novelty.thisRepN,testtrials_novelty.thisTrialN,testtrials_novelty.thisN,testtrials_novelty.thisIndex,loop_test_novelty.thisRepN,loop_test_novelty.thisTrialN,loop_test_novelty.thisN,loop_test_novelty.thisIndex,ratingtrials3.thisRepN,ratingtrials3.thisTrialN,ratingtrials3.thisN,ratingtrials3.thisIndex,textStart.started,textStartExp.started,imageRating.started,sliderStim.response,sliderStim.rt,textStartSearch.started,target_positions,distractor_positions,textStartTask.started,image.started,score,outcome,roi.numLooks,roi.timesOn,roi.timesOff,imageFeedback.started,textTestInstr.started,test_image1.started,test_image2.started,test_image3.started,test_image4.started,test_roi1.numLooks,test_roi1.timesOn,test_roi1.timesOff,test_roi2.numLooks,test_roi2.timesOn,test_roi2.timesOff,test_roi3.numLooks,test_roi3.timesOn,test_roi3.timesOff,test_roi4.numLooks,test_roi4.timesOn,test_roi4.timesOff,test_image_feedback1.started,test_image_feedback2.started,test_iamge_feedback3.started,test_iamge_feedback4.started,participant,group,date,expName,psychopyVersion,frameRate,
positions.xlsx,positions_test.xlsx,positions_test_new.xlsx,stimuli.xlsx,stimuli_new.xlsx,stimuli/Social2.png,stimuli/Social1.png,stimuli/Nonsocial2.png,stimuli/Nonsocial1.png,stimuli/Social4.png,stimuli/Social3.png,stimuli/Nonsocial4.png,stimuli/Nonsocial3.png,cs_neg_s,,,,,,,,,,0,0,0,0,0,0,0,0,,,,,,,,,,,,,,,,,,,,,,,,,,,,,,,,,,,,,14.125379499979317,173.36057750042528,183.49226280022413,6.0,19.111264400184155,,,,,,,,,,,,,,,,,,,,,,,,,,,,,,,,,6,B,2024-04-17_11h18.28.935,attentional_competition_task,2022.2.4,143.90042033850622,
positions.xlsx,positions_test.xlsx,positions_test_new.xlsx,stimuli.xlsx,stimuli_new.xlsx,stimuli/Social2.png,stimuli/Social1.png,stimuli/Nonsocial2.png,stimuli/Nonsocial1.png,stimuli/Social4.png,stimuli/Social3.png,stimuli/Nonsocial4.png,stimuli/Nonsocial3.png,cs_neg_ns,,,,,,,,,,0,0,0,0,0,1,1,1,,,,,,,,,,,,,,,,,,,,,,,,,,,,,,,,,,,,,,,203.7692209002562,8.0,2.9845448997803032,,,,,,,,,,,,,,,,,,,,,,,,,,,,,,,,,6,B,2024-04-17_11h18.28.935,attentional_competition_task,2022.2.4,143.90042033850622,
positions.xlsx,positions_test.xlsx,positions_test_new.xlsx,stimuli.xlsx,stimuli_new.xlsx,stimuli/Social2.png,stimuli/Social1.png,stimuli/Nonsocial2.png,stimuli/Nonsocial1.png,stimuli/Social4.png,stimuli/Social3.png,stimuli/Nonsocial4.png,stimuli/Nonsocial3.png,cs_pos_s,,,,,,,,,,0,0,0,0,0,2,2,2,,,,,,,,,,,,,,,,,,,,,,,,,,,,,,,,,,,,,,,208.00515760015696,5.0,4.1760802003555,,,,,,,,,,,,,,,,,,,,,,,,,,,,,,,,,6,B,2024-04-17_11h18.28.935,attentional_competition_task,2022.2.4,143.90042033850622,
positions.xlsx,positions_test.xlsx,positions_test_new.xlsx,stimuli.xlsx,stimuli_new.xlsx,stimuli/Social2.png,stimuli/Social1.png,stimuli/Nonsocial2.png,stimuli/Nonsocial1.png,stimuli/Social4.png,stimuli/Social3.png,stimuli/Nonsocial4.png,stimuli/Nonsocial3.png,cs_pos_ns,,,,,,,,,,0,0,0,0,0,3,3,3,,,,,,,,,,,,,,,,,,,,,,,,,,,,,,,,,,,,,,,212.65079270023853,8.0,1.7379775000736117,,,,,,,,,,,,,,,,,,,,,,,,,,,,,,,,,6,B,2024-04-17_11h18.28.935,attentional_competition_task,2022.2.4,143.90042033850622,
positions.xlsx,positions_test.xlsx,positions_test_new.xlsx,stimuli.xlsx,stimuli_new.xlsx,stimuli/Social2.png,stimuli/Social1.png,stimuli/Nonsocial2.png,stimuli/Nonsocial1.png,stimuli/Social4.png,stimuli/Social3.png,stimuli/Nonsocial4.png,stimuli/Nonsocial3.png,,,,,,,,,,,0,0,0,0,,,,,0,0,0,0,,,,,,,,,,,,,,,,,,,,,,,,,,,,,,,,,,,,,,214.58824800001457,"[[-0.675, -0.30000000000000004], [-0.9, -0.30000000000000004], [-0.45, -0.8], [0.22499999999999998, -0.8], [0.6749999999999999, 0.7], [-0.22499999999999998, 0.19999999999999996], [0.22499999999999998, 0.19999999999999996], [-0.675, 0.7], [0.0, -0.8], [0.22499999999999998, -0.30000000000000004], [0.9, -0.8], [0.45000000000000007, -0.30000000000000004], [0.45000000000000007, 0.7], [0.45000000000000007, -0.8], [0.45000000000000007, 0.19999999999999996]]","[[-0.9, -0.8], [0.22499999999999998, 0.7], [-0.22499999999999998, 0.7], [0.6749999999999999, -0.30000000000000004], [0.9, 0.7], [-0.45, 0.19999999999999996], [-0.675, -0.8], [-0.22499999999999998, -0.30000000000000004], [-0.9, 0.7], [0.0, -0.30000000000000004], [-0.675, 0.19999999999999996], [0.9, -0.30000000000000004], [0.0, 0.19999999999999996], [-0.45, -0.30000000000000004], [-0.9, 0.19999999999999996]]",,,,,,,,,,,,,,,,,,,,,,,,,,,,,,6,B,2024-04-17_11h18.28.935,attentional_competition_task,2022.2.4,143.90042033850622,
positions.xlsx,positions_test.xlsx,positions_test_new.xlsx,stimuli.xlsx,stimuli_new.xlsx,stimuli/Social2.png,stimuli/Social1.png,stimuli/Nonsocial2.png,stimuli/Nonsocial1.png,stimuli/Social4.png,stimuli/Social3.png,stimuli/Nonsocial4.png,stimuli/Nonsocial3.png,,,,,,,,,,,0,0,0,0,,,,,1,0,1,0,,,,,,,,,,,,,,,,,,,,,,,,,,,,,,,,,,,,,,,"[[-0.22499999999999998, -0.8], [-0.22499999999999998, 0.7], [-0.22499999999999998, -0.30000000000000004], [-0.9, -0.30000000000000004], [-0.675, 0.19999999999999996], [0.6749999999999999, -0.8], [-0.22499999999999998, 0.19999999999999996], [0.22499999999999998, -0.30000000000000004], [0.9, -0.8], [0.6749999999999999, 0.19999999999999996], [-0.9, 0.7], [-0.45, 0.7], [0.0, 0.7], [-0.675, -0.30000000000000004], [0.9, 0.19999999999999996]]","[[0.22499999999999998, 0.7], [-0.675, 0.7], [-0.9, -0.8], [-0.45, 0.19999999999999996], [0.9, 0.7], [0.45000000000000007, -0.8], [-0.9, 0.19999999999999996], [0.0, -0.8], [-0.45, -0.30000000000000004], [-0.45, -0.8], [0.6749999999999999, 0.7], [-0.675, -0.8], [0.0, 0.19999999999999996], [0.6749999999999999, -0.30000000000000004], [0.45000000000000007, 0.19999999999999996]]",,,,,,,,,,,,,,,,,,,,,,,,,,,,,,6,B,2024-04-17_11h18.28.935,attentional_competition_task,2022.2.4,143.90042033850622,
positions.xlsx,positions_test.xlsx,positions_test_new.xlsx,stimuli.xlsx,stimuli_new.xlsx,stimuli/Social2.png,stimuli/Social1.png,stimuli/Nonsocial2.png,stimuli/Nonsocial1.png,stimuli/Social4.png,stimuli/Social3.png,stimuli/Nonsocial4.png,stimuli/Nonsocial3.png,cs_pos_s,"(0.7, 0.5)",,,,,,,,,0,0,0,0,,,,,,,,,0,0,0,6,,,,,,,,,,,,,,,,,,,,,,,,,,,,,,,,,,,,,291.61986440001056,306.2234077001922,3,reward,1,0.5002973000518978,0.5003009997308254,306.73036879999563,,,,,,,,,,,,,,,,,,,,,,6,B,2024-04-17_11h18.28.935,attentional_competition_task,2022.2.4,143.90042033850622,
positions.xlsx,positions_test.xlsx,positions_test_new.xlsx,stimuli.xlsx,stimuli_new.xlsx,stimuli/Social2.png,stimuli/Social1.png,stimuli/Nonsocial2.png,stimuli/Nonsocial1.png,stimuli/Social4.png,stimuli/Social3.png,stimuli/Nonsocial4.png,stimuli/Nonsocial3.png,cs_neg_s,"(-0.7, -0.5)",,,,,,,,,0,0,0,0,,,,,,,,,0,1,1,1,,,,,,,,,,,,,,,,,,,,,,,,,,,,,,,,,,,,,,314.23006430035457,0,loss,1,0.1876560002565384,0.18765969993546605,314.424440999981,,,,,,,,,,,,,,,,,,,,,,6,B,2024-04-17_11h18.28.935,attentional_competition_task,2022.2.4,143.90042033850622,
positions.xlsx,positions_test.xlsx,positions_test_new.xlsx,stimuli.xlsx,stimuli_new.xlsx,stimuli/Social2.png,stimuli/Social1.png,stimuli/Nonsocial2.png,stimuli/Nonsocial1.png,stimuli/Social4.png,stimuli/Social3.png,stimuli/Nonsocial4.png,stimuli/Nonsocial3.png,cs_pos_s,"(-0.7, -0.5)",,,,,,,,,0,0,0,0,,,,,,,,,0,2,2,5,,,,,,,,,,,,,,,,,,,,,,,,,,,,,,,,,,,,,,321.68805570015684,3,reward,1,0.35421530017629266,0.35421890020370483,322.0491542001255,,,,,,,,,,,,,,,,,,,,,,6,B,2024-04-17_11h18.28.935,attentional_competition_task,2022.2.4,143.90042033850622,
positions.xlsx,positions_test.xlsx,positions_test_new.xlsx,stimuli.xlsx,stimuli_new.xlsx,stimuli/Social2.png,stimuli/Social1.png,stimuli/Nonsocial2.png,stimuli/Nonsocial1.png,stimuli/Social4.png,stimuli/Social3.png,stimuli/Nonsocial4.png,stimuli/Nonsocial3.png,cs_pos_ns,"(0.7, 0.5)",,,,,,,,,0,0,0,0,,,,,,,,,0,3,3,14,,,,,,,,,,,,,,,,,,,,,,,,,,,,,,,,,,,,,,329.9585472000763,6,reward,1,0.4239591001532972,0.42396270018070936,330.389109400101,,,,,,,,,,,,,,,,,,,,,,6,B,2024-04-17_11h18.28.935,attentional_competition_task,2022.2.4,143.90042033850622,
positions.xlsx,positions_test.xlsx,positions_test_new.xlsx,stimuli.xlsx,stimuli_new.xlsx,stimuli/Social2.png,stimuli/Social1.png,stimuli/Nonsocial2.png,stimuli/Nonsocial1.png,stimuli/Social4.png,stimuli/Social3.png,stimuli/Nonsocial4.png,stimuli/Nonsocial3.png,cs_pos_s,"(-0.7, 0.5)",,,,,,,,,0,0,0,0,,,,,,,,,0,4,4,4,,,,,,,,,,,,,,,,,,,,,,,,,,,,,,,,,,,,,,338.44435180025175,9,reward,1,0.6876475000753999,0.687651100102812,339.138782300055,,,,,,,,,,,,,,,,,,,,,,6,B,2024-04-17_11h18.28.935,attentional_competition_task,2022.2.4,143.90042033850622,
positions.xlsx,positions_test.xlsx,positions_test_new.xlsx,stimuli.xlsx,stimuli_new.xlsx,stimuli/Social2.png,stimuli/Social1.png,stimuli/Nonsocial2.png,stimuli/Nonsocial1.png,stimuli/Social4.png,stimuli/Social3.png,stimuli/Nonsocial4.png,stimuli/Nonsocial3.png,cs_neg_ns,"(0.7, 0.5)",,,,,,,,,0,0,0,0,,,,,,,,,0,5,5,10,,,,,,,,,,,,,,,,,,,,,,,,,,,,,,,,,,,,,,346.4995559002273,6,loss,1,0.32676649978384376,0.32677009981125593,346.83296980010346,,,,,,,,,,,,,,,,,,,,,,6,B,2024-04-17_11h18.28.935,attentional_competition_task,2022.2.4,143.90042033850622,
positions.xlsx,positions_test.xlsx,positions_test_new.xlsx,stimuli.xlsx,stimuli_new.xlsx,stimuli/Social2.png,stimuli/Social1.png,stimuli/Nonsocial2.png,stimuli/Nonsocial1.png,stimuli/Social4.png,stimuli/Social3.png,stimuli/Nonsocial4.png,stimuli/Nonsocial3.png,cs_neg_ns,"(-0.7, -0.5)",,,,,,,,,0,0,0,0,,,,,,,,,0,6,6,9,,,,,,,,,,,,,,,,,,,,,,,,,,,,,,,,,,,,,,353.8117443001829,3,loss,1,0.19498899998143315,0.19499240024015307,354.0131638003513,,,,,,,,,,,,,,,,,,,,,,6,B,2024-04-17_11h18.28.935,attentional_competition_task,2022.2.4,143.90042033850622,
positions.xlsx,positions_test.xlsx,positions_test_new.xlsx,stimuli.xlsx,stimuli_new.xlsx,stimuli/Social2.png,stimuli/Social1.png,stimuli/Nonsocial2.png,stimuli/Nonsocial1.png,stimuli/Social4.png,stimuli/Social3.png,stimuli/Nonsocial4.png,stimuli/Nonsocial3.png,cs_neg_s,"(-0.7, 0.5)",,,,,,,,,0,0,0,0,,,,,,,,,0,7,7,0,,,,,,,,,,,,,,,,,,,,,,,,,,,,,,,,,,,,,,361.76978470012546,0,loss,1,0.7851952998898923,0.7920169997960329,362.56835690001026,,,,,,,,,,,,,,,,,,,,,,6,B,2024-04-17_11h18.28.935,attentional_competition_task,2022.2.4,143.90042033850622,
positions.xlsx,positions_test.xlsx,positions_test_new.xlsx,stimuli.xlsx,stimuli_new.xlsx,stimuli/Social2.png,stimuli/Social1.png,stimuli/Nonsocial2.png,stimuli/Nonsocial1.png,stimuli/Social4.png,stimuli/Social3.png,stimuli/Nonsocial4.png,stimuli/Nonsocial3.png,cs_pos_ns,"(-0.7, -0.5)",,,,,,,,,0,0,0,0,,,,,,,,,0,8,8,13,,,,,,,,,,,,,,,,,,,,,,,,,,,,,,,,,,,,,,370.4221817003563,3,reward,1,0.4448000998236239,0.4448036001995206,370.87354400008917,,,,,,,,,,,,,,,,,,,,,,6,B,2024-04-17_11h18.28.935,attentional_competition_task,2022.2.4,143.90042033850622,
positions.xlsx,positions_test.xlsx,positions_test_new.xlsx,stimuli.xlsx,stimuli_new.xlsx,stimuli/Social2.png,stimuli/Social1.png,stimuli/Nonsocial2.png,stimuli/Nonsocial1.png,stimuli/Social4.png,stimuli/Social3.png,stimuli/Nonsocial4.png,stimuli/Nonsocial3.png,cs_neg_ns,"(0.7, -0.5)",,,,,,,,,0,0,0,0,,,,,,,,,0,9,9,11,,,,,,,,,,,,,,,,,,,,,,,,,,,,,,,,,,,,,,378.33867060020566,3,none,0,,,381.352332000155,,,,,,,,,,,,,,,,,,,,,,6,B,2024-04-17_11h18.28.935,attentional_competition_task,2022.2.4,143.90042033850622,
positions.xlsx,positions_test.xlsx,positions_test_new.xlsx,stimuli.xlsx,stimuli_new.xlsx,stimuli/Social2.png,stimuli/Social1.png,stimuli/Nonsocial2.png,stimuli/Nonsocial1.png,stimuli/Social4.png,stimuli/Social3.png,stimuli/Nonsocial4.png,stimuli/Nonsocial3.png,cs_pos_ns,"(0.7, -0.5)",,,,,,,,,0,0,0,0,,,,,,,,,0,10,10,15,,,,,,,,,,,,,,,,,,,,,,,,,,,,,,,,,,,,,,388.463126800023,6,reward,1,0.5555293001234531,0.5555330002680421,389.0256007001735,,,,,,,,,,,,,,,,,,,,,,6,B,2024-04-17_11h18.28.935,attentional_competition_task,2022.2.4,143.90042033850622,
positions.xlsx,positions_test.xlsx,positions_test_new.xlsx,stimuli.xlsx,stimuli_new.xlsx,stimuli/Social2.png,stimuli/Social1.png,stimuli/Nonsocial2.png,stimuli/Nonsocial1.png,stimuli/Social4.png,stimuli/Social3.png,stimuli/Nonsocial4.png,stimuli/Nonsocial3.png,cs_pos_ns,"(-0.7, 0.5)",,,,,,,,,0,0,0,0,,,,,,,,,0,11,11,12,,,,,,,,,,,,,,,,,,,,,,,,,,,,,,,,,,,,,,397.2197536001913,9,reward,1,1.0559407002292573,1.0559442001394928,398.282170700375,,,,,,,,,,,,,,,,,,,,,,6,B,2024-04-17_11h18.28.935,attentional_competition_task,2022.2.4,143.90042033850622,
positions.xlsx,positions_test.xlsx,positions_test_new.xlsx,stimuli.xlsx,stimuli_new.xlsx,stimuli/Social2.png,stimuli/Social1.png,stimuli/Nonsocial2.png,stimuli/Nonsocial1.png,stimuli/Social4.png,stimuli/Social3.png,stimuli/Nonsocial4.png,stimuli/Nonsocial3.png,cs_neg_ns,"(-0.7, 0.5)",,,,,,,,,0,0,0,0,,,,,,,,,0,12,12,8,,,,,,,,,,,,,,,,,,,,,,,,,,,,,,,,,,,,,,405.309740900062,6,loss,1,0.22304779989644885,0.22305169980973005,405.53884610021487,,,,,,,,,,,,,,,,,,,,,,6,B,2024-04-17_11h18.28.935,attentional_competition_task,2022.2.4,143.90042033850622,
positions.xlsx,positions_test.xlsx,positions_test_new.xlsx,stimuli.xlsx,stimuli_new.xlsx,stimuli/Social2.png,stimuli/Social1.png,stimuli/Nonsocial2.png,stimuli/Nonsocial1.png,stimuli/Social4.png,stimuli/Social3.png,stimuli/Nonsocial4.png,stimuli/Nonsocial3.png,cs_pos_s,"(0.7, -0.5)",,,,,,,,,0,0,0,0,,,,,,,,,0,13,13,7,,,,,,,,,,,,,,,,,,,,,,,,,,,,,,,,,,,,,,413.08019370026886,9,reward,1,0.6389641999267042,0.6389677999541163,413.7260283003561,,,,,,,,,,,,,,,,,,,,,,6,B,2024-04-17_11h18.28.935,attentional_competition_task,2022.2.4,143.90042033850622,
positions.xlsx,positions_test.xlsx,positions_test_new.xlsx,stimuli.xlsx,stimuli_new.xlsx,stimuli/Social2.png,stimuli/Social1.png,stimuli/Nonsocial2.png,stimuli/Nonsocial1.png,stimuli/Social4.png,stimuli/Social3.png,stimuli/Nonsocial4.png,stimuli/Nonsocial3.png,cs_neg_s,"(0.7, -0.5)",,,,,,,,,0,0,0,0,,,,,,,,,0,14,14,3,,,,,,,,,,,,,,,,,,,,,,,,,,,,,,,,,,,,,,420.7326852004044,9,none,0,,,423.7464141002856,,,,,,,,,,,,,,,,,,,,,,6,B,2024-04-17_11h18.28.935,attentional_competition_task,2022.2.4,143.90042033850622,
positions.xlsx,positions_test.xlsx,positions_test_new.xlsx,stimuli.xlsx,stimuli_new.xlsx,stimuli/Social2.png,stimuli/Social1.png,stimuli/Nonsocial2.png,stimuli/Nonsocial1.png,stimuli/Social4.png,stimuli/Social3.png,stimuli/Nonsocial4.png,stimuli/Nonsocial3.png,cs_neg_s,"(0.7, 0.5)",,,,,,,,,0,0,0,0,,,,,,,,,0,15,15,2,,,,,,,,,,,,,,,,,,,,,,,,,,,,,,,,,,,,,,431.7670410000719,6,loss,1,0.6609132997691631,0.6609191000461578,432.4405539003201,,,,,,,,,,,,,,,,,,,,,,6,B,2024-04-17_11h18.28.935,attentional_competition_task,2022.2.4,143.90042033850622,
positions.xlsx,positions_test.xlsx,positions_test_new.xlsx,stimuli.xlsx,stimuli_new.xlsx,stimuli/Social2.png,stimuli/Social1.png,stimuli/Nonsocial2.png,stimuli/Nonsocial1.png,stimuli/Social4.png,stimuli/Social3.png,stimuli/Nonsocial4.png,stimuli/Nonsocial3.png,cs_neg_ns,"(0.7, 0.5)",,,,,,,,,0,0,0,0,,,,,,,,,1,0,16,10,,,,,,,,,,,,,,,,,,,,,,,,,,,,,,,,,,,,,,439.51665360014886,6,none,0,,,442.5304211000912,,,,,,,,,,,,,,,,,,,,,,6,B,2024-04-17_11h18.28.935,attentional_competition_task,2022.2.4,143.90042033850622,
positions.xlsx,positions_test.xlsx,positions_test_new.xlsx,stimuli.xlsx,stimuli_new.xlsx,stimuli/Social2.png,stimuli/Social1.png,stimuli/Nonsocial2.png,stimuli/Nonsocial1.png,stimuli/Social4.png,stimuli/Social3.png,stimuli/Nonsocial4.png,stimuli/Nonsocial3.png,cs_pos_ns,"(0.7, 0.5)",,,,,,,,,0,0,0,0,,,,,,,,,1,1,17,14,,,,,,,,,,,,,,,,,,,,,,,,,,,,,,,,,,,,,,449.620480700396,9,reward,1,0.7085604001767933,0.7085641003213823,450.33563670003787,,,,,,,,,,,,,,,,,,,,,,6,B,2024-04-17_11h18.28.935,attentional_competition_task,2022.2.4,143.90042033850622,
positions.xlsx,positions_test.xlsx,positions_test_new.xlsx,stimuli.xlsx,stimuli_new.xlsx,stimuli/Social2.png,stimuli/Social1.png,stimuli/Nonsocial2.png,stimuli/Nonsocial1.png,stimuli/Social4.png,stimuli/Social3.png,stimuli/Nonsocial4.png,stimuli/Nonsocial3.png,cs_neg_s,"(-0.7, -0.5)",,,,,,,,,0,0,0,0,,,,,,,,,1,2,18,1,,,,,,,,,,,,,,,,,,,,,,,,,,,,,,,,,,,,,,458.3492441000417,6,loss,1,0.2433008998632431,0.24330489989370108,458.59929240029305,,,,,,,,,,,,,,,,,,,,,,6,B,2024-04-17_11h18.28.935,attentional_competition_task,2022.2.4,143.90042033850622,
positions.xlsx,positions_test.xlsx,positions_test_new.xlsx,stimuli.xlsx,stimuli_new.xlsx,stimuli/Social2.png,stimuli/Social1.png,stimuli/Nonsocial2.png,stimuli/Nonsocial1.png,stimuli/Social4.png,stimuli/Social3.png,stimuli/Nonsocial4.png,stimuli/Nonsocial3.png,cs_neg_ns,"(-0.7, 0.5)",,,,,,,,,0,0,0,0,,,,,,,,,1,3,19,8,,,,,,,,,,,,,,,,,,,,,,,,,,,,,,,,,,,,,,466.89057729998603,6,none,0,,,469.90436540031806,,,,,,,,,,,,,,,,,,,,,,6,B,2024-04-17_11h18.28.935,attentional_competition_task,2022.2.4,143.90042033850622,
positions.xlsx,positions_test.xlsx,positions_test_new.xlsx,stimuli.xlsx,stimuli_new.xlsx,stimuli/Social2.png,stimuli/Social1.png,stimuli/Nonsocial2.png,stimuli/Nonsocial1.png,stimuli/Social4.png,stimuli/Social3.png,stimuli/Nonsocial4.png,stimuli/Nonsocial3.png,cs_pos_s,"(-0.7, 0.5)",,,,,,,,,0,0,0,0,,,,,,,,,1,4,20,4,,,,,,,,,,,,,,,,,,,,,,,,,,,,,,,,,,,,,,477.04294560011476,9,reward,1,1.2852574000135064,1.2852608999237418,478.33462750026956,,,,,,,,,,,,,,,,,,,,,,6,B,2024-04-17_11h18.28.935,attentional_competition_task,2022.2.4,143.90042033850622,
positions.xlsx,positions_test.xlsx,positions_test_new.xlsx,stimuli.xlsx,stimuli_new.xlsx,stimuli/Social2.png,stimuli/Social1.png,stimuli/Nonsocial2.png,stimuli/Nonsocial1.png,stimuli/Social4.png,stimuli/Social3.png,stimuli/Nonsocial4.png,stimuli/Nonsocial3.png,cs_neg_s,"(-0.7, 0.5)",,,,,,,,,0,0,0,0,,,,,,,,,1,5,21,0,,,,,,,,,,,,,,,,,,,,,,,,,,,,,,,,,,,,,,485.1745507000014,6,loss,1,1.0287648998200893,1.0287688001990318,486.209292200394,,,,,,,,,,,,,,,,,,,,,,6,B,2024-04-17_11h18.28.935,attentional_competition_task,2022.2.4,143.90042033850622,
positions.xlsx,positions_test.xlsx,positions_test_new.xlsx,stimuli.xlsx,stimuli_new.xlsx,stimuli/Social2.png,stimuli/Social1.png,stimuli/Nonsocial2.png,stimuli/Nonsocial1.png,stimuli/Social4.png,stimuli/Social3.png,stimuli/Nonsocial4.png,stimuli/Nonsocial3.png,cs_pos_ns,"(-0.7, 0.5)",,,,,,,,,0,0,0,0,,,,,,,,,1,6,22,12,,,,,,,,,,,,,,,,,,,,,,,,,,,,,,,,,,,,,,493.21595520013943,9,reward,1,0.4863369003869593,0.48634070018306375,493.7089452003129,,,,,,,,,,,,,,,,,,,,,,6,B,2024-04-17_11h18.28.935,attentional_competition_task,2022.2.4,143.90042033850622,
positions.xlsx,positions_test.xlsx,positions_test_new.xlsx,stimuli.xlsx,stimuli_new.xlsx,stimuli/Social2.png,stimuli/Social1.png,stimuli/Nonsocial2.png,stimuli/Nonsocial1.png,stimuli/Social4.png,stimuli/Social3.png,stimuli/Nonsocial4.png,stimuli/Nonsocial3.png,cs_pos_ns,"(-0.7, -0.5)",,,,,,,,,0,0,0,0,,,,,,,,,1,7,23,13,,,,,,,,,,,,,,,,,,,,,,,,,,,,,,,,,,,,,,501.521156700328,12,reward,1,1.6390180997550488,1.6390220001339912,503.1668962002732,,,,,,,,,,,,,,,,,,,,,,6,B,2024-04-17_11h18.28.935,attentional_competition_task,2022.2.4,143.90042033850622,
positions.xlsx,positions_test.xlsx,positions_test_new.xlsx,stimuli.xlsx,stimuli_new.xlsx,stimuli/Social2.png,stimuli/Social1.png,stimuli/Nonsocial2.png,stimuli/Nonsocial1.png,stimuli/Social4.png,stimuli/Social3.png,stimuli/Nonsocial4.png,stimuli/Nonsocial3.png,cs_neg_s,"(0.7, 0.5)",,,,,,,,,0,0,0,0,,,,,,,,,1,8,24,2,,,,,,,,,,,,,,,,,,,,,,,,,,,,,,,,,,,,,,510.2568870000541,9,loss,1,0.5486846999265254,0.5486885001882911,510.812392400112,,,,,,,,,,,,,,,,,,,,,,6,B,2024-04-17_11h18.28.935,attentional_competition_task,2022.2.4,143.90042033850622,
positions.xlsx,positions_test.xlsx,positions_test_new.xlsx,stimuli.xlsx,stimuli_new.xlsx,stimuli/Social2.png,stimuli/Social1.png,stimuli/Nonsocial2.png,stimuli/Nonsocial1.png,stimuli/Social4.png,stimuli/Social3.png,stimuli/Nonsocial4.png,stimuli/Nonsocial3.png,cs_pos_s,"(0.7, 0.5)",,,,,,,,,0,0,0,0,,,,,,,,,1,9,25,6,,,,,,,,,,,,,,,,,,,,,,,,,,,,,,,,,,,,,,517.9371142000891,12,reward,1,0.701571200042963,0.7015750003047287,518.6454585003667,,,,,,,,,,,,,,,,,,,,,,6,B,2024-04-17_11h18.28.935,attentional_competition_task,2022.2.4,143.90042033850622,
positions.xlsx,positions_test.xlsx,positions_test_new.xlsx,stimuli.xlsx,stimuli_new.xlsx,stimuli/Social2.png,stimuli/Social1.png,stimuli/Nonsocial2.png,stimuli/Nonsocial1.png,stimuli/Social4.png,stimuli/Social3.png,stimuli/Nonsocial4.png,stimuli/Nonsocial3.png,cs_pos_s,"(-0.7, -0.5)",,,,,,,,,0,0,0,0,,,,,,,,,1,10,26,5,,,,,,,,,,,,,,,,,,,,,,,,,,,,,,,,,,,,,,525.9298304002732,15,reward,1,1.201463199686259,1.2014666995964944,527.1381601002067,,,,,,,,,,,,,,,,,,,,,,6,B,2024-04-17_11h18.28.935,attentional_competition_task,2022.2.4,143.90042033850622,
positions.xlsx,positions_test.xlsx,positions_test_new.xlsx,stimuli.xlsx,stimuli_new.xlsx,stimuli/Social2.png,stimuli/Social1.png,stimuli/Nonsocial2.png,stimuli/Nonsocial1.png,stimuli/Social4.png,stimuli/Social3.png,stimuli/Nonsocial4.png,stimuli/Nonsocial3.png,cs_pos_ns,"(0.7, -0.5)",,,,,,,,,0,0,0,0,,,,,,,,,1,11,27,15,,,,,,,,,,,,,,,,,,,,,,,,,,,,,,,,,,,,,,535.3739209002815,18,reward,1,0.7710009999573231,0.771004400216043,536.1517196004279,,,,,,,,,,,,,,,,,,,,,,6,B,2024-04-17_11h18.28.935,attentional_competition_task,2022.2.4,143.90042033850622,
positions.xlsx,positions_test.xlsx,positions_test_new.xlsx,stimuli.xlsx,stimuli_new.xlsx,stimuli/Social2.png,stimuli/Social1.png,stimuli/Nonsocial2.png,stimuli/Nonsocial1.png,stimuli/Social4.png,stimuli/Social3.png,stimuli/Nonsocial4.png,stimuli/Nonsocial3.png,cs_neg_s,"(0.7, -0.5)",,,,,,,,,0,0,0,0,,,,,,,,,1,12,28,3,,,,,,,,,,,,,,,,,,,,,,,,,,,,,,,,,,,,,,543.6999968001619,18,none,0,,,546.7068197000772,,,,,,,,,,,,,,,,,,,,,,6,B,2024-04-17_11h18.28.935,attentional_competition_task,2022.2.4,143.90042033850622,
positions.xlsx,positions_test.xlsx,positions_test_new.xlsx,stimuli.xlsx,stimuli_new.xlsx,stimuli/Social2.png,stimuli/Social1.png,stimuli/Nonsocial2.png,stimuli/Nonsocial1.png,stimuli/Social4.png,stimuli/Social3.png,stimuli/Nonsocial4.png,stimuli/Nonsocial3.png,cs_neg_ns,"(-0.7, -0.5)",,,,,,,,,0,0,0,0,,,,,,,,,1,13,29,9,,,,,,,,,,,,,,,,,,,,,,,,,,,,,,,,,,,,,,554.5537662003189,15,loss,1,0.9653479000553489,0.9653512998484075,555.5258731003851,,,,,,,,,,,,,,,,,,,,,,6,B,2024-04-17_11h18.28.935,attentional_competition_task,2022.2.4,143.90042033850622,
positions.xlsx,positions_test.xlsx,positions_test_new.xlsx,stimuli.xlsx,stimuli_new.xlsx,stimuli/Social2.png,stimuli/Social1.png,stimuli/Nonsocial2.png,stimuli/Nonsocial1.png,stimuli/Social4.png,stimuli/Social3.png,stimuli/Nonsocial4.png,stimuli/Nonsocial3.png,cs_pos_s,"(0.7, -0.5)",,,,,,,,,0,0,0,0,,,,,,,,,1,14,30,7,,,,,,,,,,,,,,,,,,,,,,,,,,,,,,,,,,,,,,562.4700555000454,18,reward,1,1.1118226000107825,1.1118264002725482,563.5880507002585,,,,,,,,,,,,,,,,,,,,,,6,B,2024-04-17_11h18.28.935,attentional_competition_task,2022.2.4,143.90042033850622,
positions.xlsx,positions_test.xlsx,positions_test_new.xlsx,stimuli.xlsx,stimuli_new.xlsx,stimuli/Social2.png,stimuli/Social1.png,stimuli/Nonsocial2.png,stimuli/Nonsocial1.png,stimuli/Social4.png,stimuli/Social3.png,stimuli/Nonsocial4.png,stimuli/Nonsocial3.png,cs_neg_ns,"(0.7, -0.5)",,,,,,,,,0,0,0,0,,,,,,,,,1,15,31,11,,,,,,,,,,,,,,,,,,,,,,,,,,,,,,,,,,,,,,570.9767054002732,18,none,0,,,573.9904272002168,,,,,,,,,,,,,,,,,,,,,,6,B,2024-04-17_11h18.28.935,attentional_competition_task,2022.2.4,143.90042033850622,
positions.xlsx,positions_test.xlsx,positions_test_new.xlsx,stimuli.xlsx,stimuli_new.xlsx,stimuli/Social2.png,stimuli/Social1.png,stimuli/Nonsocial2.png,stimuli/Nonsocial1.png,stimuli/Social4.png,stimuli/Social3.png,stimuli/Nonsocial4.png,stimuli/Nonsocial3.png,cs_pos_s,"(0.7, 0.5)",,,,,,,,,0,0,0,0,,,,,,,,,,,,,0,0,0,6,,,,,,,,,,,,,,,,,,,,,,,,,,,,,,,,,,592.5313357003033,21,reward,1,0.5073763998225331,0.5073803998529911,593.0452303001657,,,,,,,,,,,,,,,,,,,,,,6,B,2024-04-17_11h18.28.935,attentional_competition_task,2022.2.4,143.90042033850622,
positions.xlsx,positions_test.xlsx,positions_test_new.xlsx,stimuli.xlsx,stimuli_new.xlsx,stimuli/Social2.png,stimuli/Social1.png,stimuli/Nonsocial2.png,stimuli/Nonsocial1.png,stimuli/Social4.png,stimuli/Social3.png,stimuli/Nonsocial4.png,stimuli/Nonsocial3.png,cs_pos_ns,"(-0.7, -0.5)",,,,,,,,,0,0,0,0,,,,,,,,,,,,,0,1,1,13,,,,,,,,,,,,,,,,,,,,,,,,,,,,,,,,,,599.6977390004322,24,reward,1,0.5207630000077188,0.520766600035131,600.2255019000731,,,,,,,,,,,,,,,,,,,,,,6,B,2024-04-17_11h18.28.935,attentional_competition_task,2022.2.4,143.90042033850622,
positions.xlsx,positions_test.xlsx,positions_test_new.xlsx,stimuli.xlsx,stimuli_new.xlsx,stimuli/Social2.png,stimuli/Social1.png,stimuli/Nonsocial2.png,stimuli/Nonsocial1.png,stimuli/Social4.png,stimuli/Social3.png,stimuli/Nonsocial4.png,stimuli/Nonsocial3.png,cs_pos_ns,"(-0.7, 0.5)",,,,,,,,,0,0,0,0,,,,,,,,,,,,,0,2,2,12,,,,,,,,,,,,,,,,,,,,,,,,,,,,,,,,,,607.57935560029,27,reward,1,0.6669580996967852,0.6669618999585509,608.2529911003076,,,,,,,,,,,,,,,,,,,,,,6,B,2024-04-17_11h18.28.935,attentional_competition_task,2022.2.4,143.90042033850622,
positions.xlsx,positions_test.xlsx,positions_test_new.xlsx,stimuli.xlsx,stimuli_new.xlsx,stimuli/Social2.png,stimuli/Social1.png,stimuli/Nonsocial2.png,stimuli/Nonsocial1.png,stimuli/Social4.png,stimuli/Social3.png,stimuli/Nonsocial4.png,stimuli/Nonsocial3.png,cs_pos_s,"(-0.7, 0.5)",,,,,,,,,0,0,0,0,,,,,,,,,,,,,0,3,3,4,,,,,,,,,,,,,,,,,,,,,,,,,,,,,,,,,,615.3498819000088,30,reward,1,0.4860944002866745,0.4860979001969099,615.8429388999939,,,,,,,,,,,,,,,,,,,,,,6,B,2024-04-17_11h18.28.935,attentional_competition_task,2022.2.4,143.90042033850622,
positions.xlsx,positions_test.xlsx,positions_test_new.xlsx,stimuli.xlsx,stimuli_new.xlsx,stimuli/Social2.png,stimuli/Social1.png,stimuli/Nonsocial2.png,stimuli/Nonsocial1.png,stimuli/Social4.png,stimuli/Social3.png,stimuli/Nonsocial4.png,stimuli/Nonsocial3.png,cs_neg_s,"(0.7, 0.5)",,,,,,,,,0,0,0,0,,,,,,,,,,,,,0,4,4,2,,,,,,,,,,,,,,,,,,,,,,,,,,,,,,,,,,623.0371181000955,27,loss,1,0.22922819992527366,0.22923170030117035,623.2732321000658,,,,,,,,,,,,,,,,,,,,,,6,B,2024-04-17_11h18.28.935,attentional_competition_task,2022.2.4,143.90042033850622,
positions.xlsx,positions_test.xlsx,positions_test_new.xlsx,stimuli.xlsx,stimuli_new.xlsx,stimuli/Social2.png,stimuli/Social1.png,stimuli/Nonsocial2.png,stimuli/Nonsocial1.png,stimuli/Social4.png,stimuli/Social3.png,stimuli/Nonsocial4.png,stimuli/Nonsocial3.png,cs_neg_s,"(-0.7, -0.5)",,,,,,,,,0,0,0,0,,,,,,,,,,,,,0,5,5,1,,,,,,,,,,,,,,,,,,,,,,,,,,,,,,,,,,631.0506549002603,27,none,0,,,634.0644247001037,,,,,,,,,,,,,,,,,,,,,,6,B,2024-04-17_11h18.28.935,attentional_competition_task,2022.2.4,143.90042033850622,
positions.xlsx,positions_test.xlsx,positions_test_new.xlsx,stimuli.xlsx,stimuli_new.xlsx,stimuli/Social2.png,stimuli/Social1.png,stimuli/Nonsocial2.png,stimuli/Nonsocial1.png,stimuli/Social4.png,stimuli/Social3.png,stimuli/Nonsocial4.png,stimuli/Nonsocial3.png,cs_neg_s,"(0.7, -0.5)",,,,,,,,,0,0,0,0,,,,,,,,,,,,,0,6,6,3,,,,,,,,,,,,,,,,,,,,,,,,,,,,,,,,,,641.584968900308,24,loss,1,0.28514799987897277,0.28515159990638494,641.8766214000061,,,,,,,,,,,,,,,,,,,,,,6,B,2024-04-17_11h18.28.935,attentional_competition_task,2022.2.4,143.90042033850622,
positions.xlsx,positions_test.xlsx,positions_test_new.xlsx,stimuli.xlsx,stimuli_new.xlsx,stimuli/Social2.png,stimuli/Social1.png,stimuli/Nonsocial2.png,stimuli/Nonsocial1.png,stimuli/Social4.png,stimuli/Social3.png,stimuli/Nonsocial4.png,stimuli/Nonsocial3.png,cs_neg_ns,"(0.7, 0.5)",,,,,,,,,0,0,0,0,,,,,,,,,,,,,0,7,7,10,,,,,,,,,,,,,,,,,,,,,,,,,,,,,,,,,,648.834725400433,21,loss,1,0.4585162000730634,0.4585200003348291,649.299938400276,,,,,,,,,,,,,,,,,,,,,,6,B,2024-04-17_11h18.28.935,attentional_competition_task,2022.2.4,143.90042033850622,
positions.xlsx,positions_test.xlsx,positions_test_new.xlsx,stimuli.xlsx,stimuli_new.xlsx,stimuli/Social2.png,stimuli/Social1.png,stimuli/Nonsocial2.png,stimuli/Nonsocial1.png,stimuli/Social4.png,stimuli/Social3.png,stimuli/Nonsocial4.png,stimuli/Nonsocial3.png,cs_pos_ns,"(0.7, -0.5)",,,,,,,,,0,0,0,0,,,,,,,,,,,,,0,8,8,15,,,,,,,,,,,,,,,,,,,,,,,,,,,,,,,,,,657.1885104002431,24,reward,1,0.6258511003106833,0.6258551003411412,657.8204801003449,,,,,,,,,,,,,,,,,,,,,,6,B,2024-04-17_11h18.28.935,attentional_competition_task,2022.2.4,143.90042033850622,
positions.xlsx,positions_test.xlsx,positions_test_new.xlsx,stimuli.xlsx,stimuli_new.xlsx,stimuli/Social2.png,stimuli/Social1.png,stimuli/Nonsocial2.png,stimuli/Nonsocial1.png,stimuli/Social4.png,stimuli/Social3.png,stimuli/Nonsocial4.png,stimuli/Nonsocial3.png,cs_neg_ns,"(-0.7, -0.5)",,,,,,,,,0,0,0,0,,,,,,,,,,,,,0,9,9,9,,,,,,,,,,,,,,,,,,,,,,,,,,,,,,,,,,664.611843700055,24,none,0,,,667.6255988003686,,,,,,,,,,,,,,,,,,,,,,6,B,2024-04-17_11h18.28.935,attentional_competition_task,2022.2.4,143.90042033850622,
positions.xlsx,positions_test.xlsx,positions_test_new.xlsx,stimuli.xlsx,stimuli_new.xlsx,stimuli/Social2.png,stimuli/Social1.png,stimuli/Nonsocial2.png,stimuli/Nonsocial1.png,stimuli/Social4.png,stimuli/Social3.png,stimuli/Nonsocial4.png,stimuli/Nonsocial3.png,cs_pos_s,"(0.7, -0.5)",,,,,,,,,0,0,0,0,,,,,,,,,,,,,0,10,10,7,,,,,,,,,,,,,,,,,,,,,,,,,,,,,,,,,,675.7780306003988,27,reward,1,1.090691199991852,1.09069520002231,676.8752435003407,,,,,,,,,,,,,,,,,,,,,,6,B,2024-04-17_11h18.28.935,attentional_competition_task,2022.2.4,143.90042033850622,
positions.xlsx,positions_test.xlsx,positions_test_new.xlsx,stimuli.xlsx,stimuli_new.xlsx,stimuli/Social2.png,stimuli/Social1.png,stimuli/Nonsocial2.png,stimuli/Nonsocial1.png,stimuli/Social4.png,stimuli/Social3.png,stimuli/Nonsocial4.png,stimuli/Nonsocial3.png,cs_pos_ns,"(0.7, 0.5)",,,,,,,,,0,0,0,0,,,,,,,,,,,,,0,11,11,14,,,,,,,,,,,,,,,,,,,,,,,,,,,,,,,,,,684.5902080000378,30,reward,1,0.486247600056231,0.4862514999695122,685.0832762001082,,,,,,,,,,,,,,,,,,,,,,6,B,2024-04-17_11h18.28.935,attentional_competition_task,2022.2.4,143.90042033850622,
positions.xlsx,positions_test.xlsx,positions_test_new.xlsx,stimuli.xlsx,stimuli_new.xlsx,stimuli/Social2.png,stimuli/Social1.png,stimuli/Nonsocial2.png,stimuli/Nonsocial1.png,stimuli/Social4.png,stimuli/Social3.png,stimuli/Nonsocial4.png,stimuli/Nonsocial3.png,cs_neg_s,"(-0.7, 0.5)",,,,,,,,,0,0,0,0,,,,,,,,,,,,,0,12,12,0,,,,,,,,,,,,,,,,,,,,,,,,,,,,,,,,,,692.3190309000202,30,none,0,,,695.3328124000691,,,,,,,,,,,,,,,,,,,,,,6,B,2024-04-17_11h18.28.935,attentional_competition_task,2022.2.4,143.90042033850622,
positions.xlsx,positions_test.xlsx,positions_test_new.xlsx,stimuli.xlsx,stimuli_new.xlsx,stimuli/Social2.png,stimuli/Social1.png,stimuli/Nonsocial2.png,stimuli/Nonsocial1.png,stimuli/Social4.png,stimuli/Social3.png,stimuli/Nonsocial4.png,stimuli/Nonsocial3.png,cs_neg_ns,"(-0.7, 0.5)",,,,,,,,,0,0,0,0,,,,,,,,,,,,,0,13,13,8,,,,,,,,,,,,,,,,,,,,,,,,,,,,,,,,,,702.9505831999704,27,loss,1,0.5348839000798762,0.5348880002275109,703.4922378002666,,,,,,,,,,,,,,,,,,,,,,6,B,2024-04-17_11h18.28.935,attentional_competition_task,2022.2.4,143.90042033850622,
positions.xlsx,positions_test.xlsx,positions_test_new.xlsx,stimuli.xlsx,stimuli_new.xlsx,stimuli/Social2.png,stimuli/Social1.png,stimuli/Nonsocial2.png,stimuli/Nonsocial1.png,stimuli/Social4.png,stimuli/Social3.png,stimuli/Nonsocial4.png,stimuli/Nonsocial3.png,cs_neg_ns,"(0.7, -0.5)",,,,,,,,,0,0,0,0,,,,,,,,,,,,,0,14,14,11,,,,,,,,,,,,,,,,,,,,,,,,,,,,,,,,,,710.5266354000196,27,none,0,,,713.5404482004233,,,,,,,,,,,,,,,,,,,,,,6,B,2024-04-17_11h18.28.935,attentional_competition_task,2022.2.4,143.90042033850622,
positions.xlsx,positions_test.xlsx,positions_test_new.xlsx,stimuli.xlsx,stimuli_new.xlsx,stimuli/Social2.png,stimuli/Social1.png,stimuli/Nonsocial2.png,stimuli/Nonsocial1.png,stimuli/Social4.png,stimuli/Social3.png,stimuli/Nonsocial4.png,stimuli/Nonsocial3.png,cs_pos_s,"(-0.7, -0.5)",,,,,,,,,0,0,0,0,,,,,,,,,,,,,0,15,15,5,,,,,,,,,,,,,,,,,,,,,,,,,,,,,,,,,,721.6234858003445,30,reward,1,0.3821445000357926,0.38214810006320477,722.012314000167,,,,,,,,,,,,,,,,,,,,,,6,B,2024-04-17_11h18.28.935,attentional_competition_task,2022.2.4,143.90042033850622,
positions.xlsx,positions_test.xlsx,positions_test_new.xlsx,stimuli.xlsx,stimuli_new.xlsx,stimuli/Social2.png,stimuli/Social1.png,stimuli/Nonsocial2.png,stimuli/Nonsocial1.png,stimuli/Social4.png,stimuli/Social3.png,stimuli/Nonsocial4.png,stimuli/Nonsocial3.png,cs_neg_ns,"(0.7, 0.5)",,,,,,,,,0,0,0,0,,,,,,,,,,,,,1,0,16,10,,,,,,,,,,,,,,,,,,,,,,,,,,,,,,,,,,728.9773357002996,30,none,0,,,731.9910771003924,,,,,,,,,,,,,,,,,,,,,,6,B,2024-04-17_11h18.28.935,attentional_competition_task,2022.2.4,143.90042033850622,
positions.xlsx,positions_test.xlsx,positions_test_new.xlsx,stimuli.xlsx,stimuli_new.xlsx,stimuli/Social2.png,stimuli/Social1.png,stimuli/Nonsocial2.png,stimuli/Nonsocial1.png,stimuli/Social4.png,stimuli/Social3.png,stimuli/Nonsocial4.png,stimuli/Nonsocial3.png,cs_pos_s,"(0.7, 0.5)",,,,,,,,,0,0,0,0,,,,,,,,,,,,,1,1,17,6,,,,,,,,,,,,,,,,,,,,,,,,,,,,,,,,,,739.3588409000076,33,reward,1,0.5554613997228444,0.5554647999815643,739.9213641001843,,,,,,,,,,,,,,,,,,,,,,6,B,2024-04-17_11h18.28.935,attentional_competition_task,2022.2.4,143.90042033850622,
positions.xlsx,positions_test.xlsx,positions_test_new.xlsx,stimuli.xlsx,stimuli_new.xlsx,stimuli/Social2.png,stimuli/Social1.png,stimuli/Nonsocial2.png,stimuli/Nonsocial1.png,stimuli/Social4.png,stimuli/Social3.png,stimuli/Nonsocial4.png,stimuli/Nonsocial3.png,cs_pos_ns,"(-0.7, 0.5)",,,,,,,,,0,0,0,0,,,,,,,,,,,,,1,2,18,12,,,,,,,,,,,,,,,,,,,,,,,,,,,,,,,,,,747.3029444999993,36,reward,1,0.47232510009780526,0.47232870012521744,747.7821062002331,,,,,,,,,,,,,,,,,,,,,,6,B,2024-04-17_11h18.28.935,attentional_competition_task,2022.2.4,143.90042033850622,
positions.xlsx,positions_test.xlsx,positions_test_new.xlsx,stimuli.xlsx,stimuli_new.xlsx,stimuli/Social2.png,stimuli/Social1.png,stimuli/Nonsocial2.png,stimuli/Nonsocial1.png,stimuli/Social4.png,stimuli/Social3.png,stimuli/Nonsocial4.png,stimuli/Nonsocial3.png,cs_neg_s,"(0.7, 0.5)",,,,,,,,,0,0,0,0,,,,,,,,,,,,,1,3,19,2,,,,,,,,,,,,,,,,,,,,,,,,,,,,,,,,,,755.6567785004154,36,none,0,,,758.6705762003548,,,,,,,,,,,,,,,,,,,,,,6,B,2024-04-17_11h18.28.935,attentional_competition_task,2022.2.4,143.90042033850622,
positions.xlsx,positions_test.xlsx,positions_test_new.xlsx,stimuli.xlsx,stimuli_new.xlsx,stimuli/Social2.png,stimuli/Social1.png,stimuli/Nonsocial2.png,stimuli/Nonsocial1.png,stimuli/Social4.png,stimuli/Social3.png,stimuli/Nonsocial4.png,stimuli/Nonsocial3.png,cs_pos_ns,"(-0.7, -0.5)",,,,,,,,,0,0,0,0,,,,,,,,,,,,,1,4,20,13,,,,,,,,,,,,,,,,,,,,,,,,,,,,,,,,,,766.3924728999846,39,reward,1,0.45164179988205433,0.4516457999125123,766.850846500136,,,,,,,,,,,,,,,,,,,,,,6,B,2024-04-17_11h18.28.935,attentional_competition_task,2022.2.4,143.90042033850622,
positions.xlsx,positions_test.xlsx,positions_test_new.xlsx,stimuli.xlsx,stimuli_new.xlsx,stimuli/Social2.png,stimuli/Social1.png,stimuli/Nonsocial2.png,stimuli/Nonsocial1.png,stimuli/Social4.png,stimuli/Social3.png,stimuli/Nonsocial4.png,stimuli/Nonsocial3.png,cs_pos_s,"(-0.7, -0.5)",,,,,,,,,0,0,0,0,,,,,,,,,,,,,1,5,21,5,,,,,,,,,,,,,,,,,,,,,,,,,,,,,,,,,,774.8435240001418,42,reward,1,0.47917990013957024,0.4791839001700282,775.3296222002245,,,,,,,,,,,,,,,,,,,,,,6,B,2024-04-17_11h18.28.935,attentional_competition_task,2022.2.4,143.90042033850622,
positions.xlsx,positions_test.xlsx,positions_test_new.xlsx,stimuli.xlsx,stimuli_new.xlsx,stimuli/Social2.png,stimuli/Social1.png,stimuli/Nonsocial2.png,stimuli/Nonsocial1.png,stimuli/Social4.png,stimuli/Social3.png,stimuli/Nonsocial4.png,stimuli/Nonsocial3.png,cs_neg_s,"(-0.7, -0.5)",,,,,,,,,0,0,0,0,,,,,,,,,,,,,1,6,22,1,,,,,,,,,,,,,,,,,,,,,,,,,,,,,,,,,,782.2321180002764,39,loss,1,0.5490442998707294,0.5490478998981416,782.7876849002205,,,,,,,,,,,,,,,,,,,,,,6,B,2024-04-17_11h18.28.935,attentional_competition_task,2022.2.4,143.90042033850622,
positions.xlsx,positions_test.xlsx,positions_test_new.xlsx,stimuli.xlsx,stimuli_new.xlsx,stimuli/Social2.png,stimuli/Social1.png,stimuli/Nonsocial2.png,stimuli/Nonsocial1.png,stimuli/Social4.png,stimuli/Social3.png,stimuli/Nonsocial4.png,stimuli/Nonsocial3.png,cs_pos_s,"(-0.7, 0.5)",,,,,,,,,0,0,0,0,,,,,,,,,,,,,1,7,23,4,,,,,,,,,,,,,,,,,,,,,,,,,,,,,,,,,,791.2248311000876,42,reward,1,0.4237538003362715,0.42375720012933016,791.655385600403,,,,,,,,,,,,,,,,,,,,,,6,B,2024-04-17_11h18.28.935,attentional_competition_task,2022.2.4,143.90042033850622,
positions.xlsx,positions_test.xlsx,positions_test_new.xlsx,stimuli.xlsx,stimuli_new.xlsx,stimuli/Social2.png,stimuli/Social1.png,stimuli/Nonsocial2.png,stimuli/Nonsocial1.png,stimuli/Social4.png,stimuli/Social3.png,stimuli/Nonsocial4.png,stimuli/Nonsocial3.png,cs_neg_s,"(-0.7, 0.5)",,,,,,,,,0,0,0,0,,,,,,,,,,,,,1,8,24,0,,,,,,,,,,,,,,,,,,,,,,,,,,,,,,,,,,798.8842707001604,39,loss,1,0.4030218003317714,0.4030257002450526,799.293959100265,,,,,,,,,,,,,,,,,,,,,,6,B,2024-04-17_11h18.28.935,attentional_competition_task,2022.2.4,143.90042033850622,
positions.xlsx,positions_test.xlsx,positions_test_new.xlsx,stimuli.xlsx,stimuli_new.xlsx,stimuli/Social2.png,stimuli/Social1.png,stimuli/Nonsocial2.png,stimuli/Nonsocial1.png,stimuli/Social4.png,stimuli/Social3.png,stimuli/Nonsocial4.png,stimuli/Nonsocial3.png,cs_neg_s,"(0.7, -0.5)",,,,,,,,,0,0,0,0,,,,,,,,,,,,,1,9,25,3,,,,,,,,,,,,,,,,,,,,,,,,,,,,,,,,,,806.4534305003472,39,none,0,,,809.4671422000974,,,,,,,,,,,,,,,,,,,,,,6,B,2024-04-17_11h18.28.935,attentional_competition_task,2022.2.4,143.90042033850622,
positions.xlsx,positions_test.xlsx,positions_test_new.xlsx,stimuli.xlsx,stimuli_new.xlsx,stimuli/Social2.png,stimuli/Social1.png,stimuli/Nonsocial2.png,stimuli/Nonsocial1.png,stimuli/Social4.png,stimuli/Social3.png,stimuli/Nonsocial4.png,stimuli/Nonsocial3.png,cs_pos_s,"(0.7, -0.5)",,,,,,,,,0,0,0,0,,,,,,,,,,,,,1,10,26,7,,,,,,,,,,,,,,,,,,,,,,,,,,,,,,,,,,817.515466300305,42,reward,1,0.5348418997600675,0.5348455999046564,818.0571207003668,,,,,,,,,,,,,,,,,,,,,,6,B,2024-04-17_11h18.28.935,attentional_competition_task,2022.2.4,143.90042033850622,
positions.xlsx,positions_test.xlsx,positions_test_new.xlsx,stimuli.xlsx,stimuli_new.xlsx,stimuli/Social2.png,stimuli/Social1.png,stimuli/Nonsocial2.png,stimuli/Nonsocial1.png,stimuli/Social4.png,stimuli/Social3.png,stimuli/Nonsocial4.png,stimuli/Nonsocial3.png,cs_neg_ns,"(0.7, -0.5)",,,,,,,,,0,0,0,0,,,,,,,,,,,,,1,11,27,11,,,,,,,,,,,,,,,,,,,,,,,,,,,,,,,,,,825.5498771001585,42,none,0,,,828.5636189002544,,,,,,,,,,,,,,,,,,,,,,6,B,2024-04-17_11h18.28.935,attentional_competition_task,2022.2.4,143.90042033850622,
positions.xlsx,positions_test.xlsx,positions_test_new.xlsx,stimuli.xlsx,stimuli_new.xlsx,stimuli/Social2.png,stimuli/Social1.png,stimuli/Nonsocial2.png,stimuli/Nonsocial1.png,stimuli/Social4.png,stimuli/Social3.png,stimuli/Nonsocial4.png,stimuli/Nonsocial3.png,cs_neg_ns,"(-0.7, -0.5)",,,,,,,,,0,0,0,0,,,,,,,,,,,,,1,12,28,9,,,,,,,,,,,,,,,,,,,,,,,,,,,,,,,,,,835.9105612002313,39,loss,1,0.41675900015980005,0.41676260018721223,836.3341507003643,,,,,,,,,,,,,,,,,,,,,,6,B,2024-04-17_11h18.28.935,attentional_competition_task,2022.2.4,143.90042033850622,
positions.xlsx,positions_test.xlsx,positions_test_new.xlsx,stimuli.xlsx,stimuli_new.xlsx,stimuli/Social2.png,stimuli/Social1.png,stimuli/Nonsocial2.png,stimuli/Nonsocial1.png,stimuli/Social4.png,stimuli/Social3.png,stimuli/Nonsocial4.png,stimuli/Nonsocial3.png,cs_pos_ns,"(0.7, -0.5)",,,,,,,,,0,0,0,0,,,,,,,,,,,,,1,13,29,15,,,,,,,,,,,,,,,,,,,,,,,,,,,,,,,,,,844.08385130018,42,reward,1,0.4928609998896718,0.49286470003426075,844.5838639000431,,,,,,,,,,,,,,,,,,,,,,6,B,2024-04-17_11h18.28.935,attentional_competition_task,2022.2.4,143.90042033850622,
positions.xlsx,positions_test.xlsx,positions_test_new.xlsx,stimuli.xlsx,stimuli_new.xlsx,stimuli/Social2.png,stimuli/Social1.png,stimuli/Nonsocial2.png,stimuli/Nonsocial1.png,stimuli/Social4.png,stimuli/Social3.png,stimuli/Nonsocial4.png,stimuli/Nonsocial3.png,cs_pos_ns,"(0.7, 0.5)",,,,,,,,,0,0,0,0,,,,,,,,,,,,,1,14,30,14,,,,,,,,,,,,,,,,,,,,,,,,,,,,,,,,,,851.5419022999704,45,reward,1,0.6948115001432598,0.6948150000534952,852.2433001003228,,,,,,,,,,,,,,,,,,,,,,6,B,2024-04-17_11h18.28.935,attentional_competition_task,2022.2.4,143.90042033850622,
positions.xlsx,positions_test.xlsx,positions_test_new.xlsx,stimuli.xlsx,stimuli_new.xlsx,stimuli/Social2.png,stimuli/Social1.png,stimuli/Nonsocial2.png,stimuli/Nonsocial1.png,stimuli/Social4.png,stimuli/Social3.png,stimuli/Nonsocial4.png,stimuli/Nonsocial3.png,cs_neg_ns,"(-0.7, 0.5)",,,,,,,,,0,0,0,0,,,,,,,,,,,,,1,15,31,8,,,,,,,,,,,,,,,,,,,,,,,,,,,,,,,,,,860.1248944001272,42,loss,1,0.5210453001782298,0.5210488000884652,860.652679100167,,,,,,,,,,,,,,,,,,,,,,6,B,2024-04-17_11h18.28.935,attentional_competition_task,2022.2.4,143.90042033850622,
positions.xlsx,positions_test.xlsx,positions_test_new.xlsx,stimuli.xlsx,stimuli_new.xlsx,stimuli/Social2.png,stimuli/Social1.png,stimuli/Nonsocial2.png,stimuli/Nonsocial1.png,stimuli/Social4.png,stimuli/Social3.png,stimuli/Nonsocial4.png,stimuli/Nonsocial3.png,cs_pos_ns,,,,,,,,,,0,0,0,0,,,,,,,,,,,,,,,,,0,0,0,3,,,,,,,,,,,,,,,,,,,,,,,865.6385286003351,2.0,6.462773700244725,,,,,,,,,,,,,,,,,,,,,,,,,,,,,,,,,6,B,2024-04-17_11h18.28.935,attentional_competition_task,2022.2.4,143.90042033850622,
positions.xlsx,positions_test.xlsx,positions_test_new.xlsx,stimuli.xlsx,stimuli_new.xlsx,stimuli/Social2.png,stimuli/Social1.png,stimuli/Nonsocial2.png,stimuli/Nonsocial1.png,stimuli/Social4.png,stimuli/Social3.png,stimuli/Nonsocial4.png,stimuli/Nonsocial3.png,cs_pos_s,,,,,,,,,,0,0,0,0,,,,,,,,,,,,,,,,,0,1,1,2,,,,,,,,,,,,,,,,,,,,,,,872.9229739001021,8.0,1.5578259001486003,,,,,,,,,,,,,,,,,,,,,,,,,,,,,,,,,6,B,2024-04-17_11h18.28.935,attentional_competition_task,2022.2.4,143.90042033850622,
positions.xlsx,positions_test.xlsx,positions_test_new.xlsx,stimuli.xlsx,stimuli_new.xlsx,stimuli/Social2.png,stimuli/Social1.png,stimuli/Nonsocial2.png,stimuli/Nonsocial1.png,stimuli/Social4.png,stimuli/Social3.png,stimuli/Nonsocial4.png,stimuli/Nonsocial3.png,cs_neg_ns,,,,,,,,,,0,0,0,0,,,,,,,,,,,,,,,,,0,2,2,1,,,,,,,,,,,,,,,,,,,,,,,875.0340440999717,3.0,3.9455205998383462,,,,,,,,,,,,,,,,,,,,,,,,,,,,,,,,,6,B,2024-04-17_11h18.28.935,attentional_competition_task,2022.2.4,143.90042033850622,
positions.xlsx,positions_test.xlsx,positions_test_new.xlsx,stimuli.xlsx,stimuli_new.xlsx,stimuli/Social2.png,stimuli/Social1.png,stimuli/Nonsocial2.png,stimuli/Nonsocial1.png,stimuli/Social4.png,stimuli/Social3.png,stimuli/Nonsocial4.png,stimuli/Nonsocial3.png,cs_neg_s,,,,,,,,,,0,0,0,0,,,,,,,,,,,,,,,,,0,3,3,0,,,,,,,,,,,,,,,,,,,,,,,879.8532652002759,3.0,2.5230755996890366,,,,,,,,,,,,,,,,,,,,,,,,,,,,,,,,,6,B,2024-04-17_11h18.28.935,attentional_competition_task,2022.2.4,143.90042033850622,
positions.xlsx,positions_test.xlsx,positions_test_new.xlsx,stimuli.xlsx,stimuli_new.xlsx,stimuli/Social2.png,stimuli/Social1.png,stimuli/Nonsocial2.png,stimuli/Nonsocial1.png,stimuli/Social4.png,stimuli/Social3.png,stimuli/Nonsocial4.png,stimuli/Nonsocial3.png,,,"(-0.7, -0.5)",cs_pos_s,"(-0.7, 0.5)",cs_pos_ns,"(0.7, -0.5)",cs_neg_ns,"(0.7, 0.5)",cs_neg_s,0,0,0,0,,,,,,,,,,,,,,,,,,,,,0,0,0,11,,,,,,,,,,,,,,,,,,,,,,,,,,,36,loss,,,,,882.5614893003367,889.6375902001746,889.6375902001746,889.6375902001746,889.6375902001746,0,,,0,,,0,,,0,,,890.2417497001588,890.2417497001588,890.2417497001588,890.2417497001588,6,B,2024-04-17_11h18.28.935,attentional_competition_task,2022.2.4,143.90042033850622,
positions.xlsx,positions_test.xlsx,positions_test_new.xlsx,stimuli.xlsx,stimuli_new.xlsx,stimuli/Social2.png,stimuli/Social1.png,stimuli/Nonsocial2.png,stimuli/Nonsocial1.png,stimuli/Social4.png,stimuli/Social3.png,stimuli/Nonsocial4.png,stimuli/Nonsocial3.png,,,"(-0.7, -0.5)",cs_neg_s,"(-0.7, 0.5)",cs_pos_s,"(0.7, -0.5)",cs_pos_ns,"(0.7, 0.5)",cs_neg_ns,0,0,0,0,,,,,,,,,,,,,,,,,,,,,0,1,1,1,,,,,,,,,,,,,,,,,,,,,,,,,,,33,loss,,,,,,897.5192732000723,897.5192732000723,897.5192732000723,897.5192732000723,0,,,0,,,0,,,0,,,898.0747797000222,898.0747797000222,898.0747797000222,898.0747797000222,6,B,2024-04-17_11h18.28.935,attentional_competition_task,2022.2.4,143.90042033850622,
positions.xlsx,positions_test.xlsx,positions_test_new.xlsx,stimuli.xlsx,stimuli_new.xlsx,stimuli/Social2.png,stimuli/Social1.png,stimuli/Nonsocial2.png,stimuli/Nonsocial1.png,stimuli/Social4.png,stimuli/Social3.png,stimuli/Nonsocial4.png,stimuli/Nonsocial3.png,,,"(-0.7, -0.5)",cs_pos_ns,"(-0.7, 0.5)",cs_neg_s,"(0.7, -0.5)",cs_pos_s,"(0.7, 0.5)",cs_neg_ns,0,0,0,0,,,,,,,,,,,,,,,,,,,,,0,2,2,22,,,,,,,,,,,,,,,,,,,,,,,,,,,30,loss,,,,,,905.2064134003595,905.2064134003595,905.2064134003595,905.2064134003595,0,,,0,,,0,,,1,0.21249719988554716,0.21250109979882836,905.4216934000142,905.4216934000142,905.4216934000142,905.4216934000142,6,B,2024-04-17_11h18.28.935,attentional_competition_task,2022.2.4,143.90042033850622,
positions.xlsx,positions_test.xlsx,positions_test_new.xlsx,stimuli.xlsx,stimuli_new.xlsx,stimuli/Social2.png,stimuli/Social1.png,stimuli/Nonsocial2.png,stimuli/Nonsocial1.png,stimuli/Social4.png,stimuli/Social3.png,stimuli/Nonsocial4.png,stimuli/Nonsocial3.png,,,"(-0.7, -0.5)",cs_neg_s,"(-0.7, 0.5)",cs_neg_ns,"(0.7, -0.5)",cs_pos_ns,"(0.7, 0.5)",cs_pos_s,0,0,0,0,,,,,,,,,,,,,,,,,,,,,0,3,3,3,,,,,,,,,,,,,,,,,,,,,,,,,,,33,reward,,,,,,913.6366372001357,913.6366372001357,913.6366372001357,913.6366372001357,0,,,0,,,1,0.08753979997709394,0.09371030004695058,0,,,913.7338730003685,913.7338730003685,913.7338730003685,913.7338730003685,6,B,2024-04-17_11h18.28.935,attentional_competition_task,2022.2.4,143.90042033850622,
positions.xlsx,positions_test.xlsx,positions_test_new.xlsx,stimuli.xlsx,stimuli_new.xlsx,stimuli/Social2.png,stimuli/Social1.png,stimuli/Nonsocial2.png,stimuli/Nonsocial1.png,stimuli/Social4.png,stimuli/Social3.png,stimuli/Nonsocial4.png,stimuli/Nonsocial3.png,,,"(-0.7, -0.5)",cs_pos_ns,"(-0.7, 0.5)",cs_pos_s,"(0.7, -0.5)",cs_neg_ns,"(0.7, 0.5)",cs_neg_s,0,0,0,0,,,,,,,,,,,,,,,,,,,,,0,4,4,18,,,,,,,,,,,,,,,,,,,,,,,,,,,36,loss,,,,,,921.9279815000482,921.9279815000482,921.9279815000482,921.9279815000482,0,,,0,,,1,0.023799299728125334,0.023803099989891052,0,,,921.9279815000482,921.9279815000482,921.9279815000482,921.9279815000482,6,B,2024-04-17_11h18.28.935,attentional_competition_task,2022.2.4,143.90042033850622,
positions.xlsx,positions_test.xlsx,positions_test_new.xlsx,stimuli.xlsx,stimuli_new.xlsx,stimuli/Social2.png,stimuli/Social1.png,stimuli/Nonsocial2.png,stimuli/Nonsocial1.png,stimuli/Social4.png,stimuli/Social3.png,stimuli/Nonsocial4.png,stimuli/Nonsocial3.png,,,"(-0.7, -0.5)",cs_pos_s,"(-0.7, 0.5)",cs_neg_ns,"(0.7, -0.5)",cs_pos_ns,"(0.7, 0.5)",cs_neg_s,0,0,0,0,,,,,,,,,,,,,,,,,,,,,0,5,5,9,,,,,,,,,,,,,,,,,,,,,,,,,,,45,reward,,,,,,930.0596335004084,930.0596335004084,930.0596335004084,930.0596335004084,0,,,0,,,1,0.024072399828583002,0.2884130999445915,0,,,930.9623621003702,930.9623621003702,930.9623621003702,930.9623621003702,6,B,2024-04-17_11h18.28.935,attentional_competition_task,2022.2.4,143.90042033850622,
positions.xlsx,positions_test.xlsx,positions_test_new.xlsx,stimuli.xlsx,stimuli_new.xlsx,stimuli/Social2.png,stimuli/Social1.png,stimuli/Nonsocial2.png,stimuli/Nonsocial1.png,stimuli/Social4.png,stimuli/Social3.png,stimuli/Nonsocial4.png,stimuli/Nonsocial3.png,,,"(-0.7, -0.5)",cs_pos_ns,"(-0.7, 0.5)",cs_neg_s,"(0.7, -0.5)",cs_neg_ns,"(0.7, 0.5)",cs_pos_s,0,0,0,0,,,,,,,,,,,,,,,,,,,,,0,6,6,23,,,,,,,,,,,,,,,,,,,,,,,,,,,54,reward,,,,,,939.4065227000974,939.4065227000974,939.4065227000974,939.4065227000974,1,0.025795599911361933,0.4474667999893427,0,,,0,,,0,,,940.3578230002895,940.3578230002895,940.3578230002895,940.3578230002895,6,B,2024-04-17_11h18.28.935,attentional_competition_task,2022.2.4,143.90042033850622,
positions.xlsx,positions_test.xlsx,positions_test_new.xlsx,stimuli.xlsx,stimuli_new.xlsx,stimuli/Social2.png,stimuli/Social1.png,stimuli/Nonsocial2.png,stimuli/Nonsocial1.png,stimuli/Social4.png,stimuli/Social3.png,stimuli/Nonsocial4.png,stimuli/Nonsocial3.png,,,"(-0.7, -0.5)",cs_neg_s,"(-0.7, 0.5)",cs_pos_ns,"(0.7, -0.5)",cs_neg_ns,"(0.7, 0.5)",cs_pos_s,0,0,0,0,,,,,,,,,,,,,,,,,,,,,0,7,7,5,,,,,,,,,,,,,,,,,,,,,,,,,,,63,reward,,,,,,947.5589282000437,947.5589282000437,947.5589282000437,947.5589282000437,0,,,1,0.029563100077211857,0.10019779996946454,0,,,0,,,948.4269763003103,948.4269763003103,948.4269763003103,948.4269763003103,6,B,2024-04-17_11h18.28.935,attentional_competition_task,2022.2.4,143.90042033850622,
positions.xlsx,positions_test.xlsx,positions_test_new.xlsx,stimuli.xlsx,stimuli_new.xlsx,stimuli/Social2.png,stimuli/Social1.png,stimuli/Nonsocial2.png,stimuli/Nonsocial1.png,stimuli/Social4.png,stimuli/Social3.png,stimuli/Nonsocial4.png,stimuli/Nonsocial3.png,,,"(-0.7, -0.5)",cs_pos_ns,"(-0.7, 0.5)",cs_pos_s,"(0.7, -0.5)",cs_neg_s,"(0.7, 0.5)",cs_neg_ns,0,0,0,0,,,,,,,,,,,,,,,,,,,,,0,8,8,19,,,,,,,,,,,,,,,,,,,,,,,,,,,66,reward,,,,,,955.8294072002172,955.8294072002172,955.8294072002172,955.8294072002172,1,0.03789759986102581,0.03790149977430701,0,,,0,,,0,,,955.8294072002172,955.8294072002172,955.8294072002172,955.8294072002172,6,B,2024-04-17_11h18.28.935,attentional_competition_task,2022.2.4,143.90042033850622,
positions.xlsx,positions_test.xlsx,positions_test_new.xlsx,stimuli.xlsx,stimuli_new.xlsx,stimuli/Social2.png,stimuli/Social1.png,stimuli/Nonsocial2.png,stimuli/Nonsocial1.png,stimuli/Social4.png,stimuli/Social3.png,stimuli/Nonsocial4.png,stimuli/Nonsocial3.png,,,"(-0.7, -0.5)",cs_neg_s,"(-0.7, 0.5)",cs_neg_ns,"(0.7, -0.5)",cs_pos_s,"(0.7, 0.5)",cs_pos_ns,0,0,0,0,,,,,,,,,,,,,,,,,,,,,0,9,9,2,,,,,,,,,,,,,,,,,,,,,,,,,,,69,reward,,,,,,964.8012747000903,964.8012747000903,964.8012747000903,964.8012747000903,0,,,0,,,0,,,1,0.027140299789607525,0.027144199702888727,964.8012747000903,964.8012747000903,964.8012747000903,964.8012747000903,6,B,2024-04-17_11h18.28.935,attentional_competition_task,2022.2.4,143.90042033850622,
positions.xlsx,positions_test.xlsx,positions_test_new.xlsx,stimuli.xlsx,stimuli_new.xlsx,stimuli/Social2.png,stimuli/Social1.png,stimuli/Nonsocial2.png,stimuli/Nonsocial1.png,stimuli/Social4.png,stimuli/Social3.png,stimuli/Nonsocial4.png,stimuli/Nonsocial3.png,,,"(-0.7, -0.5)",cs_neg_ns,"(-0.7, 0.5)",cs_pos_s,"(0.7, -0.5)",cs_pos_ns,"(0.7, 0.5)",cs_neg_s,0,0,0,0,,,,,,,,,,,,,,,,,,,,,0,10,10,13,,,,,,,,,,,,,,,,,,,,,,,,,,,78,reward,,,,,,973.752339400351,973.752339400351,973.752339400351,973.752339400351,0,,,0,,,1,0.029396099969744682,0.46124769980087876,0,,,974.7175659001805,974.7175659001805,974.7175659001805,974.7175659001805,6,B,2024-04-17_11h18.28.935,attentional_competition_task,2022.2.4,143.90042033850622,
positions.xlsx,positions_test.xlsx,positions_test_new.xlsx,stimuli.xlsx,stimuli_new.xlsx,stimuli/Social2.png,stimuli/Social1.png,stimuli/Nonsocial2.png,stimuli/Nonsocial1.png,stimuli/Social4.png,stimuli/Social3.png,stimuli/Nonsocial4.png,stimuli/Nonsocial3.png,,,"(-0.7, -0.5)",cs_neg_ns,"(-0.7, 0.5)",cs_neg_s,"(0.7, -0.5)",cs_pos_ns,"(0.7, 0.5)",cs_pos_s,0,0,0,0,,,,,,,,,,,,,,,,,,,,,0,11,11,15,,,,,,,,,,,,,,,,,,,,,,,,,,,87,reward,,,,,,982.5714123002253,982.5714123002253,982.5714123002253,982.5714123002253,0,,,0,,,1,0.02313219988718629,0.3506557000800967,0,,,983.4324950003065,983.4324950003065,983.4324950003065,983.4324950003065,6,B,2024-04-17_11h18.28.935,attentional_competition_task,2022.2.4,143.90042033850622,
positions.xlsx,positions_test.xlsx,positions_test_new.xlsx,stimuli.xlsx,stimuli_new.xlsx,stimuli/Social2.png,stimuli/Social1.png,stimuli/Nonsocial2.png,stimuli/Nonsocial1.png,stimuli/Social4.png,stimuli/Social3.png,stimuli/Nonsocial4.png,stimuli/Nonsocial3.png,,,"(-0.7, -0.5)",cs_pos_s,"(-0.7, 0.5)",cs_neg_s,"(0.7, -0.5)",cs_neg_ns,"(0.7, 0.5)",cs_pos_ns,0,0,0,0,,,,,,,,,,,,,,,,,,,,,0,12,12,6,,,,,,,,,,,,,,,,,,,,,,,,,,,90,reward,,,,,,990.8210884002037,990.8210884002037,990.8210884002037,990.8210884002037,0,,,0,,,0,,,1,0.023960900027304888,0.023964800406247377,990.8210884002037,990.8210884002037,990.8210884002037,990.8210884002037,6,B,2024-04-17_11h18.28.935,attentional_competition_task,2022.2.4,143.90042033850622,
positions.xlsx,positions_test.xlsx,positions_test_new.xlsx,stimuli.xlsx,stimuli_new.xlsx,stimuli/Social2.png,stimuli/Social1.png,stimuli/Nonsocial2.png,stimuli/Nonsocial1.png,stimuli/Social4.png,stimuli/Social3.png,stimuli/Nonsocial4.png,stimuli/Nonsocial3.png,,,"(-0.7, -0.5)",cs_neg_ns,"(-0.7, 0.5)",cs_pos_ns,"(0.7, -0.5)",cs_neg_s,"(0.7, 0.5)",cs_pos_s,0,0,0,0,,,,,,,,,,,,,,,,,,,,,0,13,13,17,,,,,,,,,,,,,,,,,,,,,,,,,,,99,reward,,,,,,999.1193830003031,999.1193830003031,999.1193830003031,999.1193830003031,0,,,1,0.02920270012691617,0.5437974999658763,0,,,0,,,1000.1610068003647,1000.1610068003647,1000.1610068003647,1000.1610068003647,6,B,2024-04-17_11h18.28.935,attentional_competition_task,2022.2.4,143.90042033850622,
positions.xlsx,positions_test.xlsx,positions_test_new.xlsx,stimuli.xlsx,stimuli_new.xlsx,stimuli/Social2.png,stimuli/Social1.png,stimuli/Nonsocial2.png,stimuli/Nonsocial1.png,stimuli/Social4.png,stimuli/Social3.png,stimuli/Nonsocial4.png,stimuli/Nonsocial3.png,,,"(-0.7, -0.5)",cs_neg_s,"(-0.7, 0.5)",cs_pos_ns,"(0.7, -0.5)",cs_pos_s,"(0.7, 0.5)",cs_neg_ns,0,0,0,0,,,,,,,,,,,,,,,,,,,,,0,14,14,4,,,,,,,,,,,,,,,,,,,,,,,,,,,108,reward,,,,,,1007.7440462000668,1007.7440462000668,1007.7440462000668,1007.7440462000668,0,,,1,0.027489400003105402,0.34707560017704964,0,,,0,,,1008.5981829003431,1008.5981829003431,1008.5981829003431,1008.5981829003431,6,B,2024-04-17_11h18.28.935,attentional_competition_task,2022.2.4,143.90042033850622,
positions.xlsx,positions_test.xlsx,positions_test_new.xlsx,stimuli.xlsx,stimuli_new.xlsx,stimuli/Social2.png,stimuli/Social1.png,stimuli/Nonsocial2.png,stimuli/Nonsocial1.png,stimuli/Social4.png,stimuli/Social3.png,stimuli/Nonsocial4.png,stimuli/Nonsocial3.png,,,"(-0.7, -0.5)",cs_neg_ns,"(-0.7, 0.5)",cs_pos_ns,"(0.7, -0.5)",cs_pos_s,"(0.7, 0.5)",cs_neg_s,0,0,0,0,,,,,,,,,,,,,,,,,,,,,0,15,15,16,,,,,,,,,,,,,,,,,,,,,,,,,,,111,reward,,,,,,1015.618681400083,1015.618681400083,1015.618681400083,1015.618681400083,0,,,1,0.024154699873179197,0.024158400017768145,0,,,0,,,1015.618681400083,1015.618681400083,1015.618681400083,1015.618681400083,6,B,2024-04-17_11h18.28.935,attentional_competition_task,2022.2.4,143.90042033850622,
positions.xlsx,positions_test.xlsx,positions_test_new.xlsx,stimuli.xlsx,stimuli_new.xlsx,stimuli/Social2.png,stimuli/Social1.png,stimuli/Nonsocial2.png,stimuli/Nonsocial1.png,stimuli/Social4.png,stimuli/Social3.png,stimuli/Nonsocial4.png,stimuli/Nonsocial3.png,,,"(-0.7, -0.5)",cs_pos_s,"(-0.7, 0.5)",cs_neg_s,"(0.7, -0.5)",cs_pos_ns,"(0.7, 0.5)",cs_neg_ns,0,0,0,0,,,,,,,,,,,,,,,,,,,,,0,16,16,7,,,,,,,,,,,,,,,,,,,,,,,,,,,117,reward,,,,,,1024.3821949004196,1024.3821949004196,1024.3821949004196,1024.3821949004196,0,,,0,,,0,,,0,,,1024.9238954000175,1024.9238954000175,1024.9238954000175,1024.9238954000175,6,B,2024-04-17_11h18.28.935,attentional_competition_task,2022.2.4,143.90042033850622,
positions.xlsx,positions_test.xlsx,positions_test_new.xlsx,stimuli.xlsx,stimuli_new.xlsx,stimuli/Social2.png,stimuli/Social1.png,stimuli/Nonsocial2.png,stimuli/Nonsocial1.png,stimuli/Social4.png,stimuli/Social3.png,stimuli/Nonsocial4.png,stimuli/Nonsocial3.png,,,"(-0.7, -0.5)",cs_neg_ns,"(-0.7, 0.5)",cs_neg_s,"(0.7, -0.5)",cs_pos_s,"(0.7, 0.5)",cs_pos_ns,0,0,0,0,,,,,,,,,,,,,,,,,,,,,0,17,17,14,,,,,,,,,,,,,,,,,,,,,,,,,,,120,reward,,,,,,1031.770899000112,1031.770899000112,1031.770899000112,1031.770899000112,0,,,0,,,0,,,1,0.0258585000410676,0.025862399954348803,1031.770899000112,1031.770899000112,1031.770899000112,1031.770899000112,6,B,2024-04-17_11h18.28.935,attentional_competition_task,2022.2.4,143.90042033850622,
positions.xlsx,positions_test.xlsx,positions_test_new.xlsx,stimuli.xlsx,stimuli_new.xlsx,stimuli/Social2.png,stimuli/Social1.png,stimuli/Nonsocial2.png,stimuli/Nonsocial1.png,stimuli/Social4.png,stimuli/Social3.png,stimuli/Nonsocial4.png,stimuli/Nonsocial3.png,,,"(-0.7, -0.5)",cs_pos_ns,"(-0.7, 0.5)",cs_neg_ns,"(0.7, -0.5)",cs_pos_s,"(0.7, 0.5)",cs_neg_s,0,0,0,0,,,,,,,,,,,,,,,,,,,,,0,18,18,20,,,,,,,,,,,,,,,,,,,,,,,,,,,126,reward,,,,,,1041.3468540003523,1041.3468540003523,1041.3468540003523,1041.3468540003523,1,0.02333969995379448,0.02334359986707568,0,,,0,,,0,,,1041.3468540003523,1041.3468540003523,1041.3468540003523,1041.3468540003523,6,B,2024-04-17_11h18.28.935,attentional_competition_task,2022.2.4,143.90042033850622,
positions.xlsx,positions_test.xlsx,positions_test_new.xlsx,stimuli.xlsx,stimuli_new.xlsx,stimuli/Social2.png,stimuli/Social1.png,stimuli/Nonsocial2.png,stimuli/Nonsocial1.png,stimuli/Social4.png,stimuli/Social3.png,stimuli/Nonsocial4.png,stimuli/Nonsocial3.png,,,"(-0.7, -0.5)",cs_pos_s,"(-0.7, 0.5)",cs_pos_ns,"(0.7, -0.5)",cs_neg_s,"(0.7, 0.5)",cs_neg_ns,0,0,0,0,,,,,,,,,,,,,,,,,,,,,0,19,19,10,,,,,,,,,,,,,,,,,,,,,,,,,,,135,reward,,,,,,1049.3187466003,1049.3187466003,1049.3187466003,1049.3187466003,0,,,1,0.025121700018644333,0.4980461997911334,0,,,0,,,1050.3257067003287,1050.3257067003287,1050.3257067003287,1050.3257067003287,6,B,2024-04-17_11h18.28.935,attentional_competition_task,2022.2.4,143.90042033850622,
positions.xlsx,positions_test.xlsx,positions_test_new.xlsx,stimuli.xlsx,stimuli_new.xlsx,stimuli/Social2.png,stimuli/Social1.png,stimuli/Nonsocial2.png,stimuli/Nonsocial1.png,stimuli/Social4.png,stimuli/Social3.png,stimuli/Nonsocial4.png,stimuli/Nonsocial3.png,,,"(-0.7, -0.5)",cs_neg_ns,"(-0.7, 0.5)",cs_pos_s,"(0.7, -0.5)",cs_neg_s,"(0.7, 0.5)",cs_pos_ns,0,0,0,0,,,,,,,,,,,,,,,,,,,,,0,20,20,12,,,,,,,,,,,,,,,,,,,,,,,,,,,138,loss,,,,,,1057.8531747004017,1057.8531747004017,1057.8531747004017,1057.8531747004017,1,0.33660299982875586,0.33660690020769835,1,0.023855399806052446,0.32299660006538033,0,,,0,,,1058.1864678002894,1058.1864678002894,1058.1864678002894,1058.1864678002894,6,B,2024-04-17_11h18.28.935,attentional_competition_task,2022.2.4,143.90042033850622,
positions.xlsx,positions_test.xlsx,positions_test_new.xlsx,stimuli.xlsx,stimuli_new.xlsx,stimuli/Social2.png,stimuli/Social1.png,stimuli/Nonsocial2.png,stimuli/Nonsocial1.png,stimuli/Social4.png,stimuli/Social3.png,stimuli/Nonsocial4.png,stimuli/Nonsocial3.png,,,"(-0.7, -0.5)",cs_pos_ns,"(-0.7, 0.5)",cs_neg_ns,"(0.7, -0.5)",cs_neg_s,"(0.7, 0.5)",cs_pos_s,0,0,0,0,,,,,,,,,,,,,,,,,,,,,0,21,21,21,,,,,,,,,,,,,,,,,,,,,,,,,,,141,reward,,,,,,1066.588850500062,1066.588850500062,1066.588850500062,1066.588850500062,1,0.023609799798578024,0.02361410018056631,0,,,0,,,0,,,1066.588850500062,1066.588850500062,1066.588850500062,1066.588850500062,6,B,2024-04-17_11h18.28.935,attentional_competition_task,2022.2.4,143.90042033850622,
positions.xlsx,positions_test.xlsx,positions_test_new.xlsx,stimuli.xlsx,stimuli_new.xlsx,stimuli/Social2.png,stimuli/Social1.png,stimuli/Nonsocial2.png,stimuli/Nonsocial1.png,stimuli/Social4.png,stimuli/Social3.png,stimuli/Nonsocial4.png,stimuli/Nonsocial3.png,,,"(-0.7, -0.5)",cs_neg_s,"(-0.7, 0.5)",cs_pos_s,"(0.7, -0.5)",cs_neg_ns,"(0.7, 0.5)",cs_pos_ns,0,0,0,0,,,,,,,,,,,,,,,,,,,,,0,22,22,0,,,,,,,,,,,,,,,,,,,,,,,,,,,144,loss,,,,,,1074.5746722002514,1074.5746722002514,1074.5746722002514,1074.5746722002514,0,,,0,,,1,0.3098621000535786,0.30986540019512177,1,0.023771199863404036,0.28268419997766614,1074.8940974003635,1074.8940974003635,1074.8940974003635,1074.8940974003635,6,B,2024-04-17_11h18.28.935,attentional_competition_task,2022.2.4,143.90042033850622,
positions.xlsx,positions_test.xlsx,positions_test_new.xlsx,stimuli.xlsx,stimuli_new.xlsx,stimuli/Social2.png,stimuli/Social1.png,stimuli/Nonsocial2.png,stimuli/Nonsocial1.png,stimuli/Social4.png,stimuli/Social3.png,stimuli/Nonsocial4.png,stimuli/Nonsocial3.png,,,"(-0.7, -0.5)",cs_pos_s,"(-0.7, 0.5)",cs_neg_ns,"(0.7, -0.5)",cs_neg_s,"(0.7, 0.5)",cs_pos_ns,0,0,0,0,,,,,,,,,,,,,,,,,,,,,0,23,23,8,,,,,,,,,,,,,,,,,,,,,,,,,,,147,reward,,,,,,1083.4285543002188,1083.4285543002188,1083.4285543002188,1083.4285543002188,0,,,0,,,0,,,1,0.02663879981264472,0.026642399840056896,1083.4285543002188,1083.4285543002188,1083.4285543002188,1083.4285543002188,6,B,2024-04-17_11h18.28.935,attentional_competition_task,2022.2.4,143.90042033850622,
positions.xlsx,positions_test.xlsx,positions_test_new.xlsx,stimuli.xlsx,stimuli_new.xlsx,stimuli/Social2.png,stimuli/Social1.png,stimuli/Nonsocial2.png,stimuli/Nonsocial1.png,stimuli/Social4.png,stimuli/Social3.png,stimuli/Nonsocial4.png,stimuli/Nonsocial3.png,,,"(-0.7, -0.5)",cs_pos_ns,"(-0.7, 0.5)",cs_pos_s,"(0.7, -0.5)",cs_neg_ns,"(0.7, 0.5)",cs_neg_s,0,0,0,0,,,,,,,,,,,,,,,,,,,,,1,0,24,18,,,,,,,,,,,,,,,,,,,,,,,,,,,156,reward,,,,,,1091.8031675000675,1091.8031675000675,1091.8031675000675,1091.8031675000675,1,0.02820929978042841,0.49438749998807907,0,,,0,,,0,,,1092.7962043001316,1092.7962043001316,1092.7962043001316,1092.7962043001316,6,B,2024-04-17_11h18.28.935,attentional_competition_task,2022.2.4,143.90042033850622,
positions.xlsx,positions_test.xlsx,positions_test_new.xlsx,stimuli.xlsx,stimuli_new.xlsx,stimuli/Social2.png,stimuli/Social1.png,stimuli/Nonsocial2.png,stimuli/Nonsocial1.png,stimuli/Social4.png,stimuli/Social3.png,stimuli/Nonsocial4.png,stimuli/Nonsocial3.png,,,"(-0.7, -0.5)",cs_pos_ns,"(-0.7, 0.5)",cs_pos_s,"(0.7, -0.5)",cs_neg_s,"(0.7, 0.5)",cs_neg_ns,0,0,0,0,,,,,,,,,,,,,,,,,,,,,1,1,25,19,,,,,,,,,,,,,,,,,,,,,,,,,,,165,reward,,,,,,1100.4694771002978,1100.4694771002978,1100.4694771002978,1100.4694771002978,0,,,1,0.029603800270706415,0.46046810038387775,0,,,0,,,1101.4347411002964,1101.4347411002964,1101.4347411002964,1101.4347411002964,6,B,2024-04-17_11h18.28.935,attentional_competition_task,2022.2.4,143.90042033850622,
positions.xlsx,positions_test.xlsx,positions_test_new.xlsx,stimuli.xlsx,stimuli_new.xlsx,stimuli/Social2.png,stimuli/Social1.png,stimuli/Nonsocial2.png,stimuli/Nonsocial1.png,stimuli/Social4.png,stimuli/Social3.png,stimuli/Nonsocial4.png,stimuli/Nonsocial3.png,,,"(-0.7, -0.5)",cs_neg_s,"(-0.7, 0.5)",cs_pos_s,"(0.7, -0.5)",cs_neg_ns,"(0.7, 0.5)",cs_pos_ns,0,0,0,0,,,,,,,,,,,,,,,,,,,,,1,2,26,0,,,,,,,,,,,,,,,,,,,,,,,,,,,174,reward,,,,,,1109.2538618003018,1109.2538618003018,1109.2538618003018,1109.2538618003018,0,,,0,,,0,,,1,0.02596720028668642,0.5256750001572073,1110.2816025000066,1110.2816025000066,1110.2816025000066,1110.2816025000066,6,B,2024-04-17_11h18.28.935,attentional_competition_task,2022.2.4,143.90042033850622,
positions.xlsx,positions_test.xlsx,positions_test_new.xlsx,stimuli.xlsx,stimuli_new.xlsx,stimuli/Social2.png,stimuli/Social1.png,stimuli/Nonsocial2.png,stimuli/Nonsocial1.png,stimuli/Social4.png,stimuli/Social3.png,stimuli/Nonsocial4.png,stimuli/Nonsocial3.png,,,"(-0.7, -0.5)",cs_pos_ns,"(-0.7, 0.5)",cs_neg_s,"(0.7, -0.5)",cs_pos_s,"(0.7, 0.5)",cs_neg_ns,0,0,0,0,,,,,,,,,,,,,,,,,,,,,1,3,27,22,,,,,,,,,,,,,,,,,,,,,,,,,,,183,reward,,,,,,1117.788250700105,1117.788250700105,1117.788250700105,1117.788250700105,0,,,0,,,0,,,0,,,1118.5729677001946,1118.5729677001946,1118.5729677001946,1118.5729677001946,6,B,2024-04-17_11h18.28.935,attentional_competition_task,2022.2.4,143.90042033850622,
positions.xlsx,positions_test.xlsx,positions_test_new.xlsx,stimuli.xlsx,stimuli_new.xlsx,stimuli/Social2.png,stimuli/Social1.png,stimuli/Nonsocial2.png,stimuli/Nonsocial1.png,stimuli/Social4.png,stimuli/Social3.png,stimuli/Nonsocial4.png,stimuli/Nonsocial3.png,,,"(-0.7, -0.5)",cs_neg_ns,"(-0.7, 0.5)",cs_pos_s,"(0.7, -0.5)",cs_neg_s,"(0.7, 0.5)",cs_pos_ns,0,0,0,0,,,,,,,,,,,,,,,,,,,,,1,4,28,12,,,,,,,,,,,,,,,,,,,,,,,,,,,192,reward,,,,,,1126.9684357000515,1126.9684357000515,1126.9684357000515,1126.9684357000515,0,,,0,,,0,,,1,0.025626500137150288,0.14424070017412305,1127.6142584001645,1127.6142584001645,1127.6142584001645,1127.6142584001645,6,B,2024-04-17_11h18.28.935,attentional_competition_task,2022.2.4,143.90042033850622,
positions.xlsx,positions_test.xlsx,positions_test_new.xlsx,stimuli.xlsx,stimuli_new.xlsx,stimuli/Social2.png,stimuli/Social1.png,stimuli/Nonsocial2.png,stimuli/Nonsocial1.png,stimuli/Social4.png,stimuli/Social3.png,stimuli/Nonsocial4.png,stimuli/Nonsocial3.png,,,"(-0.7, -0.5)",cs_pos_s,"(-0.7, 0.5)",cs_neg_s,"(0.7, -0.5)",cs_pos_ns,"(0.7, 0.5)",cs_neg_ns,0,0,0,0,,,,,,,,,,,,,,,,,,,,,1,5,29,7,,,,,,,,,,,,,,,,,,,,,,,,,,,195,reward,,,,,,1136.1625131000765,1136.1625131000765,1136.1625131000765,1136.1625131000765,0,,,0,,,1,0.02530460013076663,0.025308300275355577,0,,,1136.1625131000765,1136.1625131000765,1136.1625131000765,1136.1625131000765,6,B,2024-04-17_11h18.28.935,attentional_competition_task,2022.2.4,143.90042033850622,
positions.xlsx,positions_test.xlsx,positions_test_new.xlsx,stimuli.xlsx,stimuli_new.xlsx,stimuli/Social2.png,stimuli/Social1.png,stimuli/Nonsocial2.png,stimuli/Nonsocial1.png,stimuli/Social4.png,stimuli/Social3.png,stimuli/Nonsocial4.png,stimuli/Nonsocial3.png,,,"(-0.7, -0.5)",cs_pos_s,"(-0.7, 0.5)",cs_neg_ns,"(0.7, -0.5)",cs_neg_s,"(0.7, 0.5)",cs_pos_ns,0,0,0,0,,,,,,,,,,,,,,,,,,,,,1,6,30,8,,,,,,,,,,,,,,,,,,,,,,,,,,,204,reward,,,,,,1144.0510923000984,1144.0510923000984,1144.0510923000984,1144.0510923000984,0,,,0,,,0,,,1,0.025220199953764677,0.46910540014505386,1145.0233287001029,1145.0233287001029,1145.0233287001029,1145.0233287001029,6,B,2024-04-17_11h18.28.935,attentional_competition_task,2022.2.4,143.90042033850622,
positions.xlsx,positions_test.xlsx,positions_test_new.xlsx,stimuli.xlsx,stimuli_new.xlsx,stimuli/Social2.png,stimuli/Social1.png,stimuli/Nonsocial2.png,stimuli/Nonsocial1.png,stimuli/Social4.png,stimuli/Social3.png,stimuli/Nonsocial4.png,stimuli/Nonsocial3.png,,,"(-0.7, -0.5)",cs_pos_ns,"(-0.7, 0.5)",cs_neg_ns,"(0.7, -0.5)",cs_pos_s,"(0.7, 0.5)",cs_neg_s,0,0,0,0,,,,,,,,,,,,,,,,,,,,,1,7,31,20,,,,,,,,,,,,,,,,,,,,,,,,,,,207,reward,,,,,,1153.4674100000411,1153.4674100000411,1153.4674100000411,1153.4674100000411,1,0.023118500132113695,0.02312250016257167,0,,,0,,,0,,,1153.4674100000411,1153.4674100000411,1153.4674100000411,1153.4674100000411,6,B,2024-04-17_11h18.28.935,attentional_competition_task,2022.2.4,143.90042033850622,
positions.xlsx,positions_test.xlsx,positions_test_new.xlsx,stimuli.xlsx,stimuli_new.xlsx,stimuli/Social2.png,stimuli/Social1.png,stimuli/Nonsocial2.png,stimuli/Nonsocial1.png,stimuli/Social4.png,stimuli/Social3.png,stimuli/Nonsocial4.png,stimuli/Nonsocial3.png,,,"(-0.7, -0.5)",cs_pos_s,"(-0.7, 0.5)",cs_neg_s,"(0.7, -0.5)",cs_neg_ns,"(0.7, 0.5)",cs_pos_ns,0,0,0,0,,,,,,,,,,,,,,,,,,,,,1,8,32,6,,,,,,,,,,,,,,,,,,,,,,,,,,,207,reward,,,,,,1161.9045628001913,1161.9045628001913,1161.9045628001913,1161.9045628001913,1,0.030691599939018488,0.030695700086653233,0,,,0,,,0,,,1161.9045628001913,1161.9045628001913,1161.9045628001913,1161.9045628001913,6,B,2024-04-17_11h18.28.935,attentional_competition_task,2022.2.4,143.90042033850622,
positions.xlsx,positions_test.xlsx,positions_test_new.xlsx,stimuli.xlsx,stimuli_new.xlsx,stimuli/Social2.png,stimuli/Social1.png,stimuli/Nonsocial2.png,stimuli/Nonsocial1.png,stimuli/Social4.png,stimuli/Social3.png,stimuli/Nonsocial4.png,stimuli/Nonsocial3.png,,,"(-0.7, -0.5)",cs_neg_s,"(-0.7, 0.5)",cs_pos_ns,"(0.7, -0.5)",cs_pos_s,"(0.7, 0.5)",cs_neg_ns,0,0,0,0,,,,,,,,,,,,,,,,,,,,,1,9,33,4,,,,,,,,,,,,,,,,,,,,,,,,,,,210,reward,,,,,,1170.7653443003073,1170.7653443003073,1170.7653443003073,1170.7653443003073,0,,,1,0.023916900157928467,0.023920599836856127,0,,,0,,,1170.7653443003073,1170.7653443003073,1170.7653443003073,1170.7653443003073,6,B,2024-04-17_11h18.28.935,attentional_competition_task,2022.2.4,143.90042033850622,
positions.xlsx,positions_test.xlsx,positions_test_new.xlsx,stimuli.xlsx,stimuli_new.xlsx,stimuli/Social2.png,stimuli/Social1.png,stimuli/Nonsocial2.png,stimuli/Nonsocial1.png,stimuli/Social4.png,stimuli/Social3.png,stimuli/Nonsocial4.png,stimuli/Nonsocial3.png,,,"(-0.7, -0.5)",cs_neg_s,"(-0.7, 0.5)",cs_pos_s,"(0.7, -0.5)",cs_pos_ns,"(0.7, 0.5)",cs_neg_ns,0,0,0,0,,,,,,,,,,,,,,,,,,,,,1,10,34,1,,,,,,,,,,,,,,,,,,,,,,,,,,,213,reward,,,,,,1179.6608098000288,1179.6608098000288,1179.6608098000288,1179.6608098000288,0,,,0,,,1,0.030183800030499697,0.030187599826604128,0,,,1179.6608098000288,1179.6608098000288,1179.6608098000288,1179.6608098000288,6,B,2024-04-17_11h18.28.935,attentional_competition_task,2022.2.4,143.90042033850622,
positions.xlsx,positions_test.xlsx,positions_test_new.xlsx,stimuli.xlsx,stimuli_new.xlsx,stimuli/Social2.png,stimuli/Social1.png,stimuli/Nonsocial2.png,stimuli/Nonsocial1.png,stimuli/Social4.png,stimuli/Social3.png,stimuli/Nonsocial4.png,stimuli/Nonsocial3.png,,,"(-0.7, -0.5)",cs_neg_ns,"(-0.7, 0.5)",cs_neg_s,"(0.7, -0.5)",cs_pos_s,"(0.7, 0.5)",cs_pos_ns,0,0,0,0,,,,,,,,,,,,,,,,,,,,,1,11,35,14,,,,,,,,,,,,,,,,,,,,,,,,,,,216,loss,,,,,,1187.7507058000192,1187.7507058000192,1187.7507058000192,1187.7507058000192,1,0.02898429986089468,0.0289881001226604,0,,,0,,,0,,,1187.7507058000192,1187.7507058000192,1187.7507058000192,1187.7507058000192,6,B,2024-04-17_11h18.28.935,attentional_competition_task,2022.2.4,143.90042033850622,
positions.xlsx,positions_test.xlsx,positions_test_new.xlsx,stimuli.xlsx,stimuli_new.xlsx,stimuli/Social2.png,stimuli/Social1.png,stimuli/Nonsocial2.png,stimuli/Nonsocial1.png,stimuli/Social4.png,stimuli/Social3.png,stimuli/Nonsocial4.png,stimuli/Nonsocial3.png,,,"(-0.7, -0.5)",cs_pos_ns,"(-0.7, 0.5)",cs_neg_s,"(0.7, -0.5)",cs_neg_ns,"(0.7, 0.5)",cs_pos_s,0,0,0,0,,,,,,,,,,,,,,,,,,,,,1,12,36,23,,,,,,,,,,,,,,,,,,,,,,,,,,,225,reward,,,,,,1196.910111900419,1196.910111900419,1196.910111900419,1196.910111900419,1,0.02885460015386343,0.48173539992421865,0,,,0,,,0,,,1197.896178100258,1197.896178100258,1197.896178100258,1197.896178100258,6,B,2024-04-17_11h18.28.935,attentional_competition_task,2022.2.4,143.90042033850622,
positions.xlsx,positions_test.xlsx,positions_test_new.xlsx,stimuli.xlsx,stimuli_new.xlsx,stimuli/Social2.png,stimuli/Social1.png,stimuli/Nonsocial2.png,stimuli/Nonsocial1.png,stimuli/Social4.png,stimuli/Social3.png,stimuli/Nonsocial4.png,stimuli/Nonsocial3.png,,,"(-0.7, -0.5)",cs_neg_s,"(-0.7, 0.5)",cs_neg_ns,"(0.7, -0.5)",cs_pos_s,"(0.7, 0.5)",cs_pos_ns,0,0,0,0,,,,,,,,,,,,,,,,,,,,,1,13,37,2,,,,,,,,,,,,,,,,,,,,,,,,,,,234,reward,,,,,,1206.1250706003048,1206.1250706003048,1206.1250706003048,1206.1250706003048,0,,,0,,,0,,,1,0.023401900194585323,0.43428790010511875,1207.0625163000077,1207.0625163000077,1207.0625163000077,1207.0625163000077,6,B,2024-04-17_11h18.28.935,attentional_competition_task,2022.2.4,143.90042033850622,
positions.xlsx,positions_test.xlsx,positions_test_new.xlsx,stimuli.xlsx,stimuli_new.xlsx,stimuli/Social2.png,stimuli/Social1.png,stimuli/Nonsocial2.png,stimuli/Nonsocial1.png,stimuli/Social4.png,stimuli/Social3.png,stimuli/Nonsocial4.png,stimuli/Nonsocial3.png,,,"(-0.7, -0.5)",cs_pos_s,"(-0.7, 0.5)",cs_pos_ns,"(0.7, -0.5)",cs_neg_ns,"(0.7, 0.5)",cs_neg_s,0,0,0,0,,,,,,,,,,,,,,,,,,,,,1,14,38,11,,,,,,,,,,,,,,,,,,,,,,,,,,,231,reward,,,,,,1214.7774282000028,1214.7774282000028,1214.7774282000028,1214.7774282000028,1,0.037903499789536,0.03790719993412495,0,,,0,,,0,,,1214.8260588003322,1214.8260588003322,1214.8260588003322,1214.8260588003322,6,B,2024-04-17_11h18.28.935,attentional_competition_task,2022.2.4,143.90042033850622,
positions.xlsx,positions_test.xlsx,positions_test_new.xlsx,stimuli.xlsx,stimuli_new.xlsx,stimuli/Social2.png,stimuli/Social1.png,stimuli/Nonsocial2.png,stimuli/Nonsocial1.png,stimuli/Social4.png,stimuli/Social3.png,stimuli/Nonsocial4.png,stimuli/Nonsocial3.png,,,"(-0.7, -0.5)",cs_neg_s,"(-0.7, 0.5)",cs_pos_ns,"(0.7, -0.5)",cs_neg_ns,"(0.7, 0.5)",cs_pos_s,0,0,0,0,,,,,,,,,,,,,,,,,,,,,1,15,39,5,,,,,,,,,,,,,,,,,,,,,,,,,,,234,reward,,,,,,1223.5062798000872,1223.5062798000872,1223.5062798000872,1223.5062798000872,0,,,1,0.023012500256299973,0.02301620040088892,0,,,0,,,1223.5062798000872,1223.5062798000872,1223.5062798000872,1223.5062798000872,6,B,2024-04-17_11h18.28.935,attentional_competition_task,2022.2.4,143.90042033850622,
positions.xlsx,positions_test.xlsx,positions_test_new.xlsx,stimuli.xlsx,stimuli_new.xlsx,stimuli/Social2.png,stimuli/Social1.png,stimuli/Nonsocial2.png,stimuli/Nonsocial1.png,stimuli/Social4.png,stimuli/Social3.png,stimuli/Nonsocial4.png,stimuli/Nonsocial3.png,,,"(-0.7, -0.5)",cs_neg_s,"(-0.7, 0.5)",cs_neg_ns,"(0.7, -0.5)",cs_pos_ns,"(0.7, 0.5)",cs_pos_s,0,0,0,0,,,,,,,,,,,,,,,,,,,,,1,16,40,3,,,,,,,,,,,,,,,,,,,,,,,,,,,243,reward,,,,,,1232.0545241003856,1232.0545241003856,1232.0545241003856,1232.0545241003856,0,,,0,,,1,0.023763599805533886,0.32968739978969097,0,,,1232.8878521001898,1232.8878521001898,1232.8878521001898,1232.8878521001898,6,B,2024-04-17_11h18.28.935,attentional_competition_task,2022.2.4,143.90042033850622,
positions.xlsx,positions_test.xlsx,positions_test_new.xlsx,stimuli.xlsx,stimuli_new.xlsx,stimuli/Social2.png,stimuli/Social1.png,stimuli/Nonsocial2.png,stimuli/Nonsocial1.png,stimuli/Social4.png,stimuli/Social3.png,stimuli/Nonsocial4.png,stimuli/Nonsocial3.png,,,"(-0.7, -0.5)",cs_neg_ns,"(-0.7, 0.5)",cs_pos_ns,"(0.7, -0.5)",cs_neg_s,"(0.7, 0.5)",cs_pos_s,0,0,0,0,,,,,,,,,,,,,,,,,,,,,1,17,41,17,,,,,,,,,,,,,,,,,,,,,,,,,,,252,reward,,,,,,1241.0888924002647,1241.0888924002647,1241.0888924002647,1241.0888924002647,0,,,1,0.02613369980826974,0.3519855998456478,0,,,0,,,1241.943072900176,1241.943072900176,1241.943072900176,1241.943072900176,6,B,2024-04-17_11h18.28.935,attentional_competition_task,2022.2.4,143.90042033850622,
positions.xlsx,positions_test.xlsx,positions_test_new.xlsx,stimuli.xlsx,stimuli_new.xlsx,stimuli/Social2.png,stimuli/Social1.png,stimuli/Nonsocial2.png,stimuli/Nonsocial1.png,stimuli/Social4.png,stimuli/Social3.png,stimuli/Nonsocial4.png,stimuli/Nonsocial3.png,,,"(-0.7, -0.5)",cs_pos_s,"(-0.7, 0.5)",cs_neg_ns,"(0.7, -0.5)",cs_pos_ns,"(0.7, 0.5)",cs_neg_s,0,0,0,0,,,,,,,,,,,,,,,,,,,,,1,18,42,9,,,,,,,,,,,,,,,,,,,,,,,,,,,255,reward,,,,,,1250.192713400349,1250.192713400349,1250.192713400349,1250.192713400349,1,0.27376440027728677,0.2737682000733912,0,,,0,,,0,,,1250.4705373002216,1250.4705373002216,1250.4705373002216,1250.4705373002216,6,B,2024-04-17_11h18.28.935,attentional_competition_task,2022.2.4,143.90042033850622,
positions.xlsx,positions_test.xlsx,positions_test_new.xlsx,stimuli.xlsx,stimuli_new.xlsx,stimuli/Social2.png,stimuli/Social1.png,stimuli/Nonsocial2.png,stimuli/Nonsocial1.png,stimuli/Social4.png,stimuli/Social3.png,stimuli/Nonsocial4.png,stimuli/Nonsocial3.png,,,"(-0.7, -0.5)",cs_pos_ns,"(-0.7, 0.5)",cs_neg_ns,"(0.7, -0.5)",cs_neg_s,"(0.7, 0.5)",cs_pos_s,0,0,0,0,,,,,,,,,,,,,,,,,,,,,1,19,43,21,,,,,,,,,,,,,,,,,,,,,,,,,,,258,reward,,,,,,1259.1576334000565,1259.1576334000565,1259.1576334000565,1259.1576334000565,1,0.022409299854189157,0.022413100115954876,0,,,0,,,0,,,1259.1576334000565,1259.1576334000565,1259.1576334000565,1259.1576334000565,6,B,2024-04-17_11h18.28.935,attentional_competition_task,2022.2.4,143.90042033850622,
positions.xlsx,positions_test.xlsx,positions_test_new.xlsx,stimuli.xlsx,stimuli_new.xlsx,stimuli/Social2.png,stimuli/Social1.png,stimuli/Nonsocial2.png,stimuli/Nonsocial1.png,stimuli/Social4.png,stimuli/Social3.png,stimuli/Nonsocial4.png,stimuli/Nonsocial3.png,,,"(-0.7, -0.5)",cs_neg_ns,"(-0.7, 0.5)",cs_neg_s,"(0.7, -0.5)",cs_pos_ns,"(0.7, 0.5)",cs_pos_s,0,0,0,0,,,,,,,,,,,,,,,,,,,,,1,20,44,15,,,,,,,,,,,,,,,,,,,,,,,,,,,267,reward,,,,,,1267.8100823001005,1267.8100823001005,1267.8100823001005,1267.8100823001005,0,,,0,,,1,0.20639059972018003,0.4770257999189198,0,,,1268.8100464004092,1268.8100464004092,1268.8100464004092,1268.8100464004092,6,B,2024-04-17_11h18.28.935,attentional_competition_task,2022.2.4,143.90042033850622,
positions.xlsx,positions_test.xlsx,positions_test_new.xlsx,stimuli.xlsx,stimuli_new.xlsx,stimuli/Social2.png,stimuli/Social1.png,stimuli/Nonsocial2.png,stimuli/Nonsocial1.png,stimuli/Social4.png,stimuli/Social3.png,stimuli/Nonsocial4.png,stimuli/Nonsocial3.png,,,"(-0.7, -0.5)",cs_pos_s,"(-0.7, 0.5)",cs_pos_ns,"(0.7, -0.5)",cs_neg_s,"(0.7, 0.5)",cs_neg_ns,0,0,0,0,,,,,,,,,,,,,,,,,,,,,1,21,45,10,,,,,,,,,,,,,,,,,,,,,,,,,,,276,reward,,,,,,1275.795890700072,1275.795890700072,1275.795890700072,1275.795890700072,0,,,1,0.03122950019314885,0.4751121997833252,0,,,0,,,1276.8166746003553,1276.8166746003553,1276.8166746003553,1276.8166746003553,6,B,2024-04-17_11h18.28.935,attentional_competition_task,2022.2.4,143.90042033850622,
positions.xlsx,positions_test.xlsx,positions_test_new.xlsx,stimuli.xlsx,stimuli_new.xlsx,stimuli/Social2.png,stimuli/Social1.png,stimuli/Nonsocial2.png,stimuli/Nonsocial1.png,stimuli/Social4.png,stimuli/Social3.png,stimuli/Nonsocial4.png,stimuli/Nonsocial3.png,,,"(-0.7, -0.5)",cs_neg_ns,"(-0.7, 0.5)",cs_pos_s,"(0.7, -0.5)",cs_pos_ns,"(0.7, 0.5)",cs_neg_s,0,0,0,0,,,,,,,,,,,,,,,,,,,,,1,22,46,13,,,,,,,,,,,,,,,,,,,,,,,,,,,279,loss,,,,,,1285.198289300315,1285.198289300315,1285.198289300315,1285.198289300315,0,,,0,,,1,0.027891300152987242,0.3766754004172981,1,0.3905895003117621,0.3975027003325522,1285.6010505002923,1285.6010505002923,1285.6010505002923,1285.6010505002923,6,B,2024-04-17_11h18.28.935,attentional_competition_task,2022.2.4,143.90042033850622,
positions.xlsx,positions_test.xlsx,positions_test_new.xlsx,stimuli.xlsx,stimuli_new.xlsx,stimuli/Social2.png,stimuli/Social1.png,stimuli/Nonsocial2.png,stimuli/Nonsocial1.png,stimuli/Social4.png,stimuli/Social3.png,stimuli/Nonsocial4.png,stimuli/Nonsocial3.png,,,"(-0.7, -0.5)",cs_neg_ns,"(-0.7, 0.5)",cs_pos_ns,"(0.7, -0.5)",cs_pos_s,"(0.7, 0.5)",cs_neg_s,0,0,0,0,,,,,,,,,,,,,,,,,,,,,1,23,47,16,,,,,,,,,,,,,,,,,,,,,,,,,,,276,reward,,,,,,1293.9548356002197,1293.9548356002197,1293.9548356002197,1293.9548356002197,0,,,1,0.024438700173050165,0.02444230020046234,0,,,0,,,1293.9548356002197,1293.9548356002197,1293.9548356002197,1293.9548356002197,6,B,2024-04-17_11h18.28.935,attentional_competition_task,2022.2.4,143.90042033850622,
positions.xlsx,positions_test.xlsx,positions_test_new.xlsx,stimuli.xlsx,stimuli_new.xlsx,stimuli/Social2.png,stimuli/Social1.png,stimuli/Nonsocial2.png,stimuli/Nonsocial1.png,stimuli/Social4.png,stimuli/Social3.png,stimuli/Nonsocial4.png,stimuli/Nonsocial3.png,,,"(-0.7, -0.5)",cs_pos_ns,"(-0.7, 0.5)",cs_pos_s,"(0.7, -0.5)",cs_neg_ns,"(0.7, 0.5)",cs_neg_s,0,0,0,0,,,,,,,,,,,,,,,,,,,,,,,,,,,,,0,0,0,1,0,0,0,0,,,,,,,,,,,,,,,279,reward,,,,,,1301.09348710021,1301.09348710021,1301.09348710021,1301.09348710021,0,,,1,0.4396393997594714,0.43964359955862164,0,,,0,,,1301.5448553999886,1301.5448553999886,1301.5448553999886,1301.5448553999886,6,B,2024-04-17_11h18.28.935,attentional_competition_task,2022.2.4,143.90042033850622,
positions.xlsx,positions_test.xlsx,positions_test_new.xlsx,stimuli.xlsx,stimuli_new.xlsx,stimuli/Social2.png,stimuli/Social1.png,stimuli/Nonsocial2.png,stimuli/Nonsocial1.png,stimuli/Social4.png,stimuli/Social3.png,stimuli/Nonsocial4.png,stimuli/Nonsocial3.png,,,"(-0.7, -0.5)",cs_pos_ns,"(-0.7, 0.5)",cs_pos_s,"(0.7, -0.5)",cs_neg_ns,"(0.7, 0.5)",cs_neg_s,0,0,0,0,,,,,,,,,,,,,,,,,,,,,,,,,,,,,0,0,0,1,1,0,1,0,,,,,,,,,,,,,,,282,reward,,,,,,1302.0795563003048,1302.0795563003048,1302.0795563003048,1302.0795563003048,1,0.030025199986994267,0.030029399786144495,0,,,0,,,0,,,1302.0795563003048,1302.0795563003048,1302.0795563003048,1302.0795563003048,6,B,2024-04-17_11h18.28.935,attentional_competition_task,2022.2.4,143.90042033850622,
positions.xlsx,positions_test.xlsx,positions_test_new.xlsx,stimuli.xlsx,stimuli_new.xlsx,stimuli/Social2.png,stimuli/Social1.png,stimuli/Nonsocial2.png,stimuli/Nonsocial1.png,stimuli/Social4.png,stimuli/Social3.png,stimuli/Nonsocial4.png,stimuli/Nonsocial3.png,,,"(-0.7, -0.5)",cs_pos_ns,"(-0.7, 0.5)",cs_pos_s,"(0.7, -0.5)",cs_neg_ns,"(0.7, 0.5)",cs_neg_s,0,0,0,0,,,,,,,,,,,,,,,,,,,,,,,,,,,,,0,0,0,1,2,0,2,0,,,,,,,,,,,,,,,285,reward,,,,,,1302.586471900344,1302.586471900344,1302.586471900344,1302.586471900344,2,0.027606800198554993,0.1260665999725461,0,,,0,,,0,,,1303.6073036002927,1303.6073036002927,1303.6073036002927,1303.6073036002927,6,B,2024-04-17_11h18.28.935,attentional_competition_task,2022.2.4,143.90042033850622,
positions.xlsx,positions_test.xlsx,positions_test_new.xlsx,stimuli.xlsx,stimuli_new.xlsx,stimuli/Social2.png,stimuli/Social1.png,stimuli/Nonsocial2.png,stimuli/Nonsocial1.png,stimuli/Social4.png,stimuli/Social3.png,stimuli/Nonsocial4.png,stimuli/Nonsocial3.png,,,"(-0.7, -0.5)",cs_pos_ns,"(-0.7, 0.5)",cs_pos_s,"(0.7, -0.5)",cs_neg_ns,"(0.7, 0.5)",cs_neg_s,0,0,0,0,,,,,,,,,,,,,,,,,,,,,,,,,,,,,0,0,0,1,,,,,,,,,,,,,,,,,,,,,,,,,,,,,,,,,,,,,,,,,,,,,,6,B,2024-04-17_11h18.28.935,attentional_competition_task,2022.2.4,143.90042033850622,
positions.xlsx,positions_test.xlsx,positions_test_new.xlsx,stimuli.xlsx,stimuli_new.xlsx,stimuli/Social2.png,stimuli/Social1.png,stimuli/Nonsocial2.png,stimuli/Nonsocial1.png,stimuli/Social4.png,stimuli/Social3.png,stimuli/Nonsocial4.png,stimuli/Nonsocial3.png,,,"(-0.7, -0.5)",cs_neg_s,"(-0.7, 0.5)",cs_pos_s_new,"(0.7, -0.5)",cs_pos_ns,"(0.7, 0.5)",cs_neg_ns,0,0,0,0,,,,,,,,,,,,,,,,,,,,,,,,,,,,,0,1,1,37,0,0,0,0,,,,,,,,,,,,,,,288,reward,,,,,,1309.773694100324,1309.773694100324,1309.773694100324,1309.773694100324,0,,,1,0.42590299993753433,0.4259067000821233,0,,,0,,,1310.2042413000017,1310.2042413000017,1310.2042413000017,1310.2042413000017,6,B,2024-04-17_11h18.28.935,attentional_competition_task,2022.2.4,143.90042033850622,
positions.xlsx,positions_test.xlsx,positions_test_new.xlsx,stimuli.xlsx,stimuli_new.xlsx,stimuli/Social2.png,stimuli/Social1.png,stimuli/Nonsocial2.png,stimuli/Nonsocial1.png,stimuli/Social4.png,stimuli/Social3.png,stimuli/Nonsocial4.png,stimuli/Nonsocial3.png,,,"(-0.7, -0.5)",cs_neg_s,"(-0.7, 0.5)",cs_pos_s_new,"(0.7, -0.5)",cs_pos_ns,"(0.7, 0.5)",cs_neg_ns,0,0,0,0,,,,,,,,,,,,,,,,,,,,,,,,,,,,,0,1,1,37,1,0,1,0,,,,,,,,,,,,,,,285,loss,,,,,,1310.7111436002888,1310.7111436002888,1310.7111436002888,1310.7111436002888,1,0.06429560016840696,0.06429930031299591,1,0.030288400128483772,0.0577157000079751,0,,,0,,,1310.7666875002906,1310.7666875002906,1310.7666875002906,1310.7666875002906,6,B,2024-04-17_11h18.28.935,attentional_competition_task,2022.2.4,143.90042033850622,
positions.xlsx,positions_test.xlsx,positions_test_new.xlsx,stimuli.xlsx,stimuli_new.xlsx,stimuli/Social2.png,stimuli/Social1.png,stimuli/Nonsocial2.png,stimuli/Nonsocial1.png,stimuli/Social4.png,stimuli/Social3.png,stimuli/Nonsocial4.png,stimuli/Nonsocial3.png,,,"(-0.7, -0.5)",cs_neg_s,"(-0.7, 0.5)",cs_pos_s_new,"(0.7, -0.5)",cs_pos_ns,"(0.7, 0.5)",cs_neg_ns,0,0,0,0,,,,,,,,,,,,,,,,,,,,,,,,,,,,,0,1,1,37,2,0,2,0,,,,,,,,,,,,,,,282,loss,,,,,,1311.2666893000714,1311.2666893000714,1311.2666893000714,1311.2666893000714,0,,,1,0.023361700121313334,0.07963360007852316,0,,,1,0.20513739995658398,0.20514110010117292,1311.4819837003015,1311.4819837003015,1311.4819837003015,1311.4819837003015,6,B,2024-04-17_11h18.28.935,attentional_competition_task,2022.2.4,143.90042033850622,
positions.xlsx,positions_test.xlsx,positions_test_new.xlsx,stimuli.xlsx,stimuli_new.xlsx,stimuli/Social2.png,stimuli/Social1.png,stimuli/Nonsocial2.png,stimuli/Nonsocial1.png,stimuli/Social4.png,stimuli/Social3.png,stimuli/Nonsocial4.png,stimuli/Nonsocial3.png,,,"(-0.7, -0.5)",cs_neg_s,"(-0.7, 0.5)",cs_pos_s_new,"(0.7, -0.5)",cs_pos_ns,"(0.7, 0.5)",cs_neg_ns,0,0,0,0,,,,,,,,,,,,,,,,,,,,,,,,,,,,,0,1,1,37,,,,,,,,,,,,,,,,,,,,,,,,,,,,,,,,,,,,,,,,,,,,,,6,B,2024-04-17_11h18.28.935,attentional_competition_task,2022.2.4,143.90042033850622,
positions.xlsx,positions_test.xlsx,positions_test_new.xlsx,stimuli.xlsx,stimuli_new.xlsx,stimuli/Social2.png,stimuli/Social1.png,stimuli/Nonsocial2.png,stimuli/Nonsocial1.png,stimuli/Social4.png,stimuli/Social3.png,stimuli/Nonsocial4.png,stimuli/Nonsocial3.png,,,"(-0.7, -0.5)",cs_pos_s_new,"(-0.7, 0.5)",cs_neg_s,"(0.7, -0.5)",cs_pos_ns,"(0.7, 0.5)",cs_neg_ns,0,0,0,0,,,,,,,,,,,,,,,,,,,,,,,,,,,,,0,2,2,29,0,0,0,0,,,,,,,,,,,,,,,285,reward,,,,,,1317.6067329002544,1317.6067329002544,1317.6067329002544,1317.6067329002544,0,,,0,,,1,0.21803370025008917,0.22524730022996664,0,,,1317.842808100395,1317.842808100395,1317.842808100395,1317.842808100395,6,B,2024-04-17_11h18.28.935,attentional_competition_task,2022.2.4,143.90042033850622,
positions.xlsx,positions_test.xlsx,positions_test_new.xlsx,stimuli.xlsx,stimuli_new.xlsx,stimuli/Social2.png,stimuli/Social1.png,stimuli/Nonsocial2.png,stimuli/Nonsocial1.png,stimuli/Social4.png,stimuli/Social3.png,stimuli/Nonsocial4.png,stimuli/Nonsocial3.png,,,"(-0.7, -0.5)",cs_pos_s_new,"(-0.7, 0.5)",cs_neg_s,"(0.7, -0.5)",cs_pos_ns,"(0.7, 0.5)",cs_neg_ns,0,0,0,0,,,,,,,,,,,,,,,,,,,,,,,,,,,,,0,2,2,29,1,0,1,0,,,,,,,,,,,,,,,282,loss,,,,,,1318.3706006002612,1318.3706006002612,1318.3706006002612,1318.3706006002612,0,,,1,0.028148800134658813,0.02815289981663227,0,,,0,,,1318.3706006002612,1318.3706006002612,1318.3706006002612,1318.3706006002612,6,B,2024-04-17_11h18.28.935,attentional_competition_task,2022.2.4,143.90042033850622,
positions.xlsx,positions_test.xlsx,positions_test_new.xlsx,stimuli.xlsx,stimuli_new.xlsx,stimuli/Social2.png,stimuli/Social1.png,stimuli/Nonsocial2.png,stimuli/Nonsocial1.png,stimuli/Social4.png,stimuli/Social3.png,stimuli/Nonsocial4.png,stimuli/Nonsocial3.png,,,"(-0.7, -0.5)",cs_pos_s_new,"(-0.7, 0.5)",cs_neg_s,"(0.7, -0.5)",cs_pos_ns,"(0.7, 0.5)",cs_neg_ns,0,0,0,0,,,,,,,,,,,,,,,,,,,,,,,,,,,,,0,2,2,29,2,0,2,0,,,,,,,,,,,,,,,285,reward,,,,,,1318.9052691999823,1318.9052691999823,1318.9052691999823,1318.9052691999823,1,0.024398199748247862,0.024402199778705835,0,,,0,,,0,,,1318.9052691999823,1318.9052691999823,1318.9052691999823,1318.9052691999823,6,B,2024-04-17_11h18.28.935,attentional_competition_task,2022.2.4,143.90042033850622,
positions.xlsx,positions_test.xlsx,positions_test_new.xlsx,stimuli.xlsx,stimuli_new.xlsx,stimuli/Social2.png,stimuli/Social1.png,stimuli/Nonsocial2.png,stimuli/Nonsocial1.png,stimuli/Social4.png,stimuli/Social3.png,stimuli/Nonsocial4.png,stimuli/Nonsocial3.png,,,"(-0.7, -0.5)",cs_pos_s_new,"(-0.7, 0.5)",cs_neg_s,"(0.7, -0.5)",cs_pos_ns,"(0.7, 0.5)",cs_neg_ns,0,0,0,0,,,,,,,,,,,,,,,,,,,,,,,,,,,,,0,2,2,29,3,0,3,0,,,,,,,,,,,,,,,288,reward,,,,,,1319.4122319002636,1319.4122319002636,1319.4122319002636,1319.4122319002636,1,0.030899799894541502,0.21792799979448318,0,,,0,,,0,,,1320.1274366001599,1320.1274366001599,1320.1274366001599,1320.1274366001599,6,B,2024-04-17_11h18.28.935,attentional_competition_task,2022.2.4,143.90042033850622,
positions.xlsx,positions_test.xlsx,positions_test_new.xlsx,stimuli.xlsx,stimuli_new.xlsx,stimuli/Social2.png,stimuli/Social1.png,stimuli/Nonsocial2.png,stimuli/Nonsocial1.png,stimuli/Social4.png,stimuli/Social3.png,stimuli/Nonsocial4.png,stimuli/Nonsocial3.png,,,"(-0.7, -0.5)",cs_pos_s_new,"(-0.7, 0.5)",cs_neg_s,"(0.7, -0.5)",cs_pos_ns,"(0.7, 0.5)",cs_neg_ns,0,0,0,0,,,,,,,,,,,,,,,,,,,,,,,,,,,,,0,2,2,29,,,,,,,,,,,,,,,,,,,,,,,,,,,,,,,,,,,,,,,,,,,,,,6,B,2024-04-17_11h18.28.935,attentional_competition_task,2022.2.4,143.90042033850622,
positions.xlsx,positions_test.xlsx,positions_test_new.xlsx,stimuli.xlsx,stimuli_new.xlsx,stimuli/Social2.png,stimuli/Social1.png,stimuli/Nonsocial2.png,stimuli/Nonsocial1.png,stimuli/Social4.png,stimuli/Social3.png,stimuli/Nonsocial4.png,stimuli/Nonsocial3.png,,,"(-0.7, -0.5)",cs_pos_s_new,"(-0.7, 0.5)",cs_pos_ns,"(0.7, -0.5)",cs_neg_s,"(0.7, 0.5)",cs_neg_ns,0,0,0,0,,,,,,,,,,,,,,,,,,,,,,,,,,,,,0,3,3,34,0,0,0,0,,,,,,,,,,,,,,,291,reward,,,,,,1326.425814000424,1326.425814000424,1326.425814000424,1326.425814000424,1,0.40457759983837605,0.404581299982965,0,,,0,,,0,,,1326.8354953001253,1326.8354953001253,1326.8354953001253,1326.8354953001253,6,B,2024-04-17_11h18.28.935,attentional_competition_task,2022.2.4,143.90042033850622,
positions.xlsx,positions_test.xlsx,positions_test_new.xlsx,stimuli.xlsx,stimuli_new.xlsx,stimuli/Social2.png,stimuli/Social1.png,stimuli/Nonsocial2.png,stimuli/Nonsocial1.png,stimuli/Social4.png,stimuli/Social3.png,stimuli/Nonsocial4.png,stimuli/Nonsocial3.png,,,"(-0.7, -0.5)",cs_pos_s_new,"(-0.7, 0.5)",cs_pos_ns,"(0.7, -0.5)",cs_neg_s,"(0.7, 0.5)",cs_neg_ns,0,0,0,0,,,,,,,,,,,,,,,,,,,,,,,,,,,,,0,3,3,34,1,0,1,0,,,,,,,,,,,,,,,294,reward,,,,,,1327.370279500261,1327.370279500261,1327.370279500261,1327.370279500261,0,,,1,0.03121459996327758,0.031218900345265865,0,,,0,,,1327.370279500261,1327.370279500261,1327.370279500261,1327.370279500261,6,B,2024-04-17_11h18.28.935,attentional_competition_task,2022.2.4,143.90042033850622,
positions.xlsx,positions_test.xlsx,positions_test_new.xlsx,stimuli.xlsx,stimuli_new.xlsx,stimuli/Social2.png,stimuli/Social1.png,stimuli/Nonsocial2.png,stimuli/Nonsocial1.png,stimuli/Social4.png,stimuli/Social3.png,stimuli/Nonsocial4.png,stimuli/Nonsocial3.png,,,"(-0.7, -0.5)",cs_pos_s_new,"(-0.7, 0.5)",cs_pos_ns,"(0.7, -0.5)",cs_neg_s,"(0.7, 0.5)",cs_neg_ns,0,0,0,0,,,,,,,,,,,,,,,,,,,,,,,,,,,,,0,3,3,34,2,0,2,0,,,,,,,,,,,,,,,297,reward,,,,,,1327.8702381001785,1327.8702381001785,1327.8702381001785,1327.8702381001785,1,0.3147146999835968,0.5633046999573708,1,0.027479100041091442,0.2873114999383688,0,,,0,,,1328.9396186000668,1328.9396186000668,1328.9396186000668,1328.9396186000668,6,B,2024-04-17_11h18.28.935,attentional_competition_task,2022.2.4,143.90042033850622,
positions.xlsx,positions_test.xlsx,positions_test_new.xlsx,stimuli.xlsx,stimuli_new.xlsx,stimuli/Social2.png,stimuli/Social1.png,stimuli/Nonsocial2.png,stimuli/Nonsocial1.png,stimuli/Social4.png,stimuli/Social3.png,stimuli/Nonsocial4.png,stimuli/Nonsocial3.png,,,"(-0.7, -0.5)",cs_pos_s_new,"(-0.7, 0.5)",cs_pos_ns,"(0.7, -0.5)",cs_neg_s,"(0.7, 0.5)",cs_neg_ns,0,0,0,0,,,,,,,,,,,,,,,,,,,,,,,,,,,,,0,3,3,34,,,,,,,,,,,,,,,,,,,,,,,,,,,,,,,,,,,,,,,,,,,,,,6,B,2024-04-17_11h18.28.935,attentional_competition_task,2022.2.4,143.90042033850622,
positions.xlsx,positions_test.xlsx,positions_test_new.xlsx,stimuli.xlsx,stimuli_new.xlsx,stimuli/Social2.png,stimuli/Social1.png,stimuli/Nonsocial2.png,stimuli/Nonsocial1.png,stimuli/Social4.png,stimuli/Social3.png,stimuli/Nonsocial4.png,stimuli/Nonsocial3.png,,,"(-0.7, -0.5)",cs_neg_s_new,"(-0.7, 0.5)",cs_pos_s,"(0.7, -0.5)",cs_neg_ns,"(0.7, 0.5)",cs_pos_ns,0,0,0,0,,,,,,,,,,,,,,,,,,,,,,,,,,,,,0,4,4,12,0,0,0,0,,,,,,,,,,,,,,,300,reward,,,,,,1335.203215900343,1335.203215900343,1335.203215900343,1335.203215900343,0,,,1,0.5527248000726104,0.5527282999828458,0,,,0,,,1335.7657214002684,1335.7657214002684,1335.7657214002684,1335.7657214002684,6,B,2024-04-17_11h18.28.935,attentional_competition_task,2022.2.4,143.90042033850622,
positions.xlsx,positions_test.xlsx,positions_test_new.xlsx,stimuli.xlsx,stimuli_new.xlsx,stimuli/Social2.png,stimuli/Social1.png,stimuli/Nonsocial2.png,stimuli/Nonsocial1.png,stimuli/Social4.png,stimuli/Social3.png,stimuli/Nonsocial4.png,stimuli/Nonsocial3.png,,,"(-0.7, -0.5)",cs_neg_s_new,"(-0.7, 0.5)",cs_pos_s,"(0.7, -0.5)",cs_neg_ns,"(0.7, 0.5)",cs_pos_ns,0,0,0,0,,,,,,,,,,,,,,,,,,,,,,,,,,,,,0,4,4,12,1,0,1,0,,,,,,,,,,,,,,,297,loss,,,,,,1336.2934886002913,1336.2934886002913,1336.2934886002913,1336.2934886002913,1,0.026456099934875965,0.026459800079464912,0,,,0,,,0,,,1336.2934886002913,1336.2934886002913,1336.2934886002913,1336.2934886002913,6,B,2024-04-17_11h18.28.935,attentional_competition_task,2022.2.4,143.90042033850622,
positions.xlsx,positions_test.xlsx,positions_test_new.xlsx,stimuli.xlsx,stimuli_new.xlsx,stimuli/Social2.png,stimuli/Social1.png,stimuli/Nonsocial2.png,stimuli/Nonsocial1.png,stimuli/Social4.png,stimuli/Social3.png,stimuli/Nonsocial4.png,stimuli/Nonsocial3.png,,,"(-0.7, -0.5)",cs_neg_s_new,"(-0.7, 0.5)",cs_pos_s,"(0.7, -0.5)",cs_neg_ns,"(0.7, 0.5)",cs_pos_ns,0,0,0,0,,,,,,,,,,,,,,,,,,,,,,,,,,,,,0,4,4,12,2,0,2,0,,,,,,,,,,,,,,,294,loss,,,,,,1336.7934346999973,1336.7934346999973,1336.7934346999973,1336.7934346999973,0,,,1,0.038877200335264206,0.3577129002660513,0,,,1,0.4211598001420498,0.42116350028663874,1337.7170341000892,1337.7170341000892,1337.7170341000892,1337.7170341000892,6,B,2024-04-17_11h18.28.935,attentional_competition_task,2022.2.4,143.90042033850622,
positions.xlsx,positions_test.xlsx,positions_test_new.xlsx,stimuli.xlsx,stimuli_new.xlsx,stimuli/Social2.png,stimuli/Social1.png,stimuli/Nonsocial2.png,stimuli/Nonsocial1.png,stimuli/Social4.png,stimuli/Social3.png,stimuli/Nonsocial4.png,stimuli/Nonsocial3.png,,,"(-0.7, -0.5)",cs_neg_s_new,"(-0.7, 0.5)",cs_pos_s,"(0.7, -0.5)",cs_neg_ns,"(0.7, 0.5)",cs_pos_ns,0,0,0,0,,,,,,,,,,,,,,,,,,,,,,,,,,,,,0,4,4,12,,,,,,,,,,,,,,,,,,,,,,,,,,,,,,,,,,,,,,,,,,,,,,6,B,2024-04-17_11h18.28.935,attentional_competition_task,2022.2.4,143.90042033850622,
positions.xlsx,positions_test.xlsx,positions_test_new.xlsx,stimuli.xlsx,stimuli_new.xlsx,stimuli/Social2.png,stimuli/Social1.png,stimuli/Nonsocial2.png,stimuli/Nonsocial1.png,stimuli/Social4.png,stimuli/Social3.png,stimuli/Nonsocial4.png,stimuli/Nonsocial3.png,,,"(-0.7, -0.5)",cs_pos_s,"(-0.7, 0.5)",cs_neg_s_new,"(0.7, -0.5)",cs_pos_ns,"(0.7, 0.5)",cs_neg_ns,0,0,0,0,,,,,,,,,,,,,,,,,,,,,,,,,,,,,0,5,5,10,0,0,0,0,,,,,,,,,,,,,,,291,loss,,,,,,1344.4251013002358,1344.4251013002358,1344.4251013002358,1344.4251013002358,0,,,1,0.22404819959774613,0.23107899958267808,0,,,0,,,1344.6612181002274,1344.6612181002274,1344.6612181002274,1344.6612181002274,6,B,2024-04-17_11h18.28.935,attentional_competition_task,2022.2.4,143.90042033850622,
positions.xlsx,positions_test.xlsx,positions_test_new.xlsx,stimuli.xlsx,stimuli_new.xlsx,stimuli/Social2.png,stimuli/Social1.png,stimuli/Nonsocial2.png,stimuli/Nonsocial1.png,stimuli/Social4.png,stimuli/Social3.png,stimuli/Nonsocial4.png,stimuli/Nonsocial3.png,,,"(-0.7, -0.5)",cs_pos_s,"(-0.7, 0.5)",cs_neg_s_new,"(0.7, -0.5)",cs_pos_ns,"(0.7, 0.5)",cs_neg_ns,0,0,0,0,,,,,,,,,,,,,,,,,,,,,,,,,,,,,0,5,5,10,1,0,1,0,,,,,,,,,,,,,,,294,reward,,,,,,1345.1958942003548,1345.1958942003548,1345.1958942003548,1345.1958942003548,1,0.030513899866491556,0.030517600011080503,0,,,0,,,0,,,1345.1958942003548,1345.1958942003548,1345.1958942003548,1345.1958942003548,6,B,2024-04-17_11h18.28.935,attentional_competition_task,2022.2.4,143.90042033850622,
positions.xlsx,positions_test.xlsx,positions_test_new.xlsx,stimuli.xlsx,stimuli_new.xlsx,stimuli/Social2.png,stimuli/Social1.png,stimuli/Nonsocial2.png,stimuli/Nonsocial1.png,stimuli/Social4.png,stimuli/Social3.png,stimuli/Nonsocial4.png,stimuli/Nonsocial3.png,,,"(-0.7, -0.5)",cs_pos_s,"(-0.7, 0.5)",cs_neg_s_new,"(0.7, -0.5)",cs_pos_ns,"(0.7, 0.5)",cs_neg_ns,0,0,0,0,,,,,,,,,,,,,,,,,,,,,,,,,,,,,0,5,5,10,2,0,2,0,,,,,,,,,,,,,,,297,reward,,,,,,1345.7306028003804,1345.7306028003804,1345.7306028003804,1345.7306028003804,0,,,0,,,1,0.02978650014847517,0.029791200067847967,0,,,1345.7306028003804,1345.7306028003804,1345.7306028003804,1345.7306028003804,6,B,2024-04-17_11h18.28.935,attentional_competition_task,2022.2.4,143.90042033850622,
positions.xlsx,positions_test.xlsx,positions_test_new.xlsx,stimuli.xlsx,stimuli_new.xlsx,stimuli/Social2.png,stimuli/Social1.png,stimuli/Nonsocial2.png,stimuli/Nonsocial1.png,stimuli/Social4.png,stimuli/Social3.png,stimuli/Nonsocial4.png,stimuli/Nonsocial3.png,,,"(-0.7, -0.5)",cs_pos_s,"(-0.7, 0.5)",cs_neg_s_new,"(0.7, -0.5)",cs_pos_ns,"(0.7, 0.5)",cs_neg_ns,0,0,0,0,,,,,,,,,,,,,,,,,,,,,,,,,,,,,0,5,5,10,3,0,3,0,,,,,,,,,,,,,,,300,reward,,,,,,1346.2375157000497,1346.2375157000497,1346.2375157000497,1346.2375157000497,1,0.1820753999054432,0.2030322002246976,0,,,1,0.029389200266450644,0.12003830028697848,0,,,1346.9388948003761,1346.9388948003761,1346.9388948003761,1346.9388948003761,6,B,2024-04-17_11h18.28.935,attentional_competition_task,2022.2.4,143.90042033850622,
positions.xlsx,positions_test.xlsx,positions_test_new.xlsx,stimuli.xlsx,stimuli_new.xlsx,stimuli/Social2.png,stimuli/Social1.png,stimuli/Nonsocial2.png,stimuli/Nonsocial1.png,stimuli/Social4.png,stimuli/Social3.png,stimuli/Nonsocial4.png,stimuli/Nonsocial3.png,,,"(-0.7, -0.5)",cs_pos_s,"(-0.7, 0.5)",cs_neg_s_new,"(0.7, -0.5)",cs_pos_ns,"(0.7, 0.5)",cs_neg_ns,0,0,0,0,,,,,,,,,,,,,,,,,,,,,,,,,,,,,0,5,5,10,,,,,,,,,,,,,,,,,,,,,,,,,,,,,,,,,,,,,,,,,,,,,,6,B,2024-04-17_11h18.28.935,attentional_competition_task,2022.2.4,143.90042033850622,
positions.xlsx,positions_test.xlsx,positions_test_new.xlsx,stimuli.xlsx,stimuli_new.xlsx,stimuli/Social2.png,stimuli/Social1.png,stimuli/Nonsocial2.png,stimuli/Nonsocial1.png,stimuli/Social4.png,stimuli/Social3.png,stimuli/Nonsocial4.png,stimuli/Nonsocial3.png,,,"(-0.7, -0.5)",cs_pos_s,"(-0.7, 0.5)",cs_pos_ns_new,"(0.7, -0.5)",cs_neg_s,"(0.7, 0.5)",cs_neg_ns,0,0,0,0,,,,,,,,,,,,,,,,,,,,,,,,,,,,,0,6,6,46,0,0,0,0,,,,,,,,,,,,,,,303,reward,,,,,,1353.4317065002397,1353.4317065002397,1353.4317065002397,1353.4317065002397,1,0.4741595000959933,0.47416310012340546,0,,,0,,,0,,,1353.9108760003,1353.9108760003,1353.9108760003,1353.9108760003,6,B,2024-04-17_11h18.28.935,attentional_competition_task,2022.2.4,143.90042033850622,
positions.xlsx,positions_test.xlsx,positions_test_new.xlsx,stimuli.xlsx,stimuli_new.xlsx,stimuli/Social2.png,stimuli/Social1.png,stimuli/Nonsocial2.png,stimuli/Nonsocial1.png,stimuli/Social4.png,stimuli/Social3.png,stimuli/Nonsocial4.png,stimuli/Nonsocial3.png,,,"(-0.7, -0.5)",cs_pos_s,"(-0.7, 0.5)",cs_pos_ns_new,"(0.7, -0.5)",cs_neg_s,"(0.7, 0.5)",cs_neg_ns,0,0,0,0,,,,,,,,,,,,,,,,,,,,,,,,,,,,,0,6,6,46,1,0,1,0,,,,,,,,,,,,,,,306,reward,,,,,,1354.4385813004337,1354.4385813004337,1354.4385813004337,1354.4385813004337,0,,,1,0.03002980025485158,0.030033700168132782,0,,,0,,,1354.4385813004337,1354.4385813004337,1354.4385813004337,1354.4385813004337,6,B,2024-04-17_11h18.28.935,attentional_competition_task,2022.2.4,143.90042033850622,
positions.xlsx,positions_test.xlsx,positions_test_new.xlsx,stimuli.xlsx,stimuli_new.xlsx,stimuli/Social2.png,stimuli/Social1.png,stimuli/Nonsocial2.png,stimuli/Nonsocial1.png,stimuli/Social4.png,stimuli/Social3.png,stimuli/Nonsocial4.png,stimuli/Nonsocial3.png,,,"(-0.7, -0.5)",cs_pos_s,"(-0.7, 0.5)",cs_pos_ns_new,"(0.7, -0.5)",cs_neg_s,"(0.7, 0.5)",cs_neg_ns,0,0,0,0,,,,,,,,,,,,,,,,,,,,,,,,,,,,,0,6,6,46,2,0,2,0,,,,,,,,,,,,,,,309,reward,,,,,,1354.9455055003054,1354.9455055003054,1354.9455055003054,1354.9455055003054,0,,,1,0.07265640003606677,0.4963475000113249,0,,,0,,,1355.9385911002755,1355.9385911002755,1355.9385911002755,1355.9385911002755,6,B,2024-04-17_11h18.28.935,attentional_competition_task,2022.2.4,143.90042033850622,
positions.xlsx,positions_test.xlsx,positions_test_new.xlsx,stimuli.xlsx,stimuli_new.xlsx,stimuli/Social2.png,stimuli/Social1.png,stimuli/Nonsocial2.png,stimuli/Nonsocial1.png,stimuli/Social4.png,stimuli/Social3.png,stimuli/Nonsocial4.png,stimuli/Nonsocial3.png,,,"(-0.7, -0.5)",cs_pos_s,"(-0.7, 0.5)",cs_pos_ns_new,"(0.7, -0.5)",cs_neg_s,"(0.7, 0.5)",cs_neg_ns,0,0,0,0,,,,,,,,,,,,,,,,,,,,,,,,,,,,,0,6,6,46,,,,,,,,,,,,,,,,,,,,,,,,,,,,,,,,,,,,,,,,,,,,,,6,B,2024-04-17_11h18.28.935,attentional_competition_task,2022.2.4,143.90042033850622,
positions.xlsx,positions_test.xlsx,positions_test_new.xlsx,stimuli.xlsx,stimuli_new.xlsx,stimuli/Social2.png,stimuli/Social1.png,stimuli/Nonsocial2.png,stimuli/Nonsocial1.png,stimuli/Social4.png,stimuli/Social3.png,stimuli/Nonsocial4.png,stimuli/Nonsocial3.png,,,"(-0.7, -0.5)",cs_pos_s,"(-0.7, 0.5)",cs_pos_ns,"(0.7, -0.5)",cs_neg_s_new,"(0.7, 0.5)",cs_neg_ns,0,0,0,0,,,,,,,,,,,,,,,,,,,,,,,,,,,,,0,7,7,11,0,0,0,0,,,,,,,,,,,,,,,312,reward,,,,,,1362.3063401002437,1362.3063401002437,1362.3063401002437,1362.3063401002437,1,0.38424350041896105,0.3976321001537144,0,,,0,,,0,,,1362.709091800265,1362.709091800265,1362.709091800265,1362.709091800265,6,B,2024-04-17_11h18.28.935,attentional_competition_task,2022.2.4,143.90042033850622,
