posFile,posFileTest,posFileTestNew,stimFile,stimFileNew,cs_neg_s,cs_pos_s,cs_neg_ns,cs_pos_ns,cs_neg_s_new,cs_pos_s_new,cs_neg_ns_new,cs_pos_ns_new,stim,position,position1,stim1,position2,stim2,position3,stim3,position4,stim4,blocks.thisRepN,blocks.thisTrialN,blocks.thisN,blocks.thisIndex,ratingtrials1.thisRepN,ratingtrials1.thisTrialN,ratingtrials1.thisN,ratingtrials1.thisIndex,search_task_trials.thisRepN,search_task_trials.thisTrialN,search_task_trials.thisN,search_task_trials.thisIndex,learning_trials.thisRepN,learning_trials.thisTrialN,learning_trials.thisN,learning_trials.thisIndex,trials.thisRepN,trials.thisTrialN,trials.thisN,trials.thisIndex,ratingtrials2.thisRepN,ratingtrials2.thisTrialN,ratingtrials2.thisN,ratingtrials2.thisIndex,testtrials.thisRepN,testtrials.thisTrialN,testtrials.thisN,testtrials.thisIndex,loop_test.thisRepN,loop_test.thisTrialN,loop_test.thisN,loop_test.thisIndex,testtrials_novelty.thisRepN,testtrials_novelty.thisTrialN,testtrials_novelty.thisN,testtrials_novelty.thisIndex,loop_test_novelty.thisRepN,loop_test_novelty.thisTrialN,loop_test_novelty.thisN,loop_test_novelty.thisIndex,ratingtrials3.thisRepN,ratingtrials3.thisTrialN,ratingtrials3.thisN,ratingtrials3.thisIndex,textStart.started,textStartExp.started,imageRating.started,sliderStim.response,sliderStim.rt,textStartSearch.started,target_positions,distractor_positions,textStartTask.started,image.started,score,outcome,roi.numLooks,roi.timesOn,roi.timesOff,imageFeedback.started,textTestInstr.started,test_image1.started,test_image2.started,test_image3.started,test_image4.started,test_roi1.numLooks,test_roi1.timesOn,test_roi1.timesOff,test_roi2.numLooks,test_roi2.timesOn,test_roi2.timesOff,test_roi3.numLooks,test_roi3.timesOn,test_roi3.timesOff,test_roi4.numLooks,test_roi4.timesOn,test_roi4.timesOff,test_image_feedback1.started,test_image_feedback2.started,test_iamge_feedback3.started,test_iamge_feedback4.started,participant,group,date,expName,psychopyVersion,frameRate,
positions.xlsx,positions_test.xlsx,positions_test_new.xlsx,stimuli.xlsx,stimuli_new.xlsx,stimuli/Social4.png,stimuli/Social3.png,stimuli/Nonsocial4.png,stimuli/Nonsocial3.png,stimuli/Social2.png,stimuli/Social1.png,stimuli/Nonsocial2.png,stimuli/Nonsocial1.png,cs_pos_s,,,,,,,,,,0,0,0,0,0,0,0,2,,,,,,,,,,,,,,,,,,,,,,,,,,,,,,,,,,,,,13.560966699998971,118.85360519999813,133.2077590000008,4.0,12.347823000000062,,,,,,,,,,,,,,,,,,,,,,,,,,,,,,,,,36,D,2024-05-15_14h29.16.772,attentional_competition_task,2022.2.4,144.0131570357511,
positions.xlsx,positions_test.xlsx,positions_test_new.xlsx,stimuli.xlsx,stimuli_new.xlsx,stimuli/Social4.png,stimuli/Social3.png,stimuli/Nonsocial4.png,stimuli/Nonsocial3.png,stimuli/Social2.png,stimuli/Social1.png,stimuli/Nonsocial2.png,stimuli/Nonsocial1.png,cs_pos_ns,,,,,,,,,,0,0,0,0,0,1,1,3,,,,,,,,,,,,,,,,,,,,,,,,,,,,,,,,,,,,,,,151.5194922999981,9.0,6.367302800001198,,,,,,,,,,,,,,,,,,,,,,,,,,,,,,,,,36,D,2024-05-15_14h29.16.772,attentional_competition_task,2022.2.4,144.0131570357511,
positions.xlsx,positions_test.xlsx,positions_test_new.xlsx,stimuli.xlsx,stimuli_new.xlsx,stimuli/Social4.png,stimuli/Social3.png,stimuli/Nonsocial4.png,stimuli/Nonsocial3.png,stimuli/Social2.png,stimuli/Social1.png,stimuli/Nonsocial2.png,stimuli/Nonsocial1.png,cs_neg_s,,,,,,,,,,0,0,0,0,0,2,2,0,,,,,,,,,,,,,,,,,,,,,,,,,,,,,,,,,,,,,,,161.15799759999936,6.0,3.7732002999982797,,,,,,,,,,,,,,,,,,,,,,,,,,,,,,,,,36,D,2024-05-15_14h29.16.772,attentional_competition_task,2022.2.4,144.0131570357511,
positions.xlsx,positions_test.xlsx,positions_test_new.xlsx,stimuli.xlsx,stimuli_new.xlsx,stimuli/Social4.png,stimuli/Social3.png,stimuli/Nonsocial4.png,stimuli/Nonsocial3.png,stimuli/Social2.png,stimuli/Social1.png,stimuli/Nonsocial2.png,stimuli/Nonsocial1.png,cs_neg_ns,,,,,,,,,,0,0,0,0,0,3,3,1,,,,,,,,,,,,,,,,,,,,,,,,,,,,,,,,,,,,,,,166.74802070000078,9.0,3.5287754999990284,,,,,,,,,,,,,,,,,,,,,,,,,,,,,,,,,36,D,2024-05-15_14h29.16.772,attentional_competition_task,2022.2.4,144.0131570357511,
positions.xlsx,positions_test.xlsx,positions_test_new.xlsx,stimuli.xlsx,stimuli_new.xlsx,stimuli/Social4.png,stimuli/Social3.png,stimuli/Nonsocial4.png,stimuli/Nonsocial3.png,stimuli/Social2.png,stimuli/Social1.png,stimuli/Nonsocial2.png,stimuli/Nonsocial1.png,,,,,,,,,,,0,0,0,0,,,,,0,0,0,0,,,,,,,,,,,,,,,,,,,,,,,,,,,,,,,,,,,,,,171.72699049999937,"[[0.45000000000000007, -0.30000000000000004], [0.9, -0.30000000000000004], [0.6749999999999999, 0.19999999999999996], [0.6749999999999999, -0.30000000000000004], [-0.9, 0.19999999999999996], [0.45000000000000007, 0.19999999999999996], [0.0, -0.30000000000000004], [-0.45, -0.8], [-0.675, -0.8], [0.22499999999999998, 0.19999999999999996], [-0.9, -0.30000000000000004], [-0.675, 0.19999999999999996], [0.22499999999999998, -0.30000000000000004], [0.9, 0.7], [0.6749999999999999, 0.7]]","[[-0.45, -0.30000000000000004], [0.22499999999999998, 0.7], [0.45000000000000007, -0.8], [-0.675, -0.30000000000000004], [0.0, 0.19999999999999996], [-0.9, 0.7], [0.9, -0.8], [-0.22499999999999998, -0.30000000000000004], [-0.45, 0.19999999999999996], [-0.22499999999999998, -0.8], [-0.675, 0.7], [0.45000000000000007, 0.7], [0.0, -0.8], [0.6749999999999999, -0.8], [-0.22499999999999998, 0.19999999999999996]]",,,,,,,,,,,,,,,,,,,,,,,,,,,,,,36,D,2024-05-15_14h29.16.772,attentional_competition_task,2022.2.4,144.0131570357511,
positions.xlsx,positions_test.xlsx,positions_test_new.xlsx,stimuli.xlsx,stimuli_new.xlsx,stimuli/Social4.png,stimuli/Social3.png,stimuli/Nonsocial4.png,stimuli/Nonsocial3.png,stimuli/Social2.png,stimuli/Social1.png,stimuli/Nonsocial2.png,stimuli/Nonsocial1.png,,,,,,,,,,,0,0,0,0,,,,,1,0,1,0,,,,,,,,,,,,,,,,,,,,,,,,,,,,,,,,,,,,,,,"[[0.22499999999999998, -0.8], [-0.675, -0.8], [-0.22499999999999998, 0.7], [-0.675, 0.7], [-0.22499999999999998, -0.8], [-0.45, -0.30000000000000004], [-0.675, -0.30000000000000004], [0.6749999999999999, 0.19999999999999996], [0.45000000000000007, 0.7], [-0.45, 0.19999999999999996], [0.9, 0.19999999999999996], [0.0, 0.7], [0.45000000000000007, 0.19999999999999996], [0.22499999999999998, 0.19999999999999996], [-0.9, -0.8]]","[[0.0, -0.8], [0.9, 0.7], [0.9, -0.8], [-0.9, -0.30000000000000004], [-0.45, 0.7], [-0.22499999999999998, 0.19999999999999996], [0.6749999999999999, -0.8], [-0.675, 0.19999999999999996], [0.45000000000000007, -0.30000000000000004], [-0.22499999999999998, -0.30000000000000004], [-0.9, 0.7], [0.0, 0.19999999999999996], [-0.45, -0.8], [0.6749999999999999, 0.7], [0.22499999999999998, -0.30000000000000004]]",,,,,,,,,,,,,,,,,,,,,,,,,,,,,,36,D,2024-05-15_14h29.16.772,attentional_competition_task,2022.2.4,144.0131570357511,
positions.xlsx,positions_test.xlsx,positions_test_new.xlsx,stimuli.xlsx,stimuli_new.xlsx,stimuli/Social4.png,stimuli/Social3.png,stimuli/Nonsocial4.png,stimuli/Nonsocial3.png,stimuli/Social2.png,stimuli/Social1.png,stimuli/Nonsocial2.png,stimuli/Nonsocial1.png,cs_pos_ns,"(0.7, -0.5)",,,,,,,,,0,0,0,0,,,,,,,,,0,0,0,15,,,,,,,,,,,,,,,,,,,,,,,,,,,,,,,,,,,,,263.0566485999989,283.694703000001,3,reward,1,0.4864476000002469,0.48645140000007814,284.18773409999994,,,,,,,,,,,,,,,,,,,,,,36,D,2024-05-15_14h29.16.772,attentional_competition_task,2022.2.4,144.0131570357511,
positions.xlsx,positions_test.xlsx,positions_test_new.xlsx,stimuli.xlsx,stimuli_new.xlsx,stimuli/Social4.png,stimuli/Social3.png,stimuli/Nonsocial4.png,stimuli/Nonsocial3.png,stimuli/Social2.png,stimuli/Social1.png,stimuli/Nonsocial2.png,stimuli/Nonsocial1.png,cs_neg_s,"(-0.7, 0.5)",,,,,,,,,0,0,0,0,,,,,,,,,0,1,1,0,,,,,,,,,,,,,,,,,,,,,,,,,,,,,,,,,,,,,,292.3610517999987,0,loss,1,0.931102299997292,0.9311063999994076,293.29847710000104,,,,,,,,,,,,,,,,,,,,,,36,D,2024-05-15_14h29.16.772,attentional_competition_task,2022.2.4,144.0131570357511,
positions.xlsx,positions_test.xlsx,positions_test_new.xlsx,stimuli.xlsx,stimuli_new.xlsx,stimuli/Social4.png,stimuli/Social3.png,stimuli/Nonsocial4.png,stimuli/Nonsocial3.png,stimuli/Social2.png,stimuli/Social1.png,stimuli/Nonsocial2.png,stimuli/Nonsocial1.png,cs_neg_s,"(0.7, 0.5)",,,,,,,,,0,0,0,0,,,,,,,,,0,2,2,2,,,,,,,,,,,,,,,,,,,,,,,,,,,,,,,,,,,,,,300.54124890000094,0,none,0,,,303.5550368000004,,,,,,,,,,,,,,,,,,,,,,36,D,2024-05-15_14h29.16.772,attentional_competition_task,2022.2.4,144.0131570357511,
positions.xlsx,positions_test.xlsx,positions_test_new.xlsx,stimuli.xlsx,stimuli_new.xlsx,stimuli/Social4.png,stimuli/Social3.png,stimuli/Nonsocial4.png,stimuli/Nonsocial3.png,stimuli/Social2.png,stimuli/Social1.png,stimuli/Nonsocial2.png,stimuli/Nonsocial1.png,cs_neg_ns,"(0.7, 0.5)",,,,,,,,,0,0,0,0,,,,,,,,,0,3,3,10,,,,,,,,,,,,,,,,,,,,,,,,,,,,,,,,,,,,,,311.8532621999984,-3,loss,1,0.632430800000293,0.6324347000008856,312.492124299999,,,,,,,,,,,,,,,,,,,,,,36,D,2024-05-15_14h29.16.772,attentional_competition_task,2022.2.4,144.0131570357511,
positions.xlsx,positions_test.xlsx,positions_test_new.xlsx,stimuli.xlsx,stimuli_new.xlsx,stimuli/Social4.png,stimuli/Social3.png,stimuli/Nonsocial4.png,stimuli/Nonsocial3.png,stimuli/Social2.png,stimuli/Social1.png,stimuli/Nonsocial2.png,stimuli/Nonsocial1.png,cs_neg_ns,"(0.7, -0.5)",,,,,,,,,0,0,0,0,,,,,,,,,0,4,4,11,,,,,,,,,,,,,,,,,,,,,,,,,,,,,,,,,,,,,,320.3112509999992,-6,loss,1,0.5279694000018935,0.5279733999996097,320.84599049999815,,,,,,,,,,,,,,,,,,,,,,36,D,2024-05-15_14h29.16.772,attentional_competition_task,2022.2.4,144.0131570357511,
positions.xlsx,positions_test.xlsx,positions_test_new.xlsx,stimuli.xlsx,stimuli_new.xlsx,stimuli/Social4.png,stimuli/Social3.png,stimuli/Nonsocial4.png,stimuli/Nonsocial3.png,stimuli/Social2.png,stimuli/Social1.png,stimuli/Nonsocial2.png,stimuli/Nonsocial1.png,cs_neg_ns,"(-0.7, -0.5)",,,,,,,,,0,0,0,0,,,,,,,,,0,5,5,9,,,,,,,,,,,,,,,,,,,,,,,,,,,,,,,,,,,,,,328.9151036000003,-9,loss,1,0.8823321999989275,0.8823360999995202,329.8040078000013,,,,,,,,,,,,,,,,,,,,,,36,D,2024-05-15_14h29.16.772,attentional_competition_task,2022.2.4,144.0131570357511,
positions.xlsx,positions_test.xlsx,positions_test_new.xlsx,stimuli.xlsx,stimuli_new.xlsx,stimuli/Social4.png,stimuli/Social3.png,stimuli/Nonsocial4.png,stimuli/Nonsocial3.png,stimuli/Social2.png,stimuli/Social1.png,stimuli/Nonsocial2.png,stimuli/Nonsocial1.png,cs_pos_s,"(0.7, -0.5)",,,,,,,,,0,0,0,0,,,,,,,,,0,6,6,7,,,,,,,,,,,,,,,,,,,,,,,,,,,,,,,,,,,,,,337.8522219000006,-6,reward,1,0.5068213999984437,0.5068251999982749,338.36613800000123,,,,,,,,,,,,,,,,,,,,,,36,D,2024-05-15_14h29.16.772,attentional_competition_task,2022.2.4,144.0131570357511,
positions.xlsx,positions_test.xlsx,positions_test_new.xlsx,stimuli.xlsx,stimuli_new.xlsx,stimuli/Social4.png,stimuli/Social3.png,stimuli/Nonsocial4.png,stimuli/Nonsocial3.png,stimuli/Social2.png,stimuli/Social1.png,stimuli/Nonsocial2.png,stimuli/Nonsocial1.png,cs_neg_s,"(0.7, -0.5)",,,,,,,,,0,0,0,0,,,,,,,,,0,7,7,3,,,,,,,,,,,,,,,,,,,,,,,,,,,,,,,,,,,,,,346.47686729999987,-9,loss,1,1.1945109000007506,1.1945144000019354,347.6782420999989,,,,,,,,,,,,,,,,,,,,,,36,D,2024-05-15_14h29.16.772,attentional_competition_task,2022.2.4,144.0131570357511,
positions.xlsx,positions_test.xlsx,positions_test_new.xlsx,stimuli.xlsx,stimuli_new.xlsx,stimuli/Social4.png,stimuli/Social3.png,stimuli/Nonsocial4.png,stimuli/Nonsocial3.png,stimuli/Social2.png,stimuli/Social1.png,stimuli/Nonsocial2.png,stimuli/Nonsocial1.png,cs_pos_ns,"(-0.7, -0.5)",,,,,,,,,0,0,0,0,,,,,,,,,0,8,8,13,,,,,,,,,,,,,,,,,,,,,,,,,,,,,,,,,,,,,,355.9278970000014,-6,reward,1,0.6601504999998724,0.66015459999835,356.59456950000094,,,,,,,,,,,,,,,,,,,,,,36,D,2024-05-15_14h29.16.772,attentional_competition_task,2022.2.4,144.0131570357511,
positions.xlsx,positions_test.xlsx,positions_test_new.xlsx,stimuli.xlsx,stimuli_new.xlsx,stimuli/Social4.png,stimuli/Social3.png,stimuli/Nonsocial4.png,stimuli/Nonsocial3.png,stimuli/Social2.png,stimuli/Social1.png,stimuli/Nonsocial2.png,stimuli/Nonsocial1.png,cs_neg_s,"(-0.7, -0.5)",,,,,,,,,0,0,0,0,,,,,,,,,0,9,9,1,,,,,,,,,,,,,,,,,,,,,,,,,,,,,,,,,,,,,,364.344225599998,-6,none,0,,,367.3579648999985,,,,,,,,,,,,,,,,,,,,,,36,D,2024-05-15_14h29.16.772,attentional_competition_task,2022.2.4,144.0131570357511,
positions.xlsx,positions_test.xlsx,positions_test_new.xlsx,stimuli.xlsx,stimuli_new.xlsx,stimuli/Social4.png,stimuli/Social3.png,stimuli/Nonsocial4.png,stimuli/Nonsocial3.png,stimuli/Social2.png,stimuli/Social1.png,stimuli/Nonsocial2.png,stimuli/Nonsocial1.png,cs_pos_s,"(-0.7, -0.5)",,,,,,,,,0,0,0,0,,,,,,,,,0,10,10,5,,,,,,,,,,,,,,,,,,,,,,,,,,,,,,,,,,,,,,374.9479382999998,-3,reward,1,0.5207642999994277,0.5207678000006126,375.4756723999999,,,,,,,,,,,,,,,,,,,,,,36,D,2024-05-15_14h29.16.772,attentional_competition_task,2022.2.4,144.0131570357511,
positions.xlsx,positions_test.xlsx,positions_test_new.xlsx,stimuli.xlsx,stimuli_new.xlsx,stimuli/Social4.png,stimuli/Social3.png,stimuli/Nonsocial4.png,stimuli/Nonsocial3.png,stimuli/Social2.png,stimuli/Social1.png,stimuli/Nonsocial2.png,stimuli/Nonsocial1.png,cs_pos_ns,"(0.7, 0.5)",,,,,,,,,0,0,0,0,,,,,,,,,0,11,11,14,,,,,,,,,,,,,,,,,,,,,,,,,,,,,,,,,,,,,,383.1837263999987,0,reward,1,1.3613518999991356,1.3613556000018434,384.55174869999973,,,,,,,,,,,,,,,,,,,,,,36,D,2024-05-15_14h29.16.772,attentional_competition_task,2022.2.4,144.0131570357511,
positions.xlsx,positions_test.xlsx,positions_test_new.xlsx,stimuli.xlsx,stimuli_new.xlsx,stimuli/Social4.png,stimuli/Social3.png,stimuli/Nonsocial4.png,stimuli/Nonsocial3.png,stimuli/Social2.png,stimuli/Social1.png,stimuli/Nonsocial2.png,stimuli/Nonsocial1.png,cs_pos_ns,"(-0.7, 0.5)",,,,,,,,,0,0,0,0,,,,,,,,,0,12,12,12,,,,,,,,,,,,,,,,,,,,,,,,,,,,,,,,,,,,,,392.176429799998,3,reward,1,0.7436369999995804,0.7505447000003187,392.93331119999857,,,,,,,,,,,,,,,,,,,,,,36,D,2024-05-15_14h29.16.772,attentional_competition_task,2022.2.4,144.0131570357511,
positions.xlsx,positions_test.xlsx,positions_test_new.xlsx,stimuli.xlsx,stimuli_new.xlsx,stimuli/Social4.png,stimuli/Social3.png,stimuli/Nonsocial4.png,stimuli/Nonsocial3.png,stimuli/Social2.png,stimuli/Social1.png,stimuli/Nonsocial2.png,stimuli/Nonsocial1.png,cs_pos_s,"(0.7, 0.5)",,,,,,,,,0,0,0,0,,,,,,,,,0,13,13,6,,,,,,,,,,,,,,,,,,,,,,,,,,,,,,,,,,,,,,401.2316334999996,6,reward,1,0.6810973999999987,0.6811009999983071,401.91910049999933,,,,,,,,,,,,,,,,,,,,,,36,D,2024-05-15_14h29.16.772,attentional_competition_task,2022.2.4,144.0131570357511,
positions.xlsx,positions_test.xlsx,positions_test_new.xlsx,stimuli.xlsx,stimuli_new.xlsx,stimuli/Social4.png,stimuli/Social3.png,stimuli/Nonsocial4.png,stimuli/Nonsocial3.png,stimuli/Social2.png,stimuli/Social1.png,stimuli/Nonsocial2.png,stimuli/Nonsocial1.png,cs_neg_ns,"(-0.7, 0.5)",,,,,,,,,0,0,0,0,,,,,,,,,0,14,14,8,,,,,,,,,,,,,,,,,,,,,,,,,,,,,,,,,,,,,,409.9743324999981,3,loss,1,0.5348415999978897,0.5417978999976185,410.5229322999985,,,,,,,,,,,,,,,,,,,,,,36,D,2024-05-15_14h29.16.772,attentional_competition_task,2022.2.4,144.0131570357511,
positions.xlsx,positions_test.xlsx,positions_test_new.xlsx,stimuli.xlsx,stimuli_new.xlsx,stimuli/Social4.png,stimuli/Social3.png,stimuli/Nonsocial4.png,stimuli/Nonsocial3.png,stimuli/Social2.png,stimuli/Social1.png,stimuli/Nonsocial2.png,stimuli/Nonsocial1.png,cs_pos_s,"(-0.7, 0.5)",,,,,,,,,0,0,0,0,,,,,,,,,0,15,15,4,,,,,,,,,,,,,,,,,,,,,,,,,,,,,,,,,,,,,,418.5920531999982,6,reward,1,1.0140591000017594,1.0140629000015906,419.61285990000033,,,,,,,,,,,,,,,,,,,,,,36,D,2024-05-15_14h29.16.772,attentional_competition_task,2022.2.4,144.0131570357511,
positions.xlsx,positions_test.xlsx,positions_test_new.xlsx,stimuli.xlsx,stimuli_new.xlsx,stimuli/Social4.png,stimuli/Social3.png,stimuli/Nonsocial4.png,stimuli/Nonsocial3.png,stimuli/Social2.png,stimuli/Social1.png,stimuli/Nonsocial2.png,stimuli/Nonsocial1.png,cs_pos_ns,"(0.7, -0.5)",,,,,,,,,0,0,0,0,,,,,,,,,1,0,16,15,,,,,,,,,,,,,,,,,,,,,,,,,,,,,,,,,,,,,,427.62640439999814,9,reward,1,2.3963286000034714,2.396332700001949,430.0290528000005,,,,,,,,,,,,,,,,,,,,,,36,D,2024-05-15_14h29.16.772,attentional_competition_task,2022.2.4,144.0131570357511,
positions.xlsx,positions_test.xlsx,positions_test_new.xlsx,stimuli.xlsx,stimuli_new.xlsx,stimuli/Social4.png,stimuli/Social3.png,stimuli/Nonsocial4.png,stimuli/Nonsocial3.png,stimuli/Social2.png,stimuli/Social1.png,stimuli/Nonsocial2.png,stimuli/Nonsocial1.png,cs_neg_s,"(-0.7, -0.5)",,,,,,,,,0,0,0,0,,,,,,,,,1,1,17,1,,,,,,,,,,,,,,,,,,,,,,,,,,,,,,,,,,,,,,437.05657679999786,6,loss,1,1.132327700001042,1.132331400000112,438.1954043000005,,,,,,,,,,,,,,,,,,,,,,36,D,2024-05-15_14h29.16.772,attentional_competition_task,2022.2.4,144.0131570357511,
positions.xlsx,positions_test.xlsx,positions_test_new.xlsx,stimuli.xlsx,stimuli_new.xlsx,stimuli/Social4.png,stimuli/Social3.png,stimuli/Nonsocial4.png,stimuli/Nonsocial3.png,stimuli/Social2.png,stimuli/Social1.png,stimuli/Nonsocial2.png,stimuli/Nonsocial1.png,cs_pos_s,"(-0.7, 0.5)",,,,,,,,,0,0,0,0,,,,,,,,,1,2,18,4,,,,,,,,,,,,,,,,,,,,,,,,,,,,,,,,,,,,,,445.5423512999987,9,reward,1,0.7015299999984563,0.7015339999998105,446.2506500999989,,,,,,,,,,,,,,,,,,,,,,36,D,2024-05-15_14h29.16.772,attentional_competition_task,2022.2.4,144.0131570357511,
positions.xlsx,positions_test.xlsx,positions_test_new.xlsx,stimuli.xlsx,stimuli_new.xlsx,stimuli/Social4.png,stimuli/Social3.png,stimuli/Nonsocial4.png,stimuli/Nonsocial3.png,stimuli/Social2.png,stimuli/Social1.png,stimuli/Nonsocial2.png,stimuli/Nonsocial1.png,cs_neg_ns,"(0.7, 0.5)",,,,,,,,,0,0,0,0,,,,,,,,,1,3,19,10,,,,,,,,,,,,,,,,,,,,,,,,,,,,,,,,,,,,,,453.69481090000045,6,loss,1,0.8475154000007024,0.8475191000034101,454.5489063999994,,,,,,,,,,,,,,,,,,,,,,36,D,2024-05-15_14h29.16.772,attentional_competition_task,2022.2.4,144.0131570357511,
positions.xlsx,positions_test.xlsx,positions_test_new.xlsx,stimuli.xlsx,stimuli_new.xlsx,stimuli/Social4.png,stimuli/Social3.png,stimuli/Nonsocial4.png,stimuli/Nonsocial3.png,stimuli/Social2.png,stimuli/Social1.png,stimuli/Nonsocial2.png,stimuli/Nonsocial1.png,cs_pos_ns,"(0.7, 0.5)",,,,,,,,,0,0,0,0,,,,,,,,,1,4,20,14,,,,,,,,,,,,,,,,,,,,,,,,,,,,,,,,,,,,,,461.3333491000012,6,none,0,,,464.34716330000083,,,,,,,,,,,,,,,,,,,,,,36,D,2024-05-15_14h29.16.772,attentional_competition_task,2022.2.4,144.0131570357511,
positions.xlsx,positions_test.xlsx,positions_test_new.xlsx,stimuli.xlsx,stimuli_new.xlsx,stimuli/Social4.png,stimuli/Social3.png,stimuli/Nonsocial4.png,stimuli/Nonsocial3.png,stimuli/Social2.png,stimuli/Social1.png,stimuli/Nonsocial2.png,stimuli/Nonsocial1.png,cs_neg_ns,"(0.7, -0.5)",,,,,,,,,0,0,0,0,,,,,,,,,1,5,21,11,,,,,,,,,,,,,,,,,,,,,,,,,,,,,,,,,,,,,,472.09683679999944,3,loss,1,0.798925800001598,0.7989298000029521,472.90241030000107,,,,,,,,,,,,,,,,,,,,,,36,D,2024-05-15_14h29.16.772,attentional_competition_task,2022.2.4,144.0131570357511,
positions.xlsx,positions_test.xlsx,positions_test_new.xlsx,stimuli.xlsx,stimuli_new.xlsx,stimuli/Social4.png,stimuli/Social3.png,stimuli/Nonsocial4.png,stimuli/Nonsocial3.png,stimuli/Social2.png,stimuli/Social1.png,stimuli/Nonsocial2.png,stimuli/Nonsocial1.png,cs_pos_s,"(0.7, 0.5)",,,,,,,,,0,0,0,0,,,,,,,,,1,6,22,6,,,,,,,,,,,,,,,,,,,,,,,,,,,,,,,,,,,,,,480.1034508999983,6,reward,1,0.5976181000005454,0.6050601999995706,480.71454839999933,,,,,,,,,,,,,,,,,,,,,,36,D,2024-05-15_14h29.16.772,attentional_competition_task,2022.2.4,144.0131570357511,
positions.xlsx,positions_test.xlsx,positions_test_new.xlsx,stimuli.xlsx,stimuli_new.xlsx,stimuli/Social4.png,stimuli/Social3.png,stimuli/Nonsocial4.png,stimuli/Nonsocial3.png,stimuli/Social2.png,stimuli/Social1.png,stimuli/Nonsocial2.png,stimuli/Nonsocial1.png,cs_pos_ns,"(-0.7, -0.5)",,,,,,,,,0,0,0,0,,,,,,,,,1,7,23,13,,,,,,,,,,,,,,,,,,,,,,,,,,,,,,,,,,,,,,488.3461776000004,6,none,0,,,491.3599218999989,,,,,,,,,,,,,,,,,,,,,,36,D,2024-05-15_14h29.16.772,attentional_competition_task,2022.2.4,144.0131570357511,
positions.xlsx,positions_test.xlsx,positions_test_new.xlsx,stimuli.xlsx,stimuli_new.xlsx,stimuli/Social4.png,stimuli/Social3.png,stimuli/Nonsocial4.png,stimuli/Nonsocial3.png,stimuli/Social2.png,stimuli/Social1.png,stimuli/Nonsocial2.png,stimuli/Nonsocial1.png,cs_neg_s,"(0.7, -0.5)",,,,,,,,,0,0,0,0,,,,,,,,,1,8,24,3,,,,,,,,,,,,,,,,,,,,,,,,,,,,,,,,,,,,,,498.74157099999866,6,none,0,,,501.7484163000008,,,,,,,,,,,,,,,,,,,,,,36,D,2024-05-15_14h29.16.772,attentional_competition_task,2022.2.4,144.0131570357511,
positions.xlsx,positions_test.xlsx,positions_test_new.xlsx,stimuli.xlsx,stimuli_new.xlsx,stimuli/Social4.png,stimuli/Social3.png,stimuli/Nonsocial4.png,stimuli/Nonsocial3.png,stimuli/Social2.png,stimuli/Social1.png,stimuli/Nonsocial2.png,stimuli/Nonsocial1.png,cs_pos_ns,"(-0.7, 0.5)",,,,,,,,,0,0,0,0,,,,,,,,,1,9,25,12,,,,,,,,,,,,,,,,,,,,,,,,,,,,,,,,,,,,,,508.83147530000133,9,reward,1,1.7156640000030166,1.71568169999955,510.5536198000009,,,,,,,,,,,,,,,,,,,,,,36,D,2024-05-15_14h29.16.772,attentional_competition_task,2022.2.4,144.0131570357511,
positions.xlsx,positions_test.xlsx,positions_test_new.xlsx,stimuli.xlsx,stimuli_new.xlsx,stimuli/Social4.png,stimuli/Social3.png,stimuli/Nonsocial4.png,stimuli/Nonsocial3.png,stimuli/Social2.png,stimuli/Social1.png,stimuli/Nonsocial2.png,stimuli/Nonsocial1.png,cs_pos_s,"(0.7, -0.5)",,,,,,,,,0,0,0,0,,,,,,,,,1,10,26,7,,,,,,,,,,,,,,,,,,,,,,,,,,,,,,,,,,,,,,517.8172384999998,12,reward,1,0.7016305999968608,0.7016344999974535,518.5255245999979,,,,,,,,,,,,,,,,,,,,,,36,D,2024-05-15_14h29.16.772,attentional_competition_task,2022.2.4,144.0131570357511,
positions.xlsx,positions_test.xlsx,positions_test_new.xlsx,stimuli.xlsx,stimuli_new.xlsx,stimuli/Social4.png,stimuli/Social3.png,stimuli/Nonsocial4.png,stimuli/Nonsocial3.png,stimuli/Social2.png,stimuli/Social1.png,stimuli/Nonsocial2.png,stimuli/Nonsocial1.png,cs_neg_ns,"(-0.7, 0.5)",,,,,,,,,0,0,0,0,,,,,,,,,1,11,27,8,,,,,,,,,,,,,,,,,,,,,,,,,,,,,,,,,,,,,,526.0668666999991,12,none,0,,,529.0806601000004,,,,,,,,,,,,,,,,,,,,,,36,D,2024-05-15_14h29.16.772,attentional_competition_task,2022.2.4,144.0131570357511,
positions.xlsx,positions_test.xlsx,positions_test_new.xlsx,stimuli.xlsx,stimuli_new.xlsx,stimuli/Social4.png,stimuli/Social3.png,stimuli/Nonsocial4.png,stimuli/Nonsocial3.png,stimuli/Social2.png,stimuli/Social1.png,stimuli/Nonsocial2.png,stimuli/Nonsocial1.png,cs_neg_ns,"(-0.7, -0.5)",,,,,,,,,0,0,0,0,,,,,,,,,1,12,28,9,,,,,,,,,,,,,,,,,,,,,,,,,,,,,,,,,,,,,,536.6289662999989,9,loss,1,0.7988232999996399,0.7988271000031091,537.4345074999983,,,,,,,,,,,,,,,,,,,,,,36,D,2024-05-15_14h29.16.772,attentional_competition_task,2022.2.4,144.0131570357511,
positions.xlsx,positions_test.xlsx,positions_test_new.xlsx,stimuli.xlsx,stimuli_new.xlsx,stimuli/Social4.png,stimuli/Social3.png,stimuli/Nonsocial4.png,stimuli/Nonsocial3.png,stimuli/Social2.png,stimuli/Social1.png,stimuli/Nonsocial2.png,stimuli/Nonsocial1.png,cs_pos_s,"(-0.7, -0.5)",,,,,,,,,0,0,0,0,,,,,,,,,1,13,29,5,,,,,,,,,,,,,,,,,,,,,,,,,,,,,,,,,,,,,,544.9897409000005,12,reward,1,1.0766245000013441,1.0766284000019368,546.0730450999981,,,,,,,,,,,,,,,,,,,,,,36,D,2024-05-15_14h29.16.772,attentional_competition_task,2022.2.4,144.0131570357511,
positions.xlsx,positions_test.xlsx,positions_test_new.xlsx,stimuli.xlsx,stimuli_new.xlsx,stimuli/Social4.png,stimuli/Social3.png,stimuli/Nonsocial4.png,stimuli/Nonsocial3.png,stimuli/Social2.png,stimuli/Social1.png,stimuli/Nonsocial2.png,stimuli/Nonsocial1.png,cs_neg_s,"(0.7, 0.5)",,,,,,,,,0,0,0,0,,,,,,,,,1,14,30,2,,,,,,,,,,,,,,,,,,,,,,,,,,,,,,,,,,,,,,553.5935390999985,12,none,0,,,556.6004122000013,,,,,,,,,,,,,,,,,,,,,,36,D,2024-05-15_14h29.16.772,attentional_competition_task,2022.2.4,144.0131570357511,
positions.xlsx,positions_test.xlsx,positions_test_new.xlsx,stimuli.xlsx,stimuli_new.xlsx,stimuli/Social4.png,stimuli/Social3.png,stimuli/Nonsocial4.png,stimuli/Nonsocial3.png,stimuli/Social2.png,stimuli/Social1.png,stimuli/Nonsocial2.png,stimuli/Nonsocial1.png,cs_neg_s,"(-0.7, 0.5)",,,,,,,,,0,0,0,0,,,,,,,,,1,15,31,0,,,,,,,,,,,,,,,,,,,,,,,,,,,,,,,,,,,,,,563.6695427999985,12,none,0,,,566.6763719999981,,,,,,,,,,,,,,,,,,,,,,36,D,2024-05-15_14h29.16.772,attentional_competition_task,2022.2.4,144.0131570357511,
positions.xlsx,positions_test.xlsx,positions_test_new.xlsx,stimuli.xlsx,stimuli_new.xlsx,stimuli/Social4.png,stimuli/Social3.png,stimuli/Nonsocial4.png,stimuli/Nonsocial3.png,stimuli/Social2.png,stimuli/Social1.png,stimuli/Nonsocial2.png,stimuli/Nonsocial1.png,cs_neg_s,"(-0.7, 0.5)",,,,,,,,,0,0,0,0,,,,,,,,,,,,,0,0,0,0,,,,,,,,,,,,,,,,,,,,,,,,,,,,,,,,,,597.6057123999999,9,loss,1,2.6247991000018374,2.6248025999993843,600.2375606999994,,,,,,,,,,,,,,,,,,,,,,36,D,2024-05-15_14h29.16.772,attentional_competition_task,2022.2.4,144.0131570357511,
positions.xlsx,positions_test.xlsx,positions_test_new.xlsx,stimuli.xlsx,stimuli_new.xlsx,stimuli/Social4.png,stimuli/Social3.png,stimuli/Nonsocial4.png,stimuli/Nonsocial3.png,stimuli/Social2.png,stimuli/Social1.png,stimuli/Nonsocial2.png,stimuli/Nonsocial1.png,cs_neg_s,"(-0.7, -0.5)",,,,,,,,,0,0,0,0,,,,,,,,,,,,,0,1,1,1,,,,,,,,,,,,,,,,,,,,,,,,,,,,,,,,,,607.0705874999985,9,none,0,,,610.0843290000012,,,,,,,,,,,,,,,,,,,,,,36,D,2024-05-15_14h29.16.772,attentional_competition_task,2022.2.4,144.0131570357511,
positions.xlsx,positions_test.xlsx,positions_test_new.xlsx,stimuli.xlsx,stimuli_new.xlsx,stimuli/Social4.png,stimuli/Social3.png,stimuli/Nonsocial4.png,stimuli/Nonsocial3.png,stimuli/Social2.png,stimuli/Social1.png,stimuli/Nonsocial2.png,stimuli/Nonsocial1.png,cs_neg_ns,"(-0.7, 0.5)",,,,,,,,,0,0,0,0,,,,,,,,,,,,,0,2,2,8,,,,,,,,,,,,,,,,,,,,,,,,,,,,,,,,,,617.5007280999998,9,none,0,,,620.5144975000003,,,,,,,,,,,,,,,,,,,,,,36,D,2024-05-15_14h29.16.772,attentional_competition_task,2022.2.4,144.0131570357511,
positions.xlsx,positions_test.xlsx,positions_test_new.xlsx,stimuli.xlsx,stimuli_new.xlsx,stimuli/Social4.png,stimuli/Social3.png,stimuli/Nonsocial4.png,stimuli/Nonsocial3.png,stimuli/Social2.png,stimuli/Social1.png,stimuli/Nonsocial2.png,stimuli/Nonsocial1.png,cs_neg_ns,"(0.7, 0.5)",,,,,,,,,0,0,0,0,,,,,,,,,,,,,0,3,3,10,,,,,,,,,,,,,,,,,,,,,,,,,,,,,,,,,,627.9378128999997,9,none,0,,,630.9515868999988,,,,,,,,,,,,,,,,,,,,,,36,D,2024-05-15_14h29.16.772,attentional_competition_task,2022.2.4,144.0131570357511,
positions.xlsx,positions_test.xlsx,positions_test_new.xlsx,stimuli.xlsx,stimuli_new.xlsx,stimuli/Social4.png,stimuli/Social3.png,stimuli/Nonsocial4.png,stimuli/Nonsocial3.png,stimuli/Social2.png,stimuli/Social1.png,stimuli/Nonsocial2.png,stimuli/Nonsocial1.png,cs_pos_ns,"(0.7, -0.5)",,,,,,,,,0,0,0,0,,,,,,,,,,,,,0,4,4,15,,,,,,,,,,,,,,,,,,,,,,,,,,,,,,,,,,638.9512437000012,12,reward,1,0.8749521999998251,0.8819484999985434,639.8401421999988,,,,,,,,,,,,,,,,,,,,,,36,D,2024-05-15_14h29.16.772,attentional_competition_task,2022.2.4,144.0131570357511,
positions.xlsx,positions_test.xlsx,positions_test_new.xlsx,stimuli.xlsx,stimuli_new.xlsx,stimuli/Social4.png,stimuli/Social3.png,stimuli/Nonsocial4.png,stimuli/Nonsocial3.png,stimuli/Social2.png,stimuli/Social1.png,stimuli/Nonsocial2.png,stimuli/Nonsocial1.png,cs_pos_ns,"(0.7, 0.5)",,,,,,,,,0,0,0,0,,,,,,,,,,,,,0,5,5,14,,,,,,,,,,,,,,,,,,,,,,,,,,,,,,,,,,647.8259485999988,15,reward,1,0.7570585000030405,0.7570621000013489,648.5897513999989,,,,,,,,,,,,,,,,,,,,,,36,D,2024-05-15_14h29.16.772,attentional_competition_task,2022.2.4,144.0131570357511,
positions.xlsx,positions_test.xlsx,positions_test_new.xlsx,stimuli.xlsx,stimuli_new.xlsx,stimuli/Social4.png,stimuli/Social3.png,stimuli/Nonsocial4.png,stimuli/Nonsocial3.png,stimuli/Social2.png,stimuli/Social1.png,stimuli/Nonsocial2.png,stimuli/Nonsocial1.png,cs_neg_ns,"(-0.7, -0.5)",,,,,,,,,0,0,0,0,,,,,,,,,,,,,0,6,6,9,,,,,,,,,,,,,,,,,,,,,,,,,,,,,,,,,,656.1033489000001,15,none,0,,,659.1171031999984,,,,,,,,,,,,,,,,,,,,,,36,D,2024-05-15_14h29.16.772,attentional_competition_task,2022.2.4,144.0131570357511,
positions.xlsx,positions_test.xlsx,positions_test_new.xlsx,stimuli.xlsx,stimuli_new.xlsx,stimuli/Social4.png,stimuli/Social3.png,stimuli/Nonsocial4.png,stimuli/Nonsocial3.png,stimuli/Social2.png,stimuli/Social1.png,stimuli/Nonsocial2.png,stimuli/Nonsocial1.png,cs_pos_s,"(0.7, 0.5)",,,,,,,,,0,0,0,0,,,,,,,,,,,,,0,7,7,6,,,,,,,,,,,,,,,,,,,,,,,,,,,,,,,,,,666.200146799998,18,reward,1,0.6179262999976345,0.6179299999967043,666.8251388999997,,,,,,,,,,,,,,,,,,,,,,36,D,2024-05-15_14h29.16.772,attentional_competition_task,2022.2.4,144.0131570357511,
positions.xlsx,positions_test.xlsx,positions_test_new.xlsx,stimuli.xlsx,stimuli_new.xlsx,stimuli/Social4.png,stimuli/Social3.png,stimuli/Nonsocial4.png,stimuli/Nonsocial3.png,stimuli/Social2.png,stimuli/Social1.png,stimuli/Nonsocial2.png,stimuli/Nonsocial1.png,cs_neg_s,"(0.7, -0.5)",,,,,,,,,0,0,0,0,,,,,,,,,,,,,0,8,8,3,,,,,,,,,,,,,,,,,,,,,,,,,,,,,,,,,,674.1998500000009,18,none,0,,,677.2136406999998,,,,,,,,,,,,,,,,,,,,,,36,D,2024-05-15_14h29.16.772,attentional_competition_task,2022.2.4,144.0131570357511,
positions.xlsx,positions_test.xlsx,positions_test_new.xlsx,stimuli.xlsx,stimuli_new.xlsx,stimuli/Social4.png,stimuli/Social3.png,stimuli/Nonsocial4.png,stimuli/Nonsocial3.png,stimuli/Social2.png,stimuli/Social1.png,stimuli/Nonsocial2.png,stimuli/Nonsocial1.png,cs_pos_s,"(-0.7, 0.5)",,,,,,,,,0,0,0,0,,,,,,,,,,,,,0,9,9,4,,,,,,,,,,,,,,,,,,,,,,,,,,,,,,,,,,685.0118844999997,21,reward,1,0.6179832000016177,0.6248921000005794,685.6438264999997,,,,,,,,,,,,,,,,,,,,,,36,D,2024-05-15_14h29.16.772,attentional_competition_task,2022.2.4,144.0131570357511,
positions.xlsx,positions_test.xlsx,positions_test_new.xlsx,stimuli.xlsx,stimuli_new.xlsx,stimuli/Social4.png,stimuli/Social3.png,stimuli/Nonsocial4.png,stimuli/Nonsocial3.png,stimuli/Social2.png,stimuli/Social1.png,stimuli/Nonsocial2.png,stimuli/Nonsocial1.png,cs_pos_s,"(-0.7, -0.5)",,,,,,,,,0,0,0,0,,,,,,,,,,,,,0,10,10,5,,,,,,,,,,,,,,,,,,,,,,,,,,,,,,,,,,693.6712871999989,24,reward,1,0.7507117000022845,0.7507173000012699,694.4351504000006,,,,,,,,,,,,,,,,,,,,,,36,D,2024-05-15_14h29.16.772,attentional_competition_task,2022.2.4,144.0131570357511,
positions.xlsx,positions_test.xlsx,positions_test_new.xlsx,stimuli.xlsx,stimuli_new.xlsx,stimuli/Social4.png,stimuli/Social3.png,stimuli/Nonsocial4.png,stimuli/Nonsocial3.png,stimuli/Social2.png,stimuli/Social1.png,stimuli/Nonsocial2.png,stimuli/Nonsocial1.png,cs_neg_ns,"(0.7, -0.5)",,,,,,,,,0,0,0,0,,,,,,,,,,,,,0,11,11,11,,,,,,,,,,,,,,,,,,,,,,,,,,,,,,,,,,701.4001293000001,21,loss,1,0.569731799998408,0.5697357999997621,701.9765145999991,,,,,,,,,,,,,,,,,,,,,,36,D,2024-05-15_14h29.16.772,attentional_competition_task,2022.2.4,144.0131570357511,
positions.xlsx,positions_test.xlsx,positions_test_new.xlsx,stimuli.xlsx,stimuli_new.xlsx,stimuli/Social4.png,stimuli/Social3.png,stimuli/Nonsocial4.png,stimuli/Nonsocial3.png,stimuli/Social2.png,stimuli/Social1.png,stimuli/Nonsocial2.png,stimuli/Nonsocial1.png,cs_neg_s,"(0.7, 0.5)",,,,,,,,,0,0,0,0,,,,,,,,,,,,,0,12,12,2,,,,,,,,,,,,,,,,,,,,,,,,,,,,,,,,,,709.2123399999982,21,none,0,,,712.2260908999997,,,,,,,,,,,,,,,,,,,,,,36,D,2024-05-15_14h29.16.772,attentional_competition_task,2022.2.4,144.0131570357511,
positions.xlsx,positions_test.xlsx,positions_test_new.xlsx,stimuli.xlsx,stimuli_new.xlsx,stimuli/Social4.png,stimuli/Social3.png,stimuli/Nonsocial4.png,stimuli/Nonsocial3.png,stimuli/Social2.png,stimuli/Social1.png,stimuli/Nonsocial2.png,stimuli/Nonsocial1.png,cs_pos_s,"(0.7, -0.5)",,,,,,,,,0,0,0,0,,,,,,,,,,,,,0,13,13,7,,,,,,,,,,,,,,,,,,,,,,,,,,,,,,,,,,719.1980222999991,24,reward,1,0.5967358000016247,0.5967392999991716,719.8022028000014,,,,,,,,,,,,,,,,,,,,,,36,D,2024-05-15_14h29.16.772,attentional_competition_task,2022.2.4,144.0131570357511,
positions.xlsx,positions_test.xlsx,positions_test_new.xlsx,stimuli.xlsx,stimuli_new.xlsx,stimuli/Social4.png,stimuli/Social3.png,stimuli/Nonsocial4.png,stimuli/Nonsocial3.png,stimuli/Social2.png,stimuli/Social1.png,stimuli/Nonsocial2.png,stimuli/Nonsocial1.png,cs_pos_ns,"(-0.7, -0.5)",,,,,,,,,0,0,0,0,,,,,,,,,,,,,0,14,14,13,,,,,,,,,,,,,,,,,,,,,,,,,,,,,,,,,,726.6769229999991,27,reward,1,0.7014573999986169,0.7014609999969252,727.3852961999983,,,,,,,,,,,,,,,,,,,,,,36,D,2024-05-15_14h29.16.772,attentional_competition_task,2022.2.4,144.0131570357511,
positions.xlsx,positions_test.xlsx,positions_test_new.xlsx,stimuli.xlsx,stimuli_new.xlsx,stimuli/Social4.png,stimuli/Social3.png,stimuli/Nonsocial4.png,stimuli/Nonsocial3.png,stimuli/Social2.png,stimuli/Social1.png,stimuli/Nonsocial2.png,stimuli/Nonsocial1.png,cs_pos_ns,"(-0.7, 0.5)",,,,,,,,,0,0,0,0,,,,,,,,,,,,,0,15,15,12,,,,,,,,,,,,,,,,,,,,,,,,,,,,,,,,,,735.4404581999988,30,reward,1,0.7985976999989362,0.7986015999995288,736.2460023999993,,,,,,,,,,,,,,,,,,,,,,36,D,2024-05-15_14h29.16.772,attentional_competition_task,2022.2.4,144.0131570357511,
positions.xlsx,positions_test.xlsx,positions_test_new.xlsx,stimuli.xlsx,stimuli_new.xlsx,stimuli/Social4.png,stimuli/Social3.png,stimuli/Nonsocial4.png,stimuli/Nonsocial3.png,stimuli/Social2.png,stimuli/Social1.png,stimuli/Nonsocial2.png,stimuli/Nonsocial1.png,cs_neg_s,"(-0.7, 0.5)",,,,,,,,,0,0,0,0,,,,,,,,,,,,,1,0,16,0,,,,,,,,,,,,,,,,,,,,,,,,,,,,,,,,,,743.8845660000006,30,none,0,,,746.8983268999982,,,,,,,,,,,,,,,,,,,,,,36,D,2024-05-15_14h29.16.772,attentional_competition_task,2022.2.4,144.0131570357511,
positions.xlsx,positions_test.xlsx,positions_test_new.xlsx,stimuli.xlsx,stimuli_new.xlsx,stimuli/Social4.png,stimuli/Social3.png,stimuli/Nonsocial4.png,stimuli/Nonsocial3.png,stimuli/Social2.png,stimuli/Social1.png,stimuli/Nonsocial2.png,stimuli/Nonsocial1.png,cs_pos_ns,"(-0.7, -0.5)",,,,,,,,,0,0,0,0,,,,,,,,,,,,,1,1,17,13,,,,,,,,,,,,,,,,,,,,,,,,,,,,,,,,,,754.3008119000006,33,reward,1,0.8819196000004013,0.8819234000002325,755.1896163999991,,,,,,,,,,,,,,,,,,,,,,36,D,2024-05-15_14h29.16.772,attentional_competition_task,2022.2.4,144.0131570357511,
positions.xlsx,positions_test.xlsx,positions_test_new.xlsx,stimuli.xlsx,stimuli_new.xlsx,stimuli/Social4.png,stimuli/Social3.png,stimuli/Nonsocial4.png,stimuli/Nonsocial3.png,stimuli/Social2.png,stimuli/Social1.png,stimuli/Nonsocial2.png,stimuli/Nonsocial1.png,cs_neg_s,"(0.7, 0.5)",,,,,,,,,0,0,0,0,,,,,,,,,,,,,1,2,18,2,,,,,,,,,,,,,,,,,,,,,,,,,,,,,,,,,,761.9740849000009,33,none,0,,,764.9879040999986,,,,,,,,,,,,,,,,,,,,,,36,D,2024-05-15_14h29.16.772,attentional_competition_task,2022.2.4,144.0131570357511,
positions.xlsx,positions_test.xlsx,positions_test_new.xlsx,stimuli.xlsx,stimuli_new.xlsx,stimuli/Social4.png,stimuli/Social3.png,stimuli/Nonsocial4.png,stimuli/Nonsocial3.png,stimuli/Social2.png,stimuli/Social1.png,stimuli/Nonsocial2.png,stimuli/Nonsocial1.png,cs_pos_s,"(0.7, -0.5)",,,,,,,,,0,0,0,0,,,,,,,,,,,,,1,3,19,7,,,,,,,,,,,,,,,,,,,,,,,,,,,,,,,,,,772.0223121999989,36,reward,1,0.6046165000007022,0.6046201000026485,772.6334500999983,,,,,,,,,,,,,,,,,,,,,,36,D,2024-05-15_14h29.16.772,attentional_competition_task,2022.2.4,144.0131570357511,
positions.xlsx,positions_test.xlsx,positions_test_new.xlsx,stimuli.xlsx,stimuli_new.xlsx,stimuli/Social4.png,stimuli/Social3.png,stimuli/Nonsocial4.png,stimuli/Nonsocial3.png,stimuli/Social2.png,stimuli/Social1.png,stimuli/Nonsocial2.png,stimuli/Nonsocial1.png,cs_pos_s,"(0.7, 0.5)",,,,,,,,,0,0,0,0,,,,,,,,,,,,,1,4,20,6,,,,,,,,,,,,,,,,,,,,,,,,,,,,,,,,,,779.8344828000008,39,reward,1,0.5697268000003533,0.5697309000024688,780.4108984000013,,,,,,,,,,,,,,,,,,,,,,36,D,2024-05-15_14h29.16.772,attentional_competition_task,2022.2.4,144.0131570357511,
positions.xlsx,positions_test.xlsx,positions_test_new.xlsx,stimuli.xlsx,stimuli_new.xlsx,stimuli/Social4.png,stimuli/Social3.png,stimuli/Nonsocial4.png,stimuli/Nonsocial3.png,stimuli/Social2.png,stimuli/Social1.png,stimuli/Nonsocial2.png,stimuli/Nonsocial1.png,cs_pos_s,"(-0.7, -0.5)",,,,,,,,,0,0,0,0,,,,,,,,,,,,,1,5,21,5,,,,,,,,,,,,,,,,,,,,,,,,,,,,,,,,,,787.8827974000014,42,reward,1,0.5974478000025556,0.5974513000001025,788.4869378000003,,,,,,,,,,,,,,,,,,,,,,36,D,2024-05-15_14h29.16.772,attentional_competition_task,2022.2.4,144.0131570357511,
positions.xlsx,positions_test.xlsx,positions_test_new.xlsx,stimuli.xlsx,stimuli_new.xlsx,stimuli/Social4.png,stimuli/Social3.png,stimuli/Nonsocial4.png,stimuli/Nonsocial3.png,stimuli/Social2.png,stimuli/Social1.png,stimuli/Nonsocial2.png,stimuli/Nonsocial1.png,cs_pos_ns,"(0.7, -0.5)",,,,,,,,,0,0,0,0,,,,,,,,,,,,,1,6,22,15,,,,,,,,,,,,,,,,,,,,,,,,,,,,,,,,,,795.4172312999981,45,reward,1,0.4443897000019206,0.4443933000002289,795.8685904999984,,,,,,,,,,,,,,,,,,,,,,36,D,2024-05-15_14h29.16.772,attentional_competition_task,2022.2.4,144.0131570357511,
positions.xlsx,positions_test.xlsx,positions_test_new.xlsx,stimuli.xlsx,stimuli_new.xlsx,stimuli/Social4.png,stimuli/Social3.png,stimuli/Nonsocial4.png,stimuli/Nonsocial3.png,stimuli/Social2.png,stimuli/Social1.png,stimuli/Nonsocial2.png,stimuli/Nonsocial1.png,cs_pos_ns,"(-0.7, 0.5)",,,,,,,,,0,0,0,0,,,,,,,,,,,,,1,7,23,12,,,,,,,,,,,,,,,,,,,,,,,,,,,,,,,,,,803.2641709999989,48,reward,1,1.2497981000014988,1.2498020000020915,804.5210435000008,,,,,,,,,,,,,,,,,,,,,,36,D,2024-05-15_14h29.16.772,attentional_competition_task,2022.2.4,144.0131570357511,
positions.xlsx,positions_test.xlsx,positions_test_new.xlsx,stimuli.xlsx,stimuli_new.xlsx,stimuli/Social4.png,stimuli/Social3.png,stimuli/Nonsocial4.png,stimuli/Nonsocial3.png,stimuli/Social2.png,stimuli/Social1.png,stimuli/Nonsocial2.png,stimuli/Nonsocial1.png,cs_pos_ns,"(0.7, 0.5)",,,,,,,,,0,0,0,0,,,,,,,,,,,,,1,8,24,14,,,,,,,,,,,,,,,,,,,,,,,,,,,,,,,,,,811.5902096999998,51,reward,1,0.826660399998218,0.8266643999995722,812.4234930999992,,,,,,,,,,,,,,,,,,,,,,36,D,2024-05-15_14h29.16.772,attentional_competition_task,2022.2.4,144.0131570357511,
positions.xlsx,positions_test.xlsx,positions_test_new.xlsx,stimuli.xlsx,stimuli_new.xlsx,stimuli/Social4.png,stimuli/Social3.png,stimuli/Nonsocial4.png,stimuli/Nonsocial3.png,stimuli/Social2.png,stimuli/Social1.png,stimuli/Nonsocial2.png,stimuli/Nonsocial1.png,cs_neg_ns,"(-0.7, -0.5)",,,,,,,,,0,0,0,0,,,,,,,,,,,,,1,9,25,9,,,,,,,,,,,,,,,,,,,,,,,,,,,,,,,,,,820.4301125999991,51,none,0,,,823.443878099999,,,,,,,,,,,,,,,,,,,,,,36,D,2024-05-15_14h29.16.772,attentional_competition_task,2022.2.4,144.0131570357511,
positions.xlsx,positions_test.xlsx,positions_test_new.xlsx,stimuli.xlsx,stimuli_new.xlsx,stimuli/Social4.png,stimuli/Social3.png,stimuli/Nonsocial4.png,stimuli/Nonsocial3.png,stimuli/Social2.png,stimuli/Social1.png,stimuli/Nonsocial2.png,stimuli/Nonsocial1.png,cs_neg_ns,"(0.7, -0.5)",,,,,,,,,0,0,0,0,,,,,,,,,,,,,1,10,26,11,,,,,,,,,,,,,,,,,,,,,,,,,,,,,,,,,,830.4019361999999,51,none,0,,,833.4156767999993,,,,,,,,,,,,,,,,,,,,,,36,D,2024-05-15_14h29.16.772,attentional_competition_task,2022.2.4,144.0131570357511,
positions.xlsx,positions_test.xlsx,positions_test_new.xlsx,stimuli.xlsx,stimuli_new.xlsx,stimuli/Social4.png,stimuli/Social3.png,stimuli/Nonsocial4.png,stimuli/Nonsocial3.png,stimuli/Social2.png,stimuli/Social1.png,stimuli/Nonsocial2.png,stimuli/Nonsocial1.png,cs_neg_s,"(0.7, -0.5)",,,,,,,,,0,0,0,0,,,,,,,,,,,,,1,11,27,3,,,,,,,,,,,,,,,,,,,,,,,,,,,,,,,,,,841.2001296999988,51,none,0,,,844.2069397000014,,,,,,,,,,,,,,,,,,,,,,36,D,2024-05-15_14h29.16.772,attentional_competition_task,2022.2.4,144.0131570357511,
positions.xlsx,positions_test.xlsx,positions_test_new.xlsx,stimuli.xlsx,stimuli_new.xlsx,stimuli/Social4.png,stimuli/Social3.png,stimuli/Nonsocial4.png,stimuli/Nonsocial3.png,stimuli/Social2.png,stimuli/Social1.png,stimuli/Nonsocial2.png,stimuli/Nonsocial1.png,cs_neg_s,"(-0.7, -0.5)",,,,,,,,,0,0,0,0,,,,,,,,,,,,,1,12,28,1,,,,,,,,,,,,,,,,,,,,,,,,,,,,,,,,,,851.4358202000003,51,none,0,,,854.4427031999985,,,,,,,,,,,,,,,,,,,,,,36,D,2024-05-15_14h29.16.772,attentional_competition_task,2022.2.4,144.0131570357511,
positions.xlsx,positions_test.xlsx,positions_test_new.xlsx,stimuli.xlsx,stimuli_new.xlsx,stimuli/Social4.png,stimuli/Social3.png,stimuli/Nonsocial4.png,stimuli/Nonsocial3.png,stimuli/Social2.png,stimuli/Social1.png,stimuli/Nonsocial2.png,stimuli/Nonsocial1.png,cs_neg_ns,"(0.7, 0.5)",,,,,,,,,0,0,0,0,,,,,,,,,,,,,1,13,29,10,,,,,,,,,,,,,,,,,,,,,,,,,,,,,,,,,,862.3520497999998,51,none,0,,,865.3589149,,,,,,,,,,,,,,,,,,,,,,36,D,2024-05-15_14h29.16.772,attentional_competition_task,2022.2.4,144.0131570357511,
positions.xlsx,positions_test.xlsx,positions_test_new.xlsx,stimuli.xlsx,stimuli_new.xlsx,stimuli/Social4.png,stimuli/Social3.png,stimuli/Nonsocial4.png,stimuli/Nonsocial3.png,stimuli/Social2.png,stimuli/Social1.png,stimuli/Nonsocial2.png,stimuli/Nonsocial1.png,cs_neg_ns,"(-0.7, 0.5)",,,,,,,,,0,0,0,0,,,,,,,,,,,,,1,14,30,8,,,,,,,,,,,,,,,,,,,,,,,,,,,,,,,,,,872.6363653000008,51,none,0,,,875.6501085999989,,,,,,,,,,,,,,,,,,,,,,36,D,2024-05-15_14h29.16.772,attentional_competition_task,2022.2.4,144.0131570357511,
positions.xlsx,positions_test.xlsx,positions_test_new.xlsx,stimuli.xlsx,stimuli_new.xlsx,stimuli/Social4.png,stimuli/Social3.png,stimuli/Nonsocial4.png,stimuli/Nonsocial3.png,stimuli/Social2.png,stimuli/Social1.png,stimuli/Nonsocial2.png,stimuli/Nonsocial1.png,cs_pos_s,"(-0.7, 0.5)",,,,,,,,,0,0,0,0,,,,,,,,,,,,,1,15,31,4,,,,,,,,,,,,,,,,,,,,,,,,,,,,,,,,,,883.628968699999,54,reward,1,0.6253944999989471,0.6253980999972555,884.2609354000015,,,,,,,,,,,,,,,,,,,,,,36,D,2024-05-15_14h29.16.772,attentional_competition_task,2022.2.4,144.0131570357511,
positions.xlsx,positions_test.xlsx,positions_test_new.xlsx,stimuli.xlsx,stimuli_new.xlsx,stimuli/Social4.png,stimuli/Social3.png,stimuli/Nonsocial4.png,stimuli/Nonsocial3.png,stimuli/Social2.png,stimuli/Social1.png,stimuli/Nonsocial2.png,stimuli/Nonsocial1.png,cs_pos_s,,,,,,,,,,0,0,0,0,,,,,,,,,,,,,,,,,0,0,0,2,,,,,,,,,,,,,,,,,,,,,,,889.7676255000006,7.0,6.380644299999403,,,,,,,,,,,,,,,,,,,,,,,,,,,,,,,,,36,D,2024-05-15_14h29.16.772,attentional_competition_task,2022.2.4,144.0131570357511,
positions.xlsx,positions_test.xlsx,positions_test_new.xlsx,stimuli.xlsx,stimuli_new.xlsx,stimuli/Social4.png,stimuli/Social3.png,stimuli/Nonsocial4.png,stimuli/Nonsocial3.png,stimuli/Social2.png,stimuli/Social1.png,stimuli/Nonsocial2.png,stimuli/Nonsocial1.png,cs_pos_ns,,,,,,,,,,0,0,0,0,,,,,,,,,,,,,,,,,0,1,1,3,,,,,,,,,,,,,,,,,,,,,,,897.8992460000009,9.0,2.0429094999999506,,,,,,,,,,,,,,,,,,,,,,,,,,,,,,,,,36,D,2024-05-15_14h29.16.772,attentional_competition_task,2022.2.4,144.0131570357511,
positions.xlsx,positions_test.xlsx,positions_test_new.xlsx,stimuli.xlsx,stimuli_new.xlsx,stimuli/Social4.png,stimuli/Social3.png,stimuli/Nonsocial4.png,stimuli/Nonsocial3.png,stimuli/Social2.png,stimuli/Social1.png,stimuli/Nonsocial2.png,stimuli/Nonsocial1.png,cs_neg_ns,,,,,,,,,,0,0,0,0,,,,,,,,,,,,,,,,,0,2,2,1,,,,,,,,,,,,,,,,,,,,,,,901.2185604000006,6.0,2.361857299998519,,,,,,,,,,,,,,,,,,,,,,,,,,,,,,,,,36,D,2024-05-15_14h29.16.772,attentional_competition_task,2022.2.4,144.0131570357511,
positions.xlsx,positions_test.xlsx,positions_test_new.xlsx,stimuli.xlsx,stimuli_new.xlsx,stimuli/Social4.png,stimuli/Social3.png,stimuli/Nonsocial4.png,stimuli/Nonsocial3.png,stimuli/Social2.png,stimuli/Social1.png,stimuli/Nonsocial2.png,stimuli/Nonsocial1.png,cs_neg_s,,,,,,,,,,0,0,0,0,,,,,,,,,,,,,,,,,0,3,3,0,,,,,,,,,,,,,,,,,,,,,,,906.9891529999986,5.0,3.4949411999987205,,,,,,,,,,,,,,,,,,,,,,,,,,,,,,,,,36,D,2024-05-15_14h29.16.772,attentional_competition_task,2022.2.4,144.0131570357511,
positions.xlsx,positions_test.xlsx,positions_test_new.xlsx,stimuli.xlsx,stimuli_new.xlsx,stimuli/Social4.png,stimuli/Social3.png,stimuli/Nonsocial4.png,stimuli/Nonsocial3.png,stimuli/Social2.png,stimuli/Social1.png,stimuli/Nonsocial2.png,stimuli/Nonsocial1.png,,,"(-0.7, -0.5)",cs_neg_ns,"(-0.7, 0.5)",cs_pos_ns,"(0.7, -0.5)",cs_neg_s,"(0.7, 0.5)",cs_pos_s,0,0,0,0,,,,,,,,,,,,,,,,,,,,,0,0,0,17,,,,,,,,,,,,,,,,,,,,,,,,,,,57,reward,,,,,911.2598523999986,918.988663199998,918.988663199998,918.988663199998,918.988663199998,0,,,0,,,0,,,1,1.6339666999992914,1.6339704000019992,920.6275124999993,920.6275124999993,920.6275124999993,920.6275124999993,36,D,2024-05-15_14h29.16.772,attentional_competition_task,2022.2.4,144.0131570357511,
positions.xlsx,positions_test.xlsx,positions_test_new.xlsx,stimuli.xlsx,stimuli_new.xlsx,stimuli/Social4.png,stimuli/Social3.png,stimuli/Nonsocial4.png,stimuli/Nonsocial3.png,stimuli/Social2.png,stimuli/Social1.png,stimuli/Nonsocial2.png,stimuli/Nonsocial1.png,,,"(-0.7, -0.5)",cs_pos_ns,"(-0.7, 0.5)",cs_pos_s,"(0.7, -0.5)",cs_neg_s,"(0.7, 0.5)",cs_neg_ns,0,0,0,0,,,,,,,,,,,,,,,,,,,,,0,1,1,19,,,,,,,,,,,,,,,,,,,,,,,,,,,63,reward,,,,,,928.5369248999996,928.5369248999996,928.5369248999996,928.5369248999996,1,0.028481599998485763,0.2719677999994019,0,,,0,,,0,,,929.6132711999999,929.6132711999999,929.6132711999999,929.6132711999999,36,D,2024-05-15_14h29.16.772,attentional_competition_task,2022.2.4,144.0131570357511,
positions.xlsx,positions_test.xlsx,positions_test_new.xlsx,stimuli.xlsx,stimuli_new.xlsx,stimuli/Social4.png,stimuli/Social3.png,stimuli/Nonsocial4.png,stimuli/Nonsocial3.png,stimuli/Social2.png,stimuli/Social1.png,stimuli/Nonsocial2.png,stimuli/Nonsocial1.png,,,"(-0.7, -0.5)",cs_pos_s,"(-0.7, 0.5)",cs_neg_ns,"(0.7, -0.5)",cs_neg_s,"(0.7, 0.5)",cs_pos_ns,0,0,0,0,,,,,,,,,,,,,,,,,,,,,0,2,2,8,,,,,,,,,,,,,,,,,,,,,,,,,,,66,reward,,,,,,937.3282474000007,937.3282474000007,937.3282474000007,937.3282474000007,0,,,1,0.029894199997215765,0.1692905999989307,0,,,1,0.23247559999799705,0.2324793999978283,938.0573595999995,938.0573595999995,938.0573595999995,938.0573595999995,36,D,2024-05-15_14h29.16.772,attentional_competition_task,2022.2.4,144.0131570357511,
positions.xlsx,positions_test.xlsx,positions_test_new.xlsx,stimuli.xlsx,stimuli_new.xlsx,stimuli/Social4.png,stimuli/Social3.png,stimuli/Nonsocial4.png,stimuli/Nonsocial3.png,stimuli/Social2.png,stimuli/Social1.png,stimuli/Nonsocial2.png,stimuli/Nonsocial1.png,,,"(-0.7, -0.5)",cs_neg_s,"(-0.7, 0.5)",cs_neg_ns,"(0.7, -0.5)",cs_pos_ns,"(0.7, 0.5)",cs_pos_s,0,0,0,0,,,,,,,,,,,,,,,,,,,,,0,3,3,3,,,,,,,,,,,,,,,,,,,,,,,,,,,72,reward,,,,,,945.5987266000011,945.5987266000011,945.5987266000011,945.5987266000011,0,,,0,,,1,0.745716800000082,0.7457205999999132,1,0.03168340000047465,0.7323547999985749,946.3348449000005,946.3348449000005,946.3348449000005,946.3348449000005,36,D,2024-05-15_14h29.16.772,attentional_competition_task,2022.2.4,144.0131570357511,
positions.xlsx,positions_test.xlsx,positions_test_new.xlsx,stimuli.xlsx,stimuli_new.xlsx,stimuli/Social4.png,stimuli/Social3.png,stimuli/Nonsocial4.png,stimuli/Nonsocial3.png,stimuli/Social2.png,stimuli/Social1.png,stimuli/Nonsocial2.png,stimuli/Nonsocial1.png,,,"(-0.7, -0.5)",cs_neg_ns,"(-0.7, 0.5)",cs_pos_s,"(0.7, -0.5)",cs_pos_ns,"(0.7, 0.5)",cs_neg_s,0,0,0,0,,,,,,,,,,,,,,,,,,,,,0,4,4,13,,,,,,,,,,,,,,,,,,,,,,,,,,,72,loss,,,,,,955.1539101999988,955.1539101999988,955.1539101999988,955.1539101999988,1,0.16880099999980303,0.1828064999972412,1,0.029862199997296557,0.16912559999764198,0,,,0,,,955.3414144999988,955.3414144999988,955.3414144999988,955.3414144999988,36,D,2024-05-15_14h29.16.772,attentional_competition_task,2022.2.4,144.0131570357511,
positions.xlsx,positions_test.xlsx,positions_test_new.xlsx,stimuli.xlsx,stimuli_new.xlsx,stimuli/Social4.png,stimuli/Social3.png,stimuli/Nonsocial4.png,stimuli/Nonsocial3.png,stimuli/Social2.png,stimuli/Social1.png,stimuli/Nonsocial2.png,stimuli/Nonsocial1.png,,,"(-0.7, -0.5)",cs_pos_ns,"(-0.7, 0.5)",cs_neg_ns,"(0.7, -0.5)",cs_neg_s,"(0.7, 0.5)",cs_pos_s,0,0,0,0,,,,,,,,,,,,,,,,,,,,,0,5,5,21,,,,,,,,,,,,,,,,,,,,,,,,,,,75,reward,,,,,,964.1188833999986,964.1188833999986,964.1188833999986,964.1188833999986,1,0.023022699999273755,0.3846396000008099,0,,,0,,,0,,,965.0076708999986,965.0076708999986,965.0076708999986,965.0076708999986,36,D,2024-05-15_14h29.16.772,attentional_competition_task,2022.2.4,144.0131570357511,
positions.xlsx,positions_test.xlsx,positions_test_new.xlsx,stimuli.xlsx,stimuli_new.xlsx,stimuli/Social4.png,stimuli/Social3.png,stimuli/Nonsocial4.png,stimuli/Nonsocial3.png,stimuli/Social2.png,stimuli/Social1.png,stimuli/Nonsocial2.png,stimuli/Nonsocial1.png,,,"(-0.7, -0.5)",cs_neg_ns,"(-0.7, 0.5)",cs_pos_ns,"(0.7, -0.5)",cs_pos_s,"(0.7, 0.5)",cs_neg_s,0,0,0,0,,,,,,,,,,,,,,,,,,,,,0,6,6,16,,,,,,,,,,,,,,,,,,,,,,,,,,,81,reward,,,,,,973.3892984999984,973.3892984999984,973.3892984999984,973.3892984999984,0,,,0,,,1,0.030106300000625197,0.030109799998172093,0,,,973.3892984999984,973.3892984999984,973.3892984999984,973.3892984999984,36,D,2024-05-15_14h29.16.772,attentional_competition_task,2022.2.4,144.0131570357511,
positions.xlsx,positions_test.xlsx,positions_test_new.xlsx,stimuli.xlsx,stimuli_new.xlsx,stimuli/Social4.png,stimuli/Social3.png,stimuli/Nonsocial4.png,stimuli/Nonsocial3.png,stimuli/Social2.png,stimuli/Social1.png,stimuli/Nonsocial2.png,stimuli/Nonsocial1.png,,,"(-0.7, -0.5)",cs_pos_ns,"(-0.7, 0.5)",cs_neg_ns,"(0.7, -0.5)",cs_pos_s,"(0.7, 0.5)",cs_neg_s,0,0,0,0,,,,,,,,,,,,,,,,,,,,,0,7,7,20,,,,,,,,,,,,,,,,,,,,,,,,,,,87,reward,,,,,,981.7987362999993,981.7987362999993,981.7987362999993,981.7987362999993,1,0.027745400002459064,0.19707370000105584,0,,,1,0.25274089999948046,0.2596573000009812,0,,,982.0625857999985,982.0625857999985,982.0625857999985,982.0625857999985,36,D,2024-05-15_14h29.16.772,attentional_competition_task,2022.2.4,144.0131570357511,
positions.xlsx,positions_test.xlsx,positions_test_new.xlsx,stimuli.xlsx,stimuli_new.xlsx,stimuli/Social4.png,stimuli/Social3.png,stimuli/Nonsocial4.png,stimuli/Nonsocial3.png,stimuli/Social2.png,stimuli/Social1.png,stimuli/Nonsocial2.png,stimuli/Nonsocial1.png,,,"(-0.7, -0.5)",cs_pos_s,"(-0.7, 0.5)",cs_neg_s,"(0.7, -0.5)",cs_pos_ns,"(0.7, 0.5)",cs_neg_ns,0,0,0,0,,,,,,,,,,,,,,,,,,,,,0,8,8,7,,,,,,,,,,,,,,,,,,,,,,,,,,,96,reward,,,,,,991.4302581000011,991.4302581000011,991.4302581000011,991.4302581000011,0,,,0,,,0,,,0,,,991.4302581000011,991.4302581000011,991.4302581000011,991.4302581000011,36,D,2024-05-15_14h29.16.772,attentional_competition_task,2022.2.4,144.0131570357511,
positions.xlsx,positions_test.xlsx,positions_test_new.xlsx,stimuli.xlsx,stimuli_new.xlsx,stimuli/Social4.png,stimuli/Social3.png,stimuli/Nonsocial4.png,stimuli/Nonsocial3.png,stimuli/Social2.png,stimuli/Social1.png,stimuli/Nonsocial2.png,stimuli/Nonsocial1.png,,,"(-0.7, -0.5)",cs_pos_s,"(-0.7, 0.5)",cs_neg_s,"(0.7, -0.5)",cs_neg_ns,"(0.7, 0.5)",cs_pos_ns,0,0,0,0,,,,,,,,,,,,,,,,,,,,,0,9,9,6,,,,,,,,,,,,,,,,,,,,,,,,,,,99,reward,,,,,,999.4021812999999,999.4021812999999,999.4021812999999,999.4021812999999,0,,,0,,,0,,,1,0.02426220000052126,0.024266100001113955,999.4021812999999,999.4021812999999,999.4021812999999,999.4021812999999,36,D,2024-05-15_14h29.16.772,attentional_competition_task,2022.2.4,144.0131570357511,
positions.xlsx,positions_test.xlsx,positions_test_new.xlsx,stimuli.xlsx,stimuli_new.xlsx,stimuli/Social4.png,stimuli/Social3.png,stimuli/Nonsocial4.png,stimuli/Nonsocial3.png,stimuli/Social2.png,stimuli/Social1.png,stimuli/Nonsocial2.png,stimuli/Nonsocial1.png,,,"(-0.7, -0.5)",cs_pos_ns,"(-0.7, 0.5)",cs_neg_s,"(0.7, -0.5)",cs_pos_s,"(0.7, 0.5)",cs_neg_ns,0,0,0,0,,,,,,,,,,,,,,,,,,,,,0,10,10,22,,,,,,,,,,,,,,,,,,,,,,,,,,,108,reward,,,,,,1008.325380899998,1008.325380899998,1008.325380899998,1008.325380899998,0,,,0,,,1,0.029354300000704825,0.03721420000147191,0,,,1008.8671099999992,1008.8671099999992,1008.8671099999992,1008.8671099999992,36,D,2024-05-15_14h29.16.772,attentional_competition_task,2022.2.4,144.0131570357511,
positions.xlsx,positions_test.xlsx,positions_test_new.xlsx,stimuli.xlsx,stimuli_new.xlsx,stimuli/Social4.png,stimuli/Social3.png,stimuli/Nonsocial4.png,stimuli/Nonsocial3.png,stimuli/Social2.png,stimuli/Social1.png,stimuli/Nonsocial2.png,stimuli/Nonsocial1.png,,,"(-0.7, -0.5)",cs_pos_s,"(-0.7, 0.5)",cs_pos_ns,"(0.7, -0.5)",cs_neg_ns,"(0.7, 0.5)",cs_neg_s,0,0,0,0,,,,,,,,,,,,,,,,,,,,,0,11,11,11,,,,,,,,,,,,,,,,,,,,,,,,,,,117,reward,,,,,,1017.3875212999992,1017.3875212999992,1017.3875212999992,1017.3875212999992,0,,,0,,,0,,,0,,,1017.9986390999984,1017.9986390999984,1017.9986390999984,1017.9986390999984,36,D,2024-05-15_14h29.16.772,attentional_competition_task,2022.2.4,144.0131570357511,
positions.xlsx,positions_test.xlsx,positions_test_new.xlsx,stimuli.xlsx,stimuli_new.xlsx,stimuli/Social4.png,stimuli/Social3.png,stimuli/Nonsocial4.png,stimuli/Nonsocial3.png,stimuli/Social2.png,stimuli/Social1.png,stimuli/Nonsocial2.png,stimuli/Nonsocial1.png,,,"(-0.7, -0.5)",cs_neg_s,"(-0.7, 0.5)",cs_pos_ns,"(0.7, -0.5)",cs_pos_s,"(0.7, 0.5)",cs_neg_ns,0,0,0,0,,,,,,,,,,,,,,,,,,,,,0,12,12,4,,,,,,,,,,,,,,,,,,,,,,,,,,,126,reward,,,,,,1025.3525274999993,1025.3525274999993,1025.3525274999993,1025.3525274999993,0,,,0,,,1,0.09877149999738322,0.25875459999952,0,,,1026.1163627999995,1026.1163627999995,1026.1163627999995,1026.1163627999995,36,D,2024-05-15_14h29.16.772,attentional_competition_task,2022.2.4,144.0131570357511,
positions.xlsx,positions_test.xlsx,positions_test_new.xlsx,stimuli.xlsx,stimuli_new.xlsx,stimuli/Social4.png,stimuli/Social3.png,stimuli/Nonsocial4.png,stimuli/Nonsocial3.png,stimuli/Social2.png,stimuli/Social1.png,stimuli/Nonsocial2.png,stimuli/Nonsocial1.png,,,"(-0.7, -0.5)",cs_neg_s,"(-0.7, 0.5)",cs_neg_ns,"(0.7, -0.5)",cs_pos_s,"(0.7, 0.5)",cs_pos_ns,0,0,0,0,,,,,,,,,,,,,,,,,,,,,0,13,13,2,,,,,,,,,,,,,,,,,,,,,,,,,,,135,reward,,,,,,1033.6646698000004,1033.6646698000004,1033.6646698000004,1033.6646698000004,0,,,0,,,0,,,1,0.02429420000044047,0.15667430000030436,1034.3521597,1034.3521597,1034.3521597,1034.3521597,36,D,2024-05-15_14h29.16.772,attentional_competition_task,2022.2.4,144.0131570357511,
positions.xlsx,positions_test.xlsx,positions_test_new.xlsx,stimuli.xlsx,stimuli_new.xlsx,stimuli/Social4.png,stimuli/Social3.png,stimuli/Nonsocial4.png,stimuli/Nonsocial3.png,stimuli/Social2.png,stimuli/Social1.png,stimuli/Nonsocial2.png,stimuli/Nonsocial1.png,,,"(-0.7, -0.5)",cs_pos_s,"(-0.7, 0.5)",cs_pos_ns,"(0.7, -0.5)",cs_neg_s,"(0.7, 0.5)",cs_neg_ns,0,0,0,0,,,,,,,,,,,,,,,,,,,,,0,14,14,10,,,,,,,,,,,,,,,,,,,,,,,,,,,144,reward,,,,,,1042.705973199998,1042.705973199998,1042.705973199998,1042.705973199998,0,,,0,,,0,,,0,,,1043.4559678000005,1043.4559678000005,1043.4559678000005,1043.4559678000005,36,D,2024-05-15_14h29.16.772,attentional_competition_task,2022.2.4,144.0131570357511,
positions.xlsx,positions_test.xlsx,positions_test_new.xlsx,stimuli.xlsx,stimuli_new.xlsx,stimuli/Social4.png,stimuli/Social3.png,stimuli/Nonsocial4.png,stimuli/Nonsocial3.png,stimuli/Social2.png,stimuli/Social1.png,stimuli/Nonsocial2.png,stimuli/Nonsocial1.png,,,"(-0.7, -0.5)",cs_pos_ns,"(-0.7, 0.5)",cs_neg_s,"(0.7, -0.5)",cs_neg_ns,"(0.7, 0.5)",cs_pos_s,0,0,0,0,,,,,,,,,,,,,,,,,,,,,0,15,15,23,,,,,,,,,,,,,,,,,,,,,,,,,,,153,reward,,,,,,1050.9000959000005,1050.9000959000005,1050.9000959000005,1050.9000959000005,1,0.029531699998187833,0.4111023999976169,0,,,0,,,0,,,1051.8097874999985,1051.8097874999985,1051.8097874999985,1051.8097874999985,36,D,2024-05-15_14h29.16.772,attentional_competition_task,2022.2.4,144.0131570357511,
positions.xlsx,positions_test.xlsx,positions_test_new.xlsx,stimuli.xlsx,stimuli_new.xlsx,stimuli/Social4.png,stimuli/Social3.png,stimuli/Nonsocial4.png,stimuli/Nonsocial3.png,stimuli/Social2.png,stimuli/Social1.png,stimuli/Nonsocial2.png,stimuli/Nonsocial1.png,,,"(-0.7, -0.5)",cs_pos_ns,"(-0.7, 0.5)",cs_pos_s,"(0.7, -0.5)",cs_neg_ns,"(0.7, 0.5)",cs_neg_s,0,0,0,0,,,,,,,,,,,,,,,,,,,,,0,16,16,18,,,,,,,,,,,,,,,,,,,,,,,,,,,162,reward,,,,,,1059.6150533,1059.6150533,1059.6150533,1059.6150533,0,,,1,0.023901399999886053,0.05161940000107279,0,,,0,,,1060.5246880999985,1060.5246880999985,1060.5246880999985,1060.5246880999985,36,D,2024-05-15_14h29.16.772,attentional_competition_task,2022.2.4,144.0131570357511,
positions.xlsx,positions_test.xlsx,positions_test_new.xlsx,stimuli.xlsx,stimuli_new.xlsx,stimuli/Social4.png,stimuli/Social3.png,stimuli/Nonsocial4.png,stimuli/Nonsocial3.png,stimuli/Social2.png,stimuli/Social1.png,stimuli/Nonsocial2.png,stimuli/Nonsocial1.png,,,"(-0.7, -0.5)",cs_neg_ns,"(-0.7, 0.5)",cs_neg_s,"(0.7, -0.5)",cs_pos_ns,"(0.7, 0.5)",cs_pos_s,0,0,0,0,,,,,,,,,,,,,,,,,,,,,0,17,17,15,,,,,,,,,,,,,,,,,,,,,,,,,,,171,reward,,,,,,1068.427175599998,1068.427175599998,1068.427175599998,1068.427175599998,0,,,0,,,0,,,0,,,1069.1632667000013,1069.1632667000013,1069.1632667000013,1069.1632667000013,36,D,2024-05-15_14h29.16.772,attentional_competition_task,2022.2.4,144.0131570357511,
positions.xlsx,positions_test.xlsx,positions_test_new.xlsx,stimuli.xlsx,stimuli_new.xlsx,stimuli/Social4.png,stimuli/Social3.png,stimuli/Nonsocial4.png,stimuli/Nonsocial3.png,stimuli/Social2.png,stimuli/Social1.png,stimuli/Nonsocial2.png,stimuli/Nonsocial1.png,,,"(-0.7, -0.5)",cs_neg_ns,"(-0.7, 0.5)",cs_pos_s,"(0.7, -0.5)",cs_neg_s,"(0.7, 0.5)",cs_pos_ns,0,0,0,0,,,,,,,,,,,,,,,,,,,,,0,18,18,12,,,,,,,,,,,,,,,,,,,,,,,,,,,180,reward,,,,,,1077.0587864000008,1077.0587864000008,1077.0587864000008,1077.0587864000008,0,,,1,0.02311310000004596,0.2948851000001014,0,,,0,,,1077.8573609999985,1077.8573609999985,1077.8573609999985,1077.8573609999985,36,D,2024-05-15_14h29.16.772,attentional_competition_task,2022.2.4,144.0131570357511,
positions.xlsx,positions_test.xlsx,positions_test_new.xlsx,stimuli.xlsx,stimuli_new.xlsx,stimuli/Social4.png,stimuli/Social3.png,stimuli/Nonsocial4.png,stimuli/Nonsocial3.png,stimuli/Social2.png,stimuli/Social1.png,stimuli/Nonsocial2.png,stimuli/Nonsocial1.png,,,"(-0.7, -0.5)",cs_neg_s,"(-0.7, 0.5)",cs_pos_ns,"(0.7, -0.5)",cs_neg_ns,"(0.7, 0.5)",cs_pos_s,0,0,0,0,,,,,,,,,,,,,,,,,,,,,0,19,19,5,,,,,,,,,,,,,,,,,,,,,,,,,,,189,reward,,,,,,1085.4751594000008,1085.4751594000008,1085.4751594000008,1085.4751594000008,0,,,0,,,0,,,0,,,1086.2528569999995,1086.2528569999995,1086.2528569999995,1086.2528569999995,36,D,2024-05-15_14h29.16.772,attentional_competition_task,2022.2.4,144.0131570357511,
positions.xlsx,positions_test.xlsx,positions_test_new.xlsx,stimuli.xlsx,stimuli_new.xlsx,stimuli/Social4.png,stimuli/Social3.png,stimuli/Nonsocial4.png,stimuli/Nonsocial3.png,stimuli/Social2.png,stimuli/Social1.png,stimuli/Nonsocial2.png,stimuli/Nonsocial1.png,,,"(-0.7, -0.5)",cs_neg_s,"(-0.7, 0.5)",cs_pos_s,"(0.7, -0.5)",cs_pos_ns,"(0.7, 0.5)",cs_neg_ns,0,0,0,0,,,,,,,,,,,,,,,,,,,,,0,20,20,1,,,,,,,,,,,,,,,,,,,,,,,,,,,198,reward,,,,,,1094.1136578000005,1094.1136578000005,1094.1136578000005,1094.1136578000005,0,,,1,0.029790500000672182,0.15578960000129882,0,,,0,,,1094.766439799998,1094.766439799998,1094.766439799998,1094.766439799998,36,D,2024-05-15_14h29.16.772,attentional_competition_task,2022.2.4,144.0131570357511,
positions.xlsx,positions_test.xlsx,positions_test_new.xlsx,stimuli.xlsx,stimuli_new.xlsx,stimuli/Social4.png,stimuli/Social3.png,stimuli/Nonsocial4.png,stimuli/Nonsocial3.png,stimuli/Social2.png,stimuli/Social1.png,stimuli/Nonsocial2.png,stimuli/Nonsocial1.png,,,"(-0.7, -0.5)",cs_neg_ns,"(-0.7, 0.5)",cs_neg_s,"(0.7, -0.5)",cs_pos_s,"(0.7, 0.5)",cs_pos_ns,0,0,0,0,,,,,,,,,,,,,,,,,,,,,0,21,21,14,,,,,,,,,,,,,,,,,,,,,,,,,,,207,reward,,,,,,1102.6757967999984,1102.6757967999984,1102.6757967999984,1102.6757967999984,0,,,0,,,0,,,1,0.025018099997396348,0.13581749999866588,1103.3146917000013,1103.3146917000013,1103.3146917000013,1103.3146917000013,36,D,2024-05-15_14h29.16.772,attentional_competition_task,2022.2.4,144.0131570357511,
positions.xlsx,positions_test.xlsx,positions_test_new.xlsx,stimuli.xlsx,stimuli_new.xlsx,stimuli/Social4.png,stimuli/Social3.png,stimuli/Nonsocial4.png,stimuli/Nonsocial3.png,stimuli/Social2.png,stimuli/Social1.png,stimuli/Nonsocial2.png,stimuli/Nonsocial1.png,,,"(-0.7, -0.5)",cs_neg_s,"(-0.7, 0.5)",cs_pos_s,"(0.7, -0.5)",cs_neg_ns,"(0.7, 0.5)",cs_pos_ns,0,0,0,0,,,,,,,,,,,,,,,,,,,,,0,22,22,0,,,,,,,,,,,,,,,,,,,,,,,,,,,207,loss,,,,,,1110.4463079999987,1110.4463079999987,1110.4463079999987,1110.4463079999987,0,,,1,0.029569799997261725,0.4950771999974677,1,0.5574687999978778,0.5574723999998241,0,,,1111.0018810000001,1111.0018810000001,1111.0018810000001,1111.0018810000001,36,D,2024-05-15_14h29.16.772,attentional_competition_task,2022.2.4,144.0131570357511,
positions.xlsx,positions_test.xlsx,positions_test_new.xlsx,stimuli.xlsx,stimuli_new.xlsx,stimuli/Social4.png,stimuli/Social3.png,stimuli/Nonsocial4.png,stimuli/Nonsocial3.png,stimuli/Social2.png,stimuli/Social1.png,stimuli/Nonsocial2.png,stimuli/Nonsocial1.png,,,"(-0.7, -0.5)",cs_pos_s,"(-0.7, 0.5)",cs_neg_ns,"(0.7, -0.5)",cs_pos_ns,"(0.7, 0.5)",cs_neg_s,0,0,0,0,,,,,,,,,,,,,,,,,,,,,0,23,23,9,,,,,,,,,,,,,,,,,,,,,,,,,,,216,reward,,,,,,1120.0501143000001,1120.0501143000001,1120.0501143000001,1120.0501143000001,1,0.022988100001384737,0.0795706999997492,0,,,0,,,0,,,1120.6403734999985,1120.6403734999985,1120.6403734999985,1120.6403734999985,36,D,2024-05-15_14h29.16.772,attentional_competition_task,2022.2.4,144.0131570357511,
positions.xlsx,positions_test.xlsx,positions_test_new.xlsx,stimuli.xlsx,stimuli_new.xlsx,stimuli/Social4.png,stimuli/Social3.png,stimuli/Nonsocial4.png,stimuli/Nonsocial3.png,stimuli/Social2.png,stimuli/Social1.png,stimuli/Nonsocial2.png,stimuli/Nonsocial1.png,,,"(-0.7, -0.5)",cs_pos_s,"(-0.7, 0.5)",cs_neg_s,"(0.7, -0.5)",cs_neg_ns,"(0.7, 0.5)",cs_pos_ns,0,0,0,0,,,,,,,,,,,,,,,,,,,,,1,0,24,6,,,,,,,,,,,,,,,,,,,,,,,,,,,213,loss,,,,,,1127.4734064000004,1127.4734064000004,1127.4734064000004,1127.4734064000004,0,,,1,0.02379549999750452,0.023799399998097215,0,,,0,,,1127.4734064000004,1127.4734064000004,1127.4734064000004,1127.4734064000004,36,D,2024-05-15_14h29.16.772,attentional_competition_task,2022.2.4,144.0131570357511,
positions.xlsx,positions_test.xlsx,positions_test_new.xlsx,stimuli.xlsx,stimuli_new.xlsx,stimuli/Social4.png,stimuli/Social3.png,stimuli/Nonsocial4.png,stimuli/Nonsocial3.png,stimuli/Social2.png,stimuli/Social1.png,stimuli/Nonsocial2.png,stimuli/Nonsocial1.png,,,"(-0.7, -0.5)",cs_pos_ns,"(-0.7, 0.5)",cs_neg_s,"(0.7, -0.5)",cs_neg_ns,"(0.7, 0.5)",cs_pos_s,0,0,0,0,,,,,,,,,,,,,,,,,,,,,1,1,25,23,,,,,,,,,,,,,,,,,,,,,,,,,,,222,reward,,,,,,1136.681389999998,1136.681389999998,1136.681389999998,1136.681389999998,0,,,0,,,0,,,1,0.030125699999189237,0.05150599999979022,1137.2369419999995,1137.2369419999995,1137.2369419999995,1137.2369419999995,36,D,2024-05-15_14h29.16.772,attentional_competition_task,2022.2.4,144.0131570357511,
positions.xlsx,positions_test.xlsx,positions_test_new.xlsx,stimuli.xlsx,stimuli_new.xlsx,stimuli/Social4.png,stimuli/Social3.png,stimuli/Nonsocial4.png,stimuli/Nonsocial3.png,stimuli/Social2.png,stimuli/Social1.png,stimuli/Nonsocial2.png,stimuli/Nonsocial1.png,,,"(-0.7, -0.5)",cs_neg_s,"(-0.7, 0.5)",cs_neg_ns,"(0.7, -0.5)",cs_pos_ns,"(0.7, 0.5)",cs_pos_s,0,0,0,0,,,,,,,,,,,,,,,,,,,,,1,2,26,3,,,,,,,,,,,,,,,,,,,,,,,,,,,231,reward,,,,,,1145.4379869000004,1145.4379869000004,1145.4379869000004,1145.4379869000004,0,,,0,,,1,0.026992399998562178,0.1866939999999886,0,,,1146.125473199998,1146.125473199998,1146.125473199998,1146.125473199998,36,D,2024-05-15_14h29.16.772,attentional_competition_task,2022.2.4,144.0131570357511,
positions.xlsx,positions_test.xlsx,positions_test_new.xlsx,stimuli.xlsx,stimuli_new.xlsx,stimuli/Social4.png,stimuli/Social3.png,stimuli/Nonsocial4.png,stimuli/Nonsocial3.png,stimuli/Social2.png,stimuli/Social1.png,stimuli/Nonsocial2.png,stimuli/Nonsocial1.png,,,"(-0.7, -0.5)",cs_pos_ns,"(-0.7, 0.5)",cs_neg_ns,"(0.7, -0.5)",cs_pos_s,"(0.7, 0.5)",cs_neg_s,0,0,0,0,,,,,,,,,,,,,,,,,,,,,1,3,27,20,,,,,,,,,,,,,,,,,,,,,,,,,,,234,reward,,,,,,1152.1391188999987,1152.1391188999987,1152.1391188999987,1152.1391188999987,1,1.7934143999991647,1.7934180999982345,0,,,0,,,0,,,1153.9376613999993,1153.9376613999993,1153.9376613999993,1153.9376613999993,36,D,2024-05-15_14h29.16.772,attentional_competition_task,2022.2.4,144.0131570357511,
positions.xlsx,positions_test.xlsx,positions_test_new.xlsx,stimuli.xlsx,stimuli_new.xlsx,stimuli/Social4.png,stimuli/Social3.png,stimuli/Nonsocial4.png,stimuli/Nonsocial3.png,stimuli/Social2.png,stimuli/Social1.png,stimuli/Nonsocial2.png,stimuli/Nonsocial1.png,,,"(-0.7, -0.5)",cs_neg_ns,"(-0.7, 0.5)",cs_pos_s,"(0.7, -0.5)",cs_pos_ns,"(0.7, 0.5)",cs_neg_s,0,0,0,0,,,,,,,,,,,,,,,,,,,,,1,4,28,13,,,,,,,,,,,,,,,,,,,,,,,,,,,237,reward,,,,,,1161.6526018000004,1161.6526018000004,1161.6526018000004,1161.6526018000004,0,,,1,0.029909199998655822,0.029913200000009965,0,,,0,,,1161.6526018000004,1161.6526018000004,1161.6526018000004,1161.6526018000004,36,D,2024-05-15_14h29.16.772,attentional_competition_task,2022.2.4,144.0131570357511,
positions.xlsx,positions_test.xlsx,positions_test_new.xlsx,stimuli.xlsx,stimuli_new.xlsx,stimuli/Social4.png,stimuli/Social3.png,stimuli/Nonsocial4.png,stimuli/Nonsocial3.png,stimuli/Social2.png,stimuli/Social1.png,stimuli/Nonsocial2.png,stimuli/Nonsocial1.png,,,"(-0.7, -0.5)",cs_neg_ns,"(-0.7, 0.5)",cs_pos_s,"(0.7, -0.5)",cs_neg_s,"(0.7, 0.5)",cs_pos_ns,0,0,0,0,,,,,,,,,,,,,,,,,,,,,1,5,29,12,,,,,,,,,,,,,,,,,,,,,,,,,,,243,reward,,,,,,1169.8397860000005,1169.8397860000005,1169.8397860000005,1169.8397860000005,0,,,1,0.1971412999992026,0.1971451999997953,0,,,1,0.02993439999772818,0.12803050000002258,1170.0411839000008,1170.0411839000008,1170.0411839000008,1170.0411839000008,36,D,2024-05-15_14h29.16.772,attentional_competition_task,2022.2.4,144.0131570357511,
positions.xlsx,positions_test.xlsx,positions_test_new.xlsx,stimuli.xlsx,stimuli_new.xlsx,stimuli/Social4.png,stimuli/Social3.png,stimuli/Nonsocial4.png,stimuli/Nonsocial3.png,stimuli/Social2.png,stimuli/Social1.png,stimuli/Nonsocial2.png,stimuli/Nonsocial1.png,,,"(-0.7, -0.5)",cs_pos_ns,"(-0.7, 0.5)",cs_pos_s,"(0.7, -0.5)",cs_neg_s,"(0.7, 0.5)",cs_neg_ns,0,0,0,0,,,,,,,,,,,,,,,,,,,,,1,6,30,19,,,,,,,,,,,,,,,,,,,,,,,,,,,252,reward,,,,,,1178.4852992000015,1178.4852992000015,1178.4852992000015,1178.4852992000015,0,,,0,,,0,,,0,,,1179.3533185999986,1179.3533185999986,1179.3533185999986,1179.3533185999986,36,D,2024-05-15_14h29.16.772,attentional_competition_task,2022.2.4,144.0131570357511,
positions.xlsx,positions_test.xlsx,positions_test_new.xlsx,stimuli.xlsx,stimuli_new.xlsx,stimuli/Social4.png,stimuli/Social3.png,stimuli/Nonsocial4.png,stimuli/Nonsocial3.png,stimuli/Social2.png,stimuli/Social1.png,stimuli/Nonsocial2.png,stimuli/Nonsocial1.png,,,"(-0.7, -0.5)",cs_pos_s,"(-0.7, 0.5)",cs_neg_s,"(0.7, -0.5)",cs_pos_ns,"(0.7, 0.5)",cs_neg_ns,0,0,0,0,,,,,,,,,,,,,,,,,,,,,1,7,31,7,,,,,,,,,,,,,,,,,,,,,,,,,,,261,reward,,,,,,1187.4848997000008,1187.4848997000008,1187.4848997000008,1187.4848997000008,1,0.0375917000019399,0.23791650000202935,0,,,0,,,0,,,1188.234897899998,1188.234897899998,1188.234897899998,1188.234897899998,36,D,2024-05-15_14h29.16.772,attentional_competition_task,2022.2.4,144.0131570357511,
positions.xlsx,positions_test.xlsx,positions_test_new.xlsx,stimuli.xlsx,stimuli_new.xlsx,stimuli/Social4.png,stimuli/Social3.png,stimuli/Nonsocial4.png,stimuli/Nonsocial3.png,stimuli/Social2.png,stimuli/Social1.png,stimuli/Nonsocial2.png,stimuli/Nonsocial1.png,,,"(-0.7, -0.5)",cs_neg_s,"(-0.7, 0.5)",cs_neg_ns,"(0.7, -0.5)",cs_pos_s,"(0.7, 0.5)",cs_pos_ns,0,0,0,0,,,,,,,,,,,,,,,,,,,,,1,8,32,2,,,,,,,,,,,,,,,,,,,,,,,,,,,264,reward,,,,,,1193.984661800001,1193.984661800001,1193.984661800001,1193.984661800001,0,,,0,,,0,,,1,1.8084249999992608,1.8084286999983306,1195.804027099999,1195.804027099999,1195.804027099999,1195.804027099999,36,D,2024-05-15_14h29.16.772,attentional_competition_task,2022.2.4,144.0131570357511,
positions.xlsx,positions_test.xlsx,positions_test_new.xlsx,stimuli.xlsx,stimuli_new.xlsx,stimuli/Social4.png,stimuli/Social3.png,stimuli/Nonsocial4.png,stimuli/Nonsocial3.png,stimuli/Social2.png,stimuli/Social1.png,stimuli/Nonsocial2.png,stimuli/Nonsocial1.png,,,"(-0.7, -0.5)",cs_neg_s,"(-0.7, 0.5)",cs_pos_ns,"(0.7, -0.5)",cs_pos_s,"(0.7, 0.5)",cs_neg_ns,0,0,0,0,,,,,,,,,,,,,,,,,,,,,1,9,33,4,,,,,,,,,,,,,,,,,,,,,,,,,,,273,reward,,,,,,1204.539796699999,1204.539796699999,1204.539796699999,1204.539796699999,0,,,0,,,0,,,0,,,1205.310602499998,1205.310602499998,1205.310602499998,1205.310602499998,36,D,2024-05-15_14h29.16.772,attentional_competition_task,2022.2.4,144.0131570357511,
positions.xlsx,positions_test.xlsx,positions_test_new.xlsx,stimuli.xlsx,stimuli_new.xlsx,stimuli/Social4.png,stimuli/Social3.png,stimuli/Nonsocial4.png,stimuli/Nonsocial3.png,stimuli/Social2.png,stimuli/Social1.png,stimuli/Nonsocial2.png,stimuli/Nonsocial1.png,,,"(-0.7, -0.5)",cs_neg_ns,"(-0.7, 0.5)",cs_pos_ns,"(0.7, -0.5)",cs_neg_s,"(0.7, 0.5)",cs_pos_s,0,0,0,0,,,,,,,,,,,,,,,,,,,,,1,10,34,17,,,,,,,,,,,,,,,,,,,,,,,,,,,282,reward,,,,,,1212.5672312999995,1212.5672312999995,1212.5672312999995,1212.5672312999995,0,,,0,,,0,,,0,,,1213.4144615000005,1213.4144615000005,1213.4144615000005,1213.4144615000005,36,D,2024-05-15_14h29.16.772,attentional_competition_task,2022.2.4,144.0131570357511,
positions.xlsx,positions_test.xlsx,positions_test_new.xlsx,stimuli.xlsx,stimuli_new.xlsx,stimuli/Social4.png,stimuli/Social3.png,stimuli/Nonsocial4.png,stimuli/Nonsocial3.png,stimuli/Social2.png,stimuli/Social1.png,stimuli/Nonsocial2.png,stimuli/Nonsocial1.png,,,"(-0.7, -0.5)",cs_pos_ns,"(-0.7, 0.5)",cs_neg_ns,"(0.7, -0.5)",cs_neg_s,"(0.7, 0.5)",cs_pos_s,0,0,0,0,,,,,,,,,,,,,,,,,,,,,1,11,35,21,,,,,,,,,,,,,,,,,,,,,,,,,,,285,reward,,,,,,1221.3586337999986,1221.3586337999986,1221.3586337999986,1221.3586337999986,0,,,0,,,0,,,1,0.02613569999812171,0.02614009999888367,1221.3586337999986,1221.3586337999986,1221.3586337999986,1221.3586337999986,36,D,2024-05-15_14h29.16.772,attentional_competition_task,2022.2.4,144.0131570357511,
positions.xlsx,positions_test.xlsx,positions_test_new.xlsx,stimuli.xlsx,stimuli_new.xlsx,stimuli/Social4.png,stimuli/Social3.png,stimuli/Nonsocial4.png,stimuli/Nonsocial3.png,stimuli/Social2.png,stimuli/Social1.png,stimuli/Nonsocial2.png,stimuli/Nonsocial1.png,,,"(-0.7, -0.5)",cs_pos_s,"(-0.7, 0.5)",cs_pos_ns,"(0.7, -0.5)",cs_neg_ns,"(0.7, 0.5)",cs_neg_s,0,0,0,0,,,,,,,,,,,,,,,,,,,,,1,12,36,11,,,,,,,,,,,,,,,,,,,,,,,,,,,294,reward,,,,,,1229.6776527000002,1229.6776527000002,1229.6776527000002,1229.6776527000002,0,,,0,,,0,,,0,,,1230.2262870999984,1230.2262870999984,1230.2262870999984,1230.2262870999984,36,D,2024-05-15_14h29.16.772,attentional_competition_task,2022.2.4,144.0131570357511,
positions.xlsx,positions_test.xlsx,positions_test_new.xlsx,stimuli.xlsx,stimuli_new.xlsx,stimuli/Social4.png,stimuli/Social3.png,stimuli/Nonsocial4.png,stimuli/Nonsocial3.png,stimuli/Social2.png,stimuli/Social1.png,stimuli/Nonsocial2.png,stimuli/Nonsocial1.png,,,"(-0.7, -0.5)",cs_pos_ns,"(-0.7, 0.5)",cs_neg_s,"(0.7, -0.5)",cs_pos_s,"(0.7, 0.5)",cs_neg_ns,0,0,0,0,,,,,,,,,,,,,,,,,,,,,1,13,37,22,,,,,,,,,,,,,,,,,,,,,,,,,,,303,reward,,,,,,1237.746812999998,1237.746812999998,1237.746812999998,1237.746812999998,0,,,0,,,0,,,0,,,1238.420430099999,1238.420430099999,1238.420430099999,1238.420430099999,36,D,2024-05-15_14h29.16.772,attentional_competition_task,2022.2.4,144.0131570357511,
positions.xlsx,positions_test.xlsx,positions_test_new.xlsx,stimuli.xlsx,stimuli_new.xlsx,stimuli/Social4.png,stimuli/Social3.png,stimuli/Nonsocial4.png,stimuli/Nonsocial3.png,stimuli/Social2.png,stimuli/Social1.png,stimuli/Nonsocial2.png,stimuli/Nonsocial1.png,,,"(-0.7, -0.5)",cs_neg_s,"(-0.7, 0.5)",cs_pos_s,"(0.7, -0.5)",cs_pos_ns,"(0.7, 0.5)",cs_neg_ns,0,0,0,0,,,,,,,,,,,,,,,,,,,,,1,14,38,1,,,,,,,,,,,,,,,,,,,,,,,,,,,309,reward,,,,,,1245.9131218000002,1245.9131218000002,1245.9131218000002,1245.9131218000002,0,,,1,0.026763300000311574,0.02676699999938137,0,,,0,,,1245.9131218000002,1245.9131218000002,1245.9131218000002,1245.9131218000002,36,D,2024-05-15_14h29.16.772,attentional_competition_task,2022.2.4,144.0131570357511,
positions.xlsx,positions_test.xlsx,positions_test_new.xlsx,stimuli.xlsx,stimuli_new.xlsx,stimuli/Social4.png,stimuli/Social3.png,stimuli/Nonsocial4.png,stimuli/Nonsocial3.png,stimuli/Social2.png,stimuli/Social1.png,stimuli/Nonsocial2.png,stimuli/Nonsocial1.png,,,"(-0.7, -0.5)",cs_neg_s,"(-0.7, 0.5)",cs_pos_ns,"(0.7, -0.5)",cs_neg_ns,"(0.7, 0.5)",cs_pos_s,0,0,0,0,,,,,,,,,,,,,,,,,,,,,1,15,39,5,,,,,,,,,,,,,,,,,,,,,,,,,,,318,reward,,,,,,1255.3989376999998,1255.3989376999998,1255.3989376999998,1255.3989376999998,0,,,0,,,0,,,0,,,1256.1905229000004,1256.1905229000004,1256.1905229000004,1256.1905229000004,36,D,2024-05-15_14h29.16.772,attentional_competition_task,2022.2.4,144.0131570357511,
positions.xlsx,positions_test.xlsx,positions_test_new.xlsx,stimuli.xlsx,stimuli_new.xlsx,stimuli/Social4.png,stimuli/Social3.png,stimuli/Nonsocial4.png,stimuli/Nonsocial3.png,stimuli/Social2.png,stimuli/Social1.png,stimuli/Nonsocial2.png,stimuli/Nonsocial1.png,,,"(-0.7, -0.5)",cs_neg_ns,"(-0.7, 0.5)",cs_neg_s,"(0.7, -0.5)",cs_pos_ns,"(0.7, 0.5)",cs_pos_s,0,0,0,0,,,,,,,,,,,,,,,,,,,,,1,16,40,15,,,,,,,,,,,,,,,,,,,,,,,,,,,327,reward,,,,,,1263.8777279999995,1263.8777279999995,1263.8777279999995,1263.8777279999995,0,,,0,,,0,,,0,,,1264.5651906999992,1264.5651906999992,1264.5651906999992,1264.5651906999992,36,D,2024-05-15_14h29.16.772,attentional_competition_task,2022.2.4,144.0131570357511,
positions.xlsx,positions_test.xlsx,positions_test_new.xlsx,stimuli.xlsx,stimuli_new.xlsx,stimuli/Social4.png,stimuli/Social3.png,stimuli/Nonsocial4.png,stimuli/Nonsocial3.png,stimuli/Social2.png,stimuli/Social1.png,stimuli/Nonsocial2.png,stimuli/Nonsocial1.png,,,"(-0.7, -0.5)",cs_neg_s,"(-0.7, 0.5)",cs_pos_s,"(0.7, -0.5)",cs_neg_ns,"(0.7, 0.5)",cs_pos_ns,0,0,0,0,,,,,,,,,,,,,,,,,,,,,1,17,41,0,,,,,,,,,,,,,,,,,,,,,,,,,,,327,reward,,,,,,1272.5370865000004,1272.5370865000004,1272.5370865000004,1272.5370865000004,0,,,0,,,0,,,1,0.02925890000187792,0.029262900003232062,1272.5370865000004,1272.5370865000004,1272.5370865000004,1272.5370865000004,36,D,2024-05-15_14h29.16.772,attentional_competition_task,2022.2.4,144.0131570357511,
positions.xlsx,positions_test.xlsx,positions_test_new.xlsx,stimuli.xlsx,stimuli_new.xlsx,stimuli/Social4.png,stimuli/Social3.png,stimuli/Nonsocial4.png,stimuli/Nonsocial3.png,stimuli/Social2.png,stimuli/Social1.png,stimuli/Nonsocial2.png,stimuli/Nonsocial1.png,,,"(-0.7, -0.5)",cs_neg_ns,"(-0.7, 0.5)",cs_pos_ns,"(0.7, -0.5)",cs_pos_s,"(0.7, 0.5)",cs_neg_s,0,0,0,0,,,,,,,,,,,,,,,,,,,,,1,18,42,16,,,,,,,,,,,,,,,,,,,,,,,,,,,336,reward,,,,,,1281.2867530000003,1281.2867530000003,1281.2867530000003,1281.2867530000003,0,,,0,,,1,0.027091899999504676,0.23857710000083898,0,,,1282.0297906000014,1282.0297906000014,1282.0297906000014,1282.0297906000014,36,D,2024-05-15_14h29.16.772,attentional_competition_task,2022.2.4,144.0131570357511,
positions.xlsx,positions_test.xlsx,positions_test_new.xlsx,stimuli.xlsx,stimuli_new.xlsx,stimuli/Social4.png,stimuli/Social3.png,stimuli/Nonsocial4.png,stimuli/Nonsocial3.png,stimuli/Social2.png,stimuli/Social1.png,stimuli/Nonsocial2.png,stimuli/Nonsocial1.png,,,"(-0.7, -0.5)",cs_pos_s,"(-0.7, 0.5)",cs_neg_ns,"(0.7, -0.5)",cs_pos_ns,"(0.7, 0.5)",cs_neg_s,0,0,0,0,,,,,,,,,,,,,,,,,,,,,1,19,43,9,,,,,,,,,,,,,,,,,,,,,,,,,,,342,reward,,,,,,1289.9114166,1289.9114166,1289.9114166,1289.9114166,0,,,0,,,1,0.030697599999257363,0.09345749999920372,0,,,1290.557209999999,1290.557209999999,1290.557209999999,1290.557209999999,36,D,2024-05-15_14h29.16.772,attentional_competition_task,2022.2.4,144.0131570357511,
positions.xlsx,positions_test.xlsx,positions_test_new.xlsx,stimuli.xlsx,stimuli_new.xlsx,stimuli/Social4.png,stimuli/Social3.png,stimuli/Nonsocial4.png,stimuli/Nonsocial3.png,stimuli/Social2.png,stimuli/Social1.png,stimuli/Nonsocial2.png,stimuli/Nonsocial1.png,,,"(-0.7, -0.5)",cs_pos_ns,"(-0.7, 0.5)",cs_pos_s,"(0.7, -0.5)",cs_neg_ns,"(0.7, 0.5)",cs_neg_s,0,0,0,0,,,,,,,,,,,,,,,,,,,,,1,20,44,18,,,,,,,,,,,,,,,,,,,,,,,,,,,351,reward,,,,,,1299.1680147000006,1299.1680147000006,1299.1680147000006,1299.1680147000006,0,,,0,,,0,,,0,,,1299.9387829000007,1299.9387829000007,1299.9387829000007,1299.9387829000007,36,D,2024-05-15_14h29.16.772,attentional_competition_task,2022.2.4,144.0131570357511,
positions.xlsx,positions_test.xlsx,positions_test_new.xlsx,stimuli.xlsx,stimuli_new.xlsx,stimuli/Social4.png,stimuli/Social3.png,stimuli/Nonsocial4.png,stimuli/Nonsocial3.png,stimuli/Social2.png,stimuli/Social1.png,stimuli/Nonsocial2.png,stimuli/Nonsocial1.png,,,"(-0.7, -0.5)",cs_neg_ns,"(-0.7, 0.5)",cs_neg_s,"(0.7, -0.5)",cs_pos_s,"(0.7, 0.5)",cs_pos_ns,0,0,0,0,,,,,,,,,,,,,,,,,,,,,1,21,45,14,,,,,,,,,,,,,,,,,,,,,,,,,,,357,reward,,,,,,1307.7023485999998,1307.7023485999998,1307.7023485999998,1307.7023485999998,0,,,0,,,1,0.03049029999965569,0.030494399998133304,0,,,1307.7023485999998,1307.7023485999998,1307.7023485999998,1307.7023485999998,36,D,2024-05-15_14h29.16.772,attentional_competition_task,2022.2.4,144.0131570357511,
positions.xlsx,positions_test.xlsx,positions_test_new.xlsx,stimuli.xlsx,stimuli_new.xlsx,stimuli/Social4.png,stimuli/Social3.png,stimuli/Nonsocial4.png,stimuli/Nonsocial3.png,stimuli/Social2.png,stimuli/Social1.png,stimuli/Nonsocial2.png,stimuli/Nonsocial1.png,,,"(-0.7, -0.5)",cs_pos_s,"(-0.7, 0.5)",cs_neg_ns,"(0.7, -0.5)",cs_neg_s,"(0.7, 0.5)",cs_pos_ns,0,0,0,0,,,,,,,,,,,,,,,,,,,,,1,22,46,8,,,,,,,,,,,,,,,,,,,,,,,,,,,363,reward,,,,,,1316.3755930000007,1316.3755930000007,1316.3755930000007,1316.3755930000007,1,0.20363910000014585,0.20364280000285362,0,,,0,,,1,0.03165630000148667,0.1350246000001789,1316.5769470999985,1316.5769470999985,1316.5769470999985,1316.5769470999985,36,D,2024-05-15_14h29.16.772,attentional_competition_task,2022.2.4,144.0131570357511,
positions.xlsx,positions_test.xlsx,positions_test_new.xlsx,stimuli.xlsx,stimuli_new.xlsx,stimuli/Social4.png,stimuli/Social3.png,stimuli/Nonsocial4.png,stimuli/Nonsocial3.png,stimuli/Social2.png,stimuli/Social1.png,stimuli/Nonsocial2.png,stimuli/Nonsocial1.png,,,"(-0.7, -0.5)",cs_pos_s,"(-0.7, 0.5)",cs_pos_ns,"(0.7, -0.5)",cs_neg_s,"(0.7, 0.5)",cs_neg_ns,0,0,0,0,,,,,,,,,,,,,,,,,,,,,1,23,47,10,,,,,,,,,,,,,,,,,,,,,,,,,,,372,reward,,,,,,1325.500250099998,1325.500250099998,1325.500250099998,1325.500250099998,1,0.023768699997162912,0.1627489999991667,0,,,0,,,0,,,1326.3613342999997,1326.3613342999997,1326.3613342999997,1326.3613342999997,36,D,2024-05-15_14h29.16.772,attentional_competition_task,2022.2.4,144.0131570357511,
positions.xlsx,positions_test.xlsx,positions_test_new.xlsx,stimuli.xlsx,stimuli_new.xlsx,stimuli/Social4.png,stimuli/Social3.png,stimuli/Nonsocial4.png,stimuli/Nonsocial3.png,stimuli/Social2.png,stimuli/Social1.png,stimuli/Nonsocial2.png,stimuli/Nonsocial1.png,,,"(-0.7, -0.5)",cs_neg_s,"(-0.7, 0.5)",cs_pos_s,"(0.7, -0.5)",cs_pos_ns,"(0.7, 0.5)",cs_neg_ns,0,0,0,0,,,,,,,,,,,,,,,,,,,,,,,,,,,,,0,0,0,2,0,0,0,0,,,,,,,,,,,,,,,375,reward,,,,,,1332.847185499999,1332.847185499999,1332.847185499999,1332.847185499999,0,,,0,,,1,0.6898174999987532,0.6898232999992615,0,,,1333.5415771000007,1333.5415771000007,1333.5415771000007,1333.5415771000007,36,D,2024-05-15_14h29.16.772,attentional_competition_task,2022.2.4,144.0131570357511,
positions.xlsx,positions_test.xlsx,positions_test_new.xlsx,stimuli.xlsx,stimuli_new.xlsx,stimuli/Social4.png,stimuli/Social3.png,stimuli/Nonsocial4.png,stimuli/Nonsocial3.png,stimuli/Social2.png,stimuli/Social1.png,stimuli/Nonsocial2.png,stimuli/Nonsocial1.png,,,"(-0.7, -0.5)",cs_neg_s,"(-0.7, 0.5)",cs_pos_s,"(0.7, -0.5)",cs_pos_ns,"(0.7, 0.5)",cs_neg_ns,0,0,0,0,,,,,,,,,,,,,,,,,,,,,,,,,,,,,0,0,0,2,1,0,1,0,,,,,,,,,,,,,,,378,reward,,,,,,1334.0415787999991,1334.0415787999991,1334.0415787999991,1334.0415787999991,0,,,1,0.2049845000001369,0.2049886000022525,1,0.029003200001170626,0.13610310000149184,0,,,1334.249908400001,1334.249908400001,1334.249908400001,1334.249908400001,36,D,2024-05-15_14h29.16.772,attentional_competition_task,2022.2.4,144.0131570357511,
positions.xlsx,positions_test.xlsx,positions_test_new.xlsx,stimuli.xlsx,stimuli_new.xlsx,stimuli/Social4.png,stimuli/Social3.png,stimuli/Nonsocial4.png,stimuli/Nonsocial3.png,stimuli/Social2.png,stimuli/Social1.png,stimuli/Nonsocial2.png,stimuli/Nonsocial1.png,,,"(-0.7, -0.5)",cs_neg_s,"(-0.7, 0.5)",cs_pos_s,"(0.7, -0.5)",cs_pos_ns,"(0.7, 0.5)",cs_neg_ns,0,0,0,0,,,,,,,,,,,,,,,,,,,,,,,,,,,,,0,0,0,2,2,0,2,0,,,,,,,,,,,,,,,381,reward,,,,,,1334.7499089000012,1334.7499089000012,1334.7499089000012,1334.7499089000012,0,,,1,0.028604299997823546,0.10602730000027805,0,,,0,,,1335.3609778999999,1335.3609778999999,1335.3609778999999,1335.3609778999999,36,D,2024-05-15_14h29.16.772,attentional_competition_task,2022.2.4,144.0131570357511,
positions.xlsx,positions_test.xlsx,positions_test_new.xlsx,stimuli.xlsx,stimuli_new.xlsx,stimuli/Social4.png,stimuli/Social3.png,stimuli/Nonsocial4.png,stimuli/Nonsocial3.png,stimuli/Social2.png,stimuli/Social1.png,stimuli/Nonsocial2.png,stimuli/Nonsocial1.png,,,"(-0.7, -0.5)",cs_neg_s,"(-0.7, 0.5)",cs_pos_s,"(0.7, -0.5)",cs_pos_ns,"(0.7, 0.5)",cs_neg_ns,0,0,0,0,,,,,,,,,,,,,,,,,,,,,,,,,,,,,0,0,0,2,,,,,,,,,,,,,,,,,,,,,,,,,,,,,,,,,,,,,,,,,,,,,,36,D,2024-05-15_14h29.16.772,attentional_competition_task,2022.2.4,144.0131570357511,
positions.xlsx,positions_test.xlsx,positions_test_new.xlsx,stimuli.xlsx,stimuli_new.xlsx,stimuli/Social4.png,stimuli/Social3.png,stimuli/Nonsocial4.png,stimuli/Nonsocial3.png,stimuli/Social2.png,stimuli/Social1.png,stimuli/Nonsocial2.png,stimuli/Nonsocial1.png,,,"(-0.7, -0.5)",cs_neg_ns,"(-0.7, 0.5)",cs_neg_s,"(0.7, -0.5)",cs_pos_ns,"(0.7, 0.5)",cs_pos_s_new,0,0,0,0,,,,,,,,,,,,,,,,,,,,,,,,,,,,,0,1,1,31,0,0,0,0,,,,,,,,,,,,,,,384,reward,,,,,,1340.8815901999988,1340.8815901999988,1340.8815901999988,1340.8815901999988,0,,,0,,,1,0.7037033000015072,0.7037072999992233,0,,,1341.5899199999985,1341.5899199999985,1341.5899199999985,1341.5899199999985,36,D,2024-05-15_14h29.16.772,attentional_competition_task,2022.2.4,144.0131570357511,
positions.xlsx,positions_test.xlsx,positions_test_new.xlsx,stimuli.xlsx,stimuli_new.xlsx,stimuli/Social4.png,stimuli/Social3.png,stimuli/Nonsocial4.png,stimuli/Nonsocial3.png,stimuli/Social2.png,stimuli/Social1.png,stimuli/Nonsocial2.png,stimuli/Nonsocial1.png,,,"(-0.7, -0.5)",cs_neg_ns,"(-0.7, 0.5)",cs_neg_s,"(0.7, -0.5)",cs_pos_ns,"(0.7, 0.5)",cs_pos_s_new,0,0,0,0,,,,,,,,,,,,,,,,,,,,,,,,,,,,,0,1,1,31,1,0,1,0,,,,,,,,,,,,,,,387,reward,,,,,,1342.0968125,1342.0968125,1342.0968125,1342.0968125,0,,,0,,,1,0.029884599996876204,0.06470529999933206,1,0.07885759999771835,0.08561099999860744,1342.1801635999982,1342.1801635999982,1342.1801635999982,1342.1801635999982,36,D,2024-05-15_14h29.16.772,attentional_competition_task,2022.2.4,144.0131570357511,
positions.xlsx,positions_test.xlsx,positions_test_new.xlsx,stimuli.xlsx,stimuli_new.xlsx,stimuli/Social4.png,stimuli/Social3.png,stimuli/Nonsocial4.png,stimuli/Nonsocial3.png,stimuli/Social2.png,stimuli/Social1.png,stimuli/Nonsocial2.png,stimuli/Nonsocial1.png,,,"(-0.7, -0.5)",cs_neg_ns,"(-0.7, 0.5)",cs_neg_s,"(0.7, -0.5)",cs_pos_ns,"(0.7, 0.5)",cs_pos_s_new,0,0,0,0,,,,,,,,,,,,,,,,,,,,,,,,,,,,,0,1,1,31,2,0,2,0,,,,,,,,,,,,,,,390,reward,,,,,,1342.6871121000004,1342.6871121000004,1342.6871121000004,1342.6871121000004,0,,,0,,,0,,,1,0.03183829999761656,0.21140459999878658,1343.3953548999998,1343.3953548999998,1343.3953548999998,1343.3953548999998,36,D,2024-05-15_14h29.16.772,attentional_competition_task,2022.2.4,144.0131570357511,
positions.xlsx,positions_test.xlsx,positions_test_new.xlsx,stimuli.xlsx,stimuli_new.xlsx,stimuli/Social4.png,stimuli/Social3.png,stimuli/Nonsocial4.png,stimuli/Nonsocial3.png,stimuli/Social2.png,stimuli/Social1.png,stimuli/Nonsocial2.png,stimuli/Nonsocial1.png,,,"(-0.7, -0.5)",cs_neg_ns,"(-0.7, 0.5)",cs_neg_s,"(0.7, -0.5)",cs_pos_ns,"(0.7, 0.5)",cs_pos_s_new,0,0,0,0,,,,,,,,,,,,,,,,,,,,,,,,,,,,,0,1,1,31,,,,,,,,,,,,,,,,,,,,,,,,,,,,,,,,,,,,,,,,,,,,,,36,D,2024-05-15_14h29.16.772,attentional_competition_task,2022.2.4,144.0131570357511,
positions.xlsx,positions_test.xlsx,positions_test_new.xlsx,stimuli.xlsx,stimuli_new.xlsx,stimuli/Social4.png,stimuli/Social3.png,stimuli/Nonsocial4.png,stimuli/Nonsocial3.png,stimuli/Social2.png,stimuli/Social1.png,stimuli/Nonsocial2.png,stimuli/Nonsocial1.png,,,"(-0.7, -0.5)",cs_pos_ns_new,"(-0.7, 0.5)",cs_neg_s,"(0.7, -0.5)",cs_neg_ns,"(0.7, 0.5)",cs_pos_s,0,0,0,0,,,,,,,,,,,,,,,,,,,,,,,,,,,,,0,2,2,40,0,0,0,0,,,,,,,,,,,,,,,393,reward,,,,,,1349.0965121000008,1349.0965121000008,1349.0965121000008,1349.0965121000008,0,,,0,,,0,,,1,0.6133722999984457,0.6133764000005613,1349.7145631999992,1349.7145631999992,1349.7145631999992,1349.7145631999992,36,D,2024-05-15_14h29.16.772,attentional_competition_task,2022.2.4,144.0131570357511,
positions.xlsx,positions_test.xlsx,positions_test_new.xlsx,stimuli.xlsx,stimuli_new.xlsx,stimuli/Social4.png,stimuli/Social3.png,stimuli/Nonsocial4.png,stimuli/Nonsocial3.png,stimuli/Social2.png,stimuli/Social1.png,stimuli/Nonsocial2.png,stimuli/Nonsocial1.png,,,"(-0.7, -0.5)",cs_pos_ns_new,"(-0.7, 0.5)",cs_neg_s,"(0.7, -0.5)",cs_neg_ns,"(0.7, 0.5)",cs_pos_s,0,0,0,0,,,,,,,,,,,,,,,,,,,,,,,,,,,,,0,2,2,40,1,0,1,0,,,,,,,,,,,,,,,390,loss,,,,,,1350.214563999998,1350.214563999998,1350.214563999998,1350.214563999998,0,,,0,,,1,0.14229960000011488,0.14230359999783104,1,0.03049059999830206,0.12941520000094897,1350.3603703000008,1350.3603703000008,1350.3603703000008,1350.3603703000008,36,D,2024-05-15_14h29.16.772,attentional_competition_task,2022.2.4,144.0131570357511,
positions.xlsx,positions_test.xlsx,positions_test_new.xlsx,stimuli.xlsx,stimuli_new.xlsx,stimuli/Social4.png,stimuli/Social3.png,stimuli/Nonsocial4.png,stimuli/Nonsocial3.png,stimuli/Social2.png,stimuli/Social1.png,stimuli/Nonsocial2.png,stimuli/Nonsocial1.png,,,"(-0.7, -0.5)",cs_pos_ns_new,"(-0.7, 0.5)",cs_neg_s,"(0.7, -0.5)",cs_neg_ns,"(0.7, 0.5)",cs_pos_s,0,0,0,0,,,,,,,,,,,,,,,,,,,,,,,,,,,,,0,2,2,40,2,0,2,0,,,,,,,,,,,,,,,387,loss,,,,,,1350.8603557999995,1350.8603557999995,1350.8603557999995,1350.8603557999995,0,,,0,,,0,,,0,,,1351.610332199998,1351.610332199998,1351.610332199998,1351.610332199998,36,D,2024-05-15_14h29.16.772,attentional_competition_task,2022.2.4,144.0131570357511,
positions.xlsx,positions_test.xlsx,positions_test_new.xlsx,stimuli.xlsx,stimuli_new.xlsx,stimuli/Social4.png,stimuli/Social3.png,stimuli/Nonsocial4.png,stimuli/Nonsocial3.png,stimuli/Social2.png,stimuli/Social1.png,stimuli/Nonsocial2.png,stimuli/Nonsocial1.png,,,"(-0.7, -0.5)",cs_pos_ns_new,"(-0.7, 0.5)",cs_neg_s,"(0.7, -0.5)",cs_neg_ns,"(0.7, 0.5)",cs_pos_s,0,0,0,0,,,,,,,,,,,,,,,,,,,,,,,,,,,,,0,2,2,40,,,,,,,,,,,,,,,,,,,,,,,,,,,,,,,,,,,,,,,,,,,,,,36,D,2024-05-15_14h29.16.772,attentional_competition_task,2022.2.4,144.0131570357511,
positions.xlsx,positions_test.xlsx,positions_test_new.xlsx,stimuli.xlsx,stimuli_new.xlsx,stimuli/Social4.png,stimuli/Social3.png,stimuli/Nonsocial4.png,stimuli/Nonsocial3.png,stimuli/Social2.png,stimuli/Social1.png,stimuli/Nonsocial2.png,stimuli/Nonsocial1.png,,,"(-0.7, -0.5)",cs_pos_ns_new,"(-0.7, 0.5)",cs_neg_ns,"(0.7, -0.5)",cs_neg_s,"(0.7, 0.5)",cs_pos_s,0,0,0,0,,,,,,,,,,,,,,,,,,,,,,,,,,,,,0,3,3,43,0,0,0,0,,,,,,,,,,,,,,,390,reward,,,,,,1358.2003456999992,1358.2003456999992,1358.2003456999992,1358.2003456999992,1,0.8281739000012749,0.8352919999997539,0,,,0,,,0,,,1359.0405589000002,1359.0405589000002,1359.0405589000002,1359.0405589000002,36,D,2024-05-15_14h29.16.772,attentional_competition_task,2022.2.4,144.0131570357511,
positions.xlsx,positions_test.xlsx,positions_test_new.xlsx,stimuli.xlsx,stimuli_new.xlsx,stimuli/Social4.png,stimuli/Social3.png,stimuli/Nonsocial4.png,stimuli/Nonsocial3.png,stimuli/Social2.png,stimuli/Social1.png,stimuli/Nonsocial2.png,stimuli/Nonsocial1.png,,,"(-0.7, -0.5)",cs_pos_ns_new,"(-0.7, 0.5)",cs_neg_ns,"(0.7, -0.5)",cs_neg_s,"(0.7, 0.5)",cs_pos_s,0,0,0,0,,,,,,,,,,,,,,,,,,,,,,,,,,,,,0,3,3,43,1,0,1,0,,,,,,,,,,,,,,,393,reward,,,,,,1359.5475375999995,1359.5475375999995,1359.5475375999995,1359.5475375999995,1,0.029080700001941295,0.09957180000128574,0,,,0,,,1,0.18396669999856385,0.183970699999918,1359.7280522,1359.7280522,1359.7280522,1359.7280522,36,D,2024-05-15_14h29.16.772,attentional_competition_task,2022.2.4,144.0131570357511,
positions.xlsx,positions_test.xlsx,positions_test_new.xlsx,stimuli.xlsx,stimuli_new.xlsx,stimuli/Social4.png,stimuli/Social3.png,stimuli/Nonsocial4.png,stimuli/Nonsocial3.png,stimuli/Social2.png,stimuli/Social1.png,stimuli/Nonsocial2.png,stimuli/Nonsocial1.png,,,"(-0.7, -0.5)",cs_pos_ns_new,"(-0.7, 0.5)",cs_neg_ns,"(0.7, -0.5)",cs_neg_s,"(0.7, 0.5)",cs_pos_s,0,0,0,0,,,,,,,,,,,,,,,,,,,,,,,,,,,,,0,3,3,43,,,,,,,,,,,,,,,,,,,,,,,,,,,,,,,,,,,,,,,,,,,,,,36,D,2024-05-15_14h29.16.772,attentional_competition_task,2022.2.4,144.0131570357511,
positions.xlsx,positions_test.xlsx,positions_test_new.xlsx,stimuli.xlsx,stimuli_new.xlsx,stimuli/Social4.png,stimuli/Social3.png,stimuli/Nonsocial4.png,stimuli/Nonsocial3.png,stimuli/Social2.png,stimuli/Social1.png,stimuli/Nonsocial2.png,stimuli/Nonsocial1.png,,,"(-0.7, -0.5)",cs_pos_s,"(-0.7, 0.5)",cs_pos_ns,"(0.7, -0.5)",cs_neg_s,"(0.7, 0.5)",cs_neg_ns_new,0,0,0,0,,,,,,,,,,,,,,,,,,,,,,,,,,,,,0,4,4,26,0,0,0,0,,,,,,,,,,,,,,,396,reward,,,,,,1366.6235836000014,1366.6235836000014,1366.6235836000014,1366.6235836000014,0,,,1,0.7381629999981669,0.7381662999978289,0,,,0,,,1367.3735535999986,1367.3735535999986,1367.3735535999986,1367.3735535999986,36,D,2024-05-15_14h29.16.772,attentional_competition_task,2022.2.4,144.0131570357511,
positions.xlsx,positions_test.xlsx,positions_test_new.xlsx,stimuli.xlsx,stimuli_new.xlsx,stimuli/Social4.png,stimuli/Social3.png,stimuli/Nonsocial4.png,stimuli/Nonsocial3.png,stimuli/Social2.png,stimuli/Social1.png,stimuli/Nonsocial2.png,stimuli/Nonsocial1.png,,,"(-0.7, -0.5)",cs_pos_s,"(-0.7, 0.5)",cs_pos_ns,"(0.7, -0.5)",cs_neg_s,"(0.7, 0.5)",cs_neg_ns_new,0,0,0,0,,,,,,,,,,,,,,,,,,,,,,,,,,,,,0,4,4,26,1,0,1,0,,,,,,,,,,,,,,,399,reward,,,,,,1367.901363099998,1367.901363099998,1367.901363099998,1367.901363099998,1,0.028843600000982406,0.02884760000233655,0,,,0,,,0,,,1367.901363099998,1367.901363099998,1367.901363099998,1367.901363099998,36,D,2024-05-15_14h29.16.772,attentional_competition_task,2022.2.4,144.0131570357511,
positions.xlsx,positions_test.xlsx,positions_test_new.xlsx,stimuli.xlsx,stimuli_new.xlsx,stimuli/Social4.png,stimuli/Social3.png,stimuli/Nonsocial4.png,stimuli/Nonsocial3.png,stimuli/Social2.png,stimuli/Social1.png,stimuli/Nonsocial2.png,stimuli/Nonsocial1.png,,,"(-0.7, -0.5)",cs_pos_s,"(-0.7, 0.5)",cs_pos_ns,"(0.7, -0.5)",cs_neg_s,"(0.7, 0.5)",cs_neg_ns_new,0,0,0,0,,,,,,,,,,,,,,,,,,,,,,,,,,,,,0,4,4,26,2,0,2,0,,,,,,,,,,,,,,,402,reward,,,,,,1368.4013078999997,1368.4013078999997,1368.4013078999997,1368.4013078999997,1,0.021866500002943212,0.23238540000238572,0,,,0,,,0,,,1369.144371399998,1369.144371399998,1369.144371399998,1369.144371399998,36,D,2024-05-15_14h29.16.772,attentional_competition_task,2022.2.4,144.0131570357511,
positions.xlsx,positions_test.xlsx,positions_test_new.xlsx,stimuli.xlsx,stimuli_new.xlsx,stimuli/Social4.png,stimuli/Social3.png,stimuli/Nonsocial4.png,stimuli/Nonsocial3.png,stimuli/Social2.png,stimuli/Social1.png,stimuli/Nonsocial2.png,stimuli/Nonsocial1.png,,,"(-0.7, -0.5)",cs_pos_s,"(-0.7, 0.5)",cs_pos_ns,"(0.7, -0.5)",cs_neg_s,"(0.7, 0.5)",cs_neg_ns_new,0,0,0,0,,,,,,,,,,,,,,,,,,,,,,,,,,,,,0,4,4,26,,,,,,,,,,,,,,,,,,,,,,,,,,,,,,,,,,,,,,,,,,,,,,36,D,2024-05-15_14h29.16.772,attentional_competition_task,2022.2.4,144.0131570357511,
positions.xlsx,positions_test.xlsx,positions_test_new.xlsx,stimuli.xlsx,stimuli_new.xlsx,stimuli/Social4.png,stimuli/Social3.png,stimuli/Nonsocial4.png,stimuli/Nonsocial3.png,stimuli/Social2.png,stimuli/Social1.png,stimuli/Nonsocial2.png,stimuli/Nonsocial1.png,,,"(-0.7, -0.5)",cs_pos_ns_new,"(-0.7, 0.5)",cs_pos_s,"(0.7, -0.5)",cs_neg_ns,"(0.7, 0.5)",cs_neg_s,0,0,0,0,,,,,,,,,,,,,,,,,,,,,,,,,,,,,0,5,5,45,0,0,0,0,,,,,,,,,,,,,,,405,reward,,,,,,1375.8940694999983,1375.8940694999983,1375.8940694999983,1375.8940694999983,1,0.7030769000011787,0.7030804999994871,0,,,0,,,0,,,1376.6093099999998,1376.6093099999998,1376.6093099999998,1376.6093099999998,36,D,2024-05-15_14h29.16.772,attentional_competition_task,2022.2.4,144.0131570357511,
positions.xlsx,positions_test.xlsx,positions_test_new.xlsx,stimuli.xlsx,stimuli_new.xlsx,stimuli/Social4.png,stimuli/Social3.png,stimuli/Nonsocial4.png,stimuli/Nonsocial3.png,stimuli/Social2.png,stimuli/Social1.png,stimuli/Nonsocial2.png,stimuli/Nonsocial1.png,,,"(-0.7, -0.5)",cs_pos_ns_new,"(-0.7, 0.5)",cs_pos_s,"(0.7, -0.5)",cs_neg_ns,"(0.7, 0.5)",cs_neg_s,0,0,0,0,,,,,,,,,,,,,,,,,,,,,,,,,,,,,0,5,5,45,1,0,1,0,,,,,,,,,,,,,,,408,reward,,,,,,1377.1440218999996,1377.1440218999996,1377.1440218999996,1377.1440218999996,0,,,1,0.029948700001114048,0.029952300003060373,0,,,0,,,1377.1440218999996,1377.1440218999996,1377.1440218999996,1377.1440218999996,36,D,2024-05-15_14h29.16.772,attentional_competition_task,2022.2.4,144.0131570357511,
positions.xlsx,positions_test.xlsx,positions_test_new.xlsx,stimuli.xlsx,stimuli_new.xlsx,stimuli/Social4.png,stimuli/Social3.png,stimuli/Nonsocial4.png,stimuli/Nonsocial3.png,stimuli/Social2.png,stimuli/Social1.png,stimuli/Nonsocial2.png,stimuli/Nonsocial1.png,,,"(-0.7, -0.5)",cs_pos_ns_new,"(-0.7, 0.5)",cs_pos_s,"(0.7, -0.5)",cs_neg_ns,"(0.7, 0.5)",cs_neg_s,0,0,0,0,,,,,,,,,,,,,,,,,,,,,,,,,,,,,0,5,5,45,2,0,2,0,,,,,,,,,,,,,,,411,reward,,,,,,1377.643997799998,1377.643997799998,1377.643997799998,1377.643997799998,0,,,0,,,0,,,0,,,1378.4148177999996,1378.4148177999996,1378.4148177999996,1378.4148177999996,36,D,2024-05-15_14h29.16.772,attentional_competition_task,2022.2.4,144.0131570357511,
positions.xlsx,positions_test.xlsx,positions_test_new.xlsx,stimuli.xlsx,stimuli_new.xlsx,stimuli/Social4.png,stimuli/Social3.png,stimuli/Nonsocial4.png,stimuli/Nonsocial3.png,stimuli/Social2.png,stimuli/Social1.png,stimuli/Nonsocial2.png,stimuli/Nonsocial1.png,,,"(-0.7, -0.5)",cs_pos_ns_new,"(-0.7, 0.5)",cs_pos_s,"(0.7, -0.5)",cs_neg_ns,"(0.7, 0.5)",cs_neg_s,0,0,0,0,,,,,,,,,,,,,,,,,,,,,,,,,,,,,0,5,5,45,,,,,,,,,,,,,,,,,,,,,,,,,,,,,,,,,,,,,,,,,,,,,,36,D,2024-05-15_14h29.16.772,attentional_competition_task,2022.2.4,144.0131570357511,
positions.xlsx,positions_test.xlsx,positions_test_new.xlsx,stimuli.xlsx,stimuli_new.xlsx,stimuli/Social4.png,stimuli/Social3.png,stimuli/Nonsocial4.png,stimuli/Nonsocial3.png,stimuli/Social2.png,stimuli/Social1.png,stimuli/Nonsocial2.png,stimuli/Nonsocial1.png,,,"(-0.7, -0.5)",cs_pos_s,"(-0.7, 0.5)",cs_pos_ns,"(0.7, -0.5)",cs_neg_s_new,"(0.7, 0.5)",cs_neg_ns,0,0,0,0,,,,,,,,,,,,,,,,,,,,,,,,,,,,,0,6,6,10,0,0,0,0,,,,,,,,,,,,,,,414,reward,,,,,,1383.9493141999992,1383.9493141999992,1383.9493141999992,1383.9493141999992,0,,,1,0.5366100999999617,0.5366139999969164,0,,,0,,,1384.497916299999,1384.497916299999,1384.497916299999,1384.497916299999,36,D,2024-05-15_14h29.16.772,attentional_competition_task,2022.2.4,144.0131570357511,
positions.xlsx,positions_test.xlsx,positions_test_new.xlsx,stimuli.xlsx,stimuli_new.xlsx,stimuli/Social4.png,stimuli/Social3.png,stimuli/Nonsocial4.png,stimuli/Nonsocial3.png,stimuli/Social2.png,stimuli/Social1.png,stimuli/Nonsocial2.png,stimuli/Nonsocial1.png,,,"(-0.7, -0.5)",cs_pos_s,"(-0.7, 0.5)",cs_pos_ns,"(0.7, -0.5)",cs_neg_s_new,"(0.7, 0.5)",cs_neg_ns,0,0,0,0,,,,,,,,,,,,,,,,,,,,,,,,,,,,,0,6,6,10,1,0,1,0,,,,,,,,,,,,,,,417,reward,,,,,,1385.032573299999,1385.032573299999,1385.032573299999,1385.032573299999,1,0.02932670000154758,0.029330500001378823,0,,,0,,,0,,,1385.032573299999,1385.032573299999,1385.032573299999,1385.032573299999,36,D,2024-05-15_14h29.16.772,attentional_competition_task,2022.2.4,144.0131570357511,
positions.xlsx,positions_test.xlsx,positions_test_new.xlsx,stimuli.xlsx,stimuli_new.xlsx,stimuli/Social4.png,stimuli/Social3.png,stimuli/Nonsocial4.png,stimuli/Nonsocial3.png,stimuli/Social2.png,stimuli/Social1.png,stimuli/Nonsocial2.png,stimuli/Nonsocial1.png,,,"(-0.7, -0.5)",cs_pos_s,"(-0.7, 0.5)",cs_pos_ns,"(0.7, -0.5)",cs_neg_s_new,"(0.7, 0.5)",cs_neg_ns,0,0,0,0,,,,,,,,,,,,,,,,,,,,,,,,,,,,,0,6,6,10,2,0,2,0,,,,,,,,,,,,,,,414,loss,,,,,,1385.5256105000008,1385.5256105000008,1385.5256105000008,1385.5256105000008,0,,,0,,,1,0.3439267000030668,0.3439304000021366,0,,,1385.8728682,1385.8728682,1385.8728682,1385.8728682,36,D,2024-05-15_14h29.16.772,attentional_competition_task,2022.2.4,144.0131570357511,
positions.xlsx,positions_test.xlsx,positions_test_new.xlsx,stimuli.xlsx,stimuli_new.xlsx,stimuli/Social4.png,stimuli/Social3.png,stimuli/Nonsocial4.png,stimuli/Nonsocial3.png,stimuli/Social2.png,stimuli/Social1.png,stimuli/Nonsocial2.png,stimuli/Nonsocial1.png,,,"(-0.7, -0.5)",cs_pos_s,"(-0.7, 0.5)",cs_pos_ns,"(0.7, -0.5)",cs_neg_s_new,"(0.7, 0.5)",cs_neg_ns,0,0,0,0,,,,,,,,,,,,,,,,,,,,,,,,,,,,,0,6,6,10,,,,,,,,,,,,,,,,,,,,,,,,,,,,,,,,,,,,,,,,,,,,,,36,D,2024-05-15_14h29.16.772,attentional_competition_task,2022.2.4,144.0131570357511,
positions.xlsx,positions_test.xlsx,positions_test_new.xlsx,stimuli.xlsx,stimuli_new.xlsx,stimuli/Social4.png,stimuli/Social3.png,stimuli/Nonsocial4.png,stimuli/Nonsocial3.png,stimuli/Social2.png,stimuli/Social1.png,stimuli/Nonsocial2.png,stimuli/Nonsocial1.png,,,"(-0.7, -0.5)",cs_pos_s,"(-0.7, 0.5)",cs_neg_ns,"(0.7, -0.5)",cs_neg_s,"(0.7, 0.5)",cs_pos_ns_new,0,0,0,0,,,,,,,,,,,,,,,,,,,,,,,,,,,,,0,7,7,47,0,0,0,0,,,,,,,,,,,,,,,417,reward,,,,,,1391.9073074000007,1391.9073074000007,1391.9073074000007,1391.9073074000007,1,0.5294132000017271,0.5294169000007969,0,,,0,,,0,,,1392.4419988000009,1392.4419988000009,1392.4419988000009,1392.4419988000009,36,D,2024-05-15_14h29.16.772,attentional_competition_task,2022.2.4,144.0131570357511,
positions.xlsx,positions_test.xlsx,positions_test_new.xlsx,stimuli.xlsx,stimuli_new.xlsx,stimuli/Social4.png,stimuli/Social3.png,stimuli/Nonsocial4.png,stimuli/Nonsocial3.png,stimuli/Social2.png,stimuli/Social1.png,stimuli/Nonsocial2.png,stimuli/Nonsocial1.png,,,"(-0.7, -0.5)",cs_pos_s,"(-0.7, 0.5)",cs_neg_ns,"(0.7, -0.5)",cs_neg_s,"(0.7, 0.5)",cs_pos_ns_new,0,0,0,0,,,,,,,,,,,,,,,,,,,,,,,,,,,,,0,7,7,47,1,0,1,0,,,,,,,,,,,,,,,414,loss,,,,,,1392.976733899999,1392.976733899999,1392.976733899999,1392.976733899999,0,,,1,0.02927559999807272,0.029279300000780495,0,,,0,,,1392.976733899999,1392.976733899999,1392.976733899999,1392.976733899999,36,D,2024-05-15_14h29.16.772,attentional_competition_task,2022.2.4,144.0131570357511,
positions.xlsx,positions_test.xlsx,positions_test_new.xlsx,stimuli.xlsx,stimuli_new.xlsx,stimuli/Social4.png,stimuli/Social3.png,stimuli/Nonsocial4.png,stimuli/Nonsocial3.png,stimuli/Social2.png,stimuli/Social1.png,stimuli/Nonsocial2.png,stimuli/Nonsocial1.png,,,"(-0.7, -0.5)",cs_pos_s,"(-0.7, 0.5)",cs_neg_ns,"(0.7, -0.5)",cs_neg_s,"(0.7, 0.5)",cs_pos_ns_new,0,0,0,0,,,,,,,,,,,,,,,,,,,,,,,,,,,,,0,7,7,47,2,0,2,0,,,,,,,,,,,,,,,417,reward,,,,,,1393.5044767,1393.5044767,1393.5044767,1393.5044767,0,,,0,,,0,,,1,0.029426600001897896,0.02943010000308277,1393.5044767,1393.5044767,1393.5044767,1393.5044767,36,D,2024-05-15_14h29.16.772,attentional_competition_task,2022.2.4,144.0131570357511,
positions.xlsx,positions_test.xlsx,positions_test_new.xlsx,stimuli.xlsx,stimuli_new.xlsx,stimuli/Social4.png,stimuli/Social3.png,stimuli/Nonsocial4.png,stimuli/Nonsocial3.png,stimuli/Social2.png,stimuli/Social1.png,stimuli/Nonsocial2.png,stimuli/Nonsocial1.png,,,"(-0.7, -0.5)",cs_pos_s,"(-0.7, 0.5)",cs_neg_ns,"(0.7, -0.5)",cs_neg_s,"(0.7, 0.5)",cs_pos_ns_new,0,0,0,0,,,,,,,,,,,,,,,,,,,,,,,,,,,,,0,7,7,47,,,,,,,,,,,,,,,,,,,,,,,,,,,,,,,,,,,,,,,,,,,,,,36,D,2024-05-15_14h29.16.772,attentional_competition_task,2022.2.4,144.0131570357511,
positions.xlsx,positions_test.xlsx,positions_test_new.xlsx,stimuli.xlsx,stimuli_new.xlsx,stimuli/Social4.png,stimuli/Social3.png,stimuli/Nonsocial4.png,stimuli/Nonsocial3.png,stimuli/Social2.png,stimuli/Social1.png,stimuli/Nonsocial2.png,stimuli/Nonsocial1.png,,,"(-0.7, -0.5)",cs_pos_ns,"(-0.7, 0.5)",cs_pos_s,"(0.7, -0.5)",cs_neg_ns,"(0.7, 0.5)",cs_neg_s_new,0,0,0,0,,,,,,,,,,,,,,,,,,,,,,,,,,,,,0,8,8,9,0,0,0,0,,,,,,,,,,,,,,,420,reward,,,,,,1400.3583607,1400.3583607,1400.3583607,1400.3583607,1,0.8288599000006798,0.8288639999991574,0,,,0,,,0,,,1401.1916886,1401.1916886,1401.1916886,1401.1916886,36,D,2024-05-15_14h29.16.772,attentional_competition_task,2022.2.4,144.0131570357511,
positions.xlsx,positions_test.xlsx,positions_test_new.xlsx,stimuli.xlsx,stimuli_new.xlsx,stimuli/Social4.png,stimuli/Social3.png,stimuli/Nonsocial4.png,stimuli/Nonsocial3.png,stimuli/Social2.png,stimuli/Social1.png,stimuli/Nonsocial2.png,stimuli/Nonsocial1.png,,,"(-0.7, -0.5)",cs_pos_ns,"(-0.7, 0.5)",cs_pos_s,"(0.7, -0.5)",cs_neg_ns,"(0.7, 0.5)",cs_neg_s_new,0,0,0,0,,,,,,,,,,,,,,,,,,,,,,,,,,,,,0,8,8,9,1,0,1,0,,,,,,,,,,,,,,,423,reward,,,,,,1401.6916386000012,1401.6916386000012,1401.6916386000012,1401.6916386000012,1,0.028035600000293925,0.13316819999818108,1,0.15460829999938142,0.15461209999921266,0,,,0,,,1401.8513495000007,1401.8513495000007,1401.8513495000007,1401.8513495000007,36,D,2024-05-15_14h29.16.772,attentional_competition_task,2022.2.4,144.0131570357511,
