posFile,posFileTest,posFileTestNew,stimFile,stimFileNew,cs_neg_s,cs_pos_s,cs_neg_ns,cs_pos_ns,cs_neg_s_new,cs_pos_s_new,cs_neg_ns_new,cs_pos_ns_new,stim,position,position1,stim1,position2,stim2,position3,stim3,position4,stim4,blocks.thisRepN,blocks.thisTrialN,blocks.thisN,blocks.thisIndex,ratingtrials1.thisRepN,ratingtrials1.thisTrialN,ratingtrials1.thisN,ratingtrials1.thisIndex,search_task_trials.thisRepN,search_task_trials.thisTrialN,search_task_trials.thisN,search_task_trials.thisIndex,learning_trials.thisRepN,learning_trials.thisTrialN,learning_trials.thisN,learning_trials.thisIndex,trials.thisRepN,trials.thisTrialN,trials.thisN,trials.thisIndex,ratingtrials2.thisRepN,ratingtrials2.thisTrialN,ratingtrials2.thisN,ratingtrials2.thisIndex,testtrials.thisRepN,testtrials.thisTrialN,testtrials.thisN,testtrials.thisIndex,loop_test.thisRepN,loop_test.thisTrialN,loop_test.thisN,loop_test.thisIndex,testtrials_novelty.thisRepN,testtrials_novelty.thisTrialN,testtrials_novelty.thisN,testtrials_novelty.thisIndex,loop_test_novelty.thisRepN,loop_test_novelty.thisTrialN,loop_test_novelty.thisN,loop_test_novelty.thisIndex,ratingtrials3.thisRepN,ratingtrials3.thisTrialN,ratingtrials3.thisN,ratingtrials3.thisIndex,textStart.started,textStartExp.started,imageRating.started,sliderStim.response,sliderStim.rt,textStartSearch.started,target_positions,distractor_positions,textStartTask.started,image.started,score,outcome,roi.numLooks,roi.timesOn,roi.timesOff,imageFeedback.started,textTestInstr.started,test_image1.started,test_image2.started,test_image3.started,test_image4.started,test_roi1.numLooks,test_roi1.timesOn,test_roi1.timesOff,test_roi2.numLooks,test_roi2.timesOn,test_roi2.timesOff,test_roi3.numLooks,test_roi3.timesOn,test_roi3.timesOff,test_roi4.numLooks,test_roi4.timesOn,test_roi4.timesOff,test_image_feedback1.started,test_image_feedback2.started,test_iamge_feedback3.started,test_iamge_feedback4.started,participant,group,date,expName,psychopyVersion,frameRate,
positions.xlsx,positions_test.xlsx,positions_test_new.xlsx,stimuli.xlsx,stimuli_new.xlsx,stimuli/Social4.png,stimuli/Social3.png,stimuli/Nonsocial4.png,stimuli/Nonsocial3.png,stimuli/Social2.png,stimuli/Social1.png,stimuli/Nonsocial2.png,stimuli/Nonsocial1.png,cs_pos_s,,,,,,,,,,0,0,0,0,0,0,0,2,,,,,,,,,,,,,,,,,,,,,,,,,,,,,,,,,,,,,12.720539200003259,174.25565659999847,190.1981729999825,7.0,9.798402499989606,,,,,,,,,,,,,,,,,,,,,,,,,,,,,,,,,40,D,2024-05-17_13h18.12.663,attentional_competition_task,2022.2.4,144.02020889522478,
positions.xlsx,positions_test.xlsx,positions_test_new.xlsx,stimuli.xlsx,stimuli_new.xlsx,stimuli/Social4.png,stimuli/Social3.png,stimuli/Nonsocial4.png,stimuli/Nonsocial3.png,stimuli/Social2.png,stimuli/Social1.png,stimuli/Nonsocial2.png,stimuli/Nonsocial1.png,cs_neg_ns,,,,,,,,,,0,0,0,0,0,1,1,1,,,,,,,,,,,,,,,,,,,,,,,,,,,,,,,,,,,,,,,201.8713126000075,5.0,3.76980460001505,,,,,,,,,,,,,,,,,,,,,,,,,,,,,,,,,40,D,2024-05-17_13h18.12.663,attentional_competition_task,2022.2.4,144.02020889522478,
positions.xlsx,positions_test.xlsx,positions_test_new.xlsx,stimuli.xlsx,stimuli_new.xlsx,stimuli/Social4.png,stimuli/Social3.png,stimuli/Nonsocial4.png,stimuli/Nonsocial3.png,stimuli/Social2.png,stimuli/Social1.png,stimuli/Nonsocial2.png,stimuli/Nonsocial1.png,cs_neg_s,,,,,,,,,,0,0,0,0,0,2,2,0,,,,,,,,,,,,,,,,,,,,,,,,,,,,,,,,,,,,,,,207.54468779999297,6.0,2.2936500999785494,,,,,,,,,,,,,,,,,,,,,,,,,,,,,,,,,40,D,2024-05-17_13h18.12.663,attentional_competition_task,2022.2.4,144.02020889522478,
positions.xlsx,positions_test.xlsx,positions_test_new.xlsx,stimuli.xlsx,stimuli_new.xlsx,stimuli/Social4.png,stimuli/Social3.png,stimuli/Nonsocial4.png,stimuli/Nonsocial3.png,stimuli/Social2.png,stimuli/Social1.png,stimuli/Nonsocial2.png,stimuli/Nonsocial1.png,cs_pos_ns,,,,,,,,,,0,0,0,0,0,3,3,3,,,,,,,,,,,,,,,,,,,,,,,,,,,,,,,,,,,,,,,210.66264009999577,6.0,4.459399799990933,,,,,,,,,,,,,,,,,,,,,,,,,,,,,,,,,40,D,2024-05-17_13h18.12.663,attentional_competition_task,2022.2.4,144.02020889522478,
positions.xlsx,positions_test.xlsx,positions_test_new.xlsx,stimuli.xlsx,stimuli_new.xlsx,stimuli/Social4.png,stimuli/Social3.png,stimuli/Nonsocial4.png,stimuli/Nonsocial3.png,stimuli/Social2.png,stimuli/Social1.png,stimuli/Nonsocial2.png,stimuli/Nonsocial1.png,,,,,,,,,,,0,0,0,0,,,,,0,0,0,0,,,,,,,,,,,,,,,,,,,,,,,,,,,,,,,,,,,,,,215.6416132999875,"[[-0.675, -0.8], [0.9, -0.8], [0.6749999999999999, 0.7], [-0.45, -0.8], [0.6749999999999999, 0.19999999999999996], [0.45000000000000007, -0.30000000000000004], [0.45000000000000007, 0.19999999999999996], [-0.45, 0.19999999999999996], [0.22499999999999998, -0.8], [0.0, -0.8], [-0.675, -0.30000000000000004], [0.6749999999999999, -0.8], [0.9, -0.30000000000000004], [0.45000000000000007, 0.7], [-0.9, 0.7]]","[[0.9, 0.7], [0.22499999999999998, -0.30000000000000004], [-0.675, 0.19999999999999996], [-0.22499999999999998, 0.7], [0.22499999999999998, 0.19999999999999996], [-0.22499999999999998, 0.19999999999999996], [0.0, 0.19999999999999996], [0.0, -0.30000000000000004], [-0.45, 0.7], [-0.9, -0.30000000000000004], [-0.675, 0.7], [-0.9, -0.8], [-0.9, 0.19999999999999996], [0.45000000000000007, -0.8], [0.9, 0.19999999999999996]]",,,,,,,,,,,,,,,,,,,,,,,,,,,,,,40,D,2024-05-17_13h18.12.663,attentional_competition_task,2022.2.4,144.02020889522478,
positions.xlsx,positions_test.xlsx,positions_test_new.xlsx,stimuli.xlsx,stimuli_new.xlsx,stimuli/Social4.png,stimuli/Social3.png,stimuli/Nonsocial4.png,stimuli/Nonsocial3.png,stimuli/Social2.png,stimuli/Social1.png,stimuli/Nonsocial2.png,stimuli/Nonsocial1.png,,,,,,,,,,,0,0,0,0,,,,,1,0,1,0,,,,,,,,,,,,,,,,,,,,,,,,,,,,,,,,,,,,,,,"[[0.22499999999999998, -0.8], [-0.675, 0.19999999999999996], [-0.9, -0.30000000000000004], [0.9, -0.8], [0.6749999999999999, 0.7], [-0.22499999999999998, -0.30000000000000004], [0.0, 0.19999999999999996], [0.45000000000000007, -0.8], [0.45000000000000007, 0.7], [-0.45, 0.7], [0.0, 0.7], [0.6749999999999999, -0.8], [0.6749999999999999, 0.19999999999999996], [0.9, 0.7], [-0.22499999999999998, 0.19999999999999996]]","[[0.22499999999999998, 0.7], [-0.675, 0.7], [0.45000000000000007, -0.30000000000000004], [-0.45, -0.30000000000000004], [-0.675, -0.8], [0.9, 0.19999999999999996], [-0.22499999999999998, -0.8], [-0.9, 0.7], [0.22499999999999998, 0.19999999999999996], [-0.45, 0.19999999999999996], [0.0, -0.8], [-0.675, -0.30000000000000004], [-0.9, -0.8], [0.9, -0.30000000000000004], [-0.9, 0.19999999999999996]]",,,,,,,,,,,,,,,,,,,,,,,,,,,,,,40,D,2024-05-17_13h18.12.663,attentional_competition_task,2022.2.4,144.02020889522478,
positions.xlsx,positions_test.xlsx,positions_test_new.xlsx,stimuli.xlsx,stimuli_new.xlsx,stimuli/Social4.png,stimuli/Social3.png,stimuli/Nonsocial4.png,stimuli/Nonsocial3.png,stimuli/Social2.png,stimuli/Social1.png,stimuli/Nonsocial2.png,stimuli/Nonsocial1.png,cs_neg_ns,"(0.7, -0.5)",,,,,,,,,0,0,0,0,,,,,,,,,0,0,0,11,,,,,,,,,,,,,,,,,,,,,,,,,,,,,,,,,,,,,308.28369409998413,333.213213799987,-3,loss,1,0.3265541000000667,0.3265578999998979,333.5465617000009,,,,,,,,,,,,,,,,,,,,,,40,D,2024-05-17_13h18.12.663,attentional_competition_task,2022.2.4,144.02020889522478,
positions.xlsx,positions_test.xlsx,positions_test_new.xlsx,stimuli.xlsx,stimuli_new.xlsx,stimuli/Social4.png,stimuli/Social3.png,stimuli/Nonsocial4.png,stimuli/Nonsocial3.png,stimuli/Social2.png,stimuli/Social1.png,stimuli/Nonsocial2.png,stimuli/Nonsocial1.png,cs_pos_ns,"(0.7, -0.5)",,,,,,,,,0,0,0,0,,,,,,,,,0,1,1,15,,,,,,,,,,,,,,,,,,,,,,,,,,,,,,,,,,,,,,341.1990370999847,-3,none,0,,,344.21280249999836,,,,,,,,,,,,,,,,,,,,,,40,D,2024-05-17_13h18.12.663,attentional_competition_task,2022.2.4,144.02020889522478,
positions.xlsx,positions_test.xlsx,positions_test_new.xlsx,stimuli.xlsx,stimuli_new.xlsx,stimuli/Social4.png,stimuli/Social3.png,stimuli/Nonsocial4.png,stimuli/Nonsocial3.png,stimuli/Social2.png,stimuli/Social1.png,stimuli/Nonsocial2.png,stimuli/Nonsocial1.png,cs_pos_s,"(0.7, -0.5)",,,,,,,,,0,0,0,0,,,,,,,,,0,2,2,7,,,,,,,,,,,,,,,,,,,,,,,,,,,,,,,,,,,,,,351.4138571000076,0,reward,1,0.2572869999858085,0.25729320000391454,351.67778209998505,,,,,,,,,,,,,,,,,,,,,,40,D,2024-05-17_13h18.12.663,attentional_competition_task,2022.2.4,144.02020889522478,
positions.xlsx,positions_test.xlsx,positions_test_new.xlsx,stimuli.xlsx,stimuli_new.xlsx,stimuli/Social4.png,stimuli/Social3.png,stimuli/Nonsocial4.png,stimuli/Nonsocial3.png,stimuli/Social2.png,stimuli/Social1.png,stimuli/Nonsocial2.png,stimuli/Nonsocial1.png,cs_neg_ns,"(0.7, 0.5)",,,,,,,,,0,0,0,0,,,,,,,,,0,3,3,10,,,,,,,,,,,,,,,,,,,,,,,,,,,,,,,,,,,,,,359.0455662999884,-3,loss,1,0.8128948000085074,0.8128986000083387,359.86492530000396,,,,,,,,,,,,,,,,,,,,,,40,D,2024-05-17_13h18.12.663,attentional_competition_task,2022.2.4,144.02020889522478,
positions.xlsx,positions_test.xlsx,positions_test_new.xlsx,stimuli.xlsx,stimuli_new.xlsx,stimuli/Social4.png,stimuli/Social3.png,stimuli/Nonsocial4.png,stimuli/Nonsocial3.png,stimuli/Social2.png,stimuli/Social1.png,stimuli/Nonsocial2.png,stimuli/Nonsocial1.png,cs_neg_s,"(0.7, -0.5)",,,,,,,,,0,0,0,0,,,,,,,,,0,4,4,3,,,,,,,,,,,,,,,,,,,,,,,,,,,,,,,,,,,,,,367.5660414999875,-6,loss,1,0.5766675999911968,0.5766711999895051,368.1493166,,,,,,,,,,,,,,,,,,,,,,40,D,2024-05-17_13h18.12.663,attentional_competition_task,2022.2.4,144.02020889522478,
positions.xlsx,positions_test.xlsx,positions_test_new.xlsx,stimuli.xlsx,stimuli_new.xlsx,stimuli/Social4.png,stimuli/Social3.png,stimuli/Nonsocial4.png,stimuli/Nonsocial3.png,stimuli/Social2.png,stimuli/Social1.png,stimuli/Nonsocial2.png,stimuli/Nonsocial1.png,cs_neg_ns,"(-0.7, 0.5)",,,,,,,,,0,0,0,0,,,,,,,,,0,5,5,8,,,,,,,,,,,,,,,,,,,,,,,,,,,,,,,,,,,,,,375.906009600003,-9,loss,1,1.6809270000085235,1.6875923000043258,377.60033389998716,,,,,,,,,,,,,,,,,,,,,,40,D,2024-05-17_13h18.12.663,attentional_competition_task,2022.2.4,144.02020889522478,
positions.xlsx,positions_test.xlsx,positions_test_new.xlsx,stimuli.xlsx,stimuli_new.xlsx,stimuli/Social4.png,stimuli/Social3.png,stimuli/Nonsocial4.png,stimuli/Nonsocial3.png,stimuli/Social2.png,stimuli/Social1.png,stimuli/Nonsocial2.png,stimuli/Nonsocial1.png,cs_pos_ns,"(-0.7, -0.5)",,,,,,,,,0,0,0,0,,,,,,,,,0,6,6,13,,,,,,,,,,,,,,,,,,,,,,,,,,,,,,,,,,,,,,385.75281770000583,-9,none,0,,,388.76657519998844,,,,,,,,,,,,,,,,,,,,,,40,D,2024-05-17_13h18.12.663,attentional_competition_task,2022.2.4,144.02020889522478,
positions.xlsx,positions_test.xlsx,positions_test_new.xlsx,stimuli.xlsx,stimuli_new.xlsx,stimuli/Social4.png,stimuli/Social3.png,stimuli/Nonsocial4.png,stimuli/Nonsocial3.png,stimuli/Social2.png,stimuli/Social1.png,stimuli/Nonsocial2.png,stimuli/Nonsocial1.png,cs_neg_ns,"(-0.7, -0.5)",,,,,,,,,0,0,0,0,,,,,,,,,0,7,7,9,,,,,,,,,,,,,,,,,,,,,,,,,,,,,,,,,,,,,,396.07878589999746,-12,loss,1,0.3269680999801494,0.326972199982265,396.4190493999922,,,,,,,,,,,,,,,,,,,,,,40,D,2024-05-17_13h18.12.663,attentional_competition_task,2022.2.4,144.02020889522478,
positions.xlsx,positions_test.xlsx,positions_test_new.xlsx,stimuli.xlsx,stimuli_new.xlsx,stimuli/Social4.png,stimuli/Social3.png,stimuli/Nonsocial4.png,stimuli/Nonsocial3.png,stimuli/Social2.png,stimuli/Social1.png,stimuli/Nonsocial2.png,stimuli/Nonsocial1.png,cs_pos_s,"(0.7, 0.5)",,,,,,,,,0,0,0,0,,,,,,,,,0,8,8,6,,,,,,,,,,,,,,,,,,,,,,,,,,,,,,,,,,,,,,403.724326800002,-9,reward,1,0.215386199997738,0.2153900999983307,403.94653429999016,,,,,,,,,,,,,,,,,,,,,,40,D,2024-05-17_13h18.12.663,attentional_competition_task,2022.2.4,144.02020889522478,
positions.xlsx,positions_test.xlsx,positions_test_new.xlsx,stimuli.xlsx,stimuli_new.xlsx,stimuli/Social4.png,stimuli/Social3.png,stimuli/Nonsocial4.png,stimuli/Nonsocial3.png,stimuli/Social2.png,stimuli/Social1.png,stimuli/Nonsocial2.png,stimuli/Nonsocial1.png,cs_neg_s,"(-0.7, -0.5)",,,,,,,,,0,0,0,0,,,,,,,,,0,9,9,1,,,,,,,,,,,,,,,,,,,,,,,,,,,,,,,,,,,,,,411.3142833999882,-9,none,0,,,414.32108799999696,,,,,,,,,,,,,,,,,,,,,,40,D,2024-05-17_13h18.12.663,attentional_competition_task,2022.2.4,144.02020889522478,
positions.xlsx,positions_test.xlsx,positions_test_new.xlsx,stimuli.xlsx,stimuli_new.xlsx,stimuli/Social4.png,stimuli/Social3.png,stimuli/Nonsocial4.png,stimuli/Nonsocial3.png,stimuli/Social2.png,stimuli/Social1.png,stimuli/Nonsocial2.png,stimuli/Nonsocial1.png,cs_pos_ns,"(0.7, 0.5)",,,,,,,,,0,0,0,0,,,,,,,,,0,10,10,14,,,,,,,,,,,,,,,,,,,,,,,,,,,,,,,,,,,,,,421.76522949998616,-9,none,0,,,424.7790253999992,,,,,,,,,,,,,,,,,,,,,,40,D,2024-05-17_13h18.12.663,attentional_competition_task,2022.2.4,144.02020889522478,
positions.xlsx,positions_test.xlsx,positions_test_new.xlsx,stimuli.xlsx,stimuli_new.xlsx,stimuli/Social4.png,stimuli/Social3.png,stimuli/Nonsocial4.png,stimuli/Nonsocial3.png,stimuli/Social2.png,stimuli/Social1.png,stimuli/Nonsocial2.png,stimuli/Nonsocial1.png,cs_pos_s,"(-0.7, -0.5)",,,,,,,,,0,0,0,0,,,,,,,,,0,11,11,5,,,,,,,,,,,,,,,,,,,,,,,,,,,,,,,,,,,,,,431.82038839999586,-6,reward,1,0.520799599995371,0.5208031999936793,432.34816870000213,,,,,,,,,,,,,,,,,,,,,,40,D,2024-05-17_13h18.12.663,attentional_competition_task,2022.2.4,144.02020889522478,
positions.xlsx,positions_test.xlsx,positions_test_new.xlsx,stimuli.xlsx,stimuli_new.xlsx,stimuli/Social4.png,stimuli/Social3.png,stimuli/Nonsocial4.png,stimuli/Nonsocial3.png,stimuli/Social2.png,stimuli/Social1.png,stimuli/Nonsocial2.png,stimuli/Nonsocial1.png,cs_pos_ns,"(-0.7, 0.5)",,,,,,,,,0,0,0,0,,,,,,,,,0,12,12,12,,,,,,,,,,,,,,,,,,,,,,,,,,,,,,,,,,,,,,440.11863419998554,-6,none,0,,,443.13245199999074,,,,,,,,,,,,,,,,,,,,,,40,D,2024-05-17_13h18.12.663,attentional_competition_task,2022.2.4,144.02020889522478,
positions.xlsx,positions_test.xlsx,positions_test_new.xlsx,stimuli.xlsx,stimuli_new.xlsx,stimuli/Social4.png,stimuli/Social3.png,stimuli/Nonsocial4.png,stimuli/Nonsocial3.png,stimuli/Social2.png,stimuli/Social1.png,stimuli/Nonsocial2.png,stimuli/Nonsocial1.png,cs_pos_s,"(-0.7, 0.5)",,,,,,,,,0,0,0,0,,,,,,,,,0,13,13,4,,,,,,,,,,,,,,,,,,,,,,,,,,,,,,,,,,,,,,450.8613203999994,-3,reward,1,0.4929707999981474,0.49297439999645576,451.36131199999363,,,,,,,,,,,,,,,,,,,,,,40,D,2024-05-17_13h18.12.663,attentional_competition_task,2022.2.4,144.02020889522478,
positions.xlsx,positions_test.xlsx,positions_test_new.xlsx,stimuli.xlsx,stimuli_new.xlsx,stimuli/Social4.png,stimuli/Social3.png,stimuli/Nonsocial4.png,stimuli/Nonsocial3.png,stimuli/Social2.png,stimuli/Social1.png,stimuli/Nonsocial2.png,stimuli/Nonsocial1.png,cs_neg_s,"(0.7, 0.5)",,,,,,,,,0,0,0,0,,,,,,,,,0,14,14,2,,,,,,,,,,,,,,,,,,,,,,,,,,,,,,,,,,,,,,458.92346109999926,-3,none,0,,,461.9372772999923,,,,,,,,,,,,,,,,,,,,,,40,D,2024-05-17_13h18.12.663,attentional_competition_task,2022.2.4,144.02020889522478,
positions.xlsx,positions_test.xlsx,positions_test_new.xlsx,stimuli.xlsx,stimuli_new.xlsx,stimuli/Social4.png,stimuli/Social3.png,stimuli/Nonsocial4.png,stimuli/Nonsocial3.png,stimuli/Social2.png,stimuli/Social1.png,stimuli/Nonsocial2.png,stimuli/Nonsocial1.png,cs_neg_s,"(-0.7, 0.5)",,,,,,,,,0,0,0,0,,,,,,,,,0,15,15,0,,,,,,,,,,,,,,,,,,,,,,,,,,,,,,,,,,,,,,469.9994344000006,-3,none,0,,,473.006241199997,,,,,,,,,,,,,,,,,,,,,,40,D,2024-05-17_13h18.12.663,attentional_competition_task,2022.2.4,144.02020889522478,
positions.xlsx,positions_test.xlsx,positions_test_new.xlsx,stimuli.xlsx,stimuli_new.xlsx,stimuli/Social4.png,stimuli/Social3.png,stimuli/Nonsocial4.png,stimuli/Nonsocial3.png,stimuli/Social2.png,stimuli/Social1.png,stimuli/Nonsocial2.png,stimuli/Nonsocial1.png,cs_pos_ns,"(-0.7, -0.5)",,,,,,,,,0,0,0,0,,,,,,,,,1,0,16,13,,,,,,,,,,,,,,,,,,,,,,,,,,,,,,,,,,,,,,479.98513029998867,-3,none,0,,,482.9989161999838,,,,,,,,,,,,,,,,,,,,,,40,D,2024-05-17_13h18.12.663,attentional_competition_task,2022.2.4,144.02020889522478,
positions.xlsx,positions_test.xlsx,positions_test_new.xlsx,stimuli.xlsx,stimuli_new.xlsx,stimuli/Social4.png,stimuli/Social3.png,stimuli/Nonsocial4.png,stimuli/Nonsocial3.png,stimuli/Social2.png,stimuli/Social1.png,stimuli/Nonsocial2.png,stimuli/Nonsocial1.png,cs_neg_s,"(-0.7, -0.5)",,,,,,,,,0,0,0,0,,,,,,,,,1,1,17,1,,,,,,,,,,,,,,,,,,,,,,,,,,,,,,,,,,,,,,491.0610932999989,-3,none,0,,,494.0679344999953,,,,,,,,,,,,,,,,,,,,,,40,D,2024-05-17_13h18.12.663,attentional_competition_task,2022.2.4,144.02020889522478,
positions.xlsx,positions_test.xlsx,positions_test_new.xlsx,stimuli.xlsx,stimuli_new.xlsx,stimuli/Social4.png,stimuli/Social3.png,stimuli/Nonsocial4.png,stimuli/Nonsocial3.png,stimuli/Social2.png,stimuli/Social1.png,stimuli/Nonsocial2.png,stimuli/Nonsocial1.png,cs_pos_s,"(-0.7, -0.5)",,,,,,,,,0,0,0,0,,,,,,,,,1,2,18,5,,,,,,,,,,,,,,,,,,,,,,,,,,,,,,,,,,,,,,502.33845549999387,0,reward,1,0.5628434999962337,0.5628469999937806,502.9078256000066,,,,,,,,,,,,,,,,,,,,,,40,D,2024-05-17_13h18.12.663,attentional_competition_task,2022.2.4,144.02020889522478,
positions.xlsx,positions_test.xlsx,positions_test_new.xlsx,stimuli.xlsx,stimuli_new.xlsx,stimuli/Social4.png,stimuli/Social3.png,stimuli/Nonsocial4.png,stimuli/Nonsocial3.png,stimuli/Social2.png,stimuli/Social1.png,stimuli/Nonsocial2.png,stimuli/Nonsocial1.png,cs_neg_ns,"(0.7, -0.5)",,,,,,,,,0,0,0,0,,,,,,,,,1,3,19,11,,,,,,,,,,,,,,,,,,,,,,,,,,,,,,,,,,,,,,510.4839040999941,0,none,0,,,513.4976754999952,,,,,,,,,,,,,,,,,,,,,,40,D,2024-05-17_13h18.12.663,attentional_competition_task,2022.2.4,144.02020889522478,
positions.xlsx,positions_test.xlsx,positions_test_new.xlsx,stimuli.xlsx,stimuli_new.xlsx,stimuli/Social4.png,stimuli/Social3.png,stimuli/Nonsocial4.png,stimuli/Nonsocial3.png,stimuli/Social2.png,stimuli/Social1.png,stimuli/Nonsocial2.png,stimuli/Nonsocial1.png,cs_pos_ns,"(0.7, -0.5)",,,,,,,,,0,0,0,0,,,,,,,,,1,4,20,15,,,,,,,,,,,,,,,,,,,,,,,,,,,,,,,,,,,,,,520.851622999995,0,none,0,,,523.8653142999974,,,,,,,,,,,,,,,,,,,,,,40,D,2024-05-17_13h18.12.663,attentional_competition_task,2022.2.4,144.02020889522478,
positions.xlsx,positions_test.xlsx,positions_test_new.xlsx,stimuli.xlsx,stimuli_new.xlsx,stimuli/Social4.png,stimuli/Social3.png,stimuli/Nonsocial4.png,stimuli/Nonsocial3.png,stimuli/Social2.png,stimuli/Social1.png,stimuli/Nonsocial2.png,stimuli/Nonsocial1.png,cs_neg_s,"(0.7, 0.5)",,,,,,,,,0,0,0,0,,,,,,,,,1,5,21,2,,,,,,,,,,,,,,,,,,,,,,,,,,,,,,,,,,,,,,530.6359078999958,0,none,0,,,533.6427265999955,,,,,,,,,,,,,,,,,,,,,,40,D,2024-05-17_13h18.12.663,attentional_competition_task,2022.2.4,144.02020889522478,
positions.xlsx,positions_test.xlsx,positions_test_new.xlsx,stimuli.xlsx,stimuli_new.xlsx,stimuli/Social4.png,stimuli/Social3.png,stimuli/Nonsocial4.png,stimuli/Nonsocial3.png,stimuli/Social2.png,stimuli/Social1.png,stimuli/Nonsocial2.png,stimuli/Nonsocial1.png,cs_neg_ns,"(-0.7, 0.5)",,,,,,,,,0,0,0,0,,,,,,,,,1,6,22,8,,,,,,,,,,,,,,,,,,,,,,,,,,,,,,,,,,,,,,540.8090630999941,0,none,0,,,543.8228539999982,,,,,,,,,,,,,,,,,,,,,,40,D,2024-05-17_13h18.12.663,attentional_competition_task,2022.2.4,144.02020889522478,
positions.xlsx,positions_test.xlsx,positions_test_new.xlsx,stimuli.xlsx,stimuli_new.xlsx,stimuli/Social4.png,stimuli/Social3.png,stimuli/Nonsocial4.png,stimuli/Nonsocial3.png,stimuli/Social2.png,stimuli/Social1.png,stimuli/Nonsocial2.png,stimuli/Nonsocial1.png,cs_pos_s,"(0.7, -0.5)",,,,,,,,,0,0,0,0,,,,,,,,,1,7,23,7,,,,,,,,,,,,,,,,,,,,,,,,,,,,,,,,,,,,,,551.0656273000059,3,reward,1,0.48617300001205876,0.4861766000103671,551.5586928999983,,,,,,,,,,,,,,,,,,,,,,40,D,2024-05-17_13h18.12.663,attentional_competition_task,2022.2.4,144.02020889522478,
positions.xlsx,positions_test.xlsx,positions_test_new.xlsx,stimuli.xlsx,stimuli_new.xlsx,stimuli/Social4.png,stimuli/Social3.png,stimuli/Nonsocial4.png,stimuli/Nonsocial3.png,stimuli/Social2.png,stimuli/Social1.png,stimuli/Nonsocial2.png,stimuli/Nonsocial1.png,cs_neg_ns,"(0.7, 0.5)",,,,,,,,,0,0,0,0,,,,,,,,,1,8,24,10,,,,,,,,,,,,,,,,,,,,,,,,,,,,,,,,,,,,,,558.8847605999908,3,none,0,,,561.8985475999943,,,,,,,,,,,,,,,,,,,,,,40,D,2024-05-17_13h18.12.663,attentional_competition_task,2022.2.4,144.02020889522478,
positions.xlsx,positions_test.xlsx,positions_test_new.xlsx,stimuli.xlsx,stimuli_new.xlsx,stimuli/Social4.png,stimuli/Social3.png,stimuli/Nonsocial4.png,stimuli/Nonsocial3.png,stimuli/Social2.png,stimuli/Social1.png,stimuli/Nonsocial2.png,stimuli/Nonsocial1.png,cs_pos_ns,"(-0.7, 0.5)",,,,,,,,,0,0,0,0,,,,,,,,,1,9,25,12,,,,,,,,,,,,,,,,,,,,,,,,,,,,,,,,,,,,,,569.6968580000103,3,none,0,,,572.7036968999892,,,,,,,,,,,,,,,,,,,,,,40,D,2024-05-17_13h18.12.663,attentional_competition_task,2022.2.4,144.02020889522478,
positions.xlsx,positions_test.xlsx,positions_test_new.xlsx,stimuli.xlsx,stimuli_new.xlsx,stimuli/Social4.png,stimuli/Social3.png,stimuli/Nonsocial4.png,stimuli/Nonsocial3.png,stimuli/Social2.png,stimuli/Social1.png,stimuli/Nonsocial2.png,stimuli/Nonsocial1.png,cs_pos_ns,"(0.7, 0.5)",,,,,,,,,0,0,0,0,,,,,,,,,1,10,26,14,,,,,,,,,,,,,,,,,,,,,,,,,,,,,,,,,,,,,,580.1964085999934,3,none,0,,,583.2033495999931,,,,,,,,,,,,,,,,,,,,,,40,D,2024-05-17_13h18.12.663,attentional_competition_task,2022.2.4,144.02020889522478,
positions.xlsx,positions_test.xlsx,positions_test_new.xlsx,stimuli.xlsx,stimuli_new.xlsx,stimuli/Social4.png,stimuli/Social3.png,stimuli/Nonsocial4.png,stimuli/Nonsocial3.png,stimuli/Social2.png,stimuli/Social1.png,stimuli/Nonsocial2.png,stimuli/Nonsocial1.png,cs_neg_ns,"(-0.7, -0.5)",,,,,,,,,0,0,0,0,,,,,,,,,1,11,27,9,,,,,,,,,,,,,,,,,,,,,,,,,,,,,,,,,,,,,,590.8418281000049,3,none,0,,,593.8486451999925,,,,,,,,,,,,,,,,,,,,,,40,D,2024-05-17_13h18.12.663,attentional_competition_task,2022.2.4,144.02020889522478,
positions.xlsx,positions_test.xlsx,positions_test_new.xlsx,stimuli.xlsx,stimuli_new.xlsx,stimuli/Social4.png,stimuli/Social3.png,stimuli/Nonsocial4.png,stimuli/Nonsocial3.png,stimuli/Social2.png,stimuli/Social1.png,stimuli/Nonsocial2.png,stimuli/Nonsocial1.png,cs_pos_s,"(-0.7, 0.5)",,,,,,,,,0,0,0,0,,,,,,,,,1,12,28,4,,,,,,,,,,,,,,,,,,,,,,,,,,,,,,,,,,,,,,600.7581302000035,6,reward,1,0.528456100000767,0.5284596999990754,601.2928229999961,,,,,,,,,,,,,,,,,,,,,,40,D,2024-05-17_13h18.12.663,attentional_competition_task,2022.2.4,144.02020889522478,
positions.xlsx,positions_test.xlsx,positions_test_new.xlsx,stimuli.xlsx,stimuli_new.xlsx,stimuli/Social4.png,stimuli/Social3.png,stimuli/Nonsocial4.png,stimuli/Nonsocial3.png,stimuli/Social2.png,stimuli/Social1.png,stimuli/Nonsocial2.png,stimuli/Nonsocial1.png,cs_neg_s,"(-0.7, 0.5)",,,,,,,,,0,0,0,0,,,,,,,,,1,13,29,0,,,,,,,,,,,,,,,,,,,,,,,,,,,,,,,,,,,,,,609.3827760999848,3,loss,1,1.5281161000020802,1.5281197000003885,610.9174172999919,,,,,,,,,,,,,,,,,,,,,,40,D,2024-05-17_13h18.12.663,attentional_competition_task,2022.2.4,144.02020889522478,
positions.xlsx,positions_test.xlsx,positions_test_new.xlsx,stimuli.xlsx,stimuli_new.xlsx,stimuli/Social4.png,stimuli/Social3.png,stimuli/Nonsocial4.png,stimuli/Nonsocial3.png,stimuli/Social2.png,stimuli/Social1.png,stimuli/Nonsocial2.png,stimuli/Nonsocial1.png,cs_pos_s,"(0.7, 0.5)",,,,,,,,,0,0,0,0,,,,,,,,,1,14,30,6,,,,,,,,,,,,,,,,,,,,,,,,,,,,,,,,,,,,,,618.7018499999831,6,reward,1,0.6881067999929655,0.6881103999912739,619.396256499982,,,,,,,,,,,,,,,,,,,,,,40,D,2024-05-17_13h18.12.663,attentional_competition_task,2022.2.4,144.02020889522478,
positions.xlsx,positions_test.xlsx,positions_test_new.xlsx,stimuli.xlsx,stimuli_new.xlsx,stimuli/Social4.png,stimuli/Social3.png,stimuli/Nonsocial4.png,stimuli/Nonsocial3.png,stimuli/Social2.png,stimuli/Social1.png,stimuli/Nonsocial2.png,stimuli/Nonsocial1.png,cs_neg_s,"(0.7, -0.5)",,,,,,,,,0,0,0,0,,,,,,,,,1,15,31,3,,,,,,,,,,,,,,,,,,,,,,,,,,,,,,,,,,,,,,626.5556895000045,6,none,0,,,629.5695013999939,,,,,,,,,,,,,,,,,,,,,,40,D,2024-05-17_13h18.12.663,attentional_competition_task,2022.2.4,144.02020889522478,
positions.xlsx,positions_test.xlsx,positions_test_new.xlsx,stimuli.xlsx,stimuli_new.xlsx,stimuli/Social4.png,stimuli/Social3.png,stimuli/Nonsocial4.png,stimuli/Nonsocial3.png,stimuli/Social2.png,stimuli/Social1.png,stimuli/Nonsocial2.png,stimuli/Nonsocial1.png,cs_neg_s,"(-0.7, 0.5)",,,,,,,,,0,0,0,0,,,,,,,,,,,,,0,0,0,0,,,,,,,,,,,,,,,,,,,,,,,,,,,,,,,,,,663.2903607999906,6,none,0,,,666.2971959999995,,,,,,,,,,,,,,,,,,,,,,40,D,2024-05-17_13h18.12.663,attentional_competition_task,2022.2.4,144.02020889522478,
positions.xlsx,positions_test.xlsx,positions_test_new.xlsx,stimuli.xlsx,stimuli_new.xlsx,stimuli/Social4.png,stimuli/Social3.png,stimuli/Nonsocial4.png,stimuli/Nonsocial3.png,stimuli/Social2.png,stimuli/Social1.png,stimuli/Nonsocial2.png,stimuli/Nonsocial1.png,cs_neg_ns,"(-0.7, -0.5)",,,,,,,,,0,0,0,0,,,,,,,,,,,,,0,1,1,9,,,,,,,,,,,,,,,,,,,,,,,,,,,,,,,,,,674.2899103999953,6,none,0,,,677.2967317999864,,,,,,,,,,,,,,,,,,,,,,40,D,2024-05-17_13h18.12.663,attentional_competition_task,2022.2.4,144.02020889522478,
positions.xlsx,positions_test.xlsx,positions_test_new.xlsx,stimuli.xlsx,stimuli_new.xlsx,stimuli/Social4.png,stimuli/Social3.png,stimuli/Nonsocial4.png,stimuli/Nonsocial3.png,stimuli/Social2.png,stimuli/Social1.png,stimuli/Nonsocial2.png,stimuli/Nonsocial1.png,cs_neg_s,"(-0.7, -0.5)",,,,,,,,,0,0,0,0,,,,,,,,,,,,,0,2,2,1,,,,,,,,,,,,,,,,,,,,,,,,,,,,,,,,,,685.1644988000044,6,none,0,,,688.1713660999958,,,,,,,,,,,,,,,,,,,,,,40,D,2024-05-17_13h18.12.663,attentional_competition_task,2022.2.4,144.02020889522478,
positions.xlsx,positions_test.xlsx,positions_test_new.xlsx,stimuli.xlsx,stimuli_new.xlsx,stimuli/Social4.png,stimuli/Social3.png,stimuli/Nonsocial4.png,stimuli/Nonsocial3.png,stimuli/Social2.png,stimuli/Social1.png,stimuli/Nonsocial2.png,stimuli/Nonsocial1.png,cs_pos_s,"(0.7, -0.5)",,,,,,,,,0,0,0,0,,,,,,,,,,,,,0,3,3,7,,,,,,,,,,,,,,,,,,,,,,,,,,,,,,,,,,695.1571548999927,9,reward,1,0.43785400001797825,0.4378576000162866,695.6015616999939,,,,,,,,,,,,,,,,,,,,,,40,D,2024-05-17_13h18.12.663,attentional_competition_task,2022.2.4,144.02020889522478,
positions.xlsx,positions_test.xlsx,positions_test_new.xlsx,stimuli.xlsx,stimuli_new.xlsx,stimuli/Social4.png,stimuli/Social3.png,stimuli/Nonsocial4.png,stimuli/Nonsocial3.png,stimuli/Social2.png,stimuli/Social1.png,stimuli/Nonsocial2.png,stimuli/Nonsocial1.png,cs_pos_s,"(-0.7, 0.5)",,,,,,,,,0,0,0,0,,,,,,,,,,,,,0,4,4,4,,,,,,,,,,,,,,,,,,,,,,,,,,,,,,,,,,703.6359978999826,12,reward,1,0.4863181000109762,0.48632130000623874,704.1290439000004,,,,,,,,,,,,,,,,,,,,,,40,D,2024-05-17_13h18.12.663,attentional_competition_task,2022.2.4,144.02020889522478,
positions.xlsx,positions_test.xlsx,positions_test_new.xlsx,stimuli.xlsx,stimuli_new.xlsx,stimuli/Social4.png,stimuli/Social3.png,stimuli/Nonsocial4.png,stimuli/Nonsocial3.png,stimuli/Social2.png,stimuli/Social1.png,stimuli/Nonsocial2.png,stimuli/Nonsocial1.png,cs_neg_ns,"(0.7, 0.5)",,,,,,,,,0,0,0,0,,,,,,,,,,,,,0,5,5,10,,,,,,,,,,,,,,,,,,,,,,,,,,,,,,,,,,712.0523105000029,12,none,0,,,715.0660753999837,,,,,,,,,,,,,,,,,,,,,,40,D,2024-05-17_13h18.12.663,attentional_competition_task,2022.2.4,144.02020889522478,
positions.xlsx,positions_test.xlsx,positions_test_new.xlsx,stimuli.xlsx,stimuli_new.xlsx,stimuli/Social4.png,stimuli/Social3.png,stimuli/Nonsocial4.png,stimuli/Nonsocial3.png,stimuli/Social2.png,stimuli/Social1.png,stimuli/Nonsocial2.png,stimuli/Nonsocial1.png,cs_neg_s,"(0.7, -0.5)",,,,,,,,,0,0,0,0,,,,,,,,,,,,,0,6,6,3,,,,,,,,,,,,,,,,,,,,,,,,,,,,,,,,,,721.9408428999886,12,none,0,,,724.9476340999827,,,,,,,,,,,,,,,,,,,,,,40,D,2024-05-17_13h18.12.663,attentional_competition_task,2022.2.4,144.02020889522478,
positions.xlsx,positions_test.xlsx,positions_test_new.xlsx,stimuli.xlsx,stimuli_new.xlsx,stimuli/Social4.png,stimuli/Social3.png,stimuli/Nonsocial4.png,stimuli/Nonsocial3.png,stimuli/Social2.png,stimuli/Social1.png,stimuli/Nonsocial2.png,stimuli/Nonsocial1.png,cs_neg_ns,"(-0.7, 0.5)",,,,,,,,,0,0,0,0,,,,,,,,,,,,,0,7,7,8,,,,,,,,,,,,,,,,,,,,,,,,,,,,,,,,,,732.0028946000093,12,none,0,,,735.0166521999927,,,,,,,,,,,,,,,,,,,,,,40,D,2024-05-17_13h18.12.663,attentional_competition_task,2022.2.4,144.02020889522478,
positions.xlsx,positions_test.xlsx,positions_test_new.xlsx,stimuli.xlsx,stimuli_new.xlsx,stimuli/Social4.png,stimuli/Social3.png,stimuli/Nonsocial4.png,stimuli/Nonsocial3.png,stimuli/Social2.png,stimuli/Social1.png,stimuli/Nonsocial2.png,stimuli/Nonsocial1.png,cs_pos_ns,"(0.7, 0.5)",,,,,,,,,0,0,0,0,,,,,,,,,,,,,0,8,8,14,,,,,,,,,,,,,,,,,,,,,,,,,,,,,,,,,,742.9191496999993,12,none,0,,,745.9328918999818,,,,,,,,,,,,,,,,,,,,,,40,D,2024-05-17_13h18.12.663,attentional_competition_task,2022.2.4,144.02020889522478,
positions.xlsx,positions_test.xlsx,positions_test_new.xlsx,stimuli.xlsx,stimuli_new.xlsx,stimuli/Social4.png,stimuli/Social3.png,stimuli/Nonsocial4.png,stimuli/Nonsocial3.png,stimuli/Social2.png,stimuli/Social1.png,stimuli/Nonsocial2.png,stimuli/Nonsocial1.png,cs_neg_ns,"(0.7, -0.5)",,,,,,,,,0,0,0,0,,,,,,,,,,,,,0,9,9,11,,,,,,,,,,,,,,,,,,,,,,,,,,,,,,,,,,754.2659476999834,12,none,0,,,757.2797030000074,,,,,,,,,,,,,,,,,,,,,,40,D,2024-05-17_13h18.12.663,attentional_competition_task,2022.2.4,144.02020889522478,
positions.xlsx,positions_test.xlsx,positions_test_new.xlsx,stimuli.xlsx,stimuli_new.xlsx,stimuli/Social4.png,stimuli/Social3.png,stimuli/Nonsocial4.png,stimuli/Nonsocial3.png,stimuli/Social2.png,stimuli/Social1.png,stimuli/Nonsocial2.png,stimuli/Nonsocial1.png,cs_pos_ns,"(-0.7, 0.5)",,,,,,,,,0,0,0,0,,,,,,,,,,,,,0,10,10,12,,,,,,,,,,,,,,,,,,,,,,,,,,,,,,,,,,764.9321229000052,12,none,0,,,767.9389444999979,,,,,,,,,,,,,,,,,,,,,,40,D,2024-05-17_13h18.12.663,attentional_competition_task,2022.2.4,144.02020889522478,
positions.xlsx,positions_test.xlsx,positions_test_new.xlsx,stimuli.xlsx,stimuli_new.xlsx,stimuli/Social4.png,stimuli/Social3.png,stimuli/Nonsocial4.png,stimuli/Nonsocial3.png,stimuli/Social2.png,stimuli/Social1.png,stimuli/Nonsocial2.png,stimuli/Nonsocial1.png,cs_pos_s,"(-0.7, -0.5)",,,,,,,,,0,0,0,0,,,,,,,,,,,,,0,11,11,5,,,,,,,,,,,,,,,,,,,,,,,,,,,,,,,,,,775.9525358999963,15,reward,1,0.5700208999915048,0.5700247999920975,776.5289279999852,,,,,,,,,,,,,,,,,,,,,,40,D,2024-05-17_13h18.12.663,attentional_competition_task,2022.2.4,144.02020889522478,
positions.xlsx,positions_test.xlsx,positions_test_new.xlsx,stimuli.xlsx,stimuli_new.xlsx,stimuli/Social4.png,stimuli/Social3.png,stimuli/Nonsocial4.png,stimuli/Nonsocial3.png,stimuli/Social2.png,stimuli/Social1.png,stimuli/Nonsocial2.png,stimuli/Nonsocial1.png,cs_pos_s,"(0.7, 0.5)",,,,,,,,,0,0,0,0,,,,,,,,,,,,,0,12,12,6,,,,,,,,,,,,,,,,,,,,,,,,,,,,,,,,,,783.8064202000096,18,reward,1,0.5554884999874048,0.5554920999857131,784.3688737000048,,,,,,,,,,,,,,,,,,,,,,40,D,2024-05-17_13h18.12.663,attentional_competition_task,2022.2.4,144.02020889522478,
positions.xlsx,positions_test.xlsx,positions_test_new.xlsx,stimuli.xlsx,stimuli_new.xlsx,stimuli/Social4.png,stimuli/Social3.png,stimuli/Nonsocial4.png,stimuli/Nonsocial3.png,stimuli/Social2.png,stimuli/Social1.png,stimuli/Nonsocial2.png,stimuli/Nonsocial1.png,cs_pos_ns,"(0.7, -0.5)",,,,,,,,,0,0,0,0,,,,,,,,,,,,,0,13,13,15,,,,,,,,,,,,,,,,,,,,,,,,,,,,,,,,,,792.2783062999952,18,none,0,,,795.292085299996,,,,,,,,,,,,,,,,,,,,,,40,D,2024-05-17_13h18.12.663,attentional_competition_task,2022.2.4,144.02020889522478,
positions.xlsx,positions_test.xlsx,positions_test_new.xlsx,stimuli.xlsx,stimuli_new.xlsx,stimuli/Social4.png,stimuli/Social3.png,stimuli/Nonsocial4.png,stimuli/Nonsocial3.png,stimuli/Social2.png,stimuli/Social1.png,stimuli/Nonsocial2.png,stimuli/Nonsocial1.png,cs_neg_s,"(0.7, 0.5)",,,,,,,,,0,0,0,0,,,,,,,,,,,,,0,14,14,2,,,,,,,,,,,,,,,,,,,,,,,,,,,,,,,,,,802.3056872999878,18,none,0,,,805.3125078000012,,,,,,,,,,,,,,,,,,,,,,40,D,2024-05-17_13h18.12.663,attentional_competition_task,2022.2.4,144.02020889522478,
positions.xlsx,positions_test.xlsx,positions_test_new.xlsx,stimuli.xlsx,stimuli_new.xlsx,stimuli/Social4.png,stimuli/Social3.png,stimuli/Nonsocial4.png,stimuli/Nonsocial3.png,stimuli/Social2.png,stimuli/Social1.png,stimuli/Nonsocial2.png,stimuli/Nonsocial1.png,cs_pos_ns,"(-0.7, -0.5)",,,,,,,,,0,0,0,0,,,,,,,,,,,,,0,15,15,13,,,,,,,,,,,,,,,,,,,,,,,,,,,,,,,,,,813.5899330000102,18,none,0,,,816.5967757999897,,,,,,,,,,,,,,,,,,,,,,40,D,2024-05-17_13h18.12.663,attentional_competition_task,2022.2.4,144.02020889522478,
positions.xlsx,positions_test.xlsx,positions_test_new.xlsx,stimuli.xlsx,stimuli_new.xlsx,stimuli/Social4.png,stimuli/Social3.png,stimuli/Nonsocial4.png,stimuli/Nonsocial3.png,stimuli/Social2.png,stimuli/Social1.png,stimuli/Nonsocial2.png,stimuli/Nonsocial1.png,cs_neg_s,"(0.7, 0.5)",,,,,,,,,0,0,0,0,,,,,,,,,,,,,1,0,16,2,,,,,,,,,,,,,,,,,,,,,,,,,,,,,,,,,,824.2283761999861,18,none,0,,,827.2352316000033,,,,,,,,,,,,,,,,,,,,,,40,D,2024-05-17_13h18.12.663,attentional_competition_task,2022.2.4,144.02020889522478,
positions.xlsx,positions_test.xlsx,positions_test_new.xlsx,stimuli.xlsx,stimuli_new.xlsx,stimuli/Social4.png,stimuli/Social3.png,stimuli/Nonsocial4.png,stimuli/Nonsocial3.png,stimuli/Social2.png,stimuli/Social1.png,stimuli/Nonsocial2.png,stimuli/Nonsocial1.png,cs_pos_ns,"(0.7, -0.5)",,,,,,,,,0,0,0,0,,,,,,,,,,,,,1,1,17,15,,,,,,,,,,,,,,,,,,,,,,,,,,,,,,,,,,834.3946680999943,18,none,0,,,837.4016055999964,,,,,,,,,,,,,,,,,,,,,,40,D,2024-05-17_13h18.12.663,attentional_competition_task,2022.2.4,144.02020889522478,
positions.xlsx,positions_test.xlsx,positions_test_new.xlsx,stimuli.xlsx,stimuli_new.xlsx,stimuli/Social4.png,stimuli/Social3.png,stimuli/Nonsocial4.png,stimuli/Nonsocial3.png,stimuli/Social2.png,stimuli/Social1.png,stimuli/Nonsocial2.png,stimuli/Nonsocial1.png,cs_pos_s,"(-0.7, 0.5)",,,,,,,,,0,0,0,0,,,,,,,,,,,,,1,2,18,4,,,,,,,,,,,,,,,,,,,,,,,,,,,,,,,,,,845.0887326000084,21,reward,1,0.39649240000289865,0.3964962000027299,845.4914954999986,,,,,,,,,,,,,,,,,,,,,,40,D,2024-05-17_13h18.12.663,attentional_competition_task,2022.2.4,144.02020889522478,
positions.xlsx,positions_test.xlsx,positions_test_new.xlsx,stimuli.xlsx,stimuli_new.xlsx,stimuli/Social4.png,stimuli/Social3.png,stimuli/Nonsocial4.png,stimuli/Nonsocial3.png,stimuli/Social2.png,stimuli/Social1.png,stimuli/Nonsocial2.png,stimuli/Nonsocial1.png,cs_pos_s,"(0.7, -0.5)",,,,,,,,,0,0,0,0,,,,,,,,,,,,,1,3,19,7,,,,,,,,,,,,,,,,,,,,,,,,,,,,,,,,,,853.0675443999935,24,reward,1,0.507014300004812,0.5070179000031203,853.5814330999856,,,,,,,,,,,,,,,,,,,,,,40,D,2024-05-17_13h18.12.663,attentional_competition_task,2022.2.4,144.02020889522478,
positions.xlsx,positions_test.xlsx,positions_test_new.xlsx,stimuli.xlsx,stimuli_new.xlsx,stimuli/Social4.png,stimuli/Social3.png,stimuli/Nonsocial4.png,stimuli/Nonsocial3.png,stimuli/Social2.png,stimuli/Social1.png,stimuli/Nonsocial2.png,stimuli/Nonsocial1.png,cs_neg_ns,"(0.7, -0.5)",,,,,,,,,0,0,0,0,,,,,,,,,,,,,1,4,20,11,,,,,,,,,,,,,,,,,,,,,,,,,,,,,,,,,,860.7199873999925,24,none,0,,,863.7338204999978,,,,,,,,,,,,,,,,,,,,,,40,D,2024-05-17_13h18.12.663,attentional_competition_task,2022.2.4,144.02020889522478,
positions.xlsx,positions_test.xlsx,positions_test_new.xlsx,stimuli.xlsx,stimuli_new.xlsx,stimuli/Social4.png,stimuli/Social3.png,stimuli/Nonsocial4.png,stimuli/Nonsocial3.png,stimuli/Social2.png,stimuli/Social1.png,stimuli/Nonsocial2.png,stimuli/Nonsocial1.png,cs_neg_s,"(0.7, -0.5)",,,,,,,,,0,0,0,0,,,,,,,,,,,,,1,5,21,3,,,,,,,,,,,,,,,,,,,,,,,,,,,,,,,,,,870.9487956000085,24,none,0,,,873.955598600005,,,,,,,,,,,,,,,,,,,,,,40,D,2024-05-17_13h18.12.663,attentional_competition_task,2022.2.4,144.02020889522478,
positions.xlsx,positions_test.xlsx,positions_test_new.xlsx,stimuli.xlsx,stimuli_new.xlsx,stimuli/Social4.png,stimuli/Social3.png,stimuli/Nonsocial4.png,stimuli/Nonsocial3.png,stimuli/Social2.png,stimuli/Social1.png,stimuli/Nonsocial2.png,stimuli/Nonsocial1.png,cs_neg_s,"(-0.7, -0.5)",,,,,,,,,0,0,0,0,,,,,,,,,,,,,1,6,22,1,,,,,,,,,,,,,,,,,,,,,,,,,,,,,,,,,,881.8441756999819,24,none,0,,,884.8510183999897,,,,,,,,,,,,,,,,,,,,,,40,D,2024-05-17_13h18.12.663,attentional_competition_task,2022.2.4,144.02020889522478,
positions.xlsx,positions_test.xlsx,positions_test_new.xlsx,stimuli.xlsx,stimuli_new.xlsx,stimuli/Social4.png,stimuli/Social3.png,stimuli/Nonsocial4.png,stimuli/Nonsocial3.png,stimuli/Social2.png,stimuli/Social1.png,stimuli/Nonsocial2.png,stimuli/Nonsocial1.png,cs_neg_ns,"(0.7, 0.5)",,,,,,,,,0,0,0,0,,,,,,,,,,,,,1,7,23,10,,,,,,,,,,,,,,,,,,,,,,,,,,,,,,,,,,892.3090871000022,24,none,0,,,895.3228224999912,,,,,,,,,,,,,,,,,,,,,,40,D,2024-05-17_13h18.12.663,attentional_competition_task,2022.2.4,144.02020889522478,
positions.xlsx,positions_test.xlsx,positions_test_new.xlsx,stimuli.xlsx,stimuli_new.xlsx,stimuli/Social4.png,stimuli/Social3.png,stimuli/Nonsocial4.png,stimuli/Nonsocial3.png,stimuli/Social2.png,stimuli/Social1.png,stimuli/Nonsocial2.png,stimuli/Nonsocial1.png,cs_neg_ns,"(-0.7, 0.5)",,,,,,,,,0,0,0,0,,,,,,,,,,,,,1,8,24,8,,,,,,,,,,,,,,,,,,,,,,,,,,,,,,,,,,902.8433699999878,24,none,0,,,905.850210500008,,,,,,,,,,,,,,,,,,,,,,40,D,2024-05-17_13h18.12.663,attentional_competition_task,2022.2.4,144.02020889522478,
positions.xlsx,positions_test.xlsx,positions_test_new.xlsx,stimuli.xlsx,stimuli_new.xlsx,stimuli/Social4.png,stimuli/Social3.png,stimuli/Nonsocial4.png,stimuli/Nonsocial3.png,stimuli/Social2.png,stimuli/Social1.png,stimuli/Nonsocial2.png,stimuli/Nonsocial1.png,cs_neg_s,"(-0.7, 0.5)",,,,,,,,,0,0,0,0,,,,,,,,,,,,,1,9,25,0,,,,,,,,,,,,,,,,,,,,,,,,,,,,,,,,,,913.8221027999825,24,none,0,,,916.828895499988,,,,,,,,,,,,,,,,,,,,,,40,D,2024-05-17_13h18.12.663,attentional_competition_task,2022.2.4,144.02020889522478,
positions.xlsx,positions_test.xlsx,positions_test_new.xlsx,stimuli.xlsx,stimuli_new.xlsx,stimuli/Social4.png,stimuli/Social3.png,stimuli/Nonsocial4.png,stimuli/Nonsocial3.png,stimuli/Social2.png,stimuli/Social1.png,stimuli/Nonsocial2.png,stimuli/Nonsocial1.png,cs_pos_ns,"(-0.7, 0.5)",,,,,,,,,0,0,0,0,,,,,,,,,,,,,1,10,26,12,,,,,,,,,,,,,,,,,,,,,,,,,,,,,,,,,,924.2939034999872,24,none,0,,,927.3076518999878,,,,,,,,,,,,,,,,,,,,,,40,D,2024-05-17_13h18.12.663,attentional_competition_task,2022.2.4,144.02020889522478,
positions.xlsx,positions_test.xlsx,positions_test_new.xlsx,stimuli.xlsx,stimuli_new.xlsx,stimuli/Social4.png,stimuli/Social3.png,stimuli/Nonsocial4.png,stimuli/Nonsocial3.png,stimuli/Social2.png,stimuli/Social1.png,stimuli/Nonsocial2.png,stimuli/Nonsocial1.png,cs_pos_ns,"(-0.7, -0.5)",,,,,,,,,0,0,0,0,,,,,,,,,,,,,1,11,27,13,,,,,,,,,,,,,,,,,,,,,,,,,,,,,,,,,,934.6962347000081,24,none,0,,,937.7030882999825,,,,,,,,,,,,,,,,,,,,,,40,D,2024-05-17_13h18.12.663,attentional_competition_task,2022.2.4,144.02020889522478,
positions.xlsx,positions_test.xlsx,positions_test_new.xlsx,stimuli.xlsx,stimuli_new.xlsx,stimuli/Social4.png,stimuli/Social3.png,stimuli/Nonsocial4.png,stimuli/Nonsocial3.png,stimuli/Social2.png,stimuli/Social1.png,stimuli/Nonsocial2.png,stimuli/Nonsocial1.png,cs_neg_ns,"(-0.7, -0.5)",,,,,,,,,0,0,0,0,,,,,,,,,,,,,1,12,28,9,,,,,,,,,,,,,,,,,,,,,,,,,,,,,,,,,,945.1541538999882,24,none,0,,,948.1610530999897,,,,,,,,,,,,,,,,,,,,,,40,D,2024-05-17_13h18.12.663,attentional_competition_task,2022.2.4,144.02020889522478,
positions.xlsx,positions_test.xlsx,positions_test_new.xlsx,stimuli.xlsx,stimuli_new.xlsx,stimuli/Social4.png,stimuli/Social3.png,stimuli/Nonsocial4.png,stimuli/Nonsocial3.png,stimuli/Social2.png,stimuli/Social1.png,stimuli/Nonsocial2.png,stimuli/Nonsocial1.png,cs_pos_ns,"(0.7, 0.5)",,,,,,,,,0,0,0,0,,,,,,,,,,,,,1,13,29,14,,,,,,,,,,,,,,,,,,,,,,,,,,,,,,,,,,955.9245637999848,24,none,0,,,958.9383266000077,,,,,,,,,,,,,,,,,,,,,,40,D,2024-05-17_13h18.12.663,attentional_competition_task,2022.2.4,144.02020889522478,
positions.xlsx,positions_test.xlsx,positions_test_new.xlsx,stimuli.xlsx,stimuli_new.xlsx,stimuli/Social4.png,stimuli/Social3.png,stimuli/Nonsocial4.png,stimuli/Nonsocial3.png,stimuli/Social2.png,stimuli/Social1.png,stimuli/Nonsocial2.png,stimuli/Nonsocial1.png,cs_pos_s,"(0.7, 0.5)",,,,,,,,,0,0,0,0,,,,,,,,,,,,,1,14,30,6,,,,,,,,,,,,,,,,,,,,,,,,,,,,,,,,,,966.3894509999955,27,reward,1,0.4930383000173606,0.49304210001719184,966.8894617999904,,,,,,,,,,,,,,,,,,,,,,40,D,2024-05-17_13h18.12.663,attentional_competition_task,2022.2.4,144.02020889522478,
positions.xlsx,positions_test.xlsx,positions_test_new.xlsx,stimuli.xlsx,stimuli_new.xlsx,stimuli/Social4.png,stimuli/Social3.png,stimuli/Nonsocial4.png,stimuli/Nonsocial3.png,stimuli/Social2.png,stimuli/Social1.png,stimuli/Nonsocial2.png,stimuli/Nonsocial1.png,cs_pos_s,"(-0.7, -0.5)",,,,,,,,,0,0,0,0,,,,,,,,,,,,,1,15,31,5,,,,,,,,,,,,,,,,,,,,,,,,,,,,,,,,,,974.4794059999986,30,reward,1,0.5835705999925267,0.5835744999931194,975.0696692999918,,,,,,,,,,,,,,,,,,,,,,40,D,2024-05-17_13h18.12.663,attentional_competition_task,2022.2.4,144.02020889522478,
positions.xlsx,positions_test.xlsx,positions_test_new.xlsx,stimuli.xlsx,stimuli_new.xlsx,stimuli/Social4.png,stimuli/Social3.png,stimuli/Nonsocial4.png,stimuli/Nonsocial3.png,stimuli/Social2.png,stimuli/Social1.png,stimuli/Nonsocial2.png,stimuli/Nonsocial1.png,cs_neg_s,,,,,,,,,,0,0,0,0,,,,,,,,,,,,,,,,,0,0,0,0,,,,,,,,,,,,,,,,,,,,,,,979.8472723999876,5.0,5.942631899990374,,,,,,,,,,,,,,,,,,,,,,,,,,,,,,,,,40,D,2024-05-17_13h18.12.663,attentional_competition_task,2022.2.4,144.02020889522478,
positions.xlsx,positions_test.xlsx,positions_test_new.xlsx,stimuli.xlsx,stimuli_new.xlsx,stimuli/Social4.png,stimuli/Social3.png,stimuli/Nonsocial4.png,stimuli/Nonsocial3.png,stimuli/Social2.png,stimuli/Social1.png,stimuli/Nonsocial2.png,stimuli/Nonsocial1.png,cs_neg_ns,,,,,,,,,,0,0,0,0,,,,,,,,,,,,,,,,,0,1,1,1,,,,,,,,,,,,,,,,,,,,,,,986.9164205999987,6.0,5.452811099996325,,,,,,,,,,,,,,,,,,,,,,,,,,,,,,,,,40,D,2024-05-17_13h18.12.663,attentional_competition_task,2022.2.4,144.02020889522478,
positions.xlsx,positions_test.xlsx,positions_test_new.xlsx,stimuli.xlsx,stimuli_new.xlsx,stimuli/Social4.png,stimuli/Social3.png,stimuli/Nonsocial4.png,stimuli/Nonsocial3.png,stimuli/Social2.png,stimuli/Social1.png,stimuli/Nonsocial2.png,stimuli/Nonsocial1.png,cs_pos_s,,,,,,,,,,0,0,0,0,,,,,,,,,,,,,,,,,0,2,2,2,,,,,,,,,,,,,,,,,,,,,,,992.9508791999833,7.0,2.4121758000110276,,,,,,,,,,,,,,,,,,,,,,,,,,,,,,,,,40,D,2024-05-17_13h18.12.663,attentional_competition_task,2022.2.4,144.02020889522478,
positions.xlsx,positions_test.xlsx,positions_test_new.xlsx,stimuli.xlsx,stimuli_new.xlsx,stimuli/Social4.png,stimuli/Social3.png,stimuli/Nonsocial4.png,stimuli/Nonsocial3.png,stimuli/Social2.png,stimuli/Social1.png,stimuli/Nonsocial2.png,stimuli/Nonsocial1.png,cs_pos_ns,,,,,,,,,,0,0,0,0,,,,,,,,,,,,,,,,,0,3,3,3,,,,,,,,,,,,,,,,,,,,,,,996.1451954999939,4.0,1.8550988000060897,,,,,,,,,,,,,,,,,,,,,,,,,,,,,,,,,40,D,2024-05-17_13h18.12.663,attentional_competition_task,2022.2.4,144.02020889522478,
positions.xlsx,positions_test.xlsx,positions_test_new.xlsx,stimuli.xlsx,stimuli_new.xlsx,stimuli/Social4.png,stimuli/Social3.png,stimuli/Nonsocial4.png,stimuli/Nonsocial3.png,stimuli/Social2.png,stimuli/Social1.png,stimuli/Nonsocial2.png,stimuli/Nonsocial1.png,,,"(-0.7, -0.5)",cs_pos_s,"(-0.7, 0.5)",cs_neg_s,"(0.7, -0.5)",cs_pos_ns,"(0.7, 0.5)",cs_neg_ns,0,0,0,0,,,,,,,,,,,,,,,,,,,,,0,0,0,7,,,,,,,,,,,,,,,,,,,,,,,,,,,33,reward,,,,,999.9089648000081,1016.7971933000081,1016.7971933000081,1016.7971933000081,1016.7971933000081,1,0.02344809999340214,0.19052870001178235,0,,,0,,,0,,,1017.4916155999817,1017.4916155999817,1017.4916155999817,1017.4916155999817,40,D,2024-05-17_13h18.12.663,attentional_competition_task,2022.2.4,144.02020889522478,
positions.xlsx,positions_test.xlsx,positions_test_new.xlsx,stimuli.xlsx,stimuli_new.xlsx,stimuli/Social4.png,stimuli/Social3.png,stimuli/Nonsocial4.png,stimuli/Nonsocial3.png,stimuli/Social2.png,stimuli/Social1.png,stimuli/Nonsocial2.png,stimuli/Nonsocial1.png,,,"(-0.7, -0.5)",cs_pos_ns,"(-0.7, 0.5)",cs_neg_ns,"(0.7, -0.5)",cs_neg_s,"(0.7, 0.5)",cs_pos_s,0,0,0,0,,,,,,,,,,,,,,,,,,,,,0,1,1,21,,,,,,,,,,,,,,,,,,,,,,,,,,,39,reward,,,,,,1025.4704550000024,1025.4704550000024,1025.4704550000024,1025.4704550000024,0,,,0,,,0,,,1,0.024236600002041087,0.045188299991423264,1026.6579408999823,1026.6579408999823,1026.6579408999823,1026.6579408999823,40,D,2024-05-17_13h18.12.663,attentional_competition_task,2022.2.4,144.02020889522478,
positions.xlsx,positions_test.xlsx,positions_test_new.xlsx,stimuli.xlsx,stimuli_new.xlsx,stimuli/Social4.png,stimuli/Social3.png,stimuli/Nonsocial4.png,stimuli/Nonsocial3.png,stimuli/Social2.png,stimuli/Social1.png,stimuli/Nonsocial2.png,stimuli/Nonsocial1.png,,,"(-0.7, -0.5)",cs_neg_s,"(-0.7, 0.5)",cs_pos_s,"(0.7, -0.5)",cs_neg_ns,"(0.7, 0.5)",cs_pos_ns,0,0,0,0,,,,,,,,,,,,,,,,,,,,,0,2,2,0,,,,,,,,,,,,,,,,,,,,,,,,,,,45,reward,,,,,,1033.324302299996,1033.324302299996,1033.324302299996,1033.324302299996,0,,,1,0.030070099979639053,0.05130319998716004,0,,,0,,,1034.7339903999818,1034.7339903999818,1034.7339903999818,1034.7339903999818,40,D,2024-05-17_13h18.12.663,attentional_competition_task,2022.2.4,144.02020889522478,
positions.xlsx,positions_test.xlsx,positions_test_new.xlsx,stimuli.xlsx,stimuli_new.xlsx,stimuli/Social4.png,stimuli/Social3.png,stimuli/Nonsocial4.png,stimuli/Nonsocial3.png,stimuli/Social2.png,stimuli/Social1.png,stimuli/Nonsocial2.png,stimuli/Nonsocial1.png,,,"(-0.7, -0.5)",cs_neg_s,"(-0.7, 0.5)",cs_pos_s,"(0.7, -0.5)",cs_pos_ns,"(0.7, 0.5)",cs_neg_ns,0,0,0,0,,,,,,,,,,,,,,,,,,,,,0,3,3,1,,,,,,,,,,,,,,,,,,,,,,,,,,,42,loss,,,,,,1042.1919785999926,1042.1919785999926,1042.1919785999926,1042.1919785999926,0,,,0,,,0,,,0,,,1043.1294957000064,1043.1294957000064,1043.1294957000064,1043.1294957000064,40,D,2024-05-17_13h18.12.663,attentional_competition_task,2022.2.4,144.02020889522478,
positions.xlsx,positions_test.xlsx,positions_test_new.xlsx,stimuli.xlsx,stimuli_new.xlsx,stimuli/Social4.png,stimuli/Social3.png,stimuli/Nonsocial4.png,stimuli/Nonsocial3.png,stimuli/Social2.png,stimuli/Social1.png,stimuli/Nonsocial2.png,stimuli/Nonsocial1.png,,,"(-0.7, -0.5)",cs_neg_ns,"(-0.7, 0.5)",cs_neg_s,"(0.7, -0.5)",cs_pos_ns,"(0.7, 0.5)",cs_pos_s,0,0,0,0,,,,,,,,,,,,,,,,,,,,,0,4,4,15,,,,,,,,,,,,,,,,,,,,,,,,,,,48,reward,,,,,,1050.1569616000052,1050.1569616000052,1050.1569616000052,1050.1569616000052,0,,,0,,,0,,,0,,,1051.5388875000062,1051.5388875000062,1051.5388875000062,1051.5388875000062,40,D,2024-05-17_13h18.12.663,attentional_competition_task,2022.2.4,144.02020889522478,
positions.xlsx,positions_test.xlsx,positions_test_new.xlsx,stimuli.xlsx,stimuli_new.xlsx,stimuli/Social4.png,stimuli/Social3.png,stimuli/Nonsocial4.png,stimuli/Nonsocial3.png,stimuli/Social2.png,stimuli/Social1.png,stimuli/Nonsocial2.png,stimuli/Nonsocial1.png,,,"(-0.7, -0.5)",cs_neg_s,"(-0.7, 0.5)",cs_pos_ns,"(0.7, -0.5)",cs_neg_ns,"(0.7, 0.5)",cs_pos_s,0,0,0,0,,,,,,,,,,,,,,,,,,,,,0,5,5,5,,,,,,,,,,,,,,,,,,,,,,,,,,,54,reward,,,,,,1059.3719405999873,1059.3719405999873,1059.3719405999873,1059.3719405999873,0,,,0,,,0,,,1,0.029949699994176626,0.13650399999460205,1060.288541899994,1060.288541899994,1060.288541899994,1060.288541899994,40,D,2024-05-17_13h18.12.663,attentional_competition_task,2022.2.4,144.02020889522478,
positions.xlsx,positions_test.xlsx,positions_test_new.xlsx,stimuli.xlsx,stimuli_new.xlsx,stimuli/Social4.png,stimuli/Social3.png,stimuli/Nonsocial4.png,stimuli/Nonsocial3.png,stimuli/Social2.png,stimuli/Social1.png,stimuli/Nonsocial2.png,stimuli/Nonsocial1.png,,,"(-0.7, -0.5)",cs_neg_ns,"(-0.7, 0.5)",cs_pos_s,"(0.7, -0.5)",cs_pos_ns,"(0.7, 0.5)",cs_neg_s,0,0,0,0,,,,,,,,,,,,,,,,,,,,,0,6,6,13,,,,,,,,,,,,,,,,,,,,,,,,,,,60,reward,,,,,,1067.628525499982,1067.628525499982,1067.628525499982,1067.628525499982,0,,,0,,,0,,,0,,,1068.975703300006,1068.975703300006,1068.975703300006,1068.975703300006,40,D,2024-05-17_13h18.12.663,attentional_competition_task,2022.2.4,144.02020889522478,
positions.xlsx,positions_test.xlsx,positions_test_new.xlsx,stimuli.xlsx,stimuli_new.xlsx,stimuli/Social4.png,stimuli/Social3.png,stimuli/Nonsocial4.png,stimuli/Nonsocial3.png,stimuli/Social2.png,stimuli/Social1.png,stimuli/Nonsocial2.png,stimuli/Nonsocial1.png,,,"(-0.7, -0.5)",cs_pos_ns,"(-0.7, 0.5)",cs_neg_s,"(0.7, -0.5)",cs_pos_s,"(0.7, 0.5)",cs_neg_ns,0,0,0,0,,,,,,,,,,,,,,,,,,,,,0,7,7,22,,,,,,,,,,,,,,,,,,,,,,,,,,,66,reward,,,,,,1076.0309738999931,1076.0309738999931,1076.0309738999931,1076.0309738999931,0,,,0,,,0,,,0,,,1077.440651699988,1077.440651699988,1077.440651699988,1077.440651699988,40,D,2024-05-17_13h18.12.663,attentional_competition_task,2022.2.4,144.02020889522478,
positions.xlsx,positions_test.xlsx,positions_test_new.xlsx,stimuli.xlsx,stimuli_new.xlsx,stimuli/Social4.png,stimuli/Social3.png,stimuli/Nonsocial4.png,stimuli/Nonsocial3.png,stimuli/Social2.png,stimuli/Social1.png,stimuli/Nonsocial2.png,stimuli/Nonsocial1.png,,,"(-0.7, -0.5)",cs_pos_s,"(-0.7, 0.5)",cs_pos_ns,"(0.7, -0.5)",cs_neg_ns,"(0.7, 0.5)",cs_neg_s,0,0,0,0,,,,,,,,,,,,,,,,,,,,,0,8,8,11,,,,,,,,,,,,,,,,,,,,,,,,,,,72,reward,,,,,,1084.2250797000015,1084.2250797000015,1084.2250797000015,1084.2250797000015,0,,,0,,,0,,,0,,,1085.6069605000084,1085.6069605000084,1085.6069605000084,1085.6069605000084,40,D,2024-05-17_13h18.12.663,attentional_competition_task,2022.2.4,144.02020889522478,
positions.xlsx,positions_test.xlsx,positions_test_new.xlsx,stimuli.xlsx,stimuli_new.xlsx,stimuli/Social4.png,stimuli/Social3.png,stimuli/Nonsocial4.png,stimuli/Nonsocial3.png,stimuli/Social2.png,stimuli/Social1.png,stimuli/Nonsocial2.png,stimuli/Nonsocial1.png,,,"(-0.7, -0.5)",cs_pos_ns,"(-0.7, 0.5)",cs_pos_s,"(0.7, -0.5)",cs_neg_ns,"(0.7, 0.5)",cs_neg_s,0,0,0,0,,,,,,,,,,,,,,,,,,,,,0,9,9,18,,,,,,,,,,,,,,,,,,,,,,,,,,,78,reward,,,,,,1091.8984299000003,1091.8984299000003,1091.8984299000003,1091.8984299000003,0,,,0,,,0,,,0,,,1093.3566817999817,1093.3566817999817,1093.3566817999817,1093.3566817999817,40,D,2024-05-17_13h18.12.663,attentional_competition_task,2022.2.4,144.02020889522478,
positions.xlsx,positions_test.xlsx,positions_test_new.xlsx,stimuli.xlsx,stimuli_new.xlsx,stimuli/Social4.png,stimuli/Social3.png,stimuli/Nonsocial4.png,stimuli/Nonsocial3.png,stimuli/Social2.png,stimuli/Social1.png,stimuli/Nonsocial2.png,stimuli/Nonsocial1.png,,,"(-0.7, -0.5)",cs_pos_ns,"(-0.7, 0.5)",cs_neg_s,"(0.7, -0.5)",cs_neg_ns,"(0.7, 0.5)",cs_pos_s,0,0,0,0,,,,,,,,,,,,,,,,,,,,,0,10,10,23,,,,,,,,,,,,,,,,,,,,,,,,,,,84,reward,,,,,,1100.5508300999936,1100.5508300999936,1100.5508300999936,1100.5508300999936,0,,,0,,,0,,,0,,,1102.0160739999847,1102.0160739999847,1102.0160739999847,1102.0160739999847,40,D,2024-05-17_13h18.12.663,attentional_competition_task,2022.2.4,144.02020889522478,
positions.xlsx,positions_test.xlsx,positions_test_new.xlsx,stimuli.xlsx,stimuli_new.xlsx,stimuli/Social4.png,stimuli/Social3.png,stimuli/Nonsocial4.png,stimuli/Nonsocial3.png,stimuli/Social2.png,stimuli/Social1.png,stimuli/Nonsocial2.png,stimuli/Nonsocial1.png,,,"(-0.7, -0.5)",cs_pos_s,"(-0.7, 0.5)",cs_neg_s,"(0.7, -0.5)",cs_neg_ns,"(0.7, 0.5)",cs_pos_ns,0,0,0,0,,,,,,,,,,,,,,,,,,,,,0,11,11,6,,,,,,,,,,,,,,,,,,,,,,,,,,,90,reward,,,,,,1109.7518245000101,1109.7518245000101,1109.7518245000101,1109.7518245000101,1,0.028606200008653104,0.11399780001374893,0,,,0,,,0,,,1111.0712539000087,1111.0712539000087,1111.0712539000087,1111.0712539000087,40,D,2024-05-17_13h18.12.663,attentional_competition_task,2022.2.4,144.02020889522478,
positions.xlsx,positions_test.xlsx,positions_test_new.xlsx,stimuli.xlsx,stimuli_new.xlsx,stimuli/Social4.png,stimuli/Social3.png,stimuli/Nonsocial4.png,stimuli/Nonsocial3.png,stimuli/Social2.png,stimuli/Social1.png,stimuli/Nonsocial2.png,stimuli/Nonsocial1.png,,,"(-0.7, -0.5)",cs_neg_s,"(-0.7, 0.5)",cs_neg_ns,"(0.7, -0.5)",cs_pos_s,"(0.7, 0.5)",cs_pos_ns,0,0,0,0,,,,,,,,,,,,,,,,,,,,,0,12,12,2,,,,,,,,,,,,,,,,,,,,,,,,,,,96,reward,,,,,,1118.570955400006,1118.570955400006,1118.570955400006,1118.570955400006,0,,,0,,,1,0.02951200000825338,0.1336709000170231,0,,,1120.029272099986,1120.029272099986,1120.029272099986,1120.029272099986,40,D,2024-05-17_13h18.12.663,attentional_competition_task,2022.2.4,144.02020889522478,
positions.xlsx,positions_test.xlsx,positions_test_new.xlsx,stimuli.xlsx,stimuli_new.xlsx,stimuli/Social4.png,stimuli/Social3.png,stimuli/Nonsocial4.png,stimuli/Nonsocial3.png,stimuli/Social2.png,stimuli/Social1.png,stimuli/Nonsocial2.png,stimuli/Nonsocial1.png,,,"(-0.7, -0.5)",cs_neg_s,"(-0.7, 0.5)",cs_pos_ns,"(0.7, -0.5)",cs_pos_s,"(0.7, 0.5)",cs_neg_ns,0,0,0,0,,,,,,,,,,,,,,,,,,,,,0,13,13,4,,,,,,,,,,,,,,,,,,,,,,,,,,,102,reward,,,,,,1127.7372314000095,1127.7372314000095,1127.7372314000095,1127.7372314000095,0,,,0,,,0,,,0,,,1129.1469310999964,1129.1469310999964,1129.1469310999964,1129.1469310999964,40,D,2024-05-17_13h18.12.663,attentional_competition_task,2022.2.4,144.02020889522478,
positions.xlsx,positions_test.xlsx,positions_test_new.xlsx,stimuli.xlsx,stimuli_new.xlsx,stimuli/Social4.png,stimuli/Social3.png,stimuli/Nonsocial4.png,stimuli/Nonsocial3.png,stimuli/Social2.png,stimuli/Social1.png,stimuli/Nonsocial2.png,stimuli/Nonsocial1.png,,,"(-0.7, -0.5)",cs_pos_ns,"(-0.7, 0.5)",cs_neg_ns,"(0.7, -0.5)",cs_pos_s,"(0.7, 0.5)",cs_neg_s,0,0,0,0,,,,,,,,,,,,,,,,,,,,,0,14,14,20,,,,,,,,,,,,,,,,,,,,,,,,,,,108,reward,,,,,,1135.9452582999947,1135.9452582999947,1135.9452582999947,1135.9452582999947,0,,,0,,,0,,,0,,,1137.4104874999903,1137.4104874999903,1137.4104874999903,1137.4104874999903,40,D,2024-05-17_13h18.12.663,attentional_competition_task,2022.2.4,144.02020889522478,
positions.xlsx,positions_test.xlsx,positions_test_new.xlsx,stimuli.xlsx,stimuli_new.xlsx,stimuli/Social4.png,stimuli/Social3.png,stimuli/Nonsocial4.png,stimuli/Nonsocial3.png,stimuli/Social2.png,stimuli/Social1.png,stimuli/Nonsocial2.png,stimuli/Nonsocial1.png,,,"(-0.7, -0.5)",cs_neg_s,"(-0.7, 0.5)",cs_neg_ns,"(0.7, -0.5)",cs_pos_ns,"(0.7, 0.5)",cs_pos_s,0,0,0,0,,,,,,,,,,,,,,,,,,,,,0,15,15,3,,,,,,,,,,,,,,,,,,,,,,,,,,,114,reward,,,,,,1144.9657373999944,1144.9657373999944,1144.9657373999944,1144.9657373999944,0,,,0,,,0,,,1,0.03111489998991601,0.11428189999423921,1146.3406973000092,1146.3406973000092,1146.3406973000092,1146.3406973000092,40,D,2024-05-17_13h18.12.663,attentional_competition_task,2022.2.4,144.02020889522478,
positions.xlsx,positions_test.xlsx,positions_test_new.xlsx,stimuli.xlsx,stimuli_new.xlsx,stimuli/Social4.png,stimuli/Social3.png,stimuli/Nonsocial4.png,stimuli/Nonsocial3.png,stimuli/Social2.png,stimuli/Social1.png,stimuli/Nonsocial2.png,stimuli/Nonsocial1.png,,,"(-0.7, -0.5)",cs_neg_ns,"(-0.7, 0.5)",cs_neg_s,"(0.7, -0.5)",cs_pos_s,"(0.7, 0.5)",cs_pos_ns,0,0,0,0,,,,,,,,,,,,,,,,,,,,,0,16,16,14,,,,,,,,,,,,,,,,,,,,,,,,,,,120,reward,,,,,,1154.4514775999996,1154.4514775999996,1154.4514775999996,1154.4514775999996,0,,,0,,,0,,,0,,,1155.8472614999919,1155.8472614999919,1155.8472614999919,1155.8472614999919,40,D,2024-05-17_13h18.12.663,attentional_competition_task,2022.2.4,144.02020889522478,
positions.xlsx,positions_test.xlsx,positions_test_new.xlsx,stimuli.xlsx,stimuli_new.xlsx,stimuli/Social4.png,stimuli/Social3.png,stimuli/Nonsocial4.png,stimuli/Nonsocial3.png,stimuli/Social2.png,stimuli/Social1.png,stimuli/Nonsocial2.png,stimuli/Nonsocial1.png,,,"(-0.7, -0.5)",cs_pos_s,"(-0.7, 0.5)",cs_neg_ns,"(0.7, -0.5)",cs_neg_s,"(0.7, 0.5)",cs_pos_ns,0,0,0,0,,,,,,,,,,,,,,,,,,,,,0,17,17,8,,,,,,,,,,,,,,,,,,,,,,,,,,,126,reward,,,,,,1163.0066922999977,1163.0066922999977,1163.0066922999977,1163.0066922999977,0,,,0,,,0,,,0,,,1164.388592800009,1164.388592800009,1164.388592800009,1164.388592800009,40,D,2024-05-17_13h18.12.663,attentional_competition_task,2022.2.4,144.02020889522478,
positions.xlsx,positions_test.xlsx,positions_test_new.xlsx,stimuli.xlsx,stimuli_new.xlsx,stimuli/Social4.png,stimuli/Social3.png,stimuli/Nonsocial4.png,stimuli/Nonsocial3.png,stimuli/Social2.png,stimuli/Social1.png,stimuli/Nonsocial2.png,stimuli/Nonsocial1.png,,,"(-0.7, -0.5)",cs_pos_s,"(-0.7, 0.5)",cs_pos_ns,"(0.7, -0.5)",cs_neg_s,"(0.7, 0.5)",cs_neg_ns,0,0,0,0,,,,,,,,,,,,,,,,,,,,,0,18,18,10,,,,,,,,,,,,,,,,,,,,,,,,,,,132,reward,,,,,,1171.5757983000076,1171.5757983000076,1171.5757983000076,1171.5757983000076,0,,,0,,,0,,,0,,,1173.0966217999812,1173.0966217999812,1173.0966217999812,1173.0966217999812,40,D,2024-05-17_13h18.12.663,attentional_competition_task,2022.2.4,144.02020889522478,
positions.xlsx,positions_test.xlsx,positions_test_new.xlsx,stimuli.xlsx,stimuli_new.xlsx,stimuli/Social4.png,stimuli/Social3.png,stimuli/Nonsocial4.png,stimuli/Nonsocial3.png,stimuli/Social2.png,stimuli/Social1.png,stimuli/Nonsocial2.png,stimuli/Nonsocial1.png,,,"(-0.7, -0.5)",cs_neg_ns,"(-0.7, 0.5)",cs_pos_ns,"(0.7, -0.5)",cs_neg_s,"(0.7, 0.5)",cs_pos_s,0,0,0,0,,,,,,,,,,,,,,,,,,,,,0,19,19,17,,,,,,,,,,,,,,,,,,,,,,,,,,,138,reward,,,,,,1180.4296189000015,1180.4296189000015,1180.4296189000015,1180.4296189000015,0,,,0,,,0,,,0,,,1181.8462362999853,1181.8462362999853,1181.8462362999853,1181.8462362999853,40,D,2024-05-17_13h18.12.663,attentional_competition_task,2022.2.4,144.02020889522478,
positions.xlsx,positions_test.xlsx,positions_test_new.xlsx,stimuli.xlsx,stimuli_new.xlsx,stimuli/Social4.png,stimuli/Social3.png,stimuli/Nonsocial4.png,stimuli/Nonsocial3.png,stimuli/Social2.png,stimuli/Social1.png,stimuli/Nonsocial2.png,stimuli/Nonsocial1.png,,,"(-0.7, -0.5)",cs_neg_ns,"(-0.7, 0.5)",cs_pos_s,"(0.7, -0.5)",cs_neg_s,"(0.7, 0.5)",cs_pos_ns,0,0,0,0,,,,,,,,,,,,,,,,,,,,,0,20,20,12,,,,,,,,,,,,,,,,,,,,,,,,,,,144,reward,,,,,,1189.1792752000038,1189.1792752000038,1189.1792752000038,1189.1792752000038,0,,,0,,,0,,,0,,,1190.6931074000022,1190.6931074000022,1190.6931074000022,1190.6931074000022,40,D,2024-05-17_13h18.12.663,attentional_competition_task,2022.2.4,144.02020889522478,
positions.xlsx,positions_test.xlsx,positions_test_new.xlsx,stimuli.xlsx,stimuli_new.xlsx,stimuli/Social4.png,stimuli/Social3.png,stimuli/Nonsocial4.png,stimuli/Nonsocial3.png,stimuli/Social2.png,stimuli/Social1.png,stimuli/Nonsocial2.png,stimuli/Nonsocial1.png,,,"(-0.7, -0.5)",cs_neg_ns,"(-0.7, 0.5)",cs_pos_ns,"(0.7, -0.5)",cs_pos_s,"(0.7, 0.5)",cs_neg_s,0,0,0,0,,,,,,,,,,,,,,,,,,,,,0,21,21,16,,,,,,,,,,,,,,,,,,,,,,,,,,,150,reward,,,,,,1197.5956361999852,1197.5956361999852,1197.5956361999852,1197.5956361999852,0,,,0,,,0,,,0,,,1199.005276699987,1199.005276699987,1199.005276699987,1199.005276699987,40,D,2024-05-17_13h18.12.663,attentional_competition_task,2022.2.4,144.02020889522478,
positions.xlsx,positions_test.xlsx,positions_test_new.xlsx,stimuli.xlsx,stimuli_new.xlsx,stimuli/Social4.png,stimuli/Social3.png,stimuli/Nonsocial4.png,stimuli/Nonsocial3.png,stimuli/Social2.png,stimuli/Social1.png,stimuli/Nonsocial2.png,stimuli/Nonsocial1.png,,,"(-0.7, -0.5)",cs_pos_ns,"(-0.7, 0.5)",cs_pos_s,"(0.7, -0.5)",cs_neg_s,"(0.7, 0.5)",cs_neg_ns,0,0,0,0,,,,,,,,,,,,,,,,,,,,,0,22,22,19,,,,,,,,,,,,,,,,,,,,,,,,,,,156,reward,,,,,,1205.5397118999972,1205.5397118999972,1205.5397118999972,1205.5397118999972,0,,,0,,,0,,,0,,,1207.0535729999829,1207.0535729999829,1207.0535729999829,1207.0535729999829,40,D,2024-05-17_13h18.12.663,attentional_competition_task,2022.2.4,144.02020889522478,
positions.xlsx,positions_test.xlsx,positions_test_new.xlsx,stimuli.xlsx,stimuli_new.xlsx,stimuli/Social4.png,stimuli/Social3.png,stimuli/Nonsocial4.png,stimuli/Nonsocial3.png,stimuli/Social2.png,stimuli/Social1.png,stimuli/Nonsocial2.png,stimuli/Nonsocial1.png,,,"(-0.7, -0.5)",cs_pos_s,"(-0.7, 0.5)",cs_neg_ns,"(0.7, -0.5)",cs_pos_ns,"(0.7, 0.5)",cs_neg_s,0,0,0,0,,,,,,,,,,,,,,,,,,,,,0,23,23,9,,,,,,,,,,,,,,,,,,,,,,,,,,,162,reward,,,,,,1214.4005138000066,1214.4005138000066,1214.4005138000066,1214.4005138000066,0,,,0,,,0,,,0,,,1215.8587783999974,1215.8587783999974,1215.8587783999974,1215.8587783999974,40,D,2024-05-17_13h18.12.663,attentional_competition_task,2022.2.4,144.02020889522478,
positions.xlsx,positions_test.xlsx,positions_test_new.xlsx,stimuli.xlsx,stimuli_new.xlsx,stimuli/Social4.png,stimuli/Social3.png,stimuli/Nonsocial4.png,stimuli/Nonsocial3.png,stimuli/Social2.png,stimuli/Social1.png,stimuli/Nonsocial2.png,stimuli/Nonsocial1.png,,,"(-0.7, -0.5)",cs_pos_s,"(-0.7, 0.5)",cs_pos_ns,"(0.7, -0.5)",cs_neg_ns,"(0.7, 0.5)",cs_neg_s,0,0,0,0,,,,,,,,,,,,,,,,,,,,,1,0,24,11,,,,,,,,,,,,,,,,,,,,,,,,,,,168,reward,,,,,,1223.0876440999855,1223.0876440999855,1223.0876440999855,1223.0876440999855,0,,,0,,,0,,,0,,,1224.573740199994,1224.573740199994,1224.573740199994,1224.573740199994,40,D,2024-05-17_13h18.12.663,attentional_competition_task,2022.2.4,144.02020889522478,
positions.xlsx,positions_test.xlsx,positions_test_new.xlsx,stimuli.xlsx,stimuli_new.xlsx,stimuli/Social4.png,stimuli/Social3.png,stimuli/Nonsocial4.png,stimuli/Nonsocial3.png,stimuli/Social2.png,stimuli/Social1.png,stimuli/Nonsocial2.png,stimuli/Nonsocial1.png,,,"(-0.7, -0.5)",cs_neg_ns,"(-0.7, 0.5)",cs_pos_ns,"(0.7, -0.5)",cs_pos_s,"(0.7, 0.5)",cs_neg_s,0,0,0,0,,,,,,,,,,,,,,,,,,,,,1,1,25,16,,,,,,,,,,,,,,,,,,,,,,,,,,,174,reward,,,,,,1231.2331330000015,1231.2331330000015,1231.2331330000015,1231.2331330000015,0,,,0,,,0,,,0,,,1232.6289418000088,1232.6289418000088,1232.6289418000088,1232.6289418000088,40,D,2024-05-17_13h18.12.663,attentional_competition_task,2022.2.4,144.02020889522478,
positions.xlsx,positions_test.xlsx,positions_test_new.xlsx,stimuli.xlsx,stimuli_new.xlsx,stimuli/Social4.png,stimuli/Social3.png,stimuli/Nonsocial4.png,stimuli/Nonsocial3.png,stimuli/Social2.png,stimuli/Social1.png,stimuli/Nonsocial2.png,stimuli/Nonsocial1.png,,,"(-0.7, -0.5)",cs_neg_ns,"(-0.7, 0.5)",cs_pos_s,"(0.7, -0.5)",cs_pos_ns,"(0.7, 0.5)",cs_neg_s,0,0,0,0,,,,,,,,,,,,,,,,,,,,,1,2,26,13,,,,,,,,,,,,,,,,,,,,,,,,,,,180,reward,,,,,,1239.253697200009,1239.253697200009,1239.253697200009,1239.253697200009,0,,,0,,,0,,,0,,,1240.8230881000054,1240.8230881000054,1240.8230881000054,1240.8230881000054,40,D,2024-05-17_13h18.12.663,attentional_competition_task,2022.2.4,144.02020889522478,
positions.xlsx,positions_test.xlsx,positions_test_new.xlsx,stimuli.xlsx,stimuli_new.xlsx,stimuli/Social4.png,stimuli/Social3.png,stimuli/Nonsocial4.png,stimuli/Nonsocial3.png,stimuli/Social2.png,stimuli/Social1.png,stimuli/Nonsocial2.png,stimuli/Nonsocial1.png,,,"(-0.7, -0.5)",cs_neg_ns,"(-0.7, 0.5)",cs_pos_ns,"(0.7, -0.5)",cs_neg_s,"(0.7, 0.5)",cs_pos_s,0,0,0,0,,,,,,,,,,,,,,,,,,,,,1,3,27,17,,,,,,,,,,,,,,,,,,,,,,,,,,,183,reward,,,,,,1248.6630550999835,1248.6630550999835,1248.6630550999835,1248.6630550999835,0,,,0,,,0,,,1,0.02929720000247471,0.4749961999768857,1249.6421635999868,1249.6421635999868,1249.6421635999868,1249.6421635999868,40,D,2024-05-17_13h18.12.663,attentional_competition_task,2022.2.4,144.02020889522478,
positions.xlsx,positions_test.xlsx,positions_test_new.xlsx,stimuli.xlsx,stimuli_new.xlsx,stimuli/Social4.png,stimuli/Social3.png,stimuli/Nonsocial4.png,stimuli/Nonsocial3.png,stimuli/Social2.png,stimuli/Social1.png,stimuli/Nonsocial2.png,stimuli/Nonsocial1.png,,,"(-0.7, -0.5)",cs_pos_s,"(-0.7, 0.5)",cs_pos_ns,"(0.7, -0.5)",cs_neg_s,"(0.7, 0.5)",cs_neg_ns,0,0,0,0,,,,,,,,,,,,,,,,,,,,,1,4,28,10,,,,,,,,,,,,,,,,,,,,,,,,,,,189,reward,,,,,,1256.121105099999,1256.121105099999,1256.121105099999,1256.121105099999,0,,,0,,,0,,,0,,,1257.5654663000023,1257.5654663000023,1257.5654663000023,1257.5654663000023,40,D,2024-05-17_13h18.12.663,attentional_competition_task,2022.2.4,144.02020889522478,
positions.xlsx,positions_test.xlsx,positions_test_new.xlsx,stimuli.xlsx,stimuli_new.xlsx,stimuli/Social4.png,stimuli/Social3.png,stimuli/Nonsocial4.png,stimuli/Nonsocial3.png,stimuli/Social2.png,stimuli/Social1.png,stimuli/Nonsocial2.png,stimuli/Nonsocial1.png,,,"(-0.7, -0.5)",cs_pos_s,"(-0.7, 0.5)",cs_neg_s,"(0.7, -0.5)",cs_pos_ns,"(0.7, 0.5)",cs_neg_ns,0,0,0,0,,,,,,,,,,,,,,,,,,,,,1,5,29,7,,,,,,,,,,,,,,,,,,,,,,,,,,,192,reward,,,,,,1265.2387720999832,1265.2387720999832,1265.2387720999832,1265.2387720999832,1,0.022545999992871657,0.03021129997796379,0,,,0,,,0,,,1265.8498584000045,1265.8498584000045,1265.8498584000045,1265.8498584000045,40,D,2024-05-17_13h18.12.663,attentional_competition_task,2022.2.4,144.02020889522478,
positions.xlsx,positions_test.xlsx,positions_test_new.xlsx,stimuli.xlsx,stimuli_new.xlsx,stimuli/Social4.png,stimuli/Social3.png,stimuli/Nonsocial4.png,stimuli/Nonsocial3.png,stimuli/Social2.png,stimuli/Social1.png,stimuli/Nonsocial2.png,stimuli/Nonsocial1.png,,,"(-0.7, -0.5)",cs_neg_ns,"(-0.7, 0.5)",cs_neg_s,"(0.7, -0.5)",cs_pos_s,"(0.7, 0.5)",cs_pos_ns,0,0,0,0,,,,,,,,,,,,,,,,,,,,,1,6,30,14,,,,,,,,,,,,,,,,,,,,,,,,,,,198,reward,,,,,,1272.8078867000004,1272.8078867000004,1272.8078867000004,1272.8078867000004,0,,,0,,,0,,,0,,,1274.3356333999836,1274.3356333999836,1274.3356333999836,1274.3356333999836,40,D,2024-05-17_13h18.12.663,attentional_competition_task,2022.2.4,144.02020889522478,
positions.xlsx,positions_test.xlsx,positions_test_new.xlsx,stimuli.xlsx,stimuli_new.xlsx,stimuli/Social4.png,stimuli/Social3.png,stimuli/Nonsocial4.png,stimuli/Nonsocial3.png,stimuli/Social2.png,stimuli/Social1.png,stimuli/Nonsocial2.png,stimuli/Nonsocial1.png,,,"(-0.7, -0.5)",cs_pos_ns,"(-0.7, 0.5)",cs_neg_ns,"(0.7, -0.5)",cs_pos_s,"(0.7, 0.5)",cs_neg_s,0,0,0,0,,,,,,,,,,,,,,,,,,,,,1,7,31,20,,,,,,,,,,,,,,,,,,,,,,,,,,,204,reward,,,,,,1281.7589504999924,1281.7589504999924,1281.7589504999924,1281.7589504999924,0,,,0,,,0,,,0,,,1283.1269588999858,1283.1269588999858,1283.1269588999858,1283.1269588999858,40,D,2024-05-17_13h18.12.663,attentional_competition_task,2022.2.4,144.02020889522478,
positions.xlsx,positions_test.xlsx,positions_test_new.xlsx,stimuli.xlsx,stimuli_new.xlsx,stimuli/Social4.png,stimuli/Social3.png,stimuli/Nonsocial4.png,stimuli/Nonsocial3.png,stimuli/Social2.png,stimuli/Social1.png,stimuli/Nonsocial2.png,stimuli/Nonsocial1.png,,,"(-0.7, -0.5)",cs_neg_s,"(-0.7, 0.5)",cs_pos_s,"(0.7, -0.5)",cs_pos_ns,"(0.7, 0.5)",cs_neg_ns,0,0,0,0,,,,,,,,,,,,,,,,,,,,,1,8,32,1,,,,,,,,,,,,,,,,,,,,,,,,,,,210,reward,,,,,,1290.2030849999865,1290.2030849999865,1290.2030849999865,1290.2030849999865,0,,,0,,,0,,,0,,,1291.5155697999871,1291.5155697999871,1291.5155697999871,1291.5155697999871,40,D,2024-05-17_13h18.12.663,attentional_competition_task,2022.2.4,144.02020889522478,
positions.xlsx,positions_test.xlsx,positions_test_new.xlsx,stimuli.xlsx,stimuli_new.xlsx,stimuli/Social4.png,stimuli/Social3.png,stimuli/Nonsocial4.png,stimuli/Nonsocial3.png,stimuli/Social2.png,stimuli/Social1.png,stimuli/Nonsocial2.png,stimuli/Nonsocial1.png,,,"(-0.7, -0.5)",cs_pos_s,"(-0.7, 0.5)",cs_neg_ns,"(0.7, -0.5)",cs_pos_ns,"(0.7, 0.5)",cs_neg_s,0,0,0,0,,,,,,,,,,,,,,,,,,,,,1,9,33,9,,,,,,,,,,,,,,,,,,,,,,,,,,,216,reward,,,,,,1298.5013385000057,1298.5013385000057,1298.5013385000057,1298.5013385000057,0,,,0,,,0,,,0,,,1299.9040550999925,1299.9040550999925,1299.9040550999925,1299.9040550999925,40,D,2024-05-17_13h18.12.663,attentional_competition_task,2022.2.4,144.02020889522478,
positions.xlsx,positions_test.xlsx,positions_test_new.xlsx,stimuli.xlsx,stimuli_new.xlsx,stimuli/Social4.png,stimuli/Social3.png,stimuli/Nonsocial4.png,stimuli/Nonsocial3.png,stimuli/Social2.png,stimuli/Social1.png,stimuli/Nonsocial2.png,stimuli/Nonsocial1.png,,,"(-0.7, -0.5)",cs_neg_s,"(-0.7, 0.5)",cs_pos_ns,"(0.7, -0.5)",cs_pos_s,"(0.7, 0.5)",cs_neg_ns,0,0,0,0,,,,,,,,,,,,,,,,,,,,,1,10,34,4,,,,,,,,,,,,,,,,,,,,,,,,,,,222,reward,,,,,,1306.4246478999848,1306.4246478999848,1306.4246478999848,1306.4246478999848,0,,,0,,,0,,,0,,,1307.8898629999894,1307.8898629999894,1307.8898629999894,1307.8898629999894,40,D,2024-05-17_13h18.12.663,attentional_competition_task,2022.2.4,144.02020889522478,
positions.xlsx,positions_test.xlsx,positions_test_new.xlsx,stimuli.xlsx,stimuli_new.xlsx,stimuli/Social4.png,stimuli/Social3.png,stimuli/Nonsocial4.png,stimuli/Nonsocial3.png,stimuli/Social2.png,stimuli/Social1.png,stimuli/Nonsocial2.png,stimuli/Nonsocial1.png,,,"(-0.7, -0.5)",cs_neg_s,"(-0.7, 0.5)",cs_pos_ns,"(0.7, -0.5)",cs_neg_ns,"(0.7, 0.5)",cs_pos_s,0,0,0,0,,,,,,,,,,,,,,,,,,,,,1,11,35,5,,,,,,,,,,,,,,,,,,,,,,,,,,,228,reward,,,,,,1315.0492670999956,1315.0492670999956,1315.0492670999956,1315.0492670999956,0,,,0,,,0,,,1,0.028725000011036173,0.050935300008859485,1316.5492715,1316.5492715,1316.5492715,1316.5492715,40,D,2024-05-17_13h18.12.663,attentional_competition_task,2022.2.4,144.02020889522478,
positions.xlsx,positions_test.xlsx,positions_test_new.xlsx,stimuli.xlsx,stimuli_new.xlsx,stimuli/Social4.png,stimuli/Social3.png,stimuli/Nonsocial4.png,stimuli/Nonsocial3.png,stimuli/Social2.png,stimuli/Social1.png,stimuli/Nonsocial2.png,stimuli/Nonsocial1.png,,,"(-0.7, -0.5)",cs_neg_ns,"(-0.7, 0.5)",cs_neg_s,"(0.7, -0.5)",cs_pos_ns,"(0.7, 0.5)",cs_pos_s,0,0,0,0,,,,,,,,,,,,,,,,,,,,,1,12,36,15,,,,,,,,,,,,,,,,,,,,,,,,,,,234,reward,,,,,,1324.194791899994,1324.194791899994,1324.194791899994,1324.194791899994,0,,,0,,,0,,,0,,,1325.6252728999825,1325.6252728999825,1325.6252728999825,1325.6252728999825,40,D,2024-05-17_13h18.12.663,attentional_competition_task,2022.2.4,144.02020889522478,
positions.xlsx,positions_test.xlsx,positions_test_new.xlsx,stimuli.xlsx,stimuli_new.xlsx,stimuli/Social4.png,stimuli/Social3.png,stimuli/Nonsocial4.png,stimuli/Nonsocial3.png,stimuli/Social2.png,stimuli/Social1.png,stimuli/Nonsocial2.png,stimuli/Nonsocial1.png,,,"(-0.7, -0.5)",cs_neg_s,"(-0.7, 0.5)",cs_neg_ns,"(0.7, -0.5)",cs_pos_ns,"(0.7, 0.5)",cs_pos_s,0,0,0,0,,,,,,,,,,,,,,,,,,,,,1,13,37,3,,,,,,,,,,,,,,,,,,,,,,,,,,,240,reward,,,,,,1332.2222325000039,1332.2222325000039,1332.2222325000039,1332.2222325000039,0,,,0,,,0,,,0,,,1333.7499607999926,1333.7499607999926,1333.7499607999926,1333.7499607999926,40,D,2024-05-17_13h18.12.663,attentional_competition_task,2022.2.4,144.02020889522478,
positions.xlsx,positions_test.xlsx,positions_test_new.xlsx,stimuli.xlsx,stimuli_new.xlsx,stimuli/Social4.png,stimuli/Social3.png,stimuli/Nonsocial4.png,stimuli/Nonsocial3.png,stimuli/Social2.png,stimuli/Social1.png,stimuli/Nonsocial2.png,stimuli/Nonsocial1.png,,,"(-0.7, -0.5)",cs_pos_ns,"(-0.7, 0.5)",cs_pos_s,"(0.7, -0.5)",cs_neg_s,"(0.7, 0.5)",cs_neg_ns,0,0,0,0,,,,,,,,,,,,,,,,,,,,,1,14,38,19,,,,,,,,,,,,,,,,,,,,,,,,,,,246,reward,,,,,,1339.9857919999922,1339.9857919999922,1339.9857919999922,1339.9857919999922,0,,,0,,,0,,,0,,,1341.4163206999947,1341.4163206999947,1341.4163206999947,1341.4163206999947,40,D,2024-05-17_13h18.12.663,attentional_competition_task,2022.2.4,144.02020889522478,
positions.xlsx,positions_test.xlsx,positions_test_new.xlsx,stimuli.xlsx,stimuli_new.xlsx,stimuli/Social4.png,stimuli/Social3.png,stimuli/Nonsocial4.png,stimuli/Nonsocial3.png,stimuli/Social2.png,stimuli/Social1.png,stimuli/Nonsocial2.png,stimuli/Nonsocial1.png,,,"(-0.7, -0.5)",cs_pos_ns,"(-0.7, 0.5)",cs_neg_ns,"(0.7, -0.5)",cs_neg_s,"(0.7, 0.5)",cs_pos_s,0,0,0,0,,,,,,,,,,,,,,,,,,,,,1,15,39,21,,,,,,,,,,,,,,,,,,,,,,,,,,,249,reward,,,,,,1349.374318999995,1349.374318999995,1349.374318999995,1349.374318999995,0,,,0,,,0,,,1,0.030629800021415576,0.40551630000118166,1350.2770969999838,1350.2770969999838,1350.2770969999838,1350.2770969999838,40,D,2024-05-17_13h18.12.663,attentional_competition_task,2022.2.4,144.02020889522478,
positions.xlsx,positions_test.xlsx,positions_test_new.xlsx,stimuli.xlsx,stimuli_new.xlsx,stimuli/Social4.png,stimuli/Social3.png,stimuli/Nonsocial4.png,stimuli/Nonsocial3.png,stimuli/Social2.png,stimuli/Social1.png,stimuli/Nonsocial2.png,stimuli/Nonsocial1.png,,,"(-0.7, -0.5)",cs_pos_s,"(-0.7, 0.5)",cs_neg_s,"(0.7, -0.5)",cs_neg_ns,"(0.7, 0.5)",cs_pos_ns,0,0,0,0,,,,,,,,,,,,,,,,,,,,,1,16,40,6,,,,,,,,,,,,,,,,,,,,,,,,,,,255,reward,,,,,,1357.0962664999824,1357.0962664999824,1357.0962664999824,1357.0962664999824,0,,,0,,,0,,,0,,,1358.4225914999843,1358.4225914999843,1358.4225914999843,1358.4225914999843,40,D,2024-05-17_13h18.12.663,attentional_competition_task,2022.2.4,144.02020889522478,
positions.xlsx,positions_test.xlsx,positions_test_new.xlsx,stimuli.xlsx,stimuli_new.xlsx,stimuli/Social4.png,stimuli/Social3.png,stimuli/Nonsocial4.png,stimuli/Nonsocial3.png,stimuli/Social2.png,stimuli/Social1.png,stimuli/Nonsocial2.png,stimuli/Nonsocial1.png,,,"(-0.7, -0.5)",cs_neg_s,"(-0.7, 0.5)",cs_neg_ns,"(0.7, -0.5)",cs_pos_s,"(0.7, 0.5)",cs_pos_ns,0,0,0,0,,,,,,,,,,,,,,,,,,,,,1,17,41,2,,,,,,,,,,,,,,,,,,,,,,,,,,,261,reward,,,,,,1365.991739899997,1365.991739899997,1365.991739899997,1365.991739899997,0,,,0,,,1,0.030591799993999302,0.4335977000009734,0,,,1367.3874808999826,1367.3874808999826,1367.3874808999826,1367.3874808999826,40,D,2024-05-17_13h18.12.663,attentional_competition_task,2022.2.4,144.02020889522478,
positions.xlsx,positions_test.xlsx,positions_test_new.xlsx,stimuli.xlsx,stimuli_new.xlsx,stimuli/Social4.png,stimuli/Social3.png,stimuli/Nonsocial4.png,stimuli/Nonsocial3.png,stimuli/Social2.png,stimuli/Social1.png,stimuli/Nonsocial2.png,stimuli/Nonsocial1.png,,,"(-0.7, -0.5)",cs_pos_ns,"(-0.7, 0.5)",cs_neg_s,"(0.7, -0.5)",cs_neg_ns,"(0.7, 0.5)",cs_pos_s,0,0,0,0,,,,,,,,,,,,,,,,,,,,,1,18,42,23,,,,,,,,,,,,,,,,,,,,,,,,,,,267,reward,,,,,,1373.9914281000092,1373.9914281000092,1373.9914281000092,1373.9914281000092,0,,,0,,,0,,,0,,,1375.4774684000004,1375.4774684000004,1375.4774684000004,1375.4774684000004,40,D,2024-05-17_13h18.12.663,attentional_competition_task,2022.2.4,144.02020889522478,
positions.xlsx,positions_test.xlsx,positions_test_new.xlsx,stimuli.xlsx,stimuli_new.xlsx,stimuli/Social4.png,stimuli/Social3.png,stimuli/Nonsocial4.png,stimuli/Nonsocial3.png,stimuli/Social2.png,stimuli/Social1.png,stimuli/Nonsocial2.png,stimuli/Nonsocial1.png,,,"(-0.7, -0.5)",cs_pos_ns,"(-0.7, 0.5)",cs_neg_s,"(0.7, -0.5)",cs_pos_s,"(0.7, 0.5)",cs_neg_ns,0,0,0,0,,,,,,,,,,,,,,,,,,,,,1,19,43,22,,,,,,,,,,,,,,,,,,,,,,,,,,,273,reward,,,,,,1382.2688606999873,1382.2688606999873,1382.2688606999873,1382.2688606999873,0,,,0,,,0,,,0,,,1383.8035166999907,1383.8035166999907,1383.8035166999907,1383.8035166999907,40,D,2024-05-17_13h18.12.663,attentional_competition_task,2022.2.4,144.02020889522478,
positions.xlsx,positions_test.xlsx,positions_test_new.xlsx,stimuli.xlsx,stimuli_new.xlsx,stimuli/Social4.png,stimuli/Social3.png,stimuli/Nonsocial4.png,stimuli/Nonsocial3.png,stimuli/Social2.png,stimuli/Social1.png,stimuli/Nonsocial2.png,stimuli/Nonsocial1.png,,,"(-0.7, -0.5)",cs_neg_s,"(-0.7, 0.5)",cs_pos_s,"(0.7, -0.5)",cs_neg_ns,"(0.7, 0.5)",cs_pos_ns,0,0,0,0,,,,,,,,,,,,,,,,,,,,,1,20,44,0,,,,,,,,,,,,,,,,,,,,,,,,,,,279,reward,,,,,,1390.6990644999896,1390.6990644999896,1390.6990644999896,1390.6990644999896,0,,,0,,,0,,,0,,,1392.1365312999988,1392.1365312999988,1392.1365312999988,1392.1365312999988,40,D,2024-05-17_13h18.12.663,attentional_competition_task,2022.2.4,144.02020889522478,
positions.xlsx,positions_test.xlsx,positions_test_new.xlsx,stimuli.xlsx,stimuli_new.xlsx,stimuli/Social4.png,stimuli/Social3.png,stimuli/Nonsocial4.png,stimuli/Nonsocial3.png,stimuli/Social2.png,stimuli/Social1.png,stimuli/Nonsocial2.png,stimuli/Nonsocial1.png,,,"(-0.7, -0.5)",cs_neg_ns,"(-0.7, 0.5)",cs_pos_s,"(0.7, -0.5)",cs_neg_s,"(0.7, 0.5)",cs_pos_ns,0,0,0,0,,,,,,,,,,,,,,,,,,,,,1,21,45,12,,,,,,,,,,,,,,,,,,,,,,,,,,,285,reward,,,,,,1398.8237603000016,1398.8237603000016,1398.8237603000016,1398.8237603000016,1,0.2869649000058416,0.2937030000030063,1,0.03096239999285899,0.28727979998802766,0,,,0,,,1400.3028853999858,1400.3028853999858,1400.3028853999858,1400.3028853999858,40,D,2024-05-17_13h18.12.663,attentional_competition_task,2022.2.4,144.02020889522478,
positions.xlsx,positions_test.xlsx,positions_test_new.xlsx,stimuli.xlsx,stimuli_new.xlsx,stimuli/Social4.png,stimuli/Social3.png,stimuli/Nonsocial4.png,stimuli/Nonsocial3.png,stimuli/Social2.png,stimuli/Social1.png,stimuli/Nonsocial2.png,stimuli/Nonsocial1.png,,,"(-0.7, -0.5)",cs_pos_ns,"(-0.7, 0.5)",cs_pos_s,"(0.7, -0.5)",cs_neg_ns,"(0.7, 0.5)",cs_neg_s,0,0,0,0,,,,,,,,,,,,,,,,,,,,,1,22,46,18,,,,,,,,,,,,,,,,,,,,,,,,,,,291,reward,,,,,,1407.038737099996,1407.038737099996,1407.038737099996,1407.038737099996,0,,,0,,,0,,,0,,,1408.5386685999983,1408.5386685999983,1408.5386685999983,1408.5386685999983,40,D,2024-05-17_13h18.12.663,attentional_competition_task,2022.2.4,144.02020889522478,
positions.xlsx,positions_test.xlsx,positions_test_new.xlsx,stimuli.xlsx,stimuli_new.xlsx,stimuli/Social4.png,stimuli/Social3.png,stimuli/Nonsocial4.png,stimuli/Nonsocial3.png,stimuli/Social2.png,stimuli/Social1.png,stimuli/Nonsocial2.png,stimuli/Nonsocial1.png,,,"(-0.7, -0.5)",cs_pos_s,"(-0.7, 0.5)",cs_neg_ns,"(0.7, -0.5)",cs_neg_s,"(0.7, 0.5)",cs_pos_ns,0,0,0,0,,,,,,,,,,,,,,,,,,,,,1,23,47,8,,,,,,,,,,,,,,,,,,,,,,,,,,,297,reward,,,,,,1415.6009039999917,1415.6009039999917,1415.6009039999917,1415.6009039999917,0,,,0,,,0,,,0,,,1417.0869420999952,1417.0869420999952,1417.0869420999952,1417.0869420999952,40,D,2024-05-17_13h18.12.663,attentional_competition_task,2022.2.4,144.02020889522478,
positions.xlsx,positions_test.xlsx,positions_test_new.xlsx,stimuli.xlsx,stimuli_new.xlsx,stimuli/Social4.png,stimuli/Social3.png,stimuli/Nonsocial4.png,stimuli/Nonsocial3.png,stimuli/Social2.png,stimuli/Social1.png,stimuli/Nonsocial2.png,stimuli/Nonsocial1.png,,,"(-0.7, -0.5)",cs_pos_ns_new,"(-0.7, 0.5)",cs_neg_ns,"(0.7, -0.5)",cs_pos_s,"(0.7, 0.5)",cs_neg_s,0,0,0,0,,,,,,,,,,,,,,,,,,,,,,,,,,,,,0,0,0,44,0,0,0,0,,,,,,,,,,,,,,,300,reward,,,,,,1422.3992016999982,1422.3992016999982,1422.3992016999982,1422.3992016999982,0,,,0,,,1,0.5784920000005513,0.5784955999988597,0,,,1422.9825067000056,1422.9825067000056,1422.9825067000056,1422.9825067000056,40,D,2024-05-17_13h18.12.663,attentional_competition_task,2022.2.4,144.02020889522478,
positions.xlsx,positions_test.xlsx,positions_test_new.xlsx,stimuli.xlsx,stimuli_new.xlsx,stimuli/Social4.png,stimuli/Social3.png,stimuli/Nonsocial4.png,stimuli/Nonsocial3.png,stimuli/Social2.png,stimuli/Social1.png,stimuli/Nonsocial2.png,stimuli/Nonsocial1.png,,,"(-0.7, -0.5)",cs_pos_ns_new,"(-0.7, 0.5)",cs_neg_ns,"(0.7, -0.5)",cs_pos_s,"(0.7, 0.5)",cs_neg_s,0,0,0,0,,,,,,,,,,,,,,,,,,,,,,,,,,,,,0,0,0,44,1,0,1,0,,,,,,,,,,,,,,,303,reward,,,,,,1423.4825143000053,1423.4825143000053,1423.4825143000053,1423.4825143000053,0,,,0,,,0,,,0,,,1424.9130231000017,1424.9130231000017,1424.9130231000017,1424.9130231000017,40,D,2024-05-17_13h18.12.663,attentional_competition_task,2022.2.4,144.02020889522478,
positions.xlsx,positions_test.xlsx,positions_test_new.xlsx,stimuli.xlsx,stimuli_new.xlsx,stimuli/Social4.png,stimuli/Social3.png,stimuli/Nonsocial4.png,stimuli/Nonsocial3.png,stimuli/Social2.png,stimuli/Social1.png,stimuli/Nonsocial2.png,stimuli/Nonsocial1.png,,,"(-0.7, -0.5)",cs_pos_ns_new,"(-0.7, 0.5)",cs_neg_ns,"(0.7, -0.5)",cs_pos_s,"(0.7, 0.5)",cs_neg_s,0,0,0,0,,,,,,,,,,,,,,,,,,,,,,,,,,,,,0,0,0,44,,,,,,,,,,,,,,,,,,,,,,,,,,,,,,,,,,,,,,,,,,,,,,40,D,2024-05-17_13h18.12.663,attentional_competition_task,2022.2.4,144.02020889522478,
positions.xlsx,positions_test.xlsx,positions_test_new.xlsx,stimuli.xlsx,stimuli_new.xlsx,stimuli/Social4.png,stimuli/Social3.png,stimuli/Nonsocial4.png,stimuli/Nonsocial3.png,stimuli/Social2.png,stimuli/Social1.png,stimuli/Nonsocial2.png,stimuli/Nonsocial1.png,,,"(-0.7, -0.5)",cs_neg_ns_new,"(-0.7, 0.5)",cs_neg_s,"(0.7, -0.5)",cs_pos_ns,"(0.7, 0.5)",cs_pos_s,0,0,0,0,,,,,,,,,,,,,,,,,,,,,,,,,,,,,0,1,1,26,0,0,0,0,,,,,,,,,,,,,,,306,reward,,,,,,1431.2947455999965,1431.2947455999965,1431.2947455999965,1431.2947455999965,0,,,0,,,0,,,1,0.5647757000115234,0.5647791000083089,1431.8641497000062,1431.8641497000062,1431.8641497000062,1431.8641497000062,40,D,2024-05-17_13h18.12.663,attentional_competition_task,2022.2.4,144.02020889522478,
positions.xlsx,positions_test.xlsx,positions_test_new.xlsx,stimuli.xlsx,stimuli_new.xlsx,stimuli/Social4.png,stimuli/Social3.png,stimuli/Nonsocial4.png,stimuli/Nonsocial3.png,stimuli/Social2.png,stimuli/Social1.png,stimuli/Nonsocial2.png,stimuli/Nonsocial1.png,,,"(-0.7, -0.5)",cs_neg_ns_new,"(-0.7, 0.5)",cs_neg_s,"(0.7, -0.5)",cs_pos_ns,"(0.7, 0.5)",cs_pos_s,0,0,0,0,,,,,,,,,,,,,,,,,,,,,,,,,,,,,0,1,1,26,1,0,1,0,,,,,,,,,,,,,,,309,reward,,,,,,1432.371023899992,1432.371023899992,1432.371023899992,1432.371023899992,0,,,0,,,0,,,0,,,1433.8085366000014,1433.8085366000014,1433.8085366000014,1433.8085366000014,40,D,2024-05-17_13h18.12.663,attentional_competition_task,2022.2.4,144.02020889522478,
positions.xlsx,positions_test.xlsx,positions_test_new.xlsx,stimuli.xlsx,stimuli_new.xlsx,stimuli/Social4.png,stimuli/Social3.png,stimuli/Nonsocial4.png,stimuli/Nonsocial3.png,stimuli/Social2.png,stimuli/Social1.png,stimuli/Nonsocial2.png,stimuli/Nonsocial1.png,,,"(-0.7, -0.5)",cs_neg_ns_new,"(-0.7, 0.5)",cs_neg_s,"(0.7, -0.5)",cs_pos_ns,"(0.7, 0.5)",cs_pos_s,0,0,0,0,,,,,,,,,,,,,,,,,,,,,,,,,,,,,0,1,1,26,,,,,,,,,,,,,,,,,,,,,,,,,,,,,,,,,,,,,,,,,,,,,,40,D,2024-05-17_13h18.12.663,attentional_competition_task,2022.2.4,144.02020889522478,
positions.xlsx,positions_test.xlsx,positions_test_new.xlsx,stimuli.xlsx,stimuli_new.xlsx,stimuli/Social4.png,stimuli/Social3.png,stimuli/Nonsocial4.png,stimuli/Nonsocial3.png,stimuli/Social2.png,stimuli/Social1.png,stimuli/Nonsocial2.png,stimuli/Nonsocial1.png,,,"(-0.7, -0.5)",cs_neg_s,"(-0.7, 0.5)",cs_pos_s,"(0.7, -0.5)",cs_neg_ns,"(0.7, 0.5)",cs_pos_ns_new,0,0,0,0,,,,,,,,,,,,,,,,,,,,,,,,,,,,,0,2,2,39,0,0,0,0,,,,,,,,,,,,,,,312,reward,,,,,,1439.7110388999863,1439.7110388999863,1439.7110388999863,1439.7110388999863,0,,,1,0.5714419000141788,0.5714455000124872,0,,,0,,,1440.2874374999956,1440.2874374999956,1440.2874374999956,1440.2874374999956,40,D,2024-05-17_13h18.12.663,attentional_competition_task,2022.2.4,144.02020889522478,
positions.xlsx,positions_test.xlsx,positions_test_new.xlsx,stimuli.xlsx,stimuli_new.xlsx,stimuli/Social4.png,stimuli/Social3.png,stimuli/Nonsocial4.png,stimuli/Nonsocial3.png,stimuli/Social2.png,stimuli/Social1.png,stimuli/Nonsocial2.png,stimuli/Nonsocial1.png,,,"(-0.7, -0.5)",cs_neg_s,"(-0.7, 0.5)",cs_pos_s,"(0.7, -0.5)",cs_neg_ns,"(0.7, 0.5)",cs_pos_ns_new,0,0,0,0,,,,,,,,,,,,,,,,,,,,,,,,,,,,,0,2,2,39,1,0,1,0,,,,,,,,,,,,,,,315,reward,,,,,,1440.7873843999987,1440.7873843999987,1440.7873843999987,1440.7873843999987,0,,,0,,,0,,,0,,,1442.224841599993,1442.224841599993,1442.224841599993,1442.224841599993,40,D,2024-05-17_13h18.12.663,attentional_competition_task,2022.2.4,144.02020889522478,
positions.xlsx,positions_test.xlsx,positions_test_new.xlsx,stimuli.xlsx,stimuli_new.xlsx,stimuli/Social4.png,stimuli/Social3.png,stimuli/Nonsocial4.png,stimuli/Nonsocial3.png,stimuli/Social2.png,stimuli/Social1.png,stimuli/Nonsocial2.png,stimuli/Nonsocial1.png,,,"(-0.7, -0.5)",cs_neg_s,"(-0.7, 0.5)",cs_pos_s,"(0.7, -0.5)",cs_neg_ns,"(0.7, 0.5)",cs_pos_ns_new,0,0,0,0,,,,,,,,,,,,,,,,,,,,,,,,,,,,,0,2,2,39,,,,,,,,,,,,,,,,,,,,,,,,,,,,,,,,,,,,,,,,,,,,,,40,D,2024-05-17_13h18.12.663,attentional_competition_task,2022.2.4,144.02020889522478,
positions.xlsx,positions_test.xlsx,positions_test_new.xlsx,stimuli.xlsx,stimuli_new.xlsx,stimuli/Social4.png,stimuli/Social3.png,stimuli/Nonsocial4.png,stimuli/Nonsocial3.png,stimuli/Social2.png,stimuli/Social1.png,stimuli/Nonsocial2.png,stimuli/Nonsocial1.png,,,"(-0.7, -0.5)",cs_neg_s,"(-0.7, 0.5)",cs_pos_ns_new,"(0.7, -0.5)",cs_neg_ns,"(0.7, 0.5)",cs_pos_s,0,0,0,0,,,,,,,,,,,,,,,,,,,,,,,,,,,,,0,3,3,46,0,0,0,0,,,,,,,,,,,,,,,318,reward,,,,,,1447.8495832000044,1447.8495832000044,1447.8495832000044,1447.8495832000044,0,,,0,,,0,,,1,0.45350539998617023,0.4535089999844786,1448.3079192999867,1448.3079192999867,1448.3079192999867,1448.3079192999867,40,D,2024-05-17_13h18.12.663,attentional_competition_task,2022.2.4,144.02020889522478,
positions.xlsx,positions_test.xlsx,positions_test_new.xlsx,stimuli.xlsx,stimuli_new.xlsx,stimuli/Social4.png,stimuli/Social3.png,stimuli/Nonsocial4.png,stimuli/Nonsocial3.png,stimuli/Social2.png,stimuli/Social1.png,stimuli/Nonsocial2.png,stimuli/Nonsocial1.png,,,"(-0.7, -0.5)",cs_neg_s,"(-0.7, 0.5)",cs_pos_ns_new,"(0.7, -0.5)",cs_neg_ns,"(0.7, 0.5)",cs_pos_s,0,0,0,0,,,,,,,,,,,,,,,,,,,,,,,,,,,,,0,3,3,46,1,0,1,0,,,,,,,,,,,,,,,321,reward,,,,,,1448.8148586000025,1448.8148586000025,1448.8148586000025,1448.8148586000025,0,,,0,,,0,,,0,,,1450.3634176999913,1450.3634176999913,1450.3634176999913,1450.3634176999913,40,D,2024-05-17_13h18.12.663,attentional_competition_task,2022.2.4,144.02020889522478,
positions.xlsx,positions_test.xlsx,positions_test_new.xlsx,stimuli.xlsx,stimuli_new.xlsx,stimuli/Social4.png,stimuli/Social3.png,stimuli/Nonsocial4.png,stimuli/Nonsocial3.png,stimuli/Social2.png,stimuli/Social1.png,stimuli/Nonsocial2.png,stimuli/Nonsocial1.png,,,"(-0.7, -0.5)",cs_neg_s,"(-0.7, 0.5)",cs_pos_ns_new,"(0.7, -0.5)",cs_neg_ns,"(0.7, 0.5)",cs_pos_s,0,0,0,0,,,,,,,,,,,,,,,,,,,,,,,,,,,,,0,3,3,46,,,,,,,,,,,,,,,,,,,,,,,,,,,,,,,,,,,,,,,,,,,,,,40,D,2024-05-17_13h18.12.663,attentional_competition_task,2022.2.4,144.02020889522478,
positions.xlsx,positions_test.xlsx,positions_test_new.xlsx,stimuli.xlsx,stimuli_new.xlsx,stimuli/Social4.png,stimuli/Social3.png,stimuli/Nonsocial4.png,stimuli/Nonsocial3.png,stimuli/Social2.png,stimuli/Social1.png,stimuli/Nonsocial2.png,stimuli/Nonsocial1.png,,,"(-0.7, -0.5)",cs_neg_ns,"(-0.7, 0.5)",cs_neg_s,"(0.7, -0.5)",cs_pos_s,"(0.7, 0.5)",cs_pos_ns_new,0,0,0,0,,,,,,,,,,,,,,,,,,,,,,,,,,,,,0,4,4,41,0,0,0,0,,,,,,,,,,,,,,,324,reward,,,,,,1456.439548800001,1456.439548800001,1456.439548800001,1456.439548800001,0,,,0,,,1,0.48885449999943376,0.48885779999545775,0,,,1456.9325775000034,1456.9325775000034,1456.9325775000034,1456.9325775000034,40,D,2024-05-17_13h18.12.663,attentional_competition_task,2022.2.4,144.02020889522478,
positions.xlsx,positions_test.xlsx,positions_test_new.xlsx,stimuli.xlsx,stimuli_new.xlsx,stimuli/Social4.png,stimuli/Social3.png,stimuli/Nonsocial4.png,stimuli/Nonsocial3.png,stimuli/Social2.png,stimuli/Social1.png,stimuli/Nonsocial2.png,stimuli/Nonsocial1.png,,,"(-0.7, -0.5)",cs_neg_ns,"(-0.7, 0.5)",cs_neg_s,"(0.7, -0.5)",cs_pos_s,"(0.7, 0.5)",cs_pos_ns_new,0,0,0,0,,,,,,,,,,,,,,,,,,,,,,,,,,,,,0,4,4,41,1,0,1,0,,,,,,,,,,,,,,,327,reward,,,,,,1457.4394910999981,1457.4394910999981,1457.4394910999981,1457.4394910999981,0,,,0,,,0,,,0,,,1458.9533594000095,1458.9533594000095,1458.9533594000095,1458.9533594000095,40,D,2024-05-17_13h18.12.663,attentional_competition_task,2022.2.4,144.02020889522478,
positions.xlsx,positions_test.xlsx,positions_test_new.xlsx,stimuli.xlsx,stimuli_new.xlsx,stimuli/Social4.png,stimuli/Social3.png,stimuli/Nonsocial4.png,stimuli/Nonsocial3.png,stimuli/Social2.png,stimuli/Social1.png,stimuli/Nonsocial2.png,stimuli/Nonsocial1.png,,,"(-0.7, -0.5)",cs_neg_ns,"(-0.7, 0.5)",cs_neg_s,"(0.7, -0.5)",cs_pos_s,"(0.7, 0.5)",cs_pos_ns_new,0,0,0,0,,,,,,,,,,,,,,,,,,,,,,,,,,,,,0,4,4,41,,,,,,,,,,,,,,,,,,,,,,,,,,,,,,,,,,,,,,,,,,,,,,40,D,2024-05-17_13h18.12.663,attentional_competition_task,2022.2.4,144.02020889522478,
positions.xlsx,positions_test.xlsx,positions_test_new.xlsx,stimuli.xlsx,stimuli_new.xlsx,stimuli/Social4.png,stimuli/Social3.png,stimuli/Nonsocial4.png,stimuli/Nonsocial3.png,stimuli/Social2.png,stimuli/Social1.png,stimuli/Nonsocial2.png,stimuli/Nonsocial1.png,,,"(-0.7, -0.5)",cs_pos_ns,"(-0.7, 0.5)",cs_neg_ns,"(0.7, -0.5)",cs_pos_s,"(0.7, 0.5)",cs_neg_s,0,0,0,0,,,,,,,,,,,,,,,,,,,,,,,,,,,,,0,5,5,6,0,0,0,0,,,,,,,,,,,,,,,330,reward,,,,,,1464.9322753000015,1464.9322753000015,1464.9322753000015,1464.9322753000015,0,,,0,,,1,0.565300499991281,0.5653037000156473,0,,,1465.5017028999864,1465.5017028999864,1465.5017028999864,1465.5017028999864,40,D,2024-05-17_13h18.12.663,attentional_competition_task,2022.2.4,144.02020889522478,
positions.xlsx,positions_test.xlsx,positions_test_new.xlsx,stimuli.xlsx,stimuli_new.xlsx,stimuli/Social4.png,stimuli/Social3.png,stimuli/Nonsocial4.png,stimuli/Nonsocial3.png,stimuli/Social2.png,stimuli/Social1.png,stimuli/Nonsocial2.png,stimuli/Nonsocial1.png,,,"(-0.7, -0.5)",cs_pos_ns,"(-0.7, 0.5)",cs_neg_ns,"(0.7, -0.5)",cs_pos_s,"(0.7, 0.5)",cs_neg_s,0,0,0,0,,,,,,,,,,,,,,,,,,,,,,,,,,,,,0,5,5,6,1,0,1,0,,,,,,,,,,,,,,,333,reward,,,,,,1466.0016803999897,1466.0016803999897,1466.0016803999897,1466.0016803999897,0,,,0,,,0,,,0,,,1467.446049399994,1467.446049399994,1467.446049399994,1467.446049399994,40,D,2024-05-17_13h18.12.663,attentional_competition_task,2022.2.4,144.02020889522478,
positions.xlsx,positions_test.xlsx,positions_test_new.xlsx,stimuli.xlsx,stimuli_new.xlsx,stimuli/Social4.png,stimuli/Social3.png,stimuli/Nonsocial4.png,stimuli/Nonsocial3.png,stimuli/Social2.png,stimuli/Social1.png,stimuli/Nonsocial2.png,stimuli/Nonsocial1.png,,,"(-0.7, -0.5)",cs_pos_ns,"(-0.7, 0.5)",cs_neg_ns,"(0.7, -0.5)",cs_pos_s,"(0.7, 0.5)",cs_neg_s,0,0,0,0,,,,,,,,,,,,,,,,,,,,,,,,,,,,,0,5,5,6,,,,,,,,,,,,,,,,,,,,,,,,,,,,,,,,,,,,,,,,,,,,,,40,D,2024-05-17_13h18.12.663,attentional_competition_task,2022.2.4,144.02020889522478,
positions.xlsx,positions_test.xlsx,positions_test_new.xlsx,stimuli.xlsx,stimuli_new.xlsx,stimuli/Social4.png,stimuli/Social3.png,stimuli/Nonsocial4.png,stimuli/Nonsocial3.png,stimuli/Social2.png,stimuli/Social1.png,stimuli/Nonsocial2.png,stimuli/Nonsocial1.png,,,"(-0.7, -0.5)",cs_pos_s,"(-0.7, 0.5)",cs_neg_s,"(0.7, -0.5)",cs_neg_ns,"(0.7, 0.5)",cs_pos_ns_new,0,0,0,0,,,,,,,,,,,,,,,,,,,,,,,,,,,,,0,6,6,47,0,0,0,0,,,,,,,,,,,,,,,336,reward,,,,,,1473.6541532999836,1473.6541532999836,1473.6541532999836,1473.6541532999836,1,0.654321300011361,0.6543250000104308,0,,,0,,,0,,,1474.3138633999915,1474.3138633999915,1474.3138633999915,1474.3138633999915,40,D,2024-05-17_13h18.12.663,attentional_competition_task,2022.2.4,144.02020889522478,
positions.xlsx,positions_test.xlsx,positions_test_new.xlsx,stimuli.xlsx,stimuli_new.xlsx,stimuli/Social4.png,stimuli/Social3.png,stimuli/Nonsocial4.png,stimuli/Nonsocial3.png,stimuli/Social2.png,stimuli/Social1.png,stimuli/Nonsocial2.png,stimuli/Nonsocial1.png,,,"(-0.7, -0.5)",cs_pos_s,"(-0.7, 0.5)",cs_neg_s,"(0.7, -0.5)",cs_neg_ns,"(0.7, 0.5)",cs_pos_ns_new,0,0,0,0,,,,,,,,,,,,,,,,,,,,,,,,,,,,,0,6,6,47,1,0,1,0,,,,,,,,,,,,,,,339,reward,,,,,,1474.8207620999892,1474.8207620999892,1474.8207620999892,1474.8207620999892,1,0.029806500009726733,0.12799760000780225,0,,,0,,,0,,,1476.167944099987,1476.167944099987,1476.167944099987,1476.167944099987,40,D,2024-05-17_13h18.12.663,attentional_competition_task,2022.2.4,144.02020889522478,
positions.xlsx,positions_test.xlsx,positions_test_new.xlsx,stimuli.xlsx,stimuli_new.xlsx,stimuli/Social4.png,stimuli/Social3.png,stimuli/Nonsocial4.png,stimuli/Nonsocial3.png,stimuli/Social2.png,stimuli/Social1.png,stimuli/Nonsocial2.png,stimuli/Nonsocial1.png,,,"(-0.7, -0.5)",cs_pos_s,"(-0.7, 0.5)",cs_neg_s,"(0.7, -0.5)",cs_neg_ns,"(0.7, 0.5)",cs_pos_ns_new,0,0,0,0,,,,,,,,,,,,,,,,,,,,,,,,,,,,,0,6,6,47,,,,,,,,,,,,,,,,,,,,,,,,,,,,,,,,,,,,,,,,,,,,,,40,D,2024-05-17_13h18.12.663,attentional_competition_task,2022.2.4,144.02020889522478,
positions.xlsx,positions_test.xlsx,positions_test_new.xlsx,stimuli.xlsx,stimuli_new.xlsx,stimuli/Social4.png,stimuli/Social3.png,stimuli/Nonsocial4.png,stimuli/Nonsocial3.png,stimuli/Social2.png,stimuli/Social1.png,stimuli/Nonsocial2.png,stimuli/Nonsocial1.png,,,"(-0.7, -0.5)",cs_neg_s,"(-0.7, 0.5)",cs_pos_ns,"(0.7, -0.5)",cs_neg_ns,"(0.7, 0.5)",cs_pos_s_new,0,0,0,0,,,,,,,,,,,,,,,,,,,,,,,,,,,,,0,7,7,28,0,0,0,0,,,,,,,,,,,,,,,342,reward,,,,,,1481.7510524999816,1481.7510524999816,1481.7510524999816,1481.7510524999816,0,,,0,,,0,,,1,0.5090576000220608,0.5090612000203691,1482.2718334000092,1482.2718334000092,1482.2718334000092,1482.2718334000092,40,D,2024-05-17_13h18.12.663,attentional_competition_task,2022.2.4,144.02020889522478,
positions.xlsx,positions_test.xlsx,positions_test_new.xlsx,stimuli.xlsx,stimuli_new.xlsx,stimuli/Social4.png,stimuli/Social3.png,stimuli/Nonsocial4.png,stimuli/Nonsocial3.png,stimuli/Social2.png,stimuli/Social1.png,stimuli/Nonsocial2.png,stimuli/Nonsocial1.png,,,"(-0.7, -0.5)",cs_neg_s,"(-0.7, 0.5)",cs_pos_ns,"(0.7, -0.5)",cs_neg_ns,"(0.7, 0.5)",cs_pos_s_new,0,0,0,0,,,,,,,,,,,,,,,,,,,,,,,,,,,,,0,7,7,28,1,0,1,0,,,,,,,,,,,,,,,345,reward,,,,,,1482.7718423999904,1482.7718423999904,1482.7718423999904,1482.7718423999904,0,,,0,,,0,,,1,0.551520699984394,0.7115179999964312,1484.2717916999827,1484.2717916999827,1484.2717916999827,1484.2717916999827,40,D,2024-05-17_13h18.12.663,attentional_competition_task,2022.2.4,144.02020889522478,
positions.xlsx,positions_test.xlsx,positions_test_new.xlsx,stimuli.xlsx,stimuli_new.xlsx,stimuli/Social4.png,stimuli/Social3.png,stimuli/Nonsocial4.png,stimuli/Nonsocial3.png,stimuli/Social2.png,stimuli/Social1.png,stimuli/Nonsocial2.png,stimuli/Nonsocial1.png,,,"(-0.7, -0.5)",cs_neg_s,"(-0.7, 0.5)",cs_pos_ns,"(0.7, -0.5)",cs_neg_ns,"(0.7, 0.5)",cs_pos_s_new,0,0,0,0,,,,,,,,,,,,,,,,,,,,,,,,,,,,,0,7,7,28,,,,,,,,,,,,,,,,,,,,,,,,,,,,,,,,,,,,,,,,,,,,,,40,D,2024-05-17_13h18.12.663,attentional_competition_task,2022.2.4,144.02020889522478,
positions.xlsx,positions_test.xlsx,positions_test_new.xlsx,stimuli.xlsx,stimuli_new.xlsx,stimuli/Social4.png,stimuli/Social3.png,stimuli/Nonsocial4.png,stimuli/Nonsocial3.png,stimuli/Social2.png,stimuli/Social1.png,stimuli/Nonsocial2.png,stimuli/Nonsocial1.png,,,"(-0.7, -0.5)",cs_neg_ns_new,"(-0.7, 0.5)",cs_pos_ns,"(0.7, -0.5)",cs_pos_s,"(0.7, 0.5)",cs_neg_s,0,0,0,0,,,,,,,,,,,,,,,,,,,,,,,,,,,,,0,8,8,25,0,0,0,0,,,,,,,,,,,,,,,348,reward,,,,,,1490.4104037999932,1490.4104037999932,1490.4104037999932,1490.4104037999932,0,,,0,,,1,0.55755150000914,0.5575555999821518,0,,,1490.9729009000002,1490.9729009000002,1490.9729009000002,1490.9729009000002,40,D,2024-05-17_13h18.12.663,attentional_competition_task,2022.2.4,144.02020889522478,
positions.xlsx,positions_test.xlsx,positions_test_new.xlsx,stimuli.xlsx,stimuli_new.xlsx,stimuli/Social4.png,stimuli/Social3.png,stimuli/Nonsocial4.png,stimuli/Nonsocial3.png,stimuli/Social2.png,stimuli/Social1.png,stimuli/Nonsocial2.png,stimuli/Nonsocial1.png,,,"(-0.7, -0.5)",cs_neg_ns_new,"(-0.7, 0.5)",cs_pos_ns,"(0.7, -0.5)",cs_pos_s,"(0.7, 0.5)",cs_neg_s,0,0,0,0,,,,,,,,,,,,,,,,,,,,,,,,,,,,,0,8,8,25,1,0,1,0,,,,,,,,,,,,,,,351,reward,,,,,,1491.4798614000028,1491.4798614000028,1491.4798614000028,1491.4798614000028,0,,,0,,,0,,,0,,,1492.924223799986,1492.924223799986,1492.924223799986,1492.924223799986,40,D,2024-05-17_13h18.12.663,attentional_competition_task,2022.2.4,144.02020889522478,
positions.xlsx,positions_test.xlsx,positions_test_new.xlsx,stimuli.xlsx,stimuli_new.xlsx,stimuli/Social4.png,stimuli/Social3.png,stimuli/Nonsocial4.png,stimuli/Nonsocial3.png,stimuli/Social2.png,stimuli/Social1.png,stimuli/Nonsocial2.png,stimuli/Nonsocial1.png,,,"(-0.7, -0.5)",cs_neg_ns_new,"(-0.7, 0.5)",cs_pos_ns,"(0.7, -0.5)",cs_pos_s,"(0.7, 0.5)",cs_neg_s,0,0,0,0,,,,,,,,,,,,,,,,,,,,,,,,,,,,,0,8,8,25,,,,,,,,,,,,,,,,,,,,,,,,,,,,,,,,,,,,,,,,,,,,,,40,D,2024-05-17_13h18.12.663,attentional_competition_task,2022.2.4,144.02020889522478,
positions.xlsx,positions_test.xlsx,positions_test_new.xlsx,stimuli.xlsx,stimuli_new.xlsx,stimuli/Social4.png,stimuli/Social3.png,stimuli/Nonsocial4.png,stimuli/Nonsocial3.png,stimuli/Social2.png,stimuli/Social1.png,stimuli/Nonsocial2.png,stimuli/Nonsocial1.png,,,"(-0.7, -0.5)",cs_pos_s,"(-0.7, 0.5)",cs_neg_ns_new,"(0.7, -0.5)",cs_neg_s,"(0.7, 0.5)",cs_pos_ns,0,0,0,0,,,,,,,,,,,,,,,,,,,,,,,,,,,,,0,9,9,23,0,0,0,0,,,,,,,,,,,,,,,354,reward,,,,,,1498.9169881999842,1498.9169881999842,1498.9169881999842,1498.9169881999842,1,0.5990279999969061,0.6059826999844518,0,,,0,,,0,,,1499.5281306999968,1499.5281306999968,1499.5281306999968,1499.5281306999968,40,D,2024-05-17_13h18.12.663,attentional_competition_task,2022.2.4,144.02020889522478,
positions.xlsx,positions_test.xlsx,positions_test_new.xlsx,stimuli.xlsx,stimuli_new.xlsx,stimuli/Social4.png,stimuli/Social3.png,stimuli/Nonsocial4.png,stimuli/Nonsocial3.png,stimuli/Social2.png,stimuli/Social1.png,stimuli/Nonsocial2.png,stimuli/Nonsocial1.png,,,"(-0.7, -0.5)",cs_pos_s,"(-0.7, 0.5)",cs_neg_ns_new,"(0.7, -0.5)",cs_neg_s,"(0.7, 0.5)",cs_pos_ns,0,0,0,0,,,,,,,,,,,,,,,,,,,,,,,,,,,,,0,9,9,23,1,0,1,0,,,,,,,,,,,,,,,357,reward,,,,,,1500.0350021999911,1500.0350021999911,1500.0350021999911,1500.0350021999911,0,,,0,,,0,,,0,,,1501.430833899998,1501.430833899998,1501.430833899998,1501.430833899998,40,D,2024-05-17_13h18.12.663,attentional_competition_task,2022.2.4,144.02020889522478,
positions.xlsx,positions_test.xlsx,positions_test_new.xlsx,stimuli.xlsx,stimuli_new.xlsx,stimuli/Social4.png,stimuli/Social3.png,stimuli/Nonsocial4.png,stimuli/Nonsocial3.png,stimuli/Social2.png,stimuli/Social1.png,stimuli/Nonsocial2.png,stimuli/Nonsocial1.png,,,"(-0.7, -0.5)",cs_pos_s,"(-0.7, 0.5)",cs_neg_ns_new,"(0.7, -0.5)",cs_neg_s,"(0.7, 0.5)",cs_pos_ns,0,0,0,0,,,,,,,,,,,,,,,,,,,,,,,,,,,,,0,9,9,23,,,,,,,,,,,,,,,,,,,,,,,,,,,,,,,,,,,,,,,,,,,,,,40,D,2024-05-17_13h18.12.663,attentional_competition_task,2022.2.4,144.02020889522478,
positions.xlsx,positions_test.xlsx,positions_test_new.xlsx,stimuli.xlsx,stimuli_new.xlsx,stimuli/Social4.png,stimuli/Social3.png,stimuli/Nonsocial4.png,stimuli/Nonsocial3.png,stimuli/Social2.png,stimuli/Social1.png,stimuli/Nonsocial2.png,stimuli/Nonsocial1.png,,,"(-0.7, -0.5)",cs_pos_s,"(-0.7, 0.5)",cs_neg_s,"(0.7, -0.5)",cs_pos_ns_new,"(0.7, 0.5)",cs_neg_ns,0,0,0,0,,,,,,,,,,,,,,,,,,,,,,,,,,,,,0,10,10,45,0,0,0,0,,,,,,,,,,,,,,,360,reward,,,,,,1507.2222884999937,1507.2222884999937,1507.2222884999937,1507.2222884999937,1,0.6483214000181761,0.654240200005006,0,,,0,,,0,,,1507.881995200005,1507.881995200005,1507.881995200005,1507.881995200005,40,D,2024-05-17_13h18.12.663,attentional_competition_task,2022.2.4,144.02020889522478,
positions.xlsx,positions_test.xlsx,positions_test_new.xlsx,stimuli.xlsx,stimuli_new.xlsx,stimuli/Social4.png,stimuli/Social3.png,stimuli/Nonsocial4.png,stimuli/Nonsocial3.png,stimuli/Social2.png,stimuli/Social1.png,stimuli/Nonsocial2.png,stimuli/Nonsocial1.png,,,"(-0.7, -0.5)",cs_pos_s,"(-0.7, 0.5)",cs_neg_s,"(0.7, -0.5)",cs_pos_ns_new,"(0.7, 0.5)",cs_neg_ns,0,0,0,0,,,,,,,,,,,,,,,,,,,,,,,,,,,,,0,10,10,45,1,0,1,0,,,,,,,,,,,,,,,363,reward,,,,,,1508.3819452000025,1508.3819452000025,1508.3819452000025,1508.3819452000025,1,0.029412300005787984,0.23158279998460785,0,,,0,,,0,,,1509.7291224999935,1509.7291224999935,1509.7291224999935,1509.7291224999935,40,D,2024-05-17_13h18.12.663,attentional_competition_task,2022.2.4,144.02020889522478,
positions.xlsx,positions_test.xlsx,positions_test_new.xlsx,stimuli.xlsx,stimuli_new.xlsx,stimuli/Social4.png,stimuli/Social3.png,stimuli/Nonsocial4.png,stimuli/Nonsocial3.png,stimuli/Social2.png,stimuli/Social1.png,stimuli/Nonsocial2.png,stimuli/Nonsocial1.png,,,"(-0.7, -0.5)",cs_pos_s,"(-0.7, 0.5)",cs_neg_s,"(0.7, -0.5)",cs_pos_ns_new,"(0.7, 0.5)",cs_neg_ns,0,0,0,0,,,,,,,,,,,,,,,,,,,,,,,,,,,,,0,10,10,45,,,,,,,,,,,,,,,,,,,,,,,,,,,,,,,,,,,,,,,,,,,,,,40,D,2024-05-17_13h18.12.663,attentional_competition_task,2022.2.4,144.02020889522478,
positions.xlsx,positions_test.xlsx,positions_test_new.xlsx,stimuli.xlsx,stimuli_new.xlsx,stimuli/Social4.png,stimuli/Social3.png,stimuli/Nonsocial4.png,stimuli/Nonsocial3.png,stimuli/Social2.png,stimuli/Social1.png,stimuli/Nonsocial2.png,stimuli/Nonsocial1.png,,,"(-0.7, -0.5)",cs_neg_s,"(-0.7, 0.5)",cs_neg_ns,"(0.7, -0.5)",cs_pos_s_new,"(0.7, 0.5)",cs_pos_ns,0,0,0,0,,,,,,,,,,,,,,,,,,,,,,,,,,,,,0,11,11,33,0,0,0,0,,,,,,,,,,,,,,,366,reward,,,,,,1515.680269400007,1515.680269400007,1515.680269400007,1515.680269400007,0,,,0,,,1,0.5229551999946125,0.5229592999967281,0,,,1516.2080513999972,1516.2080513999972,1516.2080513999972,1516.2080513999972,40,D,2024-05-17_13h18.12.663,attentional_competition_task,2022.2.4,144.02020889522478,
positions.xlsx,positions_test.xlsx,positions_test_new.xlsx,stimuli.xlsx,stimuli_new.xlsx,stimuli/Social4.png,stimuli/Social3.png,stimuli/Nonsocial4.png,stimuli/Nonsocial3.png,stimuli/Social2.png,stimuli/Social1.png,stimuli/Nonsocial2.png,stimuli/Nonsocial1.png,,,"(-0.7, -0.5)",cs_neg_s,"(-0.7, 0.5)",cs_neg_ns,"(0.7, -0.5)",cs_pos_s_new,"(0.7, 0.5)",cs_pos_ns,0,0,0,0,,,,,,,,,,,,,,,,,,,,,,,,,,,,,0,11,11,33,1,0,1,0,,,,,,,,,,,,,,,369,reward,,,,,,1516.7149618999974,1516.7149618999974,1516.7149618999974,1516.7149618999974,0,,,0,,,1,0.031259499985026196,0.044177899981150404,0,,,1518.1940673000063,1518.1940673000063,1518.1940673000063,1518.1940673000063,40,D,2024-05-17_13h18.12.663,attentional_competition_task,2022.2.4,144.02020889522478,
positions.xlsx,positions_test.xlsx,positions_test_new.xlsx,stimuli.xlsx,stimuli_new.xlsx,stimuli/Social4.png,stimuli/Social3.png,stimuli/Nonsocial4.png,stimuli/Nonsocial3.png,stimuli/Social2.png,stimuli/Social1.png,stimuli/Nonsocial2.png,stimuli/Nonsocial1.png,,,"(-0.7, -0.5)",cs_neg_s,"(-0.7, 0.5)",cs_neg_ns,"(0.7, -0.5)",cs_pos_s_new,"(0.7, 0.5)",cs_pos_ns,0,0,0,0,,,,,,,,,,,,,,,,,,,,,,,,,,,,,0,11,11,33,,,,,,,,,,,,,,,,,,,,,,,,,,,,,,,,,,,,,,,,,,,,,,40,D,2024-05-17_13h18.12.663,attentional_competition_task,2022.2.4,144.02020889522478,
