posFile,posFileTest,posFileTestNew,stimFile,stimFileNew,cs_neg_s,cs_pos_s,cs_neg_ns,cs_pos_ns,cs_neg_s_new,cs_pos_s_new,cs_neg_ns_new,cs_pos_ns_new,stim,position,position1,stim1,position2,stim2,position3,stim3,position4,stim4,blocks.thisRepN,blocks.thisTrialN,blocks.thisN,blocks.thisIndex,ratingtrials1.thisRepN,ratingtrials1.thisTrialN,ratingtrials1.thisN,ratingtrials1.thisIndex,search_task_trials.thisRepN,search_task_trials.thisTrialN,search_task_trials.thisN,search_task_trials.thisIndex,learning_trials.thisRepN,learning_trials.thisTrialN,learning_trials.thisN,learning_trials.thisIndex,trials.thisRepN,trials.thisTrialN,trials.thisN,trials.thisIndex,ratingtrials2.thisRepN,ratingtrials2.thisTrialN,ratingtrials2.thisN,ratingtrials2.thisIndex,testtrials.thisRepN,testtrials.thisTrialN,testtrials.thisN,testtrials.thisIndex,loop_test.thisRepN,loop_test.thisTrialN,loop_test.thisN,loop_test.thisIndex,testtrials_novelty.thisRepN,testtrials_novelty.thisTrialN,testtrials_novelty.thisN,testtrials_novelty.thisIndex,loop_test_novelty.thisRepN,loop_test_novelty.thisTrialN,loop_test_novelty.thisN,loop_test_novelty.thisIndex,ratingtrials3.thisRepN,ratingtrials3.thisTrialN,ratingtrials3.thisN,ratingtrials3.thisIndex,textStart.started,textStartExp.started,imageRating.started,sliderStim.response,sliderStim.rt,textStartSearch.started,target_positions,distractor_positions,textStartTask.started,image.started,score,outcome,roi.numLooks,roi.timesOn,roi.timesOff,imageFeedback.started,textTestInstr.started,test_image1.started,test_image2.started,test_image3.started,test_image4.started,test_roi1.numLooks,test_roi1.timesOn,test_roi1.timesOff,test_roi2.numLooks,test_roi2.timesOn,test_roi2.timesOff,test_roi3.numLooks,test_roi3.timesOn,test_roi3.timesOff,test_roi4.numLooks,test_roi4.timesOn,test_roi4.timesOff,test_image_feedback1.started,test_image_feedback2.started,test_iamge_feedback3.started,test_iamge_feedback4.started,participant,group,date,expName,psychopyVersion,frameRate,
positions.xlsx,positions_test.xlsx,positions_test_new.xlsx,stimuli.xlsx,stimuli_new.xlsx,stimuli/Social3.png,stimuli/Social4.png,stimuli/Nonsocial3.png,stimuli/Nonsocial4.png,stimuli/Social1.png,stimuli/Social2.png,stimuli/Nonsocial1.png,stimuli/Nonsocial2.png,cs_pos_s,,,,,,,,,,0,0,0,0,0,0,0,2,,,,,,,,,,,,,,,,,,,,,,,,,,,,,,,,,,,,,16.14607860002434,178.89476600004127,183.84657650004374,2.0,10.787625700002536,,,,,,,,,,,,,,,,,,,,,,,,,,,,,,,,,19,C,2024-04-29_16h13.36.348,attentional_competition_task,2022.2.4,143.97749333391073,
positions.xlsx,positions_test.xlsx,positions_test_new.xlsx,stimuli.xlsx,stimuli_new.xlsx,stimuli/Social3.png,stimuli/Social4.png,stimuli/Nonsocial3.png,stimuli/Nonsocial4.png,stimuli/Social1.png,stimuli/Social2.png,stimuli/Nonsocial1.png,stimuli/Nonsocial2.png,cs_neg_s,,,,,,,,,,0,0,0,0,0,1,1,0,,,,,,,,,,,,,,,,,,,,,,,,,,,,,,,,,,,,,,,195.9224866000004,5.0,9.220536999986507,,,,,,,,,,,,,,,,,,,,,,,,,,,,,,,,,19,C,2024-04-29_16h13.36.348,attentional_competition_task,2022.2.4,143.97749333391073,
positions.xlsx,positions_test.xlsx,positions_test_new.xlsx,stimuli.xlsx,stimuli_new.xlsx,stimuli/Social3.png,stimuli/Social4.png,stimuli/Nonsocial3.png,stimuli/Nonsocial4.png,stimuli/Social1.png,stimuli/Social2.png,stimuli/Nonsocial1.png,stimuli/Nonsocial2.png,cs_pos_ns,,,,,,,,,,0,0,0,0,0,2,2,3,,,,,,,,,,,,,,,,,,,,,,,,,,,,,,,,,,,,,,,206.17902119999053,3.0,5.692921300011221,,,,,,,,,,,,,,,,,,,,,,,,,,,,,,,,,19,C,2024-04-29_16h13.36.348,attentional_competition_task,2022.2.4,143.97749333391073,
positions.xlsx,positions_test.xlsx,positions_test_new.xlsx,stimuli.xlsx,stimuli_new.xlsx,stimuli/Social3.png,stimuli/Social4.png,stimuli/Nonsocial3.png,stimuli/Nonsocial4.png,stimuli/Social1.png,stimuli/Social2.png,stimuli/Nonsocial1.png,stimuli/Nonsocial2.png,cs_neg_ns,,,,,,,,,,0,0,0,0,0,3,3,1,,,,,,,,,,,,,,,,,,,,,,,,,,,,,,,,,,,,,,,212.5190071000252,1.0,3.3317607999779284,,,,,,,,,,,,,,,,,,,,,,,,,,,,,,,,,19,C,2024-04-29_16h13.36.348,attentional_competition_task,2022.2.4,143.97749333391073,
positions.xlsx,positions_test.xlsx,positions_test_new.xlsx,stimuli.xlsx,stimuli_new.xlsx,stimuli/Social3.png,stimuli/Social4.png,stimuli/Nonsocial3.png,stimuli/Nonsocial4.png,stimuli/Social1.png,stimuli/Social2.png,stimuli/Nonsocial1.png,stimuli/Nonsocial2.png,,,,,,,,,,,0,0,0,0,,,,,0,0,0,0,,,,,,,,,,,,,,,,,,,,,,,,,,,,,,,,,,,,,,216.5605585000012,"[[0.9, 0.19999999999999996], [0.9, 0.7], [0.9, -0.8], [-0.45, -0.30000000000000004], [-0.675, -0.30000000000000004], [-0.45, 0.19999999999999996], [0.22499999999999998, 0.7], [-0.45, 0.7], [0.6749999999999999, 0.19999999999999996], [0.45000000000000007, 0.19999999999999996], [-0.9, 0.7], [-0.22499999999999998, 0.19999999999999996], [0.6749999999999999, -0.8], [-0.675, 0.7], [-0.9, -0.30000000000000004]]","[[0.0, 0.7], [0.6749999999999999, -0.30000000000000004], [0.45000000000000007, 0.7], [-0.22499999999999998, -0.8], [0.22499999999999998, -0.30000000000000004], [-0.675, -0.8], [0.9, -0.30000000000000004], [0.6749999999999999, 0.7], [0.0, 0.19999999999999996], [-0.22499999999999998, -0.30000000000000004], [0.0, -0.8], [0.22499999999999998, 0.19999999999999996], [0.22499999999999998, -0.8], [0.45000000000000007, -0.8], [0.45000000000000007, -0.30000000000000004]]",,,,,,,,,,,,,,,,,,,,,,,,,,,,,,19,C,2024-04-29_16h13.36.348,attentional_competition_task,2022.2.4,143.97749333391073,
positions.xlsx,positions_test.xlsx,positions_test_new.xlsx,stimuli.xlsx,stimuli_new.xlsx,stimuli/Social3.png,stimuli/Social4.png,stimuli/Nonsocial3.png,stimuli/Nonsocial4.png,stimuli/Social1.png,stimuli/Social2.png,stimuli/Nonsocial1.png,stimuli/Nonsocial2.png,,,,,,,,,,,0,0,0,0,,,,,1,0,1,0,,,,,,,,,,,,,,,,,,,,,,,,,,,,,,,,,,,,,,,"[[0.9, -0.30000000000000004], [0.22499999999999998, -0.8], [-0.675, -0.30000000000000004], [0.45000000000000007, -0.30000000000000004], [0.6749999999999999, -0.30000000000000004], [0.9, 0.7], [-0.45, 0.7], [0.45000000000000007, 0.19999999999999996], [-0.22499999999999998, 0.19999999999999996], [-0.22499999999999998, 0.7], [0.6749999999999999, 0.19999999999999996], [-0.9, -0.8], [0.22499999999999998, 0.19999999999999996], [-0.9, 0.7], [0.0, 0.7]]","[[0.0, -0.8], [-0.22499999999999998, -0.8], [0.9, 0.19999999999999996], [0.6749999999999999, 0.7], [0.45000000000000007, -0.8], [-0.9, -0.30000000000000004], [0.9, -0.8], [-0.9, 0.19999999999999996], [0.6749999999999999, -0.8], [0.45000000000000007, 0.7], [0.22499999999999998, 0.7], [0.22499999999999998, -0.30000000000000004], [0.0, -0.30000000000000004], [-0.675, -0.8], [-0.675, 0.19999999999999996]]",,,,,,,,,,,,,,,,,,,,,,,,,,,,,,19,C,2024-04-29_16h13.36.348,attentional_competition_task,2022.2.4,143.97749333391073,
positions.xlsx,positions_test.xlsx,positions_test_new.xlsx,stimuli.xlsx,stimuli_new.xlsx,stimuli/Social3.png,stimuli/Social4.png,stimuli/Nonsocial3.png,stimuli/Nonsocial4.png,stimuli/Social1.png,stimuli/Social2.png,stimuli/Nonsocial1.png,stimuli/Nonsocial2.png,cs_pos_ns,"(-0.7, 0.5)",,,,,,,,,0,0,0,0,,,,,,,,,0,0,0,12,,,,,,,,,,,,,,,,,,,,,,,,,,,,,,,,,,,,,301.89050330000464,322.27860130002955,3,reward,1,0.20159070001682267,0.20159419998526573,322.50080139999045,,,,,,,,,,,,,,,,,,,,,,19,C,2024-04-29_16h13.36.348,attentional_competition_task,2022.2.4,143.97749333391073,
positions.xlsx,positions_test.xlsx,positions_test_new.xlsx,stimuli.xlsx,stimuli_new.xlsx,stimuli/Social3.png,stimuli/Social4.png,stimuli/Nonsocial3.png,stimuli/Nonsocial4.png,stimuli/Social1.png,stimuli/Social2.png,stimuli/Nonsocial1.png,stimuli/Nonsocial2.png,cs_neg_s,"(0.7, 0.5)",,,,,,,,,0,0,0,0,,,,,,,,,0,1,1,2,,,,,,,,,,,,,,,,,,,,,,,,,,,,,,,,,,,,,,330.6185518000275,0,loss,1,0.21549430000595748,0.21549810003489256,330.86158880003495,,,,,,,,,,,,,,,,,,,,,,19,C,2024-04-29_16h13.36.348,attentional_competition_task,2022.2.4,143.97749333391073,
positions.xlsx,positions_test.xlsx,positions_test_new.xlsx,stimuli.xlsx,stimuli_new.xlsx,stimuli/Social3.png,stimuli/Social4.png,stimuli/Nonsocial3.png,stimuli/Nonsocial4.png,stimuli/Social1.png,stimuli/Social2.png,stimuli/Nonsocial1.png,stimuli/Nonsocial2.png,cs_neg_s,"(-0.7, -0.5)",,,,,,,,,0,0,0,0,,,,,,,,,0,2,2,1,,,,,,,,,,,,,,,,,,,,,,,,,,,,,,,,,,,,,,339.0696222000406,-3,loss,1,0.23639439995167777,0.23639819998061284,339.31266470003175,,,,,,,,,,,,,,,,,,,,,,19,C,2024-04-29_16h13.36.348,attentional_competition_task,2022.2.4,143.97749333391073,
positions.xlsx,positions_test.xlsx,positions_test_new.xlsx,stimuli.xlsx,stimuli_new.xlsx,stimuli/Social3.png,stimuli/Social4.png,stimuli/Nonsocial3.png,stimuli/Nonsocial4.png,stimuli/Social1.png,stimuli/Social2.png,stimuli/Nonsocial1.png,stimuli/Nonsocial2.png,cs_pos_s,"(-0.7, -0.5)",,,,,,,,,0,0,0,0,,,,,,,,,0,3,3,5,,,,,,,,,,,,,,,,,,,,,,,,,,,,,,,,,,,,,,346.7846023000311,0,reward,1,0.7085386000107974,0.7085421999800019,347.49982440000167,,,,,,,,,,,,,,,,,,,,,,19,C,2024-04-29_16h13.36.348,attentional_competition_task,2022.2.4,143.97749333391073,
positions.xlsx,positions_test.xlsx,positions_test_new.xlsx,stimuli.xlsx,stimuli_new.xlsx,stimuli/Social3.png,stimuli/Social4.png,stimuli/Nonsocial3.png,stimuli/Nonsocial4.png,stimuli/Social1.png,stimuli/Social2.png,stimuli/Nonsocial1.png,stimuli/Nonsocial2.png,cs_pos_s,"(-0.7, 0.5)",,,,,,,,,0,0,0,0,,,,,,,,,0,4,4,4,,,,,,,,,,,,,,,,,,,,,,,,,,,,,,,,,,,,,,354.63146980002057,3,reward,1,0.5068916999734938,0.5068956000031903,355.14530030003516,,,,,,,,,,,,,,,,,,,,,,19,C,2024-04-29_16h13.36.348,attentional_competition_task,2022.2.4,143.97749333391073,
positions.xlsx,positions_test.xlsx,positions_test_new.xlsx,stimuli.xlsx,stimuli_new.xlsx,stimuli/Social3.png,stimuli/Social4.png,stimuli/Nonsocial3.png,stimuli/Nonsocial4.png,stimuli/Social1.png,stimuli/Social2.png,stimuli/Nonsocial1.png,stimuli/Nonsocial2.png,cs_neg_ns,"(0.7, 0.5)",,,,,,,,,0,0,0,0,,,,,,,,,0,5,5,10,,,,,,,,,,,,,,,,,,,,,,,,,,,,,,,,,,,,,,362.72835640003905,0,loss,1,0.7714190999977291,0.7714226999669336,363.50613789999625,,,,,,,,,,,,,,,,,,,,,,19,C,2024-04-29_16h13.36.348,attentional_competition_task,2022.2.4,143.97749333391073,
positions.xlsx,positions_test.xlsx,positions_test_new.xlsx,stimuli.xlsx,stimuli_new.xlsx,stimuli/Social3.png,stimuli/Social4.png,stimuli/Nonsocial3.png,stimuli/Nonsocial4.png,stimuli/Social1.png,stimuli/Social2.png,stimuli/Nonsocial1.png,stimuli/Nonsocial2.png,cs_neg_ns,"(0.7, -0.5)",,,,,,,,,0,0,0,0,,,,,,,,,0,6,6,11,,,,,,,,,,,,,,,,,,,,,,,,,,,,,,,,,,,,,,370.8461108999909,-3,loss,1,0.9446487999521196,0.9446526999818161,371.79747300001327,,,,,,,,,,,,,,,,,,,,,,19,C,2024-04-29_16h13.36.348,attentional_competition_task,2022.2.4,143.97749333391073,
positions.xlsx,positions_test.xlsx,positions_test_new.xlsx,stimuli.xlsx,stimuli_new.xlsx,stimuli/Social3.png,stimuli/Social4.png,stimuli/Nonsocial3.png,stimuli/Nonsocial4.png,stimuli/Social1.png,stimuli/Social2.png,stimuli/Nonsocial1.png,stimuli/Nonsocial2.png,cs_pos_s,"(0.7, -0.5)",,,,,,,,,0,0,0,0,,,,,,,,,0,7,7,7,,,,,,,,,,,,,,,,,,,,,,,,,,,,,,,,,,,,,,379.42217289999826,0,reward,1,0.5280517999781296,0.5280555000063032,379.95688030001475,,,,,,,,,,,,,,,,,,,,,,19,C,2024-04-29_16h13.36.348,attentional_competition_task,2022.2.4,143.97749333391073,
positions.xlsx,positions_test.xlsx,positions_test_new.xlsx,stimuli.xlsx,stimuli_new.xlsx,stimuli/Social3.png,stimuli/Social4.png,stimuli/Nonsocial3.png,stimuli/Nonsocial4.png,stimuli/Social1.png,stimuli/Social2.png,stimuli/Nonsocial1.png,stimuli/Nonsocial2.png,cs_pos_ns,"(0.7, -0.5)",,,,,,,,,0,0,0,0,,,,,,,,,0,8,8,15,,,,,,,,,,,,,,,,,,,,,,,,,,,,,,,,,,,,,,387.0468656999874,3,reward,1,0.8820406000013463,0.88204430002952,387.9357295000227,,,,,,,,,,,,,,,,,,,,,,19,C,2024-04-29_16h13.36.348,attentional_competition_task,2022.2.4,143.97749333391073,
positions.xlsx,positions_test.xlsx,positions_test_new.xlsx,stimuli.xlsx,stimuli_new.xlsx,stimuli/Social3.png,stimuli/Social4.png,stimuli/Nonsocial3.png,stimuli/Nonsocial4.png,stimuli/Social1.png,stimuli/Social2.png,stimuli/Nonsocial1.png,stimuli/Nonsocial2.png,cs_neg_ns,"(-0.7, -0.5)",,,,,,,,,0,0,0,0,,,,,,,,,0,9,9,9,,,,,,,,,,,,,,,,,,,,,,,,,,,,,,,,,,,,,,394.7826836000313,3,none,0,,,397.8033809000044,,,,,,,,,,,,,,,,,,,,,,19,C,2024-04-29_16h13.36.348,attentional_competition_task,2022.2.4,143.97749333391073,
positions.xlsx,positions_test.xlsx,positions_test_new.xlsx,stimuli.xlsx,stimuli_new.xlsx,stimuli/Social3.png,stimuli/Social4.png,stimuli/Nonsocial3.png,stimuli/Nonsocial4.png,stimuli/Social1.png,stimuli/Social2.png,stimuli/Nonsocial1.png,stimuli/Nonsocial2.png,cs_neg_s,"(0.7, -0.5)",,,,,,,,,0,0,0,0,,,,,,,,,0,10,10,3,,,,,,,,,,,,,,,,,,,,,,,,,,,,,,,,,,,,,,405.47665040002903,3,none,0,,,408.4835303000291,,,,,,,,,,,,,,,,,,,,,,19,C,2024-04-29_16h13.36.348,attentional_competition_task,2022.2.4,143.97749333391073,
positions.xlsx,positions_test.xlsx,positions_test_new.xlsx,stimuli.xlsx,stimuli_new.xlsx,stimuli/Social3.png,stimuli/Social4.png,stimuli/Nonsocial3.png,stimuli/Nonsocial4.png,stimuli/Social1.png,stimuli/Social2.png,stimuli/Nonsocial1.png,stimuli/Nonsocial2.png,cs_pos_ns,"(0.7, 0.5)",,,,,,,,,0,0,0,0,,,,,,,,,0,11,11,14,,,,,,,,,,,,,,,,,,,,,,,,,,,,,,,,,,,,,,415.9901479000109,6,reward,1,0.4377181999734603,0.43772159999934956,416.434625599999,,,,,,,,,,,,,,,,,,,,,,19,C,2024-04-29_16h13.36.348,attentional_competition_task,2022.2.4,143.97749333391073,
positions.xlsx,positions_test.xlsx,positions_test_new.xlsx,stimuli.xlsx,stimuli_new.xlsx,stimuli/Social3.png,stimuli/Social4.png,stimuli/Nonsocial3.png,stimuli/Nonsocial4.png,stimuli/Social1.png,stimuli/Social2.png,stimuli/Nonsocial1.png,stimuli/Nonsocial2.png,cs_pos_ns,"(-0.7, -0.5)",,,,,,,,,0,0,0,0,,,,,,,,,0,12,12,13,,,,,,,,,,,,,,,,,,,,,,,,,,,,,,,,,,,,,,423.5454103000229,9,reward,1,0.7015043999999762,0.7015084000304341,424.25372370000696,,,,,,,,,,,,,,,,,,,,,,19,C,2024-04-29_16h13.36.348,attentional_competition_task,2022.2.4,143.97749333391073,
positions.xlsx,positions_test.xlsx,positions_test_new.xlsx,stimuli.xlsx,stimuli_new.xlsx,stimuli/Social3.png,stimuli/Social4.png,stimuli/Nonsocial3.png,stimuli/Nonsocial4.png,stimuli/Social1.png,stimuli/Social2.png,stimuli/Nonsocial1.png,stimuli/Nonsocial2.png,cs_neg_s,"(-0.7, 0.5)",,,,,,,,,0,0,0,0,,,,,,,,,0,13,13,0,,,,,,,,,,,,,,,,,,,,,,,,,,,,,,,,,,,,,,431.6076403000043,9,none,0,,,434.61444330000086,,,,,,,,,,,,,,,,,,,,,,19,C,2024-04-29_16h13.36.348,attentional_competition_task,2022.2.4,143.97749333391073,
positions.xlsx,positions_test.xlsx,positions_test_new.xlsx,stimuli.xlsx,stimuli_new.xlsx,stimuli/Social3.png,stimuli/Social4.png,stimuli/Nonsocial3.png,stimuli/Nonsocial4.png,stimuli/Social1.png,stimuli/Social2.png,stimuli/Nonsocial1.png,stimuli/Nonsocial2.png,cs_pos_s,"(0.7, 0.5)",,,,,,,,,0,0,0,0,,,,,,,,,0,14,14,6,,,,,,,,,,,,,,,,,,,,,,,,,,,,,,,,,,,,,,442.57246809999924,12,reward,1,0.6874552000081167,0.6874589000362903,443.26688150002155,,,,,,,,,,,,,,,,,,,,,,19,C,2024-04-29_16h13.36.348,attentional_competition_task,2022.2.4,143.97749333391073,
positions.xlsx,positions_test.xlsx,positions_test_new.xlsx,stimuli.xlsx,stimuli_new.xlsx,stimuli/Social3.png,stimuli/Social4.png,stimuli/Nonsocial3.png,stimuli/Nonsocial4.png,stimuli/Social1.png,stimuli/Social2.png,stimuli/Nonsocial1.png,stimuli/Nonsocial2.png,cs_neg_ns,"(-0.7, 0.5)",,,,,,,,,0,0,0,0,,,,,,,,,0,15,15,8,,,,,,,,,,,,,,,,,,,,,,,,,,,,,,,,,,,,,,451.17628880002303,9,loss,1,0.7988739000284113,0.7988775999983773,451.98178090003785,,,,,,,,,,,,,,,,,,,,,,19,C,2024-04-29_16h13.36.348,attentional_competition_task,2022.2.4,143.97749333391073,
positions.xlsx,positions_test.xlsx,positions_test_new.xlsx,stimuli.xlsx,stimuli_new.xlsx,stimuli/Social3.png,stimuli/Social4.png,stimuli/Nonsocial3.png,stimuli/Nonsocial4.png,stimuli/Social1.png,stimuli/Social2.png,stimuli/Nonsocial1.png,stimuli/Nonsocial2.png,cs_pos_ns,"(0.7, 0.5)",,,,,,,,,0,0,0,0,,,,,,,,,1,0,16,14,,,,,,,,,,,,,,,,,,,,,,,,,,,,,,,,,,,,,,459.1412477000267,12,reward,1,0.6111688000382856,0.611172600009013,459.7592895000125,,,,,,,,,,,,,,,,,,,,,,19,C,2024-04-29_16h13.36.348,attentional_competition_task,2022.2.4,143.97749333391073,
positions.xlsx,positions_test.xlsx,positions_test_new.xlsx,stimuli.xlsx,stimuli_new.xlsx,stimuli/Social3.png,stimuli/Social4.png,stimuli/Nonsocial3.png,stimuli/Nonsocial4.png,stimuli/Social1.png,stimuli/Social2.png,stimuli/Nonsocial1.png,stimuli/Nonsocial2.png,cs_neg_s,"(-0.7, 0.5)",,,,,,,,,0,0,0,0,,,,,,,,,1,1,17,0,,,,,,,,,,,,,,,,,,,,,,,,,,,,,,,,,,,,,,467.3769844000344,12,none,0,,,470.3838308000122,,,,,,,,,,,,,,,,,,,,,,19,C,2024-04-29_16h13.36.348,attentional_competition_task,2022.2.4,143.97749333391073,
positions.xlsx,positions_test.xlsx,positions_test_new.xlsx,stimuli.xlsx,stimuli_new.xlsx,stimuli/Social3.png,stimuli/Social4.png,stimuli/Nonsocial3.png,stimuli/Nonsocial4.png,stimuli/Social1.png,stimuli/Social2.png,stimuli/Nonsocial1.png,stimuli/Nonsocial2.png,cs_neg_s,"(0.7, -0.5)",,,,,,,,,0,0,0,0,,,,,,,,,1,2,18,3,,,,,,,,,,,,,,,,,,,,,,,,,,,,,,,,,,,,,,477.0363749000244,12,none,0,,,480.0431773000164,,,,,,,,,,,,,,,,,,,,,,19,C,2024-04-29_16h13.36.348,attentional_competition_task,2022.2.4,143.97749333391073,
positions.xlsx,positions_test.xlsx,positions_test_new.xlsx,stimuli.xlsx,stimuli_new.xlsx,stimuli/Social3.png,stimuli/Social4.png,stimuli/Nonsocial3.png,stimuli/Nonsocial4.png,stimuli/Social1.png,stimuli/Social2.png,stimuli/Nonsocial1.png,stimuli/Nonsocial2.png,cs_pos_s,"(0.7, 0.5)",,,,,,,,,0,0,0,0,,,,,,,,,1,3,19,6,,,,,,,,,,,,,,,,,,,,,,,,,,,,,,,,,,,,,,487.25122700002976,15,reward,1,0.5278836999787018,0.5278879000106826,487.78598119999515,,,,,,,,,,,,,,,,,,,,,,19,C,2024-04-29_16h13.36.348,attentional_competition_task,2022.2.4,143.97749333391073,
positions.xlsx,positions_test.xlsx,positions_test_new.xlsx,stimuli.xlsx,stimuli_new.xlsx,stimuli/Social3.png,stimuli/Social4.png,stimuli/Nonsocial3.png,stimuli/Nonsocial4.png,stimuli/Social1.png,stimuli/Social2.png,stimuli/Nonsocial1.png,stimuli/Nonsocial2.png,cs_neg_s,"(-0.7, -0.5)",,,,,,,,,0,0,0,0,,,,,,,,,1,4,20,1,,,,,,,,,,,,,,,,,,,,,,,,,,,,,,,,,,,,,,494.6398210999905,15,none,0,,,497.646700500045,,,,,,,,,,,,,,,,,,,,,,19,C,2024-04-29_16h13.36.348,attentional_competition_task,2022.2.4,143.97749333391073,
positions.xlsx,positions_test.xlsx,positions_test_new.xlsx,stimuli.xlsx,stimuli_new.xlsx,stimuli/Social3.png,stimuli/Social4.png,stimuli/Nonsocial3.png,stimuli/Nonsocial4.png,stimuli/Social1.png,stimuli/Social2.png,stimuli/Nonsocial1.png,stimuli/Nonsocial2.png,cs_neg_ns,"(0.7, 0.5)",,,,,,,,,0,0,0,0,,,,,,,,,1,5,21,10,,,,,,,,,,,,,,,,,,,,,,,,,,,,,,,,,,,,,,504.6325160000124,12,loss,1,1.2013025999767706,1.2013066000072286,505.84079310001107,,,,,,,,,,,,,,,,,,,,,,19,C,2024-04-29_16h13.36.348,attentional_competition_task,2022.2.4,143.97749333391073,
positions.xlsx,positions_test.xlsx,positions_test_new.xlsx,stimuli.xlsx,stimuli_new.xlsx,stimuli/Social3.png,stimuli/Social4.png,stimuli/Nonsocial3.png,stimuli/Nonsocial4.png,stimuli/Social1.png,stimuli/Social2.png,stimuli/Nonsocial1.png,stimuli/Nonsocial2.png,cs_neg_s,"(0.7, 0.5)",,,,,,,,,0,0,0,0,,,,,,,,,1,6,22,2,,,,,,,,,,,,,,,,,,,,,,,,,,,,,,,,,,,,,,513.2224449000205,12,none,0,,,516.2361968000187,,,,,,,,,,,,,,,,,,,,,,19,C,2024-04-29_16h13.36.348,attentional_competition_task,2022.2.4,143.97749333391073,
positions.xlsx,positions_test.xlsx,positions_test_new.xlsx,stimuli.xlsx,stimuli_new.xlsx,stimuli/Social3.png,stimuli/Social4.png,stimuli/Nonsocial3.png,stimuli/Nonsocial4.png,stimuli/Social1.png,stimuli/Social2.png,stimuli/Nonsocial1.png,stimuli/Nonsocial2.png,cs_neg_ns,"(0.7, -0.5)",,,,,,,,,0,0,0,0,,,,,,,,,1,7,23,11,,,,,,,,,,,,,,,,,,,,,,,,,,,,,,,,,,,,,,524.0831059000338,12,none,0,,,527.0969137999928,,,,,,,,,,,,,,,,,,,,,,19,C,2024-04-29_16h13.36.348,attentional_competition_task,2022.2.4,143.97749333391073,
positions.xlsx,positions_test.xlsx,positions_test_new.xlsx,stimuli.xlsx,stimuli_new.xlsx,stimuli/Social3.png,stimuli/Social4.png,stimuli/Nonsocial3.png,stimuli/Nonsocial4.png,stimuli/Social1.png,stimuli/Social2.png,stimuli/Nonsocial1.png,stimuli/Nonsocial2.png,cs_neg_ns,"(-0.7, -0.5)",,,,,,,,,0,0,0,0,,,,,,,,,1,8,24,9,,,,,,,,,,,,,,,,,,,,,,,,,,,,,,,,,,,,,,534.4021427000407,9,loss,1,0.8682822000118904,0.8682857999810949,535.2771334000281,,,,,,,,,,,,,,,,,,,,,,19,C,2024-04-29_16h13.36.348,attentional_competition_task,2022.2.4,143.97749333391073,
positions.xlsx,positions_test.xlsx,positions_test_new.xlsx,stimuli.xlsx,stimuli_new.xlsx,stimuli/Social3.png,stimuli/Social4.png,stimuli/Nonsocial3.png,stimuli/Nonsocial4.png,stimuli/Social1.png,stimuli/Social2.png,stimuli/Nonsocial1.png,stimuli/Nonsocial2.png,cs_pos_ns,"(-0.7, -0.5)",,,,,,,,,0,0,0,0,,,,,,,,,1,9,25,13,,,,,,,,,,,,,,,,,,,,,,,,,,,,,,,,,,,,,,542.4712757000234,12,reward,1,0.5560555999982171,0.5560593000263907,543.0337780000409,,,,,,,,,,,,,,,,,,,,,,19,C,2024-04-29_16h13.36.348,attentional_competition_task,2022.2.4,143.97749333391073,
positions.xlsx,positions_test.xlsx,positions_test_new.xlsx,stimuli.xlsx,stimuli_new.xlsx,stimuli/Social3.png,stimuli/Social4.png,stimuli/Nonsocial3.png,stimuli/Nonsocial4.png,stimuli/Social1.png,stimuli/Social2.png,stimuli/Nonsocial1.png,stimuli/Nonsocial2.png,cs_pos_s,"(-0.7, 0.5)",,,,,,,,,0,0,0,0,,,,,,,,,1,10,26,4,,,,,,,,,,,,,,,,,,,,,,,,,,,,,,,,,,,,,,550.3251499999897,15,reward,1,0.43756450002547354,0.4375681999954395,550.7695523000439,,,,,,,,,,,,,,,,,,,,,,19,C,2024-04-29_16h13.36.348,attentional_competition_task,2022.2.4,143.97749333391073,
positions.xlsx,positions_test.xlsx,positions_test_new.xlsx,stimuli.xlsx,stimuli_new.xlsx,stimuli/Social3.png,stimuli/Social4.png,stimuli/Nonsocial3.png,stimuli/Nonsocial4.png,stimuli/Social1.png,stimuli/Social2.png,stimuli/Nonsocial1.png,stimuli/Nonsocial2.png,cs_neg_ns,"(-0.7, 0.5)",,,,,,,,,0,0,0,0,,,,,,,,,1,11,27,8,,,,,,,,,,,,,,,,,,,,,,,,,,,,,,,,,,,,,,557.6443257000064,15,none,0,,,560.6580668000388,,,,,,,,,,,,,,,,,,,,,,19,C,2024-04-29_16h13.36.348,attentional_competition_task,2022.2.4,143.97749333391073,
positions.xlsx,positions_test.xlsx,positions_test_new.xlsx,stimuli.xlsx,stimuli_new.xlsx,stimuli/Social3.png,stimuli/Social4.png,stimuli/Nonsocial3.png,stimuli/Nonsocial4.png,stimuli/Social1.png,stimuli/Social2.png,stimuli/Nonsocial1.png,stimuli/Nonsocial2.png,cs_pos_s,"(0.7, -0.5)",,,,,,,,,0,0,0,0,,,,,,,,,1,12,28,7,,,,,,,,,,,,,,,,,,,,,,,,,,,,,,,,,,,,,,568.4146935000317,18,reward,1,0.514222800033167,0.5142266000038944,568.9355737000005,,,,,,,,,,,,,,,,,,,,,,19,C,2024-04-29_16h13.36.348,attentional_competition_task,2022.2.4,143.97749333391073,
positions.xlsx,positions_test.xlsx,positions_test_new.xlsx,stimuli.xlsx,stimuli_new.xlsx,stimuli/Social3.png,stimuli/Social4.png,stimuli/Nonsocial3.png,stimuli/Nonsocial4.png,stimuli/Social1.png,stimuli/Social2.png,stimuli/Nonsocial1.png,stimuli/Nonsocial2.png,cs_pos_s,"(-0.7, -0.5)",,,,,,,,,0,0,0,0,,,,,,,,,1,13,29,5,,,,,,,,,,,,,,,,,,,,,,,,,,,,,,,,,,,,,,577.060188500036,21,reward,1,0.5626925000105985,0.562696400040295,577.6295990000363,,,,,,,,,,,,,,,,,,,,,,19,C,2024-04-29_16h13.36.348,attentional_competition_task,2022.2.4,143.97749333391073,
positions.xlsx,positions_test.xlsx,positions_test_new.xlsx,stimuli.xlsx,stimuli_new.xlsx,stimuli/Social3.png,stimuli/Social4.png,stimuli/Nonsocial3.png,stimuli/Nonsocial4.png,stimuli/Social1.png,stimuli/Social2.png,stimuli/Nonsocial1.png,stimuli/Nonsocial2.png,cs_pos_ns,"(-0.7, 0.5)",,,,,,,,,0,0,0,0,,,,,,,,,1,14,30,12,,,,,,,,,,,,,,,,,,,,,,,,,,,,,,,,,,,,,,585.8792865000432,24,reward,1,1.083584600011818,1.0835879999794997,586.9695379000041,,,,,,,,,,,,,,,,,,,,,,19,C,2024-04-29_16h13.36.348,attentional_competition_task,2022.2.4,143.97749333391073,
positions.xlsx,positions_test.xlsx,positions_test_new.xlsx,stimuli.xlsx,stimuli_new.xlsx,stimuli/Social3.png,stimuli/Social4.png,stimuli/Nonsocial3.png,stimuli/Nonsocial4.png,stimuli/Social1.png,stimuli/Social2.png,stimuli/Nonsocial1.png,stimuli/Nonsocial2.png,cs_pos_ns,"(0.7, -0.5)",,,,,,,,,0,0,0,0,,,,,,,,,1,15,31,15,,,,,,,,,,,,,,,,,,,,,,,,,,,,,,,,,,,,,,594.6914625000209,27,reward,1,0.7847168000298552,0.7847204999998212,595.483069400012,,,,,,,,,,,,,,,,,,,,,,19,C,2024-04-29_16h13.36.348,attentional_competition_task,2022.2.4,143.97749333391073,
positions.xlsx,positions_test.xlsx,positions_test_new.xlsx,stimuli.xlsx,stimuli_new.xlsx,stimuli/Social3.png,stimuli/Social4.png,stimuli/Nonsocial3.png,stimuli/Nonsocial4.png,stimuli/Social1.png,stimuli/Social2.png,stimuli/Nonsocial1.png,stimuli/Nonsocial2.png,cs_pos_ns,"(-0.7, -0.5)",,,,,,,,,0,0,0,0,,,,,,,,,,,,,0,0,0,13,,,,,,,,,,,,,,,,,,,,,,,,,,,,,,,,,,612.8227111999877,30,reward,1,0.604267799993977,0.6042714999639429,613.433769299998,,,,,,,,,,,,,,,,,,,,,,19,C,2024-04-29_16h13.36.348,attentional_competition_task,2022.2.4,143.97749333391073,
positions.xlsx,positions_test.xlsx,positions_test_new.xlsx,stimuli.xlsx,stimuli_new.xlsx,stimuli/Social3.png,stimuli/Social4.png,stimuli/Nonsocial3.png,stimuli/Nonsocial4.png,stimuli/Social1.png,stimuli/Social2.png,stimuli/Nonsocial1.png,stimuli/Nonsocial2.png,cs_pos_s,"(-0.7, 0.5)",,,,,,,,,0,0,0,0,,,,,,,,,,,,,0,1,1,4,,,,,,,,,,,,,,,,,,,,,,,,,,,,,,,,,,621.5376061000279,33,reward,1,0.5073378000524826,0.5073414000216872,622.0514495000243,,,,,,,,,,,,,,,,,,,,,,19,C,2024-04-29_16h13.36.348,attentional_competition_task,2022.2.4,143.97749333391073,
positions.xlsx,positions_test.xlsx,positions_test_new.xlsx,stimuli.xlsx,stimuli_new.xlsx,stimuli/Social3.png,stimuli/Social4.png,stimuli/Nonsocial3.png,stimuli/Nonsocial4.png,stimuli/Social1.png,stimuli/Social2.png,stimuli/Nonsocial1.png,stimuli/Nonsocial2.png,cs_pos_ns,"(0.7, 0.5)",,,,,,,,,0,0,0,0,,,,,,,,,,,,,0,2,2,14,,,,,,,,,,,,,,,,,,,,,,,,,,,,,,,,,,629.7248113999958,36,reward,1,0.7501563000259921,0.7501600999967195,630.48173400003,,,,,,,,,,,,,,,,,,,,,,19,C,2024-04-29_16h13.36.348,attentional_competition_task,2022.2.4,143.97749333391073,
positions.xlsx,positions_test.xlsx,positions_test_new.xlsx,stimuli.xlsx,stimuli_new.xlsx,stimuli/Social3.png,stimuli/Social4.png,stimuli/Nonsocial3.png,stimuli/Nonsocial4.png,stimuli/Social1.png,stimuli/Social2.png,stimuli/Nonsocial1.png,stimuli/Nonsocial2.png,cs_pos_s,"(0.7, 0.5)",,,,,,,,,0,0,0,0,,,,,,,,,,,,,0,3,3,6,,,,,,,,,,,,,,,,,,,,,,,,,,,,,,,,,,638.113376000023,39,reward,1,0.4864722000202164,0.4864760000491515,638.606380000012,,,,,,,,,,,,,,,,,,,,,,19,C,2024-04-29_16h13.36.348,attentional_competition_task,2022.2.4,143.97749333391073,
positions.xlsx,positions_test.xlsx,positions_test_new.xlsx,stimuli.xlsx,stimuli_new.xlsx,stimuli/Social3.png,stimuli/Social4.png,stimuli/Nonsocial3.png,stimuli/Nonsocial4.png,stimuli/Social1.png,stimuli/Social2.png,stimuli/Nonsocial1.png,stimuli/Nonsocial2.png,cs_neg_ns,"(-0.7, -0.5)",,,,,,,,,0,0,0,0,,,,,,,,,,,,,0,4,4,9,,,,,,,,,,,,,,,,,,,,,,,,,,,,,,,,,,646.0367015000083,36,loss,1,0.6253238000208512,0.6253274999908172,646.6686140000238,,,,,,,,,,,,,,,,,,,,,,19,C,2024-04-29_16h13.36.348,attentional_competition_task,2022.2.4,143.97749333391073,
positions.xlsx,positions_test.xlsx,positions_test_new.xlsx,stimuli.xlsx,stimuli_new.xlsx,stimuli/Social3.png,stimuli/Social4.png,stimuli/Nonsocial3.png,stimuli/Nonsocial4.png,stimuli/Social1.png,stimuli/Social2.png,stimuli/Nonsocial1.png,stimuli/Nonsocial2.png,cs_neg_s,"(-0.7, -0.5)",,,,,,,,,0,0,0,0,,,,,,,,,,,,,0,5,5,1,,,,,,,,,,,,,,,,,,,,,,,,,,,,,,,,,,653.925207399996,36,none,0,,,656.9390027000336,,,,,,,,,,,,,,,,,,,,,,19,C,2024-04-29_16h13.36.348,attentional_competition_task,2022.2.4,143.97749333391073,
positions.xlsx,positions_test.xlsx,positions_test_new.xlsx,stimuli.xlsx,stimuli_new.xlsx,stimuli/Social3.png,stimuli/Social4.png,stimuli/Nonsocial3.png,stimuli/Nonsocial4.png,stimuli/Social1.png,stimuli/Social2.png,stimuli/Nonsocial1.png,stimuli/Nonsocial2.png,cs_neg_s,"(0.7, -0.5)",,,,,,,,,0,0,0,0,,,,,,,,,,,,,0,6,6,3,,,,,,,,,,,,,,,,,,,,,,,,,,,,,,,,,,664.4734788000351,36,none,0,,,667.4802889000275,,,,,,,,,,,,,,,,,,,,,,19,C,2024-04-29_16h13.36.348,attentional_competition_task,2022.2.4,143.97749333391073,
positions.xlsx,positions_test.xlsx,positions_test_new.xlsx,stimuli.xlsx,stimuli_new.xlsx,stimuli/Social3.png,stimuli/Social4.png,stimuli/Nonsocial3.png,stimuli/Nonsocial4.png,stimuli/Social1.png,stimuli/Social2.png,stimuli/Nonsocial1.png,stimuli/Nonsocial2.png,cs_pos_ns,"(-0.7, 0.5)",,,,,,,,,0,0,0,0,,,,,,,,,,,,,0,7,7,12,,,,,,,,,,,,,,,,,,,,,,,,,,,,,,,,,,674.8341527000302,39,reward,1,0.514217899995856,0.5142218000255525,675.3549877000041,,,,,,,,,,,,,,,,,,,,,,19,C,2024-04-29_16h13.36.348,attentional_competition_task,2022.2.4,143.97749333391073,
positions.xlsx,positions_test.xlsx,positions_test_new.xlsx,stimuli.xlsx,stimuli_new.xlsx,stimuli/Social3.png,stimuli/Social4.png,stimuli/Nonsocial3.png,stimuli/Nonsocial4.png,stimuli/Social1.png,stimuli/Social2.png,stimuli/Nonsocial1.png,stimuli/Nonsocial2.png,cs_neg_ns,"(0.7, 0.5)",,,,,,,,,0,0,0,0,,,,,,,,,,,,,0,8,8,10,,,,,,,,,,,,,,,,,,,,,,,,,,,,,,,,,,683.0490997000015,39,none,0,,,686.0629334000405,,,,,,,,,,,,,,,,,,,,,,19,C,2024-04-29_16h13.36.348,attentional_competition_task,2022.2.4,143.97749333391073,
positions.xlsx,positions_test.xlsx,positions_test_new.xlsx,stimuli.xlsx,stimuli_new.xlsx,stimuli/Social3.png,stimuli/Social4.png,stimuli/Nonsocial3.png,stimuli/Nonsocial4.png,stimuli/Social1.png,stimuli/Social2.png,stimuli/Nonsocial1.png,stimuli/Nonsocial2.png,cs_neg_s,"(-0.7, 0.5)",,,,,,,,,0,0,0,0,,,,,,,,,,,,,0,9,9,0,,,,,,,,,,,,,,,,,,,,,,,,,,,,,,,,,,693.7222952000448,39,none,0,,,696.7291369999875,,,,,,,,,,,,,,,,,,,,,,19,C,2024-04-29_16h13.36.348,attentional_competition_task,2022.2.4,143.97749333391073,
positions.xlsx,positions_test.xlsx,positions_test_new.xlsx,stimuli.xlsx,stimuli_new.xlsx,stimuli/Social3.png,stimuli/Social4.png,stimuli/Nonsocial3.png,stimuli/Nonsocial4.png,stimuli/Social1.png,stimuli/Social2.png,stimuli/Nonsocial1.png,stimuli/Nonsocial2.png,cs_neg_s,"(0.7, 0.5)",,,,,,,,,0,0,0,0,,,,,,,,,,,,,0,10,10,2,,,,,,,,,,,,,,,,,,,,,,,,,,,,,,,,,,704.6038850999903,39,none,0,,,707.6106616000179,,,,,,,,,,,,,,,,,,,,,,19,C,2024-04-29_16h13.36.348,attentional_competition_task,2022.2.4,143.97749333391073,
positions.xlsx,positions_test.xlsx,positions_test_new.xlsx,stimuli.xlsx,stimuli_new.xlsx,stimuli/Social3.png,stimuli/Social4.png,stimuli/Nonsocial3.png,stimuli/Nonsocial4.png,stimuli/Social1.png,stimuli/Social2.png,stimuli/Nonsocial1.png,stimuli/Nonsocial2.png,cs_pos_s,"(0.7, -0.5)",,,,,,,,,0,0,0,0,,,,,,,,,,,,,0,11,11,7,,,,,,,,,,,,,,,,,,,,,,,,,,,,,,,,,,715.3811610999983,42,reward,1,0.40283269999781623,0.40283669997006655,715.7908957999898,,,,,,,,,,,,,,,,,,,,,,19,C,2024-04-29_16h13.36.348,attentional_competition_task,2022.2.4,143.97749333391073,
positions.xlsx,positions_test.xlsx,positions_test_new.xlsx,stimuli.xlsx,stimuli_new.xlsx,stimuli/Social3.png,stimuli/Social4.png,stimuli/Nonsocial3.png,stimuli/Nonsocial4.png,stimuli/Social1.png,stimuli/Social2.png,stimuli/Nonsocial1.png,stimuli/Nonsocial2.png,cs_pos_ns,"(0.7, -0.5)",,,,,,,,,0,0,0,0,,,,,,,,,,,,,0,12,12,15,,,,,,,,,,,,,,,,,,,,,,,,,,,,,,,,,,722.346193000034,45,reward,1,0.757418199966196,0.7574218999943696,723.1101132000331,,,,,,,,,,,,,,,,,,,,,,19,C,2024-04-29_16h13.36.348,attentional_competition_task,2022.2.4,143.97749333391073,
positions.xlsx,positions_test.xlsx,positions_test_new.xlsx,stimuli.xlsx,stimuli_new.xlsx,stimuli/Social3.png,stimuli/Social4.png,stimuli/Nonsocial3.png,stimuli/Nonsocial4.png,stimuli/Social1.png,stimuli/Social2.png,stimuli/Nonsocial1.png,stimuli/Nonsocial2.png,cs_neg_ns,"(0.7, -0.5)",,,,,,,,,0,0,0,0,,,,,,,,,,,,,0,13,13,11,,,,,,,,,,,,,,,,,,,,,,,,,,,,,,,,,,730.7069492000155,42,loss,1,0.6668072000029497,0.666810299968347,731.3805891000084,,,,,,,,,,,,,,,,,,,,,,19,C,2024-04-29_16h13.36.348,attentional_competition_task,2022.2.4,143.97749333391073,
positions.xlsx,positions_test.xlsx,positions_test_new.xlsx,stimuli.xlsx,stimuli_new.xlsx,stimuli/Social3.png,stimuli/Social4.png,stimuli/Nonsocial3.png,stimuli/Nonsocial4.png,stimuli/Social1.png,stimuli/Social2.png,stimuli/Nonsocial1.png,stimuli/Nonsocial2.png,cs_neg_ns,"(-0.7, 0.5)",,,,,,,,,0,0,0,0,,,,,,,,,,,,,0,14,14,8,,,,,,,,,,,,,,,,,,,,,,,,,,,,,,,,,,738.6858153000358,39,loss,1,0.250083299994003,0.25008689996320754,738.9427681000088,,,,,,,,,,,,,,,,,,,,,,19,C,2024-04-29_16h13.36.348,attentional_competition_task,2022.2.4,143.97749333391073,
positions.xlsx,positions_test.xlsx,positions_test_new.xlsx,stimuli.xlsx,stimuli_new.xlsx,stimuli/Social3.png,stimuli/Social4.png,stimuli/Nonsocial3.png,stimuli/Nonsocial4.png,stimuli/Social1.png,stimuli/Social2.png,stimuli/Nonsocial1.png,stimuli/Nonsocial2.png,cs_pos_s,"(-0.7, -0.5)",,,,,,,,,0,0,0,0,,,,,,,,,,,,,0,15,15,5,,,,,,,,,,,,,,,,,,,,,,,,,,,,,,,,,,746.9077726000105,42,reward,1,0.562056599999778,0.5620603999705054,747.4771361000021,,,,,,,,,,,,,,,,,,,,,,19,C,2024-04-29_16h13.36.348,attentional_competition_task,2022.2.4,143.97749333391073,
positions.xlsx,positions_test.xlsx,positions_test_new.xlsx,stimuli.xlsx,stimuli_new.xlsx,stimuli/Social3.png,stimuli/Social4.png,stimuli/Nonsocial3.png,stimuli/Nonsocial4.png,stimuli/Social1.png,stimuli/Social2.png,stimuli/Nonsocial1.png,stimuli/Nonsocial2.png,cs_pos_ns,"(0.7, 0.5)",,,,,,,,,0,0,0,0,,,,,,,,,,,,,1,0,16,14,,,,,,,,,,,,,,,,,,,,,,,,,,,,,,,,,,754.4976989999996,45,reward,1,0.9101916999788955,0.9101957000093535,755.4143695000093,,,,,,,,,,,,,,,,,,,,,,19,C,2024-04-29_16h13.36.348,attentional_competition_task,2022.2.4,143.97749333391073,
positions.xlsx,positions_test.xlsx,positions_test_new.xlsx,stimuli.xlsx,stimuli_new.xlsx,stimuli/Social3.png,stimuli/Social4.png,stimuli/Nonsocial3.png,stimuli/Nonsocial4.png,stimuli/Social1.png,stimuli/Social2.png,stimuli/Nonsocial1.png,stimuli/Nonsocial2.png,cs_pos_ns,"(-0.7, -0.5)",,,,,,,,,0,0,0,0,,,,,,,,,,,,,1,1,17,13,,,,,,,,,,,,,,,,,,,,,,,,,,,,,,,,,,763.1779744999949,48,reward,1,0.8748687999905087,0.874872200016398,764.0598553000018,,,,,,,,,,,,,,,,,,,,,,19,C,2024-04-29_16h13.36.348,attentional_competition_task,2022.2.4,143.97749333391073,
positions.xlsx,positions_test.xlsx,positions_test_new.xlsx,stimuli.xlsx,stimuli_new.xlsx,stimuli/Social3.png,stimuli/Social4.png,stimuli/Nonsocial3.png,stimuli/Nonsocial4.png,stimuli/Social1.png,stimuli/Social2.png,stimuli/Nonsocial1.png,stimuli/Nonsocial2.png,cs_neg_ns,"(0.7, 0.5)",,,,,,,,,0,0,0,0,,,,,,,,,,,,,1,2,18,10,,,,,,,,,,,,,,,,,,,,,,,,,,,,,,,,,,772.1359133000369,45,loss,1,0.23614150000503287,0.2361454000347294,772.3789600000018,,,,,,,,,,,,,,,,,,,,,,19,C,2024-04-29_16h13.36.348,attentional_competition_task,2022.2.4,143.97749333391073,
positions.xlsx,positions_test.xlsx,positions_test_new.xlsx,stimuli.xlsx,stimuli_new.xlsx,stimuli/Social3.png,stimuli/Social4.png,stimuli/Nonsocial3.png,stimuli/Nonsocial4.png,stimuli/Social1.png,stimuli/Social2.png,stimuli/Nonsocial1.png,stimuli/Nonsocial2.png,cs_pos_s,"(0.7, -0.5)",,,,,,,,,0,0,0,0,,,,,,,,,,,,,1,3,19,7,,,,,,,,,,,,,,,,,,,,,,,,,,,,,,,,,,779.343973400013,48,reward,1,0.6182580000022426,0.6182616999722086,779.9689352000132,,,,,,,,,,,,,,,,,,,,,,19,C,2024-04-29_16h13.36.348,attentional_competition_task,2022.2.4,143.97749333391073,
positions.xlsx,positions_test.xlsx,positions_test_new.xlsx,stimuli.xlsx,stimuli_new.xlsx,stimuli/Social3.png,stimuli/Social4.png,stimuli/Nonsocial3.png,stimuli/Nonsocial4.png,stimuli/Social1.png,stimuli/Social2.png,stimuli/Nonsocial1.png,stimuli/Nonsocial2.png,cs_neg_s,"(-0.7, 0.5)",,,,,,,,,0,0,0,0,,,,,,,,,,,,,1,4,20,0,,,,,,,,,,,,,,,,,,,,,,,,,,,,,,,,,,787.9825206000241,48,none,0,,,790.9962926000007,,,,,,,,,,,,,,,,,,,,,,19,C,2024-04-29_16h13.36.348,attentional_competition_task,2022.2.4,143.97749333391073,
positions.xlsx,positions_test.xlsx,positions_test_new.xlsx,stimuli.xlsx,stimuli_new.xlsx,stimuli/Social3.png,stimuli/Social4.png,stimuli/Nonsocial3.png,stimuli/Nonsocial4.png,stimuli/Social1.png,stimuli/Social2.png,stimuli/Nonsocial1.png,stimuli/Nonsocial2.png,cs_neg_s,"(0.7, 0.5)",,,,,,,,,0,0,0,0,,,,,,,,,,,,,1,5,21,2,,,,,,,,,,,,,,,,,,,,,,,,,,,,,,,,,,798.2251737000188,48,none,0,,,801.2319963999907,,,,,,,,,,,,,,,,,,,,,,19,C,2024-04-29_16h13.36.348,attentional_competition_task,2022.2.4,143.97749333391073,
positions.xlsx,positions_test.xlsx,positions_test_new.xlsx,stimuli.xlsx,stimuli_new.xlsx,stimuli/Social3.png,stimuli/Social4.png,stimuli/Nonsocial3.png,stimuli/Nonsocial4.png,stimuli/Social1.png,stimuli/Social2.png,stimuli/Nonsocial1.png,stimuli/Nonsocial2.png,cs_neg_ns,"(-0.7, 0.5)",,,,,,,,,0,0,0,0,,,,,,,,,,,,,1,6,22,8,,,,,,,,,,,,,,,,,,,,,,,,,,,,,,,,,,808.6066651000292,45,loss,1,0.5904535999870859,0.5974311999743804,809.2108574000304,,,,,,,,,,,,,,,,,,,,,,19,C,2024-04-29_16h13.36.348,attentional_competition_task,2022.2.4,143.97749333391073,
positions.xlsx,positions_test.xlsx,positions_test_new.xlsx,stimuli.xlsx,stimuli_new.xlsx,stimuli/Social3.png,stimuli/Social4.png,stimuli/Nonsocial3.png,stimuli/Nonsocial4.png,stimuli/Social1.png,stimuli/Social2.png,stimuli/Nonsocial1.png,stimuli/Nonsocial2.png,cs_neg_s,"(0.7, -0.5)",,,,,,,,,0,0,0,0,,,,,,,,,,,,,1,7,23,3,,,,,,,,,,,,,,,,,,,,,,,,,,,,,,,,,,816.418888300017,45,none,0,,,819.4326922000037,,,,,,,,,,,,,,,,,,,,,,19,C,2024-04-29_16h13.36.348,attentional_competition_task,2022.2.4,143.97749333391073,
positions.xlsx,positions_test.xlsx,positions_test_new.xlsx,stimuli.xlsx,stimuli_new.xlsx,stimuli/Social3.png,stimuli/Social4.png,stimuli/Nonsocial3.png,stimuli/Nonsocial4.png,stimuli/Social1.png,stimuli/Social2.png,stimuli/Nonsocial1.png,stimuli/Nonsocial2.png,cs_pos_s,"(-0.7, 0.5)",,,,,,,,,0,0,0,0,,,,,,,,,,,,,1,8,24,4,,,,,,,,,,,,,,,,,,,,,,,,,,,,,,,,,,827.5851135000121,48,reward,1,0.5209700000123121,0.5209733999799937,828.1128507000394,,,,,,,,,,,,,,,,,,,,,,19,C,2024-04-29_16h13.36.348,attentional_competition_task,2022.2.4,143.97749333391073,
positions.xlsx,positions_test.xlsx,positions_test_new.xlsx,stimuli.xlsx,stimuli_new.xlsx,stimuli/Social3.png,stimuli/Social4.png,stimuli/Nonsocial3.png,stimuli/Nonsocial4.png,stimuli/Social1.png,stimuli/Social2.png,stimuli/Nonsocial1.png,stimuli/Nonsocial2.png,cs_neg_s,"(-0.7, -0.5)",,,,,,,,,0,0,0,0,,,,,,,,,,,,,1,9,25,1,,,,,,,,,,,,,,,,,,,,,,,,,,,,,,,,,,835.6681470000185,48,none,0,,,838.6749653000152,,,,,,,,,,,,,,,,,,,,,,19,C,2024-04-29_16h13.36.348,attentional_competition_task,2022.2.4,143.97749333391073,
positions.xlsx,positions_test.xlsx,positions_test_new.xlsx,stimuli.xlsx,stimuli_new.xlsx,stimuli/Social3.png,stimuli/Social4.png,stimuli/Nonsocial3.png,stimuli/Nonsocial4.png,stimuli/Social1.png,stimuli/Social2.png,stimuli/Nonsocial1.png,stimuli/Nonsocial2.png,cs_pos_ns,"(0.7, -0.5)",,,,,,,,,0,0,0,0,,,,,,,,,,,,,1,10,26,15,,,,,,,,,,,,,,,,,,,,,,,,,,,,,,,,,,845.355280400021,51,reward,1,0.5143862999975681,0.5143900000257418,845.876099999994,,,,,,,,,,,,,,,,,,,,,,19,C,2024-04-29_16h13.36.348,attentional_competition_task,2022.2.4,143.97749333391073,
positions.xlsx,positions_test.xlsx,positions_test_new.xlsx,stimuli.xlsx,stimuli_new.xlsx,stimuli/Social3.png,stimuli/Social4.png,stimuli/Nonsocial3.png,stimuli/Nonsocial4.png,stimuli/Social1.png,stimuli/Social2.png,stimuli/Nonsocial1.png,stimuli/Nonsocial2.png,cs_neg_ns,"(-0.7, -0.5)",,,,,,,,,0,0,0,0,,,,,,,,,,,,,1,11,27,9,,,,,,,,,,,,,,,,,,,,,,,,,,,,,,,,,,852.861974200001,48,loss,1,0.8542526000528596,0.8542561000213027,853.723013800045,,,,,,,,,,,,,,,,,,,,,,19,C,2024-04-29_16h13.36.348,attentional_competition_task,2022.2.4,143.97749333391073,
positions.xlsx,positions_test.xlsx,positions_test_new.xlsx,stimuli.xlsx,stimuli_new.xlsx,stimuli/Social3.png,stimuli/Social4.png,stimuli/Nonsocial3.png,stimuli/Nonsocial4.png,stimuli/Social1.png,stimuli/Social2.png,stimuli/Nonsocial1.png,stimuli/Nonsocial2.png,cs_pos_ns,"(-0.7, 0.5)",,,,,,,,,0,0,0,0,,,,,,,,,,,,,1,12,28,12,,,,,,,,,,,,,,,,,,,,,,,,,,,,,,,,,,860.861618200026,51,reward,1,0.4722353999968618,0.47223890002351254,861.3407785000163,,,,,,,,,,,,,,,,,,,,,,19,C,2024-04-29_16h13.36.348,attentional_competition_task,2022.2.4,143.97749333391073,
positions.xlsx,positions_test.xlsx,positions_test_new.xlsx,stimuli.xlsx,stimuli_new.xlsx,stimuli/Social3.png,stimuli/Social4.png,stimuli/Nonsocial3.png,stimuli/Nonsocial4.png,stimuli/Social1.png,stimuli/Social2.png,stimuli/Nonsocial1.png,stimuli/Nonsocial2.png,cs_pos_s,"(-0.7, -0.5)",,,,,,,,,0,0,0,0,,,,,,,,,,,,,1,13,29,5,,,,,,,,,,,,,,,,,,,,,,,,,,,,,,,,,,869.1251579000382,54,reward,1,0.542008199961856,0.5420117999892682,869.673768800043,,,,,,,,,,,,,,,,,,,,,,19,C,2024-04-29_16h13.36.348,attentional_competition_task,2022.2.4,143.97749333391073,
positions.xlsx,positions_test.xlsx,positions_test_new.xlsx,stimuli.xlsx,stimuli_new.xlsx,stimuli/Social3.png,stimuli/Social4.png,stimuli/Nonsocial3.png,stimuli/Nonsocial4.png,stimuli/Social1.png,stimuli/Social2.png,stimuli/Nonsocial1.png,stimuli/Nonsocial2.png,cs_neg_ns,"(0.7, -0.5)",,,,,,,,,0,0,0,0,,,,,,,,,,,,,1,14,30,11,,,,,,,,,,,,,,,,,,,,,,,,,,,,,,,,,,876.9929125999915,51,loss,1,0.8752746999962255,0.8752785000251606,877.87484579999,,,,,,,,,,,,,,,,,,,,,,19,C,2024-04-29_16h13.36.348,attentional_competition_task,2022.2.4,143.97749333391073,
positions.xlsx,positions_test.xlsx,positions_test_new.xlsx,stimuli.xlsx,stimuli_new.xlsx,stimuli/Social3.png,stimuli/Social4.png,stimuli/Nonsocial3.png,stimuli/Nonsocial4.png,stimuli/Social1.png,stimuli/Social2.png,stimuli/Nonsocial1.png,stimuli/Nonsocial2.png,cs_pos_s,"(0.7, 0.5)",,,,,,,,,0,0,0,0,,,,,,,,,,,,,1,15,31,6,,,,,,,,,,,,,,,,,,,,,,,,,,,,,,,,,,885.0481722000404,54,reward,1,0.4654890999663621,0.46549259999301285,885.5204006000422,,,,,,,,,,,,,,,,,,,,,,19,C,2024-04-29_16h13.36.348,attentional_competition_task,2022.2.4,143.97749333391073,
positions.xlsx,positions_test.xlsx,positions_test_new.xlsx,stimuli.xlsx,stimuli_new.xlsx,stimuli/Social3.png,stimuli/Social4.png,stimuli/Nonsocial3.png,stimuli/Nonsocial4.png,stimuli/Social1.png,stimuli/Social2.png,stimuli/Nonsocial1.png,stimuli/Nonsocial2.png,cs_pos_ns,,,,,,,,,,0,0,0,0,,,,,,,,,,,,,,,,,0,0,0,3,,,,,,,,,,,,,,,,,,,,,,,890.9160064000171,10.0,6.864910900010727,,,,,,,,,,,,,,,,,,,,,,,,,,,,,,,,,19,C,2024-04-29_16h13.36.348,attentional_competition_task,2022.2.4,143.97749333391073,
positions.xlsx,positions_test.xlsx,positions_test_new.xlsx,stimuli.xlsx,stimuli_new.xlsx,stimuli/Social3.png,stimuli/Social4.png,stimuli/Nonsocial3.png,stimuli/Nonsocial4.png,stimuli/Social1.png,stimuli/Social2.png,stimuli/Nonsocial1.png,stimuli/Nonsocial2.png,cs_neg_s,,,,,,,,,,0,0,0,0,,,,,,,,,,,,,,,,,0,1,1,0,,,,,,,,,,,,,,,,,,,,,,,899.2420737000066,2.0,5.550842199998442,,,,,,,,,,,,,,,,,,,,,,,,,,,,,,,,,19,C,2024-04-29_16h13.36.348,attentional_competition_task,2022.2.4,143.97749333391073,
positions.xlsx,positions_test.xlsx,positions_test_new.xlsx,stimuli.xlsx,stimuli_new.xlsx,stimuli/Social3.png,stimuli/Social4.png,stimuli/Nonsocial3.png,stimuli/Nonsocial4.png,stimuli/Social1.png,stimuli/Social2.png,stimuli/Nonsocial1.png,stimuli/Nonsocial2.png,cs_neg_ns,,,,,,,,,,0,0,0,0,,,,,,,,,,,,,,,,,0,2,2,1,,,,,,,,,,,,,,,,,,,,,,,906.3390164000448,1.0,1.7932374000083655,,,,,,,,,,,,,,,,,,,,,,,,,,,,,,,,,19,C,2024-04-29_16h13.36.348,attentional_competition_task,2022.2.4,143.97749333391073,
positions.xlsx,positions_test.xlsx,positions_test_new.xlsx,stimuli.xlsx,stimuli_new.xlsx,stimuli/Social3.png,stimuli/Social4.png,stimuli/Nonsocial3.png,stimuli/Nonsocial4.png,stimuli/Social1.png,stimuli/Social2.png,stimuli/Nonsocial1.png,stimuli/Nonsocial2.png,cs_pos_s,,,,,,,,,,0,0,0,0,,,,,,,,,,,,,,,,,0,3,3,2,,,,,,,,,,,,,,,,,,,,,,,908.5125982000027,9.0,2.001863300043624,,,,,,,,,,,,,,,,,,,,,,,,,,,,,,,,,19,C,2024-04-29_16h13.36.348,attentional_competition_task,2022.2.4,143.97749333391073,
positions.xlsx,positions_test.xlsx,positions_test_new.xlsx,stimuli.xlsx,stimuli_new.xlsx,stimuli/Social3.png,stimuli/Social4.png,stimuli/Nonsocial3.png,stimuli/Nonsocial4.png,stimuli/Social1.png,stimuli/Social2.png,stimuli/Nonsocial1.png,stimuli/Nonsocial2.png,,,"(-0.7, -0.5)",cs_neg_ns,"(-0.7, 0.5)",cs_pos_ns,"(0.7, -0.5)",cs_neg_s,"(0.7, 0.5)",cs_pos_s,0,0,0,0,,,,,,,,,,,,,,,,,,,,,0,0,0,17,,,,,,,,,,,,,,,,,,,,,,,,,,,60,reward,,,,,911.5749808000401,920.29678959999,920.29678959999,920.29678959999,920.29678959999,0,,,1,0.1967642999952659,0.981051699956879,0,,,1,1.044343999994453,1.044347499962896,921.3314597000135,921.3314597000135,921.3314597000135,921.3314597000135,19,C,2024-04-29_16h13.36.348,attentional_competition_task,2022.2.4,143.97749333391073,
positions.xlsx,positions_test.xlsx,positions_test_new.xlsx,stimuli.xlsx,stimuli_new.xlsx,stimuli/Social3.png,stimuli/Social4.png,stimuli/Nonsocial3.png,stimuli/Nonsocial4.png,stimuli/Social1.png,stimuli/Social2.png,stimuli/Nonsocial1.png,stimuli/Nonsocial2.png,,,"(-0.7, -0.5)",cs_pos_ns,"(-0.7, 0.5)",cs_neg_ns,"(0.7, -0.5)",cs_pos_s,"(0.7, 0.5)",cs_neg_s,0,0,0,0,,,,,,,,,,,,,,,,,,,,,0,1,1,20,,,,,,,,,,,,,,,,,,,,,,,,,,,66,reward,,,,,,928.4701300000306,928.4701300000306,928.4701300000306,928.4701300000306,0,,,0,,,1,0.029964999994263053,0.21799360000295565,0,,,929.9353391000186,929.9353391000186,929.9353391000186,929.9353391000186,19,C,2024-04-29_16h13.36.348,attentional_competition_task,2022.2.4,143.97749333391073,
positions.xlsx,positions_test.xlsx,positions_test_new.xlsx,stimuli.xlsx,stimuli_new.xlsx,stimuli/Social3.png,stimuli/Social4.png,stimuli/Nonsocial3.png,stimuli/Nonsocial4.png,stimuli/Social1.png,stimuli/Social2.png,stimuli/Nonsocial1.png,stimuli/Nonsocial2.png,,,"(-0.7, -0.5)",cs_pos_s,"(-0.7, 0.5)",cs_pos_ns,"(0.7, -0.5)",cs_neg_s,"(0.7, 0.5)",cs_neg_ns,0,0,0,0,,,,,,,,,,,,,,,,,,,,,0,2,2,10,,,,,,,,,,,,,,,,,,,,,,,,,,,60,loss,,,,,,937.608637700032,937.608637700032,937.608637700032,937.608637700032,0,,,0,,,1,0.2456254999851808,0.2456292999559082,0,,,937.8516879000235,937.8516879000235,937.8516879000235,937.8516879000235,19,C,2024-04-29_16h13.36.348,attentional_competition_task,2022.2.4,143.97749333391073,
positions.xlsx,positions_test.xlsx,positions_test_new.xlsx,stimuli.xlsx,stimuli_new.xlsx,stimuli/Social3.png,stimuli/Social4.png,stimuli/Nonsocial3.png,stimuli/Nonsocial4.png,stimuli/Social1.png,stimuli/Social2.png,stimuli/Nonsocial1.png,stimuli/Nonsocial2.png,,,"(-0.7, -0.5)",cs_neg_s,"(-0.7, 0.5)",cs_neg_ns,"(0.7, -0.5)",cs_pos_s,"(0.7, 0.5)",cs_pos_ns,0,0,0,0,,,,,,,,,,,,,,,,,,,,,0,3,3,2,,,,,,,,,,,,,,,,,,,,,,,,,,,69,reward,,,,,,946.7124667000026,946.7124667000026,946.7124667000026,946.7124667000026,0,,,0,,,0,,,0,,,947.2819529999979,947.2819529999979,947.2819529999979,947.2819529999979,19,C,2024-04-29_16h13.36.348,attentional_competition_task,2022.2.4,143.97749333391073,
positions.xlsx,positions_test.xlsx,positions_test_new.xlsx,stimuli.xlsx,stimuli_new.xlsx,stimuli/Social3.png,stimuli/Social4.png,stimuli/Nonsocial3.png,stimuli/Nonsocial4.png,stimuli/Social1.png,stimuli/Social2.png,stimuli/Nonsocial1.png,stimuli/Nonsocial2.png,,,"(-0.7, -0.5)",cs_neg_ns,"(-0.7, 0.5)",cs_neg_s,"(0.7, -0.5)",cs_pos_s,"(0.7, 0.5)",cs_pos_ns,0,0,0,0,,,,,,,,,,,,,,,,,,,,,0,4,4,14,,,,,,,,,,,,,,,,,,,,,,,,,,,66,loss,,,,,,955.3301725999918,955.3301725999918,955.3301725999918,955.3301725999918,0,,,0,,,0,,,0,,,955.9343350999989,955.9343350999989,955.9343350999989,955.9343350999989,19,C,2024-04-29_16h13.36.348,attentional_competition_task,2022.2.4,143.97749333391073,
positions.xlsx,positions_test.xlsx,positions_test_new.xlsx,stimuli.xlsx,stimuli_new.xlsx,stimuli/Social3.png,stimuli/Social4.png,stimuli/Nonsocial3.png,stimuli/Nonsocial4.png,stimuli/Social1.png,stimuli/Social2.png,stimuli/Nonsocial1.png,stimuli/Nonsocial2.png,,,"(-0.7, -0.5)",cs_pos_ns,"(-0.7, 0.5)",cs_neg_ns,"(0.7, -0.5)",cs_neg_s,"(0.7, 0.5)",cs_pos_s,0,0,0,0,,,,,,,,,,,,,,,,,,,,,0,5,5,21,,,,,,,,,,,,,,,,,,,,,,,,,,,72,reward,,,,,,963.0173457000055,963.0173457000055,963.0173457000055,963.0173457000055,1,0.6686232999782078,0.6686266999458894,0,,,0,,,1,0.029216599999926984,0.1839926999527961,964.1909479000024,964.1909479000024,964.1909479000024,964.1909479000024,19,C,2024-04-29_16h13.36.348,attentional_competition_task,2022.2.4,143.97749333391073,
positions.xlsx,positions_test.xlsx,positions_test_new.xlsx,stimuli.xlsx,stimuli_new.xlsx,stimuli/Social3.png,stimuli/Social4.png,stimuli/Nonsocial3.png,stimuli/Nonsocial4.png,stimuli/Social1.png,stimuli/Social2.png,stimuli/Nonsocial1.png,stimuli/Nonsocial2.png,,,"(-0.7, -0.5)",cs_pos_s,"(-0.7, 0.5)",cs_neg_s,"(0.7, -0.5)",cs_pos_ns,"(0.7, 0.5)",cs_neg_ns,0,0,0,0,,,,,,,,,,,,,,,,,,,,,0,6,6,7,,,,,,,,,,,,,,,,,,,,,,,,,,,72,reward,,,,,,971.6489865999902,971.6489865999902,971.6489865999902,971.6489865999902,0,,,0,,,1,0.41215010004816577,0.4121537000173703,0,,,972.0587422000244,972.0587422000244,972.0587422000244,972.0587422000244,19,C,2024-04-29_16h13.36.348,attentional_competition_task,2022.2.4,143.97749333391073,
positions.xlsx,positions_test.xlsx,positions_test_new.xlsx,stimuli.xlsx,stimuli_new.xlsx,stimuli/Social3.png,stimuli/Social4.png,stimuli/Nonsocial3.png,stimuli/Nonsocial4.png,stimuli/Social1.png,stimuli/Social2.png,stimuli/Nonsocial1.png,stimuli/Nonsocial2.png,,,"(-0.7, -0.5)",cs_neg_s,"(-0.7, 0.5)",cs_pos_ns,"(0.7, -0.5)",cs_neg_ns,"(0.7, 0.5)",cs_pos_s,0,0,0,0,,,,,,,,,,,,,,,,,,,,,0,7,7,5,,,,,,,,,,,,,,,,,,,,,,,,,,,72,reward,,,,,,980.586108700023,980.586108700023,980.586108700023,980.586108700023,0,,,0,,,0,,,1,0.1627394999959506,0.16274330002488568,980.745834900008,980.745834900008,980.745834900008,980.745834900008,19,C,2024-04-29_16h13.36.348,attentional_competition_task,2022.2.4,143.97749333391073,
positions.xlsx,positions_test.xlsx,positions_test_new.xlsx,stimuli.xlsx,stimuli_new.xlsx,stimuli/Social3.png,stimuli/Social4.png,stimuli/Nonsocial3.png,stimuli/Nonsocial4.png,stimuli/Social1.png,stimuli/Social2.png,stimuli/Nonsocial1.png,stimuli/Nonsocial2.png,,,"(-0.7, -0.5)",cs_neg_ns,"(-0.7, 0.5)",cs_pos_s,"(0.7, -0.5)",cs_neg_s,"(0.7, 0.5)",cs_pos_ns,0,0,0,0,,,,,,,,,,,,,,,,,,,,,0,8,8,12,,,,,,,,,,,,,,,,,,,,,,,,,,,81,reward,,,,,,990.2038367000059,990.2038367000059,990.2038367000059,990.2038367000059,0,,,0,,,0,,,1,0.02355780004290864,0.1358646000153385,990.8497139000101,990.8497139000101,990.8497139000101,990.8497139000101,19,C,2024-04-29_16h13.36.348,attentional_competition_task,2022.2.4,143.97749333391073,
positions.xlsx,positions_test.xlsx,positions_test_new.xlsx,stimuli.xlsx,stimuli_new.xlsx,stimuli/Social3.png,stimuli/Social4.png,stimuli/Nonsocial3.png,stimuli/Nonsocial4.png,stimuli/Social1.png,stimuli/Social2.png,stimuli/Nonsocial1.png,stimuli/Nonsocial2.png,,,"(-0.7, -0.5)",cs_pos_s,"(-0.7, 0.5)",cs_neg_s,"(0.7, -0.5)",cs_neg_ns,"(0.7, 0.5)",cs_pos_ns,0,0,0,0,,,,,,,,,,,,,,,,,,,,,0,9,9,6,,,,,,,,,,,,,,,,,,,,,,,,,,,90,reward,,,,,,999.3979193000123,999.3979193000123,999.3979193000123,999.3979193000123,0,,,0,,,0,,,1,0.025275500025600195,0.025279499997850507,999.3979193000123,999.3979193000123,999.3979193000123,999.3979193000123,19,C,2024-04-29_16h13.36.348,attentional_competition_task,2022.2.4,143.97749333391073,
positions.xlsx,positions_test.xlsx,positions_test_new.xlsx,stimuli.xlsx,stimuli_new.xlsx,stimuli/Social3.png,stimuli/Social4.png,stimuli/Nonsocial3.png,stimuli/Nonsocial4.png,stimuli/Social1.png,stimuli/Social2.png,stimuli/Nonsocial1.png,stimuli/Nonsocial2.png,,,"(-0.7, -0.5)",cs_neg_ns,"(-0.7, 0.5)",cs_pos_s,"(0.7, -0.5)",cs_pos_ns,"(0.7, 0.5)",cs_neg_s,0,0,0,0,,,,,,,,,,,,,,,,,,,,,0,10,10,13,,,,,,,,,,,,,,,,,,,,,,,,,,,99,reward,,,,,,1007.0504152000067,1007.0504152000067,1007.0504152000067,1007.0504152000067,0,,,0,,,0,,,0,,,1007.5920955000329,1007.5920955000329,1007.5920955000329,1007.5920955000329,19,C,2024-04-29_16h13.36.348,attentional_competition_task,2022.2.4,143.97749333391073,
positions.xlsx,positions_test.xlsx,positions_test_new.xlsx,stimuli.xlsx,stimuli_new.xlsx,stimuli/Social3.png,stimuli/Social4.png,stimuli/Nonsocial3.png,stimuli/Nonsocial4.png,stimuli/Social1.png,stimuli/Social2.png,stimuli/Nonsocial1.png,stimuli/Nonsocial2.png,,,"(-0.7, -0.5)",cs_pos_ns,"(-0.7, 0.5)",cs_pos_s,"(0.7, -0.5)",cs_neg_ns,"(0.7, 0.5)",cs_neg_s,0,0,0,0,,,,,,,,,,,,,,,,,,,,,0,11,11,18,,,,,,,,,,,,,,,,,,,,,,,,,,,108,reward,,,,,,1015.3208841999876,1015.3208841999876,1015.3208841999876,1015.3208841999876,0,,,0,,,0,,,0,,,1016.1819826000137,1016.1819826000137,1016.1819826000137,1016.1819826000137,19,C,2024-04-29_16h13.36.348,attentional_competition_task,2022.2.4,143.97749333391073,
positions.xlsx,positions_test.xlsx,positions_test_new.xlsx,stimuli.xlsx,stimuli_new.xlsx,stimuli/Social3.png,stimuli/Social4.png,stimuli/Nonsocial3.png,stimuli/Nonsocial4.png,stimuli/Social1.png,stimuli/Social2.png,stimuli/Nonsocial1.png,stimuli/Nonsocial2.png,,,"(-0.7, -0.5)",cs_neg_ns,"(-0.7, 0.5)",cs_neg_s,"(0.7, -0.5)",cs_pos_ns,"(0.7, 0.5)",cs_pos_s,0,0,0,0,,,,,,,,,,,,,,,,,,,,,0,12,12,15,,,,,,,,,,,,,,,,,,,,,,,,,,,117,reward,,,,,,1023.1955896000145,1023.1955896000145,1023.1955896000145,1023.1955896000145,0,,,0,,,0,,,0,,,1024.2163854000391,1024.2163854000391,1024.2163854000391,1024.2163854000391,19,C,2024-04-29_16h13.36.348,attentional_competition_task,2022.2.4,143.97749333391073,
positions.xlsx,positions_test.xlsx,positions_test_new.xlsx,stimuli.xlsx,stimuli_new.xlsx,stimuli/Social3.png,stimuli/Social4.png,stimuli/Nonsocial3.png,stimuli/Nonsocial4.png,stimuli/Social1.png,stimuli/Social2.png,stimuli/Nonsocial1.png,stimuli/Nonsocial2.png,,,"(-0.7, -0.5)",cs_pos_s,"(-0.7, 0.5)",cs_pos_ns,"(0.7, -0.5)",cs_neg_ns,"(0.7, 0.5)",cs_neg_s,0,0,0,0,,,,,,,,,,,,,,,,,,,,,0,13,13,11,,,,,,,,,,,,,,,,,,,,,,,,,,,123,reward,,,,,,1031.4521882000263,1031.4521882000263,1031.4521882000263,1031.4521882000263,0,,,0,,,0,,,0,,,1033.0146584000322,1033.0146584000322,1033.0146584000322,1033.0146584000322,19,C,2024-04-29_16h13.36.348,attentional_competition_task,2022.2.4,143.97749333391073,
positions.xlsx,positions_test.xlsx,positions_test_new.xlsx,stimuli.xlsx,stimuli_new.xlsx,stimuli/Social3.png,stimuli/Social4.png,stimuli/Nonsocial3.png,stimuli/Nonsocial4.png,stimuli/Social1.png,stimuli/Social2.png,stimuli/Nonsocial1.png,stimuli/Nonsocial2.png,,,"(-0.7, -0.5)",cs_neg_s,"(-0.7, 0.5)",cs_pos_s,"(0.7, -0.5)",cs_pos_ns,"(0.7, 0.5)",cs_neg_ns,0,0,0,0,,,,,,,,,,,,,,,,,,,,,0,14,14,1,,,,,,,,,,,,,,,,,,,,,,,,,,,120,loss,,,,,,1040.5073976000422,1040.5073976000422,1040.5073976000422,1040.5073976000422,1,0.03002159995958209,0.030025199986994267,0,,,0,,,0,,,1040.5073976000422,1040.5073976000422,1040.5073976000422,1040.5073976000422,19,C,2024-04-29_16h13.36.348,attentional_competition_task,2022.2.4,143.97749333391073,
positions.xlsx,positions_test.xlsx,positions_test_new.xlsx,stimuli.xlsx,stimuli_new.xlsx,stimuli/Social3.png,stimuli/Social4.png,stimuli/Nonsocial3.png,stimuli/Nonsocial4.png,stimuli/Social1.png,stimuli/Social2.png,stimuli/Nonsocial1.png,stimuli/Nonsocial2.png,,,"(-0.7, -0.5)",cs_pos_ns,"(-0.7, 0.5)",cs_neg_s,"(0.7, -0.5)",cs_pos_s,"(0.7, 0.5)",cs_neg_ns,0,0,0,0,,,,,,,,,,,,,,,,,,,,,0,15,15,22,,,,,,,,,,,,,,,,,,,,,,,,,,,123,reward,,,,,,1048.5071060000337,1048.5071060000337,1048.5071060000337,1048.5071060000337,1,0.08388570003444329,0.0838893000036478,0,,,0,,,0,,,1048.5904275000212,1048.5904275000212,1048.5904275000212,1048.5904275000212,19,C,2024-04-29_16h13.36.348,attentional_competition_task,2022.2.4,143.97749333391073,
positions.xlsx,positions_test.xlsx,positions_test_new.xlsx,stimuli.xlsx,stimuli_new.xlsx,stimuli/Social3.png,stimuli/Social4.png,stimuli/Nonsocial3.png,stimuli/Nonsocial4.png,stimuli/Social1.png,stimuli/Social2.png,stimuli/Nonsocial1.png,stimuli/Nonsocial2.png,,,"(-0.7, -0.5)",cs_neg_s,"(-0.7, 0.5)",cs_neg_ns,"(0.7, -0.5)",cs_pos_ns,"(0.7, 0.5)",cs_pos_s,0,0,0,0,,,,,,,,,,,,,,,,,,,,,0,16,16,3,,,,,,,,,,,,,,,,,,,,,,,,,,,132,reward,,,,,,1057.4025892000063,1057.4025892000063,1057.4025892000063,1057.4025892000063,0,,,0,,,1,0.029894100036472082,0.05790720001095906,0,,,1058.3470641000313,1058.3470641000313,1058.3470641000313,1058.3470641000313,19,C,2024-04-29_16h13.36.348,attentional_competition_task,2022.2.4,143.97749333391073,
positions.xlsx,positions_test.xlsx,positions_test_new.xlsx,stimuli.xlsx,stimuli_new.xlsx,stimuli/Social3.png,stimuli/Social4.png,stimuli/Nonsocial3.png,stimuli/Nonsocial4.png,stimuli/Social1.png,stimuli/Social2.png,stimuli/Nonsocial1.png,stimuli/Nonsocial2.png,,,"(-0.7, -0.5)",cs_pos_ns,"(-0.7, 0.5)",cs_neg_s,"(0.7, -0.5)",cs_neg_ns,"(0.7, 0.5)",cs_pos_s,0,0,0,0,,,,,,,,,,,,,,,,,,,,,0,17,17,23,,,,,,,,,,,,,,,,,,,,,,,,,,,135,reward,,,,,,1066.3050120000262,1066.3050120000262,1066.3050120000262,1066.3050120000262,1,0.099806800018996,0.10679930000333115,0,,,0,,,0,,,1066.409215599997,1066.409215599997,1066.409215599997,1066.409215599997,19,C,2024-04-29_16h13.36.348,attentional_competition_task,2022.2.4,143.97749333391073,
positions.xlsx,positions_test.xlsx,positions_test_new.xlsx,stimuli.xlsx,stimuli_new.xlsx,stimuli/Social3.png,stimuli/Social4.png,stimuli/Nonsocial3.png,stimuli/Nonsocial4.png,stimuli/Social1.png,stimuli/Social2.png,stimuli/Nonsocial1.png,stimuli/Nonsocial2.png,,,"(-0.7, -0.5)",cs_neg_ns,"(-0.7, 0.5)",cs_pos_ns,"(0.7, -0.5)",cs_pos_s,"(0.7, 0.5)",cs_neg_s,0,0,0,0,,,,,,,,,,,,,,,,,,,,,0,18,18,16,,,,,,,,,,,,,,,,,,,,,,,,,,,144,reward,,,,,,1075.1449348999886,1075.1449348999886,1075.1449348999886,1075.1449348999886,0,,,1,0.02500209998106584,0.10026279999874532,0,,,0,,,1075.749116800027,1075.749116800027,1075.749116800027,1075.749116800027,19,C,2024-04-29_16h13.36.348,attentional_competition_task,2022.2.4,143.97749333391073,
positions.xlsx,positions_test.xlsx,positions_test_new.xlsx,stimuli.xlsx,stimuli_new.xlsx,stimuli/Social3.png,stimuli/Social4.png,stimuli/Nonsocial3.png,stimuli/Nonsocial4.png,stimuli/Social1.png,stimuli/Social2.png,stimuli/Nonsocial1.png,stimuli/Nonsocial2.png,,,"(-0.7, -0.5)",cs_pos_ns,"(-0.7, 0.5)",cs_pos_s,"(0.7, -0.5)",cs_neg_s,"(0.7, 0.5)",cs_neg_ns,0,0,0,0,,,,,,,,,,,,,,,,,,,,,0,19,19,19,,,,,,,,,,,,,,,,,,,,,,,,,,,153,reward,,,,,,1083.2974295000313,1083.2974295000313,1083.2974295000313,1083.2974295000313,0,,,0,,,0,,,0,,,1084.1098943999968,1084.1098943999968,1084.1098943999968,1084.1098943999968,19,C,2024-04-29_16h13.36.348,attentional_competition_task,2022.2.4,143.97749333391073,
positions.xlsx,positions_test.xlsx,positions_test_new.xlsx,stimuli.xlsx,stimuli_new.xlsx,stimuli/Social3.png,stimuli/Social4.png,stimuli/Nonsocial3.png,stimuli/Nonsocial4.png,stimuli/Social1.png,stimuli/Social2.png,stimuli/Nonsocial1.png,stimuli/Nonsocial2.png,,,"(-0.7, -0.5)",cs_neg_s,"(-0.7, 0.5)",cs_pos_ns,"(0.7, -0.5)",cs_pos_s,"(0.7, 0.5)",cs_neg_ns,0,0,0,0,,,,,,,,,,,,,,,,,,,,,0,20,20,4,,,,,,,,,,,,,,,,,,,,,,,,,,,162,reward,,,,,,1092.3456618000055,1092.3456618000055,1092.3456618000055,1092.3456618000055,0,,,1,0.02405979996547103,0.197954099974595,0,,,0,,,1093.0609538000426,1093.0609538000426,1093.0609538000426,1093.0609538000426,19,C,2024-04-29_16h13.36.348,attentional_competition_task,2022.2.4,143.97749333391073,
positions.xlsx,positions_test.xlsx,positions_test_new.xlsx,stimuli.xlsx,stimuli_new.xlsx,stimuli/Social3.png,stimuli/Social4.png,stimuli/Nonsocial3.png,stimuli/Nonsocial4.png,stimuli/Social1.png,stimuli/Social2.png,stimuli/Nonsocial1.png,stimuli/Nonsocial2.png,,,"(-0.7, -0.5)",cs_neg_s,"(-0.7, 0.5)",cs_pos_s,"(0.7, -0.5)",cs_neg_ns,"(0.7, 0.5)",cs_pos_ns,0,0,0,0,,,,,,,,,,,,,,,,,,,,,0,21,21,0,,,,,,,,,,,,,,,,,,,,,,,,,,,171,reward,,,,,,1100.5189462000271,1100.5189462000271,1100.5189462000271,1100.5189462000271,0,,,0,,,0,,,0,,,1101.1925632000202,1101.1925632000202,1101.1925632000202,1101.1925632000202,19,C,2024-04-29_16h13.36.348,attentional_competition_task,2022.2.4,143.97749333391073,
positions.xlsx,positions_test.xlsx,positions_test_new.xlsx,stimuli.xlsx,stimuli_new.xlsx,stimuli/Social3.png,stimuli/Social4.png,stimuli/Nonsocial3.png,stimuli/Nonsocial4.png,stimuli/Social1.png,stimuli/Social2.png,stimuli/Nonsocial1.png,stimuli/Nonsocial2.png,,,"(-0.7, -0.5)",cs_pos_s,"(-0.7, 0.5)",cs_neg_ns,"(0.7, -0.5)",cs_pos_ns,"(0.7, 0.5)",cs_neg_s,0,0,0,0,,,,,,,,,,,,,,,,,,,,,0,22,22,9,,,,,,,,,,,,,,,,,,,,,,,,,,,180,reward,,,,,,1109.053372800001,1109.053372800001,1109.053372800001,1109.053372800001,0,,,0,,,0,,,0,,,1109.6574983000173,1109.6574983000173,1109.6574983000173,1109.6574983000173,19,C,2024-04-29_16h13.36.348,attentional_competition_task,2022.2.4,143.97749333391073,
positions.xlsx,positions_test.xlsx,positions_test_new.xlsx,stimuli.xlsx,stimuli_new.xlsx,stimuli/Social3.png,stimuli/Social4.png,stimuli/Nonsocial3.png,stimuli/Nonsocial4.png,stimuli/Social1.png,stimuli/Social2.png,stimuli/Nonsocial1.png,stimuli/Nonsocial2.png,,,"(-0.7, -0.5)",cs_pos_s,"(-0.7, 0.5)",cs_neg_ns,"(0.7, -0.5)",cs_neg_s,"(0.7, 0.5)",cs_pos_ns,0,0,0,0,,,,,,,,,,,,,,,,,,,,,0,23,23,8,,,,,,,,,,,,,,,,,,,,,,,,,,,189,reward,,,,,,1117.1849557000096,1117.1849557000096,1117.1849557000096,1117.1849557000096,0,,,0,,,0,,,0,,,1117.9557992999908,1117.9557992999908,1117.9557992999908,1117.9557992999908,19,C,2024-04-29_16h13.36.348,attentional_competition_task,2022.2.4,143.97749333391073,
positions.xlsx,positions_test.xlsx,positions_test_new.xlsx,stimuli.xlsx,stimuli_new.xlsx,stimuli/Social3.png,stimuli/Social4.png,stimuli/Nonsocial3.png,stimuli/Nonsocial4.png,stimuli/Social1.png,stimuli/Social2.png,stimuli/Nonsocial1.png,stimuli/Nonsocial2.png,,,"(-0.7, -0.5)",cs_neg_ns,"(-0.7, 0.5)",cs_pos_s,"(0.7, -0.5)",cs_neg_s,"(0.7, 0.5)",cs_pos_ns,0,0,0,0,,,,,,,,,,,,,,,,,,,,,1,0,24,12,,,,,,,,,,,,,,,,,,,,,,,,,,,198,reward,,,,,,1126.8512889000122,1126.8512889000122,1126.8512889000122,1126.8512889000122,0,,,0,,,0,,,1,0.026004399987868965,0.02600810001604259,1126.8512889000122,1126.8512889000122,1126.8512889000122,1126.8512889000122,19,C,2024-04-29_16h13.36.348,attentional_competition_task,2022.2.4,143.97749333391073,
positions.xlsx,positions_test.xlsx,positions_test_new.xlsx,stimuli.xlsx,stimuli_new.xlsx,stimuli/Social3.png,stimuli/Social4.png,stimuli/Nonsocial3.png,stimuli/Nonsocial4.png,stimuli/Social1.png,stimuli/Social2.png,stimuli/Nonsocial1.png,stimuli/Nonsocial2.png,,,"(-0.7, -0.5)",cs_neg_ns,"(-0.7, 0.5)",cs_pos_ns,"(0.7, -0.5)",cs_neg_s,"(0.7, 0.5)",cs_pos_s,0,0,0,0,,,,,,,,,,,,,,,,,,,,,1,1,25,17,,,,,,,,,,,,,,,,,,,,,,,,,,,207,reward,,,,,,1135.649543800042,1135.649543800042,1135.649543800042,1135.649543800042,0,,,1,0.026463799993507564,0.02646760002244264,0,,,0,,,1135.649543800042,1135.649543800042,1135.649543800042,1135.649543800042,19,C,2024-04-29_16h13.36.348,attentional_competition_task,2022.2.4,143.97749333391073,
positions.xlsx,positions_test.xlsx,positions_test_new.xlsx,stimuli.xlsx,stimuli_new.xlsx,stimuli/Social3.png,stimuli/Social4.png,stimuli/Nonsocial3.png,stimuli/Nonsocial4.png,stimuli/Social1.png,stimuli/Social2.png,stimuli/Nonsocial1.png,stimuli/Nonsocial2.png,,,"(-0.7, -0.5)",cs_pos_s,"(-0.7, 0.5)",cs_neg_ns,"(0.7, -0.5)",cs_pos_ns,"(0.7, 0.5)",cs_neg_s,0,0,0,0,,,,,,,,,,,,,,,,,,,,,1,2,26,9,,,,,,,,,,,,,,,,,,,,,,,,,,,216,reward,,,,,,1143.6283732000156,1143.6283732000156,1143.6283732000156,1143.6283732000156,0,,,0,,,0,,,0,,,1144.2603273999994,1144.2603273999994,1144.2603273999994,1144.2603273999994,19,C,2024-04-29_16h13.36.348,attentional_competition_task,2022.2.4,143.97749333391073,
positions.xlsx,positions_test.xlsx,positions_test_new.xlsx,stimuli.xlsx,stimuli_new.xlsx,stimuli/Social3.png,stimuli/Social4.png,stimuli/Nonsocial3.png,stimuli/Nonsocial4.png,stimuli/Social1.png,stimuli/Social2.png,stimuli/Nonsocial1.png,stimuli/Nonsocial2.png,,,"(-0.7, -0.5)",cs_neg_ns,"(-0.7, 0.5)",cs_pos_ns,"(0.7, -0.5)",cs_pos_s,"(0.7, 0.5)",cs_neg_s,0,0,0,0,,,,,,,,,,,,,,,,,,,,,1,3,27,16,,,,,,,,,,,,,,,,,,,,,,,,,,,225,reward,,,,,,1152.357204,1152.357204,1152.357204,1152.357204,0,,,1,0.023365899978671223,0.03913459996692836,0,,,0,,,1152.9544613999897,1152.9544613999897,1152.9544613999897,1152.9544613999897,19,C,2024-04-29_16h13.36.348,attentional_competition_task,2022.2.4,143.97749333391073,
positions.xlsx,positions_test.xlsx,positions_test_new.xlsx,stimuli.xlsx,stimuli_new.xlsx,stimuli/Social3.png,stimuli/Social4.png,stimuli/Nonsocial3.png,stimuli/Nonsocial4.png,stimuli/Social1.png,stimuli/Social2.png,stimuli/Nonsocial1.png,stimuli/Nonsocial2.png,,,"(-0.7, -0.5)",cs_neg_ns,"(-0.7, 0.5)",cs_pos_s,"(0.7, -0.5)",cs_pos_ns,"(0.7, 0.5)",cs_neg_s,0,0,0,0,,,,,,,,,,,,,,,,,,,,,1,4,28,13,,,,,,,,,,,,,,,,,,,,,,,,,,,234,reward,,,,,,1160.6416436000145,1160.6416436000145,1160.6416436000145,1160.6416436000145,0,,,0,,,1,0.023826599994208664,0.052077699976507574,0,,,1161.1971634000074,1161.1971634000074,1161.1971634000074,1161.1971634000074,19,C,2024-04-29_16h13.36.348,attentional_competition_task,2022.2.4,143.97749333391073,
positions.xlsx,positions_test.xlsx,positions_test_new.xlsx,stimuli.xlsx,stimuli_new.xlsx,stimuli/Social3.png,stimuli/Social4.png,stimuli/Nonsocial3.png,stimuli/Nonsocial4.png,stimuli/Social1.png,stimuli/Social2.png,stimuli/Nonsocial1.png,stimuli/Nonsocial2.png,,,"(-0.7, -0.5)",cs_neg_ns,"(-0.7, 0.5)",cs_neg_s,"(0.7, -0.5)",cs_pos_ns,"(0.7, 0.5)",cs_pos_s,0,0,0,0,,,,,,,,,,,,,,,,,,,,,1,5,29,15,,,,,,,,,,,,,,,,,,,,,,,,,,,243,reward,,,,,,1168.4677289000247,1168.4677289000247,1168.4677289000247,1168.4677289000247,0,,,0,,,0,,,0,,,1169.5024020000128,1169.5024020000128,1169.5024020000128,1169.5024020000128,19,C,2024-04-29_16h13.36.348,attentional_competition_task,2022.2.4,143.97749333391073,
positions.xlsx,positions_test.xlsx,positions_test_new.xlsx,stimuli.xlsx,stimuli_new.xlsx,stimuli/Social3.png,stimuli/Social4.png,stimuli/Nonsocial3.png,stimuli/Nonsocial4.png,stimuli/Social1.png,stimuli/Social2.png,stimuli/Nonsocial1.png,stimuli/Nonsocial2.png,,,"(-0.7, -0.5)",cs_pos_s,"(-0.7, 0.5)",cs_pos_ns,"(0.7, -0.5)",cs_neg_ns,"(0.7, 0.5)",cs_neg_s,0,0,0,0,,,,,,,,,,,,,,,,,,,,,1,6,30,11,,,,,,,,,,,,,,,,,,,,,,,,,,,240,loss,,,,,,1177.7034686999978,1177.7034686999978,1177.7034686999978,1177.7034686999978,0,,,0,,,0,,,0,,,1178.3909367999877,1178.3909367999877,1178.3909367999877,1178.3909367999877,19,C,2024-04-29_16h13.36.348,attentional_competition_task,2022.2.4,143.97749333391073,
positions.xlsx,positions_test.xlsx,positions_test_new.xlsx,stimuli.xlsx,stimuli_new.xlsx,stimuli/Social3.png,stimuli/Social4.png,stimuli/Nonsocial3.png,stimuli/Nonsocial4.png,stimuli/Social1.png,stimuli/Social2.png,stimuli/Nonsocial1.png,stimuli/Nonsocial2.png,,,"(-0.7, -0.5)",cs_neg_s,"(-0.7, 0.5)",cs_neg_ns,"(0.7, -0.5)",cs_pos_s,"(0.7, 0.5)",cs_pos_ns,0,0,0,0,,,,,,,,,,,,,,,,,,,,,1,7,31,2,,,,,,,,,,,,,,,,,,,,,,,,,,,249,reward,,,,,,1186.5850635000388,1186.5850635000388,1186.5850635000388,1186.5850635000388,0,,,0,,,0,,,1,0.023110600013751537,0.051991800020914525,1187.1475432000007,1187.1475432000007,1187.1475432000007,1187.1475432000007,19,C,2024-04-29_16h13.36.348,attentional_competition_task,2022.2.4,143.97749333391073,
positions.xlsx,positions_test.xlsx,positions_test_new.xlsx,stimuli.xlsx,stimuli_new.xlsx,stimuli/Social3.png,stimuli/Social4.png,stimuli/Nonsocial3.png,stimuli/Nonsocial4.png,stimuli/Social1.png,stimuli/Social2.png,stimuli/Nonsocial1.png,stimuli/Nonsocial2.png,,,"(-0.7, -0.5)",cs_neg_s,"(-0.7, 0.5)",cs_pos_ns,"(0.7, -0.5)",cs_neg_ns,"(0.7, 0.5)",cs_pos_s,0,0,0,0,,,,,,,,,,,,,,,,,,,,,1,8,32,5,,,,,,,,,,,,,,,,,,,,,,,,,,,252,reward,,,,,,1194.1403283000109,1194.1403283000109,1194.1403283000109,1194.1403283000109,0,,,1,0.3018702000263147,0.30187409999780357,0,,,0,,,1194.4528183999937,1194.4528183999937,1194.4528183999937,1194.4528183999937,19,C,2024-04-29_16h13.36.348,attentional_competition_task,2022.2.4,143.97749333391073,
positions.xlsx,positions_test.xlsx,positions_test_new.xlsx,stimuli.xlsx,stimuli_new.xlsx,stimuli/Social3.png,stimuli/Social4.png,stimuli/Nonsocial3.png,stimuli/Nonsocial4.png,stimuli/Social1.png,stimuli/Social2.png,stimuli/Nonsocial1.png,stimuli/Nonsocial2.png,,,"(-0.7, -0.5)",cs_neg_s,"(-0.7, 0.5)",cs_pos_s,"(0.7, -0.5)",cs_pos_ns,"(0.7, 0.5)",cs_neg_ns,0,0,0,0,,,,,,,,,,,,,,,,,,,,,1,9,33,1,,,,,,,,,,,,,,,,,,,,,,,,,,,261,reward,,,,,,1203.5080241000396,1203.5080241000396,1203.5080241000396,1203.5080241000396,0,,,0,,,1,0.026766400027554482,0.026772200013510883,0,,,1203.5080241000396,1203.5080241000396,1203.5080241000396,1203.5080241000396,19,C,2024-04-29_16h13.36.348,attentional_competition_task,2022.2.4,143.97749333391073,
positions.xlsx,positions_test.xlsx,positions_test_new.xlsx,stimuli.xlsx,stimuli_new.xlsx,stimuli/Social3.png,stimuli/Social4.png,stimuli/Nonsocial3.png,stimuli/Nonsocial4.png,stimuli/Social1.png,stimuli/Social2.png,stimuli/Nonsocial1.png,stimuli/Nonsocial2.png,,,"(-0.7, -0.5)",cs_pos_ns,"(-0.7, 0.5)",cs_neg_ns,"(0.7, -0.5)",cs_neg_s,"(0.7, 0.5)",cs_pos_s,0,0,0,0,,,,,,,,,,,,,,,,,,,,,1,10,34,21,,,,,,,,,,,,,,,,,,,,,,,,,,,264,reward,,,,,,1211.8619300000137,1211.8619300000137,1211.8619300000137,1211.8619300000137,1,0.022413300001062453,0.022417299973312765,0,,,0,,,0,,,1211.8619300000137,1211.8619300000137,1211.8619300000137,1211.8619300000137,19,C,2024-04-29_16h13.36.348,attentional_competition_task,2022.2.4,143.97749333391073,
positions.xlsx,positions_test.xlsx,positions_test_new.xlsx,stimuli.xlsx,stimuli_new.xlsx,stimuli/Social3.png,stimuli/Social4.png,stimuli/Nonsocial3.png,stimuli/Nonsocial4.png,stimuli/Social1.png,stimuli/Social2.png,stimuli/Nonsocial1.png,stimuli/Nonsocial2.png,,,"(-0.7, -0.5)",cs_pos_ns,"(-0.7, 0.5)",cs_neg_s,"(0.7, -0.5)",cs_pos_s,"(0.7, 0.5)",cs_neg_ns,0,0,0,0,,,,,,,,,,,,,,,,,,,,,1,11,35,22,,,,,,,,,,,,,,,,,,,,,,,,,,,267,loss,,,,,,1220.5837861000327,1220.5837861000327,1220.5837861000327,1220.5837861000327,0,,,1,0.023182199976872653,0.023185799946077168,0,,,0,,,1220.5837861000327,1220.5837861000327,1220.5837861000327,1220.5837861000327,19,C,2024-04-29_16h13.36.348,attentional_competition_task,2022.2.4,143.97749333391073,
positions.xlsx,positions_test.xlsx,positions_test_new.xlsx,stimuli.xlsx,stimuli_new.xlsx,stimuli/Social3.png,stimuli/Social4.png,stimuli/Nonsocial3.png,stimuli/Nonsocial4.png,stimuli/Social1.png,stimuli/Social2.png,stimuli/Nonsocial1.png,stimuli/Nonsocial2.png,,,"(-0.7, -0.5)",cs_neg_s,"(-0.7, 0.5)",cs_neg_ns,"(0.7, -0.5)",cs_pos_ns,"(0.7, 0.5)",cs_pos_s,0,0,0,0,,,,,,,,,,,,,,,,,,,,,1,12,36,3,,,,,,,,,,,,,,,,,,,,,,,,,,,276,reward,,,,,,1228.9653651000117,1228.9653651000117,1228.9653651000117,1228.9653651000117,0,,,0,,,1,0.02291439997497946,0.0932285999879241,0,,,1229.8333879000274,1229.8333879000274,1229.8333879000274,1229.8333879000274,19,C,2024-04-29_16h13.36.348,attentional_competition_task,2022.2.4,143.97749333391073,
positions.xlsx,positions_test.xlsx,positions_test_new.xlsx,stimuli.xlsx,stimuli_new.xlsx,stimuli/Social3.png,stimuli/Social4.png,stimuli/Nonsocial3.png,stimuli/Nonsocial4.png,stimuli/Social1.png,stimuli/Social2.png,stimuli/Nonsocial1.png,stimuli/Nonsocial2.png,,,"(-0.7, -0.5)",cs_pos_s,"(-0.7, 0.5)",cs_neg_s,"(0.7, -0.5)",cs_neg_ns,"(0.7, 0.5)",cs_pos_ns,0,0,0,0,,,,,,,,,,,,,,,,,,,,,1,13,37,6,,,,,,,,,,,,,,,,,,,,,,,,,,,285,reward,,,,,,1237.6178247000207,1237.6178247000207,1237.6178247000207,1237.6178247000207,0,,,0,,,0,,,1,0.02944090001983568,0.09341200004564598,1238.215011799999,1238.215011799999,1238.215011799999,1238.215011799999,19,C,2024-04-29_16h13.36.348,attentional_competition_task,2022.2.4,143.97749333391073,
positions.xlsx,positions_test.xlsx,positions_test_new.xlsx,stimuli.xlsx,stimuli_new.xlsx,stimuli/Social3.png,stimuli/Social4.png,stimuli/Nonsocial3.png,stimuli/Nonsocial4.png,stimuli/Social1.png,stimuli/Social2.png,stimuli/Nonsocial1.png,stimuli/Nonsocial2.png,,,"(-0.7, -0.5)",cs_pos_ns,"(-0.7, 0.5)",cs_pos_s,"(0.7, -0.5)",cs_neg_s,"(0.7, 0.5)",cs_neg_ns,0,0,0,0,,,,,,,,,,,,,,,,,,,,,1,14,38,19,,,,,,,,,,,,,,,,,,,,,,,,,,,294,reward,,,,,,1247.1868938000407,1247.1868938000407,1247.1868938000407,1247.1868938000407,0,,,0,,,0,,,0,,,1247.1868938000407,1247.1868938000407,1247.1868938000407,1247.1868938000407,19,C,2024-04-29_16h13.36.348,attentional_competition_task,2022.2.4,143.97749333391073,
positions.xlsx,positions_test.xlsx,positions_test_new.xlsx,stimuli.xlsx,stimuli_new.xlsx,stimuli/Social3.png,stimuli/Social4.png,stimuli/Nonsocial3.png,stimuli/Nonsocial4.png,stimuli/Social1.png,stimuli/Social2.png,stimuli/Nonsocial1.png,stimuli/Nonsocial2.png,,,"(-0.7, -0.5)",cs_neg_ns,"(-0.7, 0.5)",cs_neg_s,"(0.7, -0.5)",cs_pos_s,"(0.7, 0.5)",cs_pos_ns,0,0,0,0,,,,,,,,,,,,,,,,,,,,,1,15,39,14,,,,,,,,,,,,,,,,,,,,,,,,,,,303,reward,,,,,,1255.3602070999914,1255.3602070999914,1255.3602070999914,1255.3602070999914,0,,,0,,,0,,,1,0.025688799971248955,0.23310219997074455,1256.096264199994,1256.096264199994,1256.096264199994,1256.096264199994,19,C,2024-04-29_16h13.36.348,attentional_competition_task,2022.2.4,143.97749333391073,
positions.xlsx,positions_test.xlsx,positions_test_new.xlsx,stimuli.xlsx,stimuli_new.xlsx,stimuli/Social3.png,stimuli/Social4.png,stimuli/Nonsocial3.png,stimuli/Nonsocial4.png,stimuli/Social1.png,stimuli/Social2.png,stimuli/Nonsocial1.png,stimuli/Nonsocial2.png,,,"(-0.7, -0.5)",cs_pos_s,"(-0.7, 0.5)",cs_neg_ns,"(0.7, -0.5)",cs_neg_s,"(0.7, 0.5)",cs_pos_ns,0,0,0,0,,,,,,,,,,,,,,,,,,,,,1,16,40,8,,,,,,,,,,,,,,,,,,,,,,,,,,,312,reward,,,,,,1263.7626091000275,1263.7626091000275,1263.7626091000275,1263.7626091000275,0,,,0,,,0,,,1,0.02355919999536127,0.14315049996366724,1264.415421200043,1264.415421200043,1264.415421200043,1264.415421200043,19,C,2024-04-29_16h13.36.348,attentional_competition_task,2022.2.4,143.97749333391073,
positions.xlsx,positions_test.xlsx,positions_test_new.xlsx,stimuli.xlsx,stimuli_new.xlsx,stimuli/Social3.png,stimuli/Social4.png,stimuli/Nonsocial3.png,stimuli/Nonsocial4.png,stimuli/Social1.png,stimuli/Social2.png,stimuli/Nonsocial1.png,stimuli/Nonsocial2.png,,,"(-0.7, -0.5)",cs_neg_s,"(-0.7, 0.5)",cs_pos_s,"(0.7, -0.5)",cs_neg_ns,"(0.7, 0.5)",cs_pos_ns,0,0,0,0,,,,,,,,,,,,,,,,,,,,,1,17,41,0,,,,,,,,,,,,,,,,,,,,,,,,,,,321,reward,,,,,,1272.2206646000268,1272.2206646000268,1272.2206646000268,1272.2206646000268,0,,,0,,,0,,,1,0.024424900009762496,0.08778250002069399,1272.8178314000252,1272.8178314000252,1272.8178314000252,1272.8178314000252,19,C,2024-04-29_16h13.36.348,attentional_competition_task,2022.2.4,143.97749333391073,
positions.xlsx,positions_test.xlsx,positions_test_new.xlsx,stimuli.xlsx,stimuli_new.xlsx,stimuli/Social3.png,stimuli/Social4.png,stimuli/Nonsocial3.png,stimuli/Nonsocial4.png,stimuli/Social1.png,stimuli/Social2.png,stimuli/Nonsocial1.png,stimuli/Nonsocial2.png,,,"(-0.7, -0.5)",cs_neg_s,"(-0.7, 0.5)",cs_pos_ns,"(0.7, -0.5)",cs_pos_s,"(0.7, 0.5)",cs_neg_ns,0,0,0,0,,,,,,,,,,,,,,,,,,,,,1,18,42,4,,,,,,,,,,,,,,,,,,,,,,,,,,,330,reward,,,,,,1280.8452887000167,1280.8452887000167,1280.8452887000167,1280.8452887000167,0,,,1,0.02333079994423315,0.03871299995807931,0,,,0,,,1281.3869443000294,1281.3869443000294,1281.3869443000294,1281.3869443000294,19,C,2024-04-29_16h13.36.348,attentional_competition_task,2022.2.4,143.97749333391073,
positions.xlsx,positions_test.xlsx,positions_test_new.xlsx,stimuli.xlsx,stimuli_new.xlsx,stimuli/Social3.png,stimuli/Social4.png,stimuli/Nonsocial3.png,stimuli/Nonsocial4.png,stimuli/Social1.png,stimuli/Social2.png,stimuli/Nonsocial1.png,stimuli/Nonsocial2.png,,,"(-0.7, -0.5)",cs_pos_s,"(-0.7, 0.5)",cs_pos_ns,"(0.7, -0.5)",cs_neg_s,"(0.7, 0.5)",cs_neg_ns,0,0,0,0,,,,,,,,,,,,,,,,,,,,,1,19,43,10,,,,,,,,,,,,,,,,,,,,,,,,,,,336,reward,,,,,,1288.8728035000386,1288.8728035000386,1288.8728035000386,1288.8728035000386,0,,,1,0.6765181999653578,0.683603499957826,0,,,0,,,1289.5602209999925,1289.5602209999925,1289.5602209999925,1289.5602209999925,19,C,2024-04-29_16h13.36.348,attentional_competition_task,2022.2.4,143.97749333391073,
positions.xlsx,positions_test.xlsx,positions_test_new.xlsx,stimuli.xlsx,stimuli_new.xlsx,stimuli/Social3.png,stimuli/Social4.png,stimuli/Nonsocial3.png,stimuli/Nonsocial4.png,stimuli/Social1.png,stimuli/Social2.png,stimuli/Nonsocial1.png,stimuli/Nonsocial2.png,,,"(-0.7, -0.5)",cs_pos_ns,"(-0.7, 0.5)",cs_neg_ns,"(0.7, -0.5)",cs_pos_s,"(0.7, 0.5)",cs_neg_s,0,0,0,0,,,,,,,,,,,,,,,,,,,,,1,20,44,20,,,,,,,,,,,,,,,,,,,,,,,,,,,339,reward,,,,,,1297.226611900027,1297.226611900027,1297.226611900027,1297.226611900027,1,0.023774500004947186,0.02377839997643605,0,,,0,,,0,,,1297.226611900027,1297.226611900027,1297.226611900027,1297.226611900027,19,C,2024-04-29_16h13.36.348,attentional_competition_task,2022.2.4,143.97749333391073,
positions.xlsx,positions_test.xlsx,positions_test_new.xlsx,stimuli.xlsx,stimuli_new.xlsx,stimuli/Social3.png,stimuli/Social4.png,stimuli/Nonsocial3.png,stimuli/Nonsocial4.png,stimuli/Social1.png,stimuli/Social2.png,stimuli/Nonsocial1.png,stimuli/Nonsocial2.png,,,"(-0.7, -0.5)",cs_pos_s,"(-0.7, 0.5)",cs_neg_s,"(0.7, -0.5)",cs_pos_ns,"(0.7, 0.5)",cs_neg_ns,0,0,0,0,,,,,,,,,,,,,,,,,,,,,1,21,45,7,,,,,,,,,,,,,,,,,,,,,,,,,,,339,loss,,,,,,1304.6637916000327,1304.6637916000327,1304.6637916000327,1304.6637916000327,1,0.029985299974214286,0.12071619997732341,0,,,0,,,1,0.6769153000204824,0.6834534999798052,1305.3443147999933,1305.3443147999933,1305.3443147999933,1305.3443147999933,19,C,2024-04-29_16h13.36.348,attentional_competition_task,2022.2.4,143.97749333391073,
positions.xlsx,positions_test.xlsx,positions_test_new.xlsx,stimuli.xlsx,stimuli_new.xlsx,stimuli/Social3.png,stimuli/Social4.png,stimuli/Nonsocial3.png,stimuli/Nonsocial4.png,stimuli/Social1.png,stimuli/Social2.png,stimuli/Nonsocial1.png,stimuli/Nonsocial2.png,,,"(-0.7, -0.5)",cs_pos_ns,"(-0.7, 0.5)",cs_neg_s,"(0.7, -0.5)",cs_neg_ns,"(0.7, 0.5)",cs_pos_s,0,0,0,0,,,,,,,,,,,,,,,,,,,,,1,22,46,23,,,,,,,,,,,,,,,,,,,,,,,,,,,348,reward,,,,,,1314.0523435000214,1314.0523435000214,1314.0523435000214,1314.0523435000214,0,,,0,,,0,,,1,0.03436539997346699,0.1179824999999255,1314.7467395000276,1314.7467395000276,1314.7467395000276,1314.7467395000276,19,C,2024-04-29_16h13.36.348,attentional_competition_task,2022.2.4,143.97749333391073,
positions.xlsx,positions_test.xlsx,positions_test_new.xlsx,stimuli.xlsx,stimuli_new.xlsx,stimuli/Social3.png,stimuli/Social4.png,stimuli/Nonsocial3.png,stimuli/Nonsocial4.png,stimuli/Social1.png,stimuli/Social2.png,stimuli/Nonsocial1.png,stimuli/Nonsocial2.png,,,"(-0.7, -0.5)",cs_pos_ns,"(-0.7, 0.5)",cs_pos_s,"(0.7, -0.5)",cs_neg_ns,"(0.7, 0.5)",cs_neg_s,0,0,0,0,,,,,,,,,,,,,,,,,,,,,1,23,47,18,,,,,,,,,,,,,,,,,,,,,,,,,,,357,reward,,,,,,1322.7742046000203,1322.7742046000203,1322.7742046000203,1322.7742046000203,0,,,0,,,0,,,0,,,1323.6561368000112,1323.6561368000112,1323.6561368000112,1323.6561368000112,19,C,2024-04-29_16h13.36.348,attentional_competition_task,2022.2.4,143.97749333391073,
positions.xlsx,positions_test.xlsx,positions_test_new.xlsx,stimuli.xlsx,stimuli_new.xlsx,stimuli/Social3.png,stimuli/Social4.png,stimuli/Nonsocial3.png,stimuli/Nonsocial4.png,stimuli/Social1.png,stimuli/Social2.png,stimuli/Nonsocial1.png,stimuli/Nonsocial2.png,,,"(-0.7, -0.5)",cs_pos_s,"(-0.7, 0.5)",cs_pos_ns,"(0.7, -0.5)",cs_neg_s,"(0.7, 0.5)",cs_neg_ns_new,0,0,0,0,,,,,,,,,,,,,,,,,,,,,,,,,,,,,0,0,0,25,0,0,0,0,,,,,,,,,,,,,,,360,reward,,,,,,1329.5447916000267,1329.5447916000267,1329.5447916000267,1329.5447916000267,1,0.5371048000524752,0.537108900025487,0,,,0,,,0,,,1330.0864549000398,1330.0864549000398,1330.0864549000398,1330.0864549000398,19,C,2024-04-29_16h13.36.348,attentional_competition_task,2022.2.4,143.97749333391073,
positions.xlsx,positions_test.xlsx,positions_test_new.xlsx,stimuli.xlsx,stimuli_new.xlsx,stimuli/Social3.png,stimuli/Social4.png,stimuli/Nonsocial3.png,stimuli/Nonsocial4.png,stimuli/Social1.png,stimuli/Social2.png,stimuli/Nonsocial1.png,stimuli/Nonsocial2.png,,,"(-0.7, -0.5)",cs_pos_s,"(-0.7, 0.5)",cs_pos_ns,"(0.7, -0.5)",cs_neg_s,"(0.7, 0.5)",cs_neg_ns_new,0,0,0,0,,,,,,,,,,,,,,,,,,,,,,,,,,,,,0,0,0,25,1,0,1,0,,,,,,,,,,,,,,,363,reward,,,,,,1330.586436100013,1330.586436100013,1330.586436100013,1330.586436100013,0,,,1,0.5084700000006706,0.5084737000288442,0,,,0,,,1331.1003268000204,1331.1003268000204,1331.1003268000204,1331.1003268000204,19,C,2024-04-29_16h13.36.348,attentional_competition_task,2022.2.4,143.97749333391073,
positions.xlsx,positions_test.xlsx,positions_test_new.xlsx,stimuli.xlsx,stimuli_new.xlsx,stimuli/Social3.png,stimuli/Social4.png,stimuli/Nonsocial3.png,stimuli/Nonsocial4.png,stimuli/Social1.png,stimuli/Social2.png,stimuli/Nonsocial1.png,stimuli/Nonsocial2.png,,,"(-0.7, -0.5)",cs_pos_s,"(-0.7, 0.5)",cs_pos_ns,"(0.7, -0.5)",cs_neg_s,"(0.7, 0.5)",cs_neg_ns_new,0,0,0,0,,,,,,,,,,,,,,,,,,,,,,,,,,,,,0,0,0,25,,,,,,,,,,,,,,,,,,,,,,,,,,,,,,,,,,,,,,,,,,,,,,19,C,2024-04-29_16h13.36.348,attentional_competition_task,2022.2.4,143.97749333391073,
positions.xlsx,positions_test.xlsx,positions_test_new.xlsx,stimuli.xlsx,stimuli_new.xlsx,stimuli/Social3.png,stimuli/Social4.png,stimuli/Nonsocial3.png,stimuli/Nonsocial4.png,stimuli/Social1.png,stimuli/Social2.png,stimuli/Nonsocial1.png,stimuli/Nonsocial2.png,,,"(-0.7, -0.5)",cs_neg_ns_new,"(-0.7, 0.5)",cs_pos_ns,"(0.7, -0.5)",cs_pos_s,"(0.7, 0.5)",cs_neg_s,0,0,0,0,,,,,,,,,,,,,,,,,,,,,,,,,,,,,0,1,1,22,0,0,0,0,,,,,,,,,,,,,,,366,reward,,,,,,1338.2250129000167,1338.2250129000167,1338.2250129000167,1338.2250129000167,0,,,0,,,1,0.5232917000539601,0.523295600025449,0,,,1338.7527962999884,1338.7527962999884,1338.7527962999884,1338.7527962999884,19,C,2024-04-29_16h13.36.348,attentional_competition_task,2022.2.4,143.97749333391073,
positions.xlsx,positions_test.xlsx,positions_test_new.xlsx,stimuli.xlsx,stimuli_new.xlsx,stimuli/Social3.png,stimuli/Social4.png,stimuli/Nonsocial3.png,stimuli/Nonsocial4.png,stimuli/Social1.png,stimuli/Social2.png,stimuli/Nonsocial1.png,stimuli/Nonsocial2.png,,,"(-0.7, -0.5)",cs_neg_ns_new,"(-0.7, 0.5)",cs_pos_ns,"(0.7, -0.5)",cs_pos_s,"(0.7, 0.5)",cs_neg_s,0,0,0,0,,,,,,,,,,,,,,,,,,,,,,,,,,,,,0,1,1,22,1,0,1,0,,,,,,,,,,,,,,,363,loss,,,,,,1339.2596899000346,1339.2596899000346,1339.2596899000346,1339.2596899000346,1,0.044524700031615794,0.044528700003866106,0,,,0,,,0,,,1339.3013776000007,1339.3013776000007,1339.3013776000007,1339.3013776000007,19,C,2024-04-29_16h13.36.348,attentional_competition_task,2022.2.4,143.97749333391073,
positions.xlsx,positions_test.xlsx,positions_test_new.xlsx,stimuli.xlsx,stimuli_new.xlsx,stimuli/Social3.png,stimuli/Social4.png,stimuli/Nonsocial3.png,stimuli/Nonsocial4.png,stimuli/Social1.png,stimuli/Social2.png,stimuli/Nonsocial1.png,stimuli/Nonsocial2.png,,,"(-0.7, -0.5)",cs_neg_ns_new,"(-0.7, 0.5)",cs_pos_ns,"(0.7, -0.5)",cs_pos_s,"(0.7, 0.5)",cs_neg_s,0,0,0,0,,,,,,,,,,,,,,,,,,,,,,,,,,,,,0,1,1,22,2,0,2,0,,,,,,,,,,,,,,,366,reward,,,,,,1339.8013697999995,1339.8013697999995,1339.8013697999995,1339.8013697999995,1,0.029064100002869964,0.07882520003477111,1,0.08589530002791435,0.08589899999788031,0,,,0,,,1339.8915878999978,1339.8915878999978,1339.8915878999978,1339.8915878999978,19,C,2024-04-29_16h13.36.348,attentional_competition_task,2022.2.4,143.97749333391073,
positions.xlsx,positions_test.xlsx,positions_test_new.xlsx,stimuli.xlsx,stimuli_new.xlsx,stimuli/Social3.png,stimuli/Social4.png,stimuli/Nonsocial3.png,stimuli/Nonsocial4.png,stimuli/Social1.png,stimuli/Social2.png,stimuli/Nonsocial1.png,stimuli/Nonsocial2.png,,,"(-0.7, -0.5)",cs_neg_ns_new,"(-0.7, 0.5)",cs_pos_ns,"(0.7, -0.5)",cs_pos_s,"(0.7, 0.5)",cs_neg_s,0,0,0,0,,,,,,,,,,,,,,,,,,,,,,,,,,,,,0,1,1,22,,,,,,,,,,,,,,,,,,,,,,,,,,,,,,,,,,,,,,,,,,,,,,19,C,2024-04-29_16h13.36.348,attentional_competition_task,2022.2.4,143.97749333391073,
positions.xlsx,positions_test.xlsx,positions_test_new.xlsx,stimuli.xlsx,stimuli_new.xlsx,stimuli/Social3.png,stimuli/Social4.png,stimuli/Nonsocial3.png,stimuli/Nonsocial4.png,stimuli/Social1.png,stimuli/Social2.png,stimuli/Nonsocial1.png,stimuli/Nonsocial2.png,,,"(-0.7, -0.5)",cs_pos_ns_new,"(-0.7, 0.5)",cs_pos_s,"(0.7, -0.5)",cs_neg_s,"(0.7, 0.5)",cs_neg_ns,0,0,0,0,,,,,,,,,,,,,,,,,,,,,,,,,,,,,0,2,2,46,0,0,0,0,,,,,,,,,,,,,,,369,reward,,,,,,1346.4399723000242,1346.4399723000242,1346.4399723000242,1346.4399723000242,0,,,1,0.5033491000067443,0.5161728999810293,0,,,0,,,1346.96078329999,1346.96078329999,1346.96078329999,1346.96078329999,19,C,2024-04-29_16h13.36.348,attentional_competition_task,2022.2.4,143.97749333391073,
positions.xlsx,positions_test.xlsx,positions_test_new.xlsx,stimuli.xlsx,stimuli_new.xlsx,stimuli/Social3.png,stimuli/Social4.png,stimuli/Nonsocial3.png,stimuli/Nonsocial4.png,stimuli/Social1.png,stimuli/Social2.png,stimuli/Nonsocial1.png,stimuli/Nonsocial2.png,,,"(-0.7, -0.5)",cs_pos_ns_new,"(-0.7, 0.5)",cs_pos_s,"(0.7, -0.5)",cs_neg_s,"(0.7, 0.5)",cs_neg_ns,0,0,0,0,,,,,,,,,,,,,,,,,,,,,,,,,,,,,0,2,2,46,1,0,1,0,,,,,,,,,,,,,,,372,reward,,,,,,1347.4954886999913,1347.4954886999913,1347.4954886999913,1347.4954886999913,1,0.027804700017441064,0.02780829998664558,0,,,0,,,0,,,1347.4954886999913,1347.4954886999913,1347.4954886999913,1347.4954886999913,19,C,2024-04-29_16h13.36.348,attentional_competition_task,2022.2.4,143.97749333391073,
positions.xlsx,positions_test.xlsx,positions_test_new.xlsx,stimuli.xlsx,stimuli_new.xlsx,stimuli/Social3.png,stimuli/Social4.png,stimuli/Nonsocial3.png,stimuli/Nonsocial4.png,stimuli/Social1.png,stimuli/Social2.png,stimuli/Nonsocial1.png,stimuli/Nonsocial2.png,,,"(-0.7, -0.5)",cs_pos_ns_new,"(-0.7, 0.5)",cs_pos_s,"(0.7, -0.5)",cs_neg_s,"(0.7, 0.5)",cs_neg_ns,0,0,0,0,,,,,,,,,,,,,,,,,,,,,,,,,,,,,0,2,2,46,2,0,2,0,,,,,,,,,,,,,,,369,loss,,,,,,1347.9954939000309,1347.9954939000309,1347.9954939000309,1347.9954939000309,1,0.1564601000281982,0.39220600004773587,0,,,0,,,1,0.4486366000492126,0.4486406000214629,1348.9468278000131,1348.9468278000131,1348.9468278000131,1348.9468278000131,19,C,2024-04-29_16h13.36.348,attentional_competition_task,2022.2.4,143.97749333391073,
positions.xlsx,positions_test.xlsx,positions_test_new.xlsx,stimuli.xlsx,stimuli_new.xlsx,stimuli/Social3.png,stimuli/Social4.png,stimuli/Nonsocial3.png,stimuli/Nonsocial4.png,stimuli/Social1.png,stimuli/Social2.png,stimuli/Nonsocial1.png,stimuli/Nonsocial2.png,,,"(-0.7, -0.5)",cs_pos_ns_new,"(-0.7, 0.5)",cs_pos_s,"(0.7, -0.5)",cs_neg_s,"(0.7, 0.5)",cs_neg_ns,0,0,0,0,,,,,,,,,,,,,,,,,,,,,,,,,,,,,0,2,2,46,,,,,,,,,,,,,,,,,,,,,,,,,,,,,,,,,,,,,,,,,,,,,,19,C,2024-04-29_16h13.36.348,attentional_competition_task,2022.2.4,143.97749333391073,
positions.xlsx,positions_test.xlsx,positions_test_new.xlsx,stimuli.xlsx,stimuli_new.xlsx,stimuli/Social3.png,stimuli/Social4.png,stimuli/Nonsocial3.png,stimuli/Nonsocial4.png,stimuli/Social1.png,stimuli/Social2.png,stimuli/Nonsocial1.png,stimuli/Nonsocial2.png,,,"(-0.7, -0.5)",cs_pos_ns,"(-0.7, 0.5)",cs_neg_ns,"(0.7, -0.5)",cs_pos_s_new,"(0.7, 0.5)",cs_neg_s,0,0,0,0,,,,,,,,,,,,,,,,,,,,,,,,,,,,,0,3,3,36,0,0,0,0,,,,,,,,,,,,,,,366,loss,,,,,,1354.2521364000277,1354.2521364000277,1354.2521364000277,1354.2521364000277,0,,,0,,,0,,,1,0.45403919997625053,0.46045630000298843,1354.7173990000156,1354.7173990000156,1354.7173990000156,1354.7173990000156,19,C,2024-04-29_16h13.36.348,attentional_competition_task,2022.2.4,143.97749333391073,
positions.xlsx,positions_test.xlsx,positions_test_new.xlsx,stimuli.xlsx,stimuli_new.xlsx,stimuli/Social3.png,stimuli/Social4.png,stimuli/Nonsocial3.png,stimuli/Nonsocial4.png,stimuli/Social1.png,stimuli/Social2.png,stimuli/Nonsocial1.png,stimuli/Nonsocial2.png,,,"(-0.7, -0.5)",cs_pos_ns,"(-0.7, 0.5)",cs_neg_ns,"(0.7, -0.5)",cs_pos_s_new,"(0.7, 0.5)",cs_neg_s,0,0,0,0,,,,,,,,,,,,,,,,,,,,,,,,,,,,,0,3,3,36,1,0,1,0,,,,,,,,,,,,,,,369,reward,,,,,,1355.2521014999948,1355.2521014999948,1355.2521014999948,1355.2521014999948,0,,,0,,,1,0.03071339998859912,0.03071809996617958,0,,,1355.2521014999948,1355.2521014999948,1355.2521014999948,1355.2521014999948,19,C,2024-04-29_16h13.36.348,attentional_competition_task,2022.2.4,143.97749333391073,
positions.xlsx,positions_test.xlsx,positions_test_new.xlsx,stimuli.xlsx,stimuli_new.xlsx,stimuli/Social3.png,stimuli/Social4.png,stimuli/Nonsocial3.png,stimuli/Nonsocial4.png,stimuli/Social1.png,stimuli/Social2.png,stimuli/Nonsocial1.png,stimuli/Nonsocial2.png,,,"(-0.7, -0.5)",cs_pos_ns,"(-0.7, 0.5)",cs_neg_ns,"(0.7, -0.5)",cs_pos_s_new,"(0.7, 0.5)",cs_neg_s,0,0,0,0,,,,,,,,,,,,,,,,,,,,,,,,,,,,,0,3,3,36,2,0,2,0,,,,,,,,,,,,,,,372,reward,,,,,,1355.7521115000127,1355.7521115000127,1355.7521115000127,1355.7521115000127,1,0.037790399976074696,0.03779410000424832,0,,,0,,,0,,,1355.7937544000451,1355.7937544000451,1355.7937544000451,1355.7937544000451,19,C,2024-04-29_16h13.36.348,attentional_competition_task,2022.2.4,143.97749333391073,
positions.xlsx,positions_test.xlsx,positions_test_new.xlsx,stimuli.xlsx,stimuli_new.xlsx,stimuli/Social3.png,stimuli/Social4.png,stimuli/Nonsocial3.png,stimuli/Nonsocial4.png,stimuli/Social1.png,stimuli/Social2.png,stimuli/Nonsocial1.png,stimuli/Nonsocial2.png,,,"(-0.7, -0.5)",cs_pos_ns,"(-0.7, 0.5)",cs_neg_ns,"(0.7, -0.5)",cs_pos_s_new,"(0.7, 0.5)",cs_neg_s,0,0,0,0,,,,,,,,,,,,,,,,,,,,,,,,,,,,,0,3,3,36,,,,,,,,,,,,,,,,,,,,,,,,,,,,,,,,,,,,,,,,,,,,,,19,C,2024-04-29_16h13.36.348,attentional_competition_task,2022.2.4,143.97749333391073,
positions.xlsx,positions_test.xlsx,positions_test_new.xlsx,stimuli.xlsx,stimuli_new.xlsx,stimuli/Social3.png,stimuli/Social4.png,stimuli/Nonsocial3.png,stimuli/Nonsocial4.png,stimuli/Social1.png,stimuli/Social2.png,stimuli/Nonsocial1.png,stimuli/Nonsocial2.png,,,"(-0.7, -0.5)",cs_neg_s,"(-0.7, 0.5)",cs_pos_ns,"(0.7, -0.5)",cs_pos_s,"(0.7, 0.5)",cs_neg_ns,0,0,0,0,,,,,,,,,,,,,,,,,,,,,,,,,,,,,0,4,4,6,0,0,0,0,,,,,,,,,,,,,,,375,reward,,,,,,1362.2240539999912,1362.2240539999912,1362.2240539999912,1362.2240539999912,0,,,0,,,1,0.40531470003770664,0.40531850000843406,0,,,1362.633791500004,1362.633791500004,1362.633791500004,1362.633791500004,19,C,2024-04-29_16h13.36.348,attentional_competition_task,2022.2.4,143.97749333391073,
positions.xlsx,positions_test.xlsx,positions_test_new.xlsx,stimuli.xlsx,stimuli_new.xlsx,stimuli/Social3.png,stimuli/Social4.png,stimuli/Nonsocial3.png,stimuli/Nonsocial4.png,stimuli/Social1.png,stimuli/Social2.png,stimuli/Nonsocial1.png,stimuli/Nonsocial2.png,,,"(-0.7, -0.5)",cs_neg_s,"(-0.7, 0.5)",cs_pos_ns,"(0.7, -0.5)",cs_pos_s,"(0.7, 0.5)",cs_neg_ns,0,0,0,0,,,,,,,,,,,,,,,,,,,,,,,,,,,,,0,4,4,6,1,0,1,0,,,,,,,,,,,,,,,372,loss,,,,,,1363.1684640999883,1363.1684640999883,1363.1684640999883,1363.1684640999883,0,,,0,,,0,,,1,0.029708800022490323,0.029712699993979186,1363.1684640999883,1363.1684640999883,1363.1684640999883,1363.1684640999883,19,C,2024-04-29_16h13.36.348,attentional_competition_task,2022.2.4,143.97749333391073,
positions.xlsx,positions_test.xlsx,positions_test_new.xlsx,stimuli.xlsx,stimuli_new.xlsx,stimuli/Social3.png,stimuli/Social4.png,stimuli/Nonsocial3.png,stimuli/Nonsocial4.png,stimuli/Social1.png,stimuli/Social2.png,stimuli/Nonsocial1.png,stimuli/Nonsocial2.png,,,"(-0.7, -0.5)",cs_neg_s,"(-0.7, 0.5)",cs_pos_ns,"(0.7, -0.5)",cs_pos_s,"(0.7, 0.5)",cs_neg_ns,0,0,0,0,,,,,,,,,,,,,,,,,,,,,,,,,,,,,0,4,4,6,2,0,2,0,,,,,,,,,,,,,,,375,reward,,,,,,1363.6962177000241,1363.6962177000241,1363.6962177000241,1363.6962177000241,0,,,1,0.023230899998452514,0.023234799969941378,0,,,0,,,1363.6962177000241,1363.6962177000241,1363.6962177000241,1363.6962177000241,19,C,2024-04-29_16h13.36.348,attentional_competition_task,2022.2.4,143.97749333391073,
positions.xlsx,positions_test.xlsx,positions_test_new.xlsx,stimuli.xlsx,stimuli_new.xlsx,stimuli/Social3.png,stimuli/Social4.png,stimuli/Nonsocial3.png,stimuli/Nonsocial4.png,stimuli/Social1.png,stimuli/Social2.png,stimuli/Nonsocial1.png,stimuli/Nonsocial2.png,,,"(-0.7, -0.5)",cs_neg_s,"(-0.7, 0.5)",cs_pos_ns,"(0.7, -0.5)",cs_pos_s,"(0.7, 0.5)",cs_neg_ns,0,0,0,0,,,,,,,,,,,,,,,,,,,,,,,,,,,,,0,4,4,6,3,0,3,0,,,,,,,,,,,,,,,372,loss,,,,,,1364.7240282000275,1364.7240282000275,1364.7240282000275,1364.7240282000275,1,0.02594279998447746,0.025946800014935434,0,,,0,,,0,,,1364.7240282000275,1364.7240282000275,1364.7240282000275,1364.7240282000275,19,C,2024-04-29_16h13.36.348,attentional_competition_task,2022.2.4,143.97749333391073,
positions.xlsx,positions_test.xlsx,positions_test_new.xlsx,stimuli.xlsx,stimuli_new.xlsx,stimuli/Social3.png,stimuli/Social4.png,stimuli/Nonsocial3.png,stimuli/Nonsocial4.png,stimuli/Social1.png,stimuli/Social2.png,stimuli/Nonsocial1.png,stimuli/Nonsocial2.png,,,"(-0.7, -0.5)",cs_neg_s,"(-0.7, 0.5)",cs_pos_ns,"(0.7, -0.5)",cs_pos_s,"(0.7, 0.5)",cs_neg_ns,0,0,0,0,,,,,,,,,,,,,,,,,,,,,,,,,,,,,0,4,4,6,,,,,,,,,,,,,,,,,,,,,,,,,,,,,,,,,,,,,,,,,,,,,,19,C,2024-04-29_16h13.36.348,attentional_competition_task,2022.2.4,143.97749333391073,
positions.xlsx,positions_test.xlsx,positions_test_new.xlsx,stimuli.xlsx,stimuli_new.xlsx,stimuli/Social3.png,stimuli/Social4.png,stimuli/Nonsocial3.png,stimuli/Nonsocial4.png,stimuli/Social1.png,stimuli/Social2.png,stimuli/Nonsocial1.png,stimuli/Nonsocial2.png,,,"(-0.7, -0.5)",cs_neg_ns,"(-0.7, 0.5)",cs_pos_ns,"(0.7, -0.5)",cs_pos_s,"(0.7, 0.5)",cs_neg_s_new,0,0,0,0,,,,,,,,,,,,,,,,,,,,,,,,,,,,,0,5,5,10,0,0,0,0,,,,,,,,,,,,,,,375,reward,,,,,,1370.4945922000334,1370.4945922000334,1370.4945922000334,1370.4945922000334,0,,,0,,,1,0.33518749999348074,0.33519149996573105,0,,,1370.8348695000168,1370.8348695000168,1370.8348695000168,1370.8348695000168,19,C,2024-04-29_16h13.36.348,attentional_competition_task,2022.2.4,143.97749333391073,
positions.xlsx,positions_test.xlsx,positions_test_new.xlsx,stimuli.xlsx,stimuli_new.xlsx,stimuli/Social3.png,stimuli/Social4.png,stimuli/Nonsocial3.png,stimuli/Nonsocial4.png,stimuli/Social1.png,stimuli/Social2.png,stimuli/Nonsocial1.png,stimuli/Nonsocial2.png,,,"(-0.7, -0.5)",cs_neg_ns,"(-0.7, 0.5)",cs_pos_ns,"(0.7, -0.5)",cs_pos_s,"(0.7, 0.5)",cs_neg_s_new,0,0,0,0,,,,,,,,,,,,,,,,,,,,,,,,,,,,,0,5,5,10,1,0,1,0,,,,,,,,,,,,,,,372,loss,,,,,,1371.3695599000202,1371.3695599000202,1371.3695599000202,1371.3695599000202,1,0.030452100036200136,0.030456200009211898,0,,,0,,,0,,,1371.3695599000202,1371.3695599000202,1371.3695599000202,1371.3695599000202,19,C,2024-04-29_16h13.36.348,attentional_competition_task,2022.2.4,143.97749333391073,
positions.xlsx,positions_test.xlsx,positions_test_new.xlsx,stimuli.xlsx,stimuli_new.xlsx,stimuli/Social3.png,stimuli/Social4.png,stimuli/Nonsocial3.png,stimuli/Nonsocial4.png,stimuli/Social1.png,stimuli/Social2.png,stimuli/Nonsocial1.png,stimuli/Nonsocial2.png,,,"(-0.7, -0.5)",cs_neg_ns,"(-0.7, 0.5)",cs_pos_ns,"(0.7, -0.5)",cs_pos_s,"(0.7, 0.5)",cs_neg_s_new,0,0,0,0,,,,,,,,,,,,,,,,,,,,,,,,,,,,,0,5,5,10,2,0,2,0,,,,,,,,,,,,,,,375,reward,,,,,,1371.904263400007,1371.904263400007,1371.904263400007,1371.904263400007,0,,,1,0.030876200005877763,0.03087950003100559,0,,,0,,,1371.904263400007,1371.904263400007,1371.904263400007,1371.904263400007,19,C,2024-04-29_16h13.36.348,attentional_competition_task,2022.2.4,143.97749333391073,
positions.xlsx,positions_test.xlsx,positions_test_new.xlsx,stimuli.xlsx,stimuli_new.xlsx,stimuli/Social3.png,stimuli/Social4.png,stimuli/Nonsocial3.png,stimuli/Nonsocial4.png,stimuli/Social1.png,stimuli/Social2.png,stimuli/Nonsocial1.png,stimuli/Nonsocial2.png,,,"(-0.7, -0.5)",cs_neg_ns,"(-0.7, 0.5)",cs_pos_ns,"(0.7, -0.5)",cs_pos_s,"(0.7, 0.5)",cs_neg_s_new,0,0,0,0,,,,,,,,,,,,,,,,,,,,,,,,,,,,,0,5,5,10,3,0,3,0,,,,,,,,,,,,,,,372,loss,,,,,,1372.4389215999981,1372.4389215999981,1372.4389215999981,1372.4389215999981,0,,,0,,,0,,,1,0.029462500009685755,0.02946609997889027,1372.4389215999981,1372.4389215999981,1372.4389215999981,1372.4389215999981,19,C,2024-04-29_16h13.36.348,attentional_competition_task,2022.2.4,143.97749333391073,
positions.xlsx,positions_test.xlsx,positions_test_new.xlsx,stimuli.xlsx,stimuli_new.xlsx,stimuli/Social3.png,stimuli/Social4.png,stimuli/Nonsocial3.png,stimuli/Nonsocial4.png,stimuli/Social1.png,stimuli/Social2.png,stimuli/Nonsocial1.png,stimuli/Nonsocial2.png,,,"(-0.7, -0.5)",cs_neg_ns,"(-0.7, 0.5)",cs_pos_ns,"(0.7, -0.5)",cs_pos_s,"(0.7, 0.5)",cs_neg_s_new,0,0,0,0,,,,,,,,,,,,,,,,,,,,,,,,,,,,,0,5,5,10,,,,,,,,,,,,,,,,,,,,,,,,,,,,,,,,,,,,,,,,,,,,,,19,C,2024-04-29_16h13.36.348,attentional_competition_task,2022.2.4,143.97749333391073,
positions.xlsx,positions_test.xlsx,positions_test_new.xlsx,stimuli.xlsx,stimuli_new.xlsx,stimuli/Social3.png,stimuli/Social4.png,stimuli/Nonsocial3.png,stimuli/Nonsocial4.png,stimuli/Social1.png,stimuli/Social2.png,stimuli/Nonsocial1.png,stimuli/Nonsocial2.png,,,"(-0.7, -0.5)",cs_neg_s,"(-0.7, 0.5)",cs_pos_ns,"(0.7, -0.5)",cs_neg_ns_new,"(0.7, 0.5)",cs_pos_s,0,0,0,0,,,,,,,,,,,,,,,,,,,,,,,,,,,,,0,6,6,19,0,0,0,0,,,,,,,,,,,,,,,375,reward,,,,,,1378.890080799989,1378.890080799989,1378.890080799989,1378.890080799989,0,,,0,,,0,,,1,0.6908613999839872,0.6908650000113994,1379.5845181000186,1379.5845181000186,1379.5845181000186,1379.5845181000186,19,C,2024-04-29_16h13.36.348,attentional_competition_task,2022.2.4,143.97749333391073,
positions.xlsx,positions_test.xlsx,positions_test_new.xlsx,stimuli.xlsx,stimuli_new.xlsx,stimuli/Social3.png,stimuli/Social4.png,stimuli/Nonsocial3.png,stimuli/Nonsocial4.png,stimuli/Social1.png,stimuli/Social2.png,stimuli/Nonsocial1.png,stimuli/Nonsocial2.png,,,"(-0.7, -0.5)",cs_neg_s,"(-0.7, 0.5)",cs_pos_ns,"(0.7, -0.5)",cs_neg_ns_new,"(0.7, 0.5)",cs_pos_s,0,0,0,0,,,,,,,,,,,,,,,,,,,,,,,,,,,,,0,6,6,19,1,0,1,0,,,,,,,,,,,,,,,372,loss,,,,,,1380.0845014000079,1380.0845014000079,1380.0845014000079,1380.0845014000079,0,,,0,,,1,0.21751899999799207,0.21752280002692714,0,,,1380.3067198999925,1380.3067198999925,1380.3067198999925,1380.3067198999925,19,C,2024-04-29_16h13.36.348,attentional_competition_task,2022.2.4,143.97749333391073,
positions.xlsx,positions_test.xlsx,positions_test_new.xlsx,stimuli.xlsx,stimuli_new.xlsx,stimuli/Social3.png,stimuli/Social4.png,stimuli/Nonsocial3.png,stimuli/Nonsocial4.png,stimuli/Social1.png,stimuli/Social2.png,stimuli/Nonsocial1.png,stimuli/Nonsocial2.png,,,"(-0.7, -0.5)",cs_neg_s,"(-0.7, 0.5)",cs_pos_ns,"(0.7, -0.5)",cs_neg_ns_new,"(0.7, 0.5)",cs_pos_s,0,0,0,0,,,,,,,,,,,,,,,,,,,,,,,,,,,,,0,6,6,19,2,0,2,0,,,,,,,,,,,,,,,369,loss,,,,,,1380.813614200044,1380.813614200044,1380.813614200044,1380.813614200044,0,,,0,,,1,0.0332858000183478,0.09362990001682192,0,,,1381.4039084000397,1381.4039084000397,1381.4039084000397,1381.4039084000397,19,C,2024-04-29_16h13.36.348,attentional_competition_task,2022.2.4,143.97749333391073,
positions.xlsx,positions_test.xlsx,positions_test_new.xlsx,stimuli.xlsx,stimuli_new.xlsx,stimuli/Social3.png,stimuli/Social4.png,stimuli/Nonsocial3.png,stimuli/Nonsocial4.png,stimuli/Social1.png,stimuli/Social2.png,stimuli/Nonsocial1.png,stimuli/Nonsocial2.png,,,"(-0.7, -0.5)",cs_neg_s,"(-0.7, 0.5)",cs_pos_ns,"(0.7, -0.5)",cs_neg_ns_new,"(0.7, 0.5)",cs_pos_s,0,0,0,0,,,,,,,,,,,,,,,,,,,,,,,,,,,,,0,6,6,19,,,,,,,,,,,,,,,,,,,,,,,,,,,,,,,,,,,,,,,,,,,,,,19,C,2024-04-29_16h13.36.348,attentional_competition_task,2022.2.4,143.97749333391073,
positions.xlsx,positions_test.xlsx,positions_test_new.xlsx,stimuli.xlsx,stimuli_new.xlsx,stimuli/Social3.png,stimuli/Social4.png,stimuli/Nonsocial3.png,stimuli/Nonsocial4.png,stimuli/Social1.png,stimuli/Social2.png,stimuli/Nonsocial1.png,stimuli/Nonsocial2.png,,,"(-0.7, -0.5)",cs_neg_ns,"(-0.7, 0.5)",cs_neg_s_new,"(0.7, -0.5)",cs_pos_s,"(0.7, 0.5)",cs_pos_ns,0,0,0,0,,,,,,,,,,,,,,,,,,,,,,,,,,,,,0,7,7,17,0,0,0,0,,,,,,,,,,,,,,,372,reward,,,,,,1387.1814431000385,1387.1814431000385,1387.1814431000385,1387.1814431000385,0,,,0,,,1,0.5302012000465766,0.5375184000004083,0,,,1387.7230904999888,1387.7230904999888,1387.7230904999888,1387.7230904999888,19,C,2024-04-29_16h13.36.348,attentional_competition_task,2022.2.4,143.97749333391073,
positions.xlsx,positions_test.xlsx,positions_test_new.xlsx,stimuli.xlsx,stimuli_new.xlsx,stimuli/Social3.png,stimuli/Social4.png,stimuli/Nonsocial3.png,stimuli/Nonsocial4.png,stimuli/Social1.png,stimuli/Social2.png,stimuli/Nonsocial1.png,stimuli/Nonsocial2.png,,,"(-0.7, -0.5)",cs_neg_ns,"(-0.7, 0.5)",cs_neg_s_new,"(0.7, -0.5)",cs_pos_s,"(0.7, 0.5)",cs_pos_ns,0,0,0,0,,,,,,,,,,,,,,,,,,,,,,,,,,,,,0,7,7,17,1,0,1,0,,,,,,,,,,,,,,,369,loss,,,,,,1388.2300345000112,1388.2300345000112,1388.2300345000112,1388.2300345000112,1,0.3216495999949984,0.32165330002317205,0,,,1,0.031877300003543496,0.10707079997519031,0,,,1388.5425183000043,1388.5425183000043,1388.5425183000043,1388.5425183000043,19,C,2024-04-29_16h13.36.348,attentional_competition_task,2022.2.4,143.97749333391073,
positions.xlsx,positions_test.xlsx,positions_test_new.xlsx,stimuli.xlsx,stimuli_new.xlsx,stimuli/Social3.png,stimuli/Social4.png,stimuli/Nonsocial3.png,stimuli/Nonsocial4.png,stimuli/Social1.png,stimuli/Social2.png,stimuli/Nonsocial1.png,stimuli/Nonsocial2.png,,,"(-0.7, -0.5)",cs_neg_ns,"(-0.7, 0.5)",cs_neg_s_new,"(0.7, -0.5)",cs_pos_s,"(0.7, 0.5)",cs_pos_ns,0,0,0,0,,,,,,,,,,,,,,,,,,,,,,,,,,,,,0,7,7,17,2,0,2,0,,,,,,,,,,,,,,,372,reward,,,,,,1389.070256200037,1389.070256200037,1389.070256200037,1389.070256200037,0,,,0,,,0,,,1,0.023930300027132034,0.023934400000143796,1389.070256200037,1389.070256200037,1389.070256200037,1389.070256200037,19,C,2024-04-29_16h13.36.348,attentional_competition_task,2022.2.4,143.97749333391073,
