posFile,stimFile,testFile,cs_plus_s,cs_minus_s,cs_plus_ns,cs_minus_ns,test1,test2,position1,trialtype,position2,comptype,blocks.thisRepN,blocks.thisTrialN,blocks.thisN,blocks.thisIndex,learning_trials.thisRepN,learning_trials.thisTrialN,learning_trials.thisN,learning_trials.thisIndex,trials.thisRepN,trials.thisTrialN,trials.thisN,trials.thisIndex,textStart.started,spaceStart.started,spaceStart.keys,spaceStart.rt,textStartExp.started,textExpImages.started,ImageLearning1.started,ImageLearning2.started,textSpace.started,spaceStartExp.started,spaceStartExp.keys,spaceStartExp.rt,blankScreen.started,blankScreen.stopped,fixcross.started,firstImage.started,fixcrossImage1.started,fixcrossITI.started,secondImage.started,fixcrossImage2.started,key.started,key.keys,key.rt,correctness,feedbackText.started,fixcrossEnd.started,fixcrossEnd.stopped,fixcross.stopped,feedbackText.stopped,textStartTask.started,textTaskImages.started,ImageTask1.started,ImageTask2.started,ImageTask3.started,ImageTask4.started,textTaskSpace.started,spaceStartTask.started,spaceStartTask.keys,spaceStartTask.rt,participant,group,date,expName,psychopyVersion,frameRate,
,,,,,,,,,,,,,,,,,,,,,,,,,10.931691600009799,10.931691600009799,space,2.583371500018984,,,,,,,,,,,,,,,,,,,,,,,,,,,,,,,,,,,,18,A,2023-12-11_12h51.51.022,gca_discrimination,2022.2.4,143.9155387550169,
positions.xlsx,stimuli.xlsx,test.xlsx,stimuli/Social1.png,stimuli/Social2.png,stimuli/Nonsocial1.png,stimuli/Nonsocial2.png,stimuli/Test1.png,stimuli/Test2.png,"(-0.7, -0.5)",test1,"(0.7, 0.5)",test2,0,0,0,0,0,0,0,8,,,,,,,,,13.528764299990144,13.528764299990144,13.528764299990144,13.528764299990144,13.528764299990144,13.528764299990144,space,25.450029900006484,38.98614369996358,40.111101699993014,40.111101699993014,41.12491809995845,41.12491809995845,41.25685239996528,41.77073059999384,41.77073059999384,41.9096555999713,l,0.6130335999769159,correct,42.54156529996544,44.54146909998963,44.75673189997906,,,,,,,,,,,,,18,A,2023-12-11_12h51.51.022,gca_discrimination,2022.2.4,143.9155387550169,
positions.xlsx,stimuli.xlsx,test.xlsx,stimuli/Social1.png,stimuli/Social2.png,stimuli/Nonsocial1.png,stimuli/Nonsocial2.png,stimuli/Test1.png,stimuli/Test2.png,"(-0.7, 0.5)",test1,"(0.7, -0.5)",test1,0,0,0,0,0,1,1,5,,,,,,,,,,,,,,,,,,,44.75673189997906,45.75669869995909,45.75669869995909,45.909451199986506,46.409447699959856,46.409447699959856,46.56226129998686,ä,0.4802997999940999,correct,47.055244599992875,49.05515769997146,49.41627079999307,45.75669869995909,49.05515769997146,,,,,,,,,,,18,A,2023-12-11_12h51.51.022,gca_discrimination,2022.2.4,143.9155387550169,
positions.xlsx,stimuli.xlsx,test.xlsx,stimuli/Social1.png,stimuli/Social2.png,stimuli/Nonsocial1.png,stimuli/Nonsocial2.png,stimuli/Test1.png,stimuli/Test2.png,"(0.7, 0.5)",test2,"(-0.7, 0.5)",test1,0,0,0,0,0,2,2,13,,,,,,,,,,,,,,,,,,,49.41627079999307,50.41625559999375,50.41625559999375,50.56900289998157,51.06899269996211,51.06899269996211,51.22172779997345,l,0.4288920999970287,correct,51.65922400000272,53.65919209999265,54.34662789996946,50.41625559999375,53.65919209999265,,,,,,,,,,,18,A,2023-12-11_12h51.51.022,gca_discrimination,2022.2.4,143.9155387550169,
positions.xlsx,stimuli.xlsx,test.xlsx,stimuli/Social1.png,stimuli/Social2.png,stimuli/Nonsocial1.png,stimuli/Nonsocial2.png,stimuli/Test1.png,stimuli/Test2.png,"(-0.7, 0.5)",test2,"(-0.7, -0.5)",test2,0,0,0,0,0,3,3,1,,,,,,,,,,,,,,,,,,,54.34662789996946,55.346614599984605,55.346614599984605,55.49934599996777,55.99937239999417,55.99937239999417,56.152123200008646,ä,0.4991351999924518,correct,56.65902419999475,58.658990899974015,58.83952330000466,55.346614599984605,58.658990899974015,,,,,,,,,,,18,A,2023-12-11_12h51.51.022,gca_discrimination,2022.2.4,143.9155387550169,
positions.xlsx,stimuli.xlsx,test.xlsx,stimuli/Social1.png,stimuli/Social2.png,stimuli/Nonsocial1.png,stimuli/Nonsocial2.png,stimuli/Test1.png,stimuli/Test2.png,"(0.7, 0.5)",test1,"(0.7, -0.5)",test2,0,0,0,0,0,4,4,11,,,,,,,,,,,,,,,,,,,58.83952330000466,59.83946609997656,59.83946609997656,59.9922443999676,60.492208099982236,60.492208099982236,60.64498509996338,l,0.41384960000868887,correct,61.068566699977964,63.068516100000124,64.04067529999884,59.83946609997656,63.068516100000124,,,,,,,,,,,18,A,2023-12-11_12h51.51.022,gca_discrimination,2022.2.4,143.9155387550169,
positions.xlsx,stimuli.xlsx,test.xlsx,stimuli/Social1.png,stimuli/Social2.png,stimuli/Nonsocial1.png,stimuli/Nonsocial2.png,stimuli/Test1.png,stimuli/Test2.png,"(0.7, -0.5)",test1,"(0.7, 0.5)",test2,0,0,0,0,0,5,5,0,,,,,,,,,,,,,,,,,,,64.04067529999884,65.04062809998868,65.04062809998868,65.19343370001297,65.6934369999799,65.6934369999799,65.84619770001154,l,0.421488199965097,correct,66.27679769997485,68.27659520000452,68.4154802999692,65.04062809998868,68.27659520000452,,,,,,,,,,,18,A,2023-12-11_12h51.51.022,gca_discrimination,2022.2.4,143.9155387550169,
positions.xlsx,stimuli.xlsx,test.xlsx,stimuli/Social1.png,stimuli/Social2.png,stimuli/Nonsocial1.png,stimuli/Nonsocial2.png,stimuli/Test1.png,stimuli/Test2.png,"(0.7, 0.5)",test2,"(0.7, -0.5)",test1,0,0,0,0,0,6,6,6,,,,,,,,,,,,,,,,,,,68.4154802999692,69.41549390001455,69.41549390001455,69.56826679996448,70.06825159996515,70.06825159996515,70.2210347999935,l,0.4380746000097133,correct,70.67237809998915,72.67231619998347,73.61672789999284,69.41549390001455,72.67231619998347,,,,,,,,,,,18,A,2023-12-11_12h51.51.022,gca_discrimination,2022.2.4,143.9155387550169,
positions.xlsx,stimuli.xlsx,test.xlsx,stimuli/Social1.png,stimuli/Social2.png,stimuli/Nonsocial1.png,stimuli/Nonsocial2.png,stimuli/Test1.png,stimuli/Test2.png,"(-0.7, -0.5)",test2,"(0.7, -0.5)",test2,0,0,0,0,0,7,7,9,,,,,,,,,,,,,,,,,,,73.61672789999284,74.61670610000147,74.61670610000147,74.76946509996196,75.26944609999191,75.26944609999191,75.42217779997736,ä,0.5321189000387676,correct,75.96385150001151,77.96379690000322,78.82482979999622,74.61670610000147,77.96379690000322,,,,,,,,,,,18,A,2023-12-11_12h51.51.022,gca_discrimination,2022.2.4,143.9155387550169,
positions.xlsx,stimuli.xlsx,test.xlsx,stimuli/Social1.png,stimuli/Social2.png,stimuli/Nonsocial1.png,stimuli/Nonsocial2.png,stimuli/Test1.png,stimuli/Test2.png,"(-0.7, -0.5)",test2,"(0.7, 0.5)",test2,0,0,0,0,0,8,8,7,,,,,,,,,,,,,,,,,,,78.82482979999622,79.83177290001186,79.83177290001186,79.97755119996145,80.4845102999825,80.4845102999825,80.6302942999755,ä,0.7885127000045031,correct,81.42892179999035,83.42883920000168,83.58156829996733,79.83177290001186,83.42883920000168,,,,,,,,,,,18,A,2023-12-11_12h51.51.022,gca_discrimination,2022.2.4,143.9155387550169,
positions.xlsx,stimuli.xlsx,test.xlsx,stimuli/Social1.png,stimuli/Social2.png,stimuli/Nonsocial1.png,stimuli/Nonsocial2.png,stimuli/Test1.png,stimuli/Test2.png,"(0.7, -0.5)",test2,"(-0.7, 0.5)",test1,0,0,0,0,0,9,9,4,,,,,,,,,,,,,,,,,,,83.58156829996733,84.58156309998594,84.58156309998594,84.73435049998807,85.23432180000236,85.23432180000236,85.38708789995871,l,0.36719770001946017,correct,85.76206729997648,87.76204910001252,88.74806309997803,84.58156309998594,87.76204910001252,,,,,,,,,,,18,A,2023-12-11_12h51.51.022,gca_discrimination,2022.2.4,143.9155387550169,
positions.xlsx,stimuli.xlsx,test.xlsx,stimuli/Social1.png,stimuli/Social2.png,stimuli/Nonsocial1.png,stimuli/Nonsocial2.png,stimuli/Test1.png,stimuli/Test2.png,"(0.7, -0.5)",test1,"(0.7, 0.5)",test1,0,0,0,0,0,10,10,10,,,,,,,,,,,,,,,,,,,88.74806309997803,89.74800670001423,89.74800670001423,89.90081550000468,90.40080279996619,90.40080279996619,90.55355770001188,ä,0.21671779995085672,correct,90.78269739996176,92.78261230001226,93.62977409997256,89.74800670001423,92.78261230001226,,,,,,,,,,,18,A,2023-12-11_12h51.51.022,gca_discrimination,2022.2.4,143.9155387550169,
positions.xlsx,stimuli.xlsx,test.xlsx,stimuli/Social1.png,stimuli/Social2.png,stimuli/Nonsocial1.png,stimuli/Nonsocial2.png,stimuli/Test1.png,stimuli/Test2.png,"(-0.7, 0.5)",test2,"(0.7, -0.5)",test1,0,0,0,0,0,11,11,12,,,,,,,,,,,,,,,,,,,93.62977409997256,94.62978159997147,94.62978159997147,94.78254119999474,95.2825474999845,95.2825474999845,95.43526840000413,l,0.4639727000030689,correct,95.90751809999347,97.90743749996182,98.24772109999321,94.62978159997147,97.90743749996182,,,,,,,,,,,18,A,2023-12-11_12h51.51.022,gca_discrimination,2022.2.4,143.9155387550169,
positions.xlsx,stimuli.xlsx,test.xlsx,stimuli/Social1.png,stimuli/Social2.png,stimuli/Nonsocial1.png,stimuli/Nonsocial2.png,stimuli/Test1.png,stimuli/Test2.png,"(-0.7, -0.5)",test2,"(-0.7, 0.5)",test2,0,0,0,0,0,12,12,2,,,,,,,,,,,,,,,,,,,98.24772109999321,99.2476619000081,99.2476619000081,99.4004376999801,99.90039769996656,99.90039769996656,100.05318970000371,ä,0.3740279999910854,correct,100.4351041999762,102.43504179996671,102.78224450000562,99.2476619000081,102.43504179996671,,,,,,,,,,,18,A,2023-12-11_12h51.51.022,gca_discrimination,2022.2.4,143.9155387550169,
positions.xlsx,stimuli.xlsx,test.xlsx,stimuli/Social1.png,stimuli/Social2.png,stimuli/Nonsocial1.png,stimuli/Nonsocial2.png,stimuli/Test1.png,stimuli/Test2.png,"(-0.7, 0.5)",test2,"(0.7, 0.5)",test1,0,0,0,0,0,13,13,3,,,,,,,,,,,,,,,,,,,102.78224450000562,103.78219910000917,103.78219910000917,103.93497080000816,104.43499929999234,104.43499929999234,104.58771539997542,l,0.5186499000410549,correct,105.11553089995869,107.11540189996595,107.68481860001339,103.78219910000917,107.11540189996595,,,,,,,,,,,18,A,2023-12-11_12h51.51.022,gca_discrimination,2022.2.4,143.9155387550169,
positions.xlsx,stimuli.xlsx,test.xlsx,stimuli/Social1.png,stimuli/Social2.png,stimuli/Nonsocial1.png,stimuli/Nonsocial2.png,stimuli/Test1.png,stimuli/Test2.png,"(0.7, 0.5)",cs_minus_ns,"(0.7, -0.5)",cs_minus_ns,0,0,0,0,,,,,0,0,0,92,,,,,,,,,,,,,117.94137939997017,119.46911149995867,119.46911149995867,120.4690464999876,120.4690464999876,120.60791789996438,121.11487329995725,121.11487329995725,121.26068239996675,ä,0.3902826000121422,correct,,121.66342649998842,121.77453100000275,,,107.68481860001339,107.68481860001339,107.68481860001339,107.68481860001339,107.68481860001339,107.68481860001339,107.68481860001339,107.68481860001339,space,10.24557349999668,18,A,2023-12-11_12h51.51.022,gca_discrimination,2022.2.4,143.9155387550169,
positions.xlsx,stimuli.xlsx,test.xlsx,stimuli/Social1.png,stimuli/Social2.png,stimuli/Nonsocial1.png,stimuli/Nonsocial2.png,stimuli/Test1.png,stimuli/Test2.png,"(0.7, 0.5)",cs_plus_s,"(0.7, -0.5)",cs_minus_s,0,0,0,0,,,,,0,1,1,8,,,,,,,,,,,,,,,121.77453100000275,122.78147109999554,122.78147109999554,122.92727960000047,123.43421709997347,123.43421709997347,123.58002930000657,l,0.3749964999733493,correct,,123.96196459996281,124.66332799999509,122.78147109999554,,,,,,,,,,,,18,A,2023-12-11_12h51.51.022,gca_discrimination,2022.2.4,143.9155387550169,
positions.xlsx,stimuli.xlsx,test.xlsx,stimuli/Social1.png,stimuli/Social2.png,stimuli/Nonsocial1.png,stimuli/Nonsocial2.png,stimuli/Test1.png,stimuli/Test2.png,"(0.7, 0.5)",cs_minus_ns,"(-0.7, -0.5)",cs_minus_ns,0,0,0,0,,,,,0,2,2,91,,,,,,,,,,,,,,,124.66332799999509,125.67024239996681,125.67024239996681,125.81602749996819,126.32298289996106,126.32298289996106,126.46883490000619,ä,0.36602690001018345,correct,,126.84377939999104,127.23961579997558,125.67024239996681,,,,,,,,,,,,18,A,2023-12-11_12h51.51.022,gca_discrimination,2022.2.4,143.9155387550169,
positions.xlsx,stimuli.xlsx,test.xlsx,stimuli/Social1.png,stimuli/Social2.png,stimuli/Nonsocial1.png,stimuli/Nonsocial2.png,stimuli/Test1.png,stimuli/Test2.png,"(0.7, 0.5)",cs_plus_s,"(-0.7, 0.5)",cs_plus_s,0,0,0,0,,,,,0,3,3,54,,,,,,,,,,,,,,,127.23961579997558,128.24654719996033,128.24654719996033,128.39234829996713,128.8992949000094,128.8992949000094,129.04508109996095,ä,0.4133787999744527,correct,,129.46868819999509,129.7117420999566,128.24654719996033,,,,,,,,,,,,18,A,2023-12-11_12h51.51.022,gca_discrimination,2022.2.4,143.9155387550169,
positions.xlsx,stimuli.xlsx,test.xlsx,stimuli/Social1.png,stimuli/Social2.png,stimuli/Nonsocial1.png,stimuli/Nonsocial2.png,stimuli/Test1.png,stimuli/Test2.png,"(-0.7, 0.5)",cs_minus_s,"(-0.7, -0.5)",cs_plus_s,0,0,0,0,,,,,0,4,4,12,,,,,,,,,,,,,,,129.7117420999566,130.71868310001446,130.71868310001446,130.86447039997438,131.37140740000177,131.37140740000177,131.51724829996238,l,0.4220079999649897,correct,,131.94776399998227,132.836628799967,130.71868310001446,,,,,,,,,,,,18,A,2023-12-11_12h51.51.022,gca_discrimination,2022.2.4,143.9155387550169,
positions.xlsx,stimuli.xlsx,test.xlsx,stimuli/Social1.png,stimuli/Social2.png,stimuli/Nonsocial1.png,stimuli/Nonsocial2.png,stimuli/Test1.png,stimuli/Test2.png,"(0.7, 0.5)",cs_minus_ns,"(-0.7, 0.5)",cs_minus_ns,0,0,0,0,,,,,0,5,5,90,,,,,,,,,,,,,,,132.836628799967,133.84352559997933,133.84352559997933,133.98935539997183,134.4962872999604,134.4962872999604,134.64211169996997,ä,0.37696010002400726,correct,,135.0309855999658,135.12125099997502,133.84352559997933,,,,,,,,,,,,18,A,2023-12-11_12h51.51.022,gca_discrimination,2022.2.4,143.9155387550169,
positions.xlsx,stimuli.xlsx,test.xlsx,stimuli/Social1.png,stimuli/Social2.png,stimuli/Nonsocial1.png,stimuli/Nonsocial2.png,stimuli/Test1.png,stimuli/Test2.png,"(-0.7, 0.5)",cs_plus_s,"(-0.7, -0.5)",cs_minus_s,0,0,0,0,,,,,0,6,6,0,,,,,,,,,,,,,,,135.12125099997502,136.12816389999352,136.12816389999352,136.2739846999757,136.7809185999795,136.7809185999795,136.92673209996428,l,0.35615209996467456,correct,,137.29477639996912,138.197537,136.12816389999352,,,,,,,,,,,,18,A,2023-12-11_12h51.51.022,gca_discrimination,2022.2.4,143.9155387550169,
positions.xlsx,stimuli.xlsx,test.xlsx,stimuli/Social1.png,stimuli/Social2.png,stimuli/Nonsocial1.png,stimuli/Nonsocial2.png,stimuli/Test1.png,stimuli/Test2.png,"(0.7, -0.5)",cs_plus_s,"(-0.7, 0.5)",cs_minus_s,0,0,0,0,,,,,0,7,7,9,,,,,,,,,,,,,,,138.197537,139.2044404000044,139.2044404000044,139.35024199995678,139.85717999999179,139.85717999999179,140.00303239998175,l,0.3209974000346847,correct,,140.3363089999766,141.0029799999902,139.2044404000044,,,,,,,,,,,,18,A,2023-12-11_12h51.51.022,gca_discrimination,2022.2.4,143.9155387550169,
positions.xlsx,stimuli.xlsx,test.xlsx,stimuli/Social1.png,stimuli/Social2.png,stimuli/Nonsocial1.png,stimuli/Nonsocial2.png,stimuli/Test1.png,stimuli/Test2.png,"(0.7, -0.5)",cs_minus_s,"(0.7, 0.5)",cs_plus_s,0,0,0,0,,,,,0,8,8,23,,,,,,,,,,,,,,,141.0029799999902,142.00984189996962,142.00984189996962,142.155695799971,142.66265329997987,142.66265329997987,142.8084772999864,l,0.37793680001050234,correct,,143.19733429996995,144.16952070000116,142.00984189996962,,,,,,,,,,,,18,A,2023-12-11_12h51.51.022,gca_discrimination,2022.2.4,143.9155387550169,
positions.xlsx,stimuli.xlsx,test.xlsx,stimuli/Social1.png,stimuli/Social2.png,stimuli/Nonsocial1.png,stimuli/Nonsocial2.png,stimuli/Test1.png,stimuli/Test2.png,"(-0.7, -0.5)",cs_minus_ns,"(-0.7, 0.5)",cs_plus_ns,0,0,0,0,,,,,0,9,9,39,,,,,,,,,,,,,,,144.16952070000116,145.1764167000074,145.1764167000074,145.3222484999569,145.8291611999739,145.8291611999739,145.97498200001428,l,0.41998429998056963,correct,,146.40552989998832,147.02354709996143,145.1764167000074,,,,,,,,,,,,18,A,2023-12-11_12h51.51.022,gca_discrimination,2022.2.4,143.9155387550169,
positions.xlsx,stimuli.xlsx,test.xlsx,stimuli/Social1.png,stimuli/Social2.png,stimuli/Nonsocial1.png,stimuli/Nonsocial2.png,stimuli/Test1.png,stimuli/Test2.png,"(0.7, -0.5)",cs_plus_s,"(0.7, 0.5)",cs_minus_s,0,0,0,0,,,,,0,10,10,11,,,,,,,,,,,,,,,147.02354709996143,148.03047579998383,148.03047579998383,148.17627709999215,148.68319519999204,148.68319519999204,148.82906459999504,l,0.37381229997845367,correct,,149.21095470001455,150.03038810001453,148.03047579998383,,,,,,,,,,,,18,A,2023-12-11_12h51.51.022,gca_discrimination,2022.2.4,143.9155387550169,
positions.xlsx,stimuli.xlsx,test.xlsx,stimuli/Social1.png,stimuli/Social2.png,stimuli/Nonsocial1.png,stimuli/Nonsocial2.png,stimuli/Test1.png,stimuli/Test2.png,"(-0.7, -0.5)",cs_plus_s,"(-0.7, 0.5)",cs_plus_s,0,0,0,0,,,,,0,11,11,51,,,,,,,,,,,,,,,150.03038810001453,151.03730359999463,151.03730359999463,151.18314320000354,151.69006689998787,151.69006689998787,151.83588889997918,ä,0.45452600001590326,correct,,152.30114070000127,152.84275509999134,151.03730359999463,,,,,,,,,,,,18,A,2023-12-11_12h51.51.022,gca_discrimination,2022.2.4,143.9155387550169,
positions.xlsx,stimuli.xlsx,test.xlsx,stimuli/Social1.png,stimuli/Social2.png,stimuli/Nonsocial1.png,stimuli/Nonsocial2.png,stimuli/Test1.png,stimuli/Test2.png,"(-0.7, 0.5)",cs_plus_s,"(-0.7, -0.5)",cs_plus_s,0,0,0,0,,,,,0,12,12,48,,,,,,,,,,,,,,,152.84275509999134,153.84966879995773,153.84966879995773,153.9955097999773,154.5024363999837,154.5024363999837,154.64824750000844,ä,0.42703749996144325,correct,,155.0857246000087,155.85654499998782,153.84966879995773,,,,,,,,,,,,18,A,2023-12-11_12h51.51.022,gca_discrimination,2022.2.4,143.9155387550169,
positions.xlsx,stimuli.xlsx,test.xlsx,stimuli/Social1.png,stimuli/Social2.png,stimuli/Nonsocial1.png,stimuli/Nonsocial2.png,stimuli/Test1.png,stimuli/Test2.png,"(0.7, -0.5)",cs_plus_ns,"(0.7, 0.5)",cs_plus_ns,0,0,0,0,,,,,0,13,13,83,,,,,,,,,,,,,,,155.85654499998782,156.86345870001242,156.86345870001242,157.0092861999874,157.51623459998518,157.51623459998518,157.66202160000103,ä,0.30099029996199533,correct,,157.9745319999638,158.1897909999825,156.86345870001242,,,,,,,,,,,,18,A,2023-12-11_12h51.51.022,gca_discrimination,2022.2.4,143.9155387550169,
positions.xlsx,stimuli.xlsx,test.xlsx,stimuli/Social1.png,stimuli/Social2.png,stimuli/Nonsocial1.png,stimuli/Nonsocial2.png,stimuli/Test1.png,stimuli/Test2.png,"(-0.7, -0.5)",cs_plus_s,"(0.7, -0.5)",cs_plus_s,0,0,0,0,,,,,0,14,14,53,,,,,,,,,,,,,,,158.1897909999825,159.19672840001294,159.19672840001294,159.34252060001018,159.84941179997986,159.84941179997986,159.99526990001323,ä,0.33626089995959774,correct,,160.34249710000586,160.5369028999703,159.19672840001294,,,,,,,,,,,,18,A,2023-12-11_12h51.51.022,gca_discrimination,2022.2.4,143.9155387550169,
positions.xlsx,stimuli.xlsx,test.xlsx,stimuli/Social1.png,stimuli/Social2.png,stimuli/Nonsocial1.png,stimuli/Nonsocial2.png,stimuli/Test1.png,stimuli/Test2.png,"(-0.7, 0.5)",cs_minus_ns,"(-0.7, -0.5)",cs_plus_ns,0,0,0,0,,,,,0,15,15,36,,,,,,,,,,,,,,,160.5369028999703,161.54382889997214,161.54382889997214,161.68965580000076,162.19658250000793,162.19658250000793,162.34238980000373,l,0.28420749999349937,correct,,162.63407400000142,162.85627859999659,161.54382889997214,,,,,,,,,,,,18,A,2023-12-11_12h51.51.022,gca_discrimination,2022.2.4,143.9155387550169,
positions.xlsx,stimuli.xlsx,test.xlsx,stimuli/Social1.png,stimuli/Social2.png,stimuli/Nonsocial1.png,stimuli/Nonsocial2.png,stimuli/Test1.png,stimuli/Test2.png,"(-0.7, -0.5)",cs_plus_ns,"(-0.7, 0.5)",cs_minus_ns,0,0,0,0,,,,,0,16,16,27,,,,,,,,,,,,,,,162.85627859999659,163.86319539998658,163.86319539998658,164.0089857999701,164.51593479997246,164.51593479997246,164.6617610999965,l,0.341691899986472,correct,,165.01593170000706,165.51589969999623,163.86319539998658,,,,,,,,,,,,18,A,2023-12-11_12h51.51.022,gca_discrimination,2022.2.4,143.9155387550169,
positions.xlsx,stimuli.xlsx,test.xlsx,stimuli/Social1.png,stimuli/Social2.png,stimuli/Nonsocial1.png,stimuli/Nonsocial2.png,stimuli/Test1.png,stimuli/Test2.png,"(0.7, 0.5)",cs_plus_ns,"(-0.7, 0.5)",cs_plus_ns,0,0,0,0,,,,,0,17,17,78,,,,,,,,,,,,,,,165.51589969999623,166.52283019997412,166.52283019997412,166.66860360000283,167.17556020000484,167.17556020000484,167.32138159999158,ä,0.32977770001161844,correct,,167.66164840001147,168.2102337999968,166.52283019997412,,,,,,,,,,,,18,A,2023-12-11_12h51.51.022,gca_discrimination,2022.2.4,143.9155387550169,
positions.xlsx,stimuli.xlsx,test.xlsx,stimuli/Social1.png,stimuli/Social2.png,stimuli/Nonsocial1.png,stimuli/Nonsocial2.png,stimuli/Test1.png,stimuli/Test2.png,"(0.7, -0.5)",cs_plus_ns,"(-0.7, 0.5)",cs_plus_ns,0,0,0,0,,,,,0,18,18,81,,,,,,,,,,,,,,,168.2102337999968,169.21711079997476,169.21711079997476,169.36298169998918,169.8698970999685,169.8698970999685,170.0157605999848,ä,0.2754432000219822,correct,,170.30045440001413,170.4393767999718,169.21711079997476,,,,,,,,,,,,18,A,2023-12-11_12h51.51.022,gca_discrimination,2022.2.4,143.9155387550169,
positions.xlsx,stimuli.xlsx,test.xlsx,stimuli/Social1.png,stimuli/Social2.png,stimuli/Nonsocial1.png,stimuli/Nonsocial2.png,stimuli/Test1.png,stimuli/Test2.png,"(0.7, 0.5)",cs_plus_s,"(-0.7, -0.5)",cs_minus_s,0,0,0,0,,,,,0,19,19,7,,,,,,,,,,,,,,,170.4393767999718,171.4462353999843,171.4462353999843,171.5920630999608,172.0989558000001,172.0989558000001,172.24482009996427,l,0.33484670001780614,correct,,172.59201660001418,173.3281466999906,171.4462353999843,,,,,,,,,,,,18,A,2023-12-11_12h51.51.022,gca_discrimination,2022.2.4,143.9155387550169,
positions.xlsx,stimuli.xlsx,test.xlsx,stimuli/Social1.png,stimuli/Social2.png,stimuli/Nonsocial1.png,stimuli/Nonsocial2.png,stimuli/Test1.png,stimuli/Test2.png,"(-0.7, 0.5)",cs_plus_s,"(0.7, 0.5)",cs_plus_s,0,0,0,0,,,,,0,20,20,49,,,,,,,,,,,,,,,173.3281466999906,174.33502150001004,174.33502150001004,174.48079999996116,174.98776449996512,174.98776449996512,175.13353709998773,ä,0.3410657999920659,correct,,175.48773009999422,176.09885839995695,174.33502150001004,,,,,,,,,,,,18,A,2023-12-11_12h51.51.022,gca_discrimination,2022.2.4,143.9155387550169,
positions.xlsx,stimuli.xlsx,test.xlsx,stimuli/Social1.png,stimuli/Social2.png,stimuli/Nonsocial1.png,stimuli/Nonsocial2.png,stimuli/Test1.png,stimuli/Test2.png,"(-0.7, -0.5)",cs_plus_s,"(0.7, -0.5)",cs_minus_s,0,0,0,0,,,,,0,21,21,5,,,,,,,,,,,,,,,176.09885839995695,177.10574899998028,177.10574899998028,177.25157089997083,177.75847679999424,177.75847679999424,177.90429159998894,l,0.37047399999573827,correct,,178.28625549998833,179.1473412999767,177.10574899998028,,,,,,,,,,,,18,A,2023-12-11_12h51.51.022,gca_discrimination,2022.2.4,143.9155387550169,
positions.xlsx,stimuli.xlsx,test.xlsx,stimuli/Social1.png,stimuli/Social2.png,stimuli/Nonsocial1.png,stimuli/Nonsocial2.png,stimuli/Test1.png,stimuli/Test2.png,"(-0.7, 0.5)",cs_plus_ns,"(-0.7, -0.5)",cs_minus_ns,0,0,0,0,,,,,0,22,22,24,,,,,,,,,,,,,,,179.1473412999767,180.15424919995712,180.15424919995712,180.30004719999852,180.80695309996372,180.80695309996372,180.9528010999784,l,0.3535346999997273,correct,,181.31387969997013,181.77224560000468,180.15424919995712,,,,,,,,,,,,18,A,2023-12-11_12h51.51.022,gca_discrimination,2022.2.4,143.9155387550169,
positions.xlsx,stimuli.xlsx,test.xlsx,stimuli/Social1.png,stimuli/Social2.png,stimuli/Nonsocial1.png,stimuli/Nonsocial2.png,stimuli/Test1.png,stimuli/Test2.png,"(-0.7, -0.5)",cs_minus_s,"(0.7, 0.5)",cs_plus_s,0,0,0,0,,,,,0,23,23,16,,,,,,,,,,,,,,,181.77224560000468,182.77911780000431,182.77911780000431,182.92490039998665,183.4318563999841,183.4318563999841,183.5776823000051,l,0.4331862999824807,correct,,184.02213810000103,184.3971264999709,182.77911780000431,,,,,,,,,,,,18,A,2023-12-11_12h51.51.022,gca_discrimination,2022.2.4,143.9155387550169,
positions.xlsx,stimuli.xlsx,test.xlsx,stimuli/Social1.png,stimuli/Social2.png,stimuli/Nonsocial1.png,stimuli/Nonsocial2.png,stimuli/Test1.png,stimuli/Test2.png,"(-0.7, -0.5)",cs_plus_ns,"(0.7, 0.5)",cs_plus_ns,0,0,0,0,,,,,0,24,24,76,,,,,,,,,,,,,,,184.3971264999709,185.4040466999868,185.4040466999868,185.54984940000577,186.0567735999939,186.0567735999939,186.2026090999716,ä,0.41592450003372505,correct,,186.62618949997704,187.48032530001365,185.4040466999868,,,,,,,,,,,,18,A,2023-12-11_12h51.51.022,gca_discrimination,2022.2.4,143.9155387550169,
positions.xlsx,stimuli.xlsx,test.xlsx,stimuli/Social1.png,stimuli/Social2.png,stimuli/Nonsocial1.png,stimuli/Nonsocial2.png,stimuli/Test1.png,stimuli/Test2.png,"(0.7, -0.5)",cs_minus_s,"(-0.7, -0.5)",cs_plus_s,0,0,0,0,,,,,0,25,25,22,,,,,,,,,,,,,,,187.48032530001365,188.4872299999697,188.4872299999697,188.63306869997177,189.1399856999633,189.1399856999633,189.2858511999948,l,0.5969921000069007,correct,,189.8899539000122,190.84130799997365,188.4872299999697,,,,,,,,,,,,18,A,2023-12-11_12h51.51.022,gca_discrimination,2022.2.4,143.9155387550169,
positions.xlsx,stimuli.xlsx,test.xlsx,stimuli/Social1.png,stimuli/Social2.png,stimuli/Nonsocial1.png,stimuli/Nonsocial2.png,stimuli/Test1.png,stimuli/Test2.png,"(0.7, 0.5)",cs_minus_ns,"(-0.7, -0.5)",cs_plus_ns,0,0,0,0,,,,,0,26,26,43,,,,,,,,,,,,,,,190.84130799997365,191.84825009998167,191.84825009998167,191.9940399999614,192.50098399998387,192.50098399998387,192.64681689999998,l,0.4122352999984287,correct,,193.07038349995855,194.00095919996966,191.84825009998167,,,,,,,,,,,,18,A,2023-12-11_12h51.51.022,gca_discrimination,2022.2.4,143.9155387550169,
positions.xlsx,stimuli.xlsx,test.xlsx,stimuli/Social1.png,stimuli/Social2.png,stimuli/Nonsocial1.png,stimuli/Nonsocial2.png,stimuli/Test1.png,stimuli/Test2.png,"(-0.7, 0.5)",cs_minus_ns,"(0.7, 0.5)",cs_minus_ns,0,0,0,0,,,,,0,27,27,85,,,,,,,,,,,,,,,194.00095919996966,195.00785579998046,195.00785579998046,195.15364069998031,195.66054549999535,195.66054549999535,195.80639059998794,ä,0.40438279998488724,correct,,196.22301670000888,196.60497779998695,195.00785579998046,,,,,,,,,,,,18,A,2023-12-11_12h51.51.022,gca_discrimination,2022.2.4,143.9155387550169,
positions.xlsx,stimuli.xlsx,test.xlsx,stimuli/Social1.png,stimuli/Social2.png,stimuli/Nonsocial1.png,stimuli/Nonsocial2.png,stimuli/Test1.png,stimuli/Test2.png,"(0.7, -0.5)",cs_minus_ns,"(-0.7, 0.5)",cs_minus_ns,0,0,0,0,,,,,0,28,28,93,,,,,,,,,,,,,,,196.60497779998695,197.61196439998457,197.61196439998457,197.75774129998172,198.26468809996732,198.26468809996732,198.41046639997512,ä,0.4002990000299178,correct,,198.82016199995996,199.32013700000243,197.61196439998457,,,,,,,,,,,,18,A,2023-12-11_12h51.51.022,gca_discrimination,2022.2.4,143.9155387550169,
positions.xlsx,stimuli.xlsx,test.xlsx,stimuli/Social1.png,stimuli/Social2.png,stimuli/Nonsocial1.png,stimuli/Nonsocial2.png,stimuli/Test1.png,stimuli/Test2.png,"(-0.7, 0.5)",cs_minus_ns,"(0.7, -0.5)",cs_plus_ns,0,0,0,0,,,,,0,29,29,38,,,,,,,,,,,,,,,199.32013700000243,200.3270988999866,200.3270988999866,200.47287860000506,200.97980909998296,200.97980909998296,201.12561170000117,l,0.35745859995950013,correct,,201.4936558000045,201.70896139997058,200.3270988999866,,,,,,,,,,,,18,A,2023-12-11_12h51.51.022,gca_discrimination,2022.2.4,143.9155387550169,
positions.xlsx,stimuli.xlsx,test.xlsx,stimuli/Social1.png,stimuli/Social2.png,stimuli/Nonsocial1.png,stimuli/Nonsocial2.png,stimuli/Test1.png,stimuli/Test2.png,"(-0.7, 0.5)",cs_minus_s,"(0.7, 0.5)",cs_plus_s,0,0,0,0,,,,,0,30,30,13,,,,,,,,,,,,,,,201.70896139997058,202.71592069999315,202.71592069999315,202.86167979997117,203.36859189998358,203.36859189998358,203.51443669997388,l,0.32813800004078075,correct,,203.85467849997804,204.59079350001412,202.71592069999315,,,,,,,,,,,,18,A,2023-12-11_12h51.51.022,gca_discrimination,2022.2.4,143.9155387550169,
positions.xlsx,stimuli.xlsx,test.xlsx,stimuli/Social1.png,stimuli/Social2.png,stimuli/Nonsocial1.png,stimuli/Nonsocial2.png,stimuli/Test1.png,stimuli/Test2.png,"(0.7, -0.5)",cs_minus_ns,"(-0.7, -0.5)",cs_minus_ns,0,0,0,0,,,,,0,31,31,94,,,,,,,,,,,,,,,204.59079350001412,205.5976864999975,205.5976864999975,205.74352550000185,206.25042629998643,206.25042629998643,206.3962889999966,ä,0.2791533999843523,correct,,206.68789719999768,207.41010280000046,205.5976864999975,,,,,,,,,,,,18,A,2023-12-11_12h51.51.022,gca_discrimination,2022.2.4,143.9155387550169,
positions.xlsx,stimuli.xlsx,test.xlsx,stimuli/Social1.png,stimuli/Social2.png,stimuli/Nonsocial1.png,stimuli/Nonsocial2.png,stimuli/Test1.png,stimuli/Test2.png,"(-0.7, -0.5)",cs_minus_ns,"(0.7, -0.5)",cs_minus_ns,0,0,0,0,,,,,0,32,32,89,,,,,,,,,,,,,,,207.41010280000046,208.41701559996,208.41701559996,208.56288300000597,209.06975769996643,209.06975769996643,209.21562269999413,ä,0.26733729999978095,correct,,209.4933449999662,209.84056929999497,208.41701559996,,,,,,,,,,,,18,A,2023-12-11_12h51.51.022,gca_discrimination,2022.2.4,143.9155387550169,
positions.xlsx,stimuli.xlsx,test.xlsx,stimuli/Social1.png,stimuli/Social2.png,stimuli/Nonsocial1.png,stimuli/Nonsocial2.png,stimuli/Test1.png,stimuli/Test2.png,"(0.7, -0.5)",cs_minus_s,"(-0.7, 0.5)",cs_minus_s,0,0,0,0,,,,,0,33,33,69,,,,,,,,,,,,,,,209.84056929999497,210.84749069996178,210.84749069996178,210.99326979997568,211.50023539998801,211.50023539998801,211.64606459997594,ä,0.3102370999986306,correct,,211.96548680000706,212.01409650000278,210.84749069996178,,,,,,,,,,,,18,A,2023-12-11_12h51.51.022,gca_discrimination,2022.2.4,143.9155387550169,
positions.xlsx,stimuli.xlsx,test.xlsx,stimuli/Social1.png,stimuli/Social2.png,stimuli/Nonsocial1.png,stimuli/Nonsocial2.png,stimuli/Test1.png,stimuli/Test2.png,"(0.7, 0.5)",cs_minus_s,"(-0.7, 0.5)",cs_minus_s,0,0,0,0,,,,,0,34,34,66,,,,,,,,,,,,,,,212.01409650000278,213.02100969996536,213.02100969996536,213.16682809998747,213.67377449997002,213.67377449997002,213.8195807999582,ä,0.287262300029397,correct,,214.1181832999573,214.21540759998607,213.02100969996536,,,,,,,,,,,,18,A,2023-12-11_12h51.51.022,gca_discrimination,2022.2.4,143.9155387550169,
positions.xlsx,stimuli.xlsx,test.xlsx,stimuli/Social1.png,stimuli/Social2.png,stimuli/Nonsocial1.png,stimuli/Nonsocial2.png,stimuli/Test1.png,stimuli/Test2.png,"(-0.7, 0.5)",cs_plus_s,"(0.7, -0.5)",cs_plus_s,0,0,0,0,,,,,0,35,35,50,,,,,,,,,,,,,,,214.21540759998607,215.2223102999851,215.2223102999851,215.36811639997177,215.87506059999578,215.87506059999578,216.0208874999662,ä,0.3907402000040747,correct,,216.42367019999074,216.5486280999612,215.2223102999851,,,,,,,,,,,,18,A,2023-12-11_12h51.51.022,gca_discrimination,2022.2.4,143.9155387550169,
positions.xlsx,stimuli.xlsx,test.xlsx,stimuli/Social1.png,stimuli/Social2.png,stimuli/Nonsocial1.png,stimuli/Nonsocial2.png,stimuli/Test1.png,stimuli/Test2.png,"(-0.7, 0.5)",cs_minus_s,"(-0.7, -0.5)",cs_minus_s,0,0,0,0,,,,,0,36,36,60,,,,,,,,,,,,,,,216.5486280999612,217.55550959997345,217.55550959997345,217.7013597000041,218.20831819996238,218.20831819996238,218.3541370999883,ä,0.3288607000140473,correct,,218.6944009999861,219.65962569997646,217.55550959997345,,,,,,,,,,,,18,A,2023-12-11_12h51.51.022,gca_discrimination,2022.2.4,143.9155387550169,
positions.xlsx,stimuli.xlsx,test.xlsx,stimuli/Social1.png,stimuli/Social2.png,stimuli/Nonsocial1.png,stimuli/Nonsocial2.png,stimuli/Test1.png,stimuli/Test2.png,"(0.7, 0.5)",cs_plus_s,"(-0.7, -0.5)",cs_plus_s,0,0,0,0,,,,,0,37,37,55,,,,,,,,,,,,,,,219.65962569997646,220.6665573999635,220.6665573999635,220.81240049999906,221.31930259999353,221.31930259999353,221.46512040001107,ä,0.36152440001023933,correct,,221.84010390000185,222.68729879998136,220.6665573999635,,,,,,,,,,,,18,A,2023-12-11_12h51.51.022,gca_discrimination,2022.2.4,143.9155387550169,
positions.xlsx,stimuli.xlsx,test.xlsx,stimuli/Social1.png,stimuli/Social2.png,stimuli/Nonsocial1.png,stimuli/Nonsocial2.png,stimuli/Test1.png,stimuli/Test2.png,"(-0.7, 0.5)",cs_plus_ns,"(0.7, 0.5)",cs_minus_ns,0,0,0,0,,,,,0,38,38,25,,,,,,,,,,,,,,,222.68729879998136,223.69420319999335,223.69420319999335,223.84004989999812,224.34695039998041,224.34695039998041,224.4927799999714,l,0.32666970003629103,correct,,224.83305169997038,225.7774420999922,223.69420319999335,,,,,,,,,,,,18,A,2023-12-11_12h51.51.022,gca_discrimination,2022.2.4,143.9155387550169,
positions.xlsx,stimuli.xlsx,test.xlsx,stimuli/Social1.png,stimuli/Social2.png,stimuli/Nonsocial1.png,stimuli/Nonsocial2.png,stimuli/Test1.png,stimuli/Test2.png,"(0.7, 0.5)",cs_plus_ns,"(0.7, -0.5)",cs_plus_ns,0,0,0,0,,,,,0,39,39,80,,,,,,,,,,,,,,,225.7774420999922,226.78434789995663,226.78434789995663,226.93016649998026,227.43710889999056,227.43710889999056,227.58292909996817,ä,0.4291014000191353,correct,,228.02041860000463,228.63846990000457,226.78434789995663,,,,,,,,,,,,18,A,2023-12-11_12h51.51.022,gca_discrimination,2022.2.4,143.9155387550169,
positions.xlsx,stimuli.xlsx,test.xlsx,stimuli/Social1.png,stimuli/Social2.png,stimuli/Nonsocial1.png,stimuli/Nonsocial2.png,stimuli/Test1.png,stimuli/Test2.png,"(0.7, -0.5)",cs_minus_ns,"(-0.7, 0.5)",cs_plus_ns,0,0,0,0,,,,,0,40,40,45,,,,,,,,,,,,,,,228.63846990000457,229.64537849999033,229.64537849999033,229.7911740000127,230.29809449997265,230.29809449997265,230.44392669998342,l,0.31101280002621934,correct,,230.7633538999944,231.73554439999862,229.64537849999033,,,,,,,,,,,,18,A,2023-12-11_12h51.51.022,gca_discrimination,2022.2.4,143.9155387550169,
positions.xlsx,stimuli.xlsx,test.xlsx,stimuli/Social1.png,stimuli/Social2.png,stimuli/Nonsocial1.png,stimuli/Nonsocial2.png,stimuli/Test1.png,stimuli/Test2.png,"(0.7, -0.5)",cs_minus_s,"(0.7, 0.5)",cs_minus_s,0,0,0,0,,,,,0,41,41,71,,,,,,,,,,,,,,,231.73554439999862,232.74246049998328,232.74246049998328,232.88829779997468,233.3951961999992,233.3951961999992,233.54104139999254,ä,0.3433456000057049,correct,,233.89520099997753,234.8673729999573,232.74246049998328,,,,,,,,,,,,18,A,2023-12-11_12h51.51.022,gca_discrimination,2022.2.4,143.9155387550169,
positions.xlsx,stimuli.xlsx,test.xlsx,stimuli/Social1.png,stimuli/Social2.png,stimuli/Nonsocial1.png,stimuli/Nonsocial2.png,stimuli/Test1.png,stimuli/Test2.png,"(-0.7, -0.5)",cs_minus_ns,"(-0.7, 0.5)",cs_minus_ns,0,0,0,0,,,,,0,42,42,87,,,,,,,,,,,,,,,234.8673729999573,235.87428789999103,235.87428789999103,236.02011599997059,236.52703549998114,236.52703549998114,236.67286519997288,ä,0.31352540000807494,correct,,236.9992387999664,237.86032049998175,235.87428789999103,,,,,,,,,,,,18,A,2023-12-11_12h51.51.022,gca_discrimination,2022.2.4,143.9155387550169,
positions.xlsx,stimuli.xlsx,test.xlsx,stimuli/Social1.png,stimuli/Social2.png,stimuli/Nonsocial1.png,stimuli/Nonsocial2.png,stimuli/Test1.png,stimuli/Test2.png,"(0.7, -0.5)",cs_minus_ns,"(0.7, 0.5)",cs_minus_ns,0,0,0,0,,,,,0,43,43,95,,,,,,,,,,,,,,,237.86032049998175,238.86722700000973,238.86722700000973,239.0130454999744,239.5199760000105,239.5199760000105,239.66579060000367,ä,0.24062419997062534,correct,,239.9157946999767,240.20745819999138,238.86722700000973,,,,,,,,,,,,18,A,2023-12-11_12h51.51.022,gca_discrimination,2022.2.4,143.9155387550169,
positions.xlsx,stimuli.xlsx,test.xlsx,stimuli/Social1.png,stimuli/Social2.png,stimuli/Nonsocial1.png,stimuli/Nonsocial2.png,stimuli/Test1.png,stimuli/Test2.png,"(-0.7, -0.5)",cs_minus_s,"(0.7, -0.5)",cs_minus_s,0,0,0,0,,,,,0,44,44,65,,,,,,,,,,,,,,,240.20745819999138,241.21434710000176,241.21434710000176,241.36019219999434,241.86708240001462,241.86708240001462,242.0129326999886,ä,0.2697891999850981,correct,,242.2906828999985,242.3323812999879,241.21434710000176,,,,,,,,,,,,18,A,2023-12-11_12h51.51.022,gca_discrimination,2022.2.4,143.9155387550169,
positions.xlsx,stimuli.xlsx,test.xlsx,stimuli/Social1.png,stimuli/Social2.png,stimuli/Nonsocial1.png,stimuli/Nonsocial2.png,stimuli/Test1.png,stimuli/Test2.png,"(0.7, 0.5)",cs_minus_s,"(-0.7, -0.5)",cs_minus_s,0,0,0,0,,,,,0,45,45,67,,,,,,,,,,,,,,,242.3323812999879,243.33925009996165,243.33925009996165,243.4850870000082,243.9920161999762,243.9920161999762,244.1378405999858,ä,0.22512779996031895,correct,,244.37394199997652,245.2489112999756,243.33925009996165,,,,,,,,,,,,18,A,2023-12-11_12h51.51.022,gca_discrimination,2022.2.4,143.9155387550169,
positions.xlsx,stimuli.xlsx,test.xlsx,stimuli/Social1.png,stimuli/Social2.png,stimuli/Nonsocial1.png,stimuli/Nonsocial2.png,stimuli/Test1.png,stimuli/Test2.png,"(0.7, -0.5)",cs_plus_s,"(-0.7, -0.5)",cs_minus_s,0,0,0,0,,,,,0,46,46,10,,,,,,,,,,,,,,,245.2489112999756,246.25583019998157,246.25583019998157,246.40164719999302,246.90860169997904,246.90860169997904,247.0544138000114,l,0.42892019997816533,correct,,247.4918865999789,248.3599198999582,246.25583019998157,,,,,,,,,,,,18,A,2023-12-11_12h51.51.022,gca_discrimination,2022.2.4,143.9155387550169,
positions.xlsx,stimuli.xlsx,test.xlsx,stimuli/Social1.png,stimuli/Social2.png,stimuli/Nonsocial1.png,stimuli/Nonsocial2.png,stimuli/Test1.png,stimuli/Test2.png,"(-0.7, 0.5)",cs_minus_s,"(0.7, -0.5)",cs_plus_s,0,0,0,0,,,,,0,47,47,14,,,,,,,,,,,,,,,248.3599198999582,249.36678330000723,249.36678330000723,249.51262749999296,250.01955899997847,250.01955899997847,250.16536139999516,l,0.5337831000215374,correct,,250.7070495999651,251.3320146999904,249.36678330000723,,,,,,,,,,,,18,A,2023-12-11_12h51.51.022,gca_discrimination,2022.2.4,143.9155387550169,
positions.xlsx,stimuli.xlsx,test.xlsx,stimuli/Social1.png,stimuli/Social2.png,stimuli/Nonsocial1.png,stimuli/Nonsocial2.png,stimuli/Test1.png,stimuli/Test2.png,"(0.7, -0.5)",cs_plus_s,"(-0.7, -0.5)",cs_plus_s,0,0,0,0,,,,,0,48,48,58,,,,,,,,,,,,,,,251.3320146999904,252.33892539999215,252.33892539999215,252.48473949998152,252.9916725999792,252.9916725999792,253.13751959998626,ä,0.33768429997144267,correct,,253.48467179998988,253.9013530999655,252.33892539999215,,,,,,,,,,,,18,A,2023-12-11_12h51.51.022,gca_discrimination,2022.2.4,143.9155387550169,
positions.xlsx,stimuli.xlsx,test.xlsx,stimuli/Social1.png,stimuli/Social2.png,stimuli/Nonsocial1.png,stimuli/Nonsocial2.png,stimuli/Test1.png,stimuli/Test2.png,"(-0.7, 0.5)",cs_plus_ns,"(0.7, -0.5)",cs_plus_ns,0,0,0,0,,,,,0,49,49,74,,,,,,,,,,,,,,,253.9013530999655,254.90827309997985,254.90827309997985,255.05409250000957,255.56107279995922,255.56107279995922,255.70681850000983,ä,0.23176439997041598,correct,,255.949882099987,256.2970892000012,254.90827309997985,,,,,,,,,,,,18,A,2023-12-11_12h51.51.022,gca_discrimination,2022.2.4,143.9155387550169,
positions.xlsx,stimuli.xlsx,test.xlsx,stimuli/Social1.png,stimuli/Social2.png,stimuli/Nonsocial1.png,stimuli/Nonsocial2.png,stimuli/Test1.png,stimuli/Test2.png,"(-0.7, -0.5)",cs_minus_ns,"(0.7, 0.5)",cs_minus_ns,0,0,0,0,,,,,0,50,50,88,,,,,,,,,,,,,,,256.2970892000012,257.3039964999771,257.3039964999771,257.449844399991,257.9567541999859,257.9567541999859,258.10257270000875,ä,0.40431479999097064,correct,,258.51919550000457,259.2066617999808,257.3039964999771,,,,,,,,,,,,18,A,2023-12-11_12h51.51.022,gca_discrimination,2022.2.4,143.9155387550169,
positions.xlsx,stimuli.xlsx,test.xlsx,stimuli/Social1.png,stimuli/Social2.png,stimuli/Nonsocial1.png,stimuli/Nonsocial2.png,stimuli/Test1.png,stimuli/Test2.png,"(0.7, -0.5)",cs_minus_ns,"(0.7, 0.5)",cs_plus_ns,0,0,0,0,,,,,0,51,51,47,,,,,,,,,,,,,,,259.2066617999808,260.21363349998137,260.21363349998137,260.359435499995,260.8663724999642,260.8663724999642,261.01223059999757,l,0.23125599999912083,correct,,261.2552432999946,262.09546649997355,260.21363349998137,,,,,,,,,,,,18,A,2023-12-11_12h51.51.022,gca_discrimination,2022.2.4,143.9155387550169,
positions.xlsx,stimuli.xlsx,test.xlsx,stimuli/Social1.png,stimuli/Social2.png,stimuli/Nonsocial1.png,stimuli/Nonsocial2.png,stimuli/Test1.png,stimuli/Test2.png,"(0.7, 0.5)",cs_plus_ns,"(-0.7, -0.5)",cs_plus_ns,0,0,0,0,,,,,0,52,52,79,,,,,,,,,,,,,,,262.09546649997355,263.10238589998335,263.10238589998335,263.2482004999765,263.7551439999952,263.7551439999952,263.900959599996,ä,0.27885060000699013,correct,,264.19260949996533,264.7342577999807,263.10238589998335,,,,,,,,,,,,18,A,2023-12-11_12h51.51.022,gca_discrimination,2022.2.4,143.9155387550169,
positions.xlsx,stimuli.xlsx,test.xlsx,stimuli/Social1.png,stimuli/Social2.png,stimuli/Nonsocial1.png,stimuli/Nonsocial2.png,stimuli/Test1.png,stimuli/Test2.png,"(-0.7, -0.5)",cs_minus_s,"(-0.7, 0.5)",cs_plus_s,0,0,0,0,,,,,0,53,53,15,,,,,,,,,,,,,,,264.7342577999807,265.74113899999065,265.74113899999065,265.88699239998823,266.39389649999794,266.39389649999794,266.53971019998426,l,0.34325580002041534,correct,,266.8939087999752,267.6507807999733,265.74113899999065,,,,,,,,,,,,18,A,2023-12-11_12h51.51.022,gca_discrimination,2022.2.4,143.9155387550169,
positions.xlsx,stimuli.xlsx,test.xlsx,stimuli/Social1.png,stimuli/Social2.png,stimuli/Nonsocial1.png,stimuli/Nonsocial2.png,stimuli/Test1.png,stimuli/Test2.png,"(0.7, 0.5)",cs_minus_s,"(-0.7, -0.5)",cs_plus_s,0,0,0,0,,,,,0,54,54,19,,,,,,,,,,,,,,,267.6507807999733,268.6577180000022,268.6577180000022,268.8035724000074,269.3104839999578,269.3104839999578,269.45631029998185,l,0.4840344000258483,correct,,269.94932909996714,270.9006528999889,268.6577180000022,,,,,,,,,,,,18,A,2023-12-11_12h51.51.022,gca_discrimination,2022.2.4,143.9155387550169,
positions.xlsx,stimuli.xlsx,test.xlsx,stimuli/Social1.png,stimuli/Social2.png,stimuli/Nonsocial1.png,stimuli/Nonsocial2.png,stimuli/Test1.png,stimuli/Test2.png,"(-0.7, 0.5)",cs_minus_ns,"(-0.7, -0.5)",cs_minus_ns,0,0,0,0,,,,,0,55,55,84,,,,,,,,,,,,,,,270.9006528999889,271.9075935999863,271.9075935999863,272.053400099976,272.5603273999877,272.5603273999877,272.7061941999709,ä,0.28858210000908,correct,,273.00479350000387,273.35889049997786,271.9075935999863,,,,,,,,,,,,18,A,2023-12-11_12h51.51.022,gca_discrimination,2022.2.4,143.9155387550169,
positions.xlsx,stimuli.xlsx,test.xlsx,stimuli/Social1.png,stimuli/Social2.png,stimuli/Nonsocial1.png,stimuli/Nonsocial2.png,stimuli/Test1.png,stimuli/Test2.png,"(-0.7, 0.5)",cs_minus_ns,"(0.7, 0.5)",cs_plus_ns,0,0,0,0,,,,,0,56,56,37,,,,,,,,,,,,,,,273.35889049997786,274.3658480999875,274.3658480999875,274.5116460999707,275.01859369996237,275.01859369996237,275.16440670000156,l,0.24638349999440834,correct,,275.4213579999632,276.4143270999775,274.3658480999875,,,,,,,,,,,,18,A,2023-12-11_12h51.51.022,gca_discrimination,2022.2.4,143.9155387550169,
positions.xlsx,stimuli.xlsx,test.xlsx,stimuli/Social1.png,stimuli/Social2.png,stimuli/Nonsocial1.png,stimuli/Nonsocial2.png,stimuli/Test1.png,stimuli/Test2.png,"(-0.7, -0.5)",cs_minus_s,"(-0.7, 0.5)",cs_minus_s,0,0,0,0,,,,,0,57,57,63,,,,,,,,,,,,,,,276.4143270999775,277.4212653999566,277.4212653999566,277.56709659995977,278.07405049999943,278.07405049999943,278.2198425999959,ä,0.2873196000000462,correct,,278.51844469999196,279.0600761999958,277.4212653999566,,,,,,,,,,,,18,A,2023-12-11_12h51.51.022,gca_discrimination,2022.2.4,143.9155387550169,
positions.xlsx,stimuli.xlsx,test.xlsx,stimuli/Social1.png,stimuli/Social2.png,stimuli/Nonsocial1.png,stimuli/Nonsocial2.png,stimuli/Test1.png,stimuli/Test2.png,"(-0.7, 0.5)",cs_plus_ns,"(0.7, -0.5)",cs_minus_ns,0,0,0,0,,,,,0,58,58,26,,,,,,,,,,,,,,,279.0600761999958,280.06701489997795,280.06701489997795,280.2127898999606,280.7197418999858,280.7197418999858,280.8655748000019,l,0.3299958999850787,correct,,281.20582049997756,281.37941009999486,280.06701489997795,,,,,,,,,,,,18,A,2023-12-11_12h51.51.022,gca_discrimination,2022.2.4,143.9155387550169,
positions.xlsx,stimuli.xlsx,test.xlsx,stimuli/Social1.png,stimuli/Social2.png,stimuli/Nonsocial1.png,stimuli/Nonsocial2.png,stimuli/Test1.png,stimuli/Test2.png,"(0.7, -0.5)",cs_plus_s,"(-0.7, 0.5)",cs_plus_s,0,0,0,0,,,,,0,59,59,57,,,,,,,,,,,,,,,281.37941009999486,282.3863438999979,282.3863438999979,282.5321425999864,283.03907269996125,283.03907269996125,283.18491879996145,ä,0.35369730001548305,correct,,283.54602179996436,283.65018170000985,282.3863438999979,,,,,,,,,,,,18,A,2023-12-11_12h51.51.022,gca_discrimination,2022.2.4,143.9155387550169,
positions.xlsx,stimuli.xlsx,test.xlsx,stimuli/Social1.png,stimuli/Social2.png,stimuli/Nonsocial1.png,stimuli/Nonsocial2.png,stimuli/Test1.png,stimuli/Test2.png,"(0.7, 0.5)",cs_plus_s,"(0.7, -0.5)",cs_plus_s,0,0,0,0,,,,,0,60,60,56,,,,,,,,,,,,,,,283.65018170000985,284.6570934999618,284.6570934999618,284.8029501999845,285.3098630000022,285.3098630000022,285.45564749999903,ä,0.3234667000360787,correct,,285.7889781999984,286.7403491999721,284.6570934999618,,,,,,,,,,,,18,A,2023-12-11_12h51.51.022,gca_discrimination,2022.2.4,143.9155387550169,
positions.xlsx,stimuli.xlsx,test.xlsx,stimuli/Social1.png,stimuli/Social2.png,stimuli/Nonsocial1.png,stimuli/Nonsocial2.png,stimuli/Test1.png,stimuli/Test2.png,"(-0.7, 0.5)",cs_minus_s,"(0.7, 0.5)",cs_minus_s,0,0,0,0,,,,,0,61,61,61,,,,,,,,,,,,,,,286.7403491999721,287.7472602999769,287.7472602999769,287.89308379997965,288.3999761999585,288.3999761999585,288.54582759999903,ä,0.31450859998585656,correct,,288.8722085999907,289.4902304999996,287.7472602999769,,,,,,,,,,,,18,A,2023-12-11_12h51.51.022,gca_discrimination,2022.2.4,143.9155387550169,
positions.xlsx,stimuli.xlsx,test.xlsx,stimuli/Social1.png,stimuli/Social2.png,stimuli/Nonsocial1.png,stimuli/Nonsocial2.png,stimuli/Test1.png,stimuli/Test2.png,"(-0.7, 0.5)",cs_minus_ns,"(0.7, -0.5)",cs_minus_ns,0,0,0,0,,,,,0,62,62,86,,,,,,,,,,,,,,,289.4902304999996,290.4971171999932,290.4971171999932,290.6429342000047,291.14987919997657,291.14987919997657,291.29572100000223,ä,0.21258489997126162,correct,,291.51793059997726,291.92070959997363,290.4971171999932,,,,,,,,,,,,18,A,2023-12-11_12h51.51.022,gca_discrimination,2022.2.4,143.9155387550169,
positions.xlsx,stimuli.xlsx,test.xlsx,stimuli/Social1.png,stimuli/Social2.png,stimuli/Nonsocial1.png,stimuli/Nonsocial2.png,stimuli/Test1.png,stimuli/Test2.png,"(-0.7, 0.5)",cs_minus_s,"(0.7, -0.5)",cs_minus_s,0,0,0,0,,,,,0,63,63,62,,,,,,,,,,,,,,,291.92070959997363,292.92759739997564,292.92759739997564,293.0734225999913,293.58035070000915,293.58035070000915,293.7261984999641,ä,0.23669210000662133,correct,,293.97617189999437,294.15671609999845,292.92759739997564,,,,,,,,,,,,18,A,2023-12-11_12h51.51.022,gca_discrimination,2022.2.4,143.9155387550169,
positions.xlsx,stimuli.xlsx,test.xlsx,stimuli/Social1.png,stimuli/Social2.png,stimuli/Nonsocial1.png,stimuli/Nonsocial2.png,stimuli/Test1.png,stimuli/Test2.png,"(-0.7, 0.5)",cs_plus_s,"(0.7, -0.5)",cs_minus_s,0,0,0,0,,,,,0,64,64,2,,,,,,,,,,,,,,,294.15671609999845,295.1636504000053,295.1636504000053,295.3094704999821,295.81635099998675,295.81635099998675,295.96217039995827,l,0.29683700000168756,correct,,296.2677457999671,297.07328199996846,295.1636504000053,,,,,,,,,,,,18,A,2023-12-11_12h51.51.022,gca_discrimination,2022.2.4,143.9155387550169,
positions.xlsx,stimuli.xlsx,test.xlsx,stimuli/Social1.png,stimuli/Social2.png,stimuli/Nonsocial1.png,stimuli/Nonsocial2.png,stimuli/Test1.png,stimuli/Test2.png,"(0.7, -0.5)",cs_plus_ns,"(-0.7, -0.5)",cs_minus_ns,0,0,0,0,,,,,0,65,65,34,,,,,,,,,,,,,,,297.07328199996846,298.08018920000177,298.08018920000177,298.2259991999599,298.73291689995676,298.73291689995676,298.8787616000045,l,0.2764232999761589,correct,,299.16347510000924,299.9689991999767,298.08018920000177,,,,,,,,,,,,18,A,2023-12-11_12h51.51.022,gca_discrimination,2022.2.4,143.9155387550169,
positions.xlsx,stimuli.xlsx,test.xlsx,stimuli/Social1.png,stimuli/Social2.png,stimuli/Nonsocial1.png,stimuli/Nonsocial2.png,stimuli/Test1.png,stimuli/Test2.png,"(-0.7, -0.5)",cs_minus_s,"(0.7, -0.5)",cs_plus_s,0,0,0,0,,,,,0,66,66,17,,,,,,,,,,,,,,,299.9689991999767,300.97591089998605,300.97591089998605,301.12176599999657,301.6286414999631,301.6286414999631,301.7744796999614,l,0.34020880004391074,correct,,302.12169619998895,302.5383288000012,300.97591089998605,,,,,,,,,,,,18,A,2023-12-11_12h51.51.022,gca_discrimination,2022.2.4,143.9155387550169,
positions.xlsx,stimuli.xlsx,test.xlsx,stimuli/Social1.png,stimuli/Social2.png,stimuli/Nonsocial1.png,stimuli/Nonsocial2.png,stimuli/Test1.png,stimuli/Test2.png,"(-0.7, 0.5)",cs_plus_ns,"(0.7, 0.5)",cs_plus_ns,0,0,0,0,,,,,0,67,67,73,,,,,,,,,,,,,,,302.5383288000012,303.5452423999668,303.5452423999668,303.69109949999256,304.19800729997223,304.19800729997223,304.34383369999705,ä,0.19597679999424145,correct,,304.55212599999504,304.6216023999732,303.5452423999668,,,,,,,,,,,,18,A,2023-12-11_12h51.51.022,gca_discrimination,2022.2.4,143.9155387550169,
positions.xlsx,stimuli.xlsx,test.xlsx,stimuli/Social1.png,stimuli/Social2.png,stimuli/Nonsocial1.png,stimuli/Nonsocial2.png,stimuli/Test1.png,stimuli/Test2.png,"(0.7, -0.5)",cs_plus_ns,"(-0.7, -0.5)",cs_plus_ns,0,0,0,0,,,,,0,68,68,82,,,,,,,,,,,,,,,304.6216023999732,305.62849219999043,305.62849219999043,305.7743359999731,306.2813231999753,306.2813231999753,306.4270755999605,ä,0.3033680999651551,correct,,306.7395779999788,307.1423072000034,305.62849219999043,,,,,,,,,,,,18,A,2023-12-11_12h51.51.022,gca_discrimination,2022.2.4,143.9155387550169,
positions.xlsx,stimuli.xlsx,test.xlsx,stimuli/Social1.png,stimuli/Social2.png,stimuli/Nonsocial1.png,stimuli/Nonsocial2.png,stimuli/Test1.png,stimuli/Test2.png,"(-0.7, -0.5)",cs_plus_ns,"(0.7, -0.5)",cs_minus_ns,0,0,0,0,,,,,0,69,69,29,,,,,,,,,,,,,,,307.1423072000034,308.14925079996465,308.14925079996465,308.29505549999885,308.80196369998157,308.80196369998157,308.94781549996696,l,0.28688759997021407,correct,,309.2464145999984,309.39221399999224,308.14925079996465,,,,,,,,,,,,18,A,2023-12-11_12h51.51.022,gca_discrimination,2022.2.4,143.9155387550169,
positions.xlsx,stimuli.xlsx,test.xlsx,stimuli/Social1.png,stimuli/Social2.png,stimuli/Nonsocial1.png,stimuli/Nonsocial2.png,stimuli/Test1.png,stimuli/Test2.png,"(0.7, -0.5)",cs_plus_ns,"(-0.7, 0.5)",cs_minus_ns,0,0,0,0,,,,,0,70,70,33,,,,,,,,,,,,,,,309.39221399999224,310.39913959999103,310.39913959999103,310.5449737999588,311.05190919997403,311.05190919997403,311.19771079998463,l,0.5013722000294365,correct,,311.7115899999626,312.669854399981,310.39913959999103,,,,,,,,,,,,18,A,2023-12-11_12h51.51.022,gca_discrimination,2022.2.4,143.9155387550169,
positions.xlsx,stimuli.xlsx,test.xlsx,stimuli/Social1.png,stimuli/Social2.png,stimuli/Nonsocial1.png,stimuli/Nonsocial2.png,stimuli/Test1.png,stimuli/Test2.png,"(-0.7, -0.5)",cs_minus_s,"(0.7, 0.5)",cs_minus_s,0,0,0,0,,,,,0,71,71,64,,,,,,,,,,,,,,,312.669854399981,313.67677670001285,313.67677670001285,313.82262049999554,314.3295941000106,314.3295941000106,314.47538489999715,ä,0.32078499998897314,correct,,314.80868929997087,315.4544845999917,313.67677670001285,,,,,,,,,,,,18,A,2023-12-11_12h51.51.022,gca_discrimination,2022.2.4,143.9155387550169,
positions.xlsx,stimuli.xlsx,test.xlsx,stimuli/Social1.png,stimuli/Social2.png,stimuli/Nonsocial1.png,stimuli/Nonsocial2.png,stimuli/Test1.png,stimuli/Test2.png,"(0.7, 0.5)",cs_minus_s,"(-0.7, 0.5)",cs_plus_s,0,0,0,0,,,,,0,72,72,18,,,,,,,,,,,,,,,315.4544845999917,316.4614308999735,316.4614308999735,316.6072531999671,317.11414709995734,317.11414709995734,317.2599615000072,l,0.4069831999950111,correct,,317.676640199963,318.32944070000667,316.4614308999735,,,,,,,,,,,,18,A,2023-12-11_12h51.51.022,gca_discrimination,2022.2.4,143.9155387550169,
positions.xlsx,stimuli.xlsx,test.xlsx,stimuli/Social1.png,stimuli/Social2.png,stimuli/Nonsocial1.png,stimuli/Nonsocial2.png,stimuli/Test1.png,stimuli/Test2.png,"(-0.7, -0.5)",cs_plus_ns,"(-0.7, 0.5)",cs_plus_ns,0,0,0,0,,,,,0,73,73,75,,,,,,,,,,,,,,,318.32944070000667,319.3362958999933,319.3362958999933,319.4821309999679,319.9890607999987,319.9890607999987,320.13489149999805,ä,0.259559599973727,correct,,320.4056925000041,320.69041539996397,319.3362958999933,,,,,,,,,,,,18,A,2023-12-11_12h51.51.022,gca_discrimination,2022.2.4,143.9155387550169,
positions.xlsx,stimuli.xlsx,test.xlsx,stimuli/Social1.png,stimuli/Social2.png,stimuli/Nonsocial1.png,stimuli/Nonsocial2.png,stimuli/Test1.png,stimuli/Test2.png,"(-0.7, -0.5)",cs_plus_s,"(0.7, 0.5)",cs_minus_s,0,0,0,0,,,,,0,74,74,4,,,,,,,,,,,,,,,320.69041539996397,321.69734049995895,321.69734049995895,321.84313279995695,322.3500910999719,322.3500910999719,322.49591070000315,l,0.29097919998457655,correct,,322.7944633999723,322.93336749996524,321.69734049995895,,,,,,,,,,,,18,A,2023-12-11_12h51.51.022,gca_discrimination,2022.2.4,143.9155387550169,
positions.xlsx,stimuli.xlsx,test.xlsx,stimuli/Social1.png,stimuli/Social2.png,stimuli/Nonsocial1.png,stimuli/Nonsocial2.png,stimuli/Test1.png,stimuli/Test2.png,"(-0.7, -0.5)",cs_minus_ns,"(0.7, 0.5)",cs_plus_ns,0,0,0,0,,,,,0,75,75,40,,,,,,,,,,,,,,,322.93336749996524,323.9402754000039,323.9402754000039,324.0860883999849,324.59303419996286,324.59303419996286,324.73888600000646,l,0.4011157999630086,correct,,325.14856669999426,325.75967259996105,323.9402754000039,,,,,,,,,,,,18,A,2023-12-11_12h51.51.022,gca_discrimination,2022.2.4,143.9155387550169,
positions.xlsx,stimuli.xlsx,test.xlsx,stimuli/Social1.png,stimuli/Social2.png,stimuli/Nonsocial1.png,stimuli/Nonsocial2.png,stimuli/Test1.png,stimuli/Test2.png,"(0.7, -0.5)",cs_plus_s,"(0.7, 0.5)",cs_plus_s,0,0,0,0,,,,,0,76,76,59,,,,,,,,,,,,,,,325.75967259996105,326.76654360000975,326.76654360000975,326.9123597999569,327.41930289997254,327.41930289997254,327.5651027999702,ä,0.35778890002984554,correct,,327.93316769995727,328.93315329996403,326.76654360000975,,,,,,,,,,,,18,A,2023-12-11_12h51.51.022,gca_discrimination,2022.2.4,143.9155387550169,
positions.xlsx,stimuli.xlsx,test.xlsx,stimuli/Social1.png,stimuli/Social2.png,stimuli/Nonsocial1.png,stimuli/Nonsocial2.png,stimuli/Test1.png,stimuli/Test2.png,"(0.7, -0.5)",cs_minus_s,"(-0.7, 0.5)",cs_plus_s,0,0,0,0,,,,,0,77,77,21,,,,,,,,,,,,,,,328.93315329996403,329.9400158000062,329.9400158000062,330.08587159996387,330.5928689999855,330.5928689999855,330.73860429995693,l,0.35218979994533584,correct,,331.0997118999949,331.4538630999741,329.9400158000062,,,,,,,,,,,,18,A,2023-12-11_12h51.51.022,gca_discrimination,2022.2.4,143.9155387550169,
positions.xlsx,stimuli.xlsx,test.xlsx,stimuli/Social1.png,stimuli/Social2.png,stimuli/Nonsocial1.png,stimuli/Nonsocial2.png,stimuli/Test1.png,stimuli/Test2.png,"(0.7, 0.5)",cs_plus_ns,"(-0.7, -0.5)",cs_minus_ns,0,0,0,0,,,,,0,78,78,31,,,,,,,,,,,,,,,331.4538630999741,332.4608054999844,332.4608054999844,332.6066138999886,333.1135792999994,333.1135792999994,333.2593676999677,l,0.3607352999970317,correct,,333.6274010000052,334.60654359997716,332.4608054999844,,,,,,,,,,,,18,A,2023-12-11_12h51.51.022,gca_discrimination,2022.2.4,143.9155387550169,
positions.xlsx,stimuli.xlsx,test.xlsx,stimuli/Social1.png,stimuli/Social2.png,stimuli/Nonsocial1.png,stimuli/Nonsocial2.png,stimuli/Test1.png,stimuli/Test2.png,"(-0.7, -0.5)",cs_plus_s,"(0.7, 0.5)",cs_plus_s,0,0,0,0,,,,,0,79,79,52,,,,,,,,,,,,,,,334.60654359997716,335.6134312999784,335.6134312999784,335.7592467999784,336.2661892999895,336.2661892999895,336.41203289997065,ä,0.39992009999696165,correct,,336.8217435000115,337.4675468999776,335.6134312999784,,,,,,,,,,,,18,A,2023-12-11_12h51.51.022,gca_discrimination,2022.2.4,143.9155387550169,
positions.xlsx,stimuli.xlsx,test.xlsx,stimuli/Social1.png,stimuli/Social2.png,stimuli/Nonsocial1.png,stimuli/Nonsocial2.png,stimuli/Test1.png,stimuli/Test2.png,"(-0.7, -0.5)",cs_plus_ns,"(0.7, 0.5)",cs_minus_ns,0,0,0,0,,,,,0,80,80,28,,,,,,,,,,,,,,,337.4675468999776,338.4744550999603,338.4744550999603,338.6202701999573,339.1272079999908,339.1272079999908,339.27303819998633,l,0.434093700023368,correct,,339.7174684999627,340.46744310000213,338.4744550999603,,,,,,,,,,,,18,A,2023-12-11_12h51.51.022,gca_discrimination,2022.2.4,143.9155387550169,
positions.xlsx,stimuli.xlsx,test.xlsx,stimuli/Social1.png,stimuli/Social2.png,stimuli/Nonsocial1.png,stimuli/Nonsocial2.png,stimuli/Test1.png,stimuli/Test2.png,"(-0.7, 0.5)",cs_plus_s,"(0.7, 0.5)",cs_minus_s,0,0,0,0,,,,,0,81,81,1,,,,,,,,,,,,,,,340.46744310000213,341.4743712999625,341.4743712999625,341.6201460000011,342.1271022000001,342.1271022000001,342.27289480000036,l,0.2744964999728836,correct,,342.557624500012,343.34231320000254,341.4743712999625,,,,,,,,,,,,18,A,2023-12-11_12h51.51.022,gca_discrimination,2022.2.4,143.9155387550169,
positions.xlsx,stimuli.xlsx,test.xlsx,stimuli/Social1.png,stimuli/Social2.png,stimuli/Nonsocial1.png,stimuli/Nonsocial2.png,stimuli/Test1.png,stimuli/Test2.png,"(-0.7, 0.5)",cs_plus_ns,"(-0.7, -0.5)",cs_plus_ns,0,0,0,0,,,,,0,82,82,72,,,,,,,,,,,,,,,343.34231320000254,344.34924209996825,344.34924209996825,344.4950305999955,345.001966300013,345.001966300013,345.14776650001295,ä,0.3272696999483742,correct,,345.4880711999722,346.18941469996935,344.34924209996825,,,,,,,,,,,,18,A,2023-12-11_12h51.51.022,gca_discrimination,2022.2.4,143.9155387550169,
positions.xlsx,stimuli.xlsx,test.xlsx,stimuli/Social1.png,stimuli/Social2.png,stimuli/Nonsocial1.png,stimuli/Nonsocial2.png,stimuli/Test1.png,stimuli/Test2.png,"(0.7, 0.5)",cs_plus_ns,"(-0.7, 0.5)",cs_minus_ns,0,0,0,0,,,,,0,83,83,30,,,,,,,,,,,,,,,346.18941469996935,347.1963724999805,347.1963724999805,347.3421781999641,347.8491141999839,347.8491141999839,347.9948991999845,l,0.17634639999596402,correct,,348.18241179996403,348.83514929999365,347.1963724999805,,,,,,,,,,,,18,A,2023-12-11_12h51.51.022,gca_discrimination,2022.2.4,143.9155387550169,
positions.xlsx,stimuli.xlsx,test.xlsx,stimuli/Social1.png,stimuli/Social2.png,stimuli/Nonsocial1.png,stimuli/Nonsocial2.png,stimuli/Test1.png,stimuli/Test2.png,"(0.7, 0.5)",cs_plus_ns,"(0.7, -0.5)",cs_minus_ns,0,0,0,0,,,,,0,84,84,32,,,,,,,,,,,,,,,348.83514929999365,349.8420485999668,349.8420485999668,349.98790129995905,350.4948407000047,350.4948407000047,350.64068489999045,l,0.2904617000021972,correct,,350.9392716999864,351.91835329995956,349.8420485999668,,,,,,,,,,,,18,A,2023-12-11_12h51.51.022,gca_discrimination,2022.2.4,143.9155387550169,
positions.xlsx,stimuli.xlsx,test.xlsx,stimuli/Social1.png,stimuli/Social2.png,stimuli/Nonsocial1.png,stimuli/Nonsocial2.png,stimuli/Test1.png,stimuli/Test2.png,"(0.7, -0.5)",cs_minus_ns,"(-0.7, -0.5)",cs_plus_ns,0,0,0,0,,,,,0,85,85,46,,,,,,,,,,,,,,,351.91835329995956,352.9252991999965,352.9252991999965,353.0711070999969,353.57805969996843,353.57805969996843,353.7238760999753,l,0.27096279995748773,correct,,354.00853599997936,354.34880659997,352.9252991999965,,,,,,,,,,,,18,A,2023-12-11_12h51.51.022,gca_discrimination,2022.2.4,143.9155387550169,
positions.xlsx,stimuli.xlsx,test.xlsx,stimuli/Social1.png,stimuli/Social2.png,stimuli/Nonsocial1.png,stimuli/Nonsocial2.png,stimuli/Test1.png,stimuli/Test2.png,"(0.7, 0.5)",cs_minus_s,"(0.7, -0.5)",cs_minus_s,0,0,0,0,,,,,0,86,86,68,,,,,,,,,,,,,,,354.34880659997,355.35573169996496,355.35573169996496,355.5015584999928,356.00851199997123,356.00851199997123,356.15431509999325,ä,0.2736041999887675,correct,,356.43900620000204,356.77928690001136,355.35573169996496,,,,,,,,,,,,18,A,2023-12-11_12h51.51.022,gca_discrimination,2022.2.4,143.9155387550169,
positions.xlsx,stimuli.xlsx,test.xlsx,stimuli/Social1.png,stimuli/Social2.png,stimuli/Nonsocial1.png,stimuli/Nonsocial2.png,stimuli/Test1.png,stimuli/Test2.png,"(0.7, 0.5)",cs_minus_ns,"(0.7, -0.5)",cs_plus_ns,0,0,0,0,,,,,0,87,87,44,,,,,,,,,,,,,,,356.77928690001136,357.786196800007,357.786196800007,357.9320772999781,358.4389319999609,358.4389319999609,358.5847788999672,l,0.2097578000393696,correct,,358.8070064999629,358.9041874000104,357.786196800007,,,,,,,,,,,,18,A,2023-12-11_12h51.51.022,gca_discrimination,2022.2.4,143.9155387550169,
positions.xlsx,stimuli.xlsx,test.xlsx,stimuli/Social1.png,stimuli/Social2.png,stimuli/Nonsocial1.png,stimuli/Nonsocial2.png,stimuli/Test1.png,stimuli/Test2.png,"(0.7, 0.5)",cs_minus_s,"(0.7, -0.5)",cs_plus_s,0,0,0,0,,,,,0,88,88,20,,,,,,,,,,,,,,,358.9041874000104,359.9111484999885,359.9111484999885,360.05694400001084,360.563876900007,360.563876900007,360.70969469996635,l,0.3812929000123404,correct,,361.0985684999614,361.6332642000052,359.9111484999885,,,,,,,,,,,,18,A,2023-12-11_12h51.51.022,gca_discrimination,2022.2.4,143.9155387550169,
positions.xlsx,stimuli.xlsx,test.xlsx,stimuli/Social1.png,stimuli/Social2.png,stimuli/Nonsocial1.png,stimuli/Nonsocial2.png,stimuli/Test1.png,stimuli/Test2.png,"(-0.7, -0.5)",cs_minus_ns,"(0.7, -0.5)",cs_plus_ns,0,0,0,0,,,,,0,89,89,41,,,,,,,,,,,,,,,361.6332642000052,362.6401840999606,362.6401840999606,362.78600009996444,363.2929259999655,363.2929259999655,363.4387602999923,l,0.37207139999372885,correct,,363.82069419999607,364.37623120000353,362.6401840999606,,,,,,,,,,,,18,A,2023-12-11_12h51.51.022,gca_discrimination,2022.2.4,143.9155387550169,
positions.xlsx,stimuli.xlsx,test.xlsx,stimuli/Social1.png,stimuli/Social2.png,stimuli/Nonsocial1.png,stimuli/Nonsocial2.png,stimuli/Test1.png,stimuli/Test2.png,"(0.7, -0.5)",cs_plus_ns,"(0.7, 0.5)",cs_minus_ns,0,0,0,0,,,,,0,90,90,35,,,,,,,,,,,,,,,364.37623120000353,365.383120399958,365.383120399958,365.52894559997367,366.035873899993,366.035873899993,366.18169249995844,l,0.3008888999465853,correct,,366.4941666999948,367.02889700001106,365.383120399958,,,,,,,,,,,,18,A,2023-12-11_12h51.51.022,gca_discrimination,2022.2.4,143.9155387550169,
positions.xlsx,stimuli.xlsx,test.xlsx,stimuli/Social1.png,stimuli/Social2.png,stimuli/Nonsocial1.png,stimuli/Nonsocial2.png,stimuli/Test1.png,stimuli/Test2.png,"(-0.7, -0.5)",cs_plus_ns,"(0.7, -0.5)",cs_plus_ns,0,0,0,0,,,,,0,91,91,77,,,,,,,,,,,,,,,367.02889700001106,368.03580030001467,368.03580030001467,368.18163139995886,368.6885591999744,368.6885591999744,368.834375299979,l,0.42486500000813976,wrong,,369.27186460001394,369.50103419995867,368.03580030001467,,,,,,,,,,,,18,A,2023-12-11_12h51.51.022,gca_discrimination,2022.2.4,143.9155387550169,
positions.xlsx,stimuli.xlsx,test.xlsx,stimuli/Social1.png,stimuli/Social2.png,stimuli/Nonsocial1.png,stimuli/Nonsocial2.png,stimuli/Test1.png,stimuli/Test2.png,"(0.7, 0.5)",cs_minus_ns,"(-0.7, 0.5)",cs_plus_ns,0,0,0,0,,,,,0,92,92,42,,,,,,,,,,,,,,,369.50103419995867,370.50789149996126,370.50789149996126,370.65375309996307,371.1606726999744,371.1606726999744,371.30649200000335,l,0.6005478999577463,correct,,371.9175866000005,372.59812129999045,370.50789149996126,,,,,,,,,,,,18,A,2023-12-11_12h51.51.022,gca_discrimination,2022.2.4,143.9155387550169,
positions.xlsx,stimuli.xlsx,test.xlsx,stimuli/Social1.png,stimuli/Social2.png,stimuli/Nonsocial1.png,stimuli/Nonsocial2.png,stimuli/Test1.png,stimuli/Test2.png,"(0.7, 0.5)",cs_plus_s,"(-0.7, 0.5)",cs_minus_s,0,0,0,0,,,,,0,93,93,6,,,,,,,,,,,,,,,372.59812129999045,373.6050188000081,373.6050188000081,373.7507923999801,374.2578197999974,374.2578197999974,374.40360520000104,l,0.335588599962648,correct,,374.7508017999935,375.75077059998875,373.6050188000081,,,,,,,,,,,,18,A,2023-12-11_12h51.51.022,gca_discrimination,2022.2.4,143.9155387550169,
positions.xlsx,stimuli.xlsx,test.xlsx,stimuli/Social1.png,stimuli/Social2.png,stimuli/Nonsocial1.png,stimuli/Nonsocial2.png,stimuli/Test1.png,stimuli/Test2.png,"(0.7, -0.5)",cs_minus_s,"(-0.7, -0.5)",cs_minus_s,0,0,0,0,,,,,0,94,94,70,,,,,,,,,,,,,,,375.75077059998875,376.75769339996623,376.75769339996623,376.90349990001414,377.41043119999813,377.41043119999813,377.55630519997794,ä,0.31894950004061684,correct,,377.8826183999772,378.1465220999671,376.75769339996623,,,,,,,,,,,,18,A,2023-12-11_12h51.51.022,gca_discrimination,2022.2.4,143.9155387550169,
positions.xlsx,stimuli.xlsx,test.xlsx,stimuli/Social1.png,stimuli/Social2.png,stimuli/Nonsocial1.png,stimuli/Nonsocial2.png,stimuli/Test1.png,stimuli/Test2.png,"(-0.7, -0.5)",cs_plus_s,"(-0.7, 0.5)",cs_minus_s,0,0,0,0,,,,,0,95,95,3,,,,,,,,,,,,,,,378.1465220999671,379.1534234000137,379.1534234000137,379.29924839996966,379.806197399972,379.806197399972,379.9520259000128,l,0.35530589998234063,correct,,380.3200503999833,381.0492410999723,379.1534234000137,,,,,,,,,,,,18,A,2023-12-11_12h51.51.022,gca_discrimination,2022.2.4,143.9155387550169,
