posFile,stimFile,testFile,cs_plus_s,cs_minus_s,cs_plus_ns,cs_minus_ns,test1,test2,position1,trialtype,position2,comptype,blocks.thisRepN,blocks.thisTrialN,blocks.thisN,blocks.thisIndex,learning_trials.thisRepN,learning_trials.thisTrialN,learning_trials.thisN,learning_trials.thisIndex,trials.thisRepN,trials.thisTrialN,trials.thisN,trials.thisIndex,textStart.started,key.started,key.keys,key.rt,correctness,textStartTask.started,participant,group,date,expName,psychopyVersion,frameRate,
positions.xlsx,stimuli.xlsx,test.xlsx,stimuli/Social2.png,stimuli/Social1.png,stimuli/Nonsocial1.png,stimuli/Nonsocial2.png,stimuli/Test1.png,stimuli/Test2.png,"(-0.7, 0.5)",test2,"(0.7, 0.5)",test1,0,0,0,0,0,0,0,3,,,,,12.00318050000351,42.501918800058775,ä,0.888066399958916,correct,,35,B,2023-12-18_09h28.22.298,gca_discrimination,2022.2.4,143.9145030499125,
positions.xlsx,stimuli.xlsx,test.xlsx,stimuli/Social2.png,stimuli/Social1.png,stimuli/Nonsocial1.png,stimuli/Nonsocial2.png,stimuli/Test1.png,stimuli/Test2.png,"(0.7, 0.5)",test2,"(-0.7, 0.5)",test1,0,0,0,0,0,1,1,13,,,,,,47.83502070000395,ä,0.7872936000349,correct,,35,B,2023-12-18_09h28.22.298,gca_discrimination,2022.2.4,143.9145030499125,
positions.xlsx,stimuli.xlsx,test.xlsx,stimuli/Social2.png,stimuli/Social1.png,stimuli/Nonsocial1.png,stimuli/Nonsocial2.png,stimuli/Test1.png,stimuli/Test2.png,"(-0.7, 0.5)",test2,"(-0.7, -0.5)",test2,0,0,0,0,0,2,2,1,,,,,,52.74456410005223,l,0.6390208000084385,correct,,35,B,2023-12-18_09h28.22.298,gca_discrimination,2022.2.4,143.9145030499125,
positions.xlsx,stimuli.xlsx,test.xlsx,stimuli/Social2.png,stimuli/Social1.png,stimuli/Nonsocial1.png,stimuli/Nonsocial2.png,stimuli/Test1.png,stimuli/Test2.png,"(-0.7, -0.5)",test2,"(0.7, 0.5)",test2,0,0,0,0,0,3,3,7,,,,,,58.091577899991535,l,0.779211699962616,correct,,35,B,2023-12-18_09h28.22.298,gca_discrimination,2022.2.4,143.9145030499125,
positions.xlsx,stimuli.xlsx,test.xlsx,stimuli/Social2.png,stimuli/Social1.png,stimuli/Nonsocial1.png,stimuli/Nonsocial2.png,stimuli/Test1.png,stimuli/Test2.png,"(0.7, 0.5)",test1,"(0.7, -0.5)",test2,0,0,0,0,0,4,4,11,,,,,,63.04277539998293,ä,0.6267929999157786,correct,,35,B,2023-12-18_09h28.22.298,gca_discrimination,2022.2.4,143.9145030499125,
positions.xlsx,stimuli.xlsx,test.xlsx,stimuli/Social2.png,stimuli/Social1.png,stimuli/Nonsocial1.png,stimuli/Nonsocial2.png,stimuli/Test1.png,stimuli/Test2.png,"(0.7, 0.5)",test2,"(0.7, -0.5)",test1,0,0,0,0,0,5,5,6,,,,,,67.93145060003735,ä,0.6501051000086591,correct,,35,B,2023-12-18_09h28.22.298,gca_discrimination,2022.2.4,143.9145030499125,
positions.xlsx,stimuli.xlsx,test.xlsx,stimuli/Social2.png,stimuli/Social1.png,stimuli/Nonsocial1.png,stimuli/Nonsocial2.png,stimuli/Test1.png,stimuli/Test2.png,"(-0.7, -0.5)",test2,"(-0.7, 0.5)",test2,0,0,0,0,0,6,6,2,,,,,,72.72986439999659,l,0.5485808000667021,correct,,35,B,2023-12-18_09h28.22.298,gca_discrimination,2022.2.4,143.9145030499125,
positions.xlsx,stimuli.xlsx,test.xlsx,stimuli/Social2.png,stimuli/Social1.png,stimuli/Nonsocial1.png,stimuli/Nonsocial2.png,stimuli/Test1.png,stimuli/Test2.png,"(0.7, -0.5)",test2,"(-0.7, 0.5)",test1,0,0,0,0,0,7,7,4,,,,,,77.59081820002757,ä,0.4312286999775097,correct,,35,B,2023-12-18_09h28.22.298,gca_discrimination,2022.2.4,143.9145030499125,
positions.xlsx,stimuli.xlsx,test.xlsx,stimuli/Social2.png,stimuli/Social1.png,stimuli/Nonsocial1.png,stimuli/Nonsocial2.png,stimuli/Test1.png,stimuli/Test2.png,"(-0.7, -0.5)",test1,"(0.7, 0.5)",test2,0,0,0,0,0,8,8,8,,,,,,82.33364279998932,ä,0.4649746000068262,correct,,35,B,2023-12-18_09h28.22.298,gca_discrimination,2022.2.4,143.9145030499125,
positions.xlsx,stimuli.xlsx,test.xlsx,stimuli/Social2.png,stimuli/Social1.png,stimuli/Nonsocial1.png,stimuli/Nonsocial2.png,stimuli/Test1.png,stimuli/Test2.png,"(-0.7, -0.5)",test2,"(0.7, -0.5)",test2,0,0,0,0,0,9,9,9,,,,,,86.72238729998935,l,0.6516210999106988,correct,,35,B,2023-12-18_09h28.22.298,gca_discrimination,2022.2.4,143.9145030499125,
positions.xlsx,stimuli.xlsx,test.xlsx,stimuli/Social2.png,stimuli/Social1.png,stimuli/Nonsocial1.png,stimuli/Nonsocial2.png,stimuli/Test1.png,stimuli/Test2.png,"(-0.7, 0.5)",test2,"(0.7, -0.5)",test1,0,0,0,0,0,10,10,12,,,,,,91.4791816000361,ä,0.719207699992694,correct,,35,B,2023-12-18_09h28.22.298,gca_discrimination,2022.2.4,143.9145030499125,
positions.xlsx,stimuli.xlsx,test.xlsx,stimuli/Social2.png,stimuli/Social1.png,stimuli/Nonsocial1.png,stimuli/Nonsocial2.png,stimuli/Test1.png,stimuli/Test2.png,"(0.7, -0.5)",test1,"(0.7, 0.5)",test2,0,0,0,0,0,11,11,0,,,,,,96.31228820001706,ä,0.7336177000543103,correct,,35,B,2023-12-18_09h28.22.298,gca_discrimination,2022.2.4,143.9145030499125,
positions.xlsx,stimuli.xlsx,test.xlsx,stimuli/Social2.png,stimuli/Social1.png,stimuli/Nonsocial1.png,stimuli/Nonsocial2.png,stimuli/Test1.png,stimuli/Test2.png,"(-0.7, 0.5)",test1,"(0.7, -0.5)",test1,0,0,0,0,0,12,12,5,,,,,,101.56902229995467,l,0.42144129995722324,correct,,35,B,2023-12-18_09h28.22.298,gca_discrimination,2022.2.4,143.9145030499125,
positions.xlsx,stimuli.xlsx,test.xlsx,stimuli/Social2.png,stimuli/Social1.png,stimuli/Nonsocial1.png,stimuli/Nonsocial2.png,stimuli/Test1.png,stimuli/Test2.png,"(0.7, -0.5)",test1,"(0.7, 0.5)",test1,0,0,0,0,0,13,13,10,,,,,,105.83966980001424,l,0.5983588000526652,correct,,35,B,2023-12-18_09h28.22.298,gca_discrimination,2022.2.4,143.9145030499125,
positions.xlsx,stimuli.xlsx,test.xlsx,stimuli/Social2.png,stimuli/Social1.png,stimuli/Nonsocial1.png,stimuli/Nonsocial2.png,stimuli/Test1.png,stimuli/Test2.png,"(-0.7, 0.5)",cs_plus_s,"(0.7, 0.5)",cs_plus_s,0,0,0,0,,,,,0,0,0,49,,118.74891630001366,l,0.5933528000023216,correct,109.42288790002931,35,B,2023-12-18_09h28.22.298,gca_discrimination,2022.2.4,143.9145030499125,
positions.xlsx,stimuli.xlsx,test.xlsx,stimuli/Social2.png,stimuli/Social1.png,stimuli/Nonsocial1.png,stimuli/Nonsocial2.png,stimuli/Test1.png,stimuli/Test2.png,"(0.7, 0.5)",cs_minus_s,"(0.7, -0.5)",cs_minus_s,0,0,0,0,,,,,0,1,1,68,,122.06127119995654,l,0.7933458000188693,correct,,35,B,2023-12-18_09h28.22.298,gca_discrimination,2022.2.4,143.9145030499125,
positions.xlsx,stimuli.xlsx,test.xlsx,stimuli/Social2.png,stimuli/Social1.png,stimuli/Nonsocial1.png,stimuli/Nonsocial2.png,stimuli/Test1.png,stimuli/Test2.png,"(-0.7, -0.5)",cs_minus_ns,"(0.7, -0.5)",cs_plus_ns,0,0,0,0,,,,,0,2,2,41,,124.88058060000185,ä,0.5336779999779537,correct,,35,B,2023-12-18_09h28.22.298,gca_discrimination,2022.2.4,143.9145030499125,
positions.xlsx,stimuli.xlsx,test.xlsx,stimuli/Social2.png,stimuli/Social1.png,stimuli/Nonsocial1.png,stimuli/Nonsocial2.png,stimuli/Test1.png,stimuli/Test2.png,"(-0.7, 0.5)",cs_minus_s,"(0.7, 0.5)",cs_minus_s,0,0,0,0,,,,,0,3,3,61,,127.49856630002614,l,0.5317513000918552,correct,,35,B,2023-12-18_09h28.22.298,gca_discrimination,2022.2.4,143.9145030499125,
positions.xlsx,stimuli.xlsx,test.xlsx,stimuli/Social2.png,stimuli/Social1.png,stimuli/Nonsocial1.png,stimuli/Nonsocial2.png,stimuli/Test1.png,stimuli/Test2.png,"(0.7, -0.5)",cs_minus_ns,"(-0.7, 0.5)",cs_minus_ns,0,0,0,0,,,,,0,4,4,93,,130.40818000002764,l,0.6540440999669954,correct,,35,B,2023-12-18_09h28.22.298,gca_discrimination,2022.2.4,143.9145030499125,
positions.xlsx,stimuli.xlsx,test.xlsx,stimuli/Social2.png,stimuli/Social1.png,stimuli/Nonsocial1.png,stimuli/Nonsocial2.png,stimuli/Test1.png,stimuli/Test2.png,"(-0.7, -0.5)",cs_plus_ns,"(0.7, -0.5)",cs_minus_ns,0,0,0,0,,,,,0,5,5,29,,133.83858460001647,ä,0.6086632000515237,correct,,35,B,2023-12-18_09h28.22.298,gca_discrimination,2022.2.4,143.9145030499125,
positions.xlsx,stimuli.xlsx,test.xlsx,stimuli/Social2.png,stimuli/Social1.png,stimuli/Nonsocial1.png,stimuli/Nonsocial2.png,stimuli/Test1.png,stimuli/Test2.png,"(0.7, 0.5)",cs_minus_s,"(-0.7, -0.5)",cs_plus_s,0,0,0,0,,,,,0,6,6,19,,136.414837099961,ä,0.934767400030978,correct,,35,B,2023-12-18_09h28.22.298,gca_discrimination,2022.2.4,143.9145030499125,
positions.xlsx,stimuli.xlsx,test.xlsx,stimuli/Social2.png,stimuli/Social1.png,stimuli/Nonsocial1.png,stimuli/Nonsocial2.png,stimuli/Test1.png,stimuli/Test2.png,"(0.7, -0.5)",cs_minus_s,"(-0.7, -0.5)",cs_plus_s,0,0,0,0,,,,,0,7,7,22,,139.49811329995282,ä,0.6997908999910578,correct,,35,B,2023-12-18_09h28.22.298,gca_discrimination,2022.2.4,143.9145030499125,
positions.xlsx,stimuli.xlsx,test.xlsx,stimuli/Social2.png,stimuli/Social1.png,stimuli/Nonsocial1.png,stimuli/Nonsocial2.png,stimuli/Test1.png,stimuli/Test2.png,"(-0.7, -0.5)",cs_plus_s,"(0.7, -0.5)",cs_minus_s,0,0,0,0,,,,,0,8,8,5,,142.484054200002,ä,0.6579865000676364,correct,,35,B,2023-12-18_09h28.22.298,gca_discrimination,2022.2.4,143.9145030499125,
positions.xlsx,stimuli.xlsx,test.xlsx,stimuli/Social2.png,stimuli/Social1.png,stimuli/Nonsocial1.png,stimuli/Nonsocial2.png,stimuli/Test1.png,stimuli/Test2.png,"(-0.7, -0.5)",cs_minus_s,"(-0.7, 0.5)",cs_minus_s,0,0,0,0,,,,,0,9,9,63,,145.55342240002938,l,1.556529900059104,correct,,35,B,2023-12-18_09h28.22.298,gca_discrimination,2022.2.4,143.9145030499125,
positions.xlsx,stimuli.xlsx,test.xlsx,stimuli/Social2.png,stimuli/Social1.png,stimuli/Nonsocial1.png,stimuli/Nonsocial2.png,stimuli/Test1.png,stimuli/Test2.png,"(0.7, 0.5)",cs_plus_s,"(-0.7, -0.5)",cs_plus_s,0,0,0,0,,,,,0,10,10,55,,149.24771230004262,l,0.5346879999851808,correct,,35,B,2023-12-18_09h28.22.298,gca_discrimination,2022.2.4,143.9145030499125,
positions.xlsx,stimuli.xlsx,test.xlsx,stimuli/Social2.png,stimuli/Social1.png,stimuli/Nonsocial1.png,stimuli/Nonsocial2.png,stimuli/Test1.png,stimuli/Test2.png,"(-0.7, 0.5)",cs_minus_ns,"(0.7, 0.5)",cs_minus_ns,0,0,0,0,,,,,0,11,11,85,,152.1364867000375,l,0.5260220000054687,correct,,35,B,2023-12-18_09h28.22.298,gca_discrimination,2022.2.4,143.9145030499125,
positions.xlsx,stimuli.xlsx,test.xlsx,stimuli/Social2.png,stimuli/Social1.png,stimuli/Nonsocial1.png,stimuli/Nonsocial2.png,stimuli/Test1.png,stimuli/Test2.png,"(0.7, -0.5)",cs_plus_ns,"(0.7, 0.5)",cs_plus_ns,0,0,0,0,,,,,0,12,12,83,,155.16413709998596,l,0.45747809996828437,correct,,35,B,2023-12-18_09h28.22.298,gca_discrimination,2022.2.4,143.9145030499125,
positions.xlsx,stimuli.xlsx,test.xlsx,stimuli/Social2.png,stimuli/Social1.png,stimuli/Nonsocial1.png,stimuli/Nonsocial2.png,stimuli/Test1.png,stimuli/Test2.png,"(-0.7, -0.5)",cs_plus_ns,"(-0.7, 0.5)",cs_plus_ns,0,0,0,0,,,,,0,13,13,75,,158.1570650000358,l,0.544591199955903,correct,,35,B,2023-12-18_09h28.22.298,gca_discrimination,2022.2.4,143.9145030499125,
positions.xlsx,stimuli.xlsx,test.xlsx,stimuli/Social2.png,stimuli/Social1.png,stimuli/Nonsocial1.png,stimuli/Nonsocial2.png,stimuli/Test1.png,stimuli/Test2.png,"(0.7, -0.5)",cs_minus_s,"(-0.7, 0.5)",cs_minus_s,0,0,0,0,,,,,0,14,14,69,,161.1361219000537,ä,1.1175978999817744,wrong,,35,B,2023-12-18_09h28.22.298,gca_discrimination,2022.2.4,143.9145030499125,
positions.xlsx,stimuli.xlsx,test.xlsx,stimuli/Social2.png,stimuli/Social1.png,stimuli/Nonsocial1.png,stimuli/Nonsocial2.png,stimuli/Test1.png,stimuli/Test2.png,"(0.7, 0.5)",cs_minus_s,"(-0.7, 0.5)",cs_plus_s,0,0,0,0,,,,,0,15,15,18,,164.73319489997812,ä,0.4820098999189213,correct,,35,B,2023-12-18_09h28.22.298,gca_discrimination,2022.2.4,143.9145030499125,
positions.xlsx,stimuli.xlsx,test.xlsx,stimuli/Social2.png,stimuli/Social1.png,stimuli/Nonsocial1.png,stimuli/Nonsocial2.png,stimuli/Test1.png,stimuli/Test2.png,"(-0.7, -0.5)",cs_minus_s,"(0.7, -0.5)",cs_minus_s,0,0,0,0,,,,,0,16,16,65,,167.86502260004636,l,0.42218450002837926,correct,,35,B,2023-12-18_09h28.22.298,gca_discrimination,2022.2.4,143.9145030499125,
positions.xlsx,stimuli.xlsx,test.xlsx,stimuli/Social2.png,stimuli/Social1.png,stimuli/Nonsocial1.png,stimuli/Nonsocial2.png,stimuli/Test1.png,stimuli/Test2.png,"(-0.7, -0.5)",cs_minus_s,"(0.7, 0.5)",cs_minus_s,0,0,0,0,,,,,0,17,17,64,,170.46215080004185,l,0.4718786000739783,correct,,35,B,2023-12-18_09h28.22.298,gca_discrimination,2022.2.4,143.9145030499125,
positions.xlsx,stimuli.xlsx,test.xlsx,stimuli/Social2.png,stimuli/Social1.png,stimuli/Nonsocial1.png,stimuli/Nonsocial2.png,stimuli/Test1.png,stimuli/Test2.png,"(-0.7, 0.5)",cs_minus_ns,"(0.7, 0.5)",cs_plus_ns,0,0,0,0,,,,,0,18,18,37,,172.84398670005612,ä,0.9149848000379279,correct,,35,B,2023-12-18_09h28.22.298,gca_discrimination,2022.2.4,143.9145030499125,
positions.xlsx,stimuli.xlsx,test.xlsx,stimuli/Social2.png,stimuli/Social1.png,stimuli/Nonsocial1.png,stimuli/Nonsocial2.png,stimuli/Test1.png,stimuli/Test2.png,"(0.7, -0.5)",cs_minus_s,"(-0.7, -0.5)",cs_minus_s,0,0,0,0,,,,,0,19,19,70,,175.58695440005977,ä,1.8671163000399247,wrong,,35,B,2023-12-18_09h28.22.298,gca_discrimination,2022.2.4,143.9145030499125,
positions.xlsx,stimuli.xlsx,test.xlsx,stimuli/Social2.png,stimuli/Social1.png,stimuli/Nonsocial1.png,stimuli/Nonsocial2.png,stimuli/Test1.png,stimuli/Test2.png,"(0.7, 0.5)",cs_minus_ns,"(0.7, -0.5)",cs_plus_ns,0,0,0,0,,,,,0,20,20,44,,179.55897929996718,ä,0.4872604999691248,correct,,35,B,2023-12-18_09h28.22.298,gca_discrimination,2022.2.4,143.9145030499125,
positions.xlsx,stimuli.xlsx,test.xlsx,stimuli/Social2.png,stimuli/Social1.png,stimuli/Nonsocial1.png,stimuli/Nonsocial2.png,stimuli/Test1.png,stimuli/Test2.png,"(0.7, -0.5)",cs_minus_s,"(-0.7, 0.5)",cs_plus_s,0,0,0,0,,,,,0,21,21,21,,182.0797443999909,ä,0.3738359999842942,correct,,35,B,2023-12-18_09h28.22.298,gca_discrimination,2022.2.4,143.9145030499125,
positions.xlsx,stimuli.xlsx,test.xlsx,stimuli/Social2.png,stimuli/Social1.png,stimuli/Nonsocial1.png,stimuli/Nonsocial2.png,stimuli/Test1.png,stimuli/Test2.png,"(-0.7, -0.5)",cs_plus_ns,"(-0.7, 0.5)",cs_minus_ns,0,0,0,0,,,,,0,22,22,27,,185.26709229999688,ä,0.667222399963066,correct,,35,B,2023-12-18_09h28.22.298,gca_discrimination,2022.2.4,143.9145030499125,
positions.xlsx,stimuli.xlsx,test.xlsx,stimuli/Social2.png,stimuli/Social1.png,stimuli/Nonsocial1.png,stimuli/Nonsocial2.png,stimuli/Test1.png,stimuli/Test2.png,"(0.7, -0.5)",cs_plus_s,"(-0.7, 0.5)",cs_minus_s,0,0,0,0,,,,,0,23,23,9,,188.69058539997786,ä,0.6120657999999821,correct,,35,B,2023-12-18_09h28.22.298,gca_discrimination,2022.2.4,143.9145030499125,
positions.xlsx,stimuli.xlsx,test.xlsx,stimuli/Social2.png,stimuli/Social1.png,stimuli/Nonsocial1.png,stimuli/Nonsocial2.png,stimuli/Test1.png,stimuli/Test2.png,"(-0.7, -0.5)",cs_plus_s,"(-0.7, 0.5)",cs_plus_s,0,0,0,0,,,,,0,24,24,51,,192.00297959998716,l,0.515503800008446,correct,,35,B,2023-12-18_09h28.22.298,gca_discrimination,2022.2.4,143.9145030499125,
positions.xlsx,stimuli.xlsx,test.xlsx,stimuli/Social2.png,stimuli/Social1.png,stimuli/Nonsocial1.png,stimuli/Nonsocial2.png,stimuli/Test1.png,stimuli/Test2.png,"(-0.7, 0.5)",cs_minus_ns,"(0.7, -0.5)",cs_plus_ns,0,0,0,0,,,,,0,25,25,38,,194.78065199998673,ä,0.5053241999121383,correct,,35,B,2023-12-18_09h28.22.298,gca_discrimination,2022.2.4,143.9145030499125,
positions.xlsx,stimuli.xlsx,test.xlsx,stimuli/Social2.png,stimuli/Social1.png,stimuli/Nonsocial1.png,stimuli/Nonsocial2.png,stimuli/Test1.png,stimuli/Test2.png,"(-0.7, -0.5)",cs_minus_ns,"(-0.7, 0.5)",cs_plus_ns,0,0,0,0,,,,,0,26,26,39,,197.50275009998586,ä,0.5195674999849871,correct,,35,B,2023-12-18_09h28.22.298,gca_discrimination,2022.2.4,143.9145030499125,
positions.xlsx,stimuli.xlsx,test.xlsx,stimuli/Social2.png,stimuli/Social1.png,stimuli/Nonsocial1.png,stimuli/Nonsocial2.png,stimuli/Test1.png,stimuli/Test2.png,"(-0.7, -0.5)",cs_minus_s,"(0.7, -0.5)",cs_plus_s,0,0,0,0,,,,,0,27,27,17,,200.329005699954,ä,0.4927717000246048,correct,,35,B,2023-12-18_09h28.22.298,gca_discrimination,2022.2.4,143.9145030499125,
positions.xlsx,stimuli.xlsx,test.xlsx,stimuli/Social2.png,stimuli/Social1.png,stimuli/Nonsocial1.png,stimuli/Nonsocial2.png,stimuli/Test1.png,stimuli/Test2.png,"(-0.7, 0.5)",cs_minus_s,"(0.7, -0.5)",cs_plus_s,0,0,0,0,,,,,0,28,28,14,,203.0650459000608,ä,0.4536294999998063,correct,,35,B,2023-12-18_09h28.22.298,gca_discrimination,2022.2.4,143.9145030499125,
positions.xlsx,stimuli.xlsx,test.xlsx,stimuli/Social2.png,stimuli/Social1.png,stimuli/Nonsocial1.png,stimuli/Nonsocial2.png,stimuli/Test1.png,stimuli/Test2.png,"(-0.7, 0.5)",cs_plus_ns,"(0.7, -0.5)",cs_plus_ns,0,0,0,0,,,,,0,29,29,74,,206.1899170000106,None,,no answer,,35,B,2023-12-18_09h28.22.298,gca_discrimination,2022.2.4,143.9145030499125,
positions.xlsx,stimuli.xlsx,test.xlsx,stimuli/Social2.png,stimuli/Social1.png,stimuli/Nonsocial1.png,stimuli/Nonsocial2.png,stimuli/Test1.png,stimuli/Test2.png,"(-0.7, 0.5)",cs_plus_ns,"(0.7, 0.5)",cs_plus_ns,0,0,0,0,,,,,0,30,30,73,,210.9952696999535,l,0.5710719999624416,correct,,35,B,2023-12-18_09h28.22.298,gca_discrimination,2022.2.4,143.9145030499125,
positions.xlsx,stimuli.xlsx,test.xlsx,stimuli/Social2.png,stimuli/Social1.png,stimuli/Nonsocial1.png,stimuli/Nonsocial2.png,stimuli/Test1.png,stimuli/Test2.png,"(-0.7, -0.5)",cs_minus_ns,"(0.7, 0.5)",cs_minus_ns,0,0,0,0,,,,,0,31,31,88,,214.01602300000377,None,,no answer,,35,B,2023-12-18_09h28.22.298,gca_discrimination,2022.2.4,143.9145030499125,
positions.xlsx,stimuli.xlsx,test.xlsx,stimuli/Social2.png,stimuli/Social1.png,stimuli/Nonsocial1.png,stimuli/Nonsocial2.png,stimuli/Test1.png,stimuli/Test2.png,"(-0.7, 0.5)",cs_minus_ns,"(0.7, -0.5)",cs_minus_ns,0,0,0,0,,,,,0,32,32,86,,218.4741467999993,l,0.39597469998989254,correct,,35,B,2023-12-18_09h28.22.298,gca_discrimination,2022.2.4,143.9145030499125,
positions.xlsx,stimuli.xlsx,test.xlsx,stimuli/Social2.png,stimuli/Social1.png,stimuli/Nonsocial1.png,stimuli/Nonsocial2.png,stimuli/Test1.png,stimuli/Test2.png,"(0.7, 0.5)",cs_plus_ns,"(-0.7, -0.5)",cs_minus_ns,0,0,0,0,,,,,0,33,33,31,,221.58513869997114,ä,0.5809432999230921,correct,,35,B,2023-12-18_09h28.22.298,gca_discrimination,2022.2.4,143.9145030499125,
positions.xlsx,stimuli.xlsx,test.xlsx,stimuli/Social2.png,stimuli/Social1.png,stimuli/Nonsocial1.png,stimuli/Nonsocial2.png,stimuli/Test1.png,stimuli/Test2.png,"(-0.7, 0.5)",cs_plus_s,"(-0.7, -0.5)",cs_minus_s,0,0,0,0,,,,,0,34,34,0,,224.2933976999484,ä,0.4962479999521747,correct,,35,B,2023-12-18_09h28.22.298,gca_discrimination,2022.2.4,143.9145030499125,
positions.xlsx,stimuli.xlsx,test.xlsx,stimuli/Social2.png,stimuli/Social1.png,stimuli/Nonsocial1.png,stimuli/Nonsocial2.png,stimuli/Test1.png,stimuli/Test2.png,"(0.7, 0.5)",cs_minus_ns,"(-0.7, 0.5)",cs_plus_ns,0,0,0,0,,,,,0,35,35,42,,226.7307997000171,ä,0.5243912000441924,correct,,35,B,2023-12-18_09h28.22.298,gca_discrimination,2022.2.4,143.9145030499125,
positions.xlsx,stimuli.xlsx,test.xlsx,stimuli/Social2.png,stimuli/Social1.png,stimuli/Nonsocial1.png,stimuli/Nonsocial2.png,stimuli/Test1.png,stimuli/Test2.png,"(0.7, -0.5)",cs_plus_ns,"(-0.7, 0.5)",cs_minus_ns,0,0,0,0,,,,,0,36,36,33,,229.43208860000595,ä,0.5423815998947248,correct,,35,B,2023-12-18_09h28.22.298,gca_discrimination,2022.2.4,143.9145030499125,
positions.xlsx,stimuli.xlsx,test.xlsx,stimuli/Social2.png,stimuli/Social1.png,stimuli/Nonsocial1.png,stimuli/Nonsocial2.png,stimuli/Test1.png,stimuli/Test2.png,"(-0.7, 0.5)",cs_plus_ns,"(0.7, -0.5)",cs_minus_ns,0,0,0,0,,,,,0,37,37,26,,232.1125197999645,ä,0.7894923000130802,correct,,35,B,2023-12-18_09h28.22.298,gca_discrimination,2022.2.4,143.9145030499125,
positions.xlsx,stimuli.xlsx,test.xlsx,stimuli/Social2.png,stimuli/Social1.png,stimuli/Nonsocial1.png,stimuli/Nonsocial2.png,stimuli/Test1.png,stimuli/Test2.png,"(-0.7, -0.5)",cs_minus_s,"(0.7, 0.5)",cs_plus_s,0,0,0,0,,,,,0,38,38,16,,235.0568237999687,ä,0.5568408999824896,correct,,35,B,2023-12-18_09h28.22.298,gca_discrimination,2022.2.4,143.9145030499125,
positions.xlsx,stimuli.xlsx,test.xlsx,stimuli/Social2.png,stimuli/Social1.png,stimuli/Nonsocial1.png,stimuli/Nonsocial2.png,stimuli/Test1.png,stimuli/Test2.png,"(0.7, -0.5)",cs_plus_s,"(-0.7, 0.5)",cs_plus_s,0,0,0,0,,,,,0,39,39,57,,238.33447999996133,l,1.0393776999553666,correct,,35,B,2023-12-18_09h28.22.298,gca_discrimination,2022.2.4,143.9145030499125,
positions.xlsx,stimuli.xlsx,test.xlsx,stimuli/Social2.png,stimuli/Social1.png,stimuli/Nonsocial1.png,stimuli/Nonsocial2.png,stimuli/Test1.png,stimuli/Test2.png,"(-0.7, 0.5)",cs_minus_s,"(0.7, -0.5)",cs_minus_s,0,0,0,0,,,,,0,40,40,62,,241.882987900055,l,0.643227000022307,correct,,35,B,2023-12-18_09h28.22.298,gca_discrimination,2022.2.4,143.9145030499125,
positions.xlsx,stimuli.xlsx,test.xlsx,stimuli/Social2.png,stimuli/Social1.png,stimuli/Nonsocial1.png,stimuli/Nonsocial2.png,stimuli/Test1.png,stimuli/Test2.png,"(0.7, -0.5)",cs_plus_s,"(-0.7, -0.5)",cs_plus_s,0,0,0,0,,,,,0,41,41,58,,244.57041090005077,l,0.620549299987033,correct,,35,B,2023-12-18_09h28.22.298,gca_discrimination,2022.2.4,143.9145030499125,
positions.xlsx,stimuli.xlsx,test.xlsx,stimuli/Social2.png,stimuli/Social1.png,stimuli/Nonsocial1.png,stimuli/Nonsocial2.png,stimuli/Test1.png,stimuli/Test2.png,"(0.7, 0.5)",cs_minus_ns,"(-0.7, -0.5)",cs_minus_ns,0,0,0,0,,,,,0,42,42,91,,247.68136909999885,l,0.5579970000544563,correct,,35,B,2023-12-18_09h28.22.298,gca_discrimination,2022.2.4,143.9145030499125,
positions.xlsx,stimuli.xlsx,test.xlsx,stimuli/Social2.png,stimuli/Social1.png,stimuli/Nonsocial1.png,stimuli/Nonsocial2.png,stimuli/Test1.png,stimuli/Test2.png,"(0.7, 0.5)",cs_minus_s,"(-0.7, -0.5)",cs_minus_s,0,0,0,0,,,,,0,43,43,67,,250.15351340000052,l,0.4861280000768602,correct,,35,B,2023-12-18_09h28.22.298,gca_discrimination,2022.2.4,143.9145030499125,
positions.xlsx,stimuli.xlsx,test.xlsx,stimuli/Social2.png,stimuli/Social1.png,stimuli/Nonsocial1.png,stimuli/Nonsocial2.png,stimuli/Test1.png,stimuli/Test2.png,"(0.7, 0.5)",cs_plus_ns,"(-0.7, 0.5)",cs_minus_ns,0,0,0,0,,,,,0,44,44,30,,253.18114480003715,None,,no answer,,35,B,2023-12-18_09h28.22.298,gca_discrimination,2022.2.4,143.9145030499125,
positions.xlsx,stimuli.xlsx,test.xlsx,stimuli/Social2.png,stimuli/Social1.png,stimuli/Nonsocial1.png,stimuli/Nonsocial2.png,stimuli/Test1.png,stimuli/Test2.png,"(-0.7, -0.5)",cs_plus_s,"(0.7, -0.5)",cs_plus_s,0,0,0,0,,,,,0,45,45,53,,257.687914500013,l,0.47781130007933825,correct,,35,B,2023-12-18_09h28.22.298,gca_discrimination,2022.2.4,143.9145030499125,
positions.xlsx,stimuli.xlsx,test.xlsx,stimuli/Social2.png,stimuli/Social1.png,stimuli/Nonsocial1.png,stimuli/Nonsocial2.png,stimuli/Test1.png,stimuli/Test2.png,"(0.7, 0.5)",cs_plus_s,"(0.7, -0.5)",cs_plus_s,0,0,0,0,,,,,0,46,46,56,,260.3475315000396,l,0.5386520000174642,correct,,35,B,2023-12-18_09h28.22.298,gca_discrimination,2022.2.4,143.9145030499125,
positions.xlsx,stimuli.xlsx,test.xlsx,stimuli/Social2.png,stimuli/Social1.png,stimuli/Nonsocial1.png,stimuli/Nonsocial2.png,stimuli/Test1.png,stimuli/Test2.png,"(-0.7, 0.5)",cs_minus_s,"(0.7, 0.5)",cs_plus_s,0,0,0,0,,,,,0,47,47,13,,263.1876963999821,ä,0.3627336999634281,correct,,35,B,2023-12-18_09h28.22.298,gca_discrimination,2022.2.4,143.9145030499125,
positions.xlsx,stimuli.xlsx,test.xlsx,stimuli/Social2.png,stimuli/Social1.png,stimuli/Nonsocial1.png,stimuli/Nonsocial2.png,stimuli/Test1.png,stimuli/Test2.png,"(0.7, 0.5)",cs_minus_ns,"(-0.7, -0.5)",cs_plus_ns,0,0,0,0,,,,,0,48,48,43,,265.47927640005946,ä,0.4550444999476895,correct,,35,B,2023-12-18_09h28.22.298,gca_discrimination,2022.2.4,143.9145030499125,
positions.xlsx,stimuli.xlsx,test.xlsx,stimuli/Social2.png,stimuli/Social1.png,stimuli/Nonsocial1.png,stimuli/Nonsocial2.png,stimuli/Test1.png,stimuli/Test2.png,"(0.7, 0.5)",cs_plus_ns,"(-0.7, -0.5)",cs_plus_ns,0,0,0,0,,,,,0,49,49,79,,268.3402504000114,l,0.5142353000119328,correct,,35,B,2023-12-18_09h28.22.298,gca_discrimination,2022.2.4,143.9145030499125,
positions.xlsx,stimuli.xlsx,test.xlsx,stimuli/Social2.png,stimuli/Social1.png,stimuli/Nonsocial1.png,stimuli/Nonsocial2.png,stimuli/Test1.png,stimuli/Test2.png,"(0.7, -0.5)",cs_plus_s,"(0.7, 0.5)",cs_minus_s,0,0,0,0,,,,,0,50,50,11,,271.08324579999316,ä,0.45933619991410524,correct,,35,B,2023-12-18_09h28.22.298,gca_discrimination,2022.2.4,143.9145030499125,
positions.xlsx,stimuli.xlsx,test.xlsx,stimuli/Social2.png,stimuli/Social1.png,stimuli/Nonsocial1.png,stimuli/Nonsocial2.png,stimuli/Test1.png,stimuli/Test2.png,"(0.7, 0.5)",cs_minus_ns,"(0.7, -0.5)",cs_minus_ns,0,0,0,0,,,,,0,51,51,92,,273.78452670003753,l,0.4470242999959737,correct,,35,B,2023-12-18_09h28.22.298,gca_discrimination,2022.2.4,143.9145030499125,
positions.xlsx,stimuli.xlsx,test.xlsx,stimuli/Social2.png,stimuli/Social1.png,stimuli/Nonsocial1.png,stimuli/Nonsocial2.png,stimuli/Test1.png,stimuli/Test2.png,"(-0.7, -0.5)",cs_plus_ns,"(0.7, 0.5)",cs_minus_ns,0,0,0,0,,,,,0,52,52,28,,276.53437729994766,ä,0.5439868000103161,correct,,35,B,2023-12-18_09h28.22.298,gca_discrimination,2022.2.4,143.9145030499125,
positions.xlsx,stimuli.xlsx,test.xlsx,stimuli/Social2.png,stimuli/Social1.png,stimuli/Nonsocial1.png,stimuli/Nonsocial2.png,stimuli/Test1.png,stimuli/Test2.png,"(0.7, -0.5)",cs_minus_s,"(0.7, 0.5)",cs_minus_s,0,0,0,0,,,,,0,53,53,71,,278.96488089999184,l,0.42500779998954386,correct,,35,B,2023-12-18_09h28.22.298,gca_discrimination,2022.2.4,143.9145030499125,
positions.xlsx,stimuli.xlsx,test.xlsx,stimuli/Social2.png,stimuli/Social1.png,stimuli/Nonsocial1.png,stimuli/Nonsocial2.png,stimuli/Test1.png,stimuli/Test2.png,"(0.7, 0.5)",cs_plus_s,"(-0.7, 0.5)",cs_minus_s,0,0,0,0,,,,,0,54,54,6,,281.37449349998496,ä,0.5679101999849081,correct,,35,B,2023-12-18_09h28.22.298,gca_discrimination,2022.2.4,143.9145030499125,
positions.xlsx,stimuli.xlsx,test.xlsx,stimuli/Social2.png,stimuli/Social1.png,stimuli/Nonsocial1.png,stimuli/Nonsocial2.png,stimuli/Test1.png,stimuli/Test2.png,"(0.7, -0.5)",cs_plus_ns,"(-0.7, 0.5)",cs_plus_ns,0,0,0,0,,,,,0,55,55,81,,284.72851080005057,l,0.5344325000187382,correct,,35,B,2023-12-18_09h28.22.298,gca_discrimination,2022.2.4,143.9145030499125,
positions.xlsx,stimuli.xlsx,test.xlsx,stimuli/Social2.png,stimuli/Social1.png,stimuli/Nonsocial1.png,stimuli/Nonsocial2.png,stimuli/Test1.png,stimuli/Test2.png,"(-0.7, -0.5)",cs_minus_ns,"(0.7, 0.5)",cs_plus_ns,0,0,0,0,,,,,0,56,56,40,,287.1798257000046,ä,0.593813999905251,correct,,35,B,2023-12-18_09h28.22.298,gca_discrimination,2022.2.4,143.9145030499125,
positions.xlsx,stimuli.xlsx,test.xlsx,stimuli/Social2.png,stimuli/Social1.png,stimuli/Nonsocial1.png,stimuli/Nonsocial2.png,stimuli/Test1.png,stimuli/Test2.png,"(0.7, 0.5)",cs_plus_s,"(-0.7, 0.5)",cs_plus_s,0,0,0,0,,,,,0,57,57,54,,290.36024339997675,l,0.39745960000436753,correct,,35,B,2023-12-18_09h28.22.298,gca_discrimination,2022.2.4,143.9145030499125,
positions.xlsx,stimuli.xlsx,test.xlsx,stimuli/Social2.png,stimuli/Social1.png,stimuli/Nonsocial1.png,stimuli/Nonsocial2.png,stimuli/Test1.png,stimuli/Test2.png,"(-0.7, 0.5)",cs_plus_s,"(0.7, -0.5)",cs_minus_s,0,0,0,0,,,,,0,58,58,2,,293.019869599957,ä,0.579232000047341,correct,,35,B,2023-12-18_09h28.22.298,gca_discrimination,2022.2.4,143.9145030499125,
positions.xlsx,stimuli.xlsx,test.xlsx,stimuli/Social2.png,stimuli/Social1.png,stimuli/Nonsocial1.png,stimuli/Nonsocial2.png,stimuli/Test1.png,stimuli/Test2.png,"(0.7, 0.5)",cs_plus_ns,"(-0.7, 0.5)",cs_plus_ns,0,0,0,0,,,,,0,59,59,78,,295.616962900036,None,,no answer,,35,B,2023-12-18_09h28.22.298,gca_discrimination,2022.2.4,143.9145030499125,
positions.xlsx,stimuli.xlsx,test.xlsx,stimuli/Social2.png,stimuli/Social1.png,stimuli/Nonsocial1.png,stimuli/Nonsocial2.png,stimuli/Test1.png,stimuli/Test2.png,"(-0.7, 0.5)",cs_plus_ns,"(-0.7, -0.5)",cs_minus_ns,0,0,0,0,,,,,0,60,60,24,,299.51962659996934,ä,1.831668599974364,correct,,35,B,2023-12-18_09h28.22.298,gca_discrimination,2022.2.4,143.9145030499125,
positions.xlsx,stimuli.xlsx,test.xlsx,stimuli/Social2.png,stimuli/Social1.png,stimuli/Nonsocial1.png,stimuli/Nonsocial2.png,stimuli/Test1.png,stimuli/Test2.png,"(0.7, -0.5)",cs_minus_ns,"(0.7, 0.5)",cs_plus_ns,0,0,0,0,,,,,0,61,61,47,,303.21391219994985,ä,0.46394629997666925,correct,,35,B,2023-12-18_09h28.22.298,gca_discrimination,2022.2.4,143.9145030499125,
positions.xlsx,stimuli.xlsx,test.xlsx,stimuli/Social2.png,stimuli/Social1.png,stimuli/Nonsocial1.png,stimuli/Nonsocial2.png,stimuli/Test1.png,stimuli/Test2.png,"(-0.7, -0.5)",cs_plus_s,"(-0.7, 0.5)",cs_minus_s,0,0,0,0,,,,,0,62,62,3,,306.2971966000041,ä,0.5498575998935848,correct,,35,B,2023-12-18_09h28.22.298,gca_discrimination,2022.2.4,143.9145030499125,
positions.xlsx,stimuli.xlsx,test.xlsx,stimuli/Social2.png,stimuli/Social1.png,stimuli/Nonsocial1.png,stimuli/Nonsocial2.png,stimuli/Test1.png,stimuli/Test2.png,"(0.7, -0.5)",cs_minus_ns,"(0.7, 0.5)",cs_minus_ns,0,0,0,0,,,,,0,63,63,95,,308.8387064000126,None,,no answer,,35,B,2023-12-18_09h28.22.298,gca_discrimination,2022.2.4,143.9145030499125,
positions.xlsx,stimuli.xlsx,test.xlsx,stimuli/Social2.png,stimuli/Social1.png,stimuli/Nonsocial1.png,stimuli/Nonsocial2.png,stimuli/Test1.png,stimuli/Test2.png,"(-0.7, 0.5)",cs_plus_s,"(0.7, 0.5)",cs_minus_s,0,0,0,0,,,,,0,64,64,1,,313.324634199962,None,,no answer,,35,B,2023-12-18_09h28.22.298,gca_discrimination,2022.2.4,143.9145030499125,
positions.xlsx,stimuli.xlsx,test.xlsx,stimuli/Social2.png,stimuli/Social1.png,stimuli/Nonsocial1.png,stimuli/Nonsocial2.png,stimuli/Test1.png,stimuli/Test2.png,"(0.7, 0.5)",cs_minus_s,"(-0.7, 0.5)",cs_minus_s,0,0,0,0,,,,,0,65,65,66,,317.7411305999849,l,0.345697799930349,correct,,35,B,2023-12-18_09h28.22.298,gca_discrimination,2022.2.4,143.9145030499125,
positions.xlsx,stimuli.xlsx,test.xlsx,stimuli/Social2.png,stimuli/Social1.png,stimuli/Nonsocial1.png,stimuli/Nonsocial2.png,stimuli/Test1.png,stimuli/Test2.png,"(-0.7, -0.5)",cs_plus_s,"(0.7, 0.5)",cs_plus_s,0,0,0,0,,,,,0,66,66,52,,320.08129430003464,ä,0.4458026000065729,wrong,,35,B,2023-12-18_09h28.22.298,gca_discrimination,2022.2.4,143.9145030499125,
positions.xlsx,stimuli.xlsx,test.xlsx,stimuli/Social2.png,stimuli/Social1.png,stimuli/Nonsocial1.png,stimuli/Nonsocial2.png,stimuli/Test1.png,stimuli/Test2.png,"(0.7, -0.5)",cs_plus_s,"(-0.7, -0.5)",cs_minus_s,0,0,0,0,,,,,0,67,67,10,,322.99786100001074,ä,0.5203526000259444,correct,,35,B,2023-12-18_09h28.22.298,gca_discrimination,2022.2.4,143.9145030499125,
positions.xlsx,stimuli.xlsx,test.xlsx,stimuli/Social2.png,stimuli/Social1.png,stimuli/Nonsocial1.png,stimuli/Nonsocial2.png,stimuli/Test1.png,stimuli/Test2.png,"(0.7, -0.5)",cs_plus_ns,"(-0.7, -0.5)",cs_minus_ns,0,0,0,0,,,,,0,68,68,34,,326.01161980000325,ä,0.6512810999993235,correct,,35,B,2023-12-18_09h28.22.298,gca_discrimination,2022.2.4,143.9145030499125,
positions.xlsx,stimuli.xlsx,test.xlsx,stimuli/Social2.png,stimuli/Social1.png,stimuli/Nonsocial1.png,stimuli/Nonsocial2.png,stimuli/Test1.png,stimuli/Test2.png,"(0.7, 0.5)",cs_minus_ns,"(-0.7, 0.5)",cs_minus_ns,0,0,0,0,,,,,0,69,69,90,,328.7476205000421,l,0.3224137000506744,correct,,35,B,2023-12-18_09h28.22.298,gca_discrimination,2022.2.4,143.9145030499125,
positions.xlsx,stimuli.xlsx,test.xlsx,stimuli/Social2.png,stimuli/Social1.png,stimuli/Nonsocial1.png,stimuli/Nonsocial2.png,stimuli/Test1.png,stimuli/Test2.png,"(0.7, 0.5)",cs_plus_ns,"(0.7, -0.5)",cs_plus_ns,0,0,0,0,,,,,0,70,70,80,,331.8516766000539,l,0.4195029999827966,correct,,35,B,2023-12-18_09h28.22.298,gca_discrimination,2022.2.4,143.9145030499125,
positions.xlsx,stimuli.xlsx,test.xlsx,stimuli/Social2.png,stimuli/Social1.png,stimuli/Nonsocial1.png,stimuli/Nonsocial2.png,stimuli/Test1.png,stimuli/Test2.png,"(0.7, -0.5)",cs_minus_ns,"(-0.7, -0.5)",cs_plus_ns,0,0,0,0,,,,,0,71,71,46,,334.7126516000135,ä,0.5010921000503004,correct,,35,B,2023-12-18_09h28.22.298,gca_discrimination,2022.2.4,143.9145030499125,
positions.xlsx,stimuli.xlsx,test.xlsx,stimuli/Social2.png,stimuli/Social1.png,stimuli/Nonsocial1.png,stimuli/Nonsocial2.png,stimuli/Test1.png,stimuli/Test2.png,"(0.7, 0.5)",cs_plus_s,"(-0.7, -0.5)",cs_minus_s,0,0,0,0,,,,,0,72,72,7,,337.2889392999932,None,,no answer,,35,B,2023-12-18_09h28.22.298,gca_discrimination,2022.2.4,143.9145030499125,
positions.xlsx,stimuli.xlsx,test.xlsx,stimuli/Social2.png,stimuli/Social1.png,stimuli/Nonsocial1.png,stimuli/Nonsocial2.png,stimuli/Test1.png,stimuli/Test2.png,"(0.7, -0.5)",cs_minus_ns,"(-0.7, 0.5)",cs_plus_ns,0,0,0,0,,,,,0,73,73,45,,341.2610279000364,ä,0.5767359000165015,correct,,35,B,2023-12-18_09h28.22.298,gca_discrimination,2022.2.4,143.9145030499125,
positions.xlsx,stimuli.xlsx,test.xlsx,stimuli/Social2.png,stimuli/Social1.png,stimuli/Nonsocial1.png,stimuli/Nonsocial2.png,stimuli/Test1.png,stimuli/Test2.png,"(-0.7, -0.5)",cs_minus_s,"(-0.7, 0.5)",cs_plus_s,0,0,0,0,,,,,0,74,74,15,,344.28869189997204,ä,1.7023216999368742,correct,,35,B,2023-12-18_09h28.22.298,gca_discrimination,2022.2.4,143.9145030499125,
positions.xlsx,stimuli.xlsx,test.xlsx,stimuli/Social2.png,stimuli/Social1.png,stimuli/Nonsocial1.png,stimuli/Nonsocial2.png,stimuli/Test1.png,stimuli/Test2.png,"(0.7, 0.5)",cs_plus_s,"(0.7, -0.5)",cs_minus_s,0,0,0,0,,,,,0,75,75,8,,348.4968534000218,ä,0.6690836000489071,correct,,35,B,2023-12-18_09h28.22.298,gca_discrimination,2022.2.4,143.9145030499125,
positions.xlsx,stimuli.xlsx,test.xlsx,stimuli/Social2.png,stimuli/Social1.png,stimuli/Nonsocial1.png,stimuli/Nonsocial2.png,stimuli/Test1.png,stimuli/Test2.png,"(-0.7, 0.5)",cs_minus_ns,"(-0.7, -0.5)",cs_plus_ns,0,0,0,0,,,,,0,76,76,36,,351.0870306000579,ä,1.3354256000602618,correct,,35,B,2023-12-18_09h28.22.298,gca_discrimination,2022.2.4,143.9145030499125,
positions.xlsx,stimuli.xlsx,test.xlsx,stimuli/Social2.png,stimuli/Social1.png,stimuli/Nonsocial1.png,stimuli/Nonsocial2.png,stimuli/Test1.png,stimuli/Test2.png,"(-0.7, -0.5)",cs_minus_ns,"(0.7, -0.5)",cs_minus_ns,0,0,0,0,,,,,0,77,77,89,,354.74660099996254,ä,0.7154966000234708,wrong,,35,B,2023-12-18_09h28.22.298,gca_discrimination,2022.2.4,143.9145030499125,
positions.xlsx,stimuli.xlsx,test.xlsx,stimuli/Social2.png,stimuli/Social1.png,stimuli/Nonsocial1.png,stimuli/Nonsocial2.png,stimuli/Test1.png,stimuli/Test2.png,"(0.7, 0.5)",cs_plus_ns,"(0.7, -0.5)",cs_minus_ns,0,0,0,0,,,,,0,78,78,32,,358.0728585999459,ä,0.437137300032191,correct,,35,B,2023-12-18_09h28.22.298,gca_discrimination,2022.2.4,143.9145030499125,
positions.xlsx,stimuli.xlsx,test.xlsx,stimuli/Social2.png,stimuli/Social1.png,stimuli/Nonsocial1.png,stimuli/Nonsocial2.png,stimuli/Test1.png,stimuli/Test2.png,"(-0.7, -0.5)",cs_plus_ns,"(0.7, 0.5)",cs_plus_ns,0,0,0,0,,,,,0,79,79,76,,360.3991799999494,l,0.5924068000167608,correct,,35,B,2023-12-18_09h28.22.298,gca_discrimination,2022.2.4,143.9145030499125,
positions.xlsx,stimuli.xlsx,test.xlsx,stimuli/Social2.png,stimuli/Social1.png,stimuli/Nonsocial1.png,stimuli/Nonsocial2.png,stimuli/Test1.png,stimuli/Test2.png,"(-0.7, 0.5)",cs_minus_s,"(-0.7, -0.5)",cs_minus_s,0,0,0,0,,,,,0,80,80,60,,363.2393806000473,l,0.3109325000550598,correct,,35,B,2023-12-18_09h28.22.298,gca_discrimination,2022.2.4,143.9145030499125,
positions.xlsx,stimuli.xlsx,test.xlsx,stimuli/Social2.png,stimuli/Social1.png,stimuli/Nonsocial1.png,stimuli/Nonsocial2.png,stimuli/Test1.png,stimuli/Test2.png,"(0.7, -0.5)",cs_plus_ns,"(0.7, 0.5)",cs_minus_ns,0,0,0,0,,,,,0,81,81,35,,365.7947644999949,ä,0.6835021999431774,correct,,35,B,2023-12-18_09h28.22.298,gca_discrimination,2022.2.4,143.9145030499125,
positions.xlsx,stimuli.xlsx,test.xlsx,stimuli/Social2.png,stimuli/Social1.png,stimuli/Nonsocial1.png,stimuli/Nonsocial2.png,stimuli/Test1.png,stimuli/Test2.png,"(-0.7, 0.5)",cs_minus_ns,"(-0.7, -0.5)",cs_minus_ns,0,0,0,0,,,,,0,82,82,84,,369.16966230003163,l,0.4534777000080794,correct,,35,B,2023-12-18_09h28.22.298,gca_discrimination,2022.2.4,143.9145030499125,
positions.xlsx,stimuli.xlsx,test.xlsx,stimuli/Social2.png,stimuli/Social1.png,stimuli/Nonsocial1.png,stimuli/Nonsocial2.png,stimuli/Test1.png,stimuli/Test2.png,"(-0.7, 0.5)",cs_plus_s,"(0.7, -0.5)",cs_plus_s,0,0,0,0,,,,,0,83,83,50,,371.83622769999783,l,0.44182780000846833,correct,,35,B,2023-12-18_09h28.22.298,gca_discrimination,2022.2.4,143.9145030499125,
positions.xlsx,stimuli.xlsx,test.xlsx,stimuli/Social2.png,stimuli/Social1.png,stimuli/Nonsocial1.png,stimuli/Nonsocial2.png,stimuli/Test1.png,stimuli/Test2.png,"(-0.7, 0.5)",cs_plus_ns,"(-0.7, -0.5)",cs_plus_ns,0,0,0,0,,,,,0,84,84,72,,374.55139999999665,l,0.3278385999146849,correct,,35,B,2023-12-18_09h28.22.298,gca_discrimination,2022.2.4,143.9145030499125,
positions.xlsx,stimuli.xlsx,test.xlsx,stimuli/Social2.png,stimuli/Social1.png,stimuli/Nonsocial1.png,stimuli/Nonsocial2.png,stimuli/Test1.png,stimuli/Test2.png,"(0.7, -0.5)",cs_plus_ns,"(-0.7, -0.5)",cs_plus_ns,0,0,0,0,,,,,0,85,85,82,,377.2596040000208,l,0.2821068000048399,correct,,35,B,2023-12-18_09h28.22.298,gca_discrimination,2022.2.4,143.9145030499125,
positions.xlsx,stimuli.xlsx,test.xlsx,stimuli/Social2.png,stimuli/Social1.png,stimuli/Nonsocial1.png,stimuli/Nonsocial2.png,stimuli/Test1.png,stimuli/Test2.png,"(0.7, -0.5)",cs_plus_s,"(0.7, 0.5)",cs_plus_s,0,0,0,0,,,,,0,86,86,59,,379.52342089999,l,0.4110651999944821,correct,,35,B,2023-12-18_09h28.22.298,gca_discrimination,2022.2.4,143.9145030499125,
positions.xlsx,stimuli.xlsx,test.xlsx,stimuli/Social2.png,stimuli/Social1.png,stimuli/Nonsocial1.png,stimuli/Nonsocial2.png,stimuli/Test1.png,stimuli/Test2.png,"(0.7, -0.5)",cs_minus_s,"(0.7, 0.5)",cs_plus_s,0,0,0,0,,,,,0,87,87,23,,382.6343676999677,ä,0.4755834999959916,correct,,35,B,2023-12-18_09h28.22.298,gca_discrimination,2022.2.4,143.9145030499125,
positions.xlsx,stimuli.xlsx,test.xlsx,stimuli/Social2.png,stimuli/Social1.png,stimuli/Nonsocial1.png,stimuli/Nonsocial2.png,stimuli/Test1.png,stimuli/Test2.png,"(-0.7, 0.5)",cs_plus_ns,"(0.7, 0.5)",cs_minus_ns,0,0,0,0,,,,,0,88,88,25,,385.28706500004046,ä,0.49554470006842166,correct,,35,B,2023-12-18_09h28.22.298,gca_discrimination,2022.2.4,143.9145030499125,
positions.xlsx,stimuli.xlsx,test.xlsx,stimuli/Social2.png,stimuli/Social1.png,stimuli/Nonsocial1.png,stimuli/Nonsocial2.png,stimuli/Test1.png,stimuli/Test2.png,"(-0.7, -0.5)",cs_plus_s,"(0.7, 0.5)",cs_minus_s,0,0,0,0,,,,,0,89,89,4,,387.9119496999774,ä,0.4305949999252334,correct,,35,B,2023-12-18_09h28.22.298,gca_discrimination,2022.2.4,143.9145030499125,
positions.xlsx,stimuli.xlsx,test.xlsx,stimuli/Social2.png,stimuli/Social1.png,stimuli/Nonsocial1.png,stimuli/Nonsocial2.png,stimuli/Test1.png,stimuli/Test2.png,"(0.7, -0.5)",cs_minus_ns,"(-0.7, -0.5)",cs_minus_ns,0,0,0,0,,,,,0,90,90,94,,390.94653720001224,l,0.45296790008433163,correct,,35,B,2023-12-18_09h28.22.298,gca_discrimination,2022.2.4,143.9145030499125,
positions.xlsx,stimuli.xlsx,test.xlsx,stimuli/Social2.png,stimuli/Social1.png,stimuli/Nonsocial1.png,stimuli/Nonsocial2.png,stimuli/Test1.png,stimuli/Test2.png,"(-0.7, 0.5)",cs_plus_s,"(-0.7, -0.5)",cs_plus_s,0,0,0,0,,,,,0,91,91,48,,394.17559070000425,l,0.4469287999672815,correct,,35,B,2023-12-18_09h28.22.298,gca_discrimination,2022.2.4,143.9145030499125,
positions.xlsx,stimuli.xlsx,test.xlsx,stimuli/Social2.png,stimuli/Social1.png,stimuli/Nonsocial1.png,stimuli/Nonsocial2.png,stimuli/Test1.png,stimuli/Test2.png,"(-0.7, 0.5)",cs_minus_s,"(-0.7, -0.5)",cs_plus_s,0,0,0,0,,,,,0,92,92,12,,396.60608229995705,ä,0.3763038000324741,correct,,35,B,2023-12-18_09h28.22.298,gca_discrimination,2022.2.4,143.9145030499125,
positions.xlsx,stimuli.xlsx,test.xlsx,stimuli/Social2.png,stimuli/Social1.png,stimuli/Nonsocial1.png,stimuli/Nonsocial2.png,stimuli/Test1.png,stimuli/Test2.png,"(-0.7, -0.5)",cs_minus_ns,"(-0.7, 0.5)",cs_minus_ns,0,0,0,0,,,,,0,93,93,87,,398.81431219994556,ä,0.335738499998115,wrong,,35,B,2023-12-18_09h28.22.298,gca_discrimination,2022.2.4,143.9145030499125,
positions.xlsx,stimuli.xlsx,test.xlsx,stimuli/Social2.png,stimuli/Social1.png,stimuli/Nonsocial1.png,stimuli/Nonsocial2.png,stimuli/Test1.png,stimuli/Test2.png,"(-0.7, -0.5)",cs_plus_ns,"(0.7, -0.5)",cs_plus_ns,0,0,0,0,,,,,0,94,94,77,,400.9670104000252,l,0.4235660000704229,correct,,35,B,2023-12-18_09h28.22.298,gca_discrimination,2022.2.4,143.9145030499125,
positions.xlsx,stimuli.xlsx,test.xlsx,stimuli/Social2.png,stimuli/Social1.png,stimuli/Nonsocial1.png,stimuli/Nonsocial2.png,stimuli/Test1.png,stimuli/Test2.png,"(0.7, 0.5)",cs_minus_s,"(0.7, -0.5)",cs_plus_s,0,0,0,0,,,,,0,95,95,20,,403.33498010004405,ä,0.3031567999860272,correct,,35,B,2023-12-18_09h28.22.298,gca_discrimination,2022.2.4,143.9145030499125,
