posFile,stimFile,testFile,cs_plus_s,cs_minus_s,cs_plus_ns,cs_minus_ns,test1,test2,position1,trialtype,position2,comptype,blocks.thisRepN,blocks.thisTrialN,blocks.thisN,blocks.thisIndex,learning_trials.thisRepN,learning_trials.thisTrialN,learning_trials.thisN,learning_trials.thisIndex,trials.thisRepN,trials.thisTrialN,trials.thisN,trials.thisIndex,textStart.started,key.started,key.keys,key.rt,correctness,textStartTask.started,participant,group,date,expName,psychopyVersion,frameRate,
positions.xlsx,stimuli.xlsx,test.xlsx,stimuli/Social1.png,stimuli/Social2.png,stimuli/Nonsocial2.png,stimuli/Nonsocial1.png,stimuli/Test1.png,stimuli/Test2.png,"(0.7, 0.5)",test2,"(-0.7, 0.5)",test1,0,0,0,0,0,0,0,13,,,,,9.028799900086597,47.47183090006001,ä,1.4983509000157937,correct,,25,C,2023-12-13_18h11.02.501,gca_discrimination,2022.2.4,143.91864547752343,
positions.xlsx,stimuli.xlsx,test.xlsx,stimuli/Social1.png,stimuli/Social2.png,stimuli/Nonsocial2.png,stimuli/Nonsocial1.png,stimuli/Test1.png,stimuli/Test2.png,"(0.7, -0.5)",test1,"(0.7, 0.5)",test2,0,0,0,0,0,1,1,0,,,,,,52.992413000087254,ä,1.2024847000138834,correct,,25,C,2023-12-13_18h11.02.501,gca_discrimination,2022.2.4,143.91864547752343,
positions.xlsx,stimuli.xlsx,test.xlsx,stimuli/Social1.png,stimuli/Social2.png,stimuli/Nonsocial2.png,stimuli/Nonsocial1.png,stimuli/Test1.png,stimuli/Test2.png,"(-0.7, 0.5)",test2,"(0.7, -0.5)",test1,0,0,0,0,0,2,2,12,,,,,,58.665829300065525,ä,0.8564793000696227,correct,,25,C,2023-12-13_18h11.02.501,gca_discrimination,2022.2.4,143.91864547752343,
positions.xlsx,stimuli.xlsx,test.xlsx,stimuli/Social1.png,stimuli/Social2.png,stimuli/Nonsocial2.png,stimuli/Nonsocial1.png,stimuli/Test1.png,stimuli/Test2.png,"(-0.7, -0.5)",test2,"(-0.7, 0.5)",test2,0,0,0,0,0,3,3,2,,,,,,63.73505330004264,l,0.7395064999582246,correct,,25,C,2023-12-13_18h11.02.501,gca_discrimination,2022.2.4,143.91864547752343,
positions.xlsx,stimuli.xlsx,test.xlsx,stimuli/Social1.png,stimuli/Social2.png,stimuli/Nonsocial2.png,stimuli/Nonsocial1.png,stimuli/Test1.png,stimuli/Test2.png,"(0.7, -0.5)",test2,"(-0.7, 0.5)",test1,0,0,0,0,0,4,4,4,,,,,,68.30430890002754,ä,0.7146684000035748,correct,,25,C,2023-12-13_18h11.02.501,gca_discrimination,2022.2.4,143.91864547752343,
positions.xlsx,stimuli.xlsx,test.xlsx,stimuli/Social1.png,stimuli/Social2.png,stimuli/Nonsocial2.png,stimuli/Nonsocial1.png,stimuli/Test1.png,stimuli/Test2.png,"(-0.7, 0.5)",test2,"(-0.7, -0.5)",test2,0,0,0,0,0,5,5,1,,,,,,72.99163709999993,l,0.9714314000448212,correct,,25,C,2023-12-13_18h11.02.501,gca_discrimination,2022.2.4,143.91864547752343,
positions.xlsx,stimuli.xlsx,test.xlsx,stimuli/Social1.png,stimuli/Social2.png,stimuli/Nonsocial2.png,stimuli/Nonsocial1.png,stimuli/Test1.png,stimuli/Test2.png,"(-0.7, -0.5)",test2,"(0.7, -0.5)",test2,0,0,0,0,0,6,6,9,,,,,,77.90812300005928,l,0.7188444000203162,correct,,25,C,2023-12-13_18h11.02.501,gca_discrimination,2022.2.4,143.91864547752343,
positions.xlsx,stimuli.xlsx,test.xlsx,stimuli/Social1.png,stimuli/Social2.png,stimuli/Nonsocial2.png,stimuli/Nonsocial1.png,stimuli/Test1.png,stimuli/Test2.png,"(-0.7, 0.5)",test2,"(0.7, 0.5)",test1,0,0,0,0,0,7,7,3,,,,,,83.04680210002698,ä,0.5793849999317899,correct,,25,C,2023-12-13_18h11.02.501,gca_discrimination,2022.2.4,143.91864547752343,
positions.xlsx,stimuli.xlsx,test.xlsx,stimuli/Social1.png,stimuli/Social2.png,stimuli/Nonsocial2.png,stimuli/Nonsocial1.png,stimuli/Test1.png,stimuli/Test2.png,"(-0.7, -0.5)",test2,"(0.7, 0.5)",test2,0,0,0,0,0,8,8,7,,,,,,87.92852810001932,l,0.8828424999956042,correct,,25,C,2023-12-13_18h11.02.501,gca_discrimination,2022.2.4,143.91864547752343,
positions.xlsx,stimuli.xlsx,test.xlsx,stimuli/Social1.png,stimuli/Social2.png,stimuli/Nonsocial2.png,stimuli/Nonsocial1.png,stimuli/Test1.png,stimuli/Test2.png,"(-0.7, 0.5)",test1,"(0.7, -0.5)",test1,0,0,0,0,0,9,9,5,,,,,,92.72003190009855,l,1.8755978000117466,correct,,25,C,2023-12-13_18h11.02.501,gca_discrimination,2022.2.4,143.91864547752343,
positions.xlsx,stimuli.xlsx,test.xlsx,stimuli/Social1.png,stimuli/Social2.png,stimuli/Nonsocial2.png,stimuli/Nonsocial1.png,stimuli/Test1.png,stimuli/Test2.png,"(0.7, 0.5)",test2,"(0.7, -0.5)",test1,0,0,0,0,0,10,10,6,,,,,,98.5531406000955,ä,0.8971085000084713,correct,,25,C,2023-12-13_18h11.02.501,gca_discrimination,2022.2.4,143.91864547752343,
positions.xlsx,stimuli.xlsx,test.xlsx,stimuli/Social1.png,stimuli/Social2.png,stimuli/Nonsocial2.png,stimuli/Nonsocial1.png,stimuli/Test1.png,stimuli/Test2.png,"(0.7, 0.5)",test1,"(0.7, -0.5)",test2,0,0,0,0,0,11,11,11,,,,,,103.4766096000094,ä,0.9349958000238985,correct,,25,C,2023-12-13_18h11.02.501,gca_discrimination,2022.2.4,143.91864547752343,
positions.xlsx,stimuli.xlsx,test.xlsx,stimuli/Social1.png,stimuli/Social2.png,stimuli/Nonsocial2.png,stimuli/Nonsocial1.png,stimuli/Test1.png,stimuli/Test2.png,"(0.7, -0.5)",test1,"(0.7, 0.5)",test1,0,0,0,0,0,12,12,10,,,,,,108.518041000003,l,0.7011003999505192,correct,,25,C,2023-12-13_18h11.02.501,gca_discrimination,2022.2.4,143.91864547752343,
positions.xlsx,stimuli.xlsx,test.xlsx,stimuli/Social1.png,stimuli/Social2.png,stimuli/Nonsocial2.png,stimuli/Nonsocial1.png,stimuli/Test1.png,stimuli/Test2.png,"(-0.7, -0.5)",test1,"(0.7, 0.5)",test2,0,0,0,0,0,13,13,8,,,,,,113.3720186999999,ä,0.6862563999602571,correct,,25,C,2023-12-13_18h11.02.501,gca_discrimination,2022.2.4,143.91864547752343,
positions.xlsx,stimuli.xlsx,test.xlsx,stimuli/Social1.png,stimuli/Social2.png,stimuli/Nonsocial2.png,stimuli/Nonsocial1.png,stimuli/Test1.png,stimuli/Test2.png,"(0.7, 0.5)",cs_minus_ns,"(-0.7, -0.5)",cs_plus_ns,0,0,0,0,,,,,0,0,0,43,,130.1491467000451,ä,0.9251376999309286,correct,116.19135990005452,25,C,2023-12-13_18h11.02.501,gca_discrimination,2022.2.4,143.91864547752343,
positions.xlsx,stimuli.xlsx,test.xlsx,stimuli/Social1.png,stimuli/Social2.png,stimuli/Nonsocial2.png,stimuli/Nonsocial1.png,stimuli/Test1.png,stimuli/Test2.png,"(0.7, -0.5)",cs_plus_s,"(0.7, 0.5)",cs_plus_s,0,0,0,0,,,,,0,1,1,59,,132.91989950009156,l,0.6505303999874741,correct,,25,C,2023-12-13_18h11.02.501,gca_discrimination,2022.2.4,143.91864547752343,
positions.xlsx,stimuli.xlsx,test.xlsx,stimuli/Social1.png,stimuli/Social2.png,stimuli/Nonsocial2.png,stimuli/Nonsocial1.png,stimuli/Test1.png,stimuli/Test2.png,"(-0.7, -0.5)",cs_minus_s,"(0.7, -0.5)",cs_plus_s,0,0,0,0,,,,,0,2,2,17,,135.42674000002444,ä,0.6885018999455497,correct,,25,C,2023-12-13_18h11.02.501,gca_discrimination,2022.2.4,143.91864547752343,
positions.xlsx,stimuli.xlsx,test.xlsx,stimuli/Social1.png,stimuli/Social2.png,stimuli/Nonsocial2.png,stimuli/Nonsocial1.png,stimuli/Test1.png,stimuli/Test2.png,"(-0.7, 0.5)",cs_plus_s,"(-0.7, -0.5)",cs_minus_s,0,0,0,0,,,,,0,3,3,0,,137.97522910009138,ä,0.5875184000469744,correct,,25,C,2023-12-13_18h11.02.501,gca_discrimination,2022.2.4,143.91864547752343,
positions.xlsx,stimuli.xlsx,test.xlsx,stimuli/Social1.png,stimuli/Social2.png,stimuli/Nonsocial2.png,stimuli/Nonsocial1.png,stimuli/Test1.png,stimuli/Test2.png,"(0.7, -0.5)",cs_minus_ns,"(0.7, 0.5)",cs_plus_ns,0,0,0,0,,,,,0,4,4,47,,141.14174160000402,ä,0.845169399981387,correct,,25,C,2023-12-13_18h11.02.501,gca_discrimination,2022.2.4,143.91864547752343,
positions.xlsx,stimuli.xlsx,test.xlsx,stimuli/Social1.png,stimuli/Social2.png,stimuli/Nonsocial2.png,stimuli/Nonsocial1.png,stimuli/Test1.png,stimuli/Test2.png,"(-0.7, 0.5)",cs_minus_s,"(0.7, 0.5)",cs_plus_s,0,0,0,0,,,,,0,5,5,13,,144.0166664000135,ä,0.7457960000028834,correct,,25,C,2023-12-13_18h11.02.501,gca_discrimination,2022.2.4,143.91864547752343,
positions.xlsx,stimuli.xlsx,test.xlsx,stimuli/Social1.png,stimuli/Social2.png,stimuli/Nonsocial2.png,stimuli/Nonsocial1.png,stimuli/Test1.png,stimuli/Test2.png,"(0.7, -0.5)",cs_plus_s,"(-0.7, 0.5)",cs_minus_s,0,0,0,0,,,,,0,6,6,9,,147.07903530006297,ä,0.6034215000690892,correct,,25,C,2023-12-13_18h11.02.501,gca_discrimination,2022.2.4,143.91864547752343,
positions.xlsx,stimuli.xlsx,test.xlsx,stimuli/Social1.png,stimuli/Social2.png,stimuli/Nonsocial2.png,stimuli/Nonsocial1.png,stimuli/Test1.png,stimuli/Test2.png,"(0.7, 0.5)",cs_minus_s,"(-0.7, 0.5)",cs_plus_s,0,0,0,0,,,,,0,7,7,18,,149.71091030002572,ä,0.6116232000058517,correct,,25,C,2023-12-13_18h11.02.501,gca_discrimination,2022.2.4,143.91864547752343,
positions.xlsx,stimuli.xlsx,test.xlsx,stimuli/Social1.png,stimuli/Social2.png,stimuli/Nonsocial2.png,stimuli/Nonsocial1.png,stimuli/Test1.png,stimuli/Test2.png,"(-0.7, -0.5)",cs_minus_s,"(-0.7, 0.5)",cs_plus_s,0,0,0,0,,,,,0,8,8,15,,152.27329919999465,ä,0.5690271999919787,correct,,25,C,2023-12-13_18h11.02.501,gca_discrimination,2022.2.4,143.91864547752343,
positions.xlsx,stimuli.xlsx,test.xlsx,stimuli/Social1.png,stimuli/Social2.png,stimuli/Nonsocial2.png,stimuli/Nonsocial1.png,stimuli/Test1.png,stimuli/Test2.png,"(0.7, -0.5)",cs_minus_ns,"(-0.7, -0.5)",cs_plus_ns,0,0,0,0,,,,,0,9,9,46,,155.6273198000854,ä,0.5200099999783561,correct,,25,C,2023-12-13_18h11.02.501,gca_discrimination,2022.2.4,143.91864547752343,
positions.xlsx,stimuli.xlsx,test.xlsx,stimuli/Social1.png,stimuli/Social2.png,stimuli/Nonsocial2.png,stimuli/Nonsocial1.png,stimuli/Test1.png,stimuli/Test2.png,"(-0.7, 0.5)",cs_minus_s,"(-0.7, -0.5)",cs_plus_s,0,0,0,0,,,,,0,10,10,12,,158.38413890008815,ä,0.5546293000224978,correct,,25,C,2023-12-13_18h11.02.501,gca_discrimination,2022.2.4,143.91864547752343,
positions.xlsx,stimuli.xlsx,test.xlsx,stimuli/Social1.png,stimuli/Social2.png,stimuli/Nonsocial2.png,stimuli/Nonsocial1.png,stimuli/Test1.png,stimuli/Test2.png,"(0.7, 0.5)",cs_minus_ns,"(-0.7, 0.5)",cs_minus_ns,0,0,0,0,,,,,0,11,11,90,,161.25901720009279,l,1.2079602000303566,correct,,25,C,2023-12-13_18h11.02.501,gca_discrimination,2022.2.4,143.91864547752343,
positions.xlsx,stimuli.xlsx,test.xlsx,stimuli/Social1.png,stimuli/Social2.png,stimuli/Nonsocial2.png,stimuli/Nonsocial1.png,stimuli/Test1.png,stimuli/Test2.png,"(0.7, 0.5)",cs_plus_s,"(-0.7, -0.5)",cs_plus_s,0,0,0,0,,,,,0,12,12,55,,164.32838860002812,l,0.6342540999175981,correct,,25,C,2023-12-13_18h11.02.501,gca_discrimination,2022.2.4,143.91864547752343,
positions.xlsx,stimuli.xlsx,test.xlsx,stimuli/Social1.png,stimuli/Social2.png,stimuli/Nonsocial2.png,stimuli/Nonsocial1.png,stimuli/Test1.png,stimuli/Test2.png,"(0.7, -0.5)",cs_minus_ns,"(0.7, 0.5)",cs_minus_ns,0,0,0,0,,,,,0,13,13,95,,167.68244120001327,l,0.4890202999813482,correct,,25,C,2023-12-13_18h11.02.501,gca_discrimination,2022.2.4,143.91864547752343,
positions.xlsx,stimuli.xlsx,test.xlsx,stimuli/Social1.png,stimuli/Social2.png,stimuli/Nonsocial2.png,stimuli/Nonsocial1.png,stimuli/Test1.png,stimuli/Test2.png,"(0.7, -0.5)",cs_plus_s,"(-0.7, -0.5)",cs_minus_s,0,0,0,0,,,,,0,14,14,10,,170.0017692000838,ä,1.0648447000421584,correct,,25,C,2023-12-13_18h11.02.501,gca_discrimination,2022.2.4,143.91864547752343,
positions.xlsx,stimuli.xlsx,test.xlsx,stimuli/Social1.png,stimuli/Social2.png,stimuli/Nonsocial2.png,stimuli/Nonsocial1.png,stimuli/Test1.png,stimuli/Test2.png,"(-0.7, 0.5)",cs_minus_s,"(0.7, -0.5)",cs_minus_s,0,0,0,0,,,,,0,15,15,62,,173.85580130002927,l,0.7791140999179333,correct,,25,C,2023-12-13_18h11.02.501,gca_discrimination,2022.2.4,143.91864547752343,
positions.xlsx,stimuli.xlsx,test.xlsx,stimuli/Social1.png,stimuli/Social2.png,stimuli/Nonsocial2.png,stimuli/Nonsocial1.png,stimuli/Test1.png,stimuli/Test2.png,"(0.7, -0.5)",cs_plus_ns,"(-0.7, 0.5)",cs_minus_ns,0,0,0,0,,,,,0,16,16,33,,176.64041120000184,None,,no answer,,25,C,2023-12-13_18h11.02.501,gca_discrimination,2022.2.4,143.91864547752343,
positions.xlsx,stimuli.xlsx,test.xlsx,stimuli/Social1.png,stimuli/Social2.png,stimuli/Nonsocial2.png,stimuli/Nonsocial1.png,stimuli/Test1.png,stimuli/Test2.png,"(-0.7, 0.5)",cs_plus_s,"(0.7, 0.5)",cs_minus_s,0,0,0,0,,,,,0,17,17,1,,181.35549830005039,ä,0.951399999903515,correct,,25,C,2023-12-13_18h11.02.501,gca_discrimination,2022.2.4,143.91864547752343,
positions.xlsx,stimuli.xlsx,test.xlsx,stimuli/Social1.png,stimuli/Social2.png,stimuli/Nonsocial2.png,stimuli/Nonsocial1.png,stimuli/Test1.png,stimuli/Test2.png,"(-0.7, 0.5)",cs_minus_ns,"(0.7, -0.5)",cs_minus_ns,0,0,0,0,,,,,0,18,18,86,,184.66094700002577,l,0.5894339999649674,correct,,25,C,2023-12-13_18h11.02.501,gca_discrimination,2022.2.4,143.91864547752343,
positions.xlsx,stimuli.xlsx,test.xlsx,stimuli/Social1.png,stimuli/Social2.png,stimuli/Nonsocial2.png,stimuli/Nonsocial1.png,stimuli/Test1.png,stimuli/Test2.png,"(0.7, 0.5)",cs_minus_s,"(-0.7, 0.5)",cs_minus_s,0,0,0,0,,,,,0,19,19,66,,187.28580810001586,l,0.5978669999167323,correct,,25,C,2023-12-13_18h11.02.501,gca_discrimination,2022.2.4,143.91864547752343,
positions.xlsx,stimuli.xlsx,test.xlsx,stimuli/Social1.png,stimuli/Social2.png,stimuli/Nonsocial2.png,stimuli/Nonsocial1.png,stimuli/Test1.png,stimuli/Test2.png,"(-0.7, 0.5)",cs_minus_ns,"(-0.7, -0.5)",cs_plus_ns,0,0,0,0,,,,,0,20,20,36,,190.6121123000048,ä,0.6543659999733791,correct,,25,C,2023-12-13_18h11.02.501,gca_discrimination,2022.2.4,143.91864547752343,
positions.xlsx,stimuli.xlsx,test.xlsx,stimuli/Social1.png,stimuli/Social2.png,stimuli/Nonsocial2.png,stimuli/Nonsocial1.png,stimuli/Test1.png,stimuli/Test2.png,"(-0.7, 0.5)",cs_plus_s,"(0.7, 0.5)",cs_plus_s,0,0,0,0,,,,,0,21,21,49,,193.32727400003932,l,0.4670453999424353,correct,,25,C,2023-12-13_18h11.02.501,gca_discrimination,2022.2.4,143.91864547752343,
positions.xlsx,stimuli.xlsx,test.xlsx,stimuli/Social1.png,stimuli/Social2.png,stimuli/Nonsocial2.png,stimuli/Nonsocial1.png,stimuli/Test1.png,stimuli/Test2.png,"(0.7, 0.5)",cs_plus_s,"(-0.7, 0.5)",cs_minus_s,0,0,0,0,,,,,0,22,22,6,,195.88968420005403,ä,0.6011964000063017,correct,,25,C,2023-12-13_18h11.02.501,gca_discrimination,2022.2.4,143.91864547752343,
positions.xlsx,stimuli.xlsx,test.xlsx,stimuli/Social1.png,stimuli/Social2.png,stimuli/Nonsocial2.png,stimuli/Nonsocial1.png,stimuli/Test1.png,stimuli/Test2.png,"(-0.7, -0.5)",cs_minus_ns,"(0.7, 0.5)",cs_plus_ns,0,0,0,0,,,,,0,23,23,40,,198.76454780006316,ä,0.6863485000794753,correct,,25,C,2023-12-13_18h11.02.501,gca_discrimination,2022.2.4,143.91864547752343,
positions.xlsx,stimuli.xlsx,test.xlsx,stimuli/Social1.png,stimuli/Social2.png,stimuli/Nonsocial2.png,stimuli/Nonsocial1.png,stimuli/Test1.png,stimuli/Test2.png,"(-0.7, 0.5)",cs_minus_s,"(0.7, 0.5)",cs_minus_s,0,0,0,0,,,,,0,24,24,61,,201.91027330001816,l,0.41240769997239113,correct,,25,C,2023-12-13_18h11.02.501,gca_discrimination,2022.2.4,143.91864547752343,
positions.xlsx,stimuli.xlsx,test.xlsx,stimuli/Social1.png,stimuli/Social2.png,stimuli/Nonsocial2.png,stimuli/Nonsocial1.png,stimuli/Test1.png,stimuli/Test2.png,"(0.7, 0.5)",cs_minus_s,"(-0.7, -0.5)",cs_plus_s,0,0,0,0,,,,,0,25,25,19,,205.04901580000296,ä,0.5380671999882907,correct,,25,C,2023-12-13_18h11.02.501,gca_discrimination,2022.2.4,143.91864547752343,
positions.xlsx,stimuli.xlsx,test.xlsx,stimuli/Social1.png,stimuli/Social2.png,stimuli/Nonsocial2.png,stimuli/Nonsocial1.png,stimuli/Test1.png,stimuli/Test2.png,"(0.7, -0.5)",cs_minus_s,"(-0.7, 0.5)",cs_minus_s,0,0,0,0,,,,,0,26,26,69,,208.03504910005722,ä,1.0716221000766382,wrong,,25,C,2023-12-13_18h11.02.501,gca_discrimination,2022.2.4,143.91864547752343,
positions.xlsx,stimuli.xlsx,test.xlsx,stimuli/Social1.png,stimuli/Social2.png,stimuli/Nonsocial2.png,stimuli/Nonsocial1.png,stimuli/Test1.png,stimuli/Test2.png,"(-0.7, 0.5)",cs_plus_ns,"(-0.7, -0.5)",cs_minus_ns,0,0,0,0,,,,,0,27,27,24,,211.8821054000873,ä,0.720063199987635,correct,,25,C,2023-12-13_18h11.02.501,gca_discrimination,2022.2.4,143.91864547752343,
positions.xlsx,stimuli.xlsx,test.xlsx,stimuli/Social1.png,stimuli/Social2.png,stimuli/Nonsocial2.png,stimuli/Nonsocial1.png,stimuli/Test1.png,stimuli/Test2.png,"(-0.7, -0.5)",cs_plus_ns,"(0.7, 0.5)",cs_plus_ns,0,0,0,0,,,,,0,28,28,76,,215.27784059999976,l,0.5810645000310615,correct,,25,C,2023-12-13_18h11.02.501,gca_discrimination,2022.2.4,143.91864547752343,
positions.xlsx,stimuli.xlsx,test.xlsx,stimuli/Social1.png,stimuli/Social2.png,stimuli/Nonsocial2.png,stimuli/Nonsocial1.png,stimuli/Test1.png,stimuli/Test2.png,"(-0.7, -0.5)",cs_plus_ns,"(0.7, -0.5)",cs_minus_ns,0,0,0,0,,,,,0,29,29,29,,217.82633480010554,ä,0.7044556000037119,correct,,25,C,2023-12-13_18h11.02.501,gca_discrimination,2022.2.4,143.91864547752343,
positions.xlsx,stimuli.xlsx,test.xlsx,stimuli/Social1.png,stimuli/Social2.png,stimuli/Nonsocial2.png,stimuli/Nonsocial1.png,stimuli/Test1.png,stimuli/Test2.png,"(-0.7, 0.5)",cs_plus_s,"(-0.7, -0.5)",cs_plus_s,0,0,0,0,,,,,0,30,30,48,,220.53455480001867,l,0.38837299996521324,correct,,25,C,2023-12-13_18h11.02.501,gca_discrimination,2022.2.4,143.91864547752343,
positions.xlsx,stimuli.xlsx,test.xlsx,stimuli/Social1.png,stimuli/Social2.png,stimuli/Nonsocial2.png,stimuli/Nonsocial1.png,stimuli/Test1.png,stimuli/Test2.png,"(-0.7, 0.5)",cs_plus_s,"(0.7, -0.5)",cs_minus_s,0,0,0,0,,,,,0,31,31,2,,223.4510992000578,ä,0.23966129997279495,correct,,25,C,2023-12-13_18h11.02.501,gca_discrimination,2022.2.4,143.91864547752343,
positions.xlsx,stimuli.xlsx,test.xlsx,stimuli/Social1.png,stimuli/Social2.png,stimuli/Nonsocial2.png,stimuli/Nonsocial1.png,stimuli/Test1.png,stimuli/Test2.png,"(0.7, -0.5)",cs_minus_s,"(-0.7, -0.5)",cs_plus_s,0,0,0,0,,,,,0,32,32,22,,225.50658550008666,ä,0.5598976999754086,correct,,25,C,2023-12-13_18h11.02.501,gca_discrimination,2022.2.4,143.91864547752343,
positions.xlsx,stimuli.xlsx,test.xlsx,stimuli/Social1.png,stimuli/Social2.png,stimuli/Nonsocial2.png,stimuli/Nonsocial1.png,stimuli/Test1.png,stimuli/Test2.png,"(0.7, -0.5)",cs_plus_ns,"(0.7, 0.5)",cs_minus_ns,0,0,0,0,,,,,0,33,33,35,,228.58287650009152,ä,0.5881333000725135,correct,,25,C,2023-12-13_18h11.02.501,gca_discrimination,2022.2.4,143.91864547752343,
positions.xlsx,stimuli.xlsx,test.xlsx,stimuli/Social1.png,stimuli/Social2.png,stimuli/Nonsocial2.png,stimuli/Nonsocial1.png,stimuli/Test1.png,stimuli/Test2.png,"(0.7, 0.5)",cs_plus_s,"(-0.7, -0.5)",cs_minus_s,0,0,0,0,,,,,0,34,34,7,,231.81886240001768,ä,0.34413959993980825,correct,,25,C,2023-12-13_18h11.02.501,gca_discrimination,2022.2.4,143.91864547752343,
positions.xlsx,stimuli.xlsx,test.xlsx,stimuli/Social1.png,stimuli/Social2.png,stimuli/Nonsocial2.png,stimuli/Nonsocial1.png,stimuli/Test1.png,stimuli/Test2.png,"(-0.7, 0.5)",cs_plus_s,"(0.7, -0.5)",cs_plus_s,0,0,0,0,,,,,0,35,35,50,,234.76317470008507,l,0.49508080002851784,correct,,25,C,2023-12-13_18h11.02.501,gca_discrimination,2022.2.4,143.91864547752343,
positions.xlsx,stimuli.xlsx,test.xlsx,stimuli/Social1.png,stimuli/Social2.png,stimuli/Nonsocial2.png,stimuli/Nonsocial1.png,stimuli/Test1.png,stimuli/Test2.png,"(-0.7, -0.5)",cs_minus_ns,"(0.7, -0.5)",cs_minus_ns,0,0,0,0,,,,,0,36,36,89,,237.58944590005558,l,0.6454814000753686,correct,,25,C,2023-12-13_18h11.02.501,gca_discrimination,2022.2.4,143.91864547752343,
positions.xlsx,stimuli.xlsx,test.xlsx,stimuli/Social1.png,stimuli/Social2.png,stimuli/Nonsocial2.png,stimuli/Nonsocial1.png,stimuli/Test1.png,stimuli/Test2.png,"(-0.7, -0.5)",cs_minus_ns,"(0.7, -0.5)",cs_plus_ns,0,0,0,0,,,,,0,37,37,41,,240.63793730002362,ä,0.40606589999515563,correct,,25,C,2023-12-13_18h11.02.501,gca_discrimination,2022.2.4,143.91864547752343,
positions.xlsx,stimuli.xlsx,test.xlsx,stimuli/Social1.png,stimuli/Social2.png,stimuli/Nonsocial2.png,stimuli/Nonsocial1.png,stimuli/Test1.png,stimuli/Test2.png,"(-0.7, -0.5)",cs_plus_ns,"(-0.7, 0.5)",cs_plus_ns,0,0,0,0,,,,,0,38,38,75,,242.90173310006503,l,0.5325553000438958,correct,,25,C,2023-12-13_18h11.02.501,gca_discrimination,2022.2.4,143.91864547752343,
positions.xlsx,stimuli.xlsx,test.xlsx,stimuli/Social1.png,stimuli/Social2.png,stimuli/Nonsocial2.png,stimuli/Nonsocial1.png,stimuli/Test1.png,stimuli/Test2.png,"(0.7, 0.5)",cs_minus_s,"(0.7, -0.5)",cs_plus_s,0,0,0,0,,,,,0,39,39,20,,245.90165570005774,ä,0.501231599948369,correct,,25,C,2023-12-13_18h11.02.501,gca_discrimination,2022.2.4,143.91864547752343,
positions.xlsx,stimuli.xlsx,test.xlsx,stimuli/Social1.png,stimuli/Social2.png,stimuli/Nonsocial2.png,stimuli/Nonsocial1.png,stimuli/Test1.png,stimuli/Test2.png,"(0.7, 0.5)",cs_plus_s,"(-0.7, 0.5)",cs_plus_s,0,0,0,0,,,,,0,40,40,54,,248.31128500006162,l,0.4914671001024544,correct,,25,C,2023-12-13_18h11.02.501,gca_discrimination,2022.2.4,143.91864547752343,
positions.xlsx,stimuli.xlsx,test.xlsx,stimuli/Social1.png,stimuli/Social2.png,stimuli/Nonsocial2.png,stimuli/Nonsocial1.png,stimuli/Test1.png,stimuli/Test2.png,"(-0.7, -0.5)",cs_plus_ns,"(0.7, 0.5)",cs_minus_ns,0,0,0,0,,,,,0,41,41,28,,250.67922940000426,ä,0.5710901999846101,correct,,25,C,2023-12-13_18h11.02.501,gca_discrimination,2022.2.4,143.91864547752343,
positions.xlsx,stimuli.xlsx,test.xlsx,stimuli/Social1.png,stimuli/Social2.png,stimuli/Nonsocial2.png,stimuli/Nonsocial1.png,stimuli/Test1.png,stimuli/Test2.png,"(-0.7, 0.5)",cs_minus_ns,"(0.7, -0.5)",cs_plus_ns,0,0,0,0,,,,,0,42,42,38,,253.4777040000772,ä,0.49256589997094125,correct,,25,C,2023-12-13_18h11.02.501,gca_discrimination,2022.2.4,143.91864547752343,
positions.xlsx,stimuli.xlsx,test.xlsx,stimuli/Social1.png,stimuli/Social2.png,stimuli/Nonsocial2.png,stimuli/Nonsocial1.png,stimuli/Test1.png,stimuli/Test2.png,"(0.7, 0.5)",cs_plus_ns,"(-0.7, 0.5)",cs_minus_ns,0,0,0,0,,,,,0,43,43,30,,256.57480390009005,ä,0.4196595000103116,correct,,25,C,2023-12-13_18h11.02.501,gca_discrimination,2022.2.4,143.91864547752343,
positions.xlsx,stimuli.xlsx,test.xlsx,stimuli/Social1.png,stimuli/Social2.png,stimuli/Nonsocial2.png,stimuli/Nonsocial1.png,stimuli/Test1.png,stimuli/Test2.png,"(-0.7, 0.5)",cs_minus_ns,"(-0.7, -0.5)",cs_minus_ns,0,0,0,0,,,,,0,44,44,84,,258.9497277000919,l,0.476535200024955,correct,,25,C,2023-12-13_18h11.02.501,gca_discrimination,2022.2.4,143.91864547752343,
positions.xlsx,stimuli.xlsx,test.xlsx,stimuli/Social1.png,stimuli/Social2.png,stimuli/Nonsocial2.png,stimuli/Nonsocial1.png,stimuli/Test1.png,stimuli/Test2.png,"(0.7, 0.5)",cs_plus_ns,"(-0.7, 0.5)",cs_plus_ns,0,0,0,0,,,,,0,45,45,78,,261.3385439000558,ä,0.28058179991785437,wrong,,25,C,2023-12-13_18h11.02.501,gca_discrimination,2022.2.4,143.91864547752343,
positions.xlsx,stimuli.xlsx,test.xlsx,stimuli/Social1.png,stimuli/Social2.png,stimuli/Nonsocial2.png,stimuli/Nonsocial1.png,stimuli/Test1.png,stimuli/Test2.png,"(-0.7, 0.5)",cs_minus_ns,"(0.7, 0.5)",cs_plus_ns,0,0,0,0,,,,,0,46,46,37,,264.42869100009557,ä,0.3832838999805972,correct,,25,C,2023-12-13_18h11.02.501,gca_discrimination,2022.2.4,143.91864547752343,
positions.xlsx,stimuli.xlsx,test.xlsx,stimuli/Social1.png,stimuli/Social2.png,stimuli/Nonsocial2.png,stimuli/Nonsocial1.png,stimuli/Test1.png,stimuli/Test2.png,"(-0.7, -0.5)",cs_plus_ns,"(-0.7, 0.5)",cs_minus_ns,0,0,0,0,,,,,0,47,47,27,,267.16472500003874,ä,0.6144245999166742,correct,,25,C,2023-12-13_18h11.02.501,gca_discrimination,2022.2.4,143.91864547752343,
positions.xlsx,stimuli.xlsx,test.xlsx,stimuli/Social1.png,stimuli/Social2.png,stimuli/Nonsocial2.png,stimuli/Nonsocial1.png,stimuli/Test1.png,stimuli/Test2.png,"(-0.7, -0.5)",cs_plus_s,"(-0.7, 0.5)",cs_minus_s,0,0,0,0,,,,,0,48,48,3,,270.5117853000993,ä,0.41884930001106113,correct,,25,C,2023-12-13_18h11.02.501,gca_discrimination,2022.2.4,143.91864547752343,
positions.xlsx,stimuli.xlsx,test.xlsx,stimuli/Social1.png,stimuli/Social2.png,stimuli/Nonsocial2.png,stimuli/Nonsocial1.png,stimuli/Test1.png,stimuli/Test2.png,"(-0.7, 0.5)",cs_plus_ns,"(0.7, 0.5)",cs_plus_ns,0,0,0,0,,,,,0,49,49,73,,273.629688700079,l,0.49443660001270473,correct,,25,C,2023-12-13_18h11.02.501,gca_discrimination,2022.2.4,143.91864547752343,
positions.xlsx,stimuli.xlsx,test.xlsx,stimuli/Social1.png,stimuli/Social2.png,stimuli/Nonsocial2.png,stimuli/Nonsocial1.png,stimuli/Test1.png,stimuli/Test2.png,"(0.7, 0.5)",cs_plus_s,"(0.7, -0.5)",cs_plus_s,0,0,0,0,,,,,0,50,50,56,,276.0671780999983,l,0.3920931000029668,correct,,25,C,2023-12-13_18h11.02.501,gca_discrimination,2022.2.4,143.91864547752343,
positions.xlsx,stimuli.xlsx,test.xlsx,stimuli/Social1.png,stimuli/Social2.png,stimuli/Nonsocial2.png,stimuli/Nonsocial1.png,stimuli/Test1.png,stimuli/Test2.png,"(-0.7, 0.5)",cs_minus_s,"(0.7, -0.5)",cs_plus_s,0,0,0,0,,,,,0,51,51,14,,279.2059188000858,ä,0.4851833999855444,correct,,25,C,2023-12-13_18h11.02.501,gca_discrimination,2022.2.4,143.91864547752343,
positions.xlsx,stimuli.xlsx,test.xlsx,stimuli/Social1.png,stimuli/Social2.png,stimuli/Nonsocial2.png,stimuli/Nonsocial1.png,stimuli/Test1.png,stimuli/Test2.png,"(0.7, 0.5)",cs_minus_ns,"(0.7, -0.5)",cs_plus_ns,0,0,0,0,,,,,0,52,52,44,,282.44185840000864,ä,0.3847859000088647,correct,,25,C,2023-12-13_18h11.02.501,gca_discrimination,2022.2.4,143.91864547752343,
positions.xlsx,stimuli.xlsx,test.xlsx,stimuli/Social1.png,stimuli/Social2.png,stimuli/Nonsocial2.png,stimuli/Nonsocial1.png,stimuli/Test1.png,stimuli/Test2.png,"(-0.7, 0.5)",cs_plus_ns,"(0.7, -0.5)",cs_minus_ns,0,0,0,0,,,,,0,53,53,26,,284.8167739000637,ä,0.274488800088875,correct,,25,C,2023-12-13_18h11.02.501,gca_discrimination,2022.2.4,143.91864547752343,
positions.xlsx,stimuli.xlsx,test.xlsx,stimuli/Social1.png,stimuli/Social2.png,stimuli/Nonsocial2.png,stimuli/Nonsocial1.png,stimuli/Test1.png,stimuli/Test2.png,"(0.7, -0.5)",cs_minus_ns,"(-0.7, 0.5)",cs_plus_ns,0,0,0,0,,,,,0,54,54,45,,287.0111408000812,ä,0.3111065999837592,correct,,25,C,2023-12-13_18h11.02.501,gca_discrimination,2022.2.4,143.91864547752343,
positions.xlsx,stimuli.xlsx,test.xlsx,stimuli/Social1.png,stimuli/Social2.png,stimuli/Nonsocial2.png,stimuli/Nonsocial1.png,stimuli/Test1.png,stimuli/Test2.png,"(0.7, 0.5)",cs_plus_ns,"(0.7, -0.5)",cs_minus_ns,0,0,0,0,,,,,0,55,55,32,,290.1012955000624,ä,0.6531422000844032,correct,,25,C,2023-12-13_18h11.02.501,gca_discrimination,2022.2.4,143.91864547752343,
positions.xlsx,stimuli.xlsx,test.xlsx,stimuli/Social1.png,stimuli/Social2.png,stimuli/Nonsocial2.png,stimuli/Nonsocial1.png,stimuli/Test1.png,stimuli/Test2.png,"(-0.7, -0.5)",cs_plus_ns,"(0.7, -0.5)",cs_plus_ns,0,0,0,0,,,,,0,56,56,77,,293.56646850006655,l,0.41364929999690503,correct,,25,C,2023-12-13_18h11.02.501,gca_discrimination,2022.2.4,143.91864547752343,
positions.xlsx,stimuli.xlsx,test.xlsx,stimuli/Social1.png,stimuli/Social2.png,stimuli/Nonsocial2.png,stimuli/Nonsocial1.png,stimuli/Test1.png,stimuli/Test2.png,"(-0.7, -0.5)",cs_minus_ns,"(-0.7, 0.5)",cs_minus_ns,0,0,0,0,,,,,0,57,57,87,,296.0594088000944,l,0.4879856000188738,correct,,25,C,2023-12-13_18h11.02.501,gca_discrimination,2022.2.4,143.91864547752343,
positions.xlsx,stimuli.xlsx,test.xlsx,stimuli/Social1.png,stimuli/Social2.png,stimuli/Nonsocial2.png,stimuli/Nonsocial1.png,stimuli/Test1.png,stimuli/Test2.png,"(0.7, -0.5)",cs_minus_s,"(0.7, 0.5)",cs_plus_s,0,0,0,0,,,,,0,58,58,23,,298.7746047000401,ä,0.43623250001110137,correct,,25,C,2023-12-13_18h11.02.501,gca_discrimination,2022.2.4,143.91864547752343,
positions.xlsx,stimuli.xlsx,test.xlsx,stimuli/Social1.png,stimuli/Social2.png,stimuli/Nonsocial2.png,stimuli/Nonsocial1.png,stimuli/Test1.png,stimuli/Test2.png,"(-0.7, 0.5)",cs_plus_ns,"(0.7, 0.5)",cs_minus_ns,0,0,0,0,,,,,0,59,59,25,,301.87165870005265,ä,0.42733080009929836,correct,,25,C,2023-12-13_18h11.02.501,gca_discrimination,2022.2.4,143.91864547752343,
positions.xlsx,stimuli.xlsx,test.xlsx,stimuli/Social1.png,stimuli/Social2.png,stimuli/Nonsocial2.png,stimuli/Nonsocial1.png,stimuli/Test1.png,stimuli/Test2.png,"(-0.7, 0.5)",cs_plus_ns,"(-0.7, -0.5)",cs_plus_ns,0,0,0,0,,,,,0,60,60,72,,304.1632307000691,l,0.26382890006061643,correct,,25,C,2023-12-13_18h11.02.501,gca_discrimination,2022.2.4,143.91864547752343,
positions.xlsx,stimuli.xlsx,test.xlsx,stimuli/Social1.png,stimuli/Social2.png,stimuli/Nonsocial2.png,stimuli/Nonsocial1.png,stimuli/Test1.png,stimuli/Test2.png,"(0.7, 0.5)",cs_plus_s,"(0.7, -0.5)",cs_minus_s,0,0,0,0,,,,,0,61,61,8,,306.89228850009385,ä,0.3023643000051379,correct,,25,C,2023-12-13_18h11.02.501,gca_discrimination,2022.2.4,143.91864547752343,
positions.xlsx,stimuli.xlsx,test.xlsx,stimuli/Social1.png,stimuli/Social2.png,stimuli/Nonsocial2.png,stimuli/Nonsocial1.png,stimuli/Test1.png,stimuli/Test2.png,"(-0.7, -0.5)",cs_plus_s,"(0.7, 0.5)",cs_plus_s,0,0,0,0,,,,,0,62,62,52,,309.03808309999295,l,0.5562036000192165,correct,,25,C,2023-12-13_18h11.02.501,gca_discrimination,2022.2.4,143.91864547752343,
positions.xlsx,stimuli.xlsx,test.xlsx,stimuli/Social1.png,stimuli/Social2.png,stimuli/Nonsocial2.png,stimuli/Nonsocial1.png,stimuli/Test1.png,stimuli/Test2.png,"(0.7, -0.5)",cs_plus_ns,"(-0.7, 0.5)",cs_plus_ns,0,0,0,0,,,,,0,63,63,81,,312.0726944000926,l,0.3064281999832019,correct,,25,C,2023-12-13_18h11.02.501,gca_discrimination,2022.2.4,143.91864547752343,
positions.xlsx,stimuli.xlsx,test.xlsx,stimuli/Social1.png,stimuli/Social2.png,stimuli/Nonsocial2.png,stimuli/Nonsocial1.png,stimuli/Test1.png,stimuli/Test2.png,"(-0.7, -0.5)",cs_plus_s,"(0.7, 0.5)",cs_minus_s,0,0,0,0,,,,,0,64,64,4,,314.26706470001955,ä,0.29542959993705153,correct,,25,C,2023-12-13_18h11.02.501,gca_discrimination,2022.2.4,143.91864547752343,
positions.xlsx,stimuli.xlsx,test.xlsx,stimuli/Social1.png,stimuli/Social2.png,stimuli/Nonsocial2.png,stimuli/Nonsocial1.png,stimuli/Test1.png,stimuli/Test2.png,"(0.7, 0.5)",cs_plus_ns,"(0.7, -0.5)",cs_plus_ns,0,0,0,0,,,,,0,65,65,80,,316.99608740000986,l,0.7032318999990821,correct,,25,C,2023-12-13_18h11.02.501,gca_discrimination,2022.2.4,143.91864547752343,
positions.xlsx,stimuli.xlsx,test.xlsx,stimuli/Social1.png,stimuli/Social2.png,stimuli/Nonsocial2.png,stimuli/Nonsocial1.png,stimuli/Test1.png,stimuli/Test2.png,"(-0.7, -0.5)",cs_minus_ns,"(0.7, 0.5)",cs_minus_ns,0,0,0,0,,,,,0,66,66,88,,320.40567890007515,l,0.2055456000380218,correct,,25,C,2023-12-13_18h11.02.501,gca_discrimination,2022.2.4,143.91864547752343,
positions.xlsx,stimuli.xlsx,test.xlsx,stimuli/Social1.png,stimuli/Social2.png,stimuli/Nonsocial2.png,stimuli/Nonsocial1.png,stimuli/Test1.png,stimuli/Test2.png,"(0.7, -0.5)",cs_minus_s,"(0.7, 0.5)",cs_minus_s,0,0,0,0,,,,,0,67,67,71,,322.4750481999945,l,0.2168930999469012,correct,,25,C,2023-12-13_18h11.02.501,gca_discrimination,2022.2.4,143.91864547752343,
positions.xlsx,stimuli.xlsx,test.xlsx,stimuli/Social1.png,stimuli/Social2.png,stimuli/Nonsocial2.png,stimuli/Nonsocial1.png,stimuli/Test1.png,stimuli/Test2.png,"(0.7, -0.5)",cs_minus_s,"(-0.7, -0.5)",cs_minus_s,0,0,0,0,,,,,0,68,68,70,,325.39162770006806,l,0.2518687000265345,correct,,25,C,2023-12-13_18h11.02.501,gca_discrimination,2022.2.4,143.91864547752343,
positions.xlsx,stimuli.xlsx,test.xlsx,stimuli/Social1.png,stimuli/Social2.png,stimuli/Nonsocial2.png,stimuli/Nonsocial1.png,stimuli/Test1.png,stimuli/Test2.png,"(0.7, -0.5)",cs_minus_s,"(-0.7, 0.5)",cs_plus_s,0,0,0,0,,,,,0,69,69,21,,327.74571150005795,ä,0.3528628000058234,correct,,25,C,2023-12-13_18h11.02.501,gca_discrimination,2022.2.4,143.91864547752343,
positions.xlsx,stimuli.xlsx,test.xlsx,stimuli/Social1.png,stimuli/Social2.png,stimuli/Nonsocial2.png,stimuli/Nonsocial1.png,stimuli/Test1.png,stimuli/Test2.png,"(0.7, 0.5)",cs_minus_s,"(-0.7, -0.5)",cs_minus_s,0,0,0,0,,,,,0,70,70,67,,330.2525534000015,ä,0.34256729995831847,wrong,,25,C,2023-12-13_18h11.02.501,gca_discrimination,2022.2.4,143.91864547752343,
positions.xlsx,stimuli.xlsx,test.xlsx,stimuli/Social1.png,stimuli/Social2.png,stimuli/Nonsocial2.png,stimuli/Nonsocial1.png,stimuli/Test1.png,stimuli/Test2.png,"(0.7, -0.5)",cs_plus_ns,"(0.7, 0.5)",cs_plus_ns,0,0,0,0,,,,,0,71,71,83,,333.34268450003583,l,0.6517430999083444,correct,,25,C,2023-12-13_18h11.02.501,gca_discrimination,2022.2.4,143.91864547752343,
positions.xlsx,stimuli.xlsx,test.xlsx,stimuli/Social1.png,stimuli/Social2.png,stimuli/Nonsocial2.png,stimuli/Nonsocial1.png,stimuli/Test1.png,stimuli/Test2.png,"(0.7, 0.5)",cs_minus_ns,"(-0.7, 0.5)",cs_plus_ns,0,0,0,0,,,,,0,72,72,42,,336.4814582000254,ä,0.3377096999902278,correct,,25,C,2023-12-13_18h11.02.501,gca_discrimination,2022.2.4,143.91864547752343,
positions.xlsx,stimuli.xlsx,test.xlsx,stimuli/Social1.png,stimuli/Social2.png,stimuli/Nonsocial2.png,stimuli/Nonsocial1.png,stimuli/Test1.png,stimuli/Test2.png,"(0.7, -0.5)",cs_minus_ns,"(-0.7, 0.5)",cs_minus_ns,0,0,0,0,,,,,0,73,73,93,,338.6966408001026,l,0.3306122000794858,correct,,25,C,2023-12-13_18h11.02.501,gca_discrimination,2022.2.4,143.91864547752343,
positions.xlsx,stimuli.xlsx,test.xlsx,stimuli/Social1.png,stimuli/Social2.png,stimuli/Nonsocial2.png,stimuli/Nonsocial1.png,stimuli/Test1.png,stimuli/Test2.png,"(-0.7, 0.5)",cs_minus_s,"(-0.7, -0.5)",cs_minus_s,0,0,0,0,,,,,0,74,74,60,,341.4118269000901,l,0.27209350001066923,correct,,25,C,2023-12-13_18h11.02.501,gca_discrimination,2022.2.4,143.91864547752343,
positions.xlsx,stimuli.xlsx,test.xlsx,stimuli/Social1.png,stimuli/Social2.png,stimuli/Nonsocial2.png,stimuli/Nonsocial1.png,stimuli/Test1.png,stimuli/Test2.png,"(0.7, -0.5)",cs_minus_ns,"(-0.7, -0.5)",cs_minus_ns,0,0,0,0,,,,,0,75,75,94,,343.58535270008724,l,0.4489837000146508,correct,,25,C,2023-12-13_18h11.02.501,gca_discrimination,2022.2.4,143.91864547752343,
positions.xlsx,stimuli.xlsx,test.xlsx,stimuli/Social1.png,stimuli/Social2.png,stimuli/Nonsocial2.png,stimuli/Nonsocial1.png,stimuli/Test1.png,stimuli/Test2.png,"(0.7, -0.5)",cs_plus_s,"(0.7, 0.5)",cs_minus_s,0,0,0,0,,,,,0,76,76,11,,346.71718620008323,ä,0.309097700053826,correct,,25,C,2023-12-13_18h11.02.501,gca_discrimination,2022.2.4,143.91864547752343,
positions.xlsx,stimuli.xlsx,test.xlsx,stimuli/Social1.png,stimuli/Social2.png,stimuli/Nonsocial2.png,stimuli/Nonsocial1.png,stimuli/Test1.png,stimuli/Test2.png,"(-0.7, -0.5)",cs_plus_s,"(-0.7, 0.5)",cs_plus_s,0,0,0,0,,,,,0,77,77,51,,349.5781776000513,l,0.33625389996450394,correct,,25,C,2023-12-13_18h11.02.501,gca_discrimination,2022.2.4,143.91864547752343,
positions.xlsx,stimuli.xlsx,test.xlsx,stimuli/Social1.png,stimuli/Social2.png,stimuli/Nonsocial2.png,stimuli/Nonsocial1.png,stimuli/Test1.png,stimuli/Test2.png,"(-0.7, -0.5)",cs_plus_s,"(0.7, -0.5)",cs_plus_s,0,0,0,0,,,,,0,78,78,53,,352.54333060001954,l,0.4601538999704644,correct,,25,C,2023-12-13_18h11.02.501,gca_discrimination,2022.2.4,143.91864547752343,
positions.xlsx,stimuli.xlsx,test.xlsx,stimuli/Social1.png,stimuli/Social2.png,stimuli/Nonsocial2.png,stimuli/Nonsocial1.png,stimuli/Test1.png,stimuli/Test2.png,"(-0.7, 0.5)",cs_minus_ns,"(0.7, 0.5)",cs_minus_ns,0,0,0,0,,,,,0,79,79,85,,355.07797100010794,l,0.24507860001176596,correct,,25,C,2023-12-13_18h11.02.501,gca_discrimination,2022.2.4,143.91864547752343,
positions.xlsx,stimuli.xlsx,test.xlsx,stimuli/Social1.png,stimuli/Social2.png,stimuli/Nonsocial2.png,stimuli/Nonsocial1.png,stimuli/Test1.png,stimuli/Test2.png,"(-0.7, -0.5)",cs_minus_s,"(0.7, 0.5)",cs_minus_s,0,0,0,0,,,,,0,80,80,64,,358.01537600008305,l,0.2838206000160426,correct,,25,C,2023-12-13_18h11.02.501,gca_discrimination,2022.2.4,143.91864547752343,
positions.xlsx,stimuli.xlsx,test.xlsx,stimuli/Social1.png,stimuli/Social2.png,stimuli/Nonsocial2.png,stimuli/Nonsocial1.png,stimuli/Test1.png,stimuli/Test2.png,"(0.7, -0.5)",cs_plus_ns,"(-0.7, -0.5)",cs_plus_ns,0,0,0,0,,,,,0,81,81,82,,360.2236094000982,l,0.3083875000011176,correct,,25,C,2023-12-13_18h11.02.501,gca_discrimination,2022.2.4,143.91864547752343,
positions.xlsx,stimuli.xlsx,test.xlsx,stimuli/Social1.png,stimuli/Social2.png,stimuli/Nonsocial2.png,stimuli/Nonsocial1.png,stimuli/Test1.png,stimuli/Test2.png,"(0.7, -0.5)",cs_plus_ns,"(-0.7, -0.5)",cs_minus_ns,0,0,0,0,,,,,0,82,82,34,,362.56381090008654,ä,0.31969949998892844,correct,,25,C,2023-12-13_18h11.02.501,gca_discrimination,2022.2.4,143.91864547752343,
positions.xlsx,stimuli.xlsx,test.xlsx,stimuli/Social1.png,stimuli/Social2.png,stimuli/Nonsocial2.png,stimuli/Nonsocial1.png,stimuli/Test1.png,stimuli/Test2.png,"(0.7, -0.5)",cs_plus_s,"(-0.7, -0.5)",cs_plus_s,0,0,0,0,,,,,0,83,83,58,,365.11924580007326,l,0.26806740008760244,correct,,25,C,2023-12-13_18h11.02.501,gca_discrimination,2022.2.4,143.91864547752343,
positions.xlsx,stimuli.xlsx,test.xlsx,stimuli/Social1.png,stimuli/Social2.png,stimuli/Nonsocial2.png,stimuli/Nonsocial1.png,stimuli/Test1.png,stimuli/Test2.png,"(-0.7, 0.5)",cs_plus_ns,"(0.7, -0.5)",cs_plus_ns,0,0,0,0,,,,,0,84,84,74,,367.9524663001066,l,0.3306293999776244,correct,,25,C,2023-12-13_18h11.02.501,gca_discrimination,2022.2.4,143.91864547752343,
positions.xlsx,stimuli.xlsx,test.xlsx,stimuli/Social1.png,stimuli/Social2.png,stimuli/Nonsocial2.png,stimuli/Nonsocial1.png,stimuli/Test1.png,stimuli/Test2.png,"(0.7, 0.5)",cs_minus_ns,"(0.7, -0.5)",cs_minus_ns,0,0,0,0,,,,,0,85,85,92,,370.980155199999,l,0.3025655000237748,correct,,25,C,2023-12-13_18h11.02.501,gca_discrimination,2022.2.4,143.91864547752343,
positions.xlsx,stimuli.xlsx,test.xlsx,stimuli/Social1.png,stimuli/Social2.png,stimuli/Nonsocial2.png,stimuli/Nonsocial1.png,stimuli/Test1.png,stimuli/Test2.png,"(-0.7, -0.5)",cs_minus_ns,"(-0.7, 0.5)",cs_plus_ns,0,0,0,0,,,,,0,86,86,39,,373.1745058000088,ä,0.4449585999827832,correct,,25,C,2023-12-13_18h11.02.501,gca_discrimination,2022.2.4,143.91864547752343,
positions.xlsx,stimuli.xlsx,test.xlsx,stimuli/Social1.png,stimuli/Social2.png,stimuli/Nonsocial2.png,stimuli/Nonsocial1.png,stimuli/Test1.png,stimuli/Test2.png,"(0.7, 0.5)",cs_minus_ns,"(-0.7, -0.5)",cs_minus_ns,0,0,0,0,,,,,0,87,87,91,,376.09107260010205,l,0.38505699997767806,correct,,25,C,2023-12-13_18h11.02.501,gca_discrimination,2022.2.4,143.91864547752343,
positions.xlsx,stimuli.xlsx,test.xlsx,stimuli/Social1.png,stimuli/Social2.png,stimuli/Nonsocial2.png,stimuli/Nonsocial1.png,stimuli/Test1.png,stimuli/Test2.png,"(0.7, -0.5)",cs_plus_s,"(-0.7, 0.5)",cs_plus_s,0,0,0,0,,,,,0,88,88,57,,378.40349190006964,l,0.2790775999892503,correct,,25,C,2023-12-13_18h11.02.501,gca_discrimination,2022.2.4,143.91864547752343,
positions.xlsx,stimuli.xlsx,test.xlsx,stimuli/Social1.png,stimuli/Social2.png,stimuli/Nonsocial2.png,stimuli/Nonsocial1.png,stimuli/Test1.png,stimuli/Test2.png,"(0.7, 0.5)",cs_minus_s,"(0.7, -0.5)",cs_minus_s,0,0,0,0,,,,,0,89,89,68,,381.0561475000577,l,0.22662749991286546,correct,,25,C,2023-12-13_18h11.02.501,gca_discrimination,2022.2.4,143.91864547752343,
positions.xlsx,stimuli.xlsx,test.xlsx,stimuli/Social1.png,stimuli/Social2.png,stimuli/Nonsocial2.png,stimuli/Nonsocial1.png,stimuli/Test1.png,stimuli/Test2.png,"(0.7, 0.5)",cs_plus_ns,"(-0.7, -0.5)",cs_plus_ns,0,0,0,0,,,,,0,90,90,79,,383.5560414000647,l,0.25453580007888377,correct,,25,C,2023-12-13_18h11.02.501,gca_discrimination,2022.2.4,143.91864547752343,
positions.xlsx,stimuli.xlsx,test.xlsx,stimuli/Social1.png,stimuli/Social2.png,stimuli/Nonsocial2.png,stimuli/Nonsocial1.png,stimuli/Test1.png,stimuli/Test2.png,"(-0.7, -0.5)",cs_plus_s,"(0.7, -0.5)",cs_minus_s,0,0,0,0,,,,,0,91,91,5,,386.2156435000943,ä,0.24302709999028593,correct,,25,C,2023-12-13_18h11.02.501,gca_discrimination,2022.2.4,143.91864547752343,
positions.xlsx,stimuli.xlsx,test.xlsx,stimuli/Social1.png,stimuli/Social2.png,stimuli/Nonsocial2.png,stimuli/Nonsocial1.png,stimuli/Test1.png,stimuli/Test2.png,"(-0.7, -0.5)",cs_minus_s,"(-0.7, 0.5)",cs_minus_s,0,0,0,0,,,,,0,92,92,63,,388.64612849999685,l,0.2692063000285998,correct,,25,C,2023-12-13_18h11.02.501,gca_discrimination,2022.2.4,143.91864547752343,
positions.xlsx,stimuli.xlsx,test.xlsx,stimuli/Social1.png,stimuli/Social2.png,stimuli/Nonsocial2.png,stimuli/Nonsocial1.png,stimuli/Test1.png,stimuli/Test2.png,"(-0.7, -0.5)",cs_minus_s,"(0.7, -0.5)",cs_minus_s,0,0,0,0,,,,,0,93,93,65,,391.0765789001016,l,0.2548178000142798,correct,,25,C,2023-12-13_18h11.02.501,gca_discrimination,2022.2.4,143.91864547752343,
positions.xlsx,stimuli.xlsx,test.xlsx,stimuli/Social1.png,stimuli/Social2.png,stimuli/Nonsocial2.png,stimuli/Nonsocial1.png,stimuli/Test1.png,stimuli/Test2.png,"(0.7, 0.5)",cs_plus_ns,"(-0.7, -0.5)",cs_minus_ns,0,0,0,0,,,,,0,94,94,31,,393.31957320007496,ä,0.2672695000655949,correct,,25,C,2023-12-13_18h11.02.501,gca_discrimination,2022.2.4,143.91864547752343,
positions.xlsx,stimuli.xlsx,test.xlsx,stimuli/Social1.png,stimuli/Social2.png,stimuli/Nonsocial2.png,stimuli/Nonsocial1.png,stimuli/Test1.png,stimuli/Test2.png,"(-0.7, -0.5)",cs_minus_s,"(0.7, 0.5)",cs_plus_s,0,0,0,0,,,,,0,95,95,16,,396.04862080002204,ä,0.3942185000050813,correct,,25,C,2023-12-13_18h11.02.501,gca_discrimination,2022.2.4,143.91864547752343,
