posFile,stimFile,testFile,cs_plus_s,cs_minus_s,cs_plus_ns,cs_minus_ns,test1,test2,position1,trialtype,position2,comptype,blocks.thisRepN,blocks.thisTrialN,blocks.thisN,blocks.thisIndex,learning_trials.thisRepN,learning_trials.thisTrialN,learning_trials.thisN,learning_trials.thisIndex,trials.thisRepN,trials.thisTrialN,trials.thisN,trials.thisIndex,textStart.started,spaceStart.started,spaceStart.keys,spaceStart.rt,textStartExp.started,textExpImages.started,ImageLearning1.started,ImageLearning2.started,textSpace.started,spaceStartExp.started,spaceStartExp.keys,spaceStartExp.rt,blankScreen.started,blankScreen.stopped,fixcross.started,firstImage.started,fixcrossImage1.started,fixcrossITI.started,secondImage.started,fixcrossImage2.started,key.started,key.keys,key.rt,correctness,feedbackText.started,fixcrossEnd.started,fixcrossEnd.stopped,fixcross.stopped,feedbackText.stopped,textStartTask.started,textTaskImages.started,ImageTask1.started,ImageTask2.started,ImageTask3.started,ImageTask4.started,textTaskSpace.started,spaceStartTask.started,spaceStartTask.keys,spaceStartTask.rt,participant,group,date,expName,psychopyVersion,frameRate,
,,,,,,,,,,,,,,,,,,,,,,,,,10.578887699986808,10.578887699986808,space,5.1171090999851,,,,,,,,,,,,,,,,,,,,,,,,,,,,,,,,,,,,16,A,2023-12-11_09h24.19.990,gca_discrimination,2022.2.4,143.916781596708,
positions.xlsx,stimuli.xlsx,test.xlsx,stimuli/Social1.png,stimuli/Social2.png,stimuli/Nonsocial1.png,stimuli/Nonsocial2.png,stimuli/Test1.png,stimuli/Test2.png,"(0.7, -0.5)",test2,"(-0.7, 0.5)",test1,0,0,0,0,0,0,0,4,,,,,,,,,15.7106678999844,15.7106678999844,15.7106678999844,15.7106678999844,15.7106678999844,15.7106678999844,space,24.5440210000379,40.265243600006215,42.20962739997776,42.20962739997776,43.22346780000953,43.22346780000953,43.3554420999717,43.86930859996937,43.86930859996937,44.00817659997847,l,0.9343224000185728,wrong,44.959511999972165,46.95944030000828,47.45248159999028,,,,,,,,,,,,,16,A,2023-12-11_09h24.19.990,gca_discrimination,2022.2.4,143.916781596708,
positions.xlsx,stimuli.xlsx,test.xlsx,stimuli/Social1.png,stimuli/Social2.png,stimuli/Nonsocial1.png,stimuli/Nonsocial2.png,stimuli/Test1.png,stimuli/Test2.png,"(0.7, 0.5)",test2,"(-0.7, 0.5)",test1,0,0,0,0,0,1,1,13,,,,,,,,,,,,,,,,,,,47.45248159999028,48.452471799973864,48.452471799973864,48.605241199955344,49.10518239997327,49.10518239997327,49.25797749997582,ä,1.9404285000055097,correct,51.21622279996518,53.21615369996289,54.16748709999956,48.452471799973864,,,,,,,,,,,,16,A,2023-12-11_09h24.19.990,gca_discrimination,2022.2.4,143.916781596708,
positions.xlsx,stimuli.xlsx,test.xlsx,stimuli/Social1.png,stimuli/Social2.png,stimuli/Nonsocial1.png,stimuli/Nonsocial2.png,stimuli/Test1.png,stimuli/Test2.png,"(0.7, 0.5)",test1,"(0.7, -0.5)",test2,0,0,0,0,0,2,2,11,,,,,,,,,,,,,,,,,,,54.16748709999956,55.16744029999245,55.16744029999245,55.32021659996826,55.820206700009294,55.820206700009294,55.97297919995617,ä,1.0654784999787807,correct,57.049294999975245,59.04924649995519,59.56310719996691,55.16744029999245,59.04924649995519,,,,,,,,,,,16,A,2023-12-11_09h24.19.990,gca_discrimination,2022.2.4,143.916781596708,
positions.xlsx,stimuli.xlsx,test.xlsx,stimuli/Social1.png,stimuli/Social2.png,stimuli/Nonsocial1.png,stimuli/Nonsocial2.png,stimuli/Test1.png,stimuli/Test2.png,"(-0.7, 0.5)",test2,"(0.7, 0.5)",test1,0,0,0,0,0,3,3,3,,,,,,,,,,,,,,,,,,,59.56310719996691,60.57005579996621,60.57005579996621,60.715822500002105,61.215833899972495,61.215833899972495,61.36860159999924,ä,0.9905678000068292,correct,62.36858569999458,64.36849309998797,64.81992479995824,60.57005579996621,64.36849309998797,,,,,,,,,,,16,A,2023-12-11_09h24.19.990,gca_discrimination,2022.2.4,143.916781596708,
positions.xlsx,stimuli.xlsx,test.xlsx,stimuli/Social1.png,stimuli/Social2.png,stimuli/Nonsocial1.png,stimuli/Nonsocial2.png,stimuli/Test1.png,stimuli/Test2.png,"(-0.7, -0.5)",test2,"(0.7, -0.5)",test2,0,0,0,0,0,4,4,9,,,,,,,,,,,,,,,,,,,64.81992479995824,65.81978799996432,65.81978799996432,65.97260229999665,66.47257489996264,66.47257489996264,66.62533020001138,l,0.49468209996121004,correct,67.13224209996406,69.13217979995534,69.2779770999914,65.81978799996432,69.13217979995534,,,,,,,,,,,16,A,2023-12-11_09h24.19.990,gca_discrimination,2022.2.4,143.916781596708,
positions.xlsx,stimuli.xlsx,test.xlsx,stimuli/Social1.png,stimuli/Social2.png,stimuli/Nonsocial1.png,stimuli/Nonsocial2.png,stimuli/Test1.png,stimuli/Test2.png,"(-0.7, -0.5)",test2,"(0.7, 0.5)",test2,0,0,0,0,0,5,5,7,,,,,,,,,,,,,,,,,,,69.2779770999914,70.27799179998692,70.27799179998692,70.43080019997433,70.93072869995376,70.93072869995376,71.08352349995403,l,0.6197378999786451,correct,71.71545189997414,73.71533099998487,74.0000563999638,70.27799179998692,73.71533099998487,,,,,,,,,,,16,A,2023-12-11_09h24.19.990,gca_discrimination,2022.2.4,143.916781596708,
positions.xlsx,stimuli.xlsx,test.xlsx,stimuli/Social1.png,stimuli/Social2.png,stimuli/Nonsocial1.png,stimuli/Nonsocial2.png,stimuli/Test1.png,stimuli/Test2.png,"(-0.7, 0.5)",test2,"(0.7, -0.5)",test1,0,0,0,0,0,6,6,12,,,,,,,,,,,,,,,,,,,74.0000563999638,75.00695599999744,75.00695599999744,75.15282119996846,75.65277599997353,75.65277599997353,75.80551209999248,ä,0.38523869996424764,correct,76.20135849999497,78.20128410001053,78.29155319998972,75.00695599999744,78.20128410001053,,,,,,,,,,,16,A,2023-12-11_09h24.19.990,gca_discrimination,2022.2.4,143.916781596708,
positions.xlsx,stimuli.xlsx,test.xlsx,stimuli/Social1.png,stimuli/Social2.png,stimuli/Nonsocial1.png,stimuli/Nonsocial2.png,stimuli/Test1.png,stimuli/Test2.png,"(-0.7, -0.5)",test2,"(-0.7, 0.5)",test2,0,0,0,0,0,7,7,2,,,,,,,,,,,,,,,,,,,78.29155319998972,79.29154489998473,79.29154489998473,79.44428529997822,79.94428659998812,79.94428659998812,80.09707139997045,l,0.7498861000058241,correct,80.85396439995384,82.8538674999727,83.38162529998226,79.29154489998473,82.8538674999727,,,,,,,,,,,16,A,2023-12-11_09h24.19.990,gca_discrimination,2022.2.4,143.916781596708,
positions.xlsx,stimuli.xlsx,test.xlsx,stimuli/Social1.png,stimuli/Social2.png,stimuli/Nonsocial1.png,stimuli/Nonsocial2.png,stimuli/Test1.png,stimuli/Test2.png,"(-0.7, 0.5)",test1,"(0.7, -0.5)",test1,0,0,0,0,0,8,8,5,,,,,,,,,,,,,,,,,,,83.38162529998226,84.3815780999721,84.3815780999721,84.53436489996966,85.03436009999132,85.03436009999132,85.18710719997762,l,0.9471672000363469,correct,86.14540819998365,88.14533979998669,88.33981099998346,84.3815780999721,88.14533979998669,,,,,,,,,,,16,A,2023-12-11_09h24.19.990,gca_discrimination,2022.2.4,143.916781596708,
positions.xlsx,stimuli.xlsx,test.xlsx,stimuli/Social1.png,stimuli/Social2.png,stimuli/Nonsocial1.png,stimuli/Nonsocial2.png,stimuli/Test1.png,stimuli/Test2.png,"(0.7, 0.5)",test2,"(0.7, -0.5)",test1,0,0,0,0,0,9,9,6,,,,,,,,,,,,,,,,,,,88.33981099998346,89.33975799998734,89.33975799998734,89.49246729997685,89.99248789995909,89.99248789995909,90.1452500000014,ä,0.5099478999618441,correct,90.66604749998078,92.66599509998923,92.88131079997402,89.33975799998734,92.66599509998923,,,,,,,,,,,16,A,2023-12-11_09h24.19.990,gca_discrimination,2022.2.4,143.916781596708,
positions.xlsx,stimuli.xlsx,test.xlsx,stimuli/Social1.png,stimuli/Social2.png,stimuli/Nonsocial1.png,stimuli/Nonsocial2.png,stimuli/Test1.png,stimuli/Test2.png,"(0.7, -0.5)",test1,"(0.7, 0.5)",test1,0,0,0,0,0,10,10,10,,,,,,,,,,,,,,,,,,,92.88131079997402,93.88122390001081,93.88122390001081,94.03402439999627,94.53397329995641,94.53397329995641,94.68674410000676,ä,0.5768046999583021,wrong,95.2769796999637,97.27691799995955,97.47137589997146,93.88122390001081,97.27691799995955,,,,,,,,,,,16,A,2023-12-11_09h24.19.990,gca_discrimination,2022.2.4,143.916781596708,
positions.xlsx,stimuli.xlsx,test.xlsx,stimuli/Social1.png,stimuli/Social2.png,stimuli/Nonsocial1.png,stimuli/Nonsocial2.png,stimuli/Test1.png,stimuli/Test2.png,"(-0.7, -0.5)",test1,"(0.7, 0.5)",test2,0,0,0,0,0,11,11,8,,,,,,,,,,,,,,,,,,,97.47137589997146,98.47133799997391,98.47133799997391,98.62408529996173,99.1241047999938,99.1241047999938,99.27681019995362,ä,0.5615792000317015,correct,99.84623520000605,101.84618970000884,102.41558859997895,98.47133799997391,101.84618970000884,,,,,,,,,,,16,A,2023-12-11_09h24.19.990,gca_discrimination,2022.2.4,143.916781596708,
positions.xlsx,stimuli.xlsx,test.xlsx,stimuli/Social1.png,stimuli/Social2.png,stimuli/Nonsocial1.png,stimuli/Nonsocial2.png,stimuli/Test1.png,stimuli/Test2.png,"(-0.7, 0.5)",test2,"(-0.7, -0.5)",test2,0,0,0,0,0,12,12,1,,,,,,,,,,,,,,,,,,,102.41558859997895,103.41559069999494,103.41559069999494,103.56833669997286,104.06836029997794,104.06836029997794,104.22110909997718,l,0.3300324000301771,correct,104.56133190001128,106.56128239998361,106.85988429997815,103.41559069999494,106.56128239998361,,,,,,,,,,,16,A,2023-12-11_09h24.19.990,gca_discrimination,2022.2.4,143.916781596708,
positions.xlsx,stimuli.xlsx,test.xlsx,stimuli/Social1.png,stimuli/Social2.png,stimuli/Nonsocial1.png,stimuli/Nonsocial2.png,stimuli/Test1.png,stimuli/Test2.png,"(0.7, -0.5)",test1,"(0.7, 0.5)",test2,0,0,0,0,0,13,13,0,,,,,,,,,,,,,,,,,,,106.85988429997815,107.85981890000403,107.85981890000403,108.0126062000054,108.51260789996013,108.51260789996013,108.66534750000574,ä,0.5666656999965198,correct,109.24169090000214,111.24165939999511,111.98467979999259,107.85981890000403,111.24165939999511,,,,,,,,,,,16,A,2023-12-11_09h24.19.990,gca_discrimination,2022.2.4,143.916781596708,
positions.xlsx,stimuli.xlsx,test.xlsx,stimuli/Social1.png,stimuli/Social2.png,stimuli/Nonsocial1.png,stimuli/Nonsocial2.png,stimuli/Test1.png,stimuli/Test2.png,"(-0.7, 0.5)",cs_plus_s,"(0.7, 0.5)",cs_plus_s,0,0,0,0,,,,,0,0,0,49,,,,,,,,,,,,,119.19281029998092,120.84543310001027,120.84543310001027,121.82459559995914,121.82459559995914,121.96345459995791,122.47038319997955,122.47038319997955,122.61622520000674,l,0.5987544999807142,correct,,123.22729660000186,123.4286895999685,,,111.98467979999259,111.98467979999259,111.98467979999259,111.98467979999259,111.98467979999259,111.98467979999259,111.98467979999259,111.98467979999259,space,7.199050299997907,16,A,2023-12-11_09h24.19.990,gca_discrimination,2022.2.4,143.916781596708,
positions.xlsx,stimuli.xlsx,test.xlsx,stimuli/Social1.png,stimuli/Social2.png,stimuli/Nonsocial1.png,stimuli/Nonsocial2.png,stimuli/Test1.png,stimuli/Test2.png,"(-0.7, -0.5)",cs_minus_ns,"(-0.7, 0.5)",cs_plus_ns,0,0,0,0,,,,,0,1,1,39,,,,,,,,,,,,,,,123.4286895999685,124.43559159996221,124.43559159996221,124.58141589997103,125.08835869998438,125.08835869998438,125.23416299995733,ä,1.1007742999936454,correct,,126.34521159995347,126.53964390000328,124.43559159996221,,,,,,,,,,,,16,A,2023-12-11_09h24.19.990,gca_discrimination,2022.2.4,143.916781596708,
positions.xlsx,stimuli.xlsx,test.xlsx,stimuli/Social1.png,stimuli/Social2.png,stimuli/Nonsocial1.png,stimuli/Nonsocial2.png,stimuli/Test1.png,stimuli/Test2.png,"(0.7, -0.5)",cs_plus_ns,"(-0.7, -0.5)",cs_plus_ns,0,0,0,0,,,,,0,2,2,82,,,,,,,,,,,,,,,126.53964390000328,127.54659799998626,127.54659799998626,127.69237820000853,128.19932149996748,128.19932149996748,128.34515790001024,l,0.9811820999602787,correct,,129.3381628000061,130.2478523000027,127.54659799998626,,,,,,,,,,,,16,A,2023-12-11_09h24.19.990,gca_discrimination,2022.2.4,143.916781596708,
positions.xlsx,stimuli.xlsx,test.xlsx,stimuli/Social1.png,stimuli/Social2.png,stimuli/Nonsocial1.png,stimuli/Nonsocial2.png,stimuli/Test1.png,stimuli/Test2.png,"(-0.7, -0.5)",cs_plus_s,"(-0.7, 0.5)",cs_plus_s,0,0,0,0,,,,,0,3,3,51,,,,,,,,,,,,,,,130.2478523000027,131.2547626000014,131.2547626000014,131.4005838999874,131.90751319995616,131.90751319995616,132.05333169997903,l,1.0747194000286981,correct,,133.13663540000562,133.99077440000838,131.2547626000014,,,,,,,,,,,,16,A,2023-12-11_09h24.19.990,gca_discrimination,2022.2.4,143.916781596708,
positions.xlsx,stimuli.xlsx,test.xlsx,stimuli/Social1.png,stimuli/Social2.png,stimuli/Nonsocial1.png,stimuli/Nonsocial2.png,stimuli/Test1.png,stimuli/Test2.png,"(-0.7, -0.5)",cs_plus_ns,"(-0.7, 0.5)",cs_plus_ns,0,0,0,0,,,,,0,4,4,75,,,,,,,,,,,,,,,133.99077440000838,134.99767309997696,134.99767309997696,135.1435150000034,135.65043249999871,135.65043249999871,135.79623159999028,l,0.48317710001720116,correct,,136.28926980000688,137.01839739998104,134.99767309997696,,,,,,,,,,,,16,A,2023-12-11_09h24.19.990,gca_discrimination,2022.2.4,143.916781596708,
positions.xlsx,stimuli.xlsx,test.xlsx,stimuli/Social1.png,stimuli/Social2.png,stimuli/Nonsocial1.png,stimuli/Nonsocial2.png,stimuli/Test1.png,stimuli/Test2.png,"(0.7, -0.5)",cs_minus_ns,"(-0.7, -0.5)",cs_plus_ns,0,0,0,0,,,,,0,5,5,46,,,,,,,,,,,,,,,137.01839739998104,138.02530709997518,138.02530709997518,138.171145899978,138.67805950000184,138.67805950000184,138.82389080000576,ä,0.5756673999712802,correct,,139.40721309999935,140.25437669997336,138.02530709997518,,,,,,,,,,,,16,A,2023-12-11_09h24.19.990,gca_discrimination,2022.2.4,143.916781596708,
positions.xlsx,stimuli.xlsx,test.xlsx,stimuli/Social1.png,stimuli/Social2.png,stimuli/Nonsocial1.png,stimuli/Nonsocial2.png,stimuli/Test1.png,stimuli/Test2.png,"(0.7, 0.5)",cs_minus_ns,"(-0.7, -0.5)",cs_plus_ns,0,0,0,0,,,,,0,6,6,43,,,,,,,,,,,,,,,140.25437669997336,141.26131579995854,141.26131579995854,141.40715539996745,141.91407169995364,141.91407169995364,142.05988949997118,l,0.6108938999823295,wrong,,142.67795149999438,143.01123740000185,141.26131579995854,,,,,,,,,,,,16,A,2023-12-11_09h24.19.990,gca_discrimination,2022.2.4,143.916781596708,
positions.xlsx,stimuli.xlsx,test.xlsx,stimuli/Social1.png,stimuli/Social2.png,stimuli/Nonsocial1.png,stimuli/Nonsocial2.png,stimuli/Test1.png,stimuli/Test2.png,"(0.7, 0.5)",cs_plus_s,"(-0.7, 0.5)",cs_plus_s,0,0,0,0,,,,,0,7,7,54,,,,,,,,,,,,,,,143.01123740000185,144.01815829996485,144.01815829996485,144.16398529999424,144.67093439999735,144.67093439999735,144.81669669999974,l,0.5986321999807842,correct,,145.4278292999952,145.72642309998628,144.01815829996485,,,,,,,,,,,,16,A,2023-12-11_09h24.19.990,gca_discrimination,2022.2.4,143.916781596708,
positions.xlsx,stimuli.xlsx,test.xlsx,stimuli/Social1.png,stimuli/Social2.png,stimuli/Nonsocial1.png,stimuli/Nonsocial2.png,stimuli/Test1.png,stimuli/Test2.png,"(0.7, 0.5)",cs_plus_ns,"(-0.7, -0.5)",cs_plus_ns,0,0,0,0,,,,,0,8,8,79,,,,,,,,,,,,,,,145.72642309998628,146.7333956999937,146.7333956999937,146.87914669996826,147.38607419998152,147.38607419998152,147.53189519996522,l,0.6592576000257395,correct,,148.1985348999733,148.42765109997708,146.7333956999937,,,,,,,,,,,,16,A,2023-12-11_09h24.19.990,gca_discrimination,2022.2.4,143.916781596708,
positions.xlsx,stimuli.xlsx,test.xlsx,stimuli/Social1.png,stimuli/Social2.png,stimuli/Nonsocial1.png,stimuli/Nonsocial2.png,stimuli/Test1.png,stimuli/Test2.png,"(0.7, -0.5)",cs_plus_ns,"(0.7, 0.5)",cs_minus_ns,0,0,0,0,,,,,0,9,9,35,,,,,,,,,,,,,,,148.42765109997708,149.43462169996928,149.43462169996928,149.5804397999891,150.0873265999835,150.0873265999835,150.23317869997118,ä,0.5584173999959603,correct,,150.8026442999835,151.3095460999757,149.43462169996928,,,,,,,,,,,,16,A,2023-12-11_09h24.19.990,gca_discrimination,2022.2.4,143.916781596708,
positions.xlsx,stimuli.xlsx,test.xlsx,stimuli/Social1.png,stimuli/Social2.png,stimuli/Nonsocial1.png,stimuli/Nonsocial2.png,stimuli/Test1.png,stimuli/Test2.png,"(0.7, 0.5)",cs_minus_s,"(-0.7, -0.5)",cs_minus_s,0,0,0,0,,,,,0,10,10,67,,,,,,,,,,,,,,,151.3095460999757,152.31643690000055,152.31643690000055,152.4622548999614,152.96919949998846,152.96919949998846,153.11501309997402,l,0.3716627000248991,correct,,153.4969397999812,153.9969327999861,152.31643690000055,,,,,,,,,,,,16,A,2023-12-11_09h24.19.990,gca_discrimination,2022.2.4,143.916781596708,
positions.xlsx,stimuli.xlsx,test.xlsx,stimuli/Social1.png,stimuli/Social2.png,stimuli/Nonsocial1.png,stimuli/Nonsocial2.png,stimuli/Test1.png,stimuli/Test2.png,"(-0.7, -0.5)",cs_plus_s,"(0.7, 0.5)",cs_plus_s,0,0,0,0,,,,,0,11,11,52,,,,,,,,,,,,,,,153.9969327999861,155.0038283999893,155.0038283999893,155.14961249998305,155.65661439998075,155.65661439998075,155.8023966999608,l,0.4123293000156991,correct,,156.22599129995797,156.5107068999787,155.0038283999893,,,,,,,,,,,,16,A,2023-12-11_09h24.19.990,gca_discrimination,2022.2.4,143.916781596708,
positions.xlsx,stimuli.xlsx,test.xlsx,stimuli/Social1.png,stimuli/Social2.png,stimuli/Nonsocial1.png,stimuli/Nonsocial2.png,stimuli/Test1.png,stimuli/Test2.png,"(-0.7, 0.5)",cs_minus_s,"(-0.7, -0.5)",cs_minus_s,0,0,0,0,,,,,0,12,12,60,,,,,,,,,,,,,,,156.5107068999787,157.51762639998924,157.51762639998924,157.66345049999654,158.17037040001014,158.17037040001014,158.31621979997726,l,0.4186902000219561,correct,,158.74672910000663,159.39256999996724,157.51762639998924,,,,,,,,,,,,16,A,2023-12-11_09h24.19.990,gca_discrimination,2022.2.4,143.916781596708,
positions.xlsx,stimuli.xlsx,test.xlsx,stimuli/Social1.png,stimuli/Social2.png,stimuli/Nonsocial1.png,stimuli/Nonsocial2.png,stimuli/Test1.png,stimuli/Test2.png,"(-0.7, -0.5)",cs_minus_s,"(-0.7, 0.5)",cs_plus_s,0,0,0,0,,,,,0,13,13,15,,,,,,,,,,,,,,,159.39256999996724,160.39945049997186,160.39945049997186,160.54527169995708,161.05223639996257,161.05223639996257,161.19799949997105,ä,0.4563743000035174,correct,,161.66328509995947,162.5243877999601,160.39945049997186,,,,,,,,,,,,16,A,2023-12-11_09h24.19.990,gca_discrimination,2022.2.4,143.916781596708,
positions.xlsx,stimuli.xlsx,test.xlsx,stimuli/Social1.png,stimuli/Social2.png,stimuli/Nonsocial1.png,stimuli/Nonsocial2.png,stimuli/Test1.png,stimuli/Test2.png,"(0.7, -0.5)",cs_minus_s,"(0.7, 0.5)",cs_minus_s,0,0,0,0,,,,,0,14,14,71,,,,,,,,,,,,,,,162.5243877999601,163.53127209999366,163.53127209999366,163.67709149996517,164.18402260000585,164.18402260000585,164.32984179997584,l,0.38178769999649376,correct,,164.71877809998114,165.12843360000988,163.53127209999366,,,,,,,,,,,,16,A,2023-12-11_09h24.19.990,gca_discrimination,2022.2.4,143.916781596708,
positions.xlsx,stimuli.xlsx,test.xlsx,stimuli/Social1.png,stimuli/Social2.png,stimuli/Nonsocial1.png,stimuli/Nonsocial2.png,stimuli/Test1.png,stimuli/Test2.png,"(-0.7, 0.5)",cs_minus_s,"(0.7, -0.5)",cs_minus_s,0,0,0,0,,,,,0,15,15,62,,,,,,,,,,,,,,,165.12843360000988,166.13533259998076,166.13533259998076,166.28116269997554,166.78810760000488,166.78810760000488,166.93391829996835,l,0.32922190002864227,correct,,167.2742288999725,167.94778379995842,166.13533259998076,,,,,,,,,,,,16,A,2023-12-11_09h24.19.990,gca_discrimination,2022.2.4,143.916781596708,
positions.xlsx,stimuli.xlsx,test.xlsx,stimuli/Social1.png,stimuli/Social2.png,stimuli/Nonsocial1.png,stimuli/Nonsocial2.png,stimuli/Test1.png,stimuli/Test2.png,"(-0.7, 0.5)",cs_minus_ns,"(0.7, -0.5)",cs_minus_ns,0,0,0,0,,,,,0,16,16,86,,,,,,,,,,,,,,,167.94778379995842,168.95470339996973,168.95470339996973,169.10051449999446,169.60743889998412,169.60743889998412,169.75324479996925,l,0.4774825000204146,correct,,170.23930749995634,170.83650499995565,168.95470339996973,,,,,,,,,,,,16,A,2023-12-11_09h24.19.990,gca_discrimination,2022.2.4,143.916781596708,
positions.xlsx,stimuli.xlsx,test.xlsx,stimuli/Social1.png,stimuli/Social2.png,stimuli/Nonsocial1.png,stimuli/Nonsocial2.png,stimuli/Test1.png,stimuli/Test2.png,"(-0.7, -0.5)",cs_minus_s,"(0.7, -0.5)",cs_minus_s,0,0,0,0,,,,,0,17,17,65,,,,,,,,,,,,,,,170.83650499995565,171.84344440000132,171.84344440000132,171.98930409998866,172.4961870999541,172.4961870999541,172.6420311999973,l,0.46037689998047426,correct,,173.1142084999592,173.94057789997896,171.84344440000132,,,,,,,,,,,,16,A,2023-12-11_09h24.19.990,gca_discrimination,2022.2.4,143.916781596708,
positions.xlsx,stimuli.xlsx,test.xlsx,stimuli/Social1.png,stimuli/Social2.png,stimuli/Nonsocial1.png,stimuli/Nonsocial2.png,stimuli/Test1.png,stimuli/Test2.png,"(-0.7, -0.5)",cs_plus_ns,"(-0.7, 0.5)",cs_minus_ns,0,0,0,0,,,,,0,18,18,27,,,,,,,,,,,,,,,173.94057789997896,174.94755059998715,174.94755059998715,175.09328450000612,175.6002592999721,175.6002592999721,175.74606430000858,ä,0.5162784000276588,correct,,176.2738102999865,176.7252129999688,174.94755059998715,,,,,,,,,,,,16,A,2023-12-11_09h24.19.990,gca_discrimination,2022.2.4,143.916781596708,
positions.xlsx,stimuli.xlsx,test.xlsx,stimuli/Social1.png,stimuli/Social2.png,stimuli/Nonsocial1.png,stimuli/Nonsocial2.png,stimuli/Test1.png,stimuli/Test2.png,"(-0.7, -0.5)",cs_plus_s,"(0.7, -0.5)",cs_plus_s,0,0,0,0,,,,,0,19,19,53,,,,,,,,,,,,,,,176.7252129999688,177.7321749999537,177.7321749999537,177.87791979999747,178.384849199967,178.384849199967,178.53067939996254,l,0.3642163000185974,correct,,178.9056622000062,179.10010419995524,177.7321749999537,,,,,,,,,,,,16,A,2023-12-11_09h24.19.990,gca_discrimination,2022.2.4,143.916781596708,
positions.xlsx,stimuli.xlsx,test.xlsx,stimuli/Social1.png,stimuli/Social2.png,stimuli/Nonsocial1.png,stimuli/Nonsocial2.png,stimuli/Test1.png,stimuli/Test2.png,"(0.7, 0.5)",cs_plus_ns,"(-0.7, -0.5)",cs_minus_ns,0,0,0,0,,,,,0,20,20,31,,,,,,,,,,,,,,,179.10010419995524,180.10704859998077,180.10704859998077,180.25281380000524,180.759757599968,180.759757599968,180.9055746999802,ä,0.5731035000062548,correct,,181.48888489999808,182.11384479998378,180.10704859998077,,,,,,,,,,,,16,A,2023-12-11_09h24.19.990,gca_discrimination,2022.2.4,143.916781596708,
positions.xlsx,stimuli.xlsx,test.xlsx,stimuli/Social1.png,stimuli/Social2.png,stimuli/Nonsocial1.png,stimuli/Nonsocial2.png,stimuli/Test1.png,stimuli/Test2.png,"(-0.7, -0.5)",cs_plus_s,"(-0.7, 0.5)",cs_minus_s,0,0,0,0,,,,,0,21,21,3,,,,,,,,,,,,,,,182.11384479998378,183.12078959995415,183.12078959995415,183.26658469997346,183.77354159997776,183.77354159997776,183.91932399995858,ä,0.6631891999859363,correct,,184.59291209996445,185.46093579998706,183.12078959995415,,,,,,,,,,,,16,A,2023-12-11_09h24.19.990,gca_discrimination,2022.2.4,143.916781596708,
positions.xlsx,stimuli.xlsx,test.xlsx,stimuli/Social1.png,stimuli/Social2.png,stimuli/Nonsocial1.png,stimuli/Nonsocial2.png,stimuli/Test1.png,stimuli/Test2.png,"(-0.7, 0.5)",cs_minus_ns,"(0.7, 0.5)",cs_plus_ns,0,0,0,0,,,,,0,22,22,37,,,,,,,,,,,,,,,185.46093579998706,186.46786370000336,186.46786370000336,186.61376539996127,187.1206026999862,187.1206026999862,187.26643389998935,ä,0.588142600026913,correct,,187.86367230000906,188.35661289998097,186.46786370000336,,,,,,,,,,,,16,A,2023-12-11_09h24.19.990,gca_discrimination,2022.2.4,143.916781596708,
positions.xlsx,stimuli.xlsx,test.xlsx,stimuli/Social1.png,stimuli/Social2.png,stimuli/Nonsocial1.png,stimuli/Nonsocial2.png,stimuli/Test1.png,stimuli/Test2.png,"(0.7, -0.5)",cs_plus_ns,"(0.7, 0.5)",cs_plus_ns,0,0,0,0,,,,,0,23,23,83,,,,,,,,,,,,,,,188.35661289998097,189.3635820999625,189.3635820999625,189.50941199995577,190.01634239999112,190.01634239999112,190.1621843999601,l,0.4853801000281237,correct,,190.65518030000385,191.04407850001007,189.3635820999625,,,,,,,,,,,,16,A,2023-12-11_09h24.19.990,gca_discrimination,2022.2.4,143.916781596708,
positions.xlsx,stimuli.xlsx,test.xlsx,stimuli/Social1.png,stimuli/Social2.png,stimuli/Nonsocial1.png,stimuli/Nonsocial2.png,stimuli/Test1.png,stimuli/Test2.png,"(0.7, -0.5)",cs_plus_s,"(-0.7, 0.5)",cs_minus_s,0,0,0,0,,,,,0,24,24,9,,,,,,,,,,,,,,,191.04407850001007,192.0509955000016,192.0509955000016,192.19677879998926,192.70374859997537,192.70374859997537,192.8495860999683,ä,0.597418799996376,correct,,193.46063899999717,193.78007859998615,192.0509955000016,,,,,,,,,,,,16,A,2023-12-11_09h24.19.990,gca_discrimination,2022.2.4,143.916781596708,
positions.xlsx,stimuli.xlsx,test.xlsx,stimuli/Social1.png,stimuli/Social2.png,stimuli/Nonsocial1.png,stimuli/Nonsocial2.png,stimuli/Test1.png,stimuli/Test2.png,"(0.7, 0.5)",cs_minus_ns,"(-0.7, 0.5)",cs_minus_ns,0,0,0,0,,,,,0,25,25,90,,,,,,,,,,,,,,,193.78007859998615,194.78699439996853,194.78699439996853,194.9328159999568,195.43974949995754,195.43974949995754,195.58556229999522,l,0.5898375000106171,correct,,196.18273299996508,196.75912519998383,194.78699439996853,,,,,,,,,,,,16,A,2023-12-11_09h24.19.990,gca_discrimination,2022.2.4,143.916781596708,
positions.xlsx,stimuli.xlsx,test.xlsx,stimuli/Social1.png,stimuli/Social2.png,stimuli/Nonsocial1.png,stimuli/Nonsocial2.png,stimuli/Test1.png,stimuli/Test2.png,"(-0.7, -0.5)",cs_minus_ns,"(0.7, -0.5)",cs_plus_ns,0,0,0,0,,,,,0,26,26,41,,,,,,,,,,,,,,,196.75912519998383,197.76600989996223,197.76600989996223,197.91185470001074,198.41878069995437,198.41878069995437,198.5646029000054,ä,0.9220051000011154,correct,,199.49512979999417,199.51596309995512,197.76600989996223,,,,,,,,,,,,16,A,2023-12-11_09h24.19.990,gca_discrimination,2022.2.4,143.916781596708,
positions.xlsx,stimuli.xlsx,test.xlsx,stimuli/Social1.png,stimuli/Social2.png,stimuli/Nonsocial1.png,stimuli/Nonsocial2.png,stimuli/Test1.png,stimuli/Test2.png,"(0.7, -0.5)",cs_minus_s,"(0.7, 0.5)",cs_plus_s,0,0,0,0,,,,,0,27,27,23,,,,,,,,,,,,,,,199.51596309995512,200.52287119999528,200.52287119999528,200.6687078999821,201.17561629996635,201.17561629996635,201.32143059995724,ä,0.5175172000308521,correct,,201.84920930000953,202.52971949998755,200.52287119999528,,,,,,,,,,,,16,A,2023-12-11_09h24.19.990,gca_discrimination,2022.2.4,143.916781596708,
positions.xlsx,stimuli.xlsx,test.xlsx,stimuli/Social1.png,stimuli/Social2.png,stimuli/Nonsocial1.png,stimuli/Nonsocial2.png,stimuli/Test1.png,stimuli/Test2.png,"(-0.7, 0.5)",cs_plus_ns,"(0.7, 0.5)",cs_plus_ns,0,0,0,0,,,,,0,28,28,73,,,,,,,,,,,,,,,202.52971949998755,203.53662470000563,203.53662470000563,203.68247820000397,204.18941849999828,204.18941849999828,204.33517390000634,l,1.0637483999598771,correct,,205.41156380000757,206.14765739999712,203.53662470000563,,,,,,,,,,,,16,A,2023-12-11_09h24.19.990,gca_discrimination,2022.2.4,143.916781596708,
positions.xlsx,stimuli.xlsx,test.xlsx,stimuli/Social1.png,stimuli/Social2.png,stimuli/Nonsocial1.png,stimuli/Nonsocial2.png,stimuli/Test1.png,stimuli/Test2.png,"(-0.7, 0.5)",cs_plus_s,"(0.7, -0.5)",cs_minus_s,0,0,0,0,,,,,0,29,29,2,,,,,,,,,,,,,,,206.14765739999712,207.1545757999993,207.1545757999993,207.30034959997283,207.80730679997941,207.80730679997941,207.95311589998892,ä,0.3579407999641262,correct,,208.32114389998605,208.34204309998313,207.1545757999993,,,,,,,,,,,,16,A,2023-12-11_09h24.19.990,gca_discrimination,2022.2.4,143.916781596708,
positions.xlsx,stimuli.xlsx,test.xlsx,stimuli/Social1.png,stimuli/Social2.png,stimuli/Nonsocial1.png,stimuli/Nonsocial2.png,stimuli/Test1.png,stimuli/Test2.png,"(-0.7, 0.5)",cs_minus_ns,"(-0.7, -0.5)",cs_minus_ns,0,0,0,0,,,,,0,30,30,84,,,,,,,,,,,,,,,208.34204309998313,209.3489053999656,209.3489053999656,209.4947550999932,210.0016635999782,210.0016635999782,210.1475150999613,l,0.5234261000296101,correct,,210.68218539998634,211.5779726000037,209.3489053999656,,,,,,,,,,,,16,A,2023-12-11_09h24.19.990,gca_discrimination,2022.2.4,143.916781596708,
positions.xlsx,stimuli.xlsx,test.xlsx,stimuli/Social1.png,stimuli/Social2.png,stimuli/Nonsocial1.png,stimuli/Nonsocial2.png,stimuli/Test1.png,stimuli/Test2.png,"(-0.7, 0.5)",cs_minus_ns,"(-0.7, -0.5)",cs_plus_ns,0,0,0,0,,,,,0,31,31,36,,,,,,,,,,,,,,,211.5779726000037,212.58488789998228,212.58488789998228,212.7307378000114,213.237659299979,213.237659299979,213.38349179999204,ä,0.5603868999751285,correct,,213.95290889998432,214.6750818999717,212.58488789998228,,,,,,,,,,,,16,A,2023-12-11_09h24.19.990,gca_discrimination,2022.2.4,143.916781596708,
positions.xlsx,stimuli.xlsx,test.xlsx,stimuli/Social1.png,stimuli/Social2.png,stimuli/Nonsocial1.png,stimuli/Nonsocial2.png,stimuli/Test1.png,stimuli/Test2.png,"(0.7, 0.5)",cs_plus_s,"(-0.7, 0.5)",cs_minus_s,0,0,0,0,,,,,0,32,32,6,,,,,,,,,,,,,,,214.6750818999717,215.68200599995907,215.68200599995907,215.82782810000936,216.33471039996948,216.33471039996948,216.48057059996063,ä,0.5432606000103988,correct,,217.03610379999736,217.4041173000005,215.68200599995907,,,,,,,,,,,,16,A,2023-12-11_09h24.19.990,gca_discrimination,2022.2.4,143.916781596708,
positions.xlsx,stimuli.xlsx,test.xlsx,stimuli/Social1.png,stimuli/Social2.png,stimuli/Nonsocial1.png,stimuli/Nonsocial2.png,stimuli/Test1.png,stimuli/Test2.png,"(0.7, 0.5)",cs_minus_s,"(0.7, -0.5)",cs_plus_s,0,0,0,0,,,,,0,33,33,20,,,,,,,,,,,,,,,217.4041173000005,218.41104949999135,218.41104949999135,218.55683459999273,219.06377780000912,219.06377780000912,219.20960699999705,ä,0.5967752999858931,correct,,219.81377339997562,220.1610094999778,218.41104949999135,,,,,,,,,,,,16,A,2023-12-11_09h24.19.990,gca_discrimination,2022.2.4,143.916781596708,
positions.xlsx,stimuli.xlsx,test.xlsx,stimuli/Social1.png,stimuli/Social2.png,stimuli/Nonsocial1.png,stimuli/Nonsocial2.png,stimuli/Test1.png,stimuli/Test2.png,"(-0.7, 0.5)",cs_minus_s,"(0.7, 0.5)",cs_minus_s,0,0,0,0,,,,,0,34,34,61,,,,,,,,,,,,,,,220.1610094999778,221.16788759996416,221.16788759996416,221.31371229997603,221.82064589997754,221.82064589997754,221.9664736999548,l,0.40897260000929236,correct,,222.38308770000003,222.4178103999584,221.16788759996416,,,,,,,,,,,,16,A,2023-12-11_09h24.19.990,gca_discrimination,2022.2.4,143.916781596708,
positions.xlsx,stimuli.xlsx,test.xlsx,stimuli/Social1.png,stimuli/Social2.png,stimuli/Nonsocial1.png,stimuli/Nonsocial2.png,stimuli/Test1.png,stimuli/Test2.png,"(-0.7, 0.5)",cs_plus_ns,"(0.7, 0.5)",cs_minus_ns,0,0,0,0,,,,,0,35,35,25,,,,,,,,,,,,,,,222.4178103999584,223.42471429996658,223.42471429996658,223.57058329996653,224.0775214000023,224.0775214000023,224.22333059995435,ä,0.43116889998782426,correct,,224.6677403000067,224.77190940000582,223.42471429996658,,,,,,,,,,,,16,A,2023-12-11_09h24.19.990,gca_discrimination,2022.2.4,143.916781596708,
positions.xlsx,stimuli.xlsx,test.xlsx,stimuli/Social1.png,stimuli/Social2.png,stimuli/Nonsocial1.png,stimuli/Nonsocial2.png,stimuli/Test1.png,stimuli/Test2.png,"(0.7, -0.5)",cs_minus_s,"(-0.7, 0.5)",cs_plus_s,0,0,0,0,,,,,0,36,36,21,,,,,,,,,,,,,,,224.77190940000582,225.77882299997145,225.77882299997145,225.9246443999582,226.43156649998855,226.43156649998855,226.57741179998266,ä,0.7177580000134185,correct,,227.30652609997196,228.22316289995797,225.77882299997145,,,,,,,,,,,,16,A,2023-12-11_09h24.19.990,gca_discrimination,2022.2.4,143.916781596708,
positions.xlsx,stimuli.xlsx,test.xlsx,stimuli/Social1.png,stimuli/Social2.png,stimuli/Nonsocial1.png,stimuli/Nonsocial2.png,stimuli/Test1.png,stimuli/Test2.png,"(0.7, -0.5)",cs_plus_ns,"(-0.7, -0.5)",cs_minus_ns,0,0,0,0,,,,,0,37,37,34,,,,,,,,,,,,,,,228.22316289995797,229.23006549995625,229.23006549995625,229.37593410001136,229.88282559998333,229.88282559998333,230.02866179996636,ä,0.5538476000074297,correct,,230.59111239999766,231.19528270000592,229.23006549995625,,,,,,,,,,,,16,A,2023-12-11_09h24.19.990,gca_discrimination,2022.2.4,143.916781596708,
positions.xlsx,stimuli.xlsx,test.xlsx,stimuli/Social1.png,stimuli/Social2.png,stimuli/Nonsocial1.png,stimuli/Nonsocial2.png,stimuli/Test1.png,stimuli/Test2.png,"(0.7, -0.5)",cs_minus_ns,"(-0.7, 0.5)",cs_minus_ns,0,0,0,0,,,,,0,38,38,93,,,,,,,,,,,,,,,231.19528270000592,232.2021487999591,232.2021487999591,232.34800160001032,232.85494970000582,232.85494970000582,233.00075050001033,l,0.5035942999529652,correct,,233.51462430000538,233.84100199997192,232.2021487999591,,,,,,,,,,,,16,A,2023-12-11_09h24.19.990,gca_discrimination,2022.2.4,143.916781596708,
positions.xlsx,stimuli.xlsx,test.xlsx,stimuli/Social1.png,stimuli/Social2.png,stimuli/Nonsocial1.png,stimuli/Nonsocial2.png,stimuli/Test1.png,stimuli/Test2.png,"(0.7, 0.5)",cs_plus_ns,"(-0.7, 0.5)",cs_plus_ns,0,0,0,0,,,,,0,39,39,78,,,,,,,,,,,,,,,233.84100199997192,234.84787959995447,234.84787959995447,234.99374750000425,235.50064489996294,235.50064489996294,235.64650699996855,l,0.744280599988997,correct,,236.4034080999554,236.62562000000617,234.84787959995447,,,,,,,,,,,,16,A,2023-12-11_09h24.19.990,gca_discrimination,2022.2.4,143.916781596708,
positions.xlsx,stimuli.xlsx,test.xlsx,stimuli/Social1.png,stimuli/Social2.png,stimuli/Nonsocial1.png,stimuli/Nonsocial2.png,stimuli/Test1.png,stimuli/Test2.png,"(-0.7, 0.5)",cs_plus_ns,"(0.7, -0.5)",cs_minus_ns,0,0,0,0,,,,,0,40,40,26,,,,,,,,,,,,,,,236.62562000000617,237.6325397999608,237.6325397999608,237.7783573999768,238.285259199969,238.285259199969,238.43111679999856,ä,0.6557776000117883,correct,,239.097748900007,239.72272419999354,237.6325397999608,,,,,,,,,,,,16,A,2023-12-11_09h24.19.990,gca_discrimination,2022.2.4,143.916781596708,
positions.xlsx,stimuli.xlsx,test.xlsx,stimuli/Social1.png,stimuli/Social2.png,stimuli/Nonsocial1.png,stimuli/Nonsocial2.png,stimuli/Test1.png,stimuli/Test2.png,"(0.7, 0.5)",cs_plus_s,"(0.7, -0.5)",cs_minus_s,0,0,0,0,,,,,0,41,41,8,,,,,,,,,,,,,,,239.72272419999354,240.72966710000765,240.72966710000765,240.87548160000006,241.38237099995604,241.38237099995604,241.5281687999959,ä,0.5437604999751784,correct,,242.0837160999654,242.22955349995755,240.72966710000765,,,,,,,,,,,,16,A,2023-12-11_09h24.19.990,gca_discrimination,2022.2.4,143.916781596708,
positions.xlsx,stimuli.xlsx,test.xlsx,stimuli/Social1.png,stimuli/Social2.png,stimuli/Nonsocial1.png,stimuli/Nonsocial2.png,stimuli/Test1.png,stimuli/Test2.png,"(-0.7, -0.5)",cs_plus_ns,"(0.7, -0.5)",cs_plus_ns,0,0,0,0,,,,,0,42,42,77,,,,,,,,,,,,,,,242.22955349995755,243.2364812999731,243.2364812999731,243.38228540000273,243.88924319995567,243.88924319995567,244.03506349999225,l,0.7805154999950901,correct,,244.8266835999675,245.59750039997743,243.2364812999731,,,,,,,,,,,,16,A,2023-12-11_09h24.19.990,gca_discrimination,2022.2.4,143.916781596708,
positions.xlsx,stimuli.xlsx,test.xlsx,stimuli/Social1.png,stimuli/Social2.png,stimuli/Nonsocial1.png,stimuli/Nonsocial2.png,stimuli/Test1.png,stimuli/Test2.png,"(-0.7, 0.5)",cs_plus_s,"(-0.7, -0.5)",cs_plus_s,0,0,0,0,,,,,0,43,43,48,,,,,,,,,,,,,,,245.59750039997743,246.60437059996184,246.60437059996184,246.75021540001035,247.2571449999814,247.2571449999814,247.40298259997508,l,0.5402810000232421,correct,,247.95155900000827,248.12514610000653,246.60437059996184,,,,,,,,,,,,16,A,2023-12-11_09h24.19.990,gca_discrimination,2022.2.4,143.916781596708,
positions.xlsx,stimuli.xlsx,test.xlsx,stimuli/Social1.png,stimuli/Social2.png,stimuli/Nonsocial1.png,stimuli/Nonsocial2.png,stimuli/Test1.png,stimuli/Test2.png,"(-0.7, -0.5)",cs_plus_ns,"(0.7, 0.5)",cs_minus_ns,0,0,0,0,,,,,0,44,44,28,,,,,,,,,,,,,,,248.12514610000653,249.13207759999204,249.13207759999204,249.27789699996356,249.78480580000905,249.78480580000905,249.93064749997575,ä,0.6357674000319093,correct,,250.57647959998576,250.94446500000777,249.13207759999204,,,,,,,,,,,,16,A,2023-12-11_09h24.19.990,gca_discrimination,2022.2.4,143.916781596708,
positions.xlsx,stimuli.xlsx,test.xlsx,stimuli/Social1.png,stimuli/Social2.png,stimuli/Nonsocial1.png,stimuli/Nonsocial2.png,stimuli/Test1.png,stimuli/Test2.png,"(-0.7, -0.5)",cs_minus_ns,"(0.7, 0.5)",cs_minus_ns,0,0,0,0,,,,,0,45,45,88,,,,,,,,,,,,,,,250.94446500000777,251.95142379996832,251.95142379996832,252.09723029995803,252.60416439996334,252.60416439996334,252.74994790001074,l,0.30529350001597777,correct,,253.06247989996336,253.18052970001008,251.95142379996832,,,,,,,,,,,,16,A,2023-12-11_09h24.19.990,gca_discrimination,2022.2.4,143.916781596708,
positions.xlsx,stimuli.xlsx,test.xlsx,stimuli/Social1.png,stimuli/Social2.png,stimuli/Nonsocial1.png,stimuli/Nonsocial2.png,stimuli/Test1.png,stimuli/Test2.png,"(0.7, 0.5)",cs_plus_ns,"(-0.7, 0.5)",cs_minus_ns,0,0,0,0,,,,,0,46,46,30,,,,,,,,,,,,,,,253.18052970001008,254.1874730999698,254.1874730999698,254.33324629999697,254.84020380000584,254.84020380000584,254.98600149998674,ä,0.8210929000051692,correct,,255.81933129997924,256.11093729996355,254.1874730999698,,,,,,,,,,,,16,A,2023-12-11_09h24.19.990,gca_discrimination,2022.2.4,143.916781596708,
positions.xlsx,stimuli.xlsx,test.xlsx,stimuli/Social1.png,stimuli/Social2.png,stimuli/Nonsocial1.png,stimuli/Nonsocial2.png,stimuli/Test1.png,stimuli/Test2.png,"(-0.7, 0.5)",cs_minus_s,"(-0.7, -0.5)",cs_plus_s,0,0,0,0,,,,,0,47,47,12,,,,,,,,,,,,,,,256.11093729996355,257.1178840000066,257.1178840000066,257.26367789995857,257.7706393999979,257.7706393999979,257.91645789996255,ä,0.7148530000122264,correct,,258.63865129998885,259.09000659995945,257.1178840000066,,,,,,,,,,,,16,A,2023-12-11_09h24.19.990,gca_discrimination,2022.2.4,143.916781596708,
positions.xlsx,stimuli.xlsx,test.xlsx,stimuli/Social1.png,stimuli/Social2.png,stimuli/Nonsocial1.png,stimuli/Nonsocial2.png,stimuli/Test1.png,stimuli/Test2.png,"(0.7, 0.5)",cs_minus_s,"(-0.7, -0.5)",cs_plus_s,0,0,0,0,,,,,0,48,48,19,,,,,,,,,,,,,,,259.09000659995945,260.0968944999622,260.0968944999622,260.242712199979,260.7496785999974,260.7496785999974,260.8954695999855,ä,0.6156232999637723,correct,,261.5204620999866,262.1662771999836,260.0968944999622,,,,,,,,,,,,16,A,2023-12-11_09h24.19.990,gca_discrimination,2022.2.4,143.916781596708,
positions.xlsx,stimuli.xlsx,test.xlsx,stimuli/Social1.png,stimuli/Social2.png,stimuli/Nonsocial1.png,stimuli/Nonsocial2.png,stimuli/Test1.png,stimuli/Test2.png,"(0.7, 0.5)",cs_minus_s,"(-0.7, 0.5)",cs_plus_s,0,0,0,0,,,,,0,49,49,18,,,,,,,,,,,,,,,262.1662771999836,263.173195499985,263.173195499985,263.31902299996,263.8259321000078,263.8259321000078,263.97176220000256,ä,0.5472960000042804,correct,,264.5273149999557,264.6175674999831,263.173195499985,,,,,,,,,,,,16,A,2023-12-11_09h24.19.990,gca_discrimination,2022.2.4,143.916781596708,
positions.xlsx,stimuli.xlsx,test.xlsx,stimuli/Social1.png,stimuli/Social2.png,stimuli/Nonsocial1.png,stimuli/Nonsocial2.png,stimuli/Test1.png,stimuli/Test2.png,"(-0.7, -0.5)",cs_plus_s,"(0.7, -0.5)",cs_minus_s,0,0,0,0,,,,,0,50,50,5,,,,,,,,,,,,,,,264.6175674999831,265.62450129998615,265.62450129998615,265.770311500004,266.27723339997465,266.27723339997465,266.4230510999914,ä,0.583716299966909,correct,,267.0202602999634,267.6382915999857,265.62450129998615,,,,,,,,,,,,16,A,2023-12-11_09h24.19.990,gca_discrimination,2022.2.4,143.916781596708,
positions.xlsx,stimuli.xlsx,test.xlsx,stimuli/Social1.png,stimuli/Social2.png,stimuli/Nonsocial1.png,stimuli/Nonsocial2.png,stimuli/Test1.png,stimuli/Test2.png,"(-0.7, 0.5)",cs_plus_ns,"(-0.7, -0.5)",cs_plus_ns,0,0,0,0,,,,,0,51,51,72,,,,,,,,,,,,,,,267.6382915999857,268.64521079999395,268.64521079999395,268.79102399997646,269.2979590999894,269.2979590999894,269.4437845000066,None,,no answer,,271.4437210999895,271.66592339996714,268.64521079999395,,,,,,,,,,,,16,A,2023-12-11_09h24.19.990,gca_discrimination,2022.2.4,143.916781596708,
positions.xlsx,stimuli.xlsx,test.xlsx,stimuli/Social1.png,stimuli/Social2.png,stimuli/Nonsocial1.png,stimuli/Nonsocial2.png,stimuli/Test1.png,stimuli/Test2.png,"(0.7, -0.5)",cs_plus_ns,"(-0.7, 0.5)",cs_minus_ns,0,0,0,0,,,,,0,52,52,33,,,,,,,,,,,,,,,271.66592339996714,272.6728552999557,272.6728552999557,272.8186594999861,273.32557119999547,273.32557119999547,273.47140409995336,ä,0.6552663999609649,correct,,274.13802389998455,274.36719739995897,272.6728552999557,,,,,,,,,,,,16,A,2023-12-11_09h24.19.990,gca_discrimination,2022.2.4,143.916781596708,
positions.xlsx,stimuli.xlsx,test.xlsx,stimuli/Social1.png,stimuli/Social2.png,stimuli/Nonsocial1.png,stimuli/Nonsocial2.png,stimuli/Test1.png,stimuli/Test2.png,"(-0.7, -0.5)",cs_plus_ns,"(0.7, 0.5)",cs_plus_ns,0,0,0,0,,,,,0,53,53,76,,,,,,,,,,,,,,,274.36719739995897,275.3741120999912,275.3741120999912,275.51989979995415,276.0268795999582,276.0268795999582,276.17268680001143,l,0.681850699998904,correct,,276.8670780999819,277.5476257999544,275.3741120999912,,,,,,,,,,,,16,A,2023-12-11_09h24.19.990,gca_discrimination,2022.2.4,143.916781596708,
positions.xlsx,stimuli.xlsx,test.xlsx,stimuli/Social1.png,stimuli/Social2.png,stimuli/Nonsocial1.png,stimuli/Nonsocial2.png,stimuli/Test1.png,stimuli/Test2.png,"(0.7, 0.5)",cs_plus_s,"(-0.7, -0.5)",cs_minus_s,0,0,0,0,,,,,0,54,54,7,,,,,,,,,,,,,,,277.5476257999544,278.55455080000684,278.55455080000684,278.70037119998597,279.2073051999905,279.2073051999905,279.3531157000107,ä,0.39006189996143803,correct,,279.7558655999601,280.47112780000316,278.55455080000684,,,,,,,,,,,,16,A,2023-12-11_09h24.19.990,gca_discrimination,2022.2.4,143.916781596708,
positions.xlsx,stimuli.xlsx,test.xlsx,stimuli/Social1.png,stimuli/Social2.png,stimuli/Nonsocial1.png,stimuli/Nonsocial2.png,stimuli/Test1.png,stimuli/Test2.png,"(0.7, -0.5)",cs_plus_s,"(0.7, 0.5)",cs_minus_s,0,0,0,0,,,,,0,55,55,11,,,,,,,,,,,,,,,280.47112780000316,281.47803529998055,281.47803529998055,281.62387149996357,282.1307661999599,282.1307661999599,282.2766057999688,ä,0.8020549000357278,correct,,283.08908479998354,283.8668252999778,281.47803529998055,,,,,,,,,,,,16,A,2023-12-11_09h24.19.990,gca_discrimination,2022.2.4,143.916781596708,
positions.xlsx,stimuli.xlsx,test.xlsx,stimuli/Social1.png,stimuli/Social2.png,stimuli/Nonsocial1.png,stimuli/Nonsocial2.png,stimuli/Test1.png,stimuli/Test2.png,"(0.7, 0.5)",cs_plus_s,"(0.7, -0.5)",cs_plus_s,0,0,0,0,,,,,0,56,56,56,,,,,,,,,,,,,,,283.8668252999778,284.8737547000055,284.8737547000055,285.01957169995876,285.5265170999919,285.5265170999919,285.6722795999958,l,0.6472649000352249,correct,,286.3320032999618,287.03339309996227,284.8737547000055,,,,,,,,,,,,16,A,2023-12-11_09h24.19.990,gca_discrimination,2022.2.4,143.916781596708,
positions.xlsx,stimuli.xlsx,test.xlsx,stimuli/Social1.png,stimuli/Social2.png,stimuli/Nonsocial1.png,stimuli/Nonsocial2.png,stimuli/Test1.png,stimuli/Test2.png,"(0.7, -0.5)",cs_plus_ns,"(-0.7, 0.5)",cs_plus_ns,0,0,0,0,,,,,0,57,57,81,,,,,,,,,,,,,,,287.03339309996227,288.0402823999757,288.0402823999757,288.1861396000022,288.6930182999931,288.6930182999931,288.8388551999815,l,0.46436440001707524,correct,,289.3110298999818,289.77633919997606,288.0402823999757,,,,,,,,,,,,16,A,2023-12-11_09h24.19.990,gca_discrimination,2022.2.4,143.916781596708,
positions.xlsx,stimuli.xlsx,test.xlsx,stimuli/Social1.png,stimuli/Social2.png,stimuli/Nonsocial1.png,stimuli/Nonsocial2.png,stimuli/Test1.png,stimuli/Test2.png,"(0.7, 0.5)",cs_minus_s,"(0.7, -0.5)",cs_minus_s,0,0,0,0,,,,,0,58,58,68,,,,,,,,,,,,,,,289.77633919997606,290.7831989999977,290.7831989999977,290.92905380000593,291.4359848999884,291.4359848999884,291.5818120999611,l,0.5619231999735348,correct,,292.1512246999773,292.8178886999958,290.7831989999977,,,,,,,,,,,,16,A,2023-12-11_09h24.19.990,gca_discrimination,2022.2.4,143.916781596708,
positions.xlsx,stimuli.xlsx,test.xlsx,stimuli/Social1.png,stimuli/Social2.png,stimuli/Nonsocial1.png,stimuli/Nonsocial2.png,stimuli/Test1.png,stimuli/Test2.png,"(0.7, -0.5)",cs_minus_ns,"(0.7, 0.5)",cs_minus_ns,0,0,0,0,,,,,0,59,59,95,,,,,,,,,,,,,,,292.8178886999958,293.82478889997583,293.82478889997583,293.97061610000674,294.4775691999821,294.4775691999821,294.6233719000011,l,0.6959389999974519,correct,,295.33166450000135,296.22742909996305,293.82478889997583,,,,,,,,,,,,16,A,2023-12-11_09h24.19.990,gca_discrimination,2022.2.4,143.916781596708,
positions.xlsx,stimuli.xlsx,test.xlsx,stimuli/Social1.png,stimuli/Social2.png,stimuli/Nonsocial1.png,stimuli/Nonsocial2.png,stimuli/Test1.png,stimuli/Test2.png,"(0.7, -0.5)",cs_plus_s,"(-0.7, -0.5)",cs_plus_s,0,0,0,0,,,,,0,60,60,58,,,,,,,,,,,,,,,296.22742909996305,297.23438619996887,297.23438619996887,297.3801853999612,297.8871298999875,297.8871298999875,298.03291349997744,l,0.5896676999982446,correct,,298.6301462999545,299.5120506999665,297.23438619996887,,,,,,,,,,,,16,A,2023-12-11_09h24.19.990,gca_discrimination,2022.2.4,143.916781596708,
positions.xlsx,stimuli.xlsx,test.xlsx,stimuli/Social1.png,stimuli/Social2.png,stimuli/Nonsocial1.png,stimuli/Nonsocial2.png,stimuli/Test1.png,stimuli/Test2.png,"(-0.7, -0.5)",cs_plus_s,"(0.7, 0.5)",cs_minus_s,0,0,0,0,,,,,0,61,61,4,,,,,,,,,,,,,,,299.5120506999665,300.51902399997925,300.51902399997925,300.6647635999834,301.17171939997934,301.17171939997934,301.3175407999661,ä,0.3933388000004925,correct,,301.72029139997903,302.03279139997903,300.51902399997925,,,,,,,,,,,,16,A,2023-12-11_09h24.19.990,gca_discrimination,2022.2.4,143.916781596708,
positions.xlsx,stimuli.xlsx,test.xlsx,stimuli/Social1.png,stimuli/Social2.png,stimuli/Nonsocial1.png,stimuli/Nonsocial2.png,stimuli/Test1.png,stimuli/Test2.png,"(0.7, 0.5)",cs_minus_ns,"(0.7, -0.5)",cs_plus_ns,0,0,0,0,,,,,0,62,62,44,,,,,,,,,,,,,,,302.03279139997903,303.03969389997656,303.03969389997656,303.1855033999891,303.69247259997064,303.69247259997064,303.83826819999376,ä,0.7684108999674208,correct,,304.61600579996593,305.0187723999843,303.03969389997656,,,,,,,,,,,,16,A,2023-12-11_09h24.19.990,gca_discrimination,2022.2.4,143.916781596708,
positions.xlsx,stimuli.xlsx,test.xlsx,stimuli/Social1.png,stimuli/Social2.png,stimuli/Nonsocial1.png,stimuli/Nonsocial2.png,stimuli/Test1.png,stimuli/Test2.png,"(0.7, 0.5)",cs_minus_s,"(-0.7, 0.5)",cs_minus_s,0,0,0,0,,,,,0,63,63,66,,,,,,,,,,,,,,,305.0187723999843,306.02569009998115,306.02569009998115,306.17151809995994,306.6784639999969,306.6784639999969,306.8242707999889,l,0.7991101000225171,correct,,307.63673829997424,308.5881281999755,306.02569009998115,,,,,,,,,,,,16,A,2023-12-11_09h24.19.990,gca_discrimination,2022.2.4,143.916781596708,
positions.xlsx,stimuli.xlsx,test.xlsx,stimuli/Social1.png,stimuli/Social2.png,stimuli/Nonsocial1.png,stimuli/Nonsocial2.png,stimuli/Test1.png,stimuli/Test2.png,"(-0.7, -0.5)",cs_minus_ns,"(-0.7, 0.5)",cs_minus_ns,0,0,0,0,,,,,0,64,64,87,,,,,,,,,,,,,,,308.5881281999755,309.5950084999786,309.5950084999786,309.7408153999713,310.2477311999537,310.2477311999537,310.39358129998436,l,0.6542291000369005,correct,,311.0602410999709,312.04630180000095,309.5950084999786,,,,,,,,,,,,16,A,2023-12-11_09h24.19.990,gca_discrimination,2022.2.4,143.916781596708,
positions.xlsx,stimuli.xlsx,test.xlsx,stimuli/Social1.png,stimuli/Social2.png,stimuli/Nonsocial1.png,stimuli/Nonsocial2.png,stimuli/Test1.png,stimuli/Test2.png,"(-0.7, -0.5)",cs_minus_s,"(-0.7, 0.5)",cs_minus_s,0,0,0,0,,,,,0,65,65,63,,,,,,,,,,,,,,,312.04630180000095,313.053200299968,313.053200299968,313.19903979997616,313.7059975999873,313.7059975999873,313.8517695000046,l,0.9634827999980189,correct,,314.8239416999859,315.2336386999814,313.053200299968,,,,,,,,,,,,16,A,2023-12-11_09h24.19.990,gca_discrimination,2022.2.4,143.916781596708,
positions.xlsx,stimuli.xlsx,test.xlsx,stimuli/Social1.png,stimuli/Social2.png,stimuli/Nonsocial1.png,stimuli/Nonsocial2.png,stimuli/Test1.png,stimuli/Test2.png,"(0.7, -0.5)",cs_minus_s,"(-0.7, -0.5)",cs_minus_s,0,0,0,0,,,,,0,66,66,70,,,,,,,,,,,,,,,315.2336386999814,316.2405888999929,316.2405888999929,316.3863915000111,316.8933271999704,316.8933271999704,317.0391589999781,l,0.3757305000326596,correct,,317.428022899956,318.080809600011,316.2405888999929,,,,,,,,,,,,16,A,2023-12-11_09h24.19.990,gca_discrimination,2022.2.4,143.916781596708,
positions.xlsx,stimuli.xlsx,test.xlsx,stimuli/Social1.png,stimuli/Social2.png,stimuli/Nonsocial1.png,stimuli/Nonsocial2.png,stimuli/Test1.png,stimuli/Test2.png,"(-0.7, -0.5)",cs_minus_s,"(0.7, 0.5)",cs_plus_s,0,0,0,0,,,,,0,67,67,16,,,,,,,,,,,,,,,318.080809600011,319.0876900999574,319.0876900999574,319.2335260999971,319.74041379999835,319.74041379999835,319.88627409999026,ä,0.48914840002544224,correct,,320.3862228000071,320.9904159999569,319.0876900999574,,,,,,,,,,,,16,A,2023-12-11_09h24.19.990,gca_discrimination,2022.2.4,143.916781596708,
positions.xlsx,stimuli.xlsx,test.xlsx,stimuli/Social1.png,stimuli/Social2.png,stimuli/Nonsocial1.png,stimuli/Nonsocial2.png,stimuli/Test1.png,stimuli/Test2.png,"(-0.7, -0.5)",cs_minus_s,"(0.7, 0.5)",cs_minus_s,0,0,0,0,,,,,0,68,68,64,,,,,,,,,,,,,,,320.9904159999569,321.99729199998546,321.99729199998546,322.1431537999888,322.65005599998403,322.65005599998403,322.7958663000027,l,0.4510825999896042,correct,,323.254194499983,323.7472008999903,321.99729199998546,,,,,,,,,,,,16,A,2023-12-11_09h24.19.990,gca_discrimination,2022.2.4,143.916781596708,
positions.xlsx,stimuli.xlsx,test.xlsx,stimuli/Social1.png,stimuli/Social2.png,stimuli/Nonsocial1.png,stimuli/Nonsocial2.png,stimuli/Test1.png,stimuli/Test2.png,"(0.7, -0.5)",cs_minus_s,"(-0.7, -0.5)",cs_plus_s,0,0,0,0,,,,,0,69,69,22,,,,,,,,,,,,,,,323.7472008999903,324.7541918999632,324.7541918999632,324.89995659998385,325.4068934000097,325.4068934000097,325.55268659995636,ä,0.7744886000291444,correct,,326.3373933999683,326.9485405999585,324.7541918999632,,,,,,,,,,,,16,A,2023-12-11_09h24.19.990,gca_discrimination,2022.2.4,143.916781596708,
positions.xlsx,stimuli.xlsx,test.xlsx,stimuli/Social1.png,stimuli/Social2.png,stimuli/Nonsocial1.png,stimuli/Nonsocial2.png,stimuli/Test1.png,stimuli/Test2.png,"(0.7, -0.5)",cs_minus_ns,"(-0.7, 0.5)",cs_plus_ns,0,0,0,0,,,,,0,70,70,45,,,,,,,,,,,,,,,326.9485405999585,327.9554125999566,327.9554125999566,328.1012034000014,328.60814179998124,328.60814179998124,328.7539556999691,ä,0.6365117999957874,correct,,329.3997846999555,329.9900593999773,327.9554125999566,,,,,,,,,,,,16,A,2023-12-11_09h24.19.990,gca_discrimination,2022.2.4,143.916781596708,
positions.xlsx,stimuli.xlsx,test.xlsx,stimuli/Social1.png,stimuli/Social2.png,stimuli/Nonsocial1.png,stimuli/Nonsocial2.png,stimuli/Test1.png,stimuli/Test2.png,"(-0.7, 0.5)",cs_minus_s,"(0.7, -0.5)",cs_plus_s,0,0,0,0,,,,,0,71,71,14,,,,,,,,,,,,,,,329.9900593999773,330.9969224999659,330.9969224999659,331.1427638999885,331.6496896999888,331.6496896999888,331.7955181999714,ä,1.2036667999927886,correct,,333.0107391999918,333.1496162999538,330.9969224999659,,,,,,,,,,,,16,A,2023-12-11_09h24.19.990,gca_discrimination,2022.2.4,143.916781596708,
positions.xlsx,stimuli.xlsx,test.xlsx,stimuli/Social1.png,stimuli/Social2.png,stimuli/Nonsocial1.png,stimuli/Nonsocial2.png,stimuli/Test1.png,stimuli/Test2.png,"(0.7, 0.5)",cs_minus_ns,"(-0.7, -0.5)",cs_minus_ns,0,0,0,0,,,,,0,72,72,91,,,,,,,,,,,,,,,333.1496162999538,334.1565293999738,334.1565293999738,334.30237250000937,334.80930179997813,334.80930179997813,334.9551331999828,l,0.6272930999984965,correct,,335.59399570000824,336.3925504999934,334.1565293999738,,,,,,,,,,,,16,A,2023-12-11_09h24.19.990,gca_discrimination,2022.2.4,143.916781596708,
positions.xlsx,stimuli.xlsx,test.xlsx,stimuli/Social1.png,stimuli/Social2.png,stimuli/Nonsocial1.png,stimuli/Nonsocial2.png,stimuli/Test1.png,stimuli/Test2.png,"(-0.7, -0.5)",cs_minus_ns,"(0.7, -0.5)",cs_minus_ns,0,0,0,0,,,,,0,73,73,89,,,,,,,,,,,,,,,336.3925504999934,337.399435099971,337.399435099971,337.5452394000022,338.052217199991,338.052217199991,338.1980244999868,l,0.3528082999982871,correct,,338.55913690000307,339.1354998999741,337.399435099971,,,,,,,,,,,,16,A,2023-12-11_09h24.19.990,gca_discrimination,2022.2.4,143.916781596708,
positions.xlsx,stimuli.xlsx,test.xlsx,stimuli/Social1.png,stimuli/Social2.png,stimuli/Nonsocial1.png,stimuli/Nonsocial2.png,stimuli/Test1.png,stimuli/Test2.png,"(0.7, -0.5)",cs_minus_s,"(-0.7, 0.5)",cs_minus_s,0,0,0,0,,,,,0,74,74,69,,,,,,,,,,,,,,,339.1354998999741,340.14243149996037,340.14243149996037,340.28826080000727,340.79517219995614,340.79517219995614,340.94098899996607,l,0.5457638999796472,correct,,341.4965273999842,342.3645306999679,340.14243149996037,,,,,,,,,,,,16,A,2023-12-11_09h24.19.990,gca_discrimination,2022.2.4,143.916781596708,
positions.xlsx,stimuli.xlsx,test.xlsx,stimuli/Social1.png,stimuli/Social2.png,stimuli/Nonsocial1.png,stimuli/Nonsocial2.png,stimuli/Test1.png,stimuli/Test2.png,"(-0.7, -0.5)",cs_plus_ns,"(0.7, -0.5)",cs_minus_ns,0,0,0,0,,,,,0,75,75,29,,,,,,,,,,,,,,,342.3645306999679,343.37145869998494,343.37145869998494,343.5172667999868,344.02420399995754,344.02420399995754,344.1700286999694,ä,0.852823699999135,correct,,345.03111709997756,345.66996699996525,343.37145869998494,,,,,,,,,,,,16,A,2023-12-11_09h24.19.990,gca_discrimination,2022.2.4,143.916781596708,
positions.xlsx,stimuli.xlsx,test.xlsx,stimuli/Social1.png,stimuli/Social2.png,stimuli/Nonsocial1.png,stimuli/Nonsocial2.png,stimuli/Test1.png,stimuli/Test2.png,"(-0.7, 0.5)",cs_plus_ns,"(0.7, -0.5)",cs_plus_ns,0,0,0,0,,,,,0,76,76,74,,,,,,,,,,,,,,,345.66996699996525,346.6768839999568,346.6768839999568,346.82272009999724,347.3296351999743,347.3296351999743,347.4754297999898,l,0.6515230999793857,correct,,348.13514839997515,348.35043230000883,346.6768839999568,,,,,,,,,,,,16,A,2023-12-11_09h24.19.990,gca_discrimination,2022.2.4,143.916781596708,
positions.xlsx,stimuli.xlsx,test.xlsx,stimuli/Social1.png,stimuli/Social2.png,stimuli/Nonsocial1.png,stimuli/Nonsocial2.png,stimuli/Test1.png,stimuli/Test2.png,"(0.7, -0.5)",cs_plus_s,"(0.7, 0.5)",cs_plus_s,0,0,0,0,,,,,0,77,77,59,,,,,,,,,,,,,,,348.35043230000883,349.3573504000087,349.3573504000087,349.5031733000069,350.0100900999969,350.0100900999969,350.15590809995774,l,0.5951363000203855,correct,,350.76008839998394,351.2461889999686,349.3573504000087,,,,,,,,,,,,16,A,2023-12-11_09h24.19.990,gca_discrimination,2022.2.4,143.916781596708,
positions.xlsx,stimuli.xlsx,test.xlsx,stimuli/Social1.png,stimuli/Social2.png,stimuli/Nonsocial1.png,stimuli/Nonsocial2.png,stimuli/Test1.png,stimuli/Test2.png,"(0.7, 0.5)",cs_plus_ns,"(0.7, -0.5)",cs_minus_ns,0,0,0,0,,,,,0,78,78,32,,,,,,,,,,,,,,,351.2461889999686,352.25305910001043,352.25305910001043,352.39887689996976,352.90580509998836,352.90580509998836,353.0516251999652,ä,0.8277909000171348,correct,,353.8918693999876,354.41967129998375,352.25305910001043,,,,,,,,,,,,16,A,2023-12-11_09h24.19.990,gca_discrimination,2022.2.4,143.916781596708,
positions.xlsx,stimuli.xlsx,test.xlsx,stimuli/Social1.png,stimuli/Social2.png,stimuli/Nonsocial1.png,stimuli/Nonsocial2.png,stimuli/Test1.png,stimuli/Test2.png,"(-0.7, 0.5)",cs_plus_s,"(-0.7, -0.5)",cs_minus_s,0,0,0,0,,,,,0,79,79,0,,,,,,,,,,,,,,,354.41967129998375,355.42653940001037,355.42653940001037,355.57237859995803,356.0792698999867,356.0792698999867,356.2251127999625,ä,0.9102152000414208,correct,,357.14866119995713,357.988955000008,355.42653940001037,,,,,,,,,,,,16,A,2023-12-11_09h24.19.990,gca_discrimination,2022.2.4,143.916781596708,
positions.xlsx,stimuli.xlsx,test.xlsx,stimuli/Social1.png,stimuli/Social2.png,stimuli/Nonsocial1.png,stimuli/Nonsocial2.png,stimuli/Test1.png,stimuli/Test2.png,"(-0.7, 0.5)",cs_minus_ns,"(0.7, -0.5)",cs_plus_ns,0,0,0,0,,,,,0,80,80,38,,,,,,,,,,,,,,,357.988955000008,358.99584629997844,358.99584629997844,359.14165169995977,359.6486051999964,359.6486051999964,359.79447649995564,ä,0.45258250000188127,correct,,360.25965989998076,361.07907279999927,358.99584629997844,,,,,,,,,,,,16,A,2023-12-11_09h24.19.990,gca_discrimination,2022.2.4,143.916781596708,
positions.xlsx,stimuli.xlsx,test.xlsx,stimuli/Social1.png,stimuli/Social2.png,stimuli/Nonsocial1.png,stimuli/Nonsocial2.png,stimuli/Test1.png,stimuli/Test2.png,"(-0.7, -0.5)",cs_minus_s,"(0.7, -0.5)",cs_plus_s,0,0,0,0,,,,,0,81,81,17,,,,,,,,,,,,,,,361.07907279999927,362.085995899979,362.085995899979,362.2318115999806,362.7387708000024,362.7387708000024,362.88461489998735,ä,0.5786364999949001,correct,,363.47482860001037,363.62068379996344,362.085995899979,,,,,,,,,,,,16,A,2023-12-11_09h24.19.990,gca_discrimination,2022.2.4,143.916781596708,
positions.xlsx,stimuli.xlsx,test.xlsx,stimuli/Social1.png,stimuli/Social2.png,stimuli/Nonsocial1.png,stimuli/Nonsocial2.png,stimuli/Test1.png,stimuli/Test2.png,"(-0.7, 0.5)",cs_plus_s,"(0.7, -0.5)",cs_plus_s,0,0,0,0,,,,,0,82,82,50,,,,,,,,,,,,,,,363.62068379996344,364.6275629999582,364.6275629999582,364.77340629999526,365.28030009998474,365.28030009998474,365.42614749999484,l,1.2129012999939732,correct,,366.64833409996936,367.27328580000903,364.6275629999582,,,,,,,,,,,,16,A,2023-12-11_09h24.19.990,gca_discrimination,2022.2.4,143.916781596708,
positions.xlsx,stimuli.xlsx,test.xlsx,stimuli/Social1.png,stimuli/Social2.png,stimuli/Nonsocial1.png,stimuli/Nonsocial2.png,stimuli/Test1.png,stimuli/Test2.png,"(0.7, 0.5)",cs_plus_s,"(-0.7, -0.5)",cs_plus_s,0,0,0,0,,,,,0,83,83,55,,,,,,,,,,,,,,,367.27328580000903,368.28020069998456,368.28020069998456,368.42602279997664,368.93295609997585,368.93295609997585,369.07876449998,l,0.439920200034976,correct,,369.5301497000037,370.384284699976,368.28020069998456,,,,,,,,,,,,16,A,2023-12-11_09h24.19.990,gca_discrimination,2022.2.4,143.916781596708,
positions.xlsx,stimuli.xlsx,test.xlsx,stimuli/Social1.png,stimuli/Social2.png,stimuli/Nonsocial1.png,stimuli/Nonsocial2.png,stimuli/Test1.png,stimuli/Test2.png,"(-0.7, 0.5)",cs_minus_ns,"(0.7, 0.5)",cs_minus_ns,0,0,0,0,,,,,0,84,84,85,,,,,,,,,,,,,,,370.384284699976,371.3911827999982,371.3911827999982,371.5370120999869,372.043965299963,372.043965299963,372.189757599961,l,0.3051314000040293,correct,,372.5022293999791,373.37026409996906,371.3911827999982,,,,,,,,,,,,16,A,2023-12-11_09h24.19.990,gca_discrimination,2022.2.4,143.916781596708,
positions.xlsx,stimuli.xlsx,test.xlsx,stimuli/Social1.png,stimuli/Social2.png,stimuli/Nonsocial1.png,stimuli/Nonsocial2.png,stimuli/Test1.png,stimuli/Test2.png,"(-0.7, 0.5)",cs_plus_s,"(0.7, 0.5)",cs_minus_s,0,0,0,0,,,,,0,85,85,1,,,,,,,,,,,,,,,373.37026409996906,374.377176399983,374.377176399983,374.5230213999748,375.02994999999646,375.02994999999646,375.1757535999641,ä,0.35110440000426024,correct,,375.53688599995803,376.25906000001123,374.377176399983,,,,,,,,,,,,16,A,2023-12-11_09h24.19.990,gca_discrimination,2022.2.4,143.916781596708,
positions.xlsx,stimuli.xlsx,test.xlsx,stimuli/Social1.png,stimuli/Social2.png,stimuli/Nonsocial1.png,stimuli/Nonsocial2.png,stimuli/Test1.png,stimuli/Test2.png,"(0.7, -0.5)",cs_plus_s,"(-0.7, 0.5)",cs_plus_s,0,0,0,0,,,,,0,86,86,57,,,,,,,,,,,,,,,376.25906000001123,377.2659452999942,377.2659452999942,377.41178069997113,377.91872690001037,377.91872690001037,378.06452899996657,l,0.38299360004020855,correct,,378.46032569999807,378.73811420000857,377.2659452999942,,,,,,,,,,,,16,A,2023-12-11_09h24.19.990,gca_discrimination,2022.2.4,143.916781596708,
positions.xlsx,stimuli.xlsx,test.xlsx,stimuli/Social1.png,stimuli/Social2.png,stimuli/Nonsocial1.png,stimuli/Nonsocial2.png,stimuli/Test1.png,stimuli/Test2.png,"(0.7, -0.5)",cs_minus_ns,"(-0.7, -0.5)",cs_minus_ns,0,0,0,0,,,,,0,87,87,94,,,,,,,,,,,,,,,378.73811420000857,379.74503799999366,379.74503799999366,379.8908886999707,380.3977794999955,380.3977794999955,380.54366429999936,l,0.5127388999680988,correct,,381.0644302999717,381.84214109997265,379.74503799999366,,,,,,,,,,,,16,A,2023-12-11_09h24.19.990,gca_discrimination,2022.2.4,143.916781596708,
positions.xlsx,stimuli.xlsx,test.xlsx,stimuli/Social1.png,stimuli/Social2.png,stimuli/Nonsocial1.png,stimuli/Nonsocial2.png,stimuli/Test1.png,stimuli/Test2.png,"(-0.7, 0.5)",cs_minus_s,"(0.7, 0.5)",cs_plus_s,0,0,0,0,,,,,0,88,88,13,,,,,,,,,,,,,,,381.84214109997265,382.8490620999946,382.8490620999946,382.9949001999921,383.5018104999908,383.5018104999908,383.64765629998874,ä,0.5114468000247143,correct,,384.1684636999853,384.8351055000094,382.8490620999946,,,,,,,,,,,,16,A,2023-12-11_09h24.19.990,gca_discrimination,2022.2.4,143.916781596708,
positions.xlsx,stimuli.xlsx,test.xlsx,stimuli/Social1.png,stimuli/Social2.png,stimuli/Nonsocial1.png,stimuli/Nonsocial2.png,stimuli/Test1.png,stimuli/Test2.png,"(-0.7, 0.5)",cs_plus_ns,"(-0.7, -0.5)",cs_minus_ns,0,0,0,0,,,,,0,89,89,24,,,,,,,,,,,,,,,384.8351055000094,385.84200499998406,385.84200499998406,385.98783579998417,386.4948057999718,386.4948057999718,386.6405654999544,l,0.7111789000337012,wrong,,387.36276749998797,388.3210631000111,385.84200499998406,,,,,,,,,,,,16,A,2023-12-11_09h24.19.990,gca_discrimination,2022.2.4,143.916781596708,
positions.xlsx,stimuli.xlsx,test.xlsx,stimuli/Social1.png,stimuli/Social2.png,stimuli/Nonsocial1.png,stimuli/Nonsocial2.png,stimuli/Test1.png,stimuli/Test2.png,"(0.7, -0.5)",cs_plus_s,"(-0.7, -0.5)",cs_minus_s,0,0,0,0,,,,,0,90,90,10,,,,,,,,,,,,,,,388.3210631000111,389.3279886000091,389.3279886000091,389.4738259000005,389.98074849997647,389.98074849997647,390.1265737999929,ä,0.6968013999867253,correct,,390.8348407999729,391.70290179998847,389.3279886000091,,,,,,,,,,,,16,A,2023-12-11_09h24.19.990,gca_discrimination,2022.2.4,143.916781596708,
positions.xlsx,stimuli.xlsx,test.xlsx,stimuli/Social1.png,stimuli/Social2.png,stimuli/Nonsocial1.png,stimuli/Nonsocial2.png,stimuli/Test1.png,stimuli/Test2.png,"(0.7, 0.5)",cs_minus_ns,"(0.7, -0.5)",cs_minus_ns,0,0,0,0,,,,,0,91,91,92,,,,,,,,,,,,,,,391.70290179998847,392.7098149000085,392.7098149000085,392.85560449998593,393.36256489995867,393.36256489995867,393.5083839999861,l,0.6181786999804899,correct,,394.1333575999597,394.75136389996624,392.7098149000085,,,,,,,,,,,,16,A,2023-12-11_09h24.19.990,gca_discrimination,2022.2.4,143.916781596708,
positions.xlsx,stimuli.xlsx,test.xlsx,stimuli/Social1.png,stimuli/Social2.png,stimuli/Nonsocial1.png,stimuli/Nonsocial2.png,stimuli/Test1.png,stimuli/Test2.png,"(0.7, 0.5)",cs_minus_ns,"(-0.7, 0.5)",cs_plus_ns,0,0,0,0,,,,,0,92,92,42,,,,,,,,,,,,,,,394.75136389996624,395.75828010000987,395.75828010000987,395.9041061999742,396.411048799986,396.411048799986,396.5568811999983,ä,0.4498036000295542,correct,,397.0151726999902,397.10543699999107,395.75828010000987,,,,,,,,,,,,16,A,2023-12-11_09h24.19.990,gca_discrimination,2022.2.4,143.916781596708,
positions.xlsx,stimuli.xlsx,test.xlsx,stimuli/Social1.png,stimuli/Social2.png,stimuli/Nonsocial1.png,stimuli/Nonsocial2.png,stimuli/Test1.png,stimuli/Test2.png,"(0.7, 0.5)",cs_plus_ns,"(0.7, -0.5)",cs_plus_ns,0,0,0,0,,,,,0,93,93,80,,,,,,,,,,,,,,,397.10543699999107,398.11238309997134,398.11238309997134,398.25818279996747,398.76510769996094,398.76510769996094,398.91096459998516,l,0.7763858999824151,correct,,399.695601799991,399.79286669997964,398.11238309997134,,,,,,,,,,,,16,A,2023-12-11_09h24.19.990,gca_discrimination,2022.2.4,143.916781596708,
positions.xlsx,stimuli.xlsx,test.xlsx,stimuli/Social1.png,stimuli/Social2.png,stimuli/Nonsocial1.png,stimuli/Nonsocial2.png,stimuli/Test1.png,stimuli/Test2.png,"(-0.7, -0.5)",cs_minus_ns,"(0.7, 0.5)",cs_plus_ns,0,0,0,0,,,,,0,94,94,40,,,,,,,,,,,,,,,399.79286669997964,400.7997693999787,400.7997693999787,400.94556099997135,401.45252359996084,401.45252359996084,401.59832409996307,ä,0.74448360002134,correct,,402.35526889999164,403.3274132999941,400.7997693999787,,,,,,,,,,,,16,A,2023-12-11_09h24.19.990,gca_discrimination,2022.2.4,143.916781596708,
positions.xlsx,stimuli.xlsx,test.xlsx,stimuli/Social1.png,stimuli/Social2.png,stimuli/Nonsocial1.png,stimuli/Nonsocial2.png,stimuli/Test1.png,stimuli/Test2.png,"(0.7, -0.5)",cs_minus_ns,"(0.7, 0.5)",cs_plus_ns,0,0,0,0,,,,,0,95,95,47,,,,,,,,,,,,,,,403.3274132999941,404.3343384999898,404.3343384999898,404.48013689997606,404.9871296999627,404.9871296999627,405.13293479999993,ä,0.4343745000078343,correct,,405.57734739995794,405.7440004000091,404.3343384999898,,,,,,,,,,,,16,A,2023-12-11_09h24.19.990,gca_discrimination,2022.2.4,143.916781596708,
