posFile,stimFile,testFile,cs_plus_s,cs_minus_s,cs_plus_ns,cs_minus_ns,test1,test2,position1,trialtype,position2,comptype,blocks.thisRepN,blocks.thisTrialN,blocks.thisN,blocks.thisIndex,learning_trials.thisRepN,learning_trials.thisTrialN,learning_trials.thisN,learning_trials.thisIndex,trials.thisRepN,trials.thisTrialN,trials.thisN,trials.thisIndex,textStart.started,spaceStart.started,spaceStart.keys,spaceStart.rt,textStartExp.started,textExpImages.started,ImageLearning1.started,ImageLearning2.started,textSpace.started,spaceStartExp.started,spaceStartExp.keys,spaceStartExp.rt,blankScreen.started,blankScreen.stopped,fixcross.started,firstImage.started,fixcrossImage1.started,fixcrossITI.started,secondImage.started,fixcrossImage2.started,key.started,key.keys,key.rt,correctness,feedbackText.started,fixcrossEnd.started,fixcrossEnd.stopped,fixcross.stopped,feedbackText.stopped,textStartTask.started,textTaskImages.started,ImageTask1.started,ImageTask2.started,ImageTask3.started,ImageTask4.started,textTaskSpace.started,spaceStartTask.started,spaceStartTask.keys,spaceStartTask.rt,participant,group,date,expName,psychopyVersion,frameRate,
,,,,,,,,,,,,,,,,,,,,,,,,,9.94688160000078,9.94688160000078,space,10.865764500005753,,,,,,,,,,,,,,,,,,,,,,,,,,,,,,,,,,,,9,D,2023-12-07_17h08.19.103,gca_discrimination,2022.2.4,143.9014562929261,
positions.xlsx,stimuli.xlsx,test.xlsx,stimuli/Social2.png,stimuli/Social1.png,stimuli/Nonsocial2.png,stimuli/Nonsocial1.png,stimuli/Test1.png,stimuli/Test2.png,"(0.7, 0.5)",test2,"(0.7, -0.5)",test1,0,0,0,0,0,0,0,6,,,,,,,,,20.828426100000797,20.828426100000797,20.828426100000797,20.828426100000797,20.828426100000797,20.828426100000797,space,27.105110600001353,47.94542779999756,49.32734319999872,49.32734319999872,50.341183600001386,50.341183600001386,50.47311819999595,50.98698839999997,50.98698839999997,51.12586939999892,l,1.7350525000074413,correct,52.87578290000238,54.87573010000051,55.52846149999823,,,,,,,,,,,,,9,D,2023-12-07_17h08.19.103,gca_discrimination,2022.2.4,143.9014562929261,
positions.xlsx,stimuli.xlsx,test.xlsx,stimuli/Social2.png,stimuli/Social1.png,stimuli/Nonsocial2.png,stimuli/Nonsocial1.png,stimuli/Test1.png,stimuli/Test2.png,"(-0.7, -0.5)",test2,"(-0.7, 0.5)",test2,0,0,0,0,0,1,1,2,,,,,,,,,,,,,,,,,,,55.52846149999823,56.52842760000203,56.52842760000203,56.68120279999857,57.181192199997895,57.181192199997895,57.333974000001035,ä,0.5511004000072717,correct,57.89642140000069,59.89635570000246,60.208848399997805,56.52842760000203,59.89635570000246,,,,,,,,,,,9,D,2023-12-07_17h08.19.103,gca_discrimination,2022.2.4,143.9014562929261,
positions.xlsx,stimuli.xlsx,test.xlsx,stimuli/Social2.png,stimuli/Social1.png,stimuli/Nonsocial2.png,stimuli/Nonsocial1.png,stimuli/Test1.png,stimuli/Test2.png,"(0.7, 0.5)",test1,"(0.7, -0.5)",test2,0,0,0,0,0,2,2,11,,,,,,,,,,,,,,,,,,,60.208848399997805,61.20880659999966,61.20880659999966,61.36159439999756,61.86154340000212,61.86154340000212,62.014310500002466,l,0.446889500002726,correct,62.47265360000165,64.47258259999944,65.01419509999687,61.20880659999966,64.47258259999944,,,,,,,,,,,9,D,2023-12-07_17h08.19.103,gca_discrimination,2022.2.4,143.9014562929261,
positions.xlsx,stimuli.xlsx,test.xlsx,stimuli/Social2.png,stimuli/Social1.png,stimuli/Nonsocial2.png,stimuli/Nonsocial1.png,stimuli/Test1.png,stimuli/Test2.png,"(0.7, -0.5)",test2,"(-0.7, 0.5)",test1,0,0,0,0,0,3,3,4,,,,,,,,,,,,,,,,,,,65.01419509999687,66.01417380000203,66.01417380000203,66.16695289999916,66.66693549999763,66.66693549999763,66.81969099999696,l,0.4649229000060586,correct,67.29189539999788,69.29184159999568,70.10427119999804,66.01417380000203,69.29184159999568,,,,,,,,,,,9,D,2023-12-07_17h08.19.103,gca_discrimination,2022.2.4,143.9014562929261,
positions.xlsx,stimuli.xlsx,test.xlsx,stimuli/Social2.png,stimuli/Social1.png,stimuli/Nonsocial2.png,stimuli/Nonsocial1.png,stimuli/Test1.png,stimuli/Test2.png,"(-0.7, 0.5)",test2,"(0.7, 0.5)",test1,0,0,0,0,0,4,4,3,,,,,,,,,,,,,,,,,,,70.10427119999804,71.10425209999812,71.10425209999812,71.25708280000254,71.75701560000016,71.75701560000016,71.90973389999999,l,0.34280150000267895,correct,72.26392299999861,74.26385239999945,74.34024219999992,71.10425209999812,74.26385239999945,,,,,,,,,,,9,D,2023-12-07_17h08.19.103,gca_discrimination,2022.2.4,143.9014562929261,
positions.xlsx,stimuli.xlsx,test.xlsx,stimuli/Social2.png,stimuli/Social1.png,stimuli/Nonsocial2.png,stimuli/Nonsocial1.png,stimuli/Test1.png,stimuli/Test2.png,"(-0.7, -0.5)",test1,"(0.7, 0.5)",test2,0,0,0,0,0,5,5,8,,,,,,,,,,,,,,,,,,,74.34024219999992,75.34022050000203,75.34022050000203,75.49294920000102,75.99290929999552,75.99290929999552,76.14571450000221,l,0.2753408000062336,correct,76.43042799999967,78.4303252000027,78.62474790000124,75.34022050000203,78.4303252000027,,,,,,,,,,,9,D,2023-12-07_17h08.19.103,gca_discrimination,2022.2.4,143.9014562929261,
positions.xlsx,stimuli.xlsx,test.xlsx,stimuli/Social2.png,stimuli/Social1.png,stimuli/Nonsocial2.png,stimuli/Nonsocial1.png,stimuli/Test1.png,stimuli/Test2.png,"(-0.7, 0.5)",test1,"(0.7, -0.5)",test1,0,0,0,0,0,6,6,5,,,,,,,,,,,,,,,,,,,78.62474790000124,79.6247532999987,79.6247532999987,79.77751700000226,80.2775668999966,80.2775668999966,80.43028960000083,ä,0.5910988000105135,correct,81.03440119999868,83.03433219999715,83.61763259999861,79.6247532999987,83.03433219999715,,,,,,,,,,,9,D,2023-12-07_17h08.19.103,gca_discrimination,2022.2.4,143.9014562929261,
positions.xlsx,stimuli.xlsx,test.xlsx,stimuli/Social2.png,stimuli/Social1.png,stimuli/Nonsocial2.png,stimuli/Nonsocial1.png,stimuli/Test1.png,stimuli/Test2.png,"(-0.7, -0.5)",test2,"(0.7, 0.5)",test2,0,0,0,0,0,7,7,7,,,,,,,,,,,,,,,,,,,83.61763259999861,84.61762240000098,84.61762240000098,84.7703920999993,85.27036829999997,85.27036829999997,85.42312849999871,ä,0.5894134000045597,correct,86.02034239999921,88.02026820000174,88.2633233000015,84.61762240000098,88.02026820000174,,,,,,,,,,,9,D,2023-12-07_17h08.19.103,gca_discrimination,2022.2.4,143.9014562929261,
positions.xlsx,stimuli.xlsx,test.xlsx,stimuli/Social2.png,stimuli/Social1.png,stimuli/Nonsocial2.png,stimuli/Nonsocial1.png,stimuli/Test1.png,stimuli/Test2.png,"(0.7, -0.5)",test1,"(0.7, 0.5)",test2,0,0,0,0,0,8,8,0,,,,,,,,,,,,,,,,,,,88.2633233000015,89.26325530000031,89.26325530000031,89.4160183999993,89.91600199999812,89.91600199999812,90.06878549999965,l,0.35188350000680657,correct,90.42987929999799,92.429822099999,92.86727149999933,89.26325530000031,92.429822099999,,,,,,,,,,,9,D,2023-12-07_17h08.19.103,gca_discrimination,2022.2.4,143.9014562929261,
positions.xlsx,stimuli.xlsx,test.xlsx,stimuli/Social2.png,stimuli/Social1.png,stimuli/Nonsocial2.png,stimuli/Nonsocial1.png,stimuli/Test1.png,stimuli/Test2.png,"(-0.7, 0.5)",test2,"(0.7, -0.5)",test1,0,0,0,0,0,9,9,12,,,,,,,,,,,,,,,,,,,92.86727149999933,93.8741721999977,93.8741721999977,94.02001220000238,94.52003500000137,94.52003500000137,94.67276100000163,l,0.2438172000038321,correct,94.92966399999568,96.92962959999568,97.52680959999998,93.8741721999977,96.92962959999568,,,,,,,,,,,9,D,2023-12-07_17h08.19.103,gca_discrimination,2022.2.4,143.9014562929261,
positions.xlsx,stimuli.xlsx,test.xlsx,stimuli/Social2.png,stimuli/Social1.png,stimuli/Nonsocial2.png,stimuli/Nonsocial1.png,stimuli/Test1.png,stimuli/Test2.png,"(-0.7, 0.5)",test2,"(-0.7, -0.5)",test2,0,0,0,0,0,10,10,1,,,,,,,,,,,,,,,,,,,97.52680959999998,98.52676909999718,98.52676909999718,98.6795398999966,99.17955880000227,99.17955880000227,99.33231440000236,ä,0.512140000006184,correct,99.8531226999985,101.85301829999662,102.62384899999597,98.52676909999718,101.85301829999662,,,,,,,,,,,9,D,2023-12-07_17h08.19.103,gca_discrimination,2022.2.4,143.9014562929261,
positions.xlsx,stimuli.xlsx,test.xlsx,stimuli/Social2.png,stimuli/Social1.png,stimuli/Nonsocial2.png,stimuli/Nonsocial1.png,stimuli/Test1.png,stimuli/Test2.png,"(0.7, 0.5)",test2,"(-0.7, 0.5)",test1,0,0,0,0,0,11,11,13,,,,,,,,,,,,,,,,,,,102.62384899999597,103.62376999999833,103.62376999999833,103.77656379999826,104.2765722999975,104.2765722999975,104.42934209999657,l,0.3351375000056578,correct,104.77653850000206,106.77648939999926,107.40838200000144,103.62376999999833,106.77648939999926,,,,,,,,,,,9,D,2023-12-07_17h08.19.103,gca_discrimination,2022.2.4,143.9014562929261,
positions.xlsx,stimuli.xlsx,test.xlsx,stimuli/Social2.png,stimuli/Social1.png,stimuli/Nonsocial2.png,stimuli/Nonsocial1.png,stimuli/Test1.png,stimuli/Test2.png,"(0.7, -0.5)",test1,"(0.7, 0.5)",test1,0,0,0,0,0,12,12,10,,,,,,,,,,,,,,,,,,,107.40838200000144,108.40838559999975,108.40838559999975,108.56112359999679,109.06110259999696,109.06110259999696,109.21388529999967,ä,0.36664310000196565,correct,109.58886809999967,111.58877799999755,112.4498575999969,108.40838559999975,111.58877799999755,,,,,,,,,,,9,D,2023-12-07_17h08.19.103,gca_discrimination,2022.2.4,143.9014562929261,
positions.xlsx,stimuli.xlsx,test.xlsx,stimuli/Social2.png,stimuli/Social1.png,stimuli/Nonsocial2.png,stimuli/Nonsocial1.png,stimuli/Test1.png,stimuli/Test2.png,"(-0.7, -0.5)",test2,"(0.7, -0.5)",test2,0,0,0,0,0,13,13,9,,,,,,,,,,,,,,,,,,,112.4498575999969,113.44982929999969,113.44982929999969,113.60259159999987,114.10259809999843,114.10259809999843,114.25536579999607,ä,0.30915440000535455,correct,114.57475649999833,116.57470779999858,116.82468259999587,113.44982929999969,116.57470779999858,,,,,,,,,,,9,D,2023-12-07_17h08.19.103,gca_discrimination,2022.2.4,143.9014562929261,
positions.xlsx,stimuli.xlsx,test.xlsx,stimuli/Social2.png,stimuli/Social1.png,stimuli/Nonsocial2.png,stimuli/Nonsocial1.png,stimuli/Test1.png,stimuli/Test2.png,"(-0.7, -0.5)",cs_minus_s,"(-0.7, 0.5)",cs_plus_s,0,0,0,0,,,,,0,0,0,15,,,,,,,,,,,,,127.5812289999958,129.28947370000242,129.28947370000242,130.28943620000064,130.28943620000064,130.42831199999637,130.93524339999567,130.93524339999567,131.08106650000263,l,0.8675929000019096,correct,,131.95603210000263,132.9074083000014,,,116.82468259999587,116.82468259999587,116.82468259999587,116.82468259999587,116.82468259999587,116.82468259999587,116.82468259999587,116.82468259999587,space,10.748269700001401,9,D,2023-12-07_17h08.19.103,gca_discrimination,2022.2.4,143.9014562929261,
positions.xlsx,stimuli.xlsx,test.xlsx,stimuli/Social2.png,stimuli/Social1.png,stimuli/Nonsocial2.png,stimuli/Nonsocial1.png,stimuli/Test1.png,stimuli/Test2.png,"(-0.7, 0.5)",cs_plus_s,"(0.7, -0.5)",cs_plus_s,0,0,0,0,,,,,0,1,1,50,,,,,,,,,,,,,,,132.9074083000014,133.91428879999876,133.91428879999876,134.06012159999955,134.5670564999964,134.5670564999964,134.7128991999998,ä,0.4679292000073474,correct,,135.19200499999715,135.8586295999994,133.91428879999876,,,,,,,,,,,,9,D,2023-12-07_17h08.19.103,gca_discrimination,2022.2.4,143.9014562929261,
positions.xlsx,stimuli.xlsx,test.xlsx,stimuli/Social2.png,stimuli/Social1.png,stimuli/Nonsocial2.png,stimuli/Nonsocial1.png,stimuli/Test1.png,stimuli/Test2.png,"(-0.7, -0.5)",cs_minus_ns,"(-0.7, 0.5)",cs_minus_ns,0,0,0,0,,,,,0,2,2,87,,,,,,,,,,,,,,,135.8586295999994,136.86564540000109,136.86564540000109,137.01138979999814,137.5183096999972,137.5183096999972,137.6641518999968,None,,no answer,,139.66408149999916,139.7335385999977,136.86564540000109,,,,,,,,,,,,9,D,2023-12-07_17h08.19.103,gca_discrimination,2022.2.4,143.9014562929261,
positions.xlsx,stimuli.xlsx,test.xlsx,stimuli/Social2.png,stimuli/Social1.png,stimuli/Nonsocial2.png,stimuli/Nonsocial1.png,stimuli/Test1.png,stimuli/Test2.png,"(0.7, -0.5)",cs_minus_s,"(-0.7, -0.5)",cs_plus_s,0,0,0,0,,,,,0,3,3,22,,,,,,,,,,,,,,,139.7335385999977,140.74043569999776,140.74043569999776,140.88626130000193,141.3931683999981,141.3931683999981,141.53899819999788,l,0.6335341000085464,correct,,142.18477970000095,142.45563589999801,140.74043569999776,,,,,,,,,,,,9,D,2023-12-07_17h08.19.103,gca_discrimination,2022.2.4,143.9014562929261,
positions.xlsx,stimuli.xlsx,test.xlsx,stimuli/Social2.png,stimuli/Social1.png,stimuli/Nonsocial2.png,stimuli/Nonsocial1.png,stimuli/Test1.png,stimuli/Test2.png,"(-0.7, -0.5)",cs_plus_s,"(0.7, -0.5)",cs_minus_s,0,0,0,0,,,,,0,4,4,5,,,,,,,,,,,,,,,142.45563589999801,143.46251649999613,143.46251649999613,143.60837419999734,144.1152856999979,144.1152856999979,144.26112380000268,l,0.5190068000083556,correct,,144.78886729999795,145.51108430000022,143.46251649999613,,,,,,,,,,,,9,D,2023-12-07_17h08.19.103,gca_discrimination,2022.2.4,143.9014562929261,
positions.xlsx,stimuli.xlsx,test.xlsx,stimuli/Social2.png,stimuli/Social1.png,stimuli/Nonsocial2.png,stimuli/Nonsocial1.png,stimuli/Test1.png,stimuli/Test2.png,"(-0.7, -0.5)",cs_plus_ns,"(-0.7, 0.5)",cs_plus_ns,0,0,0,0,,,,,0,5,5,75,,,,,,,,,,,,,,,145.51108430000022,146.51800530000037,146.51800530000037,146.6637896999964,147.1707349999997,147.1707349999997,147.31657180000184,ä,0.46357970000826754,correct,,147.78874789999827,148.24010519999865,146.51800530000037,,,,,,,,,,,,9,D,2023-12-07_17h08.19.103,gca_discrimination,2022.2.4,143.9014562929261,
positions.xlsx,stimuli.xlsx,test.xlsx,stimuli/Social2.png,stimuli/Social1.png,stimuli/Nonsocial2.png,stimuli/Nonsocial1.png,stimuli/Test1.png,stimuli/Test2.png,"(-0.7, 0.5)",cs_minus_s,"(0.7, 0.5)",cs_minus_s,0,0,0,0,,,,,0,6,6,61,,,,,,,,,,,,,,,148.24010519999865,149.2470003999988,149.2470003999988,149.39286569999967,149.8997812000016,149.8997812000016,150.0456344999984,ä,0.35851040000852663,correct,,150.41363869999623,151.05251259999932,149.2470003999988,,,,,,,,,,,,9,D,2023-12-07_17h08.19.103,gca_discrimination,2022.2.4,143.9014562929261,
positions.xlsx,stimuli.xlsx,test.xlsx,stimuli/Social2.png,stimuli/Social1.png,stimuli/Nonsocial2.png,stimuli/Nonsocial1.png,stimuli/Test1.png,stimuli/Test2.png,"(-0.7, -0.5)",cs_plus_s,"(0.7, 0.5)",cs_minus_s,0,0,0,0,,,,,0,7,7,4,,,,,,,,,,,,,,,151.05251259999932,152.05942340000183,152.05942340000183,152.2052240999983,152.71217869999964,152.71217869999964,152.85800510000263,l,0.48280050000175834,correct,,153.35102819999884,153.96214699999837,152.05942340000183,,,,,,,,,,,,9,D,2023-12-07_17h08.19.103,gca_discrimination,2022.2.4,143.9014562929261,
positions.xlsx,stimuli.xlsx,test.xlsx,stimuli/Social2.png,stimuli/Social1.png,stimuli/Nonsocial2.png,stimuli/Nonsocial1.png,stimuli/Test1.png,stimuli/Test2.png,"(0.7, 0.5)",cs_minus_ns,"(-0.7, 0.5)",cs_plus_ns,0,0,0,0,,,,,0,8,8,42,,,,,,,,,,,,,,,153.96214699999837,154.96902840000257,154.96902840000257,155.1148761000004,155.62180020000233,155.62180020000233,155.767594500001,l,1.2371805000002496,correct,,157.01754549999896,158.01058059999923,154.96902840000257,,,,,,,,,,,,9,D,2023-12-07_17h08.19.103,gca_discrimination,2022.2.4,143.9014562929261,
positions.xlsx,stimuli.xlsx,test.xlsx,stimuli/Social2.png,stimuli/Social1.png,stimuli/Nonsocial2.png,stimuli/Nonsocial1.png,stimuli/Test1.png,stimuli/Test2.png,"(0.7, -0.5)",cs_plus_s,"(-0.7, -0.5)",cs_minus_s,0,0,0,0,,,,,0,9,9,10,,,,,,,,,,,,,,,158.01058059999923,159.01748029999726,159.01748029999726,159.16331530000025,159.67024249999668,159.67024249999668,159.81606330000068,l,0.44488510000519454,correct,,160.27437700000155,160.8160138999956,159.01748029999726,,,,,,,,,,,,9,D,2023-12-07_17h08.19.103,gca_discrimination,2022.2.4,143.9014562929261,
positions.xlsx,stimuli.xlsx,test.xlsx,stimuli/Social2.png,stimuli/Social1.png,stimuli/Nonsocial2.png,stimuli/Nonsocial1.png,stimuli/Test1.png,stimuli/Test2.png,"(0.7, -0.5)",cs_minus_s,"(-0.7, 0.5)",cs_minus_s,0,0,0,0,,,,,0,10,10,69,,,,,,,,,,,,,,,160.8160138999956,161.82292510000116,161.82292510000116,161.96876689999772,162.47568599999795,162.47568599999795,162.62155419999908,ä,0.43910210000467487,correct,,163.07287630000064,163.25342549999914,161.82292510000116,,,,,,,,,,,,9,D,2023-12-07_17h08.19.103,gca_discrimination,2022.2.4,143.9014562929261,
positions.xlsx,stimuli.xlsx,test.xlsx,stimuli/Social2.png,stimuli/Social1.png,stimuli/Nonsocial2.png,stimuli/Nonsocial1.png,stimuli/Test1.png,stimuli/Test2.png,"(-0.7, -0.5)",cs_plus_s,"(0.7, -0.5)",cs_plus_s,0,0,0,0,,,,,0,11,11,53,,,,,,,,,,,,,,,163.25342549999914,164.26032879999548,164.26032879999548,164.40616849999788,164.91309109999565,164.91309109999565,165.05888769999729,ä,0.4740269000030821,correct,,165.54500310000003,165.91301859999658,164.26032879999548,,,,,,,,,,,,9,D,2023-12-07_17h08.19.103,gca_discrimination,2022.2.4,143.9014562929261,
positions.xlsx,stimuli.xlsx,test.xlsx,stimuli/Social2.png,stimuli/Social1.png,stimuli/Nonsocial2.png,stimuli/Nonsocial1.png,stimuli/Test1.png,stimuli/Test2.png,"(-0.7, -0.5)",cs_plus_s,"(-0.7, 0.5)",cs_minus_s,0,0,0,0,,,,,0,12,12,3,,,,,,,,,,,,,,,165.91301859999658,166.91997869999614,166.91997869999614,167.06577889999608,167.5726833000008,167.5726833000008,167.71858259999863,l,0.5193304000058561,correct,,168.246264100002,168.86432729999797,166.91997869999614,,,,,,,,,,,,9,D,2023-12-07_17h08.19.103,gca_discrimination,2022.2.4,143.9014562929261,
positions.xlsx,stimuli.xlsx,test.xlsx,stimuli/Social2.png,stimuli/Social1.png,stimuli/Nonsocial2.png,stimuli/Nonsocial1.png,stimuli/Test1.png,stimuli/Test2.png,"(0.7, -0.5)",cs_minus_s,"(0.7, 0.5)",cs_minus_s,0,0,0,0,,,,,0,13,13,71,,,,,,,,,,,,,,,168.86432729999797,169.8712532999998,169.8712532999998,170.01705219999712,170.52401119999558,170.52401119999558,170.66978350000136,ä,0.43149690000427654,correct,,171.11425849999796,171.82251910000195,169.8712532999998,,,,,,,,,,,,9,D,2023-12-07_17h08.19.103,gca_discrimination,2022.2.4,143.9014562929261,
positions.xlsx,stimuli.xlsx,test.xlsx,stimuli/Social2.png,stimuli/Social1.png,stimuli/Nonsocial2.png,stimuli/Nonsocial1.png,stimuli/Test1.png,stimuli/Test2.png,"(0.7, 0.5)",cs_plus_s,"(0.7, -0.5)",cs_minus_s,0,0,0,0,,,,,0,14,14,8,,,,,,,,,,,,,,,171.82251910000195,172.82945029999973,172.82945029999973,172.97529249999934,173.48222489999898,173.48222489999898,173.6280293000018,l,0.7294935000027181,correct,,174.37104069999623,174.66270429999713,172.82945029999973,,,,,,,,,,,,9,D,2023-12-07_17h08.19.103,gca_discrimination,2022.2.4,143.9014562929261,
positions.xlsx,stimuli.xlsx,test.xlsx,stimuli/Social2.png,stimuli/Social1.png,stimuli/Nonsocial2.png,stimuli/Nonsocial1.png,stimuli/Test1.png,stimuli/Test2.png,"(0.7, 0.5)",cs_plus_s,"(-0.7, -0.5)",cs_minus_s,0,0,0,0,,,,,0,15,15,7,,,,,,,,,,,,,,,174.66270429999713,175.66962860000058,175.66962860000058,175.8154424000022,176.3223674999972,176.3223674999972,176.46818060000078,l,0.5281195999996271,correct,,177.00983319999796,177.21124730000156,175.66962860000058,,,,,,,,,,,,9,D,2023-12-07_17h08.19.103,gca_discrimination,2022.2.4,143.9014562929261,
positions.xlsx,stimuli.xlsx,test.xlsx,stimuli/Social2.png,stimuli/Social1.png,stimuli/Nonsocial2.png,stimuli/Nonsocial1.png,stimuli/Test1.png,stimuli/Test2.png,"(-0.7, -0.5)",cs_plus_ns,"(0.7, -0.5)",cs_minus_ns,0,0,0,0,,,,,0,16,16,29,,,,,,,,,,,,,,,177.21124730000156,178.21809499999654,178.21809499999654,178.36394669999572,178.8708553999968,178.8708553999968,179.01668339999742,l,0.4436725000050501,correct,,179.46807599999738,180.20416860000114,178.21809499999654,,,,,,,,,,,,9,D,2023-12-07_17h08.19.103,gca_discrimination,2022.2.4,143.9014562929261,
positions.xlsx,stimuli.xlsx,test.xlsx,stimuli/Social2.png,stimuli/Social1.png,stimuli/Nonsocial2.png,stimuli/Nonsocial1.png,stimuli/Test1.png,stimuli/Test2.png,"(-0.7, 0.5)",cs_plus_ns,"(0.7, -0.5)",cs_plus_ns,0,0,0,0,,,,,0,17,17,74,,,,,,,,,,,,,,,180.20416860000114,181.21104190000187,181.21104190000187,181.35686349999742,181.86379599999782,181.86379599999782,182.00962869999785,ä,0.45847450000292156,correct,,182.4749066000004,182.95402559999638,181.21104190000187,,,,,,,,,,,,9,D,2023-12-07_17h08.19.103,gca_discrimination,2022.2.4,143.9014562929261,
positions.xlsx,stimuli.xlsx,test.xlsx,stimuli/Social2.png,stimuli/Social1.png,stimuli/Nonsocial2.png,stimuli/Nonsocial1.png,stimuli/Test1.png,stimuli/Test2.png,"(0.7, -0.5)",cs_plus_s,"(-0.7, 0.5)",cs_minus_s,0,0,0,0,,,,,0,18,18,9,,,,,,,,,,,,,,,182.95402559999638,183.9609958000001,183.9609958000001,184.10680339999817,184.61373869999807,184.61373869999807,184.75955450000038,l,0.4690848000027472,correct,,185.23869459999696,185.96779249999963,183.9609958000001,,,,,,,,,,,,9,D,2023-12-07_17h08.19.103,gca_discrimination,2022.2.4,143.9014562929261,
positions.xlsx,stimuli.xlsx,test.xlsx,stimuli/Social2.png,stimuli/Social1.png,stimuli/Nonsocial2.png,stimuli/Nonsocial1.png,stimuli/Test1.png,stimuli/Test2.png,"(0.7, 0.5)",cs_minus_s,"(0.7, -0.5)",cs_minus_s,0,0,0,0,,,,,0,19,19,68,,,,,,,,,,,,,,,185.96779249999963,186.97474189999775,186.97474189999775,187.12052109999786,187.62749629999598,187.62749629999598,187.77331360000244,ä,0.4236386000047787,correct,,188.2038676000011,188.70385140000144,186.97474189999775,,,,,,,,,,,,9,D,2023-12-07_17h08.19.103,gca_discrimination,2022.2.4,143.9014562929261,
positions.xlsx,stimuli.xlsx,test.xlsx,stimuli/Social2.png,stimuli/Social1.png,stimuli/Nonsocial2.png,stimuli/Nonsocial1.png,stimuli/Test1.png,stimuli/Test2.png,"(-0.7, -0.5)",cs_minus_s,"(0.7, 0.5)",cs_minus_s,0,0,0,0,,,,,0,20,20,64,,,,,,,,,,,,,,,188.70385140000144,189.71074319999752,189.71074319999752,189.85657170000195,190.3635135000004,190.3635135000004,190.50931919999857,ä,0.20782320000580512,correct,,190.72455729999638,191.03705089999858,189.71074319999752,,,,,,,,,,,,9,D,2023-12-07_17h08.19.103,gca_discrimination,2022.2.4,143.9014562929261,
positions.xlsx,stimuli.xlsx,test.xlsx,stimuli/Social2.png,stimuli/Social1.png,stimuli/Nonsocial2.png,stimuli/Nonsocial1.png,stimuli/Test1.png,stimuli/Test2.png,"(0.7, -0.5)",cs_plus_ns,"(-0.7, -0.5)",cs_minus_ns,0,0,0,0,,,,,0,21,21,34,,,,,,,,,,,,,,,191.03705089999858,192.0440094000005,192.0440094000005,192.18981350000104,192.69672980000178,192.69672980000178,192.84255010000197,l,0.3937207999988459,correct,,193.2453370000003,193.80779339999572,192.0440094000005,,,,,,,,,,,,9,D,2023-12-07_17h08.19.103,gca_discrimination,2022.2.4,143.9014562929261,
positions.xlsx,stimuli.xlsx,test.xlsx,stimuli/Social2.png,stimuli/Social1.png,stimuli/Nonsocial2.png,stimuli/Nonsocial1.png,stimuli/Test1.png,stimuli/Test2.png,"(0.7, 0.5)",cs_plus_ns,"(0.7, -0.5)",cs_minus_ns,0,0,0,0,,,,,0,22,22,32,,,,,,,,,,,,,,,193.80779339999572,194.81474850000086,194.81474850000086,194.96055699999852,195.46747009999672,195.46747009999672,195.613279600002,l,0.33632809999835445,correct,,195.9605010000014,196.3146579999957,194.81474850000086,,,,,,,,,,,,9,D,2023-12-07_17h08.19.103,gca_discrimination,2022.2.4,143.9014562929261,
positions.xlsx,stimuli.xlsx,test.xlsx,stimuli/Social2.png,stimuli/Social1.png,stimuli/Nonsocial2.png,stimuli/Nonsocial1.png,stimuli/Test1.png,stimuli/Test2.png,"(0.7, -0.5)",cs_minus_ns,"(0.7, 0.5)",cs_minus_ns,0,0,0,0,,,,,0,23,23,95,,,,,,,,,,,,,,,196.3146579999957,197.32156430000032,197.32156430000032,197.46737749999738,197.9743191000016,197.9743191000016,198.12013840000145,ä,0.39681820000259904,correct,,198.5298197000011,198.87009579999722,197.32156430000032,,,,,,,,,,,,9,D,2023-12-07_17h08.19.103,gca_discrimination,2022.2.4,143.9014562929261,
positions.xlsx,stimuli.xlsx,test.xlsx,stimuli/Social2.png,stimuli/Social1.png,stimuli/Nonsocial2.png,stimuli/Nonsocial1.png,stimuli/Test1.png,stimuli/Test2.png,"(-0.7, -0.5)",cs_plus_ns,"(0.7, -0.5)",cs_plus_ns,0,0,0,0,,,,,0,24,24,77,,,,,,,,,,,,,,,198.87009579999722,199.8769850999961,199.8769850999961,200.02283719999832,200.52977039999678,200.52977039999678,200.67557510000188,ä,0.5288049000082538,correct,,201.2172195000021,201.38395099999616,199.8769850999961,,,,,,,,,,,,9,D,2023-12-07_17h08.19.103,gca_discrimination,2022.2.4,143.9014562929261,
positions.xlsx,stimuli.xlsx,test.xlsx,stimuli/Social2.png,stimuli/Social1.png,stimuli/Nonsocial2.png,stimuli/Nonsocial1.png,stimuli/Test1.png,stimuli/Test2.png,"(0.7, 0.5)",cs_minus_s,"(-0.7, -0.5)",cs_minus_s,0,0,0,0,,,,,0,25,25,67,,,,,,,,,,,,,,,201.38395099999616,202.3908827999985,202.3908827999985,202.5366617999971,203.04358320000028,203.04358320000028,203.18935169999895,ä,0.34295790000032866,correct,,203.54351440000028,204.54349039999943,202.3908827999985,,,,,,,,,,,,9,D,2023-12-07_17h08.19.103,gca_discrimination,2022.2.4,143.9014562929261,
positions.xlsx,stimuli.xlsx,test.xlsx,stimuli/Social2.png,stimuli/Social1.png,stimuli/Nonsocial2.png,stimuli/Nonsocial1.png,stimuli/Test1.png,stimuli/Test2.png,"(-0.7, 0.5)",cs_plus_s,"(0.7, 0.5)",cs_minus_s,0,0,0,0,,,,,0,26,26,1,,,,,,,,,,,,,,,204.54349039999943,205.5504060999956,205.5504060999956,205.69623090000096,206.2031777000011,206.2031777000011,206.3490335999959,ä,0.37689850000606384,wrong,,206.73784689999593,206.93231730000116,205.5504060999956,,,,,,,,,,,,9,D,2023-12-07_17h08.19.103,gca_discrimination,2022.2.4,143.9014562929261,
positions.xlsx,stimuli.xlsx,test.xlsx,stimuli/Social2.png,stimuli/Social1.png,stimuli/Nonsocial2.png,stimuli/Nonsocial1.png,stimuli/Test1.png,stimuli/Test2.png,"(0.7, -0.5)",cs_plus_ns,"(0.7, 0.5)",cs_plus_ns,0,0,0,0,,,,,0,27,27,83,,,,,,,,,,,,,,,206.93231730000116,207.9391992000019,207.9391992000019,208.08502009999938,208.5919470000008,208.5919470000008,208.7378144999966,ä,0.48259560000587953,correct,,209.2308011999994,209.23774479999702,207.9391992000019,,,,,,,,,,,,9,D,2023-12-07_17h08.19.103,gca_discrimination,2022.2.4,143.9014562929261,
positions.xlsx,stimuli.xlsx,test.xlsx,stimuli/Social2.png,stimuli/Social1.png,stimuli/Nonsocial2.png,stimuli/Nonsocial1.png,stimuli/Test1.png,stimuli/Test2.png,"(-0.7, -0.5)",cs_minus_ns,"(0.7, -0.5)",cs_plus_ns,0,0,0,0,,,,,0,28,28,41,,,,,,,,,,,,,,,209.23774479999702,210.2446768000009,210.2446768000009,210.3904659999971,210.897427099997,210.897427099997,211.0432443000027,l,0.4890259000021615,correct,,211.54325799999788,212.38348869999754,210.2446768000009,,,,,,,,,,,,9,D,2023-12-07_17h08.19.103,gca_discrimination,2022.2.4,143.9014562929261,
positions.xlsx,stimuli.xlsx,test.xlsx,stimuli/Social2.png,stimuli/Social1.png,stimuli/Nonsocial2.png,stimuli/Nonsocial1.png,stimuli/Test1.png,stimuli/Test2.png,"(-0.7, 0.5)",cs_plus_s,"(-0.7, -0.5)",cs_plus_s,0,0,0,0,,,,,0,29,29,48,,,,,,,,,,,,,,,212.38348869999754,213.39040170000226,213.39040170000226,213.5362068999966,214.04312689999642,214.04312689999642,214.18893749999552,ä,0.679642100003548,correct,,214.87640039999678,215.7513923000006,213.39040170000226,,,,,,,,,,,,9,D,2023-12-07_17h08.19.103,gca_discrimination,2022.2.4,143.9014562929261,
positions.xlsx,stimuli.xlsx,test.xlsx,stimuli/Social2.png,stimuli/Social1.png,stimuli/Nonsocial2.png,stimuli/Nonsocial1.png,stimuli/Test1.png,stimuli/Test2.png,"(-0.7, -0.5)",cs_minus_s,"(0.7, 0.5)",cs_plus_s,0,0,0,0,,,,,0,30,30,16,,,,,,,,,,,,,,,215.7513923000006,216.75830860000133,216.75830860000133,216.90413160000026,217.41104719999566,217.41104719999566,217.55689559999882,l,0.7280191000027116,correct,,218.2929890000014,219.14015719999588,216.75830860000133,,,,,,,,,,,,9,D,2023-12-07_17h08.19.103,gca_discrimination,2022.2.4,143.9014562929261,
positions.xlsx,stimuli.xlsx,test.xlsx,stimuli/Social2.png,stimuli/Social1.png,stimuli/Nonsocial2.png,stimuli/Nonsocial1.png,stimuli/Test1.png,stimuli/Test2.png,"(-0.7, 0.5)",cs_plus_ns,"(0.7, -0.5)",cs_minus_ns,0,0,0,0,,,,,0,31,31,26,,,,,,,,,,,,,,,219.14015719999588,220.1470330000011,220.1470330000011,220.29287509999995,220.79980919999798,220.79980919999798,220.94564140000148,l,0.5558424000046216,correct,,221.51506119999976,221.73035140000138,220.1470330000011,,,,,,,,,,,,9,D,2023-12-07_17h08.19.103,gca_discrimination,2022.2.4,143.9014562929261,
positions.xlsx,stimuli.xlsx,test.xlsx,stimuli/Social2.png,stimuli/Social1.png,stimuli/Nonsocial2.png,stimuli/Nonsocial1.png,stimuli/Test1.png,stimuli/Test2.png,"(0.7, -0.5)",cs_minus_ns,"(-0.7, 0.5)",cs_plus_ns,0,0,0,0,,,,,0,32,32,45,,,,,,,,,,,,,,,221.73035140000138,222.73723790000076,222.73723790000076,222.88305820000096,223.3899986999968,223.3899986999968,223.53582150000148,l,0.3090026999998372,correct,,223.8552278999996,224.67474270000093,222.73723790000076,,,,,,,,,,,,9,D,2023-12-07_17h08.19.103,gca_discrimination,2022.2.4,143.9014562929261,
positions.xlsx,stimuli.xlsx,test.xlsx,stimuli/Social2.png,stimuli/Social1.png,stimuli/Nonsocial2.png,stimuli/Nonsocial1.png,stimuli/Test1.png,stimuli/Test2.png,"(-0.7, 0.5)",cs_plus_s,"(-0.7, -0.5)",cs_minus_s,0,0,0,0,,,,,0,33,33,0,,,,,,,,,,,,,,,224.67474270000093,225.68158879999828,225.68158879999828,225.82738059999974,226.33435640000243,226.33435640000243,226.4801456999994,l,0.48429760000726674,correct,,226.97320089999994,227.0426288000017,225.68158879999828,,,,,,,,,,,,9,D,2023-12-07_17h08.19.103,gca_discrimination,2022.2.4,143.9014562929261,
positions.xlsx,stimuli.xlsx,test.xlsx,stimuli/Social2.png,stimuli/Social1.png,stimuli/Nonsocial2.png,stimuli/Nonsocial1.png,stimuli/Test1.png,stimuli/Test2.png,"(-0.7, -0.5)",cs_minus_ns,"(0.7, -0.5)",cs_minus_ns,0,0,0,0,,,,,0,34,34,89,,,,,,,,,,,,,,,227.0426288000017,228.04951649999566,228.04951649999566,228.19536430000153,228.70227909999812,228.70227909999812,228.8481047000023,ä,0.4682193000044208,correct,,229.327260500002,229.89666990000114,228.04951649999566,,,,,,,,,,,,9,D,2023-12-07_17h08.19.103,gca_discrimination,2022.2.4,143.9014562929261,
positions.xlsx,stimuli.xlsx,test.xlsx,stimuli/Social2.png,stimuli/Social1.png,stimuli/Nonsocial2.png,stimuli/Nonsocial1.png,stimuli/Test1.png,stimuli/Test2.png,"(-0.7, -0.5)",cs_minus_ns,"(0.7, 0.5)",cs_minus_ns,0,0,0,0,,,,,0,35,35,88,,,,,,,,,,,,,,,229.89666990000114,230.90356130000146,230.90356130000146,231.04940650000208,231.55634270000155,231.55634270000155,231.7021648000009,ä,0.3824142000084976,correct,,232.09798949999822,232.63268750000134,230.90356130000146,,,,,,,,,,,,9,D,2023-12-07_17h08.19.103,gca_discrimination,2022.2.4,143.9014562929261,
positions.xlsx,stimuli.xlsx,test.xlsx,stimuli/Social2.png,stimuli/Social1.png,stimuli/Nonsocial2.png,stimuli/Nonsocial1.png,stimuli/Test1.png,stimuli/Test2.png,"(0.7, -0.5)",cs_plus_ns,"(-0.7, 0.5)",cs_plus_ns,0,0,0,0,,,,,0,36,36,81,,,,,,,,,,,,,,,232.63268750000134,233.6396128999986,233.6396128999986,233.78540290000092,234.29233949999616,234.29233949999616,234.43817750000017,ä,0.462113200002932,correct,,234.91039559999626,235.118710499999,233.6396128999986,,,,,,,,,,,,9,D,2023-12-07_17h08.19.103,gca_discrimination,2022.2.4,143.9014562929261,
positions.xlsx,stimuli.xlsx,test.xlsx,stimuli/Social2.png,stimuli/Social1.png,stimuli/Nonsocial2.png,stimuli/Nonsocial1.png,stimuli/Test1.png,stimuli/Test2.png,"(0.7, 0.5)",cs_plus_ns,"(-0.7, -0.5)",cs_plus_ns,0,0,0,0,,,,,0,37,37,79,,,,,,,,,,,,,,,235.118710499999,236.12559429999965,236.12559429999965,236.2714466999969,236.77834319999965,236.77834319999965,236.92417929999647,ä,0.3608458000016981,correct,,237.29222389999632,237.72975880000013,236.12559429999965,,,,,,,,,,,,9,D,2023-12-07_17h08.19.103,gca_discrimination,2022.2.4,143.9014562929261,
positions.xlsx,stimuli.xlsx,test.xlsx,stimuli/Social2.png,stimuli/Social1.png,stimuli/Nonsocial2.png,stimuli/Nonsocial1.png,stimuli/Test1.png,stimuli/Test2.png,"(-0.7, 0.5)",cs_minus_s,"(-0.7, -0.5)",cs_minus_s,0,0,0,0,,,,,0,38,38,60,,,,,,,,,,,,,,,237.72975880000013,238.73662779999722,238.73662779999722,238.8824392000024,239.3893528999979,239.3893528999979,239.53519850000157,ä,0.26134030000685016,correct,,239.80599509999593,240.25044619999971,238.73662779999722,,,,,,,,,,,,9,D,2023-12-07_17h08.19.103,gca_discrimination,2022.2.4,143.9014562929261,
positions.xlsx,stimuli.xlsx,test.xlsx,stimuli/Social2.png,stimuli/Social1.png,stimuli/Nonsocial2.png,stimuli/Nonsocial1.png,stimuli/Test1.png,stimuli/Test2.png,"(0.7, 0.5)",cs_plus_s,"(0.7, -0.5)",cs_plus_s,0,0,0,0,,,,,0,39,39,56,,,,,,,,,,,,,,,240.25044619999971,241.25733220000257,241.25733220000257,241.40317389999836,241.910097699998,241.910097699998,242.05592089999845,ä,0.38029150000511436,correct,,242.44478009999875,242.68787370000064,241.25733220000257,,,,,,,,,,,,9,D,2023-12-07_17h08.19.103,gca_discrimination,2022.2.4,143.9014562929261,
positions.xlsx,stimuli.xlsx,test.xlsx,stimuli/Social2.png,stimuli/Social1.png,stimuli/Nonsocial2.png,stimuli/Nonsocial1.png,stimuli/Test1.png,stimuli/Test2.png,"(0.7, 0.5)",cs_plus_s,"(-0.7, -0.5)",cs_plus_s,0,0,0,0,,,,,0,40,40,55,,,,,,,,,,,,,,,242.68787370000064,243.69477789999655,243.69477789999655,243.84054179999657,244.34751829999732,244.34751829999732,244.49331209999946,ä,0.27243100000487175,correct,,244.77804800000013,245.6669036999956,243.69477789999655,,,,,,,,,,,,9,D,2023-12-07_17h08.19.103,gca_discrimination,2022.2.4,143.9014562929261,
positions.xlsx,stimuli.xlsx,test.xlsx,stimuli/Social2.png,stimuli/Social1.png,stimuli/Nonsocial2.png,stimuli/Nonsocial1.png,stimuli/Test1.png,stimuli/Test2.png,"(0.7, -0.5)",cs_plus_s,"(-0.7, 0.5)",cs_plus_s,0,0,0,0,,,,,0,41,41,57,,,,,,,,,,,,,,,245.6669036999956,246.67382650000218,246.67382650000218,246.81961050000245,247.32655449999584,247.32655449999584,247.47237799999857,ä,0.3161770000078832,correct,,247.79876969999896,248.15985630000068,246.67382650000218,,,,,,,,,,,,9,D,2023-12-07_17h08.19.103,gca_discrimination,2022.2.4,143.9014562929261,
positions.xlsx,stimuli.xlsx,test.xlsx,stimuli/Social2.png,stimuli/Social1.png,stimuli/Nonsocial2.png,stimuli/Nonsocial1.png,stimuli/Test1.png,stimuli/Test2.png,"(0.7, 0.5)",cs_minus_ns,"(0.7, -0.5)",cs_plus_ns,0,0,0,0,,,,,0,42,42,44,,,,,,,,,,,,,,,248.15985630000068,249.16676139999618,249.16676139999618,249.31257449999976,249.81954389999737,249.81954389999737,249.96537579999858,l,0.5125027000030968,correct,,250.48616860000038,251.35418059999938,249.16676139999618,,,,,,,,,,,,9,D,2023-12-07_17h08.19.103,gca_discrimination,2022.2.4,143.9014562929261,
positions.xlsx,stimuli.xlsx,test.xlsx,stimuli/Social2.png,stimuli/Social1.png,stimuli/Nonsocial2.png,stimuli/Nonsocial1.png,stimuli/Test1.png,stimuli/Test2.png,"(-0.7, -0.5)",cs_minus_ns,"(0.7, 0.5)",cs_plus_ns,0,0,0,0,,,,,0,43,43,40,,,,,,,,,,,,,,,251.35418059999938,252.36107510000147,252.36107510000147,252.50690700000268,253.013855600002,253.013855600002,253.15966730000218,l,0.325378700006695,correct,,253.49298099999578,254.47904310000013,252.36107510000147,,,,,,,,,,,,9,D,2023-12-07_17h08.19.103,gca_discrimination,2022.2.4,143.9014562929261,
positions.xlsx,stimuli.xlsx,test.xlsx,stimuli/Social2.png,stimuli/Social1.png,stimuli/Nonsocial2.png,stimuli/Nonsocial1.png,stimuli/Test1.png,stimuli/Test2.png,"(-0.7, -0.5)",cs_plus_s,"(-0.7, 0.5)",cs_plus_s,0,0,0,0,,,,,0,44,44,51,,,,,,,,,,,,,,,254.47904310000013,255.48597770000197,255.48597770000197,255.63180519999878,256.1387317999979,256.1387317999979,256.28455859999667,ä,0.40037350000056904,correct,,256.6942496999982,256.7567446999965,255.48597770000197,,,,,,,,,,,,9,D,2023-12-07_17h08.19.103,gca_discrimination,2022.2.4,143.9014562929261,
positions.xlsx,stimuli.xlsx,test.xlsx,stimuli/Social2.png,stimuli/Social1.png,stimuli/Nonsocial2.png,stimuli/Nonsocial1.png,stimuli/Test1.png,stimuli/Test2.png,"(0.7, 0.5)",cs_minus_s,"(-0.7, 0.5)",cs_plus_s,0,0,0,0,,,,,0,45,45,18,,,,,,,,,,,,,,,256.7567446999965,257.7636491000012,257.7636491000012,257.9094879999975,258.4164224999986,258.4164224999986,258.56225090000225,l,0.3706094000081066,correct,,258.9441700000025,259.09003040000243,257.7636491000012,,,,,,,,,,,,9,D,2023-12-07_17h08.19.103,gca_discrimination,2022.2.4,143.9014562929261,
positions.xlsx,stimuli.xlsx,test.xlsx,stimuli/Social2.png,stimuli/Social1.png,stimuli/Nonsocial2.png,stimuli/Nonsocial1.png,stimuli/Test1.png,stimuli/Test2.png,"(0.7, -0.5)",cs_minus_s,"(-0.7, 0.5)",cs_plus_s,0,0,0,0,,,,,0,46,46,21,,,,,,,,,,,,,,,259.09003040000243,260.0968983999992,260.0968983999992,260.2427368999997,260.74961020000046,260.74961020000046,260.8954828999995,l,0.3981211999998777,correct,,261.305171699998,262.23571490000177,260.0968983999992,,,,,,,,,,,,9,D,2023-12-07_17h08.19.103,gca_discrimination,2022.2.4,143.9014562929261,
positions.xlsx,stimuli.xlsx,test.xlsx,stimuli/Social2.png,stimuli/Social1.png,stimuli/Nonsocial2.png,stimuli/Nonsocial1.png,stimuli/Test1.png,stimuli/Test2.png,"(-0.7, -0.5)",cs_plus_ns,"(-0.7, 0.5)",cs_minus_ns,0,0,0,0,,,,,0,47,47,27,,,,,,,,,,,,,,,262.23571490000177,263.2425848999992,263.2425848999992,263.3884091,263.8953216000009,263.8953216000009,264.0411720999982,l,0.3236116000043694,correct,,264.3744891999959,264.52037109999947,263.2425848999992,,,,,,,,,,,,9,D,2023-12-07_17h08.19.103,gca_discrimination,2022.2.4,143.9014562929261,
positions.xlsx,stimuli.xlsx,test.xlsx,stimuli/Social2.png,stimuli/Social1.png,stimuli/Nonsocial2.png,stimuli/Nonsocial1.png,stimuli/Test1.png,stimuli/Test2.png,"(-0.7, 0.5)",cs_minus_ns,"(0.7, 0.5)",cs_minus_ns,0,0,0,0,,,,,0,48,48,85,,,,,,,,,,,,,,,264.52037109999947,265.5272455000013,265.5272455000013,265.67307959999744,266.17998459999944,266.17998459999944,266.3258141999977,ä,0.51842420000321,correct,,266.8535849999971,267.8466085999971,265.5272455000013,,,,,,,,,,,,9,D,2023-12-07_17h08.19.103,gca_discrimination,2022.2.4,143.9014562929261,
positions.xlsx,stimuli.xlsx,test.xlsx,stimuli/Social2.png,stimuli/Social1.png,stimuli/Nonsocial2.png,stimuli/Nonsocial1.png,stimuli/Test1.png,stimuli/Test2.png,"(0.7, -0.5)",cs_plus_s,"(-0.7, -0.5)",cs_plus_s,0,0,0,0,,,,,0,49,49,58,,,,,,,,,,,,,,,267.8466085999971,268.8534651000009,268.8534651000009,268.99928550000186,269.5062734000021,269.5062734000021,269.65207499999815,ä,0.4489026000010199,correct,,270.11038169999665,270.1867656999966,268.8534651000009,,,,,,,,,,,,9,D,2023-12-07_17h08.19.103,gca_discrimination,2022.2.4,143.9014562929261,
positions.xlsx,stimuli.xlsx,test.xlsx,stimuli/Social2.png,stimuli/Social1.png,stimuli/Nonsocial2.png,stimuli/Nonsocial1.png,stimuli/Test1.png,stimuli/Test2.png,"(0.7, 0.5)",cs_plus_ns,"(-0.7, 0.5)",cs_plus_ns,0,0,0,0,,,,,0,50,50,78,,,,,,,,,,,,,,,270.1867656999966,271.1936645999958,271.1936645999958,271.3395122000002,271.8464993000016,271.8464993000016,271.9922461000024,ä,0.42862289999902714,correct,,272.4297198999993,272.6033516000025,271.1936645999958,,,,,,,,,,,,9,D,2023-12-07_17h08.19.103,gca_discrimination,2022.2.4,143.9014562929261,
positions.xlsx,stimuli.xlsx,test.xlsx,stimuli/Social2.png,stimuli/Social1.png,stimuli/Nonsocial2.png,stimuli/Nonsocial1.png,stimuli/Test1.png,stimuli/Test2.png,"(-0.7, 0.5)",cs_plus_ns,"(-0.7, -0.5)",cs_minus_ns,0,0,0,0,,,,,0,51,51,24,,,,,,,,,,,,,,,272.6033516000025,273.6102467000019,273.6102467000019,273.7560680999959,274.2629967999965,274.2629967999965,274.40883960000065,l,0.3557229000070947,correct,,274.77687680000236,275.742113399996,273.6102467000019,,,,,,,,,,,,9,D,2023-12-07_17h08.19.103,gca_discrimination,2022.2.4,143.9014562929261,
positions.xlsx,stimuli.xlsx,test.xlsx,stimuli/Social2.png,stimuli/Social1.png,stimuli/Nonsocial2.png,stimuli/Nonsocial1.png,stimuli/Test1.png,stimuli/Test2.png,"(0.7, -0.5)",cs_plus_s,"(0.7, 0.5)",cs_minus_s,0,0,0,0,,,,,0,52,52,11,,,,,,,,,,,,,,,275.742113399996,276.74902309999743,276.74902309999743,276.89485360000253,277.401790099997,277.401790099997,277.5475961999982,l,0.31374710000091,correct,,277.8739523999975,278.5753465000016,276.74902309999743,,,,,,,,,,,,9,D,2023-12-07_17h08.19.103,gca_discrimination,2022.2.4,143.9014562929261,
positions.xlsx,stimuli.xlsx,test.xlsx,stimuli/Social2.png,stimuli/Social1.png,stimuli/Nonsocial2.png,stimuli/Nonsocial1.png,stimuli/Test1.png,stimuli/Test2.png,"(0.7, -0.5)",cs_minus_ns,"(-0.7, 0.5)",cs_minus_ns,0,0,0,0,,,,,0,53,53,93,,,,,,,,,,,,,,,278.5753465000016,279.58226260000083,279.58226260000083,279.72806839999976,280.2350293999989,280.2350293999989,280.3807727999956,ä,0.4397694000072079,correct,,280.83218040000065,281.74187079999683,279.58226260000083,,,,,,,,,,,,9,D,2023-12-07_17h08.19.103,gca_discrimination,2022.2.4,143.9014562929261,
positions.xlsx,stimuli.xlsx,test.xlsx,stimuli/Social2.png,stimuli/Social1.png,stimuli/Nonsocial2.png,stimuli/Nonsocial1.png,stimuli/Test1.png,stimuli/Test2.png,"(0.7, -0.5)",cs_plus_ns,"(0.7, 0.5)",cs_minus_ns,0,0,0,0,,,,,0,54,54,35,,,,,,,,,,,,,,,281.74187079999683,282.7487756999981,282.7487756999981,282.89463270000124,283.40153499999724,283.40153499999724,283.5473828999966,l,0.3052573000022676,correct,,283.8598539000013,284.4223270000002,282.7487756999981,,,,,,,,,,,,9,D,2023-12-07_17h08.19.103,gca_discrimination,2022.2.4,143.9014562929261,
positions.xlsx,stimuli.xlsx,test.xlsx,stimuli/Social2.png,stimuli/Social1.png,stimuli/Nonsocial2.png,stimuli/Nonsocial1.png,stimuli/Test1.png,stimuli/Test2.png,"(-0.7, 0.5)",cs_plus_ns,"(0.7, 0.5)",cs_minus_ns,0,0,0,0,,,,,0,55,55,25,,,,,,,,,,,,,,,284.4223270000002,285.4292354999998,285.4292354999998,285.57505030000175,286.08198479999555,286.08198479999555,286.2278068000014,l,0.3606575000085286,correct,,286.59582840000076,286.922235500002,285.4292354999998,,,,,,,,,,,,9,D,2023-12-07_17h08.19.103,gca_discrimination,2022.2.4,143.9014562929261,
positions.xlsx,stimuli.xlsx,test.xlsx,stimuli/Social2.png,stimuli/Social1.png,stimuli/Nonsocial2.png,stimuli/Nonsocial1.png,stimuli/Test1.png,stimuli/Test2.png,"(0.7, -0.5)",cs_minus_ns,"(-0.7, -0.5)",cs_plus_ns,0,0,0,0,,,,,0,56,56,46,,,,,,,,,,,,,,,286.922235500002,287.92916900000273,287.92916900000273,288.0749521999969,288.5819208999965,288.5819208999965,288.7277071999997,l,0.4128028000050108,correct,,289.1513933000024,289.4846452999991,287.92916900000273,,,,,,,,,,,,9,D,2023-12-07_17h08.19.103,gca_discrimination,2022.2.4,143.9014562929261,
positions.xlsx,stimuli.xlsx,test.xlsx,stimuli/Social2.png,stimuli/Social1.png,stimuli/Nonsocial2.png,stimuli/Nonsocial1.png,stimuli/Test1.png,stimuli/Test2.png,"(0.7, 0.5)",cs_plus_s,"(-0.7, 0.5)",cs_plus_s,0,0,0,0,,,,,0,57,57,54,,,,,,,,,,,,,,,289.4846452999991,290.49151859999984,290.49151859999984,290.63737129999936,291.1442842999968,291.1442842999968,291.29007699999784,ä,0.5227020000020275,correct,,291.82485799999995,292.16506030000164,290.49151859999984,,,,,,,,,,,,9,D,2023-12-07_17h08.19.103,gca_discrimination,2022.2.4,143.9014562929261,
positions.xlsx,stimuli.xlsx,test.xlsx,stimuli/Social2.png,stimuli/Social1.png,stimuli/Nonsocial2.png,stimuli/Nonsocial1.png,stimuli/Test1.png,stimuli/Test2.png,"(-0.7, -0.5)",cs_minus_ns,"(-0.7, 0.5)",cs_plus_ns,0,0,0,0,,,,,0,58,58,39,,,,,,,,,,,,,,,292.16506030000164,293.1719955000008,293.1719955000008,293.3178282000008,293.8247397000014,293.8247397000014,293.970573300001,l,0.3943238000065321,correct,,294.3733035999976,294.6788665999993,293.1719955000008,,,,,,,,,,,,9,D,2023-12-07_17h08.19.103,gca_discrimination,2022.2.4,143.9014562929261,
positions.xlsx,stimuli.xlsx,test.xlsx,stimuli/Social2.png,stimuli/Social1.png,stimuli/Nonsocial2.png,stimuli/Nonsocial1.png,stimuli/Test1.png,stimuli/Test2.png,"(-0.7, -0.5)",cs_plus_ns,"(0.7, 0.5)",cs_plus_ns,0,0,0,0,,,,,0,59,59,76,,,,,,,,,,,,,,,294.6788665999993,295.68577820000064,295.68577820000064,295.8315672999961,296.3385339000015,296.3385339000015,296.48436380000203,ä,0.5925899000067147,correct,,297.08850379999785,297.2412589000014,295.68577820000064,,,,,,,,,,,,9,D,2023-12-07_17h08.19.103,gca_discrimination,2022.2.4,143.9014562929261,
positions.xlsx,stimuli.xlsx,test.xlsx,stimuli/Social2.png,stimuli/Social1.png,stimuli/Nonsocial2.png,stimuli/Nonsocial1.png,stimuli/Test1.png,stimuli/Test2.png,"(-0.7, -0.5)",cs_minus_s,"(0.7, -0.5)",cs_minus_s,0,0,0,0,,,,,0,60,60,65,,,,,,,,,,,,,,,297.2412589000014,298.2481742000018,298.2481742000018,298.3940003000025,298.90095609999844,298.90095609999844,299.04675809999753,ä,0.3578157000010833,correct,,299.41477389999636,299.74811279999994,298.2481742000018,,,,,,,,,,,,9,D,2023-12-07_17h08.19.103,gca_discrimination,2022.2.4,143.9014562929261,
positions.xlsx,stimuli.xlsx,test.xlsx,stimuli/Social2.png,stimuli/Social1.png,stimuli/Nonsocial2.png,stimuli/Nonsocial1.png,stimuli/Test1.png,stimuli/Test2.png,"(0.7, 0.5)",cs_minus_ns,"(0.7, -0.5)",cs_minus_ns,0,0,0,0,,,,,0,61,61,92,,,,,,,,,,,,,,,299.74811279999994,300.75501390000136,300.75501390000136,300.90081759999885,301.4077754000027,301.4077754000027,301.5535904999997,ä,0.6995441000035498,correct,,302.26190369999676,302.33825929999875,300.75501390000136,,,,,,,,,,,,9,D,2023-12-07_17h08.19.103,gca_discrimination,2022.2.4,143.9014562929261,
positions.xlsx,stimuli.xlsx,test.xlsx,stimuli/Social2.png,stimuli/Social1.png,stimuli/Nonsocial2.png,stimuli/Nonsocial1.png,stimuli/Test1.png,stimuli/Test2.png,"(0.7, -0.5)",cs_minus_s,"(-0.7, -0.5)",cs_minus_s,0,0,0,0,,,,,0,62,62,70,,,,,,,,,,,,,,,302.33825929999875,303.34519680000085,303.34519680000085,303.4910164999965,303.99795740000263,303.99795740000263,304.1437921999968,ä,0.429026600002544,correct,,304.58125579999614,305.06042129999696,303.34519680000085,,,,,,,,,,,,9,D,2023-12-07_17h08.19.103,gca_discrimination,2022.2.4,143.9014562929261,
positions.xlsx,stimuli.xlsx,test.xlsx,stimuli/Social2.png,stimuli/Social1.png,stimuli/Nonsocial2.png,stimuli/Nonsocial1.png,stimuli/Test1.png,stimuli/Test2.png,"(-0.7, -0.5)",cs_plus_ns,"(0.7, 0.5)",cs_minus_ns,0,0,0,0,,,,,0,63,63,28,,,,,,,,,,,,,,,305.06042129999696,306.0672749000005,306.0672749000005,306.2131662999964,306.72008130000177,306.72008130000177,306.8658443000022,l,0.29059410000627395,correct,,307.1645129000026,307.3728159999955,306.0672749000005,,,,,,,,,,,,9,D,2023-12-07_17h08.19.103,gca_discrimination,2022.2.4,143.9014562929261,
positions.xlsx,stimuli.xlsx,test.xlsx,stimuli/Social2.png,stimuli/Social1.png,stimuli/Nonsocial2.png,stimuli/Nonsocial1.png,stimuli/Test1.png,stimuli/Test2.png,"(-0.7, 0.5)",cs_minus_s,"(0.7, -0.5)",cs_plus_s,0,0,0,0,,,,,0,64,64,14,,,,,,,,,,,,,,,307.3728159999955,308.37974250000116,308.37974250000116,308.52554199999577,309.0325045999998,309.0325045999998,309.1782908999958,l,0.483061800005089,correct,,309.67132839999977,309.8727588999973,308.37974250000116,,,,,,,,,,,,9,D,2023-12-07_17h08.19.103,gca_discrimination,2022.2.4,143.9014562929261,
positions.xlsx,stimuli.xlsx,test.xlsx,stimuli/Social2.png,stimuli/Social1.png,stimuli/Nonsocial2.png,stimuli/Nonsocial1.png,stimuli/Test1.png,stimuli/Test2.png,"(0.7, -0.5)",cs_plus_ns,"(-0.7, 0.5)",cs_minus_ns,0,0,0,0,,,,,0,65,65,33,,,,,,,,,,,,,,,309.8727588999973,310.87962490000064,310.87962490000064,311.02543709999736,311.5323986000003,311.5323986000003,311.6782222999973,l,0.2876285000020289,correct,,311.97678489999817,312.7962527999989,310.87962490000064,,,,,,,,,,,,9,D,2023-12-07_17h08.19.103,gca_discrimination,2022.2.4,143.9014562929261,
positions.xlsx,stimuli.xlsx,test.xlsx,stimuli/Social2.png,stimuli/Social1.png,stimuli/Nonsocial2.png,stimuli/Nonsocial1.png,stimuli/Test1.png,stimuli/Test2.png,"(-0.7, 0.5)",cs_plus_ns,"(0.7, 0.5)",cs_plus_ns,0,0,0,0,,,,,0,66,66,73,,,,,,,,,,,,,,,312.7962527999989,313.8031164999993,313.8031164999993,313.94895639999595,314.45587420000084,314.45587420000084,314.6017042999956,ä,0.45163660000253003,correct,,315.06696139999985,315.4210815999977,313.8031164999993,,,,,,,,,,,,9,D,2023-12-07_17h08.19.103,gca_discrimination,2022.2.4,143.9014562929261,
positions.xlsx,stimuli.xlsx,test.xlsx,stimuli/Social2.png,stimuli/Social1.png,stimuli/Nonsocial2.png,stimuli/Nonsocial1.png,stimuli/Test1.png,stimuli/Test2.png,"(-0.7, 0.5)",cs_minus_ns,"(0.7, -0.5)",cs_plus_ns,0,0,0,0,,,,,0,67,67,38,,,,,,,,,,,,,,,315.4210815999977,316.42805280000175,316.42805280000175,316.57382759999746,317.0807683000021,317.0807683000021,317.22663369999646,l,0.5063784000085434,correct,,317.7404710999981,318.36546369999996,316.42805280000175,,,,,,,,,,,,9,D,2023-12-07_17h08.19.103,gca_discrimination,2022.2.4,143.9014562929261,
positions.xlsx,stimuli.xlsx,test.xlsx,stimuli/Social2.png,stimuli/Social1.png,stimuli/Nonsocial2.png,stimuli/Nonsocial1.png,stimuli/Test1.png,stimuli/Test2.png,"(0.7, 0.5)",cs_plus_s,"(-0.7, 0.5)",cs_minus_s,0,0,0,0,,,,,0,68,68,6,,,,,,,,,,,,,,,318.36546369999996,319.37237150000146,319.37237150000146,319.518167299997,320.02509460000147,320.02509460000147,320.17092189999676,l,0.31429160000698175,correct,,320.4973286999957,321.00419690000126,319.37237150000146,,,,,,,,,,,,9,D,2023-12-07_17h08.19.103,gca_discrimination,2022.2.4,143.9014562929261,
positions.xlsx,stimuli.xlsx,test.xlsx,stimuli/Social2.png,stimuli/Social1.png,stimuli/Nonsocial2.png,stimuli/Nonsocial1.png,stimuli/Test1.png,stimuli/Test2.png,"(-0.7, 0.5)",cs_plus_s,"(0.7, -0.5)",cs_minus_s,0,0,0,0,,,,,0,69,69,2,,,,,,,,,,,,,,,321.00419690000126,322.0111348999999,322.0111348999999,322.15694419999636,322.6638778999986,322.6638778999986,322.80972969999857,l,0.2832187000021804,correct,,323.1013584999964,323.19861149999633,322.0111348999999,,,,,,,,,,,,9,D,2023-12-07_17h08.19.103,gca_discrimination,2022.2.4,143.9014562929261,
positions.xlsx,stimuli.xlsx,test.xlsx,stimuli/Social2.png,stimuli/Social1.png,stimuli/Nonsocial2.png,stimuli/Nonsocial1.png,stimuli/Test1.png,stimuli/Test2.png,"(0.7, -0.5)",cs_plus_s,"(0.7, 0.5)",cs_plus_s,0,0,0,0,,,,,0,70,70,59,,,,,,,,,,,,,,,323.19861149999633,324.20548679999774,324.20548679999774,324.3513372000016,324.8582114000019,324.8582114000019,325.00406269999803,ä,0.47279870000784285,correct,,325.4901347999985,325.816539499996,324.20548679999774,,,,,,,,,,,,9,D,2023-12-07_17h08.19.103,gca_discrimination,2022.2.4,143.9014562929261,
positions.xlsx,stimuli.xlsx,test.xlsx,stimuli/Social2.png,stimuli/Social1.png,stimuli/Nonsocial2.png,stimuli/Nonsocial1.png,stimuli/Test1.png,stimuli/Test2.png,"(-0.7, 0.5)",cs_minus_ns,"(0.7, 0.5)",cs_plus_ns,0,0,0,0,,,,,0,71,71,37,,,,,,,,,,,,,,,325.816539499996,326.82341879999876,326.82341879999876,326.9692634000021,327.4761757000015,327.4761757000015,327.62202439999965,l,0.7753245000058087,correct,,328.4066975999958,328.8164304999955,326.82341879999876,,,,,,,,,,,,9,D,2023-12-07_17h08.19.103,gca_discrimination,2022.2.4,143.9014562929261,
positions.xlsx,stimuli.xlsx,test.xlsx,stimuli/Social2.png,stimuli/Social1.png,stimuli/Nonsocial2.png,stimuli/Nonsocial1.png,stimuli/Test1.png,stimuli/Test2.png,"(-0.7, 0.5)",cs_minus_ns,"(-0.7, -0.5)",cs_minus_ns,0,0,0,0,,,,,0,72,72,84,,,,,,,,,,,,,,,328.8164304999955,329.8233143999969,329.8233143999969,329.96915530000115,330.476078300002,330.476078300002,330.6218977000026,ä,0.5277652000077069,correct,,331.1566019999955,331.33017950000067,329.8233143999969,,,,,,,,,,,,9,D,2023-12-07_17h08.19.103,gca_discrimination,2022.2.4,143.9014562929261,
positions.xlsx,stimuli.xlsx,test.xlsx,stimuli/Social2.png,stimuli/Social1.png,stimuli/Nonsocial2.png,stimuli/Nonsocial1.png,stimuli/Test1.png,stimuli/Test2.png,"(-0.7, -0.5)",cs_plus_s,"(0.7, 0.5)",cs_plus_s,0,0,0,0,,,,,0,73,73,52,,,,,,,,,,,,,,,331.33017950000067,332.337094399998,332.337094399998,332.4829391000021,332.989888600001,332.989888600001,333.13569760000246,ä,0.43686710000474704,correct,,333.58012240000244,333.9620434000026,332.337094399998,,,,,,,,,,,,9,D,2023-12-07_17h08.19.103,gca_discrimination,2022.2.4,143.9014562929261,
positions.xlsx,stimuli.xlsx,test.xlsx,stimuli/Social2.png,stimuli/Social1.png,stimuli/Nonsocial2.png,stimuli/Nonsocial1.png,stimuli/Test1.png,stimuli/Test2.png,"(0.7, 0.5)",cs_minus_ns,"(-0.7, -0.5)",cs_minus_ns,0,0,0,0,,,,,0,74,74,91,,,,,,,,,,,,,,,333.9620434000026,334.9690050999998,334.9690050999998,335.114785400001,335.6216979000019,335.6216979000019,335.7675251999972,ä,0.44476130000839476,correct,,336.2258737000011,336.9480588000006,334.9690050999998,,,,,,,,,,,,9,D,2023-12-07_17h08.19.103,gca_discrimination,2022.2.4,143.9014562929261,
positions.xlsx,stimuli.xlsx,test.xlsx,stimuli/Social2.png,stimuli/Social1.png,stimuli/Nonsocial2.png,stimuli/Nonsocial1.png,stimuli/Test1.png,stimuli/Test2.png,"(-0.7, 0.5)",cs_minus_s,"(-0.7, -0.5)",cs_plus_s,0,0,0,0,,,,,0,75,75,12,,,,,,,,,,,,,,,336.9480588000006,337.95495279999886,337.95495279999886,338.1007761000001,338.60771229999955,338.60771229999955,338.7535452000011,l,0.5472673000040231,correct,,339.3090849,339.524350599997,337.95495279999886,,,,,,,,,,,,9,D,2023-12-07_17h08.19.103,gca_discrimination,2022.2.4,143.9014562929261,
positions.xlsx,stimuli.xlsx,test.xlsx,stimuli/Social2.png,stimuli/Social1.png,stimuli/Nonsocial2.png,stimuli/Nonsocial1.png,stimuli/Test1.png,stimuli/Test2.png,"(0.7, -0.5)",cs_minus_ns,"(-0.7, -0.5)",cs_minus_ns,0,0,0,0,,,,,0,76,76,94,,,,,,,,,,,,,,,339.524350599997,340.53129009999975,340.53129009999975,340.6770630999963,341.18398570000136,341.18398570000136,341.32979989999876,ä,0.39511700000730343,correct,,341.7325841999991,342.6978315000015,340.53129009999975,,,,,,,,,,,,9,D,2023-12-07_17h08.19.103,gca_discrimination,2022.2.4,143.9014562929261,
positions.xlsx,stimuli.xlsx,test.xlsx,stimuli/Social2.png,stimuli/Social1.png,stimuli/Nonsocial2.png,stimuli/Nonsocial1.png,stimuli/Test1.png,stimuli/Test2.png,"(0.7, -0.5)",cs_minus_s,"(0.7, 0.5)",cs_plus_s,0,0,0,0,,,,,0,77,77,23,,,,,,,,,,,,,,,342.6978315000015,343.7046826000005,343.7046826000005,343.8505570999987,344.3574862000023,344.3574862000023,344.5033162999971,l,0.4294000000008964,correct,,344.94079139999667,345.62130120000074,343.7046826000005,,,,,,,,,,,,9,D,2023-12-07_17h08.19.103,gca_discrimination,2022.2.4,143.9014562929261,
positions.xlsx,stimuli.xlsx,test.xlsx,stimuli/Social2.png,stimuli/Social1.png,stimuli/Nonsocial2.png,stimuli/Nonsocial1.png,stimuli/Test1.png,stimuli/Test2.png,"(-0.7, -0.5)",cs_minus_s,"(0.7, -0.5)",cs_plus_s,0,0,0,0,,,,,0,78,78,17,,,,,,,,,,,,,,,345.62130120000074,346.62823170000047,346.62823170000047,346.7740532000025,347.2809933999961,347.2809933999961,347.4268061999974,l,0.37805970000772504,correct,,347.815686599999,348.7600783000016,346.62823170000047,,,,,,,,,,,,9,D,2023-12-07_17h08.19.103,gca_discrimination,2022.2.4,143.9014562929261,
positions.xlsx,stimuli.xlsx,test.xlsx,stimuli/Social2.png,stimuli/Social1.png,stimuli/Nonsocial2.png,stimuli/Nonsocial1.png,stimuli/Test1.png,stimuli/Test2.png,"(-0.7, -0.5)",cs_minus_s,"(-0.7, 0.5)",cs_minus_s,0,0,0,0,,,,,0,79,79,63,,,,,,,,,,,,,,,348.7600783000016,349.7670092999979,349.7670092999979,349.91282720000163,350.41975470000034,350.41975470000034,350.5655956999981,l,0.3756695999982185,wrong,,350.9544392000025,351.1697445000027,349.7670092999979,,,,,,,,,,,,9,D,2023-12-07_17h08.19.103,gca_discrimination,2022.2.4,143.9014562929261,
positions.xlsx,stimuli.xlsx,test.xlsx,stimuli/Social2.png,stimuli/Social1.png,stimuli/Nonsocial2.png,stimuli/Nonsocial1.png,stimuli/Test1.png,stimuli/Test2.png,"(-0.7, 0.5)",cs_minus_s,"(0.7, 0.5)",cs_plus_s,0,0,0,0,,,,,0,80,80,13,,,,,,,,,,,,,,,351.1697445000027,352.17662220000057,352.17662220000057,352.32246229999873,352.8294298999972,352.8294298999972,352.97518699999637,l,0.525354100005643,correct,,353.50993220000237,354.35709069999575,352.17662220000057,,,,,,,,,,,,9,D,2023-12-07_17h08.19.103,gca_discrimination,2022.2.4,143.9014562929261,
positions.xlsx,stimuli.xlsx,test.xlsx,stimuli/Social2.png,stimuli/Social1.png,stimuli/Nonsocial2.png,stimuli/Nonsocial1.png,stimuli/Test1.png,stimuli/Test2.png,"(0.7, 0.5)",cs_plus_ns,"(-0.7, 0.5)",cs_minus_ns,0,0,0,0,,,,,0,81,81,30,,,,,,,,,,,,,,,354.35709069999575,355.3640028000009,355.3640028000009,355.509793899997,356.0167247999998,356.0167247999998,356.1625761999967,l,0.47381890000542626,correct,,356.64868739999656,356.8153156999979,355.3640028000009,,,,,,,,,,,,9,D,2023-12-07_17h08.19.103,gca_discrimination,2022.2.4,143.9014562929261,
positions.xlsx,stimuli.xlsx,test.xlsx,stimuli/Social2.png,stimuli/Social1.png,stimuli/Nonsocial2.png,stimuli/Nonsocial1.png,stimuli/Test1.png,stimuli/Test2.png,"(0.7, 0.5)",cs_minus_ns,"(-0.7, -0.5)",cs_plus_ns,0,0,0,0,,,,,0,82,82,43,,,,,,,,,,,,,,,356.8153156999979,357.82226210000226,357.82226210000226,357.9680528000026,358.475013999996,358.475013999996,358.6208392999979,l,0.31245620000117924,correct,,358.94025639999745,359.7110687000022,357.82226210000226,,,,,,,,,,,,9,D,2023-12-07_17h08.19.103,gca_discrimination,2022.2.4,143.9014562929261,
positions.xlsx,stimuli.xlsx,test.xlsx,stimuli/Social2.png,stimuli/Social1.png,stimuli/Nonsocial2.png,stimuli/Nonsocial1.png,stimuli/Test1.png,stimuli/Test2.png,"(0.7, -0.5)",cs_minus_ns,"(0.7, 0.5)",cs_plus_ns,0,0,0,0,,,,,0,83,83,47,,,,,,,,,,,,,,,359.7110687000022,360.7179554999966,360.7179554999966,360.86376569999993,361.3707135000004,361.3707135000004,361.51653310000256,l,0.6408436000056099,correct,,362.1693063999992,363.05120480000187,360.7179554999966,,,,,,,,,,,,9,D,2023-12-07_17h08.19.103,gca_discrimination,2022.2.4,143.9014562929261,
positions.xlsx,stimuli.xlsx,test.xlsx,stimuli/Social2.png,stimuli/Social1.png,stimuli/Nonsocial2.png,stimuli/Nonsocial1.png,stimuli/Test1.png,stimuli/Test2.png,"(-0.7, 0.5)",cs_plus_s,"(0.7, 0.5)",cs_plus_s,0,0,0,0,,,,,0,84,84,49,,,,,,,,,,,,,,,363.05120480000187,364.05808909999905,364.05808909999905,364.20393329999933,364.7108647999994,364.7108647999994,364.85667999999714,ä,0.4918510999996215,correct,,365.35668609999993,366.34274030000233,364.05808909999905,,,,,,,,,,,,9,D,2023-12-07_17h08.19.103,gca_discrimination,2022.2.4,143.9014562929261,
positions.xlsx,stimuli.xlsx,test.xlsx,stimuli/Social2.png,stimuli/Social1.png,stimuli/Nonsocial2.png,stimuli/Nonsocial1.png,stimuli/Test1.png,stimuli/Test2.png,"(0.7, 0.5)",cs_minus_s,"(-0.7, 0.5)",cs_minus_s,0,0,0,0,,,,,0,85,85,66,,,,,,,,,,,,,,,366.34274030000233,367.3496649000008,367.3496649000008,367.4954923999976,368.0024004000006,368.0024004000006,368.148242999996,ä,0.35265350000554463,correct,,368.5092850000001,369.0509737999964,367.3496649000008,,,,,,,,,,,,9,D,2023-12-07_17h08.19.103,gca_discrimination,2022.2.4,143.9014562929261,
positions.xlsx,stimuli.xlsx,test.xlsx,stimuli/Social2.png,stimuli/Social1.png,stimuli/Nonsocial2.png,stimuli/Nonsocial1.png,stimuli/Test1.png,stimuli/Test2.png,"(-0.7, 0.5)",cs_plus_ns,"(-0.7, -0.5)",cs_plus_ns,0,0,0,0,,,,,0,86,86,72,,,,,,,,,,,,,,,369.0509737999964,370.057891299999,370.057891299999,370.2037171999982,370.71063960000174,370.71063960000174,370.8564669999978,ä,0.4123111000080826,correct,,371.28003019999596,371.6480914999993,370.057891299999,,,,,,,,,,,,9,D,2023-12-07_17h08.19.103,gca_discrimination,2022.2.4,143.9014562929261,
positions.xlsx,stimuli.xlsx,test.xlsx,stimuli/Social2.png,stimuli/Social1.png,stimuli/Nonsocial2.png,stimuli/Nonsocial1.png,stimuli/Test1.png,stimuli/Test2.png,"(0.7, 0.5)",cs_plus_ns,"(0.7, -0.5)",cs_plus_ns,0,0,0,0,,,,,0,87,87,80,,,,,,,,,,,,,,,371.6480914999993,372.65500279999833,372.65500279999833,372.8008316999985,373.30773999999656,373.30773999999656,373.4535653999992,ä,0.3198839000033331,correct,,373.7868956999955,373.92575809999835,372.65500279999833,,,,,,,,,,,,9,D,2023-12-07_17h08.19.103,gca_discrimination,2022.2.4,143.9014562929261,
positions.xlsx,stimuli.xlsx,test.xlsx,stimuli/Social2.png,stimuli/Social1.png,stimuli/Nonsocial2.png,stimuli/Nonsocial1.png,stimuli/Test1.png,stimuli/Test2.png,"(0.7, 0.5)",cs_minus_ns,"(-0.7, 0.5)",cs_minus_ns,0,0,0,0,,,,,0,88,88,90,,,,,,,,,,,,,,,373.92575809999835,374.9326978999961,374.9326978999961,375.0785106999974,375.58545259999664,375.58545259999664,375.7312754000013,ä,0.3220348000031663,correct,,376.0645946000004,377.0298349000004,374.9326978999961,,,,,,,,,,,,9,D,2023-12-07_17h08.19.103,gca_discrimination,2022.2.4,143.9014562929261,
positions.xlsx,stimuli.xlsx,test.xlsx,stimuli/Social2.png,stimuli/Social1.png,stimuli/Nonsocial2.png,stimuli/Nonsocial1.png,stimuli/Test1.png,stimuli/Test2.png,"(-0.7, 0.5)",cs_minus_ns,"(-0.7, -0.5)",cs_plus_ns,0,0,0,0,,,,,0,89,89,36,,,,,,,,,,,,,,,377.0298349000004,378.03672160000133,378.03672160000133,378.182564499999,378.6894891999982,378.6894891999982,378.8353114999991,l,0.9058345000084955,correct,,379.75195109999913,380.0713934000014,378.03672160000133,,,,,,,,,,,,9,D,2023-12-07_17h08.19.103,gca_discrimination,2022.2.4,143.9014562929261,
positions.xlsx,stimuli.xlsx,test.xlsx,stimuli/Social2.png,stimuli/Social1.png,stimuli/Nonsocial2.png,stimuli/Nonsocial1.png,stimuli/Test1.png,stimuli/Test2.png,"(0.7, 0.5)",cs_minus_s,"(-0.7, -0.5)",cs_plus_s,0,0,0,0,,,,,0,90,90,19,,,,,,,,,,,,,,,380.0713934000014,381.07830190000095,381.07830190000095,381.22408229999564,381.73103139999876,381.73103139999876,381.8768306999991,l,0.44032670000888174,correct,,382.32822999999917,382.7796062999987,381.07830190000095,,,,,,,,,,,,9,D,2023-12-07_17h08.19.103,gca_discrimination,2022.2.4,143.9014562929261,
positions.xlsx,stimuli.xlsx,test.xlsx,stimuli/Social2.png,stimuli/Social1.png,stimuli/Nonsocial2.png,stimuli/Nonsocial1.png,stimuli/Test1.png,stimuli/Test2.png,"(0.7, 0.5)",cs_minus_s,"(0.7, -0.5)",cs_plus_s,0,0,0,0,,,,,0,91,91,20,,,,,,,,,,,,,,,382.7796062999987,383.78651929999614,383.78651929999614,383.9323376999964,384.43926790000114,384.43926790000114,384.5850857999976,l,0.41131400000449503,correct,,385.0087093999973,385.7655973000001,383.78651929999614,,,,,,,,,,,,9,D,2023-12-07_17h08.19.103,gca_discrimination,2022.2.4,143.9014562929261,
positions.xlsx,stimuli.xlsx,test.xlsx,stimuli/Social2.png,stimuli/Social1.png,stimuli/Nonsocial2.png,stimuli/Nonsocial1.png,stimuli/Test1.png,stimuli/Test2.png,"(0.7, 0.5)",cs_plus_ns,"(-0.7, -0.5)",cs_minus_ns,0,0,0,0,,,,,0,92,92,31,,,,,,,,,,,,,,,385.7655973000001,386.7725142999989,386.7725142999989,386.9183503000022,387.4252567000003,387.4252567000003,387.5710898999969,l,0.4341160000039963,correct,,388.0154834999994,388.07104329999856,386.7725142999989,,,,,,,,,,,,9,D,2023-12-07_17h08.19.103,gca_discrimination,2022.2.4,143.9014562929261,
positions.xlsx,stimuli.xlsx,test.xlsx,stimuli/Social2.png,stimuli/Social1.png,stimuli/Nonsocial2.png,stimuli/Nonsocial1.png,stimuli/Test1.png,stimuli/Test2.png,"(-0.7, 0.5)",cs_minus_s,"(0.7, -0.5)",cs_minus_s,0,0,0,0,,,,,0,93,93,62,,,,,,,,,,,,,,,388.07104329999856,389.0779285000026,389.0779285000026,389.22379389999696,389.7307218999995,389.7307218999995,389.8765473999956,ä,0.5366367000024184,correct,,390.4251430000004,390.8834502999962,389.0779285000026,,,,,,,,,,,,9,D,2023-12-07_17h08.19.103,gca_discrimination,2022.2.4,143.9014562929261,
positions.xlsx,stimuli.xlsx,test.xlsx,stimuli/Social2.png,stimuli/Social1.png,stimuli/Nonsocial2.png,stimuli/Nonsocial1.png,stimuli/Test1.png,stimuli/Test2.png,"(-0.7, 0.5)",cs_minus_ns,"(0.7, -0.5)",cs_minus_ns,0,0,0,0,,,,,0,94,94,86,,,,,,,,,,,,,,,390.8834502999962,391.89039310000226,391.89039310000226,392.0361574999988,392.5431301999997,392.5431301999997,392.68894210000144,l,1.0360223000025144,wrong,,393.73749739999766,393.86946219999663,391.89039310000226,,,,,,,,,,,,9,D,2023-12-07_17h08.19.103,gca_discrimination,2022.2.4,143.9014562929261,
positions.xlsx,stimuli.xlsx,test.xlsx,stimuli/Social2.png,stimuli/Social1.png,stimuli/Nonsocial2.png,stimuli/Nonsocial1.png,stimuli/Test1.png,stimuli/Test2.png,"(0.7, -0.5)",cs_plus_ns,"(-0.7, -0.5)",cs_plus_ns,0,0,0,0,,,,,0,95,95,82,,,,,,,,,,,,,,,393.86946219999663,394.876357000001,394.876357000001,395.02220600000146,395.5291318000018,395.5291318000018,395.6749356,ä,0.4822597000093083,correct,,396.1679562999998,396.93183970000246,394.876357000001,,,,,,,,,,,,9,D,2023-12-07_17h08.19.103,gca_discrimination,2022.2.4,143.9014562929261,
