posFile,stimFile,testFile,cs_plus_s,cs_minus_s,cs_plus_ns,cs_minus_ns,test1,test2,position1,trialtype,position2,comptype,blocks.thisRepN,blocks.thisTrialN,blocks.thisN,blocks.thisIndex,learning_trials.thisRepN,learning_trials.thisTrialN,learning_trials.thisN,learning_trials.thisIndex,trials.thisRepN,trials.thisTrialN,trials.thisN,trials.thisIndex,textStart.started,key.started,key.keys,correctness,key.rt,textStartTask.started,participant,group,date,expName,psychopyVersion,frameRate,
positions.xlsx,stimuli.xlsx,test.xlsx,stimuli/Social1.png,stimuli/Social2.png,stimuli/Nonsocial2.png,stimuli/Nonsocial1.png,stimuli/Test1.png,stimuli/Test2.png,"(-0.7, -0.5)",test2,"(-0.7, 0.5)",test2,0,0,0,0,0,0,0,2,,,,,16.018807100015692,50.66326880000997,None,no answer,,,43,C,2024-01-02_12h34.10.459,gca_discrimination,2022.2.4,143.92775989889472,
positions.xlsx,stimuli.xlsx,test.xlsx,stimuli/Social1.png,stimuli/Social2.png,stimuli/Nonsocial2.png,stimuli/Nonsocial1.png,stimuli/Test1.png,stimuli/Test2.png,"(0.7, -0.5)",test1,"(0.7, 0.5)",test1,0,0,0,0,0,1,1,10,,,,,,56.60750480007846,ä,correct,0.3268482000567019,,43,C,2024-01-02_12h34.10.459,gca_discrimination,2022.2.4,143.92775989889472,
positions.xlsx,stimuli.xlsx,test.xlsx,stimuli/Social1.png,stimuli/Social2.png,stimuli/Nonsocial2.png,stimuli/Nonsocial1.png,stimuli/Test1.png,stimuli/Test2.png,"(-0.7, -0.5)",test2,"(0.7, 0.5)",test2,0,0,0,0,0,2,2,7,,,,,,61.21147610002663,ä,correct,0.5471538999117911,,43,C,2024-01-02_12h34.10.459,gca_discrimination,2022.2.4,143.92775989889472,
positions.xlsx,stimuli.xlsx,test.xlsx,stimuli/Social1.png,stimuli/Social2.png,stimuli/Nonsocial2.png,stimuli/Nonsocial1.png,stimuli/Test1.png,stimuli/Test2.png,"(0.7, 0.5)",test2,"(-0.7, 0.5)",test1,0,0,0,0,0,3,3,13,,,,,,66.45431160007138,l,correct,0.47235950001049787,,43,C,2024-01-02_12h34.10.459,gca_discrimination,2022.2.4,143.92775989889472,
positions.xlsx,stimuli.xlsx,test.xlsx,stimuli/Social1.png,stimuli/Social2.png,stimuli/Nonsocial2.png,stimuli/Nonsocial1.png,stimuli/Test1.png,stimuli/Test2.png,"(-0.7, 0.5)",test2,"(0.7, -0.5)",test1,0,0,0,0,0,4,4,12,,,,,,71.18328400002792,l,correct,0.6233567000599578,,43,C,2024-01-02_12h34.10.459,gca_discrimination,2022.2.4,143.92775989889472,
positions.xlsx,stimuli.xlsx,test.xlsx,stimuli/Social1.png,stimuli/Social2.png,stimuli/Nonsocial2.png,stimuli/Nonsocial1.png,stimuli/Test1.png,stimuli/Test2.png,"(0.7, 0.5)",test1,"(0.7, -0.5)",test2,0,0,0,0,0,5,5,11,,,,,,75.99563230003696,l,correct,0.4679700001142919,,43,C,2024-01-02_12h34.10.459,gca_discrimination,2022.2.4,143.92775989889472,
positions.xlsx,stimuli.xlsx,test.xlsx,stimuli/Social1.png,stimuli/Social2.png,stimuli/Nonsocial2.png,stimuli/Nonsocial1.png,stimuli/Test1.png,stimuli/Test2.png,"(-0.7, 0.5)",test1,"(0.7, -0.5)",test1,0,0,0,0,0,6,6,5,,,,,,81.00237310002558,ä,correct,0.7493998999707401,,43,C,2024-01-02_12h34.10.459,gca_discrimination,2022.2.4,143.92775989889472,
positions.xlsx,stimuli.xlsx,test.xlsx,stimuli/Social1.png,stimuli/Social2.png,stimuli/Nonsocial2.png,stimuli/Nonsocial1.png,stimuli/Test1.png,stimuli/Test2.png,"(-0.7, -0.5)",test1,"(0.7, 0.5)",test2,0,0,0,0,0,7,7,8,,,,,,85.6340725000482,l,correct,0.4290211000479758,,43,C,2024-01-02_12h34.10.459,gca_discrimination,2022.2.4,143.92775989889472,
positions.xlsx,stimuli.xlsx,test.xlsx,stimuli/Social1.png,stimuli/Social2.png,stimuli/Nonsocial2.png,stimuli/Nonsocial1.png,stimuli/Test1.png,stimuli/Test2.png,"(-0.7, 0.5)",test2,"(-0.7, -0.5)",test2,0,0,0,0,0,8,8,1,,,,,,90.34227650007233,ä,correct,1.1446404000744224,,43,C,2024-01-02_12h34.10.459,gca_discrimination,2022.2.4,143.92775989889472,
positions.xlsx,stimuli.xlsx,test.xlsx,stimuli/Social1.png,stimuli/Social2.png,stimuli/Nonsocial2.png,stimuli/Nonsocial1.png,stimuli/Test1.png,stimuli/Test2.png,"(0.7, 0.5)",test2,"(0.7, -0.5)",test1,0,0,0,0,0,9,9,6,,,,,,95.64761059999,l,correct,0.48819730000104755,,43,C,2024-01-02_12h34.10.459,gca_discrimination,2022.2.4,143.92775989889472,
positions.xlsx,stimuli.xlsx,test.xlsx,stimuli/Social1.png,stimuli/Social2.png,stimuli/Nonsocial2.png,stimuli/Nonsocial1.png,stimuli/Test1.png,stimuli/Test2.png,"(0.7, -0.5)",test2,"(-0.7, 0.5)",test1,0,0,0,0,0,10,10,4,,,,,,100.35577790008392,l,correct,0.8833114999579266,,43,C,2024-01-02_12h34.10.459,gca_discrimination,2022.2.4,143.92775989889472,
positions.xlsx,stimuli.xlsx,test.xlsx,stimuli/Social1.png,stimuli/Social2.png,stimuli/Nonsocial2.png,stimuli/Nonsocial1.png,stimuli/Test1.png,stimuli/Test2.png,"(0.7, -0.5)",test1,"(0.7, 0.5)",test2,0,0,0,0,0,11,11,0,,,,,,105.82088270003442,l,correct,0.47407309990376234,,43,C,2024-01-02_12h34.10.459,gca_discrimination,2022.2.4,143.92775989889472,
positions.xlsx,stimuli.xlsx,test.xlsx,stimuli/Social1.png,stimuli/Social2.png,stimuli/Nonsocial2.png,stimuli/Nonsocial1.png,stimuli/Test1.png,stimuli/Test2.png,"(-0.7, 0.5)",test2,"(0.7, 0.5)",test1,0,0,0,0,0,12,12,3,,,,,,111.1053288000403,l,correct,0.7175958000589162,,43,C,2024-01-02_12h34.10.459,gca_discrimination,2022.2.4,143.92775989889472,
positions.xlsx,stimuli.xlsx,test.xlsx,stimuli/Social1.png,stimuli/Social2.png,stimuli/Nonsocial2.png,stimuli/Nonsocial1.png,stimuli/Test1.png,stimuli/Test2.png,"(-0.7, -0.5)",test2,"(0.7, -0.5)",test2,0,0,0,0,0,13,13,9,,,,,,116.09127780003473,ä,correct,0.7148524000076577,,43,C,2024-01-02_12h34.10.459,gca_discrimination,2022.2.4,143.92775989889472,
positions.xlsx,stimuli.xlsx,test.xlsx,stimuli/Social1.png,stimuli/Social2.png,stimuli/Nonsocial2.png,stimuli/Nonsocial1.png,stimuli/Test1.png,stimuli/Test2.png,"(0.7, 0.5)",cs_plus_s,"(0.7, -0.5)",cs_minus_s,0,0,0,0,,,,,0,0,0,8,,132.02119520003907,l,correct,1.2177416000049561,119.21614710008726,43,C,2024-01-02_12h34.10.459,gca_discrimination,2022.2.4,143.92775989889472,
positions.xlsx,stimuli.xlsx,test.xlsx,stimuli/Social1.png,stimuli/Social2.png,stimuli/Nonsocial2.png,stimuli/Nonsocial1.png,stimuli/Test1.png,stimuli/Test2.png,"(-0.7, -0.5)",cs_minus_ns,"(-0.7, 0.5)",cs_minus_ns,0,0,0,0,,,,,0,1,1,87,,135.93772430007812,ä,correct,0.5969159000087529,,43,C,2024-01-02_12h34.10.459,gca_discrimination,2022.2.4,143.92775989889472,
positions.xlsx,stimuli.xlsx,test.xlsx,stimuli/Social1.png,stimuli/Social2.png,stimuli/Nonsocial2.png,stimuli/Nonsocial1.png,stimuli/Test1.png,stimuli/Test2.png,"(-0.7, -0.5)",cs_plus_ns,"(0.7, 0.5)",cs_plus_ns,0,0,0,0,,,,,0,2,2,76,,138.7153980000876,ä,correct,0.9803333999589086,,43,C,2024-01-02_12h34.10.459,gca_discrimination,2022.2.4,143.92775989889472,
positions.xlsx,stimuli.xlsx,test.xlsx,stimuli/Social1.png,stimuli/Social2.png,stimuli/Nonsocial2.png,stimuli/Nonsocial1.png,stimuli/Test1.png,stimuli/Test2.png,"(-0.7, -0.5)",cs_plus_ns,"(0.7, -0.5)",cs_plus_ns,0,0,0,0,,,,,0,3,3,77,,142.0416345000267,ä,correct,0.4455988999688998,,43,C,2024-01-02_12h34.10.459,gca_discrimination,2022.2.4,143.92775989889472,
positions.xlsx,stimuli.xlsx,test.xlsx,stimuli/Social1.png,stimuli/Social2.png,stimuli/Nonsocial2.png,stimuli/Nonsocial1.png,stimuli/Test1.png,stimuli/Test2.png,"(0.7, -0.5)",cs_plus_ns,"(-0.7, 0.5)",cs_minus_ns,0,0,0,0,,,,,0,4,4,33,,144.34015210007783,l,correct,0.642474599997513,,43,C,2024-01-02_12h34.10.459,gca_discrimination,2022.2.4,143.92775989889472,
positions.xlsx,stimuli.xlsx,test.xlsx,stimuli/Social1.png,stimuli/Social2.png,stimuli/Nonsocial2.png,stimuli/Nonsocial1.png,stimuli/Test1.png,stimuli/Test2.png,"(-0.7, -0.5)",cs_plus_s,"(0.7, -0.5)",cs_minus_s,0,0,0,0,,,,,0,5,5,5,,147.04143810004462,l,correct,1.1014830000931397,,43,C,2024-01-02_12h34.10.459,gca_discrimination,2022.2.4,143.92775989889472,
positions.xlsx,stimuli.xlsx,test.xlsx,stimuli/Social1.png,stimuli/Social2.png,stimuli/Nonsocial2.png,stimuli/Nonsocial1.png,stimuli/Test1.png,stimuli/Test2.png,"(-0.7, 0.5)",cs_plus_ns,"(-0.7, -0.5)",cs_minus_ns,0,0,0,0,,,,,0,6,6,24,,150.27048639999703,l,correct,0.9280161999631673,,43,C,2024-01-02_12h34.10.459,gca_discrimination,2022.2.4,143.92775989889472,
positions.xlsx,stimuli.xlsx,test.xlsx,stimuli/Social1.png,stimuli/Social2.png,stimuli/Nonsocial2.png,stimuli/Nonsocial1.png,stimuli/Test1.png,stimuli/Test2.png,"(-0.7, 0.5)",cs_minus_ns,"(0.7, 0.5)",cs_minus_ns,0,0,0,0,,,,,0,7,7,85,,153.5342291999841,ä,correct,0.6646669000620022,,43,C,2024-01-02_12h34.10.459,gca_discrimination,2022.2.4,143.92775989889472,
positions.xlsx,stimuli.xlsx,test.xlsx,stimuli/Social1.png,stimuli/Social2.png,stimuli/Nonsocial2.png,stimuli/Nonsocial1.png,stimuli/Test1.png,stimuli/Test2.png,"(0.7, 0.5)",cs_minus_s,"(-0.7, 0.5)",cs_minus_s,0,0,0,0,,,,,0,8,8,66,,156.7007962000789,ä,correct,0.6256675000768155,,43,C,2024-01-02_12h34.10.459,gca_discrimination,2022.2.4,143.92775989889472,
positions.xlsx,stimuli.xlsx,test.xlsx,stimuli/Social1.png,stimuli/Social2.png,stimuli/Nonsocial2.png,stimuli/Nonsocial1.png,stimuli/Test1.png,stimuli/Test2.png,"(-0.7, -0.5)",cs_minus_s,"(0.7, -0.5)",cs_plus_s,0,0,0,0,,,,,0,9,9,17,,159.6103807000909,l,correct,0.5646114000119269,,43,C,2024-01-02_12h34.10.459,gca_discrimination,2022.2.4,143.92775989889472,
positions.xlsx,stimuli.xlsx,test.xlsx,stimuli/Social1.png,stimuli/Social2.png,stimuli/Nonsocial2.png,stimuli/Nonsocial1.png,stimuli/Test1.png,stimuli/Test2.png,"(0.7, -0.5)",cs_plus_ns,"(-0.7, 0.5)",cs_plus_ns,0,0,0,0,,,,,0,10,10,81,,162.9436062000459,ä,correct,0.8071283000754192,,43,C,2024-01-02_12h34.10.459,gca_discrimination,2022.2.4,143.92775989889472,
positions.xlsx,stimuli.xlsx,test.xlsx,stimuli/Social1.png,stimuli/Social2.png,stimuli/Nonsocial2.png,stimuli/Nonsocial1.png,stimuli/Test1.png,stimuli/Test2.png,"(0.7, 0.5)",cs_minus_ns,"(-0.7, -0.5)",cs_minus_ns,0,0,0,0,,,,,0,11,11,91,,165.88099370000418,ä,correct,0.9418325999286026,,43,C,2024-01-02_12h34.10.459,gca_discrimination,2022.2.4,143.92775989889472,
positions.xlsx,stimuli.xlsx,test.xlsx,stimuli/Social1.png,stimuli/Social2.png,stimuli/Nonsocial2.png,stimuli/Nonsocial1.png,stimuli/Test1.png,stimuli/Test2.png,"(-0.7, -0.5)",cs_minus_s,"(0.7, 0.5)",cs_minus_s,0,0,0,0,,,,,0,12,12,64,,169.60996839997824,ä,correct,0.7969445999478921,,43,C,2024-01-02_12h34.10.459,gca_discrimination,2022.2.4,143.92775989889472,
positions.xlsx,stimuli.xlsx,test.xlsx,stimuli/Social1.png,stimuli/Social2.png,stimuli/Nonsocial2.png,stimuli/Nonsocial1.png,stimuli/Test1.png,stimuli/Test2.png,"(-0.7, 0.5)",cs_minus_ns,"(0.7, -0.5)",cs_minus_ns,0,0,0,0,,,,,0,13,13,86,,173.1168103000382,ä,correct,0.6752828999888152,,43,C,2024-01-02_12h34.10.459,gca_discrimination,2022.2.4,143.92775989889472,
positions.xlsx,stimuli.xlsx,test.xlsx,stimuli/Social1.png,stimuli/Social2.png,stimuli/Nonsocial2.png,stimuli/Nonsocial1.png,stimuli/Test1.png,stimuli/Test2.png,"(0.7, 0.5)",cs_minus_ns,"(-0.7, -0.5)",cs_plus_ns,0,0,0,0,,,,,0,14,14,43,,176.276441300055,l,correct,0.7700767000205815,,43,C,2024-01-02_12h34.10.459,gca_discrimination,2022.2.4,143.92775989889472,
positions.xlsx,stimuli.xlsx,test.xlsx,stimuli/Social1.png,stimuli/Social2.png,stimuli/Nonsocial2.png,stimuli/Nonsocial1.png,stimuli/Test1.png,stimuli/Test2.png,"(-0.7, 0.5)",cs_plus_ns,"(0.7, 0.5)",cs_plus_ns,0,0,0,0,,,,,0,15,15,73,,179.2763081000885,ä,correct,0.9783121000509709,,43,C,2024-01-02_12h34.10.459,gca_discrimination,2022.2.4,143.92775989889472,
positions.xlsx,stimuli.xlsx,test.xlsx,stimuli/Social1.png,stimuli/Social2.png,stimuli/Nonsocial2.png,stimuli/Nonsocial1.png,stimuli/Test1.png,stimuli/Test2.png,"(-0.7, 0.5)",cs_minus_s,"(0.7, -0.5)",cs_plus_s,0,0,0,0,,,,,0,16,16,14,,182.15119780006353,l,correct,0.7595453000394627,,43,C,2024-01-02_12h34.10.459,gca_discrimination,2022.2.4,143.92775989889472,
positions.xlsx,stimuli.xlsx,test.xlsx,stimuli/Social1.png,stimuli/Social2.png,stimuli/Nonsocial2.png,stimuli/Nonsocial1.png,stimuli/Test1.png,stimuli/Test2.png,"(-0.7, -0.5)",cs_plus_s,"(0.7, -0.5)",cs_plus_s,0,0,0,0,,,,,0,17,17,53,,184.97749660001136,ä,correct,0.6370830999221653,,43,C,2024-01-02_12h34.10.459,gca_discrimination,2022.2.4,143.92775989889472,
positions.xlsx,stimuli.xlsx,test.xlsx,stimuli/Social1.png,stimuli/Social2.png,stimuli/Nonsocial2.png,stimuli/Nonsocial1.png,stimuli/Test1.png,stimuli/Test2.png,"(-0.7, -0.5)",cs_plus_s,"(-0.7, 0.5)",cs_minus_s,0,0,0,0,,,,,0,18,18,3,,187.8245770999929,l,correct,0.7906140999402851,,43,C,2024-01-02_12h34.10.459,gca_discrimination,2022.2.4,143.92775989889472,
positions.xlsx,stimuli.xlsx,test.xlsx,stimuli/Social1.png,stimuli/Social2.png,stimuli/Nonsocial2.png,stimuli/Nonsocial1.png,stimuli/Test1.png,stimuli/Test2.png,"(-0.7, 0.5)",cs_plus_s,"(0.7, 0.5)",cs_plus_s,0,0,0,0,,,,,0,19,19,49,,190.94946540007368,ä,correct,0.6889768000692129,,43,C,2024-01-02_12h34.10.459,gca_discrimination,2022.2.4,143.92775989889472,
positions.xlsx,stimuli.xlsx,test.xlsx,stimuli/Social1.png,stimuli/Social2.png,stimuli/Nonsocial2.png,stimuli/Nonsocial1.png,stimuli/Test1.png,stimuli/Test2.png,"(0.7, -0.5)",cs_minus_ns,"(0.7, 0.5)",cs_minus_ns,0,0,0,0,,,,,0,20,20,95,,193.99103320005815,ä,correct,1.2958532000193372,,43,C,2024-01-02_12h34.10.459,gca_discrimination,2022.2.4,143.92775989889472,
positions.xlsx,stimuli.xlsx,test.xlsx,stimuli/Social1.png,stimuli/Social2.png,stimuli/Nonsocial2.png,stimuli/Nonsocial1.png,stimuli/Test1.png,stimuli/Test2.png,"(0.7, 0.5)",cs_plus_s,"(0.7, -0.5)",cs_plus_s,0,0,0,0,,,,,0,21,21,56,,198.0880844000494,ä,correct,0.5501914999913424,,43,C,2024-01-02_12h34.10.459,gca_discrimination,2022.2.4,143.92775989889472,
positions.xlsx,stimuli.xlsx,test.xlsx,stimuli/Social1.png,stimuli/Social2.png,stimuli/Nonsocial2.png,stimuli/Nonsocial1.png,stimuli/Test1.png,stimuli/Test2.png,"(-0.7, 0.5)",cs_minus_s,"(-0.7, -0.5)",cs_minus_s,0,0,0,0,,,,,0,22,22,60,,200.58101080008782,ä,correct,0.5390449999831617,,43,C,2024-01-02_12h34.10.459,gca_discrimination,2022.2.4,143.92775989889472,
positions.xlsx,stimuli.xlsx,test.xlsx,stimuli/Social1.png,stimuli/Social2.png,stimuli/Nonsocial2.png,stimuli/Nonsocial1.png,stimuli/Test1.png,stimuli/Test2.png,"(0.7, -0.5)",cs_plus_s,"(-0.7, -0.5)",cs_minus_s,0,0,0,0,,,,,0,23,23,10,,203.1503526000306,l,correct,0.6089491999009624,,43,C,2024-01-02_12h34.10.459,gca_discrimination,2022.2.4,143.92775989889472,
positions.xlsx,stimuli.xlsx,test.xlsx,stimuli/Social1.png,stimuli/Social2.png,stimuli/Nonsocial2.png,stimuli/Nonsocial1.png,stimuli/Test1.png,stimuli/Test2.png,"(-0.7, 0.5)",cs_minus_s,"(0.7, 0.5)",cs_plus_s,0,0,0,0,,,,,0,24,24,13,,205.67804310005158,l,correct,0.8090044000418857,,43,C,2024-01-02_12h34.10.459,gca_discrimination,2022.2.4,143.92775989889472,
positions.xlsx,stimuli.xlsx,test.xlsx,stimuli/Social1.png,stimuli/Social2.png,stimuli/Nonsocial2.png,stimuli/Nonsocial1.png,stimuli/Test1.png,stimuli/Test2.png,"(0.7, -0.5)",cs_plus_s,"(-0.7, 0.5)",cs_minus_s,0,0,0,0,,,,,0,25,25,9,,209.09460920002311,l,correct,0.887547199963592,,43,C,2024-01-02_12h34.10.459,gca_discrimination,2022.2.4,143.92775989889472,
positions.xlsx,stimuli.xlsx,test.xlsx,stimuli/Social1.png,stimuli/Social2.png,stimuli/Nonsocial2.png,stimuli/Nonsocial1.png,stimuli/Test1.png,stimuli/Test2.png,"(-0.7, -0.5)",cs_plus_s,"(-0.7, 0.5)",cs_plus_s,0,0,0,0,,,,,0,26,26,51,,212.26807640003972,ä,correct,0.5389355999650434,,43,C,2024-01-02_12h34.10.459,gca_discrimination,2022.2.4,143.92775989889472,
positions.xlsx,stimuli.xlsx,test.xlsx,stimuli/Social1.png,stimuli/Social2.png,stimuli/Nonsocial2.png,stimuli/Nonsocial1.png,stimuli/Test1.png,stimuli/Test2.png,"(-0.7, 0.5)",cs_minus_s,"(0.7, -0.5)",cs_minus_s,0,0,0,0,,,,,0,27,27,62,,214.95547440007795,ä,correct,0.738861000048928,,43,C,2024-01-02_12h34.10.459,gca_discrimination,2022.2.4,143.92775989889472,
positions.xlsx,stimuli.xlsx,test.xlsx,stimuli/Social1.png,stimuli/Social2.png,stimuli/Nonsocial2.png,stimuli/Nonsocial1.png,stimuli/Test1.png,stimuli/Test2.png,"(0.7, 0.5)",cs_plus_s,"(-0.7, -0.5)",cs_minus_s,0,0,0,0,,,,,0,28,28,7,,218.04564280004706,l,correct,0.6490524000255391,,43,C,2024-01-02_12h34.10.459,gca_discrimination,2022.2.4,143.92775989889472,
positions.xlsx,stimuli.xlsx,test.xlsx,stimuli/Social1.png,stimuli/Social2.png,stimuli/Nonsocial2.png,stimuli/Nonsocial1.png,stimuli/Test1.png,stimuli/Test2.png,"(0.7, -0.5)",cs_plus_s,"(0.7, 0.5)",cs_minus_s,0,0,0,0,,,,,0,29,29,11,,221.08719560003374,l,correct,0.5758662999141961,,43,C,2024-01-02_12h34.10.459,gca_discrimination,2022.2.4,143.92775989889472,
positions.xlsx,stimuli.xlsx,test.xlsx,stimuli/Social1.png,stimuli/Social2.png,stimuli/Nonsocial2.png,stimuli/Nonsocial1.png,stimuli/Test1.png,stimuli/Test2.png,"(0.7, -0.5)",cs_minus_s,"(-0.7, -0.5)",cs_minus_s,0,0,0,0,,,,,0,30,30,70,,223.7884452000726,ä,correct,0.41056079999543726,,43,C,2024-01-02_12h34.10.459,gca_discrimination,2022.2.4,143.92775989889472,
positions.xlsx,stimuli.xlsx,test.xlsx,stimuli/Social1.png,stimuli/Social2.png,stimuli/Nonsocial2.png,stimuli/Nonsocial1.png,stimuli/Test1.png,stimuli/Test2.png,"(0.7, -0.5)",cs_plus_s,"(-0.7, 0.5)",cs_plus_s,0,0,0,0,,,,,0,31,31,57,,226.10088859999087,ä,correct,0.47361019998788834,,43,C,2024-01-02_12h34.10.459,gca_discrimination,2022.2.4,143.92775989889472,
positions.xlsx,stimuli.xlsx,test.xlsx,stimuli/Social1.png,stimuli/Social2.png,stimuli/Nonsocial2.png,stimuli/Nonsocial1.png,stimuli/Test1.png,stimuli/Test2.png,"(-0.7, 0.5)",cs_minus_s,"(-0.7, -0.5)",cs_plus_s,0,0,0,0,,,,,0,32,32,12,,228.61467360006645,l,correct,0.5438774999929592,,43,C,2024-01-02_12h34.10.459,gca_discrimination,2022.2.4,143.92775989889472,
positions.xlsx,stimuli.xlsx,test.xlsx,stimuli/Social1.png,stimuli/Social2.png,stimuli/Nonsocial2.png,stimuli/Nonsocial1.png,stimuli/Test1.png,stimuli/Test2.png,"(-0.7, 0.5)",cs_minus_ns,"(0.7, -0.5)",cs_plus_ns,0,0,0,0,,,,,0,33,33,38,,231.01733810000587,ä,wrong,0.5974372999044135,,43,C,2024-01-02_12h34.10.459,gca_discrimination,2022.2.4,143.92775989889472,
positions.xlsx,stimuli.xlsx,test.xlsx,stimuli/Social1.png,stimuli/Social2.png,stimuli/Nonsocial2.png,stimuli/Nonsocial1.png,stimuli/Test1.png,stimuli/Test2.png,"(-0.7, 0.5)",cs_plus_s,"(0.7, 0.5)",cs_minus_s,0,0,0,0,,,,,0,34,34,1,,234.1839490000857,l,correct,0.8228623999748379,,43,C,2024-01-02_12h34.10.459,gca_discrimination,2022.2.4,143.92775989889472,
positions.xlsx,stimuli.xlsx,test.xlsx,stimuli/Social1.png,stimuli/Social2.png,stimuli/Nonsocial2.png,stimuli/Nonsocial1.png,stimuli/Test1.png,stimuli/Test2.png,"(-0.7, -0.5)",cs_minus_s,"(-0.7, 0.5)",cs_plus_s,0,0,0,0,,,,,0,35,35,15,,237.7323955000611,l,correct,0.6826081000035629,,43,C,2024-01-02_12h34.10.459,gca_discrimination,2022.2.4,143.92775989889472,
positions.xlsx,stimuli.xlsx,test.xlsx,stimuli/Social1.png,stimuli/Social2.png,stimuli/Nonsocial2.png,stimuli/Nonsocial1.png,stimuli/Test1.png,stimuli/Test2.png,"(-0.7, 0.5)",cs_plus_ns,"(0.7, 0.5)",cs_minus_ns,0,0,0,0,,,,,0,36,36,25,,240.5725624000188,l,correct,0.6345631999429315,,43,C,2024-01-02_12h34.10.459,gca_discrimination,2022.2.4,143.92775989889472,
positions.xlsx,stimuli.xlsx,test.xlsx,stimuli/Social1.png,stimuli/Social2.png,stimuli/Nonsocial2.png,stimuli/Nonsocial1.png,stimuli/Test1.png,stimuli/Test2.png,"(-0.7, -0.5)",cs_plus_ns,"(0.7, -0.5)",cs_minus_ns,0,0,0,0,,,,,0,37,37,29,,243.08639670000412,l,correct,0.5359661999391392,,43,C,2024-01-02_12h34.10.459,gca_discrimination,2022.2.4,143.92775989889472,
positions.xlsx,stimuli.xlsx,test.xlsx,stimuli/Social1.png,stimuli/Social2.png,stimuli/Nonsocial2.png,stimuli/Nonsocial1.png,stimuli/Test1.png,stimuli/Test2.png,"(0.7, 0.5)",cs_plus_ns,"(-0.7, -0.5)",cs_plus_ns,0,0,0,0,,,,,0,38,38,79,,246.412591899978,ä,correct,0.5216740999603644,,43,C,2024-01-02_12h34.10.459,gca_discrimination,2022.2.4,143.92775989889472,
positions.xlsx,stimuli.xlsx,test.xlsx,stimuli/Social1.png,stimuli/Social2.png,stimuli/Nonsocial2.png,stimuli/Nonsocial1.png,stimuli/Test1.png,stimuli/Test2.png,"(0.7, -0.5)",cs_minus_ns,"(-0.7, 0.5)",cs_minus_ns,0,0,0,0,,,,,0,39,39,93,,249.65552590007428,ä,correct,1.1353656999999657,,43,C,2024-01-02_12h34.10.459,gca_discrimination,2022.2.4,143.92775989889472,
positions.xlsx,stimuli.xlsx,test.xlsx,stimuli/Social1.png,stimuli/Social2.png,stimuli/Nonsocial2.png,stimuli/Nonsocial1.png,stimuli/Test1.png,stimuli/Test2.png,"(-0.7, 0.5)",cs_minus_ns,"(-0.7, -0.5)",cs_minus_ns,0,0,0,0,,,,,0,40,40,84,,252.8567611000035,ä,correct,0.39756720000877976,,43,C,2024-01-02_12h34.10.459,gca_discrimination,2022.2.4,143.92775989889472,
positions.xlsx,stimuli.xlsx,test.xlsx,stimuli/Social1.png,stimuli/Social2.png,stimuli/Nonsocial2.png,stimuli/Nonsocial1.png,stimuli/Test1.png,stimuli/Test2.png,"(-0.7, 0.5)",cs_plus_s,"(-0.7, -0.5)",cs_plus_s,0,0,0,0,,,,,0,41,41,48,,255.34975689998828,ä,correct,0.41001069999765605,,43,C,2024-01-02_12h34.10.459,gca_discrimination,2022.2.4,143.92775989889472,
positions.xlsx,stimuli.xlsx,test.xlsx,stimuli/Social1.png,stimuli/Social2.png,stimuli/Nonsocial2.png,stimuli/Nonsocial1.png,stimuli/Test1.png,stimuli/Test2.png,"(0.7, 0.5)",cs_plus_ns,"(0.7, -0.5)",cs_minus_ns,0,0,0,0,,,,,0,42,42,32,,258.10659870004747,l,correct,0.6054479000158608,,43,C,2024-01-02_12h34.10.459,gca_discrimination,2022.2.4,143.92775989889472,
positions.xlsx,stimuli.xlsx,test.xlsx,stimuli/Social1.png,stimuli/Social2.png,stimuli/Nonsocial2.png,stimuli/Nonsocial1.png,stimuli/Test1.png,stimuli/Test2.png,"(0.7, 0.5)",cs_plus_s,"(-0.7, -0.5)",cs_plus_s,0,0,0,0,,,,,0,43,43,55,,260.75928270001896,ä,correct,0.895488900016062,,43,C,2024-01-02_12h34.10.459,gca_discrimination,2022.2.4,143.92775989889472,
positions.xlsx,stimuli.xlsx,test.xlsx,stimuli/Social1.png,stimuli/Social2.png,stimuli/Nonsocial2.png,stimuli/Nonsocial1.png,stimuli/Test1.png,stimuli/Test2.png,"(0.7, -0.5)",cs_minus_s,"(0.7, 0.5)",cs_minus_s,0,0,0,0,,,,,0,44,44,71,,263.6063792000059,ä,correct,0.5929861000040546,,43,C,2024-01-02_12h34.10.459,gca_discrimination,2022.2.4,143.92775989889472,
positions.xlsx,stimuli.xlsx,test.xlsx,stimuli/Social1.png,stimuli/Social2.png,stimuli/Nonsocial2.png,stimuli/Nonsocial1.png,stimuli/Test1.png,stimuli/Test2.png,"(-0.7, -0.5)",cs_minus_s,"(0.7, 0.5)",cs_plus_s,0,0,0,0,,,,,0,45,45,16,,266.7728702999884,l,correct,0.5222322000190616,,43,C,2024-01-02_12h34.10.459,gca_discrimination,2022.2.4,143.92775989889472,
positions.xlsx,stimuli.xlsx,test.xlsx,stimuli/Social1.png,stimuli/Social2.png,stimuli/Nonsocial2.png,stimuli/Nonsocial1.png,stimuli/Test1.png,stimuli/Test2.png,"(-0.7, -0.5)",cs_minus_ns,"(-0.7, 0.5)",cs_plus_ns,0,0,0,0,,,,,0,46,46,39,,269.3283710000105,l,correct,0.9665303999790922,,43,C,2024-01-02_12h34.10.459,gca_discrimination,2022.2.4,143.92775989889472,
positions.xlsx,stimuli.xlsx,test.xlsx,stimuli/Social1.png,stimuli/Social2.png,stimuli/Nonsocial2.png,stimuli/Nonsocial1.png,stimuli/Test1.png,stimuli/Test2.png,"(-0.7, -0.5)",cs_minus_ns,"(0.7, -0.5)",cs_plus_ns,0,0,0,0,,,,,0,47,47,41,,272.5018605000805,l,correct,0.4973161000525579,,43,C,2024-01-02_12h34.10.459,gca_discrimination,2022.2.4,143.92775989889472,
positions.xlsx,stimuli.xlsx,test.xlsx,stimuli/Social1.png,stimuli/Social2.png,stimuli/Nonsocial2.png,stimuli/Nonsocial1.png,stimuli/Test1.png,stimuli/Test2.png,"(0.7, -0.5)",cs_plus_s,"(-0.7, -0.5)",cs_plus_s,0,0,0,0,,,,,0,48,48,58,,274.9392588000046,ä,correct,0.5083728999597952,,43,C,2024-01-02_12h34.10.459,gca_discrimination,2022.2.4,143.92775989889472,
positions.xlsx,stimuli.xlsx,test.xlsx,stimuli/Social1.png,stimuli/Social2.png,stimuli/Nonsocial2.png,stimuli/Nonsocial1.png,stimuli/Test1.png,stimuli/Test2.png,"(0.7, 0.5)",cs_minus_s,"(-0.7, -0.5)",cs_minus_s,0,0,0,0,,,,,0,49,49,67,,278.112749800086,ä,correct,0.4941139000002295,,43,C,2024-01-02_12h34.10.459,gca_discrimination,2022.2.4,143.92775989889472,
positions.xlsx,stimuli.xlsx,test.xlsx,stimuli/Social1.png,stimuli/Social2.png,stimuli/Nonsocial2.png,stimuli/Nonsocial1.png,stimuli/Test1.png,stimuli/Test2.png,"(-0.7, 0.5)",cs_plus_s,"(-0.7, -0.5)",cs_minus_s,0,0,0,0,,,,,0,50,50,0,,280.7029778000433,l,correct,1.2406966000562534,,43,C,2024-01-02_12h34.10.459,gca_discrimination,2022.2.4,143.92775989889472,
positions.xlsx,stimuli.xlsx,test.xlsx,stimuli/Social1.png,stimuli/Social2.png,stimuli/Nonsocial2.png,stimuli/Nonsocial1.png,stimuli/Test1.png,stimuli/Test2.png,"(0.7, -0.5)",cs_plus_ns,"(-0.7, -0.5)",cs_minus_ns,0,0,0,0,,,,,0,51,51,34,,284.7027763000224,l,correct,0.5762091999640688,,43,C,2024-01-02_12h34.10.459,gca_discrimination,2022.2.4,143.92775989889472,
positions.xlsx,stimuli.xlsx,test.xlsx,stimuli/Social1.png,stimuli/Social2.png,stimuli/Nonsocial2.png,stimuli/Nonsocial1.png,stimuli/Test1.png,stimuli/Test2.png,"(-0.7, 0.5)",cs_minus_ns,"(0.7, 0.5)",cs_plus_ns,0,0,0,0,,,,,0,52,52,37,,287.8276741000591,l,correct,0.5234348000958562,,43,C,2024-01-02_12h34.10.459,gca_discrimination,2022.2.4,143.92775989889472,
positions.xlsx,stimuli.xlsx,test.xlsx,stimuli/Social1.png,stimuli/Social2.png,stimuli/Nonsocial2.png,stimuli/Nonsocial1.png,stimuli/Test1.png,stimuli/Test2.png,"(0.7, 0.5)",cs_minus_ns,"(0.7, -0.5)",cs_plus_ns,0,0,0,0,,,,,0,53,53,44,,291.1261351000285,l,correct,0.4176388999912888,,43,C,2024-01-02_12h34.10.459,gca_discrimination,2022.2.4,143.92775989889472,
positions.xlsx,stimuli.xlsx,test.xlsx,stimuli/Social1.png,stimuli/Social2.png,stimuli/Nonsocial2.png,stimuli/Nonsocial1.png,stimuli/Test1.png,stimuli/Test2.png,"(-0.7, -0.5)",cs_minus_ns,"(0.7, 0.5)",cs_plus_ns,0,0,0,0,,,,,0,54,54,40,,293.9593415000709,l,correct,0.4717418000800535,,43,C,2024-01-02_12h34.10.459,gca_discrimination,2022.2.4,143.92775989889472,
positions.xlsx,stimuli.xlsx,test.xlsx,stimuli/Social1.png,stimuli/Social2.png,stimuli/Nonsocial2.png,stimuli/Nonsocial1.png,stimuli/Test1.png,stimuli/Test2.png,"(0.7, 0.5)",cs_minus_s,"(-0.7, 0.5)",cs_plus_s,0,0,0,0,,,,,0,55,55,18,,296.4662145000184,l,correct,0.43692589993588626,,43,C,2024-01-02_12h34.10.459,gca_discrimination,2022.2.4,143.92775989889472,
positions.xlsx,stimuli.xlsx,test.xlsx,stimuli/Social1.png,stimuli/Social2.png,stimuli/Nonsocial2.png,stimuli/Nonsocial1.png,stimuli/Test1.png,stimuli/Test2.png,"(0.7, 0.5)",cs_plus_s,"(-0.7, 0.5)",cs_plus_s,0,0,0,0,,,,,0,56,56,54,,299.41744780004956,ä,correct,0.5333631000248715,,43,C,2024-01-02_12h34.10.459,gca_discrimination,2022.2.4,143.92775989889472,
positions.xlsx,stimuli.xlsx,test.xlsx,stimuli/Social1.png,stimuli/Social2.png,stimuli/Nonsocial2.png,stimuli/Nonsocial1.png,stimuli/Test1.png,stimuli/Test2.png,"(-0.7, -0.5)",cs_plus_ns,"(-0.7, 0.5)",cs_plus_ns,0,0,0,0,,,,,0,57,57,75,,302.23681550007313,ä,correct,0.4818080000113696,,43,C,2024-01-02_12h34.10.459,gca_discrimination,2022.2.4,143.92775989889472,
positions.xlsx,stimuli.xlsx,test.xlsx,stimuli/Social1.png,stimuli/Social2.png,stimuli/Nonsocial2.png,stimuli/Nonsocial1.png,stimuli/Test1.png,stimuli/Test2.png,"(-0.7, -0.5)",cs_plus_ns,"(-0.7, 0.5)",cs_minus_ns,0,0,0,0,,,,,0,58,58,27,,304.72977079998236,l,correct,0.5570886000059545,,43,C,2024-01-02_12h34.10.459,gca_discrimination,2022.2.4,143.92775989889472,
positions.xlsx,stimuli.xlsx,test.xlsx,stimuli/Social1.png,stimuli/Social2.png,stimuli/Nonsocial2.png,stimuli/Nonsocial1.png,stimuli/Test1.png,stimuli/Test2.png,"(-0.7, 0.5)",cs_plus_s,"(0.7, -0.5)",cs_plus_s,0,0,0,0,,,,,0,59,59,50,,307.4588412999874,ä,correct,0.7638631999725476,,43,C,2024-01-02_12h34.10.459,gca_discrimination,2022.2.4,143.92775989889472,
positions.xlsx,stimuli.xlsx,test.xlsx,stimuli/Social1.png,stimuli/Social2.png,stimuli/Nonsocial2.png,stimuli/Nonsocial1.png,stimuli/Test1.png,stimuli/Test2.png,"(0.7, 0.5)",cs_plus_s,"(-0.7, 0.5)",cs_minus_s,0,0,0,0,,,,,0,60,60,6,,310.8406760999933,l,correct,0.4698664000025019,,43,C,2024-01-02_12h34.10.459,gca_discrimination,2022.2.4,143.92775989889472,
positions.xlsx,stimuli.xlsx,test.xlsx,stimuli/Social1.png,stimuli/Social2.png,stimuli/Nonsocial2.png,stimuli/Nonsocial1.png,stimuli/Test1.png,stimuli/Test2.png,"(-0.7, -0.5)",cs_minus_s,"(0.7, -0.5)",cs_minus_s,0,0,0,0,,,,,0,61,61,65,,313.3822311999975,ä,correct,0.6320947000058368,,43,C,2024-01-02_12h34.10.459,gca_discrimination,2022.2.4,143.92775989889472,
positions.xlsx,stimuli.xlsx,test.xlsx,stimuli/Social1.png,stimuli/Social2.png,stimuli/Nonsocial2.png,stimuli/Nonsocial1.png,stimuli/Test1.png,stimuli/Test2.png,"(0.7, -0.5)",cs_minus_s,"(0.7, 0.5)",cs_plus_s,0,0,0,0,,,,,0,62,62,23,,316.30570240004454,l,correct,0.6773435000795871,,43,C,2024-01-02_12h34.10.459,gca_discrimination,2022.2.4,143.92775989889472,
positions.xlsx,stimuli.xlsx,test.xlsx,stimuli/Social1.png,stimuli/Social2.png,stimuli/Nonsocial2.png,stimuli/Nonsocial1.png,stimuli/Test1.png,stimuli/Test2.png,"(0.7, -0.5)",cs_minus_ns,"(-0.7, 0.5)",cs_plus_ns,0,0,0,0,,,,,0,63,63,45,,319.5833539000014,l,correct,0.6964699999662116,,43,C,2024-01-02_12h34.10.459,gca_discrimination,2022.2.4,143.92775989889472,
positions.xlsx,stimuli.xlsx,test.xlsx,stimuli/Social1.png,stimuli/Social2.png,stimuli/Nonsocial2.png,stimuli/Nonsocial1.png,stimuli/Test1.png,stimuli/Test2.png,"(0.7, -0.5)",cs_plus_s,"(0.7, 0.5)",cs_plus_s,0,0,0,0,,,,,0,64,64,59,,322.444358900073,ä,correct,0.6346784000052139,,43,C,2024-01-02_12h34.10.459,gca_discrimination,2022.2.4,143.92775989889472,
positions.xlsx,stimuli.xlsx,test.xlsx,stimuli/Social1.png,stimuli/Social2.png,stimuli/Nonsocial2.png,stimuli/Nonsocial1.png,stimuli/Test1.png,stimuli/Test2.png,"(-0.7, 0.5)",cs_plus_s,"(0.7, -0.5)",cs_minus_s,0,0,0,0,,,,,0,65,65,2,,325.49980610003695,l,correct,0.6193540000822395,,43,C,2024-01-02_12h34.10.459,gca_discrimination,2022.2.4,143.92775989889472,
positions.xlsx,stimuli.xlsx,test.xlsx,stimuli/Social1.png,stimuli/Social2.png,stimuli/Nonsocial2.png,stimuli/Nonsocial1.png,stimuli/Test1.png,stimuli/Test2.png,"(-0.7, 0.5)",cs_plus_ns,"(-0.7, -0.5)",cs_plus_ns,0,0,0,0,,,,,0,66,66,72,,328.6802361999871,ä,correct,0.5023059999803081,,43,C,2024-01-02_12h34.10.459,gca_discrimination,2022.2.4,143.92775989889472,
positions.xlsx,stimuli.xlsx,test.xlsx,stimuli/Social1.png,stimuli/Social2.png,stimuli/Nonsocial2.png,stimuli/Nonsocial1.png,stimuli/Test1.png,stimuli/Test2.png,"(0.7, 0.5)",cs_minus_ns,"(0.7, -0.5)",cs_minus_ns,0,0,0,0,,,,,0,67,67,92,,331.6801030000206,ä,correct,1.3440492000663653,,43,C,2024-01-02_12h34.10.459,gca_discrimination,2022.2.4,143.92775989889472,
positions.xlsx,stimuli.xlsx,test.xlsx,stimuli/Social1.png,stimuli/Social2.png,stimuli/Nonsocial2.png,stimuli/Nonsocial1.png,stimuli/Test1.png,stimuli/Test2.png,"(-0.7, 0.5)",cs_minus_ns,"(-0.7, -0.5)",cs_plus_ns,0,0,0,0,,,,,0,68,68,36,,335.70773100003134,l,correct,0.46754179999697953,,43,C,2024-01-02_12h34.10.459,gca_discrimination,2022.2.4,143.92775989889472,
positions.xlsx,stimuli.xlsx,test.xlsx,stimuli/Social1.png,stimuli/Social2.png,stimuli/Nonsocial2.png,stimuli/Nonsocial1.png,stimuli/Test1.png,stimuli/Test2.png,"(0.7, -0.5)",cs_minus_ns,"(0.7, 0.5)",cs_plus_ns,0,0,0,0,,,,,0,69,69,47,,338.40901489998214,l,correct,0.49391810002271086,,43,C,2024-01-02_12h34.10.459,gca_discrimination,2022.2.4,143.92775989889472,
positions.xlsx,stimuli.xlsx,test.xlsx,stimuli/Social1.png,stimuli/Social2.png,stimuli/Nonsocial2.png,stimuli/Nonsocial1.png,stimuli/Test1.png,stimuli/Test2.png,"(0.7, -0.5)",cs_minus_s,"(-0.7, -0.5)",cs_plus_s,0,0,0,0,,,,,0,70,70,22,,341.70750430005137,l,correct,1.0995324000250548,,43,C,2024-01-02_12h34.10.459,gca_discrimination,2022.2.4,143.92775989889472,
positions.xlsx,stimuli.xlsx,test.xlsx,stimuli/Social1.png,stimuli/Social2.png,stimuli/Nonsocial2.png,stimuli/Nonsocial1.png,stimuli/Test1.png,stimuli/Test2.png,"(-0.7, -0.5)",cs_minus_s,"(-0.7, 0.5)",cs_minus_s,0,0,0,0,,,,,0,71,71,63,,345.4295905000763,ä,correct,0.3926636000396684,,43,C,2024-01-02_12h34.10.459,gca_discrimination,2022.2.4,143.92775989889472,
positions.xlsx,stimuli.xlsx,test.xlsx,stimuli/Social1.png,stimuli/Social2.png,stimuli/Nonsocial2.png,stimuli/Nonsocial1.png,stimuli/Test1.png,stimuli/Test2.png,"(-0.7, -0.5)",cs_minus_ns,"(0.7, 0.5)",cs_minus_ns,0,0,0,0,,,,,0,72,72,88,,347.68643320002593,ä,correct,0.8080563999246806,,43,C,2024-01-02_12h34.10.459,gca_discrimination,2022.2.4,143.92775989889472,
positions.xlsx,stimuli.xlsx,test.xlsx,stimuli/Social1.png,stimuli/Social2.png,stimuli/Nonsocial2.png,stimuli/Nonsocial1.png,stimuli/Test1.png,stimuli/Test2.png,"(0.7, -0.5)",cs_plus_ns,"(0.7, 0.5)",cs_minus_ns,0,0,0,0,,,,,0,73,73,35,,350.4710296000121,l,correct,0.2721372999949381,,43,C,2024-01-02_12h34.10.459,gca_discrimination,2022.2.4,143.92775989889472,
positions.xlsx,stimuli.xlsx,test.xlsx,stimuli/Social1.png,stimuli/Social2.png,stimuli/Nonsocial2.png,stimuli/Nonsocial1.png,stimuli/Test1.png,stimuli/Test2.png,"(-0.7, -0.5)",cs_minus_ns,"(0.7, -0.5)",cs_minus_ns,0,0,0,0,,,,,0,74,74,89,,352.71400849998463,ä,correct,0.46879519999492913,,43,C,2024-01-02_12h34.10.459,gca_discrimination,2022.2.4,143.92775989889472,
positions.xlsx,stimuli.xlsx,test.xlsx,stimuli/Social1.png,stimuli/Social2.png,stimuli/Nonsocial2.png,stimuli/Nonsocial1.png,stimuli/Test1.png,stimuli/Test2.png,"(0.7, 0.5)",cs_minus_s,"(0.7, -0.5)",cs_plus_s,0,0,0,0,,,,,0,75,75,20,,355.936102900072,l,correct,1.0639725000364706,,43,C,2024-01-02_12h34.10.459,gca_discrimination,2022.2.4,143.92775989889472,
positions.xlsx,stimuli.xlsx,test.xlsx,stimuli/Social1.png,stimuli/Social2.png,stimuli/Nonsocial2.png,stimuli/Nonsocial1.png,stimuli/Test1.png,stimuli/Test2.png,"(-0.7, 0.5)",cs_minus_s,"(0.7, 0.5)",cs_minus_s,0,0,0,0,,,,,0,76,76,61,,359.63735380000435,ä,correct,0.41760369995608926,,43,C,2024-01-02_12h34.10.459,gca_discrimination,2022.2.4,143.92775989889472,
positions.xlsx,stimuli.xlsx,test.xlsx,stimuli/Social1.png,stimuli/Social2.png,stimuli/Nonsocial2.png,stimuli/Nonsocial1.png,stimuli/Test1.png,stimuli/Test2.png,"(0.7, 0.5)",cs_plus_ns,"(-0.7, 0.5)",cs_minus_ns,0,0,0,0,,,,,0,77,77,30,,362.81086810003035,l,correct,0.6283784999977797,,43,C,2024-01-02_12h34.10.459,gca_discrimination,2022.2.4,143.92775989889472,
positions.xlsx,stimuli.xlsx,test.xlsx,stimuli/Social1.png,stimuli/Social2.png,stimuli/Nonsocial2.png,stimuli/Nonsocial1.png,stimuli/Test1.png,stimuli/Test2.png,"(0.7, 0.5)",cs_plus_ns,"(-0.7, -0.5)",cs_minus_ns,0,0,0,0,,,,,0,78,78,31,,365.9496191000799,l,correct,0.5288289000745863,,43,C,2024-01-02_12h34.10.459,gca_discrimination,2022.2.4,143.92775989889472,
positions.xlsx,stimuli.xlsx,test.xlsx,stimuli/Social1.png,stimuli/Social2.png,stimuli/Nonsocial2.png,stimuli/Nonsocial1.png,stimuli/Test1.png,stimuli/Test2.png,"(0.7, -0.5)",cs_plus_ns,"(-0.7, -0.5)",cs_plus_ns,0,0,0,0,,,,,0,79,79,82,,368.8384029000299,ä,correct,0.5359935999149457,,43,C,2024-01-02_12h34.10.459,gca_discrimination,2022.2.4,143.92775989889472,
positions.xlsx,stimuli.xlsx,test.xlsx,stimuli/Social1.png,stimuli/Social2.png,stimuli/Nonsocial2.png,stimuli/Nonsocial1.png,stimuli/Test1.png,stimuli/Test2.png,"(0.7, -0.5)",cs_minus_ns,"(-0.7, -0.5)",cs_plus_ns,0,0,0,0,,,,,0,80,80,46,,371.5952084000455,l,correct,0.7079944000579417,,43,C,2024-01-02_12h34.10.459,gca_discrimination,2022.2.4,143.92775989889472,
positions.xlsx,stimuli.xlsx,test.xlsx,stimuli/Social1.png,stimuli/Social2.png,stimuli/Nonsocial2.png,stimuli/Nonsocial1.png,stimuli/Test1.png,stimuli/Test2.png,"(-0.7, 0.5)",cs_plus_ns,"(0.7, -0.5)",cs_plus_ns,0,0,0,0,,,,,0,81,81,74,,374.6159231000347,l,wrong,0.6960643000202253,,43,C,2024-01-02_12h34.10.459,gca_discrimination,2022.2.4,143.92775989889472,
positions.xlsx,stimuli.xlsx,test.xlsx,stimuli/Social1.png,stimuli/Social2.png,stimuli/Nonsocial2.png,stimuli/Nonsocial1.png,stimuli/Test1.png,stimuli/Test2.png,"(-0.7, -0.5)",cs_plus_s,"(0.7, 0.5)",cs_plus_s,0,0,0,0,,,,,0,82,82,52,,377.81027870008256,ä,correct,0.5487150000408292,,43,C,2024-01-02_12h34.10.459,gca_discrimination,2022.2.4,143.92775989889472,
positions.xlsx,stimuli.xlsx,test.xlsx,stimuli/Social1.png,stimuli/Social2.png,stimuli/Nonsocial2.png,stimuli/Nonsocial1.png,stimuli/Test1.png,stimuli/Test2.png,"(0.7, -0.5)",cs_plus_ns,"(0.7, 0.5)",cs_plus_ns,0,0,0,0,,,,,0,83,83,83,,380.7129391999915,ä,correct,0.4300169999478385,,43,C,2024-01-02_12h34.10.459,gca_discrimination,2022.2.4,143.92775989889472,
positions.xlsx,stimuli.xlsx,test.xlsx,stimuli/Social1.png,stimuli/Social2.png,stimuli/Nonsocial2.png,stimuli/Nonsocial1.png,stimuli/Test1.png,stimuli/Test2.png,"(0.7, 0.5)",cs_minus_s,"(0.7, -0.5)",cs_minus_s,0,0,0,0,,,,,0,84,84,68,,383.8308471000055,ä,correct,0.5528301999438554,,43,C,2024-01-02_12h34.10.459,gca_discrimination,2022.2.4,143.92775989889472,
positions.xlsx,stimuli.xlsx,test.xlsx,stimuli/Social1.png,stimuli/Social2.png,stimuli/Nonsocial2.png,stimuli/Nonsocial1.png,stimuli/Test1.png,stimuli/Test2.png,"(0.7, -0.5)",cs_minus_s,"(-0.7, 0.5)",cs_plus_s,0,0,0,0,,,,,0,85,85,21,,387.1918695999775,l,correct,0.638683500001207,,43,C,2024-01-02_12h34.10.459,gca_discrimination,2022.2.4,143.92775989889472,
positions.xlsx,stimuli.xlsx,test.xlsx,stimuli/Social1.png,stimuli/Social2.png,stimuli/Nonsocial2.png,stimuli/Nonsocial1.png,stimuli/Test1.png,stimuli/Test2.png,"(0.7, 0.5)",cs_minus_s,"(-0.7, -0.5)",cs_plus_s,0,0,0,0,,,,,0,86,86,19,,389.9278451000573,l,correct,0.8148095000069588,,43,C,2024-01-02_12h34.10.459,gca_discrimination,2022.2.4,143.92775989889472,
positions.xlsx,stimuli.xlsx,test.xlsx,stimuli/Social1.png,stimuli/Social2.png,stimuli/Nonsocial2.png,stimuli/Nonsocial1.png,stimuli/Test1.png,stimuli/Test2.png,"(-0.7, 0.5)",cs_plus_ns,"(0.7, -0.5)",cs_minus_ns,0,0,0,0,,,,,0,87,87,26,,393.02496459998656,l,correct,0.5334243000252172,,43,C,2024-01-02_12h34.10.459,gca_discrimination,2022.2.4,143.92775989889472,
positions.xlsx,stimuli.xlsx,test.xlsx,stimuli/Social1.png,stimuli/Social2.png,stimuli/Nonsocial2.png,stimuli/Nonsocial1.png,stimuli/Test1.png,stimuli/Test2.png,"(-0.7, -0.5)",cs_plus_ns,"(0.7, 0.5)",cs_minus_ns,0,0,0,0,,,,,0,88,88,28,,395.94148690009024,l,correct,0.4892678000032902,,43,C,2024-01-02_12h34.10.459,gca_discrimination,2022.2.4,143.92775989889472,
positions.xlsx,stimuli.xlsx,test.xlsx,stimuli/Social1.png,stimuli/Social2.png,stimuli/Nonsocial2.png,stimuli/Nonsocial1.png,stimuli/Test1.png,stimuli/Test2.png,"(0.7, -0.5)",cs_minus_s,"(-0.7, 0.5)",cs_minus_s,0,0,0,0,,,,,0,89,89,69,,399.23308200004976,ä,correct,0.48524410009849817,,43,C,2024-01-02_12h34.10.459,gca_discrimination,2022.2.4,143.92775989889472,
positions.xlsx,stimuli.xlsx,test.xlsx,stimuli/Social1.png,stimuli/Social2.png,stimuli/Nonsocial2.png,stimuli/Nonsocial1.png,stimuli/Test1.png,stimuli/Test2.png,"(0.7, 0.5)",cs_plus_ns,"(0.7, -0.5)",cs_plus_ns,0,0,0,0,,,,,0,90,90,80,,402.1843283000635,ä,correct,0.5823277999879792,,43,C,2024-01-02_12h34.10.459,gca_discrimination,2022.2.4,143.92775989889472,
positions.xlsx,stimuli.xlsx,test.xlsx,stimuli/Social1.png,stimuli/Social2.png,stimuli/Nonsocial2.png,stimuli/Nonsocial1.png,stimuli/Test1.png,stimuli/Test2.png,"(0.7, -0.5)",cs_minus_ns,"(-0.7, -0.5)",cs_minus_ns,0,0,0,0,,,,,0,91,91,94,,404.6355962000089,ä,correct,0.5395675000036135,,43,C,2024-01-02_12h34.10.459,gca_discrimination,2022.2.4,143.92775989889472,
positions.xlsx,stimuli.xlsx,test.xlsx,stimuli/Social1.png,stimuli/Social2.png,stimuli/Nonsocial2.png,stimuli/Nonsocial1.png,stimuli/Test1.png,stimuli/Test2.png,"(0.7, 0.5)",cs_plus_ns,"(-0.7, 0.5)",cs_plus_ns,0,0,0,0,,,,,0,92,92,78,,407.42718910006806,ä,correct,0.5635747000342235,,43,C,2024-01-02_12h34.10.459,gca_discrimination,2022.2.4,143.92775989889472,
positions.xlsx,stimuli.xlsx,test.xlsx,stimuli/Social1.png,stimuli/Social2.png,stimuli/Nonsocial2.png,stimuli/Nonsocial1.png,stimuli/Test1.png,stimuli/Test2.png,"(0.7, 0.5)",cs_minus_ns,"(-0.7, 0.5)",cs_minus_ns,0,0,0,0,,,,,0,93,93,90,,410.10766960005276,ä,correct,0.3556479000253603,,43,C,2024-01-02_12h34.10.459,gca_discrimination,2022.2.4,143.92775989889472,
positions.xlsx,stimuli.xlsx,test.xlsx,stimuli/Social1.png,stimuli/Social2.png,stimuli/Nonsocial2.png,stimuli/Nonsocial1.png,stimuli/Test1.png,stimuli/Test2.png,"(-0.7, -0.5)",cs_plus_s,"(0.7, 0.5)",cs_minus_s,0,0,0,0,,,,,0,94,94,4,,412.97561209998094,l,correct,0.5846350999781862,,43,C,2024-01-02_12h34.10.459,gca_discrimination,2022.2.4,143.92775989889472,
positions.xlsx,stimuli.xlsx,test.xlsx,stimuli/Social1.png,stimuli/Social2.png,stimuli/Nonsocial2.png,stimuli/Nonsocial1.png,stimuli/Test1.png,stimuli/Test2.png,"(0.7, 0.5)",cs_minus_ns,"(-0.7, 0.5)",cs_plus_ns,0,0,0,0,,,,,0,95,95,42,,415.628259500023,l,correct,0.7238956999499351,,43,C,2024-01-02_12h34.10.459,gca_discrimination,2022.2.4,143.92775989889472,
