posFile,stimFile,testFile,cs_plus_s,cs_minus_s,cs_plus_ns,cs_minus_ns,test1,test2,position1,trialtype,position2,comptype,blocks.thisRepN,blocks.thisTrialN,blocks.thisN,blocks.thisIndex,learning_trials.thisRepN,learning_trials.thisTrialN,learning_trials.thisN,learning_trials.thisIndex,trials.thisRepN,trials.thisTrialN,trials.thisN,trials.thisIndex,textStart.started,key.started,key.keys,key.rt,correctness,textStartTask.started,participant,group,date,expName,psychopyVersion,frameRate,
positions.xlsx,stimuli.xlsx,test.xlsx,stimuli/Social1.png,stimuli/Social2.png,stimuli/Nonsocial2.png,stimuli/Nonsocial1.png,stimuli/Test1.png,stimuli/Test2.png,"(-0.7, -0.5)",test1,"(0.7, 0.5)",test2,0,0,0,0,0,0,0,8,,,,,13.348233100026846,81.8108303998597,l,1.1009403001517057,correct,,49,C,2024-01-12_14h06.22.730,gca_discrimination,2022.2.4,143.8749553578073,
positions.xlsx,stimuli.xlsx,test.xlsx,stimuli/Social1.png,stimuli/Social2.png,stimuli/Nonsocial2.png,stimuli/Nonsocial1.png,stimuli/Test1.png,stimuli/Test2.png,"(-0.7, 0.5)",test1,"(0.7, -0.5)",test1,0,0,0,0,0,1,1,5,,,,,,87.60225920006633,ä,0.4767722999677062,correct,,49,C,2024-01-12_14h06.22.730,gca_discrimination,2022.2.4,143.8749553578073,
positions.xlsx,stimuli.xlsx,test.xlsx,stimuli/Social1.png,stimuli/Social2.png,stimuli/Nonsocial2.png,stimuli/Nonsocial1.png,stimuli/Test1.png,stimuli/Test2.png,"(0.7, 0.5)",test2,"(-0.7, 0.5)",test1,0,0,0,0,0,2,2,13,,,,,,92.56734189996496,l,0.7682274000253528,correct,,49,C,2024-01-12_14h06.22.730,gca_discrimination,2022.2.4,143.8749553578073,
positions.xlsx,stimuli.xlsx,test.xlsx,stimuli/Social1.png,stimuli/Social2.png,stimuli/Nonsocial2.png,stimuli/Nonsocial1.png,stimuli/Test1.png,stimuli/Test2.png,"(-0.7, -0.5)",test2,"(-0.7, 0.5)",test2,0,0,0,0,0,3,3,2,,,,,,97.53938400000334,ä,0.9010347002185881,correct,,49,C,2024-01-12_14h06.22.730,gca_discrimination,2022.2.4,143.8749553578073,
positions.xlsx,stimuli.xlsx,test.xlsx,stimuli/Social1.png,stimuli/Social2.png,stimuli/Nonsocial2.png,stimuli/Nonsocial1.png,stimuli/Test1.png,stimuli/Test2.png,"(-0.7, -0.5)",test2,"(0.7, 0.5)",test2,0,0,0,0,0,4,4,7,,,,,,102.26143800001591,ä,0.6501994002610445,correct,,49,C,2024-01-12_14h06.22.730,gca_discrimination,2022.2.4,143.8749553578073,
positions.xlsx,stimuli.xlsx,test.xlsx,stimuli/Social1.png,stimuli/Social2.png,stimuli/Nonsocial2.png,stimuli/Nonsocial1.png,stimuli/Test1.png,stimuli/Test2.png,"(0.7, 0.5)",test2,"(0.7, -0.5)",test1,0,0,0,0,0,5,5,6,,,,,,107.28899679984897,l,0.9672624999657273,correct,,49,C,2024-01-12_14h06.22.730,gca_discrimination,2022.2.4,143.8749553578073,
positions.xlsx,stimuli.xlsx,test.xlsx,stimuli/Social1.png,stimuli/Social2.png,stimuli/Nonsocial2.png,stimuli/Nonsocial1.png,stimuli/Test1.png,stimuli/Test2.png,"(-0.7, 0.5)",test2,"(0.7, -0.5)",test1,0,0,0,0,0,6,6,12,,,,,,112.49709920003079,l,1.0779657000675797,correct,,49,C,2024-01-12_14h06.22.730,gca_discrimination,2022.2.4,143.8749553578073,
positions.xlsx,stimuli.xlsx,test.xlsx,stimuli/Social1.png,stimuli/Social2.png,stimuli/Nonsocial2.png,stimuli/Nonsocial1.png,stimuli/Test1.png,stimuli/Test2.png,"(0.7, -0.5)",test2,"(-0.7, 0.5)",test1,0,0,0,0,0,7,7,4,,,,,,117.51772279990837,l,0.5857445001602173,correct,,49,C,2024-01-12_14h06.22.730,gca_discrimination,2022.2.4,143.8749553578073,
positions.xlsx,stimuli.xlsx,test.xlsx,stimuli/Social1.png,stimuli/Social2.png,stimuli/Nonsocial2.png,stimuli/Nonsocial1.png,stimuli/Test1.png,stimuli/Test2.png,"(0.7, 0.5)",test1,"(0.7, -0.5)",test2,0,0,0,0,0,8,8,11,,,,,,122.21894910000265,l,0.5967234999407083,correct,,49,C,2024-01-12_14h06.22.730,gca_discrimination,2022.2.4,143.8749553578073,
positions.xlsx,stimuli.xlsx,test.xlsx,stimuli/Social1.png,stimuli/Social2.png,stimuli/Nonsocial2.png,stimuli/Nonsocial1.png,stimuli/Test1.png,stimuli/Test2.png,"(-0.7, 0.5)",test2,"(-0.7, -0.5)",test2,0,0,0,0,0,9,9,1,,,,,,126.9687433000654,ä,0.6472297001164407,correct,,49,C,2024-01-12_14h06.22.730,gca_discrimination,2022.2.4,143.8749553578073,
positions.xlsx,stimuli.xlsx,test.xlsx,stimuli/Social1.png,stimuli/Social2.png,stimuli/Nonsocial2.png,stimuli/Nonsocial1.png,stimuli/Test1.png,stimuli/Test2.png,"(-0.7, 0.5)",test2,"(0.7, 0.5)",test1,0,0,0,0,0,10,10,3,,,,,,132.1629844000563,l,0.5726535001304001,correct,,49,C,2024-01-12_14h06.22.730,gca_discrimination,2022.2.4,143.8749553578073,
positions.xlsx,stimuli.xlsx,test.xlsx,stimuli/Social1.png,stimuli/Social2.png,stimuli/Nonsocial2.png,stimuli/Nonsocial1.png,stimuli/Test1.png,stimuli/Test2.png,"(0.7, -0.5)",test1,"(0.7, 0.5)",test2,0,0,0,0,0,11,11,0,,,,,,137.07254029996693,l,0.47859650012105703,correct,,49,C,2024-01-12_14h06.22.730,gca_discrimination,2022.2.4,143.8749553578073,
positions.xlsx,stimuli.xlsx,test.xlsx,stimuli/Social1.png,stimuli/Social2.png,stimuli/Nonsocial2.png,stimuli/Nonsocial1.png,stimuli/Test1.png,stimuli/Test2.png,"(-0.7, -0.5)",test2,"(0.7, -0.5)",test2,0,0,0,0,0,12,12,9,,,,,,141.41260310006328,ä,0.6592832002788782,correct,,49,C,2024-01-12_14h06.22.730,gca_discrimination,2022.2.4,143.8749553578073,
positions.xlsx,stimuli.xlsx,test.xlsx,stimuli/Social1.png,stimuli/Social2.png,stimuli/Nonsocial2.png,stimuli/Nonsocial1.png,stimuli/Test1.png,stimuli/Test2.png,"(0.7, -0.5)",test1,"(0.7, 0.5)",test1,0,0,0,0,0,13,13,10,,,,,,145.9124546998646,ä,0.7026848001405597,correct,,49,C,2024-01-12_14h06.22.730,gca_discrimination,2022.2.4,143.8749553578073,
positions.xlsx,stimuli.xlsx,test.xlsx,stimuli/Social1.png,stimuli/Social2.png,stimuli/Nonsocial2.png,stimuli/Nonsocial1.png,stimuli/Test1.png,stimuli/Test2.png,"(-0.7, 0.5)",cs_minus_s,"(0.7, 0.5)",cs_plus_s,0,0,0,0,,,,,0,0,0,13,,171.43227949994616,l,0.7594388001598418,correct,148.69705730001442,49,C,2024-01-12_14h06.22.730,gca_discrimination,2022.2.4,143.8749553578073,
positions.xlsx,stimuli.xlsx,test.xlsx,stimuli/Social1.png,stimuli/Social2.png,stimuli/Nonsocial2.png,stimuli/Nonsocial1.png,stimuli/Test1.png,stimuli/Test2.png,"(-0.7, 0.5)",cs_minus_s,"(0.7, -0.5)",cs_plus_s,0,0,0,0,,,,,0,1,1,14,,174.3141129000578,l,0.58906410029158,correct,,49,C,2024-01-12_14h06.22.730,gca_discrimination,2022.2.4,143.8749553578073,
positions.xlsx,stimuli.xlsx,test.xlsx,stimuli/Social1.png,stimuli/Social2.png,stimuli/Nonsocial2.png,stimuli/Nonsocial1.png,stimuli/Test1.png,stimuli/Test2.png,"(0.7, -0.5)",cs_minus_s,"(0.7, 0.5)",cs_plus_s,0,0,0,0,,,,,0,2,2,23,,176.80011339997873,l,0.4952130001038313,correct,,49,C,2024-01-12_14h06.22.730,gca_discrimination,2022.2.4,143.8749553578073,
positions.xlsx,stimuli.xlsx,test.xlsx,stimuli/Social1.png,stimuli/Social2.png,stimuli/Nonsocial2.png,stimuli/Nonsocial1.png,stimuli/Test1.png,stimuli/Test2.png,"(0.7, -0.5)",cs_plus_s,"(-0.7, 0.5)",cs_minus_s,0,0,0,0,,,,,0,3,3,9,,179.77916059992276,l,0.46025020023807883,correct,,49,C,2024-01-12_14h06.22.730,gca_discrimination,2022.2.4,143.8749553578073,
positions.xlsx,stimuli.xlsx,test.xlsx,stimuli/Social1.png,stimuli/Social2.png,stimuli/Nonsocial2.png,stimuli/Nonsocial1.png,stimuli/Test1.png,stimuli/Test2.png,"(0.7, -0.5)",cs_minus_ns,"(0.7, 0.5)",cs_plus_ns,0,0,0,0,,,,,0,4,4,47,,182.27906099986285,l,0.5689813999924809,correct,,49,C,2024-01-12_14h06.22.730,gca_discrimination,2022.2.4,143.8749553578073,
positions.xlsx,stimuli.xlsx,test.xlsx,stimuli/Social1.png,stimuli/Social2.png,stimuli/Nonsocial2.png,stimuli/Nonsocial1.png,stimuli/Test1.png,stimuli/Test2.png,"(0.7, -0.5)",cs_plus_s,"(0.7, 0.5)",cs_plus_s,0,0,0,0,,,,,0,5,5,59,,185.45949029992335,ä,0.47643000027164817,correct,,49,C,2024-01-12_14h06.22.730,gca_discrimination,2022.2.4,143.8749553578073,
positions.xlsx,stimuli.xlsx,test.xlsx,stimuli/Social1.png,stimuli/Social2.png,stimuli/Nonsocial2.png,stimuli/Nonsocial1.png,stimuli/Test1.png,stimuli/Test2.png,"(-0.7, 0.5)",cs_plus_ns,"(0.7, -0.5)",cs_minus_ns,0,0,0,0,,,,,0,6,6,26,,188.2718723998405,l,0.504583700094372,correct,,49,C,2024-01-12_14h06.22.730,gca_discrimination,2022.2.4,143.8749553578073,
positions.xlsx,stimuli.xlsx,test.xlsx,stimuli/Social1.png,stimuli/Social2.png,stimuli/Nonsocial2.png,stimuli/Nonsocial1.png,stimuli/Test1.png,stimuli/Test2.png,"(0.7, -0.5)",cs_plus_ns,"(-0.7, -0.5)",cs_minus_ns,0,0,0,0,,,,,0,7,7,34,,190.750984699931,l,0.5841558002866805,correct,,49,C,2024-01-12_14h06.22.730,gca_discrimination,2022.2.4,143.8749553578073,
positions.xlsx,stimuli.xlsx,test.xlsx,stimuli/Social1.png,stimuli/Social2.png,stimuli/Nonsocial2.png,stimuli/Nonsocial1.png,stimuli/Test1.png,stimuli/Test2.png,"(-0.7, -0.5)",cs_minus_ns,"(0.7, 0.5)",cs_minus_ns,0,0,0,0,,,,,0,8,8,88,,193.78554870001972,ä,0.47830389998853207,correct,,49,C,2024-01-12_14h06.22.730,gca_discrimination,2022.2.4,143.8749553578073,
positions.xlsx,stimuli.xlsx,test.xlsx,stimuli/Social1.png,stimuli/Social2.png,stimuli/Nonsocial2.png,stimuli/Nonsocial1.png,stimuli/Test1.png,stimuli/Test2.png,"(0.7, 0.5)",cs_plus_s,"(-0.7, -0.5)",cs_minus_s,0,0,0,0,,,,,0,9,9,7,,196.16045799991116,l,0.4786200001835823,correct,,49,C,2024-01-12_14h06.22.730,gca_discrimination,2022.2.4,143.8749553578073,
positions.xlsx,stimuli.xlsx,test.xlsx,stimuli/Social1.png,stimuli/Social2.png,stimuli/Nonsocial2.png,stimuli/Nonsocial1.png,stimuli/Test1.png,stimuli/Test2.png,"(-0.7, -0.5)",cs_minus_ns,"(0.7, 0.5)",cs_plus_ns,0,0,0,0,,,,,0,10,10,40,,199.21589190000668,l,0.503668799996376,correct,,49,C,2024-01-12_14h06.22.730,gca_discrimination,2022.2.4,143.8749553578073,
positions.xlsx,stimuli.xlsx,test.xlsx,stimuli/Social1.png,stimuli/Social2.png,stimuli/Nonsocial2.png,stimuli/Nonsocial1.png,stimuli/Test1.png,stimuli/Test2.png,"(-0.7, -0.5)",cs_plus_s,"(-0.7, 0.5)",cs_minus_s,0,0,0,0,,,,,0,11,11,3,,202.48661589995027,l,0.6174471999984235,correct,,49,C,2024-01-12_14h06.22.730,gca_discrimination,2022.2.4,143.8749553578073,
positions.xlsx,stimuli.xlsx,test.xlsx,stimuli/Social1.png,stimuli/Social2.png,stimuli/Nonsocial2.png,stimuli/Nonsocial1.png,stimuli/Test1.png,stimuli/Test2.png,"(-0.7, -0.5)",cs_plus_ns,"(-0.7, 0.5)",cs_minus_ns,0,0,0,0,,,,,0,12,12,27,,205.3128591000568,l,0.46268810029141605,correct,,49,C,2024-01-12_14h06.22.730,gca_discrimination,2022.2.4,143.8749553578073,
positions.xlsx,stimuli.xlsx,test.xlsx,stimuli/Social1.png,stimuli/Social2.png,stimuli/Nonsocial2.png,stimuli/Nonsocial1.png,stimuli/Test1.png,stimuli/Test2.png,"(-0.7, -0.5)",cs_plus_s,"(0.7, 0.5)",cs_plus_s,0,0,0,0,,,,,0,13,13,52,,208.29199299984612,ä,0.49202540004625916,correct,,49,C,2024-01-12_14h06.22.730,gca_discrimination,2022.2.4,143.8749553578073,
positions.xlsx,stimuli.xlsx,test.xlsx,stimuli/Social1.png,stimuli/Social2.png,stimuli/Nonsocial2.png,stimuli/Nonsocial1.png,stimuli/Test1.png,stimuli/Test2.png,"(0.7, 0.5)",cs_minus_s,"(-0.7, 0.5)",cs_minus_s,0,0,0,0,,,,,0,14,14,66,,210.69460809999146,ä,0.5779782000463456,correct,,49,C,2024-01-12_14h06.22.730,gca_discrimination,2022.2.4,143.8749553578073,
positions.xlsx,stimuli.xlsx,test.xlsx,stimuli/Social1.png,stimuli/Social2.png,stimuli/Nonsocial2.png,stimuli/Nonsocial1.png,stimuli/Test1.png,stimuli/Test2.png,"(0.7, 0.5)",cs_plus_ns,"(-0.7, -0.5)",cs_minus_ns,0,0,0,0,,,,,0,15,15,31,,213.3611740998458,l,0.6472690999507904,correct,,49,C,2024-01-12_14h06.22.730,gca_discrimination,2022.2.4,143.8749553578073,
positions.xlsx,stimuli.xlsx,test.xlsx,stimuli/Social1.png,stimuli/Social2.png,stimuli/Nonsocial2.png,stimuli/Nonsocial1.png,stimuli/Test1.png,stimuli/Test2.png,"(0.7, -0.5)",cs_minus_ns,"(-0.7, 0.5)",cs_plus_ns,0,0,0,0,,,,,0,16,16,45,,215.95831279992126,l,0.6014618000481278,correct,,49,C,2024-01-12_14h06.22.730,gca_discrimination,2022.2.4,143.8749553578073,
positions.xlsx,stimuli.xlsx,test.xlsx,stimuli/Social1.png,stimuli/Social2.png,stimuli/Nonsocial2.png,stimuli/Nonsocial1.png,stimuli/Test1.png,stimuli/Test2.png,"(-0.7, 0.5)",cs_plus_ns,"(0.7, 0.5)",cs_minus_ns,0,0,0,0,,,,,0,17,17,25,,218.38876149989665,l,0.5388973001390696,correct,,49,C,2024-01-12_14h06.22.730,gca_discrimination,2022.2.4,143.8749553578073,
positions.xlsx,stimuli.xlsx,test.xlsx,stimuli/Social1.png,stimuli/Social2.png,stimuli/Nonsocial2.png,stimuli/Nonsocial1.png,stimuli/Test1.png,stimuli/Test2.png,"(-0.7, 0.5)",cs_minus_ns,"(0.7, 0.5)",cs_minus_ns,0,0,0,0,,,,,0,18,18,85,,221.277508799918,ä,0.4740450002718717,correct,,49,C,2024-01-12_14h06.22.730,gca_discrimination,2022.2.4,143.8749553578073,
positions.xlsx,stimuli.xlsx,test.xlsx,stimuli/Social1.png,stimuli/Social2.png,stimuli/Nonsocial2.png,stimuli/Nonsocial1.png,stimuli/Test1.png,stimuli/Test2.png,"(0.7, 0.5)",cs_minus_s,"(-0.7, -0.5)",cs_minus_s,0,0,0,0,,,,,0,19,19,67,,224.33992689987645,ä,0.5409004001412541,correct,,49,C,2024-01-12_14h06.22.730,gca_discrimination,2022.2.4,143.8749553578073,
positions.xlsx,stimuli.xlsx,test.xlsx,stimuli/Social1.png,stimuli/Social2.png,stimuli/Nonsocial2.png,stimuli/Nonsocial1.png,stimuli/Test1.png,stimuli/Test2.png,"(0.7, 0.5)",cs_minus_s,"(0.7, -0.5)",cs_plus_s,0,0,0,0,,,,,0,20,20,20,,227.09673419990577,l,0.6390999001450837,correct,,49,C,2024-01-12_14h06.22.730,gca_discrimination,2022.2.4,143.8749553578073,
positions.xlsx,stimuli.xlsx,test.xlsx,stimuli/Social1.png,stimuli/Social2.png,stimuli/Nonsocial2.png,stimuli/Nonsocial1.png,stimuli/Test1.png,stimuli/Test2.png,"(-0.7, 0.5)",cs_minus_ns,"(0.7, 0.5)",cs_plus_ns,0,0,0,0,,,,,0,21,21,37,,229.6313763000071,l,0.5359177999198437,correct,,49,C,2024-01-12_14h06.22.730,gca_discrimination,2022.2.4,143.8749553578073,
positions.xlsx,stimuli.xlsx,test.xlsx,stimuli/Social1.png,stimuli/Social2.png,stimuli/Nonsocial2.png,stimuli/Nonsocial1.png,stimuli/Test1.png,stimuli/Test2.png,"(0.7, 0.5)",cs_plus_s,"(0.7, -0.5)",cs_plus_s,0,0,0,0,,,,,0,22,22,56,,232.23542709997855,ä,0.7884774000849575,correct,,49,C,2024-01-12_14h06.22.730,gca_discrimination,2022.2.4,143.8749553578073,
positions.xlsx,stimuli.xlsx,test.xlsx,stimuli/Social1.png,stimuli/Social2.png,stimuli/Nonsocial2.png,stimuli/Nonsocial1.png,stimuli/Test1.png,stimuli/Test2.png,"(-0.7, -0.5)",cs_minus_s,"(0.7, -0.5)",cs_minus_s,0,0,0,0,,,,,0,23,23,65,,235.06865749997087,ä,0.778956700116396,correct,,49,C,2024-01-12_14h06.22.730,gca_discrimination,2022.2.4,143.8749553578073,
positions.xlsx,stimuli.xlsx,test.xlsx,stimuli/Social1.png,stimuli/Social2.png,stimuli/Nonsocial2.png,stimuli/Nonsocial1.png,stimuli/Test1.png,stimuli/Test2.png,"(-0.7, -0.5)",cs_minus_s,"(0.7, -0.5)",cs_plus_s,0,0,0,0,,,,,0,24,24,17,,238.59626420005225,l,1.459094600053504,correct,,49,C,2024-01-12_14h06.22.730,gca_discrimination,2022.2.4,143.8749553578073,
positions.xlsx,stimuli.xlsx,test.xlsx,stimuli/Social1.png,stimuli/Social2.png,stimuli/Nonsocial2.png,stimuli/Nonsocial1.png,stimuli/Test1.png,stimuli/Test2.png,"(-0.7, 0.5)",cs_plus_s,"(-0.7, -0.5)",cs_plus_s,0,0,0,0,,,,,0,25,25,48,,242.0823556999676,ä,0.5808920999988914,correct,,49,C,2024-01-12_14h06.22.730,gca_discrimination,2022.2.4,143.8749553578073,
positions.xlsx,stimuli.xlsx,test.xlsx,stimuli/Social1.png,stimuli/Social2.png,stimuli/Nonsocial2.png,stimuli/Nonsocial1.png,stimuli/Test1.png,stimuli/Test2.png,"(-0.7, 0.5)",cs_minus_s,"(0.7, 0.5)",cs_minus_s,0,0,0,0,,,,,0,26,26,61,,245.17242259997874,ä,0.9147155000828207,correct,,49,C,2024-01-12_14h06.22.730,gca_discrimination,2022.2.4,143.8749553578073,
positions.xlsx,stimuli.xlsx,test.xlsx,stimuli/Social1.png,stimuli/Social2.png,stimuli/Nonsocial2.png,stimuli/Nonsocial1.png,stimuli/Test1.png,stimuli/Test2.png,"(0.7, -0.5)",cs_minus_ns,"(-0.7, 0.5)",cs_minus_ns,0,0,0,0,,,,,0,27,27,93,,248.08898349991068,ä,0.5430620000697672,correct,,49,C,2024-01-12_14h06.22.730,gca_discrimination,2022.2.4,143.8749553578073,
positions.xlsx,stimuli.xlsx,test.xlsx,stimuli/Social1.png,stimuli/Social2.png,stimuli/Nonsocial2.png,stimuli/Nonsocial1.png,stimuli/Test1.png,stimuli/Test2.png,"(-0.7, -0.5)",cs_plus_ns,"(-0.7, 0.5)",cs_plus_ns,0,0,0,0,,,,,0,28,28,75,,251.06803419999778,ä,0.5399438000749797,correct,,49,C,2024-01-12_14h06.22.730,gca_discrimination,2022.2.4,143.8749553578073,
positions.xlsx,stimuli.xlsx,test.xlsx,stimuli/Social1.png,stimuli/Social2.png,stimuli/Nonsocial2.png,stimuli/Nonsocial1.png,stimuli/Test1.png,stimuli/Test2.png,"(-0.7, -0.5)",cs_minus_s,"(0.7, 0.5)",cs_minus_s,0,0,0,0,,,,,0,29,29,64,,254.23454199987464,ä,0.58086850005202,correct,,49,C,2024-01-12_14h06.22.730,gca_discrimination,2022.2.4,143.8749553578073,
positions.xlsx,stimuli.xlsx,test.xlsx,stimuli/Social1.png,stimuli/Social2.png,stimuli/Nonsocial2.png,stimuli/Nonsocial1.png,stimuli/Test1.png,stimuli/Test2.png,"(-0.7, 0.5)",cs_plus_s,"(0.7, 0.5)",cs_plus_s,0,0,0,0,,,,,0,30,30,49,,257.20669350004755,ä,0.5207416999619454,correct,,49,C,2024-01-12_14h06.22.730,gca_discrimination,2022.2.4,143.8749553578073,
positions.xlsx,stimuli.xlsx,test.xlsx,stimuli/Social1.png,stimuli/Social2.png,stimuli/Nonsocial2.png,stimuli/Nonsocial1.png,stimuli/Test1.png,stimuli/Test2.png,"(0.7, -0.5)",cs_plus_s,"(-0.7, -0.5)",cs_plus_s,0,0,0,0,,,,,0,31,31,58,,259.9704831999261,ä,0.4937869000714272,correct,,49,C,2024-01-12_14h06.22.730,gca_discrimination,2022.2.4,143.8749553578073,
positions.xlsx,stimuli.xlsx,test.xlsx,stimuli/Social1.png,stimuli/Social2.png,stimuli/Nonsocial2.png,stimuli/Nonsocial1.png,stimuli/Test1.png,stimuli/Test2.png,"(0.7, -0.5)",cs_plus_ns,"(-0.7, 0.5)",cs_plus_ns,0,0,0,0,,,,,0,32,32,81,,262.81759419990703,ä,0.7581334002315998,correct,,49,C,2024-01-12_14h06.22.730,gca_discrimination,2022.2.4,143.8749553578073,
positions.xlsx,stimuli.xlsx,test.xlsx,stimuli/Social1.png,stimuli/Social2.png,stimuli/Nonsocial2.png,stimuli/Nonsocial1.png,stimuli/Test1.png,stimuli/Test2.png,"(0.7, -0.5)",cs_plus_s,"(-0.7, -0.5)",cs_minus_s,0,0,0,0,,,,,0,33,33,10,,265.63690739986487,l,0.6025876002386212,correct,,49,C,2024-01-12_14h06.22.730,gca_discrimination,2022.2.4,143.8749553578073,
positions.xlsx,stimuli.xlsx,test.xlsx,stimuli/Social1.png,stimuli/Social2.png,stimuli/Nonsocial2.png,stimuli/Nonsocial1.png,stimuli/Test1.png,stimuli/Test2.png,"(-0.7, -0.5)",cs_plus_s,"(0.7, -0.5)",cs_plus_s,0,0,0,0,,,,,0,34,34,53,,268.6784452998545,ä,0.7047786000184715,correct,,49,C,2024-01-12_14h06.22.730,gca_discrimination,2022.2.4,143.8749553578073,
positions.xlsx,stimuli.xlsx,test.xlsx,stimuli/Social1.png,stimuli/Social2.png,stimuli/Nonsocial2.png,stimuli/Nonsocial1.png,stimuli/Test1.png,stimuli/Test2.png,"(0.7, -0.5)",cs_minus_ns,"(-0.7, -0.5)",cs_minus_ns,0,0,0,0,,,,,0,35,35,94,,271.5533371998463,ä,0.5346101000905037,correct,,49,C,2024-01-12_14h06.22.730,gca_discrimination,2022.2.4,143.8749553578073,
positions.xlsx,stimuli.xlsx,test.xlsx,stimuli/Social1.png,stimuli/Social2.png,stimuli/Nonsocial2.png,stimuli/Nonsocial1.png,stimuli/Test1.png,stimuli/Test2.png,"(-0.7, 0.5)",cs_plus_ns,"(0.7, 0.5)",cs_plus_ns,0,0,0,0,,,,,0,36,36,73,,274.34491280000657,ä,0.7433542001526803,correct,,49,C,2024-01-12_14h06.22.730,gca_discrimination,2022.2.4,143.8749553578073,
positions.xlsx,stimuli.xlsx,test.xlsx,stimuli/Social1.png,stimuli/Social2.png,stimuli/Nonsocial2.png,stimuli/Nonsocial1.png,stimuli/Test1.png,stimuli/Test2.png,"(-0.7, 0.5)",cs_plus_s,"(0.7, 0.5)",cs_minus_s,0,0,0,0,,,,,0,37,37,1,,277.67809199984185,l,0.6906191001180559,correct,,49,C,2024-01-12_14h06.22.730,gca_discrimination,2022.2.4,143.8749553578073,
positions.xlsx,stimuli.xlsx,test.xlsx,stimuli/Social1.png,stimuli/Social2.png,stimuli/Nonsocial2.png,stimuli/Nonsocial1.png,stimuli/Test1.png,stimuli/Test2.png,"(0.7, 0.5)",cs_plus_ns,"(0.7, -0.5)",cs_minus_ns,0,0,0,0,,,,,0,38,38,32,,280.8377191000618,None,,no answer,,49,C,2024-01-12_14h06.22.730,gca_discrimination,2022.2.4,143.8749553578073,
positions.xlsx,stimuli.xlsx,test.xlsx,stimuli/Social1.png,stimuli/Social2.png,stimuli/Nonsocial2.png,stimuli/Nonsocial1.png,stimuli/Test1.png,stimuli/Test2.png,"(0.7, 0.5)",cs_minus_ns,"(-0.7, -0.5)",cs_minus_ns,0,0,0,0,,,,,0,39,39,91,,285.4347510000225,None,,no answer,,49,C,2024-01-12_14h06.22.730,gca_discrimination,2022.2.4,143.8749553578073,
positions.xlsx,stimuli.xlsx,test.xlsx,stimuli/Social1.png,stimuli/Social2.png,stimuli/Nonsocial2.png,stimuli/Nonsocial1.png,stimuli/Test1.png,stimuli/Test2.png,"(0.7, 0.5)",cs_minus_ns,"(-0.7, -0.5)",cs_plus_ns,0,0,0,0,,,,,0,40,40,43,,289.8095791998785,l,0.5018633999861777,correct,,49,C,2024-01-12_14h06.22.730,gca_discrimination,2022.2.4,143.8749553578073,
positions.xlsx,stimuli.xlsx,test.xlsx,stimuli/Social1.png,stimuli/Social2.png,stimuli/Nonsocial2.png,stimuli/Nonsocial1.png,stimuli/Test1.png,stimuli/Test2.png,"(-0.7, -0.5)",cs_plus_s,"(0.7, 0.5)",cs_minus_s,0,0,0,0,,,,,0,41,41,4,,292.45530180004425,l,0.6081113000400364,correct,,49,C,2024-01-12_14h06.22.730,gca_discrimination,2022.2.4,143.8749553578073,
positions.xlsx,stimuli.xlsx,test.xlsx,stimuli/Social1.png,stimuli/Social2.png,stimuli/Nonsocial2.png,stimuli/Nonsocial1.png,stimuli/Test1.png,stimuli/Test2.png,"(-0.7, 0.5)",cs_minus_s,"(-0.7, -0.5)",cs_minus_s,0,0,0,0,,,,,0,42,42,60,,295.8093550999183,None,,no answer,,49,C,2024-01-12_14h06.22.730,gca_discrimination,2022.2.4,143.8749553578073,
positions.xlsx,stimuli.xlsx,test.xlsx,stimuli/Social1.png,stimuli/Social2.png,stimuli/Nonsocial2.png,stimuli/Nonsocial1.png,stimuli/Test1.png,stimuli/Test2.png,"(0.7, 0.5)",cs_minus_ns,"(-0.7, 0.5)",cs_plus_ns,0,0,0,0,,,,,0,43,43,42,,299.7536311999429,l,0.6065159002318978,correct,,49,C,2024-01-12_14h06.22.730,gca_discrimination,2022.2.4,143.8749553578073,
positions.xlsx,stimuli.xlsx,test.xlsx,stimuli/Social1.png,stimuli/Social2.png,stimuli/Nonsocial2.png,stimuli/Nonsocial1.png,stimuli/Test1.png,stimuli/Test2.png,"(0.7, 0.5)",cs_plus_ns,"(0.7, -0.5)",cs_plus_ns,0,0,0,0,,,,,0,44,44,80,,302.3993667999748,ä,0.6799409999512136,correct,,49,C,2024-01-12_14h06.22.730,gca_discrimination,2022.2.4,143.8749553578073,
positions.xlsx,stimuli.xlsx,test.xlsx,stimuli/Social1.png,stimuli/Social2.png,stimuli/Nonsocial2.png,stimuli/Nonsocial1.png,stimuli/Test1.png,stimuli/Test2.png,"(-0.7, -0.5)",cs_minus_s,"(-0.7, 0.5)",cs_minus_s,0,0,0,0,,,,,0,45,45,63,,304.9756513000466,ä,0.6252937002573162,correct,,49,C,2024-01-12_14h06.22.730,gca_discrimination,2022.2.4,143.8749553578073,
positions.xlsx,stimuli.xlsx,test.xlsx,stimuli/Social1.png,stimuli/Social2.png,stimuli/Nonsocial2.png,stimuli/Nonsocial1.png,stimuli/Test1.png,stimuli/Test2.png,"(0.7, -0.5)",cs_plus_ns,"(-0.7, 0.5)",cs_minus_ns,0,0,0,0,,,,,0,46,46,33,,308.17689600004815,l,1.7187067000195384,correct,,49,C,2024-01-12_14h06.22.730,gca_discrimination,2022.2.4,143.8749553578073,
positions.xlsx,stimuli.xlsx,test.xlsx,stimuli/Social1.png,stimuli/Social2.png,stimuli/Nonsocial2.png,stimuli/Nonsocial1.png,stimuli/Test1.png,stimuli/Test2.png,"(0.7, 0.5)",cs_minus_s,"(-0.7, 0.5)",cs_plus_s,0,0,0,0,,,,,0,47,47,18,,312.6003300000448,l,1.5361083000898361,correct,,49,C,2024-01-12_14h06.22.730,gca_discrimination,2022.2.4,143.8749553578073,
positions.xlsx,stimuli.xlsx,test.xlsx,stimuli/Social1.png,stimuli/Social2.png,stimuli/Nonsocial2.png,stimuli/Nonsocial1.png,stimuli/Test1.png,stimuli/Test2.png,"(0.7, -0.5)",cs_plus_ns,"(0.7, 0.5)",cs_plus_ns,0,0,0,0,,,,,0,48,48,83,,316.26682509994134,ä,0.5982885002158582,correct,,49,C,2024-01-12_14h06.22.730,gca_discrimination,2022.2.4,143.8749553578073,
positions.xlsx,stimuli.xlsx,test.xlsx,stimuli/Social1.png,stimuli/Social2.png,stimuli/Nonsocial2.png,stimuli/Nonsocial1.png,stimuli/Test1.png,stimuli/Test2.png,"(0.7, -0.5)",cs_minus_s,"(-0.7, -0.5)",cs_minus_s,0,0,0,0,,,,,0,49,49,70,,318.9681364998687,ä,1.1511802999302745,correct,,49,C,2024-01-12_14h06.22.730,gca_discrimination,2022.2.4,143.8749553578073,
positions.xlsx,stimuli.xlsx,test.xlsx,stimuli/Social1.png,stimuli/Social2.png,stimuli/Nonsocial2.png,stimuli/Nonsocial1.png,stimuli/Test1.png,stimuli/Test2.png,"(-0.7, 0.5)",cs_plus_s,"(-0.7, -0.5)",cs_minus_s,0,0,0,0,,,,,0,50,50,0,,322.01661959988996,ä,0.9113704001065344,wrong,,49,C,2024-01-12_14h06.22.730,gca_discrimination,2022.2.4,143.8749553578073,
positions.xlsx,stimuli.xlsx,test.xlsx,stimuli/Social1.png,stimuli/Social2.png,stimuli/Nonsocial2.png,stimuli/Nonsocial1.png,stimuli/Test1.png,stimuli/Test2.png,"(0.7, -0.5)",cs_minus_s,"(-0.7, 0.5)",cs_minus_s,0,0,0,0,,,,,0,51,51,69,,325.085928699933,ä,0.7532982002012432,correct,,49,C,2024-01-12_14h06.22.730,gca_discrimination,2022.2.4,143.8749553578073,
positions.xlsx,stimuli.xlsx,test.xlsx,stimuli/Social1.png,stimuli/Social2.png,stimuli/Nonsocial2.png,stimuli/Nonsocial1.png,stimuli/Test1.png,stimuli/Test2.png,"(0.7, -0.5)",cs_minus_ns,"(0.7, 0.5)",cs_minus_ns,0,0,0,0,,,,,0,52,52,95,,328.1691435999237,ä,0.6227965001016855,correct,,49,C,2024-01-12_14h06.22.730,gca_discrimination,2022.2.4,143.8749553578073,
positions.xlsx,stimuli.xlsx,test.xlsx,stimuli/Social1.png,stimuli/Social2.png,stimuli/Nonsocial2.png,stimuli/Nonsocial1.png,stimuli/Test1.png,stimuli/Test2.png,"(-0.7, -0.5)",cs_minus_s,"(-0.7, 0.5)",cs_plus_s,0,0,0,0,,,,,0,53,53,15,,331.05096119991504,l,0.5322434001136571,correct,,49,C,2024-01-12_14h06.22.730,gca_discrimination,2022.2.4,143.8749553578073,
positions.xlsx,stimuli.xlsx,test.xlsx,stimuli/Social1.png,stimuli/Social2.png,stimuli/Nonsocial2.png,stimuli/Nonsocial1.png,stimuli/Test1.png,stimuli/Test2.png,"(-0.7, -0.5)",cs_minus_ns,"(0.7, -0.5)",cs_minus_ns,0,0,0,0,,,,,0,54,54,89,,333.6133844999131,ä,0.4978999001905322,correct,,49,C,2024-01-12_14h06.22.730,gca_discrimination,2022.2.4,143.8749553578073,
positions.xlsx,stimuli.xlsx,test.xlsx,stimuli/Social1.png,stimuli/Social2.png,stimuli/Nonsocial2.png,stimuli/Nonsocial1.png,stimuli/Test1.png,stimuli/Test2.png,"(0.7, 0.5)",cs_minus_ns,"(0.7, -0.5)",cs_plus_ns,0,0,0,0,,,,,0,55,55,44,,336.19659299985506,l,0.49152340018190444,correct,,49,C,2024-01-12_14h06.22.730,gca_discrimination,2022.2.4,143.8749553578073,
positions.xlsx,stimuli.xlsx,test.xlsx,stimuli/Social1.png,stimuli/Social2.png,stimuli/Nonsocial2.png,stimuli/Nonsocial1.png,stimuli/Test1.png,stimuli/Test2.png,"(-0.7, -0.5)",cs_minus_s,"(0.7, 0.5)",cs_plus_s,0,0,0,0,,,,,0,56,56,16,,339.18261919985525,l,0.8415986001491547,correct,,49,C,2024-01-12_14h06.22.730,gca_discrimination,2022.2.4,143.8749553578073,
positions.xlsx,stimuli.xlsx,test.xlsx,stimuli/Social1.png,stimuli/Social2.png,stimuli/Nonsocial2.png,stimuli/Nonsocial1.png,stimuli/Test1.png,stimuli/Test2.png,"(-0.7, -0.5)",cs_minus_ns,"(0.7, -0.5)",cs_plus_ns,0,0,0,0,,,,,0,57,57,41,,342.6060893998947,l,0.44973160000517964,correct,,49,C,2024-01-12_14h06.22.730,gca_discrimination,2022.2.4,143.8749553578073,
positions.xlsx,stimuli.xlsx,test.xlsx,stimuli/Social1.png,stimuli/Social2.png,stimuli/Nonsocial2.png,stimuli/Nonsocial1.png,stimuli/Test1.png,stimuli/Test2.png,"(-0.7, 0.5)",cs_minus_s,"(-0.7, -0.5)",cs_plus_s,0,0,0,0,,,,,0,58,58,12,,345.2032335998956,l,0.5084544001147151,correct,,49,C,2024-01-12_14h06.22.730,gca_discrimination,2022.2.4,143.8749553578073,
positions.xlsx,stimuli.xlsx,test.xlsx,stimuli/Social1.png,stimuli/Social2.png,stimuli/Nonsocial2.png,stimuli/Nonsocial1.png,stimuli/Test1.png,stimuli/Test2.png,"(-0.7, 0.5)",cs_minus_ns,"(-0.7, -0.5)",cs_minus_ns,0,0,0,0,,,,,0,59,59,84,,347.86281719990075,ä,0.5128047000616789,correct,,49,C,2024-01-12_14h06.22.730,gca_discrimination,2022.2.4,143.8749553578073,
positions.xlsx,stimuli.xlsx,test.xlsx,stimuli/Social1.png,stimuli/Social2.png,stimuli/Nonsocial2.png,stimuli/Nonsocial1.png,stimuli/Test1.png,stimuli/Test2.png,"(-0.7, -0.5)",cs_plus_ns,"(0.7, 0.5)",cs_plus_ns,0,0,0,0,,,,,0,60,60,76,,350.6960575999692,ä,0.7351867000106722,correct,,49,C,2024-01-12_14h06.22.730,gca_discrimination,2022.2.4,143.8749553578073,
positions.xlsx,stimuli.xlsx,test.xlsx,stimuli/Social1.png,stimuli/Social2.png,stimuli/Nonsocial2.png,stimuli/Nonsocial1.png,stimuli/Test1.png,stimuli/Test2.png,"(0.7, 0.5)",cs_plus_ns,"(-0.7, 0.5)",cs_plus_ns,0,0,0,0,,,,,0,61,61,78,,353.93203859985806,ä,0.5561329000629485,correct,,49,C,2024-01-12_14h06.22.730,gca_discrimination,2022.2.4,143.8749553578073,
positions.xlsx,stimuli.xlsx,test.xlsx,stimuli/Social1.png,stimuli/Social2.png,stimuli/Nonsocial2.png,stimuli/Nonsocial1.png,stimuli/Test1.png,stimuli/Test2.png,"(0.7, -0.5)",cs_plus_ns,"(-0.7, -0.5)",cs_plus_ns,0,0,0,0,,,,,0,62,62,82,,356.8138307998888,ä,0.346234800061211,correct,,49,C,2024-01-12_14h06.22.730,gca_discrimination,2022.2.4,143.8749553578073,
positions.xlsx,stimuli.xlsx,test.xlsx,stimuli/Social1.png,stimuli/Social2.png,stimuli/Nonsocial2.png,stimuli/Nonsocial1.png,stimuli/Test1.png,stimuli/Test2.png,"(-0.7, 0.5)",cs_plus_ns,"(-0.7, -0.5)",cs_plus_ns,0,0,0,0,,,,,0,63,63,72,,359.77208599983715,ä,0.48386449995450675,correct,,49,C,2024-01-12_14h06.22.730,gca_discrimination,2022.2.4,143.8749553578073,
positions.xlsx,stimuli.xlsx,test.xlsx,stimuli/Social1.png,stimuli/Social2.png,stimuli/Nonsocial2.png,stimuli/Nonsocial1.png,stimuli/Test1.png,stimuli/Test2.png,"(0.7, 0.5)",cs_plus_ns,"(-0.7, 0.5)",cs_minus_ns,0,0,0,0,,,,,0,64,64,30,,362.14701589988545,l,0.437122399918735,correct,,49,C,2024-01-12_14h06.22.730,gca_discrimination,2022.2.4,143.8749553578073,
positions.xlsx,stimuli.xlsx,test.xlsx,stimuli/Social1.png,stimuli/Social2.png,stimuli/Nonsocial2.png,stimuli/Nonsocial1.png,stimuli/Test1.png,stimuli/Test2.png,"(0.7, -0.5)",cs_minus_s,"(-0.7, 0.5)",cs_plus_s,0,0,0,0,,,,,0,65,65,21,,364.40387549996376,l,0.8522002999670804,correct,,49,C,2024-01-12_14h06.22.730,gca_discrimination,2022.2.4,143.8749553578073,
positions.xlsx,stimuli.xlsx,test.xlsx,stimuli/Social1.png,stimuli/Social2.png,stimuli/Nonsocial2.png,stimuli/Nonsocial1.png,stimuli/Test1.png,stimuli/Test2.png,"(0.7, 0.5)",cs_plus_s,"(-0.7, 0.5)",cs_plus_s,0,0,0,0,,,,,0,66,66,54,,367.6189871998504,ä,0.5328273000195622,correct,,49,C,2024-01-12_14h06.22.730,gca_discrimination,2022.2.4,143.8749553578073,
positions.xlsx,stimuli.xlsx,test.xlsx,stimuli/Social1.png,stimuli/Social2.png,stimuli/Nonsocial2.png,stimuli/Nonsocial1.png,stimuli/Test1.png,stimuli/Test2.png,"(-0.7, -0.5)",cs_plus_ns,"(0.7, -0.5)",cs_minus_ns,0,0,0,0,,,,,0,67,67,29,,370.24386719986796,l,1.387462300248444,correct,,49,C,2024-01-12_14h06.22.730,gca_discrimination,2022.2.4,143.8749553578073,
positions.xlsx,stimuli.xlsx,test.xlsx,stimuli/Social1.png,stimuli/Social2.png,stimuli/Nonsocial2.png,stimuli/Nonsocial1.png,stimuli/Test1.png,stimuli/Test2.png,"(-0.7, 0.5)",cs_minus_ns,"(0.7, -0.5)",cs_minus_ns,0,0,0,0,,,,,0,68,68,86,,374.2784448999446,l,0.4253239000681788,wrong,,49,C,2024-01-12_14h06.22.730,gca_discrimination,2022.2.4,143.8749553578073,
positions.xlsx,stimuli.xlsx,test.xlsx,stimuli/Social1.png,stimuli/Social2.png,stimuli/Nonsocial2.png,stimuli/Nonsocial1.png,stimuli/Test1.png,stimuli/Test2.png,"(-0.7, 0.5)",cs_plus_ns,"(-0.7, -0.5)",cs_minus_ns,0,0,0,0,,,,,0,69,69,24,,376.7783508999273,l,0.6053721001371741,correct,,49,C,2024-01-12_14h06.22.730,gca_discrimination,2022.2.4,143.8749553578073,
positions.xlsx,stimuli.xlsx,test.xlsx,stimuli/Social1.png,stimuli/Social2.png,stimuli/Nonsocial2.png,stimuli/Nonsocial1.png,stimuli/Test1.png,stimuli/Test2.png,"(-0.7, 0.5)",cs_plus_s,"(0.7, -0.5)",cs_plus_s,0,0,0,0,,,,,0,70,70,50,,379.8823613000568,ä,0.7572005002293736,correct,,49,C,2024-01-12_14h06.22.730,gca_discrimination,2022.2.4,143.8749553578073,
positions.xlsx,stimuli.xlsx,test.xlsx,stimuli/Social1.png,stimuli/Social2.png,stimuli/Nonsocial2.png,stimuli/Nonsocial1.png,stimuli/Test1.png,stimuli/Test2.png,"(-0.7, -0.5)",cs_plus_s,"(-0.7, 0.5)",cs_plus_s,0,0,0,0,,,,,0,71,71,51,,382.8892111000605,ä,0.5186239001341164,correct,,49,C,2024-01-12_14h06.22.730,gca_discrimination,2022.2.4,143.8749553578073,
positions.xlsx,stimuli.xlsx,test.xlsx,stimuli/Social1.png,stimuli/Social2.png,stimuli/Nonsocial2.png,stimuli/Nonsocial1.png,stimuli/Test1.png,stimuli/Test2.png,"(0.7, 0.5)",cs_minus_ns,"(-0.7, 0.5)",cs_minus_ns,0,0,0,0,,,,,0,72,72,90,,385.66692129988223,ä,1.0047488999553025,correct,,49,C,2024-01-12_14h06.22.730,gca_discrimination,2022.2.4,143.8749553578073,
positions.xlsx,stimuli.xlsx,test.xlsx,stimuli/Social1.png,stimuli/Social2.png,stimuli/Nonsocial2.png,stimuli/Nonsocial1.png,stimuli/Test1.png,stimuli/Test2.png,"(0.7, -0.5)",cs_minus_s,"(0.7, 0.5)",cs_minus_s,0,0,0,0,,,,,0,73,73,71,,388.8820350000169,ä,0.48596520023420453,correct,,49,C,2024-01-12_14h06.22.730,gca_discrimination,2022.2.4,143.8749553578073,
positions.xlsx,stimuli.xlsx,test.xlsx,stimuli/Social1.png,stimuli/Social2.png,stimuli/Nonsocial2.png,stimuli/Nonsocial1.png,stimuli/Test1.png,stimuli/Test2.png,"(0.7, -0.5)",cs_minus_ns,"(-0.7, -0.5)",cs_plus_ns,0,0,0,0,,,,,0,74,74,46,,391.55560349998996,l,0.5325273000635207,correct,,49,C,2024-01-12_14h06.22.730,gca_discrimination,2022.2.4,143.8749553578073,
positions.xlsx,stimuli.xlsx,test.xlsx,stimuli/Social1.png,stimuli/Social2.png,stimuli/Nonsocial2.png,stimuli/Nonsocial1.png,stimuli/Test1.png,stimuli/Test2.png,"(0.7, -0.5)",cs_plus_ns,"(0.7, 0.5)",cs_minus_ns,0,0,0,0,,,,,0,75,75,35,,394.71514549991116,l,1.2765700002200902,correct,,49,C,2024-01-12_14h06.22.730,gca_discrimination,2022.2.4,143.8749553578073,
positions.xlsx,stimuli.xlsx,test.xlsx,stimuli/Social1.png,stimuli/Social2.png,stimuli/Nonsocial2.png,stimuli/Nonsocial1.png,stimuli/Test1.png,stimuli/Test2.png,"(-0.7, 0.5)",cs_minus_ns,"(-0.7, -0.5)",cs_plus_ns,0,0,0,0,,,,,0,76,76,36,,397.85392499994487,l,0.4344701000954956,correct,,49,C,2024-01-12_14h06.22.730,gca_discrimination,2022.2.4,143.8749553578073,
positions.xlsx,stimuli.xlsx,test.xlsx,stimuli/Social1.png,stimuli/Social2.png,stimuli/Nonsocial2.png,stimuli/Nonsocial1.png,stimuli/Test1.png,stimuli/Test2.png,"(-0.7, 0.5)",cs_minus_s,"(0.7, -0.5)",cs_minus_s,0,0,0,0,,,,,0,77,77,62,,400.6246118999552,ä,0.4326024001929909,correct,,49,C,2024-01-12_14h06.22.730,gca_discrimination,2022.2.4,143.8749553578073,
positions.xlsx,stimuli.xlsx,test.xlsx,stimuli/Social1.png,stimuli/Social2.png,stimuli/Nonsocial2.png,stimuli/Nonsocial1.png,stimuli/Test1.png,stimuli/Test2.png,"(-0.7, 0.5)",cs_plus_s,"(0.7, -0.5)",cs_minus_s,0,0,0,0,,,,,0,78,78,2,,403.2356654999312,l,0.6836644001305103,correct,,49,C,2024-01-12_14h06.22.730,gca_discrimination,2022.2.4,143.8749553578073,
positions.xlsx,stimuli.xlsx,test.xlsx,stimuli/Social1.png,stimuli/Social2.png,stimuli/Nonsocial2.png,stimuli/Nonsocial1.png,stimuli/Test1.png,stimuli/Test2.png,"(0.7, 0.5)",cs_plus_ns,"(-0.7, -0.5)",cs_plus_ns,0,0,0,0,,,,,0,79,79,79,,406.70773659995757,ä,0.5882303002290428,correct,,49,C,2024-01-12_14h06.22.730,gca_discrimination,2022.2.4,143.8749553578073,
positions.xlsx,stimuli.xlsx,test.xlsx,stimuli/Social1.png,stimuli/Social2.png,stimuli/Nonsocial2.png,stimuli/Nonsocial1.png,stimuli/Test1.png,stimuli/Test2.png,"(-0.7, -0.5)",cs_minus_ns,"(-0.7, 0.5)",cs_plus_ns,0,0,0,0,,,,,0,80,80,39,,409.5409840999637,l,1.3157028001733124,correct,,49,C,2024-01-12_14h06.22.730,gca_discrimination,2022.2.4,143.8749553578073,
positions.xlsx,stimuli.xlsx,test.xlsx,stimuli/Social1.png,stimuli/Social2.png,stimuli/Nonsocial2.png,stimuli/Nonsocial1.png,stimuli/Test1.png,stimuli/Test2.png,"(0.7, 0.5)",cs_plus_s,"(-0.7, 0.5)",cs_minus_s,0,0,0,0,,,,,0,81,81,6,,413.5407571999822,l,1.835268500028178,correct,,49,C,2024-01-12_14h06.22.730,gca_discrimination,2022.2.4,143.8749553578073,
positions.xlsx,stimuli.xlsx,test.xlsx,stimuli/Social1.png,stimuli/Social2.png,stimuli/Nonsocial2.png,stimuli/Nonsocial1.png,stimuli/Test1.png,stimuli/Test2.png,"(-0.7, -0.5)",cs_minus_ns,"(-0.7, 0.5)",cs_minus_ns,0,0,0,0,,,,,0,82,82,87,,417.4503786000423,ä,0.49346130015328526,correct,,49,C,2024-01-12_14h06.22.730,gca_discrimination,2022.2.4,143.8749553578073,
positions.xlsx,stimuli.xlsx,test.xlsx,stimuli/Social1.png,stimuli/Social2.png,stimuli/Nonsocial2.png,stimuli/Nonsocial1.png,stimuli/Test1.png,stimuli/Test2.png,"(-0.7, -0.5)",cs_plus_ns,"(0.7, 0.5)",cs_minus_ns,0,0,0,0,,,,,0,83,83,28,,419.8878126000054,l,0.8396558999083936,correct,,49,C,2024-01-12_14h06.22.730,gca_discrimination,2022.2.4,143.8749553578073,
positions.xlsx,stimuli.xlsx,test.xlsx,stimuli/Social1.png,stimuli/Social2.png,stimuli/Nonsocial2.png,stimuli/Nonsocial1.png,stimuli/Test1.png,stimuli/Test2.png,"(-0.7, 0.5)",cs_minus_ns,"(0.7, -0.5)",cs_plus_ns,0,0,0,0,,,,,0,84,84,38,,422.8806809000671,l,0.4153472001198679,correct,,49,C,2024-01-12_14h06.22.730,gca_discrimination,2022.2.4,143.8749553578073,
positions.xlsx,stimuli.xlsx,test.xlsx,stimuli/Social1.png,stimuli/Social2.png,stimuli/Nonsocial2.png,stimuli/Nonsocial1.png,stimuli/Test1.png,stimuli/Test2.png,"(-0.7, 0.5)",cs_plus_ns,"(0.7, -0.5)",cs_plus_ns,0,0,0,0,,,,,0,85,85,74,,425.38759489986114,ä,0.5082904000300914,correct,,49,C,2024-01-12_14h06.22.730,gca_discrimination,2022.2.4,143.8749553578073,
positions.xlsx,stimuli.xlsx,test.xlsx,stimuli/Social1.png,stimuli/Social2.png,stimuli/Nonsocial2.png,stimuli/Nonsocial1.png,stimuli/Test1.png,stimuli/Test2.png,"(0.7, -0.5)",cs_minus_s,"(-0.7, -0.5)",cs_plus_s,0,0,0,0,,,,,0,86,86,22,,427.81802359991707,l,0.9973679000977427,correct,,49,C,2024-01-12_14h06.22.730,gca_discrimination,2022.2.4,143.8749553578073,
positions.xlsx,stimuli.xlsx,test.xlsx,stimuli/Social1.png,stimuli/Social2.png,stimuli/Nonsocial2.png,stimuli/Nonsocial1.png,stimuli/Test1.png,stimuli/Test2.png,"(-0.7, -0.5)",cs_plus_ns,"(0.7, -0.5)",cs_plus_ns,0,0,0,0,,,,,0,87,87,77,,431.1373546998948,ä,0.7425786999519914,correct,,49,C,2024-01-12_14h06.22.730,gca_discrimination,2022.2.4,143.8749553578073,
positions.xlsx,stimuli.xlsx,test.xlsx,stimuli/Social1.png,stimuli/Social2.png,stimuli/Nonsocial2.png,stimuli/Nonsocial1.png,stimuli/Test1.png,stimuli/Test2.png,"(0.7, 0.5)",cs_minus_ns,"(0.7, -0.5)",cs_minus_ns,0,0,0,0,,,,,0,88,88,92,,434.15806970000267,ä,0.5701230000704527,correct,,49,C,2024-01-12_14h06.22.730,gca_discrimination,2022.2.4,143.8749553578073,
positions.xlsx,stimuli.xlsx,test.xlsx,stimuli/Social1.png,stimuli/Social2.png,stimuli/Nonsocial2.png,stimuli/Nonsocial1.png,stimuli/Test1.png,stimuli/Test2.png,"(0.7, 0.5)",cs_minus_s,"(-0.7, -0.5)",cs_plus_s,0,0,0,0,,,,,0,89,89,19,,437.28984039998613,l,0.45420109992846847,correct,,49,C,2024-01-12_14h06.22.730,gca_discrimination,2022.2.4,143.8749553578073,
positions.xlsx,stimuli.xlsx,test.xlsx,stimuli/Social1.png,stimuli/Social2.png,stimuli/Nonsocial2.png,stimuli/Nonsocial1.png,stimuli/Test1.png,stimuli/Test2.png,"(0.7, 0.5)",cs_plus_s,"(0.7, -0.5)",cs_minus_s,0,0,0,0,,,,,0,90,90,8,,440.5049962999765,l,0.9589075001422316,correct,,49,C,2024-01-12_14h06.22.730,gca_discrimination,2022.2.4,143.8749553578073,
positions.xlsx,stimuli.xlsx,test.xlsx,stimuli/Social1.png,stimuli/Social2.png,stimuli/Nonsocial2.png,stimuli/Nonsocial1.png,stimuli/Test1.png,stimuli/Test2.png,"(0.7, 0.5)",cs_plus_s,"(-0.7, -0.5)",cs_plus_s,0,0,0,0,,,,,0,91,91,55,,444.19241439993493,ä,0.6164063001051545,correct,,49,C,2024-01-12_14h06.22.730,gca_discrimination,2022.2.4,143.8749553578073,
positions.xlsx,stimuli.xlsx,test.xlsx,stimuli/Social1.png,stimuli/Social2.png,stimuli/Nonsocial2.png,stimuli/Nonsocial1.png,stimuli/Test1.png,stimuli/Test2.png,"(0.7, -0.5)",cs_plus_s,"(0.7, 0.5)",cs_minus_s,0,0,0,0,,,,,0,92,92,11,,446.7408890000079,l,0.5316329998895526,correct,,49,C,2024-01-12_14h06.22.730,gca_discrimination,2022.2.4,143.8749553578073,
positions.xlsx,stimuli.xlsx,test.xlsx,stimuli/Social1.png,stimuli/Social2.png,stimuli/Nonsocial2.png,stimuli/Nonsocial1.png,stimuli/Test1.png,stimuli/Test2.png,"(0.7, 0.5)",cs_minus_s,"(0.7, -0.5)",cs_minus_s,0,0,0,0,,,,,0,93,93,68,,449.41443550004624,ä,1.4414123999886215,correct,,49,C,2024-01-12_14h06.22.730,gca_discrimination,2022.2.4,143.8749553578073,
positions.xlsx,stimuli.xlsx,test.xlsx,stimuli/Social1.png,stimuli/Social2.png,stimuli/Nonsocial2.png,stimuli/Nonsocial1.png,stimuli/Test1.png,stimuli/Test2.png,"(-0.7, -0.5)",cs_plus_s,"(0.7, -0.5)",cs_minus_s,0,0,0,0,,,,,0,94,94,5,,452.74757059989497,l,0.5643730002921075,correct,,49,C,2024-01-12_14h06.22.730,gca_discrimination,2022.2.4,143.8749553578073,
positions.xlsx,stimuli.xlsx,test.xlsx,stimuli/Social1.png,stimuli/Social2.png,stimuli/Nonsocial2.png,stimuli/Nonsocial1.png,stimuli/Test1.png,stimuli/Test2.png,"(0.7, -0.5)",cs_plus_s,"(-0.7, 0.5)",cs_plus_s,0,0,0,0,,,,,0,95,95,57,,455.4419090000447,ä,1.0308362999930978,correct,,49,C,2024-01-12_14h06.22.730,gca_discrimination,2022.2.4,143.8749553578073,
