posFile,stimFile,testFile,cs_plus_s,cs_minus_s,cs_plus_ns,cs_minus_ns,test1,test2,position1,trialtype,position2,comptype,blocks.thisRepN,blocks.thisTrialN,blocks.thisN,blocks.thisIndex,learning_trials.thisRepN,learning_trials.thisTrialN,learning_trials.thisN,learning_trials.thisIndex,trials.thisRepN,trials.thisTrialN,trials.thisN,trials.thisIndex,textStart.started,key.started,key.keys,key.rt,correctness,textStartTask.started,participant,group,date,expName,psychopyVersion,frameRate,
positions.xlsx,stimuli.xlsx,test.xlsx,stimuli/Social1.png,stimuli/Social2.png,stimuli/Nonsocial2.png,stimuli/Nonsocial1.png,stimuli/Test1.png,stimuli/Test2.png,"(0.7, -0.5)",test2,"(-0.7, 0.5)",test1,0,0,0,0,0,0,0,4,,,,,11.588428999995813,93.84217369998805,l,1.8697088999906555,wrong,,30,C,2023-12-14_17h34.12.203,gca_discrimination,2022.2.4,144.0173049560548,
positions.xlsx,stimuli.xlsx,test.xlsx,stimuli/Social1.png,stimuli/Social2.png,stimuli/Nonsocial2.png,stimuli/Nonsocial1.png,stimuli/Test1.png,stimuli/Test2.png,"(-0.7, -0.5)",test1,"(0.7, 0.5)",test2,0,0,0,0,0,1,1,8,,,,,,99.76555909996387,ä,0.3626036999048665,correct,,30,C,2023-12-14_17h34.12.203,gca_discrimination,2022.2.4,144.0173049560548,
positions.xlsx,stimuli.xlsx,test.xlsx,stimuli/Social1.png,stimuli/Social2.png,stimuli/Nonsocial2.png,stimuli/Nonsocial1.png,stimuli/Test1.png,stimuli/Test2.png,"(-0.7, -0.5)",test2,"(-0.7, 0.5)",test2,0,0,0,0,0,2,2,2,,,,,,104.68203339993488,l,0.8456721999682486,correct,,30,C,2023-12-14_17h34.12.203,gca_discrimination,2022.2.4,144.0173049560548,
positions.xlsx,stimuli.xlsx,test.xlsx,stimuli/Social1.png,stimuli/Social2.png,stimuli/Nonsocial2.png,stimuli/Nonsocial1.png,stimuli/Test1.png,stimuli/Test2.png,"(0.7, 0.5)",test2,"(0.7, -0.5)",test1,0,0,0,0,0,3,3,6,,,,,,109.8137340999674,ä,0.36999239993747324,correct,,30,C,2023-12-14_17h34.12.203,gca_discrimination,2022.2.4,144.0173049560548,
positions.xlsx,stimuli.xlsx,test.xlsx,stimuli/Social1.png,stimuli/Social2.png,stimuli/Nonsocial2.png,stimuli/Nonsocial1.png,stimuli/Test1.png,stimuli/Test2.png,"(-0.7, 0.5)",test2,"(-0.7, -0.5)",test2,0,0,0,0,0,4,4,1,,,,,,114.26501450000796,l,0.4946442999644205,correct,,30,C,2023-12-14_17h34.12.203,gca_discrimination,2022.2.4,144.0173049560548,
positions.xlsx,stimuli.xlsx,test.xlsx,stimuli/Social1.png,stimuli/Social2.png,stimuli/Nonsocial2.png,stimuli/Nonsocial1.png,stimuli/Test1.png,stimuli/Test2.png,"(-0.7, -0.5)",test2,"(0.7, 0.5)",test2,0,0,0,0,0,5,5,7,,,,,,119.38981919991784,l,0.4098630000371486,correct,,30,C,2023-12-14_17h34.12.203,gca_discrimination,2022.2.4,144.0173049560548,
positions.xlsx,stimuli.xlsx,test.xlsx,stimuli/Social1.png,stimuli/Social2.png,stimuli/Nonsocial2.png,stimuli/Nonsocial1.png,stimuli/Test1.png,stimuli/Test2.png,"(0.7, 0.5)",test1,"(0.7, -0.5)",test2,0,0,0,0,0,6,6,11,,,,,,123.67437010002322,ä,0.4453708999790251,correct,,30,C,2023-12-14_17h34.12.203,gca_discrimination,2022.2.4,144.0173049560548,
positions.xlsx,stimuli.xlsx,test.xlsx,stimuli/Social1.png,stimuli/Social2.png,stimuli/Nonsocial2.png,stimuli/Nonsocial1.png,stimuli/Test1.png,stimuli/Test2.png,"(0.7, 0.5)",test2,"(-0.7, 0.5)",test1,0,0,0,0,0,7,7,13,,,,,,128.86165829992387,ä,0.49081099999602884,correct,,30,C,2023-12-14_17h34.12.203,gca_discrimination,2022.2.4,144.0173049560548,
positions.xlsx,stimuli.xlsx,test.xlsx,stimuli/Social1.png,stimuli/Social2.png,stimuli/Nonsocial2.png,stimuli/Nonsocial1.png,stimuli/Test1.png,stimuli/Test2.png,"(-0.7, 0.5)",test2,"(0.7, 0.5)",test1,0,0,0,0,0,8,8,3,,,,,,133.63230159995146,ä,0.35192769998684525,correct,,30,C,2023-12-14_17h34.12.203,gca_discrimination,2022.2.4,144.0173049560548,
positions.xlsx,stimuli.xlsx,test.xlsx,stimuli/Social1.png,stimuli/Social2.png,stimuli/Nonsocial2.png,stimuli/Nonsocial1.png,stimuli/Test1.png,stimuli/Test2.png,"(0.7, -0.5)",test1,"(0.7, 0.5)",test2,0,0,0,0,0,9,9,0,,,,,,137.9932158999145,ä,0.655560199986212,correct,,30,C,2023-12-14_17h34.12.203,gca_discrimination,2022.2.4,144.0173049560548,
positions.xlsx,stimuli.xlsx,test.xlsx,stimuli/Social1.png,stimuli/Social2.png,stimuli/Nonsocial2.png,stimuli/Nonsocial1.png,stimuli/Test1.png,stimuli/Test2.png,"(-0.7, -0.5)",test2,"(0.7, -0.5)",test2,0,0,0,0,0,10,10,9,,,,,,142.4652963000117,l,0.4145881000440568,correct,,30,C,2023-12-14_17h34.12.203,gca_discrimination,2022.2.4,144.0173049560548,
positions.xlsx,stimuli.xlsx,test.xlsx,stimuli/Social1.png,stimuli/Social2.png,stimuli/Nonsocial2.png,stimuli/Nonsocial1.png,stimuli/Test1.png,stimuli/Test2.png,"(-0.7, 0.5)",test2,"(0.7, -0.5)",test1,0,0,0,0,0,11,11,12,,,,,,146.9512796999188,ä,0.3130982000147924,correct,,30,C,2023-12-14_17h34.12.203,gca_discrimination,2022.2.4,144.0173049560548,
positions.xlsx,stimuli.xlsx,test.xlsx,stimuli/Social1.png,stimuli/Social2.png,stimuli/Nonsocial2.png,stimuli/Nonsocial1.png,stimuli/Test1.png,stimuli/Test2.png,"(-0.7, 0.5)",test1,"(0.7, -0.5)",test1,0,0,0,0,0,12,12,5,,,,,,151.26358089991845,l,0.4011929000262171,correct,,30,C,2023-12-14_17h34.12.203,gca_discrimination,2022.2.4,144.0173049560548,
positions.xlsx,stimuli.xlsx,test.xlsx,stimuli/Social1.png,stimuli/Social2.png,stimuli/Nonsocial2.png,stimuli/Nonsocial1.png,stimuli/Test1.png,stimuli/Test2.png,"(0.7, -0.5)",test1,"(0.7, 0.5)",test1,0,0,0,0,0,13,13,10,,,,,,156.03422749997117,l,0.34217260009609163,correct,,30,C,2023-12-14_17h34.12.203,gca_discrimination,2022.2.4,144.0173049560548,
positions.xlsx,stimuli.xlsx,test.xlsx,stimuli/Social1.png,stimuli/Social2.png,stimuli/Nonsocial2.png,stimuli/Nonsocial1.png,stimuli/Test1.png,stimuli/Test2.png,"(-0.7, -0.5)",cs_minus_s,"(0.7, -0.5)",cs_plus_s,0,0,0,0,,,,,0,0,0,17,,172.92246869998053,ä,0.5819900000933558,correct,158.72853730001952,30,C,2023-12-14_17h34.12.203,gca_discrimination,2022.2.4,144.0173049560548,
positions.xlsx,stimuli.xlsx,test.xlsx,stimuli/Social1.png,stimuli/Social2.png,stimuli/Nonsocial2.png,stimuli/Nonsocial1.png,stimuli/Test1.png,stimuli/Test2.png,"(0.7, 0.5)",cs_minus_s,"(-0.7, 0.5)",cs_plus_s,0,0,0,0,,,,,0,1,1,18,,176.30426869995426,l,0.8797406998928636,wrong,,30,C,2023-12-14_17h34.12.203,gca_discrimination,2022.2.4,144.0173049560548,
positions.xlsx,stimuli.xlsx,test.xlsx,stimuli/Social1.png,stimuli/Social2.png,stimuli/Nonsocial2.png,stimuli/Nonsocial1.png,stimuli/Test1.png,stimuli/Test2.png,"(-0.7, 0.5)",cs_plus_ns,"(-0.7, -0.5)",cs_plus_ns,0,0,0,0,,,,,0,2,2,72,,179.5333170000231,l,0.3714089000131935,correct,,30,C,2023-12-14_17h34.12.203,gca_discrimination,2022.2.4,144.0173049560548,
positions.xlsx,stimuli.xlsx,test.xlsx,stimuli/Social1.png,stimuli/Social2.png,stimuli/Nonsocial2.png,stimuli/Nonsocial1.png,stimuli/Test1.png,stimuli/Test2.png,"(0.7, 0.5)",cs_plus_s,"(-0.7, -0.5)",cs_plus_s,0,0,0,0,,,,,0,3,3,55,,182.65817549999338,l,0.4382702000439167,correct,,30,C,2023-12-14_17h34.12.203,gca_discrimination,2022.2.4,144.0173049560548,
positions.xlsx,stimuli.xlsx,test.xlsx,stimuli/Social1.png,stimuli/Social2.png,stimuli/Nonsocial2.png,stimuli/Nonsocial1.png,stimuli/Test1.png,stimuli/Test2.png,"(0.7, -0.5)",cs_plus_ns,"(-0.7, -0.5)",cs_minus_ns,0,0,0,0,,,,,0,4,4,34,,185.15116929996293,ä,0.28925549995619804,correct,,30,C,2023-12-14_17h34.12.203,gca_discrimination,2022.2.4,144.0173049560548,
positions.xlsx,stimuli.xlsx,test.xlsx,stimuli/Social1.png,stimuli/Social2.png,stimuli/Nonsocial2.png,stimuli/Nonsocial1.png,stimuli/Test1.png,stimuli/Test2.png,"(-0.7, -0.5)",cs_plus_ns,"(0.7, 0.5)",cs_plus_ns,0,0,0,0,,,,,0,5,5,76,,187.42886169999838,l,0.47551040002144873,correct,,30,C,2023-12-14_17h34.12.203,gca_discrimination,2022.2.4,144.0173049560548,
positions.xlsx,stimuli.xlsx,test.xlsx,stimuli/Social1.png,stimuli/Social2.png,stimuli/Nonsocial2.png,stimuli/Nonsocial1.png,stimuli/Test1.png,stimuli/Test2.png,"(0.7, 0.5)",cs_plus_ns,"(-0.7, -0.5)",cs_plus_ns,0,0,0,0,,,,,0,6,6,79,,190.0676289999392,l,0.2762792999856174,correct,,30,C,2023-12-14_17h34.12.203,gca_discrimination,2022.2.4,144.0173049560548,
positions.xlsx,stimuli.xlsx,test.xlsx,stimuli/Social1.png,stimuli/Social2.png,stimuli/Nonsocial2.png,stimuli/Nonsocial1.png,stimuli/Test1.png,stimuli/Test2.png,"(-0.7, 0.5)",cs_minus_ns,"(0.7, 0.5)",cs_plus_ns,0,0,0,0,,,,,0,7,7,37,,192.75509220000822,ä,0.30073979997541755,correct,,30,C,2023-12-14_17h34.12.203,gca_discrimination,2022.2.4,144.0173049560548,
positions.xlsx,stimuli.xlsx,test.xlsx,stimuli/Social1.png,stimuli/Social2.png,stimuli/Nonsocial2.png,stimuli/Nonsocial1.png,stimuli/Test1.png,stimuli/Test2.png,"(0.7, 0.5)",cs_minus_s,"(-0.7, 0.5)",cs_minus_s,0,0,0,0,,,,,0,8,8,66,,195.54666150000412,l,1.0541863000253215,correct,,30,C,2023-12-14_17h34.12.203,gca_discrimination,2022.2.4,144.0173049560548,
positions.xlsx,stimuli.xlsx,test.xlsx,stimuli/Social1.png,stimuli/Social2.png,stimuli/Nonsocial2.png,stimuli/Nonsocial1.png,stimuli/Test1.png,stimuli/Test2.png,"(0.7, 0.5)",cs_minus_ns,"(0.7, -0.5)",cs_minus_ns,0,0,0,0,,,,,0,9,9,92,,199.03251559997443,ä,0.848794599995017,wrong,,30,C,2023-12-14_17h34.12.203,gca_discrimination,2022.2.4,144.0173049560548,
positions.xlsx,stimuli.xlsx,test.xlsx,stimuli/Social1.png,stimuli/Social2.png,stimuli/Nonsocial2.png,stimuli/Nonsocial1.png,stimuli/Test1.png,stimuli/Test2.png,"(-0.7, -0.5)",cs_minus_s,"(0.7, 0.5)",cs_minus_s,0,0,0,0,,,,,0,10,10,64,,202.6088268000167,l,0.5276848999783397,correct,,30,C,2023-12-14_17h34.12.203,gca_discrimination,2022.2.4,144.0173049560548,
positions.xlsx,stimuli.xlsx,test.xlsx,stimuli/Social1.png,stimuli/Social2.png,stimuli/Nonsocial2.png,stimuli/Nonsocial1.png,stimuli/Test1.png,stimuli/Test2.png,"(-0.7, 0.5)",cs_plus_ns,"(-0.7, -0.5)",cs_minus_ns,0,0,0,0,,,,,0,11,11,24,,205.3795553999953,ä,0.35619339998811483,correct,,30,C,2023-12-14_17h34.12.203,gca_discrimination,2022.2.4,144.0173049560548,
positions.xlsx,stimuli.xlsx,test.xlsx,stimuli/Social1.png,stimuli/Social2.png,stimuli/Nonsocial2.png,stimuli/Nonsocial1.png,stimuli/Test1.png,stimuli/Test2.png,"(0.7, 0.5)",cs_plus_s,"(-0.7, 0.5)",cs_plus_s,0,0,0,0,,,,,0,12,12,54,,207.67807829997037,l,0.49839890003204346,correct,,30,C,2023-12-14_17h34.12.203,gca_discrimination,2022.2.4,144.0173049560548,
positions.xlsx,stimuli.xlsx,test.xlsx,stimuli/Social1.png,stimuli/Social2.png,stimuli/Nonsocial2.png,stimuli/Nonsocial1.png,stimuli/Test1.png,stimuli/Test2.png,"(0.7, 0.5)",cs_minus_ns,"(-0.7, 0.5)",cs_plus_ns,0,0,0,0,,,,,0,13,13,42,,210.4696372000035,ä,0.6425442000618204,correct,,30,C,2023-12-14_17h34.12.203,gca_discrimination,2022.2.4,144.0173049560548,
positions.xlsx,stimuli.xlsx,test.xlsx,stimuli/Social1.png,stimuli/Social2.png,stimuli/Nonsocial2.png,stimuli/Nonsocial1.png,stimuli/Test1.png,stimuli/Test2.png,"(-0.7, -0.5)",cs_plus_ns,"(-0.7, 0.5)",cs_minus_ns,0,0,0,0,,,,,0,14,14,27,,213.81671169993933,ä,0.6793919999618083,correct,,30,C,2023-12-14_17h34.12.203,gca_discrimination,2022.2.4,144.0173049560548,
positions.xlsx,stimuli.xlsx,test.xlsx,stimuli/Social1.png,stimuli/Social2.png,stimuli/Nonsocial2.png,stimuli/Nonsocial1.png,stimuli/Test1.png,stimuli/Test2.png,"(-0.7, 0.5)",cs_plus_ns,"(0.7, 0.5)",cs_plus_ns,0,0,0,0,,,,,0,15,15,73,,216.44163359992672,l,0.422317499993369,correct,,30,C,2023-12-14_17h34.12.203,gca_discrimination,2022.2.4,144.0173049560548,
positions.xlsx,stimuli.xlsx,test.xlsx,stimuli/Social1.png,stimuli/Social2.png,stimuli/Nonsocial2.png,stimuli/Nonsocial1.png,stimuli/Test1.png,stimuli/Test2.png,"(-0.7, -0.5)",cs_minus_ns,"(-0.7, 0.5)",cs_plus_ns,0,0,0,0,,,,,0,16,16,39,,218.69154319993686,ä,0.42031560000032187,correct,,30,C,2023-12-14_17h34.12.203,gca_discrimination,2022.2.4,144.0173049560548,
positions.xlsx,stimuli.xlsx,test.xlsx,stimuli/Social1.png,stimuli/Social2.png,stimuli/Nonsocial2.png,stimuli/Nonsocial1.png,stimuli/Test1.png,stimuli/Test2.png,"(0.7, -0.5)",cs_plus_ns,"(-0.7, 0.5)",cs_minus_ns,0,0,0,0,,,,,0,17,17,33,,221.82337330002338,ä,0.4248160000424832,correct,,30,C,2023-12-14_17h34.12.203,gca_discrimination,2022.2.4,144.0173049560548,
positions.xlsx,stimuli.xlsx,test.xlsx,stimuli/Social1.png,stimuli/Social2.png,stimuli/Nonsocial2.png,stimuli/Nonsocial1.png,stimuli/Test1.png,stimuli/Test2.png,"(0.7, -0.5)",cs_plus_s,"(-0.7, -0.5)",cs_plus_s,0,0,0,0,,,,,0,18,18,58,,224.96910009998828,l,0.5427469999995083,correct,,30,C,2023-12-14_17h34.12.203,gca_discrimination,2022.2.4,144.0173049560548,
positions.xlsx,stimuli.xlsx,test.xlsx,stimuli/Social1.png,stimuli/Social2.png,stimuli/Nonsocial2.png,stimuli/Nonsocial1.png,stimuli/Test1.png,stimuli/Test2.png,"(-0.7, -0.5)",cs_plus_ns,"(0.7, 0.5)",cs_minus_ns,0,0,0,0,,,,,0,19,19,28,,228.2050715999212,ä,0.8106724999379367,correct,,30,C,2023-12-14_17h34.12.203,gca_discrimination,2022.2.4,144.0173049560548,
positions.xlsx,stimuli.xlsx,test.xlsx,stimuli/Social1.png,stimuli/Social2.png,stimuli/Nonsocial2.png,stimuli/Nonsocial1.png,stimuli/Test1.png,stimuli/Test2.png,"(0.7, 0.5)",cs_minus_ns,"(-0.7, -0.5)",cs_minus_ns,0,0,0,0,,,,,0,20,20,91,,231.0383545999648,l,0.7542952999938279,correct,,30,C,2023-12-14_17h34.12.203,gca_discrimination,2022.2.4,144.0173049560548,
positions.xlsx,stimuli.xlsx,test.xlsx,stimuli/Social1.png,stimuli/Social2.png,stimuli/Nonsocial2.png,stimuli/Nonsocial1.png,stimuli/Test1.png,stimuli/Test2.png,"(-0.7, 0.5)",cs_minus_ns,"(0.7, -0.5)",cs_plus_ns,0,0,0,0,,,,,0,21,21,38,,234.6006616000086,ä,0.4556472999975085,correct,,30,C,2023-12-14_17h34.12.203,gca_discrimination,2022.2.4,144.0173049560548,
positions.xlsx,stimuli.xlsx,test.xlsx,stimuli/Social1.png,stimuli/Social2.png,stimuli/Nonsocial2.png,stimuli/Nonsocial1.png,stimuli/Test1.png,stimuli/Test2.png,"(-0.7, 0.5)",cs_minus_ns,"(-0.7, -0.5)",cs_plus_ns,0,0,0,0,,,,,0,22,22,36,,237.50335379992612,ä,0.45659810001961887,correct,,30,C,2023-12-14_17h34.12.203,gca_discrimination,2022.2.4,144.0173049560548,
positions.xlsx,stimuli.xlsx,test.xlsx,stimuli/Social1.png,stimuli/Social2.png,stimuli/Nonsocial2.png,stimuli/Nonsocial1.png,stimuli/Test1.png,stimuli/Test2.png,"(-0.7, -0.5)",cs_plus_s,"(-0.7, 0.5)",cs_plus_s,0,0,0,0,,,,,0,23,23,51,,240.45460239995737,l,0.4176832999801263,correct,,30,C,2023-12-14_17h34.12.203,gca_discrimination,2022.2.4,144.0173049560548,
positions.xlsx,stimuli.xlsx,test.xlsx,stimuli/Social1.png,stimuli/Social2.png,stimuli/Nonsocial2.png,stimuli/Nonsocial1.png,stimuli/Test1.png,stimuli/Test2.png,"(0.7, 0.5)",cs_minus_ns,"(-0.7, -0.5)",cs_plus_ns,0,0,0,0,,,,,0,24,24,43,,243.0864569999976,ä,0.6173289000289515,correct,,30,C,2023-12-14_17h34.12.203,gca_discrimination,2022.2.4,144.0173049560548,
positions.xlsx,stimuli.xlsx,test.xlsx,stimuli/Social1.png,stimuli/Social2.png,stimuli/Nonsocial2.png,stimuli/Nonsocial1.png,stimuli/Test1.png,stimuli/Test2.png,"(0.7, 0.5)",cs_plus_s,"(-0.7, 0.5)",cs_minus_s,0,0,0,0,,,,,0,25,25,6,,245.8780231999699,ä,1.0342572999652475,correct,,30,C,2023-12-14_17h34.12.203,gca_discrimination,2022.2.4,144.0173049560548,
positions.xlsx,stimuli.xlsx,test.xlsx,stimuli/Social1.png,stimuli/Social2.png,stimuli/Nonsocial2.png,stimuli/Nonsocial1.png,stimuli/Test1.png,stimuli/Test2.png,"(-0.7, -0.5)",cs_minus_ns,"(0.7, -0.5)",cs_plus_ns,0,0,0,0,,,,,0,26,26,41,,249.57231429999229,ä,0.4126547999912873,correct,,30,C,2023-12-14_17h34.12.203,gca_discrimination,2022.2.4,144.0173049560548,
positions.xlsx,stimuli.xlsx,test.xlsx,stimuli/Social1.png,stimuli/Social2.png,stimuli/Nonsocial2.png,stimuli/Nonsocial1.png,stimuli/Test1.png,stimuli/Test2.png,"(-0.7, 0.5)",cs_plus_ns,"(0.7, -0.5)",cs_minus_ns,0,0,0,0,,,,,0,27,27,26,,252.78745770000387,ä,0.684728299966082,correct,,30,C,2023-12-14_17h34.12.203,gca_discrimination,2022.2.4,144.0173049560548,
positions.xlsx,stimuli.xlsx,test.xlsx,stimuli/Social1.png,stimuli/Social2.png,stimuli/Nonsocial2.png,stimuli/Nonsocial1.png,stimuli/Test1.png,stimuli/Test2.png,"(-0.7, -0.5)",cs_plus_ns,"(0.7, -0.5)",cs_plus_ns,0,0,0,0,,,,,0,28,28,77,,255.69013499992434,l,0.4058513999916613,correct,,30,C,2023-12-14_17h34.12.203,gca_discrimination,2022.2.4,144.0173049560548,
positions.xlsx,stimuli.xlsx,test.xlsx,stimuli/Social1.png,stimuli/Social2.png,stimuli/Nonsocial2.png,stimuli/Nonsocial1.png,stimuli/Test1.png,stimuli/Test2.png,"(-0.7, 0.5)",cs_minus_s,"(-0.7, -0.5)",cs_plus_s,0,0,0,0,,,,,0,29,29,12,,258.66219199995976,ä,0.4176584999077022,correct,,30,C,2023-12-14_17h34.12.203,gca_discrimination,2022.2.4,144.0173049560548,
positions.xlsx,stimuli.xlsx,test.xlsx,stimuli/Social1.png,stimuli/Social2.png,stimuli/Nonsocial2.png,stimuli/Nonsocial1.png,stimuli/Test1.png,stimuli/Test2.png,"(0.7, 0.5)",cs_minus_ns,"(-0.7, 0.5)",cs_minus_ns,0,0,0,0,,,,,0,30,30,90,,261.56488849991,ä,0.6285347000230104,wrong,,30,C,2023-12-14_17h34.12.203,gca_discrimination,2022.2.4,144.0173049560548,
positions.xlsx,stimuli.xlsx,test.xlsx,stimuli/Social1.png,stimuli/Social2.png,stimuli/Nonsocial2.png,stimuli/Nonsocial1.png,stimuli/Test1.png,stimuli/Test2.png,"(-0.7, 0.5)",cs_plus_s,"(0.7, -0.5)",cs_minus_s,0,0,0,0,,,,,0,31,31,2,,264.36339159996714,ä,0.43690699990838766,correct,,30,C,2023-12-14_17h34.12.203,gca_discrimination,2022.2.4,144.0173049560548,
positions.xlsx,stimuli.xlsx,test.xlsx,stimuli/Social1.png,stimuli/Social2.png,stimuli/Nonsocial2.png,stimuli/Nonsocial1.png,stimuli/Test1.png,stimuli/Test2.png,"(0.7, -0.5)",cs_plus_ns,"(-0.7, -0.5)",cs_plus_ns,0,0,0,0,,,,,0,32,32,82,,267.5854911999777,l,0.4784395000897348,correct,,30,C,2023-12-14_17h34.12.203,gca_discrimination,2022.2.4,144.0173049560548,
positions.xlsx,stimuli.xlsx,test.xlsx,stimuli/Social1.png,stimuli/Social2.png,stimuli/Nonsocial2.png,stimuli/Nonsocial1.png,stimuli/Test1.png,stimuli/Test2.png,"(-0.7, -0.5)",cs_plus_ns,"(-0.7, 0.5)",cs_plus_ns,0,0,0,0,,,,,0,33,33,75,,270.70345109992195,l,0.6973814000375569,correct,,30,C,2023-12-14_17h34.12.203,gca_discrimination,2022.2.4,144.0173049560548,
positions.xlsx,stimuli.xlsx,test.xlsx,stimuli/Social1.png,stimuli/Social2.png,stimuli/Nonsocial2.png,stimuli/Nonsocial1.png,stimuli/Test1.png,stimuli/Test2.png,"(0.7, -0.5)",cs_plus_s,"(0.7, 0.5)",cs_plus_s,0,0,0,0,,,,,0,34,34,59,,273.25888430001214,l,0.5504864000249654,correct,,30,C,2023-12-14_17h34.12.203,gca_discrimination,2022.2.4,144.0173049560548,
positions.xlsx,stimuli.xlsx,test.xlsx,stimuli/Social1.png,stimuli/Social2.png,stimuli/Nonsocial2.png,stimuli/Nonsocial1.png,stimuli/Test1.png,stimuli/Test2.png,"(-0.7, -0.5)",cs_plus_ns,"(0.7, -0.5)",cs_minus_ns,0,0,0,0,,,,,0,35,35,29,,276.40459239995107,ä,0.7325650999555364,correct,,30,C,2023-12-14_17h34.12.203,gca_discrimination,2022.2.4,144.0173049560548,
positions.xlsx,stimuli.xlsx,test.xlsx,stimuli/Social1.png,stimuli/Social2.png,stimuli/Nonsocial2.png,stimuli/Nonsocial1.png,stimuli/Test1.png,stimuli/Test2.png,"(0.7, -0.5)",cs_minus_ns,"(-0.7, 0.5)",cs_plus_ns,0,0,0,0,,,,,0,36,36,45,,279.35588019993156,ä,0.46850560000166297,correct,,30,C,2023-12-14_17h34.12.203,gca_discrimination,2022.2.4,144.0173049560548,
positions.xlsx,stimuli.xlsx,test.xlsx,stimuli/Social1.png,stimuli/Social2.png,stimuli/Nonsocial2.png,stimuli/Nonsocial1.png,stimuli/Test1.png,stimuli/Test2.png,"(-0.7, 0.5)",cs_minus_ns,"(0.7, -0.5)",cs_minus_ns,0,0,0,0,,,,,0,37,37,86,,282.5293643999612,l,0.5111797999124974,correct,,30,C,2023-12-14_17h34.12.203,gca_discrimination,2022.2.4,144.0173049560548,
positions.xlsx,stimuli.xlsx,test.xlsx,stimuli/Social1.png,stimuli/Social2.png,stimuli/Nonsocial2.png,stimuli/Nonsocial1.png,stimuli/Test1.png,stimuli/Test2.png,"(-0.7, -0.5)",cs_minus_ns,"(0.7, -0.5)",cs_minus_ns,0,0,0,0,,,,,0,38,38,89,,285.47370630002115,l,0.38269490003585815,correct,,30,C,2023-12-14_17h34.12.203,gca_discrimination,2022.2.4,144.0173049560548,
positions.xlsx,stimuli.xlsx,test.xlsx,stimuli/Social1.png,stimuli/Social2.png,stimuli/Nonsocial2.png,stimuli/Nonsocial1.png,stimuli/Test1.png,stimuli/Test2.png,"(-0.7, -0.5)",cs_minus_s,"(0.7, 0.5)",cs_plus_s,0,0,0,0,,,,,0,39,39,16,,287.7930740999291,ä,0.43211980001069605,correct,,30,C,2023-12-14_17h34.12.203,gca_discrimination,2022.2.4,144.0173049560548,
positions.xlsx,stimuli.xlsx,test.xlsx,stimuli/Social1.png,stimuli/Social2.png,stimuli/Nonsocial2.png,stimuli/Nonsocial1.png,stimuli/Test1.png,stimuli/Test2.png,"(-0.7, -0.5)",cs_minus_ns,"(-0.7, 0.5)",cs_minus_ns,0,0,0,0,,,,,0,40,40,87,,290.5220715999603,l,0.509889000095427,correct,,30,C,2023-12-14_17h34.12.203,gca_discrimination,2022.2.4,144.0173049560548,
positions.xlsx,stimuli.xlsx,test.xlsx,stimuli/Social1.png,stimuli/Social2.png,stimuli/Nonsocial2.png,stimuli/Nonsocial1.png,stimuli/Test1.png,stimuli/Test2.png,"(0.7, -0.5)",cs_minus_s,"(-0.7, 0.5)",cs_minus_s,0,0,0,0,,,,,0,41,41,69,,293.59836159995757,l,0.5466863999608904,correct,,30,C,2023-12-14_17h34.12.203,gca_discrimination,2022.2.4,144.0173049560548,
positions.xlsx,stimuli.xlsx,test.xlsx,stimuli/Social1.png,stimuli/Social2.png,stimuli/Nonsocial2.png,stimuli/Nonsocial1.png,stimuli/Test1.png,stimuli/Test2.png,"(-0.7, 0.5)",cs_minus_s,"(0.7, 0.5)",cs_plus_s,0,0,0,0,,,,,0,42,42,13,,296.56353609997313,ä,0.35667620005551726,correct,,30,C,2023-12-14_17h34.12.203,gca_discrimination,2022.2.4,144.0173049560548,
positions.xlsx,stimuli.xlsx,test.xlsx,stimuli/Social1.png,stimuli/Social2.png,stimuli/Nonsocial2.png,stimuli/Nonsocial1.png,stimuli/Test1.png,stimuli/Test2.png,"(-0.7, 0.5)",cs_plus_s,"(-0.7, -0.5)",cs_minus_s,0,0,0,0,,,,,0,43,43,0,,299.1815109999152,ä,0.4750309999799356,correct,,30,C,2023-12-14_17h34.12.203,gca_discrimination,2022.2.4,144.0173049560548,
positions.xlsx,stimuli.xlsx,test.xlsx,stimuli/Social1.png,stimuli/Social2.png,stimuli/Nonsocial2.png,stimuli/Nonsocial1.png,stimuli/Test1.png,stimuli/Test2.png,"(-0.7, -0.5)",cs_plus_s,"(0.7, -0.5)",cs_minus_s,0,0,0,0,,,,,0,44,44,5,,302.1675016999943,ä,0.5296346000395715,correct,,30,C,2023-12-14_17h34.12.203,gca_discrimination,2022.2.4,144.0173049560548,
positions.xlsx,stimuli.xlsx,test.xlsx,stimuli/Social1.png,stimuli/Social2.png,stimuli/Nonsocial2.png,stimuli/Nonsocial1.png,stimuli/Test1.png,stimuli/Test2.png,"(-0.7, -0.5)",cs_minus_ns,"(0.7, 0.5)",cs_minus_ns,0,0,0,0,,,,,0,45,45,88,,305.1604307999369,l,0.5593154999660328,correct,,30,C,2023-12-14_17h34.12.203,gca_discrimination,2022.2.4,144.0173049560548,
positions.xlsx,stimuli.xlsx,test.xlsx,stimuli/Social1.png,stimuli/Social2.png,stimuli/Nonsocial2.png,stimuli/Nonsocial1.png,stimuli/Test1.png,stimuli/Test2.png,"(-0.7, -0.5)",cs_minus_s,"(-0.7, 0.5)",cs_plus_s,0,0,0,0,,,,,0,46,46,15,,308.3825782999629,ä,0.6017990000545979,correct,,30,C,2023-12-14_17h34.12.203,gca_discrimination,2022.2.4,144.0173049560548,
positions.xlsx,stimuli.xlsx,test.xlsx,stimuli/Social1.png,stimuli/Social2.png,stimuli/Nonsocial2.png,stimuli/Nonsocial1.png,stimuli/Test1.png,stimuli/Test2.png,"(0.7, -0.5)",cs_minus_ns,"(0.7, 0.5)",cs_minus_ns,0,0,0,0,,,,,0,47,47,95,,311.5212778999703,l,0.46409850008785725,correct,,30,C,2023-12-14_17h34.12.203,gca_discrimination,2022.2.4,144.0173049560548,
positions.xlsx,stimuli.xlsx,test.xlsx,stimuli/Social1.png,stimuli/Social2.png,stimuli/Nonsocial2.png,stimuli/Nonsocial1.png,stimuli/Test1.png,stimuli/Test2.png,"(-0.7, 0.5)",cs_minus_s,"(0.7, 0.5)",cs_minus_s,0,0,0,0,,,,,0,48,48,61,,314.70866389991716,l,0.49158749997150153,correct,,30,C,2023-12-14_17h34.12.203,gca_discrimination,2022.2.4,144.0173049560548,
positions.xlsx,stimuli.xlsx,test.xlsx,stimuli/Social1.png,stimuli/Social2.png,stimuli/Nonsocial2.png,stimuli/Nonsocial1.png,stimuli/Test1.png,stimuli/Test2.png,"(0.7, 0.5)",cs_plus_s,"(-0.7, -0.5)",cs_minus_s,0,0,0,0,,,,,0,49,49,7,,317.90992899995763,ä,0.490563299972564,correct,,30,C,2023-12-14_17h34.12.203,gca_discrimination,2022.2.4,144.0173049560548,
positions.xlsx,stimuli.xlsx,test.xlsx,stimuli/Social1.png,stimuli/Social2.png,stimuli/Nonsocial2.png,stimuli/Nonsocial1.png,stimuli/Test1.png,stimuli/Test2.png,"(-0.7, -0.5)",cs_minus_s,"(0.7, -0.5)",cs_minus_s,0,0,0,0,,,,,0,50,50,65,,320.5070406999439,l,0.6049578000092879,correct,,30,C,2023-12-14_17h34.12.203,gca_discrimination,2022.2.4,144.0173049560548,
positions.xlsx,stimuli.xlsx,test.xlsx,stimuli/Social1.png,stimuli/Social2.png,stimuli/Nonsocial2.png,stimuli/Nonsocial1.png,stimuli/Test1.png,stimuli/Test2.png,"(0.7, -0.5)",cs_plus_ns,"(0.7, 0.5)",cs_plus_ns,0,0,0,0,,,,,0,51,51,83,,323.76386579999235,l,0.39722909999545664,correct,,30,C,2023-12-14_17h34.12.203,gca_discrimination,2022.2.4,144.0173049560548,
positions.xlsx,stimuli.xlsx,test.xlsx,stimuli/Social1.png,stimuli/Social2.png,stimuli/Nonsocial2.png,stimuli/Nonsocial1.png,stimuli/Test1.png,stimuli/Test2.png,"(-0.7, 0.5)",cs_minus_ns,"(0.7, 0.5)",cs_minus_ns,0,0,0,0,,,,,0,52,52,85,,326.18043770000804,l,0.5232929000630975,correct,,30,C,2023-12-14_17h34.12.203,gca_discrimination,2022.2.4,144.0173049560548,
positions.xlsx,stimuli.xlsx,test.xlsx,stimuli/Social1.png,stimuli/Social2.png,stimuli/Nonsocial2.png,stimuli/Nonsocial1.png,stimuli/Test1.png,stimuli/Test2.png,"(-0.7, -0.5)",cs_minus_s,"(-0.7, 0.5)",cs_minus_s,0,0,0,0,,,,,0,53,53,63,,329.38859460002277,l,0.4840363999828696,correct,,30,C,2023-12-14_17h34.12.203,gca_discrimination,2022.2.4,144.0173049560548,
positions.xlsx,stimuli.xlsx,test.xlsx,stimuli/Social1.png,stimuli/Social2.png,stimuli/Nonsocial2.png,stimuli/Nonsocial1.png,stimuli/Test1.png,stimuli/Test2.png,"(0.7, 0.5)",cs_plus_ns,"(-0.7, 0.5)",cs_minus_ns,0,0,0,0,,,,,0,54,54,30,,331.9093981999904,ä,0.3798471000045538,correct,,30,C,2023-12-14_17h34.12.203,gca_discrimination,2022.2.4,144.0173049560548,
positions.xlsx,stimuli.xlsx,test.xlsx,stimuli/Social1.png,stimuli/Social2.png,stimuli/Nonsocial2.png,stimuli/Nonsocial1.png,stimuli/Test1.png,stimuli/Test2.png,"(0.7, 0.5)",cs_plus_s,"(0.7, -0.5)",cs_minus_s,0,0,0,0,,,,,0,55,55,8,,335.06898689991795,ä,0.5468544999603182,correct,,30,C,2023-12-14_17h34.12.203,gca_discrimination,2022.2.4,144.0173049560548,
positions.xlsx,stimuli.xlsx,test.xlsx,stimuli/Social1.png,stimuli/Social2.png,stimuli/Nonsocial2.png,stimuli/Nonsocial1.png,stimuli/Test1.png,stimuli/Test2.png,"(0.7, 0.5)",cs_minus_s,"(0.7, -0.5)",cs_plus_s,0,0,0,0,,,,,0,56,56,20,,337.61052929994185,ä,0.3830286000156775,correct,,30,C,2023-12-14_17h34.12.203,gca_discrimination,2022.2.4,144.0173049560548,
positions.xlsx,stimuli.xlsx,test.xlsx,stimuli/Social1.png,stimuli/Social2.png,stimuli/Nonsocial2.png,stimuli/Nonsocial1.png,stimuli/Test1.png,stimuli/Test2.png,"(-0.7, 0.5)",cs_minus_s,"(0.7, -0.5)",cs_plus_s,0,0,0,0,,,,,0,57,57,14,,340.41600199998356,ä,0.3693902000086382,correct,,30,C,2023-12-14_17h34.12.203,gca_discrimination,2022.2.4,144.0173049560548,
positions.xlsx,stimuli.xlsx,test.xlsx,stimuli/Social1.png,stimuli/Social2.png,stimuli/Nonsocial2.png,stimuli/Nonsocial1.png,stimuli/Test1.png,stimuli/Test2.png,"(0.7, -0.5)",cs_plus_s,"(-0.7, 0.5)",cs_plus_s,0,0,0,0,,,,,0,58,58,57,,343.5339586000191,l,0.47393139998894185,correct,,30,C,2023-12-14_17h34.12.203,gca_discrimination,2022.2.4,144.0173049560548,
positions.xlsx,stimuli.xlsx,test.xlsx,stimuli/Social1.png,stimuli/Social2.png,stimuli/Nonsocial2.png,stimuli/Nonsocial1.png,stimuli/Test1.png,stimuli/Test2.png,"(0.7, 0.5)",cs_minus_s,"(-0.7, -0.5)",cs_minus_s,0,0,0,0,,,,,0,59,59,67,,345.8949606999522,l,0.4816726999124512,correct,,30,C,2023-12-14_17h34.12.203,gca_discrimination,2022.2.4,144.0173049560548,
positions.xlsx,stimuli.xlsx,test.xlsx,stimuli/Social1.png,stimuli/Social2.png,stimuli/Nonsocial2.png,stimuli/Nonsocial1.png,stimuli/Test1.png,stimuli/Test2.png,"(0.7, -0.5)",cs_minus_ns,"(-0.7, -0.5)",cs_minus_ns,0,0,0,0,,,,,0,60,60,94,,348.5406758999452,l,0.38026050000917166,correct,,30,C,2023-12-14_17h34.12.203,gca_discrimination,2022.2.4,144.0173049560548,
positions.xlsx,stimuli.xlsx,test.xlsx,stimuli/Social1.png,stimuli/Social2.png,stimuli/Nonsocial2.png,stimuli/Nonsocial1.png,stimuli/Test1.png,stimuli/Test2.png,"(0.7, 0.5)",cs_plus_ns,"(0.7, -0.5)",cs_plus_ns,0,0,0,0,,,,,0,61,61,80,,351.2211525000166,l,0.3868235000409186,correct,,30,C,2023-12-14_17h34.12.203,gca_discrimination,2022.2.4,144.0173049560548,
positions.xlsx,stimuli.xlsx,test.xlsx,stimuli/Social1.png,stimuli/Social2.png,stimuli/Nonsocial2.png,stimuli/Nonsocial1.png,stimuli/Test1.png,stimuli/Test2.png,"(-0.7, 0.5)",cs_plus_s,"(-0.7, -0.5)",cs_plus_s,0,0,0,0,,,,,0,62,62,48,,353.54743789997883,l,0.34958490007556975,correct,,30,C,2023-12-14_17h34.12.203,gca_discrimination,2022.2.4,144.0173049560548,
positions.xlsx,stimuli.xlsx,test.xlsx,stimuli/Social1.png,stimuli/Social2.png,stimuli/Nonsocial2.png,stimuli/Nonsocial1.png,stimuli/Test1.png,stimuli/Test2.png,"(0.7, -0.5)",cs_minus_ns,"(-0.7, -0.5)",cs_plus_ns,0,0,0,0,,,,,0,63,63,46,,355.7209713999182,ä,0.33503159997053444,correct,,30,C,2023-12-14_17h34.12.203,gca_discrimination,2022.2.4,144.0173049560548,
positions.xlsx,stimuli.xlsx,test.xlsx,stimuli/Social1.png,stimuli/Social2.png,stimuli/Nonsocial2.png,stimuli/Nonsocial1.png,stimuli/Test1.png,stimuli/Test2.png,"(-0.7, 0.5)",cs_minus_s,"(0.7, -0.5)",cs_minus_s,0,0,0,0,,,,,0,64,64,62,,357.9222697999794,l,0.5183138001011685,correct,,30,C,2023-12-14_17h34.12.203,gca_discrimination,2022.2.4,144.0173049560548,
positions.xlsx,stimuli.xlsx,test.xlsx,stimuli/Social1.png,stimuli/Social2.png,stimuli/Nonsocial2.png,stimuli/Nonsocial1.png,stimuli/Test1.png,stimuli/Test2.png,"(-0.7, 0.5)",cs_minus_ns,"(-0.7, -0.5)",cs_minus_ns,0,0,0,0,,,,,0,65,65,84,,360.512446800014,l,0.4633328999625519,correct,,30,C,2023-12-14_17h34.12.203,gca_discrimination,2022.2.4,144.0173049560548,
positions.xlsx,stimuli.xlsx,test.xlsx,stimuli/Social1.png,stimuli/Social2.png,stimuli/Nonsocial2.png,stimuli/Nonsocial1.png,stimuli/Test1.png,stimuli/Test2.png,"(-0.7, 0.5)",cs_minus_s,"(-0.7, -0.5)",cs_minus_s,0,0,0,0,,,,,0,66,66,60,,363.3040284999879,l,0.34499840007629246,correct,,30,C,2023-12-14_17h34.12.203,gca_discrimination,2022.2.4,144.0173049560548,
positions.xlsx,stimuli.xlsx,test.xlsx,stimuli/Social1.png,stimuli/Social2.png,stimuli/Nonsocial2.png,stimuli/Nonsocial1.png,stimuli/Test1.png,stimuli/Test2.png,"(0.7, 0.5)",cs_minus_s,"(-0.7, -0.5)",cs_plus_s,0,0,0,0,,,,,0,67,67,19,,365.89418079995085,ä,0.45823200000450015,correct,,30,C,2023-12-14_17h34.12.203,gca_discrimination,2022.2.4,144.0173049560548,
positions.xlsx,stimuli.xlsx,test.xlsx,stimuli/Social1.png,stimuli/Social2.png,stimuli/Nonsocial2.png,stimuli/Nonsocial1.png,stimuli/Test1.png,stimuli/Test2.png,"(0.7, -0.5)",cs_minus_ns,"(-0.7, 0.5)",cs_minus_ns,0,0,0,0,,,,,0,68,68,93,,368.28991179994773,ä,0.5029755999566987,wrong,,30,C,2023-12-14_17h34.12.203,gca_discrimination,2022.2.4,144.0173049560548,
positions.xlsx,stimuli.xlsx,test.xlsx,stimuli/Social1.png,stimuli/Social2.png,stimuli/Nonsocial2.png,stimuli/Nonsocial1.png,stimuli/Test1.png,stimuli/Test2.png,"(0.7, 0.5)",cs_plus_ns,"(0.7, -0.5)",cs_minus_ns,0,0,0,0,,,,,0,69,69,32,,371.4286700999364,ä,0.4840087000047788,correct,,30,C,2023-12-14_17h34.12.203,gca_discrimination,2022.2.4,144.0173049560548,
positions.xlsx,stimuli.xlsx,test.xlsx,stimuli/Social1.png,stimuli/Social2.png,stimuli/Nonsocial2.png,stimuli/Nonsocial1.png,stimuli/Test1.png,stimuli/Test2.png,"(-0.7, -0.5)",cs_plus_s,"(0.7, 0.5)",cs_plus_s,0,0,0,0,,,,,0,70,70,52,,374.66466210002545,l,0.5758230000501499,correct,,30,C,2023-12-14_17h34.12.203,gca_discrimination,2022.2.4,144.0173049560548,
positions.xlsx,stimuli.xlsx,test.xlsx,stimuli/Social1.png,stimuli/Social2.png,stimuli/Nonsocial2.png,stimuli/Nonsocial1.png,stimuli/Test1.png,stimuli/Test2.png,"(-0.7, 0.5)",cs_plus_ns,"(0.7, 0.5)",cs_minus_ns,0,0,0,0,,,,,0,71,71,25,,377.6576157999225,ä,0.44661840004846454,correct,,30,C,2023-12-14_17h34.12.203,gca_discrimination,2022.2.4,144.0173049560548,
positions.xlsx,stimuli.xlsx,test.xlsx,stimuli/Social1.png,stimuli/Social2.png,stimuli/Nonsocial2.png,stimuli/Nonsocial1.png,stimuli/Test1.png,stimuli/Test2.png,"(-0.7, 0.5)",cs_plus_s,"(0.7, 0.5)",cs_plus_s,0,0,0,0,,,,,0,72,72,49,,380.1158537999727,l,0.42838890000712126,correct,,30,C,2023-12-14_17h34.12.203,gca_discrimination,2022.2.4,144.0173049560548,
positions.xlsx,stimuli.xlsx,test.xlsx,stimuli/Social1.png,stimuli/Social2.png,stimuli/Nonsocial2.png,stimuli/Nonsocial1.png,stimuli/Test1.png,stimuli/Test2.png,"(-0.7, -0.5)",cs_plus_s,"(0.7, -0.5)",cs_plus_s,0,0,0,0,,,,,0,73,73,53,,383.26160399999935,l,0.514593500061892,correct,,30,C,2023-12-14_17h34.12.203,gca_discrimination,2022.2.4,144.0173049560548,
positions.xlsx,stimuli.xlsx,test.xlsx,stimuli/Social1.png,stimuli/Social2.png,stimuli/Nonsocial2.png,stimuli/Nonsocial1.png,stimuli/Test1.png,stimuli/Test2.png,"(-0.7, 0.5)",cs_plus_s,"(0.7, -0.5)",cs_plus_s,0,0,0,0,,,,,0,74,74,50,,386.0392622000072,l,0.3049513000296429,correct,,30,C,2023-12-14_17h34.12.203,gca_discrimination,2022.2.4,144.0173049560548,
positions.xlsx,stimuli.xlsx,test.xlsx,stimuli/Social1.png,stimuli/Social2.png,stimuli/Nonsocial2.png,stimuli/Nonsocial1.png,stimuli/Test1.png,stimuli/Test2.png,"(-0.7, 0.5)",cs_plus_ns,"(0.7, -0.5)",cs_plus_ns,0,0,0,0,,,,,0,75,75,74,,388.622473299969,l,0.89826060004998,correct,,30,C,2023-12-14_17h34.12.203,gca_discrimination,2022.2.4,144.0173049560548,
positions.xlsx,stimuli.xlsx,test.xlsx,stimuli/Social1.png,stimuli/Social2.png,stimuli/Nonsocial2.png,stimuli/Nonsocial1.png,stimuli/Test1.png,stimuli/Test2.png,"(0.7, 0.5)",cs_plus_ns,"(-0.7, -0.5)",cs_minus_ns,0,0,0,0,,,,,0,76,76,31,,391.7404283999931,ä,0.2681958000175655,correct,,30,C,2023-12-14_17h34.12.203,gca_discrimination,2022.2.4,144.0173049560548,
positions.xlsx,stimuli.xlsx,test.xlsx,stimuli/Social1.png,stimuli/Social2.png,stimuli/Nonsocial2.png,stimuli/Nonsocial1.png,stimuli/Test1.png,stimuli/Test2.png,"(-0.7, -0.5)",cs_minus_ns,"(0.7, 0.5)",cs_plus_ns,0,0,0,0,,,,,0,77,77,40,,394.57365069992375,ä,0.3950811999384314,correct,,30,C,2023-12-14_17h34.12.203,gca_discrimination,2022.2.4,144.0173049560548,
positions.xlsx,stimuli.xlsx,test.xlsx,stimuli/Social1.png,stimuli/Social2.png,stimuli/Nonsocial2.png,stimuli/Nonsocial1.png,stimuli/Test1.png,stimuli/Test2.png,"(0.7, -0.5)",cs_minus_ns,"(0.7, 0.5)",cs_plus_ns,0,0,0,0,,,,,0,78,78,47,,397.0874426999362,ä,0.48066390003077686,correct,,30,C,2023-12-14_17h34.12.203,gca_discrimination,2022.2.4,144.0173049560548,
positions.xlsx,stimuli.xlsx,test.xlsx,stimuli/Social1.png,stimuli/Social2.png,stimuli/Nonsocial2.png,stimuli/Nonsocial1.png,stimuli/Test1.png,stimuli/Test2.png,"(0.7, -0.5)",cs_plus_s,"(0.7, 0.5)",cs_minus_s,0,0,0,0,,,,,0,79,79,11,,399.8373231999576,ä,0.47640509996563196,correct,,30,C,2023-12-14_17h34.12.203,gca_discrimination,2022.2.4,144.0173049560548,
positions.xlsx,stimuli.xlsx,test.xlsx,stimuli/Social1.png,stimuli/Social2.png,stimuli/Nonsocial2.png,stimuli/Nonsocial1.png,stimuli/Test1.png,stimuli/Test2.png,"(-0.7, -0.5)",cs_plus_s,"(0.7, 0.5)",cs_minus_s,0,0,0,0,,,,,0,80,80,4,,403.12192309997045,ä,0.47000390000175685,correct,,30,C,2023-12-14_17h34.12.203,gca_discrimination,2022.2.4,144.0173049560548,
positions.xlsx,stimuli.xlsx,test.xlsx,stimuli/Social1.png,stimuli/Social2.png,stimuli/Nonsocial2.png,stimuli/Nonsocial1.png,stimuli/Test1.png,stimuli/Test2.png,"(0.7, -0.5)",cs_plus_ns,"(-0.7, 0.5)",cs_plus_ns,0,0,0,0,,,,,0,81,81,81,,406.3926446000114,l,0.42348750005476177,correct,,30,C,2023-12-14_17h34.12.203,gca_discrimination,2022.2.4,144.0173049560548,
positions.xlsx,stimuli.xlsx,test.xlsx,stimuli/Social1.png,stimuli/Social2.png,stimuli/Nonsocial2.png,stimuli/Nonsocial1.png,stimuli/Test1.png,stimuli/Test2.png,"(-0.7, 0.5)",cs_plus_s,"(0.7, 0.5)",cs_minus_s,0,0,0,0,,,,,0,82,82,1,,409.14251639996655,ä,0.3621932999230921,correct,,30,C,2023-12-14_17h34.12.203,gca_discrimination,2022.2.4,144.0173049560548,
positions.xlsx,stimuli.xlsx,test.xlsx,stimuli/Social1.png,stimuli/Social2.png,stimuli/Nonsocial2.png,stimuli/Nonsocial1.png,stimuli/Test1.png,stimuli/Test2.png,"(0.7, 0.5)",cs_plus_ns,"(-0.7, 0.5)",cs_plus_ns,0,0,0,0,,,,,0,83,83,78,,412.17712909996044,l,0.470731099951081,correct,,30,C,2023-12-14_17h34.12.203,gca_discrimination,2022.2.4,144.0173049560548,
positions.xlsx,stimuli.xlsx,test.xlsx,stimuli/Social1.png,stimuli/Social2.png,stimuli/Nonsocial2.png,stimuli/Nonsocial1.png,stimuli/Test1.png,stimuli/Test2.png,"(0.7, -0.5)",cs_minus_s,"(-0.7, 0.5)",cs_plus_s,0,0,0,0,,,,,0,84,84,21,,414.73256659996696,ä,0.33949610008858144,correct,,30,C,2023-12-14_17h34.12.203,gca_discrimination,2022.2.4,144.0173049560548,
positions.xlsx,stimuli.xlsx,test.xlsx,stimuli/Social1.png,stimuli/Social2.png,stimuli/Nonsocial2.png,stimuli/Nonsocial1.png,stimuli/Test1.png,stimuli/Test2.png,"(-0.7, -0.5)",cs_plus_s,"(-0.7, 0.5)",cs_minus_s,0,0,0,0,,,,,0,85,85,3,,417.6491388999857,ä,0.6475508000003174,correct,,30,C,2023-12-14_17h34.12.203,gca_discrimination,2022.2.4,144.0173049560548,
positions.xlsx,stimuli.xlsx,test.xlsx,stimuli/Social1.png,stimuli/Social2.png,stimuli/Nonsocial2.png,stimuli/Nonsocial1.png,stimuli/Test1.png,stimuli/Test2.png,"(0.7, -0.5)",cs_plus_s,"(-0.7, 0.5)",cs_minus_s,0,0,0,0,,,,,0,86,86,9,,420.51708349992987,ä,0.34846609993837774,correct,,30,C,2023-12-14_17h34.12.203,gca_discrimination,2022.2.4,144.0173049560548,
positions.xlsx,stimuli.xlsx,test.xlsx,stimuli/Social1.png,stimuli/Social2.png,stimuli/Nonsocial2.png,stimuli/Nonsocial1.png,stimuli/Test1.png,stimuli/Test2.png,"(0.7, 0.5)",cs_minus_ns,"(0.7, -0.5)",cs_plus_ns,0,0,0,0,,,,,0,87,87,44,,422.82256429991685,ä,0.5695598999736831,correct,,30,C,2023-12-14_17h34.12.203,gca_discrimination,2022.2.4,144.0173049560548,
positions.xlsx,stimuli.xlsx,test.xlsx,stimuli/Social1.png,stimuli/Social2.png,stimuli/Nonsocial2.png,stimuli/Nonsocial1.png,stimuli/Test1.png,stimuli/Test2.png,"(0.7, -0.5)",cs_minus_s,"(0.7, 0.5)",cs_minus_s,0,0,0,0,,,,,0,88,88,71,,425.8086071999278,l,0.6955422000028193,correct,,30,C,2023-12-14_17h34.12.203,gca_discrimination,2022.2.4,144.0173049560548,
positions.xlsx,stimuli.xlsx,test.xlsx,stimuli/Social1.png,stimuli/Social2.png,stimuli/Nonsocial2.png,stimuli/Nonsocial1.png,stimuli/Test1.png,stimuli/Test2.png,"(0.7, -0.5)",cs_minus_s,"(0.7, 0.5)",cs_plus_s,0,0,0,0,,,,,0,89,89,23,,428.94731700001284,ä,0.37339379999320954,correct,,30,C,2023-12-14_17h34.12.203,gca_discrimination,2022.2.4,144.0173049560548,
positions.xlsx,stimuli.xlsx,test.xlsx,stimuli/Social1.png,stimuli/Social2.png,stimuli/Nonsocial2.png,stimuli/Nonsocial1.png,stimuli/Test1.png,stimuli/Test2.png,"(0.7, -0.5)",cs_plus_ns,"(0.7, 0.5)",cs_minus_ns,0,0,0,0,,,,,0,90,90,35,,431.46805309993215,ä,0.3800511999288574,correct,,30,C,2023-12-14_17h34.12.203,gca_discrimination,2022.2.4,144.0173049560548,
positions.xlsx,stimuli.xlsx,test.xlsx,stimuli/Social1.png,stimuli/Social2.png,stimuli/Nonsocial2.png,stimuli/Nonsocial1.png,stimuli/Test1.png,stimuli/Test2.png,"(0.7, -0.5)",cs_plus_s,"(-0.7, -0.5)",cs_minus_s,0,0,0,0,,,,,0,91,91,10,,433.9610437999945,ä,0.3591644000262022,correct,,30,C,2023-12-14_17h34.12.203,gca_discrimination,2022.2.4,144.0173049560548,
positions.xlsx,stimuli.xlsx,test.xlsx,stimuli/Social1.png,stimuli/Social2.png,stimuli/Nonsocial2.png,stimuli/Nonsocial1.png,stimuli/Test1.png,stimuli/Test2.png,"(0.7, -0.5)",cs_minus_s,"(-0.7, -0.5)",cs_plus_s,0,0,0,0,,,,,0,92,92,22,,437.037300099968,ä,0.3560065000783652,correct,,30,C,2023-12-14_17h34.12.203,gca_discrimination,2022.2.4,144.0173049560548,
positions.xlsx,stimuli.xlsx,test.xlsx,stimuli/Social1.png,stimuli/Social2.png,stimuli/Nonsocial2.png,stimuli/Nonsocial1.png,stimuli/Test1.png,stimuli/Test2.png,"(0.7, -0.5)",cs_minus_s,"(-0.7, -0.5)",cs_minus_s,0,0,0,0,,,,,0,93,93,70,,439.46772139996756,l,0.2536824999842793,correct,,30,C,2023-12-14_17h34.12.203,gca_discrimination,2022.2.4,144.0173049560548,
positions.xlsx,stimuli.xlsx,test.xlsx,stimuli/Social1.png,stimuli/Social2.png,stimuli/Nonsocial2.png,stimuli/Nonsocial1.png,stimuli/Test1.png,stimuli/Test2.png,"(0.7, 0.5)",cs_plus_s,"(0.7, -0.5)",cs_plus_s,0,0,0,0,,,,,0,94,94,56,,442.01628510002047,l,0.568808599957265,correct,,30,C,2023-12-14_17h34.12.203,gca_discrimination,2022.2.4,144.0173049560548,
positions.xlsx,stimuli.xlsx,test.xlsx,stimuli/Social1.png,stimuli/Social2.png,stimuli/Nonsocial2.png,stimuli/Nonsocial1.png,stimuli/Test1.png,stimuli/Test2.png,"(0.7, 0.5)",cs_minus_s,"(0.7, -0.5)",cs_minus_s,0,0,0,0,,,,,0,95,95,68,,444.6619718999136,l,0.29123910004273057,correct,,30,C,2023-12-14_17h34.12.203,gca_discrimination,2022.2.4,144.0173049560548,
