posFile,stimFile,testFile,cs_plus_s,cs_minus_s,cs_plus_ns,cs_minus_ns,test1,test2,position1,trialtype,position2,comptype,blocks.thisRepN,blocks.thisTrialN,blocks.thisN,blocks.thisIndex,learning_trials.thisRepN,learning_trials.thisTrialN,learning_trials.thisN,learning_trials.thisIndex,trials.thisRepN,trials.thisTrialN,trials.thisN,trials.thisIndex,textStart.started,spaceStart.started,spaceStart.keys,spaceStart.rt,textStartExp.started,textExpImages.started,ImageLearning1.started,ImageLearning2.started,textSpace.started,spaceStartExp.started,spaceStartExp.keys,spaceStartExp.rt,blankScreen.started,blankScreen.stopped,fixcross.started,firstImage.started,fixcrossImage1.started,fixcrossITI.started,secondImage.started,fixcrossImage2.started,key.started,key.keys,key.rt,correctness,feedbackText.started,fixcrossEnd.started,fixcrossEnd.stopped,fixcross.stopped,feedbackText.stopped,textStartTask.started,textTaskImages.started,ImageTask1.started,ImageTask2.started,ImageTask3.started,ImageTask4.started,textTaskSpace.started,spaceStartTask.started,spaceStartTask.keys,spaceStartTask.rt,participant,group,date,expName,psychopyVersion,frameRate,
,,,,,,,,,,,,,,,,,,,,,,,,,13.24507160000212,13.24507160000212,space,1.6733796000044094,,,,,,,,,,,,,,,,,,,,,,,,,,,,,,,,,,,,10,A,2023-12-08_09h11.37.918,gca_discrimination,2022.2.4,143.98226137771692,
positions.xlsx,stimuli.xlsx,test.xlsx,stimuli/Social1.png,stimuli/Social2.png,stimuli/Nonsocial1.png,stimuli/Nonsocial2.png,stimuli/Test1.png,stimuli/Test2.png,"(-0.7, -0.5)",test2,"(-0.7, 0.5)",test2,0,0,0,0,0,0,0,2,,,,,,,,,14.932560700006434,14.932560700006434,14.932560700006434,14.932560700006434,14.932560700006434,14.932560700006434,space,4.433462899993174,19.376811199996155,20.508737099997234,20.508737099997234,21.522543900005985,21.522543900005985,21.65447249999852,22.16834750000271,22.16834750000271,22.30723350000335,l,0.7466357000084827,correct,23.07106410000415,25.071024300006684,25.57100690000516,,,,,,,,,,,,,10,A,2023-12-08_09h11.37.918,gca_discrimination,2022.2.4,143.98226137771692,
positions.xlsx,stimuli.xlsx,test.xlsx,stimuli/Social1.png,stimuli/Social2.png,stimuli/Nonsocial1.png,stimuli/Nonsocial2.png,stimuli/Test1.png,stimuli/Test2.png,"(-0.7, 0.5)",test2,"(0.7, -0.5)",test1,0,0,0,0,0,1,1,12,,,,,,,,,,,,,,,,,,,25.57100690000516,26.57098770000448,26.57098770000448,26.723711900005583,27.2237146999978,27.2237146999978,27.376457599995774,ä,0.2137401000072714,correct,27.598677400004817,29.598629000000074,30.272213500007638,26.57098770000448,29.598629000000074,,,,,,,,,,,10,A,2023-12-08_09h11.37.918,gca_discrimination,2022.2.4,143.98226137771692,
positions.xlsx,stimuli.xlsx,test.xlsx,stimuli/Social1.png,stimuli/Social2.png,stimuli/Nonsocial1.png,stimuli/Nonsocial2.png,stimuli/Test1.png,stimuli/Test2.png,"(0.7, -0.5)",test2,"(-0.7, 0.5)",test1,0,0,0,0,0,2,2,4,,,,,,,,,,,,,,,,,,,30.272213500007638,31.272188600007212,31.272188600007212,31.424949799999013,31.924923400001717,31.924923400001717,32.07765890000155,ä,0.2327037999930326,correct,32.320742700001574,34.3206799000036,34.855347400007304,31.272188600007212,34.3206799000036,,,,,,,,,,,10,A,2023-12-08_09h11.37.918,gca_discrimination,2022.2.4,143.98226137771692,
positions.xlsx,stimuli.xlsx,test.xlsx,stimuli/Social1.png,stimuli/Social2.png,stimuli/Nonsocial1.png,stimuli/Nonsocial2.png,stimuli/Test1.png,stimuli/Test2.png,"(-0.7, 0.5)",test2,"(-0.7, -0.5)",test2,0,0,0,0,0,3,3,1,,,,,,,,,,,,,,,,,,,34.855347400007304,35.855343800008995,35.855343800008995,36.00808620000316,36.50807260000147,36.50807260000147,36.6608433000074,l,0.24988149999990128,correct,36.917781500000274,38.917711200003396,39.306569000007585,35.855343800008995,38.917711200003396,,,,,,,,,,,10,A,2023-12-08_09h11.37.918,gca_discrimination,2022.2.4,143.98226137771692,
positions.xlsx,stimuli.xlsx,test.xlsx,stimuli/Social1.png,stimuli/Social2.png,stimuli/Nonsocial1.png,stimuli/Nonsocial2.png,stimuli/Test1.png,stimuli/Test2.png,"(-0.7, -0.5)",test1,"(0.7, 0.5)",test2,0,0,0,0,0,4,4,8,,,,,,,,,,,,,,,,,,,39.306569000007585,40.30651380000927,40.30651380000927,40.45931069999642,40.95930660000886,40.95930660000886,41.11204760000692,ä,0.40626430000702385,correct,41.528707100005704,43.5287043999997,43.827209299997776,40.30651380000927,43.5287043999997,,,,,,,,,,,10,A,2023-12-08_09h11.37.918,gca_discrimination,2022.2.4,143.98226137771692,
positions.xlsx,stimuli.xlsx,test.xlsx,stimuli/Social1.png,stimuli/Social2.png,stimuli/Nonsocial1.png,stimuli/Nonsocial2.png,stimuli/Test1.png,stimuli/Test2.png,"(0.7, 0.5)",test2,"(-0.7, 0.5)",test1,0,0,0,0,0,5,5,13,,,,,,,,,,,,,,,,,,,43.827209299997776,44.82718449999811,44.82718449999811,44.97992789999989,45.47997280000709,45.47997280000709,45.63268379999499,ä,0.5891776000062237,correct,46.22994040000776,48.229830199998105,48.813145899999654,44.82718449999811,48.229830199998105,,,,,,,,,,,10,A,2023-12-08_09h11.37.918,gca_discrimination,2022.2.4,143.98226137771692,
positions.xlsx,stimuli.xlsx,test.xlsx,stimuli/Social1.png,stimuli/Social2.png,stimuli/Nonsocial1.png,stimuli/Nonsocial2.png,stimuli/Test1.png,stimuli/Test2.png,"(0.7, -0.5)",test1,"(0.7, 0.5)",test1,0,0,0,0,0,6,6,10,,,,,,,,,,,,,,,,,,,48.813145899999654,49.81311210000422,49.81311210000422,49.96587600000203,50.47287090000464,50.47287090000464,50.618622000009054,l,0.4352270999952452,correct,51.06302860000869,53.062950999999885,53.16019090000191,49.81311210000422,53.062950999999885,,,,,,,,,,,10,A,2023-12-08_09h11.37.918,gca_discrimination,2022.2.4,143.98226137771692,
positions.xlsx,stimuli.xlsx,test.xlsx,stimuli/Social1.png,stimuli/Social2.png,stimuli/Nonsocial1.png,stimuli/Nonsocial2.png,stimuli/Test1.png,stimuli/Test2.png,"(-0.7, 0.5)",test1,"(0.7, -0.5)",test1,0,0,0,0,0,7,7,5,,,,,,,,,,,,,,,,,,,53.16019090000191,54.160157200007234,54.160157200007234,54.312907200001064,54.81290380000428,54.81290380000428,54.96566410000378,l,0.8895303000026615,correct,55.868433099996764,57.86834100000851,58.74331439999514,54.160157200007234,57.86834100000851,,,,,,,,,,,10,A,2023-12-08_09h11.37.918,gca_discrimination,2022.2.4,143.98226137771692,
positions.xlsx,stimuli.xlsx,test.xlsx,stimuli/Social1.png,stimuli/Social2.png,stimuli/Nonsocial1.png,stimuli/Nonsocial2.png,stimuli/Test1.png,stimuli/Test2.png,"(-0.7, -0.5)",test2,"(0.7, -0.5)",test2,0,0,0,0,0,8,8,9,,,,,,,,,,,,,,,,,,,58.74331439999514,59.750232499995036,59.750232499995036,59.896061599996756,60.396019899999374,60.396019899999374,60.54879169999913,l,0.7292183000099612,correct,61.28489150000678,63.28477009999915,63.840314700006275,59.750232499995036,63.28477009999915,,,,,,,,,,,10,A,2023-12-08_09h11.37.918,gca_discrimination,2022.2.4,143.98226137771692,
positions.xlsx,stimuli.xlsx,test.xlsx,stimuli/Social1.png,stimuli/Social2.png,stimuli/Nonsocial1.png,stimuli/Nonsocial2.png,stimuli/Test1.png,stimuli/Test2.png,"(0.7, 0.5)",test2,"(0.7, -0.5)",test1,0,0,0,0,0,9,9,6,,,,,,,,,,,,,,,,,,,63.840314700006275,64.84025530000508,64.84025530000508,64.99306989999604,65.49307840000256,65.49307840000256,65.64579450000019,ä,0.7762169000052381,correct,66.43050840000797,68.43038360000355,68.9165159999975,64.84025530000508,68.43038360000355,,,,,,,,,,,10,A,2023-12-08_09h11.37.918,gca_discrimination,2022.2.4,143.98226137771692,
positions.xlsx,stimuli.xlsx,test.xlsx,stimuli/Social1.png,stimuli/Social2.png,stimuli/Nonsocial1.png,stimuli/Nonsocial2.png,stimuli/Test1.png,stimuli/Test2.png,"(-0.7, 0.5)",test2,"(0.7, 0.5)",test1,0,0,0,0,0,10,10,3,,,,,,,,,,,,,,,,,,,68.9165159999975,69.91648349999741,69.91648349999741,70.06924670000444,70.56920009999885,70.56920009999885,70.72195400000783,ä,1.020541100006085,correct,71.74973769999633,73.74963249999564,73.9232658999972,69.91648349999741,73.74963249999564,,,,,,,,,,,10,A,2023-12-08_09h11.37.918,gca_discrimination,2022.2.4,143.98226137771692,
positions.xlsx,stimuli.xlsx,test.xlsx,stimuli/Social1.png,stimuli/Social2.png,stimuli/Nonsocial1.png,stimuli/Nonsocial2.png,stimuli/Test1.png,stimuli/Test2.png,"(0.7, 0.5)",test1,"(0.7, -0.5)",test2,0,0,0,0,0,11,11,11,,,,,,,,,,,,,,,,,,,73.9232658999972,74.92319149999821,74.92319149999821,75.07595320000837,75.57600390000152,75.57600390000152,75.72874269999738,ä,0.6141463000094518,correct,76.35371110000415,78.35362930000701,79.20083040000463,74.92319149999821,78.35362930000701,,,,,,,,,,,10,A,2023-12-08_09h11.37.918,gca_discrimination,2022.2.4,143.98226137771692,
positions.xlsx,stimuli.xlsx,test.xlsx,stimuli/Social1.png,stimuli/Social2.png,stimuli/Nonsocial1.png,stimuli/Nonsocial2.png,stimuli/Test1.png,stimuli/Test2.png,"(0.7, -0.5)",test1,"(0.7, 0.5)",test2,0,0,0,0,0,12,12,0,,,,,,,,,,,,,,,,,,,79.20083040000463,80.20078850000573,80.20078850000573,80.3535353000043,80.85352839999541,80.85352839999541,81.00629679999838,ä,0.5196456999983639,correct,81.5340978000022,83.53400230000261,83.70754699999816,80.20078850000573,83.53400230000261,,,,,,,,,,,10,A,2023-12-08_09h11.37.918,gca_discrimination,2022.2.4,143.98226137771692,
positions.xlsx,stimuli.xlsx,test.xlsx,stimuli/Social1.png,stimuli/Social2.png,stimuli/Nonsocial1.png,stimuli/Nonsocial2.png,stimuli/Test1.png,stimuli/Test2.png,"(-0.7, -0.5)",test2,"(0.7, 0.5)",test2,0,0,0,0,0,13,13,7,,,,,,,,,,,,,,,,,,,83.70754699999816,84.70757349999622,84.70757349999622,84.86033860000316,85.36030830000527,85.36030830000527,85.51308330000029,l,0.5334471999958623,correct,86.05472960000043,88.05466090000118,88.30460849999508,84.70757349999622,88.05466090000118,,,,,,,,,,,10,A,2023-12-08_09h11.37.918,gca_discrimination,2022.2.4,143.98226137771692,
positions.xlsx,stimuli.xlsx,test.xlsx,stimuli/Social1.png,stimuli/Social2.png,stimuli/Nonsocial1.png,stimuli/Nonsocial2.png,stimuli/Test1.png,stimuli/Test2.png,"(-0.7, 0.5)",cs_plus_ns,"(0.7, -0.5)",cs_minus_ns,0,0,0,0,,,,,0,0,0,26,,,,,,,,,,,,,90.98508100000618,92.90172910000547,92.90172910000547,93.90161509999598,93.90161509999598,94.04049410000152,94.54743180000514,94.54743180000514,94.69326970000111,ä,0.9524171999946702,correct,,95.65848460000416,96.31816710000567,,,88.30460849999508,88.30460849999508,88.30460849999508,88.30460849999508,88.30460849999508,88.30460849999508,88.30460849999508,88.30460849999508,space,2.6692047999968054,10,A,2023-12-08_09h11.37.918,gca_discrimination,2022.2.4,143.98226137771692,
positions.xlsx,stimuli.xlsx,test.xlsx,stimuli/Social1.png,stimuli/Social2.png,stimuli/Nonsocial1.png,stimuli/Nonsocial2.png,stimuli/Test1.png,stimuli/Test2.png,"(-0.7, 0.5)",cs_minus_ns,"(0.7, 0.5)",cs_minus_ns,0,0,0,0,,,,,0,1,1,85,,,,,,,,,,,,,,,96.31816710000567,97.32512490000227,97.32512490000227,97.4709290000028,97.97784390000743,97.97784390000743,98.12370530000771,l,0.6820965000079013,correct,,98.81810230000701,99.64443359999859,97.32512490000227,,,,,,,,,,,,10,A,2023-12-08_09h11.37.918,gca_discrimination,2022.2.4,143.98226137771692,
positions.xlsx,stimuli.xlsx,test.xlsx,stimuli/Social1.png,stimuli/Social2.png,stimuli/Nonsocial1.png,stimuli/Nonsocial2.png,stimuli/Test1.png,stimuli/Test2.png,"(-0.7, 0.5)",cs_minus_s,"(-0.7, -0.5)",cs_minus_s,0,0,0,0,,,,,0,2,2,60,,,,,,,,,,,,,,,99.64443359999859,100.65137799999502,100.65137799999502,100.79717610000807,101.30412329999672,101.30412329999672,101.44993790000444,l,0.46878310000465717,correct,,101.92908380000154,102.75545050000073,100.65137799999502,,,,,,,,,,,,10,A,2023-12-08_09h11.37.918,gca_discrimination,2022.2.4,143.98226137771692,
positions.xlsx,stimuli.xlsx,test.xlsx,stimuli/Social1.png,stimuli/Social2.png,stimuli/Nonsocial1.png,stimuli/Nonsocial2.png,stimuli/Test1.png,stimuli/Test2.png,"(0.7, -0.5)",cs_minus_ns,"(-0.7, -0.5)",cs_plus_ns,0,0,0,0,,,,,0,3,3,46,,,,,,,,,,,,,,,102.75545050000073,103.76235440000892,103.76235440000892,103.90820499999973,104.41513999999734,104.41513999999734,104.56093229999533,ä,0.6927090999961365,correct,,105.26227880000079,105.7553149000014,103.76235440000892,,,,,,,,,,,,10,A,2023-12-08_09h11.37.918,gca_discrimination,2022.2.4,143.98226137771692,
positions.xlsx,stimuli.xlsx,test.xlsx,stimuli/Social1.png,stimuli/Social2.png,stimuli/Nonsocial1.png,stimuli/Nonsocial2.png,stimuli/Test1.png,stimuli/Test2.png,"(0.7, -0.5)",cs_minus_ns,"(0.7, 0.5)",cs_plus_ns,0,0,0,0,,,,,0,4,4,47,,,,,,,,,,,,,,,105.7553149000014,106.76224979999824,106.76224979999824,106.90805169999658,107.41493929999706,107.41493929999706,107.56079339999997,ä,0.3887045000010403,correct,,107.95660439999483,108.45658240000193,106.76224979999824,,,,,,,,,,,,10,A,2023-12-08_09h11.37.918,gca_discrimination,2022.2.4,143.98226137771692,
positions.xlsx,stimuli.xlsx,test.xlsx,stimuli/Social1.png,stimuli/Social2.png,stimuli/Nonsocial1.png,stimuli/Nonsocial2.png,stimuli/Test1.png,stimuli/Test2.png,"(-0.7, -0.5)",cs_plus_ns,"(0.7, 0.5)",cs_plus_ns,0,0,0,0,,,,,0,5,5,76,,,,,,,,,,,,,,,108.45658240000193,109.4635214000009,109.4635214000009,109.60932909999974,110.11622799999896,110.11622799999896,110.26208430000406,l,0.5839916999975685,correct,,110.85936899999797,111.43566050000663,109.4635214000009,,,,,,,,,,,,10,A,2023-12-08_09h11.37.918,gca_discrimination,2022.2.4,143.98226137771692,
positions.xlsx,stimuli.xlsx,test.xlsx,stimuli/Social1.png,stimuli/Social2.png,stimuli/Nonsocial1.png,stimuli/Nonsocial2.png,stimuli/Test1.png,stimuli/Test2.png,"(0.7, -0.5)",cs_minus_s,"(0.7, 0.5)",cs_plus_s,0,0,0,0,,,,,0,6,6,23,,,,,,,,,,,,,,,111.43566050000663,112.44256470000255,112.44256470000255,112.58838139999716,113.09530879999511,113.09530879999511,113.24114890000783,ä,0.9324976000061724,correct,,114.18554990000848,115.12994159999653,112.44256470000255,,,,,,,,,,,,10,A,2023-12-08_09h11.37.918,gca_discrimination,2022.2.4,143.98226137771692,
positions.xlsx,stimuli.xlsx,test.xlsx,stimuli/Social1.png,stimuli/Social2.png,stimuli/Nonsocial1.png,stimuli/Nonsocial2.png,stimuli/Test1.png,stimuli/Test2.png,"(0.7, 0.5)",cs_plus_ns,"(-0.7, 0.5)",cs_minus_ns,0,0,0,0,,,,,0,7,7,30,,,,,,,,,,,,,,,115.12994159999653,116.136834799996,116.136834799996,116.28268380000372,116.7896114000032,116.7896114000032,116.93543910000881,l,0.7038634000055026,wrong,,117.6506742000056,118.49783659999957,116.136834799996,,,,,,,,,,,,10,A,2023-12-08_09h11.37.918,gca_discrimination,2022.2.4,143.98226137771692,
positions.xlsx,stimuli.xlsx,test.xlsx,stimuli/Social1.png,stimuli/Social2.png,stimuli/Nonsocial1.png,stimuli/Nonsocial2.png,stimuli/Test1.png,stimuli/Test2.png,"(0.7, 0.5)",cs_minus_s,"(-0.7, 0.5)",cs_minus_s,0,0,0,0,,,,,0,8,8,66,,,,,,,,,,,,,,,118.49783659999957,119.50477179999871,119.50477179999871,119.65057280000474,120.15755390000413,120.15755390000413,120.30335470000864,l,0.6069391000055475,correct,,120.92140950000612,121.42828409999493,119.50477179999871,,,,,,,,,,,,10,A,2023-12-08_09h11.37.918,gca_discrimination,2022.2.4,143.98226137771692,
positions.xlsx,stimuli.xlsx,test.xlsx,stimuli/Social1.png,stimuli/Social2.png,stimuli/Nonsocial1.png,stimuli/Nonsocial2.png,stimuli/Test1.png,stimuli/Test2.png,"(-0.7, -0.5)",cs_minus_s,"(0.7, 0.5)",cs_minus_s,0,0,0,0,,,,,0,9,9,64,,,,,,,,,,,,,,,121.42828409999493,122.43523879999702,122.43523879999702,122.58102100000542,123.08797730000515,123.08797730000515,123.2338102000067,l,0.5403202000015881,correct,,123.782369499997,124.2476558000053,122.43523879999702,,,,,,,,,,,,10,A,2023-12-08_09h11.37.918,gca_discrimination,2022.2.4,143.98226137771692,
positions.xlsx,stimuli.xlsx,test.xlsx,stimuli/Social1.png,stimuli/Social2.png,stimuli/Nonsocial1.png,stimuli/Nonsocial2.png,stimuli/Test1.png,stimuli/Test2.png,"(0.7, 0.5)",cs_minus_s,"(-0.7, -0.5)",cs_minus_s,0,0,0,0,,,,,0,10,10,67,,,,,,,,,,,,,,,124.2476558000053,125.25456390000181,125.25456390000181,125.40033430000767,125.90729780000402,125.90729780000402,126.05316940000921,l,0.4088097000058042,correct,,126.4697584999958,127.24752109999827,125.25456390000181,,,,,,,,,,,,10,A,2023-12-08_09h11.37.918,gca_discrimination,2022.2.4,143.98226137771692,
positions.xlsx,stimuli.xlsx,test.xlsx,stimuli/Social1.png,stimuli/Social2.png,stimuli/Nonsocial1.png,stimuli/Nonsocial2.png,stimuli/Test1.png,stimuli/Test2.png,"(0.7, 0.5)",cs_minus_ns,"(-0.7, 0.5)",cs_minus_ns,0,0,0,0,,,,,0,11,11,90,,,,,,,,,,,,,,,127.24752109999827,128.25441550000687,128.25441550000687,128.40025730000343,128.907211800004,128.907211800004,129.053038500002,l,0.48899230000097305,correct,,129.55299680000462,129.55993230000604,128.25441550000687,,,,,,,,,,,,10,A,2023-12-08_09h11.37.918,gca_discrimination,2022.2.4,143.98226137771692,
positions.xlsx,stimuli.xlsx,test.xlsx,stimuli/Social1.png,stimuli/Social2.png,stimuli/Nonsocial1.png,stimuli/Nonsocial2.png,stimuli/Test1.png,stimuli/Test2.png,"(0.7, 0.5)",cs_plus_ns,"(0.7, -0.5)",cs_plus_ns,0,0,0,0,,,,,0,12,12,80,,,,,,,,,,,,,,,129.55993230000604,130.56683409999823,130.56683409999823,130.7126591999986,131.21959409999545,131.21959409999545,131.365386400008,l,0.5773451999993995,correct,,131.95566790000885,132.70563860000402,130.56683409999823,,,,,,,,,,,,10,A,2023-12-08_09h11.37.918,gca_discrimination,2022.2.4,143.98226137771692,
positions.xlsx,stimuli.xlsx,test.xlsx,stimuli/Social1.png,stimuli/Social2.png,stimuli/Nonsocial1.png,stimuli/Nonsocial2.png,stimuli/Test1.png,stimuli/Test2.png,"(-0.7, 0.5)",cs_minus_s,"(0.7, -0.5)",cs_plus_s,0,0,0,0,,,,,0,13,13,14,,,,,,,,,,,,,,,132.70563860000402,133.71257750000223,133.71257750000223,133.85836549999658,134.3653059000062,134.3653059000062,134.511127699996,ä,0.5428036999946926,correct,,135.06664970000566,135.53193910000846,133.71257750000223,,,,,,,,,,,,10,A,2023-12-08_09h11.37.918,gca_discrimination,2022.2.4,143.98226137771692,
positions.xlsx,stimuli.xlsx,test.xlsx,stimuli/Social1.png,stimuli/Social2.png,stimuli/Nonsocial1.png,stimuli/Nonsocial2.png,stimuli/Test1.png,stimuli/Test2.png,"(-0.7, -0.5)",cs_plus_ns,"(0.7, -0.5)",cs_minus_ns,0,0,0,0,,,,,0,14,14,29,,,,,,,,,,,,,,,135.53193910000846,136.53881549999642,136.53881549999642,136.68465769999602,137.19154650000564,137.19154650000564,137.33736550000322,ä,0.2762756000010995,correct,,137.622094499995,137.7818213999999,136.53881549999642,,,,,,,,,,,,10,A,2023-12-08_09h11.37.918,gca_discrimination,2022.2.4,143.98226137771692,
positions.xlsx,stimuli.xlsx,test.xlsx,stimuli/Social1.png,stimuli/Social2.png,stimuli/Nonsocial1.png,stimuli/Nonsocial2.png,stimuli/Test1.png,stimuli/Test2.png,"(0.7, -0.5)",cs_minus_ns,"(-0.7, 0.5)",cs_plus_ns,0,0,0,0,,,,,0,15,15,45,,,,,,,,,,,,,,,137.7818213999999,138.78870430000825,138.78870430000825,138.9345151000016,139.44145189999836,139.44145189999836,139.58727689999796,ä,0.37024569998902734,correct,,139.96921360000852,140.79558170000382,138.78870430000825,,,,,,,,,,,,10,A,2023-12-08_09h11.37.918,gca_discrimination,2022.2.4,143.98226137771692,
positions.xlsx,stimuli.xlsx,test.xlsx,stimuli/Social1.png,stimuli/Social2.png,stimuli/Nonsocial1.png,stimuli/Nonsocial2.png,stimuli/Test1.png,stimuli/Test2.png,"(0.7, -0.5)",cs_minus_s,"(-0.7, -0.5)",cs_minus_s,0,0,0,0,,,,,0,16,16,70,,,,,,,,,,,,,,,140.79558170000382,141.80254570000398,141.80254570000398,141.94833440000366,142.45524949999526,142.45524949999526,142.60107990000688,l,0.46847300000081304,correct,,143.08023140000296,143.76767860000837,141.80254570000398,,,,,,,,,,,,10,A,2023-12-08_09h11.37.918,gca_discrimination,2022.2.4,143.98226137771692,
positions.xlsx,stimuli.xlsx,test.xlsx,stimuli/Social1.png,stimuli/Social2.png,stimuli/Nonsocial1.png,stimuli/Nonsocial2.png,stimuli/Test1.png,stimuli/Test2.png,"(-0.7, 0.5)",cs_plus_s,"(0.7, -0.5)",cs_plus_s,0,0,0,0,,,,,0,17,17,50,,,,,,,,,,,,,,,143.76767860000837,144.77459290000843,144.77459290000843,144.920392,145.4274068000086,145.4274068000086,145.57319819999975,l,1.0249355000123614,correct,,146.60786540000117,147.53143350000028,144.77459290000843,,,,,,,,,,,,10,A,2023-12-08_09h11.37.918,gca_discrimination,2022.2.4,143.98226137771692,
positions.xlsx,stimuli.xlsx,test.xlsx,stimuli/Social1.png,stimuli/Social2.png,stimuli/Nonsocial1.png,stimuli/Nonsocial2.png,stimuli/Test1.png,stimuli/Test2.png,"(0.7, 0.5)",cs_plus_s,"(0.7, -0.5)",cs_minus_s,0,0,0,0,,,,,0,18,18,8,,,,,,,,,,,,,,,147.53143350000028,148.53835950000212,148.53835950000212,148.6841693000024,149.19112719999976,149.19112719999976,149.3369229999953,ä,0.7344909999956144,correct,,150.07993419999548,150.802127700008,148.53835950000212,,,,,,,,,,,,10,A,2023-12-08_09h11.37.918,gca_discrimination,2022.2.4,143.98226137771692,
positions.xlsx,stimuli.xlsx,test.xlsx,stimuli/Social1.png,stimuli/Social2.png,stimuli/Nonsocial1.png,stimuli/Nonsocial2.png,stimuli/Test1.png,stimuli/Test2.png,"(0.7, 0.5)",cs_minus_s,"(0.7, -0.5)",cs_minus_s,0,0,0,0,,,,,0,19,19,68,,,,,,,,,,,,,,,150.802127700008,151.80906620000314,151.80906620000314,151.95486600000004,152.46180040000763,152.46180040000763,152.60762890000478,l,0.7437067999999272,correct,,153.3645569000073,153.4617675000045,151.80906620000314,,,,,,,,,,,,10,A,2023-12-08_09h11.37.918,gca_discrimination,2022.2.4,143.98226137771692,
positions.xlsx,stimuli.xlsx,test.xlsx,stimuli/Social1.png,stimuli/Social2.png,stimuli/Nonsocial1.png,stimuli/Nonsocial2.png,stimuli/Test1.png,stimuli/Test2.png,"(-0.7, -0.5)",cs_plus_s,"(0.7, -0.5)",cs_minus_s,0,0,0,0,,,,,0,20,20,5,,,,,,,,,,,,,,,153.4617675000045,154.46871270000702,154.46871270000702,154.6145089000056,155.12139490000845,155.12139490000845,155.2672414999979,ä,0.8263988999970024,correct,,156.10055000000284,156.2116359000065,154.46871270000702,,,,,,,,,,,,10,A,2023-12-08_09h11.37.918,gca_discrimination,2022.2.4,143.98226137771692,
positions.xlsx,stimuli.xlsx,test.xlsx,stimuli/Social1.png,stimuli/Social2.png,stimuli/Nonsocial1.png,stimuli/Nonsocial2.png,stimuli/Test1.png,stimuli/Test2.png,"(-0.7, 0.5)",cs_minus_ns,"(0.7, -0.5)",cs_plus_ns,0,0,0,0,,,,,0,21,21,38,,,,,,,,,,,,,,,156.2116359000065,157.21852460000082,157.21852460000082,157.36442389999866,157.87130700000853,157.87130700000853,158.01711119999527,ä,0.5409276999998838,correct,,158.56570890000148,158.6282222000009,157.21852460000082,,,,,,,,,,,,10,A,2023-12-08_09h11.37.918,gca_discrimination,2022.2.4,143.98226137771692,
positions.xlsx,stimuli.xlsx,test.xlsx,stimuli/Social1.png,stimuli/Social2.png,stimuli/Nonsocial1.png,stimuli/Nonsocial2.png,stimuli/Test1.png,stimuli/Test2.png,"(-0.7, -0.5)",cs_plus_ns,"(-0.7, 0.5)",cs_plus_ns,0,0,0,0,,,,,0,22,22,75,,,,,,,,,,,,,,,158.6282222000009,159.6351175000018,159.6351175000018,159.78092950000428,160.28787870000815,160.28787870000815,160.4337000999949,l,0.5078303000045707,correct,,160.95451900000626,161.07951779999712,159.6351175000018,,,,,,,,,,,,10,A,2023-12-08_09h11.37.918,gca_discrimination,2022.2.4,143.98226137771692,
positions.xlsx,stimuli.xlsx,test.xlsx,stimuli/Social1.png,stimuli/Social2.png,stimuli/Nonsocial1.png,stimuli/Nonsocial2.png,stimuli/Test1.png,stimuli/Test2.png,"(-0.7, 0.5)",cs_minus_s,"(0.7, -0.5)",cs_minus_s,0,0,0,0,,,,,0,23,23,62,,,,,,,,,,,,,,,161.07951779999712,162.08643740000844,162.08643740000844,162.23225030000322,162.73916979999922,162.73916979999922,162.88499570000567,l,0.5776963999960572,correct,,163.47523450000153,163.73216270000557,162.08643740000844,,,,,,,,,,,,10,A,2023-12-08_09h11.37.918,gca_discrimination,2022.2.4,143.98226137771692,
positions.xlsx,stimuli.xlsx,test.xlsx,stimuli/Social1.png,stimuli/Social2.png,stimuli/Nonsocial1.png,stimuli/Nonsocial2.png,stimuli/Test1.png,stimuli/Test2.png,"(0.7, 0.5)",cs_plus_s,"(-0.7, 0.5)",cs_minus_s,0,0,0,0,,,,,0,24,24,6,,,,,,,,,,,,,,,163.73216270000557,164.73911249999946,164.73911249999946,164.88492179999594,165.39184340000793,165.39184340000793,165.53767970000627,ä,0.7801355999981752,correct,,166.32932479999727,167.28062960000534,164.73911249999946,,,,,,,,,,,,10,A,2023-12-08_09h11.37.918,gca_discrimination,2022.2.4,143.98226137771692,
positions.xlsx,stimuli.xlsx,test.xlsx,stimuli/Social1.png,stimuli/Social2.png,stimuli/Nonsocial1.png,stimuli/Nonsocial2.png,stimuli/Test1.png,stimuli/Test2.png,"(-0.7, -0.5)",cs_plus_s,"(-0.7, 0.5)",cs_plus_s,0,0,0,0,,,,,0,25,25,51,,,,,,,,,,,,,,,167.28062960000534,168.28763880000042,168.28763880000042,168.4334053000057,168.94033880000643,168.94033880000643,169.08614749999833,l,0.6970425000035902,correct,,169.79443219999666,170.31527049999568,168.28763880000042,,,,,,,,,,,,10,A,2023-12-08_09h11.37.918,gca_discrimination,2022.2.4,143.98226137771692,
positions.xlsx,stimuli.xlsx,test.xlsx,stimuli/Social1.png,stimuli/Social2.png,stimuli/Nonsocial1.png,stimuli/Nonsocial2.png,stimuli/Test1.png,stimuli/Test2.png,"(0.7, 0.5)",cs_plus_s,"(-0.7, -0.5)",cs_minus_s,0,0,0,0,,,,,0,26,26,7,,,,,,,,,,,,,,,170.31527049999568,171.322156299997,171.322156299997,171.46798539999872,171.97494970000116,171.97494970000116,172.12072420000914,ä,0.8224952000018675,correct,,172.95405610000307,173.22485990000132,171.322156299997,,,,,,,,,,,,10,A,2023-12-08_09h11.37.918,gca_discrimination,2022.2.4,143.98226137771692,
positions.xlsx,stimuli.xlsx,test.xlsx,stimuli/Social1.png,stimuli/Social2.png,stimuli/Nonsocial1.png,stimuli/Nonsocial2.png,stimuli/Test1.png,stimuli/Test2.png,"(-0.7, -0.5)",cs_plus_s,"(0.7, 0.5)",cs_plus_s,0,0,0,0,,,,,0,27,27,52,,,,,,,,,,,,,,,173.22485990000132,174.23180480000156,174.23180480000156,174.37761480000336,174.88450179999927,174.88450179999927,175.03034870000556,l,0.839553400001023,correct,,175.87751960000605,176.60668540000916,174.23180480000156,,,,,,,,,,,,10,A,2023-12-08_09h11.37.918,gca_discrimination,2022.2.4,143.98226137771692,
positions.xlsx,stimuli.xlsx,test.xlsx,stimuli/Social1.png,stimuli/Social2.png,stimuli/Nonsocial1.png,stimuli/Nonsocial2.png,stimuli/Test1.png,stimuli/Test2.png,"(0.7, -0.5)",cs_minus_s,"(-0.7, -0.5)",cs_plus_s,0,0,0,0,,,,,0,28,28,22,,,,,,,,,,,,,,,176.60668540000916,177.61357850000786,177.61357850000786,177.75941610000154,178.2663287000032,178.2663287000032,178.41217419999884,ä,0.6014473999966867,correct,,179.0232418999949,179.57182510000712,177.61357850000786,,,,,,,,,,,,10,A,2023-12-08_09h11.37.918,gca_discrimination,2022.2.4,143.98226137771692,
positions.xlsx,stimuli.xlsx,test.xlsx,stimuli/Social1.png,stimuli/Social2.png,stimuli/Nonsocial1.png,stimuli/Nonsocial2.png,stimuli/Test1.png,stimuli/Test2.png,"(-0.7, 0.5)",cs_minus_s,"(0.7, 0.5)",cs_plus_s,0,0,0,0,,,,,0,29,29,13,,,,,,,,,,,,,,,179.57182510000712,180.57871149999846,180.57871149999846,180.72456450000755,181.23152620000474,181.23152620000474,181.3773477000068,ä,0.38096860000223387,correct,,181.7661875000049,182.02312260000326,180.57871149999846,,,,,,,,,,,,10,A,2023-12-08_09h11.37.918,gca_discrimination,2022.2.4,143.98226137771692,
positions.xlsx,stimuli.xlsx,test.xlsx,stimuli/Social1.png,stimuli/Social2.png,stimuli/Nonsocial1.png,stimuli/Nonsocial2.png,stimuli/Test1.png,stimuli/Test2.png,"(-0.7, -0.5)",cs_plus_ns,"(0.7, -0.5)",cs_plus_ns,0,0,0,0,,,,,0,30,30,77,,,,,,,,,,,,,,,182.02312260000326,183.03000660000544,183.03000660000544,183.17587340000318,183.68275809999614,183.68275809999614,183.82857890000741,l,0.6096602000034181,correct,,184.4466395000054,184.77302839999902,183.03000660000544,,,,,,,,,,,,10,A,2023-12-08_09h11.37.918,gca_discrimination,2022.2.4,143.98226137771692,
positions.xlsx,stimuli.xlsx,test.xlsx,stimuli/Social1.png,stimuli/Social2.png,stimuli/Nonsocial1.png,stimuli/Nonsocial2.png,stimuli/Test1.png,stimuli/Test2.png,"(0.7, -0.5)",cs_minus_ns,"(-0.7, -0.5)",cs_minus_ns,0,0,0,0,,,,,0,31,31,94,,,,,,,,,,,,,,,184.77302839999902,185.77992529999756,185.77992529999756,185.9257601999998,186.43266109999968,186.43266109999968,186.57851839999785,l,0.475509099996998,correct,,187.06457970000338,187.42570200000773,185.77992529999756,,,,,,,,,,,,10,A,2023-12-08_09h11.37.918,gca_discrimination,2022.2.4,143.98226137771692,
positions.xlsx,stimuli.xlsx,test.xlsx,stimuli/Social1.png,stimuli/Social2.png,stimuli/Nonsocial1.png,stimuli/Nonsocial2.png,stimuli/Test1.png,stimuli/Test2.png,"(0.7, -0.5)",cs_plus_ns,"(0.7, 0.5)",cs_plus_ns,0,0,0,0,,,,,0,32,32,83,,,,,,,,,,,,,,,187.42570200000773,188.43259939999552,188.43259939999552,188.5784188999969,189.08534540000255,189.08534540000255,189.2311730000074,ä,0.5030008000030648,wrong,,189.74501610000152,190.4811778000003,188.43259939999552,,,,,,,,,,,,10,A,2023-12-08_09h11.37.918,gca_discrimination,2022.2.4,143.98226137771692,
positions.xlsx,stimuli.xlsx,test.xlsx,stimuli/Social1.png,stimuli/Social2.png,stimuli/Nonsocial1.png,stimuli/Nonsocial2.png,stimuli/Test1.png,stimuli/Test2.png,"(-0.7, -0.5)",cs_plus_s,"(0.7, -0.5)",cs_plus_s,0,0,0,0,,,,,0,33,33,53,,,,,,,,,,,,,,,190.4811778000003,191.48802699999942,191.48802699999942,191.63388680000207,192.1407964999962,192.1407964999962,192.28662440000335,l,0.7274898999894504,correct,,193.02267940000456,193.70320250000805,191.48802699999942,,,,,,,,,,,,10,A,2023-12-08_09h11.37.918,gca_discrimination,2022.2.4,143.98226137771692,
positions.xlsx,stimuli.xlsx,test.xlsx,stimuli/Social1.png,stimuli/Social2.png,stimuli/Nonsocial1.png,stimuli/Nonsocial2.png,stimuli/Test1.png,stimuli/Test2.png,"(0.7, 0.5)",cs_minus_s,"(-0.7, 0.5)",cs_plus_s,0,0,0,0,,,,,0,34,34,18,,,,,,,,,,,,,,,193.70320250000805,194.71010199999728,194.71010199999728,194.85596830000577,195.3629232999956,195.3629232999956,195.5087091000023,l,0.6488515999953961,wrong,,196.16840789999696,196.86977600000682,194.71010199999728,,,,,,,,,,,,10,A,2023-12-08_09h11.37.918,gca_discrimination,2022.2.4,143.98226137771692,
positions.xlsx,stimuli.xlsx,test.xlsx,stimuli/Social1.png,stimuli/Social2.png,stimuli/Nonsocial1.png,stimuli/Nonsocial2.png,stimuli/Test1.png,stimuli/Test2.png,"(0.7, -0.5)",cs_plus_ns,"(-0.7, -0.5)",cs_minus_ns,0,0,0,0,,,,,0,35,35,34,,,,,,,,,,,,,,,196.86977600000682,197.87666710000485,197.87666710000485,198.02249299999676,198.52948450000258,198.52948450000258,198.675264599995,ä,0.7721204999979818,correct,,199.4599378999992,200.07796330000565,197.87666710000485,,,,,,,,,,,,10,A,2023-12-08_09h11.37.918,gca_discrimination,2022.2.4,143.98226137771692,
positions.xlsx,stimuli.xlsx,test.xlsx,stimuli/Social1.png,stimuli/Social2.png,stimuli/Nonsocial1.png,stimuli/Nonsocial2.png,stimuli/Test1.png,stimuli/Test2.png,"(0.7, -0.5)",cs_minus_s,"(0.7, 0.5)",cs_minus_s,0,0,0,0,,,,,0,36,36,71,,,,,,,,,,,,,,,200.07796330000565,201.08489189999818,201.08489189999818,201.2306721000059,201.73759350000182,201.73759350000182,201.88345019999542,l,0.8422970000101486,correct,,202.73759010000504,203.48064589999558,201.08489189999818,,,,,,,,,,,,10,A,2023-12-08_09h11.37.918,gca_discrimination,2022.2.4,143.98226137771692,
positions.xlsx,stimuli.xlsx,test.xlsx,stimuli/Social1.png,stimuli/Social2.png,stimuli/Nonsocial1.png,stimuli/Nonsocial2.png,stimuli/Test1.png,stimuli/Test2.png,"(-0.7, 0.5)",cs_plus_ns,"(0.7, 0.5)",cs_minus_ns,0,0,0,0,,,,,0,37,37,25,,,,,,,,,,,,,,,203.48064589999558,204.48748480000359,204.48748480000359,204.6333067999949,205.14028639999742,205.14028639999742,205.28609960000904,ä,0.7359632000006968,correct,,206.0291270000016,206.51521300000604,204.48748480000359,,,,,,,,,,,,10,A,2023-12-08_09h11.37.918,gca_discrimination,2022.2.4,143.98226137771692,
positions.xlsx,stimuli.xlsx,test.xlsx,stimuli/Social1.png,stimuli/Social2.png,stimuli/Nonsocial1.png,stimuli/Nonsocial2.png,stimuli/Test1.png,stimuli/Test2.png,"(0.7, 0.5)",cs_plus_s,"(-0.7, -0.5)",cs_plus_s,0,0,0,0,,,,,0,38,38,55,,,,,,,,,,,,,,,206.51521300000604,207.5221506000089,207.5221506000089,207.6679593000008,208.17488730000332,208.17488730000332,208.32067860000825,l,0.8610225000011269,correct,,209.18872720000218,209.9664585999999,207.5221506000089,,,,,,,,,,,,10,A,2023-12-08_09h11.37.918,gca_discrimination,2022.2.4,143.98226137771692,
positions.xlsx,stimuli.xlsx,test.xlsx,stimuli/Social1.png,stimuli/Social2.png,stimuli/Nonsocial1.png,stimuli/Nonsocial2.png,stimuli/Test1.png,stimuli/Test2.png,"(0.7, 0.5)",cs_minus_ns,"(-0.7, 0.5)",cs_plus_ns,0,0,0,0,,,,,0,39,39,42,,,,,,,,,,,,,,,209.9664585999999,210.9733669999987,210.9733669999987,211.11919100000523,211.62611959999776,211.62611959999776,211.77195629999915,ä,0.7460804000002099,correct,,212.5288331000047,212.81351469999936,210.9733669999987,,,,,,,,,,,,10,A,2023-12-08_09h11.37.918,gca_discrimination,2022.2.4,143.98226137771692,
positions.xlsx,stimuli.xlsx,test.xlsx,stimuli/Social1.png,stimuli/Social2.png,stimuli/Nonsocial1.png,stimuli/Nonsocial2.png,stimuli/Test1.png,stimuli/Test2.png,"(0.7, -0.5)",cs_plus_ns,"(-0.7, 0.5)",cs_plus_ns,0,0,0,0,,,,,0,40,40,81,,,,,,,,,,,,,,,212.81351469999936,213.820464000004,213.820464000004,213.96629979999852,214.47322719999647,214.47322719999647,214.61908859999676,l,0.786714200003189,correct,,215.4176737000089,216.38982530000794,213.820464000004,,,,,,,,,,,,10,A,2023-12-08_09h11.37.918,gca_discrimination,2022.2.4,143.98226137771692,
positions.xlsx,stimuli.xlsx,test.xlsx,stimuli/Social1.png,stimuli/Social2.png,stimuli/Nonsocial1.png,stimuli/Nonsocial2.png,stimuli/Test1.png,stimuli/Test2.png,"(-0.7, 0.5)",cs_minus_ns,"(-0.7, -0.5)",cs_plus_ns,0,0,0,0,,,,,0,41,41,36,,,,,,,,,,,,,,,216.38982530000794,217.39674070000183,217.39674070000183,217.54254789999686,218.04948400000285,218.04948400000285,218.19529760000296,ä,0.5225999999966007,correct,,218.73003980000794,219.32025940000312,217.39674070000183,,,,,,,,,,,,10,A,2023-12-08_09h11.37.918,gca_discrimination,2022.2.4,143.98226137771692,
positions.xlsx,stimuli.xlsx,test.xlsx,stimuli/Social1.png,stimuli/Social2.png,stimuli/Nonsocial1.png,stimuli/Nonsocial2.png,stimuli/Test1.png,stimuli/Test2.png,"(-0.7, -0.5)",cs_minus_s,"(0.7, -0.5)",cs_minus_s,0,0,0,0,,,,,0,42,42,65,,,,,,,,,,,,,,,219.32025940000312,220.32716970000183,220.32716970000183,220.47299300000304,220.9799350999965,220.9799350999965,221.12576379999518,l,0.6001535999967018,correct,,221.7368872000079,222.44515890000912,220.32716970000183,,,,,,,,,,,,10,A,2023-12-08_09h11.37.918,gca_discrimination,2022.2.4,143.98226137771692,
positions.xlsx,stimuli.xlsx,test.xlsx,stimuli/Social1.png,stimuli/Social2.png,stimuli/Nonsocial1.png,stimuli/Nonsocial2.png,stimuli/Test1.png,stimuli/Test2.png,"(0.7, 0.5)",cs_plus_ns,"(-0.7, -0.5)",cs_plus_ns,0,0,0,0,,,,,0,43,43,79,,,,,,,,,,,,,,,222.44515890000912,223.45204780000495,223.45204780000495,223.5978555000038,224.1047991999949,224.1047991999949,224.2506260000082,l,0.7317189000023063,correct,,224.99365089999628,225.87555650000286,223.45204780000495,,,,,,,,,,,,10,A,2023-12-08_09h11.37.918,gca_discrimination,2022.2.4,143.98226137771692,
positions.xlsx,stimuli.xlsx,test.xlsx,stimuli/Social1.png,stimuli/Social2.png,stimuli/Nonsocial1.png,stimuli/Nonsocial2.png,stimuli/Test1.png,stimuli/Test2.png,"(0.7, -0.5)",cs_minus_s,"(-0.7, 0.5)",cs_minus_s,0,0,0,0,,,,,0,44,44,69,,,,,,,,,,,,,,,225.87555650000286,226.88247100000444,226.88247100000444,227.0282937000011,227.5352423000004,227.5352423000004,227.6810542000021,l,0.45254209999984596,correct,,228.1463162,228.63239290000638,226.88247100000444,,,,,,,,,,,,10,A,2023-12-08_09h11.37.918,gca_discrimination,2022.2.4,143.98226137771692,
positions.xlsx,stimuli.xlsx,test.xlsx,stimuli/Social1.png,stimuli/Social2.png,stimuli/Nonsocial1.png,stimuli/Nonsocial2.png,stimuli/Test1.png,stimuli/Test2.png,"(0.7, -0.5)",cs_plus_s,"(-0.7, -0.5)",cs_plus_s,0,0,0,0,,,,,0,45,45,58,,,,,,,,,,,,,,,228.63239290000638,229.63928370000212,229.63928370000212,229.78511959999742,230.29206550000526,230.29206550000526,230.43788880000648,l,0.7442331999918679,correct,,231.19477400000324,231.71562489999633,229.63928370000212,,,,,,,,,,,,10,A,2023-12-08_09h11.37.918,gca_discrimination,2022.2.4,143.98226137771692,
positions.xlsx,stimuli.xlsx,test.xlsx,stimuli/Social1.png,stimuli/Social2.png,stimuli/Nonsocial1.png,stimuli/Nonsocial2.png,stimuli/Test1.png,stimuli/Test2.png,"(-0.7, -0.5)",cs_minus_ns,"(-0.7, 0.5)",cs_minus_ns,0,0,0,0,,,,,0,46,46,87,,,,,,,,,,,,,,,231.71562489999633,232.72253199999977,232.72253199999977,232.86834519999684,233.37527350000164,233.37527350000164,233.52110739999625,l,0.37290060000668745,correct,,233.9030783000053,233.9308255000069,232.72253199999977,,,,,,,,,,,,10,A,2023-12-08_09h11.37.918,gca_discrimination,2022.2.4,143.98226137771692,
positions.xlsx,stimuli.xlsx,test.xlsx,stimuli/Social1.png,stimuli/Social2.png,stimuli/Nonsocial1.png,stimuli/Nonsocial2.png,stimuli/Test1.png,stimuli/Test2.png,"(0.7, 0.5)",cs_plus_ns,"(-0.7, 0.5)",cs_plus_ns,0,0,0,0,,,,,0,47,47,78,,,,,,,,,,,,,,,233.9308255000069,234.93772230000468,234.93772230000468,235.08352820000437,235.5904670000018,235.5904670000018,235.7362967000081,l,0.4374409000010928,correct,,236.1806968000019,236.66680740000447,234.93772230000468,,,,,,,,,,,,10,A,2023-12-08_09h11.37.918,gca_discrimination,2022.2.4,143.98226137771692,
positions.xlsx,stimuli.xlsx,test.xlsx,stimuli/Social1.png,stimuli/Social2.png,stimuli/Nonsocial1.png,stimuli/Nonsocial2.png,stimuli/Test1.png,stimuli/Test2.png,"(-0.7, 0.5)",cs_plus_ns,"(0.7, -0.5)",cs_plus_ns,0,0,0,0,,,,,0,48,48,74,,,,,,,,,,,,,,,236.66680740000447,237.67373969999608,237.67373969999608,237.81953860000067,238.3264793999988,238.3264793999988,238.47231219999958,l,0.269421400007559,correct,,238.75007520000509,239.5347669000039,237.67373969999608,,,,,,,,,,,,10,A,2023-12-08_09h11.37.918,gca_discrimination,2022.2.4,143.98226137771692,
positions.xlsx,stimuli.xlsx,test.xlsx,stimuli/Social1.png,stimuli/Social2.png,stimuli/Nonsocial1.png,stimuli/Nonsocial2.png,stimuli/Test1.png,stimuli/Test2.png,"(-0.7, 0.5)",cs_plus_s,"(-0.7, -0.5)",cs_minus_s,0,0,0,0,,,,,0,49,49,0,,,,,,,,,,,,,,,239.5347669000039,240.54162620000716,240.54162620000716,240.68748530000448,241.19440680000116,241.19440680000116,241.3402408999973,ä,0.489885899994988,correct,,241.84023410000373,242.24991769999906,240.54162620000716,,,,,,,,,,,,10,A,2023-12-08_09h11.37.918,gca_discrimination,2022.2.4,143.98226137771692,
positions.xlsx,stimuli.xlsx,test.xlsx,stimuli/Social1.png,stimuli/Social2.png,stimuli/Nonsocial1.png,stimuli/Nonsocial2.png,stimuli/Test1.png,stimuli/Test2.png,"(-0.7, -0.5)",cs_minus_ns,"(0.7, -0.5)",cs_minus_ns,0,0,0,0,,,,,0,50,50,89,,,,,,,,,,,,,,,242.24991769999906,243.25684519999777,243.25684519999777,243.40265960000397,243.9095745000086,243.9095745000086,244.05539839999983,l,0.6064575999916997,correct,,244.67343500000425,245.53458220000903,243.25684519999777,,,,,,,,,,,,10,A,2023-12-08_09h11.37.918,gca_discrimination,2022.2.4,143.98226137771692,
positions.xlsx,stimuli.xlsx,test.xlsx,stimuli/Social1.png,stimuli/Social2.png,stimuli/Nonsocial1.png,stimuli/Nonsocial2.png,stimuli/Test1.png,stimuli/Test2.png,"(-0.7, -0.5)",cs_plus_ns,"(-0.7, 0.5)",cs_minus_ns,0,0,0,0,,,,,0,51,51,27,,,,,,,,,,,,,,,245.53458220000903,246.54143379999732,246.54143379999732,246.68727150000632,247.19416030000139,247.19416030000139,247.33996820000175,ä,0.4736177000013413,correct,,247.82610459999705,248.50662460000603,246.54143379999732,,,,,,,,,,,,10,A,2023-12-08_09h11.37.918,gca_discrimination,2022.2.4,143.98226137771692,
positions.xlsx,stimuli.xlsx,test.xlsx,stimuli/Social1.png,stimuli/Social2.png,stimuli/Nonsocial1.png,stimuli/Nonsocial2.png,stimuli/Test1.png,stimuli/Test2.png,"(0.7, -0.5)",cs_plus_s,"(-0.7, 0.5)",cs_minus_s,0,0,0,0,,,,,0,52,52,9,,,,,,,,,,,,,,,248.50662460000603,249.51354129999527,249.51354129999527,249.65937219999614,250.16627580000204,250.16627580000204,250.3121042999992,ä,0.534237400002894,correct,,250.85375380000914,251.24957580000046,249.51354129999527,,,,,,,,,,,,10,A,2023-12-08_09h11.37.918,gca_discrimination,2022.2.4,143.98226137771692,
positions.xlsx,stimuli.xlsx,test.xlsx,stimuli/Social1.png,stimuli/Social2.png,stimuli/Nonsocial1.png,stimuli/Nonsocial2.png,stimuli/Test1.png,stimuli/Test2.png,"(-0.7, 0.5)",cs_plus_s,"(-0.7, -0.5)",cs_plus_s,0,0,0,0,,,,,0,53,53,48,,,,,,,,,,,,,,,251.24957580000046,252.25647690000187,252.25647690000187,252.40232140000444,252.9091957000055,252.9091957000055,253.0550349999976,l,0.7030675999994855,correct,,253.77030709999963,253.90223170000536,252.25647690000187,,,,,,,,,,,,10,A,2023-12-08_09h11.37.918,gca_discrimination,2022.2.4,143.98226137771692,
positions.xlsx,stimuli.xlsx,test.xlsx,stimuli/Social1.png,stimuli/Social2.png,stimuli/Nonsocial1.png,stimuli/Nonsocial2.png,stimuli/Test1.png,stimuli/Test2.png,"(-0.7, -0.5)",cs_minus_s,"(-0.7, 0.5)",cs_minus_s,0,0,0,0,,,,,0,54,54,63,,,,,,,,,,,,,,,253.90223170000536,254.90911870000127,254.90911870000127,255.05495269999665,255.56190600000264,255.56190600000264,255.70772829999623,l,0.42623539999476634,correct,,256.1451859000081,256.22851349999837,254.90911870000127,,,,,,,,,,,,10,A,2023-12-08_09h11.37.918,gca_discrimination,2022.2.4,143.98226137771692,
positions.xlsx,stimuli.xlsx,test.xlsx,stimuli/Social1.png,stimuli/Social2.png,stimuli/Nonsocial1.png,stimuli/Nonsocial2.png,stimuli/Test1.png,stimuli/Test2.png,"(-0.7, 0.5)",cs_minus_ns,"(-0.7, -0.5)",cs_minus_ns,0,0,0,0,,,,,0,55,55,84,,,,,,,,,,,,,,,256.22851349999837,257.2354459000053,257.2354459000053,257.38127159999567,257.88820000000123,257.88820000000123,258.03401800000574,l,0.4201824000047054,correct,,258.46456380000745,258.50621770000726,257.2354459000053,,,,,,,,,,,,10,A,2023-12-08_09h11.37.918,gca_discrimination,2022.2.4,143.98226137771692,
positions.xlsx,stimuli.xlsx,test.xlsx,stimuli/Social1.png,stimuli/Social2.png,stimuli/Nonsocial1.png,stimuli/Nonsocial2.png,stimuli/Test1.png,stimuli/Test2.png,"(0.7, -0.5)",cs_plus_ns,"(0.7, 0.5)",cs_minus_ns,0,0,0,0,,,,,0,56,56,35,,,,,,,,,,,,,,,258.50621770000726,259.51314979999734,259.51314979999734,259.6589687000087,260.1658832999965,260.1658832999965,260.31168230000185,ä,0.9501625999982934,correct,,261.26999060000526,262.13107299999683,259.51314979999734,,,,,,,,,,,,10,A,2023-12-08_09h11.37.918,gca_discrimination,2022.2.4,143.98226137771692,
positions.xlsx,stimuli.xlsx,test.xlsx,stimuli/Social1.png,stimuli/Social2.png,stimuli/Nonsocial1.png,stimuli/Nonsocial2.png,stimuli/Test1.png,stimuli/Test2.png,"(0.7, -0.5)",cs_minus_ns,"(-0.7, 0.5)",cs_minus_ns,0,0,0,0,,,,,0,57,57,93,,,,,,,,,,,,,,,262.13107299999683,263.1379644999979,263.1379644999979,263.28383020000183,263.7907419999974,263.7907419999974,263.9365733000013,l,0.49418039999727625,correct,,264.4434857000015,264.60320830000273,263.1379644999979,,,,,,,,,,,,10,A,2023-12-08_09h11.37.918,gca_discrimination,2022.2.4,143.98226137771692,
positions.xlsx,stimuli.xlsx,test.xlsx,stimuli/Social1.png,stimuli/Social2.png,stimuli/Nonsocial1.png,stimuli/Nonsocial2.png,stimuli/Test1.png,stimuli/Test2.png,"(-0.7, -0.5)",cs_plus_s,"(0.7, 0.5)",cs_minus_s,0,0,0,0,,,,,0,58,58,4,,,,,,,,,,,,,,,264.60320830000273,265.61007779999636,265.61007779999636,265.75594850000925,266.2628523000021,266.2628523000021,266.40869330000714,ä,0.7649157999985619,correct,,267.18642230000114,268.1586243000056,265.61007779999636,,,,,,,,,,,,10,A,2023-12-08_09h11.37.918,gca_discrimination,2022.2.4,143.98226137771692,
positions.xlsx,stimuli.xlsx,test.xlsx,stimuli/Social1.png,stimuli/Social2.png,stimuli/Nonsocial1.png,stimuli/Nonsocial2.png,stimuli/Test1.png,stimuli/Test2.png,"(0.7, 0.5)",cs_plus_s,"(-0.7, 0.5)",cs_plus_s,0,0,0,0,,,,,0,59,59,54,,,,,,,,,,,,,,,268.1586243000056,269.16555289999815,269.16555289999815,269.311392100004,269.81829900000594,269.81829900000594,269.9640537999949,l,0.5463891999970656,correct,,270.5196264999977,271.01962230000936,269.16555289999815,,,,,,,,,,,,10,A,2023-12-08_09h11.37.918,gca_discrimination,2022.2.4,143.98226137771692,
positions.xlsx,stimuli.xlsx,test.xlsx,stimuli/Social1.png,stimuli/Social2.png,stimuli/Nonsocial1.png,stimuli/Nonsocial2.png,stimuli/Test1.png,stimuli/Test2.png,"(-0.7, -0.5)",cs_minus_ns,"(0.7, -0.5)",cs_plus_ns,0,0,0,0,,,,,0,60,60,41,,,,,,,,,,,,,,,271.01962230000936,272.0265375000017,272.0265375000017,272.1723634000082,272.6792884000024,272.6792884000024,272.8250859999971,ä,0.8211568999977317,correct,,273.6584138000035,273.70701339999505,272.0265375000017,,,,,,,,,,,,10,A,2023-12-08_09h11.37.918,gca_discrimination,2022.2.4,143.98226137771692,
positions.xlsx,stimuli.xlsx,test.xlsx,stimuli/Social1.png,stimuli/Social2.png,stimuli/Nonsocial1.png,stimuli/Nonsocial2.png,stimuli/Test1.png,stimuli/Test2.png,"(0.7, 0.5)",cs_plus_s,"(0.7, -0.5)",cs_plus_s,0,0,0,0,,,,,0,61,61,56,,,,,,,,,,,,,,,273.70701339999505,274.7139432999975,274.7139432999975,274.8597665999987,275.3666613999958,275.3666613999958,275.5125151999964,l,0.7346412999904715,correct,,276.25549870000395,276.6166666000063,274.7139432999975,,,,,,,,,,,,10,A,2023-12-08_09h11.37.918,gca_discrimination,2022.2.4,143.98226137771692,
positions.xlsx,stimuli.xlsx,test.xlsx,stimuli/Social1.png,stimuli/Social2.png,stimuli/Nonsocial1.png,stimuli/Nonsocial2.png,stimuli/Test1.png,stimuli/Test2.png,"(-0.7, 0.5)",cs_plus_ns,"(-0.7, -0.5)",cs_minus_ns,0,0,0,0,,,,,0,62,62,24,,,,,,,,,,,,,,,276.6166666000063,277.62353409999923,277.62353409999923,277.7693478000001,278.2763025000022,278.2763025000022,278.4221230999974,ä,0.8881270999991102,correct,,279.31790910000564,279.70677720000094,277.62353409999923,,,,,,,,,,,,10,A,2023-12-08_09h11.37.918,gca_discrimination,2022.2.4,143.98226137771692,
positions.xlsx,stimuli.xlsx,test.xlsx,stimuli/Social1.png,stimuli/Social2.png,stimuli/Nonsocial1.png,stimuli/Nonsocial2.png,stimuli/Test1.png,stimuli/Test2.png,"(0.7, 0.5)",cs_plus_ns,"(0.7, -0.5)",cs_minus_ns,0,0,0,0,,,,,0,63,63,32,,,,,,,,,,,,,,,279.70677720000094,280.71370720000414,280.71370720000414,280.8595171000052,281.3664514999982,281.3664514999982,281.51228130000527,ä,0.36568220000481233,correct,,281.8872560000018,282.8316399000032,280.71370720000414,,,,,,,,,,,,10,A,2023-12-08_09h11.37.918,gca_discrimination,2022.2.4,143.98226137771692,
positions.xlsx,stimuli.xlsx,test.xlsx,stimuli/Social1.png,stimuli/Social2.png,stimuli/Nonsocial1.png,stimuli/Nonsocial2.png,stimuli/Test1.png,stimuli/Test2.png,"(0.7, 0.5)",cs_plus_ns,"(-0.7, -0.5)",cs_minus_ns,0,0,0,0,,,,,0,64,64,31,,,,,,,,,,,,,,,282.8316399000032,283.83858120000514,283.83858120000514,283.98440200000186,284.49131549999584,284.49131549999584,284.6371846999973,ä,1.0410312000021804,correct,,285.6857183999964,286.109303300007,283.83858120000514,,,,,,,,,,,,10,A,2023-12-08_09h11.37.918,gca_discrimination,2022.2.4,143.98226137771692,
positions.xlsx,stimuli.xlsx,test.xlsx,stimuli/Social1.png,stimuli/Social2.png,stimuli/Nonsocial1.png,stimuli/Nonsocial2.png,stimuli/Test1.png,stimuli/Test2.png,"(-0.7, -0.5)",cs_minus_s,"(0.7, 0.5)",cs_plus_s,0,0,0,0,,,,,0,65,65,16,,,,,,,,,,,,,,,286.109303300007,287.1161742999975,287.1161742999975,287.2620523000078,287.7689771000005,287.7689771000005,287.91480490000686,ä,0.5789534999930765,correct,,288.50507559999824,289.0050285000034,287.1161742999975,,,,,,,,,,,,10,A,2023-12-08_09h11.37.918,gca_discrimination,2022.2.4,143.98226137771692,
positions.xlsx,stimuli.xlsx,test.xlsx,stimuli/Social1.png,stimuli/Social2.png,stimuli/Nonsocial1.png,stimuli/Nonsocial2.png,stimuli/Test1.png,stimuli/Test2.png,"(0.7, -0.5)",cs_plus_ns,"(-0.7, 0.5)",cs_minus_ns,0,0,0,0,,,,,0,66,66,33,,,,,,,,,,,,,,,289.0050285000034,290.01195919999736,290.01195919999736,290.1577505000023,290.6647196999984,290.6647196999984,290.8104833999969,ä,0.27591679999022745,correct,,291.0952021999983,291.47716370000853,290.01195919999736,,,,,,,,,,,,10,A,2023-12-08_09h11.37.918,gca_discrimination,2022.2.4,143.98226137771692,
positions.xlsx,stimuli.xlsx,test.xlsx,stimuli/Social1.png,stimuli/Social2.png,stimuli/Nonsocial1.png,stimuli/Nonsocial2.png,stimuli/Test1.png,stimuli/Test2.png,"(-0.7, 0.5)",cs_plus_ns,"(0.7, 0.5)",cs_plus_ns,0,0,0,0,,,,,0,67,67,73,,,,,,,,,,,,,,,291.47716370000853,292.4840880999982,292.4840880999982,292.629906999995,293.1368011000013,293.1368011000013,293.2826359000028,ä,0.05126400000881404,wrong,,293.34512100000575,293.6785009000014,292.4840880999982,,,,,,,,,,,,10,A,2023-12-08_09h11.37.918,gca_discrimination,2022.2.4,143.98226137771692,
positions.xlsx,stimuli.xlsx,test.xlsx,stimuli/Social1.png,stimuli/Social2.png,stimuli/Nonsocial1.png,stimuli/Nonsocial2.png,stimuli/Test1.png,stimuli/Test2.png,"(0.7, 0.5)",cs_minus_ns,"(-0.7, -0.5)",cs_minus_ns,0,0,0,0,,,,,0,68,68,91,,,,,,,,,,,,,,,293.6785009000014,294.6853368000011,294.6853368000011,294.8311815000052,295.33807110000635,295.33807110000635,295.4839379000041,l,0.5862248999910662,correct,,296.0811326999974,296.42831610000576,294.6853368000011,,,,,,,,,,,,10,A,2023-12-08_09h11.37.918,gca_discrimination,2022.2.4,143.98226137771692,
positions.xlsx,stimuli.xlsx,test.xlsx,stimuli/Social1.png,stimuli/Social2.png,stimuli/Nonsocial1.png,stimuli/Nonsocial2.png,stimuli/Test1.png,stimuli/Test2.png,"(-0.7, 0.5)",cs_minus_s,"(0.7, 0.5)",cs_minus_s,0,0,0,0,,,,,0,69,69,61,,,,,,,,,,,,,,,296.42831610000576,297.4353412000055,297.4353412000055,297.58107569999993,298.08801819999644,298.08801819999644,298.23385220000637,l,0.5406713999982458,correct,,298.78240530000767,299.3310310000088,297.4353412000055,,,,,,,,,,,,10,A,2023-12-08_09h11.37.918,gca_discrimination,2022.2.4,143.98226137771692,
positions.xlsx,stimuli.xlsx,test.xlsx,stimuli/Social1.png,stimuli/Social2.png,stimuli/Nonsocial1.png,stimuli/Nonsocial2.png,stimuli/Test1.png,stimuli/Test2.png,"(0.7, 0.5)",cs_minus_s,"(0.7, -0.5)",cs_plus_s,0,0,0,0,,,,,0,70,70,20,,,,,,,,,,,,,,,299.3310310000088,300.33791180000117,300.33791180000117,300.4837540000008,300.9906800000026,300.9906800000026,301.13650540000526,l,0.5013616000069305,wrong,,301.6503471000033,302.24756160000106,300.33791180000117,,,,,,,,,,,,10,A,2023-12-08_09h11.37.918,gca_discrimination,2022.2.4,143.98226137771692,
positions.xlsx,stimuli.xlsx,test.xlsx,stimuli/Social1.png,stimuli/Social2.png,stimuli/Nonsocial1.png,stimuli/Nonsocial2.png,stimuli/Test1.png,stimuli/Test2.png,"(0.7, -0.5)",cs_plus_s,"(-0.7, -0.5)",cs_minus_s,0,0,0,0,,,,,0,71,71,10,,,,,,,,,,,,,,,302.24756160000106,303.2544637999963,303.2544637999963,303.40031490000547,303.9071980000008,303.9071980000008,304.05304559999786,ä,0.44170380001014564,correct,,304.5043912999972,304.9696591999964,303.2544637999963,,,,,,,,,,,,10,A,2023-12-08_09h11.37.918,gca_discrimination,2022.2.4,143.98226137771692,
positions.xlsx,stimuli.xlsx,test.xlsx,stimuli/Social1.png,stimuli/Social2.png,stimuli/Nonsocial1.png,stimuli/Nonsocial2.png,stimuli/Test1.png,stimuli/Test2.png,"(-0.7, -0.5)",cs_minus_s,"(0.7, -0.5)",cs_plus_s,0,0,0,0,,,,,0,72,72,17,,,,,,,,,,,,,,,304.9696591999964,305.9766229000088,305.9766229000088,306.12241429999995,306.629382500003,306.629382500003,306.775166499996,ä,0.46290670000598766,correct,,307.2473522000073,307.75428760000796,305.9766229000088,,,,,,,,,,,,10,A,2023-12-08_09h11.37.918,gca_discrimination,2022.2.4,143.98226137771692,
positions.xlsx,stimuli.xlsx,test.xlsx,stimuli/Social1.png,stimuli/Social2.png,stimuli/Nonsocial1.png,stimuli/Nonsocial2.png,stimuli/Test1.png,stimuli/Test2.png,"(0.7, -0.5)",cs_plus_s,"(0.7, 0.5)",cs_plus_s,0,0,0,0,,,,,0,73,73,59,,,,,,,,,,,,,,,307.75428760000796,308.761167500008,308.761167500008,308.9070209000056,309.41396350000286,309.41396350000286,309.5597665999958,l,0.4874042000010377,correct,,310.05973609999637,310.38610669999616,308.761167500008,,,,,,,,,,,,10,A,2023-12-08_09h11.37.918,gca_discrimination,2022.2.4,143.98226137771692,
positions.xlsx,stimuli.xlsx,test.xlsx,stimuli/Social1.png,stimuli/Social2.png,stimuli/Nonsocial1.png,stimuli/Nonsocial2.png,stimuli/Test1.png,stimuli/Test2.png,"(0.7, 0.5)",cs_minus_ns,"(-0.7, -0.5)",cs_plus_ns,0,0,0,0,,,,,0,74,74,43,,,,,,,,,,,,,,,310.38610669999616,311.39303220000875,311.39303220000875,311.5388590000075,312.04576839999936,312.04576839999936,312.19160340000235,ä,0.5342891000036616,correct,,312.73323140000866,313.01792600000044,311.39303220000875,,,,,,,,,,,,10,A,2023-12-08_09h11.37.918,gca_discrimination,2022.2.4,143.98226137771692,
positions.xlsx,stimuli.xlsx,test.xlsx,stimuli/Social1.png,stimuli/Social2.png,stimuli/Nonsocial1.png,stimuli/Nonsocial2.png,stimuli/Test1.png,stimuli/Test2.png,"(0.7, 0.5)",cs_minus_s,"(-0.7, -0.5)",cs_plus_s,0,0,0,0,,,,,0,75,75,19,,,,,,,,,,,,,,,313.01792600000044,314.0248835999955,314.0248835999955,314.1707146999979,314.6776475000079,314.6776475000079,314.82346790000156,ä,0.46225240000057966,correct,,315.2956785999995,315.61507329999586,314.0248835999955,,,,,,,,,,,,10,A,2023-12-08_09h11.37.918,gca_discrimination,2022.2.4,143.98226137771692,
positions.xlsx,stimuli.xlsx,test.xlsx,stimuli/Social1.png,stimuli/Social2.png,stimuli/Nonsocial1.png,stimuli/Nonsocial2.png,stimuli/Test1.png,stimuli/Test2.png,"(-0.7, 0.5)",cs_plus_s,"(0.7, 0.5)",cs_minus_s,0,0,0,0,,,,,0,76,76,1,,,,,,,,,,,,,,,315.61507329999586,316.62198029999854,316.62198029999854,316.76781820000906,317.2747485,317.2747485,317.42055280000204,ä,0.3935763999907067,correct,,317.82332369999494,318.5454991000006,316.62198029999854,,,,,,,,,,,,10,A,2023-12-08_09h11.37.918,gca_discrimination,2022.2.4,143.98226137771692,
positions.xlsx,stimuli.xlsx,test.xlsx,stimuli/Social1.png,stimuli/Social2.png,stimuli/Nonsocial1.png,stimuli/Nonsocial2.png,stimuli/Test1.png,stimuli/Test2.png,"(0.7, -0.5)",cs_minus_s,"(-0.7, 0.5)",cs_plus_s,0,0,0,0,,,,,0,77,77,21,,,,,,,,,,,,,,,318.5454991000006,319.5524330000044,319.5524330000044,319.6982604000077,320.20520209999813,320.20520209999813,320.3510152999952,ä,0.44678370001201984,correct,,320.80934629999683,321.6287428000069,319.5524330000044,,,,,,,,,,,,10,A,2023-12-08_09h11.37.918,gca_discrimination,2022.2.4,143.98226137771692,
positions.xlsx,stimuli.xlsx,test.xlsx,stimuli/Social1.png,stimuli/Social2.png,stimuli/Nonsocial1.png,stimuli/Nonsocial2.png,stimuli/Test1.png,stimuli/Test2.png,"(-0.7, 0.5)",cs_minus_ns,"(0.7, -0.5)",cs_minus_ns,0,0,0,0,,,,,0,78,78,86,,,,,,,,,,,,,,,321.6287428000069,322.6356925,322.6356925,322.781455999997,323.28840240000864,323.28840240000864,323.43421419999504,ä,0.7893303000018932,wrong,,324.23278720000235,324.89250080000784,322.6356925,,,,,,,,,,,,10,A,2023-12-08_09h11.37.918,gca_discrimination,2022.2.4,143.98226137771692,
positions.xlsx,stimuli.xlsx,test.xlsx,stimuli/Social1.png,stimuli/Social2.png,stimuli/Nonsocial1.png,stimuli/Nonsocial2.png,stimuli/Test1.png,stimuli/Test2.png,"(0.7, -0.5)",cs_plus_ns,"(-0.7, -0.5)",cs_plus_ns,0,0,0,0,,,,,0,79,79,82,,,,,,,,,,,,,,,324.89250080000784,325.89941060000274,325.89941060000274,326.045226000002,326.5521437999996,326.5521437999996,326.6979546000075,l,0.3645455000078073,correct,,327.0729554999998,327.87153420000686,325.89941060000274,,,,,,,,,,,,10,A,2023-12-08_09h11.37.918,gca_discrimination,2022.2.4,143.98226137771692,
positions.xlsx,stimuli.xlsx,test.xlsx,stimuli/Social1.png,stimuli/Social2.png,stimuli/Nonsocial1.png,stimuli/Nonsocial2.png,stimuli/Test1.png,stimuli/Test2.png,"(0.7, -0.5)",cs_plus_s,"(-0.7, 0.5)",cs_plus_s,0,0,0,0,,,,,0,80,80,57,,,,,,,,,,,,,,,327.87153420000686,328.8784489999962,328.8784489999962,329.02427769999485,329.5312114999979,329.5312114999979,329.6770703000075,l,0.2980640999885509,correct,,329.98254490000545,330.85058169999684,328.8784489999962,,,,,,,,,,,,10,A,2023-12-08_09h11.37.918,gca_discrimination,2022.2.4,143.98226137771692,
positions.xlsx,stimuli.xlsx,test.xlsx,stimuli/Social1.png,stimuli/Social2.png,stimuli/Nonsocial1.png,stimuli/Nonsocial2.png,stimuli/Test1.png,stimuli/Test2.png,"(-0.7, -0.5)",cs_minus_ns,"(-0.7, 0.5)",cs_plus_ns,0,0,0,0,,,,,0,81,81,39,,,,,,,,,,,,,,,330.85058169999684,331.85750949999783,331.85750949999783,332.0032857000042,332.51024030000553,332.51024030000553,332.6560929999978,ä,0.43765690000145696,correct,,333.10048039999674,333.43384389999846,331.85750949999783,,,,,,,,,,,,10,A,2023-12-08_09h11.37.918,gca_discrimination,2022.2.4,143.98226137771692,
positions.xlsx,stimuli.xlsx,test.xlsx,stimuli/Social1.png,stimuli/Social2.png,stimuli/Nonsocial1.png,stimuli/Nonsocial2.png,stimuli/Test1.png,stimuli/Test2.png,"(-0.7, 0.5)",cs_plus_s,"(0.7, -0.5)",cs_minus_s,0,0,0,0,,,,,0,82,82,2,,,,,,,,,,,,,,,333.43384389999846,334.44070429999556,334.44070429999556,334.58655069999804,335.0935000000027,335.0935000000027,335.2393066000077,ä,0.462811999997939,correct,,335.7115461000067,336.13510709999537,334.44070429999556,,,,,,,,,,,,10,A,2023-12-08_09h11.37.918,gca_discrimination,2022.2.4,143.98226137771692,
positions.xlsx,stimuli.xlsx,test.xlsx,stimuli/Social1.png,stimuli/Social2.png,stimuli/Nonsocial1.png,stimuli/Nonsocial2.png,stimuli/Test1.png,stimuli/Test2.png,"(-0.7, -0.5)",cs_plus_s,"(-0.7, 0.5)",cs_minus_s,0,0,0,0,,,,,0,83,83,3,,,,,,,,,,,,,,,336.13510709999537,337.1419906000083,337.1419906000083,337.2878472000011,337.7947847000032,337.7947847000032,337.94061520000105,ä,0.28993449998961296,correct,,338.23919860000024,338.3850172000093,337.1419906000083,,,,,,,,,,,,10,A,2023-12-08_09h11.37.918,gca_discrimination,2022.2.4,143.98226137771692,
positions.xlsx,stimuli.xlsx,test.xlsx,stimuli/Social1.png,stimuli/Social2.png,stimuli/Nonsocial1.png,stimuli/Nonsocial2.png,stimuli/Test1.png,stimuli/Test2.png,"(-0.7, 0.5)",cs_minus_ns,"(0.7, 0.5)",cs_plus_ns,0,0,0,0,,,,,0,84,84,37,,,,,,,,,,,,,,,338.3850172000093,339.39194630000566,339.39194630000566,339.5377465000056,340.0447356000077,340.0447356000077,340.1904987000016,ä,0.3279030999983661,correct,,340.5307484000077,340.7113332000008,339.39194630000566,,,,,,,,,,,,10,A,2023-12-08_09h11.37.918,gca_discrimination,2022.2.4,143.98226137771692,
positions.xlsx,stimuli.xlsx,test.xlsx,stimuli/Social1.png,stimuli/Social2.png,stimuli/Nonsocial1.png,stimuli/Nonsocial2.png,stimuli/Test1.png,stimuli/Test2.png,"(0.7, 0.5)",cs_minus_ns,"(0.7, -0.5)",cs_minus_ns,0,0,0,0,,,,,0,85,85,92,,,,,,,,,,,,,,,340.7113332000008,341.7182698999968,341.7182698999968,341.86409170000115,342.3709819000069,342.3709819000069,342.5167769999971,l,0.40962629999557976,correct,,342.9334502999991,342.9612155000068,341.7182698999968,,,,,,,,,,,,10,A,2023-12-08_09h11.37.918,gca_discrimination,2022.2.4,143.98226137771692,
positions.xlsx,stimuli.xlsx,test.xlsx,stimuli/Social1.png,stimuli/Social2.png,stimuli/Nonsocial1.png,stimuli/Nonsocial2.png,stimuli/Test1.png,stimuli/Test2.png,"(-0.7, -0.5)",cs_minus_ns,"(0.7, 0.5)",cs_plus_ns,0,0,0,0,,,,,0,86,86,40,,,,,,,,,,,,,,,342.9612155000068,343.9681469000061,343.9681469000061,344.11394460000156,344.6208762000024,344.6208762000024,344.76673230000597,ä,0.20833749999292195,correct,,344.98198240000056,345.5791787000053,343.9681469000061,,,,,,,,,,,,10,A,2023-12-08_09h11.37.918,gca_discrimination,2022.2.4,143.98226137771692,
positions.xlsx,stimuli.xlsx,test.xlsx,stimuli/Social1.png,stimuli/Social2.png,stimuli/Nonsocial1.png,stimuli/Nonsocial2.png,stimuli/Test1.png,stimuli/Test2.png,"(0.7, -0.5)",cs_plus_s,"(0.7, 0.5)",cs_minus_s,0,0,0,0,,,,,0,87,87,11,,,,,,,,,,,,,,,345.5791787000053,346.5860810000013,346.5860810000013,346.7319046000048,347.2388227000047,347.2388227000047,347.38472909999837,ä,0.14943599999241997,correct,,347.54435589999775,347.6624141000066,346.5860810000013,,,,,,,,,,,,10,A,2023-12-08_09h11.37.918,gca_discrimination,2022.2.4,143.98226137771692,
positions.xlsx,stimuli.xlsx,test.xlsx,stimuli/Social1.png,stimuli/Social2.png,stimuli/Nonsocial1.png,stimuli/Nonsocial2.png,stimuli/Test1.png,stimuli/Test2.png,"(-0.7, -0.5)",cs_minus_ns,"(0.7, 0.5)",cs_minus_ns,0,0,0,0,,,,,0,88,88,88,,,,,,,,,,,,,,,347.6624141000066,348.66933730000164,348.66933730000164,348.8152265999961,349.32207340000605,349.32207340000605,349.4679174000048,l,0.42629079999460373,correct,,349.90537819999736,350.0859567000007,348.66933730000164,,,,,,,,,,,,10,A,2023-12-08_09h11.37.918,gca_discrimination,2022.2.4,143.98226137771692,
positions.xlsx,stimuli.xlsx,test.xlsx,stimuli/Social1.png,stimuli/Social2.png,stimuli/Nonsocial1.png,stimuli/Nonsocial2.png,stimuli/Test1.png,stimuli/Test2.png,"(0.7, 0.5)",cs_minus_ns,"(0.7, -0.5)",cs_plus_ns,0,0,0,0,,,,,0,89,89,44,,,,,,,,,,,,,,,350.0859567000007,351.092848100001,351.092848100001,351.2386758000066,351.7455814999994,351.7455814999994,351.89156649999495,ä,0.8346835999982432,correct,,352.7385878000059,353.11359999999695,351.092848100001,,,,,,,,,,,,10,A,2023-12-08_09h11.37.918,gca_discrimination,2022.2.4,143.98226137771692,
positions.xlsx,stimuli.xlsx,test.xlsx,stimuli/Social1.png,stimuli/Social2.png,stimuli/Nonsocial1.png,stimuli/Nonsocial2.png,stimuli/Test1.png,stimuli/Test2.png,"(-0.7, -0.5)",cs_plus_ns,"(0.7, 0.5)",cs_minus_ns,0,0,0,0,,,,,0,90,90,28,,,,,,,,,,,,,,,353.11359999999695,354.1205131000024,354.1205131000024,354.26635089999763,354.7732442999986,354.7732442999986,354.9190579999995,ä,0.327797299993108,correct,,355.2593515000044,355.85652349999873,354.1205131000024,,,,,,,,,,,,10,A,2023-12-08_09h11.37.918,gca_discrimination,2022.2.4,143.98226137771692,
positions.xlsx,stimuli.xlsx,test.xlsx,stimuli/Social1.png,stimuli/Social2.png,stimuli/Nonsocial1.png,stimuli/Nonsocial2.png,stimuli/Test1.png,stimuli/Test2.png,"(0.7, -0.5)",cs_minus_ns,"(0.7, 0.5)",cs_minus_ns,0,0,0,0,,,,,0,91,91,95,,,,,,,,,,,,,,,355.85652349999873,356.86345509999956,356.86345509999956,357.0093068999995,357.5162238000048,357.5162238000048,357.6620433000062,ä,0.1613799999904586,wrong,,357.83567280000716,358.15505549999943,356.86345509999956,,,,,,,,,,,,10,A,2023-12-08_09h11.37.918,gca_discrimination,2022.2.4,143.98226137771692,
positions.xlsx,stimuli.xlsx,test.xlsx,stimuli/Social1.png,stimuli/Social2.png,stimuli/Nonsocial1.png,stimuli/Nonsocial2.png,stimuli/Test1.png,stimuli/Test2.png,"(-0.7, 0.5)",cs_plus_s,"(0.7, 0.5)",cs_plus_s,0,0,0,0,,,,,0,92,92,49,,,,,,,,,,,,,,,358.15505549999943,359.16197480000847,359.16197480000847,359.30780660000164,359.8147602999961,359.8147602999961,359.96056690000114,l,0.5254945999913616,correct,,360.4952575000061,360.84250189999875,359.16197480000847,,,,,,,,,,,,10,A,2023-12-08_09h11.37.918,gca_discrimination,2022.2.4,143.98226137771692,
positions.xlsx,stimuli.xlsx,test.xlsx,stimuli/Social1.png,stimuli/Social2.png,stimuli/Nonsocial1.png,stimuli/Nonsocial2.png,stimuli/Test1.png,stimuli/Test2.png,"(-0.7, -0.5)",cs_minus_s,"(-0.7, 0.5)",cs_plus_s,0,0,0,0,,,,,0,93,93,15,,,,,,,,,,,,,,,360.84250189999875,361.8493793000089,361.8493793000089,361.9952215000085,362.5021345999994,362.5021345999994,362.6479499999987,ä,0.37453489999461453,correct,,363.0298812999972,363.59233790000144,361.8493793000089,,,,,,,,,,,,10,A,2023-12-08_09h11.37.918,gca_discrimination,2022.2.4,143.98226137771692,
positions.xlsx,stimuli.xlsx,test.xlsx,stimuli/Social1.png,stimuli/Social2.png,stimuli/Nonsocial1.png,stimuli/Nonsocial2.png,stimuli/Test1.png,stimuli/Test2.png,"(-0.7, 0.5)",cs_minus_s,"(-0.7, -0.5)",cs_plus_s,0,0,0,0,,,,,0,94,94,12,,,,,,,,,,,,,,,363.59233790000144,364.5992348,364.5992348,364.7450744999951,365.25202500000887,365.25202500000887,365.39789870000095,ä,0.5526150000077905,correct,,365.96031370000856,366.20331250000163,364.5992348,,,,,,,,,,,,10,A,2023-12-08_09h11.37.918,gca_discrimination,2022.2.4,143.98226137771692,
positions.xlsx,stimuli.xlsx,test.xlsx,stimuli/Social1.png,stimuli/Social2.png,stimuli/Nonsocial1.png,stimuli/Nonsocial2.png,stimuli/Test1.png,stimuli/Test2.png,"(-0.7, 0.5)",cs_plus_ns,"(-0.7, -0.5)",cs_plus_ns,0,0,0,0,,,,,0,95,95,72,,,,,,,,,,,,,,,366.20331250000163,367.21028210000077,367.21028210000077,367.35610550000274,367.8630211999989,367.8630211999989,368.008857599998,ä,0.5176553000055719,wrong,,368.53660410000884,368.7380028000043,367.21028210000077,,,,,,,,,,,,10,A,2023-12-08_09h11.37.918,gca_discrimination,2022.2.4,143.98226137771692,
