posFile,stimFile,testFile,cs_plus_s,cs_minus_s,cs_plus_ns,cs_minus_ns,test1,test2,position1,trialtype,position2,comptype,blocks.thisRepN,blocks.thisTrialN,blocks.thisN,blocks.thisIndex,learning_trials.thisRepN,learning_trials.thisTrialN,learning_trials.thisN,learning_trials.thisIndex,trials.thisRepN,trials.thisTrialN,trials.thisN,trials.thisIndex,textStart.started,spaceStart.started,spaceStart.keys,spaceStart.rt,textStartExp.started,textExpImages.started,ImageLearning1.started,ImageLearning2.started,textSpace.started,spaceStartExp.started,spaceStartExp.keys,spaceStartExp.rt,blankScreen.started,blankScreen.stopped,fixcross.started,firstImage.started,fixcrossImage1.started,fixcrossITI.started,secondImage.started,fixcrossImage2.started,key.started,key.keys,key.rt,correctness,feedbackText.started,fixcrossEnd.started,fixcrossEnd.stopped,fixcross.stopped,feedbackText.stopped,textStartTask.started,textTaskImages.started,ImageTask1.started,ImageTask2.started,ImageTask3.started,ImageTask4.started,textTaskSpace.started,spaceStartTask.started,spaceStartTask.keys,spaceStartTask.rt,participant,group,date,expName,psychopyVersion,frameRate,
,,,,,,,,,,,,,,,,,,,,,,,,,9.189051699999254,9.189051699999254,space,2.941884600000776,,,,,,,,,,,,,,,,,,,,,,,,,,,,,,,,,,,,7,B,2023-12-07_14h13.13.024,gca_discrimination,2022.2.4,143.90290583000325,
positions.xlsx,stimuli.xlsx,test.xlsx,stimuli/Social2.png,stimuli/Social1.png,stimuli/Nonsocial1.png,stimuli/Nonsocial2.png,stimuli/Test1.png,stimuli/Test2.png,"(0.7, -0.5)",test1,"(0.7, 0.5)",test2,0,0,0,0,0,0,0,0,,,,,,,,,12.147209300001123,12.147209300001123,12.147209300001123,12.147209300001123,12.147209300001123,12.147209300001123,space,16.696590700001252,28.854885900000227,30.618699599999673,30.618699599999673,31.618661799999245,31.618661799999245,31.750604900000326,32.26444679999986,32.26444679999986,32.40337069999805,ä,0.7757005000021309,correct,33.19499519999954,35.194924499999615,35.94487840000147,,,,,,,,,,,,,7,B,2023-12-07_14h13.13.024,gca_discrimination,2022.2.4,143.90290583000325,
positions.xlsx,stimuli.xlsx,test.xlsx,stimuli/Social2.png,stimuli/Social1.png,stimuli/Nonsocial1.png,stimuli/Nonsocial2.png,stimuli/Test1.png,stimuli/Test2.png,"(-0.7, 0.5)",test2,"(0.7, 0.5)",test1,0,0,0,0,0,1,1,3,,,,,,,,,,,,,,,,,,,35.94487840000147,36.94484979999834,36.94484979999834,37.09758940000029,37.597644800000126,37.597644800000126,37.7503930999992,None,,no answer,39.75027609999961,41.750190899998415,42.50021800000104,36.94484979999834,,,,,,,,,,,,7,B,2023-12-07_14h13.13.024,gca_discrimination,2022.2.4,143.90290583000325,
positions.xlsx,stimuli.xlsx,test.xlsx,stimuli/Social2.png,stimuli/Social1.png,stimuli/Nonsocial1.png,stimuli/Nonsocial2.png,stimuli/Test1.png,stimuli/Test2.png,"(-0.7, 0.5)",test2,"(-0.7, -0.5)",test2,0,0,0,0,0,2,2,1,,,,,,,,,,,,,,,,,,,42.50021800000104,43.5001642999996,43.5001642999996,43.65292209999825,44.152871199999936,44.152871199999936,44.305662399998255,l,0.3619250000010652,correct,44.680641599999944,46.68056929999875,47.187503000001016,43.5001642999996,46.68056929999875,,,,,,,,,,,7,B,2023-12-07_14h13.13.024,gca_discrimination,2022.2.4,143.90290583000325,
positions.xlsx,stimuli.xlsx,test.xlsx,stimuli/Social2.png,stimuli/Social1.png,stimuli/Nonsocial1.png,stimuli/Nonsocial2.png,stimuli/Test1.png,stimuli/Test2.png,"(0.7, 0.5)",test2,"(0.7, -0.5)",test1,0,0,0,0,0,3,3,6,,,,,,,,,,,,,,,,,,,47.187503000001016,48.187464999999065,48.187464999999065,48.340205600001354,48.84019179999814,48.84019179999814,48.992973899999924,ä,0.19394860000465997,correct,49.19438009999794,51.194295900000725,51.34009299999889,48.187464999999065,51.194295900000725,,,,,,,,,,,7,B,2023-12-07_14h13.13.024,gca_discrimination,2022.2.4,143.90290583000325,
positions.xlsx,stimuli.xlsx,test.xlsx,stimuli/Social2.png,stimuli/Social1.png,stimuli/Nonsocial1.png,stimuli/Nonsocial2.png,stimuli/Test1.png,stimuli/Test2.png,"(0.7, -0.5)",test1,"(0.7, 0.5)",test1,0,0,0,0,0,4,4,10,,,,,,,,,,,,,,,,,,,51.34009299999889,52.340079999998125,52.340079999998125,52.49282260000109,52.9928273000005,52.9928273000005,53.14559680000093,l,0.13819190000140225,correct,53.2914391000013,55.291354500001034,56.29132960000061,52.340079999998125,55.291354500001034,,,,,,,,,,,7,B,2023-12-07_14h13.13.024,gca_discrimination,2022.2.4,143.90290583000325,
positions.xlsx,stimuli.xlsx,test.xlsx,stimuli/Social2.png,stimuli/Social1.png,stimuli/Nonsocial1.png,stimuli/Nonsocial2.png,stimuli/Test1.png,stimuli/Test2.png,"(-0.7, -0.5)",test2,"(-0.7, 0.5)",test2,0,0,0,0,0,5,5,2,,,,,,,,,,,,,,,,,,,56.29132960000061,57.291261999998824,57.291261999998824,57.44403890000103,57.9440168000001,57.9440168000001,58.09680060000028,l,0.3868247999998857,correct,58.49259230000098,60.49253939999835,60.63836850000007,57.291261999998824,60.49253939999835,,,,,,,,,,,7,B,2023-12-07_14h13.13.024,gca_discrimination,2022.2.4,143.90290583000325,
positions.xlsx,stimuli.xlsx,test.xlsx,stimuli/Social2.png,stimuli/Social1.png,stimuli/Nonsocial1.png,stimuli/Nonsocial2.png,stimuli/Test1.png,stimuli/Test2.png,"(-0.7, 0.5)",test1,"(0.7, -0.5)",test1,0,0,0,0,0,6,6,5,,,,,,,,,,,,,,,,,,,60.63836850000007,61.6452672000014,61.6452672000014,61.791081100000156,62.29104929999812,62.29104929999812,62.44384269999864,l,0.48682600000392995,correct,62.943801299999905,64.94374609999795,65.88123379999888,61.6452672000014,64.94374609999795,,,,,,,,,,,7,B,2023-12-07_14h13.13.024,gca_discrimination,2022.2.4,143.90290583000325,
positions.xlsx,stimuli.xlsx,test.xlsx,stimuli/Social2.png,stimuli/Social1.png,stimuli/Nonsocial1.png,stimuli/Nonsocial2.png,stimuli/Test1.png,stimuli/Test2.png,"(-0.7, -0.5)",test2,"(0.7, -0.5)",test2,0,0,0,0,0,7,7,9,,,,,,,,,,,,,,,,,,,65.88123379999888,66.88116820000141,66.88116820000141,67.03393199999846,67.53393900000083,67.53393900000083,67.68671950000135,l,0.45255200000246987,correct,68.15195310000126,70.15192839999872,71.14487459999873,66.88116820000141,70.15192839999872,,,,,,,,,,,7,B,2023-12-07_14h13.13.024,gca_discrimination,2022.2.4,143.90290583000325,
positions.xlsx,stimuli.xlsx,test.xlsx,stimuli/Social2.png,stimuli/Social1.png,stimuli/Nonsocial1.png,stimuli/Nonsocial2.png,stimuli/Test1.png,stimuli/Test2.png,"(0.7, 0.5)",test1,"(0.7, -0.5)",test2,0,0,0,0,0,8,8,11,,,,,,,,,,,,,,,,,,,71.14487459999873,72.14484190000076,72.14484190000076,72.29764449999857,72.79762069999924,72.79762069999924,72.95038740000018,ä,0.4849807000027795,correct,73.44345089999842,75.44332410000061,76.08917799999836,72.14484190000076,75.44332410000061,,,,,,,,,,,7,B,2023-12-07_14h13.13.024,gca_discrimination,2022.2.4,143.90290583000325,
positions.xlsx,stimuli.xlsx,test.xlsx,stimuli/Social2.png,stimuli/Social1.png,stimuli/Nonsocial1.png,stimuli/Nonsocial2.png,stimuli/Test1.png,stimuli/Test2.png,"(-0.7, -0.5)",test1,"(0.7, 0.5)",test2,0,0,0,0,0,9,9,8,,,,,,,,,,,,,,,,,,,76.08917799999836,77.0891320999981,77.0891320999981,77.24186769999869,77.74186980000013,77.74186980000013,77.89461640000081,ä,0.3648475000009057,correct,78.26960549999785,80.26952479999818,80.92226709999886,77.0891320999981,80.26952479999818,,,,,,,,,,,7,B,2023-12-07_14h13.13.024,gca_discrimination,2022.2.4,143.90290583000325,
positions.xlsx,stimuli.xlsx,test.xlsx,stimuli/Social2.png,stimuli/Social1.png,stimuli/Nonsocial1.png,stimuli/Nonsocial2.png,stimuli/Test1.png,stimuli/Test2.png,"(0.7, 0.5)",test2,"(-0.7, 0.5)",test1,0,0,0,0,0,10,10,13,,,,,,,,,,,,,,,,,,,80.92226709999886,81.92221950000021,81.92221950000021,82.07501469999988,82.57499299999836,82.57499299999836,82.7277697999998,ä,0.371054200004437,correct,83.10970989999987,85.10960469999918,85.35265929999878,81.92221950000021,85.10960469999918,,,,,,,,,,,7,B,2023-12-07_14h13.13.024,gca_discrimination,2022.2.4,143.90290583000325,
positions.xlsx,stimuli.xlsx,test.xlsx,stimuli/Social2.png,stimuli/Social1.png,stimuli/Nonsocial1.png,stimuli/Nonsocial2.png,stimuli/Test1.png,stimuli/Test2.png,"(-0.7, 0.5)",test2,"(0.7, -0.5)",test1,0,0,0,0,0,11,11,12,,,,,,,,,,,,,,,,,,,85.35265929999878,86.35264520000055,86.35264520000055,86.50541560000056,87.00537030000123,87.00537030000123,87.15813010000056,ä,0.3901277000004484,correct,87.56091039999956,89.56084759999794,90.53300799999852,86.35264520000055,89.56084759999794,,,,,,,,,,,7,B,2023-12-07_14h13.13.024,gca_discrimination,2022.2.4,143.90290583000325,
positions.xlsx,stimuli.xlsx,test.xlsx,stimuli/Social2.png,stimuli/Social1.png,stimuli/Nonsocial1.png,stimuli/Nonsocial2.png,stimuli/Test1.png,stimuli/Test2.png,"(0.7, -0.5)",test2,"(-0.7, 0.5)",test1,0,0,0,0,0,12,12,4,,,,,,,,,,,,,,,,,,,90.53300799999852,91.53295829999843,91.53295829999843,91.68579659999887,92.1857491999981,92.1857491999981,92.33850410000014,ä,0.3367030000008526,correct,92.68567790000088,94.6856117999996,95.0814535999998,91.53295829999843,94.6856117999996,,,,,,,,,,,7,B,2023-12-07_14h13.13.024,gca_discrimination,2022.2.4,143.90290583000325,
positions.xlsx,stimuli.xlsx,test.xlsx,stimuli/Social2.png,stimuli/Social1.png,stimuli/Nonsocial1.png,stimuli/Nonsocial2.png,stimuli/Test1.png,stimuli/Test2.png,"(-0.7, -0.5)",test2,"(0.7, 0.5)",test2,0,0,0,0,0,13,13,7,,,,,,,,,,,,,,,,,,,95.0814535999998,96.08140909999929,96.08140909999929,96.23415559999921,96.73415770000065,96.73415770000065,96.88689990000057,l,0.4767498000001069,correct,97.3730128999996,99.372953099999,99.40071309999985,96.08140909999929,99.372953099999,,,,,,,,,,,7,B,2023-12-07_14h13.13.024,gca_discrimination,2022.2.4,143.90290583000325,
positions.xlsx,stimuli.xlsx,test.xlsx,stimuli/Social2.png,stimuli/Social1.png,stimuli/Nonsocial1.png,stimuli/Nonsocial2.png,stimuli/Test1.png,stimuli/Test2.png,"(-0.7, -0.5)",cs_minus_s,"(0.7, -0.5)",cs_plus_s,0,0,0,0,,,,,0,0,0,17,,,,,,,,,,,,,106.68516029999955,107.75456320000012,107.75456320000012,108.7475826000009,108.7475826000009,108.88647430000128,109.39340209999864,109.39340209999864,109.53923349999968,ä,0.45573610000064946,correct,,110.00447469999926,110.26138359999823,,,99.40071309999985,99.40071309999985,99.40071309999985,99.40071309999985,99.40071309999985,99.40071309999985,99.40071309999985,99.40071309999985,space,7.27418850000322,7,B,2023-12-07_14h13.13.024,gca_discrimination,2022.2.4,143.90290583000325,
positions.xlsx,stimuli.xlsx,test.xlsx,stimuli/Social2.png,stimuli/Social1.png,stimuli/Nonsocial1.png,stimuli/Nonsocial2.png,stimuli/Test1.png,stimuli/Test2.png,"(0.7, 0.5)",cs_minus_ns,"(0.7, -0.5)",cs_minus_ns,0,0,0,0,,,,,0,1,1,92,,,,,,,,,,,,,,,110.26138359999823,111.2683235000004,111.2683235000004,111.414158399999,111.92110039999898,111.92110039999898,112.06688510000095,l,0.2564657000002626,correct,,112.3307782999982,113.33075090000057,111.2683235000004,,,,,,,,,,,,7,B,2023-12-07_14h13.13.024,gca_discrimination,2022.2.4,143.90290583000325,
positions.xlsx,stimuli.xlsx,test.xlsx,stimuli/Social2.png,stimuli/Social1.png,stimuli/Nonsocial1.png,stimuli/Nonsocial2.png,stimuli/Test1.png,stimuli/Test2.png,"(0.7, 0.5)",cs_plus_s,"(0.7, -0.5)",cs_minus_s,0,0,0,0,,,,,0,2,2,8,,,,,,,,,,,,,,,113.33075090000057,114.33763180000096,114.33763180000096,114.48346730000048,114.99039749999793,114.99039749999793,115.13622100000066,ä,0.5637469000030251,correct,,115.71258260000104,116.1570126000006,114.33763180000096,,,,,,,,,,,,7,B,2023-12-07_14h13.13.024,gca_discrimination,2022.2.4,143.90290583000325,
positions.xlsx,stimuli.xlsx,test.xlsx,stimuli/Social2.png,stimuli/Social1.png,stimuli/Nonsocial1.png,stimuli/Nonsocial2.png,stimuli/Test1.png,stimuli/Test2.png,"(0.7, 0.5)",cs_minus_ns,"(-0.7, 0.5)",cs_minus_ns,0,0,0,0,,,,,0,3,3,90,,,,,,,,,,,,,,,116.1570126000006,117.16392220000125,117.16392220000125,117.30977350000103,117.81665829999838,117.81665829999838,117.96248579999883,l,0.4734126000003016,correct,,118.44857950000005,118.7888615999982,117.16392220000125,,,,,,,,,,,,7,B,2023-12-07_14h13.13.024,gca_discrimination,2022.2.4,143.90290583000325,
positions.xlsx,stimuli.xlsx,test.xlsx,stimuli/Social2.png,stimuli/Social1.png,stimuli/Nonsocial1.png,stimuli/Nonsocial2.png,stimuli/Test1.png,stimuli/Test2.png,"(-0.7, 0.5)",cs_minus_ns,"(0.7, -0.5)",cs_plus_ns,0,0,0,0,,,,,0,4,4,38,,,,,,,,,,,,,,,118.7888615999982,119.79577459999928,119.79577459999928,119.94160539999939,120.44848339999953,120.44848339999953,120.59432509999897,ä,0.7376989000040339,correct,,121.34430159999829,122.31651359999887,119.79577459999928,,,,,,,,,,,,7,B,2023-12-07_14h13.13.024,gca_discrimination,2022.2.4,143.90290583000325,
positions.xlsx,stimuli.xlsx,test.xlsx,stimuli/Social2.png,stimuli/Social1.png,stimuli/Nonsocial1.png,stimuli/Nonsocial2.png,stimuli/Test1.png,stimuli/Test2.png,"(0.7, -0.5)",cs_minus_ns,"(-0.7, 0.5)",cs_minus_ns,0,0,0,0,,,,,0,5,5,93,,,,,,,,,,,,,,,122.31651359999887,123.32336249999935,123.32336249999935,123.46924349999972,123.97618040000089,123.97618040000089,124.12196570000015,l,0.473522000003868,correct,,124.608039499999,124.70523999999932,123.32336249999935,,,,,,,,,,,,7,B,2023-12-07_14h13.13.024,gca_discrimination,2022.2.4,143.90290583000325,
positions.xlsx,stimuli.xlsx,test.xlsx,stimuli/Social2.png,stimuli/Social1.png,stimuli/Nonsocial1.png,stimuli/Nonsocial2.png,stimuli/Test1.png,stimuli/Test2.png,"(0.7, 0.5)",cs_minus_s,"(0.7, -0.5)",cs_plus_s,0,0,0,0,,,,,0,6,6,20,,,,,,,,,,,,,,,124.70523999999932,125.7121991999993,125.7121991999993,125.85799649999899,126.36492949999956,126.36492949999956,126.51075389999824,ä,0.38046899999972084,correct,,126.89960699999938,127.33016259999931,125.7121991999993,,,,,,,,,,,,7,B,2023-12-07_14h13.13.024,gca_discrimination,2022.2.4,143.90290583000325,
positions.xlsx,stimuli.xlsx,test.xlsx,stimuli/Social2.png,stimuli/Social1.png,stimuli/Nonsocial1.png,stimuli/Nonsocial2.png,stimuli/Test1.png,stimuli/Test2.png,"(0.7, -0.5)",cs_plus_s,"(-0.7, 0.5)",cs_minus_s,0,0,0,0,,,,,0,7,7,9,,,,,,,,,,,,,,,127.33016259999931,128.3370888999998,128.3370888999998,128.48290070000076,128.98981279999862,128.98981279999862,129.1356608999995,ä,0.3240414000028977,correct,,129.46897439999884,130.33699490000072,128.3370888999998,,,,,,,,,,,,7,B,2023-12-07_14h13.13.024,gca_discrimination,2022.2.4,143.90290583000325,
positions.xlsx,stimuli.xlsx,test.xlsx,stimuli/Social2.png,stimuli/Social1.png,stimuli/Nonsocial1.png,stimuli/Nonsocial2.png,stimuli/Test1.png,stimuli/Test2.png,"(0.7, 0.5)",cs_plus_ns,"(-0.7, 0.5)",cs_plus_ns,0,0,0,0,,,,,0,8,8,78,,,,,,,,,,,,,,,130.33699490000072,131.34390979999807,131.34390979999807,131.48974699999962,131.996624899999,131.996624899999,132.1424502000009,l,0.3420018000033451,correct,,132.49661560000095,133.2327280999998,131.34390979999807,,,,,,,,,,,,7,B,2023-12-07_14h13.13.024,gca_discrimination,2022.2.4,143.90290583000325,
positions.xlsx,stimuli.xlsx,test.xlsx,stimuli/Social2.png,stimuli/Social1.png,stimuli/Nonsocial1.png,stimuli/Nonsocial2.png,stimuli/Test1.png,stimuli/Test2.png,"(0.7, -0.5)",cs_minus_ns,"(0.7, 0.5)",cs_minus_ns,0,0,0,0,,,,,0,9,9,95,,,,,,,,,,,,,,,133.2327280999998,134.23962839999876,134.23962839999876,134.3854696999988,134.89239489999818,134.89239489999818,135.03820749999795,l,0.5984793999996327,correct,,135.64930169999934,135.72567020000133,134.23962839999876,,,,,,,,,,,,7,B,2023-12-07_14h13.13.024,gca_discrimination,2022.2.4,143.90290583000325,
positions.xlsx,stimuli.xlsx,test.xlsx,stimuli/Social2.png,stimuli/Social1.png,stimuli/Nonsocial1.png,stimuli/Nonsocial2.png,stimuli/Test1.png,stimuli/Test2.png,"(0.7, -0.5)",cs_minus_ns,"(-0.7, 0.5)",cs_plus_ns,0,0,0,0,,,,,0,10,10,45,,,,,,,,,,,,,,,135.72567020000133,136.73255190000054,136.73255190000054,136.87843870000142,137.38534390000132,137.38534390000132,137.53116849999788,ä,0.3042009999990114,correct,,137.84366030000092,138.34361029999855,136.73255190000054,,,,,,,,,,,,7,B,2023-12-07_14h13.13.024,gca_discrimination,2022.2.4,143.90290583000325,
positions.xlsx,stimuli.xlsx,test.xlsx,stimuli/Social2.png,stimuli/Social1.png,stimuli/Nonsocial1.png,stimuli/Nonsocial2.png,stimuli/Test1.png,stimuli/Test2.png,"(0.7, 0.5)",cs_minus_s,"(-0.7, 0.5)",cs_plus_s,0,0,0,0,,,,,0,11,11,18,,,,,,,,,,,,,,,138.34361029999855,139.3505335000009,139.3505335000009,139.49633470000117,140.00328309999895,140.00328309999895,140.14909220000118,ä,0.4065049999990151,correct,,140.56572229999801,140.9338065999982,139.3505335000009,,,,,,,,,,,,7,B,2023-12-07_14h13.13.024,gca_discrimination,2022.2.4,143.90290583000325,
positions.xlsx,stimuli.xlsx,test.xlsx,stimuli/Social2.png,stimuli/Social1.png,stimuli/Nonsocial1.png,stimuli/Nonsocial2.png,stimuli/Test1.png,stimuli/Test2.png,"(-0.7, -0.5)",cs_minus_ns,"(-0.7, 0.5)",cs_minus_ns,0,0,0,0,,,,,0,12,12,87,,,,,,,,,,,,,,,140.9338065999982,141.94071310000072,141.94071310000072,142.08655379999982,142.59346430000005,142.59346430000005,142.73930480000126,l,0.5840495000011288,correct,,143.3364862999988,144.12116590000005,141.94071310000072,,,,,,,,,,,,7,B,2023-12-07_14h13.13.024,gca_discrimination,2022.2.4,143.90290583000325,
positions.xlsx,stimuli.xlsx,test.xlsx,stimuli/Social2.png,stimuli/Social1.png,stimuli/Nonsocial1.png,stimuli/Nonsocial2.png,stimuli/Test1.png,stimuli/Test2.png,"(0.7, 0.5)",cs_minus_ns,"(-0.7, 0.5)",cs_plus_ns,0,0,0,0,,,,,0,13,13,42,,,,,,,,,,,,,,,144.12116590000005,145.12809689999995,145.12809689999995,145.27393759999904,145.78082369999902,145.78082369999902,145.92663900000116,ä,0.2604542000044603,correct,,146.1974760000012,146.9405192000013,145.12809689999995,,,,,,,,,,,,7,B,2023-12-07_14h13.13.024,gca_discrimination,2022.2.4,143.90290583000325,
positions.xlsx,stimuli.xlsx,test.xlsx,stimuli/Social2.png,stimuli/Social1.png,stimuli/Nonsocial1.png,stimuli/Nonsocial2.png,stimuli/Test1.png,stimuli/Test2.png,"(0.7, 0.5)",cs_plus_ns,"(-0.7, 0.5)",cs_minus_ns,0,0,0,0,,,,,0,14,14,30,,,,,,,,,,,,,,,146.9405192000013,147.94741059999797,147.94741059999797,148.09325309999986,148.60018099999797,148.60018099999797,148.74601070000062,l,0.16251919999922393,wrong,,148.91959909999787,149.093213199998,147.94741059999797,,,,,,,,,,,,7,B,2023-12-07_14h13.13.024,gca_discrimination,2022.2.4,143.90290583000325,
positions.xlsx,stimuli.xlsx,test.xlsx,stimuli/Social2.png,stimuli/Social1.png,stimuli/Nonsocial1.png,stimuli/Nonsocial2.png,stimuli/Test1.png,stimuli/Test2.png,"(0.7, -0.5)",cs_minus_s,"(-0.7, 0.5)",cs_minus_s,0,0,0,0,,,,,0,15,15,69,,,,,,,,,,,,,,,149.093213199998,150.10008870000092,150.10008870000092,150.24592720000146,150.75288680000085,150.75288680000085,150.898693799998,ä,0.2643797999990056,wrong,,151.1764734999997,151.46809030000077,150.10008870000092,,,,,,,,,,,,7,B,2023-12-07_14h13.13.024,gca_discrimination,2022.2.4,143.90290583000325,
positions.xlsx,stimuli.xlsx,test.xlsx,stimuli/Social2.png,stimuli/Social1.png,stimuli/Nonsocial1.png,stimuli/Nonsocial2.png,stimuli/Test1.png,stimuli/Test2.png,"(0.7, 0.5)",cs_minus_s,"(-0.7, -0.5)",cs_minus_s,0,0,0,0,,,,,0,16,16,67,,,,,,,,,,,,,,,151.46809030000077,152.47506249999788,152.47506249999788,152.62085579999984,153.12779489999957,153.12779489999957,153.273620699998,l,0.697855400001572,correct,,153.98190980000072,154.287470700001,152.47506249999788,,,,,,,,,,,,7,B,2023-12-07_14h13.13.024,gca_discrimination,2022.2.4,143.90290583000325,
positions.xlsx,stimuli.xlsx,test.xlsx,stimuli/Social2.png,stimuli/Social1.png,stimuli/Nonsocial1.png,stimuli/Nonsocial2.png,stimuli/Test1.png,stimuli/Test2.png,"(-0.7, -0.5)",cs_minus_ns,"(0.7, 0.5)",cs_minus_ns,0,0,0,0,,,,,0,17,17,88,,,,,,,,,,,,,,,154.287470700001,155.2943770999991,155.2943770999991,155.44018430000142,155.94711720000123,155.94711720000123,156.0929389999983,l,0.44766400000298745,correct,,156.55126219999875,157.02346129999933,155.2943770999991,,,,,,,,,,,,7,B,2023-12-07_14h13.13.024,gca_discrimination,2022.2.4,143.90290583000325,
positions.xlsx,stimuli.xlsx,test.xlsx,stimuli/Social2.png,stimuli/Social1.png,stimuli/Nonsocial1.png,stimuli/Nonsocial2.png,stimuli/Test1.png,stimuli/Test2.png,"(-0.7, -0.5)",cs_plus_ns,"(0.7, 0.5)",cs_minus_ns,0,0,0,0,,,,,0,18,18,28,,,,,,,,,,,,,,,157.02346129999933,158.0303681000005,158.0303681000005,158.1762052999984,158.68311439999889,158.68311439999889,158.82894959999976,ä,0.4782959000040137,correct,,159.31499099999928,160.01640659999975,158.0303681000005,,,,,,,,,,,,7,B,2023-12-07_14h13.13.024,gca_discrimination,2022.2.4,143.90290583000325,
positions.xlsx,stimuli.xlsx,test.xlsx,stimuli/Social2.png,stimuli/Social1.png,stimuli/Nonsocial1.png,stimuli/Nonsocial2.png,stimuli/Test1.png,stimuli/Test2.png,"(-0.7, -0.5)",cs_plus_ns,"(0.7, -0.5)",cs_minus_ns,0,0,0,0,,,,,0,19,19,29,,,,,,,,,,,,,,,160.01640659999975,161.02330090000032,161.02330090000032,161.16912070000035,161.67606289999821,161.67606289999821,161.82187799999883,ä,0.5574675999996543,correct,,162.39130609999847,163.33570599999803,161.02330090000032,,,,,,,,,,,,7,B,2023-12-07_14h13.13.024,gca_discrimination,2022.2.4,143.90290583000325,
positions.xlsx,stimuli.xlsx,test.xlsx,stimuli/Social2.png,stimuli/Social1.png,stimuli/Nonsocial1.png,stimuli/Nonsocial2.png,stimuli/Test1.png,stimuli/Test2.png,"(0.7, -0.5)",cs_plus_s,"(-0.7, -0.5)",cs_plus_s,0,0,0,0,,,,,0,20,20,58,,,,,,,,,,,,,,,163.33570599999803,164.34259799999927,164.34259799999927,164.48843839999972,164.99537390000114,164.99537390000114,165.14117220000117,l,0.4230494000003091,correct,,165.57174609999856,165.69675550000102,164.34259799999927,,,,,,,,,,,,7,B,2023-12-07_14h13.13.024,gca_discrimination,2022.2.4,143.90290583000325,
positions.xlsx,stimuli.xlsx,test.xlsx,stimuli/Social2.png,stimuli/Social1.png,stimuli/Nonsocial1.png,stimuli/Nonsocial2.png,stimuli/Test1.png,stimuli/Test2.png,"(-0.7, 0.5)",cs_minus_s,"(0.7, 0.5)",cs_minus_s,0,0,0,0,,,,,0,21,21,61,,,,,,,,,,,,,,,165.69675550000102,166.7036619999999,166.7036619999999,166.8494830999989,167.35639660000015,167.35639660000015,167.50221239999883,l,0.621770200003084,correct,,168.13409260000117,168.73133229999803,166.7036619999999,,,,,,,,,,,,7,B,2023-12-07_14h13.13.024,gca_discrimination,2022.2.4,143.90290583000325,
positions.xlsx,stimuli.xlsx,test.xlsx,stimuli/Social2.png,stimuli/Social1.png,stimuli/Nonsocial1.png,stimuli/Nonsocial2.png,stimuli/Test1.png,stimuli/Test2.png,"(-0.7, 0.5)",cs_plus_ns,"(0.7, -0.5)",cs_minus_ns,0,0,0,0,,,,,0,22,22,26,,,,,,,,,,,,,,,168.73133229999803,169.7382488000003,169.7382488000003,169.8840754999983,170.3909949000008,170.3909949000008,170.53681470000083,ä,0.44272040000214474,correct,,170.9881720000012,170.9951331000011,169.7382488000003,,,,,,,,,,,,7,B,2023-12-07_14h13.13.024,gca_discrimination,2022.2.4,143.90290583000325,
positions.xlsx,stimuli.xlsx,test.xlsx,stimuli/Social2.png,stimuli/Social1.png,stimuli/Nonsocial1.png,stimuli/Nonsocial2.png,stimuli/Test1.png,stimuli/Test2.png,"(-0.7, 0.5)",cs_minus_ns,"(0.7, -0.5)",cs_minus_ns,0,0,0,0,,,,,0,23,23,86,,,,,,,,,,,,,,,170.9951331000011,172.002029700001,172.002029700001,172.1478774999996,172.65479549999873,172.65479549999873,172.80061959999875,l,0.5148566000025312,correct,,173.32836759999918,173.98807970000053,172.002029700001,,,,,,,,,,,,7,B,2023-12-07_14h13.13.024,gca_discrimination,2022.2.4,143.90290583000325,
positions.xlsx,stimuli.xlsx,test.xlsx,stimuli/Social2.png,stimuli/Social1.png,stimuli/Nonsocial1.png,stimuli/Nonsocial2.png,stimuli/Test1.png,stimuli/Test2.png,"(-0.7, 0.5)",cs_minus_s,"(0.7, -0.5)",cs_plus_s,0,0,0,0,,,,,0,24,24,14,,,,,,,,,,,,,,,173.98807970000053,174.99499640000067,174.99499640000067,175.14078299999892,175.6477315000011,175.6477315000011,175.7935663999997,ä,0.46525760000076843,correct,,176.2657689000007,176.74492180000016,174.99499640000067,,,,,,,,,,,,7,B,2023-12-07_14h13.13.024,gca_discrimination,2022.2.4,143.90290583000325,
positions.xlsx,stimuli.xlsx,test.xlsx,stimuli/Social2.png,stimuli/Social1.png,stimuli/Nonsocial1.png,stimuli/Nonsocial2.png,stimuli/Test1.png,stimuli/Test2.png,"(-0.7, -0.5)",cs_plus_ns,"(-0.7, 0.5)",cs_minus_ns,0,0,0,0,,,,,0,25,25,27,,,,,,,,,,,,,,,176.74492180000016,177.75184739999895,177.75184739999895,177.897634500001,178.40456260000065,178.40456260000065,178.55039449999822,ä,0.5012506000020949,correct,,179.06429189999835,179.98784979999982,177.75184739999895,,,,,,,,,,,,7,B,2023-12-07_14h13.13.024,gca_discrimination,2022.2.4,143.90290583000325,
positions.xlsx,stimuli.xlsx,test.xlsx,stimuli/Social2.png,stimuli/Social1.png,stimuli/Nonsocial1.png,stimuli/Nonsocial2.png,stimuli/Test1.png,stimuli/Test2.png,"(-0.7, -0.5)",cs_plus_s,"(0.7, -0.5)",cs_minus_s,0,0,0,0,,,,,0,26,26,5,,,,,,,,,,,,,,,179.98784979999982,180.99474719999853,180.99474719999853,181.1405741999988,181.6475208999982,181.6475208999982,181.7933269999994,l,0.6029649000010977,wrong,,182.4044271999992,183.21688859999995,180.99474719999853,,,,,,,,,,,,7,B,2023-12-07_14h13.13.024,gca_discrimination,2022.2.4,143.90290583000325,
positions.xlsx,stimuli.xlsx,test.xlsx,stimuli/Social2.png,stimuli/Social1.png,stimuli/Nonsocial1.png,stimuli/Nonsocial2.png,stimuli/Test1.png,stimuli/Test2.png,"(0.7, -0.5)",cs_plus_s,"(0.7, 0.5)",cs_minus_s,0,0,0,0,,,,,0,27,27,11,,,,,,,,,,,,,,,183.21688859999995,184.2237911000011,184.2237911000011,184.36958759999834,184.87655219999942,184.87655219999942,185.02237819999937,ä,0.6058303000027081,correct,,185.64041749999888,185.74455920000037,184.2237911000011,,,,,,,,,,,,7,B,2023-12-07_14h13.13.024,gca_discrimination,2022.2.4,143.90290583000325,
positions.xlsx,stimuli.xlsx,test.xlsx,stimuli/Social2.png,stimuli/Social1.png,stimuli/Nonsocial1.png,stimuli/Nonsocial2.png,stimuli/Test1.png,stimuli/Test2.png,"(-0.7, -0.5)",cs_plus_s,"(0.7, 0.5)",cs_plus_s,0,0,0,0,,,,,0,28,28,52,,,,,,,,,,,,,,,185.74455920000037,186.75145789999806,186.75145789999806,186.89730789999885,187.4042233,187.4042233,187.55001970000012,l,0.5656363000016427,correct,,188.12642090000008,188.7167421999984,186.75145789999806,,,,,,,,,,,,7,B,2023-12-07_14h13.13.024,gca_discrimination,2022.2.4,143.90290583000325,
positions.xlsx,stimuli.xlsx,test.xlsx,stimuli/Social2.png,stimuli/Social1.png,stimuli/Nonsocial1.png,stimuli/Nonsocial2.png,stimuli/Test1.png,stimuli/Test2.png,"(0.7, 0.5)",cs_plus_s,"(0.7, -0.5)",cs_plus_s,0,0,0,0,,,,,0,29,29,56,,,,,,,,,,,,,,,188.7167421999984,189.7235581999994,189.7235581999994,189.86939960000018,190.37634590000016,190.37634590000016,190.52215019999858,l,0.5853267999991658,correct,,191.11938419999933,191.8554511000002,189.7235581999994,,,,,,,,,,,,7,B,2023-12-07_14h13.13.024,gca_discrimination,2022.2.4,143.90290583000325,
positions.xlsx,stimuli.xlsx,test.xlsx,stimuli/Social2.png,stimuli/Social1.png,stimuli/Nonsocial1.png,stimuli/Nonsocial2.png,stimuli/Test1.png,stimuli/Test2.png,"(0.7, -0.5)",cs_plus_s,"(-0.7, 0.5)",cs_plus_s,0,0,0,0,,,,,0,30,30,57,,,,,,,,,,,,,,,191.8554511000002,192.86242259999926,192.86242259999926,193.00817499999903,193.51509309999892,193.51509309999892,193.66091550000056,l,0.5661027000023751,correct,,194.23731019999832,194.92474460000085,192.86242259999926,,,,,,,,,,,,7,B,2023-12-07_14h13.13.024,gca_discrimination,2022.2.4,143.90290583000325,
positions.xlsx,stimuli.xlsx,test.xlsx,stimuli/Social2.png,stimuli/Social1.png,stimuli/Nonsocial1.png,stimuli/Nonsocial2.png,stimuli/Test1.png,stimuli/Test2.png,"(0.7, -0.5)",cs_plus_ns,"(0.7, 0.5)",cs_plus_ns,0,0,0,0,,,,,0,31,31,83,,,,,,,,,,,,,,,194.92474460000085,195.93166650000057,195.93166650000057,196.07743819999814,196.58440939999855,196.58440939999855,196.7302434000012,l,0.5294666000008874,correct,,197.2718915000005,197.67466480000076,195.93166650000057,,,,,,,,,,,,7,B,2023-12-07_14h13.13.024,gca_discrimination,2022.2.4,143.90290583000325,
positions.xlsx,stimuli.xlsx,test.xlsx,stimuli/Social2.png,stimuli/Social1.png,stimuli/Nonsocial1.png,stimuli/Nonsocial2.png,stimuli/Test1.png,stimuli/Test2.png,"(-0.7, -0.5)",cs_minus_s,"(0.7, 0.5)",cs_plus_s,0,0,0,0,,,,,0,32,32,16,,,,,,,,,,,,,,,197.67466480000076,198.68158810000023,198.68158810000023,198.82739420000144,199.33430859999862,199.33430859999862,199.48014179999882,ä,0.4836187000037171,correct,,199.97315700000036,200.96617870000046,198.68158810000023,,,,,,,,,,,,7,B,2023-12-07_14h13.13.024,gca_discrimination,2022.2.4,143.90290583000325,
positions.xlsx,stimuli.xlsx,test.xlsx,stimuli/Social2.png,stimuli/Social1.png,stimuli/Nonsocial1.png,stimuli/Nonsocial2.png,stimuli/Test1.png,stimuli/Test2.png,"(0.7, -0.5)",cs_plus_s,"(-0.7, -0.5)",cs_minus_s,0,0,0,0,,,,,0,33,33,10,,,,,,,,,,,,,,,200.96617870000046,201.97310809999908,201.97310809999908,202.11890889999995,202.62584799999968,202.62584799999968,202.77169409999988,ä,0.5847450000037497,correct,,203.36885999999868,203.52861090000079,201.97310809999908,,,,,,,,,,,,7,B,2023-12-07_14h13.13.024,gca_discrimination,2022.2.4,143.90290583000325,
positions.xlsx,stimuli.xlsx,test.xlsx,stimuli/Social2.png,stimuli/Social1.png,stimuli/Nonsocial1.png,stimuli/Nonsocial2.png,stimuli/Test1.png,stimuli/Test2.png,"(-0.7, 0.5)",cs_minus_ns,"(-0.7, -0.5)",cs_minus_ns,0,0,0,0,,,,,0,34,34,84,,,,,,,,,,,,,,,203.52861090000079,204.53549629999907,204.53549629999907,204.68133680000028,205.1882545999979,205.1882545999979,205.33406409999952,l,0.4457082000008086,correct,,205.7923907000004,206.18128520000027,204.53549629999907,,,,,,,,,,,,7,B,2023-12-07_14h13.13.024,gca_discrimination,2022.2.4,143.90290583000325,
positions.xlsx,stimuli.xlsx,test.xlsx,stimuli/Social2.png,stimuli/Social1.png,stimuli/Nonsocial1.png,stimuli/Nonsocial2.png,stimuli/Test1.png,stimuli/Test2.png,"(-0.7, 0.5)",cs_minus_s,"(-0.7, -0.5)",cs_minus_s,0,0,0,0,,,,,0,35,35,60,,,,,,,,,,,,,,,206.18128520000027,207.18816399999923,207.18816399999923,207.33401589999994,207.8409337999983,207.8409337999983,207.9867852999996,l,0.49693540000225767,correct,,208.49365300000136,208.61867200000052,207.18816399999923,,,,,,,,,,,,7,B,2023-12-07_14h13.13.024,gca_discrimination,2022.2.4,143.90290583000325,
positions.xlsx,stimuli.xlsx,test.xlsx,stimuli/Social2.png,stimuli/Social1.png,stimuli/Nonsocial1.png,stimuli/Nonsocial2.png,stimuli/Test1.png,stimuli/Test2.png,"(-0.7, 0.5)",cs_plus_s,"(-0.7, -0.5)",cs_plus_s,0,0,0,0,,,,,0,36,36,48,,,,,,,,,,,,,,,208.61867200000052,209.6255560999998,209.6255560999998,209.77139299999908,210.27830099999846,210.27830099999846,210.42411599999832,l,0.5639698000013595,correct,,211.00049880000006,211.72964199999842,209.6255560999998,,,,,,,,,,,,7,B,2023-12-07_14h13.13.024,gca_discrimination,2022.2.4,143.90290583000325,
positions.xlsx,stimuli.xlsx,test.xlsx,stimuli/Social2.png,stimuli/Social1.png,stimuli/Nonsocial1.png,stimuli/Nonsocial2.png,stimuli/Test1.png,stimuli/Test2.png,"(0.7, -0.5)",cs_plus_ns,"(-0.7, -0.5)",cs_plus_ns,0,0,0,0,,,,,0,37,37,82,,,,,,,,,,,,,,,211.72964199999842,212.73660680000103,212.73660680000103,212.8824143999991,213.38931880000018,213.38931880000018,213.53515010000046,l,0.5718504000033136,correct,,214.11847280000075,214.3962262999994,212.73660680000103,,,,,,,,,,,,7,B,2023-12-07_14h13.13.024,gca_discrimination,2022.2.4,143.90290583000325,
positions.xlsx,stimuli.xlsx,test.xlsx,stimuli/Social2.png,stimuli/Social1.png,stimuli/Nonsocial1.png,stimuli/Nonsocial2.png,stimuli/Test1.png,stimuli/Test2.png,"(0.7, -0.5)",cs_minus_s,"(-0.7, 0.5)",cs_plus_s,0,0,0,0,,,,,0,38,38,21,,,,,,,,,,,,,,,214.3962262999994,215.4031329999998,215.4031329999998,215.54897150000033,216.0559162999998,216.0559162999998,216.20170909999797,ä,0.5778466000010667,correct,,216.79196560000128,217.4030488999997,215.4031329999998,,,,,,,,,,,,7,B,2023-12-07_14h13.13.024,gca_discrimination,2022.2.4,143.90290583000325,
positions.xlsx,stimuli.xlsx,test.xlsx,stimuli/Social2.png,stimuli/Social1.png,stimuli/Nonsocial1.png,stimuli/Nonsocial2.png,stimuli/Test1.png,stimuli/Test2.png,"(0.7, 0.5)",cs_plus_s,"(-0.7, -0.5)",cs_minus_s,0,0,0,0,,,,,0,39,39,7,,,,,,,,,,,,,,,217.4030488999997,218.40992819999883,218.40992819999883,218.5557899000014,219.06271040000138,219.06271040000138,219.20854210000107,ä,0.5303062000020873,correct,,219.75019320000138,220.1737847000004,218.40992819999883,,,,,,,,,,,,7,B,2023-12-07_14h13.13.024,gca_discrimination,2022.2.4,143.90290583000325,
positions.xlsx,stimuli.xlsx,test.xlsx,stimuli/Social2.png,stimuli/Social1.png,stimuli/Nonsocial1.png,stimuli/Nonsocial2.png,stimuli/Test1.png,stimuli/Test2.png,"(0.7, 0.5)",cs_minus_s,"(-0.7, -0.5)",cs_plus_s,0,0,0,0,,,,,0,40,40,19,,,,,,,,,,,,,,,220.1737847000004,221.180680999998,221.180680999998,221.32649859999947,221.83342489999995,221.83342489999995,221.97926649999863,ä,0.6247189000023354,correct,,222.61117920000106,223.02779569999984,221.180680999998,,,,,,,,,,,,7,B,2023-12-07_14h13.13.024,gca_discrimination,2022.2.4,143.90290583000325,
positions.xlsx,stimuli.xlsx,test.xlsx,stimuli/Social2.png,stimuli/Social1.png,stimuli/Nonsocial1.png,stimuli/Nonsocial2.png,stimuli/Test1.png,stimuli/Test2.png,"(-0.7, 0.5)",cs_plus_ns,"(-0.7, -0.5)",cs_plus_ns,0,0,0,0,,,,,0,41,41,72,,,,,,,,,,,,,,,223.02779569999984,224.03476109999974,224.03476109999974,224.18057620000036,224.6874910000006,224.6874910000006,224.8332847999991,l,0.5147450000004028,correct,,225.361088499998,225.97215420000066,224.03476109999974,,,,,,,,,,,,7,B,2023-12-07_14h13.13.024,gca_discrimination,2022.2.4,143.90290583000325,
positions.xlsx,stimuli.xlsx,test.xlsx,stimuli/Social2.png,stimuli/Social1.png,stimuli/Nonsocial1.png,stimuli/Nonsocial2.png,stimuli/Test1.png,stimuli/Test2.png,"(-0.7, 0.5)",cs_minus_s,"(0.7, 0.5)",cs_plus_s,0,0,0,0,,,,,0,42,42,13,,,,,,,,,,,,,,,225.97215420000066,226.97905529999844,226.97905529999844,227.12489269999787,227.63186080000014,227.63186080000014,227.77764430000025,l,0.465257500000007,wrong,,228.24983839999913,228.5692784999992,226.97905529999844,,,,,,,,,,,,7,B,2023-12-07_14h13.13.024,gca_discrimination,2022.2.4,143.90290583000325,
positions.xlsx,stimuli.xlsx,test.xlsx,stimuli/Social2.png,stimuli/Social1.png,stimuli/Nonsocial1.png,stimuli/Nonsocial2.png,stimuli/Test1.png,stimuli/Test2.png,"(-0.7, -0.5)",cs_minus_ns,"(0.7, -0.5)",cs_minus_ns,0,0,0,0,,,,,0,43,43,89,,,,,,,,,,,,,,,228.5692784999992,229.57619290000002,229.57619290000002,229.72204499999862,230.22895509999944,230.22895509999944,230.3747942000009,l,0.4443963000012445,correct,,230.82612890000019,231.81217679999827,229.57619290000002,,,,,,,,,,,,7,B,2023-12-07_14h13.13.024,gca_discrimination,2022.2.4,143.90290583000325,
positions.xlsx,stimuli.xlsx,test.xlsx,stimuli/Social2.png,stimuli/Social1.png,stimuli/Nonsocial1.png,stimuli/Nonsocial2.png,stimuli/Test1.png,stimuli/Test2.png,"(-0.7, -0.5)",cs_minus_ns,"(-0.7, 0.5)",cs_plus_ns,0,0,0,0,,,,,0,44,44,39,,,,,,,,,,,,,,,231.81217679999827,232.81912050000028,232.81912050000028,232.9649673999993,233.47187869999834,233.47187869999834,233.6176947999993,ä,0.49875729999985197,correct,,234.1245940000008,234.7773731999987,232.81912050000028,,,,,,,,,,,,7,B,2023-12-07_14h13.13.024,gca_discrimination,2022.2.4,143.90290583000325,
positions.xlsx,stimuli.xlsx,test.xlsx,stimuli/Social2.png,stimuli/Social1.png,stimuli/Nonsocial1.png,stimuli/Nonsocial2.png,stimuli/Test1.png,stimuli/Test2.png,"(0.7, -0.5)",cs_plus_ns,"(0.7, 0.5)",cs_minus_ns,0,0,0,0,,,,,0,45,45,35,,,,,,,,,,,,,,,234.7773731999987,235.78426469999977,235.78426469999977,235.93010739999954,236.43699859999833,236.43699859999833,236.58283369999845,ä,0.46004780000293977,correct,,237.05504120000114,237.72167719999925,235.78426469999977,,,,,,,,,,,,7,B,2023-12-07_14h13.13.024,gca_discrimination,2022.2.4,143.90290583000325,
positions.xlsx,stimuli.xlsx,test.xlsx,stimuli/Social2.png,stimuli/Social1.png,stimuli/Nonsocial1.png,stimuli/Nonsocial2.png,stimuli/Test1.png,stimuli/Test2.png,"(-0.7, -0.5)",cs_plus_s,"(-0.7, 0.5)",cs_minus_s,0,0,0,0,,,,,0,46,46,3,,,,,,,,,,,,,,,237.72167719999925,238.7286279,238.7286279,238.87445389999993,239.38135310000143,239.38135310000143,239.5271971000002,ä,0.5014848999999231,correct,,240.04105079999863,240.1244063999984,238.7286279,,,,,,,,,,,,7,B,2023-12-07_14h13.13.024,gca_discrimination,2022.2.4,143.90290583000325,
positions.xlsx,stimuli.xlsx,test.xlsx,stimuli/Social2.png,stimuli/Social1.png,stimuli/Nonsocial1.png,stimuli/Nonsocial2.png,stimuli/Test1.png,stimuli/Test2.png,"(0.7, 0.5)",cs_plus_s,"(-0.7, 0.5)",cs_plus_s,0,0,0,0,,,,,0,47,47,54,,,,,,,,,,,,,,,240.1244063999984,241.13126069999998,241.13126069999998,241.27707999999984,241.784059900001,241.784059900001,241.92985509999926,l,0.46609779999926104,correct,,242.40899139999965,243.36034930000096,241.13126069999998,,,,,,,,,,,,7,B,2023-12-07_14h13.13.024,gca_discrimination,2022.2.4,143.90290583000325,
positions.xlsx,stimuli.xlsx,test.xlsx,stimuli/Social2.png,stimuli/Social1.png,stimuli/Nonsocial1.png,stimuli/Nonsocial2.png,stimuli/Test1.png,stimuli/Test2.png,"(-0.7, 0.5)",cs_plus_s,"(0.7, 0.5)",cs_plus_s,0,0,0,0,,,,,0,48,48,49,,,,,,,,,,,,,,,243.36034930000096,244.36726439999984,244.36726439999984,244.5131048000003,245.02004529999977,245.02004529999977,245.16584689999945,l,0.3494740999994974,correct,,245.52696600000127,245.75608490000013,244.36726439999984,,,,,,,,,,,,7,B,2023-12-07_14h13.13.024,gca_discrimination,2022.2.4,143.90290583000325,
positions.xlsx,stimuli.xlsx,test.xlsx,stimuli/Social2.png,stimuli/Social1.png,stimuli/Nonsocial1.png,stimuli/Nonsocial2.png,stimuli/Test1.png,stimuli/Test2.png,"(-0.7, -0.5)",cs_minus_s,"(0.7, 0.5)",cs_minus_s,0,0,0,0,,,,,0,49,49,64,,,,,,,,,,,,,,,245.75608490000013,246.7630089000013,246.7630089000013,246.9088840000004,247.41579009999987,247.41579009999987,247.56156909999845,l,0.6742089000035776,correct,,248.24903939999786,248.86014309999882,246.7630089000013,,,,,,,,,,,,7,B,2023-12-07_14h13.13.024,gca_discrimination,2022.2.4,143.90290583000325,
positions.xlsx,stimuli.xlsx,test.xlsx,stimuli/Social2.png,stimuli/Social1.png,stimuli/Nonsocial1.png,stimuli/Nonsocial2.png,stimuli/Test1.png,stimuli/Test2.png,"(0.7, 0.5)",cs_plus_ns,"(-0.7, -0.5)",cs_plus_ns,0,0,0,0,,,,,0,50,50,79,,,,,,,,,,,,,,,248.86014309999882,249.8670678999988,249.8670678999988,250.0128651999985,250.51978220000092,250.51978220000092,250.66561979999824,l,0.48954020000019227,correct,,251.16559889999917,252.110024900001,249.8670678999988,,,,,,,,,,,,7,B,2023-12-07_14h13.13.024,gca_discrimination,2022.2.4,143.90290583000325,
positions.xlsx,stimuli.xlsx,test.xlsx,stimuli/Social2.png,stimuli/Social1.png,stimuli/Nonsocial1.png,stimuli/Nonsocial2.png,stimuli/Test1.png,stimuli/Test2.png,"(0.7, -0.5)",cs_plus_ns,"(-0.7, 0.5)",cs_minus_ns,0,0,0,0,,,,,0,51,51,33,,,,,,,,,,,,,,,252.110024900001,253.11695690000124,253.11695690000124,253.26277499999924,253.76967869999862,253.76967869999862,253.91552990000127,ä,0.2553691000030085,correct,,254.17938409999988,254.71409950000088,253.11695690000124,,,,,,,,,,,,7,B,2023-12-07_14h13.13.024,gca_discrimination,2022.2.4,143.90290583000325,
positions.xlsx,stimuli.xlsx,test.xlsx,stimuli/Social2.png,stimuli/Social1.png,stimuli/Nonsocial1.png,stimuli/Nonsocial2.png,stimuli/Test1.png,stimuli/Test2.png,"(0.7, -0.5)",cs_minus_ns,"(-0.7, -0.5)",cs_minus_ns,0,0,0,0,,,,,0,52,52,94,,,,,,,,,,,,,,,254.71409950000088,255.72098819999883,255.72098819999883,255.86680999999953,256.37375130000146,256.37375130000146,256.5195629000009,l,0.34080380000159494,correct,,256.8737356999991,257.5473015999996,255.72098819999883,,,,,,,,,,,,7,B,2023-12-07_14h13.13.024,gca_discrimination,2022.2.4,143.90290583000325,
positions.xlsx,stimuli.xlsx,test.xlsx,stimuli/Social2.png,stimuli/Social1.png,stimuli/Nonsocial1.png,stimuli/Nonsocial2.png,stimuli/Test1.png,stimuli/Test2.png,"(-0.7, -0.5)",cs_minus_ns,"(0.7, -0.5)",cs_plus_ns,0,0,0,0,,,,,0,53,53,41,,,,,,,,,,,,,,,257.5473015999996,258.55421489999935,258.55421489999935,258.7000325000008,259.20698149999953,259.20698149999953,259.35278489999837,ä,0.33896160000222153,correct,,259.699991999998,259.9639210999994,258.55421489999935,,,,,,,,,,,,7,B,2023-12-07_14h13.13.024,gca_discrimination,2022.2.4,143.90290583000325,
positions.xlsx,stimuli.xlsx,test.xlsx,stimuli/Social2.png,stimuli/Social1.png,stimuli/Nonsocial1.png,stimuli/Nonsocial2.png,stimuli/Test1.png,stimuli/Test2.png,"(0.7, 0.5)",cs_plus_ns,"(0.7, -0.5)",cs_plus_ns,0,0,0,0,,,,,0,54,54,80,,,,,,,,,,,,,,,259.9639210999994,260.9707821999982,260.9707821999982,261.1166067999984,261.6235487999984,261.6235487999984,261.7693675999981,l,0.6580075999991095,correct,,262.4360013000005,262.74155320000136,260.9707821999982,,,,,,,,,,,,7,B,2023-12-07_14h13.13.024,gca_discrimination,2022.2.4,143.90290583000325,
positions.xlsx,stimuli.xlsx,test.xlsx,stimuli/Social2.png,stimuli/Social1.png,stimuli/Nonsocial1.png,stimuli/Nonsocial2.png,stimuli/Test1.png,stimuli/Test2.png,"(-0.7, 0.5)",cs_plus_s,"(0.7, -0.5)",cs_plus_s,0,0,0,0,,,,,0,55,55,50,,,,,,,,,,,,,,,262.74155320000136,263.748464100001,263.748464100001,263.89426119999916,264.40125869999974,264.40125869999974,264.547032399998,l,0.3358890000017709,correct,,264.8942308000005,265.4428047000001,263.748464100001,,,,,,,,,,,,7,B,2023-12-07_14h13.13.024,gca_discrimination,2022.2.4,143.90290583000325,
positions.xlsx,stimuli.xlsx,test.xlsx,stimuli/Social2.png,stimuli/Social1.png,stimuli/Nonsocial1.png,stimuli/Nonsocial2.png,stimuli/Test1.png,stimuli/Test2.png,"(-0.7, -0.5)",cs_plus_ns,"(-0.7, 0.5)",cs_plus_ns,0,0,0,0,,,,,0,56,56,75,,,,,,,,,,,,,,,265.4428047000001,266.44971929999883,266.44971929999883,266.5955412000003,267.1024991000013,267.1024991000013,267.2483135000002,l,0.33054030000130297,correct,,267.58858390000023,268.17190389999814,266.44971929999883,,,,,,,,,,,,7,B,2023-12-07_14h13.13.024,gca_discrimination,2022.2.4,143.90290583000325,
positions.xlsx,stimuli.xlsx,test.xlsx,stimuli/Social2.png,stimuli/Social1.png,stimuli/Nonsocial1.png,stimuli/Nonsocial2.png,stimuli/Test1.png,stimuli/Test2.png,"(-0.7, -0.5)",cs_minus_s,"(0.7, -0.5)",cs_minus_s,0,0,0,0,,,,,0,57,57,65,,,,,,,,,,,,,,,268.17190389999814,269.1787986999989,269.1787986999989,269.32464790000085,269.8315186,269.8315186,269.9774093999986,ä,0.5055460000003222,wrong,,270.4912497000005,270.6578984000007,269.1787986999989,,,,,,,,,,,,7,B,2023-12-07_14h13.13.024,gca_discrimination,2022.2.4,143.90290583000325,
positions.xlsx,stimuli.xlsx,test.xlsx,stimuli/Social2.png,stimuli/Social1.png,stimuli/Nonsocial1.png,stimuli/Nonsocial2.png,stimuli/Test1.png,stimuli/Test2.png,"(0.7, 0.5)",cs_minus_s,"(0.7, -0.5)",cs_minus_s,0,0,0,0,,,,,0,58,58,68,,,,,,,,,,,,,,,270.6578984000007,271.66481320000094,271.66481320000094,271.8106602000007,272.3175588999984,272.3175588999984,272.4634155999993,ä,0.5722178000032727,wrong,,273.0466978000004,273.7758498000003,271.66481320000094,,,,,,,,,,,,7,B,2023-12-07_14h13.13.024,gca_discrimination,2022.2.4,143.90290583000325,
positions.xlsx,stimuli.xlsx,test.xlsx,stimuli/Social2.png,stimuli/Social1.png,stimuli/Nonsocial1.png,stimuli/Nonsocial2.png,stimuli/Test1.png,stimuli/Test2.png,"(-0.7, 0.5)",cs_minus_s,"(-0.7, -0.5)",cs_plus_s,0,0,0,0,,,,,0,59,59,12,,,,,,,,,,,,,,,273.7758498000003,274.78281539999807,274.78281539999807,274.9285732999997,275.43549899999925,275.43549899999925,275.5813410999981,ä,0.6383151000009093,correct,,276.22713219999787,276.81734349999897,274.78281539999807,,,,,,,,,,,,7,B,2023-12-07_14h13.13.024,gca_discrimination,2022.2.4,143.90290583000325,
positions.xlsx,stimuli.xlsx,test.xlsx,stimuli/Social2.png,stimuli/Social1.png,stimuli/Nonsocial1.png,stimuli/Nonsocial2.png,stimuli/Test1.png,stimuli/Test2.png,"(0.7, 0.5)",cs_minus_ns,"(-0.7, -0.5)",cs_minus_ns,0,0,0,0,,,,,0,60,60,91,,,,,,,,,,,,,,,276.81734349999897,277.82428249999793,277.82428249999793,277.9701443999984,278.4770639999988,278.4770639999988,278.62288129999797,l,0.612442400000873,correct,,279.24782029999915,279.38671129999784,277.82428249999793,,,,,,,,,,,,7,B,2023-12-07_14h13.13.024,gca_discrimination,2022.2.4,143.90290583000325,
positions.xlsx,stimuli.xlsx,test.xlsx,stimuli/Social2.png,stimuli/Social1.png,stimuli/Nonsocial1.png,stimuli/Nonsocial2.png,stimuli/Test1.png,stimuli/Test2.png,"(-0.7, 0.5)",cs_plus_ns,"(0.7, 0.5)",cs_plus_ns,0,0,0,0,,,,,0,61,61,73,,,,,,,,,,,,,,,279.38671129999784,280.393623699998,280.393623699998,280.53944969999793,281.046381199998,281.046381199998,281.19215450000047,l,0.5547702000039862,correct,,281.7546820999996,281.77551120000135,280.393623699998,,,,,,,,,,,,7,B,2023-12-07_14h13.13.024,gca_discrimination,2022.2.4,143.90290583000325,
positions.xlsx,stimuli.xlsx,test.xlsx,stimuli/Social2.png,stimuli/Social1.png,stimuli/Nonsocial1.png,stimuli/Nonsocial2.png,stimuli/Test1.png,stimuli/Test2.png,"(-0.7, -0.5)",cs_plus_s,"(0.7, -0.5)",cs_plus_s,0,0,0,0,,,,,0,62,62,53,,,,,,,,,,,,,,,281.77551120000135,282.78243049999946,282.78243049999946,282.92824050000127,283.4351863999982,283.4351863999982,283.58101180000085,l,0.445958200001769,correct,,284.0392764999997,284.06011899999794,282.78243049999946,,,,,,,,,,,,7,B,2023-12-07_14h13.13.024,gca_discrimination,2022.2.4,143.90290583000325,
positions.xlsx,stimuli.xlsx,test.xlsx,stimuli/Social2.png,stimuli/Social1.png,stimuli/Nonsocial1.png,stimuli/Nonsocial2.png,stimuli/Test1.png,stimuli/Test2.png,"(-0.7, -0.5)",cs_plus_s,"(0.7, 0.5)",cs_minus_s,0,0,0,0,,,,,0,63,63,4,,,,,,,,,,,,,,,284.06011899999794,285.067036299999,285.067036299999,285.21292280000125,285.71983249999903,285.71983249999903,285.8656422999993,ä,0.40964810000150464,correct,,286.2823032999986,287.19198179999876,285.067036299999,,,,,,,,,,,,7,B,2023-12-07_14h13.13.024,gca_discrimination,2022.2.4,143.90290583000325,
positions.xlsx,stimuli.xlsx,test.xlsx,stimuli/Social2.png,stimuli/Social1.png,stimuli/Nonsocial1.png,stimuli/Nonsocial2.png,stimuli/Test1.png,stimuli/Test2.png,"(-0.7, 0.5)",cs_plus_ns,"(0.7, 0.5)",cs_minus_ns,0,0,0,0,,,,,0,64,64,25,,,,,,,,,,,,,,,287.19198179999876,288.19888189999983,288.19888189999983,288.3446789000009,288.85163079999984,288.85163079999984,288.9974495999995,ä,0.45508370000243303,correct,,289.46269480000046,289.61546090000047,288.19888189999983,,,,,,,,,,,,7,B,2023-12-07_14h13.13.024,gca_discrimination,2022.2.4,143.90290583000325,
positions.xlsx,stimuli.xlsx,test.xlsx,stimuli/Social2.png,stimuli/Social1.png,stimuli/Nonsocial1.png,stimuli/Nonsocial2.png,stimuli/Test1.png,stimuli/Test2.png,"(0.7, -0.5)",cs_plus_ns,"(-0.7, -0.5)",cs_minus_ns,0,0,0,0,,,,,0,65,65,34,,,,,,,,,,,,,,,289.61546090000047,290.62240219999876,290.62240219999876,290.7682230999999,291.2751442999979,291.2751442999979,291.4209813999987,ä,0.9983037000019976,correct,,292.4278536999991,293.02507089999926,290.62240219999876,,,,,,,,,,,,7,B,2023-12-07_14h13.13.024,gca_discrimination,2022.2.4,143.90290583000325,
positions.xlsx,stimuli.xlsx,test.xlsx,stimuli/Social2.png,stimuli/Social1.png,stimuli/Nonsocial1.png,stimuli/Nonsocial2.png,stimuli/Test1.png,stimuli/Test2.png,"(-0.7, -0.5)",cs_plus_ns,"(0.7, 0.5)",cs_plus_ns,0,0,0,0,,,,,0,66,66,76,,,,,,,,,,,,,,,293.02507089999926,294.03196449999814,294.03196449999814,294.1778278999991,294.6847501000011,294.6847501000011,294.8305521000002,l,0.4369766999989224,correct,,295.2749968999997,296.20550430000003,294.03196449999814,,,,,,,,,,,,7,B,2023-12-07_14h13.13.024,gca_discrimination,2022.2.4,143.90290583000325,
positions.xlsx,stimuli.xlsx,test.xlsx,stimuli/Social2.png,stimuli/Social1.png,stimuli/Nonsocial1.png,stimuli/Nonsocial2.png,stimuli/Test1.png,stimuli/Test2.png,"(0.7, 0.5)",cs_plus_ns,"(0.7, -0.5)",cs_minus_ns,0,0,0,0,,,,,0,67,67,32,,,,,,,,,,,,,,,296.20550430000003,297.21241029999874,297.21241029999874,297.3582798999996,297.8652053000005,297.8652053000005,298.01098790000106,ä,0.7680467999998655,correct,,298.78872390000106,299.3512778000004,297.21241029999874,,,,,,,,,,,,7,B,2023-12-07_14h13.13.024,gca_discrimination,2022.2.4,143.90290583000325,
positions.xlsx,stimuli.xlsx,test.xlsx,stimuli/Social2.png,stimuli/Social1.png,stimuli/Nonsocial1.png,stimuli/Nonsocial2.png,stimuli/Test1.png,stimuli/Test2.png,"(-0.7, 0.5)",cs_plus_ns,"(0.7, -0.5)",cs_plus_ns,0,0,0,0,,,,,0,68,68,74,,,,,,,,,,,,,,,299.3512778000004,300.3581245999994,300.3581245999994,300.50398719999794,301.0108344,301.0108344,301.1566808999996,l,0.4543578000011621,correct,,301.6219968000005,301.81637639999826,300.3581245999994,,,,,,,,,,,,7,B,2023-12-07_14h13.13.024,gca_discrimination,2022.2.4,143.90290583000325,
positions.xlsx,stimuli.xlsx,test.xlsx,stimuli/Social2.png,stimuli/Social1.png,stimuli/Nonsocial1.png,stimuli/Nonsocial2.png,stimuli/Test1.png,stimuli/Test2.png,"(0.7, -0.5)",cs_plus_ns,"(-0.7, 0.5)",cs_plus_ns,0,0,0,0,,,,,0,69,69,81,,,,,,,,,,,,,,,301.81637639999826,302.82331590000103,302.82331590000103,302.9691321999999,303.4760735999989,303.4760735999989,303.62187730000005,l,0.4299654999995255,correct,,304.05935229999886,304.455189100001,302.82331590000103,,,,,,,,,,,,7,B,2023-12-07_14h13.13.024,gca_discrimination,2022.2.4,143.90290583000325,
positions.xlsx,stimuli.xlsx,test.xlsx,stimuli/Social2.png,stimuli/Social1.png,stimuli/Nonsocial1.png,stimuli/Nonsocial2.png,stimuli/Test1.png,stimuli/Test2.png,"(0.7, -0.5)",cs_minus_ns,"(0.7, 0.5)",cs_plus_ns,0,0,0,0,,,,,0,70,70,47,,,,,,,,,,,,,,,304.455189100001,305.46209530000124,305.46209530000124,305.6079299999983,306.1148565000003,306.1148565000003,306.2606760999988,ä,0.4064737000007881,correct,,306.677300299998,307.1564608000008,305.46209530000124,,,,,,,,,,,,7,B,2023-12-07_14h13.13.024,gca_discrimination,2022.2.4,143.90290583000325,
positions.xlsx,stimuli.xlsx,test.xlsx,stimuli/Social2.png,stimuli/Social1.png,stimuli/Nonsocial1.png,stimuli/Nonsocial2.png,stimuli/Test1.png,stimuli/Test2.png,"(-0.7, -0.5)",cs_minus_ns,"(0.7, 0.5)",cs_plus_ns,0,0,0,0,,,,,0,71,71,40,,,,,,,,,,,,,,,307.1564608000008,308.1633373000004,308.1633373000004,308.3092117999986,308.81610229999933,308.81610229999933,308.9619524000009,ä,0.4171838000002026,correct,,309.3924685999991,310.27439740000045,308.1633373000004,,,,,,,,,,,,7,B,2023-12-07_14h13.13.024,gca_discrimination,2022.2.4,143.90290583000325,
positions.xlsx,stimuli.xlsx,test.xlsx,stimuli/Social2.png,stimuli/Social1.png,stimuli/Nonsocial1.png,stimuli/Nonsocial2.png,stimuli/Test1.png,stimuli/Test2.png,"(-0.7, 0.5)",cs_minus_ns,"(0.7, 0.5)",cs_minus_ns,0,0,0,0,,,,,0,72,72,85,,,,,,,,,,,,,,,310.27439740000045,311.2813152999988,311.2813152999988,311.4271341999993,311.9340822999984,311.9340822999984,312.07990359999894,l,0.3791741000022739,correct,,312.46875799999907,312.85764189999827,311.2813152999988,,,,,,,,,,,,7,B,2023-12-07_14h13.13.024,gca_discrimination,2022.2.4,143.90290583000325,
positions.xlsx,stimuli.xlsx,test.xlsx,stimuli/Social2.png,stimuli/Social1.png,stimuli/Nonsocial1.png,stimuli/Nonsocial2.png,stimuli/Test1.png,stimuli/Test2.png,"(0.7, -0.5)",cs_minus_s,"(-0.7, -0.5)",cs_plus_s,0,0,0,0,,,,,0,73,73,22,,,,,,,,,,,,,,,312.85764189999827,313.86456330000146,313.86456330000146,314.01036699999895,314.5172946999992,314.5172946999992,314.6631132000002,ä,0.356044700001803,correct,,315.0311122999992,315.4547515999984,313.86456330000146,,,,,,,,,,,,7,B,2023-12-07_14h13.13.024,gca_discrimination,2022.2.4,143.90290583000325,
positions.xlsx,stimuli.xlsx,test.xlsx,stimuli/Social2.png,stimuli/Social1.png,stimuli/Nonsocial1.png,stimuli/Nonsocial2.png,stimuli/Test1.png,stimuli/Test2.png,"(0.7, -0.5)",cs_plus_s,"(0.7, 0.5)",cs_plus_s,0,0,0,0,,,,,0,74,74,59,,,,,,,,,,,,,,,315.4547515999984,316.46166449999873,316.46166449999873,316.6074759000003,317.1143842999991,317.1143842999991,317.2602517000014,l,0.37649790000068606,correct,,317.64911669999856,318.1907750999999,316.46166449999873,,,,,,,,,,,,7,B,2023-12-07_14h13.13.024,gca_discrimination,2022.2.4,143.90290583000325,
positions.xlsx,stimuli.xlsx,test.xlsx,stimuli/Social2.png,stimuli/Social1.png,stimuli/Nonsocial1.png,stimuli/Nonsocial2.png,stimuli/Test1.png,stimuli/Test2.png,"(0.7, 0.5)",cs_minus_ns,"(-0.7, -0.5)",cs_plus_ns,0,0,0,0,,,,,0,75,75,43,,,,,,,,,,,,,,,318.1907750999999,319.1976680000007,319.1976680000007,319.34349120000115,319.8504176999995,319.8504176999995,319.9962267999981,ä,0.3835362999998324,correct,,320.3920685000012,320.83648900000117,319.1976680000007,,,,,,,,,,,,7,B,2023-12-07_14h13.13.024,gca_discrimination,2022.2.4,143.90290583000325,
positions.xlsx,stimuli.xlsx,test.xlsx,stimuli/Social2.png,stimuli/Social1.png,stimuli/Nonsocial1.png,stimuli/Nonsocial2.png,stimuli/Test1.png,stimuli/Test2.png,"(0.7, 0.5)",cs_minus_ns,"(0.7, -0.5)",cs_plus_ns,0,0,0,0,,,,,0,76,76,44,,,,,,,,,,,,,,,320.83648900000117,321.8433789999981,321.8433789999981,321.98924989999796,322.49615469999844,322.49615469999844,322.64197010000134,ä,0.3696735000012268,correct,,323.02390860000014,323.419713700001,321.8433789999981,,,,,,,,,,,,7,B,2023-12-07_14h13.13.024,gca_discrimination,2022.2.4,143.90290583000325,
positions.xlsx,stimuli.xlsx,test.xlsx,stimuli/Social2.png,stimuli/Social1.png,stimuli/Nonsocial1.png,stimuli/Nonsocial2.png,stimuli/Test1.png,stimuli/Test2.png,"(-0.7, 0.5)",cs_plus_s,"(-0.7, -0.5)",cs_minus_s,0,0,0,0,,,,,0,77,77,0,,,,,,,,,,,,,,,323.419713700001,324.4266212000002,324.4266212000002,324.57246459999806,325.0793713999992,325.0793713999992,325.2252047000002,ä,0.44971799999984796,correct,,325.6835313999982,325.7182557999986,324.4266212000002,,,,,,,,,,,,7,B,2023-12-07_14h13.13.024,gca_discrimination,2022.2.4,143.90290583000325,
positions.xlsx,stimuli.xlsx,test.xlsx,stimuli/Social2.png,stimuli/Social1.png,stimuli/Nonsocial1.png,stimuli/Nonsocial2.png,stimuli/Test1.png,stimuli/Test2.png,"(-0.7, 0.5)",cs_minus_s,"(0.7, -0.5)",cs_minus_s,0,0,0,0,,,,,0,78,78,62,,,,,,,,,,,,,,,325.7182557999986,326.7251491999996,326.7251491999996,326.8709834000001,327.37787150000077,327.37787150000077,327.52369539999927,l,0.6888940000026196,correct,,328.22506649999923,328.5861622000011,326.7251491999996,,,,,,,,,,,,7,B,2023-12-07_14h13.13.024,gca_discrimination,2022.2.4,143.90290583000325,
positions.xlsx,stimuli.xlsx,test.xlsx,stimuli/Social2.png,stimuli/Social1.png,stimuli/Nonsocial1.png,stimuli/Nonsocial2.png,stimuli/Test1.png,stimuli/Test2.png,"(0.7, 0.5)",cs_plus_s,"(-0.7, -0.5)",cs_plus_s,0,0,0,0,,,,,0,79,79,55,,,,,,,,,,,,,,,328.5861622000011,329.59310130000085,329.59310130000085,329.73893529999987,330.2458746000011,330.2458746000011,330.3916716999993,l,0.6129159000010986,correct,,331.0167070999996,331.5583007999994,329.59310130000085,,,,,,,,,,,,7,B,2023-12-07_14h13.13.024,gca_discrimination,2022.2.4,143.90290583000325,
positions.xlsx,stimuli.xlsx,test.xlsx,stimuli/Social2.png,stimuli/Social1.png,stimuli/Nonsocial1.png,stimuli/Nonsocial2.png,stimuli/Test1.png,stimuli/Test2.png,"(-0.7, 0.5)",cs_plus_ns,"(-0.7, -0.5)",cs_minus_ns,0,0,0,0,,,,,0,80,80,24,,,,,,,,,,,,,,,331.5583007999994,332.56521240000075,332.56521240000075,332.7110536,333.21796750000067,333.21796750000067,333.363774999998,ä,0.43247020000126213,correct,,333.8081925000006,333.98881170000095,332.56521240000075,,,,,,,,,,,,7,B,2023-12-07_14h13.13.024,gca_discrimination,2022.2.4,143.90290583000325,
positions.xlsx,stimuli.xlsx,test.xlsx,stimuli/Social2.png,stimuli/Social1.png,stimuli/Nonsocial1.png,stimuli/Nonsocial2.png,stimuli/Test1.png,stimuli/Test2.png,"(0.7, -0.5)",cs_minus_s,"(-0.7, -0.5)",cs_minus_s,0,0,0,0,,,,,0,81,81,70,,,,,,,,,,,,,,,333.98881170000095,334.9956844999979,334.9956844999979,335.1414874000002,335.6483860999979,335.6483860999979,335.79424540000036,l,0.5697113999995054,correct,,336.377551900001,337.3358455999987,334.9956844999979,,,,,,,,,,,,7,B,2023-12-07_14h13.13.024,gca_discrimination,2022.2.4,143.90290583000325,
positions.xlsx,stimuli.xlsx,test.xlsx,stimuli/Social2.png,stimuli/Social1.png,stimuli/Nonsocial1.png,stimuli/Nonsocial2.png,stimuli/Test1.png,stimuli/Test2.png,"(0.7, 0.5)",cs_plus_ns,"(-0.7, -0.5)",cs_minus_ns,0,0,0,0,,,,,0,82,82,31,,,,,,,,,,,,,,,337.3358455999987,338.34275250000064,338.34275250000064,338.48859079999966,338.9955078999992,338.9955078999992,339.1413404999985,ä,0.3355193999996118,correct,,339.4884978000009,339.4954843000014,338.34275250000064,,,,,,,,,,,,7,B,2023-12-07_14h13.13.024,gca_discrimination,2022.2.4,143.90290583000325,
positions.xlsx,stimuli.xlsx,test.xlsx,stimuli/Social2.png,stimuli/Social1.png,stimuli/Nonsocial1.png,stimuli/Nonsocial2.png,stimuli/Test1.png,stimuli/Test2.png,"(-0.7, 0.5)",cs_plus_s,"(0.7, -0.5)",cs_minus_s,0,0,0,0,,,,,0,83,83,2,,,,,,,,,,,,,,,339.4954843000014,340.5024339999982,340.5024339999982,340.6482107999982,341.15513999999894,341.15513999999894,341.3009759999986,ä,0.8546871000035026,correct,,342.16899289999856,342.38426210000034,340.5024339999982,,,,,,,,,,,,7,B,2023-12-07_14h13.13.024,gca_discrimination,2022.2.4,143.90290583000325,
positions.xlsx,stimuli.xlsx,test.xlsx,stimuli/Social2.png,stimuli/Social1.png,stimuli/Nonsocial1.png,stimuli/Nonsocial2.png,stimuli/Test1.png,stimuli/Test2.png,"(-0.7, -0.5)",cs_plus_ns,"(0.7, -0.5)",cs_plus_ns,0,0,0,0,,,,,0,84,84,77,,,,,,,,,,,,,,,342.38426210000034,343.39117930000066,343.39117930000066,343.53703010000027,344.043899100001,344.043899100001,344.18976889999976,l,0.47716440000294824,correct,,344.6758368999981,345.5022284000006,343.39117930000066,,,,,,,,,,,,7,B,2023-12-07_14h13.13.024,gca_discrimination,2022.2.4,143.90290583000325,
positions.xlsx,stimuli.xlsx,test.xlsx,stimuli/Social2.png,stimuli/Social1.png,stimuli/Nonsocial1.png,stimuli/Nonsocial2.png,stimuli/Test1.png,stimuli/Test2.png,"(-0.7, -0.5)",cs_minus_s,"(-0.7, 0.5)",cs_minus_s,0,0,0,0,,,,,0,85,85,63,,,,,,,,,,,,,,,345.5022284000006,346.5090977,346.5090977,346.6549391999979,347.16187419999915,347.16187419999915,347.30768239999816,l,0.6563590000005206,correct,,347.9743175000003,348.8562262999985,346.5090977,,,,,,,,,,,,7,B,2023-12-07_14h13.13.024,gca_discrimination,2022.2.4,143.90290583000325,
positions.xlsx,stimuli.xlsx,test.xlsx,stimuli/Social2.png,stimuli/Social1.png,stimuli/Nonsocial1.png,stimuli/Nonsocial2.png,stimuli/Test1.png,stimuli/Test2.png,"(-0.7, 0.5)",cs_plus_s,"(0.7, 0.5)",cs_minus_s,0,0,0,0,,,,,0,86,86,1,,,,,,,,,,,,,,,348.8562262999985,349.8631577999986,349.8631577999986,350.0089732999986,350.5158890999992,350.5158890999992,350.66169960000116,l,0.41371129999970435,wrong,,351.08532619999824,351.9255207999995,349.8631577999986,,,,,,,,,,,,7,B,2023-12-07_14h13.13.024,gca_discrimination,2022.2.4,143.90290583000325,
positions.xlsx,stimuli.xlsx,test.xlsx,stimuli/Social2.png,stimuli/Social1.png,stimuli/Nonsocial1.png,stimuli/Nonsocial2.png,stimuli/Test1.png,stimuli/Test2.png,"(-0.7, 0.5)",cs_minus_ns,"(-0.7, -0.5)",cs_plus_ns,0,0,0,0,,,,,0,87,87,36,,,,,,,,,,,,,,,351.9255207999995,352.93245469999965,352.93245469999965,353.0782861000007,353.58519159999923,353.58519159999923,353.7310694000007,ä,0.33668990000296617,correct,,354.07822959999976,355.0018244999992,352.93245469999965,,,,,,,,,,,,7,B,2023-12-07_14h13.13.024,gca_discrimination,2022.2.4,143.90290583000325,
positions.xlsx,stimuli.xlsx,test.xlsx,stimuli/Social2.png,stimuli/Social1.png,stimuli/Nonsocial1.png,stimuli/Nonsocial2.png,stimuli/Test1.png,stimuli/Test2.png,"(-0.7, -0.5)",cs_minus_s,"(-0.7, 0.5)",cs_plus_s,0,0,0,0,,,,,0,88,88,15,,,,,,,,,,,,,,,355.0018244999992,356.0087620000013,356.0087620000013,356.15452599999844,356.6614961000014,356.6614961000014,356.80732029999854,ä,0.3640381000004709,correct,,357.1823140999986,357.418409599999,356.0087620000013,,,,,,,,,,,,7,B,2023-12-07_14h13.13.024,gca_discrimination,2022.2.4,143.90290583000325,
positions.xlsx,stimuli.xlsx,test.xlsx,stimuli/Social2.png,stimuli/Social1.png,stimuli/Nonsocial1.png,stimuli/Nonsocial2.png,stimuli/Test1.png,stimuli/Test2.png,"(0.7, -0.5)",cs_minus_s,"(0.7, 0.5)",cs_plus_s,0,0,0,0,,,,,0,89,89,23,,,,,,,,,,,,,,,357.418409599999,358.4253005999999,358.4253005999999,358.57112570000027,359.07803910000075,359.07803910000075,359.22388090000095,ä,0.48326000000088243,correct,,359.71692110000004,360.06411880000087,358.4253005999999,,,,,,,,,,,,7,B,2023-12-07_14h13.13.024,gca_discrimination,2022.2.4,143.90290583000325,
positions.xlsx,stimuli.xlsx,test.xlsx,stimuli/Social2.png,stimuli/Social1.png,stimuli/Nonsocial1.png,stimuli/Nonsocial2.png,stimuli/Test1.png,stimuli/Test2.png,"(0.7, 0.5)",cs_minus_s,"(-0.7, 0.5)",cs_minus_s,0,0,0,0,,,,,0,90,90,66,,,,,,,,,,,,,,,360.06411880000087,361.07103749999806,361.07103749999806,361.2168777000006,361.72375889999967,361.72375889999967,361.869606799999,l,0.5094786000008753,correct,,362.3904083999987,362.8140089999979,361.07103749999806,,,,,,,,,,,,7,B,2023-12-07_14h13.13.024,gca_discrimination,2022.2.4,143.90290583000325,
positions.xlsx,stimuli.xlsx,test.xlsx,stimuli/Social2.png,stimuli/Social1.png,stimuli/Nonsocial1.png,stimuli/Nonsocial2.png,stimuli/Test1.png,stimuli/Test2.png,"(0.7, -0.5)",cs_minus_s,"(0.7, 0.5)",cs_minus_s,0,0,0,0,,,,,0,91,91,71,,,,,,,,,,,,,,,362.8140089999979,363.8209390999982,363.8209390999982,363.9668074000001,364.47366839999813,364.47366839999813,364.619513499998,l,0.4961695000019972,correct,,365.1264693000012,366.04306279999946,363.8209390999982,,,,,,,,,,,,7,B,2023-12-07_14h13.13.024,gca_discrimination,2022.2.4,143.90290583000325,
positions.xlsx,stimuli.xlsx,test.xlsx,stimuli/Social2.png,stimuli/Social1.png,stimuli/Nonsocial1.png,stimuli/Nonsocial2.png,stimuli/Test1.png,stimuli/Test2.png,"(0.7, -0.5)",cs_minus_ns,"(-0.7, -0.5)",cs_plus_ns,0,0,0,0,,,,,0,92,92,46,,,,,,,,,,,,,,,366.04306279999946,367.0499923999996,367.0499923999996,367.1957895000014,367.70277169999827,367.70277169999827,367.84856070000023,ä,0.5867471000019577,correct,,368.4457466999993,368.69574250000005,367.0499923999996,,,,,,,,,,,,7,B,2023-12-07_14h13.13.024,gca_discrimination,2022.2.4,143.90290583000325,
positions.xlsx,stimuli.xlsx,test.xlsx,stimuli/Social2.png,stimuli/Social1.png,stimuli/Nonsocial1.png,stimuli/Nonsocial2.png,stimuli/Test1.png,stimuli/Test2.png,"(-0.7, 0.5)",cs_minus_ns,"(0.7, 0.5)",cs_plus_ns,0,0,0,0,,,,,0,93,93,37,,,,,,,,,,,,,,,368.69574250000005,369.7026383000011,369.7026383000011,369.8484783999993,370.3554077000008,370.3554077000008,370.50126499999897,ä,0.4387999000027776,correct,,370.9525939999985,371.59840450000047,369.7026383000011,,,,,,,,,,,,7,B,2023-12-07_14h13.13.024,gca_discrimination,2022.2.4,143.90290583000325,
positions.xlsx,stimuli.xlsx,test.xlsx,stimuli/Social2.png,stimuli/Social1.png,stimuli/Nonsocial1.png,stimuli/Nonsocial2.png,stimuli/Test1.png,stimuli/Test2.png,"(-0.7, -0.5)",cs_plus_s,"(-0.7, 0.5)",cs_plus_s,0,0,0,0,,,,,0,94,94,51,,,,,,,,,,,,,,,371.59840450000047,372.605306999998,372.605306999998,372.75113489999785,373.25809949999893,373.25809949999893,373.40387310000006,l,0.7363551000016741,correct,,374.14689019999787,374.8274109999984,372.605306999998,,,,,,,,,,,,7,B,2023-12-07_14h13.13.024,gca_discrimination,2022.2.4,143.90290583000325,
positions.xlsx,stimuli.xlsx,test.xlsx,stimuli/Social2.png,stimuli/Social1.png,stimuli/Nonsocial1.png,stimuli/Nonsocial2.png,stimuli/Test1.png,stimuli/Test2.png,"(0.7, 0.5)",cs_plus_s,"(-0.7, 0.5)",cs_minus_s,0,0,0,0,,,,,0,95,95,6,,,,,,,,,,,,,,,374.8274109999984,375.83432719999837,375.83432719999837,375.9802000999989,376.48712199999864,376.48712199999864,376.6329044000013,ä,0.4421052000034251,correct,,377.0842929999999,377.43151130000115,375.83432719999837,,,,,,,,,,,,7,B,2023-12-07_14h13.13.024,gca_discrimination,2022.2.4,143.90290583000325,
