posFile,stimFile,testFile,cs_plus_s,cs_minus_s,cs_plus_ns,cs_minus_ns,test1,test2,position1,trialtype,position2,comptype,blocks.thisRepN,blocks.thisTrialN,blocks.thisN,blocks.thisIndex,learning_trials.thisRepN,learning_trials.thisTrialN,learning_trials.thisN,learning_trials.thisIndex,trials.thisRepN,trials.thisTrialN,trials.thisN,trials.thisIndex,textStart.started,spaceStart.started,spaceStart.keys,spaceStart.rt,textStartExp.started,textExpImages.started,ImageLearning1.started,ImageLearning2.started,textSpace.started,spaceStartExp.started,spaceStartExp.keys,spaceStartExp.rt,blankScreen.started,blankScreen.stopped,fixcross.started,firstImage.started,fixcrossImage1.started,fixcrossITI.started,secondImage.started,fixcrossImage2.started,key.started,key.keys,key.rt,correctness,feedbackText.started,fixcrossEnd.started,fixcrossEnd.stopped,fixcross.stopped,feedbackText.stopped,textStartTask.started,textTaskImages.started,ImageTask1.started,ImageTask2.started,ImageTask3.started,ImageTask4.started,textTaskSpace.started,spaceStartTask.started,spaceStartTask.keys,spaceStartTask.rt,participant,group,date,expName,psychopyVersion,frameRate,
,,,,,,,,,,,,,,,,,,,,,,,,,26.20932060002815,26.20932060002815,space,2.5958512000506744,,,,,,,,,,,,,,,,,,,,,,,,,,,,,,,,,,,,1,D,2023-12-05_09h11.28.062,gca_discrimination,2022.2.4,144.1345871166867,
positions.xlsx,stimuli.xlsx,test.xlsx,stimuli/Social2.png,stimuli/Social1.png,stimuli/Nonsocial2.png,stimuli/Nonsocial1.png,stimuli/Test1.png,stimuli/Test2.png,"(-0.7, 0.5)",test1,"(0.7, -0.5)",test1,0,0,0,0,0,0,0,5,,,,,,,,,28.827213100041263,28.827213100041263,28.827213100041263,28.827213100041263,28.827213100041263,28.827213100041263,space,16.137463300023228,44.972289200057276,46.81942239997443,46.81942239997443,47.81938140001148,47.81938140001148,47.95133509999141,48.46523239999078,48.46523239999078,48.60408970003482,l,0.3766037999885157,correct,48.99988310004119,50.999789500026964,51.541464300011285,,,,,,,,,,,,,1,D,2023-12-05_09h11.28.062,gca_discrimination,2022.2.4,144.1345871166867,
positions.xlsx,stimuli.xlsx,test.xlsx,stimuli/Social2.png,stimuli/Social1.png,stimuli/Nonsocial2.png,stimuli/Nonsocial1.png,stimuli/Test1.png,stimuli/Test2.png,"(-0.7, -0.5)",test2,"(0.7, 0.5)",test2,0,0,0,0,0,1,1,7,,,,,,,,,,,,,,,,,,,51.541464300011285,52.541424700059,52.541424700059,52.6942031000508,53.19419369997922,53.19419369997922,53.34693060000427,ä,0.5060534999938682,wrong,53.867769700009376,55.867660799995065,56.70097949996125,52.541424700059,,,,,,,,,,,,1,D,2023-12-05_09h11.28.062,gca_discrimination,2022.2.4,144.1345871166867,
positions.xlsx,stimuli.xlsx,test.xlsx,stimuli/Social2.png,stimuli/Social1.png,stimuli/Nonsocial2.png,stimuli/Nonsocial1.png,stimuli/Test1.png,stimuli/Test2.png,"(-0.7, 0.5)",test2,"(0.7, -0.5)",test1,0,0,0,0,0,2,2,12,,,,,,,,,,,,,,,,,,,56.70097949996125,57.70088060002308,57.70088060002308,57.85369779996108,58.35372480005026,58.35372480005026,58.50645240000449,ä,0.5139831999549642,correct,59.02724530000705,61.0271730000386,61.422993600019254,57.70088060002308,61.0271730000386,,,,,,,,,,,1,D,2023-12-05_09h11.28.062,gca_discrimination,2022.2.4,144.1345871166867,
positions.xlsx,stimuli.xlsx,test.xlsx,stimuli/Social2.png,stimuli/Social1.png,stimuli/Nonsocial2.png,stimuli/Nonsocial1.png,stimuli/Test1.png,stimuli/Test2.png,"(-0.7, -0.5)",test1,"(0.7, 0.5)",test2,0,0,0,0,0,3,3,8,,,,,,,,,,,,,,,,,,,61.422993600019254,62.42292969999835,62.42292969999835,62.57573230005801,63.07568540005013,63.07568540005013,63.22848300007172,ä,0.5121699000010267,correct,63.749291599961,65.74921809998341,66.43668639997486,62.42292969999835,65.74921809998341,,,,,,,,,,,1,D,2023-12-05_09h11.28.062,gca_discrimination,2022.2.4,144.1345871166867,
positions.xlsx,stimuli.xlsx,test.xlsx,stimuli/Social2.png,stimuli/Social1.png,stimuli/Nonsocial2.png,stimuli/Nonsocial1.png,stimuli/Test1.png,stimuli/Test2.png,"(0.7, 0.5)",test2,"(-0.7, 0.5)",test1,0,0,0,0,0,4,4,13,,,,,,,,,,,,,,,,,,,66.43668639997486,67.43668120005168,67.43668120005168,67.5894025999587,68.08935040002689,68.08935040002689,68.24222430004738,l,0.47448410000652075,wrong,68.72825549996924,70.72816519998014,71.65174500003923,67.43668120005168,70.72816519998014,,,,,,,,,,,1,D,2023-12-05_09h11.28.062,gca_discrimination,2022.2.4,144.1345871166867,
positions.xlsx,stimuli.xlsx,test.xlsx,stimuli/Social2.png,stimuli/Social1.png,stimuli/Nonsocial2.png,stimuli/Nonsocial1.png,stimuli/Test1.png,stimuli/Test2.png,"(0.7, 0.5)",test2,"(0.7, -0.5)",test1,0,0,0,0,0,5,5,6,,,,,,,,,,,,,,,,,,,71.65174500003923,72.65863930003252,72.65863930003252,72.80446110002231,73.3044676000718,73.3044676000718,73.45720339997206,ä,0.8771033999510109,correct,74.346083200071,76.34597470005974,76.7695516999811,72.65863930003252,76.34597470005974,,,,,,,,,,,1,D,2023-12-05_09h11.28.062,gca_discrimination,2022.2.4,144.1345871166867,
positions.xlsx,stimuli.xlsx,test.xlsx,stimuli/Social2.png,stimuli/Social1.png,stimuli/Nonsocial2.png,stimuli/Nonsocial1.png,stimuli/Test1.png,stimuli/Test2.png,"(-0.7, 0.5)",test2,"(0.7, 0.5)",test1,0,0,0,0,0,6,6,3,,,,,,,,,,,,,,,,,,,76.7695516999811,77.7695579000283,77.7695579000283,77.9223358000163,78.42226789996494,78.42226789996494,78.57506010006182,ä,0.718514500069432,correct,79.3041985000018,81.30413189996034,81.79714539996348,77.7695579000283,81.30413189996034,,,,,,,,,,,1,D,2023-12-05_09h11.28.062,gca_discrimination,2022.2.4,144.1345871166867,
positions.xlsx,stimuli.xlsx,test.xlsx,stimuli/Social2.png,stimuli/Social1.png,stimuli/Nonsocial2.png,stimuli/Nonsocial1.png,stimuli/Test1.png,stimuli/Test2.png,"(0.7, -0.5)",test1,"(0.7, 0.5)",test2,0,0,0,0,0,7,7,0,,,,,,,,,,,,,,,,,,,81.79714539996348,82.79713750001974,82.79713750001974,82.94990949996281,83.44986599998083,83.44986599998083,83.60259699996095,ä,0.5220191000262275,correct,84.13731240003835,86.13726320001297,87.07468059996609,82.79713750001974,86.13726320001297,,,,,,,,,,,1,D,2023-12-05_09h11.28.062,gca_discrimination,2022.2.4,144.1345871166867,
positions.xlsx,stimuli.xlsx,test.xlsx,stimuli/Social2.png,stimuli/Social1.png,stimuli/Nonsocial2.png,stimuli/Nonsocial1.png,stimuli/Test1.png,stimuli/Test2.png,"(-0.7, -0.5)",test2,"(-0.7, 0.5)",test2,0,0,0,0,0,8,8,2,,,,,,,,,,,,,,,,,,,87.07468059996609,88.07464200002141,88.07464200002141,88.22741240006872,88.72744789998978,88.72744789998978,88.88019759999588,l,0.5727252999786288,correct,89.4634769000113,91.46339920000173,91.63701890001539,88.07464200002141,91.46339920000173,,,,,,,,,,,1,D,2023-12-05_09h11.28.062,gca_discrimination,2022.2.4,144.1345871166867,
positions.xlsx,stimuli.xlsx,test.xlsx,stimuli/Social2.png,stimuli/Social1.png,stimuli/Nonsocial2.png,stimuli/Nonsocial1.png,stimuli/Test1.png,stimuli/Test2.png,"(0.7, 0.5)",test1,"(0.7, -0.5)",test2,0,0,0,0,0,9,9,11,,,,,,,,,,,,,,,,,,,91.63701890001539,92.63700480002444,92.63700480002444,92.78973079996649,93.2897193999961,93.2897193999961,93.44251079997048,ä,0.5468945000320673,correct,93.99803710007109,95.99800300004426,96.49791849998292,92.63700480002444,95.99800300004426,,,,,,,,,,,1,D,2023-12-05_09h11.28.062,gca_discrimination,2022.2.4,144.1345871166867,
positions.xlsx,stimuli.xlsx,test.xlsx,stimuli/Social2.png,stimuli/Social1.png,stimuli/Nonsocial2.png,stimuli/Nonsocial1.png,stimuli/Test1.png,stimuli/Test2.png,"(0.7, -0.5)",test1,"(0.7, 0.5)",test1,0,0,0,0,0,10,10,10,,,,,,,,,,,,,,,,,,,96.49791849998292,97.49790529999882,97.49790529999882,97.65066479996312,98.15063419996295,98.15063419996295,98.30342630005907,l,0.5013969000428915,correct,98.8172598000383,100.81724000000395,101.62268110003788,97.49790529999882,100.81724000000395,,,,,,,,,,,1,D,2023-12-05_09h11.28.062,gca_discrimination,2022.2.4,144.1345871166867,
positions.xlsx,stimuli.xlsx,test.xlsx,stimuli/Social2.png,stimuli/Social1.png,stimuli/Nonsocial2.png,stimuli/Nonsocial1.png,stimuli/Test1.png,stimuli/Test2.png,"(-0.7, -0.5)",test2,"(0.7, -0.5)",test2,0,0,0,0,0,11,11,9,,,,,,,,,,,,,,,,,,,101.62268110003788,102.62268330005463,102.62268330005463,102.77545059996191,103.27540270006284,103.27540270006284,103.42822070000693,l,0.5686908999923617,correct,104.00455129996408,106.0044840000337,106.75446910003666,102.62268330005463,106.0044840000337,,,,,,,,,,,1,D,2023-12-05_09h11.28.062,gca_discrimination,2022.2.4,144.1345871166867,
positions.xlsx,stimuli.xlsx,test.xlsx,stimuli/Social2.png,stimuli/Social1.png,stimuli/Nonsocial2.png,stimuli/Nonsocial1.png,stimuli/Test1.png,stimuli/Test2.png,"(0.7, -0.5)",test2,"(-0.7, 0.5)",test1,0,0,0,0,0,12,12,4,,,,,,,,,,,,,,,,,,,106.75446910003666,107.75442550005391,107.75442550005391,107.90716970001813,108.40711220004596,108.40711220004596,108.55992550007068,ä,0.6773596999701113,correct,109.2474350000266,111.24729540001135,111.65700700005982,107.75442550005391,111.24729540001135,,,,,,,,,,,1,D,2023-12-05_09h11.28.062,gca_discrimination,2022.2.4,144.1345871166867,
positions.xlsx,stimuli.xlsx,test.xlsx,stimuli/Social2.png,stimuli/Social1.png,stimuli/Nonsocial2.png,stimuli/Nonsocial1.png,stimuli/Test1.png,stimuli/Test2.png,"(-0.7, 0.5)",test2,"(-0.7, -0.5)",test2,0,0,0,0,0,13,13,1,,,,,,,,,,,,,,,,,,,111.65700700005982,112.65699469996616,112.65699469996616,112.80976930004545,113.3097226000391,113.3097226000391,113.46251610002946,l,0.566412000101991,correct,114.03885640006047,116.03876080003101,116.69849360000808,112.65699469996616,116.03876080003101,,,,,,,,,,,1,D,2023-12-05_09h11.28.062,gca_discrimination,2022.2.4,144.1345871166867,
positions.xlsx,stimuli.xlsx,test.xlsx,stimuli/Social2.png,stimuli/Social1.png,stimuli/Nonsocial2.png,stimuli/Nonsocial1.png,stimuli/Test1.png,stimuli/Test2.png,"(-0.7, 0.5)",cs_plus_s,"(0.7, -0.5)",cs_plus_s,0,0,0,0,,,,,0,0,0,50,,,,,,,,,,,,,122.62184250005521,124.23979729996063,124.23979729996063,125.2258911000099,125.2258911000099,125.36478609999176,125.8717217000667,125.8717217000667,126.01751699997112,l,0.5470523999538273,correct,,126.57307789998595,127.37163469998632,,,116.69849360000808,116.69849360000808,116.69849360000808,116.69849360000808,116.69849360000808,116.69849360000808,116.69849360000808,116.69849360000808,space,5.915538900066167,1,D,2023-12-05_09h11.28.062,gca_discrimination,2022.2.4,144.1345871166867,
positions.xlsx,stimuli.xlsx,test.xlsx,stimuli/Social2.png,stimuli/Social1.png,stimuli/Nonsocial2.png,stimuli/Nonsocial1.png,stimuli/Test1.png,stimuli/Test2.png,"(-0.7, 0.5)",cs_plus_s,"(-0.7, -0.5)",cs_minus_s,0,0,0,0,,,,,0,1,1,0,,,,,,,,,,,,,,,127.37163469998632,128.37853950005956,128.37853950005956,128.5244209000375,129.03129379998427,129.03129379998427,129.17710159998387,ä,0.6513611000264063,correct,,129.83681230002549,130.38541330001317,128.37853950005956,,,,,,,,,,,,1,D,2023-12-05_09h11.28.062,gca_discrimination,2022.2.4,144.1345871166867,
positions.xlsx,stimuli.xlsx,test.xlsx,stimuli/Social2.png,stimuli/Social1.png,stimuli/Nonsocial2.png,stimuli/Nonsocial1.png,stimuli/Test1.png,stimuli/Test2.png,"(0.7, 0.5)",cs_minus_s,"(-0.7, -0.5)",cs_plus_s,0,0,0,0,,,,,0,2,2,19,,,,,,,,,,,,,,,130.38541330001317,131.3923098000232,131.3923098000232,131.53812449995894,132.04504520003684,132.04504520003684,132.19085320003796,ä,0.6779167000204325,correct,,132.87836670002434,132.89224399998784,131.3923098000232,,,,,,,,,,,,1,D,2023-12-05_09h11.28.062,gca_discrimination,2022.2.4,144.1345871166867,
positions.xlsx,stimuli.xlsx,test.xlsx,stimuli/Social2.png,stimuli/Social1.png,stimuli/Nonsocial2.png,stimuli/Nonsocial1.png,stimuli/Test1.png,stimuli/Test2.png,"(0.7, -0.5)",cs_plus_ns,"(-0.7, -0.5)",cs_plus_ns,0,0,0,0,,,,,0,3,3,82,,,,,,,,,,,,,,,132.89224399998784,133.8991502999561,133.8991502999561,134.04494769999292,134.55193089996465,134.55193089996465,134.6977474000305,l,0.6110447000246495,correct,,135.31574400002137,135.9893348000478,133.8991502999561,,,,,,,,,,,,1,D,2023-12-05_09h11.28.062,gca_discrimination,2022.2.4,144.1345871166867,
positions.xlsx,stimuli.xlsx,test.xlsx,stimuli/Social2.png,stimuli/Social1.png,stimuli/Nonsocial2.png,stimuli/Nonsocial1.png,stimuli/Test1.png,stimuli/Test2.png,"(0.7, -0.5)",cs_plus_s,"(-0.7, 0.5)",cs_plus_s,0,0,0,0,,,,,0,4,4,57,,,,,,,,,,,,,,,135.9893348000478,136.99626030004583,136.99626030004583,137.14206810004544,137.64899060002062,137.64899060002062,137.79478850006126,l,0.7067897999659181,correct,,138.5100871999748,138.94061849999707,136.99626030004583,,,,,,,,,,,,1,D,2023-12-05_09h11.28.062,gca_discrimination,2022.2.4,144.1345871166867,
positions.xlsx,stimuli.xlsx,test.xlsx,stimuli/Social2.png,stimuli/Social1.png,stimuli/Nonsocial2.png,stimuli/Nonsocial1.png,stimuli/Test1.png,stimuli/Test2.png,"(0.7, -0.5)",cs_plus_ns,"(-0.7, -0.5)",cs_minus_ns,0,0,0,0,,,,,0,5,5,34,,,,,,,,,,,,,,,138.94061849999707,139.94749609997962,139.94749609997962,140.09332400001585,140.60026209999342,140.60026209999342,140.74610400001984,ä,0.9546111000236124,correct,,141.7113301999634,142.48906329995953,139.94749609997962,,,,,,,,,,,,1,D,2023-12-05_09h11.28.062,gca_discrimination,2022.2.4,144.1345871166867,
positions.xlsx,stimuli.xlsx,test.xlsx,stimuli/Social2.png,stimuli/Social1.png,stimuli/Nonsocial2.png,stimuli/Nonsocial1.png,stimuli/Test1.png,stimuli/Test2.png,"(0.7, -0.5)",cs_plus_s,"(0.7, 0.5)",cs_plus_s,0,0,0,0,,,,,0,6,6,59,,,,,,,,,,,,,,,142.48906329995953,143.49598580005113,143.49598580005113,143.64180450001732,144.1487283000024,144.1487283000024,144.29454290005378,l,0.7262615000363439,correct,,145.03060229995754,145.3916919999756,143.49598580005113,,,,,,,,,,,,1,D,2023-12-05_09h11.28.062,gca_discrimination,2022.2.4,144.1345871166867,
positions.xlsx,stimuli.xlsx,test.xlsx,stimuli/Social2.png,stimuli/Social1.png,stimuli/Nonsocial2.png,stimuli/Nonsocial1.png,stimuli/Test1.png,stimuli/Test2.png,"(0.7, 0.5)",cs_plus_s,"(-0.7, 0.5)",cs_plus_s,0,0,0,0,,,,,0,7,7,54,,,,,,,,,,,,,,,145.3916919999756,146.39860129996669,146.39860129996669,146.54446520004421,147.05137999996077,147.05137999996077,147.19721630006097,l,0.46392170002218336,correct,,147.669407300069,148.2873981000157,146.39860129996669,,,,,,,,,,,,1,D,2023-12-05_09h11.28.062,gca_discrimination,2022.2.4,144.1345871166867,
positions.xlsx,stimuli.xlsx,test.xlsx,stimuli/Social2.png,stimuli/Social1.png,stimuli/Nonsocial2.png,stimuli/Nonsocial1.png,stimuli/Test1.png,stimuli/Test2.png,"(-0.7, 0.5)",cs_minus_s,"(-0.7, -0.5)",cs_minus_s,0,0,0,0,,,,,0,8,8,60,,,,,,,,,,,,,,,148.2873981000157,149.2943466999568,149.2943466999568,149.4401799000334,149.94711339997593,149.94711339997593,150.09290479996707,l,0.4157740999944508,correct,,150.51649549999274,151.03729560005013,149.2943466999568,,,,,,,,,,,,1,D,2023-12-05_09h11.28.062,gca_discrimination,2022.2.4,144.1345871166867,
positions.xlsx,stimuli.xlsx,test.xlsx,stimuli/Social2.png,stimuli/Social1.png,stimuli/Nonsocial2.png,stimuli/Nonsocial1.png,stimuli/Test1.png,stimuli/Test2.png,"(-0.7, 0.5)",cs_minus_ns,"(-0.7, -0.5)",cs_minus_ns,0,0,0,0,,,,,0,9,9,84,,,,,,,,,,,,,,,151.03729560005013,152.04418740002438,152.04418740002438,152.19006559997797,152.69695909996517,152.69695909996517,152.84280029998627,l,0.4259858999866992,correct,,153.28027610003483,153.690014300053,152.04418740002438,,,,,,,,,,,,1,D,2023-12-05_09h11.28.062,gca_discrimination,2022.2.4,144.1345871166867,
positions.xlsx,stimuli.xlsx,test.xlsx,stimuli/Social2.png,stimuli/Social1.png,stimuli/Nonsocial2.png,stimuli/Nonsocial1.png,stimuli/Test1.png,stimuli/Test2.png,"(0.7, 0.5)",cs_plus_s,"(0.7, -0.5)",cs_minus_s,0,0,0,0,,,,,0,10,10,8,,,,,,,,,,,,,,,153.690014300053,154.6968920000363,154.6968920000363,154.84272499999497,155.34964440006297,155.34964440006297,155.49546830006875,ä,0.8698622999945655,correct,,156.37739180005156,157.27321040001698,154.6968920000363,,,,,,,,,,,,1,D,2023-12-05_09h11.28.062,gca_discrimination,2022.2.4,144.1345871166867,
positions.xlsx,stimuli.xlsx,test.xlsx,stimuli/Social2.png,stimuli/Social1.png,stimuli/Nonsocial2.png,stimuli/Nonsocial1.png,stimuli/Test1.png,stimuli/Test2.png,"(-0.7, -0.5)",cs_minus_ns,"(-0.7, 0.5)",cs_plus_ns,0,0,0,0,,,,,0,11,11,39,,,,,,,,,,,,,,,157.27321040001698,158.28006420005113,158.28006420005113,158.42589569999836,158.9328300000634,158.9328300000634,159.07862260006368,ä,1.030025799991563,correct,,160.1202669000486,160.55777159996796,158.28006420005113,,,,,,,,,,,,1,D,2023-12-05_09h11.28.062,gca_discrimination,2022.2.4,144.1345871166867,
positions.xlsx,stimuli.xlsx,test.xlsx,stimuli/Social2.png,stimuli/Social1.png,stimuli/Nonsocial2.png,stimuli/Nonsocial1.png,stimuli/Test1.png,stimuli/Test2.png,"(-0.7, 0.5)",cs_minus_s,"(0.7, 0.5)",cs_minus_s,0,0,0,0,,,,,0,12,12,61,,,,,,,,,,,,,,,160.55777159996796,161.5646543999901,161.5646543999901,161.7104951000074,162.21741300006397,162.21741300006397,162.36323809996247,l,0.5133870999561623,correct,,162.88404809997883,163.45347800001036,161.5646543999901,,,,,,,,,,,,1,D,2023-12-05_09h11.28.062,gca_discrimination,2022.2.4,144.1345871166867,
positions.xlsx,stimuli.xlsx,test.xlsx,stimuli/Social2.png,stimuli/Social1.png,stimuli/Nonsocial2.png,stimuli/Nonsocial1.png,stimuli/Test1.png,stimuli/Test2.png,"(-0.7, 0.5)",cs_plus_ns,"(-0.7, -0.5)",cs_minus_ns,0,0,0,0,,,,,0,13,13,24,,,,,,,,,,,,,,,163.45347800001036,164.46040490001906,164.46040490001906,164.60619640001096,165.1131718000397,165.1131718000397,165.25894299999345,ä,0.5535660999594256,correct,,165.82143650006037,166.59222550003324,164.46040490001906,,,,,,,,,,,,1,D,2023-12-05_09h11.28.062,gca_discrimination,2022.2.4,144.1345871166867,
positions.xlsx,stimuli.xlsx,test.xlsx,stimuli/Social2.png,stimuli/Social1.png,stimuli/Nonsocial2.png,stimuli/Nonsocial1.png,stimuli/Test1.png,stimuli/Test2.png,"(0.7, -0.5)",cs_plus_ns,"(0.7, 0.5)",cs_minus_ns,0,0,0,0,,,,,0,14,14,35,,,,,,,,,,,,,,,166.59222550003324,167.599163100007,167.599163100007,167.74495890003163,168.25188420002814,168.25188420002814,168.39770129998215,ä,0.8481951999710873,correct,,169.25876370002516,170.22406150004826,167.599163100007,,,,,,,,,,,,1,D,2023-12-05_09h11.28.062,gca_discrimination,2022.2.4,144.1345871166867,
positions.xlsx,stimuli.xlsx,test.xlsx,stimuli/Social2.png,stimuli/Social1.png,stimuli/Nonsocial2.png,stimuli/Nonsocial1.png,stimuli/Test1.png,stimuli/Test2.png,"(-0.7, 0.5)",cs_minus_ns,"(0.7, 0.5)",cs_minus_ns,0,0,0,0,,,,,0,15,15,85,,,,,,,,,,,,,,,170.22406150004826,171.23092600004748,171.23092600004748,171.37675840000156,171.88372210005764,171.88372210005764,172.02948100003414,l,0.5514083000598475,correct,,172.59193860006053,172.93917969998438,171.23092600004748,,,,,,,,,,,,1,D,2023-12-05_09h11.28.062,gca_discrimination,2022.2.4,144.1345871166867,
positions.xlsx,stimuli.xlsx,test.xlsx,stimuli/Social2.png,stimuli/Social1.png,stimuli/Nonsocial2.png,stimuli/Nonsocial1.png,stimuli/Test1.png,stimuli/Test2.png,"(-0.7, -0.5)",cs_minus_ns,"(-0.7, 0.5)",cs_minus_ns,0,0,0,0,,,,,0,16,16,87,,,,,,,,,,,,,,,172.93917969998438,173.9461051999824,173.9461051999824,174.09193690004759,174.59883979998995,174.59883979998995,174.7446710000513,l,0.36444540007505566,correct,,175.11963189998642,175.81406440003775,173.9461051999824,,,,,,,,,,,,1,D,2023-12-05_09h11.28.062,gca_discrimination,2022.2.4,144.1345871166867,
positions.xlsx,stimuli.xlsx,test.xlsx,stimuli/Social2.png,stimuli/Social1.png,stimuli/Nonsocial2.png,stimuli/Nonsocial1.png,stimuli/Test1.png,stimuli/Test2.png,"(0.7, -0.5)",cs_plus_s,"(-0.7, -0.5)",cs_minus_s,0,0,0,0,,,,,0,17,17,10,,,,,,,,,,,,,,,175.81406440003775,176.8209593000356,176.8209593000356,176.96679960004985,177.47373059997335,177.47373059997335,177.61954480002169,ä,0.7932399999117479,correct,,178.42504810006358,178.6889238000149,176.8209593000356,,,,,,,,,,,,1,D,2023-12-05_09h11.28.062,gca_discrimination,2022.2.4,144.1345871166867,
positions.xlsx,stimuli.xlsx,test.xlsx,stimuli/Social2.png,stimuli/Social1.png,stimuli/Nonsocial2.png,stimuli/Nonsocial1.png,stimuli/Test1.png,stimuli/Test2.png,"(0.7, 0.5)",cs_plus_ns,"(-0.7, -0.5)",cs_plus_ns,0,0,0,0,,,,,0,18,18,79,,,,,,,,,,,,,,,178.6889238000149,179.6958481000038,179.6958481000038,179.84167490003165,180.34860440006014,180.34860440006014,180.49446359998547,l,0.4795610000146553,correct,,180.987447099993,181.75132020004094,179.6958481000038,,,,,,,,,,,,1,D,2023-12-05_09h11.28.062,gca_discrimination,2022.2.4,144.1345871166867,
positions.xlsx,stimuli.xlsx,test.xlsx,stimuli/Social2.png,stimuli/Social1.png,stimuli/Nonsocial2.png,stimuli/Nonsocial1.png,stimuli/Test1.png,stimuli/Test2.png,"(0.7, 0.5)",cs_minus_ns,"(-0.7, -0.5)",cs_plus_ns,0,0,0,0,,,,,0,19,19,43,,,,,,,,,,,,,,,181.75132020004094,182.7581716000568,182.7581716000568,182.904029599973,183.41096760006621,183.41096760006621,183.55680550006218,ä,0.5601611000020057,correct,,184.12623170006555,185.01509170001373,182.7581716000568,,,,,,,,,,,,1,D,2023-12-05_09h11.28.062,gca_discrimination,2022.2.4,144.1345871166867,
positions.xlsx,stimuli.xlsx,test.xlsx,stimuli/Social2.png,stimuli/Social1.png,stimuli/Nonsocial2.png,stimuli/Nonsocial1.png,stimuli/Test1.png,stimuli/Test2.png,"(0.7, 0.5)",cs_plus_s,"(0.7, -0.5)",cs_plus_s,0,0,0,0,,,,,0,20,20,56,,,,,,,,,,,,,,,185.01509170001373,186.021977800061,186.021977800061,186.1677688000491,186.67472770006862,186.67472770006862,186.8205767000327,l,0.711972700082697,correct,,187.54274379997514,188.43157769995742,186.021977800061,,,,,,,,,,,,1,D,2023-12-05_09h11.28.062,gca_discrimination,2022.2.4,144.1345871166867,
positions.xlsx,stimuli.xlsx,test.xlsx,stimuli/Social2.png,stimuli/Social1.png,stimuli/Nonsocial2.png,stimuli/Nonsocial1.png,stimuli/Test1.png,stimuli/Test2.png,"(0.7, 0.5)",cs_minus_ns,"(-0.7, 0.5)",cs_minus_ns,0,0,0,0,,,,,0,21,21,90,,,,,,,,,,,,,,,188.43157769995742,189.43853679997846,189.43853679997846,189.58432939997874,190.0912660000613,190.0912660000613,190.2370702000335,l,0.4954649000428617,correct,,190.74399280000944,191.4176191999577,189.43853679997846,,,,,,,,,,,,1,D,2023-12-05_09h11.28.062,gca_discrimination,2022.2.4,144.1345871166867,
positions.xlsx,stimuli.xlsx,test.xlsx,stimuli/Social2.png,stimuli/Social1.png,stimuli/Nonsocial2.png,stimuli/Nonsocial1.png,stimuli/Test1.png,stimuli/Test2.png,"(0.7, -0.5)",cs_plus_s,"(-0.7, 0.5)",cs_minus_s,0,0,0,0,,,,,0,22,22,9,,,,,,,,,,,,,,,191.4176191999577,192.42447119997814,192.42447119997814,192.57032239995897,193.07721390004735,193.07721390004735,193.22303440002725,ä,0.5100596999982372,correct,,193.7438518999843,194.48687909997534,192.42447119997814,,,,,,,,,,,,1,D,2023-12-05_09h11.28.062,gca_discrimination,2022.2.4,144.1345871166867,
positions.xlsx,stimuli.xlsx,test.xlsx,stimuli/Social2.png,stimuli/Social1.png,stimuli/Nonsocial2.png,stimuli/Nonsocial1.png,stimuli/Test1.png,stimuli/Test2.png,"(0.7, -0.5)",cs_minus_s,"(-0.7, -0.5)",cs_plus_s,0,0,0,0,,,,,0,23,23,22,,,,,,,,,,,,,,,194.48687909997534,195.4938113000244,195.4938113000244,195.63963160000276,196.1465702999849,196.1465702999849,196.2923421000596,ä,0.5043443000176921,correct,,196.80624179996084,197.80618199997116,195.4938113000244,,,,,,,,,,,,1,D,2023-12-05_09h11.28.062,gca_discrimination,2022.2.4,144.1345871166867,
positions.xlsx,stimuli.xlsx,test.xlsx,stimuli/Social2.png,stimuli/Social1.png,stimuli/Nonsocial2.png,stimuli/Nonsocial1.png,stimuli/Test1.png,stimuli/Test2.png,"(0.7, 0.5)",cs_minus_s,"(0.7, -0.5)",cs_plus_s,0,0,0,0,,,,,0,24,24,20,,,,,,,,,,,,,,,197.80618199997116,198.81311490002554,198.81311490002554,198.95895140001085,199.46582320006564,199.46582320006564,199.61168870003894,ä,0.6496363000478595,correct,,200.27141320006922,200.68801260006148,198.81311490002554,,,,,,,,,,,,1,D,2023-12-05_09h11.28.062,gca_discrimination,2022.2.4,144.1345871166867,
positions.xlsx,stimuli.xlsx,test.xlsx,stimuli/Social2.png,stimuli/Social1.png,stimuli/Nonsocial2.png,stimuli/Nonsocial1.png,stimuli/Test1.png,stimuli/Test2.png,"(0.7, -0.5)",cs_minus_ns,"(-0.7, 0.5)",cs_plus_ns,0,0,0,0,,,,,0,25,25,45,,,,,,,,,,,,,,,200.68801260006148,201.69497609999962,201.69497609999962,201.8408223000588,202.34770150005352,202.34770150005352,202.49351080006454,ä,0.4469066000310704,correct,,202.95184370002244,203.49347700004,201.69497609999962,,,,,,,,,,,,1,D,2023-12-05_09h11.28.062,gca_discrimination,2022.2.4,144.1345871166867,
positions.xlsx,stimuli.xlsx,test.xlsx,stimuli/Social2.png,stimuli/Social1.png,stimuli/Nonsocial2.png,stimuli/Nonsocial1.png,stimuli/Test1.png,stimuli/Test2.png,"(-0.7, 0.5)",cs_plus_ns,"(0.7, 0.5)",cs_plus_ns,0,0,0,0,,,,,0,26,26,73,,,,,,,,,,,,,,,203.49347700004,204.50039050006308,204.50039050006308,204.64619730005506,205.1531515000388,205.1531515000388,205.2989404000109,l,0.5058580000186339,correct,,205.8128281000536,206.74333049997222,204.50039050006308,,,,,,,,,,,,1,D,2023-12-05_09h11.28.062,gca_discrimination,2022.2.4,144.1345871166867,
positions.xlsx,stimuli.xlsx,test.xlsx,stimuli/Social2.png,stimuli/Social1.png,stimuli/Nonsocial2.png,stimuli/Nonsocial1.png,stimuli/Test1.png,stimuli/Test2.png,"(-0.7, -0.5)",cs_plus_s,"(-0.7, 0.5)",cs_plus_s,0,0,0,0,,,,,0,27,27,51,,,,,,,,,,,,,,,206.74333049997222,207.75024459999986,207.75024459999986,207.8960825999966,208.40301060001366,208.40301060001366,208.548849600018,l,0.608078800025396,correct,,209.16683780006133,209.2640595000703,207.75024459999986,,,,,,,,,,,,1,D,2023-12-05_09h11.28.062,gca_discrimination,2022.2.4,144.1345871166867,
positions.xlsx,stimuli.xlsx,test.xlsx,stimuli/Social2.png,stimuli/Social1.png,stimuli/Nonsocial2.png,stimuli/Nonsocial1.png,stimuli/Test1.png,stimuli/Test2.png,"(0.7, 0.5)",cs_minus_s,"(0.7, -0.5)",cs_minus_s,0,0,0,0,,,,,0,28,28,68,,,,,,,,,,,,,,,209.2640595000703,210.27105780004058,210.27105780004058,210.4167979999911,210.92369059997145,210.92369059997145,211.0695300999796,l,0.5666355999419466,correct,,211.64589360007085,211.99314639996737,210.27105780004058,,,,,,,,,,,,1,D,2023-12-05_09h11.28.062,gca_discrimination,2022.2.4,144.1345871166867,
positions.xlsx,stimuli.xlsx,test.xlsx,stimuli/Social2.png,stimuli/Social1.png,stimuli/Nonsocial2.png,stimuli/Nonsocial1.png,stimuli/Test1.png,stimuli/Test2.png,"(0.7, 0.5)",cs_plus_s,"(-0.7, -0.5)",cs_plus_s,0,0,0,0,,,,,0,29,29,55,,,,,,,,,,,,,,,211.99314639996737,213.00004870002158,213.00004870002158,213.14586689998396,213.65277310006786,213.65277310006786,213.7986122999573,l,0.551037700031884,correct,,214.3610548999859,214.8263482999755,213.00004870002158,,,,,,,,,,,,1,D,2023-12-05_09h11.28.062,gca_discrimination,2022.2.4,144.1345871166867,
positions.xlsx,stimuli.xlsx,test.xlsx,stimuli/Social2.png,stimuli/Social1.png,stimuli/Nonsocial2.png,stimuli/Nonsocial1.png,stimuli/Test1.png,stimuli/Test2.png,"(0.7, -0.5)",cs_plus_ns,"(0.7, 0.5)",cs_plus_ns,0,0,0,0,,,,,0,30,30,83,,,,,,,,,,,,,,,214.8263482999755,215.8332575999666,215.8332575999666,215.979067999986,216.48595440003555,216.48595440003555,216.63180750003085,l,0.4851966000860557,correct,,217.1248704000609,217.59705139999278,215.8332575999666,,,,,,,,,,,,1,D,2023-12-05_09h11.28.062,gca_discrimination,2022.2.4,144.1345871166867,
positions.xlsx,stimuli.xlsx,test.xlsx,stimuli/Social2.png,stimuli/Social1.png,stimuli/Nonsocial2.png,stimuli/Nonsocial1.png,stimuli/Test1.png,stimuli/Test2.png,"(0.7, -0.5)",cs_plus_s,"(0.7, 0.5)",cs_minus_s,0,0,0,0,,,,,0,31,31,11,,,,,,,,,,,,,,,217.59705139999278,218.6039865000639,218.6039865000639,218.74979360005818,219.25671089999378,219.25671089999378,219.40253149997443,ä,0.5074920000042766,correct,,219.92333180003334,220.83305390004534,218.6039865000639,,,,,,,,,,,,1,D,2023-12-05_09h11.28.062,gca_discrimination,2022.2.4,144.1345871166867,
positions.xlsx,stimuli.xlsx,test.xlsx,stimuli/Social2.png,stimuli/Social1.png,stimuli/Nonsocial2.png,stimuli/Nonsocial1.png,stimuli/Test1.png,stimuli/Test2.png,"(0.7, -0.5)",cs_minus_ns,"(-0.7, -0.5)",cs_minus_ns,0,0,0,0,,,,,0,32,32,94,,,,,,,,,,,,,,,220.83305390004534,221.83993809996173,221.83993809996173,221.98573620000388,222.49273629998788,222.49273629998788,222.6385145999957,l,0.41388030000962317,correct,,223.0621272000717,223.569056599983,221.83993809996173,,,,,,,,,,,,1,D,2023-12-05_09h11.28.062,gca_discrimination,2022.2.4,144.1345871166867,
positions.xlsx,stimuli.xlsx,test.xlsx,stimuli/Social2.png,stimuli/Social1.png,stimuli/Nonsocial2.png,stimuli/Nonsocial1.png,stimuli/Test1.png,stimuli/Test2.png,"(0.7, 0.5)",cs_minus_ns,"(0.7, -0.5)",cs_plus_ns,0,0,0,0,,,,,0,33,33,44,,,,,,,,,,,,,,,223.569056599983,224.57593319995794,224.57593319995794,224.72173230000772,225.22868790000211,225.22868790000211,225.37449039996136,ä,0.47858320001978427,correct,,225.86061019997578,226.63832809997257,224.57593319995794,,,,,,,,,,,,1,D,2023-12-05_09h11.28.062,gca_discrimination,2022.2.4,144.1345871166867,
positions.xlsx,stimuli.xlsx,test.xlsx,stimuli/Social2.png,stimuli/Social1.png,stimuli/Nonsocial2.png,stimuli/Nonsocial1.png,stimuli/Test1.png,stimuli/Test2.png,"(0.7, -0.5)",cs_minus_ns,"(0.7, 0.5)",cs_plus_ns,0,0,0,0,,,,,0,34,34,47,,,,,,,,,,,,,,,226.63832809997257,227.64526919997297,227.64526919997297,227.79106469999533,228.29803559998982,228.29803559998982,228.44383410003502,ä,0.4734873999841511,correct,,228.92992430005688,229.69376880000345,227.64526919997297,,,,,,,,,,,,1,D,2023-12-05_09h11.28.062,gca_discrimination,2022.2.4,144.1345871166867,
positions.xlsx,stimuli.xlsx,test.xlsx,stimuli/Social2.png,stimuli/Social1.png,stimuli/Nonsocial2.png,stimuli/Nonsocial1.png,stimuli/Test1.png,stimuli/Test2.png,"(-0.7, -0.5)",cs_plus_s,"(0.7, -0.5)",cs_plus_s,0,0,0,0,,,,,0,35,35,53,,,,,,,,,,,,,,,229.69376880000345,230.70069800002966,230.70069800002966,230.8465031000087,231.35343380004633,231.35343380004633,231.49928830005229,l,0.5697380000492558,correct,,232.08255789999384,233.01309220003895,230.70069800002966,,,,,,,,,,,,1,D,2023-12-05_09h11.28.062,gca_discrimination,2022.2.4,144.1345871166867,
positions.xlsx,stimuli.xlsx,test.xlsx,stimuli/Social2.png,stimuli/Social1.png,stimuli/Nonsocial2.png,stimuli/Nonsocial1.png,stimuli/Test1.png,stimuli/Test2.png,"(0.7, 0.5)",cs_plus_ns,"(-0.7, 0.5)",cs_plus_ns,0,0,0,0,,,,,0,36,36,78,,,,,,,,,,,,,,,233.01309220003895,234.0200103999814,234.0200103999814,234.16579920006916,234.67275789997075,234.67275789997075,234.81857020000461,l,0.4342839999590069,correct,,235.26302079996094,235.52687529998366,234.0200103999814,,,,,,,,,,,,1,D,2023-12-05_09h11.28.062,gca_discrimination,2022.2.4,144.1345871166867,
positions.xlsx,stimuli.xlsx,test.xlsx,stimuli/Social2.png,stimuli/Social1.png,stimuli/Nonsocial2.png,stimuli/Nonsocial1.png,stimuli/Test1.png,stimuli/Test2.png,"(-0.7, 0.5)",cs_minus_ns,"(-0.7, -0.5)",cs_plus_ns,0,0,0,0,,,,,0,37,37,36,,,,,,,,,,,,,,,235.52687529998366,236.5338170999894,236.5338170999894,236.67960579995997,237.18653669999912,237.18653669999912,237.33235350006726,ä,0.48117639997508377,correct,,237.82536220003385,238.76285669999197,236.5338170999894,,,,,,,,,,,,1,D,2023-12-05_09h11.28.062,gca_discrimination,2022.2.4,144.1345871166867,
positions.xlsx,stimuli.xlsx,test.xlsx,stimuli/Social2.png,stimuli/Social1.png,stimuli/Nonsocial2.png,stimuli/Nonsocial1.png,stimuli/Test1.png,stimuli/Test2.png,"(-0.7, -0.5)",cs_plus_ns,"(-0.7, 0.5)",cs_minus_ns,0,0,0,0,,,,,0,38,38,27,,,,,,,,,,,,,,,238.76285669999197,239.76974660006817,239.76974660006817,239.91559630003758,240.4225150999846,240.4225150999846,240.56835660000797,ä,0.4846776999766007,correct,,241.06137160002254,241.81136369996238,239.76974660006817,,,,,,,,,,,,1,D,2023-12-05_09h11.28.062,gca_discrimination,2022.2.4,144.1345871166867,
positions.xlsx,stimuli.xlsx,test.xlsx,stimuli/Social2.png,stimuli/Social1.png,stimuli/Nonsocial2.png,stimuli/Nonsocial1.png,stimuli/Test1.png,stimuli/Test2.png,"(0.7, -0.5)",cs_minus_s,"(-0.7, 0.5)",cs_plus_s,0,0,0,0,,,,,0,39,39,21,,,,,,,,,,,,,,,241.81136369996238,242.81825829995796,242.81825829995796,242.96407139999792,243.4709412000375,243.4709412000375,243.61683479999192,ä,0.4439843000145629,correct,,244.06820760003757,244.24874640000053,242.81825829995796,,,,,,,,,,,,1,D,2023-12-05_09h11.28.062,gca_discrimination,2022.2.4,144.1345871166867,
positions.xlsx,stimuli.xlsx,test.xlsx,stimuli/Social2.png,stimuli/Social1.png,stimuli/Nonsocial2.png,stimuli/Nonsocial1.png,stimuli/Test1.png,stimuli/Test2.png,"(-0.7, -0.5)",cs_plus_ns,"(0.7, -0.5)",cs_minus_ns,0,0,0,0,,,,,0,40,40,29,,,,,,,,,,,,,,,244.24874640000053,245.25564660003874,245.25564660003874,245.40147360006813,245.9083985000616,245.9083985000616,246.05422559997533,l,0.389967399998568,wrong,,246.4569821000332,246.72777890006546,245.25564660003874,,,,,,,,,,,,1,D,2023-12-05_09h11.28.062,gca_discrimination,2022.2.4,144.1345871166867,
positions.xlsx,stimuli.xlsx,test.xlsx,stimuli/Social2.png,stimuli/Social1.png,stimuli/Nonsocial2.png,stimuli/Nonsocial1.png,stimuli/Test1.png,stimuli/Test2.png,"(0.7, -0.5)",cs_minus_s,"(-0.7, 0.5)",cs_minus_s,0,0,0,0,,,,,0,41,41,69,,,,,,,,,,,,,,,246.72777890006546,247.73470759997144,247.73470759997144,247.88052010000683,248.38750389998313,248.38750389998313,248.53327829996124,l,0.5431066999444738,correct,,249.08881910005584,249.1443742000265,247.73470759997144,,,,,,,,,,,,1,D,2023-12-05_09h11.28.062,gca_discrimination,2022.2.4,144.1345871166867,
positions.xlsx,stimuli.xlsx,test.xlsx,stimuli/Social2.png,stimuli/Social1.png,stimuli/Nonsocial2.png,stimuli/Nonsocial1.png,stimuli/Test1.png,stimuli/Test2.png,"(-0.7, -0.5)",cs_plus_s,"(-0.7, 0.5)",cs_minus_s,0,0,0,0,,,,,0,42,42,3,,,,,,,,,,,,,,,249.1443742000265,250.1512769999681,250.1512769999681,250.29710560000967,250.80403999995906,250.80403999995906,250.9498759000562,ä,0.5343334000790492,correct,,251.49150100001134,251.99841110000852,250.1512769999681,,,,,,,,,,,,1,D,2023-12-05_09h11.28.062,gca_discrimination,2022.2.4,144.1345871166867,
positions.xlsx,stimuli.xlsx,test.xlsx,stimuli/Social2.png,stimuli/Social1.png,stimuli/Nonsocial2.png,stimuli/Nonsocial1.png,stimuli/Test1.png,stimuli/Test2.png,"(-0.7, 0.5)",cs_plus_ns,"(0.7, -0.5)",cs_minus_ns,0,0,0,0,,,,,0,43,43,26,,,,,,,,,,,,,,,251.99841110000852,253.00535870005842,253.00535870005842,253.1511693999637,253.65808920003474,253.65808920003474,253.80390840000473,ä,0.8489157999865711,correct,,254.66497280006297,255.56074720004108,253.00535870005842,,,,,,,,,,,,1,D,2023-12-05_09h11.28.062,gca_discrimination,2022.2.4,144.1345871166867,
positions.xlsx,stimuli.xlsx,test.xlsx,stimuli/Social2.png,stimuli/Social1.png,stimuli/Nonsocial2.png,stimuli/Nonsocial1.png,stimuli/Test1.png,stimuli/Test2.png,"(-0.7, 0.5)",cs_plus_ns,"(0.7, -0.5)",cs_plus_ns,0,0,0,0,,,,,0,44,44,74,,,,,,,,,,,,,,,255.56074720004108,256.5676561000291,256.5676561000291,256.71351380005945,257.22046129999217,257.22046129999217,257.3662836999865,l,0.5983337999787182,correct,,257.97735409997404,258.90783719997853,256.5676561000291,,,,,,,,,,,,1,D,2023-12-05_09h11.28.062,gca_discrimination,2022.2.4,144.1345871166867,
positions.xlsx,stimuli.xlsx,test.xlsx,stimuli/Social2.png,stimuli/Social1.png,stimuli/Nonsocial2.png,stimuli/Nonsocial1.png,stimuli/Test1.png,stimuli/Test2.png,"(-0.7, 0.5)",cs_plus_ns,"(-0.7, -0.5)",cs_plus_ns,0,0,0,0,,,,,0,45,45,72,,,,,,,,,,,,,,,258.90783719997853,259.9147722000489,259.9147722000489,260.0605924000265,260.56752360006794,260.56752360006794,260.71334350004327,l,0.5551021000137553,correct,,261.2757876999676,262.04659749998245,259.9147722000489,,,,,,,,,,,,1,D,2023-12-05_09h11.28.062,gca_discrimination,2022.2.4,144.1345871166867,
positions.xlsx,stimuli.xlsx,test.xlsx,stimuli/Social2.png,stimuli/Social1.png,stimuli/Nonsocial2.png,stimuli/Nonsocial1.png,stimuli/Test1.png,stimuli/Test2.png,"(0.7, -0.5)",cs_plus_s,"(-0.7, -0.5)",cs_plus_s,0,0,0,0,,,,,0,46,46,58,,,,,,,,,,,,,,,262.04659749998245,263.0535600000294,263.0535600000294,263.19935810007155,263.70627179997973,263.70627179997973,263.8520970999962,l,0.521170899970457,correct,,264.3867941000499,265.1576251999941,263.0535600000294,,,,,,,,,,,,1,D,2023-12-05_09h11.28.062,gca_discrimination,2022.2.4,144.1345871166867,
positions.xlsx,stimuli.xlsx,test.xlsx,stimuli/Social2.png,stimuli/Social1.png,stimuli/Nonsocial2.png,stimuli/Nonsocial1.png,stimuli/Test1.png,stimuli/Test2.png,"(0.7, -0.5)",cs_minus_s,"(-0.7, -0.5)",cs_minus_s,0,0,0,0,,,,,0,47,47,70,,,,,,,,,,,,,,,265.1576251999941,266.16452520003077,266.16452520003077,266.31030740006827,266.8172814999707,266.8172814999707,266.9630289999768,l,0.5859117999207228,correct,,267.56029679998755,267.5672364999773,266.16452520003077,,,,,,,,,,,,1,D,2023-12-05_09h11.28.062,gca_discrimination,2022.2.4,144.1345871166867,
positions.xlsx,stimuli.xlsx,test.xlsx,stimuli/Social2.png,stimuli/Social1.png,stimuli/Nonsocial2.png,stimuli/Nonsocial1.png,stimuli/Test1.png,stimuli/Test2.png,"(-0.7, -0.5)",cs_plus_ns,"(-0.7, 0.5)",cs_plus_ns,0,0,0,0,,,,,0,48,48,75,,,,,,,,,,,,,,,267.5672364999773,268.5741378000239,268.5741378000239,268.71989780000877,269.22687600005884,269.22687600005884,269.37272019998636,l,0.48862419999204576,correct,,269.8726764000021,270.8379191000713,268.5741378000239,,,,,,,,,,,,1,D,2023-12-05_09h11.28.062,gca_discrimination,2022.2.4,144.1345871166867,
positions.xlsx,stimuli.xlsx,test.xlsx,stimuli/Social2.png,stimuli/Social1.png,stimuli/Nonsocial2.png,stimuli/Nonsocial1.png,stimuli/Test1.png,stimuli/Test2.png,"(-0.7, -0.5)",cs_plus_s,"(0.7, 0.5)",cs_minus_s,0,0,0,0,,,,,0,49,49,4,,,,,,,,,,,,,,,270.8379191000713,271.8448716000421,271.8448716000421,271.990675500012,272.49758650001604,272.49758650001604,272.64340130006894,ä,0.489177200011909,correct,,273.1433828000445,273.5600126000354,271.8448716000421,,,,,,,,,,,,1,D,2023-12-05_09h11.28.062,gca_discrimination,2022.2.4,144.1345871166867,
positions.xlsx,stimuli.xlsx,test.xlsx,stimuli/Social2.png,stimuli/Social1.png,stimuli/Nonsocial2.png,stimuli/Nonsocial1.png,stimuli/Test1.png,stimuli/Test2.png,"(-0.7, 0.5)",cs_plus_s,"(-0.7, -0.5)",cs_plus_s,0,0,0,0,,,,,0,50,50,48,,,,,,,,,,,,,,,273.5600126000354,274.56696990004275,274.56696990004275,274.71276430005673,275.21970670006704,275.21970670006704,275.36552660004236,l,0.47117350006010383,correct,,275.844687600038,276.7543245999841,274.56696990004275,,,,,,,,,,,,1,D,2023-12-05_09h11.28.062,gca_discrimination,2022.2.4,144.1345871166867,
positions.xlsx,stimuli.xlsx,test.xlsx,stimuli/Social2.png,stimuli/Social1.png,stimuli/Nonsocial2.png,stimuli/Nonsocial1.png,stimuli/Test1.png,stimuli/Test2.png,"(0.7, 0.5)",cs_minus_ns,"(-0.7, -0.5)",cs_minus_ns,0,0,0,0,,,,,0,51,51,91,,,,,,,,,,,,,,,276.7543245999841,277.7612638999708,277.7612638999708,277.90705759997945,278.4140100000659,278.4140100000659,278.55982279998716,l,0.5728407999267802,correct,,279.14313820004463,279.59451259998605,277.7612638999708,,,,,,,,,,,,1,D,2023-12-05_09h11.28.062,gca_discrimination,2022.2.4,144.1345871166867,
positions.xlsx,stimuli.xlsx,test.xlsx,stimuli/Social2.png,stimuli/Social1.png,stimuli/Nonsocial2.png,stimuli/Nonsocial1.png,stimuli/Test1.png,stimuli/Test2.png,"(-0.7, -0.5)",cs_plus_s,"(0.7, 0.5)",cs_plus_s,0,0,0,0,,,,,0,52,52,52,,,,,,,,,,,,,,,279.59451259998605,280.6014054999687,280.6014054999687,280.7472568000667,281.25413360004313,281.25413360004313,281.4000025000423,l,0.3977314999792725,correct,,281.809765300015,282.3374205,280.6014054999687,,,,,,,,,,,,1,D,2023-12-05_09h11.28.062,gca_discrimination,2022.2.4,144.1345871166867,
positions.xlsx,stimuli.xlsx,test.xlsx,stimuli/Social2.png,stimuli/Social1.png,stimuli/Nonsocial2.png,stimuli/Nonsocial1.png,stimuli/Test1.png,stimuli/Test2.png,"(0.7, -0.5)",cs_minus_ns,"(-0.7, -0.5)",cs_plus_ns,0,0,0,0,,,,,0,53,53,46,,,,,,,,,,,,,,,282.3374205,283.34436900005676,283.34436900005676,283.49017610005103,283.997135899961,283.997135899961,284.14293560001533,ä,0.4611835000105202,correct,,284.61515379999764,285.2401034999639,283.34436900005676,,,,,,,,,,,,1,D,2023-12-05_09h11.28.062,gca_discrimination,2022.2.4,144.1345871166867,
positions.xlsx,stimuli.xlsx,test.xlsx,stimuli/Social2.png,stimuli/Social1.png,stimuli/Nonsocial2.png,stimuli/Nonsocial1.png,stimuli/Test1.png,stimuli/Test2.png,"(0.7, 0.5)",cs_minus_ns,"(0.7, -0.5)",cs_minus_ns,0,0,0,0,,,,,0,54,54,92,,,,,,,,,,,,,,,285.2401034999639,286.24701080005616,286.24701080005616,286.3928196000634,286.89975450001657,286.89975450001657,287.0455706999637,l,0.454820099985227,correct,,287.51082910003606,288.17055689997505,286.24701080005616,,,,,,,,,,,,1,D,2023-12-05_09h11.28.062,gca_discrimination,2022.2.4,144.1345871166867,
positions.xlsx,stimuli.xlsx,test.xlsx,stimuli/Social2.png,stimuli/Social1.png,stimuli/Nonsocial2.png,stimuli/Nonsocial1.png,stimuli/Test1.png,stimuli/Test2.png,"(-0.7, 0.5)",cs_minus_ns,"(0.7, -0.5)",cs_minus_ns,0,0,0,0,,,,,0,55,55,86,,,,,,,,,,,,,,,288.17055689997505,289.1774413000094,289.1774413000094,289.3232585999649,289.83020450000186,289.83020450000186,289.9760411999887,l,0.3655847000190988,correct,,290.35098650003783,290.4482043000171,289.1774413000094,,,,,,,,,,,,1,D,2023-12-05_09h11.28.062,gca_discrimination,2022.2.4,144.1345871166867,
positions.xlsx,stimuli.xlsx,test.xlsx,stimuli/Social2.png,stimuli/Social1.png,stimuli/Nonsocial2.png,stimuli/Nonsocial1.png,stimuli/Test1.png,stimuli/Test2.png,"(0.7, -0.5)",cs_minus_s,"(0.7, 0.5)",cs_plus_s,0,0,0,0,,,,,0,56,56,23,,,,,,,,,,,,,,,290.4482043000171,291.4551301000174,291.4551301000174,291.60095330001786,292.10788719996344,292.10788719996344,292.2536653999705,ä,0.4949586000293493,correct,,292.76069020002615,293.3161684999941,291.4551301000174,,,,,,,,,,,,1,D,2023-12-05_09h11.28.062,gca_discrimination,2022.2.4,144.1345871166867,
positions.xlsx,stimuli.xlsx,test.xlsx,stimuli/Social2.png,stimuli/Social1.png,stimuli/Nonsocial2.png,stimuli/Nonsocial1.png,stimuli/Test1.png,stimuli/Test2.png,"(-0.7, -0.5)",cs_minus_s,"(0.7, 0.5)",cs_minus_s,0,0,0,0,,,,,0,57,57,64,,,,,,,,,,,,,,,293.3161684999941,294.32306109997444,294.32306109997444,294.46891649998724,294.97579010005575,294.97579010005575,295.12161370005924,l,0.4353405999718234,correct,,295.56609199999366,295.68413489998784,294.32306109997444,,,,,,,,,,,,1,D,2023-12-05_09h11.28.062,gca_discrimination,2022.2.4,144.1345871166867,
positions.xlsx,stimuli.xlsx,test.xlsx,stimuli/Social2.png,stimuli/Social1.png,stimuli/Nonsocial2.png,stimuli/Nonsocial1.png,stimuli/Test1.png,stimuli/Test2.png,"(0.7, 0.5)",cs_minus_s,"(-0.7, 0.5)",cs_minus_s,0,0,0,0,,,,,0,58,58,66,,,,,,,,,,,,,,,295.68413489998784,296.691018100013,296.691018100013,296.8368431000272,297.3437286000699,297.3437286000699,297.48960760002956,l,0.3631270000478253,correct,,297.864558900008,298.47566620004363,296.691018100013,,,,,,,,,,,,1,D,2023-12-05_09h11.28.062,gca_discrimination,2022.2.4,144.1345871166867,
positions.xlsx,stimuli.xlsx,test.xlsx,stimuli/Social2.png,stimuli/Social1.png,stimuli/Nonsocial2.png,stimuli/Nonsocial1.png,stimuli/Test1.png,stimuli/Test2.png,"(-0.7, 0.5)",cs_plus_s,"(0.7, -0.5)",cs_minus_s,0,0,0,0,,,,,0,59,59,2,,,,,,,,,,,,,,,298.47566620004363,299.48257670004386,299.48257670004386,299.62840990000404,300.13533339998685,300.13533339998685,300.2811809000559,ä,0.5150556999724358,correct,,300.8089006000664,301.2949939999962,299.48257670004386,,,,,,,,,,,,1,D,2023-12-05_09h11.28.062,gca_discrimination,2022.2.4,144.1345871166867,
positions.xlsx,stimuli.xlsx,test.xlsx,stimuli/Social2.png,stimuli/Social1.png,stimuli/Nonsocial2.png,stimuli/Nonsocial1.png,stimuli/Test1.png,stimuli/Test2.png,"(0.7, 0.5)",cs_plus_s,"(-0.7, -0.5)",cs_minus_s,0,0,0,0,,,,,0,60,60,7,,,,,,,,,,,,,,,301.2949939999962,302.3019033999881,302.3019033999881,302.4477453000145,302.9546496999683,302.9546496999683,303.1004833000479,ä,0.47320220002438873,correct,,303.586552200024,303.8504637000151,302.3019033999881,,,,,,,,,,,,1,D,2023-12-05_09h11.28.062,gca_discrimination,2022.2.4,144.1345871166867,
positions.xlsx,stimuli.xlsx,test.xlsx,stimuli/Social2.png,stimuli/Social1.png,stimuli/Nonsocial2.png,stimuli/Nonsocial1.png,stimuli/Test1.png,stimuli/Test2.png,"(-0.7, -0.5)",cs_minus_s,"(0.7, 0.5)",cs_plus_s,0,0,0,0,,,,,0,61,61,16,,,,,,,,,,,,,,,303.8504637000151,304.857414899976,304.857414899976,305.0031842000317,305.51010389998555,305.51010389998555,305.6559470000211,ä,0.42887629999313504,correct,,306.0934131999966,306.39898719999474,304.857414899976,,,,,,,,,,,,1,D,2023-12-05_09h11.28.062,gca_discrimination,2022.2.4,144.1345871166867,
positions.xlsx,stimuli.xlsx,test.xlsx,stimuli/Social2.png,stimuli/Social1.png,stimuli/Nonsocial2.png,stimuli/Nonsocial1.png,stimuli/Test1.png,stimuli/Test2.png,"(-0.7, 0.5)",cs_minus_s,"(0.7, 0.5)",cs_plus_s,0,0,0,0,,,,,0,62,62,13,,,,,,,,,,,,,,,306.39898719999474,307.4058168999618,307.4058168999618,307.55168200004846,308.05859779997263,308.05859779997263,308.2043984000338,ä,0.5768157000420615,correct,,308.79464850004297,309.07941330003086,307.4058168999618,,,,,,,,,,,,1,D,2023-12-05_09h11.28.062,gca_discrimination,2022.2.4,144.1345871166867,
positions.xlsx,stimuli.xlsx,test.xlsx,stimuli/Social2.png,stimuli/Social1.png,stimuli/Nonsocial2.png,stimuli/Nonsocial1.png,stimuli/Test1.png,stimuli/Test2.png,"(-0.7, -0.5)",cs_plus_s,"(0.7, -0.5)",cs_minus_s,0,0,0,0,,,,,0,63,63,5,,,,,,,,,,,,,,,309.07941330003086,310.0863129000645,310.0863129000645,310.2321076999651,310.739045000053,310.739045000053,310.8848286999855,ä,0.5915960000129417,correct,,311.4889971000375,311.6417295000283,310.0863129000645,,,,,,,,,,,,1,D,2023-12-05_09h11.28.062,gca_discrimination,2022.2.4,144.1345871166867,
positions.xlsx,stimuli.xlsx,test.xlsx,stimuli/Social2.png,stimuli/Social1.png,stimuli/Nonsocial2.png,stimuli/Nonsocial1.png,stimuli/Test1.png,stimuli/Test2.png,"(0.7, -0.5)",cs_minus_ns,"(0.7, 0.5)",cs_minus_ns,0,0,0,0,,,,,0,64,64,95,,,,,,,,,,,,,,,311.6417295000283,312.64869249996264,312.64869249996264,312.79452700004913,313.30144970002584,313.30144970002584,313.4472591000376,l,0.45336310006678104,correct,,313.91252680006437,314.37779800000135,312.64869249996264,,,,,,,,,,,,1,D,2023-12-05_09h11.28.062,gca_discrimination,2022.2.4,144.1345871166867,
positions.xlsx,stimuli.xlsx,test.xlsx,stimuli/Social2.png,stimuli/Social1.png,stimuli/Nonsocial2.png,stimuli/Nonsocial1.png,stimuli/Test1.png,stimuli/Test2.png,"(-0.7, 0.5)",cs_plus_s,"(0.7, 0.5)",cs_plus_s,0,0,0,0,,,,,0,65,65,49,,,,,,,,,,,,,,,314.37779800000135,315.3847065999871,315.3847065999871,315.53051529999357,316.0374972000718,316.0374972000718,316.18327849998605,l,0.6219388999743387,correct,,316.81513350002933,316.8429466000525,315.3847065999871,,,,,,,,,,,,1,D,2023-12-05_09h11.28.062,gca_discrimination,2022.2.4,144.1345871166867,
positions.xlsx,stimuli.xlsx,test.xlsx,stimuli/Social2.png,stimuli/Social1.png,stimuli/Nonsocial2.png,stimuli/Nonsocial1.png,stimuli/Test1.png,stimuli/Test2.png,"(0.7, 0.5)",cs_plus_ns,"(0.7, -0.5)",cs_minus_ns,0,0,0,0,,,,,0,66,66,32,,,,,,,,,,,,,,,316.8429466000525,317.8498438000679,317.8498438000679,317.9956643000478,318.50263959995937,318.50263959995937,318.64843629999086,ä,0.4119740999303758,correct,,319.07203549996484,319.301198799978,317.8498438000679,,,,,,,,,,,,1,D,2023-12-05_09h11.28.062,gca_discrimination,2022.2.4,144.1345871166867,
positions.xlsx,stimuli.xlsx,test.xlsx,stimuli/Social2.png,stimuli/Social1.png,stimuli/Nonsocial2.png,stimuli/Nonsocial1.png,stimuli/Test1.png,stimuli/Test2.png,"(0.7, -0.5)",cs_plus_ns,"(-0.7, 0.5)",cs_plus_ns,0,0,0,0,,,,,0,67,67,81,,,,,,,,,,,,,,,319.301198799978,320.30816670006607,320.30816670006607,320.45392120000906,320.9608440999873,320.9608440999873,321.106659400044,l,0.46557030000258237,correct,,321.5788339000428,321.93995470006485,320.30816670006607,,,,,,,,,,,,1,D,2023-12-05_09h11.28.062,gca_discrimination,2022.2.4,144.1345871166867,
positions.xlsx,stimuli.xlsx,test.xlsx,stimuli/Social2.png,stimuli/Social1.png,stimuli/Nonsocial2.png,stimuli/Nonsocial1.png,stimuli/Test1.png,stimuli/Test2.png,"(0.7, 0.5)",cs_plus_ns,"(-0.7, 0.5)",cs_minus_ns,0,0,0,0,,,,,0,68,68,30,,,,,,,,,,,,,,,321.93995470006485,322.9468770000385,322.9468770000385,323.0927128000185,323.5996302999556,323.5996302999556,323.7454719999805,ä,0.3866771999746561,correct,,324.141237600008,324.870409599971,322.9468770000385,,,,,,,,,,,,1,D,2023-12-05_09h11.28.062,gca_discrimination,2022.2.4,144.1345871166867,
positions.xlsx,stimuli.xlsx,test.xlsx,stimuli/Social2.png,stimuli/Social1.png,stimuli/Nonsocial2.png,stimuli/Nonsocial1.png,stimuli/Test1.png,stimuli/Test2.png,"(-0.7, -0.5)",cs_minus_s,"(-0.7, 0.5)",cs_minus_s,0,0,0,0,,,,,0,69,69,63,,,,,,,,,,,,,,,324.870409599971,325.87731320003513,325.87731320003513,326.02317010005936,326.53008020005655,326.53008020005655,326.67589209997095,l,0.4729710000101477,correct,,327.1619781999616,327.8077985000564,325.87731320003513,,,,,,,,,,,,1,D,2023-12-05_09h11.28.062,gca_discrimination,2022.2.4,144.1345871166867,
positions.xlsx,stimuli.xlsx,test.xlsx,stimuli/Social2.png,stimuli/Social1.png,stimuli/Nonsocial2.png,stimuli/Nonsocial1.png,stimuli/Test1.png,stimuli/Test2.png,"(0.7, 0.5)",cs_minus_ns,"(-0.7, 0.5)",cs_plus_ns,0,0,0,0,,,,,0,70,70,42,,,,,,,,,,,,,,,327.8077985000564,328.8146885000169,328.8146885000169,328.96052830002736,329.46741429995745,329.46741429995745,329.6132360000629,ä,0.5917225000448525,correct,,330.2173474000301,330.6063012999948,328.8146885000169,,,,,,,,,,,,1,D,2023-12-05_09h11.28.062,gca_discrimination,2022.2.4,144.1345871166867,
positions.xlsx,stimuli.xlsx,test.xlsx,stimuli/Social2.png,stimuli/Social1.png,stimuli/Nonsocial2.png,stimuli/Nonsocial1.png,stimuli/Test1.png,stimuli/Test2.png,"(-0.7, -0.5)",cs_plus_ns,"(0.7, -0.5)",cs_plus_ns,0,0,0,0,,,,,0,71,71,77,,,,,,,,,,,,,,,330.6063012999948,331.613192699966,331.613192699966,331.7590267000487,332.2659084000625,332.2659084000625,332.41175760002807,l,0.4486932000145316,correct,,332.87009290000424,333.39087969996035,331.613192699966,,,,,,,,,,,,1,D,2023-12-05_09h11.28.062,gca_discrimination,2022.2.4,144.1345871166867,
positions.xlsx,stimuli.xlsx,test.xlsx,stimuli/Social2.png,stimuli/Social1.png,stimuli/Nonsocial2.png,stimuli/Nonsocial1.png,stimuli/Test1.png,stimuli/Test2.png,"(-0.7, 0.5)",cs_plus_s,"(0.7, 0.5)",cs_minus_s,0,0,0,0,,,,,0,72,72,1,,,,,,,,,,,,,,,333.39087969996035,334.3977292999625,334.3977292999625,334.5435900000157,335.05053540004883,335.05053540004883,335.1963771999581,ä,0.5290291999699548,correct,,335.7380085999612,336.6338052999927,334.3977292999625,,,,,,,,,,,,1,D,2023-12-05_09h11.28.062,gca_discrimination,2022.2.4,144.1345871166867,
positions.xlsx,stimuli.xlsx,test.xlsx,stimuli/Social2.png,stimuli/Social1.png,stimuli/Nonsocial2.png,stimuli/Nonsocial1.png,stimuli/Test1.png,stimuli/Test2.png,"(-0.7, 0.5)",cs_minus_s,"(0.7, -0.5)",cs_minus_s,0,0,0,0,,,,,0,73,73,62,,,,,,,,,,,,,,,336.6338052999927,337.6407409000676,337.6407409000676,337.78661269997247,338.29347110004164,338.29347110004164,338.43931070005056,l,0.5572663000784814,correct,,339.00872899999376,339.217037800001,337.6407409000676,,,,,,,,,,,,1,D,2023-12-05_09h11.28.062,gca_discrimination,2022.2.4,144.1345871166867,
positions.xlsx,stimuli.xlsx,test.xlsx,stimuli/Social2.png,stimuli/Social1.png,stimuli/Nonsocial2.png,stimuli/Nonsocial1.png,stimuli/Test1.png,stimuli/Test2.png,"(-0.7, 0.5)",cs_plus_ns,"(0.7, 0.5)",cs_minus_ns,0,0,0,0,,,,,0,74,74,25,,,,,,,,,,,,,,,339.217037800001,340.2239109000657,340.2239109000657,340.36979380005505,340.87670590006746,340.87670590006746,341.0225247000344,ä,0.6137972000287846,correct,,341.64749720005784,342.57801800000016,340.2239109000657,,,,,,,,,,,,1,D,2023-12-05_09h11.28.062,gca_discrimination,2022.2.4,144.1345871166867,
positions.xlsx,stimuli.xlsx,test.xlsx,stimuli/Social2.png,stimuli/Social1.png,stimuli/Nonsocial2.png,stimuli/Nonsocial1.png,stimuli/Test1.png,stimuli/Test2.png,"(-0.7, -0.5)",cs_plus_ns,"(0.7, 0.5)",cs_minus_ns,0,0,0,0,,,,,0,75,75,28,,,,,,,,,,,,,,,342.57801800000016,343.5849260999821,343.5849260999821,343.7307370000053,344.23767669999506,344.23767669999506,344.38348429999314,ä,0.6212481999536976,correct,,345.01537669997197,346.0083907999797,343.5849260999821,,,,,,,,,,,,1,D,2023-12-05_09h11.28.062,gca_discrimination,2022.2.4,144.1345871166867,
positions.xlsx,stimuli.xlsx,test.xlsx,stimuli/Social2.png,stimuli/Social1.png,stimuli/Nonsocial2.png,stimuli/Nonsocial1.png,stimuli/Test1.png,stimuli/Test2.png,"(-0.7, 0.5)",cs_minus_ns,"(0.7, 0.5)",cs_plus_ns,0,0,0,0,,,,,0,76,76,37,,,,,,,,,,,,,,,346.0083907999797,347.0153239000356,347.0153239000356,347.1611459000269,347.66807929996867,347.66807929996867,347.8139356999891,ä,0.42272399994544685,correct,,348.2444300999632,348.9805151000619,347.0153239000356,,,,,,,,,,,,1,D,2023-12-05_09h11.28.062,gca_discrimination,2022.2.4,144.1345871166867,
positions.xlsx,stimuli.xlsx,test.xlsx,stimuli/Social2.png,stimuli/Social1.png,stimuli/Nonsocial2.png,stimuli/Nonsocial1.png,stimuli/Test1.png,stimuli/Test2.png,"(0.7, -0.5)",cs_minus_s,"(0.7, 0.5)",cs_minus_s,0,0,0,0,,,,,0,77,77,71,,,,,,,,,,,,,,,348.9805151000619,349.98742190003395,349.98742190003395,350.1332535999827,350.64018450002186,350.64018450002186,350.7859785000328,l,0.47463210008572787,correct,,351.27210289996583,351.41095689998474,349.98742190003395,,,,,,,,,,,,1,D,2023-12-05_09h11.28.062,gca_discrimination,2022.2.4,144.1345871166867,
positions.xlsx,stimuli.xlsx,test.xlsx,stimuli/Social2.png,stimuli/Social1.png,stimuli/Nonsocial2.png,stimuli/Nonsocial1.png,stimuli/Test1.png,stimuli/Test2.png,"(-0.7, -0.5)",cs_minus_ns,"(0.7, 0.5)",cs_plus_ns,0,0,0,0,,,,,0,78,78,40,,,,,,,,,,,,,,,351.41095689998474,352.4178638999583,352.4178638999583,352.56367120007053,353.0706119000679,353.0706119000679,353.21640480007045,ä,0.41992220003157854,correct,,353.64699749997817,354.4941416999791,352.4178638999583,,,,,,,,,,,,1,D,2023-12-05_09h11.28.062,gca_discrimination,2022.2.4,144.1345871166867,
positions.xlsx,stimuli.xlsx,test.xlsx,stimuli/Social2.png,stimuli/Social1.png,stimuli/Nonsocial2.png,stimuli/Nonsocial1.png,stimuli/Test1.png,stimuli/Test2.png,"(0.7, 0.5)",cs_plus_ns,"(-0.7, -0.5)",cs_minus_ns,0,0,0,0,,,,,0,79,79,31,,,,,,,,,,,,,,,354.4941416999791,355.5010880000191,355.5010880000191,355.6468997000484,356.15386620000936,356.15386620000936,356.29966010001954,ä,0.3686195000773296,correct,,356.68157989997417,357.13989990006667,355.5010880000191,,,,,,,,,,,,1,D,2023-12-05_09h11.28.062,gca_discrimination,2022.2.4,144.1345871166867,
positions.xlsx,stimuli.xlsx,test.xlsx,stimuli/Social2.png,stimuli/Social1.png,stimuli/Nonsocial2.png,stimuli/Nonsocial1.png,stimuli/Test1.png,stimuli/Test2.png,"(-0.7, -0.5)",cs_plus_ns,"(0.7, 0.5)",cs_plus_ns,0,0,0,0,,,,,0,80,80,76,,,,,,,,,,,,,,,357.13989990006667,358.1468231000472,358.1468231000472,358.29262810002547,358.79956670000684,358.79956670000684,358.9453986999579,l,0.40352170006372035,correct,,359.3620093000354,360.3203599000117,358.1468231000472,,,,,,,,,,,,1,D,2023-12-05_09h11.28.062,gca_discrimination,2022.2.4,144.1345871166867,
positions.xlsx,stimuli.xlsx,test.xlsx,stimuli/Social2.png,stimuli/Social1.png,stimuli/Nonsocial2.png,stimuli/Nonsocial1.png,stimuli/Test1.png,stimuli/Test2.png,"(-0.7, -0.5)",cs_minus_s,"(-0.7, 0.5)",cs_plus_s,0,0,0,0,,,,,0,81,81,15,,,,,,,,,,,,,,,360.3203599000117,361.3272462000605,361.3272462000605,361.4730361000402,361.97999360004906,361.97999360004906,362.12582229997497,ä,0.46341430000029504,correct,,362.5979758000467,363.2576682000654,361.3272462000605,,,,,,,,,,,,1,D,2023-12-05_09h11.28.062,gca_discrimination,2022.2.4,144.1345871166867,
positions.xlsx,stimuli.xlsx,test.xlsx,stimuli/Social2.png,stimuli/Social1.png,stimuli/Nonsocial2.png,stimuli/Nonsocial1.png,stimuli/Test1.png,stimuli/Test2.png,"(-0.7, -0.5)",cs_minus_ns,"(0.7, 0.5)",cs_minus_ns,0,0,0,0,,,,,0,82,82,88,,,,,,,,,,,,,,,363.2576682000654,364.2645517999772,364.2645517999772,364.4104126000311,364.9173912999686,364.9173912999686,365.06318830000237,l,0.3495618000160903,correct,,365.4242748999968,365.4728540000506,364.2645517999772,,,,,,,,,,,,1,D,2023-12-05_09h11.28.062,gca_discrimination,2022.2.4,144.1345871166867,
positions.xlsx,stimuli.xlsx,test.xlsx,stimuli/Social2.png,stimuli/Social1.png,stimuli/Nonsocial2.png,stimuli/Nonsocial1.png,stimuli/Test1.png,stimuli/Test2.png,"(0.7, 0.5)",cs_plus_s,"(-0.7, 0.5)",cs_minus_s,0,0,0,0,,,,,0,83,83,6,,,,,,,,,,,,,,,365.4728540000506,366.47979360003956,366.47979360003956,366.6256066999631,367.13256170006935,367.13256170006935,367.27832909999415,ä,0.821778199984692,correct,,368.11162990005687,368.5561067999806,366.47979360003956,,,,,,,,,,,,1,D,2023-12-05_09h11.28.062,gca_discrimination,2022.2.4,144.1345871166867,
positions.xlsx,stimuli.xlsx,test.xlsx,stimuli/Social2.png,stimuli/Social1.png,stimuli/Nonsocial2.png,stimuli/Nonsocial1.png,stimuli/Test1.png,stimuli/Test2.png,"(-0.7, -0.5)",cs_minus_ns,"(0.7, -0.5)",cs_plus_ns,0,0,0,0,,,,,0,84,84,41,,,,,,,,,,,,,,,368.5561067999806,369.56299400003627,369.56299400003627,369.70883939997293,370.21574779995717,370.21574779995717,370.36152979999315,ä,0.49915360007435083,correct,,370.868510600063,371.6809340000618,369.56299400003627,,,,,,,,,,,,1,D,2023-12-05_09h11.28.062,gca_discrimination,2022.2.4,144.1345871166867,
positions.xlsx,stimuli.xlsx,test.xlsx,stimuli/Social2.png,stimuli/Social1.png,stimuli/Nonsocial2.png,stimuli/Nonsocial1.png,stimuli/Test1.png,stimuli/Test2.png,"(-0.7, -0.5)",cs_minus_ns,"(0.7, -0.5)",cs_minus_ns,0,0,0,0,,,,,0,85,85,89,,,,,,,,,,,,,,,371.6809340000618,372.687862199964,372.687862199964,372.83371420006733,373.3406115999678,373.3406115999678,373.48643669998273,l,0.5576226999983191,correct,,374.0558344000019,374.25723570003174,372.687862199964,,,,,,,,,,,,1,D,2023-12-05_09h11.28.062,gca_discrimination,2022.2.4,144.1345871166867,
positions.xlsx,stimuli.xlsx,test.xlsx,stimuli/Social2.png,stimuli/Social1.png,stimuli/Nonsocial2.png,stimuli/Nonsocial1.png,stimuli/Test1.png,stimuli/Test2.png,"(-0.7, -0.5)",cs_minus_s,"(0.7, -0.5)",cs_plus_s,0,0,0,0,,,,,0,86,86,17,,,,,,,,,,,,,,,374.25723570003174,375.26412139995955,375.26412139995955,375.40996990003623,375.9168839000631,375.9168839000631,376.0627626000205,ä,0.4060873999260366,correct,,376.4793759000022,376.8752029000316,375.26412139995955,,,,,,,,,,,,1,D,2023-12-05_09h11.28.062,gca_discrimination,2022.2.4,144.1345871166867,
positions.xlsx,stimuli.xlsx,test.xlsx,stimuli/Social2.png,stimuli/Social1.png,stimuli/Nonsocial2.png,stimuli/Nonsocial1.png,stimuli/Test1.png,stimuli/Test2.png,"(-0.7, 0.5)",cs_minus_s,"(0.7, -0.5)",cs_plus_s,0,0,0,0,,,,,0,87,87,14,,,,,,,,,,,,,,,376.8752029000316,377.8820908999769,377.8820908999769,378.02791249996517,378.5348252999829,378.5348252999829,378.6806523000123,ä,0.34780460002366453,correct,,379.0417500999756,379.3195575000718,377.8820908999769,,,,,,,,,,,,1,D,2023-12-05_09h11.28.062,gca_discrimination,2022.2.4,144.1345871166867,
positions.xlsx,stimuli.xlsx,test.xlsx,stimuli/Social2.png,stimuli/Social1.png,stimuli/Nonsocial2.png,stimuli/Nonsocial1.png,stimuli/Test1.png,stimuli/Test2.png,"(0.7, 0.5)",cs_minus_s,"(-0.7, -0.5)",cs_minus_s,0,0,0,0,,,,,0,88,88,67,,,,,,,,,,,,,,,379.3195575000718,380.32643280003686,380.32643280003686,380.4722399000311,380.9791994000552,380.9791994000552,381.12495590001345,l,0.35960359999444336,correct,,381.4930160000222,381.5416276999749,380.32643280003686,,,,,,,,,,,,1,D,2023-12-05_09h11.28.062,gca_discrimination,2022.2.4,144.1345871166867,
positions.xlsx,stimuli.xlsx,test.xlsx,stimuli/Social2.png,stimuli/Social1.png,stimuli/Nonsocial2.png,stimuli/Nonsocial1.png,stimuli/Test1.png,stimuli/Test2.png,"(-0.7, 0.5)",cs_minus_ns,"(0.7, -0.5)",cs_plus_ns,0,0,0,0,,,,,0,89,89,38,,,,,,,,,,,,,,,381.5416276999749,382.54859879997093,382.54859879997093,382.6944013000466,383.20130780001637,383.20130780001637,383.34711299999617,ä,0.36886609997600317,correct,,383.7290442000376,384.52074089995585,382.54859879997093,,,,,,,,,,,,1,D,2023-12-05_09h11.28.062,gca_discrimination,2022.2.4,144.1345871166867,
positions.xlsx,stimuli.xlsx,test.xlsx,stimuli/Social2.png,stimuli/Social1.png,stimuli/Nonsocial2.png,stimuli/Nonsocial1.png,stimuli/Test1.png,stimuli/Test2.png,"(0.7, -0.5)",cs_minus_ns,"(-0.7, 0.5)",cs_minus_ns,0,0,0,0,,,,,0,90,90,93,,,,,,,,,,,,,,,384.52074089995585,385.5276073999703,385.5276073999703,385.67343209998216,386.1803293999983,386.1803293999983,386.32623310002964,l,0.3418937000678852,correct,,386.6803509000456,387.6594934000168,385.5276073999703,,,,,,,,,,,,1,D,2023-12-05_09h11.28.062,gca_discrimination,2022.2.4,144.1345871166867,
positions.xlsx,stimuli.xlsx,test.xlsx,stimuli/Social2.png,stimuli/Social1.png,stimuli/Nonsocial2.png,stimuli/Nonsocial1.png,stimuli/Test1.png,stimuli/Test2.png,"(0.7, 0.5)",cs_plus_ns,"(0.7, -0.5)",cs_plus_ns,0,0,0,0,,,,,0,91,91,80,,,,,,,,,,,,,,,387.6594934000168,388.6663106000051,388.6663106000051,388.81216119998135,389.3190786000341,389.3190786000341,389.4649478000356,l,0.49106330005452037,correct,,389.9648638999788,390.5343573000282,388.6663106000051,,,,,,,,,,,,1,D,2023-12-05_09h11.28.062,gca_discrimination,2022.2.4,144.1345871166867,
positions.xlsx,stimuli.xlsx,test.xlsx,stimuli/Social2.png,stimuli/Social1.png,stimuli/Nonsocial2.png,stimuli/Nonsocial1.png,stimuli/Test1.png,stimuli/Test2.png,"(-0.7, 0.5)",cs_minus_s,"(-0.7, -0.5)",cs_plus_s,0,0,0,0,,,,,0,92,92,12,,,,,,,,,,,,,,,390.5343573000282,391.5412590999622,391.5412590999622,391.68709370004945,392.19402160006575,392.19402160006575,392.3398335999809,ä,0.4971153000369668,correct,,392.84673250000924,393.74252339999657,391.5412590999622,,,,,,,,,,,,1,D,2023-12-05_09h11.28.062,gca_discrimination,2022.2.4,144.1345871166867,
positions.xlsx,stimuli.xlsx,test.xlsx,stimuli/Social2.png,stimuli/Social1.png,stimuli/Nonsocial2.png,stimuli/Nonsocial1.png,stimuli/Test1.png,stimuli/Test2.png,"(0.7, -0.5)",cs_plus_ns,"(-0.7, 0.5)",cs_minus_ns,0,0,0,0,,,,,0,93,93,33,,,,,,,,,,,,,,,393.74252339999657,394.74947180005256,394.74947180005256,394.89530059997924,395.402215900016,395.402215900016,395.5480375000043,ä,0.4568211999721825,correct,,396.01328519999515,396.77019059995655,394.74947180005256,,,,,,,,,,,,1,D,2023-12-05_09h11.28.062,gca_discrimination,2022.2.4,144.1345871166867,
positions.xlsx,stimuli.xlsx,test.xlsx,stimuli/Social2.png,stimuli/Social1.png,stimuli/Nonsocial2.png,stimuli/Nonsocial1.png,stimuli/Test1.png,stimuli/Test2.png,"(-0.7, -0.5)",cs_minus_s,"(0.7, -0.5)",cs_minus_s,0,0,0,0,,,,,0,94,94,65,,,,,,,,,,,,,,,396.77019059995655,397.7771040999796,397.7771040999796,397.9229564999696,398.4298487000633,398.4298487000633,398.57565610005986,l,0.420776900020428,correct,,399.0062164000701,399.1589783000527,397.7771040999796,,,,,,,,,,,,1,D,2023-12-05_09h11.28.062,gca_discrimination,2022.2.4,144.1345871166867,
positions.xlsx,stimuli.xlsx,test.xlsx,stimuli/Social2.png,stimuli/Social1.png,stimuli/Nonsocial2.png,stimuli/Nonsocial1.png,stimuli/Test1.png,stimuli/Test2.png,"(0.7, 0.5)",cs_minus_s,"(-0.7, 0.5)",cs_plus_s,0,0,0,0,,,,,0,95,95,18,,,,,,,,,,,,,,,399.1589783000527,400.165904100053,400.165904100053,400.3117847000249,400.81865939998534,400.81865939998534,400.96447310002986,ä,0.3595658000558615,correct,,401.3325096999761,401.6658302999567,400.165904100053,,,,,,,,,,,,1,D,2023-12-05_09h11.28.062,gca_discrimination,2022.2.4,144.1345871166867,
