posFile,stimFile,testFile,cs_plus_s,cs_minus_s,cs_plus_ns,cs_minus_ns,test1,test2,position1,trialtype,position2,comptype,blocks.thisRepN,blocks.thisTrialN,blocks.thisN,blocks.thisIndex,learning_trials.thisRepN,learning_trials.thisTrialN,learning_trials.thisN,learning_trials.thisIndex,trials.thisRepN,trials.thisTrialN,trials.thisN,trials.thisIndex,textStart.started,spaceStart.started,spaceStart.keys,spaceStart.rt,textStartExp.started,textExpImages.started,ImageLearning1.started,ImageLearning2.started,textSpace.started,spaceStartExp.started,spaceStartExp.keys,spaceStartExp.rt,blankScreen.started,blankScreen.stopped,fixcross.started,firstImage.started,fixcrossImage1.started,fixcrossITI.started,secondImage.started,fixcrossImage2.started,key.started,key.keys,key.rt,correctness,feedbackText.started,fixcrossEnd.started,fixcrossEnd.stopped,fixcross.stopped,feedbackText.stopped,textStartTask.started,textTaskImages.started,ImageTask1.started,ImageTask2.started,ImageTask3.started,ImageTask4.started,textTaskSpace.started,spaceStartTask.started,spaceStartTask.keys,spaceStartTask.rt,participant,group,date,expName,psychopyVersion,frameRate,
,,,,,,,,,,,,,,,,,,,,,,,,,13.02460439997958,13.02460439997958,space,3.6133717999910004,,,,,,,,,,,,,,,,,,,,,,,,,,,,,,,,,,,,22,D,2023-12-12_16h33.17.298,gca_discrimination,2022.2.4,144.03763414449418,
positions.xlsx,stimuli.xlsx,test.xlsx,stimuli/Social2.png,stimuli/Social1.png,stimuli/Nonsocial2.png,stimuli/Nonsocial1.png,stimuli/Test1.png,stimuli/Test2.png,"(0.7, 0.5)",test1,"(0.7, -0.5)",test2,0,0,0,0,0,0,0,11,,,,,,,,,16.65643660002388,16.65643660002388,16.65643660002388,16.65643660002388,16.65643660002388,16.65643660002388,space,19.645926200028043,36.315419999998994,37.36394890001975,37.36394890001975,38.37781570001971,38.37781570001971,38.509768899995834,39.023626999987755,39.023626999987755,39.1625042000087,ä,0.9636224000132643,correct,40.14164889999665,42.14156880002702,42.329041499993764,,,,,,,,,,,,,22,D,2023-12-12_16h33.17.298,gca_discrimination,2022.2.4,144.03763414449418,
positions.xlsx,stimuli.xlsx,test.xlsx,stimuli/Social2.png,stimuli/Social1.png,stimuli/Nonsocial2.png,stimuli/Nonsocial1.png,stimuli/Test1.png,stimuli/Test2.png,"(0.7, -0.5)",test2,"(-0.7, 0.5)",test1,0,0,0,0,0,1,1,4,,,,,,,,,,,,,,,,,,,42.329041499993764,43.32902579999063,43.32902579999063,43.48181670001941,43.981776600005105,43.981776600005105,44.13452770002186,l,0.735922500025481,wrong,44.87757030001376,46.87748239998473,46.95392310002353,43.32902579999063,46.87748239998473,,,,,,,,,,,22,D,2023-12-12_16h33.17.298,gca_discrimination,2022.2.4,144.03763414449418,
positions.xlsx,stimuli.xlsx,test.xlsx,stimuli/Social2.png,stimuli/Social1.png,stimuli/Nonsocial2.png,stimuli/Nonsocial1.png,stimuli/Test1.png,stimuli/Test2.png,"(-0.7, 0.5)",test2,"(-0.7, -0.5)",test2,0,0,0,0,0,2,2,1,,,,,,,,,,,,,,,,,,,46.95392310002353,47.953838300018106,47.953838300018106,48.10660310002277,48.60658339998918,48.60658339998918,48.759352900029626,l,1.0074008000083268,correct,49.78015720000258,51.78004320000764,51.98150130000431,47.953838300018106,51.78004320000764,,,,,,,,,,,22,D,2023-12-12_16h33.17.298,gca_discrimination,2022.2.4,144.03763414449418,
positions.xlsx,stimuli.xlsx,test.xlsx,stimuli/Social2.png,stimuli/Social1.png,stimuli/Nonsocial2.png,stimuli/Nonsocial1.png,stimuli/Test1.png,stimuli/Test2.png,"(-0.7, -0.5)",test1,"(0.7, 0.5)",test2,0,0,0,0,0,3,3,8,,,,,,,,,,,,,,,,,,,51.98150130000431,52.98142480000388,52.98142480000388,53.13417289999779,53.63414909999119,53.63414909999119,53.78694229997927,ä,0.5471307999687269,correct,54.34245820000069,56.34239449998131,57.30071250000037,52.98142480000388,56.34239449998131,,,,,,,,,,,22,D,2023-12-12_16h33.17.298,gca_discrimination,2022.2.4,144.03763414449418,
positions.xlsx,stimuli.xlsx,test.xlsx,stimuli/Social2.png,stimuli/Social1.png,stimuli/Nonsocial2.png,stimuli/Nonsocial1.png,stimuli/Test1.png,stimuli/Test2.png,"(-0.7, -0.5)",test2,"(-0.7, 0.5)",test2,0,0,0,0,0,4,4,2,,,,,,,,,,,,,,,,,,,57.30071250000037,58.300684300018474,58.300684300018474,58.453426800027955,58.953417900018394,58.953417900018394,59.10619130003033,l,0.7003978999564424,correct,59.814466700016055,61.814401699986774,62.57132719998481,58.300684300018474,61.814401699986774,,,,,,,,,,,22,D,2023-12-12_16h33.17.298,gca_discrimination,2022.2.4,144.03763414449418,
positions.xlsx,stimuli.xlsx,test.xlsx,stimuli/Social2.png,stimuli/Social1.png,stimuli/Nonsocial2.png,stimuli/Nonsocial1.png,stimuli/Test1.png,stimuli/Test2.png,"(-0.7, -0.5)",test2,"(0.7, -0.5)",test2,0,0,0,0,0,5,5,9,,,,,,,,,,,,,,,,,,,62.57132719998481,63.57822879997548,63.57822879997548,63.72403590002796,64.22402670001611,64.22402670001611,64.3767966000014,l,0.470083300024271,correct,64.8559641999891,66.85586619999958,67.43918200000189,63.57822879997548,66.85586619999958,,,,,,,,,,,22,D,2023-12-12_16h33.17.298,gca_discrimination,2022.2.4,144.03763414449418,
positions.xlsx,stimuli.xlsx,test.xlsx,stimuli/Social2.png,stimuli/Social1.png,stimuli/Nonsocial2.png,stimuli/Nonsocial1.png,stimuli/Test1.png,stimuli/Test2.png,"(-0.7, 0.5)",test2,"(0.7, 0.5)",test1,0,0,0,0,0,6,6,3,,,,,,,,,,,,,,,,,,,67.43918200000189,68.43915210000705,68.43915210000705,68.591915099998,69.09189709997736,69.09189709997736,69.2446704999893,ä,0.6337539000087418,correct,69.89048200001707,71.89038350002375,72.18897269997979,68.43915210000705,71.89038350002375,,,,,,,,,,,22,D,2023-12-12_16h33.17.298,gca_discrimination,2022.2.4,144.03763414449418,
positions.xlsx,stimuli.xlsx,test.xlsx,stimuli/Social2.png,stimuli/Social1.png,stimuli/Nonsocial2.png,stimuli/Nonsocial1.png,stimuli/Test1.png,stimuli/Test2.png,"(-0.7, 0.5)",test1,"(0.7, -0.5)",test1,0,0,0,0,0,7,7,5,,,,,,,,,,,,,,,,,,,72.18897269997979,73.18893639999442,73.18893639999442,73.34173260000534,73.84171310003148,73.84171310003148,73.99449010001263,l,0.539536299998872,correct,74.54310449998593,76.54300569999032,77.32076949998736,73.18893639999442,76.54300569999032,,,,,,,,,,,22,D,2023-12-12_16h33.17.298,gca_discrimination,2022.2.4,144.03763414449418,
positions.xlsx,stimuli.xlsx,test.xlsx,stimuli/Social2.png,stimuli/Social1.png,stimuli/Nonsocial2.png,stimuli/Nonsocial1.png,stimuli/Test1.png,stimuli/Test2.png,"(-0.7, 0.5)",test2,"(0.7, -0.5)",test1,0,0,0,0,0,8,8,12,,,,,,,,,,,,,,,,,,,77.32076949998736,78.3276716999826,78.3276716999826,78.47349140001461,78.97347580001224,78.97347580001224,79.12622899998678,ä,0.7438055000384338,correct,79.88312800001586,81.8830331999925,82.04278090002481,78.3276716999826,81.8830331999925,,,,,,,,,,,22,D,2023-12-12_16h33.17.298,gca_discrimination,2022.2.4,144.03763414449418,
positions.xlsx,stimuli.xlsx,test.xlsx,stimuli/Social2.png,stimuli/Social1.png,stimuli/Nonsocial2.png,stimuli/Nonsocial1.png,stimuli/Test1.png,stimuli/Test2.png,"(0.7, -0.5)",test1,"(0.7, 0.5)",test1,0,0,0,0,0,9,9,10,,,,,,,,,,,,,,,,,,,82.04278090002481,83.04275780002354,83.04275780002354,83.19552290003048,83.69551200000569,83.69551200000569,83.84823940001661,l,0.5183310000575148,correct,84.37599369999953,86.3759498000145,86.74399689998245,83.04275780002354,86.3759498000145,,,,,,,,,,,22,D,2023-12-12_16h33.17.298,gca_discrimination,2022.2.4,144.03763414449418,
positions.xlsx,stimuli.xlsx,test.xlsx,stimuli/Social2.png,stimuli/Social1.png,stimuli/Nonsocial2.png,stimuli/Nonsocial1.png,stimuli/Test1.png,stimuli/Test2.png,"(-0.7, -0.5)",test2,"(0.7, 0.5)",test2,0,0,0,0,0,10,10,7,,,,,,,,,,,,,,,,,,,86.74399689998245,87.74396619998151,87.74396619998151,87.89672050002264,88.39672070002416,88.39672070002416,88.54945739998948,l,1.4322321999934502,correct,89.99383910000324,91.99377729999833,92.55627820000518,87.74396619998151,91.99377729999833,,,,,,,,,,,22,D,2023-12-12_16h33.17.298,gca_discrimination,2022.2.4,144.03763414449418,
positions.xlsx,stimuli.xlsx,test.xlsx,stimuli/Social2.png,stimuli/Social1.png,stimuli/Nonsocial2.png,stimuli/Nonsocial1.png,stimuli/Test1.png,stimuli/Test2.png,"(0.7, 0.5)",test2,"(0.7, -0.5)",test1,0,0,0,0,0,11,11,6,,,,,,,,,,,,,,,,,,,92.55627820000518,93.55623180000111,93.55623180000111,93.70896499999799,94.20900490001077,94.20900490001077,94.36176240001805,ä,0.5816522999666631,correct,94.9519478000002,96.95192050002515,97.45883890002733,93.55623180000111,96.95192050002515,,,,,,,,,,,22,D,2023-12-12_16h33.17.298,gca_discrimination,2022.2.4,144.03763414449418,
positions.xlsx,stimuli.xlsx,test.xlsx,stimuli/Social2.png,stimuli/Social1.png,stimuli/Nonsocial2.png,stimuli/Nonsocial1.png,stimuli/Test1.png,stimuli/Test2.png,"(0.7, -0.5)",test1,"(0.7, 0.5)",test2,0,0,0,0,0,12,12,0,,,,,,,,,,,,,,,,,,,97.45883890002733,98.45881889999146,98.45881889999146,98.61158169998089,99.11156039999332,99.11156039999332,99.26434499997413,ä,0.9813807000173256,correct,100.25735969998641,102.25724970002193,103.06280180002796,98.45881889999146,102.25724970002193,,,,,,,,,,,22,D,2023-12-12_16h33.17.298,gca_discrimination,2022.2.4,144.03763414449418,
positions.xlsx,stimuli.xlsx,test.xlsx,stimuli/Social2.png,stimuli/Social1.png,stimuli/Nonsocial2.png,stimuli/Nonsocial1.png,stimuli/Test1.png,stimuli/Test2.png,"(0.7, 0.5)",test2,"(-0.7, 0.5)",test1,0,0,0,0,0,13,13,13,,,,,,,,,,,,,,,,,,,103.06280180002796,104.06274899997516,104.06274899997516,104.21554549998837,104.71554030000698,104.71554030000698,104.86824979999801,ä,0.8104018000303768,correct,105.68767529999604,107.68760910001583,108.64590850000968,104.06274899997516,107.68760910001583,,,,,,,,,,,22,D,2023-12-12_16h33.17.298,gca_discrimination,2022.2.4,144.03763414449418,
positions.xlsx,stimuli.xlsx,test.xlsx,stimuli/Social2.png,stimuli/Social1.png,stimuli/Nonsocial2.png,stimuli/Nonsocial1.png,stimuli/Test1.png,stimuli/Test2.png,"(-0.7, -0.5)",cs_minus_ns,"(-0.7, 0.5)",cs_plus_ns,0,0,0,0,,,,,0,0,0,39,,,,,,,,,,,,,125.72164950001752,127.10352689999854,127.10352689999854,128.10352659999626,128.10352659999626,128.2423926999909,128.74930409999797,128.74930409999797,128.89513269998133,ä,0.4471052000299096,correct,,129.3534468000289,129.56870439997874,,,108.64590850000968,108.64590850000968,108.64590850000968,108.64590850000968,108.64590850000968,108.64590850000968,108.64590850000968,108.64590850000968,space,17.0639736999874,22,D,2023-12-12_16h33.17.298,gca_discrimination,2022.2.4,144.03763414449418,
positions.xlsx,stimuli.xlsx,test.xlsx,stimuli/Social2.png,stimuli/Social1.png,stimuli/Nonsocial2.png,stimuli/Nonsocial1.png,stimuli/Test1.png,stimuli/Test2.png,"(0.7, 0.5)",cs_minus_ns,"(0.7, -0.5)",cs_minus_ns,0,0,0,0,,,,,0,1,1,92,,,,,,,,,,,,,,,129.56870439997874,130.5756230999832,130.5756230999832,130.7215069999802,131.22838260000572,131.22838260000572,131.3742052000016,l,0.37644349999027327,correct,,131.76305710000452,131.9158467000234,130.5756230999832,,,,,,,,,,,,22,D,2023-12-12_16h33.17.298,gca_discrimination,2022.2.4,144.03763414449418,
positions.xlsx,stimuli.xlsx,test.xlsx,stimuli/Social2.png,stimuli/Social1.png,stimuli/Nonsocial2.png,stimuli/Nonsocial1.png,stimuli/Test1.png,stimuli/Test2.png,"(0.7, -0.5)",cs_minus_s,"(-0.7, 0.5)",cs_plus_s,0,0,0,0,,,,,0,2,2,21,,,,,,,,,,,,,,,131.9158467000234,132.92277040000772,132.92277040000772,133.06857950001722,133.575507200032,133.575507200032,133.7213232999784,ä,0.5332028000266291,correct,,134.2629599000211,135.005985900003,132.92277040000772,,,,,,,,,,,,22,D,2023-12-12_16h33.17.298,gca_discrimination,2022.2.4,144.03763414449418,
positions.xlsx,stimuli.xlsx,test.xlsx,stimuli/Social2.png,stimuli/Social1.png,stimuli/Nonsocial2.png,stimuli/Nonsocial1.png,stimuli/Test1.png,stimuli/Test2.png,"(0.7, -0.5)",cs_plus_ns,"(-0.7, 0.5)",cs_plus_ns,0,0,0,0,,,,,0,3,3,81,,,,,,,,,,,,,,,135.005985900003,136.01292890001787,136.01292890001787,136.15872840001248,136.66566950001288,136.66566950001288,136.81148209999083,l,0.6589916000375524,correct,,137.4781202999875,137.52674419997493,136.01292890001787,,,,,,,,,,,,22,D,2023-12-12_16h33.17.298,gca_discrimination,2022.2.4,144.03763414449418,
positions.xlsx,stimuli.xlsx,test.xlsx,stimuli/Social2.png,stimuli/Social1.png,stimuli/Nonsocial2.png,stimuli/Nonsocial1.png,stimuli/Test1.png,stimuli/Test2.png,"(0.7, -0.5)",cs_minus_s,"(-0.7, -0.5)",cs_plus_s,0,0,0,0,,,,,0,4,4,22,,,,,,,,,,,,,,,137.52674419997493,138.5336238000309,138.5336238000309,138.67946880002273,139.18640880001476,139.18640880001476,139.33223350002663,ä,0.49805019999621436,correct,,139.839121899975,140.71410189999733,138.5336238000309,,,,,,,,,,,,22,D,2023-12-12_16h33.17.298,gca_discrimination,2022.2.4,144.03763414449418,
positions.xlsx,stimuli.xlsx,test.xlsx,stimuli/Social2.png,stimuli/Social1.png,stimuli/Nonsocial2.png,stimuli/Nonsocial1.png,stimuli/Test1.png,stimuli/Test2.png,"(-0.7, -0.5)",cs_plus_s,"(0.7, 0.5)",cs_minus_s,0,0,0,0,,,,,0,5,5,4,,,,,,,,,,,,,,,140.71410189999733,141.72101500001736,141.72101500001736,141.86685719998786,142.37380140001187,142.37380140001187,142.51959709997755,ä,0.4866558999638073,correct,,143.01958880003076,144.0195416000206,141.72101500001736,,,,,,,,,,,,22,D,2023-12-12_16h33.17.298,gca_discrimination,2022.2.4,144.03763414449418,
positions.xlsx,stimuli.xlsx,test.xlsx,stimuli/Social2.png,stimuli/Social1.png,stimuli/Nonsocial2.png,stimuli/Nonsocial1.png,stimuli/Test1.png,stimuli/Test2.png,"(0.7, 0.5)",cs_minus_s,"(0.7, -0.5)",cs_plus_s,0,0,0,0,,,,,0,6,6,20,,,,,,,,,,,,,,,144.0195416000206,145.02643829997396,145.02643829997396,145.17225980001967,145.67920900002355,145.67920900002355,145.82502950000344,ä,0.5494843000196852,correct,,146.38750289997552,146.60281379998196,145.02643829997396,,,,,,,,,,,,22,D,2023-12-12_16h33.17.298,gca_discrimination,2022.2.4,144.03763414449418,
positions.xlsx,stimuli.xlsx,test.xlsx,stimuli/Social2.png,stimuli/Social1.png,stimuli/Nonsocial2.png,stimuli/Nonsocial1.png,stimuli/Test1.png,stimuli/Test2.png,"(-0.7, -0.5)",cs_minus_s,"(-0.7, 0.5)",cs_minus_s,0,0,0,0,,,,,0,7,7,63,,,,,,,,,,,,,,,146.60281379998196,147.60967500001425,147.60967500001425,147.75550420000218,148.2624053999898,148.2624053999898,148.40826430002926,None,,no answer,,150.40820589999203,151.16514609998558,147.60967500001425,,,,,,,,,,,,22,D,2023-12-12_16h33.17.298,gca_discrimination,2022.2.4,144.03763414449418,
positions.xlsx,stimuli.xlsx,test.xlsx,stimuli/Social2.png,stimuli/Social1.png,stimuli/Nonsocial2.png,stimuli/Nonsocial1.png,stimuli/Test1.png,stimuli/Test2.png,"(-0.7, -0.5)",cs_plus_ns,"(0.7, -0.5)",cs_minus_ns,0,0,0,0,,,,,0,8,8,29,,,,,,,,,,,,,,,151.16514609998558,152.17200399999274,152.17200399999274,152.31784650002373,152.82476560003124,152.82476560003124,152.9705872000195,ä,0.5084107000147924,correct,,153.4914015000104,154.2483174999943,152.17200399999274,,,,,,,,,,,,22,D,2023-12-12_16h33.17.298,gca_discrimination,2022.2.4,144.03763414449418,
positions.xlsx,stimuli.xlsx,test.xlsx,stimuli/Social2.png,stimuli/Social1.png,stimuli/Nonsocial2.png,stimuli/Nonsocial1.png,stimuli/Test1.png,stimuli/Test2.png,"(0.7, -0.5)",cs_minus_ns,"(0.7, 0.5)",cs_plus_ns,0,0,0,0,,,,,0,9,9,47,,,,,,,,,,,,,,,154.2483174999943,155.25521819997812,155.25521819997812,155.40105909999693,155.90799889998743,155.90799889998743,156.0538019000087,ä,0.6329177999868989,correct,,156.69959059997927,157.62323430000106,155.25521819997812,,,,,,,,,,,,22,D,2023-12-12_16h33.17.298,gca_discrimination,2022.2.4,144.03763414449418,
positions.xlsx,stimuli.xlsx,test.xlsx,stimuli/Social2.png,stimuli/Social1.png,stimuli/Nonsocial2.png,stimuli/Nonsocial1.png,stimuli/Test1.png,stimuli/Test2.png,"(-0.7, -0.5)",cs_minus_s,"(0.7, 0.5)",cs_minus_s,0,0,0,0,,,,,0,10,10,64,,,,,,,,,,,,,,,157.62323430000106,158.63015729998006,158.63015729998006,158.7759188999771,159.282824599999,159.282824599999,159.4286706999992,l,0.45844230003422126,correct,,159.89393080002628,160.38697629998205,158.63015729998006,,,,,,,,,,,,22,D,2023-12-12_16h33.17.298,gca_discrimination,2022.2.4,144.03763414449418,
positions.xlsx,stimuli.xlsx,test.xlsx,stimuli/Social2.png,stimuli/Social1.png,stimuli/Nonsocial2.png,stimuli/Nonsocial1.png,stimuli/Test1.png,stimuli/Test2.png,"(0.7, 0.5)",cs_plus_ns,"(0.7, -0.5)",cs_plus_ns,0,0,0,0,,,,,0,11,11,80,,,,,,,,,,,,,,,160.38697629998205,161.3938979000086,161.3938979000086,161.53968739998527,162.0466709000175,162.0466709000175,162.19243840000127,l,0.6213555000140332,correct,,162.82435319997603,163.49100390000967,161.3938979000086,,,,,,,,,,,,22,D,2023-12-12_16h33.17.298,gca_discrimination,2022.2.4,144.03763414449418,
positions.xlsx,stimuli.xlsx,test.xlsx,stimuli/Social2.png,stimuli/Social1.png,stimuli/Nonsocial2.png,stimuli/Nonsocial1.png,stimuli/Test1.png,stimuli/Test2.png,"(0.7, -0.5)",cs_minus_ns,"(-0.7, -0.5)",cs_plus_ns,0,0,0,0,,,,,0,12,12,46,,,,,,,,,,,,,,,163.49100390000967,164.49792290001642,164.49792290001642,164.64376320003066,165.15068890003022,165.15068890003022,165.29649949999293,ä,0.4300631000078283,correct,,165.73398540000198,166.40062989998842,164.49792290001642,,,,,,,,,,,,22,D,2023-12-12_16h33.17.298,gca_discrimination,2022.2.4,144.03763414449418,
positions.xlsx,stimuli.xlsx,test.xlsx,stimuli/Social2.png,stimuli/Social1.png,stimuli/Nonsocial2.png,stimuli/Nonsocial1.png,stimuli/Test1.png,stimuli/Test2.png,"(0.7, -0.5)",cs_plus_s,"(-0.7, 0.5)",cs_minus_s,0,0,0,0,,,,,0,13,13,9,,,,,,,,,,,,,,,166.40062989998842,167.4075549999834,167.4075549999834,167.55336660001194,168.06030489999102,168.06030489999102,168.20610950002447,ä,0.6958231999888085,correct,,168.91442390001612,169.06721020000987,167.4075549999834,,,,,,,,,,,,22,D,2023-12-12_16h33.17.298,gca_discrimination,2022.2.4,144.03763414449418,
positions.xlsx,stimuli.xlsx,test.xlsx,stimuli/Social2.png,stimuli/Social1.png,stimuli/Nonsocial2.png,stimuli/Nonsocial1.png,stimuli/Test1.png,stimuli/Test2.png,"(-0.7, 0.5)",cs_plus_s,"(0.7, 0.5)",cs_plus_s,0,0,0,0,,,,,0,14,14,49,,,,,,,,,,,,,,,169.06721020000987,170.0740701999748,170.0740701999748,170.21992250002222,170.72684229997685,170.72684229997685,170.8726637000218,l,0.46203489997424185,correct,,171.3448755000136,171.8448537000222,170.0740701999748,,,,,,,,,,,,22,D,2023-12-12_16h33.17.298,gca_discrimination,2022.2.4,144.03763414449418,
positions.xlsx,stimuli.xlsx,test.xlsx,stimuli/Social2.png,stimuli/Social1.png,stimuli/Nonsocial2.png,stimuli/Nonsocial1.png,stimuli/Test1.png,stimuli/Test2.png,"(0.7, -0.5)",cs_plus_s,"(-0.7, -0.5)",cs_minus_s,0,0,0,0,,,,,0,15,15,10,,,,,,,,,,,,,,,171.8448537000222,172.851739500009,172.851739500009,172.99756579997484,173.50451390002854,173.50451390002854,173.65032740001334,ä,0.43538169999374077,correct,,174.0947544000228,174.6503133000224,172.851739500009,,,,,,,,,,,,22,D,2023-12-12_16h33.17.298,gca_discrimination,2022.2.4,144.03763414449418,
positions.xlsx,stimuli.xlsx,test.xlsx,stimuli/Social2.png,stimuli/Social1.png,stimuli/Nonsocial2.png,stimuli/Nonsocial1.png,stimuli/Test1.png,stimuli/Test2.png,"(-0.7, -0.5)",cs_minus_s,"(-0.7, 0.5)",cs_plus_s,0,0,0,0,,,,,0,16,16,15,,,,,,,,,,,,,,,174.6503133000224,175.6572906000074,175.6572906000074,175.80304079997586,176.30992600001628,176.30992600001628,176.45576079998864,ä,0.806156300008297,correct,,177.27522280003177,177.43493540002964,175.6572906000074,,,,,,,,,,,,22,D,2023-12-12_16h33.17.298,gca_discrimination,2022.2.4,144.03763414449418,
positions.xlsx,stimuli.xlsx,test.xlsx,stimuli/Social2.png,stimuli/Social1.png,stimuli/Nonsocial2.png,stimuli/Nonsocial1.png,stimuli/Test1.png,stimuli/Test2.png,"(-0.7, 0.5)",cs_minus_s,"(0.7, 0.5)",cs_minus_s,0,0,0,0,,,,,0,17,17,61,,,,,,,,,,,,,,,177.43493540002964,178.44182750000618,178.44182750000618,178.5876531000249,179.09460030001355,179.09460030001355,179.2404160000151,l,0.5256557000102475,correct,,179.77514859999064,180.5250710999826,178.44182750000618,,,,,,,,,,,,22,D,2023-12-12_16h33.17.298,gca_discrimination,2022.2.4,144.03763414449418,
positions.xlsx,stimuli.xlsx,test.xlsx,stimuli/Social2.png,stimuli/Social1.png,stimuli/Nonsocial2.png,stimuli/Nonsocial1.png,stimuli/Test1.png,stimuli/Test2.png,"(0.7, 0.5)",cs_plus_ns,"(-0.7, -0.5)",cs_plus_ns,0,0,0,0,,,,,0,18,18,79,,,,,,,,,,,,,,,180.5250710999826,181.53200479998486,181.53200479998486,181.67780930001754,182.18474140000762,182.18474140000762,182.3305686999811,l,0.5957846000092104,correct,,182.9347042000154,183.15691199997673,181.53200479998486,,,,,,,,,,,,22,D,2023-12-12_16h33.17.298,gca_discrimination,2022.2.4,144.03763414449418,
positions.xlsx,stimuli.xlsx,test.xlsx,stimuli/Social2.png,stimuli/Social1.png,stimuli/Nonsocial2.png,stimuli/Nonsocial1.png,stimuli/Test1.png,stimuli/Test2.png,"(-0.7, 0.5)",cs_plus_ns,"(0.7, -0.5)",cs_plus_ns,0,0,0,0,,,,,0,19,19,74,,,,,,,,,,,,,,,183.15691199997673,184.16385020001326,184.16385020001326,184.30966829997487,184.81663010001648,184.81663010001648,184.96243210003013,l,0.4520081999944523,correct,,185.42764740000712,186.40678670001216,184.16385020001326,,,,,,,,,,,,22,D,2023-12-12_16h33.17.298,gca_discrimination,2022.2.4,144.03763414449418,
positions.xlsx,stimuli.xlsx,test.xlsx,stimuli/Social2.png,stimuli/Social1.png,stimuli/Nonsocial2.png,stimuli/Nonsocial1.png,stimuli/Test1.png,stimuli/Test2.png,"(-0.7, 0.5)",cs_plus_s,"(-0.7, -0.5)",cs_plus_s,0,0,0,0,,,,,0,20,20,48,,,,,,,,,,,,,,,186.40678670001216,187.41371200000867,187.41371200000867,187.55952940002317,188.0664592999965,188.0664592999965,188.21230419998756,l,0.5385237000300549,correct,,188.7608942000079,188.92755149997538,187.41371200000867,,,,,,,,,,,,22,D,2023-12-12_16h33.17.298,gca_discrimination,2022.2.4,144.03763414449418,
positions.xlsx,stimuli.xlsx,test.xlsx,stimuli/Social2.png,stimuli/Social1.png,stimuli/Nonsocial2.png,stimuli/Nonsocial1.png,stimuli/Test1.png,stimuli/Test2.png,"(0.7, 0.5)",cs_minus_s,"(-0.7, 0.5)",cs_plus_s,0,0,0,0,,,,,0,21,21,18,,,,,,,,,,,,,,,188.92755149997538,189.93444879999151,189.93444879999151,190.08025759999873,190.5872182000312,190.5872182000312,190.733015100006,ä,0.5697775000007823,correct,,191.31633350002812,192.11490899999626,189.93444879999151,,,,,,,,,,,,22,D,2023-12-12_16h33.17.298,gca_discrimination,2022.2.4,144.03763414449418,
positions.xlsx,stimuli.xlsx,test.xlsx,stimuli/Social2.png,stimuli/Social1.png,stimuli/Nonsocial2.png,stimuli/Nonsocial1.png,stimuli/Test1.png,stimuli/Test2.png,"(-0.7, 0.5)",cs_minus_ns,"(-0.7, -0.5)",cs_plus_ns,0,0,0,0,,,,,0,22,22,36,,,,,,,,,,,,,,,192.11490899999626,193.12183229997754,193.12183229997754,193.267622400017,193.77454650000436,193.77454650000436,193.92040469998028,ä,0.7337946000043303,correct,,194.66340209997725,195.4759174999781,193.12183229997754,,,,,,,,,,,,22,D,2023-12-12_16h33.17.298,gca_discrimination,2022.2.4,144.03763414449418,
positions.xlsx,stimuli.xlsx,test.xlsx,stimuli/Social2.png,stimuli/Social1.png,stimuli/Nonsocial2.png,stimuli/Nonsocial1.png,stimuli/Test1.png,stimuli/Test2.png,"(0.7, 0.5)",cs_minus_s,"(-0.7, 0.5)",cs_minus_s,0,0,0,0,,,,,0,23,23,66,,,,,,,,,,,,,,,195.4759174999781,196.48281200003112,196.48281200003112,196.62863170000492,197.13556050002808,197.13556050002808,197.28137769998284,l,0.758265400014352,correct,,198.05217949999496,198.99659609998344,196.48281200003112,,,,,,,,,,,,22,D,2023-12-12_16h33.17.298,gca_discrimination,2022.2.4,144.03763414449418,
positions.xlsx,stimuli.xlsx,test.xlsx,stimuli/Social2.png,stimuli/Social1.png,stimuli/Nonsocial2.png,stimuli/Nonsocial1.png,stimuli/Test1.png,stimuli/Test2.png,"(0.7, 0.5)",cs_plus_s,"(-0.7, -0.5)",cs_minus_s,0,0,0,0,,,,,0,24,24,7,,,,,,,,,,,,,,,198.99659609998344,200.00349660002394,200.00349660002394,200.14932949998183,200.65629130002344,200.65629130002344,200.80205019999994,ä,0.5165595000144094,correct,,201.3298171000206,201.90620839997428,200.00349660002394,,,,,,,,,,,,22,D,2023-12-12_16h33.17.298,gca_discrimination,2022.2.4,144.03763414449418,
positions.xlsx,stimuli.xlsx,test.xlsx,stimuli/Social2.png,stimuli/Social1.png,stimuli/Nonsocial2.png,stimuli/Nonsocial1.png,stimuli/Test1.png,stimuli/Test2.png,"(-0.7, 0.5)",cs_plus_s,"(0.7, -0.5)",cs_plus_s,0,0,0,0,,,,,0,25,25,50,,,,,,,,,,,,,,,201.90620839997428,202.91310870001325,202.91310870001325,203.05894030001946,203.56589949998306,203.56589949998306,203.71164809999755,ä,0.7422561999992467,wrong,,204.46164160000626,205.08662140002707,202.91310870001325,,,,,,,,,,,,22,D,2023-12-12_16h33.17.298,gca_discrimination,2022.2.4,144.03763414449418,
positions.xlsx,stimuli.xlsx,test.xlsx,stimuli/Social2.png,stimuli/Social1.png,stimuli/Nonsocial2.png,stimuli/Nonsocial1.png,stimuli/Test1.png,stimuli/Test2.png,"(0.7, 0.5)",cs_plus_s,"(-0.7, 0.5)",cs_plus_s,0,0,0,0,,,,,0,26,26,54,,,,,,,,,,,,,,,205.08662140002707,206.09352970001055,206.09352970001055,206.23936260002665,206.7463216999895,206.7463216999895,206.89212450000923,l,0.5535912999766879,correct,,207.45461080002133,207.9824099999969,206.09352970001055,,,,,,,,,,,,22,D,2023-12-12_16h33.17.298,gca_discrimination,2022.2.4,144.03763414449418,
positions.xlsx,stimuli.xlsx,test.xlsx,stimuli/Social2.png,stimuli/Social1.png,stimuli/Nonsocial2.png,stimuli/Nonsocial1.png,stimuli/Test1.png,stimuli/Test2.png,"(-0.7, -0.5)",cs_plus_s,"(-0.7, 0.5)",cs_minus_s,0,0,0,0,,,,,0,27,27,3,,,,,,,,,,,,,,,207.9824099999969,208.9892908000038,208.9892908000038,209.13508039998123,209.64203960000305,209.64203960000305,209.78785670001525,ä,0.610838699969463,correct,,210.40585769998142,210.51002400001744,208.9892908000038,,,,,,,,,,,,22,D,2023-12-12_16h33.17.298,gca_discrimination,2022.2.4,144.03763414449418,
positions.xlsx,stimuli.xlsx,test.xlsx,stimuli/Social2.png,stimuli/Social1.png,stimuli/Nonsocial2.png,stimuli/Nonsocial1.png,stimuli/Test1.png,stimuli/Test2.png,"(-0.7, -0.5)",cs_minus_s,"(0.7, -0.5)",cs_minus_s,0,0,0,0,,,,,0,28,28,65,,,,,,,,,,,,,,,210.51002400001744,211.51690580003196,211.51690580003196,211.6627554000006,212.16967989999102,212.16967989999102,212.31554510002024,l,0.8109889999614097,correct,,213.13492779998342,214.10016829997767,211.51690580003196,,,,,,,,,,,,22,D,2023-12-12_16h33.17.298,gca_discrimination,2022.2.4,144.03763414449418,
positions.xlsx,stimuli.xlsx,test.xlsx,stimuli/Social2.png,stimuli/Social1.png,stimuli/Nonsocial2.png,stimuli/Nonsocial1.png,stimuli/Test1.png,stimuli/Test2.png,"(-0.7, -0.5)",cs_plus_ns,"(0.7, 0.5)",cs_plus_ns,0,0,0,0,,,,,0,29,29,76,,,,,,,,,,,,,,,214.10016829997767,215.1070730999927,215.1070730999927,215.25287329999264,215.75984249997418,215.75984249997418,215.90574790001847,l,0.43622279999544844,correct,,216.35010979999788,217.0028415999841,215.1070730999927,,,,,,,,,,,,22,D,2023-12-12_16h33.17.298,gca_discrimination,2022.2.4,144.03763414449418,
positions.xlsx,stimuli.xlsx,test.xlsx,stimuli/Social2.png,stimuli/Social1.png,stimuli/Nonsocial2.png,stimuli/Nonsocial1.png,stimuli/Test1.png,stimuli/Test2.png,"(0.7, -0.5)",cs_plus_s,"(-0.7, -0.5)",cs_plus_s,0,0,0,0,,,,,0,30,30,58,,,,,,,,,,,,,,,217.0028415999841,218.0097405000124,218.0097405000124,218.15556869999273,218.66247689997545,218.66247689997545,218.80831059999764,l,0.8223313000053167,correct,,219.64161739998963,220.0235960999853,218.0097405000124,,,,,,,,,,,,22,D,2023-12-12_16h33.17.298,gca_discrimination,2022.2.4,144.03763414449418,
positions.xlsx,stimuli.xlsx,test.xlsx,stimuli/Social2.png,stimuli/Social1.png,stimuli/Nonsocial2.png,stimuli/Nonsocial1.png,stimuli/Test1.png,stimuli/Test2.png,"(-0.7, -0.5)",cs_plus_ns,"(-0.7, 0.5)",cs_plus_ns,0,0,0,0,,,,,0,31,31,75,,,,,,,,,,,,,,,220.0235960999853,221.03047009999864,221.03047009999864,221.17626310000196,221.68327979999594,221.68327979999594,221.8290491999942,l,0.8745237000402994,correct,,222.7109546000138,222.78733880002983,221.03047009999864,,,,,,,,,,,,22,D,2023-12-12_16h33.17.298,gca_discrimination,2022.2.4,144.03763414449418,
positions.xlsx,stimuli.xlsx,test.xlsx,stimuli/Social2.png,stimuli/Social1.png,stimuli/Nonsocial2.png,stimuli/Nonsocial1.png,stimuli/Test1.png,stimuli/Test2.png,"(0.7, -0.5)",cs_plus_s,"(0.7, 0.5)",cs_plus_s,0,0,0,0,,,,,0,32,32,59,,,,,,,,,,,,,,,222.78733880002983,223.79420320002828,223.79420320002828,223.9401066999999,224.44701150001492,224.44701150001492,224.59283400001004,ä,0.5336974000092596,wrong,,225.1344968000194,226.0163929000264,223.79420320002828,,,,,,,,,,,,22,D,2023-12-12_16h33.17.298,gca_discrimination,2022.2.4,144.03763414449418,
positions.xlsx,stimuli.xlsx,test.xlsx,stimuli/Social2.png,stimuli/Social1.png,stimuli/Nonsocial2.png,stimuli/Nonsocial1.png,stimuli/Test1.png,stimuli/Test2.png,"(-0.7, -0.5)",cs_plus_s,"(0.7, -0.5)",cs_minus_s,0,0,0,0,,,,,0,33,33,5,,,,,,,,,,,,,,,226.0163929000264,227.02328909997595,227.02328909997595,227.16912179999053,227.67603640002199,227.67603640002199,227.82186440000078,ä,0.8560072000254877,correct,,228.68989019998116,229.07181789999595,227.02328909997595,,,,,,,,,,,,22,D,2023-12-12_16h33.17.298,gca_discrimination,2022.2.4,144.03763414449418,
positions.xlsx,stimuli.xlsx,test.xlsx,stimuli/Social2.png,stimuli/Social1.png,stimuli/Nonsocial2.png,stimuli/Nonsocial1.png,stimuli/Test1.png,stimuli/Test2.png,"(0.7, -0.5)",cs_plus_ns,"(-0.7, 0.5)",cs_minus_ns,0,0,0,0,,,,,0,34,34,33,,,,,,,,,,,,,,,229.07181789999595,230.0787733999896,230.0787733999896,230.22453270002734,230.7315161000006,230.7315161000006,230.87730719998945,ä,0.6886859000078402,correct,,231.57864520000294,231.828641399974,230.0787733999896,,,,,,,,,,,,22,D,2023-12-12_16h33.17.298,gca_discrimination,2022.2.4,144.03763414449418,
positions.xlsx,stimuli.xlsx,test.xlsx,stimuli/Social2.png,stimuli/Social1.png,stimuli/Nonsocial2.png,stimuli/Nonsocial1.png,stimuli/Test1.png,stimuli/Test2.png,"(-0.7, 0.5)",cs_minus_ns,"(0.7, -0.5)",cs_minus_ns,0,0,0,0,,,,,0,35,35,86,,,,,,,,,,,,,,,231.828641399974,232.83559989999048,232.83559989999048,232.98139620001893,233.4883321999805,233.4883321999805,233.63412800000515,l,0.2922242999775335,correct,,233.9396675999742,234.77295750001213,232.83559989999048,,,,,,,,,,,,22,D,2023-12-12_16h33.17.298,gca_discrimination,2022.2.4,144.03763414449418,
positions.xlsx,stimuli.xlsx,test.xlsx,stimuli/Social2.png,stimuli/Social1.png,stimuli/Nonsocial2.png,stimuli/Nonsocial1.png,stimuli/Test1.png,stimuli/Test2.png,"(-0.7, -0.5)",cs_minus_s,"(0.7, 0.5)",cs_plus_s,0,0,0,0,,,,,0,36,36,16,,,,,,,,,,,,,,,234.77295750001213,235.77986379998038,235.77986379998038,235.92571570002474,236.43266009999206,236.43266009999206,236.57846510002855,ä,1.2757121999748051,correct,,237.86314430000493,238.27979449997656,235.77986379998038,,,,,,,,,,,,22,D,2023-12-12_16h33.17.298,gca_discrimination,2022.2.4,144.03763414449418,
positions.xlsx,stimuli.xlsx,test.xlsx,stimuli/Social2.png,stimuli/Social1.png,stimuli/Nonsocial2.png,stimuli/Nonsocial1.png,stimuli/Test1.png,stimuli/Test2.png,"(0.7, -0.5)",cs_minus_ns,"(0.7, 0.5)",cs_minus_ns,0,0,0,0,,,,,0,37,37,95,,,,,,,,,,,,,,,238.27979449997656,239.28672919998644,239.28672919998644,239.43250950000947,239.93945110001368,239.93945110001368,240.08528780000051,l,0.5045410000020638,correct,,240.5991719000158,241.5782722000149,239.28672919998644,,,,,,,,,,,,22,D,2023-12-12_16h33.17.298,gca_discrimination,2022.2.4,144.03763414449418,
positions.xlsx,stimuli.xlsx,test.xlsx,stimuli/Social2.png,stimuli/Social1.png,stimuli/Nonsocial2.png,stimuli/Nonsocial1.png,stimuli/Test1.png,stimuli/Test2.png,"(-0.7, 0.5)",cs_minus_ns,"(0.7, 0.5)",cs_plus_ns,0,0,0,0,,,,,0,38,38,37,,,,,,,,,,,,,,,241.5782722000149,242.5852118000039,242.5852118000039,242.73103030002676,243.23795280000195,243.23795280000195,243.3837588999886,ä,0.5987262999988161,correct,,243.9948523999774,244.38371949997963,242.5852118000039,,,,,,,,,,,,22,D,2023-12-12_16h33.17.298,gca_discrimination,2022.2.4,144.03763414449418,
positions.xlsx,stimuli.xlsx,test.xlsx,stimuli/Social2.png,stimuli/Social1.png,stimuli/Nonsocial2.png,stimuli/Nonsocial1.png,stimuli/Test1.png,stimuli/Test2.png,"(-0.7, 0.5)",cs_minus_s,"(0.7, 0.5)",cs_plus_s,0,0,0,0,,,,,0,39,39,13,,,,,,,,,,,,,,,244.38371949997963,245.39063520001946,245.39063520001946,245.5364672000287,246.04338200000348,246.04338200000348,246.18920409999555,ä,0.40058730001328513,correct,,246.5989146999782,247.47388150001643,245.39063520001946,,,,,,,,,,,,22,D,2023-12-12_16h33.17.298,gca_discrimination,2022.2.4,144.03763414449418,
positions.xlsx,stimuli.xlsx,test.xlsx,stimuli/Social2.png,stimuli/Social1.png,stimuli/Nonsocial2.png,stimuli/Nonsocial1.png,stimuli/Test1.png,stimuli/Test2.png,"(0.7, 0.5)",cs_minus_ns,"(0.7, -0.5)",cs_plus_ns,0,0,0,0,,,,,0,40,40,44,,,,,,,,,,,,,,,247.47388150001643,248.48083529999712,248.48083529999712,248.62661969999317,249.13353679998545,249.13353679998545,249.27936099999351,ä,0.20670330000575632,correct,,249.4946399999899,249.57103500002995,248.48083529999712,,,,,,,,,,,,22,D,2023-12-12_16h33.17.298,gca_discrimination,2022.2.4,144.03763414449418,
positions.xlsx,stimuli.xlsx,test.xlsx,stimuli/Social2.png,stimuli/Social1.png,stimuli/Nonsocial2.png,stimuli/Nonsocial1.png,stimuli/Test1.png,stimuli/Test2.png,"(0.7, 0.5)",cs_minus_ns,"(-0.7, -0.5)",cs_plus_ns,0,0,0,0,,,,,0,41,41,43,,,,,,,,,,,,,,,249.57103500002995,250.57794550003018,250.57794550003018,250.72373760002665,251.2306791000301,251.2306791000301,251.37652669998351,ä,0.3655517000006512,correct,,251.75147570000263,252.1820320999832,250.57794550003018,,,,,,,,,,,,22,D,2023-12-12_16h33.17.298,gca_discrimination,2022.2.4,144.03763414449418,
positions.xlsx,stimuli.xlsx,test.xlsx,stimuli/Social2.png,stimuli/Social1.png,stimuli/Nonsocial2.png,stimuli/Nonsocial1.png,stimuli/Test1.png,stimuli/Test2.png,"(0.7, 0.5)",cs_plus_s,"(0.7, -0.5)",cs_plus_s,0,0,0,0,,,,,0,42,42,56,,,,,,,,,,,,,,,252.1820320999832,253.18899599998258,253.18899599998258,253.33478740003193,253.84169139998266,253.84169139998266,253.9875143999816,l,0.5236587000545114,correct,,254.52220459998352,254.86249520001002,253.18899599998258,,,,,,,,,,,,22,D,2023-12-12_16h33.17.298,gca_discrimination,2022.2.4,144.03763414449418,
positions.xlsx,stimuli.xlsx,test.xlsx,stimuli/Social2.png,stimuli/Social1.png,stimuli/Nonsocial2.png,stimuli/Nonsocial1.png,stimuli/Test1.png,stimuli/Test2.png,"(-0.7, 0.5)",cs_plus_ns,"(0.7, 0.5)",cs_minus_ns,0,0,0,0,,,,,0,43,43,25,,,,,,,,,,,,,,,254.86249520001002,255.8693788999808,255.8693788999808,256.0152182999882,256.52215249999426,256.52215249999426,256.667988399975,None,,no answer,,258.6678885000292,259.16094829997746,,,,,,,,,,,,,22,D,2023-12-12_16h33.17.298,gca_discrimination,2022.2.4,144.03763414449418,
positions.xlsx,stimuli.xlsx,test.xlsx,stimuli/Social2.png,stimuli/Social1.png,stimuli/Nonsocial2.png,stimuli/Nonsocial1.png,stimuli/Test1.png,stimuli/Test2.png,"(-0.7, 0.5)",cs_plus_ns,"(0.7, 0.5)",cs_plus_ns,0,0,0,0,,,,,0,44,44,73,,,,,,,,,,,,,,,259.16094829997746,260.1678404000122,260.1678404000122,260.3136831999873,260.8206144000287,260.8206144000287,260.9664033000008,l,0.6077437999774702,correct,,261.5844398000045,262.02888539998094,260.1678404000122,,,,,,,,,,,,22,D,2023-12-12_16h33.17.298,gca_discrimination,2022.2.4,144.03763414449418,
positions.xlsx,stimuli.xlsx,test.xlsx,stimuli/Social2.png,stimuli/Social1.png,stimuli/Nonsocial2.png,stimuli/Nonsocial1.png,stimuli/Test1.png,stimuli/Test2.png,"(-0.7, -0.5)",cs_plus_s,"(0.7, 0.5)",cs_plus_s,0,0,0,0,,,,,0,45,45,52,,,,,,,,,,,,,,,262.02888539998094,263.03577780001797,263.03577780001797,263.1816059999983,263.6885382999899,263.6885382999899,263.8343749999767,l,0.7315738000324927,correct,,264.5773949000286,264.6329506000038,263.03577780001797,,,,,,,,,,,,22,D,2023-12-12_16h33.17.298,gca_discrimination,2022.2.4,144.03763414449418,
positions.xlsx,stimuli.xlsx,test.xlsx,stimuli/Social2.png,stimuli/Social1.png,stimuli/Nonsocial2.png,stimuli/Nonsocial1.png,stimuli/Test1.png,stimuli/Test2.png,"(-0.7, -0.5)",cs_minus_ns,"(0.7, 0.5)",cs_minus_ns,0,0,0,0,,,,,0,46,46,88,,,,,,,,,,,,,,,264.6329506000038,265.6398749999935,265.6398749999935,265.78566559997853,266.29260250000516,266.29260250000516,266.4383928999887,l,1.3202562000369653,correct,,267.7716701999889,268.06337639997946,265.6398749999935,,,,,,,,,,,,22,D,2023-12-12_16h33.17.298,gca_discrimination,2022.2.4,144.03763414449418,
positions.xlsx,stimuli.xlsx,test.xlsx,stimuli/Social2.png,stimuli/Social1.png,stimuli/Nonsocial2.png,stimuli/Nonsocial1.png,stimuli/Test1.png,stimuli/Test2.png,"(-0.7, 0.5)",cs_plus_ns,"(-0.7, -0.5)",cs_plus_ns,0,0,0,0,,,,,0,47,47,72,,,,,,,,,,,,,,,268.06337639997946,269.0702701000264,269.0702701000264,269.2161226000171,269.7230585999787,269.7230585999787,269.868849600025,l,0.6494016000069678,correct,,270.5285456000129,270.53549380000914,269.0702701000264,,,,,,,,,,,,22,D,2023-12-12_16h33.17.298,gca_discrimination,2022.2.4,144.03763414449418,
positions.xlsx,stimuli.xlsx,test.xlsx,stimuli/Social2.png,stimuli/Social1.png,stimuli/Nonsocial2.png,stimuli/Nonsocial1.png,stimuli/Test1.png,stimuli/Test2.png,"(0.7, -0.5)",cs_plus_ns,"(-0.7, -0.5)",cs_minus_ns,0,0,0,0,,,,,0,48,48,34,,,,,,,,,,,,,,,270.53549380000914,271.5424087999854,271.5424087999854,271.68825040000957,272.1951486999751,272.1951486999751,272.34093910001684,ä,0.7226474999915808,correct,,273.07704320002813,273.6187034000177,271.5424087999854,,,,,,,,,,,,22,D,2023-12-12_16h33.17.298,gca_discrimination,2022.2.4,144.03763414449418,
positions.xlsx,stimuli.xlsx,test.xlsx,stimuli/Social2.png,stimuli/Social1.png,stimuli/Nonsocial2.png,stimuli/Nonsocial1.png,stimuli/Test1.png,stimuli/Test2.png,"(-0.7, 0.5)",cs_minus_ns,"(0.7, 0.5)",cs_minus_ns,0,0,0,0,,,,,0,49,49,85,,,,,,,,,,,,,,,273.6187034000177,274.6256207000115,274.6256207000115,274.7714052000083,275.27837800001726,275.27837800001726,275.4242023000261,l,0.8779004999669269,correct,,276.31305120000616,276.36858449998545,274.6256207000115,,,,,,,,,,,,22,D,2023-12-12_16h33.17.298,gca_discrimination,2022.2.4,144.03763414449418,
positions.xlsx,stimuli.xlsx,test.xlsx,stimuli/Social2.png,stimuli/Social1.png,stimuli/Nonsocial2.png,stimuli/Nonsocial1.png,stimuli/Test1.png,stimuli/Test2.png,"(-0.7, 0.5)",cs_plus_s,"(-0.7, -0.5)",cs_minus_s,0,0,0,0,,,,,0,50,50,0,,,,,,,,,,,,,,,276.36858449998545,277.3754856000305,277.3754856000305,277.5213415999897,278.02824319998035,278.02824319998035,278.17408309999155,ä,0.9438350000418723,correct,,279.125426899991,279.81979769998,277.3754856000305,,,,,,,,,,,,22,D,2023-12-12_16h33.17.298,gca_discrimination,2022.2.4,144.03763414449418,
positions.xlsx,stimuli.xlsx,test.xlsx,stimuli/Social2.png,stimuli/Social1.png,stimuli/Nonsocial2.png,stimuli/Nonsocial1.png,stimuli/Test1.png,stimuli/Test2.png,"(0.7, -0.5)",cs_plus_ns,"(0.7, 0.5)",cs_plus_ns,0,0,0,0,,,,,0,51,51,83,,,,,,,,,,,,,,,279.81979769998,280.82677590003004,280.82677590003004,280.9725770999794,281.4795172000304,281.4795172000304,281.6253446000046,l,0.469573299982585,correct,,282.1044708000263,282.5836498999852,280.82677590003004,,,,,,,,,,,,22,D,2023-12-12_16h33.17.298,gca_discrimination,2022.2.4,144.03763414449418,
positions.xlsx,stimuli.xlsx,test.xlsx,stimuli/Social2.png,stimuli/Social1.png,stimuli/Nonsocial2.png,stimuli/Nonsocial1.png,stimuli/Test1.png,stimuli/Test2.png,"(0.7, -0.5)",cs_minus_s,"(0.7, 0.5)",cs_plus_s,0,0,0,0,,,,,0,52,52,23,,,,,,,,,,,,,,,282.5836498999852,283.5905278000282,283.5905278000282,283.73636839998653,284.24332399998093,284.24332399998093,284.3891216000193,ä,0.2736877999850549,correct,,284.67382460000226,285.64601800002856,283.5905278000282,,,,,,,,,,,,22,D,2023-12-12_16h33.17.298,gca_discrimination,2022.2.4,144.03763414449418,
positions.xlsx,stimuli.xlsx,test.xlsx,stimuli/Social2.png,stimuli/Social1.png,stimuli/Nonsocial2.png,stimuli/Nonsocial1.png,stimuli/Test1.png,stimuli/Test2.png,"(0.7, 0.5)",cs_minus_s,"(-0.7, -0.5)",cs_minus_s,0,0,0,0,,,,,0,53,53,67,,,,,,,,,,,,,,,285.64601800002856,286.6529171000002,286.6529171000002,286.79876440000953,287.3056729999953,287.3056729999953,287.4514799999888,l,0.7156111000222154,correct,,288.1806386000244,289.13196530001005,286.6529171000002,,,,,,,,,,,,22,D,2023-12-12_16h33.17.298,gca_discrimination,2022.2.4,144.03763414449418,
positions.xlsx,stimuli.xlsx,test.xlsx,stimuli/Social2.png,stimuli/Social1.png,stimuli/Nonsocial2.png,stimuli/Nonsocial1.png,stimuli/Test1.png,stimuli/Test2.png,"(0.7, 0.5)",cs_plus_s,"(-0.7, 0.5)",cs_minus_s,0,0,0,0,,,,,0,54,54,6,,,,,,,,,,,,,,,289.13196530001005,290.1389178999816,290.1389178999816,290.28471470001386,290.79164240002865,290.79164240002865,290.9374795000185,ä,0.3727464000112377,correct,,291.31941100000404,291.4096683000098,290.1389178999816,,,,,,,,,,,,22,D,2023-12-12_16h33.17.298,gca_discrimination,2022.2.4,144.03763414449418,
positions.xlsx,stimuli.xlsx,test.xlsx,stimuli/Social2.png,stimuli/Social1.png,stimuli/Nonsocial2.png,stimuli/Nonsocial1.png,stimuli/Test1.png,stimuli/Test2.png,"(-0.7, 0.5)",cs_plus_ns,"(0.7, -0.5)",cs_minus_ns,0,0,0,0,,,,,0,55,55,26,,,,,,,,,,,,,,,291.4096683000098,292.41660280001815,292.41660280001815,292.56242039997596,293.06930899998406,293.06930899998406,293.2151812000084,ä,0.5032491000019945,correct,,293.72902700002305,294.53453489998356,292.41660280001815,,,,,,,,,,,,22,D,2023-12-12_16h33.17.298,gca_discrimination,2022.2.4,144.03763414449418,
positions.xlsx,stimuli.xlsx,test.xlsx,stimuli/Social2.png,stimuli/Social1.png,stimuli/Nonsocial2.png,stimuli/Nonsocial1.png,stimuli/Test1.png,stimuli/Test2.png,"(-0.7, 0.5)",cs_plus_ns,"(-0.7, -0.5)",cs_minus_ns,0,0,0,0,,,,,0,56,56,24,,,,,,,,,,,,,,,294.53453489998356,295.5414728000178,295.5414728000178,295.6872806000174,296.19420939998236,296.19420939998236,296.34001879999414,ä,0.43430950003676116,correct,,296.78445600002306,297.65252830000827,295.5414728000178,,,,,,,,,,,,22,D,2023-12-12_16h33.17.298,gca_discrimination,2022.2.4,144.03763414449418,
positions.xlsx,stimuli.xlsx,test.xlsx,stimuli/Social2.png,stimuli/Social1.png,stimuli/Nonsocial2.png,stimuli/Nonsocial1.png,stimuli/Test1.png,stimuli/Test2.png,"(-0.7, -0.5)",cs_minus_ns,"(-0.7, 0.5)",cs_minus_ns,0,0,0,0,,,,,0,57,57,87,,,,,,,,,,,,,,,297.65252830000827,298.65938770002685,298.65938770002685,298.80523070000345,299.3121327999979,299.3121327999979,299.4579813000164,l,0.45988260000012815,correct,,299.930181099975,300.21488400001545,298.65938770002685,,,,,,,,,,,,22,D,2023-12-12_16h33.17.298,gca_discrimination,2022.2.4,144.03763414449418,
positions.xlsx,stimuli.xlsx,test.xlsx,stimuli/Social2.png,stimuli/Social1.png,stimuli/Nonsocial2.png,stimuli/Nonsocial1.png,stimuli/Test1.png,stimuli/Test2.png,"(0.7, 0.5)",cs_plus_ns,"(-0.7, 0.5)",cs_plus_ns,0,0,0,0,,,,,0,58,58,78,,,,,,,,,,,,,,,300.21488400001545,301.2218049999792,301.2218049999792,301.36763749999227,301.87454170000274,301.87454170000274,302.0204050000175,l,0.4494535999838263,correct,,302.47867819998646,303.31196969997836,301.2218049999792,,,,,,,,,,,,22,D,2023-12-12_16h33.17.298,gca_discrimination,2022.2.4,144.03763414449418,
positions.xlsx,stimuli.xlsx,test.xlsx,stimuli/Social2.png,stimuli/Social1.png,stimuli/Nonsocial2.png,stimuli/Nonsocial1.png,stimuli/Test1.png,stimuli/Test2.png,"(0.7, -0.5)",cs_minus_ns,"(-0.7, 0.5)",cs_minus_ns,0,0,0,0,,,,,0,59,59,93,,,,,,,,,,,,,,,303.31196969997836,304.31888909998816,304.31888909998816,304.4647255000309,304.97164110001177,304.97164110001177,305.1174673999776,l,0.6245279000140727,correct,,305.7494014999829,305.94383270002436,304.31888909998816,,,,,,,,,,,,22,D,2023-12-12_16h33.17.298,gca_discrimination,2022.2.4,144.03763414449418,
positions.xlsx,stimuli.xlsx,test.xlsx,stimuli/Social2.png,stimuli/Social1.png,stimuli/Nonsocial2.png,stimuli/Nonsocial1.png,stimuli/Test1.png,stimuli/Test2.png,"(0.7, 0.5)",cs_plus_s,"(0.7, -0.5)",cs_minus_s,0,0,0,0,,,,,0,60,60,8,,,,,,,,,,,,,,,305.94383270002436,306.95073709997814,306.95073709997814,307.09654569998384,307.60346010001376,307.60346010001376,307.749316899979,ä,0.5527078000013717,correct,,308.3117926000268,308.9228682999965,306.95073709997814,,,,,,,,,,,,22,D,2023-12-12_16h33.17.298,gca_discrimination,2022.2.4,144.03763414449418,
positions.xlsx,stimuli.xlsx,test.xlsx,stimuli/Social2.png,stimuli/Social1.png,stimuli/Nonsocial2.png,stimuli/Nonsocial1.png,stimuli/Test1.png,stimuli/Test2.png,"(-0.7, -0.5)",cs_plus_ns,"(0.7, 0.5)",cs_minus_ns,0,0,0,0,,,,,0,61,61,28,,,,,,,,,,,,,,,308.9228682999965,309.9298450999777,309.9298450999777,310.07561190001434,310.58254600001965,310.58254600001965,310.7283722999855,ä,0.33466029999544844,correct,,311.07558160001645,312.047825000016,309.9298450999777,,,,,,,,,,,,22,D,2023-12-12_16h33.17.298,gca_discrimination,2022.2.4,144.03763414449418,
positions.xlsx,stimuli.xlsx,test.xlsx,stimuli/Social2.png,stimuli/Social1.png,stimuli/Nonsocial2.png,stimuli/Nonsocial1.png,stimuli/Test1.png,stimuli/Test2.png,"(0.7, -0.5)",cs_minus_s,"(-0.7, -0.5)",cs_minus_s,0,0,0,0,,,,,0,62,62,70,,,,,,,,,,,,,,,312.047825000016,313.05463869997766,313.05463869997766,313.2004931999836,313.707413199998,313.707413199998,313.85324720002245,l,0.888857799989637,correct,,314.74905600002967,315.5615239000181,313.05463869997766,,,,,,,,,,,,22,D,2023-12-12_16h33.17.298,gca_discrimination,2022.2.4,144.03763414449418,
positions.xlsx,stimuli.xlsx,test.xlsx,stimuli/Social2.png,stimuli/Social1.png,stimuli/Nonsocial2.png,stimuli/Nonsocial1.png,stimuli/Test1.png,stimuli/Test2.png,"(-0.7, 0.5)",cs_plus_s,"(0.7, -0.5)",cs_minus_s,0,0,0,0,,,,,0,63,63,2,,,,,,,,,,,,,,,315.5615239000181,316.5684152999893,316.5684152999893,316.7142482000054,317.2211587000056,317.2211587000056,317.3669890000019,None,,no answer,,319.36691390001215,319.43636350001907,316.5684152999893,,,,,,,,,,,,22,D,2023-12-12_16h33.17.298,gca_discrimination,2022.2.4,144.03763414449418,
positions.xlsx,stimuli.xlsx,test.xlsx,stimuli/Social2.png,stimuli/Social1.png,stimuli/Nonsocial2.png,stimuli/Nonsocial1.png,stimuli/Test1.png,stimuli/Test2.png,"(-0.7, -0.5)",cs_plus_ns,"(-0.7, 0.5)",cs_minus_ns,0,0,0,0,,,,,0,64,64,27,,,,,,,,,,,,,,,319.43636350001907,320.44325710000703,320.44325710000703,320.58908970002085,321.09603210003115,321.09603210003115,321.2418506999966,ä,1.0440185000188649,correct,,322.2973743000184,322.69318770000245,320.44325710000703,,,,,,,,,,,,22,D,2023-12-12_16h33.17.298,gca_discrimination,2022.2.4,144.03763414449418,
positions.xlsx,stimuli.xlsx,test.xlsx,stimuli/Social2.png,stimuli/Social1.png,stimuli/Nonsocial2.png,stimuli/Nonsocial1.png,stimuli/Test1.png,stimuli/Test2.png,"(-0.7, -0.5)",cs_minus_s,"(0.7, -0.5)",cs_plus_s,0,0,0,0,,,,,0,65,65,17,,,,,,,,,,,,,,,322.69318770000245,323.700081899995,323.700081899995,323.8459308000165,324.35281720000785,324.35281720000785,324.4986642000149,ä,0.39552540000295267,correct,,324.90141200000653,325.5194854000001,323.700081899995,,,,,,,,,,,,22,D,2023-12-12_16h33.17.298,gca_discrimination,2022.2.4,144.03763414449418,
positions.xlsx,stimuli.xlsx,test.xlsx,stimuli/Social2.png,stimuli/Social1.png,stimuli/Nonsocial2.png,stimuli/Nonsocial1.png,stimuli/Test1.png,stimuli/Test2.png,"(0.7, -0.5)",cs_minus_s,"(0.7, 0.5)",cs_minus_s,0,0,0,0,,,,,0,66,66,71,,,,,,,,,,,,,,,325.5194854000001,326.52633670001524,326.52633670001524,326.67220159998396,327.17914720001863,327.17914720001863,327.3249364999938,l,0.6580345000256784,correct,,327.9915964999818,328.061031499994,326.52633670001524,,,,,,,,,,,,22,D,2023-12-12_16h33.17.298,gca_discrimination,2022.2.4,144.03763414449418,
positions.xlsx,stimuli.xlsx,test.xlsx,stimuli/Social2.png,stimuli/Social1.png,stimuli/Nonsocial2.png,stimuli/Nonsocial1.png,stimuli/Test1.png,stimuli/Test2.png,"(-0.7, -0.5)",cs_plus_s,"(0.7, -0.5)",cs_plus_s,0,0,0,0,,,,,0,67,67,53,,,,,,,,,,,,,,,328.061031499994,329.06793860002654,329.06793860002654,329.2137375000166,329.72073020000244,329.72073020000244,329.8664966999786,l,0.4920519000152126,correct,,330.36652679997496,330.9497936000116,329.06793860002654,,,,,,,,,,,,22,D,2023-12-12_16h33.17.298,gca_discrimination,2022.2.4,144.03763414449418,
positions.xlsx,stimuli.xlsx,test.xlsx,stimuli/Social2.png,stimuli/Social1.png,stimuli/Nonsocial2.png,stimuli/Nonsocial1.png,stimuli/Test1.png,stimuli/Test2.png,"(-0.7, 0.5)",cs_minus_s,"(-0.7, -0.5)",cs_minus_s,0,0,0,0,,,,,0,68,68,60,,,,,,,,,,,,,,,330.9497936000116,331.95674549997784,331.95674549997784,332.10254240001086,332.60946080001304,332.60946080001304,332.7553198999958,l,0.5240293000242673,correct,,333.29000259999884,333.38720240001567,331.95674549997784,,,,,,,,,,,,22,D,2023-12-12_16h33.17.298,gca_discrimination,2022.2.4,144.03763414449418,
positions.xlsx,stimuli.xlsx,test.xlsx,stimuli/Social2.png,stimuli/Social1.png,stimuli/Nonsocial2.png,stimuli/Nonsocial1.png,stimuli/Test1.png,stimuli/Test2.png,"(-0.7, -0.5)",cs_minus_ns,"(0.7, 0.5)",cs_plus_ns,0,0,0,0,,,,,0,69,69,40,,,,,,,,,,,,,,,333.38720240001567,334.3941119000083,334.3941119000083,334.5399370000232,335.0468789000297,335.0468789000297,335.19269330002135,ä,0.4456942999968305,correct,,335.65099260001443,335.9287630000035,334.3941119000083,,,,,,,,,,,,22,D,2023-12-12_16h33.17.298,gca_discrimination,2022.2.4,144.03763414449418,
positions.xlsx,stimuli.xlsx,test.xlsx,stimuli/Social2.png,stimuli/Social1.png,stimuli/Nonsocial2.png,stimuli/Nonsocial1.png,stimuli/Test1.png,stimuli/Test2.png,"(-0.7, -0.5)",cs_plus_ns,"(0.7, -0.5)",cs_plus_ns,0,0,0,0,,,,,0,70,70,77,,,,,,,,,,,,,,,335.9287630000035,336.93561809998937,336.93561809998937,337.08150179998484,337.5884132999927,337.5884132999927,337.7342624000157,ä,0.712736000015866,wrong,,338.45645310002146,339.4216784000164,336.93561809998937,,,,,,,,,,,,22,D,2023-12-12_16h33.17.298,gca_discrimination,2022.2.4,144.03763414449418,
positions.xlsx,stimuli.xlsx,test.xlsx,stimuli/Social2.png,stimuli/Social1.png,stimuli/Nonsocial2.png,stimuli/Nonsocial1.png,stimuli/Test1.png,stimuli/Test2.png,"(-0.7, 0.5)",cs_minus_ns,"(0.7, -0.5)",cs_plus_ns,0,0,0,0,,,,,0,71,71,38,,,,,,,,,,,,,,,339.4216784000164,340.42857510002796,340.42857510002796,340.574398799974,341.0813819000032,341.0813819000032,341.22725390002597,ä,0.5864994999719784,correct,,341.8243445000262,342.7479540000204,340.42857510002796,,,,,,,,,,,,22,D,2023-12-12_16h33.17.298,gca_discrimination,2022.2.4,144.03763414449418,
positions.xlsx,stimuli.xlsx,test.xlsx,stimuli/Social2.png,stimuli/Social1.png,stimuli/Nonsocial2.png,stimuli/Nonsocial1.png,stimuli/Test1.png,stimuli/Test2.png,"(-0.7, -0.5)",cs_minus_ns,"(0.7, -0.5)",cs_plus_ns,0,0,0,0,,,,,0,72,72,41,,,,,,,,,,,,,,,342.7479540000204,343.7548641000176,343.7548641000176,343.9006832999876,344.4076199000119,344.4076199000119,344.553452800028,l,0.6849578999681398,wrong,,345.24784419999924,345.4978429999901,343.7548641000176,,,,,,,,,,,,22,D,2023-12-12_16h33.17.298,gca_discrimination,2022.2.4,144.03763414449418,
positions.xlsx,stimuli.xlsx,test.xlsx,stimuli/Social2.png,stimuli/Social1.png,stimuli/Nonsocial2.png,stimuli/Nonsocial1.png,stimuli/Test1.png,stimuli/Test2.png,"(0.7, 0.5)",cs_minus_ns,"(-0.7, 0.5)",cs_minus_ns,0,0,0,0,,,,,0,73,73,90,,,,,,,,,,,,,,,345.4978429999901,346.504758999974,346.504758999974,346.650566300028,347.1575246999855,347.1575246999855,347.3033475999837,l,0.4312006000545807,correct,,347.74774710001657,347.7825116000022,346.504758999974,,,,,,,,,,,,22,D,2023-12-12_16h33.17.298,gca_discrimination,2022.2.4,144.03763414449418,
positions.xlsx,stimuli.xlsx,test.xlsx,stimuli/Social2.png,stimuli/Social1.png,stimuli/Nonsocial2.png,stimuli/Nonsocial1.png,stimuli/Test1.png,stimuli/Test2.png,"(-0.7, 0.5)",cs_minus_s,"(0.7, -0.5)",cs_plus_s,0,0,0,0,,,,,0,74,74,14,,,,,,,,,,,,,,,347.7825116000022,348.7894628000213,348.7894628000213,348.93521199998213,349.4421389999916,349.4421389999916,349.5879376999801,ä,0.5621491000056267,correct,,350.1573848000262,350.6018186000292,348.7894628000213,,,,,,,,,,,,22,D,2023-12-12_16h33.17.298,gca_discrimination,2022.2.4,144.03763414449418,
positions.xlsx,stimuli.xlsx,test.xlsx,stimuli/Social2.png,stimuli/Social1.png,stimuli/Nonsocial2.png,stimuli/Nonsocial1.png,stimuli/Test1.png,stimuli/Test2.png,"(0.7, 0.5)",cs_plus_ns,"(-0.7, -0.5)",cs_minus_ns,0,0,0,0,,,,,0,75,75,31,,,,,,,,,,,,,,,350.6018186000292,351.60873630002607,351.60873630002607,351.75457160000224,352.26151839998784,352.26151839998784,352.407278699975,ä,0.5590481000253931,correct,,352.9767349999747,353.64347060001455,351.60873630002607,,,,,,,,,,,,22,D,2023-12-12_16h33.17.298,gca_discrimination,2022.2.4,144.03763414449418,
positions.xlsx,stimuli.xlsx,test.xlsx,stimuli/Social2.png,stimuli/Social1.png,stimuli/Nonsocial2.png,stimuli/Nonsocial1.png,stimuli/Test1.png,stimuli/Test2.png,"(-0.7, -0.5)",cs_plus_s,"(-0.7, 0.5)",cs_plus_s,0,0,0,0,,,,,0,76,76,51,,,,,,,,,,,,,,,353.64347060001455,354.6502910000272,354.6502910000272,354.79610570002114,355.3030629000277,355.3030629000277,355.4488567999797,l,0.8531925000133924,correct,,356.30991860001814,356.851566700032,354.6502910000272,,,,,,,,,,,,22,D,2023-12-12_16h33.17.298,gca_discrimination,2022.2.4,144.03763414449418,
positions.xlsx,stimuli.xlsx,test.xlsx,stimuli/Social2.png,stimuli/Social1.png,stimuli/Nonsocial2.png,stimuli/Nonsocial1.png,stimuli/Test1.png,stimuli/Test2.png,"(-0.7, 0.5)",cs_plus_s,"(0.7, 0.5)",cs_minus_s,0,0,0,0,,,,,0,77,77,1,,,,,,,,,,,,,,,356.851566700032,357.858485499979,357.858485499979,358.00433899997734,358.51125859998865,358.51125859998865,358.65707359998487,ä,0.2696747000445612,correct,,358.93483580002794,359.05290010001045,357.858485499979,,,,,,,,,,,,22,D,2023-12-12_16h33.17.298,gca_discrimination,2022.2.4,144.03763414449418,
positions.xlsx,stimuli.xlsx,test.xlsx,stimuli/Social2.png,stimuli/Social1.png,stimuli/Nonsocial2.png,stimuli/Nonsocial1.png,stimuli/Test1.png,stimuli/Test2.png,"(0.7, 0.5)",cs_plus_ns,"(0.7, -0.5)",cs_minus_ns,0,0,0,0,,,,,0,78,78,32,,,,,,,,,,,,,,,359.05290010001045,360.05981609999435,360.05981609999435,360.20562520000385,360.71254169999156,360.71254169999156,360.8583976000082,l,0.26010969997150823,wrong,,361.1291864999803,361.1708711999818,360.05981609999435,,,,,,,,,,,,22,D,2023-12-12_16h33.17.298,gca_discrimination,2022.2.4,144.03763414449418,
positions.xlsx,stimuli.xlsx,test.xlsx,stimuli/Social2.png,stimuli/Social1.png,stimuli/Nonsocial2.png,stimuli/Nonsocial1.png,stimuli/Test1.png,stimuli/Test2.png,"(0.7, 0.5)",cs_minus_s,"(-0.7, -0.5)",cs_plus_s,0,0,0,0,,,,,0,79,79,19,,,,,,,,,,,,,,,361.1708711999818,362.1777998000034,362.1777998000034,362.3235972999828,362.8305187000078,362.8305187000078,362.9763486000011,ä,0.533790500019677,correct,,363.51798190001864,363.63605959998677,362.1777998000034,,,,,,,,,,,,22,D,2023-12-12_16h33.17.298,gca_discrimination,2022.2.4,144.03763414449418,
positions.xlsx,stimuli.xlsx,test.xlsx,stimuli/Social2.png,stimuli/Social1.png,stimuli/Nonsocial2.png,stimuli/Nonsocial1.png,stimuli/Test1.png,stimuli/Test2.png,"(0.7, -0.5)",cs_plus_ns,"(0.7, 0.5)",cs_minus_ns,0,0,0,0,,,,,0,80,80,35,,,,,,,,,,,,,,,363.63605959998677,364.6429623999866,364.6429623999866,364.7887903000228,365.2956806999864,365.2956806999864,365.4415392000228,ä,0.23646759998518974,correct,,365.69151380000403,366.1637378000305,364.6429623999866,,,,,,,,,,,,22,D,2023-12-12_16h33.17.298,gca_discrimination,2022.2.4,144.03763414449418,
positions.xlsx,stimuli.xlsx,test.xlsx,stimuli/Social2.png,stimuli/Social1.png,stimuli/Nonsocial2.png,stimuli/Nonsocial1.png,stimuli/Test1.png,stimuli/Test2.png,"(-0.7, 0.5)",cs_minus_s,"(0.7, -0.5)",cs_minus_s,0,0,0,0,,,,,0,81,81,62,,,,,,,,,,,,,,,366.1637378000305,367.17065859999275,367.17065859999275,367.31645240000216,367.82335389999207,367.82335389999207,367.96920859999955,l,0.4211498000076972,correct,,368.39976459997706,368.9969512000098,367.17065859999275,,,,,,,,,,,,22,D,2023-12-12_16h33.17.298,gca_discrimination,2022.2.4,144.03763414449418,
positions.xlsx,stimuli.xlsx,test.xlsx,stimuli/Social2.png,stimuli/Social1.png,stimuli/Nonsocial2.png,stimuli/Nonsocial1.png,stimuli/Test1.png,stimuli/Test2.png,"(-0.7, 0.5)",cs_minus_ns,"(-0.7, -0.5)",cs_minus_ns,0,0,0,0,,,,,0,82,82,84,,,,,,,,,,,,,,,368.9969512000098,370.0039057999966,370.0039057999966,370.1496893999865,370.6566090999986,370.6566090999986,370.80242949997773,l,0.4038179000490345,correct,,371.21909630001755,371.3093479999807,370.0039057999966,,,,,,,,,,,,22,D,2023-12-12_16h33.17.298,gca_discrimination,2022.2.4,144.03763414449418,
positions.xlsx,stimuli.xlsx,test.xlsx,stimuli/Social2.png,stimuli/Social1.png,stimuli/Nonsocial2.png,stimuli/Nonsocial1.png,stimuli/Test1.png,stimuli/Test2.png,"(0.7, 0.5)",cs_minus_s,"(0.7, -0.5)",cs_minus_s,0,0,0,0,,,,,0,83,83,68,,,,,,,,,,,,,,,371.3093479999807,372.3162682999973,372.3162682999973,372.4620756999939,372.96900139999343,372.96900139999343,373.1148574000108,ä,0.17908309999620542,wrong,,373.3023181000026,373.7190110000083,372.3162682999973,,,,,,,,,,,,22,D,2023-12-12_16h33.17.298,gca_discrimination,2022.2.4,144.03763414449418,
positions.xlsx,stimuli.xlsx,test.xlsx,stimuli/Social2.png,stimuli/Social1.png,stimuli/Nonsocial2.png,stimuli/Nonsocial1.png,stimuli/Test1.png,stimuli/Test2.png,"(0.7, 0.5)",cs_plus_ns,"(-0.7, 0.5)",cs_minus_ns,0,0,0,0,,,,,0,84,84,30,,,,,,,,,,,,,,,373.7190110000083,374.72588709997945,374.72588709997945,374.871704899997,375.3786566000199,375.3786566000199,375.5244837999926,ä,0.3784523000358604,correct,,375.91332789999433,376.4619403000106,374.72588709997945,,,,,,,,,,,,22,D,2023-12-12_16h33.17.298,gca_discrimination,2022.2.4,144.03763414449418,
positions.xlsx,stimuli.xlsx,test.xlsx,stimuli/Social2.png,stimuli/Social1.png,stimuli/Nonsocial2.png,stimuli/Nonsocial1.png,stimuli/Test1.png,stimuli/Test2.png,"(0.7, -0.5)",cs_plus_s,"(0.7, 0.5)",cs_minus_s,0,0,0,0,,,,,0,85,85,11,,,,,,,,,,,,,,,376.4619403000106,377.46884250000585,377.46884250000585,377.61466890003067,378.12156449997565,378.12156449997565,378.267411799985,ä,0.5466046999790706,correct,,378.8229547999799,379.55209000001196,377.46884250000585,,,,,,,,,,,,22,D,2023-12-12_16h33.17.298,gca_discrimination,2022.2.4,144.03763414449418,
positions.xlsx,stimuli.xlsx,test.xlsx,stimuli/Social2.png,stimuli/Social1.png,stimuli/Nonsocial2.png,stimuli/Nonsocial1.png,stimuli/Test1.png,stimuli/Test2.png,"(0.7, -0.5)",cs_plus_ns,"(-0.7, -0.5)",cs_plus_ns,0,0,0,0,,,,,0,86,86,82,,,,,,,,,,,,,,,379.55209000001196,380.55903990002116,380.55903990002116,380.70482370001264,381.2117590000271,381.2117590000271,381.35756869998295,l,0.5927084000431933,correct,,381.96171479998156,382.67001150001306,380.55903990002116,,,,,,,,,,,,22,D,2023-12-12_16h33.17.298,gca_discrimination,2022.2.4,144.03763414449418,
positions.xlsx,stimuli.xlsx,test.xlsx,stimuli/Social2.png,stimuli/Social1.png,stimuli/Nonsocial2.png,stimuli/Nonsocial1.png,stimuli/Test1.png,stimuli/Test2.png,"(-0.7, 0.5)",cs_minus_s,"(-0.7, -0.5)",cs_plus_s,0,0,0,0,,,,,0,87,87,12,,,,,,,,,,,,,,,382.67001150001306,383.6769690000219,383.6769690000219,383.822780699993,384.3296966999769,384.3296966999769,384.4755237000063,ä,0.35625379998236895,correct,,384.8435394000262,385.10046540002804,383.6769690000219,,,,,,,,,,,,22,D,2023-12-12_16h33.17.298,gca_discrimination,2022.2.4,144.03763414449418,
positions.xlsx,stimuli.xlsx,test.xlsx,stimuli/Social2.png,stimuli/Social1.png,stimuli/Nonsocial2.png,stimuli/Nonsocial1.png,stimuli/Test1.png,stimuli/Test2.png,"(0.7, 0.5)",cs_minus_ns,"(-0.7, -0.5)",cs_minus_ns,0,0,0,0,,,,,0,88,88,91,,,,,,,,,,,,,,,385.10046540002804,386.10740490001626,386.10740490001626,386.2532212000224,386.7601675000042,386.7601675000042,386.9059685000102,l,0.5804462999803945,correct,,387.49621389998356,388.2808721999754,386.10740490001626,,,,,,,,,,,,22,D,2023-12-12_16h33.17.298,gca_discrimination,2022.2.4,144.03763414449418,
positions.xlsx,stimuli.xlsx,test.xlsx,stimuli/Social2.png,stimuli/Social1.png,stimuli/Nonsocial2.png,stimuli/Nonsocial1.png,stimuli/Test1.png,stimuli/Test2.png,"(0.7, -0.5)",cs_minus_s,"(-0.7, 0.5)",cs_minus_s,0,0,0,0,,,,,0,89,89,69,,,,,,,,,,,,,,,388.2808721999754,389.28785030002473,389.28785030002473,389.4336624999996,389.9405873999931,389.9405873999931,390.0864262999967,l,0.6154507999890484,correct,,390.7113999000285,390.89889010001207,389.28785030002473,,,,,,,,,,,,22,D,2023-12-12_16h33.17.298,gca_discrimination,2022.2.4,144.03763414449418,
positions.xlsx,stimuli.xlsx,test.xlsx,stimuli/Social2.png,stimuli/Social1.png,stimuli/Nonsocial2.png,stimuli/Nonsocial1.png,stimuli/Test1.png,stimuli/Test2.png,"(0.7, 0.5)",cs_minus_ns,"(-0.7, 0.5)",cs_plus_ns,0,0,0,0,,,,,0,90,90,42,,,,,,,,,,,,,,,390.89889010001207,391.9057797000278,391.9057797000278,392.0516260000295,392.55853360000765,392.55853360000765,392.70439550001174,ä,0.7019924999913201,correct,,393.41961019998416,393.55153559998143,391.9057797000278,,,,,,,,,,,,22,D,2023-12-12_16h33.17.298,gca_discrimination,2022.2.4,144.03763414449418,
positions.xlsx,stimuli.xlsx,test.xlsx,stimuli/Social2.png,stimuli/Social1.png,stimuli/Nonsocial2.png,stimuli/Nonsocial1.png,stimuli/Test1.png,stimuli/Test2.png,"(0.7, -0.5)",cs_minus_ns,"(-0.7, 0.5)",cs_plus_ns,0,0,0,0,,,,,0,91,91,45,,,,,,,,,,,,,,,393.55153559998143,394.5584673000267,394.5584673000267,394.70427029998973,395.21121390000917,395.21121390000917,395.35704319999786,ä,0.8813182000303641,correct,,396.2458666000166,396.82223420002265,394.5584673000267,,,,,,,,,,,,22,D,2023-12-12_16h33.17.298,gca_discrimination,2022.2.4,144.03763414449418,
positions.xlsx,stimuli.xlsx,test.xlsx,stimuli/Social2.png,stimuli/Social1.png,stimuli/Nonsocial2.png,stimuli/Nonsocial1.png,stimuli/Test1.png,stimuli/Test2.png,"(0.7, 0.5)",cs_plus_s,"(-0.7, -0.5)",cs_plus_s,0,0,0,0,,,,,0,92,92,55,,,,,,,,,,,,,,,396.82223420002265,397.8291827000212,397.8291827000212,397.9749664000119,398.4819215000025,398.4819215000025,398.6277437999961,ä,1.634369500039611,wrong,,400.27352739998605,401.1068746999954,397.8291827000212,,,,,,,,,,,,22,D,2023-12-12_16h33.17.298,gca_discrimination,2022.2.4,144.03763414449418,
positions.xlsx,stimuli.xlsx,test.xlsx,stimuli/Social2.png,stimuli/Social1.png,stimuli/Nonsocial2.png,stimuli/Nonsocial1.png,stimuli/Test1.png,stimuli/Test2.png,"(0.7, -0.5)",cs_minus_ns,"(-0.7, -0.5)",cs_minus_ns,0,0,0,0,,,,,0,93,93,94,,,,,,,,,,,,,,,401.1068746999954,402.1137156999903,402.1137156999903,402.25956289999885,402.76647630002117,402.76647630002117,402.9123132000095,l,0.6939223000081256,correct,,403.61364440002944,404.2247617000248,402.1137156999903,,,,,,,,,,,,22,D,2023-12-12_16h33.17.298,gca_discrimination,2022.2.4,144.03763414449418,
positions.xlsx,stimuli.xlsx,test.xlsx,stimuli/Social2.png,stimuli/Social1.png,stimuli/Nonsocial2.png,stimuli/Nonsocial1.png,stimuli/Test1.png,stimuli/Test2.png,"(0.7, -0.5)",cs_plus_s,"(-0.7, 0.5)",cs_plus_s,0,0,0,0,,,,,0,94,94,57,,,,,,,,,,,,,,,404.2247617000248,405.2316806000308,405.2316806000308,405.37744740000926,405.88440689997515,405.88440689997515,406.0302404999966,l,0.7362853999948129,correct,,406.7801967000123,407.58575730002485,405.2316806000308,,,,,,,,,,,,22,D,2023-12-12_16h33.17.298,gca_discrimination,2022.2.4,144.03763414449418,
positions.xlsx,stimuli.xlsx,test.xlsx,stimuli/Social2.png,stimuli/Social1.png,stimuli/Nonsocial2.png,stimuli/Nonsocial1.png,stimuli/Test1.png,stimuli/Test2.png,"(-0.7, -0.5)",cs_minus_ns,"(0.7, -0.5)",cs_minus_ns,0,0,0,0,,,,,0,95,95,89,,,,,,,,,,,,,,,407.58575730002485,408.5926488999976,408.5926488999976,408.738482100016,409.245403399982,409.245403399982,409.39123160002055,ä,0.06413459999021143,wrong,,409.4676268000039,410.4120250000269,408.5926488999976,,,,,,,,,,,,22,D,2023-12-12_16h33.17.298,gca_discrimination,2022.2.4,144.03763414449418,
