posFile,stimFile,testFile,cs_plus_s,cs_minus_s,cs_plus_ns,cs_minus_ns,test1,test2,position1,trialtype,position2,comptype,blocks.thisRepN,blocks.thisTrialN,blocks.thisN,blocks.thisIndex,learning_trials.thisRepN,learning_trials.thisTrialN,learning_trials.thisN,learning_trials.thisIndex,trials.thisRepN,trials.thisTrialN,trials.thisN,trials.thisIndex,textStart.started,spaceStart.started,spaceStart.keys,spaceStart.rt,textStartExp.started,textExpImages.started,ImageLearning1.started,ImageLearning2.started,textSpace.started,spaceStartExp.started,spaceStartExp.keys,spaceStartExp.rt,blankScreen.started,blankScreen.stopped,fixcross.started,firstImage.started,fixcrossImage1.started,fixcrossITI.started,secondImage.started,fixcrossImage2.started,key.started,key.keys,key.rt,correctness,feedbackText.started,fixcrossEnd.started,fixcrossEnd.stopped,fixcross.stopped,feedbackText.stopped,textStartTask.started,textTaskImages.started,ImageTask1.started,ImageTask2.started,ImageTask3.started,ImageTask4.started,textTaskSpace.started,spaceStartTask.started,spaceStartTask.keys,spaceStartTask.rt,participant,group,date,expName,psychopyVersion,frameRate,
,,,,,,,,,,,,,,,,,,,,,,,,,12.347257699933834,12.347257699933834,space,3.3160602999851108,,,,,,,,,,,,,,,,,,,,,,,,,,,,,,,,,,,,2,B,2023-12-05_10h36.32.791,gca_discrimination,2022.2.4,143.93977580949482,
positions.xlsx,stimuli.xlsx,test.xlsx,stimuli/Social2.png,stimuli/Social1.png,stimuli/Nonsocial1.png,stimuli/Nonsocial2.png,stimuli/Test1.png,stimuli/Test2.png,"(-0.7, 0.5)",test1,"(0.7, -0.5)",test1,0,0,0,0,0,0,0,5,,,,,,,,,15.687396800029092,15.687396800029092,15.687396800029092,15.687396800029092,15.687396800029092,15.687396800029092,space,22.80927359999623,38.505913299974054,40.089213000028394,40.089213000028394,41.1030555999605,41.1030555999605,41.23494929994922,41.74891129997559,41.74891129997559,41.88774029992055,l,0.8397502000443637,correct,42.741847199969925,44.74182699993253,45.62366829998791,,,,,,,,,,,,,2,B,2023-12-05_10h36.32.791,gca_discrimination,2022.2.4,143.93977580949482,
positions.xlsx,stimuli.xlsx,test.xlsx,stimuli/Social2.png,stimuli/Social1.png,stimuli/Nonsocial1.png,stimuli/Nonsocial2.png,stimuli/Test1.png,stimuli/Test2.png,"(-0.7, 0.5)",test2,"(-0.7, -0.5)",test2,0,0,0,0,0,1,1,1,,,,,,,,,,,,,,,,,,,45.62366829998791,46.62365929991938,46.62365929991938,46.77637199999299,47.27641269995365,47.27641269995365,47.42917799996212,ä,0.6345835999818519,wrong,48.07497900002636,50.074909599963576,50.5402339999564,46.62365929991938,50.074909599963576,,,,,,,,,,,2,B,2023-12-05_10h36.32.791,gca_discrimination,2022.2.4,143.93977580949482,
positions.xlsx,stimuli.xlsx,test.xlsx,stimuli/Social2.png,stimuli/Social1.png,stimuli/Nonsocial1.png,stimuli/Nonsocial2.png,stimuli/Test1.png,stimuli/Test2.png,"(-0.7, 0.5)",test2,"(0.7, -0.5)",test1,0,0,0,0,0,2,2,12,,,,,,,,,,,,,,,,,,,50.5402339999564,51.540133800008334,51.540133800008334,51.692865499993786,52.19288659992162,52.19288659992162,52.345641499967314,ä,1.6859621999319643,correct,54.04002750001382,56.03995190002024,56.498246699920855,51.540133800008334,56.03995190002024,,,,,,,,,,,2,B,2023-12-05_10h36.32.791,gca_discrimination,2022.2.4,143.93977580949482,
positions.xlsx,stimuli.xlsx,test.xlsx,stimuli/Social2.png,stimuli/Social1.png,stimuli/Nonsocial1.png,stimuli/Nonsocial2.png,stimuli/Test1.png,stimuli/Test2.png,"(-0.7, -0.5)",test2,"(0.7, 0.5)",test2,0,0,0,0,0,3,3,7,,,,,,,,,,,,,,,,,,,56.498246699920855,57.498208999983035,57.498208999983035,57.650920099928044,58.15097219997551,58.15097219997551,58.303732299944386,l,0.9845758000155911,correct,59.296721199993044,61.29663709993474,61.49108329997398,57.498208999983035,61.29663709993474,,,,,,,,,,,2,B,2023-12-05_10h36.32.791,gca_discrimination,2022.2.4,143.93977580949482,
positions.xlsx,stimuli.xlsx,test.xlsx,stimuli/Social2.png,stimuli/Social1.png,stimuli/Nonsocial1.png,stimuli/Nonsocial2.png,stimuli/Test1.png,stimuli/Test2.png,"(0.7, 0.5)",test2,"(-0.7, 0.5)",test1,0,0,0,0,0,4,4,13,,,,,,,,,,,,,,,,,,,61.49108329997398,62.491059400024824,62.491059400024824,62.643792400020175,63.143813099944964,63.143813099944964,63.29658329999074,l,0.8468638000776991,wrong,64.1507284999825,66.15062770002987,66.88668969995342,62.491059400024824,66.15062770002987,,,,,,,,,,,2,B,2023-12-05_10h36.32.791,gca_discrimination,2022.2.4,143.93977580949482,
positions.xlsx,stimuli.xlsx,test.xlsx,stimuli/Social2.png,stimuli/Social1.png,stimuli/Nonsocial1.png,stimuli/Nonsocial2.png,stimuli/Test1.png,stimuli/Test2.png,"(-0.7, -0.5)",test1,"(0.7, 0.5)",test2,0,0,0,0,0,5,5,8,,,,,,,,,,,,,,,,,,,66.88668969995342,67.89362069999333,67.89362069999333,68.03939629998058,68.53940150002018,68.53940150002018,68.69218290003482,ä,0.7871736000524834,correct,69.49078849994112,71.4906516999472,71.9212084999308,67.89362069999333,71.4906516999472,,,,,,,,,,,2,B,2023-12-05_10h36.32.791,gca_discrimination,2022.2.4,143.93977580949482,
positions.xlsx,stimuli.xlsx,test.xlsx,stimuli/Social2.png,stimuli/Social1.png,stimuli/Nonsocial1.png,stimuli/Nonsocial2.png,stimuli/Test1.png,stimuli/Test2.png,"(0.7, -0.5)",test1,"(0.7, 0.5)",test1,0,0,0,0,0,6,6,10,,,,,,,,,,,,,,,,,,,71.9212084999308,72.9211815999588,72.9211815999588,73.07395679992624,73.57392230001278,73.57392230001278,73.7266682999907,l,0.792958699981682,correct,74.53219549998175,76.53214090003166,77.05290689994581,72.9211815999588,76.53214090003166,,,,,,,,,,,2,B,2023-12-05_10h36.32.791,gca_discrimination,2022.2.4,143.93977580949482,
positions.xlsx,stimuli.xlsx,test.xlsx,stimuli/Social2.png,stimuli/Social1.png,stimuli/Nonsocial1.png,stimuli/Nonsocial2.png,stimuli/Test1.png,stimuli/Test2.png,"(0.7, 0.5)",test2,"(0.7, -0.5)",test1,0,0,0,0,0,7,7,6,,,,,,,,,,,,,,,,,,,77.05290689994581,78.05291299999226,78.05291299999226,78.20576609997079,78.70566620002501,78.70566620002501,78.85843809996732,ä,0.9974592999788001,correct,79.86532859993167,81.86524780001491,81.98332849994767,78.05291299999226,81.86524780001491,,,,,,,,,,,2,B,2023-12-05_10h36.32.791,gca_discrimination,2022.2.4,143.93977580949482,
positions.xlsx,stimuli.xlsx,test.xlsx,stimuli/Social2.png,stimuli/Social1.png,stimuli/Nonsocial1.png,stimuli/Nonsocial2.png,stimuli/Test1.png,stimuli/Test2.png,"(0.7, 0.5)",test1,"(0.7, -0.5)",test2,0,0,0,0,0,8,8,11,,,,,,,,,,,,,,,,,,,81.98332849994767,82.98325239995029,82.98325239995029,83.1360717000207,83.63601559994277,83.63601559994277,83.78880540002137,ä,0.7064246999798343,correct,84.504053200013,86.50391770002898,86.64280139992479,82.98325239995029,86.50391770002898,,,,,,,,,,,2,B,2023-12-05_10h36.32.791,gca_discrimination,2022.2.4,143.93977580949482,
positions.xlsx,stimuli.xlsx,test.xlsx,stimuli/Social2.png,stimuli/Social1.png,stimuli/Nonsocial1.png,stimuli/Nonsocial2.png,stimuli/Test1.png,stimuli/Test2.png,"(-0.7, 0.5)",test2,"(0.7, 0.5)",test1,0,0,0,0,0,9,9,3,,,,,,,,,,,,,,,,,,,86.64280139992479,87.6428049999522,87.6428049999522,87.79556320002303,88.29553459992167,88.29553459992167,88.44832049997058,ä,0.8308772000018507,correct,89.28855930001009,91.288443599944,92.19817819993477,87.6428049999522,91.288443599944,,,,,,,,,,,2,B,2023-12-05_10h36.32.791,gca_discrimination,2022.2.4,143.93977580949482,
positions.xlsx,stimuli.xlsx,test.xlsx,stimuli/Social2.png,stimuli/Social1.png,stimuli/Nonsocial1.png,stimuli/Nonsocial2.png,stimuli/Test1.png,stimuli/Test2.png,"(-0.7, -0.5)",test2,"(0.7, -0.5)",test2,0,0,0,0,0,10,10,9,,,,,,,,,,,,,,,,,,,92.19817819993477,93.19813949998934,93.19813949998934,93.35088689997792,93.85088469996117,93.85088469996117,94.00363349996042,l,0.7960234999191016,correct,94.80915280000772,96.80907469999511,97.55901379999705,93.19813949998934,96.80907469999511,,,,,,,,,,,2,B,2023-12-05_10h36.32.791,gca_discrimination,2022.2.4,143.93977580949482,
positions.xlsx,stimuli.xlsx,test.xlsx,stimuli/Social2.png,stimuli/Social1.png,stimuli/Nonsocial1.png,stimuli/Nonsocial2.png,stimuli/Test1.png,stimuli/Test2.png,"(0.7, -0.5)",test2,"(-0.7, 0.5)",test1,0,0,0,0,0,11,11,4,,,,,,,,,,,,,,,,,,,97.55901379999705,98.55905129993334,98.55905129993334,98.71180089993868,99.21176919993013,99.21176919993013,99.3645357999485,ä,0.7722527999430895,correct,100.14918980002403,102.1491291000275,102.5102435000008,98.55905129993334,102.1491291000275,,,,,,,,,,,2,B,2023-12-05_10h36.32.791,gca_discrimination,2022.2.4,143.93977580949482,
positions.xlsx,stimuli.xlsx,test.xlsx,stimuli/Social2.png,stimuli/Social1.png,stimuli/Nonsocial1.png,stimuli/Nonsocial2.png,stimuli/Test1.png,stimuli/Test2.png,"(-0.7, -0.5)",test2,"(-0.7, 0.5)",test2,0,0,0,0,0,12,12,2,,,,,,,,,,,,,,,,,,,102.5102435000008,103.51019469997846,103.51019469997846,103.66297860001214,104.16295399994124,104.16295399994124,104.31572569999844,l,0.7801257000537589,correct,105.10733679996338,107.10727219993714,107.32253200002015,103.51019469997846,107.10727219993714,,,,,,,,,,,2,B,2023-12-05_10h36.32.791,gca_discrimination,2022.2.4,143.93977580949482,
positions.xlsx,stimuli.xlsx,test.xlsx,stimuli/Social2.png,stimuli/Social1.png,stimuli/Nonsocial1.png,stimuli/Nonsocial2.png,stimuli/Test1.png,stimuli/Test2.png,"(0.7, -0.5)",test1,"(0.7, 0.5)",test2,0,0,0,0,0,13,13,0,,,,,,,,,,,,,,,,,,,107.32253200002015,108.32249489997048,108.32249489997048,108.47526899992954,108.97524389997125,108.97524389997125,109.12803399993572,ä,1.0149781999643892,correct,110.15576949995011,112.15562730003148,113.10697560000699,108.32249489997048,112.15562730003148,,,,,,,,,,,2,B,2023-12-05_10h36.32.791,gca_discrimination,2022.2.4,143.93977580949482,
positions.xlsx,stimuli.xlsx,test.xlsx,stimuli/Social2.png,stimuli/Social1.png,stimuli/Nonsocial1.png,stimuli/Nonsocial2.png,stimuli/Test1.png,stimuli/Test2.png,"(-0.7, 0.5)",cs_plus_s,"(0.7, 0.5)",cs_plus_s,0,0,0,0,,,,,0,0,0,49,,,,,,,,,,,,,120.46781309996732,121.64140580000822,121.64140580000822,122.64135349995922,122.64135349995922,122.78023819997907,123.2871429999359,123.2871429999359,123.43297610001173,l,1.1992330000502989,correct,,124.64122929994483,125.0301467999816,,,113.10697560000699,113.10697560000699,113.10697560000699,113.10697560000699,113.10697560000699,113.10697560000699,113.10697560000699,113.10697560000699,space,7.3485764999641106,2,B,2023-12-05_10h36.32.791,gca_discrimination,2022.2.4,143.93977580949482,
positions.xlsx,stimuli.xlsx,test.xlsx,stimuli/Social2.png,stimuli/Social1.png,stimuli/Nonsocial1.png,stimuli/Nonsocial2.png,stimuli/Test1.png,stimuli/Test2.png,"(0.7, 0.5)",cs_minus_ns,"(0.7, -0.5)",cs_plus_ns,0,0,0,0,,,,,0,1,1,44,,,,,,,,,,,,,,,125.0301467999816,126.03705719998106,126.03705719998106,126.18285889993422,126.68975609994959,126.68975609994959,126.8355754999211,ä,0.8119114000583068,correct,,127.65503929997794,127.88416240003426,126.03705719998106,,,,,,,,,,,,2,B,2023-12-05_10h36.32.791,gca_discrimination,2022.2.4,143.93977580949482,
positions.xlsx,stimuli.xlsx,test.xlsx,stimuli/Social2.png,stimuli/Social1.png,stimuli/Nonsocial1.png,stimuli/Nonsocial2.png,stimuli/Test1.png,stimuli/Test2.png,"(-0.7, 0.5)",cs_plus_ns,"(0.7, 0.5)",cs_plus_ns,0,0,0,0,,,,,0,2,2,73,,,,,,,,,,,,,,,127.88416240003426,128.8910513999872,128.8910513999872,129.0369121999247,129.5438224999234,129.5438224999234,129.68963899998926,l,1.0852921000914648,correct,,130.78682149993256,130.86323249991983,128.8910513999872,,,,,,,,,,,,2,B,2023-12-05_10h36.32.791,gca_discrimination,2022.2.4,143.93977580949482,
positions.xlsx,stimuli.xlsx,test.xlsx,stimuli/Social2.png,stimuli/Social1.png,stimuli/Nonsocial1.png,stimuli/Nonsocial2.png,stimuli/Test1.png,stimuli/Test2.png,"(-0.7, -0.5)",cs_plus_ns,"(0.7, 0.5)",cs_plus_ns,0,0,0,0,,,,,0,3,3,76,,,,,,,,,,,,,,,130.86323249991983,131.87014709995128,131.87014709995128,132.01594459998887,132.5228727000067,132.5228727000067,132.6687021999387,l,0.7393758000107482,correct,,133.41864149994217,134.17557510000188,131.87014709995128,,,,,,,,,,,,2,B,2023-12-05_10h36.32.791,gca_discrimination,2022.2.4,143.93977580949482,
positions.xlsx,stimuli.xlsx,test.xlsx,stimuli/Social2.png,stimuli/Social1.png,stimuli/Nonsocial1.png,stimuli/Nonsocial2.png,stimuli/Test1.png,stimuli/Test2.png,"(0.7, -0.5)",cs_plus_s,"(-0.7, -0.5)",cs_plus_s,0,0,0,0,,,,,0,4,4,58,,,,,,,,,,,,,,,134.17557510000188,135.18245570000727,135.18245570000727,135.3282773999963,135.8352300999686,135.8352300999686,135.9810319999233,l,0.8266135000158101,correct,,136.8212963999249,136.92543840000872,135.18245570000727,,,,,,,,,,,,2,B,2023-12-05_10h36.32.791,gca_discrimination,2022.2.4,143.93977580949482,
positions.xlsx,stimuli.xlsx,test.xlsx,stimuli/Social2.png,stimuli/Social1.png,stimuli/Nonsocial1.png,stimuli/Nonsocial2.png,stimuli/Test1.png,stimuli/Test2.png,"(-0.7, 0.5)",cs_minus_s,"(0.7, 0.5)",cs_minus_s,0,0,0,0,,,,,0,5,5,61,,,,,,,,,,,,,,,136.92543840000872,137.93240059993695,137.93240059993695,138.07822359993588,138.58513809996657,138.58513809996657,138.7309673000127,l,0.7482216000789776,correct,,139.4878611000022,139.81429080001544,137.93240059993695,,,,,,,,,,,,2,B,2023-12-05_10h36.32.791,gca_discrimination,2022.2.4,143.93977580949482,
positions.xlsx,stimuli.xlsx,test.xlsx,stimuli/Social2.png,stimuli/Social1.png,stimuli/Nonsocial1.png,stimuli/Nonsocial2.png,stimuli/Test1.png,stimuli/Test2.png,"(-0.7, -0.5)",cs_plus_s,"(0.7, 0.5)",cs_plus_s,0,0,0,0,,,,,0,6,6,52,,,,,,,,,,,,,,,139.81429080001544,140.82113950001076,140.82113950001076,140.9669424999738,141.4738561999984,141.4738561999984,141.6197190999519,l,0.7875213000224903,correct,,142.41829920001328,142.48773239995353,140.82113950001076,,,,,,,,,,,,2,B,2023-12-05_10h36.32.791,gca_discrimination,2022.2.4,143.93977580949482,
positions.xlsx,stimuli.xlsx,test.xlsx,stimuli/Social2.png,stimuli/Social1.png,stimuli/Nonsocial1.png,stimuli/Nonsocial2.png,stimuli/Test1.png,stimuli/Test2.png,"(-0.7, -0.5)",cs_minus_ns,"(0.7, 0.5)",cs_minus_ns,0,0,0,0,,,,,0,7,7,88,,,,,,,,,,,,,,,142.48773239995353,143.49464219994843,143.49464219994843,143.6404717999976,144.14739279996138,144.14739279996138,144.29324469994754,l,0.6021367999492213,correct,,144.9042929999996,145.1334725000197,143.49464219994843,,,,,,,,,,,,2,B,2023-12-05_10h36.32.791,gca_discrimination,2022.2.4,143.93977580949482,
positions.xlsx,stimuli.xlsx,test.xlsx,stimuli/Social2.png,stimuli/Social1.png,stimuli/Nonsocial1.png,stimuli/Nonsocial2.png,stimuli/Test1.png,stimuli/Test2.png,"(-0.7, 0.5)",cs_plus_s,"(0.7, -0.5)",cs_plus_s,0,0,0,0,,,,,0,8,8,50,,,,,,,,,,,,,,,145.1334725000197,146.14038040000014,146.14038040000014,146.2861965999473,146.79314219998196,146.79314219998196,146.93894999998156,l,0.565503100049682,correct,,147.51529389992356,147.52227279997896,146.14038040000014,,,,,,,,,,,,2,B,2023-12-05_10h36.32.791,gca_discrimination,2022.2.4,143.93977580949482,
positions.xlsx,stimuli.xlsx,test.xlsx,stimuli/Social2.png,stimuli/Social1.png,stimuli/Nonsocial1.png,stimuli/Nonsocial2.png,stimuli/Test1.png,stimuli/Test2.png,"(0.7, 0.5)",cs_minus_ns,"(-0.7, 0.5)",cs_minus_ns,0,0,0,0,,,,,0,9,9,90,,,,,,,,,,,,,,,147.52227279997896,148.52915630000643,148.52915630000643,148.67497639998328,149.18191049993038,149.18191049993038,149.3277299000183,l,0.7041885000653565,correct,,150.0430226000026,150.23744019994047,148.52915630000643,,,,,,,,,,,,2,B,2023-12-05_10h36.32.791,gca_discrimination,2022.2.4,143.93977580949482,
positions.xlsx,stimuli.xlsx,test.xlsx,stimuli/Social2.png,stimuli/Social1.png,stimuli/Nonsocial1.png,stimuli/Nonsocial2.png,stimuli/Test1.png,stimuli/Test2.png,"(0.7, -0.5)",cs_minus_ns,"(-0.7, -0.5)",cs_plus_ns,0,0,0,0,,,,,0,10,10,46,,,,,,,,,,,,,,,150.23744019994047,151.24433329992462,151.24433329992462,151.39016880001873,151.89708729996346,151.89708729996346,152.04291419999208,ä,0.5963199000107124,correct,,152.64702549995854,153.28590529994108,151.24433329992462,,,,,,,,,,,,2,B,2023-12-05_10h36.32.791,gca_discrimination,2022.2.4,143.93977580949482,
positions.xlsx,stimuli.xlsx,test.xlsx,stimuli/Social2.png,stimuli/Social1.png,stimuli/Nonsocial1.png,stimuli/Nonsocial2.png,stimuli/Test1.png,stimuli/Test2.png,"(-0.7, 0.5)",cs_minus_ns,"(0.7, 0.5)",cs_minus_ns,0,0,0,0,,,,,0,11,11,85,,,,,,,,,,,,,,,153.28590529994108,154.2928170999512,154.2928170999512,154.43865889997687,154.94553659996018,154.94553659996018,155.09138019999955,l,0.7798772000242025,correct,,155.88301580003463,156.6190942999674,154.2928170999512,,,,,,,,,,,,2,B,2023-12-05_10h36.32.791,gca_discrimination,2022.2.4,143.93977580949482,
positions.xlsx,stimuli.xlsx,test.xlsx,stimuli/Social2.png,stimuli/Social1.png,stimuli/Nonsocial1.png,stimuli/Nonsocial2.png,stimuli/Test1.png,stimuli/Test2.png,"(-0.7, 0.5)",cs_plus_s,"(-0.7, -0.5)",cs_plus_s,0,0,0,0,,,,,0,12,12,48,,,,,,,,,,,,,,,156.6190942999674,157.62600579997525,157.62600579997525,157.7718352000229,158.27874490001705,158.27874490001705,158.42460279993247,l,0.726846499950625,correct,,159.16068079997785,159.6189827999333,157.62600579997525,,,,,,,,,,,,2,B,2023-12-05_10h36.32.791,gca_discrimination,2022.2.4,143.93977580949482,
positions.xlsx,stimuli.xlsx,test.xlsx,stimuli/Social2.png,stimuli/Social1.png,stimuli/Nonsocial1.png,stimuli/Nonsocial2.png,stimuli/Test1.png,stimuli/Test2.png,"(-0.7, -0.5)",cs_minus_ns,"(-0.7, 0.5)",cs_plus_ns,0,0,0,0,,,,,0,13,13,39,,,,,,,,,,,,,,,159.6189827999333,160.6258687999798,160.6258687999798,160.77171010000166,161.27863209997304,161.27863209997304,161.42443469993304,ä,0.5917260999558493,correct,,162.02862809994258,163.00072499993257,160.6258687999798,,,,,,,,,,,,2,B,2023-12-05_10h36.32.791,gca_discrimination,2022.2.4,143.93977580949482,
positions.xlsx,stimuli.xlsx,test.xlsx,stimuli/Social2.png,stimuli/Social1.png,stimuli/Nonsocial1.png,stimuli/Nonsocial2.png,stimuli/Test1.png,stimuli/Test2.png,"(-0.7, 0.5)",cs_plus_ns,"(0.7, 0.5)",cs_minus_ns,0,0,0,0,,,,,0,14,14,25,,,,,,,,,,,,,,,163.00072499993257,164.0076711999718,164.0076711999718,164.1535221999511,164.66046239994466,164.66046239994466,164.8062655000249,ä,0.9767715999623761,correct,,165.79230929992627,166.07706879999023,164.0076711999718,,,,,,,,,,,,2,B,2023-12-05_10h36.32.791,gca_discrimination,2022.2.4,143.93977580949482,
positions.xlsx,stimuli.xlsx,test.xlsx,stimuli/Social2.png,stimuli/Social1.png,stimuli/Nonsocial1.png,stimuli/Nonsocial2.png,stimuli/Test1.png,stimuli/Test2.png,"(-0.7, -0.5)",cs_plus_ns,"(0.7, -0.5)",cs_plus_ns,0,0,0,0,,,,,0,15,15,77,,,,,,,,,,,,,,,166.07706879999023,167.08398869994562,167.08398869994562,167.22980309999548,167.73674219998065,167.73674219998065,167.8825050999876,l,0.7404685000656173,correct,,168.63250039995182,168.91722079995088,167.08398869994562,,,,,,,,,,,,2,B,2023-12-05_10h36.32.791,gca_discrimination,2022.2.4,143.93977580949482,
positions.xlsx,stimuli.xlsx,test.xlsx,stimuli/Social2.png,stimuli/Social1.png,stimuli/Nonsocial1.png,stimuli/Nonsocial2.png,stimuli/Test1.png,stimuli/Test2.png,"(0.7, -0.5)",cs_minus_s,"(-0.7, -0.5)",cs_minus_s,0,0,0,0,,,,,0,16,16,70,,,,,,,,,,,,,,,168.91722079995088,169.92409420001786,169.92409420001786,170.0699617000064,170.57683139992878,170.57683139992878,170.72265929996502,l,0.7330053999321535,correct,,171.46574579994194,172.2017945999978,169.92409420001786,,,,,,,,,,,,2,B,2023-12-05_10h36.32.791,gca_discrimination,2022.2.4,143.93977580949482,
positions.xlsx,stimuli.xlsx,test.xlsx,stimuli/Social2.png,stimuli/Social1.png,stimuli/Nonsocial1.png,stimuli/Nonsocial2.png,stimuli/Test1.png,stimuli/Test2.png,"(0.7, 0.5)",cs_minus_ns,"(-0.7, -0.5)",cs_minus_ns,0,0,0,0,,,,,0,17,17,91,,,,,,,,,,,,,,,172.2017945999978,173.20870760001708,173.20870760001708,173.35451209999155,173.86144909996074,173.86144909996074,174.00728529994376,l,0.5995468000182882,correct,,174.61833299999125,175.59056009992491,173.20870760001708,,,,,,,,,,,,2,B,2023-12-05_10h36.32.791,gca_discrimination,2022.2.4,143.93977580949482,
positions.xlsx,stimuli.xlsx,test.xlsx,stimuli/Social2.png,stimuli/Social1.png,stimuli/Nonsocial1.png,stimuli/Nonsocial2.png,stimuli/Test1.png,stimuli/Test2.png,"(0.7, 0.5)",cs_minus_s,"(-0.7, -0.5)",cs_minus_s,0,0,0,0,,,,,0,18,18,67,,,,,,,,,,,,,,,175.59056009992491,176.59745809994638,176.59745809994638,176.74327769991942,177.25026410003193,177.25026410003193,177.39599210000597,l,0.5721618999959901,correct,,177.97933150001336,178.54180829995312,176.59745809994638,,,,,,,,,,,,2,B,2023-12-05_10h36.32.791,gca_discrimination,2022.2.4,143.93977580949482,
positions.xlsx,stimuli.xlsx,test.xlsx,stimuli/Social2.png,stimuli/Social1.png,stimuli/Nonsocial1.png,stimuli/Nonsocial2.png,stimuli/Test1.png,stimuli/Test2.png,"(0.7, 0.5)",cs_minus_s,"(-0.7, 0.5)",cs_minus_s,0,0,0,0,,,,,0,19,19,66,,,,,,,,,,,,,,,178.54180829995312,179.5486972000217,179.5486972000217,179.69458949996624,180.20144189998973,180.20144189998973,180.34731610002927,l,0.6364071000134572,correct,,180.9930888999952,181.02783449995331,179.5486972000217,,,,,,,,,,,,2,B,2023-12-05_10h36.32.791,gca_discrimination,2022.2.4,143.93977580949482,
positions.xlsx,stimuli.xlsx,test.xlsx,stimuli/Social2.png,stimuli/Social1.png,stimuli/Nonsocial1.png,stimuli/Nonsocial2.png,stimuli/Test1.png,stimuli/Test2.png,"(0.7, 0.5)",cs_plus_ns,"(0.7, -0.5)",cs_minus_ns,0,0,0,0,,,,,0,20,20,32,,,,,,,,,,,,,,,181.02783449995331,182.0347621999681,182.0347621999681,182.18056759994943,182.68749519996345,182.68749519996345,182.8332691999385,ä,0.9577327999286354,correct,,183.7985256999964,184.53463559993543,182.0347621999681,,,,,,,,,,,,2,B,2023-12-05_10h36.32.791,gca_discrimination,2022.2.4,143.93977580949482,
positions.xlsx,stimuli.xlsx,test.xlsx,stimuli/Social2.png,stimuli/Social1.png,stimuli/Nonsocial1.png,stimuli/Nonsocial2.png,stimuli/Test1.png,stimuli/Test2.png,"(-0.7, -0.5)",cs_plus_s,"(0.7, -0.5)",cs_minus_s,0,0,0,0,,,,,0,21,21,5,,,,,,,,,,,,,,,184.53463559993543,185.54152389999945,185.54152389999945,185.68735669995658,186.19429060001858,186.19429060001858,186.3401787999319,ä,1.2352307999972254,correct,,187.58311539993156,188.5760758999968,185.54152389999945,,,,,,,,,,,,2,B,2023-12-05_10h36.32.791,gca_discrimination,2022.2.4,143.93977580949482,
positions.xlsx,stimuli.xlsx,test.xlsx,stimuli/Social2.png,stimuli/Social1.png,stimuli/Nonsocial1.png,stimuli/Nonsocial2.png,stimuli/Test1.png,stimuli/Test2.png,"(0.7, -0.5)",cs_minus_s,"(-0.7, -0.5)",cs_plus_s,0,0,0,0,,,,,0,22,22,22,,,,,,,,,,,,,,,188.5760758999968,189.58301950001623,189.58301950001623,189.72879900003318,190.23581809992902,190.23581809992902,190.38162559992634,ä,0.5868922000518069,correct,,190.97880859998986,191.3676928000059,189.58301950001623,,,,,,,,,,,,2,B,2023-12-05_10h36.32.791,gca_discrimination,2022.2.4,143.93977580949482,
positions.xlsx,stimuli.xlsx,test.xlsx,stimuli/Social2.png,stimuli/Social1.png,stimuli/Nonsocial1.png,stimuli/Nonsocial2.png,stimuli/Test1.png,stimuli/Test2.png,"(0.7, -0.5)",cs_minus_ns,"(0.7, 0.5)",cs_plus_ns,0,0,0,0,,,,,0,23,23,47,,,,,,,,,,,,,,,191.3676928000059,192.3745912000304,192.3745912000304,192.5204020999372,193.02736850001384,193.02736850001384,193.1731429999927,ä,0.5621566000627354,correct,,193.74256129993591,194.05506169993896,192.3745912000304,,,,,,,,,,,,2,B,2023-12-05_10h36.32.791,gca_discrimination,2022.2.4,143.93977580949482,
positions.xlsx,stimuli.xlsx,test.xlsx,stimuli/Social2.png,stimuli/Social1.png,stimuli/Nonsocial1.png,stimuli/Nonsocial2.png,stimuli/Test1.png,stimuli/Test2.png,"(0.7, 0.5)",cs_minus_ns,"(0.7, -0.5)",cs_minus_ns,0,0,0,0,,,,,0,24,24,92,,,,,,,,,,,,,,,194.05506169993896,195.06200679996982,195.06200679996982,195.2077874999959,195.71472689998336,195.71472689998336,195.86054819996934,l,0.6189445999916643,correct,,196.492513999925,197.2563348999247,195.06200679996982,,,,,,,,,,,,2,B,2023-12-05_10h36.32.791,gca_discrimination,2022.2.4,143.93977580949482,
positions.xlsx,stimuli.xlsx,test.xlsx,stimuli/Social2.png,stimuli/Social1.png,stimuli/Nonsocial1.png,stimuli/Nonsocial2.png,stimuli/Test1.png,stimuli/Test2.png,"(-0.7, -0.5)",cs_minus_s,"(-0.7, 0.5)",cs_minus_s,0,0,0,0,,,,,0,25,25,63,,,,,,,,,,,,,,,197.2563348999247,198.26321050000843,198.26321050000843,198.40906540001743,198.91596599994227,198.91596599994227,199.06182609999087,l,1.0015409000916407,correct,,200.07561239995994,200.61727980000433,198.26321050000843,,,,,,,,,,,,2,B,2023-12-05_10h36.32.791,gca_discrimination,2022.2.4,143.93977580949482,
positions.xlsx,stimuli.xlsx,test.xlsx,stimuli/Social2.png,stimuli/Social1.png,stimuli/Nonsocial1.png,stimuli/Nonsocial2.png,stimuli/Test1.png,stimuli/Test2.png,"(-0.7, -0.5)",cs_minus_ns,"(0.7, 0.5)",cs_plus_ns,0,0,0,0,,,,,0,26,26,40,,,,,,,,,,,,,,,200.61727980000433,201.62416360003408,201.62416360003408,201.76996890001465,202.2769183999626,202.2769183999626,202.42278050002642,ä,1.0497866000514477,correct,,203.48522939998657,204.20051100000273,201.62416360003408,,,,,,,,,,,,2,B,2023-12-05_10h36.32.791,gca_discrimination,2022.2.4,143.93977580949482,
positions.xlsx,stimuli.xlsx,test.xlsx,stimuli/Social2.png,stimuli/Social1.png,stimuli/Nonsocial1.png,stimuli/Nonsocial2.png,stimuli/Test1.png,stimuli/Test2.png,"(0.7, 0.5)",cs_plus_ns,"(-0.7, 0.5)",cs_minus_ns,0,0,0,0,,,,,0,27,27,30,,,,,,,,,,,,,,,204.20051100000273,205.20742550003342,205.20742550003342,205.35320629994385,205.8601432000287,205.8601432000287,206.00600329996087,ä,0.8407510999822989,correct,,206.86009919992648,206.87396699993405,205.20742550003342,,,,,,,,,,,,2,B,2023-12-05_10h36.32.791,gca_discrimination,2022.2.4,143.93977580949482,
positions.xlsx,stimuli.xlsx,test.xlsx,stimuli/Social2.png,stimuli/Social1.png,stimuli/Nonsocial1.png,stimuli/Nonsocial2.png,stimuli/Test1.png,stimuli/Test2.png,"(-0.7, -0.5)",cs_plus_s,"(0.7, -0.5)",cs_plus_s,0,0,0,0,,,,,0,28,28,53,,,,,,,,,,,,,,,206.87396699993405,207.8808926999336,207.8808926999336,208.02673099993262,208.5336378000211,208.5336378000211,208.6794724999927,l,0.6403297999640927,correct,,209.332229899941,209.79053430003114,207.8808926999336,,,,,,,,,,,,2,B,2023-12-05_10h36.32.791,gca_discrimination,2022.2.4,143.93977580949482,
positions.xlsx,stimuli.xlsx,test.xlsx,stimuli/Social2.png,stimuli/Social1.png,stimuli/Nonsocial1.png,stimuli/Nonsocial2.png,stimuli/Test1.png,stimuli/Test2.png,"(0.7, -0.5)",cs_minus_s,"(0.7, 0.5)",cs_minus_s,0,0,0,0,,,,,0,29,29,71,,,,,,,,,,,,,,,209.79053430003114,210.79744669992942,210.79744669992942,210.94328040000983,211.45020179997664,211.45020179997664,211.5960368999513,l,0.5789896999485791,correct,,212.18626610003412,213.0403886999702,210.79744669992942,,,,,,,,,,,,2,B,2023-12-05_10h36.32.791,gca_discrimination,2022.2.4,143.93977580949482,
positions.xlsx,stimuli.xlsx,test.xlsx,stimuli/Social2.png,stimuli/Social1.png,stimuli/Nonsocial1.png,stimuli/Nonsocial2.png,stimuli/Test1.png,stimuli/Test2.png,"(-0.7, -0.5)",cs_minus_ns,"(0.7, -0.5)",cs_minus_ns,0,0,0,0,,,,,0,30,30,89,,,,,,,,,,,,,,,213.0403886999702,214.04731289995834,214.04731289995834,214.19314059999306,214.70006539998576,214.70006539998576,214.84588899998926,l,0.5851670000702143,correct,,215.4431149000302,216.31804739998188,214.04731289995834,,,,,,,,,,,,2,B,2023-12-05_10h36.32.791,gca_discrimination,2022.2.4,143.93977580949482,
positions.xlsx,stimuli.xlsx,test.xlsx,stimuli/Social2.png,stimuli/Social1.png,stimuli/Nonsocial1.png,stimuli/Nonsocial2.png,stimuli/Test1.png,stimuli/Test2.png,"(-0.7, -0.5)",cs_plus_ns,"(-0.7, 0.5)",cs_plus_ns,0,0,0,0,,,,,0,31,31,75,,,,,,,,,,,,,,,216.31804739998188,217.3249495999189,217.3249495999189,217.47074669995345,217.97770169994328,217.97770169994328,218.12352070002817,l,0.7559707999462262,correct,,218.8873931999551,219.54017559997737,217.3249495999189,,,,,,,,,,,,2,B,2023-12-05_10h36.32.791,gca_discrimination,2022.2.4,143.93977580949482,
positions.xlsx,stimuli.xlsx,test.xlsx,stimuli/Social2.png,stimuli/Social1.png,stimuli/Nonsocial1.png,stimuli/Nonsocial2.png,stimuli/Test1.png,stimuli/Test2.png,"(0.7, 0.5)",cs_minus_s,"(0.7, -0.5)",cs_plus_s,0,0,0,0,,,,,0,32,32,20,,,,,,,,,,,,,,,219.54017559997737,220.5470255999826,220.5470255999826,220.69283409998752,221.1997891999781,221.1997891999781,221.34561159997247,ä,1.077624399913475,correct,,222.43583580001723,223.38023280003108,220.5470255999826,,,,,,,,,,,,2,B,2023-12-05_10h36.32.791,gca_discrimination,2022.2.4,143.93977580949482,
positions.xlsx,stimuli.xlsx,test.xlsx,stimuli/Social2.png,stimuli/Social1.png,stimuli/Nonsocial1.png,stimuli/Nonsocial2.png,stimuli/Test1.png,stimuli/Test2.png,"(0.7, -0.5)",cs_plus_ns,"(-0.7, 0.5)",cs_plus_ns,0,0,0,0,,,,,0,33,33,81,,,,,,,,,,,,,,,223.38023280003108,224.3871713000117,224.3871713000117,224.533005699981,225.03990869992413,225.03990869992413,225.18574079999235,l,0.8051360999234021,correct,,225.99820659996476,226.25513689999934,224.3871713000117,,,,,,,,,,,,2,B,2023-12-05_10h36.32.791,gca_discrimination,2022.2.4,143.93977580949482,
positions.xlsx,stimuli.xlsx,test.xlsx,stimuli/Social2.png,stimuli/Social1.png,stimuli/Nonsocial1.png,stimuli/Nonsocial2.png,stimuli/Test1.png,stimuli/Test2.png,"(-0.7, 0.5)",cs_minus_ns,"(0.7, 0.5)",cs_plus_ns,0,0,0,0,,,,,0,34,34,37,,,,,,,,,,,,,,,226.25513689999934,227.2620521999197,227.2620521999197,227.40788579999935,227.91478789993562,227.91478789993562,228.06061039993074,ä,0.6908650000113994,correct,,228.76197250001132,229.2480751000112,227.2620521999197,,,,,,,,,,,,2,B,2023-12-05_10h36.32.791,gca_discrimination,2022.2.4,143.93977580949482,
positions.xlsx,stimuli.xlsx,test.xlsx,stimuli/Social2.png,stimuli/Social1.png,stimuli/Nonsocial1.png,stimuli/Nonsocial2.png,stimuli/Test1.png,stimuli/Test2.png,"(-0.7, -0.5)",cs_minus_ns,"(-0.7, 0.5)",cs_minus_ns,0,0,0,0,,,,,0,35,35,87,,,,,,,,,,,,,,,229.2480751000112,230.25498009996954,230.25498009996954,230.40080059994943,230.90773760003503,230.90773760003503,231.0535674999701,l,0.609565099934116,correct,,231.67157300002873,232.20625029993244,230.25498009996954,,,,,,,,,,,,2,B,2023-12-05_10h36.32.791,gca_discrimination,2022.2.4,143.93977580949482,
positions.xlsx,stimuli.xlsx,test.xlsx,stimuli/Social2.png,stimuli/Social1.png,stimuli/Nonsocial1.png,stimuli/Nonsocial2.png,stimuli/Test1.png,stimuli/Test2.png,"(0.7, -0.5)",cs_minus_ns,"(-0.7, 0.5)",cs_plus_ns,0,0,0,0,,,,,0,36,36,45,,,,,,,,,,,,,,,232.20625029993244,233.21318109997083,233.21318109997083,233.35897279996425,233.8659621999832,233.8659621999832,234.01175219996367,ä,0.9630669999169186,correct,,234.9838991999859,235.58108289993834,233.21318109997083,,,,,,,,,,,,2,B,2023-12-05_10h36.32.791,gca_discrimination,2022.2.4,143.93977580949482,
positions.xlsx,stimuli.xlsx,test.xlsx,stimuli/Social2.png,stimuli/Social1.png,stimuli/Nonsocial1.png,stimuli/Nonsocial2.png,stimuli/Test1.png,stimuli/Test2.png,"(-0.7, -0.5)",cs_minus_s,"(0.7, -0.5)",cs_minus_s,0,0,0,0,,,,,0,37,37,65,,,,,,,,,,,,,,,235.58108289993834,236.58806470001582,236.58806470001582,236.73384839994833,237.2407949999906,237.2407949999906,237.3865604000166,l,0.9565035999985412,correct,,238.35185889992863,238.73379820003174,236.58806470001582,,,,,,,,,,,,2,B,2023-12-05_10h36.32.791,gca_discrimination,2022.2.4,143.93977580949482,
positions.xlsx,stimuli.xlsx,test.xlsx,stimuli/Social2.png,stimuli/Social1.png,stimuli/Nonsocial1.png,stimuli/Nonsocial2.png,stimuli/Test1.png,stimuli/Test2.png,"(-0.7, 0.5)",cs_minus_s,"(0.7, -0.5)",cs_minus_s,0,0,0,0,,,,,0,38,38,62,,,,,,,,,,,,,,,238.73379820003174,239.74067460000515,239.74067460000515,239.88650060002692,240.3934163999511,240.3934163999511,240.53923949995078,l,0.3961052999366075,correct,,240.9489851000253,241.4072998999618,239.74067460000515,,,,,,,,,,,,2,B,2023-12-05_10h36.32.791,gca_discrimination,2022.2.4,143.93977580949482,
positions.xlsx,stimuli.xlsx,test.xlsx,stimuli/Social2.png,stimuli/Social1.png,stimuli/Nonsocial1.png,stimuli/Nonsocial2.png,stimuli/Test1.png,stimuli/Test2.png,"(0.7, 0.5)",cs_plus_s,"(0.7, -0.5)",cs_minus_s,0,0,0,0,,,,,0,39,39,8,,,,,,,,,,,,,,,241.4072998999618,242.41420070000459,242.41420070000459,242.5600253000157,243.066969199921,243.066969199921,243.21277570002712,ä,0.698085300042294,correct,,243.92110099992715,244.4349395999452,242.41420070000459,,,,,,,,,,,,2,B,2023-12-05_10h36.32.791,gca_discrimination,2022.2.4,143.93977580949482,
positions.xlsx,stimuli.xlsx,test.xlsx,stimuli/Social2.png,stimuli/Social1.png,stimuli/Nonsocial1.png,stimuli/Nonsocial2.png,stimuli/Test1.png,stimuli/Test2.png,"(-0.7, 0.5)",cs_minus_s,"(0.7, 0.5)",cs_plus_s,0,0,0,0,,,,,0,40,40,13,,,,,,,,,,,,,,,244.4349395999452,245.44182219996583,245.44182219996583,245.58768589992542,246.09459769993555,246.09459769993555,246.24041530000977,ä,0.5590307000093162,correct,,246.80984819994774,247.78895730001386,245.44182219996583,,,,,,,,,,,,2,B,2023-12-05_10h36.32.791,gca_discrimination,2022.2.4,143.93977580949482,
positions.xlsx,stimuli.xlsx,test.xlsx,stimuli/Social2.png,stimuli/Social1.png,stimuli/Nonsocial1.png,stimuli/Nonsocial2.png,stimuli/Test1.png,stimuli/Test2.png,"(0.7, -0.5)",cs_minus_ns,"(-0.7, -0.5)",cs_minus_ns,0,0,0,0,,,,,0,41,41,94,,,,,,,,,,,,,,,247.78895730001386,248.7958752999548,248.7958752999548,248.94168809999246,249.44862869998906,249.44862869998906,249.59446519997437,l,0.725124099990353,correct,,250.33051699993666,251.2332730999915,248.7958752999548,,,,,,,,,,,,2,B,2023-12-05_10h36.32.791,gca_discrimination,2022.2.4,143.93977580949482,
positions.xlsx,stimuli.xlsx,test.xlsx,stimuli/Social2.png,stimuli/Social1.png,stimuli/Nonsocial1.png,stimuli/Nonsocial2.png,stimuli/Test1.png,stimuli/Test2.png,"(0.7, 0.5)",cs_minus_s,"(-0.7, 0.5)",cs_plus_s,0,0,0,0,,,,,0,42,42,18,,,,,,,,,,,,,,,251.2332730999915,252.240160599933,252.240160599933,252.3860277000349,252.89292499993462,252.89292499993462,253.0387398999883,ä,0.7205013000639156,correct,,253.76786439993884,254.60119009995833,252.240160599933,,,,,,,,,,,,2,B,2023-12-05_10h36.32.791,gca_discrimination,2022.2.4,143.93977580949482,
positions.xlsx,stimuli.xlsx,test.xlsx,stimuli/Social2.png,stimuli/Social1.png,stimuli/Nonsocial1.png,stimuli/Nonsocial2.png,stimuli/Test1.png,stimuli/Test2.png,"(-0.7, 0.5)",cs_plus_s,"(0.7, 0.5)",cs_minus_s,0,0,0,0,,,,,0,43,43,1,,,,,,,,,,,,,,,254.60119009995833,255.6080541999545,255.6080541999545,255.7539266999811,256.26083189994097,256.26083189994097,256.40665479993913,ä,0.5768146000336856,correct,,256.99692830001004,257.66358109994326,255.6080541999545,,,,,,,,,,,,2,B,2023-12-05_10h36.32.791,gca_discrimination,2022.2.4,143.93977580949482,
positions.xlsx,stimuli.xlsx,test.xlsx,stimuli/Social2.png,stimuli/Social1.png,stimuli/Nonsocial1.png,stimuli/Nonsocial2.png,stimuli/Test1.png,stimuli/Test2.png,"(-0.7, 0.5)",cs_minus_ns,"(-0.7, -0.5)",cs_plus_ns,0,0,0,0,,,,,0,44,44,36,,,,,,,,,,,,,,,257.66358109994326,258.67049739998765,258.67049739998765,258.8163029999705,259.3232396999374,259.3232396999374,259.46905600000173,ä,0.6108571999939159,correct,,260.0870815999806,260.46899750002194,258.67049739998765,,,,,,,,,,,,2,B,2023-12-05_10h36.32.791,gca_discrimination,2022.2.4,143.93977580949482,
positions.xlsx,stimuli.xlsx,test.xlsx,stimuli/Social2.png,stimuli/Social1.png,stimuli/Nonsocial1.png,stimuli/Nonsocial2.png,stimuli/Test1.png,stimuli/Test2.png,"(0.7, -0.5)",cs_minus_s,"(-0.7, 0.5)",cs_minus_s,0,0,0,0,,,,,0,45,45,69,,,,,,,,,,,,,,,260.46899750002194,261.475894000032,261.475894000032,261.62167649995536,262.1286608999362,262.1286608999362,262.27447720000055,l,0.5016062000067905,correct,,262.78836020000745,262.95500479999464,261.475894000032,,,,,,,,,,,,2,B,2023-12-05_10h36.32.791,gca_discrimination,2022.2.4,143.93977580949482,
positions.xlsx,stimuli.xlsx,test.xlsx,stimuli/Social2.png,stimuli/Social1.png,stimuli/Nonsocial1.png,stimuli/Nonsocial2.png,stimuli/Test1.png,stimuli/Test2.png,"(0.7, -0.5)",cs_plus_ns,"(-0.7, -0.5)",cs_plus_ns,0,0,0,0,,,,,0,46,46,82,,,,,,,,,,,,,,,262.95500479999464,263.961891099927,263.961891099927,264.1077521999832,264.6146478999872,264.6146478999872,264.7604582000058,l,1.2388220999855548,correct,,266.0104356999509,266.64932169998065,263.961891099927,,,,,,,,,,,,2,B,2023-12-05_10h36.32.791,gca_discrimination,2022.2.4,143.93977580949482,
positions.xlsx,stimuli.xlsx,test.xlsx,stimuli/Social2.png,stimuli/Social1.png,stimuli/Nonsocial1.png,stimuli/Nonsocial2.png,stimuli/Test1.png,stimuli/Test2.png,"(-0.7, 0.5)",cs_plus_ns,"(-0.7, -0.5)",cs_plus_ns,0,0,0,0,,,,,0,47,47,72,,,,,,,,,,,,,,,266.64932169998065,267.6561935999198,267.6561935999198,267.80204530002084,268.30896930000745,268.30896930000745,268.4547877999721,l,0.7687922999029979,correct,,269.23247269995045,269.48943449999206,267.6561935999198,,,,,,,,,,,,2,B,2023-12-05_10h36.32.791,gca_discrimination,2022.2.4,143.93977580949482,
positions.xlsx,stimuli.xlsx,test.xlsx,stimuli/Social2.png,stimuli/Social1.png,stimuli/Nonsocial1.png,stimuli/Nonsocial2.png,stimuli/Test1.png,stimuli/Test2.png,"(0.7, 0.5)",cs_minus_s,"(0.7, -0.5)",cs_minus_s,0,0,0,0,,,,,0,48,48,68,,,,,,,,,,,,,,,269.48943449999206,270.4963611999992,270.4963611999992,270.6421757999342,271.1491399999941,271.1491399999941,271.29495659994427,l,0.5847836999455467,correct,,271.8921431999188,272.1699145999737,270.4963611999992,,,,,,,,,,,,2,B,2023-12-05_10h36.32.791,gca_discrimination,2022.2.4,143.93977580949482,
positions.xlsx,stimuli.xlsx,test.xlsx,stimuli/Social2.png,stimuli/Social1.png,stimuli/Nonsocial1.png,stimuli/Nonsocial2.png,stimuli/Test1.png,stimuli/Test2.png,"(-0.7, 0.5)",cs_minus_s,"(0.7, -0.5)",cs_plus_s,0,0,0,0,,,,,0,49,49,14,,,,,,,,,,,,,,,272.1699145999737,273.17681420000736,273.17681420000736,273.3226419999264,273.8295707999496,273.8295707999496,273.9753973999759,ä,0.5288614999735728,correct,,274.5169748000335,274.71146389993373,273.17681420000736,,,,,,,,,,,,2,B,2023-12-05_10h36.32.791,gca_discrimination,2022.2.4,143.93977580949482,
positions.xlsx,stimuli.xlsx,test.xlsx,stimuli/Social2.png,stimuli/Social1.png,stimuli/Nonsocial1.png,stimuli/Nonsocial2.png,stimuli/Test1.png,stimuli/Test2.png,"(0.7, -0.5)",cs_minus_s,"(-0.7, 0.5)",cs_plus_s,0,0,0,0,,,,,0,50,50,21,,,,,,,,,,,,,,,274.71146389993373,275.71835089998785,275.71835089998785,275.8641777000157,276.37114609999117,276.37114609999117,276.51693189993966,ä,0.9062578999437392,correct,,277.4335838999832,278.4057789000217,275.71835089998785,,,,,,,,,,,,2,B,2023-12-05_10h36.32.791,gca_discrimination,2022.2.4,143.93977580949482,
positions.xlsx,stimuli.xlsx,test.xlsx,stimuli/Social2.png,stimuli/Social1.png,stimuli/Nonsocial1.png,stimuli/Nonsocial2.png,stimuli/Test1.png,stimuli/Test2.png,"(-0.7, -0.5)",cs_minus_s,"(-0.7, 0.5)",cs_plus_s,0,0,0,0,,,,,0,51,51,15,,,,,,,,,,,,,,,278.4057789000217,279.41264220001176,279.41264220001176,279.55847429996356,280.0654397000326,280.0654397000326,280.2111983000068,ä,0.7802082999842241,correct,,281.0028723999858,281.4542475999333,279.41264220001176,,,,,,,,,,,,2,B,2023-12-05_10h36.32.791,gca_discrimination,2022.2.4,143.93977580949482,
positions.xlsx,stimuli.xlsx,test.xlsx,stimuli/Social2.png,stimuli/Social1.png,stimuli/Nonsocial1.png,stimuli/Nonsocial2.png,stimuli/Test1.png,stimuli/Test2.png,"(-0.7, -0.5)",cs_plus_s,"(0.7, 0.5)",cs_minus_s,0,0,0,0,,,,,0,52,52,4,,,,,,,,,,,,,,,281.4542475999333,282.4611469999654,282.4611469999654,282.60698369995225,283.1138990999898,283.1138990999898,283.2597216999857,ä,0.5875788000412285,correct,,283.85693150002044,284.4055089999456,282.4611469999654,,,,,,,,,,,,2,B,2023-12-05_10h36.32.791,gca_discrimination,2022.2.4,143.93977580949482,
positions.xlsx,stimuli.xlsx,test.xlsx,stimuli/Social2.png,stimuli/Social1.png,stimuli/Nonsocial1.png,stimuli/Nonsocial2.png,stimuli/Test1.png,stimuli/Test2.png,"(-0.7, -0.5)",cs_plus_s,"(-0.7, 0.5)",cs_plus_s,0,0,0,0,,,,,0,53,53,51,,,,,,,,,,,,,,,284.4055089999456,285.41241939994507,285.41241939994507,285.5582428999478,286.0651908,286.0651908,286.2109685000032,l,0.524178700055927,correct,,286.7456751000136,287.58593679999467,285.41241939994507,,,,,,,,,,,,2,B,2023-12-05_10h36.32.791,gca_discrimination,2022.2.4,143.93977580949482,
positions.xlsx,stimuli.xlsx,test.xlsx,stimuli/Social2.png,stimuli/Social1.png,stimuli/Nonsocial1.png,stimuli/Nonsocial2.png,stimuli/Test1.png,stimuli/Test2.png,"(0.7, -0.5)",cs_plus_s,"(-0.7, -0.5)",cs_minus_s,0,0,0,0,,,,,0,54,54,10,,,,,,,,,,,,,,,287.58593679999467,288.5928400999401,288.5928400999401,288.7386684999801,289.24561029998586,289.24561029998586,289.39148769993335,ä,0.7200713999336585,correct,,290.1205565999262,290.39139170001727,288.5928400999401,,,,,,,,,,,,2,B,2023-12-05_10h36.32.791,gca_discrimination,2022.2.4,143.93977580949482,
positions.xlsx,stimuli.xlsx,test.xlsx,stimuli/Social2.png,stimuli/Social1.png,stimuli/Nonsocial1.png,stimuli/Nonsocial2.png,stimuli/Test1.png,stimuli/Test2.png,"(0.7, -0.5)",cs_plus_ns,"(-0.7, -0.5)",cs_minus_ns,0,0,0,0,,,,,0,55,55,34,,,,,,,,,,,,,,,290.39139170001727,291.39829429995734,291.39829429995734,291.54410780000035,292.05102719995193,292.05102719995193,292.1968831999693,ä,0.986559099983424,correct,,293.19680859998334,293.7801288999617,291.39829429995734,,,,,,,,,,,,2,B,2023-12-05_10h36.32.791,gca_discrimination,2022.2.4,143.93977580949482,
positions.xlsx,stimuli.xlsx,test.xlsx,stimuli/Social2.png,stimuli/Social1.png,stimuli/Nonsocial1.png,stimuli/Nonsocial2.png,stimuli/Test1.png,stimuli/Test2.png,"(-0.7, -0.5)",cs_plus_ns,"(0.7, 0.5)",cs_minus_ns,0,0,0,0,,,,,0,56,56,28,,,,,,,,,,,,,,,293.7801288999617,294.78703210002277,294.78703210002277,294.9328620999586,295.43979859992396,295.43979859992396,295.5855869000079,ä,0.5423795999959111,correct,,296.14115579996724,296.41887489997316,294.78703210002277,,,,,,,,,,,,2,B,2023-12-05_10h36.32.791,gca_discrimination,2022.2.4,143.93977580949482,
positions.xlsx,stimuli.xlsx,test.xlsx,stimuli/Social2.png,stimuli/Social1.png,stimuli/Nonsocial1.png,stimuli/Nonsocial2.png,stimuli/Test1.png,stimuli/Test2.png,"(-0.7, 0.5)",cs_minus_ns,"(-0.7, -0.5)",cs_minus_ns,0,0,0,0,,,,,0,57,57,84,,,,,,,,,,,,,,,296.41887489997316,297.4257834999589,297.4257834999589,297.5716187999351,298.07853860000614,298.07853860000614,298.2243889999809,l,0.6950320000760257,correct,,298.93264669994824,298.9395833000308,297.4257834999589,,,,,,,,,,,,2,B,2023-12-05_10h36.32.791,gca_discrimination,2022.2.4,143.93977580949482,
positions.xlsx,stimuli.xlsx,test.xlsx,stimuli/Social2.png,stimuli/Social1.png,stimuli/Nonsocial1.png,stimuli/Nonsocial2.png,stimuli/Test1.png,stimuli/Test2.png,"(0.7, -0.5)",cs_plus_ns,"(0.7, 0.5)",cs_minus_ns,0,0,0,0,,,,,0,58,58,35,,,,,,,,,,,,,,,298.9395833000308,299.94651439995505,299.94651439995505,300.09238589997403,300.59929229994304,300.59929229994304,300.74516139994375,l,0.6634335999842733,wrong,,301.41867029992864,301.4811783999903,299.94651439995505,,,,,,,,,,,,2,B,2023-12-05_10h36.32.791,gca_discrimination,2022.2.4,143.93977580949482,
positions.xlsx,stimuli.xlsx,test.xlsx,stimuli/Social2.png,stimuli/Social1.png,stimuli/Nonsocial1.png,stimuli/Nonsocial2.png,stimuli/Test1.png,stimuli/Test2.png,"(0.7, -0.5)",cs_plus_s,"(-0.7, 0.5)",cs_minus_s,0,0,0,0,,,,,0,59,59,9,,,,,,,,,,,,,,,301.4811783999903,302.4881150999572,302.4881150999572,302.6339228999568,303.1408497999655,303.1408497999655,303.28667950001545,ä,0.9281158000230789,correct,,304.2241254999535,304.36303300003055,302.4881150999572,,,,,,,,,,,,2,B,2023-12-05_10h36.32.791,gca_discrimination,2022.2.4,143.93977580949482,
positions.xlsx,stimuli.xlsx,test.xlsx,stimuli/Social2.png,stimuli/Social1.png,stimuli/Nonsocial1.png,stimuli/Nonsocial2.png,stimuli/Test1.png,stimuli/Test2.png,"(0.7, -0.5)",cs_minus_ns,"(0.7, 0.5)",cs_minus_ns,0,0,0,0,,,,,0,60,60,95,,,,,,,,,,,,,,,304.36303300003055,305.36992129997816,305.36992129997816,305.5157693999354,306.0226728999987,306.0226728999987,306.1685128000099,l,1.1508920000633225,correct,,307.32814739993773,307.4114932999946,305.36992129997816,,,,,,,,,,,,2,B,2023-12-05_10h36.32.791,gca_discrimination,2022.2.4,143.93977580949482,
positions.xlsx,stimuli.xlsx,test.xlsx,stimuli/Social2.png,stimuli/Social1.png,stimuli/Nonsocial1.png,stimuli/Nonsocial2.png,stimuli/Test1.png,stimuli/Test2.png,"(-0.7, -0.5)",cs_minus_s,"(0.7, 0.5)",cs_plus_s,0,0,0,0,,,,,0,61,61,16,,,,,,,,,,,,,,,307.4114932999946,308.4184126999462,308.4184126999462,308.56422059994657,309.0711776999524,309.0711776999524,309.2169874999672,ä,0.8538507999619469,correct,,310.078058199957,310.5363765999209,308.4184126999462,,,,,,,,,,,,2,B,2023-12-05_10h36.32.791,gca_discrimination,2022.2.4,143.93977580949482,
positions.xlsx,stimuli.xlsx,test.xlsx,stimuli/Social2.png,stimuli/Social1.png,stimuli/Nonsocial1.png,stimuli/Nonsocial2.png,stimuli/Test1.png,stimuli/Test2.png,"(0.7, 0.5)",cs_plus_s,"(-0.7, -0.5)",cs_plus_s,0,0,0,0,,,,,0,62,62,55,,,,,,,,,,,,,,,310.5363765999209,311.5432252000319,311.5432252000319,311.68911269993987,312.19603420002386,312.19603420002386,312.3418529999908,l,0.8818276000674814,correct,,313.2306974999374,313.3904342999449,311.5432252000319,,,,,,,,,,,,2,B,2023-12-05_10h36.32.791,gca_discrimination,2022.2.4,143.93977580949482,
positions.xlsx,stimuli.xlsx,test.xlsx,stimuli/Social2.png,stimuli/Social1.png,stimuli/Nonsocial1.png,stimuli/Nonsocial2.png,stimuli/Test1.png,stimuli/Test2.png,"(0.7, 0.5)",cs_plus_ns,"(-0.7, -0.5)",cs_plus_ns,0,0,0,0,,,,,0,63,63,79,,,,,,,,,,,,,,,313.3904342999449,314.3973382000113,314.3973382000113,314.5431450000033,315.0500692999922,315.0500692999922,315.1959134999197,l,0.8674673000350595,correct,,316.07087479997426,316.23747930000536,314.3973382000113,,,,,,,,,,,,2,B,2023-12-05_10h36.32.791,gca_discrimination,2022.2.4,143.93977580949482,
positions.xlsx,stimuli.xlsx,test.xlsx,stimuli/Social2.png,stimuli/Social1.png,stimuli/Nonsocial1.png,stimuli/Nonsocial2.png,stimuli/Test1.png,stimuli/Test2.png,"(-0.7, 0.5)",cs_minus_s,"(-0.7, -0.5)",cs_plus_s,0,0,0,0,,,,,0,64,64,12,,,,,,,,,,,,,,,316.23747930000536,317.2444359000074,317.2444359000074,317.39025669998955,317.89718359999824,317.89718359999824,318.04302009998355,ä,0.7888518000254408,correct,,318.8415877999505,318.8763109999709,317.2444359000074,,,,,,,,,,,,2,B,2023-12-05_10h36.32.791,gca_discrimination,2022.2.4,143.93977580949482,
positions.xlsx,stimuli.xlsx,test.xlsx,stimuli/Social2.png,stimuli/Social1.png,stimuli/Nonsocial1.png,stimuli/Nonsocial2.png,stimuli/Test1.png,stimuli/Test2.png,"(0.7, -0.5)",cs_minus_s,"(0.7, 0.5)",cs_plus_s,0,0,0,0,,,,,0,65,65,23,,,,,,,,,,,,,,,318.8763109999709,319.8831850999268,319.8831850999268,320.02901810000185,320.535984099959,320.535984099959,320.6817845000187,ä,0.5418399999616668,correct,,321.2303838999942,321.61227729998063,319.8831850999268,,,,,,,,,,,,2,B,2023-12-05_10h36.32.791,gca_discrimination,2022.2.4,143.93977580949482,
positions.xlsx,stimuli.xlsx,test.xlsx,stimuli/Social2.png,stimuli/Social1.png,stimuli/Nonsocial1.png,stimuli/Nonsocial2.png,stimuli/Test1.png,stimuli/Test2.png,"(0.7, 0.5)",cs_minus_s,"(-0.7, -0.5)",cs_plus_s,0,0,0,0,,,,,0,66,66,19,,,,,,,,,,,,,,,321.61227729998063,322.6192245000275,322.6192245000275,322.76504969992675,323.27196519996505,323.27196519996505,323.41782089998014,ä,1.285995699930936,correct,,324.7163540000329,325.3690866000252,322.6192245000275,,,,,,,,,,,,2,B,2023-12-05_10h36.32.791,gca_discrimination,2022.2.4,143.93977580949482,
positions.xlsx,stimuli.xlsx,test.xlsx,stimuli/Social2.png,stimuli/Social1.png,stimuli/Nonsocial1.png,stimuli/Nonsocial2.png,stimuli/Test1.png,stimuli/Test2.png,"(0.7, -0.5)",cs_minus_ns,"(-0.7, 0.5)",cs_minus_ns,0,0,0,0,,,,,0,67,67,93,,,,,,,,,,,,,,,325.3690866000252,326.3759964000201,326.3759964000201,326.5218187000137,327.0287475999212,327.0287475999212,327.17456229997333,l,0.6006571999751031,correct,,327.7856593999313,328.04956169996876,326.3759964000201,,,,,,,,,,,,2,B,2023-12-05_10h36.32.791,gca_discrimination,2022.2.4,143.93977580949482,
positions.xlsx,stimuli.xlsx,test.xlsx,stimuli/Social2.png,stimuli/Social1.png,stimuli/Nonsocial1.png,stimuli/Nonsocial2.png,stimuli/Test1.png,stimuli/Test2.png,"(-0.7, -0.5)",cs_plus_s,"(-0.7, 0.5)",cs_minus_s,0,0,0,0,,,,,0,68,68,3,,,,,,,,,,,,,,,328.04956169996876,329.0564423999749,329.0564423999749,329.2022900999291,329.70921110000927,329.70921110000927,329.85501739999745,ä,1.3676084000617266,correct,,331.2298998000333,332.1882514000172,329.0564423999749,,,,,,,,,,,,2,B,2023-12-05_10h36.32.791,gca_discrimination,2022.2.4,143.93977580949482,
positions.xlsx,stimuli.xlsx,test.xlsx,stimuli/Social2.png,stimuli/Social1.png,stimuli/Nonsocial1.png,stimuli/Nonsocial2.png,stimuli/Test1.png,stimuli/Test2.png,"(0.7, 0.5)",cs_plus_s,"(-0.7, 0.5)",cs_plus_s,0,0,0,0,,,,,0,69,69,54,,,,,,,,,,,,,,,332.1882514000172,333.19514550000895,333.19514550000895,333.3409266999224,333.84792159998324,333.84792159998324,333.993733100011,l,0.7175487000495195,correct,,334.7228474000003,335.6464460999705,333.19514550000895,,,,,,,,,,,,2,B,2023-12-05_10h36.32.791,gca_discrimination,2022.2.4,143.93977580949482,
positions.xlsx,stimuli.xlsx,test.xlsx,stimuli/Social2.png,stimuli/Social1.png,stimuli/Nonsocial1.png,stimuli/Nonsocial2.png,stimuli/Test1.png,stimuli/Test2.png,"(0.7, 0.5)",cs_plus_ns,"(0.7, -0.5)",cs_plus_ns,0,0,0,0,,,,,0,70,70,80,,,,,,,,,,,,,,,335.6464460999705,336.65333449991886,336.65333449991886,336.7991975999903,337.30607019993477,337.30607019993477,337.45193749992177,l,0.7307183999801055,correct,,338.19494109996594,338.7018848999869,336.65333449991886,,,,,,,,,,,,2,B,2023-12-05_10h36.32.791,gca_discrimination,2022.2.4,143.93977580949482,
positions.xlsx,stimuli.xlsx,test.xlsx,stimuli/Social2.png,stimuli/Social1.png,stimuli/Nonsocial1.png,stimuli/Nonsocial2.png,stimuli/Test1.png,stimuli/Test2.png,"(0.7, 0.5)",cs_plus_ns,"(-0.7, 0.5)",cs_plus_ns,0,0,0,0,,,,,0,71,71,78,,,,,,,,,,,,,,,338.7018848999869,339.7087719999254,339.7087719999254,339.85458349995315,340.3615104999626,340.3615104999626,340.50732079998124,l,0.8924826000584289,correct,,341.410113299964,342.1947712999536,339.7087719999254,,,,,,,,,,,,2,B,2023-12-05_10h36.32.791,gca_discrimination,2022.2.4,143.93977580949482,
positions.xlsx,stimuli.xlsx,test.xlsx,stimuli/Social2.png,stimuli/Social1.png,stimuli/Nonsocial1.png,stimuli/Nonsocial2.png,stimuli/Test1.png,stimuli/Test2.png,"(0.7, 0.5)",cs_plus_s,"(0.7, -0.5)",cs_plus_s,0,0,0,0,,,,,0,72,72,56,,,,,,,,,,,,,,,342.1947712999536,343.20168790000025,343.20168790000025,343.3475063999649,343.8544360999949,343.8544360999949,344.0002729999833,l,0.6313941000262275,correct,,344.6391374999657,344.8127516999375,343.20168790000025,,,,,,,,,,,,2,B,2023-12-05_10h36.32.791,gca_discrimination,2022.2.4,143.93977580949482,
positions.xlsx,stimuli.xlsx,test.xlsx,stimuli/Social2.png,stimuli/Social1.png,stimuli/Nonsocial1.png,stimuli/Nonsocial2.png,stimuli/Test1.png,stimuli/Test2.png,"(0.7, -0.5)",cs_plus_s,"(0.7, 0.5)",cs_plus_s,0,0,0,0,,,,,0,73,73,59,,,,,,,,,,,,,,,344.8127516999375,345.81965439999476,345.81965439999476,345.9654842999298,346.4723809999414,346.4723809999414,346.6181507000001,l,0.4377025000285357,correct,,347.0626413000282,347.6389851999702,345.81965439999476,,,,,,,,,,,,2,B,2023-12-05_10h36.32.791,gca_discrimination,2022.2.4,143.93977580949482,
positions.xlsx,stimuli.xlsx,test.xlsx,stimuli/Social2.png,stimuli/Social1.png,stimuli/Nonsocial1.png,stimuli/Nonsocial2.png,stimuli/Test1.png,stimuli/Test2.png,"(-0.7, -0.5)",cs_minus_ns,"(0.7, -0.5)",cs_plus_ns,0,0,0,0,,,,,0,74,74,41,,,,,,,,,,,,,,,347.6389851999702,348.64591039996594,348.64591039996594,348.7917286999291,349.298707799986,349.298707799986,349.44449739996344,ä,0.6031150999478996,correct,,350.0556139999535,350.326362999971,348.64591039996594,,,,,,,,,,,,2,B,2023-12-05_10h36.32.791,gca_discrimination,2022.2.4,143.93977580949482,
positions.xlsx,stimuli.xlsx,test.xlsx,stimuli/Social2.png,stimuli/Social1.png,stimuli/Nonsocial1.png,stimuli/Nonsocial2.png,stimuli/Test1.png,stimuli/Test2.png,"(0.7, 0.5)",cs_minus_ns,"(-0.7, 0.5)",cs_plus_ns,0,0,0,0,,,,,0,75,75,42,,,,,,,,,,,,,,,350.326362999971,351.3332970000338,351.3332970000338,351.479118200019,351.9860409999965,351.9860409999965,352.1318845000351,ä,0.5007661000126973,correct,,352.6456978999777,353.5832065999275,351.3332970000338,,,,,,,,,,,,2,B,2023-12-05_10h36.32.791,gca_discrimination,2022.2.4,143.93977580949482,
positions.xlsx,stimuli.xlsx,test.xlsx,stimuli/Social2.png,stimuli/Social1.png,stimuli/Nonsocial1.png,stimuli/Nonsocial2.png,stimuli/Test1.png,stimuli/Test2.png,"(0.7, -0.5)",cs_plus_ns,"(0.7, 0.5)",cs_plus_ns,0,0,0,0,,,,,0,76,76,83,,,,,,,,,,,,,,,353.5832065999275,354.5901208999567,354.5901208999567,354.7358978999546,355.24285569996573,355.24285569996573,355.3886964999838,l,0.5470239000860602,correct,,355.94421430001967,356.88168949994724,354.5901208999567,,,,,,,,,,,,2,B,2023-12-05_10h36.32.791,gca_discrimination,2022.2.4,143.93977580949482,
positions.xlsx,stimuli.xlsx,test.xlsx,stimuli/Social2.png,stimuli/Social1.png,stimuli/Nonsocial1.png,stimuli/Nonsocial2.png,stimuli/Test1.png,stimuli/Test2.png,"(0.7, 0.5)",cs_plus_s,"(-0.7, -0.5)",cs_minus_s,0,0,0,0,,,,,0,77,77,7,,,,,,,,,,,,,,,356.88168949994724,357.88857970002573,357.88857970002573,358.03440060000867,358.54134589992464,358.54134589992464,358.6871690999251,ä,0.53600079996977,correct,,359.2357414999278,359.40239639999345,357.88857970002573,,,,,,,,,,,,2,B,2023-12-05_10h36.32.791,gca_discrimination,2022.2.4,143.93977580949482,
positions.xlsx,stimuli.xlsx,test.xlsx,stimuli/Social2.png,stimuli/Social1.png,stimuli/Nonsocial1.png,stimuli/Nonsocial2.png,stimuli/Test1.png,stimuli/Test2.png,"(0.7, -0.5)",cs_plus_ns,"(-0.7, 0.5)",cs_minus_ns,0,0,0,0,,,,,0,78,78,33,,,,,,,,,,,,,,,359.40239639999345,360.40930229995865,360.40930229995865,360.55518489994574,361.06205559999216,361.06205559999216,361.2079262000043,None,,no answer,,363.20783810003195,364.13139679993037,360.40930229995865,,,,,,,,,,,,2,B,2023-12-05_10h36.32.791,gca_discrimination,2022.2.4,143.93977580949482,
positions.xlsx,stimuli.xlsx,test.xlsx,stimuli/Social2.png,stimuli/Social1.png,stimuli/Nonsocial1.png,stimuli/Nonsocial2.png,stimuli/Test1.png,stimuli/Test2.png,"(0.7, 0.5)",cs_plus_s,"(-0.7, 0.5)",cs_minus_s,0,0,0,0,,,,,0,79,79,6,,,,,,,,,,,,,,,364.13139679993037,365.1382852999959,365.1382852999959,365.2841174999485,365.79103099997155,365.79103099997155,365.93685930001084,ä,0.7103238001000136,correct,,366.6590189000126,367.4089978999691,365.1382852999959,,,,,,,,,,,,2,B,2023-12-05_10h36.32.791,gca_discrimination,2022.2.4,143.93977580949482,
positions.xlsx,stimuli.xlsx,test.xlsx,stimuli/Social2.png,stimuli/Social1.png,stimuli/Nonsocial1.png,stimuli/Nonsocial2.png,stimuli/Test1.png,stimuli/Test2.png,"(-0.7, 0.5)",cs_minus_ns,"(0.7, -0.5)",cs_minus_ns,0,0,0,0,,,,,0,80,80,86,,,,,,,,,,,,,,,367.4089978999691,368.4159271999961,368.4159271999961,368.5617449999554,369.06867309997324,369.06867309997324,369.21448550000787,l,0.6484120000386611,correct,,369.8741783000296,370.0339239999885,368.4159271999961,,,,,,,,,,,,2,B,2023-12-05_10h36.32.791,gca_discrimination,2022.2.4,143.93977580949482,
positions.xlsx,stimuli.xlsx,test.xlsx,stimuli/Social2.png,stimuli/Social1.png,stimuli/Nonsocial1.png,stimuli/Nonsocial2.png,stimuli/Test1.png,stimuli/Test2.png,"(-0.7, 0.5)",cs_minus_ns,"(0.7, -0.5)",cs_plus_ns,0,0,0,0,,,,,0,81,81,38,,,,,,,,,,,,,,,370.0339239999885,371.040832699975,371.040832699975,371.18665559997316,371.693600300001,371.693600300001,371.8393997999374,ä,0.8560155999148265,correct,,372.7073970999336,373.297639299999,371.040832699975,,,,,,,,,,,,2,B,2023-12-05_10h36.32.791,gca_discrimination,2022.2.4,143.93977580949482,
positions.xlsx,stimuli.xlsx,test.xlsx,stimuli/Social2.png,stimuli/Social1.png,stimuli/Nonsocial1.png,stimuli/Nonsocial2.png,stimuli/Test1.png,stimuli/Test2.png,"(0.7, 0.5)",cs_plus_ns,"(-0.7, -0.5)",cs_minus_ns,0,0,0,0,,,,,0,82,82,31,,,,,,,,,,,,,,,373.297639299999,374.3045883999439,374.3045883999439,374.45036999997683,374.95729369996116,374.95729369996116,375.10314809996635,ä,0.793078999966383,correct,,375.9086733999429,376.8739083999535,374.3045883999439,,,,,,,,,,,,2,B,2023-12-05_10h36.32.791,gca_discrimination,2022.2.4,143.93977580949482,
positions.xlsx,stimuli.xlsx,test.xlsx,stimuli/Social2.png,stimuli/Social1.png,stimuli/Nonsocial1.png,stimuli/Nonsocial2.png,stimuli/Test1.png,stimuli/Test2.png,"(0.7, -0.5)",cs_plus_s,"(-0.7, 0.5)",cs_plus_s,0,0,0,0,,,,,0,83,83,57,,,,,,,,,,,,,,,376.8739083999535,377.8807839999208,377.8807839999208,378.026638399926,378.5335671999492,378.5335671999492,378.67939840001054,l,0.44803219998721033,correct,,379.1377132999478,379.2279892999213,377.8807839999208,,,,,,,,,,,,2,B,2023-12-05_10h36.32.791,gca_discrimination,2022.2.4,143.93977580949482,
positions.xlsx,stimuli.xlsx,test.xlsx,stimuli/Social2.png,stimuli/Social1.png,stimuli/Nonsocial1.png,stimuli/Nonsocial2.png,stimuli/Test1.png,stimuli/Test2.png,"(-0.7, 0.5)",cs_minus_s,"(-0.7, -0.5)",cs_minus_s,0,0,0,0,,,,,0,84,84,60,,,,,,,,,,,,,,,379.2279892999213,380.23487209994346,380.23487209994346,380.3807044000132,380.8876273999922,380.8876273999922,381.03346069995314,l,0.7731823999201879,correct,,381.8181184999412,382.3528214999242,380.23487209994346,,,,,,,,,,,,2,B,2023-12-05_10h36.32.791,gca_discrimination,2022.2.4,143.93977580949482,
positions.xlsx,stimuli.xlsx,test.xlsx,stimuli/Social2.png,stimuli/Social1.png,stimuli/Nonsocial1.png,stimuli/Nonsocial2.png,stimuli/Test1.png,stimuli/Test2.png,"(-0.7, 0.5)",cs_plus_ns,"(0.7, -0.5)",cs_minus_ns,0,0,0,0,,,,,0,85,85,26,,,,,,,,,,,,,,,382.3528214999242,383.35973779996857,383.35973779996857,383.5055518000154,384.01250179996714,384.01250179996714,384.1582746999338,ä,0.8326374000171199,correct,,384.9985822000308,385.811037199921,383.35973779996857,,,,,,,,,,,,2,B,2023-12-05_10h36.32.791,gca_discrimination,2022.2.4,143.93977580949482,
positions.xlsx,stimuli.xlsx,test.xlsx,stimuli/Social2.png,stimuli/Social1.png,stimuli/Nonsocial1.png,stimuli/Nonsocial2.png,stimuli/Test1.png,stimuli/Test2.png,"(-0.7, -0.5)",cs_plus_ns,"(-0.7, 0.5)",cs_minus_ns,0,0,0,0,,,,,0,86,86,27,,,,,,,,,,,,,,,385.811037199921,386.81794680003077,386.81794680003077,386.9637554999208,387.4707114000339,387.4707114000339,387.6165398999583,ä,0.8304012999869883,correct,,388.456767900032,389.42198679992,386.81794680003077,,,,,,,,,,,,2,B,2023-12-05_10h36.32.791,gca_discrimination,2022.2.4,143.93977580949482,
positions.xlsx,stimuli.xlsx,test.xlsx,stimuli/Social2.png,stimuli/Social1.png,stimuli/Nonsocial1.png,stimuli/Nonsocial2.png,stimuli/Test1.png,stimuli/Test2.png,"(-0.7, -0.5)",cs_minus_s,"(0.7, -0.5)",cs_plus_s,0,0,0,0,,,,,0,87,87,17,,,,,,,,,,,,,,,389.42198679992,390.42893399996683,390.42893399996683,390.57470350002404,391.08163339993916,391.08163339993916,391.2274641999975,ä,0.9080498000839725,correct,,392.1441156999208,392.8663230999373,390.42893399996683,,,,,,,,,,,,2,B,2023-12-05_10h36.32.791,gca_discrimination,2022.2.4,143.93977580949482,
positions.xlsx,stimuli.xlsx,test.xlsx,stimuli/Social2.png,stimuli/Social1.png,stimuli/Nonsocial1.png,stimuli/Nonsocial2.png,stimuli/Test1.png,stimuli/Test2.png,"(-0.7, -0.5)",cs_plus_ns,"(0.7, -0.5)",cs_minus_ns,0,0,0,0,,,,,0,88,88,29,,,,,,,,,,,,,,,392.8663230999373,393.8731733999448,393.8731733999448,394.01904209994245,394.5259085999569,394.5259085999569,394.6718120999867,ä,0.4229003000073135,correct,,395.10232479998376,395.5745547999395,393.8731733999448,,,,,,,,,,,,2,B,2023-12-05_10h36.32.791,gca_discrimination,2022.2.4,143.93977580949482,
positions.xlsx,stimuli.xlsx,test.xlsx,stimuli/Social2.png,stimuli/Social1.png,stimuli/Nonsocial1.png,stimuli/Nonsocial2.png,stimuli/Test1.png,stimuli/Test2.png,"(-0.7, 0.5)",cs_plus_s,"(0.7, -0.5)",cs_minus_s,0,0,0,0,,,,,0,89,89,2,,,,,,,,,,,,,,,395.5745547999395,396.5814171999227,396.5814171999227,396.72728140000254,397.2342384000076,397.2342384000076,397.3799902999308,ä,0.4507077999878675,correct,,397.83830940001644,398.48413240001537,396.5814171999227,,,,,,,,,,,,2,B,2023-12-05_10h36.32.791,gca_discrimination,2022.2.4,143.93977580949482,
positions.xlsx,stimuli.xlsx,test.xlsx,stimuli/Social2.png,stimuli/Social1.png,stimuli/Nonsocial1.png,stimuli/Nonsocial2.png,stimuli/Test1.png,stimuli/Test2.png,"(0.7, -0.5)",cs_plus_s,"(0.7, 0.5)",cs_minus_s,0,0,0,0,,,,,0,90,90,11,,,,,,,,,,,,,,,398.48413240001537,399.4910097999964,399.4910097999964,399.6368302999763,400.14380820002407,400.14380820002407,400.2896017000312,ä,0.5345790999708697,correct,,400.8312542999629,400.87986669992097,399.4910097999964,,,,,,,,,,,,2,B,2023-12-05_10h36.32.791,gca_discrimination,2022.2.4,143.93977580949482,
positions.xlsx,stimuli.xlsx,test.xlsx,stimuli/Social2.png,stimuli/Social1.png,stimuli/Nonsocial1.png,stimuli/Nonsocial2.png,stimuli/Test1.png,stimuli/Test2.png,"(-0.7, 0.5)",cs_plus_s,"(-0.7, -0.5)",cs_minus_s,0,0,0,0,,,,,0,91,91,0,,,,,,,,,,,,,,,400.87986669992097,401.88671629992314,401.88671629992314,402.03262089996133,402.5394925000146,402.5394925000146,402.68533979996573,ä,0.4982243999838829,correct,,403.1922833999852,403.28255330002867,401.88671629992314,,,,,,,,,,,,2,B,2023-12-05_10h36.32.791,gca_discrimination,2022.2.4,143.93977580949482,
positions.xlsx,stimuli.xlsx,test.xlsx,stimuli/Social2.png,stimuli/Social1.png,stimuli/Nonsocial1.png,stimuli/Nonsocial2.png,stimuli/Test1.png,stimuli/Test2.png,"(-0.7, 0.5)",cs_plus_ns,"(0.7, -0.5)",cs_plus_ns,0,0,0,0,,,,,0,92,92,74,,,,,,,,,,,,,,,403.28255330002867,404.2894299000036,404.2894299000036,404.43527429993264,404.9421751999762,404.9421751999762,405.0880366000347,l,0.702542099985294,correct,,405.80325969995465,406.3171427999623,404.2894299000036,,,,,,,,,,,,2,B,2023-12-05_10h36.32.791,gca_discrimination,2022.2.4,143.93977580949482,
positions.xlsx,stimuli.xlsx,test.xlsx,stimuli/Social2.png,stimuli/Social1.png,stimuli/Nonsocial1.png,stimuli/Nonsocial2.png,stimuli/Test1.png,stimuli/Test2.png,"(-0.7, 0.5)",cs_plus_ns,"(-0.7, -0.5)",cs_minus_ns,0,0,0,0,,,,,0,93,93,24,,,,,,,,,,,,,,,406.3171427999623,407.32404420000967,407.32404420000967,407.46988230000716,407.9768085000105,407.9768085000105,408.1226348999189,ä,0.7959102999884635,correct,,408.928123199963,409.4072423999896,407.32404420000967,,,,,,,,,,,,2,B,2023-12-05_10h36.32.791,gca_discrimination,2022.2.4,143.93977580949482,
positions.xlsx,stimuli.xlsx,test.xlsx,stimuli/Social2.png,stimuli/Social1.png,stimuli/Nonsocial1.png,stimuli/Nonsocial2.png,stimuli/Test1.png,stimuli/Test2.png,"(-0.7, -0.5)",cs_minus_s,"(0.7, 0.5)",cs_minus_s,0,0,0,0,,,,,0,94,94,64,,,,,,,,,,,,,,,409.4072423999896,410.4142262999667,410.4142262999667,410.56003839999903,411.0669414999429,411.0669414999429,411.2127977999626,l,0.6497482999693602,correct,,411.8724366999231,411.99746640003286,410.4142262999667,,,,,,,,,,,,2,B,2023-12-05_10h36.32.791,gca_discrimination,2022.2.4,143.93977580949482,
positions.xlsx,stimuli.xlsx,test.xlsx,stimuli/Social2.png,stimuli/Social1.png,stimuli/Nonsocial1.png,stimuli/Nonsocial2.png,stimuli/Test1.png,stimuli/Test2.png,"(0.7, 0.5)",cs_minus_ns,"(-0.7, -0.5)",cs_plus_ns,0,0,0,0,,,,,0,95,95,43,,,,,,,,,,,,,,,411.99746640003286,413.004331599921,413.004331599921,413.1501668000128,413.65714559995104,413.65714559995104,413.8029060999397,ä,0.6365201999433339,correct,,414.4487610999495,414.5390228999313,413.004331599921,,,,,,,,,,,,2,B,2023-12-05_10h36.32.791,gca_discrimination,2022.2.4,143.93977580949482,
