posFile,stimFile,testFile,cs_plus_s,cs_minus_s,cs_plus_ns,cs_minus_ns,test1,test2,position1,trialtype,position2,comptype,blocks.thisRepN,blocks.thisTrialN,blocks.thisN,blocks.thisIndex,learning_trials.thisRepN,learning_trials.thisTrialN,learning_trials.thisN,learning_trials.thisIndex,trials.thisRepN,trials.thisTrialN,trials.thisN,trials.thisIndex,textStart.started,spaceStart.started,spaceStart.keys,spaceStart.rt,textStartExp.started,textExpImages.started,ImageLearning1.started,ImageLearning2.started,textSpace.started,spaceStartExp.started,spaceStartExp.keys,spaceStartExp.rt,blankScreen.started,blankScreen.stopped,fixcross.started,firstImage.started,fixcrossImage1.started,fixcrossITI.started,secondImage.started,fixcrossImage2.started,key.started,key.keys,key.rt,correctness,feedbackText.started,fixcrossEnd.started,fixcrossEnd.stopped,fixcross.stopped,feedbackText.stopped,textStartTask.started,textTaskImages.started,ImageTask1.started,ImageTask2.started,ImageTask3.started,ImageTask4.started,textTaskSpace.started,spaceStartTask.started,spaceStartTask.keys,spaceStartTask.rt,participant,group,date,expName,psychopyVersion,frameRate,
,,,,,,,,,,,,,,,,,,,,,,,,,11.125460400013253,11.125460400013253,space,2.4908847999904538,,,,,,,,,,,,,,,,,,,,,,,,,,,,,,,,,,,,13,C,2023-12-08_13h42.24.072,gca_discrimination,2022.2.4,144.28390454493035,
positions.xlsx,stimuli.xlsx,test.xlsx,stimuli/Social1.png,stimuli/Social2.png,stimuli/Nonsocial2.png,stimuli/Nonsocial1.png,stimuli/Test1.png,stimuli/Test2.png,"(-0.7, -0.5)",test1,"(0.7, 0.5)",test2,0,0,0,0,0,0,0,8,,,,,,,,,13.639307200006442,13.639307200006442,13.639307200006442,13.639307200006442,13.639307200006442,13.639307200006442,space,23.385295999993104,37.03421380001237,38.763320000012754,38.763320000012754,39.77716680000594,39.77716680000594,39.90908219999983,40.42295940000622,40.42295940000622,40.56184820001363,ä,0.6469637999980478,correct,41.2284970000037,43.22843339999963,43.735342700005276,,,,,,,,,,,,,13,C,2023-12-08_13h42.24.072,gca_discrimination,2022.2.4,144.28390454493035,
positions.xlsx,stimuli.xlsx,test.xlsx,stimuli/Social1.png,stimuli/Social2.png,stimuli/Nonsocial2.png,stimuli/Nonsocial1.png,stimuli/Test1.png,stimuli/Test2.png,"(-0.7, 0.5)",test1,"(0.7, -0.5)",test1,0,0,0,0,0,1,1,5,,,,,,,,,,,,,,,,,,,43.735342700005276,44.74226970000018,44.74226970000018,44.88805530000536,45.38807380000071,45.38807380000071,45.54084110000986,l,0.3083578999794554,correct,45.86027130000002,47.86020830000052,48.478250000000116,44.74226970000018,47.86020830000052,,,,,,,,,,,13,C,2023-12-08_13h42.24.072,gca_discrimination,2022.2.4,144.28390454493035,
positions.xlsx,stimuli.xlsx,test.xlsx,stimuli/Social1.png,stimuli/Social2.png,stimuli/Nonsocial2.png,stimuli/Nonsocial1.png,stimuli/Test1.png,stimuli/Test2.png,"(0.7, 0.5)",test1,"(0.7, -0.5)",test2,0,0,0,0,0,2,2,11,,,,,,,,,,,,,,,,,,,48.478250000000116,49.47817090000899,49.47817090000899,49.6309229000035,50.130906400008826,50.130906400008826,50.283711900003254,ä,0.37242079997668043,correct,50.665627599999425,52.66553019999992,53.415501600000425,49.47817090000899,52.66553019999992,,,,,,,,,,,13,C,2023-12-08_13h42.24.072,gca_discrimination,2022.2.4,144.28390454493035,
positions.xlsx,stimuli.xlsx,test.xlsx,stimuli/Social1.png,stimuli/Social2.png,stimuli/Nonsocial2.png,stimuli/Nonsocial1.png,stimuli/Test1.png,stimuli/Test2.png,"(0.7, 0.5)",test2,"(0.7, -0.5)",test1,0,0,0,0,0,3,3,6,,,,,,,,,,,,,,,,,,,53.415501600000425,54.41547150000406,54.41547150000406,54.568263200009824,55.06823110001278,55.06823110001278,55.221004400009406,ä,0.5482975999912014,correct,55.77653580000333,57.77645699999994,58.484771200004616,54.41547150000406,57.77645699999994,,,,,,,,,,,13,C,2023-12-08_13h42.24.072,gca_discrimination,2022.2.4,144.28390454493035,
positions.xlsx,stimuli.xlsx,test.xlsx,stimuli/Social1.png,stimuli/Social2.png,stimuli/Nonsocial2.png,stimuli/Nonsocial1.png,stimuli/Test1.png,stimuli/Test2.png,"(-0.7, 0.5)",test2,"(0.7, 0.5)",test1,0,0,0,0,0,4,4,3,,,,,,,,,,,,,,,,,,,58.484771200004616,59.48472690000199,59.48472690000199,59.6375079999998,60.13749170000665,60.13749170000665,60.290251000013086,ä,0.6947420999931637,correct,60.998528200012515,62.998487500008196,63.67206540000916,59.48472690000199,62.998487500008196,,,,,,,,,,,13,C,2023-12-08_13h42.24.072,gca_discrimination,2022.2.4,144.28390454493035,
positions.xlsx,stimuli.xlsx,test.xlsx,stimuli/Social1.png,stimuli/Social2.png,stimuli/Nonsocial2.png,stimuli/Nonsocial1.png,stimuli/Test1.png,stimuli/Test2.png,"(-0.7, 0.5)",test2,"(-0.7, -0.5)",test2,0,0,0,0,0,5,5,1,,,,,,,,,,,,,,,,,,,63.67206540000916,64.67200270001194,64.67200270001194,64.82478320000519,65.32477690000087,65.32477690000087,65.47755170000892,ä,0.3557196999900043,wrong,65.85253380000358,67.8524613000045,68.67187990000821,64.67200270001194,,,,,,,,,,,,13,C,2023-12-08_13h42.24.072,gca_discrimination,2022.2.4,144.28390454493035,
positions.xlsx,stimuli.xlsx,test.xlsx,stimuli/Social1.png,stimuli/Social2.png,stimuli/Nonsocial2.png,stimuli/Nonsocial1.png,stimuli/Test1.png,stimuli/Test2.png,"(-0.7, -0.5)",test2,"(0.7, -0.5)",test2,0,0,0,0,0,6,6,9,,,,,,,,,,,,,,,,,,,68.67187990000821,69.67879780000658,69.67879780000658,69.8246216000116,70.32460620001075,70.32460620001075,70.47735610000382,l,0.5788937999896007,correct,71.06758410000475,73.06752960001177,73.81052670000645,69.67879780000658,73.06752960001177,,,,,,,,,,,13,C,2023-12-08_13h42.24.072,gca_discrimination,2022.2.4,144.28390454493035,
positions.xlsx,stimuli.xlsx,test.xlsx,stimuli/Social1.png,stimuli/Social2.png,stimuli/Nonsocial2.png,stimuli/Nonsocial1.png,stimuli/Test1.png,stimuli/Test2.png,"(-0.7, 0.5)",test2,"(0.7, -0.5)",test1,0,0,0,0,0,7,7,12,,,,,,,,,,,,,,,,,,,73.81052670000645,74.81051800001296,74.81051800001296,74.96326930000214,75.46327580000798,75.46327580000798,75.61605330000748,ä,0.6567300999886356,correct,76.28271340001083,78.28258280000591,79.26172930000757,74.81051800001296,78.28258280000591,,,,,,,,,,,13,C,2023-12-08_13h42.24.072,gca_discrimination,2022.2.4,144.28390454493035,
positions.xlsx,stimuli.xlsx,test.xlsx,stimuli/Social1.png,stimuli/Social2.png,stimuli/Nonsocial2.png,stimuli/Nonsocial1.png,stimuli/Test1.png,stimuli/Test2.png,"(0.7, -0.5)",test2,"(-0.7, 0.5)",test1,0,0,0,0,0,8,8,4,,,,,,,,,,,,,,,,,,,79.26172930000757,80.26171910000267,80.26171910000267,80.4144634000113,80.91442410000309,80.91442410000309,81.06718660000479,ä,1.765626499982318,correct,82.84488509999937,84.8448470000003,85.61563860000751,80.26171910000267,84.8448470000003,,,,,,,,,,,13,C,2023-12-08_13h42.24.072,gca_discrimination,2022.2.4,144.28390454493035,
positions.xlsx,stimuli.xlsx,test.xlsx,stimuli/Social1.png,stimuli/Social2.png,stimuli/Nonsocial2.png,stimuli/Nonsocial1.png,stimuli/Test1.png,stimuli/Test2.png,"(0.7, -0.5)",test1,"(0.7, 0.5)",test2,0,0,0,0,0,9,9,0,,,,,,,,,,,,,,,,,,,85.61563860000751,86.61563200000091,86.61563200000091,86.76838760000828,87.27530530000513,87.27530530000513,87.42116640000313,ä,0.42716149998886976,correct,87.8586357000022,89.85854140001175,90.44183730000805,86.61563200000091,89.85854140001175,,,,,,,,,,,13,C,2023-12-08_13h42.24.072,gca_discrimination,2022.2.4,144.28390454493035,
positions.xlsx,stimuli.xlsx,test.xlsx,stimuli/Social1.png,stimuli/Social2.png,stimuli/Nonsocial2.png,stimuli/Nonsocial1.png,stimuli/Test1.png,stimuli/Test2.png,"(0.7, 0.5)",test2,"(-0.7, 0.5)",test1,0,0,0,0,0,10,10,13,,,,,,,,,,,,,,,,,,,90.44183730000805,91.44878970000718,91.44878970000718,91.59456409999984,92.0945716000133,92.0945716000133,92.24734120001085,ä,0.40939699998125434,correct,92.66396660001192,94.66389190001064,94.886078800002,91.44878970000718,94.66389190001064,,,,,,,,,,,13,C,2023-12-08_13h42.24.072,gca_discrimination,2022.2.4,144.28390454493035,
positions.xlsx,stimuli.xlsx,test.xlsx,stimuli/Social1.png,stimuli/Social2.png,stimuli/Nonsocial2.png,stimuli/Nonsocial1.png,stimuli/Test1.png,stimuli/Test2.png,"(0.7, -0.5)",test1,"(0.7, 0.5)",test1,0,0,0,0,0,11,11,10,,,,,,,,,,,,,,,,,,,94.886078800002,95.88607800001046,95.88607800001046,96.03885470000387,96.53883720000158,96.53883720000158,96.691610400012,l,0.31741319998400286,correct,97.01797880000959,99.01788240000315,99.84427060000598,95.88607800001046,99.01788240000315,,,,,,,,,,,13,C,2023-12-08_13h42.24.072,gca_discrimination,2022.2.4,144.28390454493035,
positions.xlsx,stimuli.xlsx,test.xlsx,stimuli/Social1.png,stimuli/Social2.png,stimuli/Nonsocial2.png,stimuli/Nonsocial1.png,stimuli/Test1.png,stimuli/Test2.png,"(-0.7, -0.5)",test2,"(-0.7, 0.5)",test2,0,0,0,0,0,12,12,2,,,,,,,,,,,,,,,,,,,99.84427060000598,100.84422270000505,100.84422270000505,100.99700350000057,101.4969892000081,101.4969892000081,101.6498006000038,l,0.4552378999796929,correct,102.11504940000304,104.11494450000464,104.33016720000887,100.84422270000505,104.11494450000464,,,,,,,,,,,13,C,2023-12-08_13h42.24.072,gca_discrimination,2022.2.4,144.28390454493035,
positions.xlsx,stimuli.xlsx,test.xlsx,stimuli/Social1.png,stimuli/Social2.png,stimuli/Nonsocial2.png,stimuli/Nonsocial1.png,stimuli/Test1.png,stimuli/Test2.png,"(-0.7, -0.5)",test2,"(0.7, 0.5)",test2,0,0,0,0,0,13,13,7,,,,,,,,,,,,,,,,,,,104.33016720000887,105.33016150000913,105.33016150000913,105.48295150000195,105.9829083000077,105.9829083000077,106.13567990000593,l,0.3527207999868551,correct,106.49676040001214,108.49668460000248,108.82305740000447,105.33016150000913,108.49668460000248,,,,,,,,,,,13,C,2023-12-08_13h42.24.072,gca_discrimination,2022.2.4,144.28390454493035,
positions.xlsx,stimuli.xlsx,test.xlsx,stimuli/Social1.png,stimuli/Social2.png,stimuli/Nonsocial2.png,stimuli/Nonsocial1.png,stimuli/Test1.png,stimuli/Test2.png,"(0.7, -0.5)",cs_plus_s,"(0.7, 0.5)",cs_plus_s,0,0,0,0,,,,,0,0,0,59,,,,,,,,,,,,,115.78807629999937,117.78107280000404,117.78107280000404,118.78102070000023,118.78102070000023,118.91991350000899,119.4268216000055,119.4268216000055,119.57264170001145,l,1.1565447999746539,correct,,120.73929760001192,121.54477190000762,,,108.82305740000447,108.82305740000447,108.82305740000447,108.82305740000447,108.82305740000447,108.82305740000447,108.82305740000447,108.82305740000447,space,6.954005499981577,13,C,2023-12-08_13h42.24.072,gca_discrimination,2022.2.4,144.28390454493035,
positions.xlsx,stimuli.xlsx,test.xlsx,stimuli/Social1.png,stimuli/Social2.png,stimuli/Nonsocial2.png,stimuli/Nonsocial1.png,stimuli/Test1.png,stimuli/Test2.png,"(0.7, 0.5)",cs_plus_s,"(0.7, -0.5)",cs_minus_s,0,0,0,0,,,,,0,1,1,8,,,,,,,,,,,,,,,121.54477190000762,122.55168560000311,122.55168560000311,122.69753150000179,123.20446410001023,123.20446410001023,123.35029150001355,ä,0.48233719998097513,correct,,123.84332759999961,124.3502628999995,122.55168560000311,,,,,,,,,,,,13,C,2023-12-08_13h42.24.072,gca_discrimination,2022.2.4,144.28390454493035,
positions.xlsx,stimuli.xlsx,test.xlsx,stimuli/Social1.png,stimuli/Social2.png,stimuli/Nonsocial2.png,stimuli/Nonsocial1.png,stimuli/Test1.png,stimuli/Test2.png,"(-0.7, -0.5)",cs_minus_ns,"(0.7, 0.5)",cs_plus_ns,0,0,0,0,,,,,0,2,2,40,,,,,,,,,,,,,,,124.3502628999995,125.35714460001327,125.35714460001327,125.50298380000459,126.00991650001379,126.00991650001379,126.1557654000062,l,0.8685903999867151,wrong,,127.03760510000575,127.72511530001066,125.35714460001327,,,,,,,,,,,,13,C,2023-12-08_13h42.24.072,gca_discrimination,2022.2.4,144.28390454493035,
positions.xlsx,stimuli.xlsx,test.xlsx,stimuli/Social1.png,stimuli/Social2.png,stimuli/Nonsocial2.png,stimuli/Nonsocial1.png,stimuli/Test1.png,stimuli/Test2.png,"(0.7, -0.5)",cs_minus_s,"(-0.7, 0.5)",cs_plus_s,0,0,0,0,,,,,0,3,3,21,,,,,,,,,,,,,,,127.72511530001066,128.73197520000394,128.73197520000394,128.87790300000052,129.38478590000886,129.38478590000886,129.5306253000017,ä,0.982299499984947,correct,,130.523663400003,131.23889070001314,128.73197520000394,,,,,,,,,,,,13,C,2023-12-08_13h42.24.072,gca_discrimination,2022.2.4,144.28390454493035,
positions.xlsx,stimuli.xlsx,test.xlsx,stimuli/Social1.png,stimuli/Social2.png,stimuli/Nonsocial2.png,stimuli/Nonsocial1.png,stimuli/Test1.png,stimuli/Test2.png,"(0.7, 0.5)",cs_plus_s,"(-0.7, -0.5)",cs_minus_s,0,0,0,0,,,,,0,4,4,7,,,,,,,,,,,,,,,131.23889070001314,132.24577720000525,132.24577720000525,132.3916062000062,132.89854160000687,132.89854160000687,133.04436230000283,ä,0.44418909997330047,correct,,133.4957099000021,133.5096396000008,132.24577720000525,,,,,,,,,,,,13,C,2023-12-08_13h42.24.072,gca_discrimination,2022.2.4,144.28390454493035,
positions.xlsx,stimuli.xlsx,test.xlsx,stimuli/Social1.png,stimuli/Social2.png,stimuli/Nonsocial2.png,stimuli/Nonsocial1.png,stimuli/Test1.png,stimuli/Test2.png,"(0.7, -0.5)",cs_plus_s,"(0.7, 0.5)",cs_minus_s,0,0,0,0,,,,,0,5,5,11,,,,,,,,,,,,,,,133.5096396000008,134.51649890000408,134.51649890000408,134.66235190001316,135.16925340000307,135.16925340000307,135.315110800002,ä,0.533320599977742,correct,,135.8567519000062,136.02341740000702,134.51649890000408,,,,,,,,,,,,13,C,2023-12-08_13h42.24.072,gca_discrimination,2022.2.4,144.28390454493035,
positions.xlsx,stimuli.xlsx,test.xlsx,stimuli/Social1.png,stimuli/Social2.png,stimuli/Nonsocial2.png,stimuli/Nonsocial1.png,stimuli/Test1.png,stimuli/Test2.png,"(0.7, -0.5)",cs_minus_ns,"(0.7, 0.5)",cs_minus_ns,0,0,0,0,,,,,0,6,6,95,,,,,,,,,,,,,,,136.02341740000702,137.0303156000009,137.0303156000009,137.17615290000685,137.68313240000862,137.68313240000862,137.82890060001228,l,0.41202779999002814,correct,,138.25246550000156,138.48854800000845,137.0303156000009,,,,,,,,,,,,13,C,2023-12-08_13h42.24.072,gca_discrimination,2022.2.4,144.28390454493035,
positions.xlsx,stimuli.xlsx,test.xlsx,stimuli/Social1.png,stimuli/Social2.png,stimuli/Nonsocial2.png,stimuli/Nonsocial1.png,stimuli/Test1.png,stimuli/Test2.png,"(-0.7, -0.5)",cs_plus_ns,"(-0.7, 0.5)",cs_plus_ns,0,0,0,0,,,,,0,7,7,75,,,,,,,,,,,,,,,138.48854800000845,139.49544580001384,139.49544580001384,139.6413687000022,140.14825630000269,140.14825630000269,140.29407150000043,l,0.4821296999871265,correct,,140.78713440000138,140.93292870000005,139.49544580001384,,,,,,,,,,,,13,C,2023-12-08_13h42.24.072,gca_discrimination,2022.2.4,144.28390454493035,
positions.xlsx,stimuli.xlsx,test.xlsx,stimuli/Social1.png,stimuli/Social2.png,stimuli/Nonsocial2.png,stimuli/Nonsocial1.png,stimuli/Test1.png,stimuli/Test2.png,"(-0.7, 0.5)",cs_plus_s,"(0.7, -0.5)",cs_plus_s,0,0,0,0,,,,,0,8,8,50,,,,,,,,,,,,,,,140.93292870000005,141.9398657000129,141.9398657000129,142.08569470001385,142.59258360000968,142.59258360000968,142.73845340000116,l,0.647652499974356,correct,,143.3981410000124,144.30088830000022,141.9398657000129,,,,,,,,,,,,13,C,2023-12-08_13h42.24.072,gca_discrimination,2022.2.4,144.28390454493035,
positions.xlsx,stimuli.xlsx,test.xlsx,stimuli/Social1.png,stimuli/Social2.png,stimuli/Nonsocial2.png,stimuli/Nonsocial1.png,stimuli/Test1.png,stimuli/Test2.png,"(0.7, -0.5)",cs_minus_ns,"(-0.7, -0.5)",cs_plus_ns,0,0,0,0,,,,,0,9,9,46,,,,,,,,,,,,,,,144.30088830000022,145.30776940000942,145.30776940000942,145.45360840001376,145.96053070000198,145.96053070000198,146.10633140000573,ä,0.6787654999934603,correct,,146.7938073000114,146.8702090000006,145.30776940000942,,,,,,,,,,,,13,C,2023-12-08_13h42.24.072,gca_discrimination,2022.2.4,144.28390454493035,
positions.xlsx,stimuli.xlsx,test.xlsx,stimuli/Social1.png,stimuli/Social2.png,stimuli/Nonsocial2.png,stimuli/Nonsocial1.png,stimuli/Test1.png,stimuli/Test2.png,"(0.7, 0.5)",cs_minus_ns,"(-0.7, -0.5)",cs_plus_ns,0,0,0,0,,,,,0,10,10,43,,,,,,,,,,,,,,,146.8702090000006,147.87709220001125,147.87709220001125,148.02295589999994,148.52991490000568,148.52991490000568,148.6756873000122,ä,0.40561289998004213,correct,,149.0923380000022,149.93953060000786,147.87709220001125,,,,,,,,,,,,13,C,2023-12-08_13h42.24.072,gca_discrimination,2022.2.4,144.28390454493035,
positions.xlsx,stimuli.xlsx,test.xlsx,stimuli/Social1.png,stimuli/Social2.png,stimuli/Nonsocial2.png,stimuli/Nonsocial1.png,stimuli/Test1.png,stimuli/Test2.png,"(0.7, -0.5)",cs_minus_ns,"(-0.7, 0.5)",cs_minus_ns,0,0,0,0,,,,,0,11,11,93,,,,,,,,,,,,,,,149.93953060000786,150.94646250001097,150.94646250001097,151.0922547000082,151.599180300007,151.599180300007,151.7450392000028,l,0.45612449999316595,correct,,152.21026820001134,152.24503330000152,150.94646250001097,,,,,,,,,,,,13,C,2023-12-08_13h42.24.072,gca_discrimination,2022.2.4,144.28390454493035,
positions.xlsx,stimuli.xlsx,test.xlsx,stimuli/Social1.png,stimuli/Social2.png,stimuli/Nonsocial2.png,stimuli/Nonsocial1.png,stimuli/Test1.png,stimuli/Test2.png,"(-0.7, -0.5)",cs_plus_s,"(0.7, -0.5)",cs_minus_s,0,0,0,0,,,,,0,12,12,5,,,,,,,,,,,,,,,152.24503330000152,153.2519239000103,153.2519239000103,153.39774150001176,153.9046626000054,153.9046626000054,154.05048560000432,ä,0.4626296999776969,correct,,154.52270359999966,154.65463290001207,153.2519239000103,,,,,,,,,,,,13,C,2023-12-08_13h42.24.072,gca_discrimination,2022.2.4,144.28390454493035,
positions.xlsx,stimuli.xlsx,test.xlsx,stimuli/Social1.png,stimuli/Social2.png,stimuli/Nonsocial2.png,stimuli/Nonsocial1.png,stimuli/Test1.png,stimuli/Test2.png,"(0.7, -0.5)",cs_plus_ns,"(0.7, 0.5)",cs_minus_ns,0,0,0,0,,,,,0,13,13,35,,,,,,,,,,,,,,,154.65463290001207,155.66150760000164,155.66150760000164,155.80734740001208,156.3142954000068,156.3142954000068,156.46009880000202,ä,0.5244285999942804,correct,,156.99481420000666,157.6128580000077,155.66150760000164,,,,,,,,,,,,13,C,2023-12-08_13h42.24.072,gca_discrimination,2022.2.4,144.28390454493035,
positions.xlsx,stimuli.xlsx,test.xlsx,stimuli/Social1.png,stimuli/Social2.png,stimuli/Nonsocial2.png,stimuli/Nonsocial1.png,stimuli/Test1.png,stimuli/Test2.png,"(0.7, -0.5)",cs_plus_ns,"(-0.7, -0.5)",cs_minus_ns,0,0,0,0,,,,,0,14,14,34,,,,,,,,,,,,,,,157.6128580000077,158.61975260000327,158.61975260000327,158.76557460000913,159.27250550000463,159.27250550000463,159.4183311000088,ä,0.6379797999834409,correct,,160.06415350000316,160.82802780000202,158.61975260000327,,,,,,,,,,,,13,C,2023-12-08_13h42.24.072,gca_discrimination,2022.2.4,144.28390454493035,
positions.xlsx,stimuli.xlsx,test.xlsx,stimuli/Social1.png,stimuli/Social2.png,stimuli/Nonsocial2.png,stimuli/Nonsocial1.png,stimuli/Test1.png,stimuli/Test2.png,"(0.7, -0.5)",cs_plus_s,"(-0.7, -0.5)",cs_plus_s,0,0,0,0,,,,,0,15,15,58,,,,,,,,,,,,,,,160.82802780000202,161.8349159000063,161.8349159000063,161.98074130000896,162.4876401000074,162.4876401000074,162.63349520000338,l,0.6152036999847041,correct,,163.2584457000048,164.0917860000045,161.8349159000063,,,,,,,,,,,,13,C,2023-12-08_13h42.24.072,gca_discrimination,2022.2.4,144.28390454493035,
positions.xlsx,stimuli.xlsx,test.xlsx,stimuli/Social1.png,stimuli/Social2.png,stimuli/Nonsocial2.png,stimuli/Nonsocial1.png,stimuli/Test1.png,stimuli/Test2.png,"(-0.7, -0.5)",cs_minus_ns,"(0.7, -0.5)",cs_plus_ns,0,0,0,0,,,,,0,16,16,41,,,,,,,,,,,,,,,164.0917860000045,165.09869360001176,165.09869360001176,165.24451450000925,165.7514332000137,165.7514332000137,165.89722140000958,ä,0.4557673999806866,correct,,166.36248740000883,167.1680228000041,165.09869360001176,,,,,,,,,,,,13,C,2023-12-08_13h42.24.072,gca_discrimination,2022.2.4,144.28390454493035,
positions.xlsx,stimuli.xlsx,test.xlsx,stimuli/Social1.png,stimuli/Social2.png,stimuli/Nonsocial2.png,stimuli/Nonsocial1.png,stimuli/Test1.png,stimuli/Test2.png,"(-0.7, -0.5)",cs_minus_s,"(0.7, -0.5)",cs_minus_s,0,0,0,0,,,,,0,17,17,65,,,,,,,,,,,,,,,167.1680228000041,168.17498290000367,168.17498290000367,168.32073910000327,168.8276990000013,168.8276990000013,168.97353570000269,l,1.0522629999904893,correct,,170.03598130001046,170.12626330000057,168.17498290000367,,,,,,,,,,,,13,C,2023-12-08_13h42.24.072,gca_discrimination,2022.2.4,144.28390454493035,
positions.xlsx,stimuli.xlsx,test.xlsx,stimuli/Social1.png,stimuli/Social2.png,stimuli/Nonsocial2.png,stimuli/Nonsocial1.png,stimuli/Test1.png,stimuli/Test2.png,"(-0.7, 0.5)",cs_plus_ns,"(0.7, -0.5)",cs_minus_ns,0,0,0,0,,,,,0,18,18,26,,,,,,,,,,,,,,,170.12626330000057,171.13317980000284,171.13317980000284,171.27898710001318,171.785924900003,171.785924900003,171.93171090001124,ä,0.5892492999846581,correct,,172.52899390000675,173.1192197000055,171.13317980000284,,,,,,,,,,,,13,C,2023-12-08_13h42.24.072,gca_discrimination,2022.2.4,144.28390454493035,
positions.xlsx,stimuli.xlsx,test.xlsx,stimuli/Social1.png,stimuli/Social2.png,stimuli/Nonsocial2.png,stimuli/Nonsocial1.png,stimuli/Test1.png,stimuli/Test2.png,"(-0.7, -0.5)",cs_plus_ns,"(0.7, -0.5)",cs_minus_ns,0,0,0,0,,,,,0,19,19,29,,,,,,,,,,,,,,,173.1192197000055,174.12615590001224,174.12615590001224,174.27194679999957,174.7788586000097,174.7788586000097,174.92464880000625,ä,0.4842289999796776,correct,,175.41769970000314,176.0565973000048,174.12615590001224,,,,,,,,,,,,13,C,2023-12-08_13h42.24.072,gca_discrimination,2022.2.4,144.28390454493035,
positions.xlsx,stimuli.xlsx,test.xlsx,stimuli/Social1.png,stimuli/Social2.png,stimuli/Nonsocial2.png,stimuli/Nonsocial1.png,stimuli/Test1.png,stimuli/Test2.png,"(-0.7, 0.5)",cs_plus_ns,"(0.7, 0.5)",cs_minus_ns,0,0,0,0,,,,,0,20,20,25,,,,,,,,,,,,,,,176.0565973000048,177.063484600003,177.063484600003,177.20935350000218,177.7162432000041,177.7162432000041,177.8620901000104,ä,0.5308478999795625,correct,,178.4036979000084,178.65369710000232,177.063484600003,,,,,,,,,,,,13,C,2023-12-08_13h42.24.072,gca_discrimination,2022.2.4,144.28390454493035,
positions.xlsx,stimuli.xlsx,test.xlsx,stimuli/Social1.png,stimuli/Social2.png,stimuli/Nonsocial2.png,stimuli/Nonsocial1.png,stimuli/Test1.png,stimuli/Test2.png,"(0.7, 0.5)",cs_minus_s,"(0.7, -0.5)",cs_plus_s,0,0,0,0,,,,,0,21,21,20,,,,,,,,,,,,,,,178.65369710000232,179.6606419000018,179.6606419000018,179.80644250000478,180.31334620001144,180.31334620001144,180.45919100000174,ä,0.77339539998502,correct,,181.24386159999995,182.1674561000109,179.6606419000018,,,,,,,,,,,,13,C,2023-12-08_13h42.24.072,gca_discrimination,2022.2.4,144.28390454493035,
positions.xlsx,stimuli.xlsx,test.xlsx,stimuli/Social1.png,stimuli/Social2.png,stimuli/Nonsocial2.png,stimuli/Nonsocial1.png,stimuli/Test1.png,stimuli/Test2.png,"(-0.7, 0.5)",cs_minus_s,"(0.7, 0.5)",cs_plus_s,0,0,0,0,,,,,0,22,22,13,,,,,,,,,,,,,,,182.1674561000109,183.17436170000292,183.17436170000292,183.32019340000988,183.82712630000606,183.82712630000606,183.97294940000575,ä,0.38728149999224115,correct,,184.36873780000315,184.38262770000438,183.17436170000292,,,,,,,,,,,,13,C,2023-12-08_13h42.24.072,gca_discrimination,2022.2.4,144.28390454493035,
positions.xlsx,stimuli.xlsx,test.xlsx,stimuli/Social1.png,stimuli/Social2.png,stimuli/Nonsocial2.png,stimuli/Nonsocial1.png,stimuli/Test1.png,stimuli/Test2.png,"(0.7, 0.5)",cs_plus_ns,"(-0.7, 0.5)",cs_minus_ns,0,0,0,0,,,,,0,23,23,30,,,,,,,,,,,,,,,184.38262770000438,185.38956750000943,185.38956750000943,185.53537979999965,186.0423310000042,186.0423310000042,186.18820920000144,ä,0.4367311999812955,correct,,186.63257250000606,187.34088860001066,185.38956750000943,,,,,,,,,,,,13,C,2023-12-08_13h42.24.072,gca_discrimination,2022.2.4,144.28390454493035,
positions.xlsx,stimuli.xlsx,test.xlsx,stimuli/Social1.png,stimuli/Social2.png,stimuli/Nonsocial2.png,stimuli/Nonsocial1.png,stimuli/Test1.png,stimuli/Test2.png,"(0.7, -0.5)",cs_minus_s,"(-0.7, -0.5)",cs_minus_s,0,0,0,0,,,,,0,24,24,70,,,,,,,,,,,,,,,187.34088860001066,188.34778950001055,188.34778950001055,188.49358710000524,189.00053070001013,189.00053070001013,189.14638350000314,l,0.6153711999795632,correct,,189.77130140000372,189.85464990000764,188.34778950001055,,,,,,,,,,,,13,C,2023-12-08_13h42.24.072,gca_discrimination,2022.2.4,144.28390454493035,
positions.xlsx,stimuli.xlsx,test.xlsx,stimuli/Social1.png,stimuli/Social2.png,stimuli/Nonsocial2.png,stimuli/Nonsocial1.png,stimuli/Test1.png,stimuli/Test2.png,"(0.7, -0.5)",cs_minus_ns,"(-0.7, -0.5)",cs_minus_ns,0,0,0,0,,,,,0,25,25,94,,,,,,,,,,,,,,,189.85464990000764,190.86157770000864,190.86157770000864,191.0073834000068,191.5143182000029,191.5143182000029,191.66016800000216,l,0.30908049998106435,correct,,191.9795785000024,192.2782115000009,190.86157770000864,,,,,,,,,,,,13,C,2023-12-08_13h42.24.072,gca_discrimination,2022.2.4,144.28390454493035,
positions.xlsx,stimuli.xlsx,test.xlsx,stimuli/Social1.png,stimuli/Social2.png,stimuli/Nonsocial2.png,stimuli/Nonsocial1.png,stimuli/Test1.png,stimuli/Test2.png,"(-0.7, -0.5)",cs_minus_ns,"(-0.7, 0.5)",cs_minus_ns,0,0,0,0,,,,,0,26,26,87,,,,,,,,,,,,,,,192.2782115000009,193.2850821000029,193.2850821000029,193.43091800001275,193.93784770001366,193.93784770001366,194.08367010000802,l,0.3326326999813318,correct,,194.42389450001065,195.42385340000328,193.2850821000029,,,,,,,,,,,,13,C,2023-12-08_13h42.24.072,gca_discrimination,2022.2.4,144.28390454493035,
positions.xlsx,stimuli.xlsx,test.xlsx,stimuli/Social1.png,stimuli/Social2.png,stimuli/Nonsocial2.png,stimuli/Nonsocial1.png,stimuli/Test1.png,stimuli/Test2.png,"(-0.7, 0.5)",cs_plus_ns,"(-0.7, -0.5)",cs_plus_ns,0,0,0,0,,,,,0,27,27,72,,,,,,,,,,,,,,,195.42385340000328,196.43077640001138,196.43077640001138,196.5766144000081,197.08353880001232,197.08353880001232,197.22934490001353,l,0.6036057999735931,correct,,197.84046940000553,198.69458400001167,196.43077640001138,,,,,,,,,,,,13,C,2023-12-08_13h42.24.072,gca_discrimination,2022.2.4,144.28390454493035,
positions.xlsx,stimuli.xlsx,test.xlsx,stimuli/Social1.png,stimuli/Social2.png,stimuli/Nonsocial2.png,stimuli/Nonsocial1.png,stimuli/Test1.png,stimuli/Test2.png,"(0.7, 0.5)",cs_minus_ns,"(-0.7, 0.5)",cs_minus_ns,0,0,0,0,,,,,0,28,28,90,,,,,,,,,,,,,,,198.69458400001167,199.70150840000133,199.70150840000133,199.8473464000126,200.35425250000844,200.35425250000844,200.5000740000105,l,0.3724828999838792,correct,,200.88199220001115,201.38893310001004,199.70150840000133,,,,,,,,,,,,13,C,2023-12-08_13h42.24.072,gca_discrimination,2022.2.4,144.28390454493035,
positions.xlsx,stimuli.xlsx,test.xlsx,stimuli/Social1.png,stimuli/Social2.png,stimuli/Nonsocial2.png,stimuli/Nonsocial1.png,stimuli/Test1.png,stimuli/Test2.png,"(-0.7, 0.5)",cs_minus_s,"(-0.7, -0.5)",cs_plus_s,0,0,0,0,,,,,0,29,29,12,,,,,,,,,,,,,,,201.38893310001004,202.3958330000023,202.3958330000023,202.54163700000208,203.04859620000934,203.04859620000934,203.19442620000336,ä,0.41423799998301547,correct,,203.61799090000568,204.14579260000028,202.3958330000023,,,,,,,,,,,,13,C,2023-12-08_13h42.24.072,gca_discrimination,2022.2.4,144.28390454493035,
positions.xlsx,stimuli.xlsx,test.xlsx,stimuli/Social1.png,stimuli/Social2.png,stimuli/Nonsocial2.png,stimuli/Nonsocial1.png,stimuli/Test1.png,stimuli/Test2.png,"(0.7, 0.5)",cs_plus_s,"(-0.7, -0.5)",cs_plus_s,0,0,0,0,,,,,0,30,30,55,,,,,,,,,,,,,,,204.14579260000028,205.15267900000617,205.15267900000617,205.29850290001195,205.805431700006,205.805431700006,205.9512575000117,l,0.6738503999804379,correct,,206.638729600003,207.47898420000274,205.15267900000617,,,,,,,,,,,,13,C,2023-12-08_13h42.24.072,gca_discrimination,2022.2.4,144.28390454493035,
positions.xlsx,stimuli.xlsx,test.xlsx,stimuli/Social1.png,stimuli/Social2.png,stimuli/Nonsocial2.png,stimuli/Nonsocial1.png,stimuli/Test1.png,stimuli/Test2.png,"(0.7, -0.5)",cs_minus_ns,"(0.7, 0.5)",cs_plus_ns,0,0,0,0,,,,,0,31,31,47,,,,,,,,,,,,,,,207.47898420000274,208.48590720001084,208.48590720001084,208.63166550001188,209.13863910001237,209.13863910001237,209.28447550001147,ä,0.5244517999817617,correct,,209.81914930000494,209.93029040000692,208.48590720001084,,,,,,,,,,,,13,C,2023-12-08_13h42.24.072,gca_discrimination,2022.2.4,144.28390454493035,
positions.xlsx,stimuli.xlsx,test.xlsx,stimuli/Social1.png,stimuli/Social2.png,stimuli/Nonsocial2.png,stimuli/Nonsocial1.png,stimuli/Test1.png,stimuli/Test2.png,"(0.7, 0.5)",cs_plus_s,"(-0.7, 0.5)",cs_plus_s,0,0,0,0,,,,,0,32,32,54,,,,,,,,,,,,,,,209.93029040000692,210.93718130000343,210.93718130000343,211.08299900000566,211.5899599000113,211.5899599000113,211.7357056000037,l,1.5452431999874534,correct,,213.2912578000105,213.43708360000164,210.93718130000343,,,,,,,,,,,,13,C,2023-12-08_13h42.24.072,gca_discrimination,2022.2.4,144.28390454493035,
positions.xlsx,stimuli.xlsx,test.xlsx,stimuli/Social1.png,stimuli/Social2.png,stimuli/Nonsocial2.png,stimuli/Nonsocial1.png,stimuli/Test1.png,stimuli/Test2.png,"(-0.7, -0.5)",cs_plus_s,"(0.7, 0.5)",cs_minus_s,0,0,0,0,,,,,0,33,33,4,,,,,,,,,,,,,,,213.43708360000164,214.44399759999942,214.44399759999942,214.58984270000656,215.0967466000002,215.0967466000002,215.2425646000047,ä,0.47006389999296516,correct,,215.72173300001305,216.71469220001018,214.44399759999942,,,,,,,,,,,,13,C,2023-12-08_13h42.24.072,gca_discrimination,2022.2.4,144.28390454493035,
positions.xlsx,stimuli.xlsx,test.xlsx,stimuli/Social1.png,stimuli/Social2.png,stimuli/Nonsocial2.png,stimuli/Nonsocial1.png,stimuli/Test1.png,stimuli/Test2.png,"(0.7, -0.5)",cs_minus_s,"(0.7, 0.5)",cs_minus_s,0,0,0,0,,,,,0,34,34,71,,,,,,,,,,,,,,,216.71469220001018,217.7216124000115,217.7216124000115,217.86743870000646,218.37439620000077,218.37439620000077,218.52020880000782,l,0.38481429999228567,correct,,218.91602550000243,219.75624960000277,217.7216124000115,,,,,,,,,,,,13,C,2023-12-08_13h42.24.072,gca_discrimination,2022.2.4,144.28390454493035,
positions.xlsx,stimuli.xlsx,test.xlsx,stimuli/Social1.png,stimuli/Social2.png,stimuli/Nonsocial2.png,stimuli/Nonsocial1.png,stimuli/Test1.png,stimuli/Test2.png,"(-0.7, -0.5)",cs_plus_s,"(0.7, -0.5)",cs_plus_s,0,0,0,0,,,,,0,35,35,53,,,,,,,,,,,,,,,219.75624960000277,220.76318410001113,220.76318410001113,220.90900780000084,221.4158982000081,221.4158982000081,221.56175940000685,l,0.49595459998818114,correct,,222.06871840001259,222.92975920000754,220.76318410001113,,,,,,,,,,,,13,C,2023-12-08_13h42.24.072,gca_discrimination,2022.2.4,144.28390454493035,
positions.xlsx,stimuli.xlsx,test.xlsx,stimuli/Social1.png,stimuli/Social2.png,stimuli/Nonsocial2.png,stimuli/Nonsocial1.png,stimuli/Test1.png,stimuli/Test2.png,"(-0.7, 0.5)",cs_plus_s,"(0.7, 0.5)",cs_minus_s,0,0,0,0,,,,,0,36,36,1,,,,,,,,,,,,,,,222.92975920000754,223.9366674000048,223.9366674000048,224.08249040000373,224.58941060000507,224.58941060000507,224.73526700001094,ä,0.4823520999925677,correct,,225.2283071000129,226.02686750001158,223.9366674000048,,,,,,,,,,,,13,C,2023-12-08_13h42.24.072,gca_discrimination,2022.2.4,144.28390454493035,
positions.xlsx,stimuli.xlsx,test.xlsx,stimuli/Social1.png,stimuli/Social2.png,stimuli/Nonsocial2.png,stimuli/Nonsocial1.png,stimuli/Test1.png,stimuli/Test2.png,"(0.7, -0.5)",cs_minus_s,"(-0.7, -0.5)",cs_plus_s,0,0,0,0,,,,,0,37,37,22,,,,,,,,,,,,,,,226.02686750001158,227.0337553999998,227.0337553999998,227.1796136000048,227.68653540000378,227.68653540000378,227.8323694000137,ä,0.5448414999846136,correct,,228.38785780000035,229.2975613000017,227.0337553999998,,,,,,,,,,,,13,C,2023-12-08_13h42.24.072,gca_discrimination,2022.2.4,144.28390454493035,
positions.xlsx,stimuli.xlsx,test.xlsx,stimuli/Social1.png,stimuli/Social2.png,stimuli/Nonsocial2.png,stimuli/Nonsocial1.png,stimuli/Test1.png,stimuli/Test2.png,"(0.7, 0.5)",cs_minus_ns,"(0.7, -0.5)",cs_minus_ns,0,0,0,0,,,,,0,38,38,92,,,,,,,,,,,,,,,229.2975613000017,230.304469300012,230.304469300012,230.45031920001202,230.95723170001293,230.95723170001293,231.10306120000314,l,0.3944842999771936,correct,,231.50582100001338,232.35995140000887,230.304469300012,,,,,,,,,,,,13,C,2023-12-08_13h42.24.072,gca_discrimination,2022.2.4,144.28390454493035,
positions.xlsx,stimuli.xlsx,test.xlsx,stimuli/Social1.png,stimuli/Social2.png,stimuli/Nonsocial2.png,stimuli/Nonsocial1.png,stimuli/Test1.png,stimuli/Test2.png,"(-0.7, -0.5)",cs_minus_ns,"(-0.7, 0.5)",cs_plus_ns,0,0,0,0,,,,,0,39,39,39,,,,,,,,,,,,,,,232.35995140000887,233.3668644999998,233.3668644999998,233.5126661000104,234.0196028000064,234.0196028000064,234.165450600005,ä,0.45248979997995775,correct,,234.63069890000043,235.1653995000088,233.3668644999998,,,,,,,,,,,,13,C,2023-12-08_13h42.24.072,gca_discrimination,2022.2.4,144.28390454493035,
positions.xlsx,stimuli.xlsx,test.xlsx,stimuli/Social1.png,stimuli/Social2.png,stimuli/Nonsocial2.png,stimuli/Nonsocial1.png,stimuli/Test1.png,stimuli/Test2.png,"(-0.7, 0.5)",cs_minus_s,"(0.7, -0.5)",cs_plus_s,0,0,0,0,,,,,0,40,40,14,,,,,,,,,,,,,,,235.1653995000088,236.17231230001198,236.17231230001198,236.31811190000735,236.82501440000487,236.82501440000487,236.97089890000643,ä,0.541406399992411,correct,,237.51948200000334,237.52642050001305,236.17231230001198,,,,,,,,,,,,13,C,2023-12-08_13h42.24.072,gca_discrimination,2022.2.4,144.28390454493035,
positions.xlsx,stimuli.xlsx,test.xlsx,stimuli/Social1.png,stimuli/Social2.png,stimuli/Nonsocial2.png,stimuli/Nonsocial1.png,stimuli/Test1.png,stimuli/Test2.png,"(-0.7, 0.5)",cs_plus_ns,"(0.7, -0.5)",cs_plus_ns,0,0,0,0,,,,,0,41,41,74,,,,,,,,,,,,,,,237.52642050001305,238.53332480000972,238.53332480000972,238.67914250001195,239.18607360000897,239.18607360000897,239.3318794000079,l,0.5493803999852389,correct,,239.89437590001035,240.5401911000081,238.53332480000972,,,,,,,,,,,,13,C,2023-12-08_13h42.24.072,gca_discrimination,2022.2.4,144.28390454493035,
positions.xlsx,stimuli.xlsx,test.xlsx,stimuli/Social1.png,stimuli/Social2.png,stimuli/Nonsocial2.png,stimuli/Nonsocial1.png,stimuli/Test1.png,stimuli/Test2.png,"(0.7, 0.5)",cs_plus_ns,"(-0.7, -0.5)",cs_plus_ns,0,0,0,0,,,,,0,42,42,79,,,,,,,,,,,,,,,240.5401911000081,241.547086400009,241.547086400009,241.69290290000208,242.19985129999986,242.19985129999986,242.34569700001157,l,0.4393889999773819,correct,,242.79705330000434,243.69285800000944,241.547086400009,,,,,,,,,,,,13,C,2023-12-08_13h42.24.072,gca_discrimination,2022.2.4,144.28390454493035,
positions.xlsx,stimuli.xlsx,test.xlsx,stimuli/Social1.png,stimuli/Social2.png,stimuli/Nonsocial2.png,stimuli/Nonsocial1.png,stimuli/Test1.png,stimuli/Test2.png,"(-0.7, 0.5)",cs_minus_s,"(0.7, 0.5)",cs_minus_s,0,0,0,0,,,,,0,43,43,61,,,,,,,,,,,,,,,243.69285800000944,244.69973690000188,244.69973690000188,244.84559930000978,245.35250140000426,245.35250140000426,245.4983007000119,l,0.5598832999821752,correct,,246.06775010000274,246.13720029999968,244.69973690000188,,,,,,,,,,,,13,C,2023-12-08_13h42.24.072,gca_discrimination,2022.2.4,144.28390454493035,
positions.xlsx,stimuli.xlsx,test.xlsx,stimuli/Social1.png,stimuli/Social2.png,stimuli/Nonsocial2.png,stimuli/Nonsocial1.png,stimuli/Test1.png,stimuli/Test2.png,"(-0.7, 0.5)",cs_plus_s,"(-0.7, -0.5)",cs_plus_s,0,0,0,0,,,,,0,44,44,48,,,,,,,,,,,,,,,246.13720029999968,247.1441208000033,247.1441208000033,247.28991980000865,247.79687040000863,247.79687040000863,247.94268440001179,l,0.8661689999862574,correct,,248.81763480001246,249.17874620000657,247.1441208000033,,,,,,,,,,,,13,C,2023-12-08_13h42.24.072,gca_discrimination,2022.2.4,144.28390454493035,
positions.xlsx,stimuli.xlsx,test.xlsx,stimuli/Social1.png,stimuli/Social2.png,stimuli/Nonsocial2.png,stimuli/Nonsocial1.png,stimuli/Test1.png,stimuli/Test2.png,"(0.7, -0.5)",cs_plus_s,"(-0.7, -0.5)",cs_minus_s,0,0,0,0,,,,,0,45,45,10,,,,,,,,,,,,,,,249.17874620000657,250.18565390000003,250.18565390000003,250.3314747000113,250.83842610000283,250.83842610000283,250.98421430001326,ä,0.4566636999952607,correct,,251.4494865000015,252.25497990001168,250.18565390000003,,,,,,,,,,,,13,C,2023-12-08_13h42.24.072,gca_discrimination,2022.2.4,144.28390454493035,
positions.xlsx,stimuli.xlsx,test.xlsx,stimuli/Social1.png,stimuli/Social2.png,stimuli/Nonsocial2.png,stimuli/Nonsocial1.png,stimuli/Test1.png,stimuli/Test2.png,"(0.7, 0.5)",cs_minus_s,"(-0.7, -0.5)",cs_minus_s,0,0,0,0,,,,,0,46,46,67,,,,,,,,,,,,,,,252.25497990001168,253.26193380000768,253.26193380000768,253.40774249999959,253.91465050000988,253.91465050000988,254.06049780000467,l,0.3958394999790471,correct,,254.4632452000078,254.62995310001133,253.26193380000768,,,,,,,,,,,,13,C,2023-12-08_13h42.24.072,gca_discrimination,2022.2.4,144.28390454493035,
positions.xlsx,stimuli.xlsx,test.xlsx,stimuli/Social1.png,stimuli/Social2.png,stimuli/Nonsocial2.png,stimuli/Nonsocial1.png,stimuli/Test1.png,stimuli/Test2.png,"(-0.7, -0.5)",cs_minus_s,"(0.7, -0.5)",cs_plus_s,0,0,0,0,,,,,0,47,47,17,,,,,,,,,,,,,,,254.62995310001133,255.63683820000733,255.63683820000733,255.78264910000144,256.28957490000175,256.28957490000175,256.43537410000863,ä,0.38136929998290725,correct,,256.8242874999996,256.8867836000136,255.63683820000733,,,,,,,,,,,,13,C,2023-12-08_13h42.24.072,gca_discrimination,2022.2.4,144.28390454493035,
positions.xlsx,stimuli.xlsx,test.xlsx,stimuli/Social1.png,stimuli/Social2.png,stimuli/Nonsocial2.png,stimuli/Nonsocial1.png,stimuli/Test1.png,stimuli/Test2.png,"(-0.7, -0.5)",cs_minus_s,"(-0.7, 0.5)",cs_plus_s,0,0,0,0,,,,,0,48,48,15,,,,,,,,,,,,,,,256.8867836000136,257.8936805000121,257.8936805000121,258.0395075000124,258.5464759000024,258.5464759000024,258.6922600000107,ä,0.4204347999766469,correct,,259.12277080000786,259.81723350001266,257.8936805000121,,,,,,,,,,,,13,C,2023-12-08_13h42.24.072,gca_discrimination,2022.2.4,144.28390454493035,
positions.xlsx,stimuli.xlsx,test.xlsx,stimuli/Social1.png,stimuli/Social2.png,stimuli/Nonsocial2.png,stimuli/Nonsocial1.png,stimuli/Test1.png,stimuli/Test2.png,"(-0.7, -0.5)",cs_plus_s,"(0.7, 0.5)",cs_plus_s,0,0,0,0,,,,,0,49,49,52,,,,,,,,,,,,,,,259.81723350001266,260.8241112000105,260.8241112000105,260.969914900008,261.4768683000002,261.4768683000002,261.6227176000102,l,0.546194899987313,correct,,262.178227700002,262.34489320000284,260.8241112000105,,,,,,,,,,,,13,C,2023-12-08_13h42.24.072,gca_discrimination,2022.2.4,144.28390454493035,
positions.xlsx,stimuli.xlsx,test.xlsx,stimuli/Social1.png,stimuli/Social2.png,stimuli/Nonsocial2.png,stimuli/Nonsocial1.png,stimuli/Test1.png,stimuli/Test2.png,"(0.7, 0.5)",cs_minus_ns,"(-0.7, -0.5)",cs_minus_ns,0,0,0,0,,,,,0,50,50,91,,,,,,,,,,,,,,,262.34489320000284,263.3518144000118,263.3518144000118,263.49764070000674,264.0045305000094,264.0045305000094,264.1503417000058,l,0.33026289999543224,correct,,264.490709900012,264.85866850000457,263.3518144000118,,,,,,,,,,,,13,C,2023-12-08_13h42.24.072,gca_discrimination,2022.2.4,144.28390454493035,
positions.xlsx,stimuli.xlsx,test.xlsx,stimuli/Social1.png,stimuli/Social2.png,stimuli/Nonsocial2.png,stimuli/Nonsocial1.png,stimuli/Test1.png,stimuli/Test2.png,"(0.7, -0.5)",cs_plus_s,"(-0.7, 0.5)",cs_plus_s,0,0,0,0,,,,,0,51,51,57,,,,,,,,,,,,,,,264.85866850000457,265.8655912000104,265.8655912000104,266.0114126000117,266.51834210001107,266.51834210001107,266.66417560000264,l,0.5921666999784065,correct,,267.26832000000286,267.79607410001336,265.8655912000104,,,,,,,,,,,,13,C,2023-12-08_13h42.24.072,gca_discrimination,2022.2.4,144.28390454493035,
positions.xlsx,stimuli.xlsx,test.xlsx,stimuli/Social1.png,stimuli/Social2.png,stimuli/Nonsocial2.png,stimuli/Nonsocial1.png,stimuli/Test1.png,stimuli/Test2.png,"(0.7, 0.5)",cs_minus_s,"(-0.7, 0.5)",cs_plus_s,0,0,0,0,,,,,0,52,52,18,,,,,,,,,,,,,,,267.79607410001336,268.8029911000049,268.8029911000049,268.9487952000054,269.455732900009,269.455732900009,269.60157560001244,ä,0.36664869998639915,correct,,269.97653620000347,270.33069260000775,268.8029911000049,,,,,,,,,,,,13,C,2023-12-08_13h42.24.072,gca_discrimination,2022.2.4,144.28390454493035,
positions.xlsx,stimuli.xlsx,test.xlsx,stimuli/Social1.png,stimuli/Social2.png,stimuli/Nonsocial2.png,stimuli/Nonsocial1.png,stimuli/Test1.png,stimuli/Test2.png,"(0.7, -0.5)",cs_minus_s,"(-0.7, 0.5)",cs_minus_s,0,0,0,0,,,,,0,53,53,69,,,,,,,,,,,,,,,270.33069260000775,271.3375936000084,271.3375936000084,271.48340740001004,271.990363600009,271.990363600009,272.1361723000009,l,0.40043969998077955,correct,,272.5458818000043,272.67782470000384,271.3375936000084,,,,,,,,,,,,13,C,2023-12-08_13h42.24.072,gca_discrimination,2022.2.4,144.28390454493035,
positions.xlsx,stimuli.xlsx,test.xlsx,stimuli/Social1.png,stimuli/Social2.png,stimuli/Nonsocial2.png,stimuli/Nonsocial1.png,stimuli/Test1.png,stimuli/Test2.png,"(-0.7, -0.5)",cs_minus_ns,"(0.7, 0.5)",cs_minus_ns,0,0,0,0,,,,,0,54,54,88,,,,,,,,,,,,,,,272.67782470000384,273.68473160000576,273.68473160000576,273.8305401000107,274.3375081000122,274.3375081000122,274.4833178000117,l,0.39072279998799786,correct,,274.88606560000335,275.0318685000093,273.68473160000576,,,,,,,,,,,,13,C,2023-12-08_13h42.24.072,gca_discrimination,2022.2.4,144.28390454493035,
positions.xlsx,stimuli.xlsx,test.xlsx,stimuli/Social1.png,stimuli/Social2.png,stimuli/Nonsocial2.png,stimuli/Nonsocial1.png,stimuli/Test1.png,stimuli/Test2.png,"(-0.7, -0.5)",cs_minus_s,"(-0.7, 0.5)",cs_minus_s,0,0,0,0,,,,,0,55,55,63,,,,,,,,,,,,,,,275.0318685000093,276.0388268000097,276.0388268000097,276.1846290000103,276.69154379999964,276.69154379999964,276.8374079000059,l,0.3630822999839438,correct,,277.2123416000104,277.29571880000003,276.0388268000097,,,,,,,,,,,,13,C,2023-12-08_13h42.24.072,gca_discrimination,2022.2.4,144.28390454493035,
positions.xlsx,stimuli.xlsx,test.xlsx,stimuli/Social1.png,stimuli/Social2.png,stimuli/Nonsocial2.png,stimuli/Nonsocial1.png,stimuli/Test1.png,stimuli/Test2.png,"(-0.7, -0.5)",cs_plus_s,"(-0.7, 0.5)",cs_minus_s,0,0,0,0,,,,,0,56,56,3,,,,,,,,,,,,,,,277.29571880000003,278.3025823000062,278.3025823000062,278.4484092000057,278.9553770000057,278.9553770000057,279.10118760001205,ä,0.4756319999869447,correct,,279.58727510001336,279.98308870001347,278.3025823000062,,,,,,,,,,,,13,C,2023-12-08_13h42.24.072,gca_discrimination,2022.2.4,144.28390454493035,
positions.xlsx,stimuli.xlsx,test.xlsx,stimuli/Social1.png,stimuli/Social2.png,stimuli/Nonsocial2.png,stimuli/Nonsocial1.png,stimuli/Test1.png,stimuli/Test2.png,"(-0.7, -0.5)",cs_minus_s,"(0.7, 0.5)",cs_plus_s,0,0,0,0,,,,,0,57,57,16,,,,,,,,,,,,,,,279.98308870001347,280.9899953000131,280.9899953000131,281.1358459000039,281.64276780000364,281.64276780000364,281.78857580000476,ä,0.4917043999885209,correct,,282.2885447000008,282.36493720000726,280.9899953000131,,,,,,,,,,,,13,C,2023-12-08_13h42.24.072,gca_discrimination,2022.2.4,144.28390454493035,
positions.xlsx,stimuli.xlsx,test.xlsx,stimuli/Social1.png,stimuli/Social2.png,stimuli/Nonsocial2.png,stimuli/Nonsocial1.png,stimuli/Test1.png,stimuli/Test2.png,"(-0.7, 0.5)",cs_minus_ns,"(0.7, -0.5)",cs_plus_ns,0,0,0,0,,,,,0,58,58,38,,,,,,,,,,,,,,,282.36493720000726,283.3718433000031,283.3718433000031,283.51766140000836,284.02460540000175,284.02460540000175,284.1704338000127,None,,no answer,,286.1703363000124,286.67032740000286,283.3718433000031,,,,,,,,,,,,13,C,2023-12-08_13h42.24.072,gca_discrimination,2022.2.4,144.28390454493035,
positions.xlsx,stimuli.xlsx,test.xlsx,stimuli/Social1.png,stimuli/Social2.png,stimuli/Nonsocial2.png,stimuli/Nonsocial1.png,stimuli/Test1.png,stimuli/Test2.png,"(0.7, 0.5)",cs_minus_s,"(-0.7, -0.5)",cs_plus_s,0,0,0,0,,,,,0,59,59,19,,,,,,,,,,,,,,,286.67032740000286,287.6772345000063,287.6772345000063,287.8230537000054,288.32997890000115,288.32997890000115,288.47581490001176,ä,0.48482669997611083,correct,,288.9688550999999,289.08690750000824,287.6772345000063,,,,,,,,,,,,13,C,2023-12-08_13h42.24.072,gca_discrimination,2022.2.4,144.28390454493035,
positions.xlsx,stimuli.xlsx,test.xlsx,stimuli/Social1.png,stimuli/Social2.png,stimuli/Nonsocial2.png,stimuli/Nonsocial1.png,stimuli/Test1.png,stimuli/Test2.png,"(-0.7, 0.5)",cs_minus_ns,"(0.7, -0.5)",cs_minus_ns,0,0,0,0,,,,,0,60,60,86,,,,,,,,,,,,,,,289.08690750000824,290.09381220000796,290.09381220000796,290.2396324000001,290.7465505,290.7465505,290.89239090000046,l,0.39655669998319354,correct,,291.30209170001035,291.5798547000013,290.09381220000796,,,,,,,,,,,,13,C,2023-12-08_13h42.24.072,gca_discrimination,2022.2.4,144.28390454493035,
positions.xlsx,stimuli.xlsx,test.xlsx,stimuli/Social1.png,stimuli/Social2.png,stimuli/Nonsocial2.png,stimuli/Nonsocial1.png,stimuli/Test1.png,stimuli/Test2.png,"(0.7, 0.5)",cs_plus_ns,"(0.7, -0.5)",cs_plus_ns,0,0,0,0,,,,,0,61,61,80,,,,,,,,,,,,,,,291.5798547000013,292.5867453000101,292.5867453000101,292.73259820000385,293.23953400000755,293.23953400000755,293.38531050000165,l,0.744460199974128,correct,,294.14225350000197,294.7672096000024,292.5867453000101,,,,,,,,,,,,13,C,2023-12-08_13h42.24.072,gca_discrimination,2022.2.4,144.28390454493035,
positions.xlsx,stimuli.xlsx,test.xlsx,stimuli/Social1.png,stimuli/Social2.png,stimuli/Nonsocial2.png,stimuli/Nonsocial1.png,stimuli/Test1.png,stimuli/Test2.png,"(-0.7, -0.5)",cs_plus_ns,"(0.7, 0.5)",cs_plus_ns,0,0,0,0,,,,,0,62,62,76,,,,,,,,,,,,,,,294.7672096000024,295.7741292000137,295.7741292000137,295.919985600005,296.42691160000686,296.42691160000686,296.5727282000007,l,0.6201492999971379,correct,,297.2046394000063,297.76017580000916,295.7741292000137,,,,,,,,,,,,13,C,2023-12-08_13h42.24.072,gca_discrimination,2022.2.4,144.28390454493035,
positions.xlsx,stimuli.xlsx,test.xlsx,stimuli/Social1.png,stimuli/Social2.png,stimuli/Nonsocial2.png,stimuli/Nonsocial1.png,stimuli/Test1.png,stimuli/Test2.png,"(0.7, 0.5)",cs_minus_s,"(0.7, -0.5)",cs_minus_s,0,0,0,0,,,,,0,63,63,68,,,,,,,,,,,,,,,297.76017580000916,298.7670892000024,298.7670892000024,298.9128805000073,299.41983700000856,299.41983700000856,299.5656677000079,l,0.5792071999749169,correct,,300.1559125000058,301.0239430000074,298.7670892000024,,,,,,,,,,,,13,C,2023-12-08_13h42.24.072,gca_discrimination,2022.2.4,144.28390454493035,
positions.xlsx,stimuli.xlsx,test.xlsx,stimuli/Social1.png,stimuli/Social2.png,stimuli/Nonsocial2.png,stimuli/Nonsocial1.png,stimuli/Test1.png,stimuli/Test2.png,"(-0.7, 0.5)",cs_plus_s,"(0.7, 0.5)",cs_plus_s,0,0,0,0,,,,,0,64,64,49,,,,,,,,,,,,,,,301.0239430000074,302.03084460001264,302.03084460001264,302.1767019000108,302.6836021000054,302.6836021000054,302.82940780000354,l,0.8670551999966847,correct,,303.7043980000017,303.9404954000056,302.03084460001264,,,,,,,,,,,,13,C,2023-12-08_13h42.24.072,gca_discrimination,2022.2.4,144.28390454493035,
positions.xlsx,stimuli.xlsx,test.xlsx,stimuli/Social1.png,stimuli/Social2.png,stimuli/Nonsocial2.png,stimuli/Nonsocial1.png,stimuli/Test1.png,stimuli/Test2.png,"(0.7, 0.5)",cs_plus_ns,"(-0.7, 0.5)",cs_plus_ns,0,0,0,0,,,,,0,65,65,78,,,,,,,,,,,,,,,303.9404954000056,304.94740950000414,304.94740950000414,305.093240400005,305.60012860001007,305.60012860001007,305.7459446000139,l,0.26332679999177344,correct,,306.01681450000615,306.8084258000017,304.94740950000414,,,,,,,,,,,,13,C,2023-12-08_13h42.24.072,gca_discrimination,2022.2.4,144.28390454493035,
positions.xlsx,stimuli.xlsx,test.xlsx,stimuli/Social1.png,stimuli/Social2.png,stimuli/Nonsocial2.png,stimuli/Nonsocial1.png,stimuli/Test1.png,stimuli/Test2.png,"(0.7, 0.5)",cs_plus_ns,"(-0.7, -0.5)",cs_minus_ns,0,0,0,0,,,,,0,66,66,31,,,,,,,,,,,,,,,306.8084258000017,307.81534730001295,307.81534730001295,307.96116160000383,308.4680695999996,308.4680695999996,308.6139269000123,ä,0.3385388999886345,correct,,308.96111630000814,309.2250297999999,307.81534730001295,,,,,,,,,,,,13,C,2023-12-08_13h42.24.072,gca_discrimination,2022.2.4,144.28390454493035,
positions.xlsx,stimuli.xlsx,test.xlsx,stimuli/Social1.png,stimuli/Social2.png,stimuli/Nonsocial2.png,stimuli/Nonsocial1.png,stimuli/Test1.png,stimuli/Test2.png,"(0.7, -0.5)",cs_plus_ns,"(-0.7, 0.5)",cs_minus_ns,0,0,0,0,,,,,0,67,67,33,,,,,,,,,,,,,,,309.2250297999999,310.23193080000055,310.23193080000055,310.3777480000135,310.8847139000136,310.8847139000136,311.0305093000061,ä,0.49094329998479225,correct,,311.53048390000185,312.36372730000585,310.23193080000055,,,,,,,,,,,,13,C,2023-12-08_13h42.24.072,gca_discrimination,2022.2.4,144.28390454493035,
positions.xlsx,stimuli.xlsx,test.xlsx,stimuli/Social1.png,stimuli/Social2.png,stimuli/Nonsocial2.png,stimuli/Nonsocial1.png,stimuli/Test1.png,stimuli/Test2.png,"(0.7, 0.5)",cs_minus_ns,"(-0.7, 0.5)",cs_plus_ns,0,0,0,0,,,,,0,68,68,42,,,,,,,,,,,,,,,312.36372730000585,313.37070040000253,313.37070040000253,313.5164883000107,314.0234699000139,314.0234699000139,314.1692500000063,ä,0.3676901999861002,correct,,314.54423959999986,314.66924820000713,313.37070040000253,,,,,,,,,,,,13,C,2023-12-08_13h42.24.072,gca_discrimination,2022.2.4,144.28390454493035,
positions.xlsx,stimuli.xlsx,test.xlsx,stimuli/Social1.png,stimuli/Social2.png,stimuli/Nonsocial2.png,stimuli/Nonsocial1.png,stimuli/Test1.png,stimuli/Test2.png,"(0.7, -0.5)",cs_minus_s,"(0.7, 0.5)",cs_plus_s,0,0,0,0,,,,,0,69,69,23,,,,,,,,,,,,,,,314.66924820000713,315.67614570001024,315.67614570001024,315.8219622000033,316.3289061000105,316.3289061000105,316.47475260001374,ä,0.390036799988593,correct,,316.87745270000596,317.30800880001334,315.67614570001024,,,,,,,,,,,,13,C,2023-12-08_13h42.24.072,gca_discrimination,2022.2.4,144.28390454493035,
positions.xlsx,stimuli.xlsx,test.xlsx,stimuli/Social1.png,stimuli/Social2.png,stimuli/Nonsocial2.png,stimuli/Nonsocial1.png,stimuli/Test1.png,stimuli/Test2.png,"(-0.7, 0.5)",cs_plus_ns,"(0.7, 0.5)",cs_plus_ns,0,0,0,0,,,,,0,70,70,73,,,,,,,,,,,,,,,317.30800880001334,318.3149673000007,318.3149673000007,318.4607576000126,318.9676771000086,318.9676771000086,319.1134974000015,l,0.49562889999651816,correct,,319.620453200012,320.30789950001054,318.3149673000007,,,,,,,,,,,,13,C,2023-12-08_13h42.24.072,gca_discrimination,2022.2.4,144.28390454493035,
positions.xlsx,stimuli.xlsx,test.xlsx,stimuli/Social1.png,stimuli/Social2.png,stimuli/Nonsocial2.png,stimuli/Nonsocial1.png,stimuli/Test1.png,stimuli/Test2.png,"(0.7, 0.5)",cs_plus_s,"(0.7, -0.5)",cs_plus_s,0,0,0,0,,,,,0,71,71,56,,,,,,,,,,,,,,,320.30789950001054,321.31481870000425,321.31481870000425,321.4606580000109,321.9675484000036,321.9675484000036,322.1133632000128,l,0.5845808999874862,correct,,322.7105941000045,323.04392270000244,321.31481870000425,,,,,,,,,,,,13,C,2023-12-08_13h42.24.072,gca_discrimination,2022.2.4,144.28390454493035,
positions.xlsx,stimuli.xlsx,test.xlsx,stimuli/Social1.png,stimuli/Social2.png,stimuli/Nonsocial2.png,stimuli/Nonsocial1.png,stimuli/Test1.png,stimuli/Test2.png,"(-0.7, 0.5)",cs_minus_ns,"(0.7, 0.5)",cs_plus_ns,0,0,0,0,,,,,0,72,72,37,,,,,,,,,,,,,,,323.04392270000244,324.05082490001223,324.05082490001223,324.19666190000135,324.70360400000936,324.70360400000936,324.8493937000021,ä,0.775590099976398,correct,,325.6340529000008,326.43265470000915,324.05082490001223,,,,,,,,,,,,13,C,2023-12-08_13h42.24.072,gca_discrimination,2022.2.4,144.28390454493035,
positions.xlsx,stimuli.xlsx,test.xlsx,stimuli/Social1.png,stimuli/Social2.png,stimuli/Nonsocial2.png,stimuli/Nonsocial1.png,stimuli/Test1.png,stimuli/Test2.png,"(-0.7, 0.5)",cs_plus_ns,"(-0.7, -0.5)",cs_minus_ns,0,0,0,0,,,,,0,73,73,24,,,,,,,,,,,,,,,326.43265470000915,327.4395669000078,327.4395669000078,327.58545250000316,328.0923135000048,328.0923135000048,328.2381754000089,ä,0.39514759997837245,correct,,328.6409050000075,329.3075521000137,327.4395669000078,,,,,,,,,,,,13,C,2023-12-08_13h42.24.072,gca_discrimination,2022.2.4,144.28390454493035,
positions.xlsx,stimuli.xlsx,test.xlsx,stimuli/Social1.png,stimuli/Social2.png,stimuli/Nonsocial2.png,stimuli/Nonsocial1.png,stimuli/Test1.png,stimuli/Test2.png,"(-0.7, -0.5)",cs_minus_ns,"(0.7, -0.5)",cs_minus_ns,0,0,0,0,,,,,0,74,74,89,,,,,,,,,,,,,,,329.3075521000137,330.3144730000058,330.3144730000058,330.46030760000576,330.96721190000244,330.96721190000244,331.1130178000021,l,0.3609102999907918,correct,,331.4810700000089,331.6824833999999,330.3144730000058,,,,,,,,,,,,13,C,2023-12-08_13h42.24.072,gca_discrimination,2022.2.4,144.28390454493035,
positions.xlsx,stimuli.xlsx,test.xlsx,stimuli/Social1.png,stimuli/Social2.png,stimuli/Nonsocial2.png,stimuli/Nonsocial1.png,stimuli/Test1.png,stimuli/Test2.png,"(-0.7, -0.5)",cs_plus_ns,"(-0.7, 0.5)",cs_minus_ns,0,0,0,0,,,,,0,75,75,27,,,,,,,,,,,,,,,331.6824833999999,332.6893863000005,332.6893863000005,332.8352112000139,333.34211860000505,333.34211860000505,333.4879653000098,l,0.6326321999949869,wrong,,334.13374370000383,334.63374810000823,332.6893863000005,,,,,,,,,,,,13,C,2023-12-08_13h42.24.072,gca_discrimination,2022.2.4,144.28390454493035,
positions.xlsx,stimuli.xlsx,test.xlsx,stimuli/Social1.png,stimuli/Social2.png,stimuli/Nonsocial2.png,stimuli/Nonsocial1.png,stimuli/Test1.png,stimuli/Test2.png,"(-0.7, -0.5)",cs_plus_s,"(-0.7, 0.5)",cs_plus_s,0,0,0,0,,,,,0,76,76,51,,,,,,,,,,,,,,,334.63374810000823,335.64065620000474,335.64065620000474,335.78645260000485,336.2934271000122,336.2934271000122,336.4392258000007,l,0.41754369997943286,correct,,336.8697853000049,337.529469000001,335.64065620000474,,,,,,,,,,,,13,C,2023-12-08_13h42.24.072,gca_discrimination,2022.2.4,144.28390454493035,
positions.xlsx,stimuli.xlsx,test.xlsx,stimuli/Social1.png,stimuli/Social2.png,stimuli/Nonsocial2.png,stimuli/Nonsocial1.png,stimuli/Test1.png,stimuli/Test2.png,"(0.7, 0.5)",cs_minus_s,"(-0.7, 0.5)",cs_minus_s,0,0,0,0,,,,,0,77,77,66,,,,,,,,,,,,,,,337.529469000001,338.53638710000087,338.53638710000087,338.682172300003,339.18917680000595,339.18917680000595,339.3349423000036,l,0.3786474999942584,correct,,339.7238049000007,340.5987865000061,338.53638710000087,,,,,,,,,,,,13,C,2023-12-08_13h42.24.072,gca_discrimination,2022.2.4,144.28390454493035,
positions.xlsx,stimuli.xlsx,test.xlsx,stimuli/Social1.png,stimuli/Social2.png,stimuli/Nonsocial2.png,stimuli/Nonsocial1.png,stimuli/Test1.png,stimuli/Test2.png,"(0.7, 0.5)",cs_plus_s,"(-0.7, 0.5)",cs_minus_s,0,0,0,0,,,,,0,78,78,6,,,,,,,,,,,,,,,340.5987865000061,341.60568030001014,341.60568030001014,341.75151130001177,342.25847360001353,342.25847360001353,342.4042721000005,ä,0.49289569997927174,correct,,342.9042652000062,343.88337870000396,341.60568030001014,,,,,,,,,,,,13,C,2023-12-08_13h42.24.072,gca_discrimination,2022.2.4,144.28390454493035,
positions.xlsx,stimuli.xlsx,test.xlsx,stimuli/Social1.png,stimuli/Social2.png,stimuli/Nonsocial2.png,stimuli/Nonsocial1.png,stimuli/Test1.png,stimuli/Test2.png,"(0.7, -0.5)",cs_plus_ns,"(-0.7, -0.5)",cs_plus_ns,0,0,0,0,,,,,0,79,79,82,,,,,,,,,,,,,,,343.88337870000396,344.8903216000035,344.8903216000035,345.03613570000743,345.5430430000124,345.5430430000124,345.6888694000081,l,0.5441584999935003,correct,,346.2444390000019,346.7374484000029,344.8903216000035,,,,,,,,,,,,13,C,2023-12-08_13h42.24.072,gca_discrimination,2022.2.4,144.28390454493035,
positions.xlsx,stimuli.xlsx,test.xlsx,stimuli/Social1.png,stimuli/Social2.png,stimuli/Nonsocial2.png,stimuli/Nonsocial1.png,stimuli/Test1.png,stimuli/Test2.png,"(0.7, 0.5)",cs_minus_ns,"(0.7, -0.5)",cs_plus_ns,0,0,0,0,,,,,0,80,80,44,,,,,,,,,,,,,,,346.7374484000029,347.744368700005,347.744368700005,347.890166600002,348.3970834000065,348.3970834000065,348.5429342999996,ä,0.46634509997966234,correct,,349.02205750001303,349.4178849000018,347.744368700005,,,,,,,,,,,,13,C,2023-12-08_13h42.24.072,gca_discrimination,2022.2.4,144.28390454493035,
positions.xlsx,stimuli.xlsx,test.xlsx,stimuli/Social1.png,stimuli/Social2.png,stimuli/Nonsocial2.png,stimuli/Nonsocial1.png,stimuli/Test1.png,stimuli/Test2.png,"(0.7, -0.5)",cs_plus_ns,"(0.7, 0.5)",cs_plus_ns,0,0,0,0,,,,,0,81,81,83,,,,,,,,,,,,,,,349.4178849000018,350.4248132000066,350.4248132000066,350.5706254000106,351.07755960000213,351.07755960000213,351.2233894000092,l,0.569603099982487,correct,,351.7997411000106,352.1400357000093,350.4248132000066,,,,,,,,,,,,13,C,2023-12-08_13h42.24.072,gca_discrimination,2022.2.4,144.28390454493035,
positions.xlsx,stimuli.xlsx,test.xlsx,stimuli/Social1.png,stimuli/Social2.png,stimuli/Nonsocial2.png,stimuli/Nonsocial1.png,stimuli/Test1.png,stimuli/Test2.png,"(-0.7, 0.5)",cs_minus_s,"(-0.7, -0.5)",cs_minus_s,0,0,0,0,,,,,0,82,82,60,,,,,,,,,,,,,,,352.1400357000093,353.14693460000854,353.14693460000854,353.2927528,353.7996803999995,353.7996803999995,353.945504000003,l,0.4549813999910839,correct,,354.4107509000023,354.77185600000666,353.14693460000854,,,,,,,,,,,,13,C,2023-12-08_13h42.24.072,gca_discrimination,2022.2.4,144.28390454493035,
positions.xlsx,stimuli.xlsx,test.xlsx,stimuli/Social1.png,stimuli/Social2.png,stimuli/Nonsocial2.png,stimuli/Nonsocial1.png,stimuli/Test1.png,stimuli/Test2.png,"(0.7, -0.5)",cs_plus_ns,"(-0.7, 0.5)",cs_plus_ns,0,0,0,0,,,,,0,83,83,81,,,,,,,,,,,,,,,354.77185600000666,355.7787813000032,355.7787813000032,355.9245956000086,356.431511200004,356.431511200004,356.5773770000087,l,0.791229199981899,correct,,357.3759091000102,357.7508964000008,355.7787813000032,,,,,,,,,,,,13,C,2023-12-08_13h42.24.072,gca_discrimination,2022.2.4,144.28390454493035,
positions.xlsx,stimuli.xlsx,test.xlsx,stimuli/Social1.png,stimuli/Social2.png,stimuli/Nonsocial2.png,stimuli/Nonsocial1.png,stimuli/Test1.png,stimuli/Test2.png,"(0.7, -0.5)",cs_plus_s,"(-0.7, 0.5)",cs_minus_s,0,0,0,0,,,,,0,84,84,9,,,,,,,,,,,,,,,357.7508964000008,358.75779260000854,358.75779260000854,358.90365810001094,359.4105513000104,359.4105513000104,359.55639000001247,ä,0.4440244999859715,correct,,360.0077919000032,360.77163240000664,358.75779260000854,,,,,,,,,,,,13,C,2023-12-08_13h42.24.072,gca_discrimination,2022.2.4,144.28390454493035,
positions.xlsx,stimuli.xlsx,test.xlsx,stimuli/Social1.png,stimuli/Social2.png,stimuli/Nonsocial2.png,stimuli/Nonsocial1.png,stimuli/Test1.png,stimuli/Test2.png,"(-0.7, -0.5)",cs_minus_s,"(0.7, 0.5)",cs_minus_s,0,0,0,0,,,,,0,85,85,64,,,,,,,,,,,,,,,360.77163240000664,361.7785384000017,361.7785384000017,361.92438080000284,362.4312728000077,362.4312728000077,362.5770715000108,l,0.40842459998384584,correct,,362.9937568000023,363.4034500000125,361.7785384000017,,,,,,,,,,,,13,C,2023-12-08_13h42.24.072,gca_discrimination,2022.2.4,144.28390454493035,
positions.xlsx,stimuli.xlsx,test.xlsx,stimuli/Social1.png,stimuli/Social2.png,stimuli/Nonsocial2.png,stimuli/Nonsocial1.png,stimuli/Test1.png,stimuli/Test2.png,"(-0.7, 0.5)",cs_minus_ns,"(0.7, 0.5)",cs_minus_ns,0,0,0,0,,,,,0,86,86,85,,,,,,,,,,,,,,,363.4034500000125,364.4103904000076,364.4103904000076,364.55620270001236,365.06313280000177,365.06313280000177,365.20897140000307,l,0.32748809998156503,correct,,365.549196100008,365.73672360001365,364.4103904000076,,,,,,,,,,,,13,C,2023-12-08_13h42.24.072,gca_discrimination,2022.2.4,144.28390454493035,
positions.xlsx,stimuli.xlsx,test.xlsx,stimuli/Social1.png,stimuli/Social2.png,stimuli/Nonsocial2.png,stimuli/Nonsocial1.png,stimuli/Test1.png,stimuli/Test2.png,"(0.7, -0.5)",cs_minus_ns,"(-0.7, 0.5)",cs_plus_ns,0,0,0,0,,,,,0,87,87,45,,,,,,,,,,,,,,,365.73672360001365,366.74364010000136,366.74364010000136,366.88942760000646,367.3963586000027,367.3963586000027,367.5421820000047,ä,0.4021892999735428,correct,,367.9518856000068,368.54907790001016,366.74364010000136,,,,,,,,,,,,13,C,2023-12-08_13h42.24.072,gca_discrimination,2022.2.4,144.28390454493035,
positions.xlsx,stimuli.xlsx,test.xlsx,stimuli/Social1.png,stimuli/Social2.png,stimuli/Nonsocial2.png,stimuli/Nonsocial1.png,stimuli/Test1.png,stimuli/Test2.png,"(-0.7, 0.5)",cs_minus_ns,"(-0.7, -0.5)",cs_plus_ns,0,0,0,0,,,,,0,88,88,36,,,,,,,,,,,,,,,368.54907790001016,369.5560117999994,369.5560117999994,369.70182190000196,370.20873380001285,370.20873380001285,370.35459940000146,ä,0.454928099992685,correct,,370.81985350001196,371.0281845000136,369.5560117999994,,,,,,,,,,,,13,C,2023-12-08_13h42.24.072,gca_discrimination,2022.2.4,144.28390454493035,
positions.xlsx,stimuli.xlsx,test.xlsx,stimuli/Social1.png,stimuli/Social2.png,stimuli/Nonsocial2.png,stimuli/Nonsocial1.png,stimuli/Test1.png,stimuli/Test2.png,"(-0.7, 0.5)",cs_minus_ns,"(-0.7, -0.5)",cs_minus_ns,0,0,0,0,,,,,0,89,89,84,,,,,,,,,,,,,,,371.0281845000136,372.03508000000147,372.03508000000147,372.18092140000954,372.6878509000089,372.6878509000089,372.8336621000053,l,0.5509616999916034,correct,,373.3961285000114,374.38220620001084,372.03508000000147,,,,,,,,,,,,13,C,2023-12-08_13h42.24.072,gca_discrimination,2022.2.4,144.28390454493035,
positions.xlsx,stimuli.xlsx,test.xlsx,stimuli/Social1.png,stimuli/Social2.png,stimuli/Nonsocial2.png,stimuli/Nonsocial1.png,stimuli/Test1.png,stimuli/Test2.png,"(-0.7, 0.5)",cs_plus_s,"(-0.7, -0.5)",cs_minus_s,0,0,0,0,,,,,0,90,90,0,,,,,,,,,,,,,,,374.38220620001084,375.3891150000127,375.3891150000127,375.5349395000085,376.04186760001176,376.04186760001176,376.1876936000044,ä,0.4848895999894012,correct,,376.6807145000057,377.0487346000009,375.3891150000127,,,,,,,,,,,,13,C,2023-12-08_13h42.24.072,gca_discrimination,2022.2.4,144.28390454493035,
positions.xlsx,stimuli.xlsx,test.xlsx,stimuli/Social1.png,stimuli/Social2.png,stimuli/Nonsocial2.png,stimuli/Nonsocial1.png,stimuli/Test1.png,stimuli/Test2.png,"(-0.7, -0.5)",cs_plus_ns,"(0.7, -0.5)",cs_plus_ns,0,0,0,0,,,,,0,91,91,77,,,,,,,,,,,,,,,377.0487346000009,378.0556957000081,378.0556957000081,378.2015234999999,378.7083905000036,378.7083905000036,378.85426460001327,l,0.4504140999924857,correct,,379.3125629999995,380.31251560000237,378.0556957000081,,,,,,,,,,,,13,C,2023-12-08_13h42.24.072,gca_discrimination,2022.2.4,144.28390454493035,
positions.xlsx,stimuli.xlsx,test.xlsx,stimuli/Social1.png,stimuli/Social2.png,stimuli/Nonsocial2.png,stimuli/Nonsocial1.png,stimuli/Test1.png,stimuli/Test2.png,"(-0.7, 0.5)",cs_minus_s,"(0.7, -0.5)",cs_minus_s,0,0,0,0,,,,,0,92,92,62,,,,,,,,,,,,,,,380.31251560000237,381.3194760000042,381.3194760000042,381.4652816000016,381.9721932000102,381.9721932000102,382.11802250001347,l,0.41917369997827336,correct,,382.54856650000147,383.5207506000006,381.3194760000042,,,,,,,,,,,,13,C,2023-12-08_13h42.24.072,gca_discrimination,2022.2.4,144.28390454493035,
positions.xlsx,stimuli.xlsx,test.xlsx,stimuli/Social1.png,stimuli/Social2.png,stimuli/Nonsocial2.png,stimuli/Nonsocial1.png,stimuli/Test1.png,stimuli/Test2.png,"(0.7, 0.5)",cs_plus_ns,"(0.7, -0.5)",cs_minus_ns,0,0,0,0,,,,,0,93,93,32,,,,,,,,,,,,,,,383.5207506000006,384.52763520000735,384.52763520000735,384.6735269000055,385.18041100000846,385.18041100000846,385.3262176999997,ä,0.4595118999859551,correct,,385.7984286000137,386.33315050000965,384.52763520000735,,,,,,,,,,,,13,C,2023-12-08_13h42.24.072,gca_discrimination,2022.2.4,144.28390454493035,
positions.xlsx,stimuli.xlsx,test.xlsx,stimuli/Social1.png,stimuli/Social2.png,stimuli/Nonsocial2.png,stimuli/Nonsocial1.png,stimuli/Test1.png,stimuli/Test2.png,"(-0.7, 0.5)",cs_plus_s,"(0.7, -0.5)",cs_minus_s,0,0,0,0,,,,,0,94,94,2,,,,,,,,,,,,,,,386.33315050000965,387.3399991000042,387.3399991000042,387.48587300001236,387.99281340000744,387.99281340000744,388.1385958000028,ä,0.5501977999811061,correct,,388.70109260000754,389.2496724000084,387.3399991000042,,,,,,,,,,,,13,C,2023-12-08_13h42.24.072,gca_discrimination,2022.2.4,144.28390454493035,
positions.xlsx,stimuli.xlsx,test.xlsx,stimuli/Social1.png,stimuli/Social2.png,stimuli/Nonsocial2.png,stimuli/Nonsocial1.png,stimuli/Test1.png,stimuli/Test2.png,"(-0.7, -0.5)",cs_plus_ns,"(0.7, 0.5)",cs_minus_ns,0,0,0,0,,,,,0,95,95,28,,,,,,,,,,,,,,,389.2496724000084,390.25659460001043,390.25659460001043,390.4024303000042,390.90937300000223,390.90937300000223,391.05517690000124,ä,0.5860478999820771,correct,,391.65236850001384,392.5134718000045,390.25659460001043,,,,,,,,,,,,13,C,2023-12-08_13h42.24.072,gca_discrimination,2022.2.4,144.28390454493035,
