posFile,stimFile,testFile,cs_plus_s,cs_minus_s,cs_plus_ns,cs_minus_ns,test1,test2,position1,trialtype,position2,comptype,blocks.thisRepN,blocks.thisTrialN,blocks.thisN,blocks.thisIndex,learning_trials.thisRepN,learning_trials.thisTrialN,learning_trials.thisN,learning_trials.thisIndex,trials.thisRepN,trials.thisTrialN,trials.thisN,trials.thisIndex,textStart.started,key.started,key.keys,key.rt,correctness,textStartTask.started,participant,group,date,expName,psychopyVersion,frameRate,
positions.xlsx,stimuli.xlsx,test.xlsx,stimuli/Social2.png,stimuli/Social1.png,stimuli/Nonsocial2.png,stimuli/Nonsocial1.png,stimuli/Test1.png,stimuli/Test2.png,"(0.7, -0.5)",test1,"(0.7, 0.5)",test2,0,0,0,0,0,0,0,0,,,,,18.565217399969697,47.07801359985024,ä,0.819524500053376,correct,,41,D,2023-12-21_09h29.24.082,gca_discrimination,2022.2.4,144.04551843528873,
positions.xlsx,stimuli.xlsx,test.xlsx,stimuli/Social2.png,stimuli/Social1.png,stimuli/Nonsocial2.png,stimuli/Nonsocial1.png,stimuli/Test1.png,stimuli/Test2.png,"(-0.7, 0.5)",test2,"(0.7, 0.5)",test1,0,0,0,0,0,1,1,3,,,,,,51.95979019999504,ä,0.9776953002437949,correct,,41,D,2023-12-21_09h29.24.082,gca_discrimination,2022.2.4,144.04551843528873,
positions.xlsx,stimuli.xlsx,test.xlsx,stimuli/Social2.png,stimuli/Social1.png,stimuli/Nonsocial2.png,stimuli/Nonsocial1.png,stimuli/Test1.png,stimuli/Test2.png,"(0.7, -0.5)",test2,"(-0.7, 0.5)",test1,0,0,0,0,0,2,2,4,,,,,,57.4109732999932,ä,0.790128500200808,correct,,41,D,2023-12-21_09h29.24.082,gca_discrimination,2022.2.4,144.04551843528873,
positions.xlsx,stimuli.xlsx,test.xlsx,stimuli/Social2.png,stimuli/Social1.png,stimuli/Nonsocial2.png,stimuli/Nonsocial1.png,stimuli/Test1.png,stimuli/Test2.png,"(-0.7, 0.5)",test2,"(-0.7, -0.5)",test2,0,0,0,0,0,3,3,1,,,,,,62.50796810002066,l,0.6779044000431895,correct,,41,D,2023-12-21_09h29.24.082,gca_discrimination,2022.2.4,144.04551843528873,
positions.xlsx,stimuli.xlsx,test.xlsx,stimuli/Social2.png,stimuli/Social1.png,stimuli/Nonsocial2.png,stimuli/Nonsocial1.png,stimuli/Test1.png,stimuli/Test2.png,"(-0.7, -0.5)",test2,"(0.7, -0.5)",test2,0,0,0,0,0,4,4,9,,,,,,67.4869641000405,l,0.9302573001477867,correct,,41,D,2023-12-21_09h29.24.082,gca_discrimination,2022.2.4,144.04551843528873,
positions.xlsx,stimuli.xlsx,test.xlsx,stimuli/Social2.png,stimuli/Social1.png,stimuli/Nonsocial2.png,stimuli/Nonsocial1.png,stimuli/Test1.png,stimuli/Test2.png,"(0.7, 0.5)",test1,"(0.7, -0.5)",test2,0,0,0,0,0,5,5,11,,,,,,72.6325741999317,ä,0.7930994001217186,correct,,41,D,2023-12-21_09h29.24.082,gca_discrimination,2022.2.4,144.04551843528873,
positions.xlsx,stimuli.xlsx,test.xlsx,stimuli/Social2.png,stimuli/Social1.png,stimuli/Nonsocial2.png,stimuli/Nonsocial1.png,stimuli/Test1.png,stimuli/Test2.png,"(-0.7, 0.5)",test2,"(0.7, -0.5)",test1,0,0,0,0,0,6,6,12,,,,,,77.68795989989303,ä,0.6415059003047645,correct,,41,D,2023-12-21_09h29.24.082,gca_discrimination,2022.2.4,144.04551843528873,
positions.xlsx,stimuli.xlsx,test.xlsx,stimuli/Social2.png,stimuli/Social1.png,stimuli/Nonsocial2.png,stimuli/Nonsocial1.png,stimuli/Test1.png,stimuli/Test2.png,"(0.7, 0.5)",test2,"(0.7, -0.5)",test1,0,0,0,0,0,7,7,6,,,,,,82.89610969997011,ä,0.6655737000983208,correct,,41,D,2023-12-21_09h29.24.082,gca_discrimination,2022.2.4,144.04551843528873,
positions.xlsx,stimuli.xlsx,test.xlsx,stimuli/Social2.png,stimuli/Social1.png,stimuli/Nonsocial2.png,stimuli/Nonsocial1.png,stimuli/Test1.png,stimuli/Test2.png,"(0.7, -0.5)",test1,"(0.7, 0.5)",test1,0,0,0,0,0,8,8,10,,,,,,88.0625652000308,l,0.6194959999993443,correct,,41,D,2023-12-21_09h29.24.082,gca_discrimination,2022.2.4,144.04551843528873,
positions.xlsx,stimuli.xlsx,test.xlsx,stimuli/Social2.png,stimuli/Social1.png,stimuli/Nonsocial2.png,stimuli/Nonsocial1.png,stimuli/Test1.png,stimuli/Test2.png,"(-0.7, -0.5)",test2,"(-0.7, 0.5)",test2,0,0,0,0,0,9,9,2,,,,,,92.77766639995389,l,1.3365759002044797,correct,,41,D,2023-12-21_09h29.24.082,gca_discrimination,2022.2.4,144.04551843528873,
positions.xlsx,stimuli.xlsx,test.xlsx,stimuli/Social2.png,stimuli/Social1.png,stimuli/Nonsocial2.png,stimuli/Nonsocial1.png,stimuli/Test1.png,stimuli/Test2.png,"(-0.7, -0.5)",test1,"(0.7, 0.5)",test2,0,0,0,0,0,10,10,8,,,,,,98.40243220003322,ä,0.9595541001763195,correct,,41,D,2023-12-21_09h29.24.082,gca_discrimination,2022.2.4,144.04551843528873,
positions.xlsx,stimuli.xlsx,test.xlsx,stimuli/Social2.png,stimuli/Social1.png,stimuli/Nonsocial2.png,stimuli/Nonsocial1.png,stimuli/Test1.png,stimuli/Test2.png,"(-0.7, 0.5)",test1,"(0.7, -0.5)",test1,0,0,0,0,0,11,11,5,,,,,,104.11750109982677,l,0.5880009999964386,correct,,41,D,2023-12-21_09h29.24.082,gca_discrimination,2022.2.4,144.04551843528873,
positions.xlsx,stimuli.xlsx,test.xlsx,stimuli/Social2.png,stimuli/Social1.png,stimuli/Nonsocial2.png,stimuli/Nonsocial1.png,stimuli/Test1.png,stimuli/Test2.png,"(0.7, 0.5)",test2,"(-0.7, 0.5)",test1,0,0,0,0,0,12,12,13,,,,,,109.49922270001844,ä,0.7665556999854743,correct,,41,D,2023-12-21_09h29.24.082,gca_discrimination,2022.2.4,144.04551843528873,
positions.xlsx,stimuli.xlsx,test.xlsx,stimuli/Social2.png,stimuli/Social1.png,stimuli/Nonsocial2.png,stimuli/Nonsocial1.png,stimuli/Test1.png,stimuli/Test2.png,"(-0.7, -0.5)",test2,"(0.7, 0.5)",test2,0,0,0,0,0,13,13,7,,,,,,114.47820100001991,ä,1.348327400162816,wrong,,41,D,2023-12-21_09h29.24.082,gca_discrimination,2022.2.4,144.04551843528873,
positions.xlsx,stimuli.xlsx,test.xlsx,stimuli/Social2.png,stimuli/Social1.png,stimuli/Nonsocial2.png,stimuli/Nonsocial1.png,stimuli/Test1.png,stimuli/Test2.png,"(0.7, -0.5)",cs_minus_ns,"(-0.7, -0.5)",cs_minus_ns,0,0,0,0,,,,,0,0,0,94,,135.6093089999631,l,0.8326307001989335,correct,117.99193549994379,41,D,2023-12-21_09h29.24.082,gca_discrimination,2022.2.4,144.04551843528873,
positions.xlsx,stimuli.xlsx,test.xlsx,stimuli/Social2.png,stimuli/Social1.png,stimuli/Nonsocial2.png,stimuli/Nonsocial1.png,stimuli/Test1.png,stimuli/Test2.png,"(-0.7, 0.5)",cs_minus_ns,"(0.7, 0.5)",cs_minus_ns,0,0,0,0,,,,,0,1,1,85,,138.88698019995354,l,0.6265733002219349,correct,,41,D,2023-12-21_09h29.24.082,gca_discrimination,2022.2.4,144.04551843528873,
positions.xlsx,stimuli.xlsx,test.xlsx,stimuli/Social2.png,stimuli/Social1.png,stimuli/Nonsocial2.png,stimuli/Nonsocial1.png,stimuli/Test1.png,stimuli/Test2.png,"(0.7, -0.5)",cs_plus_ns,"(0.7, 0.5)",cs_plus_ns,0,0,0,0,,,,,0,2,2,83,,141.62295460002497,l,0.8430952001363039,correct,,41,D,2023-12-21_09h29.24.082,gca_discrimination,2022.2.4,144.04551843528873,
positions.xlsx,stimuli.xlsx,test.xlsx,stimuli/Social2.png,stimuli/Social1.png,stimuli/Nonsocial2.png,stimuli/Nonsocial1.png,stimuli/Test1.png,stimuli/Test2.png,"(0.7, 0.5)",cs_minus_s,"(-0.7, 0.5)",cs_plus_s,0,0,0,0,,,,,0,3,3,18,,145.2131068999879,ä,0.5808656001463532,correct,,41,D,2023-12-21_09h29.24.082,gca_discrimination,2022.2.4,144.04551843528873,
positions.xlsx,stimuli.xlsx,test.xlsx,stimuli/Social2.png,stimuli/Social1.png,stimuli/Nonsocial2.png,stimuli/Nonsocial1.png,stimuli/Test1.png,stimuli/Test2.png,"(-0.7, 0.5)",cs_plus_s,"(-0.7, -0.5)",cs_plus_s,0,0,0,0,,,,,0,4,4,48,,148.26854319986887,l,0.6209948000032455,correct,,41,D,2023-12-21_09h29.24.082,gca_discrimination,2022.2.4,144.04551843528873,
positions.xlsx,stimuli.xlsx,test.xlsx,stimuli/Social2.png,stimuli/Social1.png,stimuli/Nonsocial2.png,stimuli/Nonsocial1.png,stimuli/Test1.png,stimuli/Test2.png,"(0.7, 0.5)",cs_plus_ns,"(-0.7, -0.5)",cs_plus_ns,0,0,0,0,,,,,0,5,5,79,,151.05316179990768,l,0.5974383000284433,correct,,41,D,2023-12-21_09h29.24.082,gca_discrimination,2022.2.4,144.04551843528873,
positions.xlsx,stimuli.xlsx,test.xlsx,stimuli/Social2.png,stimuli/Social1.png,stimuli/Nonsocial2.png,stimuli/Nonsocial1.png,stimuli/Test1.png,stimuli/Test2.png,"(-0.7, -0.5)",cs_plus_s,"(0.7, -0.5)",cs_plus_s,0,0,0,0,,,,,0,6,6,53,,153.89332889998332,l,0.8526697000488639,correct,,41,D,2023-12-21_09h29.24.082,gca_discrimination,2022.2.4,144.04551843528873,
positions.xlsx,stimuli.xlsx,test.xlsx,stimuli/Social2.png,stimuli/Social1.png,stimuli/Nonsocial2.png,stimuli/Nonsocial1.png,stimuli/Test1.png,stimuli/Test2.png,"(0.7, 0.5)",cs_plus_ns,"(0.7, -0.5)",cs_plus_ns,0,0,0,0,,,,,0,7,7,80,,157.29594519990496,l,0.6187446000985801,correct,,41,D,2023-12-21_09h29.24.082,gca_discrimination,2022.2.4,144.04551843528873,
positions.xlsx,stimuli.xlsx,test.xlsx,stimuli/Social2.png,stimuli/Social1.png,stimuli/Nonsocial2.png,stimuli/Nonsocial1.png,stimuli/Test1.png,stimuli/Test2.png,"(-0.7, -0.5)",cs_minus_s,"(0.7, 0.5)",cs_minus_s,0,0,0,0,,,,,0,8,8,64,,160.70557869994082,l,0.7201855001039803,correct,,41,D,2023-12-21_09h29.24.082,gca_discrimination,2022.2.4,144.04551843528873,
positions.xlsx,stimuli.xlsx,test.xlsx,stimuli/Social2.png,stimuli/Social1.png,stimuli/Nonsocial2.png,stimuli/Nonsocial1.png,stimuli/Test1.png,stimuli/Test2.png,"(-0.7, 0.5)",cs_minus_ns,"(0.7, -0.5)",cs_plus_ns,0,0,0,0,,,,,0,9,9,38,,163.25409309985116,ä,0.7715702999848872,correct,,41,D,2023-12-21_09h29.24.082,gca_discrimination,2022.2.4,144.04551843528873,
positions.xlsx,stimuli.xlsx,test.xlsx,stimuli/Social2.png,stimuli/Social1.png,stimuli/Nonsocial2.png,stimuli/Nonsocial1.png,stimuli/Test1.png,stimuli/Test2.png,"(0.7, 0.5)",cs_minus_ns,"(-0.7, -0.5)",cs_minus_ns,0,0,0,0,,,,,0,10,10,91,,166.66369199985638,l,0.6898074001073837,correct,,41,D,2023-12-21_09h29.24.082,gca_discrimination,2022.2.4,144.04551843528873,
positions.xlsx,stimuli.xlsx,test.xlsx,stimuli/Social2.png,stimuli/Social1.png,stimuli/Nonsocial2.png,stimuli/Nonsocial1.png,stimuli/Test1.png,stimuli/Test2.png,"(0.7, 0.5)",cs_minus_ns,"(0.7, -0.5)",cs_minus_ns,0,0,0,0,,,,,0,11,11,92,,169.19137399992906,l,0.6420833000447601,correct,,41,D,2023-12-21_09h29.24.082,gca_discrimination,2022.2.4,144.04551843528873,
positions.xlsx,stimuli.xlsx,test.xlsx,stimuli/Social2.png,stimuli/Social1.png,stimuli/Nonsocial2.png,stimuli/Nonsocial1.png,stimuli/Test1.png,stimuli/Test2.png,"(-0.7, -0.5)",cs_minus_ns,"(0.7, 0.5)",cs_minus_ns,0,0,0,0,,,,,0,12,12,88,,171.91347149992362,l,0.5359171000309289,correct,,41,D,2023-12-21_09h29.24.082,gca_discrimination,2022.2.4,144.04551843528873,
positions.xlsx,stimuli.xlsx,test.xlsx,stimuli/Social2.png,stimuli/Social1.png,stimuli/Nonsocial2.png,stimuli/Nonsocial1.png,stimuli/Test1.png,stimuli/Test2.png,"(0.7, 0.5)",cs_plus_s,"(-0.7, 0.5)",cs_plus_s,0,0,0,0,,,,,0,13,13,54,,174.55228399997577,l,0.7854991001076996,correct,,41,D,2023-12-21_09h29.24.082,gca_discrimination,2022.2.4,144.04551843528873,
positions.xlsx,stimuli.xlsx,test.xlsx,stimuli/Social2.png,stimuli/Social1.png,stimuli/Nonsocial2.png,stimuli/Nonsocial1.png,stimuli/Test1.png,stimuli/Test2.png,"(-0.7, -0.5)",cs_plus_s,"(0.7, 0.5)",cs_plus_s,0,0,0,0,,,,,0,14,14,52,,178.10074429982342,l,0.6136773000471294,correct,,41,D,2023-12-21_09h29.24.082,gca_discrimination,2022.2.4,144.04551843528873,
positions.xlsx,stimuli.xlsx,test.xlsx,stimuli/Social2.png,stimuli/Social1.png,stimuli/Nonsocial2.png,stimuli/Nonsocial1.png,stimuli/Test1.png,stimuli/Test2.png,"(-0.7, 0.5)",cs_minus_ns,"(0.7, -0.5)",cs_minus_ns,0,0,0,0,,,,,0,15,15,86,,180.96866380004212,l,0.7212759000249207,correct,,41,D,2023-12-21_09h29.24.082,gca_discrimination,2022.2.4,144.04551843528873,
positions.xlsx,stimuli.xlsx,test.xlsx,stimuli/Social2.png,stimuli/Social1.png,stimuli/Nonsocial2.png,stimuli/Nonsocial1.png,stimuli/Test1.png,stimuli/Test2.png,"(0.7, -0.5)",cs_minus_s,"(-0.7, 0.5)",cs_plus_s,0,0,0,0,,,,,0,16,16,21,,184.475506399991,ä,0.6304251002147794,correct,,41,D,2023-12-21_09h29.24.082,gca_discrimination,2022.2.4,144.04551843528873,
positions.xlsx,stimuli.xlsx,test.xlsx,stimuli/Social2.png,stimuli/Social1.png,stimuli/Nonsocial2.png,stimuli/Nonsocial1.png,stimuli/Test1.png,stimuli/Test2.png,"(-0.7, 0.5)",cs_plus_ns,"(-0.7, -0.5)",cs_minus_ns,0,0,0,0,,,,,0,17,17,24,,187.21149299992248,ä,0.5742649000603706,correct,,41,D,2023-12-21_09h29.24.082,gca_discrimination,2022.2.4,144.04551843528873,
positions.xlsx,stimuli.xlsx,test.xlsx,stimuli/Social2.png,stimuli/Social1.png,stimuli/Nonsocial2.png,stimuli/Nonsocial1.png,stimuli/Test1.png,stimuli/Test2.png,"(0.7, -0.5)",cs_minus_ns,"(-0.7, 0.5)",cs_plus_ns,0,0,0,0,,,,,0,18,18,45,,190.35027669998817,ä,0.611772500211373,correct,,41,D,2023-12-21_09h29.24.082,gca_discrimination,2022.2.4,144.04551843528873,
positions.xlsx,stimuli.xlsx,test.xlsx,stimuli/Social2.png,stimuli/Social1.png,stimuli/Nonsocial2.png,stimuli/Nonsocial1.png,stimuli/Test1.png,stimuli/Test2.png,"(0.7, -0.5)",cs_plus_s,"(-0.7, -0.5)",cs_plus_s,0,0,0,0,,,,,0,19,19,58,,192.98213279992342,l,0.9557493000756949,correct,,41,D,2023-12-21_09h29.24.082,gca_discrimination,2022.2.4,144.04551843528873,
positions.xlsx,stimuli.xlsx,test.xlsx,stimuli/Social2.png,stimuli/Social1.png,stimuli/Nonsocial2.png,stimuli/Nonsocial1.png,stimuli/Test1.png,stimuli/Test2.png,"(-0.7, 0.5)",cs_plus_s,"(-0.7, -0.5)",cs_minus_s,0,0,0,0,,,,,0,20,20,0,,196.75280110002495,ä,0.6323705001268536,correct,,41,D,2023-12-21_09h29.24.082,gca_discrimination,2022.2.4,144.04551843528873,
positions.xlsx,stimuli.xlsx,test.xlsx,stimuli/Social2.png,stimuli/Social1.png,stimuli/Nonsocial2.png,stimuli/Nonsocial1.png,stimuli/Test1.png,stimuli/Test2.png,"(-0.7, 0.5)",cs_minus_s,"(0.7, 0.5)",cs_minus_s,0,0,0,0,,,,,0,21,21,61,,199.6415796999354,l,0.7918716000858694,correct,,41,D,2023-12-21_09h29.24.082,gca_discrimination,2022.2.4,144.04551843528873,
positions.xlsx,stimuli.xlsx,test.xlsx,stimuli/Social2.png,stimuli/Social1.png,stimuli/Nonsocial2.png,stimuli/Nonsocial1.png,stimuli/Test1.png,stimuli/Test2.png,"(0.7, -0.5)",cs_minus_ns,"(-0.7, -0.5)",cs_plus_ns,0,0,0,0,,,,,0,22,22,46,,202.28036689991131,ä,0.6016264001373202,correct,,41,D,2023-12-21_09h29.24.082,gca_discrimination,2022.2.4,144.04551843528873,
positions.xlsx,stimuli.xlsx,test.xlsx,stimuli/Social2.png,stimuli/Social1.png,stimuli/Nonsocial2.png,stimuli/Nonsocial1.png,stimuli/Test1.png,stimuli/Test2.png,"(-0.7, -0.5)",cs_minus_s,"(0.7, -0.5)",cs_minus_s,0,0,0,0,,,,,0,23,23,65,,204.7316546998918,l,0.806891500018537,correct,,41,D,2023-12-21_09h29.24.082,gca_discrimination,2022.2.4,144.04551843528873,
positions.xlsx,stimuli.xlsx,test.xlsx,stimuli/Social2.png,stimuli/Social1.png,stimuli/Nonsocial2.png,stimuli/Nonsocial1.png,stimuli/Test1.png,stimuli/Test2.png,"(-0.7, -0.5)",cs_plus_ns,"(0.7, 0.5)",cs_minus_ns,0,0,0,0,,,,,0,24,24,28,,207.4607159998268,ä,0.6206046999432147,correct,,41,D,2023-12-21_09h29.24.082,gca_discrimination,2022.2.4,144.04551843528873,
positions.xlsx,stimuli.xlsx,test.xlsx,stimuli/Social2.png,stimuli/Social1.png,stimuli/Nonsocial2.png,stimuli/Nonsocial1.png,stimuli/Test1.png,stimuli/Test2.png,"(-0.7, 0.5)",cs_minus_s,"(0.7, -0.5)",cs_minus_s,0,0,0,0,,,,,0,25,25,62,,210.74530939990655,l,0.6161147002130747,correct,,41,D,2023-12-21_09h29.24.082,gca_discrimination,2022.2.4,144.04551843528873,
positions.xlsx,stimuli.xlsx,test.xlsx,stimuli/Social2.png,stimuli/Social1.png,stimuli/Nonsocial2.png,stimuli/Nonsocial1.png,stimuli/Test1.png,stimuli/Test2.png,"(0.7, -0.5)",cs_plus_s,"(0.7, 0.5)",cs_plus_s,0,0,0,0,,,,,0,26,26,59,,214.05769639997743,l,0.46445970004424453,correct,,41,D,2023-12-21_09h29.24.082,gca_discrimination,2022.2.4,144.04551843528873,
positions.xlsx,stimuli.xlsx,test.xlsx,stimuli/Social2.png,stimuli/Social1.png,stimuli/Nonsocial2.png,stimuli/Nonsocial1.png,stimuli/Test1.png,stimuli/Test2.png,"(-0.7, -0.5)",cs_plus_s,"(-0.7, 0.5)",cs_plus_s,0,0,0,0,,,,,0,27,27,51,,216.5645657000132,l,0.5967594000976533,correct,,41,D,2023-12-21_09h29.24.082,gca_discrimination,2022.2.4,144.04551843528873,
positions.xlsx,stimuli.xlsx,test.xlsx,stimuli/Social2.png,stimuli/Social1.png,stimuli/Nonsocial2.png,stimuli/Nonsocial1.png,stimuli/Test1.png,stimuli/Test2.png,"(-0.7, -0.5)",cs_plus_ns,"(-0.7, 0.5)",cs_minus_ns,0,0,0,0,,,,,0,28,28,27,,219.1894284998998,ä,0.6044525001198053,correct,,41,D,2023-12-21_09h29.24.082,gca_discrimination,2022.2.4,144.04551843528873,
positions.xlsx,stimuli.xlsx,test.xlsx,stimuli/Social2.png,stimuli/Social1.png,stimuli/Nonsocial2.png,stimuli/Nonsocial1.png,stimuli/Test1.png,stimuli/Test2.png,"(0.7, -0.5)",cs_plus_ns,"(-0.7, -0.5)",cs_minus_ns,0,0,0,0,,,,,0,29,29,34,,222.5920969999861,ä,0.7532167001627386,correct,,41,D,2023-12-21_09h29.24.082,gca_discrimination,2022.2.4,144.04551843528873,
positions.xlsx,stimuli.xlsx,test.xlsx,stimuli/Social2.png,stimuli/Social1.png,stimuli/Nonsocial2.png,stimuli/Nonsocial1.png,stimuli/Test1.png,stimuli/Test2.png,"(0.7, 0.5)",cs_plus_ns,"(-0.7, -0.5)",cs_minus_ns,0,0,0,0,,,,,0,30,30,31,,225.96696630003862,ä,0.555648900102824,correct,,41,D,2023-12-21_09h29.24.082,gca_discrimination,2022.2.4,144.04551843528873,
positions.xlsx,stimuli.xlsx,test.xlsx,stimuli/Social2.png,stimuli/Social1.png,stimuli/Nonsocial2.png,stimuli/Nonsocial1.png,stimuli/Test1.png,stimuli/Test2.png,"(0.7, 0.5)",cs_minus_ns,"(0.7, -0.5)",cs_plus_ns,0,0,0,0,,,,,0,31,31,44,,228.58488039998338,ä,0.6090015002992004,correct,,41,D,2023-12-21_09h29.24.082,gca_discrimination,2022.2.4,144.04551843528873,
positions.xlsx,stimuli.xlsx,test.xlsx,stimuli/Social2.png,stimuli/Social1.png,stimuli/Nonsocial2.png,stimuli/Nonsocial1.png,stimuli/Test1.png,stimuli/Test2.png,"(0.7, 0.5)",cs_plus_s,"(-0.7, -0.5)",cs_minus_s,0,0,0,0,,,,,0,32,32,7,,231.45286009996198,ä,0.7500990000553429,correct,,41,D,2023-12-21_09h29.24.082,gca_discrimination,2022.2.4,144.04551843528873,
positions.xlsx,stimuli.xlsx,test.xlsx,stimuli/Social2.png,stimuli/Social1.png,stimuli/Nonsocial2.png,stimuli/Nonsocial1.png,stimuli/Test1.png,stimuli/Test2.png,"(-0.7, 0.5)",cs_plus_ns,"(0.7, 0.5)",cs_plus_ns,0,0,0,0,,,,,0,33,33,73,,234.74438529997133,l,0.6173964000772685,correct,,41,D,2023-12-21_09h29.24.082,gca_discrimination,2022.2.4,144.04551843528873,
positions.xlsx,stimuli.xlsx,test.xlsx,stimuli/Social2.png,stimuli/Social1.png,stimuli/Nonsocial2.png,stimuli/Nonsocial1.png,stimuli/Test1.png,stimuli/Test2.png,"(-0.7, -0.5)",cs_plus_ns,"(0.7, -0.5)",cs_plus_ns,0,0,0,0,,,,,0,34,34,77,,238.0151094000321,l,0.7551116000395268,correct,,41,D,2023-12-21_09h29.24.082,gca_discrimination,2022.2.4,144.04551843528873,
positions.xlsx,stimuli.xlsx,test.xlsx,stimuli/Social2.png,stimuli/Social1.png,stimuli/Nonsocial2.png,stimuli/Nonsocial1.png,stimuli/Test1.png,stimuli/Test2.png,"(0.7, -0.5)",cs_minus_s,"(0.7, 0.5)",cs_minus_s,0,0,0,0,,,,,0,35,35,71,,240.86224599997513,l,0.5559055001940578,correct,,41,D,2023-12-21_09h29.24.082,gca_discrimination,2022.2.4,144.04551843528873,
positions.xlsx,stimuli.xlsx,test.xlsx,stimuli/Social2.png,stimuli/Social1.png,stimuli/Nonsocial2.png,stimuli/Nonsocial1.png,stimuli/Test1.png,stimuli/Test2.png,"(0.7, -0.5)",cs_minus_s,"(-0.7, 0.5)",cs_minus_s,0,0,0,0,,,,,0,36,36,69,,243.43849570001476,l,0.6433133999817073,correct,,41,D,2023-12-21_09h29.24.082,gca_discrimination,2022.2.4,144.04551843528873,
positions.xlsx,stimuli.xlsx,test.xlsx,stimuli/Social2.png,stimuli/Social1.png,stimuli/Nonsocial2.png,stimuli/Nonsocial1.png,stimuli/Test1.png,stimuli/Test2.png,"(-0.7, 0.5)",cs_minus_s,"(-0.7, -0.5)",cs_minus_s,0,0,0,0,,,,,0,37,37,60,,246.27169559989125,l,0.7696115002036095,correct,,41,D,2023-12-21_09h29.24.082,gca_discrimination,2022.2.4,144.04551843528873,
positions.xlsx,stimuli.xlsx,test.xlsx,stimuli/Social2.png,stimuli/Social1.png,stimuli/Nonsocial2.png,stimuli/Nonsocial1.png,stimuli/Test1.png,stimuli/Test2.png,"(0.7, 0.5)",cs_plus_ns,"(-0.7, 0.5)",cs_minus_ns,0,0,0,0,,,,,0,38,38,30,,249.13968299981207,ä,0.5580335000995547,correct,,41,D,2023-12-21_09h29.24.082,gca_discrimination,2022.2.4,144.04551843528873,
positions.xlsx,stimuli.xlsx,test.xlsx,stimuli/Social2.png,stimuli/Social1.png,stimuli/Nonsocial2.png,stimuli/Nonsocial1.png,stimuli/Test1.png,stimuli/Test2.png,"(-0.7, -0.5)",cs_minus_ns,"(0.7, 0.5)",cs_plus_ns,0,0,0,0,,,,,0,39,39,40,,251.8131547998637,ä,0.7178266001865268,correct,,41,D,2023-12-21_09h29.24.082,gca_discrimination,2022.2.4,144.04551843528873,
positions.xlsx,stimuli.xlsx,test.xlsx,stimuli/Social2.png,stimuli/Social1.png,stimuli/Nonsocial2.png,stimuli/Nonsocial1.png,stimuli/Test1.png,stimuli/Test2.png,"(0.7, -0.5)",cs_minus_ns,"(0.7, 0.5)",cs_plus_ns,0,0,0,0,,,,,0,40,40,47,,255.29220279981382,ä,0.46977940015494823,correct,,41,D,2023-12-21_09h29.24.082,gca_discrimination,2022.2.4,144.04551843528873,
positions.xlsx,stimuli.xlsx,test.xlsx,stimuli/Social2.png,stimuli/Social1.png,stimuli/Nonsocial2.png,stimuli/Nonsocial1.png,stimuli/Test1.png,stimuli/Test2.png,"(0.7, 0.5)",cs_plus_ns,"(-0.7, 0.5)",cs_plus_ns,0,0,0,0,,,,,0,41,41,78,,257.8476745998487,l,0.6175513002090156,correct,,41,D,2023-12-21_09h29.24.082,gca_discrimination,2022.2.4,144.04551843528873,
positions.xlsx,stimuli.xlsx,test.xlsx,stimuli/Social2.png,stimuli/Social1.png,stimuli/Nonsocial2.png,stimuli/Nonsocial1.png,stimuli/Test1.png,stimuli/Test2.png,"(-0.7, 0.5)",cs_plus_ns,"(0.7, 0.5)",cs_minus_ns,0,0,0,0,,,,,0,42,42,25,,260.93090989999473,ä,0.6147643001750112,correct,,41,D,2023-12-21_09h29.24.082,gca_discrimination,2022.2.4,144.04551843528873,
positions.xlsx,stimuli.xlsx,test.xlsx,stimuli/Social2.png,stimuli/Social1.png,stimuli/Nonsocial2.png,stimuli/Nonsocial1.png,stimuli/Test1.png,stimuli/Test2.png,"(-0.7, -0.5)",cs_minus_ns,"(-0.7, 0.5)",cs_plus_ns,0,0,0,0,,,,,0,43,43,39,,264.06961559993215,ä,0.6196661002468318,correct,,41,D,2023-12-21_09h29.24.082,gca_discrimination,2022.2.4,144.04551843528873,
positions.xlsx,stimuli.xlsx,test.xlsx,stimuli/Social2.png,stimuli/Social1.png,stimuli/Nonsocial2.png,stimuli/Nonsocial1.png,stimuli/Test1.png,stimuli/Test2.png,"(-0.7, 0.5)",cs_minus_s,"(0.7, -0.5)",cs_plus_s,0,0,0,0,,,,,0,44,44,14,,267.09731299988925,ä,1.2165999002754688,correct,,41,D,2023-12-21_09h29.24.082,gca_discrimination,2022.2.4,144.04551843528873,
positions.xlsx,stimuli.xlsx,test.xlsx,stimuli/Social2.png,stimuli/Social1.png,stimuli/Nonsocial2.png,stimuli/Nonsocial1.png,stimuli/Test1.png,stimuli/Test2.png,"(-0.7, 0.5)",cs_minus_ns,"(-0.7, -0.5)",cs_plus_ns,0,0,0,0,,,,,0,45,45,36,,270.89576879981905,ä,0.705876300111413,correct,,41,D,2023-12-21_09h29.24.082,gca_discrimination,2022.2.4,144.04551843528873,
positions.xlsx,stimuli.xlsx,test.xlsx,stimuli/Social2.png,stimuli/Social1.png,stimuli/Nonsocial2.png,stimuli/Nonsocial1.png,stimuli/Test1.png,stimuli/Test2.png,"(0.7, 0.5)",cs_plus_s,"(0.7, -0.5)",cs_plus_s,0,0,0,0,,,,,0,46,46,56,,273.99984880001284,l,0.5218564001843333,correct,,41,D,2023-12-21_09h29.24.082,gca_discrimination,2022.2.4,144.04551843528873,
positions.xlsx,stimuli.xlsx,test.xlsx,stimuli/Social2.png,stimuli/Social1.png,stimuli/Nonsocial2.png,stimuli/Nonsocial1.png,stimuli/Test1.png,stimuli/Test2.png,"(-0.7, -0.5)",cs_minus_s,"(0.7, -0.5)",cs_plus_s,0,0,0,0,,,,,0,47,47,17,,277.221910999855,ä,0.7393990999553353,correct,,41,D,2023-12-21_09h29.24.082,gca_discrimination,2022.2.4,144.04551843528873,
positions.xlsx,stimuli.xlsx,test.xlsx,stimuli/Social2.png,stimuli/Social1.png,stimuli/Nonsocial2.png,stimuli/Nonsocial1.png,stimuli/Test1.png,stimuli/Test2.png,"(0.7, -0.5)",cs_minus_s,"(-0.7, -0.5)",cs_plus_s,0,0,0,0,,,,,0,48,48,22,,280.7634453999344,ä,0.7827427999582142,correct,,41,D,2023-12-21_09h29.24.082,gca_discrimination,2022.2.4,144.04551843528873,
positions.xlsx,stimuli.xlsx,test.xlsx,stimuli/Social2.png,stimuli/Social1.png,stimuli/Nonsocial2.png,stimuli/Nonsocial1.png,stimuli/Test1.png,stimuli/Test2.png,"(0.7, 0.5)",cs_minus_ns,"(-0.7, -0.5)",cs_plus_ns,0,0,0,0,,,,,0,49,49,43,,283.75638179993257,ä,0.8693178002722561,correct,,41,D,2023-12-21_09h29.24.082,gca_discrimination,2022.2.4,144.04551843528873,
positions.xlsx,stimuli.xlsx,test.xlsx,stimuli/Social2.png,stimuli/Social1.png,stimuli/Nonsocial2.png,stimuli/Nonsocial1.png,stimuli/Test1.png,stimuli/Test2.png,"(-0.7, 0.5)",cs_minus_s,"(0.7, 0.5)",cs_plus_s,0,0,0,0,,,,,0,50,50,13,,286.77710139984265,None,,no answer,,41,D,2023-12-21_09h29.24.082,gca_discrimination,2022.2.4,144.04551843528873,
positions.xlsx,stimuli.xlsx,test.xlsx,stimuli/Social2.png,stimuli/Social1.png,stimuli/Nonsocial2.png,stimuli/Nonsocial1.png,stimuli/Test1.png,stimuli/Test2.png,"(0.7, 0.5)",cs_plus_s,"(-0.7, -0.5)",cs_plus_s,0,0,0,0,,,,,0,51,51,55,,291.3324714000337,l,1.645248900167644,correct,,41,D,2023-12-21_09h29.24.082,gca_discrimination,2022.2.4,144.04551843528873,
positions.xlsx,stimuli.xlsx,test.xlsx,stimuli/Social2.png,stimuli/Social1.png,stimuli/Nonsocial2.png,stimuli/Nonsocial1.png,stimuli/Test1.png,stimuli/Test2.png,"(-0.7, -0.5)",cs_minus_ns,"(0.7, -0.5)",cs_plus_ns,0,0,0,0,,,,,0,52,52,41,,295.5683856999967,ä,0.7294672999996692,correct,,41,D,2023-12-21_09h29.24.082,gca_discrimination,2022.2.4,144.04551843528873,
positions.xlsx,stimuli.xlsx,test.xlsx,stimuli/Social2.png,stimuli/Social1.png,stimuli/Nonsocial2.png,stimuli/Nonsocial1.png,stimuli/Test1.png,stimuli/Test2.png,"(0.7, 0.5)",cs_plus_s,"(-0.7, 0.5)",cs_minus_s,0,0,0,0,,,,,0,53,53,6,,298.6516326998826,ä,0.94984560017474,correct,,41,D,2023-12-21_09h29.24.082,gca_discrimination,2022.2.4,144.04551843528873,
positions.xlsx,stimuli.xlsx,test.xlsx,stimuli/Social2.png,stimuli/Social1.png,stimuli/Nonsocial2.png,stimuli/Nonsocial1.png,stimuli/Test1.png,stimuli/Test2.png,"(-0.7, 0.5)",cs_plus_ns,"(-0.7, -0.5)",cs_plus_ns,0,0,0,0,,,,,0,54,54,72,,301.790405199863,l,0.6110352000687271,correct,,41,D,2023-12-21_09h29.24.082,gca_discrimination,2022.2.4,144.04551843528873,
positions.xlsx,stimuli.xlsx,test.xlsx,stimuli/Social2.png,stimuli/Social1.png,stimuli/Nonsocial2.png,stimuli/Nonsocial1.png,stimuli/Test1.png,stimuli/Test2.png,"(-0.7, -0.5)",cs_minus_s,"(-0.7, 0.5)",cs_plus_s,0,0,0,0,,,,,0,55,55,15,,304.595853399951,ä,1.3830353999510407,correct,,41,D,2023-12-21_09h29.24.082,gca_discrimination,2022.2.4,144.04551843528873,
positions.xlsx,stimuli.xlsx,test.xlsx,stimuli/Social2.png,stimuli/Social1.png,stimuli/Nonsocial2.png,stimuli/Nonsocial1.png,stimuli/Test1.png,stimuli/Test2.png,"(0.7, -0.5)",cs_minus_s,"(0.7, 0.5)",cs_plus_s,0,0,0,0,,,,,0,56,56,23,,308.29016690002754,ä,0.5998212001286447,correct,,41,D,2023-12-21_09h29.24.082,gca_discrimination,2022.2.4,144.04551843528873,
positions.xlsx,stimuli.xlsx,test.xlsx,stimuli/Social2.png,stimuli/Social1.png,stimuli/Nonsocial2.png,stimuli/Nonsocial1.png,stimuli/Test1.png,stimuli/Test2.png,"(0.7, 0.5)",cs_minus_s,"(-0.7, -0.5)",cs_minus_s,0,0,0,0,,,,,0,57,57,67,,311.213621399831,l,0.7081589000299573,correct,,41,D,2023-12-21_09h29.24.082,gca_discrimination,2022.2.4,144.04551843528873,
positions.xlsx,stimuli.xlsx,test.xlsx,stimuli/Social2.png,stimuli/Social1.png,stimuli/Nonsocial2.png,stimuli/Nonsocial1.png,stimuli/Test1.png,stimuli/Test2.png,"(-0.7, 0.5)",cs_plus_ns,"(0.7, -0.5)",cs_plus_ns,0,0,0,0,,,,,0,58,58,74,,314.6787950999569,l,0.7310017000418156,correct,,41,D,2023-12-21_09h29.24.082,gca_discrimination,2022.2.4,144.04551843528873,
positions.xlsx,stimuli.xlsx,test.xlsx,stimuli/Social2.png,stimuli/Social1.png,stimuli/Nonsocial2.png,stimuli/Nonsocial1.png,stimuli/Test1.png,stimuli/Test2.png,"(0.7, 0.5)",cs_minus_s,"(0.7, -0.5)",cs_plus_s,0,0,0,0,,,,,0,59,59,20,,317.88003099989146,ä,0.7457155000884086,correct,,41,D,2023-12-21_09h29.24.082,gca_discrimination,2022.2.4,144.04551843528873,
positions.xlsx,stimuli.xlsx,test.xlsx,stimuli/Social2.png,stimuli/Social1.png,stimuli/Nonsocial2.png,stimuli/Nonsocial1.png,stimuli/Test1.png,stimuli/Test2.png,"(-0.7, -0.5)",cs_minus_s,"(-0.7, 0.5)",cs_minus_s,0,0,0,0,,,,,0,60,60,63,,321.3174246000126,l,0.5966913001611829,correct,,41,D,2023-12-21_09h29.24.082,gca_discrimination,2022.2.4,144.04551843528873,
positions.xlsx,stimuli.xlsx,test.xlsx,stimuli/Social2.png,stimuli/Social1.png,stimuli/Nonsocial2.png,stimuli/Nonsocial1.png,stimuli/Test1.png,stimuli/Test2.png,"(-0.7, 0.5)",cs_plus_s,"(0.7, -0.5)",cs_minus_s,0,0,0,0,,,,,0,61,61,2,,323.9909516000189,ä,0.8988860000390559,correct,,41,D,2023-12-21_09h29.24.082,gca_discrimination,2022.2.4,144.04551843528873,
positions.xlsx,stimuli.xlsx,test.xlsx,stimuli/Social2.png,stimuli/Social1.png,stimuli/Nonsocial2.png,stimuli/Nonsocial1.png,stimuli/Test1.png,stimuli/Test2.png,"(-0.7, -0.5)",cs_plus_ns,"(-0.7, 0.5)",cs_plus_ns,0,0,0,0,,,,,0,62,62,75,,326.99775470001623,l,0.5886590001173317,correct,,41,D,2023-12-21_09h29.24.082,gca_discrimination,2022.2.4,144.04551843528873,
positions.xlsx,stimuli.xlsx,test.xlsx,stimuli/Social2.png,stimuli/Social1.png,stimuli/Nonsocial2.png,stimuli/Nonsocial1.png,stimuli/Test1.png,stimuli/Test2.png,"(-0.7, 0.5)",cs_minus_ns,"(0.7, 0.5)",cs_plus_ns,0,0,0,0,,,,,0,63,63,37,,330.37957439990714,ä,1.0710849000606686,correct,,41,D,2023-12-21_09h29.24.082,gca_discrimination,2022.2.4,144.04551843528873,
positions.xlsx,stimuli.xlsx,test.xlsx,stimuli/Social2.png,stimuli/Social1.png,stimuli/Nonsocial2.png,stimuli/Nonsocial1.png,stimuli/Test1.png,stimuli/Test2.png,"(-0.7, -0.5)",cs_plus_s,"(0.7, 0.5)",cs_minus_s,0,0,0,0,,,,,0,64,64,4,,334.1363925000187,ä,0.9455075000878423,correct,,41,D,2023-12-21_09h29.24.082,gca_discrimination,2022.2.4,144.04551843528873,
positions.xlsx,stimuli.xlsx,test.xlsx,stimuli/Social2.png,stimuli/Social1.png,stimuli/Nonsocial2.png,stimuli/Nonsocial1.png,stimuli/Test1.png,stimuli/Test2.png,"(-0.7, -0.5)",cs_minus_ns,"(-0.7, 0.5)",cs_minus_ns,0,0,0,0,,,,,0,65,65,87,,337.6292973998934,l,0.5159893000964075,correct,,41,D,2023-12-21_09h29.24.082,gca_discrimination,2022.2.4,144.04551843528873,
positions.xlsx,stimuli.xlsx,test.xlsx,stimuli/Social2.png,stimuli/Social1.png,stimuli/Nonsocial2.png,stimuli/Nonsocial1.png,stimuli/Test1.png,stimuli/Test2.png,"(0.7, 0.5)",cs_plus_s,"(0.7, -0.5)",cs_minus_s,0,0,0,0,,,,,0,66,66,8,,340.62914379988797,ä,0.5810213000513613,correct,,41,D,2023-12-21_09h29.24.082,gca_discrimination,2022.2.4,144.04551843528873,
positions.xlsx,stimuli.xlsx,test.xlsx,stimuli/Social2.png,stimuli/Social1.png,stimuli/Nonsocial2.png,stimuli/Nonsocial1.png,stimuli/Test1.png,stimuli/Test2.png,"(0.7, 0.5)",cs_minus_ns,"(-0.7, 0.5)",cs_plus_ns,0,0,0,0,,,,,0,67,67,42,,343.19158899993636,None,,no answer,,41,D,2023-12-21_09h29.24.082,gca_discrimination,2022.2.4,144.04551843528873,
positions.xlsx,stimuli.xlsx,test.xlsx,stimuli/Social2.png,stimuli/Social1.png,stimuli/Nonsocial2.png,stimuli/Nonsocial1.png,stimuli/Test1.png,stimuli/Test2.png,"(-0.7, -0.5)",cs_plus_ns,"(0.7, -0.5)",cs_minus_ns,0,0,0,0,,,,,0,68,68,29,,347.2122489998583,ä,1.0618382000830024,correct,,41,D,2023-12-21_09h29.24.082,gca_discrimination,2022.2.4,144.04551843528873,
positions.xlsx,stimuli.xlsx,test.xlsx,stimuli/Social2.png,stimuli/Social1.png,stimuli/Nonsocial2.png,stimuli/Nonsocial1.png,stimuli/Test1.png,stimuli/Test2.png,"(-0.7, 0.5)",cs_plus_ns,"(0.7, -0.5)",cs_minus_ns,0,0,0,0,,,,,0,69,69,26,,350.8371050998103,ä,0.6453599999658763,correct,,41,D,2023-12-21_09h29.24.082,gca_discrimination,2022.2.4,144.04551843528873,
positions.xlsx,stimuli.xlsx,test.xlsx,stimuli/Social2.png,stimuli/Social1.png,stimuli/Nonsocial2.png,stimuli/Nonsocial1.png,stimuli/Test1.png,stimuli/Test2.png,"(-0.7, -0.5)",cs_plus_s,"(0.7, -0.5)",cs_minus_s,0,0,0,0,,,,,0,70,70,5,,354.1216933999676,ä,0.7443986001890153,correct,,41,D,2023-12-21_09h29.24.082,gca_discrimination,2022.2.4,144.04551843528873,
positions.xlsx,stimuli.xlsx,test.xlsx,stimuli/Social2.png,stimuli/Social1.png,stimuli/Nonsocial2.png,stimuli/Nonsocial1.png,stimuli/Test1.png,stimuli/Test2.png,"(0.7, -0.5)",cs_plus_ns,"(-0.7, 0.5)",cs_plus_ns,0,0,0,0,,,,,0,71,71,81,,357.3854553999845,l,1.1041312001179904,correct,,41,D,2023-12-21_09h29.24.082,gca_discrimination,2022.2.4,144.04551843528873,
positions.xlsx,stimuli.xlsx,test.xlsx,stimuli/Social2.png,stimuli/Social1.png,stimuli/Nonsocial2.png,stimuli/Nonsocial1.png,stimuli/Test1.png,stimuli/Test2.png,"(0.7, -0.5)",cs_plus_s,"(-0.7, 0.5)",cs_plus_s,0,0,0,0,,,,,0,72,72,57,,361.2464150998276,l,0.6679782001301646,correct,,41,D,2023-12-21_09h29.24.082,gca_discrimination,2022.2.4,144.04551843528873,
positions.xlsx,stimuli.xlsx,test.xlsx,stimuli/Social2.png,stimuli/Social1.png,stimuli/Nonsocial2.png,stimuli/Nonsocial1.png,stimuli/Test1.png,stimuli/Test2.png,"(0.7, 0.5)",cs_minus_s,"(-0.7, 0.5)",cs_minus_s,0,0,0,0,,,,,0,73,73,66,,364.01021249988116,l,0.5437521000858396,correct,,41,D,2023-12-21_09h29.24.082,gca_discrimination,2022.2.4,144.04551843528873,
positions.xlsx,stimuli.xlsx,test.xlsx,stimuli/Social2.png,stimuli/Social1.png,stimuli/Nonsocial2.png,stimuli/Nonsocial1.png,stimuli/Test1.png,stimuli/Test2.png,"(0.7, 0.5)",cs_minus_s,"(-0.7, -0.5)",cs_plus_s,0,0,0,0,,,,,0,74,74,19,,366.9267388000153,ä,0.7793064001016319,correct,,41,D,2023-12-21_09h29.24.082,gca_discrimination,2022.2.4,144.04551843528873,
positions.xlsx,stimuli.xlsx,test.xlsx,stimuli/Social2.png,stimuli/Social1.png,stimuli/Nonsocial2.png,stimuli/Nonsocial1.png,stimuli/Test1.png,stimuli/Test2.png,"(-0.7, 0.5)",cs_minus_s,"(-0.7, -0.5)",cs_plus_s,0,0,0,0,,,,,0,75,75,12,,369.78774930001236,ä,0.7823630003258586,correct,,41,D,2023-12-21_09h29.24.082,gca_discrimination,2022.2.4,144.04551843528873,
positions.xlsx,stimuli.xlsx,test.xlsx,stimuli/Social2.png,stimuli/Social1.png,stimuli/Nonsocial2.png,stimuli/Nonsocial1.png,stimuli/Test1.png,stimuli/Test2.png,"(0.7, 0.5)",cs_plus_ns,"(0.7, -0.5)",cs_minus_ns,0,0,0,0,,,,,0,76,76,32,,373.301501999842,ä,0.5559734001290053,correct,,41,D,2023-12-21_09h29.24.082,gca_discrimination,2022.2.4,144.04551843528873,
positions.xlsx,stimuli.xlsx,test.xlsx,stimuli/Social2.png,stimuli/Social1.png,stimuli/Nonsocial2.png,stimuli/Nonsocial1.png,stimuli/Test1.png,stimuli/Test2.png,"(-0.7, -0.5)",cs_plus_ns,"(0.7, 0.5)",cs_plus_ns,0,0,0,0,,,,,0,77,77,76,,376.5513974998612,l,0.4024960999377072,correct,,41,D,2023-12-21_09h29.24.082,gca_discrimination,2022.2.4,144.04551843528873,
positions.xlsx,stimuli.xlsx,test.xlsx,stimuli/Social2.png,stimuli/Social1.png,stimuli/Nonsocial2.png,stimuli/Nonsocial1.png,stimuli/Test1.png,stimuli/Test2.png,"(0.7, -0.5)",cs_plus_s,"(0.7, 0.5)",cs_minus_s,0,0,0,0,,,,,0,78,78,11,,379.3846106999554,ä,0.5370216001756489,correct,,41,D,2023-12-21_09h29.24.082,gca_discrimination,2022.2.4,144.04551843528873,
positions.xlsx,stimuli.xlsx,test.xlsx,stimuli/Social2.png,stimuli/Social1.png,stimuli/Nonsocial2.png,stimuli/Nonsocial1.png,stimuli/Test1.png,stimuli/Test2.png,"(0.7, -0.5)",cs_plus_s,"(-0.7, 0.5)",cs_minus_s,0,0,0,0,,,,,0,79,79,9,,382.0997986998409,ä,0.6056233001872897,correct,,41,D,2023-12-21_09h29.24.082,gca_discrimination,2022.2.4,144.04551843528873,
positions.xlsx,stimuli.xlsx,test.xlsx,stimuli/Social2.png,stimuli/Social1.png,stimuli/Nonsocial2.png,stimuli/Nonsocial1.png,stimuli/Test1.png,stimuli/Test2.png,"(-0.7, -0.5)",cs_minus_ns,"(0.7, -0.5)",cs_minus_ns,0,0,0,0,,,,,0,80,80,89,,385.43300029984675,l,0.642020900035277,correct,,41,D,2023-12-21_09h29.24.082,gca_discrimination,2022.2.4,144.04551843528873,
positions.xlsx,stimuli.xlsx,test.xlsx,stimuli/Social2.png,stimuli/Social1.png,stimuli/Nonsocial2.png,stimuli/Nonsocial1.png,stimuli/Test1.png,stimuli/Test2.png,"(-0.7, -0.5)",cs_plus_s,"(-0.7, 0.5)",cs_minus_s,0,0,0,0,,,,,0,81,81,3,,388.76622039987706,ä,0.4596790000796318,correct,,41,D,2023-12-21_09h29.24.082,gca_discrimination,2022.2.4,144.04551843528873,
positions.xlsx,stimuli.xlsx,test.xlsx,stimuli/Social2.png,stimuli/Social1.png,stimuli/Nonsocial2.png,stimuli/Nonsocial1.png,stimuli/Test1.png,stimuli/Test2.png,"(-0.7, 0.5)",cs_plus_s,"(0.7, 0.5)",cs_minus_s,0,0,0,0,,,,,0,82,82,1,,392.0438381000422,ä,0.6696236999705434,correct,,41,D,2023-12-21_09h29.24.082,gca_discrimination,2022.2.4,144.04551843528873,
positions.xlsx,stimuli.xlsx,test.xlsx,stimuli/Social2.png,stimuli/Social1.png,stimuli/Nonsocial2.png,stimuli/Nonsocial1.png,stimuli/Test1.png,stimuli/Test2.png,"(-0.7, 0.5)",cs_plus_s,"(0.7, 0.5)",cs_plus_s,0,0,0,0,,,,,0,83,83,49,,395.33539150003344,l,0.5544074000790715,correct,,41,D,2023-12-21_09h29.24.082,gca_discrimination,2022.2.4,144.04551843528873,
positions.xlsx,stimuli.xlsx,test.xlsx,stimuli/Social2.png,stimuli/Social1.png,stimuli/Nonsocial2.png,stimuli/Nonsocial1.png,stimuli/Test1.png,stimuli/Test2.png,"(-0.7, 0.5)",cs_plus_s,"(0.7, -0.5)",cs_plus_s,0,0,0,0,,,,,0,84,84,50,,398.4394779999275,l,0.5714171002618968,correct,,41,D,2023-12-21_09h29.24.082,gca_discrimination,2022.2.4,144.04551843528873,
positions.xlsx,stimuli.xlsx,test.xlsx,stimuli/Social2.png,stimuli/Social1.png,stimuli/Nonsocial2.png,stimuli/Nonsocial1.png,stimuli/Test1.png,stimuli/Test2.png,"(0.7, -0.5)",cs_plus_ns,"(-0.7, -0.5)",cs_plus_ns,0,0,0,0,,,,,0,85,85,82,,401.12686680001207,l,0.4351344001479447,correct,,41,D,2023-12-21_09h29.24.082,gca_discrimination,2022.2.4,144.04551843528873,
positions.xlsx,stimuli.xlsx,test.xlsx,stimuli/Social2.png,stimuli/Social1.png,stimuli/Nonsocial2.png,stimuli/Nonsocial1.png,stimuli/Test1.png,stimuli/Test2.png,"(0.7, -0.5)",cs_plus_ns,"(-0.7, 0.5)",cs_minus_ns,0,0,0,0,,,,,0,86,86,33,,403.7934175999835,ä,0.5042924000881612,correct,,41,D,2023-12-21_09h29.24.082,gca_discrimination,2022.2.4,144.04551843528873,
positions.xlsx,stimuli.xlsx,test.xlsx,stimuli/Social2.png,stimuli/Social1.png,stimuli/Nonsocial2.png,stimuli/Nonsocial1.png,stimuli/Test1.png,stimuli/Test2.png,"(0.7, 0.5)",cs_minus_ns,"(-0.7, 0.5)",cs_minus_ns,0,0,0,0,,,,,0,87,87,90,,406.1405936998781,l,1.781067700125277,correct,,41,D,2023-12-21_09h29.24.082,gca_discrimination,2022.2.4,144.04551843528873,
positions.xlsx,stimuli.xlsx,test.xlsx,stimuli/Social2.png,stimuli/Social1.png,stimuli/Nonsocial2.png,stimuli/Nonsocial1.png,stimuli/Test1.png,stimuli/Test2.png,"(-0.7, -0.5)",cs_minus_s,"(0.7, 0.5)",cs_plus_s,0,0,0,0,,,,,0,88,88,16,,410.4945097998716,ä,0.5787957003340125,correct,,41,D,2023-12-21_09h29.24.082,gca_discrimination,2022.2.4,144.04551843528873,
positions.xlsx,stimuli.xlsx,test.xlsx,stimuli/Social2.png,stimuli/Social1.png,stimuli/Nonsocial2.png,stimuli/Nonsocial1.png,stimuli/Test1.png,stimuli/Test2.png,"(-0.7, 0.5)",cs_minus_ns,"(-0.7, -0.5)",cs_minus_ns,0,0,0,0,,,,,0,89,89,84,,412.9944339999929,l,0.5275328001007438,correct,,41,D,2023-12-21_09h29.24.082,gca_discrimination,2022.2.4,144.04551843528873,
positions.xlsx,stimuli.xlsx,test.xlsx,stimuli/Social2.png,stimuli/Social1.png,stimuli/Nonsocial2.png,stimuli/Nonsocial1.png,stimuli/Test1.png,stimuli/Test2.png,"(0.7, -0.5)",cs_minus_s,"(-0.7, -0.5)",cs_minus_s,0,0,0,0,,,,,0,90,90,70,,416.0985039998777,None,,no answer,,41,D,2023-12-21_09h29.24.082,gca_discrimination,2022.2.4,144.04551843528873,
positions.xlsx,stimuli.xlsx,test.xlsx,stimuli/Social2.png,stimuli/Social1.png,stimuli/Nonsocial2.png,stimuli/Nonsocial1.png,stimuli/Test1.png,stimuli/Test2.png,"(0.7, -0.5)",cs_minus_ns,"(-0.7, 0.5)",cs_minus_ns,0,0,0,0,,,,,0,91,91,93,,420.6538761998527,l,0.9636188999284059,correct,,41,D,2023-12-21_09h29.24.082,gca_discrimination,2022.2.4,144.04551843528873,
positions.xlsx,stimuli.xlsx,test.xlsx,stimuli/Social2.png,stimuli/Social1.png,stimuli/Nonsocial2.png,stimuli/Nonsocial1.png,stimuli/Test1.png,stimuli/Test2.png,"(0.7, -0.5)",cs_minus_ns,"(0.7, 0.5)",cs_minus_ns,0,0,0,0,,,,,0,92,92,95,,423.6051489999518,l,0.48459080001339316,correct,,41,D,2023-12-21_09h29.24.082,gca_discrimination,2022.2.4,144.04551843528873,
positions.xlsx,stimuli.xlsx,test.xlsx,stimuli/Social2.png,stimuli/Social1.png,stimuli/Nonsocial2.png,stimuli/Nonsocial1.png,stimuli/Test1.png,stimuli/Test2.png,"(0.7, -0.5)",cs_plus_s,"(-0.7, -0.5)",cs_minus_s,0,0,0,0,,,,,0,93,93,10,,426.4106226998847,ä,1.343260700115934,correct,,41,D,2023-12-21_09h29.24.082,gca_discrimination,2022.2.4,144.04551843528873,
positions.xlsx,stimuli.xlsx,test.xlsx,stimuli/Social2.png,stimuli/Social1.png,stimuli/Nonsocial2.png,stimuli/Nonsocial1.png,stimuli/Test1.png,stimuli/Test2.png,"(0.7, -0.5)",cs_plus_ns,"(0.7, 0.5)",cs_minus_ns,0,0,0,0,,,,,0,94,94,35,,430.0076965999324,ä,0.5867388001643121,correct,,41,D,2023-12-21_09h29.24.082,gca_discrimination,2022.2.4,144.04551843528873,
positions.xlsx,stimuli.xlsx,test.xlsx,stimuli/Social2.png,stimuli/Social1.png,stimuli/Nonsocial2.png,stimuli/Nonsocial1.png,stimuli/Test1.png,stimuli/Test2.png,"(0.7, 0.5)",cs_minus_s,"(0.7, -0.5)",cs_minus_s,0,0,0,0,,,,,0,95,95,68,,432.66726069990546,l,0.5663052999880165,correct,,41,D,2023-12-21_09h29.24.082,gca_discrimination,2022.2.4,144.04551843528873,
