posFile,stimFile,testFile,cs_plus_s,cs_minus_s,cs_plus_ns,cs_minus_ns,test1,test2,position1,trialtype,position2,comptype,blocks.thisRepN,blocks.thisTrialN,blocks.thisN,blocks.thisIndex,learning_trials.thisRepN,learning_trials.thisTrialN,learning_trials.thisN,learning_trials.thisIndex,trials.thisRepN,trials.thisTrialN,trials.thisN,trials.thisIndex,textStart.started,spaceStart.started,spaceStart.keys,spaceStart.rt,textStartExp.started,textExpImages.started,ImageLearning1.started,ImageLearning2.started,textSpace.started,spaceStartExp.started,spaceStartExp.keys,spaceStartExp.rt,blankScreen.started,blankScreen.stopped,fixcross.started,firstImage.started,fixcrossImage1.started,fixcrossITI.started,secondImage.started,fixcrossImage2.started,key.started,key.keys,key.rt,correctness,feedbackText.started,fixcrossEnd.started,fixcrossEnd.stopped,fixcross.stopped,feedbackText.stopped,textStartTask.started,textTaskImages.started,ImageTask1.started,ImageTask2.started,ImageTask3.started,ImageTask4.started,textTaskSpace.started,spaceStartTask.started,spaceStartTask.keys,spaceStartTask.rt,participant,group,date,expName,psychopyVersion,frameRate,
,,,,,,,,,,,,,,,,,,,,,,,,,12.067753700073808,12.067753700073808,space,2.616355299949646,,,,,,,,,,,,,,,,,,,,,,,,,,,,,,,,,,,,4,A,2023-12-06_15h25.42.437,gca_discrimination,2022.2.4,144.02456448023318,
positions.xlsx,stimuli.xlsx,test.xlsx,stimuli/Social1.png,stimuli/Social2.png,stimuli/Nonsocial1.png,stimuli/Nonsocial2.png,stimuli/Test1.png,stimuli/Test2.png,"(-0.7, 0.5)",test2,"(-0.7, -0.5)",test2,0,0,0,0,0,0,0,1,,,,,,,,,14.69964040000923,14.69964040000923,14.69964040000923,14.69964040000923,14.69964040000923,14.69964040000923,space,29.799812499899417,44.51091370009817,46.08028370002285,46.08028370002285,47.087177200010046,47.087177200010046,47.21913890005089,47.73300050012767,47.73300050012767,47.87189120007679,l,0.5721835000440478,correct,48.46213920018636,50.46204900019802,51.25372250005603,,,,,,,,,,,,,4,A,2023-12-06_15h25.42.437,gca_discrimination,2022.2.4,144.02456448023318,
positions.xlsx,stimuli.xlsx,test.xlsx,stimuli/Social1.png,stimuli/Social2.png,stimuli/Nonsocial1.png,stimuli/Nonsocial2.png,stimuli/Test1.png,stimuli/Test2.png,"(-0.7, -0.5)",test2,"(-0.7, 0.5)",test2,0,0,0,0,0,1,1,2,,,,,,,,,,,,,,,,,,,51.25372250005603,52.25364430015907,52.25364430015907,52.40643050009385,52.9063978001941,52.9063978001941,53.059172900160775,l,0.8644918000791222,correct,53.934133800212294,55.93404950015247,55.96877870010212,52.25364430015907,55.93404950015247,,,,,,,,,,,4,A,2023-12-06_15h25.42.437,gca_discrimination,2022.2.4,144.02456448023318,
positions.xlsx,stimuli.xlsx,test.xlsx,stimuli/Social1.png,stimuli/Social2.png,stimuli/Nonsocial1.png,stimuli/Nonsocial2.png,stimuli/Test1.png,stimuli/Test2.png,"(0.7, -0.5)",test2,"(-0.7, 0.5)",test1,0,0,0,0,0,2,2,4,,,,,,,,,,,,,,,,,,,55.96877870010212,56.968747900100425,56.968747900100425,57.12150480016135,57.621496400097385,57.621496400097385,57.7742634001188,ä,0.38202719995751977,correct,58.16312890010886,60.163031900068745,61.07966180006042,56.968747900100425,60.163031900068745,,,,,,,,,,,4,A,2023-12-06_15h25.42.437,gca_discrimination,2022.2.4,144.02456448023318,
positions.xlsx,stimuli.xlsx,test.xlsx,stimuli/Social1.png,stimuli/Social2.png,stimuli/Nonsocial1.png,stimuli/Nonsocial2.png,stimuli/Test1.png,stimuli/Test2.png,"(0.7, 0.5)",test2,"(0.7, -0.5)",test1,0,0,0,0,0,3,3,6,,,,,,,,,,,,,,,,,,,61.07966180006042,62.0866133000236,62.0866133000236,62.23245200002566,62.73238950013183,62.73238950013183,62.88518080022186,l,0.42215130012482405,wrong,63.315671800170094,65.31561290007085,66.21139200008474,62.0866133000236,65.31561290007085,,,,,,,,,,,4,A,2023-12-06_15h25.42.437,gca_discrimination,2022.2.4,144.02456448023318,
positions.xlsx,stimuli.xlsx,test.xlsx,stimuli/Social1.png,stimuli/Social2.png,stimuli/Nonsocial1.png,stimuli/Nonsocial2.png,stimuli/Test1.png,stimuli/Test2.png,"(-0.7, 0.5)",test2,"(0.7, 0.5)",test1,0,0,0,0,0,4,4,3,,,,,,,,,,,,,,,,,,,66.21139200008474,67.21135890018195,67.21135890018195,67.36414170009084,67.86411710013635,67.86411710013635,68.01688590017147,l,0.8345459001138806,wrong,68.8640546000097,70.86398380016908,71.0862177000381,67.21135890018195,70.86398380016908,,,,,,,,,,,4,A,2023-12-06_15h25.42.437,gca_discrimination,2022.2.4,144.02456448023318,
positions.xlsx,stimuli.xlsx,test.xlsx,stimuli/Social1.png,stimuli/Social2.png,stimuli/Nonsocial1.png,stimuli/Nonsocial2.png,stimuli/Test1.png,stimuli/Test2.png,"(-0.7, 0.5)",test2,"(0.7, -0.5)",test1,0,0,0,0,0,5,5,12,,,,,,,,,,,,,,,,,,,71.0862177000381,72.08618990005925,72.08618990005925,72.23891760013066,72.73893290013075,72.73893290013075,72.8916889000684,ä,0.6492224000394344,correct,73.55134850018658,75.55133260018192,75.6138016001787,72.08618990005925,75.55133260018192,,,,,,,,,,,4,A,2023-12-06_15h25.42.437,gca_discrimination,2022.2.4,144.02456448023318,
positions.xlsx,stimuli.xlsx,test.xlsx,stimuli/Social1.png,stimuli/Social2.png,stimuli/Nonsocial1.png,stimuli/Nonsocial2.png,stimuli/Test1.png,stimuli/Test2.png,"(0.7, 0.5)",test1,"(0.7, -0.5)",test2,0,0,0,0,0,6,6,11,,,,,,,,,,,,,,,,,,,75.6138016001787,76.61378220003098,76.61378220003098,76.76653780019842,77.26652220007963,77.26652220007963,77.41928150015883,ä,0.8800822999328375,correct,78.3081322000362,80.30806940002367,80.32194150006399,76.61378220003098,80.30806940002367,,,,,,,,,,,4,A,2023-12-06_15h25.42.437,gca_discrimination,2022.2.4,144.02456448023318,
positions.xlsx,stimuli.xlsx,test.xlsx,stimuli/Social1.png,stimuli/Social2.png,stimuli/Nonsocial1.png,stimuli/Nonsocial2.png,stimuli/Test1.png,stimuli/Test2.png,"(0.7, -0.5)",test1,"(0.7, 0.5)",test1,0,0,0,0,0,7,7,10,,,,,,,,,,,,,,,,,,,80.32194150006399,81.32190700015053,81.32190700015053,81.4746658001095,81.97470960021019,81.97470960021019,82.12743740016595,l,0.31690539978444576,correct,82.45381720014848,84.45374050014652,84.90509000001475,81.32190700015053,84.45374050014652,,,,,,,,,,,4,A,2023-12-06_15h25.42.437,gca_discrimination,2022.2.4,144.02456448023318,
positions.xlsx,stimuli.xlsx,test.xlsx,stimuli/Social1.png,stimuli/Social2.png,stimuli/Nonsocial1.png,stimuli/Nonsocial2.png,stimuli/Test1.png,stimuli/Test2.png,"(-0.7, -0.5)",test2,"(0.7, -0.5)",test2,0,0,0,0,0,8,8,9,,,,,,,,,,,,,,,,,,,84.90509000001475,85.90502370009199,85.90502370009199,86.05778300017118,86.55779680004343,86.55779680004343,86.71052630012855,l,0.5249685000162572,correct,87.24525670008734,89.24519260018133,89.41879770020023,85.90502370009199,89.24519260018133,,,,,,,,,,,4,A,2023-12-06_15h25.42.437,gca_discrimination,2022.2.4,144.02456448023318,
positions.xlsx,stimuli.xlsx,test.xlsx,stimuli/Social1.png,stimuli/Social2.png,stimuli/Nonsocial1.png,stimuli/Nonsocial2.png,stimuli/Test1.png,stimuli/Test2.png,"(0.7, -0.5)",test1,"(0.7, 0.5)",test2,0,0,0,0,0,9,9,0,,,,,,,,,,,,,,,,,,,89.41879770020023,90.41876190016046,90.41876190016046,90.5715635002125,91.07151120016351,91.07151120016351,91.22427480015904,ä,0.49216229980811477,correct,91.7242498002015,93.724191600224,93.84916460001841,90.41876190016046,93.724191600224,,,,,,,,,,,4,A,2023-12-06_15h25.42.437,gca_discrimination,2022.2.4,144.02456448023318,
positions.xlsx,stimuli.xlsx,test.xlsx,stimuli/Social1.png,stimuli/Social2.png,stimuli/Nonsocial1.png,stimuli/Nonsocial2.png,stimuli/Test1.png,stimuli/Test2.png,"(-0.7, 0.5)",test1,"(0.7, -0.5)",test1,0,0,0,0,0,10,10,5,,,,,,,,,,,,,,,,,,,93.84916460001841,94.8491380000487,94.8491380000487,95.00186260021292,95.50187000003643,95.50187000003643,95.65466230013408,l,0.4613359000068158,correct,96.12682630005293,98.12676650006324,98.13371830014512,94.8491380000487,98.12676650006324,,,,,,,,,,,4,A,2023-12-06_15h25.42.437,gca_discrimination,2022.2.4,144.02456448023318,
positions.xlsx,stimuli.xlsx,test.xlsx,stimuli/Social1.png,stimuli/Social2.png,stimuli/Nonsocial1.png,stimuli/Nonsocial2.png,stimuli/Test1.png,stimuli/Test2.png,"(-0.7, -0.5)",test2,"(0.7, 0.5)",test2,0,0,0,0,0,11,11,7,,,,,,,,,,,,,,,,,,,98.13371830014512,99.13369860011153,99.13369860011153,99.28645730018616,99.78641080018133,99.78641080018133,99.93919020006433,l,0.5603800001554191,correct,100.50860450020991,102.50853820005432,103.23073810013011,99.13369860011153,102.50853820005432,,,,,,,,,,,4,A,2023-12-06_15h25.42.437,gca_discrimination,2022.2.4,144.02456448023318,
positions.xlsx,stimuli.xlsx,test.xlsx,stimuli/Social1.png,stimuli/Social2.png,stimuli/Nonsocial1.png,stimuli/Nonsocial2.png,stimuli/Test1.png,stimuli/Test2.png,"(-0.7, -0.5)",test1,"(0.7, 0.5)",test2,0,0,0,0,0,12,12,8,,,,,,,,,,,,,,,,,,,103.23073810013011,104.23063090001233,104.23063090001233,104.3834397001192,104.88341210014187,104.88341210014187,105.03620740002953,ä,0.5201973998919129,correct,105.56396940001287,107.56387200020254,108.09859450021759,104.23063090001233,107.56387200020254,,,,,,,,,,,4,A,2023-12-06_15h25.42.437,gca_discrimination,2022.2.4,144.02456448023318,
positions.xlsx,stimuli.xlsx,test.xlsx,stimuli/Social1.png,stimuli/Social2.png,stimuli/Nonsocial1.png,stimuli/Nonsocial2.png,stimuli/Test1.png,stimuli/Test2.png,"(0.7, 0.5)",test2,"(-0.7, 0.5)",test1,0,0,0,0,0,13,13,13,,,,,,,,,,,,,,,,,,,108.09859450021759,109.09853830002248,109.09853830002248,109.25126869999804,109.75132550019771,109.75132550019771,109.90402790019289,ä,0.4685489998664707,correct,110.38320920011029,112.3830819001887,112.40394380013458,109.09853830002248,112.3830819001887,,,,,,,,,,,4,A,2023-12-06_15h25.42.437,gca_discrimination,2022.2.4,144.02456448023318,
positions.xlsx,stimuli.xlsx,test.xlsx,stimuli/Social1.png,stimuli/Social2.png,stimuli/Nonsocial1.png,stimuli/Nonsocial2.png,stimuli/Test1.png,stimuli/Test2.png,"(-0.7, -0.5)",cs_minus_ns,"(0.7, 0.5)",cs_plus_ns,0,0,0,0,,,,,0,0,0,40,,,,,,,,,,,,,124.95902100019157,126.02842010022141,126.02842010022141,127.02141700009815,127.02141700009815,127.16034210007638,127.66719480021857,127.66719480021857,127.81304140016437,ä,0.5434147999621928,correct,,128.3685932001099,129.26440300000831,,,112.40394380013458,112.40394380013458,112.40394380013458,112.40394380013458,112.40394380013458,112.40394380013458,112.40394380013458,112.40394380013458,space,12.544017100008205,4,A,2023-12-06_15h25.42.437,gca_discrimination,2022.2.4,144.02456448023318,
positions.xlsx,stimuli.xlsx,test.xlsx,stimuli/Social1.png,stimuli/Social2.png,stimuli/Nonsocial1.png,stimuli/Nonsocial2.png,stimuli/Test1.png,stimuli/Test2.png,"(0.7, -0.5)",cs_minus_s,"(-0.7, 0.5)",cs_plus_s,0,0,0,0,,,,,0,1,1,21,,,,,,,,,,,,,,,129.26440300000831,130.27130320016295,130.27130320016295,130.41711150016636,130.92408190015703,130.92408190015703,131.0698768000584,ä,0.5022003999911249,correct,,131.5837319002021,131.7087298000697,130.27130320016295,,,,,,,,,,,,4,A,2023-12-06_15h25.42.437,gca_discrimination,2022.2.4,144.02456448023318,
positions.xlsx,stimuli.xlsx,test.xlsx,stimuli/Social1.png,stimuli/Social2.png,stimuli/Nonsocial1.png,stimuli/Nonsocial2.png,stimuli/Test1.png,stimuli/Test2.png,"(0.7, 0.5)",cs_plus_s,"(0.7, -0.5)",cs_minus_s,0,0,0,0,,,,,0,2,2,8,,,,,,,,,,,,,,,131.7087298000697,132.71564940013923,132.71564940013923,132.86145430011675,133.36840000003576,133.36840000003576,133.51424120017327,ä,0.3535887999460101,correct,,133.87528410018422,133.90307190013118,132.71564940013923,,,,,,,,,,,,4,A,2023-12-06_15h25.42.437,gca_discrimination,2022.2.4,144.02456448023318,
positions.xlsx,stimuli.xlsx,test.xlsx,stimuli/Social1.png,stimuli/Social2.png,stimuli/Nonsocial1.png,stimuli/Nonsocial2.png,stimuli/Test1.png,stimuli/Test2.png,"(-0.7, -0.5)",cs_minus_s,"(0.7, 0.5)",cs_plus_s,0,0,0,0,,,,,0,3,3,16,,,,,,,,,,,,,,,133.90307190013118,134.9099775000941,134.9099775000941,135.0558060000185,135.5627257002052,135.5627257002052,135.70857060002163,ä,0.3916497998870909,correct,,136.11131100007333,136.36131770000793,134.9099775000941,,,,,,,,,,,,4,A,2023-12-06_15h25.42.437,gca_discrimination,2022.2.4,144.02456448023318,
positions.xlsx,stimuli.xlsx,test.xlsx,stimuli/Social1.png,stimuli/Social2.png,stimuli/Nonsocial1.png,stimuli/Nonsocial2.png,stimuli/Test1.png,stimuli/Test2.png,"(0.7, -0.5)",cs_minus_ns,"(-0.7, -0.5)",cs_plus_ns,0,0,0,0,,,,,0,4,4,46,,,,,,,,,,,,,,,136.36131770000793,137.3682307000272,137.3682307000272,137.51406590011902,138.02100390009582,138.02100390009582,138.16678240010515,ä,0.35669449996203184,correct,,138.53478120011277,138.5904239001684,137.3682307000272,,,,,,,,,,,,4,A,2023-12-06_15h25.42.437,gca_discrimination,2022.2.4,144.02456448023318,
positions.xlsx,stimuli.xlsx,test.xlsx,stimuli/Social1.png,stimuli/Social2.png,stimuli/Nonsocial1.png,stimuli/Nonsocial2.png,stimuli/Test1.png,stimuli/Test2.png,"(0.7, -0.5)",cs_plus_ns,"(-0.7, -0.5)",cs_minus_ns,0,0,0,0,,,,,0,5,5,34,,,,,,,,,,,,,,,138.5904239001684,139.59729670011438,139.59729670011438,139.74313970003277,140.25001610000618,140.25001610000618,140.39584550005384,ä,0.34373510000295937,correct,,140.7500262001995,141.11110860016197,139.59729670011438,,,,,,,,,,,,4,A,2023-12-06_15h25.42.437,gca_discrimination,2022.2.4,144.02456448023318,
positions.xlsx,stimuli.xlsx,test.xlsx,stimuli/Social1.png,stimuli/Social2.png,stimuli/Nonsocial1.png,stimuli/Nonsocial2.png,stimuli/Test1.png,stimuli/Test2.png,"(-0.7, 0.5)",cs_plus_ns,"(0.7, -0.5)",cs_minus_ns,0,0,0,0,,,,,0,6,6,26,,,,,,,,,,,,,,,141.11110860016197,142.11802700022236,142.11802700022236,142.26386480010115,142.770806300221,142.770806300221,142.9166221001651,ä,0.3601374998688698,correct,,143.28461550013162,143.38183210021816,142.11802700022236,,,,,,,,,,,,4,A,2023-12-06_15h25.42.437,gca_discrimination,2022.2.4,144.02456448023318,
positions.xlsx,stimuli.xlsx,test.xlsx,stimuli/Social1.png,stimuli/Social2.png,stimuli/Nonsocial1.png,stimuli/Nonsocial2.png,stimuli/Test1.png,stimuli/Test2.png,"(-0.7, 0.5)",cs_minus_ns,"(-0.7, -0.5)",cs_minus_ns,0,0,0,0,,,,,0,7,7,84,,,,,,,,,,,,,,,143.38183210021816,144.38874080008827,144.38874080008827,144.53461810015142,145.04150510020554,145.04150510020554,145.18733800016344,l,0.4160025001037866,correct,,145.61095510004088,146.09009600011632,144.38874080008827,,,,,,,,,,,,4,A,2023-12-06_15h25.42.437,gca_discrimination,2022.2.4,144.02456448023318,
positions.xlsx,stimuli.xlsx,test.xlsx,stimuli/Social1.png,stimuli/Social2.png,stimuli/Nonsocial1.png,stimuli/Nonsocial2.png,stimuli/Test1.png,stimuli/Test2.png,"(0.7, -0.5)",cs_minus_ns,"(0.7, 0.5)",cs_plus_ns,0,0,0,0,,,,,0,8,8,47,,,,,,,,,,,,,,,146.09009600011632,147.0969942000229,147.0969942000229,147.24283990007825,147.74968650005758,147.74968650005758,147.89553170022555,ä,0.2763012999203056,correct,,148.18026490020566,148.2219396000728,147.0969942000229,,,,,,,,,,,,4,A,2023-12-06_15h25.42.437,gca_discrimination,2022.2.4,144.02456448023318,
positions.xlsx,stimuli.xlsx,test.xlsx,stimuli/Social1.png,stimuli/Social2.png,stimuli/Nonsocial1.png,stimuli/Nonsocial2.png,stimuli/Test1.png,stimuli/Test2.png,"(-0.7, 0.5)",cs_plus_s,"(0.7, -0.5)",cs_minus_s,0,0,0,0,,,,,0,9,9,2,,,,,,,,,,,,,,,148.2219396000728,149.2288424000144,149.2288424000144,149.37466319999658,149.88160060020164,149.88160060020164,150.02739730011672,ä,0.3604818999301642,correct,,150.3954324000515,150.9370843002107,149.2288424000144,,,,,,,,,,,,4,A,2023-12-06_15h25.42.437,gca_discrimination,2022.2.4,144.02456448023318,
positions.xlsx,stimuli.xlsx,test.xlsx,stimuli/Social1.png,stimuli/Social2.png,stimuli/Nonsocial1.png,stimuli/Nonsocial2.png,stimuli/Test1.png,stimuli/Test2.png,"(-0.7, -0.5)",cs_plus_s,"(-0.7, 0.5)",cs_plus_s,0,0,0,0,,,,,0,10,10,51,,,,,,,,,,,,,,,150.9370843002107,151.94403070001863,151.94403070001863,152.08983080019243,152.59678450017236,152.59678450017236,152.74259340018034,l,0.3658513000700623,correct,,153.1175901000388,153.87449470022693,151.94403070001863,,,,,,,,,,,,4,A,2023-12-06_15h25.42.437,gca_discrimination,2022.2.4,144.02456448023318,
positions.xlsx,stimuli.xlsx,test.xlsx,stimuli/Social1.png,stimuli/Social2.png,stimuli/Nonsocial1.png,stimuli/Nonsocial2.png,stimuli/Test1.png,stimuli/Test2.png,"(0.7, -0.5)",cs_plus_ns,"(0.7, 0.5)",cs_minus_ns,0,0,0,0,,,,,0,11,11,35,,,,,,,,,,,,,,,153.87449470022693,154.8814066001214,154.8814066001214,155.02723000012338,155.53414500015788,155.53414500015788,155.67996520013548,ä,0.31602389994077384,correct,,156.00633420003578,156.79797630012035,154.8814066001214,,,,,,,,,,,,4,A,2023-12-06_15h25.42.437,gca_discrimination,2022.2.4,144.02456448023318,
positions.xlsx,stimuli.xlsx,test.xlsx,stimuli/Social1.png,stimuli/Social2.png,stimuli/Nonsocial1.png,stimuli/Nonsocial2.png,stimuli/Test1.png,stimuli/Test2.png,"(0.7, -0.5)",cs_plus_ns,"(-0.7, 0.5)",cs_minus_ns,0,0,0,0,,,,,0,12,12,33,,,,,,,,,,,,,,,156.79797630012035,157.8048873001244,157.8048873001244,157.95071290014312,158.45761410007253,158.45761410007253,158.60347460000776,ä,0.5597326999995857,correct,,159.17287330003455,159.96450680005364,157.8048873001244,,,,,,,,,,,,4,A,2023-12-06_15h25.42.437,gca_discrimination,2022.2.4,144.02456448023318,
positions.xlsx,stimuli.xlsx,test.xlsx,stimuli/Social1.png,stimuli/Social2.png,stimuli/Nonsocial1.png,stimuli/Nonsocial2.png,stimuli/Test1.png,stimuli/Test2.png,"(0.7, -0.5)",cs_minus_s,"(0.7, 0.5)",cs_minus_s,0,0,0,0,,,,,0,13,13,71,,,,,,,,,,,,,,,159.96450680005364,160.9714258001186,160.9714258001186,161.11725000012666,161.62414100021124,161.62414100021124,161.76999630010687,l,0.22526609990745783,correct,,162.00609220005572,162.26999470009468,160.9714258001186,,,,,,,,,,,,4,A,2023-12-06_15h25.42.437,gca_discrimination,2022.2.4,144.02456448023318,
positions.xlsx,stimuli.xlsx,test.xlsx,stimuli/Social1.png,stimuli/Social2.png,stimuli/Nonsocial1.png,stimuli/Nonsocial2.png,stimuli/Test1.png,stimuli/Test2.png,"(0.7, -0.5)",cs_plus_ns,"(0.7, 0.5)",cs_plus_ns,0,0,0,0,,,,,0,14,14,83,,,,,,,,,,,,,,,162.26999470009468,163.2768910001032,163.2768910001032,163.42269870010205,163.92968040006235,163.92968040006235,164.0754643001128,ä,0.24079860001802444,wrong,,164.32542850007303,164.53377920016646,163.2768910001032,,,,,,,,,,,,4,A,2023-12-06_15h25.42.437,gca_discrimination,2022.2.4,144.02456448023318,
positions.xlsx,stimuli.xlsx,test.xlsx,stimuli/Social1.png,stimuli/Social2.png,stimuli/Nonsocial1.png,stimuli/Nonsocial2.png,stimuli/Test1.png,stimuli/Test2.png,"(-0.7, 0.5)",cs_minus_ns,"(-0.7, -0.5)",cs_plus_ns,0,0,0,0,,,,,0,15,15,36,,,,,,,,,,,,,,,164.53377920016646,165.54071380011737,165.54071380011737,165.68650690000504,166.1934414000716,166.1934414000716,166.3392712001223,ä,0.4642549999989569,correct,,166.81145260017365,166.9572644000873,165.54071380011737,,,,,,,,,,,,4,A,2023-12-06_15h25.42.437,gca_discrimination,2022.2.4,144.02456448023318,
positions.xlsx,stimuli.xlsx,test.xlsx,stimuli/Social1.png,stimuli/Social2.png,stimuli/Nonsocial1.png,stimuli/Nonsocial2.png,stimuli/Test1.png,stimuli/Test2.png,"(0.7, -0.5)",cs_minus_s,"(-0.7, 0.5)",cs_minus_s,0,0,0,0,,,,,0,16,16,69,,,,,,,,,,,,,,,166.9572644000873,167.96420490019955,167.96420490019955,168.11001970013604,168.61696280003525,168.61696280003525,168.76276680012234,l,0.24075390002690256,correct,,169.01276720012538,169.63774650008418,167.96420490019955,,,,,,,,,,,,4,A,2023-12-06_15h25.42.437,gca_discrimination,2022.2.4,144.02456448023318,
positions.xlsx,stimuli.xlsx,test.xlsx,stimuli/Social1.png,stimuli/Social2.png,stimuli/Nonsocial1.png,stimuli/Nonsocial2.png,stimuli/Test1.png,stimuli/Test2.png,"(0.7, -0.5)",cs_minus_ns,"(-0.7, 0.5)",cs_plus_ns,0,0,0,0,,,,,0,17,17,45,,,,,,,,,,,,,,,169.63774650008418,170.64462270005606,170.64462270005606,170.79044210002758,171.29743610019796,171.29743610019796,171.44322710018605,ä,0.3762374999932945,correct,,171.83206730009988,172.31124540022574,170.64462270005606,,,,,,,,,,,,4,A,2023-12-06_15h25.42.437,gca_discrimination,2022.2.4,144.02456448023318,
positions.xlsx,stimuli.xlsx,test.xlsx,stimuli/Social1.png,stimuli/Social2.png,stimuli/Nonsocial1.png,stimuli/Nonsocial2.png,stimuli/Test1.png,stimuli/Test2.png,"(-0.7, -0.5)",cs_plus_ns,"(-0.7, 0.5)",cs_plus_ns,0,0,0,0,,,,,0,18,18,75,,,,,,,,,,,,,,,172.31124540022574,173.31814970006235,173.31814970006235,173.46394610009156,173.9708457000088,173.9708457000088,174.1167208000552,l,0.48767329985275865,correct,,174.616703200154,174.81114260014147,173.31814970006235,,,,,,,,,,,,4,A,2023-12-06_15h25.42.437,gca_discrimination,2022.2.4,144.02456448023318,
positions.xlsx,stimuli.xlsx,test.xlsx,stimuli/Social1.png,stimuli/Social2.png,stimuli/Nonsocial1.png,stimuli/Nonsocial2.png,stimuli/Test1.png,stimuli/Test2.png,"(0.7, 0.5)",cs_plus_s,"(-0.7, 0.5)",cs_minus_s,0,0,0,0,,,,,0,19,19,6,,,,,,,,,,,,,,,174.81114260014147,175.8180174001027,175.8180174001027,175.96388170006685,176.4707974002231,176.4707974002231,176.61662390013225,ä,0.4664928000420332,correct,,177.0957860001363,177.99159900005907,175.8180174001027,,,,,,,,,,,,4,A,2023-12-06_15h25.42.437,gca_discrimination,2022.2.4,144.02456448023318,
positions.xlsx,stimuli.xlsx,test.xlsx,stimuli/Social1.png,stimuli/Social2.png,stimuli/Nonsocial1.png,stimuli/Nonsocial2.png,stimuli/Test1.png,stimuli/Test2.png,"(-0.7, 0.5)",cs_plus_s,"(0.7, -0.5)",cs_plus_s,0,0,0,0,,,,,0,20,20,50,,,,,,,,,,,,,,,177.99159900005907,178.99847180000506,178.99847180000506,179.14432530011982,179.65121850022115,179.65121850022115,179.79705320019275,l,0.4389835998881608,correct,,180.24841760005802,180.4984513001982,178.99847180000506,,,,,,,,,,,,4,A,2023-12-06_15h25.42.437,gca_discrimination,2022.2.4,144.02456448023318,
positions.xlsx,stimuli.xlsx,test.xlsx,stimuli/Social1.png,stimuli/Social2.png,stimuli/Nonsocial1.png,stimuli/Nonsocial2.png,stimuli/Test1.png,stimuli/Test2.png,"(-0.7, -0.5)",cs_minus_s,"(0.7, 0.5)",cs_minus_s,0,0,0,0,,,,,0,21,21,64,,,,,,,,,,,,,,,180.4984513001982,181.50531830010004,181.50531830010004,181.65114650013857,182.1580138001591,182.1580138001591,182.3039199002087,l,0.419613900128752,correct,,182.73445150000043,183.59552240022458,181.50531830010004,,,,,,,,,,,,4,A,2023-12-06_15h25.42.437,gca_discrimination,2022.2.4,144.02456448023318,
positions.xlsx,stimuli.xlsx,test.xlsx,stimuli/Social1.png,stimuli/Social2.png,stimuli/Nonsocial1.png,stimuli/Nonsocial2.png,stimuli/Test1.png,stimuli/Test2.png,"(-0.7, 0.5)",cs_plus_s,"(0.7, 0.5)",cs_plus_s,0,0,0,0,,,,,0,22,22,49,,,,,,,,,,,,,,,183.59552240022458,184.6024314002134,184.6024314002134,184.74822870013304,185.2551811002195,185.2551811002195,185.40099210012704,l,0.6509620000142604,correct,,186.0606822001282,186.71342540020123,184.6024314002134,,,,,,,,,,,,4,A,2023-12-06_15h25.42.437,gca_discrimination,2022.2.4,144.02456448023318,
positions.xlsx,stimuli.xlsx,test.xlsx,stimuli/Social1.png,stimuli/Social2.png,stimuli/Nonsocial1.png,stimuli/Nonsocial2.png,stimuli/Test1.png,stimuli/Test2.png,"(0.7, 0.5)",cs_minus_ns,"(-0.7, 0.5)",cs_plus_ns,0,0,0,0,,,,,0,23,23,42,,,,,,,,,,,,,,,186.71342540020123,187.72034570015967,187.72034570015967,187.86622650013305,188.37310780002736,188.37310780002736,188.51896370016038,ä,0.2522032998967916,correct,,188.7828014001716,188.90778460004367,187.72034570015967,,,,,,,,,,,,4,A,2023-12-06_15h25.42.437,gca_discrimination,2022.2.4,144.02456448023318,
positions.xlsx,stimuli.xlsx,test.xlsx,stimuli/Social1.png,stimuli/Social2.png,stimuli/Nonsocial1.png,stimuli/Nonsocial2.png,stimuli/Test1.png,stimuli/Test2.png,"(0.7, -0.5)",cs_minus_s,"(0.7, 0.5)",cs_plus_s,0,0,0,0,,,,,0,24,24,23,,,,,,,,,,,,,,,188.90778460004367,189.91473740013316,189.91473740013316,190.06049330020323,190.5674650000874,190.5674650000874,190.7132819001563,ä,0.37858100002631545,correct,,191.10209300019778,191.54655440011993,189.91473740013316,,,,,,,,,,,,4,A,2023-12-06_15h25.42.437,gca_discrimination,2022.2.4,144.02456448023318,
positions.xlsx,stimuli.xlsx,test.xlsx,stimuli/Social1.png,stimuli/Social2.png,stimuli/Nonsocial1.png,stimuli/Nonsocial2.png,stimuli/Test1.png,stimuli/Test2.png,"(-0.7, -0.5)",cs_minus_ns,"(0.7, -0.5)",cs_plus_ns,0,0,0,0,,,,,0,25,25,41,,,,,,,,,,,,,,,191.54655440011993,192.5534508000128,192.5534508000128,192.69931420008652,193.20625240006484,193.20625240006484,193.35206160019152,ä,0.3633303998503834,correct,,193.7270459001884,194.16449500015005,192.5534508000128,,,,,,,,,,,,4,A,2023-12-06_15h25.42.437,gca_discrimination,2022.2.4,144.02456448023318,
positions.xlsx,stimuli.xlsx,test.xlsx,stimuli/Social1.png,stimuli/Social2.png,stimuli/Nonsocial1.png,stimuli/Nonsocial2.png,stimuli/Test1.png,stimuli/Test2.png,"(0.7, 0.5)",cs_minus_s,"(-0.7, -0.5)",cs_plus_s,0,0,0,0,,,,,0,26,26,19,,,,,,,,,,,,,,,194.16449500015005,195.1714034001343,195.1714034001343,195.31723710009828,195.8241823001299,195.8241823001299,195.9699466000311,ä,0.3628507999237627,correct,,196.34499020013027,196.66443730005994,195.1714034001343,,,,,,,,,,,,4,A,2023-12-06_15h25.42.437,gca_discrimination,2022.2.4,144.02456448023318,
positions.xlsx,stimuli.xlsx,test.xlsx,stimuli/Social1.png,stimuli/Social2.png,stimuli/Nonsocial1.png,stimuli/Nonsocial2.png,stimuli/Test1.png,stimuli/Test2.png,"(-0.7, 0.5)",cs_plus_ns,"(0.7, -0.5)",cs_plus_ns,0,0,0,0,,,,,0,27,27,74,,,,,,,,,,,,,,,196.66443730005994,197.6713519000914,197.6713519000914,197.8171351000201,198.3240814001765,198.3240814001765,198.4699125001207,l,0.3092779000289738,correct,,198.7893000000622,198.9837825000286,197.6713519000914,,,,,,,,,,,,4,A,2023-12-06_15h25.42.437,gca_discrimination,2022.2.4,144.02456448023318,
positions.xlsx,stimuli.xlsx,test.xlsx,stimuli/Social1.png,stimuli/Social2.png,stimuli/Nonsocial1.png,stimuli/Nonsocial2.png,stimuli/Test1.png,stimuli/Test2.png,"(0.7, 0.5)",cs_minus_ns,"(-0.7, 0.5)",cs_minus_ns,0,0,0,0,,,,,0,28,28,90,,,,,,,,,,,,,,,198.9837825000286,199.990671900101,199.990671900101,200.1364756000694,200.6434868001379,200.6434868001379,200.7892964000348,ä,0.2955712000839412,wrong,,201.09473820007406,201.19895990006626,199.990671900101,,,,,,,,,,,,4,A,2023-12-06_15h25.42.437,gca_discrimination,2022.2.4,144.02456448023318,
positions.xlsx,stimuli.xlsx,test.xlsx,stimuli/Social1.png,stimuli/Social2.png,stimuli/Nonsocial1.png,stimuli/Nonsocial2.png,stimuli/Test1.png,stimuli/Test2.png,"(-0.7, -0.5)",cs_minus_ns,"(0.7, 0.5)",cs_minus_ns,0,0,0,0,,,,,0,29,29,88,,,,,,,,,,,,,,,201.19895990006626,202.20589270000346,202.20589270000346,202.35164110013284,202.85859870002605,202.85859870002605,203.00442150002345,ä,0.3110405998304486,wrong,,203.32385830022395,203.4558186000213,202.20589270000346,,,,,,,,,,,,4,A,2023-12-06_15h25.42.437,gca_discrimination,2022.2.4,144.02456448023318,
positions.xlsx,stimuli.xlsx,test.xlsx,stimuli/Social1.png,stimuli/Social2.png,stimuli/Nonsocial1.png,stimuli/Nonsocial2.png,stimuli/Test1.png,stimuli/Test2.png,"(-0.7, -0.5)",cs_plus_ns,"(0.7, 0.5)",cs_minus_ns,0,0,0,0,,,,,0,30,30,28,,,,,,,,,,,,,,,203.4558186000213,204.46273010014556,204.46273010014556,204.60856320010498,205.1154717002064,205.1154717002064,205.26129360008053,l,0.4460491999052465,wrong,,205.71960190008394,205.94880070001818,204.46273010014556,,,,,,,,,,,,4,A,2023-12-06_15h25.42.437,gca_discrimination,2022.2.4,144.02456448023318,
positions.xlsx,stimuli.xlsx,test.xlsx,stimuli/Social1.png,stimuli/Social2.png,stimuli/Nonsocial1.png,stimuli/Nonsocial2.png,stimuli/Test1.png,stimuli/Test2.png,"(0.7, 0.5)",cs_plus_ns,"(-0.7, -0.5)",cs_minus_ns,0,0,0,0,,,,,0,31,31,31,,,,,,,,,,,,,,,205.94880070001818,206.95571470004506,206.95571470004506,207.10152130015194,207.60842050006613,207.60842050006613,207.75427180016413,l,0.7049002000130713,wrong,,208.46948990016244,208.98336120019667,206.95571470004506,,,,,,,,,,,,4,A,2023-12-06_15h25.42.437,gca_discrimination,2022.2.4,144.02456448023318,
positions.xlsx,stimuli.xlsx,test.xlsx,stimuli/Social1.png,stimuli/Social2.png,stimuli/Nonsocial1.png,stimuli/Nonsocial2.png,stimuli/Test1.png,stimuli/Test2.png,"(0.7, 0.5)",cs_minus_s,"(-0.7, -0.5)",cs_minus_s,0,0,0,0,,,,,0,32,32,67,,,,,,,,,,,,,,,208.98336120019667,209.99026730004698,209.99026730004698,210.1361040000338,210.64302330021746,210.64302330021746,210.7888646000065,l,1.2146340999752283,correct,,212.01103870011866,212.26097810012288,209.99026730004698,,,,,,,,,,,,4,A,2023-12-06_15h25.42.437,gca_discrimination,2022.2.4,144.02456448023318,
positions.xlsx,stimuli.xlsx,test.xlsx,stimuli/Social1.png,stimuli/Social2.png,stimuli/Nonsocial1.png,stimuli/Nonsocial2.png,stimuli/Test1.png,stimuli/Test2.png,"(0.7, 0.5)",cs_plus_ns,"(0.7, -0.5)",cs_plus_ns,0,0,0,0,,,,,0,33,33,80,,,,,,,,,,,,,,,212.26097810012288,213.26790070021525,213.26790070021525,213.41372580011375,213.92066709999926,213.92066709999926,214.06653480022214,l,0.48860689997673035,correct,,214.5664513001684,214.58035070006736,213.26790070021525,,,,,,,,,,,,4,A,2023-12-06_15h25.42.437,gca_discrimination,2022.2.4,144.02456448023318,
positions.xlsx,stimuli.xlsx,test.xlsx,stimuli/Social1.png,stimuli/Social2.png,stimuli/Nonsocial1.png,stimuli/Nonsocial2.png,stimuli/Test1.png,stimuli/Test2.png,"(0.7, -0.5)",cs_minus_ns,"(-0.7, -0.5)",cs_minus_ns,0,0,0,0,,,,,0,34,34,94,,,,,,,,,,,,,,,214.58035070006736,215.58726810012013,215.58726810012013,215.73309190012515,216.24001890001819,216.24001890001819,216.3858515000902,l,0.48179590003564954,correct,,216.87888010009192,217.44830990000628,215.58726810012013,,,,,,,,,,,,4,A,2023-12-06_15h25.42.437,gca_discrimination,2022.2.4,144.02456448023318,
positions.xlsx,stimuli.xlsx,test.xlsx,stimuli/Social1.png,stimuli/Social2.png,stimuli/Nonsocial1.png,stimuli/Nonsocial2.png,stimuli/Test1.png,stimuli/Test2.png,"(0.7, 0.5)",cs_minus_s,"(-0.7, 0.5)",cs_minus_s,0,0,0,0,,,,,0,35,35,66,,,,,,,,,,,,,,,217.44830990000628,218.4552184001077,218.4552184001077,218.60101840016432,219.10789790004492,219.10789790004492,219.25375190004706,l,0.43918240000493824,correct,,219.70513480016962,219.74686120008118,218.4552184001077,,,,,,,,,,,,4,A,2023-12-06_15h25.42.437,gca_discrimination,2022.2.4,144.02456448023318,
positions.xlsx,stimuli.xlsx,test.xlsx,stimuli/Social1.png,stimuli/Social2.png,stimuli/Nonsocial1.png,stimuli/Nonsocial2.png,stimuli/Test1.png,stimuli/Test2.png,"(0.7, -0.5)",cs_minus_s,"(-0.7, -0.5)",cs_plus_s,0,0,0,0,,,,,0,36,36,22,,,,,,,,,,,,,,,219.74686120008118,220.75374000007287,220.75374000007287,220.89953620010056,221.40644849999808,221.40644849999808,221.55231200018898,ä,0.37148199998773634,correct,,221.93423150014132,222.1633725001011,220.75374000007287,,,,,,,,,,,,4,A,2023-12-06_15h25.42.437,gca_discrimination,2022.2.4,144.02456448023318,
positions.xlsx,stimuli.xlsx,test.xlsx,stimuli/Social1.png,stimuli/Social2.png,stimuli/Nonsocial1.png,stimuli/Nonsocial2.png,stimuli/Test1.png,stimuli/Test2.png,"(0.7, 0.5)",cs_plus_s,"(0.7, -0.5)",cs_plus_s,0,0,0,0,,,,,0,37,37,56,,,,,,,,,,,,,,,222.1633725001011,223.17031110008247,223.17031110008247,223.31611500005238,223.82306210021488,223.82306210021488,223.96886300016195,l,0.41911509982310236,correct,,224.39938480011187,225.34381430014037,223.17031110008247,,,,,,,,,,,,4,A,2023-12-06_15h25.42.437,gca_discrimination,2022.2.4,144.02456448023318,
positions.xlsx,stimuli.xlsx,test.xlsx,stimuli/Social1.png,stimuli/Social2.png,stimuli/Nonsocial1.png,stimuli/Nonsocial2.png,stimuli/Test1.png,stimuli/Test2.png,"(-0.7, -0.5)",cs_minus_s,"(0.7, -0.5)",cs_plus_s,0,0,0,0,,,,,0,38,38,17,,,,,,,,,,,,,,,225.34381430014037,226.35068890010007,226.35068890010007,226.4965132002253,227.00347920018248,227.00347920018248,227.14930550009012,ä,0.8315437999553978,correct,,227.98948890017346,228.8020017000381,226.35068890010007,,,,,,,,,,,,4,A,2023-12-06_15h25.42.437,gca_discrimination,2022.2.4,144.02456448023318,
positions.xlsx,stimuli.xlsx,test.xlsx,stimuli/Social1.png,stimuli/Social2.png,stimuli/Nonsocial1.png,stimuli/Nonsocial2.png,stimuli/Test1.png,stimuli/Test2.png,"(0.7, -0.5)",cs_plus_s,"(-0.7, 0.5)",cs_plus_s,0,0,0,0,,,,,0,39,39,57,,,,,,,,,,,,,,,228.8020017000381,229.80887930002064,229.80887930002064,229.95474300021306,230.4615999001544,230.4615999001544,230.6074858000502,ä,1.4283807000610977,wrong,,232.04497400019318,232.42684140009806,229.80887930002064,,,,,,,,,,,,4,A,2023-12-06_15h25.42.437,gca_discrimination,2022.2.4,144.02456448023318,
positions.xlsx,stimuli.xlsx,test.xlsx,stimuli/Social1.png,stimuli/Social2.png,stimuli/Nonsocial1.png,stimuli/Nonsocial2.png,stimuli/Test1.png,stimuli/Test2.png,"(0.7, -0.5)",cs_minus_ns,"(0.7, 0.5)",cs_minus_ns,0,0,0,0,,,,,0,40,40,95,,,,,,,,,,,,,,,232.42684140009806,233.43376630009152,233.43376630009152,233.57957840012386,234.08648210018873,234.08648210018873,234.23230750020593,l,0.35537020000629127,correct,,234.60036300006323,234.8295307001099,233.43376630009152,,,,,,,,,,,,4,A,2023-12-06_15h25.42.437,gca_discrimination,2022.2.4,144.02456448023318,
positions.xlsx,stimuli.xlsx,test.xlsx,stimuli/Social1.png,stimuli/Social2.png,stimuli/Nonsocial1.png,stimuli/Nonsocial2.png,stimuli/Test1.png,stimuli/Test2.png,"(0.7, -0.5)",cs_plus_s,"(0.7, 0.5)",cs_minus_s,0,0,0,0,,,,,0,41,41,11,,,,,,,,,,,,,,,234.8295307001099,235.8364030001685,235.8364030001685,235.98225030000322,236.48917350010015,236.48917350010015,236.63503260002472,ä,0.36007619998417795,correct,,237.00304270000197,237.91968900011852,235.8364030001685,,,,,,,,,,,,4,A,2023-12-06_15h25.42.437,gca_discrimination,2022.2.4,144.02456448023318,
positions.xlsx,stimuli.xlsx,test.xlsx,stimuli/Social1.png,stimuli/Social2.png,stimuli/Nonsocial1.png,stimuli/Nonsocial2.png,stimuli/Test1.png,stimuli/Test2.png,"(-0.7, 0.5)",cs_plus_s,"(-0.7, -0.5)",cs_minus_s,0,0,0,0,,,,,0,42,42,0,,,,,,,,,,,,,,,237.91968900011852,238.926586400019,238.926586400019,239.07242540013976,239.5793698001653,239.5793698001653,239.72514690016396,ä,0.3437967000063509,correct,,240.0792557001114,240.2945910000708,238.926586400019,,,,,,,,,,,,4,A,2023-12-06_15h25.42.437,gca_discrimination,2022.2.4,144.02456448023318,
positions.xlsx,stimuli.xlsx,test.xlsx,stimuli/Social1.png,stimuli/Social2.png,stimuli/Nonsocial1.png,stimuli/Nonsocial2.png,stimuli/Test1.png,stimuli/Test2.png,"(0.7, -0.5)",cs_minus_ns,"(-0.7, 0.5)",cs_minus_ns,0,0,0,0,,,,,0,43,43,93,,,,,,,,,,,,,,,240.2945910000708,241.3015119000338,241.3015119000338,241.44725860003382,241.9542598000262,241.9542598000262,242.10006720013916,l,0.47114189993590117,correct,,242.57919580000453,242.91949030011892,241.3015119000338,,,,,,,,,,,,4,A,2023-12-06_15h25.42.437,gca_discrimination,2022.2.4,144.02456448023318,
positions.xlsx,stimuli.xlsx,test.xlsx,stimuli/Social1.png,stimuli/Social2.png,stimuli/Nonsocial1.png,stimuli/Nonsocial2.png,stimuli/Test1.png,stimuli/Test2.png,"(-0.7, -0.5)",cs_plus_ns,"(0.7, -0.5)",cs_minus_ns,0,0,0,0,,,,,0,44,44,29,,,,,,,,,,,,,,,242.91949030011892,243.9264193000272,243.9264193000272,244.0721860001795,244.57913170009851,244.57913170009851,244.72493430017494,ä,0.4557292000390589,correct,,245.1902322000824,245.75270260008983,243.9264193000272,,,,,,,,,,,,4,A,2023-12-06_15h25.42.437,gca_discrimination,2022.2.4,144.02456448023318,
positions.xlsx,stimuli.xlsx,test.xlsx,stimuli/Social1.png,stimuli/Social2.png,stimuli/Nonsocial1.png,stimuli/Nonsocial2.png,stimuli/Test1.png,stimuli/Test2.png,"(0.7, 0.5)",cs_plus_ns,"(-0.7, 0.5)",cs_minus_ns,0,0,0,0,,,,,0,45,45,30,,,,,,,,,,,,,,,245.75270260008983,246.7595825002063,246.7595825002063,246.90542570012622,247.41235250001773,247.41235250001773,247.55817160010338,l,0.4292866000905633,wrong,,247.9956540002022,248.48175890021957,246.7595825002063,,,,,,,,,,,,4,A,2023-12-06_15h25.42.437,gca_discrimination,2022.2.4,144.02456448023318,
positions.xlsx,stimuli.xlsx,test.xlsx,stimuli/Social1.png,stimuli/Social2.png,stimuli/Nonsocial1.png,stimuli/Nonsocial2.png,stimuli/Test1.png,stimuli/Test2.png,"(0.7, 0.5)",cs_plus_ns,"(-0.7, -0.5)",cs_plus_ns,0,0,0,0,,,,,0,46,46,79,,,,,,,,,,,,,,,248.48175890021957,249.48868610011414,249.48868610011414,249.63447080017067,250.1414071000181,250.1414071000181,250.2872315000277,ä,0.47588060004636645,wrong,,250.773305100156,251.64826590009034,249.48868610011414,,,,,,,,,,,,4,A,2023-12-06_15h25.42.437,gca_discrimination,2022.2.4,144.02456448023318,
positions.xlsx,stimuli.xlsx,test.xlsx,stimuli/Social1.png,stimuli/Social2.png,stimuli/Nonsocial1.png,stimuli/Nonsocial2.png,stimuli/Test1.png,stimuli/Test2.png,"(0.7, 0.5)",cs_plus_ns,"(0.7, -0.5)",cs_minus_ns,0,0,0,0,,,,,0,47,47,32,,,,,,,,,,,,,,,251.64826590009034,252.65519560012035,252.65519560012035,252.80101200006902,253.30799330002628,253.30799330002628,253.45374220004305,ä,0.56532850000076,correct,,254.03012940008193,254.50927280006,252.65519560012035,,,,,,,,,,,,4,A,2023-12-06_15h25.42.437,gca_discrimination,2022.2.4,144.02456448023318,
positions.xlsx,stimuli.xlsx,test.xlsx,stimuli/Social1.png,stimuli/Social2.png,stimuli/Nonsocial1.png,stimuli/Nonsocial2.png,stimuli/Test1.png,stimuli/Test2.png,"(-0.7, 0.5)",cs_minus_s,"(0.7, -0.5)",cs_plus_s,0,0,0,0,,,,,0,48,48,14,,,,,,,,,,,,,,,254.50927280006,255.5161751001142,255.5161751001142,255.66202700021677,256.1689305000473,256.1689305000473,256.3147890002001,ä,0.36128340009599924,correct,,256.6827925001271,256.8008296000771,255.5161751001142,,,,,,,,,,,,4,A,2023-12-06_15h25.42.437,gca_discrimination,2022.2.4,144.02456448023318,
positions.xlsx,stimuli.xlsx,test.xlsx,stimuli/Social1.png,stimuli/Social2.png,stimuli/Nonsocial1.png,stimuli/Nonsocial2.png,stimuli/Test1.png,stimuli/Test2.png,"(-0.7, 0.5)",cs_minus_ns,"(0.7, -0.5)",cs_plus_ns,0,0,0,0,,,,,0,49,49,38,,,,,,,,,,,,,,,256.8008296000771,257.80777320009656,257.80777320009656,257.95358650013804,258.4605720001273,258.4605720001273,258.60633980017155,ä,0.3577896999195218,correct,,258.97436820017174,259.72435630019754,257.80777320009656,,,,,,,,,,,,4,A,2023-12-06_15h25.42.437,gca_discrimination,2022.2.4,144.02456448023318,
positions.xlsx,stimuli.xlsx,test.xlsx,stimuli/Social1.png,stimuli/Social2.png,stimuli/Nonsocial1.png,stimuli/Nonsocial2.png,stimuli/Test1.png,stimuli/Test2.png,"(0.7, -0.5)",cs_plus_s,"(-0.7, 0.5)",cs_minus_s,0,0,0,0,,,,,0,50,50,9,,,,,,,,,,,,,,,259.72435630019754,260.73123370017856,260.73123370017856,260.87707080016844,261.38402690016665,261.38402690016665,261.5297781000845,ä,0.4258669000118971,correct,,261.9673038001638,262.61311120004393,260.73123370017856,,,,,,,,,,,,4,A,2023-12-06_15h25.42.437,gca_discrimination,2022.2.4,144.02456448023318,
positions.xlsx,stimuli.xlsx,test.xlsx,stimuli/Social1.png,stimuli/Social2.png,stimuli/Nonsocial1.png,stimuli/Nonsocial2.png,stimuli/Test1.png,stimuli/Test2.png,"(-0.7, -0.5)",cs_plus_ns,"(-0.7, 0.5)",cs_minus_ns,0,0,0,0,,,,,0,51,51,27,,,,,,,,,,,,,,,262.61311120004393,263.62000049999915,263.62000049999915,263.7658530001063,264.2727644999977,264.2727644999977,264.4186081001535,ä,0.385349600110203,correct,,264.814395399997,264.82828330015764,263.62000049999915,,,,,,,,,,,,4,A,2023-12-06_15h25.42.437,gca_discrimination,2022.2.4,144.02456448023318,
positions.xlsx,stimuli.xlsx,test.xlsx,stimuli/Social1.png,stimuli/Social2.png,stimuli/Nonsocial1.png,stimuli/Nonsocial2.png,stimuli/Test1.png,stimuli/Test2.png,"(-0.7, 0.5)",cs_minus_ns,"(0.7, -0.5)",cs_minus_ns,0,0,0,0,,,,,0,52,52,86,,,,,,,,,,,,,,,264.82828330015764,265.8352118001785,265.8352118001785,265.98104170011356,266.4879520002287,266.4879520002287,266.6337758000009,l,0.42544789984822273,correct,,267.0713104000315,267.17541920021176,265.8352118001785,,,,,,,,,,,,4,A,2023-12-06_15h25.42.437,gca_discrimination,2022.2.4,144.02456448023318,
positions.xlsx,stimuli.xlsx,test.xlsx,stimuli/Social1.png,stimuli/Social2.png,stimuli/Nonsocial1.png,stimuli/Nonsocial2.png,stimuli/Test1.png,stimuli/Test2.png,"(-0.7, 0.5)",cs_plus_ns,"(0.7, 0.5)",cs_minus_ns,0,0,0,0,,,,,0,53,53,25,,,,,,,,,,,,,,,267.17541920021176,268.18234510021284,268.18234510021284,268.3281789000612,268.835124600213,268.835124600213,268.9808944000397,l,0.4064291000831872,wrong,,269.3975297000725,270.25863050017506,268.18234510021284,,,,,,,,,,,,4,A,2023-12-06_15h25.42.437,gca_discrimination,2022.2.4,144.02456448023318,
positions.xlsx,stimuli.xlsx,test.xlsx,stimuli/Social1.png,stimuli/Social2.png,stimuli/Nonsocial1.png,stimuli/Nonsocial2.png,stimuli/Test1.png,stimuli/Test2.png,"(-0.7, -0.5)",cs_plus_ns,"(0.7, 0.5)",cs_plus_ns,0,0,0,0,,,,,0,54,54,76,,,,,,,,,,,,,,,270.25863050017506,271.2655458000954,271.2655458000954,271.4113597001415,271.91829420020804,271.91829420020804,272.064103100216,l,0.7711016000248492,correct,,272.8487951999996,273.18904990004376,271.2655458000954,,,,,,,,,,,,4,A,2023-12-06_15h25.42.437,gca_discrimination,2022.2.4,144.02456448023318,
positions.xlsx,stimuli.xlsx,test.xlsx,stimuli/Social1.png,stimuli/Social2.png,stimuli/Nonsocial1.png,stimuli/Nonsocial2.png,stimuli/Test1.png,stimuli/Test2.png,"(-0.7, 0.5)",cs_minus_s,"(-0.7, -0.5)",cs_plus_s,0,0,0,0,,,,,0,55,55,12,,,,,,,,,,,,,,,273.18904990004376,274.1959827002138,274.1959827002138,274.3418324000668,274.8487220001407,274.8487220001407,274.9945487000514,ä,0.5048913999926299,correct,,275.5084260001313,275.8209151001647,274.1959827002138,,,,,,,,,,,,4,A,2023-12-06_15h25.42.437,gca_discrimination,2022.2.4,144.02456448023318,
positions.xlsx,stimuli.xlsx,test.xlsx,stimuli/Social1.png,stimuli/Social2.png,stimuli/Nonsocial1.png,stimuli/Nonsocial2.png,stimuli/Test1.png,stimuli/Test2.png,"(0.7, 0.5)",cs_minus_s,"(-0.7, 0.5)",cs_plus_s,0,0,0,0,,,,,0,56,56,18,,,,,,,,,,,,,,,275.8209151001647,276.8277559000999,276.8277559000999,276.9736236000899,277.48055020021275,277.48055020021275,277.6264057001099,l,0.3216538999695331,wrong,,277.95969140017405,278.02912630001083,276.8277559000999,,,,,,,,,,,,4,A,2023-12-06_15h25.42.437,gca_discrimination,2022.2.4,144.02456448023318,
positions.xlsx,stimuli.xlsx,test.xlsx,stimuli/Social1.png,stimuli/Social2.png,stimuli/Nonsocial1.png,stimuli/Nonsocial2.png,stimuli/Test1.png,stimuli/Test2.png,"(0.7, 0.5)",cs_plus_s,"(-0.7, -0.5)",cs_plus_s,0,0,0,0,,,,,0,57,57,55,,,,,,,,,,,,,,,278.02912630001083,279.0360799001064,279.0360799001064,279.1818776000291,279.68881090008654,279.68881090008654,279.8346227000002,l,0.4247320001013577,correct,,280.2721118000336,280.4110627002083,279.0360799001064,,,,,,,,,,,,4,A,2023-12-06_15h25.42.437,gca_discrimination,2022.2.4,144.02456448023318,
positions.xlsx,stimuli.xlsx,test.xlsx,stimuli/Social1.png,stimuli/Social2.png,stimuli/Nonsocial1.png,stimuli/Nonsocial2.png,stimuli/Test1.png,stimuli/Test2.png,"(-0.7, 0.5)",cs_minus_ns,"(0.7, 0.5)",cs_minus_ns,0,0,0,0,,,,,0,58,58,85,,,,,,,,,,,,,,,280.4110627002083,281.41789780021645,281.41789780021645,281.5637197000906,282.0706476001069,282.0706476001069,282.21648560022004,ä,0.306982200127095,wrong,,282.53590800007805,282.9872611002065,281.41789780021645,,,,,,,,,,,,4,A,2023-12-06_15h25.42.437,gca_discrimination,2022.2.4,144.02456448023318,
positions.xlsx,stimuli.xlsx,test.xlsx,stimuli/Social1.png,stimuli/Social2.png,stimuli/Nonsocial1.png,stimuli/Nonsocial2.png,stimuli/Test1.png,stimuli/Test2.png,"(-0.7, 0.5)",cs_minus_s,"(0.7, 0.5)",cs_minus_s,0,0,0,0,,,,,0,59,59,61,,,,,,,,,,,,,,,282.9872611002065,283.99418740021065,283.99418740021065,284.14001760003157,284.6469424001407,284.6469424001407,284.7927854000591,l,0.4187756001483649,correct,,285.2232937000226,286.0843595000915,283.99418740021065,,,,,,,,,,,,4,A,2023-12-06_15h25.42.437,gca_discrimination,2022.2.4,144.02456448023318,
positions.xlsx,stimuli.xlsx,test.xlsx,stimuli/Social1.png,stimuli/Social2.png,stimuli/Nonsocial1.png,stimuli/Nonsocial2.png,stimuli/Test1.png,stimuli/Test2.png,"(0.7, 0.5)",cs_minus_ns,"(0.7, -0.5)",cs_plus_ns,0,0,0,0,,,,,0,60,60,44,,,,,,,,,,,,,,,286.0843595000915,287.09128090017475,287.09128090017475,287.2371141000185,287.74409370007925,287.74409370007925,287.889813200105,ä,0.4987671999260783,correct,,288.3967724000104,289.34118080022745,287.09128090017475,,,,,,,,,,,,4,A,2023-12-06_15h25.42.437,gca_discrimination,2022.2.4,144.02456448023318,
positions.xlsx,stimuli.xlsx,test.xlsx,stimuli/Social1.png,stimuli/Social2.png,stimuli/Nonsocial1.png,stimuli/Nonsocial2.png,stimuli/Test1.png,stimuli/Test2.png,"(0.7, 0.5)",cs_minus_ns,"(-0.7, -0.5)",cs_plus_ns,0,0,0,0,,,,,0,61,61,43,,,,,,,,,,,,,,,289.34118080022745,290.34807740012184,290.34807740012184,290.4938840002287,291.0008047001902,291.0008047001902,291.14667340018786,ä,0.8568526001181453,correct,,292.0146421000827,292.1882804001216,290.34807740012184,,,,,,,,,,,,4,A,2023-12-06_15h25.42.437,gca_discrimination,2022.2.4,144.02456448023318,
positions.xlsx,stimuli.xlsx,test.xlsx,stimuli/Social1.png,stimuli/Social2.png,stimuli/Nonsocial1.png,stimuli/Nonsocial2.png,stimuli/Test1.png,stimuli/Test2.png,"(-0.7, 0.5)",cs_minus_s,"(0.7, 0.5)",cs_plus_s,0,0,0,0,,,,,0,62,62,13,,,,,,,,,,,,,,,292.1882804001216,293.195162500022,293.195162500022,293.3410045001656,293.84795910003595,293.84795910003595,293.9938382001128,ä,0.3300093999132514,correct,,294.3339946002234,294.4937518001534,293.195162500022,,,,,,,,,,,,4,A,2023-12-06_15h25.42.437,gca_discrimination,2022.2.4,144.02456448023318,
positions.xlsx,stimuli.xlsx,test.xlsx,stimuli/Social1.png,stimuli/Social2.png,stimuli/Nonsocial1.png,stimuli/Nonsocial2.png,stimuli/Test1.png,stimuli/Test2.png,"(-0.7, -0.5)",cs_minus_s,"(-0.7, 0.5)",cs_plus_s,0,0,0,0,,,,,0,63,63,15,,,,,,,,,,,,,,,294.4937518001534,295.5006811001804,295.5006811001804,295.6464493002277,296.15339670004323,296.15339670004323,296.29921950004064,ä,0.34452580008655787,correct,,296.6533744002227,297.57000350020826,295.5006811001804,,,,,,,,,,,,4,A,2023-12-06_15h25.42.437,gca_discrimination,2022.2.4,144.02456448023318,
positions.xlsx,stimuli.xlsx,test.xlsx,stimuli/Social1.png,stimuli/Social2.png,stimuli/Nonsocial1.png,stimuli/Nonsocial2.png,stimuli/Test1.png,stimuli/Test2.png,"(-0.7, -0.5)",cs_plus_s,"(0.7, 0.5)",cs_minus_s,0,0,0,0,,,,,0,64,64,4,,,,,,,,,,,,,,,297.57000350020826,298.5769264001865,298.5769264001865,298.72275530011393,299.2296367001254,299.2296367001254,299.3755263001658,ä,0.3240621997974813,correct,,299.70880220015533,300.3406927001197,298.5769264001865,,,,,,,,,,,,4,A,2023-12-06_15h25.42.437,gca_discrimination,2022.2.4,144.02456448023318,
positions.xlsx,stimuli.xlsx,test.xlsx,stimuli/Social1.png,stimuli/Social2.png,stimuli/Nonsocial1.png,stimuli/Nonsocial2.png,stimuli/Test1.png,stimuli/Test2.png,"(-0.7, -0.5)",cs_minus_s,"(-0.7, 0.5)",cs_minus_s,0,0,0,0,,,,,0,65,65,63,,,,,,,,,,,,,,,300.3406927001197,301.3476356000174,301.3476356000174,301.49345880001783,302.00040480005555,302.00040480005555,302.14621060015634,l,0.4503572001121938,correct,,302.6045082001947,303.1808868001681,301.3476356000174,,,,,,,,,,,,4,A,2023-12-06_15h25.42.437,gca_discrimination,2022.2.4,144.02456448023318,
positions.xlsx,stimuli.xlsx,test.xlsx,stimuli/Social1.png,stimuli/Social2.png,stimuli/Nonsocial1.png,stimuli/Nonsocial2.png,stimuli/Test1.png,stimuli/Test2.png,"(-0.7, 0.5)",cs_plus_ns,"(-0.7, -0.5)",cs_plus_ns,0,0,0,0,,,,,0,66,66,72,,,,,,,,,,,,,,,303.1808868001681,304.1877997000702,304.1877997000702,304.33364220010117,304.84053470008075,304.84053470008075,304.9863652000204,ä,0.5615053998772055,wrong,,305.5558898001909,306.4377110002097,304.1877997000702,,,,,,,,,,,,4,A,2023-12-06_15h25.42.437,gca_discrimination,2022.2.4,144.02456448023318,
positions.xlsx,stimuli.xlsx,test.xlsx,stimuli/Social1.png,stimuli/Social2.png,stimuli/Nonsocial1.png,stimuli/Nonsocial2.png,stimuli/Test1.png,stimuli/Test2.png,"(-0.7, -0.5)",cs_plus_s,"(0.7, -0.5)",cs_plus_s,0,0,0,0,,,,,0,67,67,53,,,,,,,,,,,,,,,306.4377110002097,307.44462290010415,307.44462290010415,307.5904057000298,308.0973791000433,308.0973791000433,308.2431652001105,l,0.960636300034821,correct,,309.2153788001742,309.9792477001902,307.44462290010415,,,,,,,,,,,,4,A,2023-12-06_15h25.42.437,gca_discrimination,2022.2.4,144.02456448023318,
positions.xlsx,stimuli.xlsx,test.xlsx,stimuli/Social1.png,stimuli/Social2.png,stimuli/Nonsocial1.png,stimuli/Nonsocial2.png,stimuli/Test1.png,stimuli/Test2.png,"(-0.7, 0.5)",cs_plus_s,"(-0.7, -0.5)",cs_plus_s,0,0,0,0,,,,,0,68,68,48,,,,,,,,,,,,,,,309.9792477001902,310.9861251001712,310.9861251001712,311.1319495001808,311.6388794002123,311.6388794002123,311.78472170000896,l,0.4039086999837309,correct,,312.2013484002091,313.0832743002102,310.9861251001712,,,,,,,,,,,,4,A,2023-12-06_15h25.42.437,gca_discrimination,2022.2.4,144.02456448023318,
positions.xlsx,stimuli.xlsx,test.xlsx,stimuli/Social1.png,stimuli/Social2.png,stimuli/Nonsocial1.png,stimuli/Nonsocial2.png,stimuli/Test1.png,stimuli/Test2.png,"(0.7, 0.5)",cs_plus_ns,"(-0.7, 0.5)",cs_plus_ns,0,0,0,0,,,,,0,69,69,78,,,,,,,,,,,,,,,313.0832743002102,314.0901708002202,314.0901708002202,314.23595210001804,314.7429198001046,314.7429198001046,314.8887449000031,l,0.8280370000284165,correct,,315.72897740011103,316.0623155001085,314.0901708002202,,,,,,,,,,,,4,A,2023-12-06_15h25.42.437,gca_discrimination,2022.2.4,144.02456448023318,
positions.xlsx,stimuli.xlsx,test.xlsx,stimuli/Social1.png,stimuli/Social2.png,stimuli/Nonsocial1.png,stimuli/Nonsocial2.png,stimuli/Test1.png,stimuli/Test2.png,"(0.7, 0.5)",cs_plus_s,"(-0.7, 0.5)",cs_plus_s,0,0,0,0,,,,,0,70,70,54,,,,,,,,,,,,,,,316.0623155001085,317.0692753000185,317.0692753000185,317.21502920007333,317.72196460003033,317.72196460003033,317.8677619001828,l,0.776286100037396,correct,,318.6525111000519,319.45798610011116,317.0692753000185,,,,,,,,,,,,4,A,2023-12-06_15h25.42.437,gca_discrimination,2022.2.4,144.02456448023318,
positions.xlsx,stimuli.xlsx,test.xlsx,stimuli/Social1.png,stimuli/Social2.png,stimuli/Nonsocial1.png,stimuli/Nonsocial2.png,stimuli/Test1.png,stimuli/Test2.png,"(-0.7, -0.5)",cs_plus_s,"(-0.7, 0.5)",cs_minus_s,0,0,0,0,,,,,0,71,71,3,,,,,,,,,,,,,,,319.45798610011116,320.4649057001807,320.4649057001807,320.61074460018426,321.11765210004523,321.11765210004523,321.2634711000137,ä,0.33333180006593466,correct,,321.6037343000062,321.75654590013437,320.4649057001807,,,,,,,,,,,,4,A,2023-12-06_15h25.42.437,gca_discrimination,2022.2.4,144.02456448023318,
positions.xlsx,stimuli.xlsx,test.xlsx,stimuli/Social1.png,stimuli/Social2.png,stimuli/Nonsocial1.png,stimuli/Nonsocial2.png,stimuli/Test1.png,stimuli/Test2.png,"(-0.7, -0.5)",cs_plus_s,"(0.7, -0.5)",cs_minus_s,0,0,0,0,,,,,0,72,72,5,,,,,,,,,,,,,,,321.75654590013437,322.7634429000318,322.7634429000318,322.9092831001617,323.41618270007893,323.41618270007893,323.56204350013286,ä,0.36885649990290403,correct,,323.9439798002131,324.82585350004956,322.7634429000318,,,,,,,,,,,,4,A,2023-12-06_15h25.42.437,gca_discrimination,2022.2.4,144.02456448023318,
positions.xlsx,stimuli.xlsx,test.xlsx,stimuli/Social1.png,stimuli/Social2.png,stimuli/Nonsocial1.png,stimuli/Nonsocial2.png,stimuli/Test1.png,stimuli/Test2.png,"(-0.7, 0.5)",cs_minus_ns,"(0.7, 0.5)",cs_plus_ns,0,0,0,0,,,,,0,73,73,37,,,,,,,,,,,,,,,324.82585350004956,325.83274700003676,325.83274700003676,325.97857010015287,326.485506700119,326.485506700119,326.6313260002062,ä,0.7077800000552088,correct,,327.34656930016354,328.1728988001123,325.83274700003676,,,,,,,,,,,,4,A,2023-12-06_15h25.42.437,gca_discrimination,2022.2.4,144.02456448023318,
positions.xlsx,stimuli.xlsx,test.xlsx,stimuli/Social1.png,stimuli/Social2.png,stimuli/Nonsocial1.png,stimuli/Nonsocial2.png,stimuli/Test1.png,stimuli/Test2.png,"(-0.7, -0.5)",cs_minus_ns,"(0.7, -0.5)",cs_minus_ns,0,0,0,0,,,,,0,74,74,89,,,,,,,,,,,,,,,328.1728988001123,329.1798655001912,329.1798655001912,329.32564530009404,329.83260449999943,329.83260449999943,329.97840950009413,l,0.40910100005567074,correct,,330.3950426001102,330.7839490000624,329.1798655001912,,,,,,,,,,,,4,A,2023-12-06_15h25.42.437,gca_discrimination,2022.2.4,144.02456448023318,
positions.xlsx,stimuli.xlsx,test.xlsx,stimuli/Social1.png,stimuli/Social2.png,stimuli/Nonsocial1.png,stimuli/Nonsocial2.png,stimuli/Test1.png,stimuli/Test2.png,"(0.7, -0.5)",cs_plus_s,"(-0.7, -0.5)",cs_plus_s,0,0,0,0,,,,,0,75,75,58,,,,,,,,,,,,,,,330.7839490000624,331.79087710008025,331.79087710008025,331.93668600008823,332.4435896000359,332.4435896000359,332.5894254001323,l,0.43857969995588064,correct,,333.0408055000007,333.09633970004506,331.79087710008025,,,,,,,,,,,,4,A,2023-12-06_15h25.42.437,gca_discrimination,2022.2.4,144.02456448023318,
positions.xlsx,stimuli.xlsx,test.xlsx,stimuli/Social1.png,stimuli/Social2.png,stimuli/Nonsocial1.png,stimuli/Nonsocial2.png,stimuli/Test1.png,stimuli/Test2.png,"(0.7, -0.5)",cs_plus_s,"(-0.7, -0.5)",cs_minus_s,0,0,0,0,,,,,0,76,76,10,,,,,,,,,,,,,,,333.09633970004506,334.1032689001877,334.1032689001877,334.2490500002168,334.7560097000096,334.7560097000096,334.90184200019576,ä,0.3090125999879092,correct,,335.22125820000656,335.8253714002203,334.1032689001877,,,,,,,,,,,,4,A,2023-12-06_15h25.42.437,gca_discrimination,2022.2.4,144.02456448023318,
positions.xlsx,stimuli.xlsx,test.xlsx,stimuli/Social1.png,stimuli/Social2.png,stimuli/Nonsocial1.png,stimuli/Nonsocial2.png,stimuli/Test1.png,stimuli/Test2.png,"(0.7, -0.5)",cs_plus_s,"(0.7, 0.5)",cs_plus_s,0,0,0,0,,,,,0,77,77,59,,,,,,,,,,,,,,,335.8253714002203,336.8323408002034,336.8323408002034,336.9781051001046,337.4850561001804,337.4850561001804,337.6308338001836,l,0.492411500075832,correct,,338.13084420002997,338.172465500189,336.8323408002034,,,,,,,,,,,,4,A,2023-12-06_15h25.42.437,gca_discrimination,2022.2.4,144.02456448023318,
positions.xlsx,stimuli.xlsx,test.xlsx,stimuli/Social1.png,stimuli/Social2.png,stimuli/Nonsocial1.png,stimuli/Nonsocial2.png,stimuli/Test1.png,stimuli/Test2.png,"(0.7, 0.5)",cs_minus_ns,"(0.7, -0.5)",cs_minus_ns,0,0,0,0,,,,,0,78,78,92,,,,,,,,,,,,,,,338.172465500189,339.1795225001406,339.1795225001406,339.32525410014205,339.83219900005497,339.83219900005497,339.9780033000279,ä,0.3372262001503259,wrong,,340.32523509999737,341.019641000079,339.1795225001406,,,,,,,,,,,,4,A,2023-12-06_15h25.42.437,gca_discrimination,2022.2.4,144.02456448023318,
positions.xlsx,stimuli.xlsx,test.xlsx,stimuli/Social1.png,stimuli/Social2.png,stimuli/Nonsocial1.png,stimuli/Nonsocial2.png,stimuli/Test1.png,stimuli/Test2.png,"(-0.7, -0.5)",cs_minus_ns,"(-0.7, 0.5)",cs_plus_ns,0,0,0,0,,,,,0,79,79,39,,,,,,,,,,,,,,,341.019641000079,342.02654110011645,342.02654110011645,342.17236060020514,342.6793025000952,342.6793025000952,342.82510770019144,ä,0.5138923001941293,correct,,343.34590640012175,343.8389845001511,342.02654110011645,,,,,,,,,,,,4,A,2023-12-06_15h25.42.437,gca_discrimination,2022.2.4,144.02456448023318,
positions.xlsx,stimuli.xlsx,test.xlsx,stimuli/Social1.png,stimuli/Social2.png,stimuli/Nonsocial1.png,stimuli/Nonsocial2.png,stimuli/Test1.png,stimuli/Test2.png,"(-0.7, 0.5)",cs_plus_ns,"(0.7, 0.5)",cs_plus_ns,0,0,0,0,,,,,0,80,80,73,,,,,,,,,,,,,,,343.8389845001511,344.84587170020677,344.84587170020677,344.9916695000138,345.49862610013224,345.49862610013224,345.6444296000991,l,0.6065794001333416,correct,,346.26247310009785,346.7069301002193,344.84587170020677,,,,,,,,,,,,4,A,2023-12-06_15h25.42.437,gca_discrimination,2022.2.4,144.02456448023318,
positions.xlsx,stimuli.xlsx,test.xlsx,stimuli/Social1.png,stimuli/Social2.png,stimuli/Nonsocial1.png,stimuli/Nonsocial2.png,stimuli/Test1.png,stimuli/Test2.png,"(-0.7, -0.5)",cs_plus_s,"(0.7, 0.5)",cs_plus_s,0,0,0,0,,,,,0,81,81,52,,,,,,,,,,,,,,,346.7069301002193,347.7138163000345,347.7138163000345,347.85970400017686,348.36651500011794,348.36651500011794,348.51236450020224,l,0.37929049995727837,correct,,348.90123610012233,349.5609523002058,347.7138163000345,,,,,,,,,,,,4,A,2023-12-06_15h25.42.437,gca_discrimination,2022.2.4,144.02456448023318,
positions.xlsx,stimuli.xlsx,test.xlsx,stimuli/Social1.png,stimuli/Social2.png,stimuli/Nonsocial1.png,stimuli/Nonsocial2.png,stimuli/Test1.png,stimuli/Test2.png,"(-0.7, 0.5)",cs_minus_s,"(-0.7, -0.5)",cs_minus_s,0,0,0,0,,,,,0,82,82,60,,,,,,,,,,,,,,,349.5609523002058,350.5678577001672,350.5678577001672,350.71367910015397,351.22061300021596,351.22061300021596,351.3664217002224,l,0.22904559993185103,correct,,351.60251290001906,351.8525224002078,350.5678577001672,,,,,,,,,,,,4,A,2023-12-06_15h25.42.437,gca_discrimination,2022.2.4,144.02456448023318,
positions.xlsx,stimuli.xlsx,test.xlsx,stimuli/Social1.png,stimuli/Social2.png,stimuli/Nonsocial1.png,stimuli/Nonsocial2.png,stimuli/Test1.png,stimuli/Test2.png,"(-0.7, -0.5)",cs_minus_s,"(0.7, -0.5)",cs_minus_s,0,0,0,0,,,,,0,83,83,65,,,,,,,,,,,,,,,351.8525224002078,352.8594441001769,352.8594441001769,353.00526500004344,353.5121529002208,353.5121529002208,353.65807580016553,l,0.3298703997861594,correct,,353.99826540006325,354.72045100014657,352.8594441001769,,,,,,,,,,,,4,A,2023-12-06_15h25.42.437,gca_discrimination,2022.2.4,144.02456448023318,
positions.xlsx,stimuli.xlsx,test.xlsx,stimuli/Social1.png,stimuli/Social2.png,stimuli/Nonsocial1.png,stimuli/Nonsocial2.png,stimuli/Test1.png,stimuli/Test2.png,"(-0.7, -0.5)",cs_plus_ns,"(0.7, -0.5)",cs_plus_ns,0,0,0,0,,,,,0,84,84,77,,,,,,,,,,,,,,,354.72045100014657,355.72734090010636,355.72734090010636,355.8732314000372,356.3801086000167,356.3801086000167,356.5259462001268,l,0.6450277001131326,correct,,357.17867190018296,357.9356061001308,355.72734090010636,,,,,,,,,,,,4,A,2023-12-06_15h25.42.437,gca_discrimination,2022.2.4,144.02456448023318,
positions.xlsx,stimuli.xlsx,test.xlsx,stimuli/Social1.png,stimuli/Social2.png,stimuli/Nonsocial1.png,stimuli/Nonsocial2.png,stimuli/Test1.png,stimuli/Test2.png,"(0.7, 0.5)",cs_plus_s,"(-0.7, -0.5)",cs_minus_s,0,0,0,0,,,,,0,85,85,7,,,,,,,,,,,,,,,357.9356061001308,358.9425167001318,358.9425167001318,359.0883545000106,359.59520990005694,359.59520990005694,359.741076100152,ä,0.42229019990190864,correct,,360.17161770001985,360.206354400143,358.9425167001318,,,,,,,,,,,,4,A,2023-12-06_15h25.42.437,gca_discrimination,2022.2.4,144.02456448023318,
positions.xlsx,stimuli.xlsx,test.xlsx,stimuli/Social1.png,stimuli/Social2.png,stimuli/Nonsocial1.png,stimuli/Nonsocial2.png,stimuli/Test1.png,stimuli/Test2.png,"(-0.7, 0.5)",cs_plus_s,"(0.7, 0.5)",cs_minus_s,0,0,0,0,,,,,0,86,86,1,,,,,,,,,,,,,,,360.206354400143,361.2132580000907,361.2132580000907,361.35907160001807,361.8660091001075,361.8660091001075,362.0118021001108,l,0.3434113999828696,wrong,,362.3659733000677,362.7826306000352,361.2132580000907,,,,,,,,,,,,4,A,2023-12-06_15h25.42.437,gca_discrimination,2022.2.4,144.02456448023318,
positions.xlsx,stimuli.xlsx,test.xlsx,stimuli/Social1.png,stimuli/Social2.png,stimuli/Nonsocial1.png,stimuli/Nonsocial2.png,stimuli/Test1.png,stimuli/Test2.png,"(0.7, 0.5)",cs_minus_s,"(0.7, -0.5)",cs_plus_s,0,0,0,0,,,,,0,87,87,20,,,,,,,,,,,,,,,362.7826306000352,363.7895790000912,363.7895790000912,363.9353624000214,364.44227260001935,364.44227260001935,364.5881564000156,l,0.375068899942562,wrong,,364.9700203000102,365.4352898001671,363.7895790000912,,,,,,,,,,,,4,A,2023-12-06_15h25.42.437,gca_discrimination,2022.2.4,144.02456448023318,
positions.xlsx,stimuli.xlsx,test.xlsx,stimuli/Social1.png,stimuli/Social2.png,stimuli/Nonsocial1.png,stimuli/Nonsocial2.png,stimuli/Test1.png,stimuli/Test2.png,"(-0.7, -0.5)",cs_minus_ns,"(-0.7, 0.5)",cs_minus_ns,0,0,0,0,,,,,0,88,88,87,,,,,,,,,,,,,,,365.4352898001671,366.4422132000327,366.4422132000327,366.5879932001699,367.0949731001165,367.0949731001165,367.2407919000834,l,0.5151981001254171,correct,,367.768561600009,368.63653990020975,366.4422132000327,,,,,,,,,,,,4,A,2023-12-06_15h25.42.437,gca_discrimination,2022.2.4,144.02456448023318,
positions.xlsx,stimuli.xlsx,test.xlsx,stimuli/Social1.png,stimuli/Social2.png,stimuli/Nonsocial1.png,stimuli/Nonsocial2.png,stimuli/Test1.png,stimuli/Test2.png,"(0.7, -0.5)",cs_plus_ns,"(-0.7, -0.5)",cs_plus_ns,0,0,0,0,,,,,0,89,89,82,,,,,,,,,,,,,,,368.63653990020975,369.6434878001455,369.6434878001455,369.7892895000987,370.2962314002216,370.2962314002216,370.44203300005756,l,0.40134790004231036,correct,,370.85173860006034,371.60866840020753,369.6434878001455,,,,,,,,,,,,4,A,2023-12-06_15h25.42.437,gca_discrimination,2022.2.4,144.02456448023318,
positions.xlsx,stimuli.xlsx,test.xlsx,stimuli/Social1.png,stimuli/Social2.png,stimuli/Nonsocial1.png,stimuli/Nonsocial2.png,stimuli/Test1.png,stimuli/Test2.png,"(0.7, 0.5)",cs_minus_s,"(0.7, -0.5)",cs_minus_s,0,0,0,0,,,,,0,90,90,68,,,,,,,,,,,,,,,371.60866840020753,372.61557220015675,372.61557220015675,372.7613772000186,373.2683471001219,373.2683471001219,373.41415040008724,l,0.3490166999399662,correct,,373.77526790020056,374.45577270002104,372.61557220015675,,,,,,,,,,,,4,A,2023-12-06_15h25.42.437,gca_discrimination,2022.2.4,144.02456448023318,
positions.xlsx,stimuli.xlsx,test.xlsx,stimuli/Social1.png,stimuli/Social2.png,stimuli/Nonsocial1.png,stimuli/Nonsocial2.png,stimuli/Test1.png,stimuli/Test2.png,"(0.7, -0.5)",cs_minus_s,"(-0.7, -0.5)",cs_minus_s,0,0,0,0,,,,,0,91,91,70,,,,,,,,,,,,,,,374.45577270002104,375.46269830013625,375.46269830013625,375.6085041000042,376.11539980000816,376.11539980000816,376.2612291001715,l,0.2941401998978108,correct,,376.5667958999984,377.1570528000593,375.46269830013625,,,,,,,,,,,,4,A,2023-12-06_15h25.42.437,gca_discrimination,2022.2.4,144.02456448023318,
positions.xlsx,stimuli.xlsx,test.xlsx,stimuli/Social1.png,stimuli/Social2.png,stimuli/Nonsocial1.png,stimuli/Nonsocial2.png,stimuli/Test1.png,stimuli/Test2.png,"(-0.7, 0.5)",cs_minus_s,"(0.7, -0.5)",cs_minus_s,0,0,0,0,,,,,0,92,92,62,,,,,,,,,,,,,,,377.1570528000593,378.1639640000649,378.1639640000649,378.30979860015213,378.81671530008316,378.81671530008316,378.9625315000303,l,0.30566739989444613,correct,,379.27500660018995,379.87222430016845,378.1639640000649,,,,,,,,,,,,4,A,2023-12-06_15h25.42.437,gca_discrimination,2022.2.4,144.02456448023318,
positions.xlsx,stimuli.xlsx,test.xlsx,stimuli/Social1.png,stimuli/Social2.png,stimuli/Nonsocial1.png,stimuli/Nonsocial2.png,stimuli/Test1.png,stimuli/Test2.png,"(-0.7, 0.5)",cs_plus_ns,"(-0.7, -0.5)",cs_minus_ns,0,0,0,0,,,,,0,93,93,24,,,,,,,,,,,,,,,379.87222430016845,380.87917600013316,380.87917600013316,381.0249759000726,381.5318971001543,381.5318971001543,381.67769910022616,ä,0.6133873001672328,correct,,382.3026734001469,382.58732990012504,380.87917600013316,,,,,,,,,,,,4,A,2023-12-06_15h25.42.437,gca_discrimination,2022.2.4,144.02456448023318,
positions.xlsx,stimuli.xlsx,test.xlsx,stimuli/Social1.png,stimuli/Social2.png,stimuli/Nonsocial1.png,stimuli/Nonsocial2.png,stimuli/Test1.png,stimuli/Test2.png,"(0.7, -0.5)",cs_plus_ns,"(-0.7, 0.5)",cs_plus_ns,0,0,0,0,,,,,0,94,94,81,,,,,,,,,,,,,,,382.58732990012504,383.5943629001267,383.5943629001267,383.7401245001238,384.2470447001979,384.2470447001979,384.3928685002029,l,0.38639220013283193,correct,,384.7886548000388,385.6289115000982,383.5943629001267,,,,,,,,,,,,4,A,2023-12-06_15h25.42.437,gca_discrimination,2022.2.4,144.02456448023318,
positions.xlsx,stimuli.xlsx,test.xlsx,stimuli/Social1.png,stimuli/Social2.png,stimuli/Nonsocial1.png,stimuli/Nonsocial2.png,stimuli/Test1.png,stimuli/Test2.png,"(0.7, 0.5)",cs_minus_ns,"(-0.7, -0.5)",cs_minus_ns,0,0,0,0,,,,,0,95,95,91,,,,,,,,,,,,,,,385.6289115000982,386.6358337001875,386.6358337001875,386.78166280011646,387.28857309999876,387.28857309999876,387.4344241002109,l,0.5447287999559194,correct,,387.9899249000009,388.74685590015724,386.6358337001875,,,,,,,,,,,,4,A,2023-12-06_15h25.42.437,gca_discrimination,2022.2.4,144.02456448023318,
