posFile,stimFile,testFile,cs_plus_s,cs_minus_s,cs_plus_ns,cs_minus_ns,test1,test2,position1,trialtype,position2,comptype,blocks.thisRepN,blocks.thisTrialN,blocks.thisN,blocks.thisIndex,learning_trials.thisRepN,learning_trials.thisTrialN,learning_trials.thisN,learning_trials.thisIndex,trials.thisRepN,trials.thisTrialN,trials.thisN,trials.thisIndex,textStart.started,key.started,key.keys,key.rt,correctness,textStartTask.started,participant,group,date,expName,psychopyVersion,frameRate,
positions.xlsx,stimuli.xlsx,test.xlsx,stimuli/Social2.png,stimuli/Social1.png,stimuli/Nonsocial1.png,stimuli/Nonsocial2.png,stimuli/Test1.png,stimuli/Test2.png,"(0.7, 0.5)",test2,"(-0.7, 0.5)",test1,0,0,0,0,0,0,0,13,,,,,11.329724300070666,42.029914700076915,ä,0.8913811000529677,correct,,23,B,2023-12-13_15h19.23.768,gca_discrimination,2022.2.4,143.75623544490506,
positions.xlsx,stimuli.xlsx,test.xlsx,stimuli/Social2.png,stimuli/Social1.png,stimuli/Nonsocial1.png,stimuli/Nonsocial2.png,stimuli/Test1.png,stimuli/Test2.png,"(0.7, -0.5)",test1,"(0.7, 0.5)",test1,0,0,0,0,0,1,1,10,,,,,,47.44635260000359,l,0.5856750999810174,correct,,23,B,2023-12-13_15h19.23.768,gca_discrimination,2022.2.4,143.75623544490506,
positions.xlsx,stimuli.xlsx,test.xlsx,stimuli/Social2.png,stimuli/Social1.png,stimuli/Nonsocial1.png,stimuli/Nonsocial2.png,stimuli/Test1.png,stimuli/Test2.png,"(-0.7, 0.5)",test2,"(-0.7, -0.5)",test2,0,0,0,0,0,2,2,1,,,,,,52.77257940010168,l,0.8675431000301614,correct,,23,B,2023-12-13_15h19.23.768,gca_discrimination,2022.2.4,143.75623544490506,
positions.xlsx,stimuli.xlsx,test.xlsx,stimuli/Social2.png,stimuli/Social1.png,stimuli/Nonsocial1.png,stimuli/Nonsocial2.png,stimuli/Test1.png,stimuli/Test2.png,"(-0.7, -0.5)",test2,"(0.7, 0.5)",test2,0,0,0,0,0,3,3,7,,,,,,57.62653620005585,l,0.724900999921374,correct,,23,B,2023-12-13_15h19.23.768,gca_discrimination,2022.2.4,143.75623544490506,
positions.xlsx,stimuli.xlsx,test.xlsx,stimuli/Social2.png,stimuli/Social1.png,stimuli/Nonsocial1.png,stimuli/Nonsocial2.png,stimuli/Test1.png,stimuli/Test2.png,"(0.7, 0.5)",test2,"(0.7, -0.5)",test1,0,0,0,0,0,4,4,6,,,,,,62.820769200101495,ä,0.498740499955602,correct,,23,B,2023-12-13_15h19.23.768,gca_discrimination,2022.2.4,143.75623544490506,
positions.xlsx,stimuli.xlsx,test.xlsx,stimuli/Social2.png,stimuli/Social1.png,stimuli/Nonsocial1.png,stimuli/Nonsocial2.png,stimuli/Test1.png,stimuli/Test2.png,"(0.7, -0.5)",test1,"(0.7, 0.5)",test2,0,0,0,0,0,5,5,0,,,,,,67.94559500005562,l,0.6860066000372171,wrong,,23,B,2023-12-13_15h19.23.768,gca_discrimination,2022.2.4,143.75623544490506,
positions.xlsx,stimuli.xlsx,test.xlsx,stimuli/Social2.png,stimuli/Social1.png,stimuli/Nonsocial1.png,stimuli/Nonsocial2.png,stimuli/Test1.png,stimuli/Test2.png,"(-0.7, 0.5)",test2,"(0.7, 0.5)",test1,0,0,0,0,0,6,6,3,,,,,,72.61900720000267,ä,0.7325563000049442,correct,,23,B,2023-12-13_15h19.23.768,gca_discrimination,2022.2.4,143.75623544490506,
positions.xlsx,stimuli.xlsx,test.xlsx,stimuli/Social2.png,stimuli/Social1.png,stimuli/Nonsocial1.png,stimuli/Nonsocial2.png,stimuli/Test1.png,stimuli/Test2.png,"(-0.7, 0.5)",test1,"(0.7, -0.5)",test1,0,0,0,0,0,7,7,5,,,,,,77.1952031000983,l,0.6051792999496683,correct,,23,B,2023-12-13_15h19.23.768,gca_discrimination,2022.2.4,143.75623544490506,
positions.xlsx,stimuli.xlsx,test.xlsx,stimuli/Social2.png,stimuli/Social1.png,stimuli/Nonsocial1.png,stimuli/Nonsocial2.png,stimuli/Test1.png,stimuli/Test2.png,"(-0.7, 0.5)",test2,"(0.7, -0.5)",test1,0,0,0,0,0,8,8,12,,,,,,82.29920860007405,ä,0.7492113000480458,correct,,23,B,2023-12-13_15h19.23.768,gca_discrimination,2022.2.4,143.75623544490506,
positions.xlsx,stimuli.xlsx,test.xlsx,stimuli/Social2.png,stimuli/Social1.png,stimuli/Nonsocial1.png,stimuli/Nonsocial2.png,stimuli/Test1.png,stimuli/Test2.png,"(0.7, 0.5)",test1,"(0.7, -0.5)",test2,0,0,0,0,0,9,9,11,,,,,,87.65313860005699,ä,0.5387009000405669,correct,,23,B,2023-12-13_15h19.23.768,gca_discrimination,2022.2.4,143.75623544490506,
positions.xlsx,stimuli.xlsx,test.xlsx,stimuli/Social2.png,stimuli/Social1.png,stimuli/Nonsocial1.png,stimuli/Nonsocial2.png,stimuli/Test1.png,stimuli/Test2.png,"(-0.7, -0.5)",test2,"(0.7, -0.5)",test2,0,0,0,0,0,10,10,9,,,,,,92.15991650009528,l,0.8243573000654578,correct,,23,B,2023-12-13_15h19.23.768,gca_discrimination,2022.2.4,143.75623544490506,
positions.xlsx,stimuli.xlsx,test.xlsx,stimuli/Social2.png,stimuli/Social1.png,stimuli/Nonsocial1.png,stimuli/Nonsocial2.png,stimuli/Test1.png,stimuli/Test2.png,"(0.7, -0.5)",test2,"(-0.7, 0.5)",test1,0,0,0,0,0,11,11,4,,,,,,97.5416521000443,ä,0.5702743999427184,correct,,23,B,2023-12-13_15h19.23.768,gca_discrimination,2022.2.4,143.75623544490506,
positions.xlsx,stimuli.xlsx,test.xlsx,stimuli/Social2.png,stimuli/Social1.png,stimuli/Nonsocial1.png,stimuli/Nonsocial2.png,stimuli/Test1.png,stimuli/Test2.png,"(-0.7, -0.5)",test1,"(0.7, 0.5)",test2,0,0,0,0,0,12,12,8,,,,,,102.78451050003059,ä,0.6149659999646246,correct,,23,B,2023-12-13_15h19.23.768,gca_discrimination,2022.2.4,143.75623544490506,
positions.xlsx,stimuli.xlsx,test.xlsx,stimuli/Social2.png,stimuli/Social1.png,stimuli/Nonsocial1.png,stimuli/Nonsocial2.png,stimuli/Test1.png,stimuli/Test2.png,"(-0.7, -0.5)",test2,"(-0.7, 0.5)",test2,0,0,0,0,0,13,13,2,,,,,,107.64543250005227,l,0.6986465000081807,correct,,23,B,2023-12-13_15h19.23.768,gca_discrimination,2022.2.4,143.75623544490506,
positions.xlsx,stimuli.xlsx,test.xlsx,stimuli/Social2.png,stimuli/Social1.png,stimuli/Nonsocial1.png,stimuli/Nonsocial2.png,stimuli/Test1.png,stimuli/Test2.png,"(-0.7, -0.5)",cs_plus_ns,"(-0.7, 0.5)",cs_minus_ns,0,0,0,0,,,,,0,0,0,27,,123.66566320008133,ä,1.3354139999719337,correct,111.14530160010327,23,B,2023-12-13_15h19.23.768,gca_discrimination,2022.2.4,143.75623544490506,
positions.xlsx,stimuli.xlsx,test.xlsx,stimuli/Social2.png,stimuli/Social1.png,stimuli/Nonsocial1.png,stimuli/Nonsocial2.png,stimuli/Test1.png,stimuli/Test2.png,"(0.7, 0.5)",cs_plus_ns,"(-0.7, -0.5)",cs_plus_ns,0,0,0,0,,,,,0,1,1,79,,127.40161250007804,l,0.6538734000641853,correct,,23,B,2023-12-13_15h19.23.768,gca_discrimination,2022.2.4,143.75623544490506,
positions.xlsx,stimuli.xlsx,test.xlsx,stimuli/Social2.png,stimuli/Social1.png,stimuli/Nonsocial1.png,stimuli/Nonsocial2.png,stimuli/Test1.png,stimuli/Test2.png,"(0.7, 0.5)",cs_plus_s,"(-0.7, -0.5)",cs_minus_s,0,0,0,0,,,,,0,2,2,7,,130.3876354000531,ä,0.7727255000500008,correct,,23,B,2023-12-13_15h19.23.768,gca_discrimination,2022.2.4,143.75623544490506,
positions.xlsx,stimuli.xlsx,test.xlsx,stimuli/Social2.png,stimuli/Social1.png,stimuli/Nonsocial1.png,stimuli/Nonsocial2.png,stimuli/Test1.png,stimuli/Test2.png,"(0.7, -0.5)",cs_minus_ns,"(0.7, 0.5)",cs_minus_ns,0,0,0,0,,,,,0,3,3,95,,132.99857330007944,l,0.9056766000576317,correct,,23,B,2023-12-13_15h19.23.768,gca_discrimination,2022.2.4,143.75623544490506,
positions.xlsx,stimuli.xlsx,test.xlsx,stimuli/Social2.png,stimuli/Social1.png,stimuli/Nonsocial1.png,stimuli/Nonsocial2.png,stimuli/Test1.png,stimuli/Test2.png,"(-0.7, 0.5)",cs_minus_ns,"(0.7, 0.5)",cs_minus_ns,0,0,0,0,,,,,0,4,4,85,,136.04018050001469,None,,no answer,,23,B,2023-12-13_15h19.23.768,gca_discrimination,2022.2.4,143.75623544490506,
positions.xlsx,stimuli.xlsx,test.xlsx,stimuli/Social2.png,stimuli/Social1.png,stimuli/Nonsocial1.png,stimuli/Nonsocial2.png,stimuli/Test1.png,stimuli/Test2.png,"(-0.7, -0.5)",cs_minus_ns,"(0.7, -0.5)",cs_minus_ns,0,0,0,0,,,,,0,5,5,89,,140.2552837000694,l,0.40899110003374517,correct,,23,B,2023-12-13_15h19.23.768,gca_discrimination,2022.2.4,143.75623544490506,
positions.xlsx,stimuli.xlsx,test.xlsx,stimuli/Social2.png,stimuli/Social1.png,stimuli/Nonsocial1.png,stimuli/Nonsocial2.png,stimuli/Test1.png,stimuli/Test2.png,"(-0.7, -0.5)",cs_minus_s,"(-0.7, 0.5)",cs_plus_s,0,0,0,0,,,,,0,6,6,15,,143.39405590004753,ä,0.5176247999770567,correct,,23,B,2023-12-13_15h19.23.768,gca_discrimination,2022.2.4,143.75623544490506,
positions.xlsx,stimuli.xlsx,test.xlsx,stimuli/Social2.png,stimuli/Social1.png,stimuli/Nonsocial1.png,stimuli/Nonsocial2.png,stimuli/Test1.png,stimuli/Test2.png,"(-0.7, 0.5)",cs_minus_ns,"(-0.7, -0.5)",cs_minus_ns,0,0,0,0,,,,,0,7,7,84,,146.34533690009266,l,0.7111378000117838,correct,,23,B,2023-12-13_15h19.23.768,gca_discrimination,2022.2.4,143.75623544490506,
positions.xlsx,stimuli.xlsx,test.xlsx,stimuli/Social2.png,stimuli/Social1.png,stimuli/Nonsocial1.png,stimuli/Nonsocial2.png,stimuli/Test1.png,stimuli/Test2.png,"(-0.7, -0.5)",cs_plus_ns,"(0.7, 0.5)",cs_plus_ns,0,0,0,0,,,,,0,8,8,76,,148.97022960009053,l,0.7346077000256628,correct,,23,B,2023-12-13_15h19.23.768,gca_discrimination,2022.2.4,143.75623544490506,
positions.xlsx,stimuli.xlsx,test.xlsx,stimuli/Social2.png,stimuli/Social1.png,stimuli/Nonsocial1.png,stimuli/Nonsocial2.png,stimuli/Test1.png,stimuli/Test2.png,"(-0.7, 0.5)",cs_plus_s,"(0.7, 0.5)",cs_plus_s,0,0,0,0,,,,,0,9,9,49,,152.19928590010386,l,0.5604490999830887,correct,,23,B,2023-12-13_15h19.23.768,gca_discrimination,2022.2.4,143.75623544490506,
positions.xlsx,stimuli.xlsx,test.xlsx,stimuli/Social2.png,stimuli/Social1.png,stimuli/Nonsocial1.png,stimuli/Nonsocial2.png,stimuli/Test1.png,stimuli/Test2.png,"(0.7, 0.5)",cs_minus_s,"(-0.7, 0.5)",cs_minus_s,0,0,0,0,,,,,0,10,10,66,,154.97001400007866,l,1.7101921000285074,correct,,23,B,2023-12-13_15h19.23.768,gca_discrimination,2022.2.4,143.75623544490506,
positions.xlsx,stimuli.xlsx,test.xlsx,stimuli/Social2.png,stimuli/Social1.png,stimuli/Nonsocial1.png,stimuli/Nonsocial2.png,stimuli/Test1.png,stimuli/Test2.png,"(-0.7, 0.5)",cs_minus_ns,"(0.7, -0.5)",cs_plus_ns,0,0,0,0,,,,,0,11,11,38,,158.72681980009656,ä,0.962043400038965,correct,,23,B,2023-12-13_15h19.23.768,gca_discrimination,2022.2.4,143.75623544490506,
positions.xlsx,stimuli.xlsx,test.xlsx,stimuli/Social2.png,stimuli/Social1.png,stimuli/Nonsocial1.png,stimuli/Nonsocial2.png,stimuli/Test1.png,stimuli/Test2.png,"(-0.7, 0.5)",cs_plus_ns,"(-0.7, -0.5)",cs_plus_ns,0,0,0,0,,,,,0,12,12,72,,162.13639570004307,l,0.8553157999413088,correct,,23,B,2023-12-13_15h19.23.768,gca_discrimination,2022.2.4,143.75623544490506,
positions.xlsx,stimuli.xlsx,test.xlsx,stimuli/Social2.png,stimuli/Social1.png,stimuli/Nonsocial1.png,stimuli/Nonsocial2.png,stimuli/Test1.png,stimuli/Test2.png,"(0.7, 0.5)",cs_plus_s,"(0.7, -0.5)",cs_minus_s,0,0,0,0,,,,,0,13,13,8,,165.3029706000816,ä,0.6005567000247538,correct,,23,B,2023-12-13_15h19.23.768,gca_discrimination,2022.2.4,143.75623544490506,
positions.xlsx,stimuli.xlsx,test.xlsx,stimuli/Social2.png,stimuli/Social1.png,stimuli/Nonsocial1.png,stimuli/Nonsocial2.png,stimuli/Test1.png,stimuli/Test2.png,"(0.7, -0.5)",cs_minus_ns,"(-0.7, -0.5)",cs_minus_ns,0,0,0,0,,,,,0,14,14,94,,167.9208727000514,l,0.535613700048998,correct,,23,B,2023-12-13_15h19.23.768,gca_discrimination,2022.2.4,143.75623544490506,
positions.xlsx,stimuli.xlsx,test.xlsx,stimuli/Social2.png,stimuli/Social1.png,stimuli/Nonsocial1.png,stimuli/Nonsocial2.png,stimuli/Test1.png,stimuli/Test2.png,"(-0.7, -0.5)",cs_minus_ns,"(0.7, 0.5)",cs_minus_ns,0,0,0,0,,,,,0,15,15,88,,170.8166166000301,l,0.48728030000347644,correct,,23,B,2023-12-13_15h19.23.768,gca_discrimination,2022.2.4,143.75623544490506,
positions.xlsx,stimuli.xlsx,test.xlsx,stimuli/Social2.png,stimuli/Social1.png,stimuli/Nonsocial1.png,stimuli/Nonsocial2.png,stimuli/Test1.png,stimuli/Test2.png,"(0.7, 0.5)",cs_plus_ns,"(-0.7, 0.5)",cs_plus_ns,0,0,0,0,,,,,0,16,16,78,,173.65680880006403,l,0.8483283000532538,correct,,23,B,2023-12-13_15h19.23.768,gca_discrimination,2022.2.4,143.75623544490506,
positions.xlsx,stimuli.xlsx,test.xlsx,stimuli/Social2.png,stimuli/Social1.png,stimuli/Nonsocial1.png,stimuli/Nonsocial2.png,stimuli/Test1.png,stimuli/Test2.png,"(-0.7, 0.5)",cs_plus_ns,"(0.7, -0.5)",cs_plus_ns,0,0,0,0,,,,,0,17,17,74,,176.39279680000618,l,0.42335289996117353,correct,,23,B,2023-12-13_15h19.23.768,gca_discrimination,2022.2.4,143.75623544490506,
positions.xlsx,stimuli.xlsx,test.xlsx,stimuli/Social2.png,stimuli/Social1.png,stimuli/Nonsocial1.png,stimuli/Nonsocial2.png,stimuli/Test1.png,stimuli/Test2.png,"(0.7, 0.5)",cs_plus_ns,"(-0.7, -0.5)",cs_minus_ns,0,0,0,0,,,,,0,18,18,31,,178.91354330000468,ä,0.5744416000088677,correct,,23,B,2023-12-13_15h19.23.768,gca_discrimination,2022.2.4,143.75623544490506,
positions.xlsx,stimuli.xlsx,test.xlsx,stimuli/Social2.png,stimuli/Social1.png,stimuli/Nonsocial1.png,stimuli/Nonsocial2.png,stimuli/Test1.png,stimuli/Test2.png,"(0.7, -0.5)",cs_minus_s,"(0.7, 0.5)",cs_minus_s,0,0,0,0,,,,,0,19,19,71,,181.83702460001223,l,0.6437426999909803,correct,,23,B,2023-12-13_15h19.23.768,gca_discrimination,2022.2.4,143.75623544490506,
positions.xlsx,stimuli.xlsx,test.xlsx,stimuli/Social2.png,stimuli/Social1.png,stimuli/Nonsocial1.png,stimuli/Nonsocial2.png,stimuli/Test1.png,stimuli/Test2.png,"(-0.7, 0.5)",cs_plus_s,"(-0.7, -0.5)",cs_plus_s,0,0,0,0,,,,,0,20,20,48,,185.211906200042,l,0.8520659999921918,correct,,23,B,2023-12-13_15h19.23.768,gca_discrimination,2022.2.4,143.75623544490506,
positions.xlsx,stimuli.xlsx,test.xlsx,stimuli/Social2.png,stimuli/Social1.png,stimuli/Nonsocial1.png,stimuli/Nonsocial2.png,stimuli/Test1.png,stimuli/Test2.png,"(0.7, 0.5)",cs_plus_ns,"(0.7, -0.5)",cs_plus_ns,0,0,0,0,,,,,0,21,21,80,,188.67706500005443,l,0.8361853000242263,correct,,23,B,2023-12-13_15h19.23.768,gca_discrimination,2022.2.4,143.75623544490506,
positions.xlsx,stimuli.xlsx,test.xlsx,stimuli/Social2.png,stimuli/Social1.png,stimuli/Nonsocial1.png,stimuli/Nonsocial2.png,stimuli/Test1.png,stimuli/Test2.png,"(-0.7, 0.5)",cs_minus_s,"(0.7, -0.5)",cs_plus_s,0,0,0,0,,,,,0,22,22,14,,192.03111360000912,ä,0.609129499993287,correct,,23,B,2023-12-13_15h19.23.768,gca_discrimination,2022.2.4,143.75623544490506,
positions.xlsx,stimuli.xlsx,test.xlsx,stimuli/Social2.png,stimuli/Social1.png,stimuli/Nonsocial1.png,stimuli/Nonsocial2.png,stimuli/Test1.png,stimuli/Test2.png,"(-0.7, -0.5)",cs_minus_s,"(0.7, -0.5)",cs_minus_s,0,0,0,0,,,,,0,23,23,65,,195.3851200999925,l,0.5670499999541789,correct,,23,B,2023-12-13_15h19.23.768,gca_discrimination,2022.2.4,143.75623544490506,
positions.xlsx,stimuli.xlsx,test.xlsx,stimuli/Social2.png,stimuli/Social1.png,stimuli/Nonsocial1.png,stimuli/Nonsocial2.png,stimuli/Test1.png,stimuli/Test2.png,"(0.7, 0.5)",cs_plus_s,"(0.7, -0.5)",cs_plus_s,0,0,0,0,,,,,0,24,24,56,,198.21141370001715,l,0.6374381999485195,correct,,23,B,2023-12-13_15h19.23.768,gca_discrimination,2022.2.4,143.75623544490506,
positions.xlsx,stimuli.xlsx,test.xlsx,stimuli/Social2.png,stimuli/Social1.png,stimuli/Nonsocial1.png,stimuli/Nonsocial2.png,stimuli/Test1.png,stimuli/Test2.png,"(-0.7, 0.5)",cs_plus_ns,"(0.7, 0.5)",cs_minus_ns,0,0,0,0,,,,,0,25,25,25,,201.05851350002922,ä,0.5987790999934077,correct,,23,B,2023-12-13_15h19.23.768,gca_discrimination,2022.2.4,143.75623544490506,
positions.xlsx,stimuli.xlsx,test.xlsx,stimuli/Social2.png,stimuli/Social1.png,stimuli/Nonsocial1.png,stimuli/Nonsocial2.png,stimuli/Test1.png,stimuli/Test2.png,"(-0.7, -0.5)",cs_minus_ns,"(0.7, 0.5)",cs_plus_ns,0,0,0,0,,,,,0,26,26,40,,203.99587960005738,ä,0.5876581000629812,correct,,23,B,2023-12-13_15h19.23.768,gca_discrimination,2022.2.4,143.75623544490506,
positions.xlsx,stimuli.xlsx,test.xlsx,stimuli/Social2.png,stimuli/Social1.png,stimuli/Nonsocial1.png,stimuli/Nonsocial2.png,stimuli/Test1.png,stimuli/Test2.png,"(0.7, 0.5)",cs_plus_s,"(-0.7, -0.5)",cs_plus_s,0,0,0,0,,,,,0,27,27,55,,207.2110516000539,l,0.6610094999196008,correct,,23,B,2023-12-13_15h19.23.768,gca_discrimination,2022.2.4,143.75623544490506,
positions.xlsx,stimuli.xlsx,test.xlsx,stimuli/Social2.png,stimuli/Social1.png,stimuli/Nonsocial1.png,stimuli/Nonsocial2.png,stimuli/Test1.png,stimuli/Test2.png,"(0.7, -0.5)",cs_minus_s,"(-0.7, -0.5)",cs_plus_s,0,0,0,0,,,,,0,28,28,22,,210.5025930000702,ä,0.6027515000896528,correct,,23,B,2023-12-13_15h19.23.768,gca_discrimination,2022.2.4,143.75623544490506,
positions.xlsx,stimuli.xlsx,test.xlsx,stimuli/Social2.png,stimuli/Social1.png,stimuli/Nonsocial1.png,stimuli/Nonsocial2.png,stimuli/Test1.png,stimuli/Test2.png,"(0.7, -0.5)",cs_plus_ns,"(-0.7, -0.5)",cs_minus_ns,0,0,0,0,,,,,0,29,29,34,,213.66913729999214,ä,0.538696900010109,correct,,23,B,2023-12-13_15h19.23.768,gca_discrimination,2022.2.4,143.75623544490506,
positions.xlsx,stimuli.xlsx,test.xlsx,stimuli/Social2.png,stimuli/Social1.png,stimuli/Nonsocial1.png,stimuli/Nonsocial2.png,stimuli/Test1.png,stimuli/Test2.png,"(0.7, -0.5)",cs_plus_ns,"(0.7, 0.5)",cs_plus_ns,0,0,0,0,,,,,0,30,30,83,,216.32877230003942,l,0.735134799964726,correct,,23,B,2023-12-13_15h19.23.768,gca_discrimination,2022.2.4,143.75623544490506,
positions.xlsx,stimuli.xlsx,test.xlsx,stimuli/Social2.png,stimuli/Social1.png,stimuli/Nonsocial1.png,stimuli/Nonsocial2.png,stimuli/Test1.png,stimuli/Test2.png,"(-0.7, -0.5)",cs_minus_ns,"(0.7, -0.5)",cs_plus_ns,0,0,0,0,,,,,0,31,31,41,,219.2661589999916,ä,0.49346350005362183,correct,,23,B,2023-12-13_15h19.23.768,gca_discrimination,2022.2.4,143.75623544490506,
positions.xlsx,stimuli.xlsx,test.xlsx,stimuli/Social2.png,stimuli/Social1.png,stimuli/Nonsocial1.png,stimuli/Nonsocial2.png,stimuli/Test1.png,stimuli/Test2.png,"(-0.7, -0.5)",cs_minus_ns,"(-0.7, 0.5)",cs_minus_ns,0,0,0,0,,,,,0,32,32,87,,221.75910710007884,l,0.6644758000038564,correct,,23,B,2023-12-13_15h19.23.768,gca_discrimination,2022.2.4,143.75623544490506,
positions.xlsx,stimuli.xlsx,test.xlsx,stimuli/Social2.png,stimuli/Social1.png,stimuli/Nonsocial1.png,stimuli/Nonsocial2.png,stimuli/Test1.png,stimuli/Test2.png,"(0.7, 0.5)",cs_minus_s,"(-0.7, 0.5)",cs_plus_s,0,0,0,0,,,,,0,33,33,18,,224.55762010009494,ä,0.577899600029923,correct,,23,B,2023-12-13_15h19.23.768,gca_discrimination,2022.2.4,143.75623544490506,
positions.xlsx,stimuli.xlsx,test.xlsx,stimuli/Social2.png,stimuli/Social1.png,stimuli/Nonsocial1.png,stimuli/Nonsocial2.png,stimuli/Test1.png,stimuli/Test2.png,"(0.7, -0.5)",cs_plus_s,"(-0.7, 0.5)",cs_minus_s,0,0,0,0,,,,,0,34,34,9,,227.0575458999956,ä,0.6235542000504211,correct,,23,B,2023-12-13_15h19.23.768,gca_discrimination,2022.2.4,143.75623544490506,
positions.xlsx,stimuli.xlsx,test.xlsx,stimuli/Social2.png,stimuli/Social1.png,stimuli/Nonsocial1.png,stimuli/Nonsocial2.png,stimuli/Test1.png,stimuli/Test2.png,"(-0.7, 0.5)",cs_minus_s,"(0.7, -0.5)",cs_minus_s,0,0,0,0,,,,,0,35,35,62,,229.83519450004678,l,0.5089907000074163,correct,,23,B,2023-12-13_15h19.23.768,gca_discrimination,2022.2.4,143.75623544490506,
positions.xlsx,stimuli.xlsx,test.xlsx,stimuli/Social2.png,stimuli/Social1.png,stimuli/Nonsocial1.png,stimuli/Nonsocial2.png,stimuli/Test1.png,stimuli/Test2.png,"(0.7, -0.5)",cs_minus_ns,"(-0.7, 0.5)",cs_minus_ns,0,0,0,0,,,,,0,36,36,93,,233.14755960006732,l,0.692035400075838,correct,,23,B,2023-12-13_15h19.23.768,gca_discrimination,2022.2.4,143.75623544490506,
positions.xlsx,stimuli.xlsx,test.xlsx,stimuli/Social2.png,stimuli/Social1.png,stimuli/Nonsocial1.png,stimuli/Nonsocial2.png,stimuli/Test1.png,stimuli/Test2.png,"(0.7, -0.5)",cs_plus_s,"(-0.7, -0.5)",cs_minus_s,0,0,0,0,,,,,0,37,37,10,,236.64741770003457,ä,0.5281578999711201,correct,,23,B,2023-12-13_15h19.23.768,gca_discrimination,2022.2.4,143.75623544490506,
positions.xlsx,stimuli.xlsx,test.xlsx,stimuli/Social2.png,stimuli/Social1.png,stimuli/Nonsocial1.png,stimuli/Nonsocial2.png,stimuli/Test1.png,stimuli/Test2.png,"(-0.7, -0.5)",cs_plus_s,"(0.7, 0.5)",cs_minus_s,0,0,0,0,,,,,0,38,38,4,,239.86256969999522,ä,0.6490257999394089,correct,,23,B,2023-12-13_15h19.23.768,gca_discrimination,2022.2.4,143.75623544490506,
positions.xlsx,stimuli.xlsx,test.xlsx,stimuli/Social2.png,stimuli/Social1.png,stimuli/Nonsocial1.png,stimuli/Nonsocial2.png,stimuli/Test1.png,stimuli/Test2.png,"(-0.7, 0.5)",cs_minus_s,"(0.7, 0.5)",cs_plus_s,0,0,0,0,,,,,0,39,39,13,,243.2790992000373,ä,0.5846529999980703,correct,,23,B,2023-12-13_15h19.23.768,gca_discrimination,2022.2.4,143.75623544490506,
positions.xlsx,stimuli.xlsx,test.xlsx,stimuli/Social2.png,stimuli/Social1.png,stimuli/Nonsocial1.png,stimuli/Nonsocial2.png,stimuli/Test1.png,stimuli/Test2.png,"(0.7, 0.5)",cs_plus_ns,"(0.7, -0.5)",cs_minus_ns,0,0,0,0,,,,,0,40,40,32,,246.6747991000302,ä,0.5660132999764755,correct,,23,B,2023-12-13_15h19.23.768,gca_discrimination,2022.2.4,143.75623544490506,
positions.xlsx,stimuli.xlsx,test.xlsx,stimuli/Social2.png,stimuli/Social1.png,stimuli/Nonsocial1.png,stimuli/Nonsocial2.png,stimuli/Test1.png,stimuli/Test2.png,"(0.7, -0.5)",cs_plus_s,"(0.7, 0.5)",cs_minus_s,0,0,0,0,,,,,0,41,41,11,,249.36221180006396,ä,0.5020749000832438,correct,,23,B,2023-12-13_15h19.23.768,gca_discrimination,2022.2.4,143.75623544490506,
positions.xlsx,stimuli.xlsx,test.xlsx,stimuli/Social2.png,stimuli/Social1.png,stimuli/Nonsocial1.png,stimuli/Nonsocial2.png,stimuli/Test1.png,stimuli/Test2.png,"(0.7, 0.5)",cs_plus_s,"(-0.7, 0.5)",cs_plus_s,0,0,0,0,,,,,0,42,42,54,,251.7093368000351,l,0.6586034999927506,correct,,23,B,2023-12-13_15h19.23.768,gca_discrimination,2022.2.4,143.75623544490506,
positions.xlsx,stimuli.xlsx,test.xlsx,stimuli/Social2.png,stimuli/Social1.png,stimuli/Nonsocial1.png,stimuli/Nonsocial2.png,stimuli/Test1.png,stimuli/Test2.png,"(-0.7, 0.5)",cs_minus_s,"(0.7, 0.5)",cs_minus_s,0,0,0,0,,,,,0,43,43,61,,255.04251010005828,l,0.8700179000152275,correct,,23,B,2023-12-13_15h19.23.768,gca_discrimination,2022.2.4,143.75623544490506,
positions.xlsx,stimuli.xlsx,test.xlsx,stimuli/Social2.png,stimuli/Social1.png,stimuli/Nonsocial1.png,stimuli/Nonsocial2.png,stimuli/Test1.png,stimuli/Test2.png,"(0.7, 0.5)",cs_minus_s,"(0.7, -0.5)",cs_plus_s,0,0,0,0,,,,,0,44,44,20,,257.93130860000383,ä,0.5808292999863625,correct,,23,B,2023-12-13_15h19.23.768,gca_discrimination,2022.2.4,143.75623544490506,
positions.xlsx,stimuli.xlsx,test.xlsx,stimuli/Social2.png,stimuli/Social1.png,stimuli/Nonsocial1.png,stimuli/Nonsocial2.png,stimuli/Test1.png,stimuli/Test2.png,"(-0.7, -0.5)",cs_plus_s,"(0.7, -0.5)",cs_plus_s,0,0,0,0,,,,,0,45,45,53,,260.99369470006786,l,0.9744943000841886,correct,,23,B,2023-12-13_15h19.23.768,gca_discrimination,2022.2.4,143.75623544490506,
positions.xlsx,stimuli.xlsx,test.xlsx,stimuli/Social2.png,stimuli/Social1.png,stimuli/Nonsocial1.png,stimuli/Nonsocial2.png,stimuli/Test1.png,stimuli/Test2.png,"(-0.7, -0.5)",cs_plus_s,"(-0.7, 0.5)",cs_minus_s,0,0,0,0,,,,,0,46,46,3,,264.36162070010323,ä,0.5899991999613121,correct,,23,B,2023-12-13_15h19.23.768,gca_discrimination,2022.2.4,143.75623544490506,
positions.xlsx,stimuli.xlsx,test.xlsx,stimuli/Social2.png,stimuli/Social1.png,stimuli/Nonsocial1.png,stimuli/Nonsocial2.png,stimuli/Test1.png,stimuli/Test2.png,"(0.7, 0.5)",cs_minus_ns,"(-0.7, 0.5)",cs_plus_ns,0,0,0,0,,,,,0,47,47,42,,267.1809610000346,ä,0.5946649999823421,correct,,23,B,2023-12-13_15h19.23.768,gca_discrimination,2022.2.4,143.75623544490506,
positions.xlsx,stimuli.xlsx,test.xlsx,stimuli/Social2.png,stimuli/Social1.png,stimuli/Nonsocial1.png,stimuli/Nonsocial2.png,stimuli/Test1.png,stimuli/Test2.png,"(-0.7, 0.5)",cs_plus_s,"(0.7, -0.5)",cs_plus_s,0,0,0,0,,,,,0,48,48,50,,269.8683525000233,l,0.5875349999405444,correct,,23,B,2023-12-13_15h19.23.768,gca_discrimination,2022.2.4,143.75623544490506,
positions.xlsx,stimuli.xlsx,test.xlsx,stimuli/Social2.png,stimuli/Social1.png,stimuli/Nonsocial1.png,stimuli/Nonsocial2.png,stimuli/Test1.png,stimuli/Test2.png,"(-0.7, -0.5)",cs_minus_s,"(0.7, -0.5)",cs_plus_s,0,0,0,0,,,,,0,49,49,17,,272.4585314000724,ä,0.5417608000570908,correct,,23,B,2023-12-13_15h19.23.768,gca_discrimination,2022.2.4,143.75623544490506,
positions.xlsx,stimuli.xlsx,test.xlsx,stimuli/Social2.png,stimuli/Social1.png,stimuli/Nonsocial1.png,stimuli/Nonsocial2.png,stimuli/Test1.png,stimuli/Test2.png,"(0.7, -0.5)",cs_plus_s,"(-0.7, -0.5)",cs_plus_s,0,0,0,0,,,,,0,50,50,58,,274.84732910001185,l,0.5363787999376655,correct,,23,B,2023-12-13_15h19.23.768,gca_discrimination,2022.2.4,143.75623544490506,
positions.xlsx,stimuli.xlsx,test.xlsx,stimuli/Social2.png,stimuli/Social1.png,stimuli/Nonsocial1.png,stimuli/Nonsocial2.png,stimuli/Test1.png,stimuli/Test2.png,"(-0.7, 0.5)",cs_plus_s,"(-0.7, -0.5)",cs_minus_s,0,0,0,0,,,,,0,51,51,0,,277.583330100053,ä,0.4809463999699801,correct,,23,B,2023-12-13_15h19.23.768,gca_discrimination,2022.2.4,143.75623544490506,
positions.xlsx,stimuli.xlsx,test.xlsx,stimuli/Social2.png,stimuli/Social1.png,stimuli/Nonsocial1.png,stimuli/Nonsocial2.png,stimuli/Test1.png,stimuli/Test2.png,"(0.7, -0.5)",cs_plus_s,"(-0.7, 0.5)",cs_plus_s,0,0,0,0,,,,,0,52,52,57,,279.9721711000893,l,0.5240099000511691,correct,,23,B,2023-12-13_15h19.23.768,gca_discrimination,2022.2.4,143.75623544490506,
positions.xlsx,stimuli.xlsx,test.xlsx,stimuli/Social2.png,stimuli/Social1.png,stimuli/Nonsocial1.png,stimuli/Nonsocial2.png,stimuli/Test1.png,stimuli/Test2.png,"(0.7, -0.5)",cs_minus_ns,"(-0.7, -0.5)",cs_plus_ns,0,0,0,0,,,,,0,53,53,46,,282.3887278001057,ä,0.5389259000075981,correct,,23,B,2023-12-13_15h19.23.768,gca_discrimination,2022.2.4,143.75623544490506,
positions.xlsx,stimuli.xlsx,test.xlsx,stimuli/Social2.png,stimuli/Social1.png,stimuli/Nonsocial1.png,stimuli/Nonsocial2.png,stimuli/Test1.png,stimuli/Test2.png,"(0.7, 0.5)",cs_minus_ns,"(-0.7, -0.5)",cs_plus_ns,0,0,0,0,,,,,0,54,54,43,,285.46497020008974,ä,0.6072428000625223,correct,,23,B,2023-12-13_15h19.23.768,gca_discrimination,2022.2.4,143.75623544490506,
positions.xlsx,stimuli.xlsx,test.xlsx,stimuli/Social2.png,stimuli/Social1.png,stimuli/Nonsocial1.png,stimuli/Nonsocial2.png,stimuli/Test1.png,stimuli/Test2.png,"(-0.7, -0.5)",cs_minus_s,"(0.7, 0.5)",cs_plus_s,0,0,0,0,,,,,0,55,55,16,,288.65926660003606,ä,0.5083430999657139,correct,,23,B,2023-12-13_15h19.23.768,gca_discrimination,2022.2.4,143.75623544490506,
positions.xlsx,stimuli.xlsx,test.xlsx,stimuli/Social2.png,stimuli/Social1.png,stimuli/Nonsocial1.png,stimuli/Nonsocial2.png,stimuli/Test1.png,stimuli/Test2.png,"(0.7, 0.5)",cs_plus_s,"(-0.7, 0.5)",cs_minus_s,0,0,0,0,,,,,0,56,56,6,,291.15915900003165,ä,0.5140453999629244,correct,,23,B,2023-12-13_15h19.23.768,gca_discrimination,2022.2.4,143.75623544490506,
positions.xlsx,stimuli.xlsx,test.xlsx,stimuli/Social2.png,stimuli/Social1.png,stimuli/Nonsocial1.png,stimuli/Nonsocial2.png,stimuli/Test1.png,stimuli/Test2.png,"(0.7, 0.5)",cs_minus_ns,"(-0.7, 0.5)",cs_minus_ns,0,0,0,0,,,,,0,57,57,90,,294.47153530002106,l,0.5849352999357507,correct,,23,B,2023-12-13_15h19.23.768,gca_discrimination,2022.2.4,143.75623544490506,
positions.xlsx,stimuli.xlsx,test.xlsx,stimuli/Social2.png,stimuli/Social1.png,stimuli/Nonsocial1.png,stimuli/Nonsocial2.png,stimuli/Test1.png,stimuli/Test2.png,"(-0.7, -0.5)",cs_minus_s,"(0.7, 0.5)",cs_minus_s,0,0,0,0,,,,,0,58,58,64,,297.346452100086,l,0.5571347000077367,correct,,23,B,2023-12-13_15h19.23.768,gca_discrimination,2022.2.4,143.75623544490506,
positions.xlsx,stimuli.xlsx,test.xlsx,stimuli/Social2.png,stimuli/Social1.png,stimuli/Nonsocial1.png,stimuli/Nonsocial2.png,stimuli/Test1.png,stimuli/Test2.png,"(-0.7, -0.5)",cs_plus_ns,"(0.7, 0.5)",cs_minus_ns,0,0,0,0,,,,,0,59,59,28,,299.84636790002696,ä,0.45002109999768436,correct,,23,B,2023-12-13_15h19.23.768,gca_discrimination,2022.2.4,143.75623544490506,
positions.xlsx,stimuli.xlsx,test.xlsx,stimuli/Social2.png,stimuli/Social1.png,stimuli/Nonsocial1.png,stimuli/Nonsocial2.png,stimuli/Test1.png,stimuli/Test2.png,"(-0.7, 0.5)",cs_minus_s,"(-0.7, -0.5)",cs_plus_s,0,0,0,0,,,,,0,60,60,12,,302.73514480004087,ä,0.5448562999954447,correct,,23,B,2023-12-13_15h19.23.768,gca_discrimination,2022.2.4,143.75623544490506,
positions.xlsx,stimuli.xlsx,test.xlsx,stimuli/Social2.png,stimuli/Social1.png,stimuli/Nonsocial1.png,stimuli/Nonsocial2.png,stimuli/Test1.png,stimuli/Test2.png,"(0.7, 0.5)",cs_minus_ns,"(-0.7, -0.5)",cs_minus_ns,0,0,0,0,,,,,0,61,61,91,,305.26977150002494,l,0.49840699997730553,correct,,23,B,2023-12-13_15h19.23.768,gca_discrimination,2022.2.4,143.75623544490506,
positions.xlsx,stimuli.xlsx,test.xlsx,stimuli/Social2.png,stimuli/Social1.png,stimuli/Nonsocial1.png,stimuli/Nonsocial2.png,stimuli/Test1.png,stimuli/Test2.png,"(0.7, 0.5)",cs_minus_s,"(-0.7, -0.5)",cs_plus_s,0,0,0,0,,,,,0,62,62,19,,307.93632630002685,ä,0.5034963999642059,correct,,23,B,2023-12-13_15h19.23.768,gca_discrimination,2022.2.4,143.75623544490506,
positions.xlsx,stimuli.xlsx,test.xlsx,stimuli/Social2.png,stimuli/Social1.png,stimuli/Nonsocial1.png,stimuli/Nonsocial2.png,stimuli/Test1.png,stimuli/Test2.png,"(0.7, -0.5)",cs_plus_ns,"(-0.7, 0.5)",cs_minus_ns,0,0,0,0,,,,,0,63,63,33,,311.16535550006665,ä,0.44320320000406355,correct,,23,B,2023-12-13_15h19.23.768,gca_discrimination,2022.2.4,143.75623544490506,
positions.xlsx,stimuli.xlsx,test.xlsx,stimuli/Social2.png,stimuli/Social1.png,stimuli/Nonsocial1.png,stimuli/Nonsocial2.png,stimuli/Test1.png,stimuli/Test2.png,"(-0.7, -0.5)",cs_plus_ns,"(0.7, -0.5)",cs_minus_ns,0,0,0,0,,,,,0,64,64,29,,314.22083630005363,ä,0.6032610000111163,correct,,23,B,2023-12-13_15h19.23.768,gca_discrimination,2022.2.4,143.75623544490506,
positions.xlsx,stimuli.xlsx,test.xlsx,stimuli/Social2.png,stimuli/Social1.png,stimuli/Nonsocial1.png,stimuli/Nonsocial2.png,stimuli/Test1.png,stimuli/Test2.png,"(0.7, -0.5)",cs_plus_ns,"(0.7, 0.5)",cs_minus_ns,0,0,0,0,,,,,0,65,65,35,,317.4845375000732,l,0.7641076000872999,wrong,,23,B,2023-12-13_15h19.23.768,gca_discrimination,2022.2.4,143.75623544490506,
positions.xlsx,stimuli.xlsx,test.xlsx,stimuli/Social2.png,stimuli/Social1.png,stimuli/Nonsocial1.png,stimuli/Nonsocial2.png,stimuli/Test1.png,stimuli/Test2.png,"(-0.7, -0.5)",cs_plus_ns,"(-0.7, 0.5)",cs_plus_ns,0,0,0,0,,,,,0,66,66,75,,321.0608199000126,l,0.44317029998637736,correct,,23,B,2023-12-13_15h19.23.768,gca_discrimination,2022.2.4,143.75623544490506,
positions.xlsx,stimuli.xlsx,test.xlsx,stimuli/Social2.png,stimuli/Social1.png,stimuli/Nonsocial1.png,stimuli/Nonsocial2.png,stimuli/Test1.png,stimuli/Test2.png,"(0.7, 0.5)",cs_minus_s,"(-0.7, -0.5)",cs_minus_s,0,0,0,0,,,,,0,67,67,67,,324.0121187000768,l,0.5479192000348121,correct,,23,B,2023-12-13_15h19.23.768,gca_discrimination,2022.2.4,143.75623544490506,
positions.xlsx,stimuli.xlsx,test.xlsx,stimuli/Social2.png,stimuli/Social1.png,stimuli/Nonsocial1.png,stimuli/Nonsocial2.png,stimuli/Test1.png,stimuli/Test2.png,"(-0.7, 0.5)",cs_minus_s,"(-0.7, -0.5)",cs_minus_s,0,0,0,0,,,,,0,68,68,60,,327.34530740010086,l,0.45502350002061576,correct,,23,B,2023-12-13_15h19.23.768,gca_discrimination,2022.2.4,143.75623544490506,
positions.xlsx,stimuli.xlsx,test.xlsx,stimuli/Social2.png,stimuli/Social1.png,stimuli/Nonsocial1.png,stimuli/Nonsocial2.png,stimuli/Test1.png,stimuli/Test2.png,"(0.7, -0.5)",cs_minus_s,"(-0.7, 0.5)",cs_minus_s,0,0,0,0,,,,,0,69,69,69,,329.7480329000391,l,0.4995389999821782,correct,,23,B,2023-12-13_15h19.23.768,gca_discrimination,2022.2.4,143.75623544490506,
positions.xlsx,stimuli.xlsx,test.xlsx,stimuli/Social2.png,stimuli/Social1.png,stimuli/Nonsocial1.png,stimuli/Nonsocial2.png,stimuli/Test1.png,stimuli/Test2.png,"(0.7, 0.5)",cs_minus_s,"(0.7, -0.5)",cs_minus_s,0,0,0,0,,,,,0,70,70,68,,333.0325992000289,l,0.46479379991069436,correct,,23,B,2023-12-13_15h19.23.768,gca_discrimination,2022.2.4,143.75623544490506,
positions.xlsx,stimuli.xlsx,test.xlsx,stimuli/Social2.png,stimuli/Social1.png,stimuli/Nonsocial1.png,stimuli/Nonsocial2.png,stimuli/Test1.png,stimuli/Test2.png,"(-0.7, 0.5)",cs_plus_s,"(0.7, 0.5)",cs_minus_s,0,0,0,0,,,,,0,71,71,1,,336.24080190004315,ä,0.5915898999664932,correct,,23,B,2023-12-13_15h19.23.768,gca_discrimination,2022.2.4,143.75623544490506,
positions.xlsx,stimuli.xlsx,test.xlsx,stimuli/Social2.png,stimuli/Social1.png,stimuli/Nonsocial1.png,stimuli/Nonsocial2.png,stimuli/Test1.png,stimuli/Test2.png,"(-0.7, -0.5)",cs_plus_s,"(0.7, 0.5)",cs_plus_s,0,0,0,0,,,,,0,72,72,52,,339.51150650007185,l,0.7363738000858575,correct,,23,B,2023-12-13_15h19.23.768,gca_discrimination,2022.2.4,143.75623544490506,
positions.xlsx,stimuli.xlsx,test.xlsx,stimuli/Social2.png,stimuli/Social1.png,stimuli/Nonsocial1.png,stimuli/Nonsocial2.png,stimuli/Test1.png,stimuli/Test2.png,"(-0.7, -0.5)",cs_plus_s,"(0.7, -0.5)",cs_minus_s,0,0,0,0,,,,,0,73,73,5,,342.2406123999972,ä,0.4875097000040114,correct,,23,B,2023-12-13_15h19.23.768,gca_discrimination,2022.2.4,143.75623544490506,
positions.xlsx,stimuli.xlsx,test.xlsx,stimuli/Social2.png,stimuli/Social1.png,stimuli/Nonsocial1.png,stimuli/Nonsocial2.png,stimuli/Test1.png,stimuli/Test2.png,"(-0.7, 0.5)",cs_minus_ns,"(-0.7, -0.5)",cs_plus_ns,0,0,0,0,,,,,0,74,74,36,,345.4765669000335,ä,0.6676428999053314,correct,,23,B,2023-12-13_15h19.23.768,gca_discrimination,2022.2.4,143.75623544490506,
positions.xlsx,stimuli.xlsx,test.xlsx,stimuli/Social2.png,stimuli/Social1.png,stimuli/Nonsocial1.png,stimuli/Nonsocial2.png,stimuli/Test1.png,stimuli/Test2.png,"(0.7, 0.5)",cs_minus_ns,"(0.7, -0.5)",cs_minus_ns,0,0,0,0,,,,,0,75,75,92,,347.98340360005386,l,0.5124535000650212,correct,,23,B,2023-12-13_15h19.23.768,gca_discrimination,2022.2.4,143.75623544490506,
positions.xlsx,stimuli.xlsx,test.xlsx,stimuli/Social2.png,stimuli/Social1.png,stimuli/Nonsocial1.png,stimuli/Nonsocial2.png,stimuli/Test1.png,stimuli/Test2.png,"(-0.7, 0.5)",cs_minus_ns,"(0.7, 0.5)",cs_plus_ns,0,0,0,0,,,,,0,76,76,37,,350.39301010000054,ä,0.6632090000202879,correct,,23,B,2023-12-13_15h19.23.768,gca_discrimination,2022.2.4,143.75623544490506,
positions.xlsx,stimuli.xlsx,test.xlsx,stimuli/Social2.png,stimuli/Social1.png,stimuli/Nonsocial1.png,stimuli/Nonsocial2.png,stimuli/Test1.png,stimuli/Test2.png,"(-0.7, 0.5)",cs_plus_ns,"(0.7, -0.5)",cs_minus_ns,0,0,0,0,,,,,0,77,77,26,,353.587360000005,ä,0.8127212999388576,correct,,23,B,2023-12-13_15h19.23.768,gca_discrimination,2022.2.4,143.75623544490506,
positions.xlsx,stimuli.xlsx,test.xlsx,stimuli/Social2.png,stimuli/Social1.png,stimuli/Nonsocial1.png,stimuli/Nonsocial2.png,stimuli/Test1.png,stimuli/Test2.png,"(-0.7, 0.5)",cs_plus_ns,"(-0.7, -0.5)",cs_minus_ns,0,0,0,0,,,,,0,78,78,24,,356.39281580003444,ä,0.511138099944219,correct,,23,B,2023-12-13_15h19.23.768,gca_discrimination,2022.2.4,143.75623544490506,
positions.xlsx,stimuli.xlsx,test.xlsx,stimuli/Social2.png,stimuli/Social1.png,stimuli/Nonsocial1.png,stimuli/Nonsocial2.png,stimuli/Test1.png,stimuli/Test2.png,"(0.7, -0.5)",cs_minus_s,"(-0.7, 0.5)",cs_plus_s,0,0,0,0,,,,,0,79,79,21,,358.9204824999906,ä,0.44060349999926984,correct,,23,B,2023-12-13_15h19.23.768,gca_discrimination,2022.2.4,143.75623544490506,
positions.xlsx,stimuli.xlsx,test.xlsx,stimuli/Social2.png,stimuli/Social1.png,stimuli/Nonsocial1.png,stimuli/Nonsocial2.png,stimuli/Test1.png,stimuli/Test2.png,"(0.7, 0.5)",cs_plus_ns,"(-0.7, 0.5)",cs_minus_ns,0,0,0,0,,,,,0,80,80,30,,361.9064692000393,ä,0.518112099962309,correct,,23,B,2023-12-13_15h19.23.768,gca_discrimination,2022.2.4,143.75623544490506,
positions.xlsx,stimuli.xlsx,test.xlsx,stimuli/Social2.png,stimuli/Social1.png,stimuli/Nonsocial1.png,stimuli/Nonsocial2.png,stimuli/Test1.png,stimuli/Test2.png,"(0.7, -0.5)",cs_minus_ns,"(-0.7, 0.5)",cs_plus_ns,0,0,0,0,,,,,0,81,81,45,,364.3021940001054,ä,0.5057757999747992,correct,,23,B,2023-12-13_15h19.23.768,gca_discrimination,2022.2.4,143.75623544490506,
positions.xlsx,stimuli.xlsx,test.xlsx,stimuli/Social2.png,stimuli/Social1.png,stimuli/Nonsocial1.png,stimuli/Nonsocial2.png,stimuli/Test1.png,stimuli/Test2.png,"(-0.7, -0.5)",cs_plus_ns,"(0.7, -0.5)",cs_plus_ns,0,0,0,0,,,,,0,82,82,77,,367.57294079998974,l,0.38021109998226166,correct,,23,B,2023-12-13_15h19.23.768,gca_discrimination,2022.2.4,143.75623544490506,
positions.xlsx,stimuli.xlsx,test.xlsx,stimuli/Social2.png,stimuli/Social1.png,stimuli/Nonsocial1.png,stimuli/Nonsocial2.png,stimuli/Test1.png,stimuli/Test2.png,"(-0.7, 0.5)",cs_plus_ns,"(0.7, 0.5)",cs_plus_ns,0,0,0,0,,,,,0,83,83,73,,370.1492474999977,l,0.4514941000379622,correct,,23,B,2023-12-13_15h19.23.768,gca_discrimination,2022.2.4,143.75623544490506,
positions.xlsx,stimuli.xlsx,test.xlsx,stimuli/Social2.png,stimuli/Social1.png,stimuli/Nonsocial1.png,stimuli/Nonsocial2.png,stimuli/Test1.png,stimuli/Test2.png,"(-0.7, -0.5)",cs_minus_s,"(-0.7, 0.5)",cs_minus_s,0,0,0,0,,,,,0,84,84,63,,372.808815700002,l,0.6235498000169173,correct,,23,B,2023-12-13_15h19.23.768,gca_discrimination,2022.2.4,143.75623544490506,
positions.xlsx,stimuli.xlsx,test.xlsx,stimuli/Social2.png,stimuli/Social1.png,stimuli/Nonsocial1.png,stimuli/Nonsocial2.png,stimuli/Test1.png,stimuli/Test2.png,"(0.7, -0.5)",cs_plus_s,"(0.7, 0.5)",cs_plus_s,0,0,0,0,,,,,0,85,85,59,,376.14205510006286,l,0.6975718000903726,correct,,23,B,2023-12-13_15h19.23.768,gca_discrimination,2022.2.4,143.75623544490506,
positions.xlsx,stimuli.xlsx,test.xlsx,stimuli/Social2.png,stimuli/Social1.png,stimuli/Nonsocial1.png,stimuli/Nonsocial2.png,stimuli/Test1.png,stimuli/Test2.png,"(0.7, 0.5)",cs_minus_ns,"(0.7, -0.5)",cs_plus_ns,0,0,0,0,,,,,0,86,86,44,,379.4614162000362,ä,0.626539499964565,correct,,23,B,2023-12-13_15h19.23.768,gca_discrimination,2022.2.4,143.75623544490506,
positions.xlsx,stimuli.xlsx,test.xlsx,stimuli/Social2.png,stimuli/Social1.png,stimuli/Nonsocial1.png,stimuli/Nonsocial2.png,stimuli/Test1.png,stimuli/Test2.png,"(-0.7, 0.5)",cs_minus_ns,"(0.7, -0.5)",cs_minus_ns,0,0,0,0,,,,,0,87,87,86,,381.9404464000836,l,0.5152708999812603,correct,,23,B,2023-12-13_15h19.23.768,gca_discrimination,2022.2.4,143.75623544490506,
positions.xlsx,stimuli.xlsx,test.xlsx,stimuli/Social2.png,stimuli/Social1.png,stimuli/Nonsocial1.png,stimuli/Nonsocial2.png,stimuli/Test1.png,stimuli/Test2.png,"(0.7, -0.5)",cs_plus_ns,"(-0.7, -0.5)",cs_plus_ns,0,0,0,0,,,,,0,88,88,82,,384.4681418000255,l,0.5004674999509007,correct,,23,B,2023-12-13_15h19.23.768,gca_discrimination,2022.2.4,143.75623544490506,
positions.xlsx,stimuli.xlsx,test.xlsx,stimuli/Social2.png,stimuli/Social1.png,stimuli/Nonsocial1.png,stimuli/Nonsocial2.png,stimuli/Test1.png,stimuli/Test2.png,"(0.7, -0.5)",cs_plus_ns,"(-0.7, 0.5)",cs_plus_ns,0,0,0,0,,,,,0,89,89,81,,386.8985941000283,l,0.5179570999462157,correct,,23,B,2023-12-13_15h19.23.768,gca_discrimination,2022.2.4,143.75623544490506,
positions.xlsx,stimuli.xlsx,test.xlsx,stimuli/Social2.png,stimuli/Social1.png,stimuli/Nonsocial1.png,stimuli/Nonsocial2.png,stimuli/Test1.png,stimuli/Test2.png,"(0.7, -0.5)",cs_minus_s,"(-0.7, -0.5)",cs_minus_s,0,0,0,0,,,,,0,90,90,70,,390.2317828000523,l,0.5045901000266895,correct,,23,B,2023-12-13_15h19.23.768,gca_discrimination,2022.2.4,143.75623544490506,
positions.xlsx,stimuli.xlsx,test.xlsx,stimuli/Social2.png,stimuli/Social1.png,stimuli/Nonsocial1.png,stimuli/Nonsocial2.png,stimuli/Test1.png,stimuli/Test2.png,"(-0.7, -0.5)",cs_minus_ns,"(-0.7, 0.5)",cs_plus_ns,0,0,0,0,,,,,0,91,91,39,,393.35668930003885,ä,0.44376850000116974,correct,,23,B,2023-12-13_15h19.23.768,gca_discrimination,2022.2.4,143.75623544490506,
positions.xlsx,stimuli.xlsx,test.xlsx,stimuli/Social2.png,stimuli/Social1.png,stimuli/Nonsocial1.png,stimuli/Nonsocial2.png,stimuli/Test1.png,stimuli/Test2.png,"(-0.7, -0.5)",cs_plus_s,"(-0.7, 0.5)",cs_plus_s,0,0,0,0,,,,,0,92,92,51,,396.60653640003875,l,0.6016930999467149,correct,,23,B,2023-12-13_15h19.23.768,gca_discrimination,2022.2.4,143.75623544490506,
positions.xlsx,stimuli.xlsx,test.xlsx,stimuli/Social2.png,stimuli/Social1.png,stimuli/Nonsocial1.png,stimuli/Nonsocial2.png,stimuli/Test1.png,stimuli/Test2.png,"(0.7, -0.5)",cs_minus_ns,"(0.7, 0.5)",cs_plus_ns,0,0,0,0,,,,,0,93,93,47,,399.7244718000293,ä,0.547431799932383,correct,,23,B,2023-12-13_15h19.23.768,gca_discrimination,2022.2.4,143.75623544490506,
positions.xlsx,stimuli.xlsx,test.xlsx,stimuli/Social2.png,stimuli/Social1.png,stimuli/Nonsocial1.png,stimuli/Nonsocial2.png,stimuli/Test1.png,stimuli/Test2.png,"(0.7, -0.5)",cs_minus_s,"(0.7, 0.5)",cs_plus_s,0,0,0,0,,,,,0,94,94,23,,402.42575829999987,ä,0.43868789996486157,correct,,23,B,2023-12-13_15h19.23.768,gca_discrimination,2022.2.4,143.75623544490506,
positions.xlsx,stimuli.xlsx,test.xlsx,stimuli/Social2.png,stimuli/Social1.png,stimuli/Nonsocial1.png,stimuli/Nonsocial2.png,stimuli/Test1.png,stimuli/Test2.png,"(-0.7, 0.5)",cs_plus_s,"(0.7, -0.5)",cs_minus_s,0,0,0,0,,,,,0,95,95,2,,405.0367383999983,ä,0.4993274000007659,correct,,23,B,2023-12-13_15h19.23.768,gca_discrimination,2022.2.4,143.75623544490506,
