posFile,stimFile,testFile,cs_plus_s,cs_minus_s,cs_plus_ns,cs_minus_ns,test1,test2,position1,trialtype,position2,comptype,blocks.thisRepN,blocks.thisTrialN,blocks.thisN,blocks.thisIndex,learning_trials.thisRepN,learning_trials.thisTrialN,learning_trials.thisN,learning_trials.thisIndex,trials.thisRepN,trials.thisTrialN,trials.thisN,trials.thisIndex,textStart.started,key.started,key.keys,key.rt,correctness,textStartTask.started,participant,group,date,expName,psychopyVersion,frameRate,
positions.xlsx,stimuli.xlsx,test.xlsx,stimuli/Social2.png,stimuli/Social1.png,stimuli/Nonsocial2.png,stimuli/Nonsocial1.png,stimuli/Test1.png,stimuli/Test2.png,"(-0.7, 0.5)",test2,"(0.7, -0.5)",test1,0,0,0,0,0,0,0,12,,,,,10.740849999943748,41.70495199994184,ä,1.8420357999857515,wrong,,28,D,2023-12-14_14h20.34.259,gca_discrimination,2022.2.4,144.10592364625884,
positions.xlsx,stimuli.xlsx,test.xlsx,stimuli/Social2.png,stimuli/Social1.png,stimuli/Nonsocial2.png,stimuli/Nonsocial1.png,stimuli/Test1.png,stimuli/Test2.png,"(0.7, 0.5)",test2,"(0.7, -0.5)",test1,0,0,0,0,0,1,1,6,,,,,,47.37837990000844,l,0.6247452000388876,correct,,28,D,2023-12-14_14h20.34.259,gca_discrimination,2022.2.4,144.10592364625884,
positions.xlsx,stimuli.xlsx,test.xlsx,stimuli/Social2.png,stimuli/Social1.png,stimuli/Nonsocial2.png,stimuli/Nonsocial1.png,stimuli/Test1.png,stimuli/Test2.png,"(-0.7, 0.5)",test2,"(-0.7, -0.5)",test2,0,0,0,0,0,2,2,1,,,,,,51.885112799936906,ä,0.49418159993365407,correct,,28,D,2023-12-14_14h20.34.259,gca_discrimination,2022.2.4,144.10592364625884,
positions.xlsx,stimuli.xlsx,test.xlsx,stimuli/Social2.png,stimuli/Social1.png,stimuli/Nonsocial2.png,stimuli/Nonsocial1.png,stimuli/Test1.png,stimuli/Test2.png,"(-0.7, -0.5)",test2,"(0.7, -0.5)",test2,0,0,0,0,0,3,3,9,,,,,,56.87796009995509,l,1.0299160999711603,wrong,,28,D,2023-12-14_14h20.34.259,gca_discrimination,2022.2.4,144.10592364625884,
positions.xlsx,stimuli.xlsx,test.xlsx,stimuli/Social2.png,stimuli/Social1.png,stimuli/Nonsocial2.png,stimuli/Nonsocial1.png,stimuli/Test1.png,stimuli/Test2.png,"(0.7, 0.5)",test2,"(-0.7, 0.5)",test1,0,0,0,0,0,4,4,13,,,,,,62.724965999950655,l,1.4628879999509081,correct,,28,D,2023-12-14_14h20.34.259,gca_discrimination,2022.2.4,144.10592364625884,
positions.xlsx,stimuli.xlsx,test.xlsx,stimuli/Social2.png,stimuli/Social1.png,stimuli/Nonsocial2.png,stimuli/Nonsocial1.png,stimuli/Test1.png,stimuli/Test2.png,"(-0.7, -0.5)",test2,"(0.7, 0.5)",test2,0,0,0,0,0,5,5,7,,,,,,68.69002789992373,ä,0.7298738999525085,correct,,28,D,2023-12-14_14h20.34.259,gca_discrimination,2022.2.4,144.10592364625884,
positions.xlsx,stimuli.xlsx,test.xlsx,stimuli/Social2.png,stimuli/Social1.png,stimuli/Nonsocial2.png,stimuli/Nonsocial1.png,stimuli/Test1.png,stimuli/Test2.png,"(-0.7, -0.5)",test2,"(-0.7, 0.5)",test2,0,0,0,0,0,6,6,2,,,,,,73.6203917999519,ä,0.48025049990974367,correct,,28,D,2023-12-14_14h20.34.259,gca_discrimination,2022.2.4,144.10592364625884,
positions.xlsx,stimuli.xlsx,test.xlsx,stimuli/Social2.png,stimuli/Social1.png,stimuli/Nonsocial2.png,stimuli/Nonsocial1.png,stimuli/Test1.png,stimuli/Test2.png,"(0.7, 0.5)",test1,"(0.7, -0.5)",test2,0,0,0,0,0,7,7,11,,,,,,78.61321849992964,l,0.8146314999321476,correct,,28,D,2023-12-14_14h20.34.259,gca_discrimination,2022.2.4,144.10592364625884,
positions.xlsx,stimuli.xlsx,test.xlsx,stimuli/Social2.png,stimuli/Social1.png,stimuli/Nonsocial2.png,stimuli/Nonsocial1.png,stimuli/Test1.png,stimuli/Test2.png,"(-0.7, -0.5)",test1,"(0.7, 0.5)",test2,0,0,0,0,0,8,8,8,,,,,,84.13386129995342,l,1.1978912999620661,correct,,28,D,2023-12-14_14h20.34.259,gca_discrimination,2022.2.4,144.10592364625884,
positions.xlsx,stimuli.xlsx,test.xlsx,stimuli/Social2.png,stimuli/Social1.png,stimuli/Nonsocial2.png,stimuli/Nonsocial1.png,stimuli/Test1.png,stimuli/Test2.png,"(-0.7, 0.5)",test2,"(0.7, 0.5)",test1,0,0,0,0,0,9,9,3,,,,,,89.8350264999317,l,0.8244463000446558,correct,,28,D,2023-12-14_14h20.34.259,gca_discrimination,2022.2.4,144.10592364625884,
positions.xlsx,stimuli.xlsx,test.xlsx,stimuli/Social2.png,stimuli/Social1.png,stimuli/Nonsocial2.png,stimuli/Nonsocial1.png,stimuli/Test1.png,stimuli/Test2.png,"(0.7, -0.5)",test1,"(0.7, 0.5)",test2,0,0,0,0,0,10,10,0,,,,,,95.47367899992969,l,0.578557499917224,correct,,28,D,2023-12-14_14h20.34.259,gca_discrimination,2022.2.4,144.10592364625884,
positions.xlsx,stimuli.xlsx,test.xlsx,stimuli/Social2.png,stimuli/Social1.png,stimuli/Nonsocial2.png,stimuli/Nonsocial1.png,stimuli/Test1.png,stimuli/Test2.png,"(0.7, -0.5)",test1,"(0.7, 0.5)",test1,0,0,0,0,0,11,11,10,,,,,,100.54991699999664,ä,0.43762690003495663,correct,,28,D,2023-12-14_14h20.34.259,gca_discrimination,2022.2.4,144.10592364625884,
positions.xlsx,stimuli.xlsx,test.xlsx,stimuli/Social2.png,stimuli/Social1.png,stimuli/Nonsocial2.png,stimuli/Nonsocial1.png,stimuli/Test1.png,stimuli/Test2.png,"(0.7, -0.5)",test2,"(-0.7, 0.5)",test1,0,0,0,0,0,12,12,4,,,,,,104.80665209994186,l,1.309048100025393,correct,,28,D,2023-12-14_14h20.34.259,gca_discrimination,2022.2.4,144.10592364625884,
positions.xlsx,stimuli.xlsx,test.xlsx,stimuli/Social2.png,stimuli/Social1.png,stimuli/Nonsocial2.png,stimuli/Nonsocial1.png,stimuli/Test1.png,stimuli/Test2.png,"(-0.7, 0.5)",test1,"(0.7, -0.5)",test1,0,0,0,0,0,13,13,5,,,,,,110.32040929992218,ä,0.4754953000228852,correct,,28,D,2023-12-14_14h20.34.259,gca_discrimination,2022.2.4,144.10592364625884,
positions.xlsx,stimuli.xlsx,test.xlsx,stimuli/Social2.png,stimuli/Social1.png,stimuli/Nonsocial2.png,stimuli/Nonsocial1.png,stimuli/Test1.png,stimuli/Test2.png,"(-0.7, -0.5)",cs_minus_s,"(-0.7, 0.5)",cs_minus_s,0,0,0,0,,,,,0,0,0,63,,131.52785750001203,ä,0.6916407999815419,correct,113.7299393999856,28,D,2023-12-14_14h20.34.259,gca_discrimination,2022.2.4,144.10592364625884,
positions.xlsx,stimuli.xlsx,test.xlsx,stimuli/Social2.png,stimuli/Social1.png,stimuli/Nonsocial2.png,stimuli/Nonsocial1.png,stimuli/Test1.png,stimuli/Test2.png,"(0.7, 0.5)",cs_minus_ns,"(-0.7, -0.5)",cs_minus_ns,0,0,0,0,,,,,0,1,1,91,,134.70828989997972,ä,0.4955385000212118,correct,,28,D,2023-12-14_14h20.34.259,gca_discrimination,2022.2.4,144.10592364625884,
positions.xlsx,stimuli.xlsx,test.xlsx,stimuli/Social2.png,stimuli/Social1.png,stimuli/Nonsocial2.png,stimuli/Nonsocial1.png,stimuli/Test1.png,stimuli/Test2.png,"(-0.7, -0.5)",cs_minus_s,"(-0.7, 0.5)",cs_plus_s,0,0,0,0,,,,,0,2,2,15,,137.66650920000393,l,0.5133330000098795,correct,,28,D,2023-12-14_14h20.34.259,gca_discrimination,2022.2.4,144.10592364625884,
positions.xlsx,stimuli.xlsx,test.xlsx,stimuli/Social2.png,stimuli/Social1.png,stimuli/Nonsocial2.png,stimuli/Nonsocial1.png,stimuli/Test1.png,stimuli/Test2.png,"(-0.7, -0.5)",cs_minus_ns,"(0.7, -0.5)",cs_minus_ns,0,0,0,0,,,,,0,3,3,89,,140.43029439996462,ä,0.5336860000388697,correct,,28,D,2023-12-14_14h20.34.259,gca_discrimination,2022.2.4,144.10592364625884,
positions.xlsx,stimuli.xlsx,test.xlsx,stimuli/Social2.png,stimuli/Social1.png,stimuli/Nonsocial2.png,stimuli/Nonsocial1.png,stimuli/Test1.png,stimuli/Test2.png,"(0.7, 0.5)",cs_plus_ns,"(0.7, -0.5)",cs_minus_ns,0,0,0,0,,,,,0,4,4,32,,143.26352009992115,l,0.5799472000217065,correct,,28,D,2023-12-14_14h20.34.259,gca_discrimination,2022.2.4,144.10592364625884,
positions.xlsx,stimuli.xlsx,test.xlsx,stimuli/Social2.png,stimuli/Social1.png,stimuli/Nonsocial2.png,stimuli/Nonsocial1.png,stimuli/Test1.png,stimuli/Test2.png,"(0.7, -0.5)",cs_plus_ns,"(-0.7, -0.5)",cs_minus_ns,0,0,0,0,,,,,0,5,5,34,,146.65227550000418,l,0.9599448000080884,correct,,28,D,2023-12-14_14h20.34.259,gca_discrimination,2022.2.4,144.10592364625884,
positions.xlsx,stimuli.xlsx,test.xlsx,stimuli/Social2.png,stimuli/Social1.png,stimuli/Nonsocial2.png,stimuli/Nonsocial1.png,stimuli/Test1.png,stimuli/Test2.png,"(0.7, 0.5)",cs_minus_ns,"(-0.7, 0.5)",cs_plus_ns,0,0,0,0,,,,,0,6,6,42,,149.70771509991027,l,0.5201117999386042,correct,,28,D,2023-12-14_14h20.34.259,gca_discrimination,2022.2.4,144.10592364625884,
positions.xlsx,stimuli.xlsx,test.xlsx,stimuli/Social2.png,stimuli/Social1.png,stimuli/Nonsocial2.png,stimuli/Nonsocial1.png,stimuli/Test1.png,stimuli/Test2.png,"(0.7, 0.5)",cs_minus_s,"(0.7, -0.5)",cs_plus_s,0,0,0,0,,,,,0,7,7,20,,152.11734779994003,l,0.5342062999261543,correct,,28,D,2023-12-14_14h20.34.259,gca_discrimination,2022.2.4,144.10592364625884,
positions.xlsx,stimuli.xlsx,test.xlsx,stimuli/Social2.png,stimuli/Social1.png,stimuli/Nonsocial2.png,stimuli/Nonsocial1.png,stimuli/Test1.png,stimuli/Test2.png,"(-0.7, -0.5)",cs_plus_ns,"(0.7, 0.5)",cs_plus_ns,0,0,0,0,,,,,0,8,8,76,,154.59640779998153,ä,0.38408410002011806,correct,,28,D,2023-12-14_14h20.34.259,gca_discrimination,2022.2.4,144.10592364625884,
positions.xlsx,stimuli.xlsx,test.xlsx,stimuli/Social2.png,stimuli/Social1.png,stimuli/Nonsocial2.png,stimuli/Nonsocial1.png,stimuli/Test1.png,stimuli/Test2.png,"(-0.7, -0.5)",cs_plus_ns,"(0.7, -0.5)",cs_plus_ns,0,0,0,0,,,,,0,9,9,77,,157.6935236999998,ä,0.35769219999201596,correct,,28,D,2023-12-14_14h20.34.259,gca_discrimination,2022.2.4,144.10592364625884,
positions.xlsx,stimuli.xlsx,test.xlsx,stimuli/Social2.png,stimuli/Social1.png,stimuli/Nonsocial2.png,stimuli/Nonsocial1.png,stimuli/Test1.png,stimuli/Test2.png,"(-0.7, 0.5)",cs_plus_ns,"(-0.7, -0.5)",cs_minus_ns,0,0,0,0,,,,,0,10,10,24,,160.61006430000998,l,0.48139710002578795,correct,,28,D,2023-12-14_14h20.34.259,gca_discrimination,2022.2.4,144.10592364625884,
positions.xlsx,stimuli.xlsx,test.xlsx,stimuli/Social2.png,stimuli/Social1.png,stimuli/Nonsocial2.png,stimuli/Nonsocial1.png,stimuli/Test1.png,stimuli/Test2.png,"(-0.7, 0.5)",cs_minus_ns,"(0.7, 0.5)",cs_minus_ns,0,0,0,0,,,,,0,11,11,85,,163.72105930000544,ä,0.3624919999856502,correct,,28,D,2023-12-14_14h20.34.259,gca_discrimination,2022.2.4,144.10592364625884,
positions.xlsx,stimuli.xlsx,test.xlsx,stimuli/Social2.png,stimuli/Social1.png,stimuli/Nonsocial2.png,stimuli/Nonsocial1.png,stimuli/Test1.png,stimuli/Test2.png,"(-0.7, -0.5)",cs_minus_s,"(0.7, -0.5)",cs_minus_s,0,0,0,0,,,,,0,12,12,65,,166.6584504999919,l,0.4089426000136882,wrong,,28,D,2023-12-14_14h20.34.259,gca_discrimination,2022.2.4,144.10592364625884,
positions.xlsx,stimuli.xlsx,test.xlsx,stimuli/Social2.png,stimuli/Social1.png,stimuli/Nonsocial2.png,stimuli/Nonsocial1.png,stimuli/Test1.png,stimuli/Test2.png,"(0.7, 0.5)",cs_plus_s,"(-0.7, 0.5)",cs_minus_s,0,0,0,0,,,,,0,13,13,6,,169.40836030000355,l,0.5312788999872282,correct,,28,D,2023-12-14_14h20.34.259,gca_discrimination,2022.2.4,144.10592364625884,
positions.xlsx,stimuli.xlsx,test.xlsx,stimuli/Social2.png,stimuli/Social1.png,stimuli/Nonsocial2.png,stimuli/Nonsocial1.png,stimuli/Test1.png,stimuli/Test2.png,"(0.7, -0.5)",cs_plus_ns,"(0.7, 0.5)",cs_plus_ns,0,0,0,0,,,,,0,14,14,83,,172.11658429994714,ä,1.0946775999618694,correct,,28,D,2023-12-14_14h20.34.259,gca_discrimination,2022.2.4,144.10592364625884,
positions.xlsx,stimuli.xlsx,test.xlsx,stimuli/Social2.png,stimuli/Social1.png,stimuli/Nonsocial2.png,stimuli/Nonsocial1.png,stimuli/Test1.png,stimuli/Test2.png,"(-0.7, -0.5)",cs_minus_ns,"(0.7, 0.5)",cs_minus_ns,0,0,0,0,,,,,0,15,15,88,,175.91503929998726,ä,0.3923551000189036,correct,,28,D,2023-12-14_14h20.34.259,gca_discrimination,2022.2.4,144.10592364625884,
positions.xlsx,stimuli.xlsx,test.xlsx,stimuli/Social2.png,stimuli/Social1.png,stimuli/Nonsocial2.png,stimuli/Nonsocial1.png,stimuli/Test1.png,stimuli/Test2.png,"(0.7, -0.5)",cs_minus_s,"(0.7, 0.5)",cs_plus_s,0,0,0,0,,,,,0,16,16,23,,179.01215119997505,l,0.823746700072661,correct,,28,D,2023-12-14_14h20.34.259,gca_discrimination,2022.2.4,144.10592364625884,
positions.xlsx,stimuli.xlsx,test.xlsx,stimuli/Social2.png,stimuli/Social1.png,stimuli/Nonsocial2.png,stimuli/Nonsocial1.png,stimuli/Test1.png,stimuli/Test2.png,"(0.7, -0.5)",cs_minus_s,"(-0.7, 0.5)",cs_minus_s,0,0,0,0,,,,,0,17,17,69,,182.51896159991156,ä,0.7570615999866277,correct,,28,D,2023-12-14_14h20.34.259,gca_discrimination,2022.2.4,144.10592364625884,
positions.xlsx,stimuli.xlsx,test.xlsx,stimuli/Social2.png,stimuli/Social1.png,stimuli/Nonsocial2.png,stimuli/Nonsocial1.png,stimuli/Test1.png,stimuli/Test2.png,"(-0.7, 0.5)",cs_minus_s,"(-0.7, -0.5)",cs_minus_s,0,0,0,0,,,,,0,18,18,60,,185.92854999995325,ä,0.4037311999127269,correct,,28,D,2023-12-14_14h20.34.259,gca_discrimination,2022.2.4,144.10592364625884,
positions.xlsx,stimuli.xlsx,test.xlsx,stimuli/Social2.png,stimuli/Social1.png,stimuli/Nonsocial2.png,stimuli/Nonsocial1.png,stimuli/Test1.png,stimuli/Test2.png,"(0.7, 0.5)",cs_minus_ns,"(-0.7, -0.5)",cs_plus_ns,0,0,0,0,,,,,0,19,19,43,,188.35901839996222,l,0.9087298000231385,correct,,28,D,2023-12-14_14h20.34.259,gca_discrimination,2022.2.4,144.10592364625884,
positions.xlsx,stimuli.xlsx,test.xlsx,stimuli/Social2.png,stimuli/Social1.png,stimuli/Nonsocial2.png,stimuli/Nonsocial1.png,stimuli/Test1.png,stimuli/Test2.png,"(-0.7, -0.5)",cs_plus_s,"(-0.7, 0.5)",cs_minus_s,0,0,0,0,,,,,0,20,20,3,,191.4838934999425,l,0.6474005999043584,correct,,28,D,2023-12-14_14h20.34.259,gca_discrimination,2022.2.4,144.10592364625884,
positions.xlsx,stimuli.xlsx,test.xlsx,stimuli/Social2.png,stimuli/Social1.png,stimuli/Nonsocial2.png,stimuli/Nonsocial1.png,stimuli/Test1.png,stimuli/Test2.png,"(-0.7, -0.5)",cs_plus_s,"(0.7, 0.5)",cs_plus_s,0,0,0,0,,,,,0,21,21,52,,194.18516979995184,ä,0.5225704999174923,correct,,28,D,2023-12-14_14h20.34.259,gca_discrimination,2022.2.4,144.10592364625884,
positions.xlsx,stimuli.xlsx,test.xlsx,stimuli/Social2.png,stimuli/Social1.png,stimuli/Nonsocial2.png,stimuli/Nonsocial1.png,stimuli/Test1.png,stimuli/Test2.png,"(0.7, 0.5)",cs_minus_s,"(-0.7, 0.5)",cs_minus_s,0,0,0,0,,,,,0,22,22,66,,196.98368149995804,ä,0.5957516001071781,correct,,28,D,2023-12-14_14h20.34.259,gca_discrimination,2022.2.4,144.10592364625884,
positions.xlsx,stimuli.xlsx,test.xlsx,stimuli/Social2.png,stimuli/Social1.png,stimuli/Nonsocial2.png,stimuli/Nonsocial1.png,stimuli/Test1.png,stimuli/Test2.png,"(-0.7, -0.5)",cs_minus_s,"(0.7, -0.5)",cs_plus_s,0,0,0,0,,,,,0,23,23,17,,200.0251944999909,l,0.6345906000351533,correct,,28,D,2023-12-14_14h20.34.259,gca_discrimination,2022.2.4,144.10592364625884,
positions.xlsx,stimuli.xlsx,test.xlsx,stimuli/Social2.png,stimuli/Social1.png,stimuli/Nonsocial2.png,stimuli/Nonsocial1.png,stimuli/Test1.png,stimuli/Test2.png,"(0.7, 0.5)",cs_minus_s,"(0.7, -0.5)",cs_minus_s,0,0,0,0,,,,,0,24,24,68,,202.52507839992177,ä,0.8222050999756902,correct,,28,D,2023-12-14_14h20.34.259,gca_discrimination,2022.2.4,144.10592364625884,
positions.xlsx,stimuli.xlsx,test.xlsx,stimuli/Social2.png,stimuli/Social1.png,stimuli/Nonsocial2.png,stimuli/Nonsocial1.png,stimuli/Test1.png,stimuli/Test2.png,"(-0.7, 0.5)",cs_plus_s,"(-0.7, -0.5)",cs_plus_s,0,0,0,0,,,,,0,25,25,48,,205.1847605999792,ä,1.0428879000246525,correct,,28,D,2023-12-14_14h20.34.259,gca_discrimination,2022.2.4,144.10592364625884,
positions.xlsx,stimuli.xlsx,test.xlsx,stimuli/Social2.png,stimuli/Social1.png,stimuli/Nonsocial2.png,stimuli/Nonsocial1.png,stimuli/Test1.png,stimuli/Test2.png,"(-0.7, 0.5)",cs_plus_ns,"(0.7, -0.5)",cs_minus_ns,0,0,0,0,,,,,0,26,26,26,,209.01791449997108,l,0.7936982000246644,correct,,28,D,2023-12-14_14h20.34.259,gca_discrimination,2022.2.4,144.10592364625884,
positions.xlsx,stimuli.xlsx,test.xlsx,stimuli/Social2.png,stimuli/Social1.png,stimuli/Nonsocial2.png,stimuli/Nonsocial1.png,stimuli/Test1.png,stimuli/Test2.png,"(0.7, 0.5)",cs_minus_ns,"(0.7, -0.5)",cs_minus_ns,0,0,0,0,,,,,0,27,27,92,,212.2330807999242,ä,0.46603659994434565,correct,,28,D,2023-12-14_14h20.34.259,gca_discrimination,2022.2.4,144.10592364625884,
positions.xlsx,stimuli.xlsx,test.xlsx,stimuli/Social2.png,stimuli/Social1.png,stimuli/Nonsocial2.png,stimuli/Nonsocial1.png,stimuli/Test1.png,stimuli/Test2.png,"(0.7, -0.5)",cs_minus_s,"(-0.7, 0.5)",cs_plus_s,0,0,0,0,,,,,0,28,28,21,,215.41355830000248,l,0.9019496999680996,correct,,28,D,2023-12-14_14h20.34.259,gca_discrimination,2022.2.4,144.10592364625884,
positions.xlsx,stimuli.xlsx,test.xlsx,stimuli/Social2.png,stimuli/Social1.png,stimuli/Nonsocial2.png,stimuli/Nonsocial1.png,stimuli/Test1.png,stimuli/Test2.png,"(-0.7, 0.5)",cs_minus_ns,"(0.7, 0.5)",cs_plus_ns,0,0,0,0,,,,,0,29,29,37,,218.53147469996475,l,0.4479614000301808,correct,,28,D,2023-12-14_14h20.34.259,gca_discrimination,2022.2.4,144.10592364625884,
positions.xlsx,stimuli.xlsx,test.xlsx,stimuli/Social2.png,stimuli/Social1.png,stimuli/Nonsocial2.png,stimuli/Nonsocial1.png,stimuli/Test1.png,stimuli/Test2.png,"(-0.7, -0.5)",cs_minus_ns,"(-0.7, 0.5)",cs_plus_ns,0,0,0,0,,,,,0,30,30,39,,221.72579519997817,l,0.4785513000097126,correct,,28,D,2023-12-14_14h20.34.259,gca_discrimination,2022.2.4,144.10592364625884,
positions.xlsx,stimuli.xlsx,test.xlsx,stimuli/Social2.png,stimuli/Social1.png,stimuli/Nonsocial2.png,stimuli/Nonsocial1.png,stimuli/Test1.png,stimuli/Test2.png,"(0.7, 0.5)",cs_plus_s,"(-0.7, -0.5)",cs_minus_s,0,0,0,0,,,,,0,31,31,7,,224.87150549993385,l,0.4280752999475226,correct,,28,D,2023-12-14_14h20.34.259,gca_discrimination,2022.2.4,144.10592364625884,
positions.xlsx,stimuli.xlsx,test.xlsx,stimuli/Social2.png,stimuli/Social1.png,stimuli/Nonsocial2.png,stimuli/Nonsocial1.png,stimuli/Test1.png,stimuli/Test2.png,"(-0.7, -0.5)",cs_minus_ns,"(-0.7, 0.5)",cs_minus_ns,0,0,0,0,,,,,0,32,32,87,,227.41307609993964,ä,0.40661399997770786,correct,,28,D,2023-12-14_14h20.34.259,gca_discrimination,2022.2.4,144.10592364625884,
positions.xlsx,stimuli.xlsx,test.xlsx,stimuli/Social2.png,stimuli/Social1.png,stimuli/Nonsocial2.png,stimuli/Nonsocial1.png,stimuli/Test1.png,stimuli/Test2.png,"(-0.7, -0.5)",cs_plus_ns,"(-0.7, 0.5)",cs_plus_ns,0,0,0,0,,,,,0,33,33,75,,230.46851569996215,ä,0.2723513999953866,correct,,28,D,2023-12-14_14h20.34.259,gca_discrimination,2022.2.4,144.10592364625884,
positions.xlsx,stimuli.xlsx,test.xlsx,stimuli/Social2.png,stimuli/Social1.png,stimuli/Nonsocial2.png,stimuli/Nonsocial1.png,stimuli/Test1.png,stimuli/Test2.png,"(-0.7, -0.5)",cs_plus_s,"(-0.7, 0.5)",cs_plus_s,0,0,0,0,,,,,0,34,34,51,,233.03092679998372,ä,0.38826849998440593,correct,,28,D,2023-12-14_14h20.34.259,gca_discrimination,2022.2.4,144.10592364625884,
positions.xlsx,stimuli.xlsx,test.xlsx,stimuli/Social2.png,stimuli/Social1.png,stimuli/Nonsocial2.png,stimuli/Nonsocial1.png,stimuli/Test1.png,stimuli/Test2.png,"(0.7, -0.5)",cs_minus_ns,"(0.7, 0.5)",cs_minus_ns,0,0,0,0,,,,,0,35,35,95,,236.10716529993806,ä,0.31227019999641925,correct,,28,D,2023-12-14_14h20.34.259,gca_discrimination,2022.2.4,144.10592364625884,
positions.xlsx,stimuli.xlsx,test.xlsx,stimuli/Social2.png,stimuli/Social1.png,stimuli/Nonsocial2.png,stimuli/Nonsocial1.png,stimuli/Test1.png,stimuli/Test2.png,"(-0.7, 0.5)",cs_plus_s,"(0.7, 0.5)",cs_plus_s,0,0,0,0,,,,,0,36,36,49,,239.09315919992514,ä,0.2860969000030309,correct,,28,D,2023-12-14_14h20.34.259,gca_discrimination,2022.2.4,144.10592364625884,
positions.xlsx,stimuli.xlsx,test.xlsx,stimuli/Social2.png,stimuli/Social1.png,stimuli/Nonsocial2.png,stimuli/Nonsocial1.png,stimuli/Test1.png,stimuli/Test2.png,"(0.7, -0.5)",cs_minus_s,"(0.7, 0.5)",cs_minus_s,0,0,0,0,,,,,0,37,37,71,,241.60694019997027,l,0.4290217000525445,wrong,,28,D,2023-12-14_14h20.34.259,gca_discrimination,2022.2.4,144.10592364625884,
positions.xlsx,stimuli.xlsx,test.xlsx,stimuli/Social2.png,stimuli/Social1.png,stimuli/Nonsocial2.png,stimuli/Nonsocial1.png,stimuli/Test1.png,stimuli/Test2.png,"(0.7, 0.5)",cs_minus_ns,"(-0.7, 0.5)",cs_minus_ns,0,0,0,0,,,,,0,38,38,90,,244.71100179990754,ä,0.38905150000937283,correct,,28,D,2023-12-14_14h20.34.259,gca_discrimination,2022.2.4,144.10592364625884,
positions.xlsx,stimuli.xlsx,test.xlsx,stimuli/Social2.png,stimuli/Social1.png,stimuli/Nonsocial2.png,stimuli/Nonsocial1.png,stimuli/Test1.png,stimuli/Test2.png,"(0.7, 0.5)",cs_plus_ns,"(-0.7, 0.5)",cs_plus_ns,0,0,0,0,,,,,0,39,39,78,,247.88450389995705,ä,0.27924599999096245,correct,,28,D,2023-12-14_14h20.34.259,gca_discrimination,2022.2.4,144.10592364625884,
positions.xlsx,stimuli.xlsx,test.xlsx,stimuli/Social2.png,stimuli/Social1.png,stimuli/Nonsocial2.png,stimuli/Nonsocial1.png,stimuli/Test1.png,stimuli/Test2.png,"(-0.7, -0.5)",cs_minus_ns,"(0.7, -0.5)",cs_plus_ns,0,0,0,0,,,,,0,40,40,41,,250.82883989997208,l,0.34374260006006807,correct,,28,D,2023-12-14_14h20.34.259,gca_discrimination,2022.2.4,144.10592364625884,
positions.xlsx,stimuli.xlsx,test.xlsx,stimuli/Social2.png,stimuli/Social1.png,stimuli/Nonsocial2.png,stimuli/Nonsocial1.png,stimuli/Test1.png,stimuli/Test2.png,"(0.7, -0.5)",cs_plus_ns,"(-0.7, 0.5)",cs_plus_ns,0,0,0,0,,,,,0,41,41,81,,253.0162383998977,l,0.46767719998024404,wrong,,28,D,2023-12-14_14h20.34.259,gca_discrimination,2022.2.4,144.10592364625884,
positions.xlsx,stimuli.xlsx,test.xlsx,stimuli/Social2.png,stimuli/Social1.png,stimuli/Nonsocial2.png,stimuli/Nonsocial1.png,stimuli/Test1.png,stimuli/Test2.png,"(0.7, -0.5)",cs_minus_ns,"(-0.7, 0.5)",cs_minus_ns,0,0,0,0,,,,,0,42,42,93,,256.2313950000098,ä,0.28444720001425594,correct,,28,D,2023-12-14_14h20.34.259,gca_discrimination,2022.2.4,144.10592364625884,
positions.xlsx,stimuli.xlsx,test.xlsx,stimuli/Social2.png,stimuli/Social1.png,stimuli/Nonsocial2.png,stimuli/Nonsocial1.png,stimuli/Test1.png,stimuli/Test2.png,"(0.7, -0.5)",cs_plus_ns,"(0.7, 0.5)",cs_minus_ns,0,0,0,0,,,,,0,43,43,35,,258.91878670000006,l,0.6375852000201121,correct,,28,D,2023-12-14_14h20.34.259,gca_discrimination,2022.2.4,144.10592364625884,
positions.xlsx,stimuli.xlsx,test.xlsx,stimuli/Social2.png,stimuli/Social1.png,stimuli/Nonsocial2.png,stimuli/Nonsocial1.png,stimuli/Test1.png,stimuli/Test2.png,"(0.7, 0.5)",cs_minus_s,"(-0.7, -0.5)",cs_minus_s,0,0,0,0,,,,,0,44,44,67,,261.4672909999499,l,0.5367474999511614,wrong,,28,D,2023-12-14_14h20.34.259,gca_discrimination,2022.2.4,144.10592364625884,
positions.xlsx,stimuli.xlsx,test.xlsx,stimuli/Social2.png,stimuli/Social1.png,stimuli/Nonsocial2.png,stimuli/Nonsocial1.png,stimuli/Test1.png,stimuli/Test2.png,"(0.7, -0.5)",cs_plus_s,"(0.7, 0.5)",cs_plus_s,0,0,0,0,,,,,0,45,45,59,,263.8422156999586,ä,0.5456602999474853,correct,,28,D,2023-12-14_14h20.34.259,gca_discrimination,2022.2.4,144.10592364625884,
positions.xlsx,stimuli.xlsx,test.xlsx,stimuli/Social2.png,stimuli/Social1.png,stimuli/Nonsocial2.png,stimuli/Nonsocial1.png,stimuli/Test1.png,stimuli/Test2.png,"(-0.7, 0.5)",cs_minus_s,"(-0.7, -0.5)",cs_plus_s,0,0,0,0,,,,,0,46,46,12,,266.6823443999747,l,0.7456747000105679,correct,,28,D,2023-12-14_14h20.34.259,gca_discrimination,2022.2.4,144.10592364625884,
positions.xlsx,stimuli.xlsx,test.xlsx,stimuli/Social2.png,stimuli/Social1.png,stimuli/Nonsocial2.png,stimuli/Nonsocial1.png,stimuli/Test1.png,stimuli/Test2.png,"(0.7, 0.5)",cs_plus_s,"(-0.7, -0.5)",cs_plus_s,0,0,0,0,,,,,0,47,47,55,,269.75168240000494,ä,0.9886429000180215,correct,,28,D,2023-12-14_14h20.34.259,gca_discrimination,2022.2.4,144.10592364625884,
positions.xlsx,stimuli.xlsx,test.xlsx,stimuli/Social2.png,stimuli/Social1.png,stimuli/Nonsocial2.png,stimuli/Nonsocial1.png,stimuli/Test1.png,stimuli/Test2.png,"(0.7, -0.5)",cs_minus_ns,"(-0.7, -0.5)",cs_minus_ns,0,0,0,0,,,,,0,48,48,94,,272.89738330000546,ä,0.5306942999595776,correct,,28,D,2023-12-14_14h20.34.259,gca_discrimination,2022.2.4,144.10592364625884,
positions.xlsx,stimuli.xlsx,test.xlsx,stimuli/Social2.png,stimuli/Social1.png,stimuli/Nonsocial2.png,stimuli/Nonsocial1.png,stimuli/Test1.png,stimuli/Test2.png,"(0.7, 0.5)",cs_minus_s,"(-0.7, -0.5)",cs_plus_s,0,0,0,0,,,,,0,49,49,19,,275.4320429000072,l,0.811553500010632,correct,,28,D,2023-12-14_14h20.34.259,gca_discrimination,2022.2.4,144.10592364625884,
positions.xlsx,stimuli.xlsx,test.xlsx,stimuli/Social2.png,stimuli/Social1.png,stimuli/Nonsocial2.png,stimuli/Nonsocial1.png,stimuli/Test1.png,stimuli/Test2.png,"(0.7, -0.5)",cs_plus_s,"(-0.7, -0.5)",cs_minus_s,0,0,0,0,,,,,0,50,50,10,,278.91107149992604,l,0.7166720000095665,correct,,28,D,2023-12-14_14h20.34.259,gca_discrimination,2022.2.4,144.10592364625884,
positions.xlsx,stimuli.xlsx,test.xlsx,stimuli/Social2.png,stimuli/Social1.png,stimuli/Nonsocial2.png,stimuli/Nonsocial1.png,stimuli/Test1.png,stimuli/Test2.png,"(-0.7, 0.5)",cs_plus_s,"(-0.7, -0.5)",cs_minus_s,0,0,0,0,,,,,0,51,51,0,,281.61235979991034,l,0.5191689999774098,correct,,28,D,2023-12-14_14h20.34.259,gca_discrimination,2022.2.4,144.10592364625884,
positions.xlsx,stimuli.xlsx,test.xlsx,stimuli/Social2.png,stimuli/Social1.png,stimuli/Nonsocial2.png,stimuli/Nonsocial1.png,stimuli/Test1.png,stimuli/Test2.png,"(0.7, -0.5)",cs_minus_ns,"(0.7, 0.5)",cs_plus_ns,0,0,0,0,,,,,0,52,52,47,,283.959485600004,l,0.6123168000485748,correct,,28,D,2023-12-14_14h20.34.259,gca_discrimination,2022.2.4,144.10592364625884,
positions.xlsx,stimuli.xlsx,test.xlsx,stimuli/Social2.png,stimuli/Social1.png,stimuli/Nonsocial2.png,stimuli/Nonsocial1.png,stimuli/Test1.png,stimuli/Test2.png,"(0.7, -0.5)",cs_plus_ns,"(-0.7, -0.5)",cs_plus_ns,0,0,0,0,,,,,0,53,53,82,,287.23713779996615,ä,0.6315837999572977,correct,,28,D,2023-12-14_14h20.34.259,gca_discrimination,2022.2.4,144.10592364625884,
positions.xlsx,stimuli.xlsx,test.xlsx,stimuli/Social2.png,stimuli/Social1.png,stimuli/Nonsocial2.png,stimuli/Nonsocial1.png,stimuli/Test1.png,stimuli/Test2.png,"(-0.7, 0.5)",cs_plus_s,"(0.7, -0.5)",cs_minus_s,0,0,0,0,,,,,0,54,54,2,,290.44531059998553,l,1.8149013000074774,correct,,28,D,2023-12-14_14h20.34.259,gca_discrimination,2022.2.4,144.10592364625884,
positions.xlsx,stimuli.xlsx,test.xlsx,stimuli/Social2.png,stimuli/Social1.png,stimuli/Nonsocial2.png,stimuli/Nonsocial1.png,stimuli/Test1.png,stimuli/Test2.png,"(0.7, -0.5)",cs_minus_s,"(-0.7, -0.5)",cs_plus_s,0,0,0,0,,,,,0,55,55,22,,294.743811299908,l,0.4525463000172749,correct,,28,D,2023-12-14_14h20.34.259,gca_discrimination,2022.2.4,144.10592364625884,
positions.xlsx,stimuli.xlsx,test.xlsx,stimuli/Social2.png,stimuli/Social1.png,stimuli/Nonsocial2.png,stimuli/Nonsocial1.png,stimuli/Test1.png,stimuli/Test2.png,"(-0.7, 0.5)",cs_plus_ns,"(0.7, 0.5)",cs_minus_ns,0,0,0,0,,,,,0,56,56,25,,297.5978580999654,l,0.5341344000771642,correct,,28,D,2023-12-14_14h20.34.259,gca_discrimination,2022.2.4,144.10592364625884,
positions.xlsx,stimuli.xlsx,test.xlsx,stimuli/Social2.png,stimuli/Social1.png,stimuli/Nonsocial2.png,stimuli/Nonsocial1.png,stimuli/Test1.png,stimuli/Test2.png,"(0.7, 0.5)",cs_plus_s,"(0.7, -0.5)",cs_minus_s,0,0,0,0,,,,,0,57,57,8,,300.2990991999395,l,0.48880940000526607,correct,,28,D,2023-12-14_14h20.34.259,gca_discrimination,2022.2.4,144.10592364625884,
positions.xlsx,stimuli.xlsx,test.xlsx,stimuli/Social2.png,stimuli/Social1.png,stimuli/Nonsocial2.png,stimuli/Nonsocial1.png,stimuli/Test1.png,stimuli/Test2.png,"(0.7, -0.5)",cs_minus_ns,"(-0.7, 0.5)",cs_plus_ns,0,0,0,0,,,,,0,58,58,45,,302.8615347999148,l,0.44575489999260753,correct,,28,D,2023-12-14_14h20.34.259,gca_discrimination,2022.2.4,144.10592364625884,
positions.xlsx,stimuli.xlsx,test.xlsx,stimuli/Social2.png,stimuli/Social1.png,stimuli/Nonsocial2.png,stimuli/Nonsocial1.png,stimuli/Test1.png,stimuli/Test2.png,"(0.7, -0.5)",cs_plus_s,"(0.7, 0.5)",cs_minus_s,0,0,0,0,,,,,0,59,59,11,,305.3267086999258,l,0.7567549999803305,correct,,28,D,2023-12-14_14h20.34.259,gca_discrimination,2022.2.4,144.10592364625884,
positions.xlsx,stimuli.xlsx,test.xlsx,stimuli/Social2.png,stimuli/Social1.png,stimuli/Nonsocial2.png,stimuli/Nonsocial1.png,stimuli/Test1.png,stimuli/Test2.png,"(-0.7, -0.5)",cs_minus_s,"(0.7, 0.5)",cs_minus_s,0,0,0,0,,,,,0,60,60,64,,308.180761699914,ä,0.43904840003233403,correct,,28,D,2023-12-14_14h20.34.259,gca_discrimination,2022.2.4,144.10592364625884,
positions.xlsx,stimuli.xlsx,test.xlsx,stimuli/Social2.png,stimuli/Social1.png,stimuli/Nonsocial2.png,stimuli/Nonsocial1.png,stimuli/Test1.png,stimuli/Test2.png,"(-0.7, -0.5)",cs_plus_s,"(0.7, -0.5)",cs_minus_s,0,0,0,0,,,,,0,61,61,5,,310.56956279999577,l,0.5218334000092,correct,,28,D,2023-12-14_14h20.34.259,gca_discrimination,2022.2.4,144.10592364625884,
positions.xlsx,stimuli.xlsx,test.xlsx,stimuli/Social2.png,stimuli/Social1.png,stimuli/Nonsocial2.png,stimuli/Nonsocial1.png,stimuli/Test1.png,stimuli/Test2.png,"(0.7, -0.5)",cs_minus_ns,"(-0.7, -0.5)",cs_plus_ns,0,0,0,0,,,,,0,62,62,46,,313.6319288999075,l,0.683807999943383,correct,,28,D,2023-12-14_14h20.34.259,gca_discrimination,2022.2.4,144.10592364625884,
positions.xlsx,stimuli.xlsx,test.xlsx,stimuli/Social2.png,stimuli/Social1.png,stimuli/Nonsocial2.png,stimuli/Nonsocial1.png,stimuli/Test1.png,stimuli/Test2.png,"(0.7, 0.5)",cs_plus_s,"(0.7, -0.5)",cs_plus_s,0,0,0,0,,,,,0,63,63,56,,317.04153940000106,ä,0.5303583000786602,correct,,28,D,2023-12-14_14h20.34.259,gca_discrimination,2022.2.4,144.10592364625884,
positions.xlsx,stimuli.xlsx,test.xlsx,stimuli/Social2.png,stimuli/Social1.png,stimuli/Nonsocial2.png,stimuli/Nonsocial1.png,stimuli/Test1.png,stimuli/Test2.png,"(-0.7, 0.5)",cs_plus_s,"(0.7, -0.5)",cs_plus_s,0,0,0,0,,,,,0,64,64,50,,320.06918120000046,ä,0.3116085999645293,correct,,28,D,2023-12-14_14h20.34.259,gca_discrimination,2022.2.4,144.10592364625884,
positions.xlsx,stimuli.xlsx,test.xlsx,stimuli/Social2.png,stimuli/Social1.png,stimuli/Nonsocial2.png,stimuli/Nonsocial1.png,stimuli/Test1.png,stimuli/Test2.png,"(-0.7, 0.5)",cs_minus_ns,"(-0.7, -0.5)",cs_minus_ns,0,0,0,0,,,,,0,65,65,84,,322.41632129997015,ä,0.4031195000279695,correct,,28,D,2023-12-14_14h20.34.259,gca_discrimination,2022.2.4,144.10592364625884,
positions.xlsx,stimuli.xlsx,test.xlsx,stimuli/Social2.png,stimuli/Social1.png,stimuli/Nonsocial2.png,stimuli/Nonsocial1.png,stimuli/Test1.png,stimuli/Test2.png,"(-0.7, -0.5)",cs_plus_s,"(0.7, 0.5)",cs_minus_s,0,0,0,0,,,,,0,66,66,4,,324.6940309999045,l,0.40626009996049106,correct,,28,D,2023-12-14_14h20.34.259,gca_discrimination,2022.2.4,144.10592364625884,
positions.xlsx,stimuli.xlsx,test.xlsx,stimuli/Social2.png,stimuli/Social1.png,stimuli/Nonsocial2.png,stimuli/Nonsocial1.png,stimuli/Test1.png,stimuli/Test2.png,"(0.7, 0.5)",cs_plus_ns,"(-0.7, -0.5)",cs_minus_ns,0,0,0,0,,,,,0,67,67,31,,327.7355404999107,l,0.37251360004302114,correct,,28,D,2023-12-14_14h20.34.259,gca_discrimination,2022.2.4,144.10592364625884,
positions.xlsx,stimuli.xlsx,test.xlsx,stimuli/Social2.png,stimuli/Social1.png,stimuli/Nonsocial2.png,stimuli/Nonsocial1.png,stimuli/Test1.png,stimuli/Test2.png,"(-0.7, -0.5)",cs_plus_ns,"(0.7, -0.5)",cs_minus_ns,0,0,0,0,,,,,0,68,68,29,,330.45767119992524,l,0.49842269998043776,correct,,28,D,2023-12-14_14h20.34.259,gca_discrimination,2022.2.4,144.10592364625884,
positions.xlsx,stimuli.xlsx,test.xlsx,stimuli/Social2.png,stimuli/Social1.png,stimuli/Nonsocial2.png,stimuli/Nonsocial1.png,stimuli/Test1.png,stimuli/Test2.png,"(-0.7, 0.5)",cs_plus_ns,"(0.7, 0.5)",cs_plus_ns,0,0,0,0,,,,,0,69,69,73,,333.2839262000052,ä,0.4402275000466034,correct,,28,D,2023-12-14_14h20.34.259,gca_discrimination,2022.2.4,144.10592364625884,
positions.xlsx,stimuli.xlsx,test.xlsx,stimuli/Social2.png,stimuli/Social1.png,stimuli/Nonsocial2.png,stimuli/Nonsocial1.png,stimuli/Test1.png,stimuli/Test2.png,"(0.7, 0.5)",cs_minus_s,"(-0.7, 0.5)",cs_plus_s,0,0,0,0,,,,,0,70,70,18,,335.5825222999556,l,0.5174586999928579,correct,,28,D,2023-12-14_14h20.34.259,gca_discrimination,2022.2.4,144.10592364625884,
positions.xlsx,stimuli.xlsx,test.xlsx,stimuli/Social2.png,stimuli/Social1.png,stimuli/Nonsocial2.png,stimuli/Nonsocial1.png,stimuli/Test1.png,stimuli/Test2.png,"(-0.7, 0.5)",cs_plus_ns,"(0.7, -0.5)",cs_plus_ns,0,0,0,0,,,,,0,71,71,74,,338.7976356999716,ä,0.4865627000108361,correct,,28,D,2023-12-14_14h20.34.259,gca_discrimination,2022.2.4,144.10592364625884,
positions.xlsx,stimuli.xlsx,test.xlsx,stimuli/Social2.png,stimuli/Social1.png,stimuli/Nonsocial2.png,stimuli/Nonsocial1.png,stimuli/Test1.png,stimuli/Test2.png,"(0.7, 0.5)",cs_plus_ns,"(-0.7, 0.5)",cs_minus_ns,0,0,0,0,,,,,0,72,72,30,,341.1100271999603,l,0.7652050000615418,correct,,28,D,2023-12-14_14h20.34.259,gca_discrimination,2022.2.4,144.10592364625884,
positions.xlsx,stimuli.xlsx,test.xlsx,stimuli/Social2.png,stimuli/Social1.png,stimuli/Nonsocial2.png,stimuli/Nonsocial1.png,stimuli/Test1.png,stimuli/Test2.png,"(-0.7, 0.5)",cs_minus_ns,"(0.7, -0.5)",cs_plus_ns,0,0,0,0,,,,,0,73,73,38,,344.09607759991195,l,0.5394029000308365,correct,,28,D,2023-12-14_14h20.34.259,gca_discrimination,2022.2.4,144.10592364625884,
positions.xlsx,stimuli.xlsx,test.xlsx,stimuli/Social2.png,stimuli/Social1.png,stimuli/Nonsocial2.png,stimuli/Nonsocial1.png,stimuli/Test1.png,stimuli/Test2.png,"(-0.7, -0.5)",cs_plus_ns,"(0.7, 0.5)",cs_minus_ns,0,0,0,0,,,,,0,74,74,28,,346.9084191999864,l,0.3589568000752479,correct,,28,D,2023-12-14_14h20.34.259,gca_discrimination,2022.2.4,144.10592364625884,
positions.xlsx,stimuli.xlsx,test.xlsx,stimuli/Social2.png,stimuli/Social1.png,stimuli/Nonsocial2.png,stimuli/Nonsocial1.png,stimuli/Test1.png,stimuli/Test2.png,"(0.7, 0.5)",cs_plus_ns,"(-0.7, -0.5)",cs_plus_ns,0,0,0,0,,,,,0,75,75,79,,349.6513558999868,ä,0.3847934000659734,correct,,28,D,2023-12-14_14h20.34.259,gca_discrimination,2022.2.4,144.10592364625884,
positions.xlsx,stimuli.xlsx,test.xlsx,stimuli/Social2.png,stimuli/Social1.png,stimuli/Nonsocial2.png,stimuli/Nonsocial1.png,stimuli/Test1.png,stimuli/Test2.png,"(0.7, 0.5)",cs_plus_s,"(-0.7, 0.5)",cs_plus_s,0,0,0,0,,,,,0,76,76,54,,352.22768129990436,ä,0.5038910999428481,correct,,28,D,2023-12-14_14h20.34.259,gca_discrimination,2022.2.4,144.10592364625884,
positions.xlsx,stimuli.xlsx,test.xlsx,stimuli/Social2.png,stimuli/Social1.png,stimuli/Nonsocial2.png,stimuli/Nonsocial1.png,stimuli/Test1.png,stimuli/Test2.png,"(-0.7, -0.5)",cs_minus_s,"(0.7, 0.5)",cs_plus_s,0,0,0,0,,,,,0,77,77,16,,355.2692064999137,l,0.5582984000211582,correct,,28,D,2023-12-14_14h20.34.259,gca_discrimination,2022.2.4,144.10592364625884,
positions.xlsx,stimuli.xlsx,test.xlsx,stimuli/Social2.png,stimuli/Social1.png,stimuli/Nonsocial2.png,stimuli/Nonsocial1.png,stimuli/Test1.png,stimuli/Test2.png,"(0.7, 0.5)",cs_minus_ns,"(0.7, -0.5)",cs_plus_ns,0,0,0,0,,,,,0,78,78,44,,358.5816111000022,l,0.542832100065425,correct,,28,D,2023-12-14_14h20.34.259,gca_discrimination,2022.2.4,144.10592364625884,
positions.xlsx,stimuli.xlsx,test.xlsx,stimuli/Social2.png,stimuli/Social1.png,stimuli/Nonsocial2.png,stimuli/Nonsocial1.png,stimuli/Test1.png,stimuli/Test2.png,"(-0.7, 0.5)",cs_minus_s,"(0.7, -0.5)",cs_minus_s,0,0,0,0,,,,,0,79,79,62,,361.1509405999677,ä,0.4611518000019714,correct,,28,D,2023-12-14_14h20.34.259,gca_discrimination,2022.2.4,144.10592364625884,
positions.xlsx,stimuli.xlsx,test.xlsx,stimuli/Social2.png,stimuli/Social1.png,stimuli/Nonsocial2.png,stimuli/Nonsocial1.png,stimuli/Test1.png,stimuli/Test2.png,"(0.7, -0.5)",cs_plus_ns,"(-0.7, 0.5)",cs_minus_ns,0,0,0,0,,,,,0,80,80,33,,364.21332689991686,l,0.5670601000310853,correct,,28,D,2023-12-14_14h20.34.259,gca_discrimination,2022.2.4,144.10592364625884,
positions.xlsx,stimuli.xlsx,test.xlsx,stimuli/Social2.png,stimuli/Social1.png,stimuli/Nonsocial2.png,stimuli/Nonsocial1.png,stimuli/Test1.png,stimuli/Test2.png,"(0.7, -0.5)",cs_plus_s,"(-0.7, 0.5)",cs_minus_s,0,0,0,0,,,,,0,81,81,9,,367.2479269999312,l,0.40387099992949516,correct,,28,D,2023-12-14_14h20.34.259,gca_discrimination,2022.2.4,144.10592364625884,
positions.xlsx,stimuli.xlsx,test.xlsx,stimuli/Social2.png,stimuli/Social1.png,stimuli/Nonsocial2.png,stimuli/Nonsocial1.png,stimuli/Test1.png,stimuli/Test2.png,"(-0.7, -0.5)",cs_minus_ns,"(0.7, 0.5)",cs_plus_ns,0,0,0,0,,,,,0,82,82,40,,369.94224949995987,l,0.4146000000182539,correct,,28,D,2023-12-14_14h20.34.259,gca_discrimination,2022.2.4,144.10592364625884,
positions.xlsx,stimuli.xlsx,test.xlsx,stimuli/Social2.png,stimuli/Social1.png,stimuli/Nonsocial2.png,stimuli/Nonsocial1.png,stimuli/Test1.png,stimuli/Test2.png,"(0.7, -0.5)",cs_plus_s,"(-0.7, 0.5)",cs_plus_s,0,0,0,0,,,,,0,83,83,57,,372.69216159998905,ä,0.6078032000223175,correct,,28,D,2023-12-14_14h20.34.259,gca_discrimination,2022.2.4,144.10592364625884,
positions.xlsx,stimuli.xlsx,test.xlsx,stimuli/Social2.png,stimuli/Social1.png,stimuli/Nonsocial2.png,stimuli/Nonsocial1.png,stimuli/Test1.png,stimuli/Test2.png,"(-0.7, 0.5)",cs_minus_s,"(0.7, -0.5)",cs_plus_s,0,0,0,0,,,,,0,84,84,14,,375.9767569999676,l,0.3465584000805393,correct,,28,D,2023-12-14_14h20.34.259,gca_discrimination,2022.2.4,144.10592364625884,
positions.xlsx,stimuli.xlsx,test.xlsx,stimuli/Social2.png,stimuli/Social1.png,stimuli/Nonsocial2.png,stimuli/Nonsocial1.png,stimuli/Test1.png,stimuli/Test2.png,"(-0.7, 0.5)",cs_minus_s,"(0.7, 0.5)",cs_plus_s,0,0,0,0,,,,,0,85,85,13,,378.4141762999352,l,0.5258754999376833,correct,,28,D,2023-12-14_14h20.34.259,gca_discrimination,2022.2.4,144.10592364625884,
positions.xlsx,stimuli.xlsx,test.xlsx,stimuli/Social2.png,stimuli/Social1.png,stimuli/Nonsocial2.png,stimuli/Nonsocial1.png,stimuli/Test1.png,stimuli/Test2.png,"(-0.7, -0.5)",cs_plus_ns,"(-0.7, 0.5)",cs_minus_ns,0,0,0,0,,,,,0,86,86,27,,380.97658719995525,l,0.9228905000491068,correct,,28,D,2023-12-14_14h20.34.259,gca_discrimination,2022.2.4,144.10592364625884,
positions.xlsx,stimuli.xlsx,test.xlsx,stimuli/Social2.png,stimuli/Social1.png,stimuli/Nonsocial2.png,stimuli/Nonsocial1.png,stimuli/Test1.png,stimuli/Test2.png,"(-0.7, 0.5)",cs_plus_ns,"(-0.7, -0.5)",cs_plus_ns,0,0,0,0,,,,,0,87,87,72,,383.96257709991187,ä,0.5849711999762803,correct,,28,D,2023-12-14_14h20.34.259,gca_discrimination,2022.2.4,144.10592364625884,
positions.xlsx,stimuli.xlsx,test.xlsx,stimuli/Social2.png,stimuli/Social1.png,stimuli/Nonsocial2.png,stimuli/Nonsocial1.png,stimuli/Test1.png,stimuli/Test2.png,"(-0.7, 0.5)",cs_plus_s,"(0.7, 0.5)",cs_minus_s,0,0,0,0,,,,,0,88,88,1,,387.1846526999725,l,0.5152523000724614,correct,,28,D,2023-12-14_14h20.34.259,gca_discrimination,2022.2.4,144.10592364625884,
positions.xlsx,stimuli.xlsx,test.xlsx,stimuli/Social2.png,stimuli/Social1.png,stimuli/Nonsocial2.png,stimuli/Nonsocial1.png,stimuli/Test1.png,stimuli/Test2.png,"(-0.7, -0.5)",cs_plus_s,"(0.7, -0.5)",cs_plus_s,0,0,0,0,,,,,0,89,89,53,,389.75400829990394,ä,0.5779258999973536,correct,,28,D,2023-12-14_14h20.34.259,gca_discrimination,2022.2.4,144.10592364625884,
positions.xlsx,stimuli.xlsx,test.xlsx,stimuli/Social2.png,stimuli/Social1.png,stimuli/Nonsocial2.png,stimuli/Nonsocial1.png,stimuli/Test1.png,stimuli/Test2.png,"(-0.7, 0.5)",cs_minus_ns,"(0.7, -0.5)",cs_minus_ns,0,0,0,0,,,,,0,90,90,86,,392.7608123999089,ä,0.22670230001676828,correct,,28,D,2023-12-14_14h20.34.259,gca_discrimination,2022.2.4,144.10592364625884,
positions.xlsx,stimuli.xlsx,test.xlsx,stimuli/Social2.png,stimuli/Social1.png,stimuli/Nonsocial2.png,stimuli/Nonsocial1.png,stimuli/Test1.png,stimuli/Test2.png,"(0.7, 0.5)",cs_plus_ns,"(0.7, -0.5)",cs_plus_ns,0,0,0,0,,,,,0,91,91,80,,394.84410280000884,ä,0.36748460005037487,correct,,28,D,2023-12-14_14h20.34.259,gca_discrimination,2022.2.4,144.10592364625884,
positions.xlsx,stimuli.xlsx,test.xlsx,stimuli/Social2.png,stimuli/Social1.png,stimuli/Nonsocial2.png,stimuli/Nonsocial1.png,stimuli/Test1.png,stimuli/Test2.png,"(0.7, -0.5)",cs_plus_s,"(-0.7, -0.5)",cs_plus_s,0,0,0,0,,,,,0,92,92,58,,397.29539159999695,ä,0.30854070000350475,correct,,28,D,2023-12-14_14h20.34.259,gca_discrimination,2022.2.4,144.10592364625884,
positions.xlsx,stimuli.xlsx,test.xlsx,stimuli/Social2.png,stimuli/Social1.png,stimuli/Nonsocial2.png,stimuli/Nonsocial1.png,stimuli/Test1.png,stimuli/Test2.png,"(0.7, -0.5)",cs_minus_s,"(-0.7, -0.5)",cs_minus_s,0,0,0,0,,,,,0,93,93,70,,399.51753009995446,ä,0.5580539999064058,correct,,28,D,2023-12-14_14h20.34.259,gca_discrimination,2022.2.4,144.10592364625884,
positions.xlsx,stimuli.xlsx,test.xlsx,stimuli/Social2.png,stimuli/Social1.png,stimuli/Nonsocial2.png,stimuli/Nonsocial1.png,stimuli/Test1.png,stimuli/Test2.png,"(-0.7, 0.5)",cs_minus_s,"(0.7, 0.5)",cs_minus_s,0,0,0,0,,,,,0,94,94,61,,402.6632344999816,ä,0.2527719000354409,correct,,28,D,2023-12-14_14h20.34.259,gca_discrimination,2022.2.4,144.10592364625884,
positions.xlsx,stimuli.xlsx,test.xlsx,stimuli/Social2.png,stimuli/Social1.png,stimuli/Nonsocial2.png,stimuli/Nonsocial1.png,stimuli/Test1.png,stimuli/Test2.png,"(-0.7, 0.5)",cs_minus_ns,"(-0.7, -0.5)",cs_plus_ns,0,0,0,0,,,,,0,95,95,36,,405.53117659990676,l,0.7209361999994144,correct,,28,D,2023-12-14_14h20.34.259,gca_discrimination,2022.2.4,144.10592364625884,
