posFile,stimFile,testFile,cs_plus_s,cs_minus_s,cs_plus_ns,cs_minus_ns,test1,test2,position1,trialtype,position2,comptype,blocks.thisRepN,blocks.thisTrialN,blocks.thisN,blocks.thisIndex,learning_trials.thisRepN,learning_trials.thisTrialN,learning_trials.thisN,learning_trials.thisIndex,trials.thisRepN,trials.thisTrialN,trials.thisN,trials.thisIndex,textStart.started,key.started,key.keys,correctness,key.rt,textStartTask.started,participant,group,date,expName,psychopyVersion,frameRate,
positions.xlsx,stimuli.xlsx,test.xlsx,stimuli/Social1.png,stimuli/Social2.png,stimuli/Nonsocial1.png,stimuli/Nonsocial2.png,stimuli/Test1.png,stimuli/Test2.png,"(-0.7, -0.5)",test2,"(-0.7, 0.5)",test2,0,0,0,0,0,0,0,2,,,,,12.218311999924481,47.015590199967846,None,no answer,,,24,A,2023-12-13_16h44.23.634,gca_discrimination,2022.2.4,144.0409537406825,
positions.xlsx,stimuli.xlsx,test.xlsx,stimuli/Social1.png,stimuli/Social2.png,stimuli/Nonsocial1.png,stimuli/Nonsocial2.png,stimuli/Test1.png,stimuli/Test2.png,"(-0.7, -0.5)",test2,"(0.7, 0.5)",test2,0,0,0,0,0,1,1,7,,,,,,53.67505879991222,ä,correct,0.716007599956356,,24,A,2023-12-13_16h44.23.634,gca_discrimination,2022.2.4,144.0409537406825,
positions.xlsx,stimuli.xlsx,test.xlsx,stimuli/Social1.png,stimuli/Social2.png,stimuli/Nonsocial1.png,stimuli/Nonsocial2.png,stimuli/Test1.png,stimuli/Test2.png,"(-0.7, 0.5)",test2,"(-0.7, -0.5)",test2,0,0,0,0,0,2,2,1,,,,,,58.744295299984515,ä,correct,0.41437480004969984,,24,A,2023-12-13_16h44.23.634,gca_discrimination,2022.2.4,144.0409537406825,
positions.xlsx,stimuli.xlsx,test.xlsx,stimuli/Social1.png,stimuli/Social2.png,stimuli/Nonsocial1.png,stimuli/Nonsocial2.png,stimuli/Test1.png,stimuli/Test2.png,"(0.7, -0.5)",test1,"(0.7, 0.5)",test2,0,0,0,0,0,3,3,0,,,,,,63.93159759999253,l,correct,0.4115383999887854,,24,A,2023-12-13_16h44.23.634,gca_discrimination,2022.2.4,144.0409537406825,
positions.xlsx,stimuli.xlsx,test.xlsx,stimuli/Social1.png,stimuli/Social2.png,stimuli/Nonsocial1.png,stimuli/Nonsocial2.png,stimuli/Test1.png,stimuli/Test2.png,"(-0.7, 0.5)",test1,"(0.7, -0.5)",test1,0,0,0,0,0,4,4,5,,,,,,69.09807800000999,ä,correct,0.6451428000582382,,24,A,2023-12-13_16h44.23.634,gca_discrimination,2022.2.4,144.0409537406825,
positions.xlsx,stimuli.xlsx,test.xlsx,stimuli/Social1.png,stimuli/Social2.png,stimuli/Nonsocial1.png,stimuli/Nonsocial2.png,stimuli/Test1.png,stimuli/Test2.png,"(-0.7, 0.5)",test2,"(0.7, 0.5)",test1,0,0,0,0,0,5,5,3,,,,,,73.6464941999875,l,correct,0.46497890003956854,,24,A,2023-12-13_16h44.23.634,gca_discrimination,2022.2.4,144.0409537406825,
positions.xlsx,stimuli.xlsx,test.xlsx,stimuli/Social1.png,stimuli/Social2.png,stimuli/Nonsocial1.png,stimuli/Nonsocial2.png,stimuli/Test1.png,stimuli/Test2.png,"(-0.7, -0.5)",test2,"(0.7, -0.5)",test2,0,0,0,0,0,6,6,9,,,,,,78.19490719994064,ä,correct,0.6281683000270277,,24,A,2023-12-13_16h44.23.634,gca_discrimination,2022.2.4,144.0409537406825,
positions.xlsx,stimuli.xlsx,test.xlsx,stimuli/Social1.png,stimuli/Social2.png,stimuli/Nonsocial1.png,stimuli/Nonsocial2.png,stimuli/Test1.png,stimuli/Test2.png,"(0.7, 0.5)",test2,"(-0.7, 0.5)",test1,0,0,0,0,0,7,7,13,,,,,,83.28501579992007,l,correct,0.29124579997733235,,24,A,2023-12-13_16h44.23.634,gca_discrimination,2022.2.4,144.0409537406825,
positions.xlsx,stimuli.xlsx,test.xlsx,stimuli/Social1.png,stimuli/Social2.png,stimuli/Nonsocial1.png,stimuli/Nonsocial2.png,stimuli/Test1.png,stimuli/Test2.png,"(0.7, 0.5)",test2,"(0.7, -0.5)",test1,0,0,0,0,0,8,8,6,,,,,,88.29872449999675,l,correct,0.5080189000582322,,24,A,2023-12-13_16h44.23.634,gca_discrimination,2022.2.4,144.0409537406825,
positions.xlsx,stimuli.xlsx,test.xlsx,stimuli/Social1.png,stimuli/Social2.png,stimuli/Nonsocial1.png,stimuli/Nonsocial2.png,stimuli/Test1.png,stimuli/Test2.png,"(0.7, 0.5)",test1,"(0.7, -0.5)",test2,0,0,0,0,0,9,9,11,,,,,,92.77077840000857,l,correct,0.3004154999507591,,24,A,2023-12-13_16h44.23.634,gca_discrimination,2022.2.4,144.0409537406825,
positions.xlsx,stimuli.xlsx,test.xlsx,stimuli/Social1.png,stimuli/Social2.png,stimuli/Nonsocial1.png,stimuli/Nonsocial2.png,stimuli/Test1.png,stimuli/Test2.png,"(-0.7, 0.5)",test2,"(0.7, -0.5)",test1,0,0,0,0,0,10,10,12,,,,,,97.14560119993985,l,correct,0.41390809998847544,,24,A,2023-12-13_16h44.23.634,gca_discrimination,2022.2.4,144.0409537406825,
positions.xlsx,stimuli.xlsx,test.xlsx,stimuli/Social1.png,stimuli/Social2.png,stimuli/Nonsocial1.png,stimuli/Nonsocial2.png,stimuli/Test1.png,stimuli/Test2.png,"(0.7, -0.5)",test1,"(0.7, 0.5)",test1,0,0,0,0,0,11,11,10,,,,,,101.85375799995381,ä,correct,0.7209110999247059,,24,A,2023-12-13_16h44.23.634,gca_discrimination,2022.2.4,144.0409537406825,
positions.xlsx,stimuli.xlsx,test.xlsx,stimuli/Social1.png,stimuli/Social2.png,stimuli/Nonsocial1.png,stimuli/Nonsocial2.png,stimuli/Test1.png,stimuli/Test2.png,"(-0.7, -0.5)",test1,"(0.7, 0.5)",test2,0,0,0,0,0,12,12,8,,,,,,106.49938839999959,l,correct,0.49128079996444285,,24,A,2023-12-13_16h44.23.634,gca_discrimination,2022.2.4,144.0409537406825,
positions.xlsx,stimuli.xlsx,test.xlsx,stimuli/Social1.png,stimuli/Social2.png,stimuli/Nonsocial1.png,stimuli/Nonsocial2.png,stimuli/Test1.png,stimuli/Test2.png,"(0.7, -0.5)",test2,"(-0.7, 0.5)",test1,0,0,0,0,0,13,13,4,,,,,,111.42280840000603,l,correct,0.448812699993141,,24,A,2023-12-13_16h44.23.634,gca_discrimination,2022.2.4,144.0409537406825,
positions.xlsx,stimuli.xlsx,test.xlsx,stimuli/Social1.png,stimuli/Social2.png,stimuli/Nonsocial1.png,stimuli/Nonsocial2.png,stimuli/Test1.png,stimuli/Test2.png,"(-0.7, 0.5)",cs_plus_s,"(0.7, -0.5)",cs_plus_s,0,0,0,0,,,,,0,0,0,50,,127.79724129999522,l,wrong,0.4264656000304967,114.13801130000502,24,A,2023-12-13_16h44.23.634,gca_discrimination,2022.2.4,144.0409537406825,
positions.xlsx,stimuli.xlsx,test.xlsx,stimuli/Social1.png,stimuli/Social2.png,stimuli/Nonsocial1.png,stimuli/Nonsocial2.png,stimuli/Test1.png,stimuli/Test2.png,"(-0.7, -0.5)",cs_plus_ns,"(0.7, -0.5)",cs_plus_ns,0,0,0,0,,,,,0,1,1,77,,131.02622769994196,l,wrong,0.3491691999370232,,24,A,2023-12-13_16h44.23.634,gca_discrimination,2022.2.4,144.0409537406825,
positions.xlsx,stimuli.xlsx,test.xlsx,stimuli/Social1.png,stimuli/Social2.png,stimuli/Nonsocial1.png,stimuli/Nonsocial2.png,stimuli/Test1.png,stimuli/Test2.png,"(-0.7, -0.5)",cs_minus_s,"(0.7, -0.5)",cs_plus_s,0,0,0,0,,,,,0,2,2,17,,133.42196339997463,ä,wrong,0.41719280008692294,,24,A,2023-12-13_16h44.23.634,gca_discrimination,2022.2.4,144.0409537406825,
positions.xlsx,stimuli.xlsx,test.xlsx,stimuli/Social1.png,stimuli/Social2.png,stimuli/Nonsocial1.png,stimuli/Nonsocial2.png,stimuli/Test1.png,stimuli/Test2.png,"(0.7, 0.5)",cs_plus_ns,"(-0.7, -0.5)",cs_minus_ns,0,0,0,0,,,,,0,3,3,31,,135.71354789996985,ä,wrong,0.3979073000373319,,24,A,2023-12-13_16h44.23.634,gca_discrimination,2022.2.4,144.0409537406825,
positions.xlsx,stimuli.xlsx,test.xlsx,stimuli/Social1.png,stimuli/Social2.png,stimuli/Nonsocial1.png,stimuli/Nonsocial2.png,stimuli/Test1.png,stimuli/Test2.png,"(-0.7, 0.5)",cs_plus_s,"(0.7, 0.5)",cs_plus_s,0,0,0,0,,,,,0,4,4,49,,138.89396549994126,ä,correct,1.1930664000101388,,24,A,2023-12-13_16h44.23.634,gca_discrimination,2022.2.4,144.0409537406825,
positions.xlsx,stimuli.xlsx,test.xlsx,stimuli/Social1.png,stimuli/Social2.png,stimuli/Nonsocial1.png,stimuli/Nonsocial2.png,stimuli/Test1.png,stimuli/Test2.png,"(-0.7, 0.5)",cs_plus_ns,"(-0.7, -0.5)",cs_plus_ns,0,0,0,0,,,,,0,5,5,72,,142.35914459999185,ä,correct,0.4075424000620842,,24,A,2023-12-13_16h44.23.634,gca_discrimination,2022.2.4,144.0409537406825,
positions.xlsx,stimuli.xlsx,test.xlsx,stimuli/Social1.png,stimuli/Social2.png,stimuli/Nonsocial1.png,stimuli/Nonsocial2.png,stimuli/Test1.png,stimuli/Test2.png,"(0.7, 0.5)",cs_minus_s,"(0.7, -0.5)",cs_minus_s,0,0,0,0,,,,,0,6,6,68,,144.79652849992272,ä,correct,0.4264971000375226,,24,A,2023-12-13_16h44.23.634,gca_discrimination,2022.2.4,144.0409537406825,
positions.xlsx,stimuli.xlsx,test.xlsx,stimuli/Social1.png,stimuli/Social2.png,stimuli/Nonsocial1.png,stimuli/Nonsocial2.png,stimuli/Test1.png,stimuli/Test2.png,"(0.7, -0.5)",cs_plus_s,"(-0.7, 0.5)",cs_minus_s,0,0,0,0,,,,,0,7,7,9,,147.92835289996583,l,correct,0.34260050009470433,,24,A,2023-12-13_16h44.23.634,gca_discrimination,2022.2.4,144.0409537406825,
positions.xlsx,stimuli.xlsx,test.xlsx,stimuli/Social1.png,stimuli/Social2.png,stimuli/Nonsocial1.png,stimuli/Nonsocial2.png,stimuli/Test1.png,stimuli/Test2.png,"(0.7, 0.5)",cs_minus_s,"(-0.7, 0.5)",cs_minus_s,0,0,0,0,,,,,0,8,8,66,,151.08796259993687,ä,correct,0.39915209996979684,,24,A,2023-12-13_16h44.23.634,gca_discrimination,2022.2.4,144.0409537406825,
positions.xlsx,stimuli.xlsx,test.xlsx,stimuli/Social1.png,stimuli/Social2.png,stimuli/Nonsocial1.png,stimuli/Nonsocial2.png,stimuli/Test1.png,stimuli/Test2.png,"(-0.7, -0.5)",cs_plus_s,"(0.7, -0.5)",cs_minus_s,0,0,0,0,,,,,0,9,9,5,,153.40732180001214,ä,wrong,0.5045371999731287,,24,A,2023-12-13_16h44.23.634,gca_discrimination,2022.2.4,144.0409537406825,
positions.xlsx,stimuli.xlsx,test.xlsx,stimuli/Social1.png,stimuli/Social2.png,stimuli/Nonsocial1.png,stimuli/Nonsocial2.png,stimuli/Test1.png,stimuli/Test2.png,"(0.7, -0.5)",cs_minus_ns,"(-0.7, -0.5)",cs_minus_ns,0,0,0,0,,,,,0,10,10,94,,156.178039399907,ä,correct,1.0209280999843031,,24,A,2023-12-13_16h44.23.634,gca_discrimination,2022.2.4,144.0409537406825,
positions.xlsx,stimuli.xlsx,test.xlsx,stimuli/Social1.png,stimuli/Social2.png,stimuli/Nonsocial1.png,stimuli/Nonsocial2.png,stimuli/Test1.png,stimuli/Test2.png,"(0.7, -0.5)",cs_minus_ns,"(0.7, 0.5)",cs_plus_ns,0,0,0,0,,,,,0,11,11,47,,159.22649789997377,l,correct,0.4450050999876112,,24,A,2023-12-13_16h44.23.634,gca_discrimination,2022.2.4,144.0409537406825,
positions.xlsx,stimuli.xlsx,test.xlsx,stimuli/Social1.png,stimuli/Social2.png,stimuli/Nonsocial1.png,stimuli/Nonsocial2.png,stimuli/Test1.png,stimuli/Test2.png,"(0.7, -0.5)",cs_minus_s,"(-0.7, 0.5)",cs_minus_s,0,0,0,0,,,,,0,12,12,69,,161.90003469993826,ä,correct,0.5232490999624133,,24,A,2023-12-13_16h44.23.634,gca_discrimination,2022.2.4,144.0409537406825,
positions.xlsx,stimuli.xlsx,test.xlsx,stimuli/Social1.png,stimuli/Social2.png,stimuli/Nonsocial1.png,stimuli/Nonsocial2.png,stimuli/Test1.png,stimuli/Test2.png,"(0.7, -0.5)",cs_minus_s,"(0.7, 0.5)",cs_plus_s,0,0,0,0,,,,,0,13,13,23,,164.913816699991,l,correct,0.34170470002572984,,24,A,2023-12-13_16h44.23.634,gca_discrimination,2022.2.4,144.0409537406825,
positions.xlsx,stimuli.xlsx,test.xlsx,stimuli/Social1.png,stimuli/Social2.png,stimuli/Nonsocial1.png,stimuli/Nonsocial2.png,stimuli/Test1.png,stimuli/Test2.png,"(0.7, 0.5)",cs_minus_ns,"(-0.7, 0.5)",cs_plus_ns,0,0,0,0,,,,,0,14,14,42,,167.8650666999165,l,correct,0.5184783999575302,,24,A,2023-12-13_16h44.23.634,gca_discrimination,2022.2.4,144.0409537406825,
positions.xlsx,stimuli.xlsx,test.xlsx,stimuli/Social1.png,stimuli/Social2.png,stimuli/Nonsocial1.png,stimuli/Nonsocial2.png,stimuli/Test1.png,stimuli/Test2.png,"(0.7, -0.5)",cs_plus_s,"(0.7, 0.5)",cs_plus_s,0,0,0,0,,,,,0,15,15,59,,170.69138179998845,ä,correct,0.5958341000368819,,24,A,2023-12-13_16h44.23.634,gca_discrimination,2022.2.4,144.0409537406825,
positions.xlsx,stimuli.xlsx,test.xlsx,stimuli/Social1.png,stimuli/Social2.png,stimuli/Nonsocial1.png,stimuli/Nonsocial2.png,stimuli/Test1.png,stimuli/Test2.png,"(0.7, -0.5)",cs_minus_ns,"(-0.7, 0.5)",cs_minus_ns,0,0,0,0,,,,,0,16,16,93,,173.1982316999929,ä,correct,0.4085476000327617,,24,A,2023-12-13_16h44.23.634,gca_discrimination,2022.2.4,144.0409537406825,
positions.xlsx,stimuli.xlsx,test.xlsx,stimuli/Social1.png,stimuli/Social2.png,stimuli/Nonsocial1.png,stimuli/Nonsocial2.png,stimuli/Test1.png,stimuli/Test2.png,"(0.7, 0.5)",cs_minus_s,"(-0.7, -0.5)",cs_plus_s,0,0,0,0,,,,,0,17,17,19,,175.45507819997147,l,correct,0.2558580000186339,,24,A,2023-12-13_16h44.23.634,gca_discrimination,2022.2.4,144.0409537406825,
positions.xlsx,stimuli.xlsx,test.xlsx,stimuli/Social1.png,stimuli/Social2.png,stimuli/Nonsocial1.png,stimuli/Nonsocial2.png,stimuli/Test1.png,stimuli/Test2.png,"(-0.7, 0.5)",cs_plus_ns,"(0.7, 0.5)",cs_plus_ns,0,0,0,0,,,,,0,18,18,73,,178.34386369993445,ä,correct,0.862893300014548,,24,A,2023-12-13_16h44.23.634,gca_discrimination,2022.2.4,144.0409537406825,
positions.xlsx,stimuli.xlsx,test.xlsx,stimuli/Social1.png,stimuli/Social2.png,stimuli/Nonsocial1.png,stimuli/Nonsocial2.png,stimuli/Test1.png,stimuli/Test2.png,"(0.7, 0.5)",cs_minus_ns,"(0.7, -0.5)",cs_minus_ns,0,0,0,0,,,,,0,19,19,92,,181.4687240999192,ä,correct,0.45054699992761016,,24,A,2023-12-13_16h44.23.634,gca_discrimination,2022.2.4,144.0409537406825,
positions.xlsx,stimuli.xlsx,test.xlsx,stimuli/Social1.png,stimuli/Social2.png,stimuli/Nonsocial1.png,stimuli/Nonsocial2.png,stimuli/Test1.png,stimuli/Test2.png,"(-0.7, -0.5)",cs_plus_s,"(-0.7, 0.5)",cs_minus_s,0,0,0,0,,,,,0,20,20,3,,184.55197689996567,l,correct,0.29589880001731217,,24,A,2023-12-13_16h44.23.634,gca_discrimination,2022.2.4,144.0409537406825,
positions.xlsx,stimuli.xlsx,test.xlsx,stimuli/Social1.png,stimuli/Social2.png,stimuli/Nonsocial1.png,stimuli/Nonsocial2.png,stimuli/Test1.png,stimuli/Test2.png,"(-0.7, -0.5)",cs_minus_s,"(0.7, -0.5)",cs_minus_s,0,0,0,0,,,,,0,21,21,65,,187.19768459990155,ä,correct,0.6020557000301778,,24,A,2023-12-13_16h44.23.634,gca_discrimination,2022.2.4,144.0409537406825,
positions.xlsx,stimuli.xlsx,test.xlsx,stimuli/Social1.png,stimuli/Social2.png,stimuli/Nonsocial1.png,stimuli/Nonsocial2.png,stimuli/Test1.png,stimuli/Test2.png,"(-0.7, 0.5)",cs_minus_ns,"(0.7, 0.5)",cs_plus_ns,0,0,0,0,,,,,0,22,22,37,,189.829545399989,l,correct,0.3455606000497937,,24,A,2023-12-13_16h44.23.634,gca_discrimination,2022.2.4,144.0409537406825,
positions.xlsx,stimuli.xlsx,test.xlsx,stimuli/Social1.png,stimuli/Social2.png,stimuli/Nonsocial1.png,stimuli/Nonsocial2.png,stimuli/Test1.png,stimuli/Test2.png,"(0.7, 0.5)",cs_plus_s,"(0.7, -0.5)",cs_plus_s,0,0,0,0,,,,,0,23,23,56,,192.09333519998472,ä,correct,0.3626920999959111,,24,A,2023-12-13_16h44.23.634,gca_discrimination,2022.2.4,144.0409537406825,
positions.xlsx,stimuli.xlsx,test.xlsx,stimuli/Social1.png,stimuli/Social2.png,stimuli/Nonsocial1.png,stimuli/Nonsocial2.png,stimuli/Test1.png,stimuli/Test2.png,"(-0.7, -0.5)",cs_plus_ns,"(-0.7, 0.5)",cs_plus_ns,0,0,0,0,,,,,0,24,24,75,,194.697405599989,l,wrong,0.4059806000441313,,24,A,2023-12-13_16h44.23.634,gca_discrimination,2022.2.4,144.0409537406825,
positions.xlsx,stimuli.xlsx,test.xlsx,stimuli/Social1.png,stimuli/Social2.png,stimuli/Nonsocial1.png,stimuli/Nonsocial2.png,stimuli/Test1.png,stimuli/Test2.png,"(0.7, 0.5)",cs_minus_s,"(-0.7, 0.5)",cs_plus_s,0,0,0,0,,,,,0,25,25,18,,197.25285879999865,l,correct,0.44203599996399134,,24,A,2023-12-13_16h44.23.634,gca_discrimination,2022.2.4,144.0409537406825,
positions.xlsx,stimuli.xlsx,test.xlsx,stimuli/Social1.png,stimuli/Social2.png,stimuli/Nonsocial1.png,stimuli/Nonsocial2.png,stimuli/Test1.png,stimuli/Test2.png,"(0.7, 0.5)",cs_plus_s,"(0.7, -0.5)",cs_minus_s,0,0,0,0,,,,,0,26,26,8,,200.44024519994855,l,correct,0.4070689999498427,,24,A,2023-12-13_16h44.23.634,gca_discrimination,2022.2.4,144.0409537406825,
positions.xlsx,stimuli.xlsx,test.xlsx,stimuli/Social1.png,stimuli/Social2.png,stimuli/Nonsocial1.png,stimuli/Nonsocial2.png,stimuli/Test1.png,stimuli/Test2.png,"(-0.7, -0.5)",cs_minus_s,"(0.7, 0.5)",cs_minus_s,0,0,0,0,,,,,0,27,27,64,,203.63456449995283,ä,correct,0.4367907999549061,,24,A,2023-12-13_16h44.23.634,gca_discrimination,2022.2.4,144.0409537406825,
positions.xlsx,stimuli.xlsx,test.xlsx,stimuli/Social1.png,stimuli/Social2.png,stimuli/Nonsocial1.png,stimuli/Nonsocial2.png,stimuli/Test1.png,stimuli/Test2.png,"(0.7, -0.5)",cs_minus_s,"(0.7, 0.5)",cs_minus_s,0,0,0,0,,,,,0,28,28,71,,206.73164779995568,ä,correct,0.4276391000021249,,24,A,2023-12-13_16h44.23.634,gca_discrimination,2022.2.4,144.0409537406825,
positions.xlsx,stimuli.xlsx,test.xlsx,stimuli/Social1.png,stimuli/Social2.png,stimuli/Nonsocial1.png,stimuli/Nonsocial2.png,stimuli/Test1.png,stimuli/Test2.png,"(0.7, -0.5)",cs_plus_s,"(-0.7, 0.5)",cs_plus_s,0,0,0,0,,,,,0,29,29,57,,209.73152839997783,ä,correct,0.44334410002920777,,24,A,2023-12-13_16h44.23.634,gca_discrimination,2022.2.4,144.0409537406825,
positions.xlsx,stimuli.xlsx,test.xlsx,stimuli/Social1.png,stimuli/Social2.png,stimuli/Nonsocial1.png,stimuli/Nonsocial2.png,stimuli/Test1.png,stimuli/Test2.png,"(-0.7, -0.5)",cs_plus_ns,"(0.7, -0.5)",cs_minus_ns,0,0,0,0,,,,,0,30,30,29,,212.48144999996293,l,correct,0.4220561000984162,,24,A,2023-12-13_16h44.23.634,gca_discrimination,2022.2.4,144.0409537406825,
positions.xlsx,stimuli.xlsx,test.xlsx,stimuli/Social1.png,stimuli/Social2.png,stimuli/Nonsocial1.png,stimuli/Nonsocial2.png,stimuli/Test1.png,stimuli/Test2.png,"(0.7, -0.5)",cs_plus_ns,"(-0.7, -0.5)",cs_minus_ns,0,0,0,0,,,,,0,31,31,34,,215.59243499999866,l,correct,0.5107345000142232,,24,A,2023-12-13_16h44.23.634,gca_discrimination,2022.2.4,144.0409537406825,
positions.xlsx,stimuli.xlsx,test.xlsx,stimuli/Social1.png,stimuli/Social2.png,stimuli/Nonsocial1.png,stimuli/Nonsocial2.png,stimuli/Test1.png,stimuli/Test2.png,"(0.7, -0.5)",cs_plus_s,"(-0.7, -0.5)",cs_plus_s,0,0,0,0,,,,,0,32,32,58,,218.0298574999906,ä,correct,0.9052676999708638,,24,A,2023-12-13_16h44.23.634,gca_discrimination,2022.2.4,144.0409537406825,
positions.xlsx,stimuli.xlsx,test.xlsx,stimuli/Social1.png,stimuli/Social2.png,stimuli/Nonsocial1.png,stimuli/Nonsocial2.png,stimuli/Test1.png,stimuli/Test2.png,"(0.7, 0.5)",cs_plus_ns,"(0.7, -0.5)",cs_minus_ns,0,0,0,0,,,,,0,33,33,32,,221.69636689999606,l,correct,0.47153129999060184,,24,A,2023-12-13_16h44.23.634,gca_discrimination,2022.2.4,144.0409537406825,
positions.xlsx,stimuli.xlsx,test.xlsx,stimuli/Social1.png,stimuli/Social2.png,stimuli/Nonsocial1.png,stimuli/Nonsocial2.png,stimuli/Test1.png,stimuli/Test2.png,"(0.7, 0.5)",cs_plus_s,"(-0.7, 0.5)",cs_plus_s,0,0,0,0,,,,,0,34,34,54,,224.05736109998543,ä,correct,0.5585411000065506,,24,A,2023-12-13_16h44.23.634,gca_discrimination,2022.2.4,144.0409537406825,
positions.xlsx,stimuli.xlsx,test.xlsx,stimuli/Social1.png,stimuli/Social2.png,stimuli/Nonsocial1.png,stimuli/Nonsocial2.png,stimuli/Test1.png,stimuli/Test2.png,"(-0.7, -0.5)",cs_plus_ns,"(-0.7, 0.5)",cs_minus_ns,0,0,0,0,,,,,0,35,35,27,,227.35587589989882,l,correct,0.6757713999832049,,24,A,2023-12-13_16h44.23.634,gca_discrimination,2022.2.4,144.0409537406825,
positions.xlsx,stimuli.xlsx,test.xlsx,stimuli/Social1.png,stimuli/Social2.png,stimuli/Nonsocial1.png,stimuli/Nonsocial2.png,stimuli/Test1.png,stimuli/Test2.png,"(-0.7, 0.5)",cs_plus_s,"(-0.7, -0.5)",cs_plus_s,0,0,0,0,,,,,0,36,36,48,,230.5849317999091,l,wrong,0.7272611999651417,,24,A,2023-12-13_16h44.23.634,gca_discrimination,2022.2.4,144.0409537406825,
positions.xlsx,stimuli.xlsx,test.xlsx,stimuli/Social1.png,stimuli/Social2.png,stimuli/Nonsocial1.png,stimuli/Nonsocial2.png,stimuli/Test1.png,stimuli/Test2.png,"(-0.7, -0.5)",cs_minus_s,"(-0.7, 0.5)",cs_minus_s,0,0,0,0,,,,,0,37,37,63,,234.0917005999945,ä,correct,0.8111678999848664,,24,A,2023-12-13_16h44.23.634,gca_discrimination,2022.2.4,144.0409537406825,
positions.xlsx,stimuli.xlsx,test.xlsx,stimuli/Social1.png,stimuli/Social2.png,stimuli/Nonsocial1.png,stimuli/Nonsocial2.png,stimuli/Test1.png,stimuli/Test2.png,"(-0.7, 0.5)",cs_plus_ns,"(-0.7, -0.5)",cs_minus_ns,0,0,0,0,,,,,0,38,38,24,,237.5638207999291,l,correct,0.3403355999616906,,24,A,2023-12-13_16h44.23.634,gca_discrimination,2022.2.4,144.0409537406825,
positions.xlsx,stimuli.xlsx,test.xlsx,stimuli/Social1.png,stimuli/Social2.png,stimuli/Nonsocial1.png,stimuli/Nonsocial2.png,stimuli/Test1.png,stimuli/Test2.png,"(-0.7, 0.5)",cs_minus_s,"(0.7, -0.5)",cs_minus_s,0,0,0,0,,,,,0,39,39,62,,240.50813339999877,ä,correct,0.8590183999622241,,24,A,2023-12-13_16h44.23.634,gca_discrimination,2022.2.4,144.0409537406825,
positions.xlsx,stimuli.xlsx,test.xlsx,stimuli/Social1.png,stimuli/Social2.png,stimuli/Nonsocial1.png,stimuli/Nonsocial2.png,stimuli/Test1.png,stimuli/Test2.png,"(-0.7, 0.5)",cs_plus_s,"(0.7, 0.5)",cs_minus_s,0,0,0,0,,,,,0,40,40,1,,243.71632839995436,l,correct,0.7234183999244124,,24,A,2023-12-13_16h44.23.634,gca_discrimination,2022.2.4,144.0409537406825,
positions.xlsx,stimuli.xlsx,test.xlsx,stimuli/Social1.png,stimuli/Social2.png,stimuli/Nonsocial1.png,stimuli/Nonsocial2.png,stimuli/Test1.png,stimuli/Test2.png,"(0.7, -0.5)",cs_minus_ns,"(-0.7, -0.5)",cs_plus_ns,0,0,0,0,,,,,0,41,41,46,,247.11204569996335,l,correct,0.2871971999993548,,24,A,2023-12-13_16h44.23.634,gca_discrimination,2022.2.4,144.0409537406825,
positions.xlsx,stimuli.xlsx,test.xlsx,stimuli/Social1.png,stimuli/Social2.png,stimuli/Nonsocial1.png,stimuli/Nonsocial2.png,stimuli/Test1.png,stimuli/Test2.png,"(0.7, 0.5)",cs_plus_ns,"(-0.7, 0.5)",cs_minus_ns,0,0,0,0,,,,,0,42,42,30,,249.5217445999151,l,correct,0.2624747999943793,,24,A,2023-12-13_16h44.23.634,gca_discrimination,2022.2.4,144.0409537406825,
positions.xlsx,stimuli.xlsx,test.xlsx,stimuli/Social1.png,stimuli/Social2.png,stimuli/Nonsocial1.png,stimuli/Nonsocial2.png,stimuli/Test1.png,stimuli/Test2.png,"(-0.7, 0.5)",cs_minus_ns,"(-0.7, -0.5)",cs_minus_ns,0,0,0,0,,,,,0,43,43,84,,252.36879889992997,ä,correct,0.43180169991683215,,24,A,2023-12-13_16h44.23.634,gca_discrimination,2022.2.4,144.0409537406825,
positions.xlsx,stimuli.xlsx,test.xlsx,stimuli/Social1.png,stimuli/Social2.png,stimuli/Nonsocial1.png,stimuli/Nonsocial2.png,stimuli/Test1.png,stimuli/Test2.png,"(-0.7, 0.5)",cs_minus_s,"(0.7, 0.5)",cs_minus_s,0,0,0,0,,,,,0,44,44,61,,255.54231539997272,ä,correct,1.497580600087531,,24,A,2023-12-13_16h44.23.634,gca_discrimination,2022.2.4,144.0409537406825,
positions.xlsx,stimuli.xlsx,test.xlsx,stimuli/Social1.png,stimuli/Social2.png,stimuli/Nonsocial1.png,stimuli/Nonsocial2.png,stimuli/Test1.png,stimuli/Test2.png,"(0.7, -0.5)",cs_minus_ns,"(-0.7, 0.5)",cs_plus_ns,0,0,0,0,,,,,0,45,45,45,,259.59766279999167,l,correct,0.3217068000230938,,24,A,2023-12-13_16h44.23.634,gca_discrimination,2022.2.4,144.0409537406825,
positions.xlsx,stimuli.xlsx,test.xlsx,stimuli/Social1.png,stimuli/Social2.png,stimuli/Nonsocial1.png,stimuli/Nonsocial2.png,stimuli/Test1.png,stimuli/Test2.png,"(-0.7, 0.5)",cs_minus_s,"(0.7, -0.5)",cs_plus_s,0,0,0,0,,,,,0,46,46,14,,261.9726104999427,l,correct,0.5941901999758556,,24,A,2023-12-13_16h44.23.634,gca_discrimination,2022.2.4,144.0409537406825,
positions.xlsx,stimuli.xlsx,test.xlsx,stimuli/Social1.png,stimuli/Social2.png,stimuli/Nonsocial1.png,stimuli/Nonsocial2.png,stimuli/Test1.png,stimuli/Test2.png,"(-0.7, -0.5)",cs_minus_ns,"(0.7, 0.5)",cs_plus_ns,0,0,0,0,,,,,0,47,47,40,,265.0557957999408,l,correct,0.29556399991270155,,24,A,2023-12-13_16h44.23.634,gca_discrimination,2022.2.4,144.0409537406825,
positions.xlsx,stimuli.xlsx,test.xlsx,stimuli/Social1.png,stimuli/Social2.png,stimuli/Nonsocial1.png,stimuli/Nonsocial2.png,stimuli/Test1.png,stimuli/Test2.png,"(0.7, -0.5)",cs_minus_s,"(-0.7, -0.5)",cs_minus_s,0,0,0,0,,,,,0,48,48,70,,267.9029201999074,l,wrong,0.39271459996234626,,24,A,2023-12-13_16h44.23.634,gca_discrimination,2022.2.4,144.0409537406825,
positions.xlsx,stimuli.xlsx,test.xlsx,stimuli/Social1.png,stimuli/Social2.png,stimuli/Nonsocial1.png,stimuli/Nonsocial2.png,stimuli/Test1.png,stimuli/Test2.png,"(-0.7, 0.5)",cs_minus_s,"(-0.7, -0.5)",cs_minus_s,0,0,0,0,,,,,0,49,49,60,,270.34032409999054,ä,correct,0.7069430000847206,,24,A,2023-12-13_16h44.23.634,gca_discrimination,2022.2.4,144.0409537406825,
positions.xlsx,stimuli.xlsx,test.xlsx,stimuli/Social1.png,stimuli/Social2.png,stimuli/Nonsocial1.png,stimuli/Nonsocial2.png,stimuli/Test1.png,stimuli/Test2.png,"(0.7, -0.5)",cs_minus_ns,"(0.7, 0.5)",cs_minus_ns,0,0,0,0,,,,,0,50,50,95,,273.44440349994693,ä,correct,0.6744060999481007,,24,A,2023-12-13_16h44.23.634,gca_discrimination,2022.2.4,144.0409537406825,
positions.xlsx,stimuli.xlsx,test.xlsx,stimuli/Social1.png,stimuli/Social2.png,stimuli/Nonsocial1.png,stimuli/Nonsocial2.png,stimuli/Test1.png,stimuli/Test2.png,"(0.7, 0.5)",cs_plus_ns,"(-0.7, 0.5)",cs_plus_ns,0,0,0,0,,,,,0,51,51,78,,276.54151579993777,l,wrong,1.089888299931772,,24,A,2023-12-13_16h44.23.634,gca_discrimination,2022.2.4,144.0409537406825,
positions.xlsx,stimuli.xlsx,test.xlsx,stimuli/Social1.png,stimuli/Social2.png,stimuli/Nonsocial1.png,stimuli/Nonsocial2.png,stimuli/Test1.png,stimuli/Test2.png,"(0.7, 0.5)",cs_plus_s,"(-0.7, -0.5)",cs_minus_s,0,0,0,0,,,,,0,52,52,7,,279.52052799996454,l,correct,0.6227176000829786,,24,A,2023-12-13_16h44.23.634,gca_discrimination,2022.2.4,144.0409537406825,
positions.xlsx,stimuli.xlsx,test.xlsx,stimuli/Social1.png,stimuli/Social2.png,stimuli/Nonsocial1.png,stimuli/Nonsocial2.png,stimuli/Test1.png,stimuli/Test2.png,"(0.7, -0.5)",cs_plus_ns,"(-0.7, 0.5)",cs_plus_ns,0,0,0,0,,,,,0,53,53,81,,282.8189879999263,ä,correct,0.7078490999992937,,24,A,2023-12-13_16h44.23.634,gca_discrimination,2022.2.4,144.0409537406825,
positions.xlsx,stimuli.xlsx,test.xlsx,stimuli/Social1.png,stimuli/Social2.png,stimuli/Nonsocial1.png,stimuli/Nonsocial2.png,stimuli/Test1.png,stimuli/Test2.png,"(-0.7, -0.5)",cs_minus_ns,"(0.7, -0.5)",cs_minus_ns,0,0,0,0,,,,,0,54,54,89,,286.0550062999828,l,wrong,0.48871320008765906,,24,A,2023-12-13_16h44.23.634,gca_discrimination,2022.2.4,144.0409537406825,
positions.xlsx,stimuli.xlsx,test.xlsx,stimuli/Social1.png,stimuli/Social2.png,stimuli/Nonsocial1.png,stimuli/Nonsocial2.png,stimuli/Test1.png,stimuli/Test2.png,"(-0.7, -0.5)",cs_minus_s,"(0.7, 0.5)",cs_plus_s,0,0,0,0,,,,,0,55,55,16,,288.65906330000143,l,correct,0.563941300031729,,24,A,2023-12-13_16h44.23.634,gca_discrimination,2022.2.4,144.0409537406825,
positions.xlsx,stimuli.xlsx,test.xlsx,stimuli/Social1.png,stimuli/Social2.png,stimuli/Nonsocial1.png,stimuli/Nonsocial2.png,stimuli/Test1.png,stimuli/Test2.png,"(0.7, 0.5)",cs_plus_s,"(-0.7, 0.5)",cs_minus_s,0,0,0,0,,,,,0,56,56,6,,291.62422569992486,l,correct,0.9910151999210939,,24,A,2023-12-13_16h44.23.634,gca_discrimination,2022.2.4,144.0409537406825,
positions.xlsx,stimuli.xlsx,test.xlsx,stimuli/Social1.png,stimuli/Social2.png,stimuli/Nonsocial1.png,stimuli/Nonsocial2.png,stimuli/Test1.png,stimuli/Test2.png,"(-0.7, -0.5)",cs_plus_s,"(0.7, -0.5)",cs_plus_s,0,0,0,0,,,,,0,57,57,53,,294.99913030001335,ä,correct,0.3679156999569386,,24,A,2023-12-13_16h44.23.634,gca_discrimination,2022.2.4,144.0409537406825,
positions.xlsx,stimuli.xlsx,test.xlsx,stimuli/Social1.png,stimuli/Social2.png,stimuli/Nonsocial1.png,stimuli/Nonsocial2.png,stimuli/Test1.png,stimuli/Test2.png,"(0.7, 0.5)",cs_minus_ns,"(0.7, -0.5)",cs_plus_ns,0,0,0,0,,,,,0,58,58,44,,298.01284609991126,l,correct,0.47509680001530796,,24,A,2023-12-13_16h44.23.634,gca_discrimination,2022.2.4,144.0409537406825,
positions.xlsx,stimuli.xlsx,test.xlsx,stimuli/Social1.png,stimuli/Social2.png,stimuli/Nonsocial1.png,stimuli/Nonsocial2.png,stimuli/Test1.png,stimuli/Test2.png,"(0.7, 0.5)",cs_minus_s,"(0.7, -0.5)",cs_plus_s,0,0,0,0,,,,,0,59,59,20,,301.0752518000081,l,correct,0.3807669000234455,,24,A,2023-12-13_16h44.23.634,gca_discrimination,2022.2.4,144.0409537406825,
positions.xlsx,stimuli.xlsx,test.xlsx,stimuli/Social1.png,stimuli/Social2.png,stimuli/Nonsocial1.png,stimuli/Nonsocial2.png,stimuli/Test1.png,stimuli/Test2.png,"(-0.7, -0.5)",cs_plus_s,"(-0.7, 0.5)",cs_plus_s,0,0,0,0,,,,,0,60,60,51,,304.1445782999508,ä,correct,0.45494279998820275,,24,A,2023-12-13_16h44.23.634,gca_discrimination,2022.2.4,144.0409537406825,
positions.xlsx,stimuli.xlsx,test.xlsx,stimuli/Social1.png,stimuli/Social2.png,stimuli/Nonsocial1.png,stimuli/Nonsocial2.png,stimuli/Test1.png,stimuli/Test2.png,"(-0.7, -0.5)",cs_minus_ns,"(0.7, -0.5)",cs_plus_ns,0,0,0,0,,,,,0,61,61,41,,307.24169239995535,l,correct,0.9171506999991834,,24,A,2023-12-13_16h44.23.634,gca_discrimination,2022.2.4,144.0409537406825,
positions.xlsx,stimuli.xlsx,test.xlsx,stimuli/Social1.png,stimuli/Social2.png,stimuli/Nonsocial1.png,stimuli/Nonsocial2.png,stimuli/Test1.png,stimuli/Test2.png,"(0.7, -0.5)",cs_minus_s,"(-0.7, -0.5)",cs_plus_s,0,0,0,0,,,,,0,62,62,22,,310.7901415999513,l,correct,0.553050099988468,,24,A,2023-12-13_16h44.23.634,gca_discrimination,2022.2.4,144.0409537406825,
positions.xlsx,stimuli.xlsx,test.xlsx,stimuli/Social1.png,stimuli/Social2.png,stimuli/Nonsocial1.png,stimuli/Nonsocial2.png,stimuli/Test1.png,stimuli/Test2.png,"(-0.7, 0.5)",cs_minus_s,"(0.7, 0.5)",cs_plus_s,0,0,0,0,,,,,0,63,63,13,,313.74838539992925,l,correct,0.5628339999821037,,24,A,2023-12-13_16h44.23.634,gca_discrimination,2022.2.4,144.0409537406825,
positions.xlsx,stimuli.xlsx,test.xlsx,stimuli/Social1.png,stimuli/Social2.png,stimuli/Nonsocial1.png,stimuli/Nonsocial2.png,stimuli/Test1.png,stimuli/Test2.png,"(0.7, -0.5)",cs_plus_s,"(0.7, 0.5)",cs_minus_s,0,0,0,0,,,,,0,64,64,11,,316.92882109992206,l,correct,0.5828951000003144,,24,A,2023-12-13_16h44.23.634,gca_discrimination,2022.2.4,144.0409537406825,
positions.xlsx,stimuli.xlsx,test.xlsx,stimuli/Social1.png,stimuli/Social2.png,stimuli/Nonsocial1.png,stimuli/Nonsocial2.png,stimuli/Test1.png,stimuli/Test2.png,"(-0.7, 0.5)",cs_plus_s,"(0.7, -0.5)",cs_minus_s,0,0,0,0,,,,,0,65,65,2,,319.4009227999486,l,correct,0.51880900003016,,24,A,2023-12-13_16h44.23.634,gca_discrimination,2022.2.4,144.0409537406825,
positions.xlsx,stimuli.xlsx,test.xlsx,stimuli/Social1.png,stimuli/Social2.png,stimuli/Nonsocial1.png,stimuli/Nonsocial2.png,stimuli/Test1.png,stimuli/Test2.png,"(0.7, 0.5)",cs_minus_ns,"(-0.7, -0.5)",cs_plus_ns,0,0,0,0,,,,,0,66,66,43,,321.89388949994463,l,correct,0.7848821999505162,,24,A,2023-12-13_16h44.23.634,gca_discrimination,2022.2.4,144.0409537406825,
positions.xlsx,stimuli.xlsx,test.xlsx,stimuli/Social1.png,stimuli/Social2.png,stimuli/Nonsocial1.png,stimuli/Nonsocial2.png,stimuli/Test1.png,stimuli/Test2.png,"(0.7, -0.5)",cs_plus_ns,"(0.7, 0.5)",cs_minus_ns,0,0,0,0,,,,,0,67,67,35,,325.47707459994126,l,correct,0.6341586000053212,,24,A,2023-12-13_16h44.23.634,gca_discrimination,2022.2.4,144.0409537406825,
positions.xlsx,stimuli.xlsx,test.xlsx,stimuli/Social1.png,stimuli/Social2.png,stimuli/Nonsocial1.png,stimuli/Nonsocial2.png,stimuli/Test1.png,stimuli/Test2.png,"(0.7, -0.5)",cs_plus_ns,"(-0.7, -0.5)",cs_plus_ns,0,0,0,0,,,,,0,68,68,82,,328.84503859991673,ä,correct,0.44995579996611923,,24,A,2023-12-13_16h44.23.634,gca_discrimination,2022.2.4,144.0409537406825,
positions.xlsx,stimuli.xlsx,test.xlsx,stimuli/Social1.png,stimuli/Social2.png,stimuli/Nonsocial1.png,stimuli/Nonsocial2.png,stimuli/Test1.png,stimuli/Test2.png,"(-0.7, -0.5)",cs_minus_ns,"(-0.7, 0.5)",cs_plus_ns,0,0,0,0,,,,,0,69,69,39,,331.3727039999794,l,correct,0.7790280000772327,,24,A,2023-12-13_16h44.23.634,gca_discrimination,2022.2.4,144.0409537406825,
positions.xlsx,stimuli.xlsx,test.xlsx,stimuli/Social1.png,stimuli/Social2.png,stimuli/Nonsocial1.png,stimuli/Nonsocial2.png,stimuli/Test1.png,stimuli/Test2.png,"(-0.7, 0.5)",cs_plus_ns,"(0.7, -0.5)",cs_plus_ns,0,0,0,0,,,,,0,70,70,74,,334.3795312999282,ä,correct,0.8203613000223413,,24,A,2023-12-13_16h44.23.634,gca_discrimination,2022.2.4,144.0409537406825,
positions.xlsx,stimuli.xlsx,test.xlsx,stimuli/Social1.png,stimuli/Social2.png,stimuli/Nonsocial1.png,stimuli/Nonsocial2.png,stimuli/Test1.png,stimuli/Test2.png,"(-0.7, 0.5)",cs_minus_ns,"(0.7, -0.5)",cs_plus_ns,0,0,0,0,,,,,0,71,71,38,,337.03226279991213,l,correct,1.6153894999297336,,24,A,2023-12-13_16h44.23.634,gca_discrimination,2022.2.4,144.0409537406825,
positions.xlsx,stimuli.xlsx,test.xlsx,stimuli/Social1.png,stimuli/Social2.png,stimuli/Nonsocial1.png,stimuli/Nonsocial2.png,stimuli/Test1.png,stimuli/Test2.png,"(-0.7, -0.5)",cs_plus_ns,"(0.7, 0.5)",cs_minus_ns,0,0,0,0,,,,,0,72,72,28,,341.3723337999545,l,correct,1.5952276000753045,,24,A,2023-12-13_16h44.23.634,gca_discrimination,2022.2.4,144.0409537406825,
positions.xlsx,stimuli.xlsx,test.xlsx,stimuli/Social1.png,stimuli/Social2.png,stimuli/Nonsocial1.png,stimuli/Nonsocial2.png,stimuli/Test1.png,stimuli/Test2.png,"(-0.7, 0.5)",cs_plus_s,"(-0.7, -0.5)",cs_minus_s,0,0,0,0,,,,,0,73,73,0,,345.5943590999814,l,correct,0.676634700037539,,24,A,2023-12-13_16h44.23.634,gca_discrimination,2022.2.4,144.0409537406825,
positions.xlsx,stimuli.xlsx,test.xlsx,stimuli/Social1.png,stimuli/Social2.png,stimuli/Nonsocial1.png,stimuli/Nonsocial2.png,stimuli/Test1.png,stimuli/Test2.png,"(-0.7, 0.5)",cs_plus_ns,"(0.7, -0.5)",cs_minus_ns,0,0,0,0,,,,,0,74,74,26,,348.29565270000603,l,correct,0.3832383999833837,,24,A,2023-12-13_16h44.23.634,gca_discrimination,2022.2.4,144.0409537406825,
positions.xlsx,stimuli.xlsx,test.xlsx,stimuli/Social1.png,stimuli/Social2.png,stimuli/Nonsocial1.png,stimuli/Nonsocial2.png,stimuli/Test1.png,stimuli/Test2.png,"(-0.7, -0.5)",cs_plus_s,"(0.7, 0.5)",cs_minus_s,0,0,0,0,,,,,0,75,75,4,,351.4622119999258,l,correct,0.776947999955155,,24,A,2023-12-13_16h44.23.634,gca_discrimination,2022.2.4,144.0409537406825,
positions.xlsx,stimuli.xlsx,test.xlsx,stimuli/Social1.png,stimuli/Social2.png,stimuli/Nonsocial1.png,stimuli/Nonsocial2.png,stimuli/Test1.png,stimuli/Test2.png,"(0.7, -0.5)",cs_plus_s,"(-0.7, -0.5)",cs_minus_s,0,0,0,0,,,,,0,76,76,10,,354.5593114999356,l,correct,0.4241959999781102,,24,A,2023-12-13_16h44.23.634,gca_discrimination,2022.2.4,144.0409537406825,
positions.xlsx,stimuli.xlsx,test.xlsx,stimuli/Social1.png,stimuli/Social2.png,stimuli/Nonsocial1.png,stimuli/Nonsocial2.png,stimuli/Test1.png,stimuli/Test2.png,"(-0.7, -0.5)",cs_minus_ns,"(-0.7, 0.5)",cs_minus_ns,0,0,0,0,,,,,0,77,77,87,,357.2258761000121,ä,correct,0.429212799994275,,24,A,2023-12-13_16h44.23.634,gca_discrimination,2022.2.4,144.0409537406825,
positions.xlsx,stimuli.xlsx,test.xlsx,stimuli/Social1.png,stimuli/Social2.png,stimuli/Nonsocial1.png,stimuli/Nonsocial2.png,stimuli/Test1.png,stimuli/Test2.png,"(0.7, 0.5)",cs_minus_s,"(-0.7, -0.5)",cs_minus_s,0,0,0,0,,,,,0,78,78,67,,360.1215981999412,ä,correct,0.6062166999327019,,24,A,2023-12-13_16h44.23.634,gca_discrimination,2022.2.4,144.0409537406825,
positions.xlsx,stimuli.xlsx,test.xlsx,stimuli/Social1.png,stimuli/Social2.png,stimuli/Nonsocial1.png,stimuli/Nonsocial2.png,stimuli/Test1.png,stimuli/Test2.png,"(-0.7, 0.5)",cs_plus_ns,"(0.7, 0.5)",cs_minus_ns,0,0,0,0,,,,,0,79,79,25,,363.42009869997855,l,correct,1.0525554000632837,,24,A,2023-12-13_16h44.23.634,gca_discrimination,2022.2.4,144.0409537406825,
positions.xlsx,stimuli.xlsx,test.xlsx,stimuli/Social1.png,stimuli/Social2.png,stimuli/Nonsocial1.png,stimuli/Nonsocial2.png,stimuli/Test1.png,stimuli/Test2.png,"(-0.7, 0.5)",cs_minus_ns,"(0.7, -0.5)",cs_minus_ns,0,0,0,0,,,,,0,80,80,86,,367.04495639994275,l,wrong,0.6752035999670625,,24,A,2023-12-13_16h44.23.634,gca_discrimination,2022.2.4,144.0409537406825,
positions.xlsx,stimuli.xlsx,test.xlsx,stimuli/Social1.png,stimuli/Social2.png,stimuli/Nonsocial1.png,stimuli/Nonsocial2.png,stimuli/Test1.png,stimuli/Test2.png,"(-0.7, 0.5)",cs_minus_s,"(-0.7, -0.5)",cs_plus_s,0,0,0,0,,,,,0,81,81,12,,369.7601419999264,ä,wrong,0.4228500999743119,,24,A,2023-12-13_16h44.23.634,gca_discrimination,2022.2.4,144.0409537406825,
positions.xlsx,stimuli.xlsx,test.xlsx,stimuli/Social1.png,stimuli/Social2.png,stimuli/Nonsocial1.png,stimuli/Nonsocial2.png,stimuli/Test1.png,stimuli/Test2.png,"(0.7, 0.5)",cs_plus_ns,"(0.7, -0.5)",cs_plus_ns,0,0,0,0,,,,,0,82,82,80,,372.6627664999105,l,wrong,0.46461020002607256,,24,A,2023-12-13_16h44.23.634,gca_discrimination,2022.2.4,144.0409537406825,
positions.xlsx,stimuli.xlsx,test.xlsx,stimuli/Social1.png,stimuli/Social2.png,stimuli/Nonsocial1.png,stimuli/Nonsocial2.png,stimuli/Test1.png,stimuli/Test2.png,"(0.7, -0.5)",cs_minus_s,"(-0.7, 0.5)",cs_plus_s,0,0,0,0,,,,,0,83,83,21,,375.64877450000495,l,correct,0.6542020000051707,,24,A,2023-12-13_16h44.23.634,gca_discrimination,2022.2.4,144.0409537406825,
positions.xlsx,stimuli.xlsx,test.xlsx,stimuli/Social1.png,stimuli/Social2.png,stimuli/Nonsocial1.png,stimuli/Nonsocial2.png,stimuli/Test1.png,stimuli/Test2.png,"(-0.7, -0.5)",cs_minus_s,"(-0.7, 0.5)",cs_plus_s,0,0,0,0,,,,,0,84,84,15,,378.94032649998553,l,correct,0.619314800016582,,24,A,2023-12-13_16h44.23.634,gca_discrimination,2022.2.4,144.0409537406825,
positions.xlsx,stimuli.xlsx,test.xlsx,stimuli/Social1.png,stimuli/Social2.png,stimuli/Nonsocial1.png,stimuli/Nonsocial2.png,stimuli/Test1.png,stimuli/Test2.png,"(-0.7, -0.5)",cs_plus_ns,"(0.7, 0.5)",cs_plus_ns,0,0,0,0,,,,,0,85,85,76,,381.93329690000974,ä,correct,0.7537520000478253,,24,A,2023-12-13_16h44.23.634,gca_discrimination,2022.2.4,144.0409537406825,
positions.xlsx,stimuli.xlsx,test.xlsx,stimuli/Social1.png,stimuli/Social2.png,stimuli/Nonsocial1.png,stimuli/Nonsocial2.png,stimuli/Test1.png,stimuli/Test2.png,"(0.7, -0.5)",cs_plus_ns,"(-0.7, 0.5)",cs_minus_ns,0,0,0,0,,,,,0,86,86,33,,384.9192927000113,l,correct,0.4571314000058919,,24,A,2023-12-13_16h44.23.634,gca_discrimination,2022.2.4,144.0409537406825,
positions.xlsx,stimuli.xlsx,test.xlsx,stimuli/Social1.png,stimuli/Social2.png,stimuli/Nonsocial1.png,stimuli/Nonsocial2.png,stimuli/Test1.png,stimuli/Test2.png,"(-0.7, 0.5)",cs_minus_ns,"(0.7, 0.5)",cs_minus_ns,0,0,0,0,,,,,0,87,87,85,,387.6552673999686,l,wrong,0.60862320009619,,24,A,2023-12-13_16h44.23.634,gca_discrimination,2022.2.4,144.0409537406825,
positions.xlsx,stimuli.xlsx,test.xlsx,stimuli/Social1.png,stimuli/Social2.png,stimuli/Nonsocial1.png,stimuli/Nonsocial2.png,stimuli/Test1.png,stimuli/Test2.png,"(0.7, 0.5)",cs_plus_ns,"(-0.7, -0.5)",cs_plus_ns,0,0,0,0,,,,,0,88,88,79,,391.0162632999709,ä,correct,0.4628787999972701,,24,A,2023-12-13_16h44.23.634,gca_discrimination,2022.2.4,144.0409537406825,
positions.xlsx,stimuli.xlsx,test.xlsx,stimuli/Social1.png,stimuli/Social2.png,stimuli/Nonsocial1.png,stimuli/Nonsocial2.png,stimuli/Test1.png,stimuli/Test2.png,"(0.7, -0.5)",cs_plus_ns,"(0.7, 0.5)",cs_plus_ns,0,0,0,0,,,,,0,89,89,83,,393.8564011999406,ä,correct,0.6625234999228269,,24,A,2023-12-13_16h44.23.634,gca_discrimination,2022.2.4,144.0409537406825,
positions.xlsx,stimuli.xlsx,test.xlsx,stimuli/Social1.png,stimuli/Social2.png,stimuli/Nonsocial1.png,stimuli/Nonsocial2.png,stimuli/Test1.png,stimuli/Test2.png,"(-0.7, -0.5)",cs_plus_s,"(0.7, 0.5)",cs_plus_s,0,0,0,0,,,,,0,90,90,52,,397.1340679000132,ä,correct,1.2652202000608668,,24,A,2023-12-13_16h44.23.634,gca_discrimination,2022.2.4,144.0409537406825,
positions.xlsx,stimuli.xlsx,test.xlsx,stimuli/Social1.png,stimuli/Social2.png,stimuli/Nonsocial1.png,stimuli/Nonsocial2.png,stimuli/Test1.png,stimuli/Test2.png,"(0.7, 0.5)",cs_minus_ns,"(-0.7, -0.5)",cs_minus_ns,0,0,0,0,,,,,0,91,91,91,,400.8978560999967,ä,correct,0.34995589999016374,,24,A,2023-12-13_16h44.23.634,gca_discrimination,2022.2.4,144.0409537406825,
positions.xlsx,stimuli.xlsx,test.xlsx,stimuli/Social1.png,stimuli/Social2.png,stimuli/Nonsocial1.png,stimuli/Nonsocial2.png,stimuli/Test1.png,stimuli/Test2.png,"(-0.7, -0.5)",cs_minus_ns,"(0.7, 0.5)",cs_minus_ns,0,0,0,0,,,,,0,92,92,88,,403.09911249997094,ä,correct,0.42037389997858554,,24,A,2023-12-13_16h44.23.634,gca_discrimination,2022.2.4,144.0409537406825,
positions.xlsx,stimuli.xlsx,test.xlsx,stimuli/Social1.png,stimuli/Social2.png,stimuli/Nonsocial1.png,stimuli/Nonsocial2.png,stimuli/Test1.png,stimuli/Test2.png,"(0.7, 0.5)",cs_plus_s,"(-0.7, -0.5)",cs_plus_s,0,0,0,0,,,,,0,93,93,55,,406.25178119994234,ä,correct,0.5638524999376386,,24,A,2023-12-13_16h44.23.634,gca_discrimination,2022.2.4,144.0409537406825,
positions.xlsx,stimuli.xlsx,test.xlsx,stimuli/Social1.png,stimuli/Social2.png,stimuli/Nonsocial1.png,stimuli/Nonsocial2.png,stimuli/Test1.png,stimuli/Test2.png,"(0.7, 0.5)",cs_minus_ns,"(-0.7, 0.5)",cs_minus_ns,0,0,0,0,,,,,0,94,94,90,,408.68221949995495,ä,correct,1.012653800076805,,24,A,2023-12-13_16h44.23.634,gca_discrimination,2022.2.4,144.0409537406825,
positions.xlsx,stimuli.xlsx,test.xlsx,stimuli/Social1.png,stimuli/Social2.png,stimuli/Nonsocial1.png,stimuli/Nonsocial2.png,stimuli/Test1.png,stimuli/Test2.png,"(-0.7, 0.5)",cs_minus_ns,"(-0.7, -0.5)",cs_plus_ns,0,0,0,0,,,,,0,95,95,36,,412.21683159994427,l,correct,0.47875349991954863,,24,A,2023-12-13_16h44.23.634,gca_discrimination,2022.2.4,144.0409537406825,
