posFile,stimFile,testFile,cs_plus_s,cs_minus_s,cs_plus_ns,cs_minus_ns,test1,test2,position1,trialtype,position2,comptype,blocks.thisRepN,blocks.thisTrialN,blocks.thisN,blocks.thisIndex,learning_trials.thisRepN,learning_trials.thisTrialN,learning_trials.thisN,learning_trials.thisIndex,trials.thisRepN,trials.thisTrialN,trials.thisN,trials.thisIndex,textStart.started,spaceStart.started,spaceStart.keys,spaceStart.rt,textStartExp.started,textExpImages.started,ImageLearning1.started,ImageLearning2.started,textSpace.started,spaceStartExp.started,spaceStartExp.keys,spaceStartExp.rt,blankScreen.started,blankScreen.stopped,fixcross.started,firstImage.started,fixcrossImage1.started,fixcrossITI.started,secondImage.started,fixcrossImage2.started,key.started,key.keys,correctness,feedbackText.started,fixcrossEnd.started,fixcrossEnd.stopped,fixcross.stopped,key.rt,feedbackText.stopped,textStartTask.started,textTaskImages.started,ImageTask1.started,ImageTask2.started,ImageTask3.started,ImageTask4.started,textTaskSpace.started,spaceStartTask.started,spaceStartTask.keys,spaceStartTask.rt,participant,group,date,expName,psychopyVersion,frameRate,
,,,,,,,,,,,,,,,,,,,,,,,,,10.447068699999363,10.447068699999363,space,3.712637300002825,,,,,,,,,,,,,,,,,,,,,,,,,,,,,,,,,,,,8,C,2023-12-07_15h30.43.164,gca_discrimination,2022.2.4,143.91843854639362,
positions.xlsx,stimuli.xlsx,test.xlsx,stimuli/Social1.png,stimuli/Social2.png,stimuli/Nonsocial2.png,stimuli/Nonsocial1.png,stimuli/Test1.png,stimuli/Test2.png,"(0.7, -0.5)",test2,"(-0.7, 0.5)",test1,0,0,0,0,0,0,0,4,,,,,,,,,14.182981900001323,14.182981900001323,14.182981900001323,14.182981900001323,14.182981900001323,14.182981900001323,space,18.561409699999786,32.7516953000013,34.68912569999884,34.68912569999884,35.70299410000007,35.70299410000007,35.83495349999794,36.348821399999,36.348821399999,36.48768470000141,None,no answer,38.49453259999791,40.487508700000035,40.695896500001254,,,,,,,,,,,,,,8,C,2023-12-07_15h30.43.164,gca_discrimination,2022.2.4,143.91843854639362,
positions.xlsx,stimuli.xlsx,test.xlsx,stimuli/Social1.png,stimuli/Social2.png,stimuli/Nonsocial2.png,stimuli/Nonsocial1.png,stimuli/Test1.png,stimuli/Test2.png,"(0.7, 0.5)",test2,"(-0.7, 0.5)",test1,0,0,0,0,0,1,1,13,,,,,,,,,,,,,,,,,,,40.695896500001254,41.69578850000107,41.69578850000107,41.84861699999965,42.3485483000004,42.3485483000004,42.501316800000495,l,correct,43.20268429999851,45.20259860000078,45.50815130000046,41.69578850000107,0.6903719000001729,45.20259860000078,,,,,,,,,,,8,C,2023-12-07_15h30.43.164,gca_discrimination,2022.2.4,143.91843854639362,
positions.xlsx,stimuli.xlsx,test.xlsx,stimuli/Social1.png,stimuli/Social2.png,stimuli/Nonsocial2.png,stimuli/Nonsocial1.png,stimuli/Test1.png,stimuli/Test2.png,"(0.7, 0.5)",test2,"(0.7, -0.5)",test1,0,0,0,0,0,2,2,6,,,,,,,,,,,,,,,,,,,45.50815130000046,46.50812899999801,46.50812899999801,46.66089659999852,47.16086329999962,47.16086329999962,47.31367129999853,l,correct,47.6816508999982,49.681609299997945,50.16071430000011,46.50812899999801,0.3580270999991626,49.681609299997945,,,,,,,,,,,8,C,2023-12-07_15h30.43.164,gca_discrimination,2022.2.4,143.91843854639362,
positions.xlsx,stimuli.xlsx,test.xlsx,stimuli/Social1.png,stimuli/Social2.png,stimuli/Nonsocial2.png,stimuli/Nonsocial1.png,stimuli/Test1.png,stimuli/Test2.png,"(-0.7, -0.5)",test2,"(0.7, 0.5)",test2,0,0,0,0,0,3,3,7,,,,,,,,,,,,,,,,,,,50.16071430000011,51.16074649999791,51.16074649999791,51.31347150000147,51.81346420000045,51.81346420000045,51.966223499999614,ä,correct,52.57733039999948,54.577238099998794,55.21610839999994,51.16074649999791,0.6019681000034325,54.577238099998794,,,,,,,,,,,8,C,2023-12-07_15h30.43.164,gca_discrimination,2022.2.4,143.91843854639362,
positions.xlsx,stimuli.xlsx,test.xlsx,stimuli/Social1.png,stimuli/Social2.png,stimuli/Nonsocial2.png,stimuli/Nonsocial1.png,stimuli/Test1.png,stimuli/Test2.png,"(0.7, -0.5)",test1,"(0.7, 0.5)",test1,0,0,0,0,0,4,4,10,,,,,,,,,,,,,,,,,,,55.21610839999994,56.21607170000061,56.21607170000061,56.3688316000007,56.86881269999867,56.86881269999867,57.02158490000147,ä,correct,57.23685359999945,59.23674749999918,59.70900220000112,56.21607170000061,0.2026860999976634,59.23674749999918,,,,,,,,,,,8,C,2023-12-07_15h30.43.164,gca_discrimination,2022.2.4,143.91843854639362,
positions.xlsx,stimuli.xlsx,test.xlsx,stimuli/Social1.png,stimuli/Social2.png,stimuli/Nonsocial2.png,stimuli/Nonsocial1.png,stimuli/Test1.png,stimuli/Test2.png,"(-0.7, -0.5)",test2,"(-0.7, 0.5)",test2,0,0,0,0,0,5,5,2,,,,,,,,,,,,,,,,,,,59.70900220000112,60.70894580000095,60.70894580000095,60.86170420000053,61.361701699999685,61.361701699999685,61.514458499998,ä,correct,61.951964699997916,63.95187100000112,64.4518621999996,60.70894580000095,0.43018519999895943,63.95187100000112,,,,,,,,,,,8,C,2023-12-07_15h30.43.164,gca_discrimination,2022.2.4,143.91843854639362,
positions.xlsx,stimuli.xlsx,test.xlsx,stimuli/Social1.png,stimuli/Social2.png,stimuli/Nonsocial2.png,stimuli/Nonsocial1.png,stimuli/Test1.png,stimuli/Test2.png,"(-0.7, -0.5)",test2,"(0.7, -0.5)",test2,0,0,0,0,0,6,6,9,,,,,,,,,,,,,,,,,,,64.4518621999996,65.45182629999908,65.45182629999908,65.60458110000036,66.10456359999807,66.10456359999807,66.25735150000037,ä,correct,66.56981040000028,68.5697231999984,69.0072411000001,65.45182629999908,0.30313380000006873,68.5697231999984,,,,,,,,,,,8,C,2023-12-07_15h30.43.164,gca_discrimination,2022.2.4,143.91843854639362,
positions.xlsx,stimuli.xlsx,test.xlsx,stimuli/Social1.png,stimuli/Social2.png,stimuli/Nonsocial2.png,stimuli/Nonsocial1.png,stimuli/Test1.png,stimuli/Test2.png,"(-0.7, 0.5)",test2,"(-0.7, -0.5)",test2,0,0,0,0,0,7,7,1,,,,,,,,,,,,,,,,,,,69.0072411000001,70.01415590000033,70.01415590000033,70.15997960000095,70.6599509000007,70.6599509000007,70.81271850000121,ä,correct,70.97935639999923,72.97929509999813,73.88900509999803,70.01415590000033,0.15521269999953802,72.97929509999813,,,,,,,,,,,8,C,2023-12-07_15h30.43.164,gca_discrimination,2022.2.4,143.91843854639362,
positions.xlsx,stimuli.xlsx,test.xlsx,stimuli/Social1.png,stimuli/Social2.png,stimuli/Nonsocial2.png,stimuli/Nonsocial1.png,stimuli/Test1.png,stimuli/Test2.png,"(0.7, 0.5)",test1,"(0.7, -0.5)",test2,0,0,0,0,0,8,8,11,,,,,,,,,,,,,,,,,,,73.88900509999803,74.88894939999955,74.88894939999955,75.04170900000099,75.54171959999803,75.54171959999803,75.6944497000004,ä,wrong,75.99307029999909,77.9929716000006,78.62490239999897,74.88894939999955,0.28936650000105146,77.9929716000006,,,,,,,,,,,8,C,2023-12-07_15h30.43.164,gca_discrimination,2022.2.4,143.91843854639362,
positions.xlsx,stimuli.xlsx,test.xlsx,stimuli/Social1.png,stimuli/Social2.png,stimuli/Nonsocial2.png,stimuli/Nonsocial1.png,stimuli/Test1.png,stimuli/Test2.png,"(0.7, -0.5)",test1,"(0.7, 0.5)",test2,0,0,0,0,0,9,9,0,,,,,,,,,,,,,,,,,,,78.62490239999897,79.62487049999982,79.62487049999982,79.77763829999822,80.27759439999863,80.27759439999863,80.43038159999924,l,correct,80.95812980000119,82.95807219999915,83.29832859999806,79.62487049999982,0.5149774000019534,82.95807219999915,,,,,,,,,,,8,C,2023-12-07_15h30.43.164,gca_discrimination,2022.2.4,143.91843854639362,
positions.xlsx,stimuli.xlsx,test.xlsx,stimuli/Social1.png,stimuli/Social2.png,stimuli/Nonsocial2.png,stimuli/Nonsocial1.png,stimuli/Test1.png,stimuli/Test2.png,"(-0.7, 0.5)",test2,"(0.7, 0.5)",test1,0,0,0,0,0,10,10,3,,,,,,,,,,,,,,,,,,,83.29832859999806,84.29828769999949,84.29828769999949,84.45109410000077,84.95106479999959,84.95106479999959,85.10385329999917,l,correct,85.47185890000037,87.47178960000019,88.12454910000088,84.29828769999949,0.35985860000073444,87.47178960000019,,,,,,,,,,,8,C,2023-12-07_15h30.43.164,gca_discrimination,2022.2.4,143.91843854639362,
positions.xlsx,stimuli.xlsx,test.xlsx,stimuli/Social1.png,stimuli/Social2.png,stimuli/Nonsocial2.png,stimuli/Nonsocial1.png,stimuli/Test1.png,stimuli/Test2.png,"(-0.7, 0.5)",test2,"(0.7, -0.5)",test1,0,0,0,0,0,11,11,12,,,,,,,,,,,,,,,,,,,88.12454910000088,89.12452940000003,89.12452940000003,89.27726859999893,89.7772686999997,89.7772686999997,89.92999879999843,l,correct,90.26336609999998,92.26332249999905,92.37435189999815,89.12452940000003,0.32571870000174385,92.26332249999905,,,,,,,,,,,8,C,2023-12-07_15h30.43.164,gca_discrimination,2022.2.4,143.91843854639362,
positions.xlsx,stimuli.xlsx,test.xlsx,stimuli/Social1.png,stimuli/Social2.png,stimuli/Nonsocial2.png,stimuli/Nonsocial1.png,stimuli/Test1.png,stimuli/Test2.png,"(-0.7, 0.5)",test1,"(0.7, -0.5)",test1,0,0,0,0,0,12,12,5,,,,,,,,,,,,,,,,,,,92.37435189999815,93.37432989999797,93.37432989999797,93.52709999999934,94.02709609999874,94.02709609999874,94.17983520000053,ä,correct,94.4714985999999,96.47143370000049,97.13112280000132,93.37432989999797,0.28407379999771365,96.47143370000049,,,,,,,,,,,8,C,2023-12-07_15h30.43.164,gca_discrimination,2022.2.4,143.91843854639362,
positions.xlsx,stimuli.xlsx,test.xlsx,stimuli/Social1.png,stimuli/Social2.png,stimuli/Nonsocial2.png,stimuli/Nonsocial1.png,stimuli/Test1.png,stimuli/Test2.png,"(-0.7, -0.5)",test1,"(0.7, 0.5)",test2,0,0,0,0,0,13,13,8,,,,,,,,,,,,,,,,,,,97.13112280000132,98.13110640000014,98.13110640000014,98.2838742999993,98.78389590000006,98.78389590000006,98.93665269999838,l,correct,99.24907689999964,101.24902649999785,101.89484399999856,98.13110640000014,0.30303790000107256,101.24902649999785,,,,,,,,,,,8,C,2023-12-07_15h30.43.164,gca_discrimination,2022.2.4,143.91843854639362,
positions.xlsx,stimuli.xlsx,test.xlsx,stimuli/Social1.png,stimuli/Social2.png,stimuli/Nonsocial2.png,stimuli/Nonsocial1.png,stimuli/Test1.png,stimuli/Test2.png,"(0.7, -0.5)",cs_plus_ns,"(0.7, 0.5)",cs_minus_ns,0,0,0,0,,,,,0,0,0,35,,,,,,,,,,,,,109.72090789999856,111.45693540000138,111.45693540000138,112.4569162000007,112.4569162000007,112.59581030000118,113.1027099999992,113.1027099999992,113.24855319999915,l,correct,,113.58879760000127,113.97070829999939,,0.3280648000036308,,101.89484399999856,101.89484399999856,101.89484399999856,101.89484399999856,101.89484399999856,101.89484399999856,101.89484399999856,101.89484399999856,space,7.817639100001543,8,C,2023-12-07_15h30.43.164,gca_discrimination,2022.2.4,143.91843854639362,
positions.xlsx,stimuli.xlsx,test.xlsx,stimuli/Social1.png,stimuli/Social2.png,stimuli/Nonsocial2.png,stimuli/Nonsocial1.png,stimuli/Test1.png,stimuli/Test2.png,"(-0.7, 0.5)",cs_minus_s,"(0.7, 0.5)",cs_plus_s,0,0,0,0,,,,,0,1,1,13,,,,,,,,,,,,,,,113.97070829999939,114.97764879999886,114.97764879999886,115.12348139999813,115.63040499999988,115.63040499999988,115.77624949999881,l,correct,,116.13732499999969,116.59561920000124,114.97764879999886,0.3514545000034559,,,,,,,,,,,,8,C,2023-12-07_15h30.43.164,gca_discrimination,2022.2.4,143.91843854639362,
positions.xlsx,stimuli.xlsx,test.xlsx,stimuli/Social1.png,stimuli/Social2.png,stimuli/Nonsocial2.png,stimuli/Nonsocial1.png,stimuli/Test1.png,stimuli/Test2.png,"(-0.7, -0.5)",cs_plus_s,"(-0.7, 0.5)",cs_minus_s,0,0,0,0,,,,,0,2,2,3,,,,,,,,,,,,,,,116.59561920000124,117.60253860000012,117.60253860000012,117.74834170000031,118.25530419999996,118.25530419999996,118.40111289999913,l,correct,,118.74137979999796,118.90805030000047,117.60253860000012,0.3275771000007808,,,,,,,,,,,,8,C,2023-12-07_15h30.43.164,gca_discrimination,2022.2.4,143.91843854639362,
positions.xlsx,stimuli.xlsx,test.xlsx,stimuli/Social1.png,stimuli/Social2.png,stimuli/Nonsocial2.png,stimuli/Nonsocial1.png,stimuli/Test1.png,stimuli/Test2.png,"(-0.7, 0.5)",cs_plus_ns,"(-0.7, -0.5)",cs_plus_ns,0,0,0,0,,,,,0,3,3,72,,,,,,,,,,,,,,,118.90805030000047,119.91496239999833,119.91496239999833,120.06083659999786,120.56774610000139,120.56774610000139,120.71351370000048,ä,correct,,120.95660309999948,121.12324240000089,119.91496239999833,0.2305389000030118,,,,,,,,,,,,8,C,2023-12-07_15h30.43.164,gca_discrimination,2022.2.4,143.91843854639362,
positions.xlsx,stimuli.xlsx,test.xlsx,stimuli/Social1.png,stimuli/Social2.png,stimuli/Nonsocial2.png,stimuli/Nonsocial1.png,stimuli/Test1.png,stimuli/Test2.png,"(-0.7, 0.5)",cs_plus_ns,"(0.7, 0.5)",cs_plus_ns,0,0,0,0,,,,,0,4,4,73,,,,,,,,,,,,,,,121.12324240000089,122.13016630000129,122.13016630000129,122.27599329999794,122.78290750000087,122.78290750000087,122.92872880000141,ä,correct,,123.22731909999857,124.12315429999944,122.13016630000129,0.286905700002535,,,,,,,,,,,,8,C,2023-12-07_15h30.43.164,gca_discrimination,2022.2.4,143.91843854639362,
positions.xlsx,stimuli.xlsx,test.xlsx,stimuli/Social1.png,stimuli/Social2.png,stimuli/Nonsocial2.png,stimuli/Nonsocial1.png,stimuli/Test1.png,stimuli/Test2.png,"(-0.7, 0.5)",cs_minus_ns,"(-0.7, -0.5)",cs_plus_ns,0,0,0,0,,,,,0,5,5,36,,,,,,,,,,,,,,,124.12315429999944,125.13003119999848,125.13003119999848,125.27588259999902,125.78278219999993,125.78278219999993,125.92860819999987,l,correct,,126.27582110000003,127.15773840000111,125.13003119999848,0.3358821000001626,,,,,,,,,,,,8,C,2023-12-07_15h30.43.164,gca_discrimination,2022.2.4,143.91843854639362,
positions.xlsx,stimuli.xlsx,test.xlsx,stimuli/Social1.png,stimuli/Social2.png,stimuli/Nonsocial2.png,stimuli/Nonsocial1.png,stimuli/Test1.png,stimuli/Test2.png,"(-0.7, -0.5)",cs_minus_s,"(-0.7, 0.5)",cs_minus_s,0,0,0,0,,,,,0,6,6,63,,,,,,,,,,,,,,,127.15773840000111,128.16468529999838,128.16468529999838,128.31047639999815,128.81740029999855,128.81740029999855,128.9631965999979,l,wrong,,129.17847389999952,129.77570109999942,128.16468529999838,0.20495380000284058,,,,,,,,,,,,8,C,2023-12-07_15h30.43.164,gca_discrimination,2022.2.4,143.91843854639362,
positions.xlsx,stimuli.xlsx,test.xlsx,stimuli/Social1.png,stimuli/Social2.png,stimuli/Nonsocial2.png,stimuli/Nonsocial1.png,stimuli/Test1.png,stimuli/Test2.png,"(0.7, -0.5)",cs_minus_s,"(-0.7, 0.5)",cs_minus_s,0,0,0,0,,,,,0,7,7,69,,,,,,,,,,,,,,,129.77570109999942,130.78259170000092,130.78259170000092,130.92843619999985,131.4353317999994,131.4353317999994,131.58117259999926,ä,correct,,131.90062039999975,132.04641790000096,130.78259170000092,0.30750170000101207,,,,,,,,,,,,8,C,2023-12-07_15h30.43.164,gca_discrimination,2022.2.4,143.91843854639362,
positions.xlsx,stimuli.xlsx,test.xlsx,stimuli/Social1.png,stimuli/Social2.png,stimuli/Nonsocial2.png,stimuli/Nonsocial1.png,stimuli/Test1.png,stimuli/Test2.png,"(0.7, -0.5)",cs_plus_ns,"(-0.7, 0.5)",cs_plus_ns,0,0,0,0,,,,,0,8,8,81,,,,,,,,,,,,,,,132.04641790000096,133.05330749999848,133.05330749999848,133.1991479999997,133.7060738,133.7060738,133.8519226999997,ä,correct,,134.44911670000147,135.33796829999847,133.05330749999848,0.5886637000003248,,,,,,,,,,,,8,C,2023-12-07_15h30.43.164,gca_discrimination,2022.2.4,143.91843854639362,
positions.xlsx,stimuli.xlsx,test.xlsx,stimuli/Social1.png,stimuli/Social2.png,stimuli/Nonsocial2.png,stimuli/Nonsocial1.png,stimuli/Test1.png,stimuli/Test2.png,"(-0.7, -0.5)",cs_minus_ns,"(0.7, 0.5)",cs_plus_ns,0,0,0,0,,,,,0,9,9,40,,,,,,,,,,,,,,,135.33796829999847,136.3448834999981,136.3448834999981,136.4906747999994,136.99763809999786,136.99763809999786,137.14346269999805,l,correct,,137.69207939999978,138.21980690000055,136.3448834999981,0.5366787999992084,,,,,,,,,,,,8,C,2023-12-07_15h30.43.164,gca_discrimination,2022.2.4,143.91843854639362,
positions.xlsx,stimuli.xlsx,test.xlsx,stimuli/Social1.png,stimuli/Social2.png,stimuli/Nonsocial2.png,stimuli/Nonsocial1.png,stimuli/Test1.png,stimuli/Test2.png,"(-0.7, 0.5)",cs_plus_s,"(0.7, 0.5)",cs_minus_s,0,0,0,0,,,,,0,10,10,1,,,,,,,,,,,,,,,138.21980690000055,139.22670799999833,139.22670799999833,139.3725486000003,139.8794749999979,139.8794749999979,140.02531499999895,l,correct,,141.0252662999992,141.60161389999848,139.22670799999833,0.9905487000032736,,,,,,,,,,,,8,C,2023-12-07_15h30.43.164,gca_discrimination,2022.2.4,143.91843854639362,
positions.xlsx,stimuli.xlsx,test.xlsx,stimuli/Social1.png,stimuli/Social2.png,stimuli/Nonsocial2.png,stimuli/Nonsocial1.png,stimuli/Test1.png,stimuli/Test2.png,"(0.7, 0.5)",cs_minus_ns,"(-0.7, -0.5)",cs_minus_ns,0,0,0,0,,,,,0,11,11,91,,,,,,,,,,,,,,,141.60161389999848,142.60853459999998,142.60853459999998,142.75438600000052,143.2612835,143.2612835,143.4071146999995,ä,correct,,143.74737109999842,143.87929059999806,142.60853459999998,0.3288663999992423,,,,,,,,,,,,8,C,2023-12-07_15h30.43.164,gca_discrimination,2022.2.4,143.91843854639362,
positions.xlsx,stimuli.xlsx,test.xlsx,stimuli/Social1.png,stimuli/Social2.png,stimuli/Nonsocial2.png,stimuli/Nonsocial1.png,stimuli/Test1.png,stimuli/Test2.png,"(0.7, 0.5)",cs_plus_ns,"(-0.7, 0.5)",cs_minus_ns,0,0,0,0,,,,,0,12,12,30,,,,,,,,,,,,,,,143.87929059999806,144.88624189999973,144.88624189999973,145.03205420000086,145.53903329999957,145.53903329999957,145.68479579999985,l,correct,,146.10142469999846,146.66392619999897,144.88624189999973,0.40418640000279993,,,,,,,,,,,,8,C,2023-12-07_15h30.43.164,gca_discrimination,2022.2.4,143.91843854639362,
positions.xlsx,stimuli.xlsx,test.xlsx,stimuli/Social1.png,stimuli/Social2.png,stimuli/Nonsocial2.png,stimuli/Nonsocial1.png,stimuli/Test1.png,stimuli/Test2.png,"(0.7, 0.5)",cs_plus_s,"(-0.7, 0.5)",cs_minus_s,0,0,0,0,,,,,0,13,13,6,,,,,,,,,,,,,,,146.66392619999897,147.67084350000005,147.67084350000005,147.8166569999994,148.3235519000009,148.3235519000009,148.46941220000008,l,correct,,149.01801239999986,149.62907650000125,147.67084350000005,0.5384496000006038,,,,,,,,,,,,8,C,2023-12-07_15h30.43.164,gca_discrimination,2022.2.4,143.91843854639362,
positions.xlsx,stimuli.xlsx,test.xlsx,stimuli/Social1.png,stimuli/Social2.png,stimuli/Nonsocial2.png,stimuli/Nonsocial1.png,stimuli/Test1.png,stimuli/Test2.png,"(0.7, 0.5)",cs_minus_s,"(0.7, -0.5)",cs_minus_s,0,0,0,0,,,,,0,14,14,68,,,,,,,,,,,,,,,149.62907650000125,150.63598509999792,150.63598509999792,150.78181490000134,151.28876509999827,151.28876509999827,151.4345867000011,ä,correct,,151.740110499999,152.46928019999905,150.63598509999792,0.29394710000269697,,,,,,,,,,,,8,C,2023-12-07_15h30.43.164,gca_discrimination,2022.2.4,143.91843854639362,
positions.xlsx,stimuli.xlsx,test.xlsx,stimuli/Social1.png,stimuli/Social2.png,stimuli/Nonsocial2.png,stimuli/Nonsocial1.png,stimuli/Test1.png,stimuli/Test2.png,"(-0.7, 0.5)",cs_minus_s,"(-0.7, -0.5)",cs_minus_s,0,0,0,0,,,,,0,15,15,60,,,,,,,,,,,,,,,152.46928019999905,153.47615229999792,153.47615229999792,153.62198160000116,154.12893629999962,154.12893629999962,154.27473349999855,ä,correct,,154.73998329999813,155.4343728999993,153.47615229999792,0.4538735000023735,,,,,,,,,,,,8,C,2023-12-07_15h30.43.164,gca_discrimination,2022.2.4,143.91843854639362,
positions.xlsx,stimuli.xlsx,test.xlsx,stimuli/Social1.png,stimuli/Social2.png,stimuli/Nonsocial2.png,stimuli/Nonsocial1.png,stimuli/Test1.png,stimuli/Test2.png,"(0.7, -0.5)",cs_plus_ns,"(-0.7, 0.5)",cs_minus_ns,0,0,0,0,,,,,0,16,16,33,,,,,,,,,,,,,,,155.4343728999993,156.44132379999792,156.44132379999792,156.58719790000032,157.09406939999826,157.09406939999826,157.23989380000057,l,correct,,157.55932670000038,158.08012700000108,156.44132379999792,0.3118409000016982,,,,,,,,,,,,8,C,2023-12-07_15h30.43.164,gca_discrimination,2022.2.4,143.91843854639362,
positions.xlsx,stimuli.xlsx,test.xlsx,stimuli/Social1.png,stimuli/Social2.png,stimuli/Nonsocial2.png,stimuli/Nonsocial1.png,stimuli/Test1.png,stimuli/Test2.png,"(0.7, 0.5)",cs_plus_ns,"(0.7, -0.5)",cs_minus_ns,0,0,0,0,,,,,0,17,17,32,,,,,,,,,,,,,,,158.08012700000108,159.08708059999844,159.08708059999844,159.23286129999906,159.73981699999786,159.73981699999786,159.88564649999898,ä,wrong,,160.2744997000009,160.90645500000028,159.08708059999844,0.37853159999940544,,,,,,,,,,,,8,C,2023-12-07_15h30.43.164,gca_discrimination,2022.2.4,143.91843854639362,
positions.xlsx,stimuli.xlsx,test.xlsx,stimuli/Social1.png,stimuli/Social2.png,stimuli/Nonsocial2.png,stimuli/Nonsocial1.png,stimuli/Test1.png,stimuli/Test2.png,"(0.7, -0.5)",cs_minus_s,"(0.7, 0.5)",cs_minus_s,0,0,0,0,,,,,0,18,18,71,,,,,,,,,,,,,,,160.90645500000028,161.91329140000016,161.91329140000016,162.0591573999991,162.5660758999984,162.5660758999984,162.71191159999944,ä,correct,,163.1701976000004,163.3785347999983,161.91329140000016,0.448603800003184,,,,,,,,,,,,8,C,2023-12-07_15h30.43.164,gca_discrimination,2022.2.4,143.91843854639362,
positions.xlsx,stimuli.xlsx,test.xlsx,stimuli/Social1.png,stimuli/Social2.png,stimuli/Nonsocial2.png,stimuli/Nonsocial1.png,stimuli/Test1.png,stimuli/Test2.png,"(-0.7, -0.5)",cs_minus_s,"(-0.7, 0.5)",cs_plus_s,0,0,0,0,,,,,0,19,19,15,,,,,,,,,,,,,,,163.3785347999983,164.38545520000116,164.38545520000116,164.531268499999,165.03822610000134,165.03822610000134,165.1840306999984,l,correct,,165.60070300000007,166.4200783999986,164.38545520000116,0.407720999999583,,,,,,,,,,,,8,C,2023-12-07_15h30.43.164,gca_discrimination,2022.2.4,143.91843854639362,
positions.xlsx,stimuli.xlsx,test.xlsx,stimuli/Social1.png,stimuli/Social2.png,stimuli/Nonsocial2.png,stimuli/Nonsocial1.png,stimuli/Test1.png,stimuli/Test2.png,"(-0.7, -0.5)",cs_plus_ns,"(0.7, -0.5)",cs_minus_ns,0,0,0,0,,,,,0,20,20,29,,,,,,,,,,,,,,,166.4200783999986,167.42701250000027,167.42701250000027,167.57279740000013,168.07977430000028,168.07977430000028,168.2255839999998,l,correct,,168.73257100000046,169.23249080000096,167.42701250000027,0.494953200002783,,,,,,,,,,,,8,C,2023-12-07_15h30.43.164,gca_discrimination,2022.2.4,143.91843854639362,
positions.xlsx,stimuli.xlsx,test.xlsx,stimuli/Social1.png,stimuli/Social2.png,stimuli/Nonsocial2.png,stimuli/Nonsocial1.png,stimuli/Test1.png,stimuli/Test2.png,"(-0.7, 0.5)",cs_minus_s,"(-0.7, -0.5)",cs_plus_s,0,0,0,0,,,,,0,21,21,12,,,,,,,,,,,,,,,169.23249080000096,170.23938279999857,170.23938279999857,170.38522219999868,170.8921475999996,170.8921475999996,171.03799269999945,l,correct,,171.51709950000077,171.80186749999848,170.23938279999857,0.46662560000186204,,,,,,,,,,,,8,C,2023-12-07_15h30.43.164,gca_discrimination,2022.2.4,143.91843854639362,
positions.xlsx,stimuli.xlsx,test.xlsx,stimuli/Social1.png,stimuli/Social2.png,stimuli/Nonsocial2.png,stimuli/Nonsocial1.png,stimuli/Test1.png,stimuli/Test2.png,"(0.7, -0.5)",cs_minus_ns,"(0.7, 0.5)",cs_minus_ns,0,0,0,0,,,,,0,22,22,95,,,,,,,,,,,,,,,171.80186749999848,172.8087506999982,172.8087506999982,172.95455969999966,173.46149220000007,173.46149220000007,173.60731579999992,ä,correct,,173.9406314000007,174.5933459000007,172.8087506999982,0.3207407999980205,,,,,,,,,,,,8,C,2023-12-07_15h30.43.164,gca_discrimination,2022.2.4,143.91843854639362,
positions.xlsx,stimuli.xlsx,test.xlsx,stimuli/Social1.png,stimuli/Social2.png,stimuli/Nonsocial2.png,stimuli/Nonsocial1.png,stimuli/Test1.png,stimuli/Test2.png,"(0.7, -0.5)",cs_minus_ns,"(-0.7, -0.5)",cs_minus_ns,0,0,0,0,,,,,0,23,23,94,,,,,,,,,,,,,,,174.5933459000007,175.6002985999985,175.6002985999985,175.7461269000014,176.25304459999825,176.25304459999825,176.39888749999955,ä,correct,,176.84331380000003,177.1766256999981,175.6002985999985,0.43313080000007176,,,,,,,,,,,,8,C,2023-12-07_15h30.43.164,gca_discrimination,2022.2.4,143.91843854639362,
positions.xlsx,stimuli.xlsx,test.xlsx,stimuli/Social1.png,stimuli/Social2.png,stimuli/Nonsocial2.png,stimuli/Nonsocial1.png,stimuli/Test1.png,stimuli/Test2.png,"(-0.7, 0.5)",cs_minus_s,"(0.7, 0.5)",cs_minus_s,0,0,0,0,,,,,0,24,24,61,,,,,,,,,,,,,,,177.1766256999981,178.18359689999852,178.18359689999852,178.329322900001,178.8362973000003,178.8362973000003,178.9821023000004,ä,correct,,179.461262599998,179.8987124999985,178.18359689999852,0.4661947999993572,,,,,,,,,,,,8,C,2023-12-07_15h30.43.164,gca_discrimination,2022.2.4,143.91843854639362,
positions.xlsx,stimuli.xlsx,test.xlsx,stimuli/Social1.png,stimuli/Social2.png,stimuli/Nonsocial2.png,stimuli/Nonsocial1.png,stimuli/Test1.png,stimuli/Test2.png,"(0.7, 0.5)",cs_plus_ns,"(-0.7, -0.5)",cs_plus_ns,0,0,0,0,,,,,0,25,25,79,,,,,,,,,,,,,,,179.8987124999985,180.90564280000035,180.90564280000035,181.05148410000038,181.55839689999993,181.55839689999993,181.70423250000022,ä,correct,,182.05834949999917,182.1625372999988,180.90564280000035,0.34525090000170167,,,,,,,,,,,,8,C,2023-12-07_15h30.43.164,gca_discrimination,2022.2.4,143.91843854639362,
positions.xlsx,stimuli.xlsx,test.xlsx,stimuli/Social1.png,stimuli/Social2.png,stimuli/Nonsocial2.png,stimuli/Nonsocial1.png,stimuli/Test1.png,stimuli/Test2.png,"(0.7, -0.5)",cs_plus_ns,"(0.7, 0.5)",cs_plus_ns,0,0,0,0,,,,,0,26,26,83,,,,,,,,,,,,,,,182.1625372999988,183.16945019999912,183.16945019999912,183.3152614999999,183.8222194000009,183.8222194000009,183.96803949999958,ä,correct,,184.33604619999824,184.66243849999955,183.16945019999912,0.3598119000016595,,,,,,,,,,,,8,C,2023-12-07_15h30.43.164,gca_discrimination,2022.2.4,143.91843854639362,
positions.xlsx,stimuli.xlsx,test.xlsx,stimuli/Social1.png,stimuli/Social2.png,stimuli/Nonsocial2.png,stimuli/Nonsocial1.png,stimuli/Test1.png,stimuli/Test2.png,"(-0.7, -0.5)",cs_plus_s,"(0.7, -0.5)",cs_plus_s,0,0,0,0,,,,,0,27,27,53,,,,,,,,,,,,,,,184.66243849999955,185.6693469999991,185.6693469999991,185.81516959999863,186.3220951000003,186.3220951000003,186.46794030000092,ä,correct,,186.99563860000126,187.02348709999933,185.6693469999991,0.516594200002146,,,,,,,,,,,,8,C,2023-12-07_15h30.43.164,gca_discrimination,2022.2.4,143.91843854639362,
positions.xlsx,stimuli.xlsx,test.xlsx,stimuli/Social1.png,stimuli/Social2.png,stimuli/Nonsocial2.png,stimuli/Nonsocial1.png,stimuli/Test1.png,stimuli/Test2.png,"(0.7, 0.5)",cs_minus_ns,"(-0.7, 0.5)",cs_minus_ns,0,0,0,0,,,,,0,28,28,90,,,,,,,,,,,,,,,187.02348709999933,188.0303720999982,188.0303720999982,188.17619009999908,188.6831061999983,188.6831061999983,188.8289407000011,ä,correct,,189.24560669999846,189.34281519999786,188.0303720999982,0.4044486999991932,,,,,,,,,,,,8,C,2023-12-07_15h30.43.164,gca_discrimination,2022.2.4,143.91843854639362,
positions.xlsx,stimuli.xlsx,test.xlsx,stimuli/Social1.png,stimuli/Social2.png,stimuli/Nonsocial2.png,stimuli/Nonsocial1.png,stimuli/Test1.png,stimuli/Test2.png,"(-0.7, 0.5)",cs_plus_ns,"(0.7, 0.5)",cs_minus_ns,0,0,0,0,,,,,0,29,29,25,,,,,,,,,,,,,,,189.34281519999786,190.34972740000012,190.34972740000012,190.49553190000006,191.00245219999852,191.00245219999852,191.14830419999998,l,correct,,191.67604969999957,192.09966350000104,190.34972740000012,0.5163110000030429,,,,,,,,,,,,8,C,2023-12-07_15h30.43.164,gca_discrimination,2022.2.4,143.91843854639362,
positions.xlsx,stimuli.xlsx,test.xlsx,stimuli/Social1.png,stimuli/Social2.png,stimuli/Nonsocial2.png,stimuli/Nonsocial1.png,stimuli/Test1.png,stimuli/Test2.png,"(0.7, 0.5)",cs_plus_s,"(0.7, -0.5)",cs_plus_s,0,0,0,0,,,,,0,30,30,56,,,,,,,,,,,,,,,192.09966350000104,193.10654639999848,193.10654639999848,193.2524306000014,193.7593084,193.7593084,193.90514170000097,ä,correct,,194.40515089999826,194.78010989999893,193.10654639999848,0.4869388000006438,,,,,,,,,,,,8,C,2023-12-07_15h30.43.164,gca_discrimination,2022.2.4,143.91843854639362,
positions.xlsx,stimuli.xlsx,test.xlsx,stimuli/Social1.png,stimuli/Social2.png,stimuli/Nonsocial2.png,stimuli/Nonsocial1.png,stimuli/Test1.png,stimuli/Test2.png,"(-0.7, -0.5)",cs_minus_s,"(0.7, 0.5)",cs_plus_s,0,0,0,0,,,,,0,31,31,16,,,,,,,,,,,,,,,194.78010989999893,195.7870068000011,195.7870068000011,195.9328284000003,196.43972949999807,196.43972949999807,196.5855964000002,ä,wrong,,197.02304309999818,197.7799973000001,195.7870068000011,0.43035320000126376,,,,,,,,,,,,8,C,2023-12-07_15h30.43.164,gca_discrimination,2022.2.4,143.91843854639362,
positions.xlsx,stimuli.xlsx,test.xlsx,stimuli/Social1.png,stimuli/Social2.png,stimuli/Nonsocial2.png,stimuli/Nonsocial1.png,stimuli/Test1.png,stimuli/Test2.png,"(-0.7, 0.5)",cs_plus_s,"(-0.7, -0.5)",cs_minus_s,0,0,0,0,,,,,0,32,32,0,,,,,,,,,,,,,,,197.7799973000001,198.78688659999898,198.78688659999898,198.9327118000001,199.4396530999984,199.4396530999984,199.58548959999825,l,correct,,200.1687349999993,200.63406060000125,198.78688659999898,0.5752277999999933,,,,,,,,,,,,8,C,2023-12-07_15h30.43.164,gca_discrimination,2022.2.4,143.91843854639362,
positions.xlsx,stimuli.xlsx,test.xlsx,stimuli/Social1.png,stimuli/Social2.png,stimuli/Nonsocial2.png,stimuli/Nonsocial1.png,stimuli/Test1.png,stimuli/Test2.png,"(0.7, 0.5)",cs_minus_s,"(0.7, -0.5)",cs_plus_s,0,0,0,0,,,,,0,33,33,20,,,,,,,,,,,,,,,200.63406060000125,201.64093769999818,201.64093769999818,201.78682140000092,202.29366010000012,202.29366010000012,202.43956310000067,l,correct,,202.88392440000098,203.48114590000114,201.64093769999818,0.4327605000034964,,,,,,,,,,,,8,C,2023-12-07_15h30.43.164,gca_discrimination,2022.2.4,143.91843854639362,
positions.xlsx,stimuli.xlsx,test.xlsx,stimuli/Social1.png,stimuli/Social2.png,stimuli/Nonsocial2.png,stimuli/Nonsocial1.png,stimuli/Test1.png,stimuli/Test2.png,"(-0.7, 0.5)",cs_minus_ns,"(-0.7, -0.5)",cs_minus_ns,0,0,0,0,,,,,0,34,34,84,,,,,,,,,,,,,,,203.48114590000114,204.48806400000103,204.48806400000103,204.63388119999945,205.14083870000104,205.14083870000104,205.2866479000004,ä,correct,,205.7449204000004,206.41852540000036,204.48806400000103,0.4507893999980297,,,,,,,,,,,,8,C,2023-12-07_15h30.43.164,gca_discrimination,2022.2.4,143.91843854639362,
positions.xlsx,stimuli.xlsx,test.xlsx,stimuli/Social1.png,stimuli/Social2.png,stimuli/Nonsocial2.png,stimuli/Nonsocial1.png,stimuli/Test1.png,stimuli/Test2.png,"(-0.7, -0.5)",cs_minus_ns,"(0.7, -0.5)",cs_plus_ns,0,0,0,0,,,,,0,35,35,41,,,,,,,,,,,,,,,206.41852540000036,207.42544400000043,207.42544400000043,207.57126229999994,208.07817000000068,208.07817000000068,208.22402000000147,l,correct,,208.87679930000013,209.31425509999826,207.42544400000043,0.64027569999962,,,,,,,,,,,,8,C,2023-12-07_15h30.43.164,gca_discrimination,2022.2.4,143.91843854639362,
positions.xlsx,stimuli.xlsx,test.xlsx,stimuli/Social1.png,stimuli/Social2.png,stimuli/Nonsocial2.png,stimuli/Nonsocial1.png,stimuli/Test1.png,stimuli/Test2.png,"(0.7, -0.5)",cs_minus_ns,"(-0.7, 0.5)",cs_plus_ns,0,0,0,0,,,,,0,36,36,45,,,,,,,,,,,,,,,209.31425509999826,210.3211682000001,210.3211682000001,210.4669963999986,210.9739308999997,210.9739308999997,211.11974270000064,l,correct,,211.53638689999934,212.04330599999957,210.3211682000001,0.4082382000015059,,,,,,,,,,,,8,C,2023-12-07_15h30.43.164,gca_discrimination,2022.2.4,143.91843854639362,
positions.xlsx,stimuli.xlsx,test.xlsx,stimuli/Social1.png,stimuli/Social2.png,stimuli/Nonsocial2.png,stimuli/Nonsocial1.png,stimuli/Test1.png,stimuli/Test2.png,"(0.7, 0.5)",cs_plus_s,"(-0.7, -0.5)",cs_minus_s,0,0,0,0,,,,,0,37,37,7,,,,,,,,,,,,,,,212.04330599999957,213.05021119999947,213.05021119999947,213.19603780000034,213.7030311999988,213.7030311999988,213.84879179999916,l,correct,,214.38352569999915,214.75151320000077,213.05021119999947,0.5278593000039109,,,,,,,,,,,,8,C,2023-12-07_15h30.43.164,gca_discrimination,2022.2.4,143.91843854639362,
positions.xlsx,stimuli.xlsx,test.xlsx,stimuli/Social1.png,stimuli/Social2.png,stimuli/Nonsocial2.png,stimuli/Nonsocial1.png,stimuli/Test1.png,stimuli/Test2.png,"(-0.7, -0.5)",cs_plus_s,"(0.7, -0.5)",cs_minus_s,0,0,0,0,,,,,0,38,38,5,,,,,,,,,,,,,,,214.75151320000077,215.75845679999838,215.75845679999838,215.90427009999985,216.4112258999994,216.4112258999994,216.55701689999842,l,correct,,216.98060270000133,217.0916995000007,215.75845679999838,0.41135200000280747,,,,,,,,,,,,8,C,2023-12-07_15h30.43.164,gca_discrimination,2022.2.4,143.91843854639362,
positions.xlsx,stimuli.xlsx,test.xlsx,stimuli/Social1.png,stimuli/Social2.png,stimuli/Nonsocial2.png,stimuli/Nonsocial1.png,stimuli/Test1.png,stimuli/Test2.png,"(-0.7, -0.5)",cs_plus_ns,"(0.7, 0.5)",cs_plus_ns,0,0,0,0,,,,,0,39,39,76,,,,,,,,,,,,,,,217.0916995000007,218.0986258999983,218.0986258999983,218.2444773999996,218.75144219999856,218.75144219999856,218.89721970000028,ä,correct,,219.60551169999962,219.89714580000145,218.0986258999983,0.6957446000014897,,,,,,,,,,,,8,C,2023-12-07_15h30.43.164,gca_discrimination,2022.2.4,143.91843854639362,
positions.xlsx,stimuli.xlsx,test.xlsx,stimuli/Social1.png,stimuli/Social2.png,stimuli/Nonsocial2.png,stimuli/Nonsocial1.png,stimuli/Test1.png,stimuli/Test2.png,"(0.7, -0.5)",cs_plus_s,"(-0.7, 0.5)",cs_plus_s,0,0,0,0,,,,,0,40,40,57,,,,,,,,,,,,,,,219.89714580000145,220.90408910000042,220.90408910000042,221.04988650000087,221.55685230000017,221.55685230000017,221.70265989999825,ä,correct,,222.26514079999833,223.24426279999898,220.90408910000042,0.5534980000011274,,,,,,,,,,,,8,C,2023-12-07_15h30.43.164,gca_discrimination,2022.2.4,143.91843854639362,
positions.xlsx,stimuli.xlsx,test.xlsx,stimuli/Social1.png,stimuli/Social2.png,stimuli/Nonsocial2.png,stimuli/Nonsocial1.png,stimuli/Test1.png,stimuli/Test2.png,"(-0.7, 0.5)",cs_plus_s,"(0.7, -0.5)",cs_plus_s,0,0,0,0,,,,,0,41,41,50,,,,,,,,,,,,,,,223.24426279999898,224.25117859999955,224.25117859999955,224.39696410000033,224.90392129999964,224.90392129999964,225.04971870000008,ä,correct,,225.5219462999994,226.48025699999926,224.25117859999955,0.4626289000007091,,,,,,,,,,,,8,C,2023-12-07_15h30.43.164,gca_discrimination,2022.2.4,143.91843854639362,
positions.xlsx,stimuli.xlsx,test.xlsx,stimuli/Social1.png,stimuli/Social2.png,stimuli/Nonsocial2.png,stimuli/Nonsocial1.png,stimuli/Test1.png,stimuli/Test2.png,"(-0.7, 0.5)",cs_minus_s,"(0.7, -0.5)",cs_plus_s,0,0,0,0,,,,,0,42,42,14,,,,,,,,,,,,,,,226.48025699999926,227.487163400001,227.487163400001,227.63297460000103,228.13989779999974,228.13989779999974,228.2857296000002,l,correct,,228.79958899999838,228.93153869999878,227.487163400001,0.5064523000000918,,,,,,,,,,,,8,C,2023-12-07_15h30.43.164,gca_discrimination,2022.2.4,143.91843854639362,
positions.xlsx,stimuli.xlsx,test.xlsx,stimuli/Social1.png,stimuli/Social2.png,stimuli/Nonsocial2.png,stimuli/Nonsocial1.png,stimuli/Test1.png,stimuli/Test2.png,"(-0.7, 0.5)",cs_minus_ns,"(0.7, -0.5)",cs_plus_ns,0,0,0,0,,,,,0,43,43,38,,,,,,,,,,,,,,,228.93153869999878,229.93847340000139,229.93847340000139,230.08426640000107,230.591199399998,230.591199399998,230.73703549999846,l,correct,,231.41755629999898,232.32723389999956,229.93847340000139,0.6714360000005399,,,,,,,,,,,,8,C,2023-12-07_15h30.43.164,gca_discrimination,2022.2.4,143.91843854639362,
positions.xlsx,stimuli.xlsx,test.xlsx,stimuli/Social1.png,stimuli/Social2.png,stimuli/Nonsocial2.png,stimuli/Nonsocial1.png,stimuli/Test1.png,stimuli/Test2.png,"(0.7, -0.5)",cs_minus_ns,"(0.7, 0.5)",cs_plus_ns,0,0,0,0,,,,,0,44,44,47,,,,,,,,,,,,,,,232.32723389999956,233.3341317000013,233.3341317000013,233.47998469999948,233.98691999999937,233.98691999999937,234.13272030000007,l,correct,,234.52854239999942,234.88269199999922,233.3341317000013,0.3873247999981686,,,,,,,,,,,,8,C,2023-12-07_15h30.43.164,gca_discrimination,2022.2.4,143.91843854639362,
positions.xlsx,stimuli.xlsx,test.xlsx,stimuli/Social1.png,stimuli/Social2.png,stimuli/Nonsocial2.png,stimuli/Nonsocial1.png,stimuli/Test1.png,stimuli/Test2.png,"(-0.7, -0.5)",cs_minus_ns,"(-0.7, 0.5)",cs_minus_ns,0,0,0,0,,,,,0,45,45,87,,,,,,,,,,,,,,,234.88269199999922,235.88960020000013,235.88960020000013,236.03541459999906,236.54235340000014,236.54235340000014,236.688192900001,ä,correct,,236.9450939999988,237.313141300001,235.88960020000013,0.24766790000285255,,,,,,,,,,,,8,C,2023-12-07_15h30.43.164,gca_discrimination,2022.2.4,143.91843854639362,
positions.xlsx,stimuli.xlsx,test.xlsx,stimuli/Social1.png,stimuli/Social2.png,stimuli/Nonsocial2.png,stimuli/Nonsocial1.png,stimuli/Test1.png,stimuli/Test2.png,"(-0.7, 0.5)",cs_plus_ns,"(0.7, -0.5)",cs_plus_ns,0,0,0,0,,,,,0,46,46,74,,,,,,,,,,,,,,,237.313141300001,238.32009259999904,238.32009259999904,238.46588699999847,238.97280429999955,238.97280429999955,239.1186400000006,ä,correct,,239.51447410000037,239.60472939999818,238.32009259999904,0.3856536999992386,,,,,,,,,,,,8,C,2023-12-07_15h30.43.164,gca_discrimination,2022.2.4,143.91843854639362,
positions.xlsx,stimuli.xlsx,test.xlsx,stimuli/Social1.png,stimuli/Social2.png,stimuli/Nonsocial2.png,stimuli/Nonsocial1.png,stimuli/Test1.png,stimuli/Test2.png,"(-0.7, 0.5)",cs_plus_ns,"(0.7, -0.5)",cs_minus_ns,0,0,0,0,,,,,0,47,47,26,,,,,,,,,,,,,,,239.60472939999818,240.61163830000078,240.61163830000078,240.75749160000123,241.2643692999991,241.2643692999991,241.4102215999992,l,correct,,241.84075630000007,242.79905399999916,240.61163830000078,0.4215193000018189,,,,,,,,,,,,8,C,2023-12-07_15h30.43.164,gca_discrimination,2022.2.4,143.91843854639362,
positions.xlsx,stimuli.xlsx,test.xlsx,stimuli/Social1.png,stimuli/Social2.png,stimuli/Nonsocial2.png,stimuli/Nonsocial1.png,stimuli/Test1.png,stimuli/Test2.png,"(0.7, -0.5)",cs_plus_s,"(0.7, 0.5)",cs_plus_s,0,0,0,0,,,,,0,48,48,59,,,,,,,,,,,,,,,242.79905399999916,243.80593279999812,243.80593279999812,243.95180299999993,244.45871749999787,244.45871749999787,244.60453609999968,ä,correct,,245.25729489999867,245.72948929999984,243.80593279999812,0.6437130000012985,,,,,,,,,,,,8,C,2023-12-07_15h30.43.164,gca_discrimination,2022.2.4,143.91843854639362,
positions.xlsx,stimuli.xlsx,test.xlsx,stimuli/Social1.png,stimuli/Social2.png,stimuli/Nonsocial2.png,stimuli/Nonsocial1.png,stimuli/Test1.png,stimuli/Test2.png,"(-0.7, 0.5)",cs_plus_s,"(0.7, 0.5)",cs_plus_s,0,0,0,0,,,,,0,49,49,49,,,,,,,,,,,,,,,245.72948929999984,246.73641979999957,246.73641979999957,246.8822164000012,247.38910119999855,247.38910119999855,247.53496019999875,ä,correct,,248.03495309999926,248.86824060000072,246.73641979999957,0.4895576000017172,,,,,,,,,,,,8,C,2023-12-07_15h30.43.164,gca_discrimination,2022.2.4,143.91843854639362,
positions.xlsx,stimuli.xlsx,test.xlsx,stimuli/Social1.png,stimuli/Social2.png,stimuli/Nonsocial2.png,stimuli/Nonsocial1.png,stimuli/Test1.png,stimuli/Test2.png,"(-0.7, 0.5)",cs_minus_s,"(0.7, -0.5)",cs_minus_s,0,0,0,0,,,,,0,50,50,62,,,,,,,,,,,,,,,248.86824060000072,249.87516880000112,249.87516880000112,250.0209924999981,250.5279186000007,250.5279186000007,250.67374500000005,l,wrong,,251.0834474000003,251.09040900000036,249.87516880000112,0.39808280000215746,,,,,,,,,,,,8,C,2023-12-07_15h30.43.164,gca_discrimination,2022.2.4,143.91843854639362,
positions.xlsx,stimuli.xlsx,test.xlsx,stimuli/Social1.png,stimuli/Social2.png,stimuli/Nonsocial2.png,stimuli/Nonsocial1.png,stimuli/Test1.png,stimuli/Test2.png,"(0.7, 0.5)",cs_minus_ns,"(0.7, -0.5)",cs_minus_ns,0,0,0,0,,,,,0,51,51,92,,,,,,,,,,,,,,,251.09040900000036,252.09729919999882,252.09729919999882,252.24311070000113,252.75006460000077,252.75006460000077,252.89587060000122,ä,correct,,253.46538090000104,254.38887550000072,252.09729919999882,0.5604052000016964,,,,,,,,,,,,8,C,2023-12-07_15h30.43.164,gca_discrimination,2022.2.4,143.91843854639362,
positions.xlsx,stimuli.xlsx,test.xlsx,stimuli/Social1.png,stimuli/Social2.png,stimuli/Nonsocial2.png,stimuli/Nonsocial1.png,stimuli/Test1.png,stimuli/Test2.png,"(-0.7, 0.5)",cs_plus_s,"(0.7, -0.5)",cs_minus_s,0,0,0,0,,,,,0,52,52,2,,,,,,,,,,,,,,,254.38887550000072,255.39581629999884,255.39581629999884,255.54159739999886,256.0485316999984,256.0485316999984,256.1944326999983,l,correct,,256.68042649999916,257.47902669999894,255.39581629999884,0.47846430000208784,,,,,,,,,,,,8,C,2023-12-07_15h30.43.164,gca_discrimination,2022.2.4,143.91843854639362,
positions.xlsx,stimuli.xlsx,test.xlsx,stimuli/Social1.png,stimuli/Social2.png,stimuli/Nonsocial2.png,stimuli/Nonsocial1.png,stimuli/Test1.png,stimuli/Test2.png,"(-0.7, -0.5)",cs_plus_ns,"(0.7, 0.5)",cs_minus_ns,0,0,0,0,,,,,0,53,53,28,,,,,,,,,,,,,,,257.47902669999894,258.4859445000002,258.4859445000002,258.63177839999844,259.1387051999991,259.1387051999991,259.2845129999987,l,correct,,259.88171579999835,260.0275438999997,258.4859445000002,0.5884579999983544,,,,,,,,,,,,8,C,2023-12-07_15h30.43.164,gca_discrimination,2022.2.4,143.91843854639362,
positions.xlsx,stimuli.xlsx,test.xlsx,stimuli/Social1.png,stimuli/Social2.png,stimuli/Nonsocial2.png,stimuli/Nonsocial1.png,stimuli/Test1.png,stimuli/Test2.png,"(-0.7, -0.5)",cs_plus_s,"(0.7, 0.5)",cs_plus_s,0,0,0,0,,,,,0,54,54,52,,,,,,,,,,,,,,,260.0275438999997,261.0344977999994,261.0344977999994,261.18025679999846,261.6872102999987,261.6872102999987,261.83302900000126,ä,correct,,262.3329965000012,262.72880630000145,261.0344977999994,0.48702140000023064,,,,,,,,,,,,8,C,2023-12-07_15h30.43.164,gca_discrimination,2022.2.4,143.91843854639362,
positions.xlsx,stimuli.xlsx,test.xlsx,stimuli/Social1.png,stimuli/Social2.png,stimuli/Nonsocial2.png,stimuli/Nonsocial1.png,stimuli/Test1.png,stimuli/Test2.png,"(0.7, -0.5)",cs_minus_s,"(-0.7, 0.5)",cs_plus_s,0,0,0,0,,,,,0,55,55,21,,,,,,,,,,,,,,,262.72880630000145,263.7357376,263.7357376,263.88154550000036,264.3884780999979,264.3884780999979,264.5343212000007,ä,wrong,,265.0273558000008,265.5203843999989,263.7357376,0.48275270000158343,,,,,,,,,,,,8,C,2023-12-07_15h30.43.164,gca_discrimination,2022.2.4,143.91843854639362,
positions.xlsx,stimuli.xlsx,test.xlsx,stimuli/Social1.png,stimuli/Social2.png,stimuli/Nonsocial2.png,stimuli/Nonsocial1.png,stimuli/Test1.png,stimuli/Test2.png,"(0.7, 0.5)",cs_plus_s,"(-0.7, 0.5)",cs_plus_s,0,0,0,0,,,,,0,56,56,54,,,,,,,,,,,,,,,265.5203843999989,266.5272871999987,266.5272871999987,266.67312559999846,267.18003659999886,267.18003659999886,267.3258855999993,ä,correct,,267.92308019999837,267.99943970000095,266.5272871999987,0.5865298000026087,,,,,,,,,,,,8,C,2023-12-07_15h30.43.164,gca_discrimination,2022.2.4,143.91843854639362,
positions.xlsx,stimuli.xlsx,test.xlsx,stimuli/Social1.png,stimuli/Social2.png,stimuli/Nonsocial2.png,stimuli/Nonsocial1.png,stimuli/Test1.png,stimuli/Test2.png,"(0.7, 0.5)",cs_minus_ns,"(-0.7, -0.5)",cs_plus_ns,0,0,0,0,,,,,0,57,57,43,,,,,,,,,,,,,,,267.99943970000095,269.00635930000135,269.00635930000135,269.1521897999992,269.659111500001,269.659111500001,269.8049616999997,l,correct,,270.59654410000076,271.03407420000076,269.00635930000135,0.7791639999995823,,,,,,,,,,,,8,C,2023-12-07_15h30.43.164,gca_discrimination,2022.2.4,143.91843854639362,
positions.xlsx,stimuli.xlsx,test.xlsx,stimuli/Social1.png,stimuli/Social2.png,stimuli/Nonsocial2.png,stimuli/Nonsocial1.png,stimuli/Test1.png,stimuli/Test2.png,"(-0.7, -0.5)",cs_minus_s,"(0.7, -0.5)",cs_plus_s,0,0,0,0,,,,,0,58,58,17,,,,,,,,,,,,,,,271.03407420000076,272.0409553999998,272.0409553999998,272.1867807999988,272.69374049999897,272.69374049999897,272.83955179999975,l,correct,,273.3047622000013,274.2978323999996,272.0409553999998,0.4565545999976166,,,,,,,,,,,,8,C,2023-12-07_15h30.43.164,gca_discrimination,2022.2.4,143.91843854639362,
positions.xlsx,stimuli.xlsx,test.xlsx,stimuli/Social1.png,stimuli/Social2.png,stimuli/Nonsocial2.png,stimuli/Nonsocial1.png,stimuli/Test1.png,stimuli/Test2.png,"(0.7, 0.5)",cs_plus_s,"(-0.7, -0.5)",cs_plus_s,0,0,0,0,,,,,0,59,59,55,,,,,,,,,,,,,,,274.2978323999996,275.3046992999989,275.3046992999989,275.4505247999987,275.9574838000008,275.9574838000008,276.10329419999834,ä,correct,,276.5130026000006,277.39491740000085,275.3046992999989,0.40109250000023167,,,,,,,,,,,,8,C,2023-12-07_15h30.43.164,gca_discrimination,2022.2.4,143.91843854639362,
positions.xlsx,stimuli.xlsx,test.xlsx,stimuli/Social1.png,stimuli/Social2.png,stimuli/Nonsocial2.png,stimuli/Nonsocial1.png,stimuli/Test1.png,stimuli/Test2.png,"(0.7, 0.5)",cs_plus_ns,"(0.7, -0.5)",cs_plus_ns,0,0,0,0,,,,,0,60,60,80,,,,,,,,,,,,,,,277.39491740000085,278.4018236999982,278.4018236999982,278.5476774999988,279.0545917999989,279.0545917999989,279.200385600001,ä,correct,,279.88091599999825,280.36705359999905,278.4018236999982,0.6718930999995791,,,,,,,,,,,,8,C,2023-12-07_15h30.43.164,gca_discrimination,2022.2.4,143.91843854639362,
positions.xlsx,stimuli.xlsx,test.xlsx,stimuli/Social1.png,stimuli/Social2.png,stimuli/Nonsocial2.png,stimuli/Nonsocial1.png,stimuli/Test1.png,stimuli/Test2.png,"(-0.7, -0.5)",cs_plus_ns,"(0.7, -0.5)",cs_plus_ns,0,0,0,0,,,,,0,61,61,77,,,,,,,,,,,,,,,280.36705359999905,281.3739362000015,281.3739362000015,281.51975709999897,282.02669239999886,282.02669239999886,282.1725105000005,ä,correct,,282.6099810000014,283.52663369999937,281.3739362000015,0.42769330000010086,,,,,,,,,,,,8,C,2023-12-07_15h30.43.164,gca_discrimination,2022.2.4,143.91843854639362,
positions.xlsx,stimuli.xlsx,test.xlsx,stimuli/Social1.png,stimuli/Social2.png,stimuli/Nonsocial2.png,stimuli/Nonsocial1.png,stimuli/Test1.png,stimuli/Test2.png,"(-0.7, -0.5)",cs_minus_ns,"(0.7, 0.5)",cs_minus_ns,0,0,0,0,,,,,0,62,62,88,,,,,,,,,,,,,,,283.52663369999937,284.53352050000103,284.53352050000103,284.67933899999844,285.18631860000096,285.18631860000096,285.33211559999836,ä,correct,,285.8251482000014,285.85291959999813,284.53352050000103,0.48437969999940833,,,,,,,,,,,,8,C,2023-12-07_15h30.43.164,gca_discrimination,2022.2.4,143.91843854639362,
positions.xlsx,stimuli.xlsx,test.xlsx,stimuli/Social1.png,stimuli/Social2.png,stimuli/Nonsocial2.png,stimuli/Nonsocial1.png,stimuli/Test1.png,stimuli/Test2.png,"(-0.7, -0.5)",cs_plus_s,"(-0.7, 0.5)",cs_plus_s,0,0,0,0,,,,,0,63,63,51,,,,,,,,,,,,,,,285.85291959999813,286.85983040000065,286.85983040000065,287.0057248999983,287.51258009999947,287.51258009999947,287.6584140999985,ä,correct,,288.06812499999796,288.39458749999903,286.85983040000065,0.3974524000004749,,,,,,,,,,,,8,C,2023-12-07_15h30.43.164,gca_discrimination,2022.2.4,143.91843854639362,
positions.xlsx,stimuli.xlsx,test.xlsx,stimuli/Social1.png,stimuli/Social2.png,stimuli/Nonsocial2.png,stimuli/Nonsocial1.png,stimuli/Test1.png,stimuli/Test2.png,"(0.7, -0.5)",cs_minus_s,"(-0.7, -0.5)",cs_plus_s,0,0,0,0,,,,,0,64,64,22,,,,,,,,,,,,,,,288.39458749999903,289.40139830000044,289.40139830000044,289.5472216999988,290.05416139999943,290.05416139999943,290.2000110000008,l,correct,,290.72772089999853,291.29714279999826,289.40139830000044,0.5205241000003298,,,,,,,,,,,,8,C,2023-12-07_15h30.43.164,gca_discrimination,2022.2.4,143.91843854639362,
positions.xlsx,stimuli.xlsx,test.xlsx,stimuli/Social1.png,stimuli/Social2.png,stimuli/Nonsocial2.png,stimuli/Nonsocial1.png,stimuli/Test1.png,stimuli/Test2.png,"(0.7, 0.5)",cs_minus_ns,"(0.7, -0.5)",cs_plus_ns,0,0,0,0,,,,,0,65,65,44,,,,,,,,,,,,,,,291.29714279999826,292.30407679999917,292.30407679999917,292.44992229999843,292.95681709999917,292.95681709999917,293.10262650000004,l,correct,,293.53317400000014,294.51235839999936,292.30407679999917,0.4178654000024835,,,,,,,,,,,,8,C,2023-12-07_15h30.43.164,gca_discrimination,2022.2.4,143.91843854639362,
positions.xlsx,stimuli.xlsx,test.xlsx,stimuli/Social1.png,stimuli/Social2.png,stimuli/Nonsocial2.png,stimuli/Nonsocial1.png,stimuli/Test1.png,stimuli/Test2.png,"(0.7, -0.5)",cs_minus_ns,"(-0.7, -0.5)",cs_plus_ns,0,0,0,0,,,,,0,66,66,46,,,,,,,,,,,,,,,294.51235839999936,295.51921949999814,295.51921949999814,295.6650386000001,296.1719742999994,296.1719742999994,296.3177997999992,l,correct,,296.7274976999979,297.55385390000083,295.51921949999814,0.4024507000031008,,,,,,,,,,,,8,C,2023-12-07_15h30.43.164,gca_discrimination,2022.2.4,143.91843854639362,
positions.xlsx,stimuli.xlsx,test.xlsx,stimuli/Social1.png,stimuli/Social2.png,stimuli/Nonsocial2.png,stimuli/Nonsocial1.png,stimuli/Test1.png,stimuli/Test2.png,"(0.7, 0.5)",cs_minus_s,"(-0.7, -0.5)",cs_plus_s,0,0,0,0,,,,,0,67,67,19,,,,,,,,,,,,,,,297.55385390000083,298.5607620999981,298.5607620999981,298.70659909999813,299.21353219999946,299.21353219999946,299.359317800001,l,correct,,299.8106975999981,300.55372720000014,298.5607620999981,0.4404601999995066,,,,,,,,,,,,8,C,2023-12-07_15h30.43.164,gca_discrimination,2022.2.4,143.91843854639362,
positions.xlsx,stimuli.xlsx,test.xlsx,stimuli/Social1.png,stimuli/Social2.png,stimuli/Nonsocial2.png,stimuli/Nonsocial1.png,stimuli/Test1.png,stimuli/Test2.png,"(-0.7, -0.5)",cs_plus_ns,"(-0.7, 0.5)",cs_plus_ns,0,0,0,0,,,,,0,68,68,75,,,,,,,,,,,,,,,300.55372720000014,301.5606493000014,301.5606493000014,301.7064661000004,302.21341140000004,302.21341140000004,302.35921809999854,ä,correct,,302.84529079999993,303.157841799999,301.5606493000014,0.4743997000005038,,,,,,,,,,,,8,C,2023-12-07_15h30.43.164,gca_discrimination,2022.2.4,143.91843854639362,
positions.xlsx,stimuli.xlsx,test.xlsx,stimuli/Social1.png,stimuli/Social2.png,stimuli/Nonsocial2.png,stimuli/Nonsocial1.png,stimuli/Test1.png,stimuli/Test2.png,"(0.7, -0.5)",cs_minus_ns,"(-0.7, 0.5)",cs_minus_ns,0,0,0,0,,,,,0,69,69,93,,,,,,,,,,,,,,,303.157841799999,304.1647155999999,304.1647155999999,304.3105273000001,304.8175259999989,304.8175259999989,304.96329569999943,ä,correct,,305.35217550000016,306.1924254000005,304.1647155999999,0.38131150000117486,,,,,,,,,,,,8,C,2023-12-07_15h30.43.164,gca_discrimination,2022.2.4,143.91843854639362,
positions.xlsx,stimuli.xlsx,test.xlsx,stimuli/Social1.png,stimuli/Social2.png,stimuli/Nonsocial2.png,stimuli/Nonsocial1.png,stimuli/Test1.png,stimuli/Test2.png,"(-0.7, -0.5)",cs_plus_ns,"(-0.7, 0.5)",cs_minus_ns,0,0,0,0,,,,,0,70,70,27,,,,,,,,,,,,,,,306.1924254000005,307.199338800001,307.199338800001,307.34516520000034,307.85206649999964,307.85206649999964,307.99791370000094,l,correct,,308.31732740000007,309.19923310000013,307.199338800001,0.3060603000012634,,,,,,,,,,,,8,C,2023-12-07_15h30.43.164,gca_discrimination,2022.2.4,143.91843854639362,
positions.xlsx,stimuli.xlsx,test.xlsx,stimuli/Social1.png,stimuli/Social2.png,stimuli/Nonsocial2.png,stimuli/Nonsocial1.png,stimuli/Test1.png,stimuli/Test2.png,"(0.7, 0.5)",cs_minus_s,"(-0.7, 0.5)",cs_plus_s,0,0,0,0,,,,,0,71,71,18,,,,,,,,,,,,,,,309.19923310000013,310.2061912999998,310.2061912999998,310.35198540000056,310.8588942999995,310.8588942999995,311.00472609999997,l,correct,,311.6574881999986,312.53245120000065,310.2061912999998,0.6446758000020054,,,,,,,,,,,,8,C,2023-12-07_15h30.43.164,gca_discrimination,2022.2.4,143.91843854639362,
positions.xlsx,stimuli.xlsx,test.xlsx,stimuli/Social1.png,stimuli/Social2.png,stimuli/Nonsocial2.png,stimuli/Nonsocial1.png,stimuli/Test1.png,stimuli/Test2.png,"(-0.7, -0.5)",cs_minus_s,"(0.7, -0.5)",cs_minus_s,0,0,0,0,,,,,0,72,72,65,,,,,,,,,,,,,,,312.53245120000065,313.5393602000004,313.5393602000004,313.6851695000005,314.1921165999993,314.1921165999993,314.3379464999998,ä,correct,,315.0739945999994,315.7614778999996,313.5393602000004,0.7269741999989492,,,,,,,,,,,,8,C,2023-12-07_15h30.43.164,gca_discrimination,2022.2.4,143.91843854639362,
positions.xlsx,stimuli.xlsx,test.xlsx,stimuli/Social1.png,stimuli/Social2.png,stimuli/Nonsocial2.png,stimuli/Nonsocial1.png,stimuli/Test1.png,stimuli/Test2.png,"(-0.7, 0.5)",cs_minus_ns,"(0.7, -0.5)",cs_minus_ns,0,0,0,0,,,,,0,73,73,86,,,,,,,,,,,,,,,315.7614778999996,316.76839219999965,316.76839219999965,316.9141997000006,317.421140800001,317.421140800001,317.5669619,ä,correct,,318.2266520999983,318.6849646999981,316.76839219999965,0.6500035000026401,,,,,,,,,,,,8,C,2023-12-07_15h30.43.164,gca_discrimination,2022.2.4,143.91843854639362,
positions.xlsx,stimuli.xlsx,test.xlsx,stimuli/Social1.png,stimuli/Social2.png,stimuli/Nonsocial2.png,stimuli/Nonsocial1.png,stimuli/Test1.png,stimuli/Test2.png,"(0.7, 0.5)",cs_plus_s,"(0.7, -0.5)",cs_minus_s,0,0,0,0,,,,,0,74,74,8,,,,,,,,,,,,,,,318.6849646999981,319.6918880000012,319.6918880000012,319.83773139999903,320.3446162,320.3446162,320.49048720000064,l,correct,,320.9209789999986,320.9904311999999,319.6918880000012,0.4220604000001913,,,,,,,,,,,,8,C,2023-12-07_15h30.43.164,gca_discrimination,2022.2.4,143.91843854639362,
positions.xlsx,stimuli.xlsx,test.xlsx,stimuli/Social1.png,stimuli/Social2.png,stimuli/Nonsocial2.png,stimuli/Nonsocial1.png,stimuli/Test1.png,stimuli/Test2.png,"(0.7, -0.5)",cs_plus_s,"(-0.7, -0.5)",cs_minus_s,0,0,0,0,,,,,0,75,75,10,,,,,,,,,,,,,,,320.9904311999999,321.99735339999825,321.99735339999825,322.1431937999987,322.6501078000001,322.6501078000001,322.7959540999982,l,correct,,323.2612020999986,323.622241699999,321.99735339999825,0.4526423999996041,,,,,,,,,,,,8,C,2023-12-07_15h30.43.164,gca_discrimination,2022.2.4,143.91843854639362,
positions.xlsx,stimuli.xlsx,test.xlsx,stimuli/Social1.png,stimuli/Social2.png,stimuli/Nonsocial2.png,stimuli/Nonsocial1.png,stimuli/Test1.png,stimuli/Test2.png,"(-0.7, -0.5)",cs_minus_ns,"(-0.7, 0.5)",cs_plus_ns,0,0,0,0,,,,,0,76,76,39,,,,,,,,,,,,,,,323.622241699999,324.6292078000006,324.6292078000006,324.77504829999816,325.28200619999916,325.28200619999916,325.4277836000001,l,correct,,326.00414699999965,326.1777413999989,324.6292078000006,0.5646898000013607,,,,,,,,,,,,8,C,2023-12-07_15h30.43.164,gca_discrimination,2022.2.4,143.91843854639362,
positions.xlsx,stimuli.xlsx,test.xlsx,stimuli/Social1.png,stimuli/Social2.png,stimuli/Nonsocial2.png,stimuli/Nonsocial1.png,stimuli/Test1.png,stimuli/Test2.png,"(-0.7, 0.5)",cs_plus_s,"(-0.7, -0.5)",cs_plus_s,0,0,0,0,,,,,0,77,77,48,,,,,,,,,,,,,,,326.1777413999989,327.18466199999966,327.18466199999966,327.3305045999987,327.8374135999984,327.8374135999984,327.98323789999995,ä,correct,,328.5387507999985,329.2540098999998,327.18466199999966,0.5451127000014822,,,,,,,,,,,,8,C,2023-12-07_15h30.43.164,gca_discrimination,2022.2.4,143.91843854639362,
positions.xlsx,stimuli.xlsx,test.xlsx,stimuli/Social1.png,stimuli/Social2.png,stimuli/Nonsocial2.png,stimuli/Nonsocial1.png,stimuli/Test1.png,stimuli/Test2.png,"(0.7, -0.5)",cs_plus_s,"(0.7, 0.5)",cs_minus_s,0,0,0,0,,,,,0,78,78,11,,,,,,,,,,,,,,,329.2540098999998,330.260943199999,330.260943199999,330.40674769999896,330.91367479999826,330.91367479999826,331.0594912999986,l,correct,,331.55257309999797,332.44830730000103,330.260943199999,0.4849887000018498,,,,,,,,,,,,8,C,2023-12-07_15h30.43.164,gca_discrimination,2022.2.4,143.91843854639362,
positions.xlsx,stimuli.xlsx,test.xlsx,stimuli/Social1.png,stimuli/Social2.png,stimuli/Nonsocial2.png,stimuli/Nonsocial1.png,stimuli/Test1.png,stimuli/Test2.png,"(-0.7, 0.5)",cs_minus_ns,"(0.7, 0.5)",cs_minus_ns,0,0,0,0,,,,,0,79,79,85,,,,,,,,,,,,,,,332.44830730000103,333.4552245999985,333.4552245999985,333.6010915000006,334.1079940999989,334.1079940999989,334.25385409999944,ä,correct,,334.8093813000014,335.75376870000036,333.4552245999985,0.5465661999987788,,,,,,,,,,,,8,C,2023-12-07_15h30.43.164,gca_discrimination,2022.2.4,143.91843854639362,
positions.xlsx,stimuli.xlsx,test.xlsx,stimuli/Social1.png,stimuli/Social2.png,stimuli/Nonsocial2.png,stimuli/Nonsocial1.png,stimuli/Test1.png,stimuli/Test2.png,"(0.7, -0.5)",cs_plus_ns,"(-0.7, -0.5)",cs_minus_ns,0,0,0,0,,,,,0,80,80,34,,,,,,,,,,,,,,,335.75376870000036,336.76067260000127,336.76067260000127,336.9064599000012,337.4134118000002,337.4134118000002,337.55927879999945,l,correct,,338.31619099999807,339.1772658000009,336.76067260000127,0.7459126000030665,,,,,,,,,,,,8,C,2023-12-07_15h30.43.164,gca_discrimination,2022.2.4,143.91843854639362,
positions.xlsx,stimuli.xlsx,test.xlsx,stimuli/Social1.png,stimuli/Social2.png,stimuli/Nonsocial2.png,stimuli/Nonsocial1.png,stimuli/Test1.png,stimuli/Test2.png,"(-0.7, 0.5)",cs_plus_ns,"(-0.7, -0.5)",cs_minus_ns,0,0,0,0,,,,,0,81,81,24,,,,,,,,,,,,,,,339.1772658000009,340.18414069999926,340.18414069999926,340.33000679999896,340.8368984000008,340.8368984000008,340.9827311000008,l,correct,,341.8715870999986,342.7326557999986,340.18414069999926,0.8814481000008527,,,,,,,,,,,,8,C,2023-12-07_15h30.43.164,gca_discrimination,2022.2.4,143.91843854639362,
positions.xlsx,stimuli.xlsx,test.xlsx,stimuli/Social1.png,stimuli/Social2.png,stimuli/Nonsocial2.png,stimuli/Nonsocial1.png,stimuli/Test1.png,stimuli/Test2.png,"(0.7, -0.5)",cs_minus_s,"(0.7, 0.5)",cs_plus_s,0,0,0,0,,,,,0,82,82,23,,,,,,,,,,,,,,,342.7326557999986,343.7395862000012,343.7395862000012,343.88540849999845,344.39233279999826,344.39233279999826,344.5381450999994,l,correct,,344.9478421999993,345.19083279999904,343.7395862000012,0.3980757999997877,,,,,,,,,,,,8,C,2023-12-07_15h30.43.164,gca_discrimination,2022.2.4,143.91843854639362,
positions.xlsx,stimuli.xlsx,test.xlsx,stimuli/Social1.png,stimuli/Social2.png,stimuli/Nonsocial2.png,stimuli/Nonsocial1.png,stimuli/Test1.png,stimuli/Test2.png,"(-0.7, -0.5)",cs_minus_s,"(0.7, 0.5)",cs_minus_s,0,0,0,0,,,,,0,83,83,64,,,,,,,,,,,,,,,345.19083279999904,346.197823399998,346.197823399998,346.3436462999998,346.85055250000005,346.85055250000005,346.9963777999983,ä,correct,,347.46858879999854,347.5519041000007,346.197823399998,0.46034050000162097,,,,,,,,,,,,8,C,2023-12-07_15h30.43.164,gca_discrimination,2022.2.4,143.91843854639362,
positions.xlsx,stimuli.xlsx,test.xlsx,stimuli/Social1.png,stimuli/Social2.png,stimuli/Nonsocial2.png,stimuli/Nonsocial1.png,stimuli/Test1.png,stimuli/Test2.png,"(0.7, 0.5)",cs_minus_ns,"(-0.7, 0.5)",cs_plus_ns,0,0,0,0,,,,,0,84,84,42,,,,,,,,,,,,,,,347.5519041000007,348.5587978000003,348.5587978000003,348.7046182000013,349.21160809999856,349.21160809999856,349.35740539999824,l,correct,,349.8365358999981,350.4754308999982,348.5587978000003,0.4666853999988234,,,,,,,,,,,,8,C,2023-12-07_15h30.43.164,gca_discrimination,2022.2.4,143.91843854639362,
positions.xlsx,stimuli.xlsx,test.xlsx,stimuli/Social1.png,stimuli/Social2.png,stimuli/Nonsocial2.png,stimuli/Nonsocial1.png,stimuli/Test1.png,stimuli/Test2.png,"(0.7, 0.5)",cs_plus_ns,"(-0.7, -0.5)",cs_minus_ns,0,0,0,0,,,,,0,85,85,31,,,,,,,,,,,,,,,350.4754308999982,351.4823069000013,351.4823069000013,351.6281517999996,352.13507559999925,352.13507559999925,352.2808917000002,l,correct,,352.6975577999983,353.4266975999999,351.4823069000013,0.4079390000006242,,,,,,,,,,,,8,C,2023-12-07_15h30.43.164,gca_discrimination,2022.2.4,143.91843854639362,
positions.xlsx,stimuli.xlsx,test.xlsx,stimuli/Social1.png,stimuli/Social2.png,stimuli/Nonsocial2.png,stimuli/Nonsocial1.png,stimuli/Test1.png,stimuli/Test2.png,"(0.7, -0.5)",cs_plus_s,"(-0.7, -0.5)",cs_plus_s,0,0,0,0,,,,,0,86,86,58,,,,,,,,,,,,,,,353.4266975999999,354.4335879999999,354.4335879999999,354.5794323000009,355.08633669999836,355.08633669999836,355.23216669999965,ä,correct,,355.6557643999986,356.5307365000008,354.4335879999999,0.4158812999994552,,,,,,,,,,,,8,C,2023-12-07_15h30.43.164,gca_discrimination,2022.2.4,143.91843854639362,
positions.xlsx,stimuli.xlsx,test.xlsx,stimuli/Social1.png,stimuli/Social2.png,stimuli/Nonsocial2.png,stimuli/Nonsocial1.png,stimuli/Test1.png,stimuli/Test2.png,"(0.7, 0.5)",cs_minus_s,"(-0.7, 0.5)",cs_minus_s,0,0,0,0,,,,,0,87,87,66,,,,,,,,,,,,,,,356.5307365000008,357.5376354,357.5376354,357.68348310000147,358.19037670000034,358.19037670000034,358.33621539999876,ä,correct,,358.91257269999915,358.9681497999991,357.5376354,0.5688910999997461,,,,,,,,,,,,8,C,2023-12-07_15h30.43.164,gca_discrimination,2022.2.4,143.91843854639362,
positions.xlsx,stimuli.xlsx,test.xlsx,stimuli/Social1.png,stimuli/Social2.png,stimuli/Nonsocial2.png,stimuli/Nonsocial1.png,stimuli/Test1.png,stimuli/Test2.png,"(0.7, 0.5)",cs_minus_s,"(-0.7, -0.5)",cs_minus_s,0,0,0,0,,,,,0,88,88,67,,,,,,,,,,,,,,,358.9681497999991,359.9750322,359.9750322,360.1208893000003,360.6278061999983,360.6278061999983,360.77364469999884,ä,correct,,361.1138554999998,361.8708001999985,359.9750322,0.33124170000155573,,,,,,,,,,,,8,C,2023-12-07_15h30.43.164,gca_discrimination,2022.2.4,143.91843854639362,
positions.xlsx,stimuli.xlsx,test.xlsx,stimuli/Social1.png,stimuli/Social2.png,stimuli/Nonsocial2.png,stimuli/Nonsocial1.png,stimuli/Test1.png,stimuli/Test2.png,"(0.7, -0.5)",cs_minus_s,"(-0.7, -0.5)",cs_minus_s,0,0,0,0,,,,,0,89,89,70,,,,,,,,,,,,,,,361.8708001999985,362.87773019999804,362.87773019999804,363.02352959999916,363.53045829999974,363.53045829999974,363.6762665999995,ä,correct,,364.0443329000009,364.91238069999963,362.87773019999804,0.356324799999129,,,,,,,,,,,,8,C,2023-12-07_15h30.43.164,gca_discrimination,2022.2.4,143.91843854639362,
positions.xlsx,stimuli.xlsx,test.xlsx,stimuli/Social1.png,stimuli/Social2.png,stimuli/Nonsocial2.png,stimuli/Nonsocial1.png,stimuli/Test1.png,stimuli/Test2.png,"(0.7, 0.5)",cs_plus_ns,"(-0.7, 0.5)",cs_plus_ns,0,0,0,0,,,,,0,90,90,78,,,,,,,,,,,,,,,364.91238069999963,365.9192598000009,365.9192598000009,366.06508459999895,366.5720183000012,366.5720183000012,366.7178387999993,ä,correct,,367.051161899999,367.94002159999945,365.9192598000009,0.32284789999903296,,,,,,,,,,,,8,C,2023-12-07_15h30.43.164,gca_discrimination,2022.2.4,143.91843854639362,
positions.xlsx,stimuli.xlsx,test.xlsx,stimuli/Social1.png,stimuli/Social2.png,stimuli/Nonsocial2.png,stimuli/Nonsocial1.png,stimuli/Test1.png,stimuli/Test2.png,"(-0.7, 0.5)",cs_minus_ns,"(0.7, 0.5)",cs_plus_ns,0,0,0,0,,,,,0,91,91,37,,,,,,,,,,,,,,,367.94002159999945,368.94693840000036,368.94693840000036,369.09271570000055,369.5997344999996,369.5997344999996,369.74550530000124,l,correct,,370.2663126000007,371.05794519999836,368.94693840000036,0.5107337000008556,,,,,,,,,,,,8,C,2023-12-07_15h30.43.164,gca_discrimination,2022.2.4,143.91843854639362,
positions.xlsx,stimuli.xlsx,test.xlsx,stimuli/Social1.png,stimuli/Social2.png,stimuli/Nonsocial2.png,stimuli/Nonsocial1.png,stimuli/Test1.png,stimuli/Test2.png,"(-0.7, -0.5)",cs_minus_ns,"(0.7, -0.5)",cs_minus_ns,0,0,0,0,,,,,0,92,92,89,,,,,,,,,,,,,,,371.05794519999836,372.06485819999943,372.06485819999943,372.21069129999887,372.71758899999986,372.71758899999986,372.86342909999803,ä,correct,,373.5855746999987,374.050854000001,372.06485819999943,0.7129855000021053,,,,,,,,,,,,8,C,2023-12-07_15h30.43.164,gca_discrimination,2022.2.4,143.91843854639362,
positions.xlsx,stimuli.xlsx,test.xlsx,stimuli/Social1.png,stimuli/Social2.png,stimuli/Nonsocial2.png,stimuli/Nonsocial1.png,stimuli/Test1.png,stimuli/Test2.png,"(0.7, -0.5)",cs_plus_ns,"(-0.7, -0.5)",cs_plus_ns,0,0,0,0,,,,,0,93,93,82,,,,,,,,,,,,,,,374.050854000001,375.0578037000014,375.0578037000014,375.2036174999994,375.71053960000063,375.71053960000063,375.85637510000015,ä,correct,,376.4118942999994,376.9743939,375.0578037000014,0.5440229999985604,,,,,,,,,,,,8,C,2023-12-07_15h30.43.164,gca_discrimination,2022.2.4,143.91843854639362,
positions.xlsx,stimuli.xlsx,test.xlsx,stimuli/Social1.png,stimuli/Social2.png,stimuli/Nonsocial2.png,stimuli/Nonsocial1.png,stimuli/Test1.png,stimuli/Test2.png,"(-0.7, -0.5)",cs_plus_s,"(0.7, 0.5)",cs_minus_s,0,0,0,0,,,,,0,94,94,4,,,,,,,,,,,,,,,376.9743939,377.9812987000005,377.9812987000005,378.1271095000011,378.6340492999989,378.6340492999989,378.77986840000085,l,correct,,379.17567150000104,379.4117813999983,377.9812987000005,0.38793940000323346,,,,,,,,,,,,8,C,2023-12-07_15h30.43.164,gca_discrimination,2022.2.4,143.91843854639362,
positions.xlsx,stimuli.xlsx,test.xlsx,stimuli/Social1.png,stimuli/Social2.png,stimuli/Nonsocial2.png,stimuli/Nonsocial1.png,stimuli/Test1.png,stimuli/Test2.png,"(0.7, -0.5)",cs_plus_s,"(-0.7, 0.5)",cs_minus_s,0,0,0,0,,,,,0,95,95,9,,,,,,,,,,,,,,,379.4117813999983,380.41869600000064,380.41869600000064,380.56454400000075,381.07144459999836,381.07144459999836,381.21726800000033,l,correct,,381.7727774999985,382.30057899999883,380.41869600000064,0.5429335000007995,,,,,,,,,,,,8,C,2023-12-07_15h30.43.164,gca_discrimination,2022.2.4,143.91843854639362,
