posFile,stimFile,testFile,cs_plus_s,cs_minus_s,cs_plus_ns,cs_minus_ns,test1,test2,position1,trialtype,position2,comptype,blocks.thisRepN,blocks.thisTrialN,blocks.thisN,blocks.thisIndex,learning_trials.thisRepN,learning_trials.thisTrialN,learning_trials.thisN,learning_trials.thisIndex,trials.thisRepN,trials.thisTrialN,trials.thisN,trials.thisIndex,textStart.started,spaceStart.started,spaceStart.keys,spaceStart.rt,textStartExp.started,textExpImages.started,ImageLearning1.started,ImageLearning2.started,textSpace.started,spaceStartExp.started,spaceStartExp.keys,spaceStartExp.rt,blankScreen.started,blankScreen.stopped,fixcross.started,firstImage.started,fixcrossImage1.started,fixcrossITI.started,secondImage.started,fixcrossImage2.started,key.started,key.keys,key.rt,correctness,feedbackText.started,fixcrossEnd.started,fixcrossEnd.stopped,fixcross.stopped,feedbackText.stopped,textStartTask.started,textTaskImages.started,ImageTask1.started,ImageTask2.started,ImageTask3.started,ImageTask4.started,textTaskSpace.started,spaceStartTask.started,spaceStartTask.keys,spaceStartTask.rt,participant,group,date,expName,psychopyVersion,frameRate,
,,,,,,,,,,,,,,,,,,,,,,,,,9.90570340002887,9.90570340002887,space,2.4113778000464663,,,,,,,,,,,,,,,,,,,,,,,,,,,,,,,,,,,,21,B,2023-12-12_14h53.55.582,gca_discrimination,2022.2.4,143.87102243484358,
positions.xlsx,stimuli.xlsx,test.xlsx,stimuli/Social2.png,stimuli/Social1.png,stimuli/Nonsocial1.png,stimuli/Nonsocial2.png,stimuli/Test1.png,stimuli/Test2.png,"(0.7, -0.5)",test2,"(-0.7, 0.5)",test1,0,0,0,0,0,0,0,4,,,,,,,,,12.336205500003416,12.336205500003416,12.336205500003416,12.336205500003416,12.336205500003416,12.336205500003416,space,28.163892800046597,40.50870270002633,41.855875200009905,41.855875200009905,42.86283420003019,42.86283420003019,42.994714400032535,43.50857430003816,43.50857430003816,43.64746440004092,ä,0.893692999961786,correct,44.55716399999801,46.55709920002846,47.168184000009205,,,,,,,,,,,,,21,B,2023-12-12_14h53.55.582,gca_discrimination,2022.2.4,143.87102243484358,
positions.xlsx,stimuli.xlsx,test.xlsx,stimuli/Social2.png,stimuli/Social1.png,stimuli/Nonsocial1.png,stimuli/Nonsocial2.png,stimuli/Test1.png,stimuli/Test2.png,"(-0.7, -0.5)",test2,"(0.7, -0.5)",test2,0,0,0,0,0,1,1,9,,,,,,,,,,,,,,,,,,,47.168184000009205,48.1681390000158,48.1681390000158,48.320960300043225,48.820886500005145,48.820886500005145,48.97365580004407,l,0.3827616000198759,correct,49.36945970001398,51.36940369999502,52.355471100017894,48.1681390000158,51.36940369999502,,,,,,,,,,,21,B,2023-12-12_14h53.55.582,gca_discrimination,2022.2.4,143.87102243484358,
positions.xlsx,stimuli.xlsx,test.xlsx,stimuli/Social2.png,stimuli/Social1.png,stimuli/Nonsocial1.png,stimuli/Nonsocial2.png,stimuli/Test1.png,stimuli/Test2.png,"(-0.7, 0.5)",test1,"(0.7, -0.5)",test1,0,0,0,0,0,2,2,5,,,,,,,,,,,,,,,,,,,52.355471100017894,53.362342300009914,53.362342300009914,53.508166200015694,54.00819970003795,54.00819970003795,54.16094620001968,l,0.36311239999486133,correct,54.53592120000394,56.53584090003278,57.17475410003681,53.362342300009914,56.53584090003278,,,,,,,,,,,21,B,2023-12-12_14h53.55.582,gca_discrimination,2022.2.4,143.87102243484358,
positions.xlsx,stimuli.xlsx,test.xlsx,stimuli/Social2.png,stimuli/Social1.png,stimuli/Nonsocial1.png,stimuli/Nonsocial2.png,stimuli/Test1.png,stimuli/Test2.png,"(0.7, -0.5)",test1,"(0.7, 0.5)",test2,0,0,0,0,0,3,3,0,,,,,,,,,,,,,,,,,,,57.17475410003681,58.17465980001725,58.17465980001725,58.32745820004493,58.82742220000364,58.82742220000364,58.980211800022516,ä,0.1996890000300482,correct,59.18853730004048,61.18841960001737,61.577345600002445,58.17465980001725,61.18841960001737,,,,,,,,,,,21,B,2023-12-12_14h53.55.582,gca_discrimination,2022.2.4,143.87102243484358,
positions.xlsx,stimuli.xlsx,test.xlsx,stimuli/Social2.png,stimuli/Social1.png,stimuli/Nonsocial1.png,stimuli/Nonsocial2.png,stimuli/Test1.png,stimuli/Test2.png,"(-0.7, 0.5)",test2,"(0.7, 0.5)",test1,0,0,0,0,0,4,4,3,,,,,,,,,,,,,,,,,,,61.577345600002445,62.57729879999533,62.57729879999533,62.730065100011416,63.23004310001852,63.23004310001852,63.382837200013455,ä,0.3735854999977164,correct,63.76473789999727,65.76466819999041,65.82022330001928,62.57729879999533,65.76466819999041,,,,,,,,,,,21,B,2023-12-12_14h53.55.582,gca_discrimination,2022.2.4,143.87102243484358,
positions.xlsx,stimuli.xlsx,test.xlsx,stimuli/Social2.png,stimuli/Social1.png,stimuli/Nonsocial1.png,stimuli/Nonsocial2.png,stimuli/Test1.png,stimuli/Test2.png,"(-0.7, -0.5)",test1,"(0.7, 0.5)",test2,0,0,0,0,0,5,5,8,,,,,,,,,,,,,,,,,,,65.82022330001928,66.8201935000252,66.8201935000252,66.97294960002182,67.47293680004077,67.47293680004077,67.62570520001464,ä,0.3220099000027403,correct,67.95903030002955,69.95895350002684,70.6325574000366,66.8201935000252,69.95895350002684,,,,,,,,,,,21,B,2023-12-12_14h53.55.582,gca_discrimination,2022.2.4,143.87102243484358,
positions.xlsx,stimuli.xlsx,test.xlsx,stimuli/Social2.png,stimuli/Social1.png,stimuli/Nonsocial1.png,stimuli/Nonsocial2.png,stimuli/Test1.png,stimuli/Test2.png,"(-0.7, 0.5)",test2,"(-0.7, -0.5)",test2,0,0,0,0,0,6,6,1,,,,,,,,,,,,,,,,,,,70.6325574000366,71.63249129999895,71.63249129999895,71.785276300041,72.28525580000132,72.28525580000132,72.43803630000912,l,0.39019260002532974,correct,72.84078070003306,74.84070940001402,75.56287860003067,71.63249129999895,74.84070940001402,,,,,,,,,,,21,B,2023-12-12_14h53.55.582,gca_discrimination,2022.2.4,143.87102243484358,
positions.xlsx,stimuli.xlsx,test.xlsx,stimuli/Social2.png,stimuli/Social1.png,stimuli/Nonsocial1.png,stimuli/Nonsocial2.png,stimuli/Test1.png,stimuli/Test2.png,"(-0.7, 0.5)",test2,"(0.7, -0.5)",test1,0,0,0,0,0,7,7,12,,,,,,,,,,,,,,,,,,,75.56287860003067,76.56284140003845,76.56284140003845,76.71562700002687,77.21559290000005,77.21559290000005,77.36838220001664,ä,0.3161772000021301,correct,77.69476390001364,79.69469660002505,80.61824740003794,76.56284140003845,79.69469660002505,,,,,,,,,,,21,B,2023-12-12_14h53.55.582,gca_discrimination,2022.2.4,143.87102243484358,
positions.xlsx,stimuli.xlsx,test.xlsx,stimuli/Social2.png,stimuli/Social1.png,stimuli/Nonsocial1.png,stimuli/Nonsocial2.png,stimuli/Test1.png,stimuli/Test2.png,"(0.7, 0.5)",test2,"(-0.7, 0.5)",test1,0,0,0,0,0,8,8,13,,,,,,,,,,,,,,,,,,,80.61824740003794,81.62516580004012,81.62516580004012,81.77099600003567,82.27098520001164,82.27098520001164,82.42370480002137,ä,0.41227440000511706,correct,82.84733469999628,84.84724630002165,85.78472350002266,81.62516580004012,84.84724630002165,,,,,,,,,,,21,B,2023-12-12_14h53.55.582,gca_discrimination,2022.2.4,143.87102243484358,
positions.xlsx,stimuli.xlsx,test.xlsx,stimuli/Social2.png,stimuli/Social1.png,stimuli/Nonsocial1.png,stimuli/Nonsocial2.png,stimuli/Test1.png,stimuli/Test2.png,"(0.7, -0.5)",test1,"(0.7, 0.5)",test1,0,0,0,0,0,9,9,10,,,,,,,,,,,,,,,,,,,85.78472350002266,86.78469360002782,86.78469360002782,86.9374303999939,87.43744890001835,87.43744890001835,87.59021490003215,l,0.35913619998609647,correct,87.95825550000882,89.95817420003004,90.65258240001276,86.78469360002782,89.95817420003004,,,,,,,,,,,21,B,2023-12-12_14h53.55.582,gca_discrimination,2022.2.4,143.87102243484358,
positions.xlsx,stimuli.xlsx,test.xlsx,stimuli/Social2.png,stimuli/Social1.png,stimuli/Nonsocial1.png,stimuli/Nonsocial2.png,stimuli/Test1.png,stimuli/Test2.png,"(0.7, 0.5)",test2,"(0.7, -0.5)",test1,0,0,0,0,0,10,10,6,,,,,,,,,,,,,,,,,,,90.65258240001276,91.65253349998966,91.65253349998966,91.80531250004424,92.30531630001497,92.30531630001497,92.45808070001658,ä,0.33892919996287674,correct,92.80527710000752,94.80520760000218,94.89548510004533,91.65253349998966,94.80520760000218,,,,,,,,,,,21,B,2023-12-12_14h53.55.582,gca_discrimination,2022.2.4,143.87102243484358,
positions.xlsx,stimuli.xlsx,test.xlsx,stimuli/Social2.png,stimuli/Social1.png,stimuli/Nonsocial1.png,stimuli/Nonsocial2.png,stimuli/Test1.png,stimuli/Test2.png,"(-0.7, -0.5)",test2,"(-0.7, 0.5)",test2,0,0,0,0,0,11,11,2,,,,,,,,,,,,,,,,,,,94.89548510004533,95.90239320002729,95.90239320002729,96.04819440003484,96.54820290004136,96.54820290004136,96.70093580003595,l,0.23145409999415278,correct,96.94400170003064,98.94394389999798,99.87446280004224,95.90239320002729,98.94394389999798,,,,,,,,,,,21,B,2023-12-12_14h53.55.582,gca_discrimination,2022.2.4,143.87102243484358,
positions.xlsx,stimuli.xlsx,test.xlsx,stimuli/Social2.png,stimuli/Social1.png,stimuli/Nonsocial1.png,stimuli/Nonsocial2.png,stimuli/Test1.png,stimuli/Test2.png,"(0.7, 0.5)",test1,"(0.7, -0.5)",test2,0,0,0,0,0,12,12,11,,,,,,,,,,,,,,,,,,,99.87446280004224,100.87436980003258,100.87436980003258,101.02715290000197,101.52715070004342,101.52715070004342,101.67992190003861,ä,0.2685697000124492,correct,101.9576803999953,103.95760090003023,104.58952919999138,100.87436980003258,103.95760090003023,,,,,,,,,,,21,B,2023-12-12_14h53.55.582,gca_discrimination,2022.2.4,143.87102243484358,
positions.xlsx,stimuli.xlsx,test.xlsx,stimuli/Social2.png,stimuli/Social1.png,stimuli/Nonsocial1.png,stimuli/Nonsocial2.png,stimuli/Test1.png,stimuli/Test2.png,"(-0.7, -0.5)",test2,"(0.7, 0.5)",test2,0,0,0,0,0,13,13,7,,,,,,,,,,,,,,,,,,,104.58952919999138,105.58950579998782,105.58950579998782,105.74228940001922,106.24225910002133,106.24225910002133,106.39503100002185,ä,0.3372710000257939,wrong,106.7422332999995,108.74216880003223,108.91574120003497,105.58950579998782,108.74216880003223,,,,,,,,,,,21,B,2023-12-12_14h53.55.582,gca_discrimination,2022.2.4,143.87102243484358,
positions.xlsx,stimuli.xlsx,test.xlsx,stimuli/Social2.png,stimuli/Social1.png,stimuli/Nonsocial1.png,stimuli/Nonsocial2.png,stimuli/Test1.png,stimuli/Test2.png,"(0.7, 0.5)",cs_minus_s,"(-0.7, -0.5)",cs_plus_s,0,0,0,0,,,,,0,0,0,19,,,,,,,,,,,,,115.3669244000339,116.96408450003946,116.96408450003946,117.95708940003533,117.95708940003533,118.09595160000026,118.60290080000414,118.60290080000414,118.74868790002074,ä,0.26301600004080683,correct,,119.01950860000215,119.3875684000086,,,108.91574120003497,108.91574120003497,108.91574120003497,108.91574120003497,108.91574120003497,108.91574120003497,108.91574120003497,108.91574120003497,space,6.441131800005678,21,B,2023-12-12_14h53.55.582,gca_discrimination,2022.2.4,143.87102243484358,
positions.xlsx,stimuli.xlsx,test.xlsx,stimuli/Social2.png,stimuli/Social1.png,stimuli/Nonsocial1.png,stimuli/Nonsocial2.png,stimuli/Test1.png,stimuli/Test2.png,"(0.7, -0.5)",cs_minus_ns,"(0.7, 0.5)",cs_minus_ns,0,0,0,0,,,,,0,1,1,95,,,,,,,,,,,,,,,119.3875684000086,120.39447530003963,120.39447530003963,120.54028459999245,121.04725679999683,121.04725679999683,121.1930779000395,l,0.32303130003856495,correct,,121.52638220001245,122.40827860002173,120.39447530003963,,,,,,,,,,,,21,B,2023-12-12_14h53.55.582,gca_discrimination,2022.2.4,143.87102243484358,
positions.xlsx,stimuli.xlsx,test.xlsx,stimuli/Social2.png,stimuli/Social1.png,stimuli/Nonsocial1.png,stimuli/Nonsocial2.png,stimuli/Test1.png,stimuli/Test2.png,"(-0.7, -0.5)",cs_plus_ns,"(0.7, -0.5)",cs_minus_ns,0,0,0,0,,,,,0,2,2,29,,,,,,,,,,,,,,,122.40827860002173,123.41520570003195,123.41520570003195,123.56101490004221,124.06795470003271,124.06795470003271,124.2137910000165,ä,0.3029820999945514,correct,,124.52625029999763,124.8318033000105,123.41520570003195,,,,,,,,,,,,21,B,2023-12-12_14h53.55.582,gca_discrimination,2022.2.4,143.87102243484358,
positions.xlsx,stimuli.xlsx,test.xlsx,stimuli/Social2.png,stimuli/Social1.png,stimuli/Nonsocial1.png,stimuli/Nonsocial2.png,stimuli/Test1.png,stimuli/Test2.png,"(0.7, -0.5)",cs_plus_s,"(-0.7, 0.5)",cs_minus_s,0,0,0,0,,,,,0,3,3,9,,,,,,,,,,,,,,,124.8318033000105,125.8386624000268,125.8386624000268,125.98451650002971,126.49147509998875,126.49147509998875,126.63728830002947,l,0.3346388000063598,wrong,,126.98450130003039,127.60946860001422,125.8386624000268,,,,,,,,,,,,21,B,2023-12-12_14h53.55.582,gca_discrimination,2022.2.4,143.87102243484358,
positions.xlsx,stimuli.xlsx,test.xlsx,stimuli/Social2.png,stimuli/Social1.png,stimuli/Nonsocial1.png,stimuli/Nonsocial2.png,stimuli/Test1.png,stimuli/Test2.png,"(-0.7, -0.5)",cs_minus_s,"(-0.7, 0.5)",cs_minus_s,0,0,0,0,,,,,0,4,4,63,,,,,,,,,,,,,,,127.60946860001422,128.61637030000566,128.61637030000566,128.7622564000194,129.26914129999932,129.26914129999932,129.4149413999985,l,0.3649394999956712,correct,,129.7899448000244,130.657951900037,128.61637030000566,,,,,,,,,,,,21,B,2023-12-12_14h53.55.582,gca_discrimination,2022.2.4,143.87102243484358,
positions.xlsx,stimuli.xlsx,test.xlsx,stimuli/Social2.png,stimuli/Social1.png,stimuli/Nonsocial1.png,stimuli/Nonsocial2.png,stimuli/Test1.png,stimuli/Test2.png,"(0.7, -0.5)",cs_minus_ns,"(-0.7, 0.5)",cs_plus_ns,0,0,0,0,,,,,0,5,5,45,,,,,,,,,,,,,,,130.657951900037,131.664891500026,131.664891500026,131.8106773000327,132.31759920000331,132.31759920000331,132.4634509999887,ä,0.3661432000226341,correct,,132.8384298000019,133.04675949999364,131.664891500026,,,,,,,,,,,,21,B,2023-12-12_14h53.55.582,gca_discrimination,2022.2.4,143.87102243484358,
positions.xlsx,stimuli.xlsx,test.xlsx,stimuli/Social2.png,stimuli/Social1.png,stimuli/Nonsocial1.png,stimuli/Nonsocial2.png,stimuli/Test1.png,stimuli/Test2.png,"(-0.7, -0.5)",cs_minus_s,"(-0.7, 0.5)",cs_plus_s,0,0,0,0,,,,,0,6,6,15,,,,,,,,,,,,,,,133.04675949999364,134.05368640000233,134.05368640000233,134.19949910003925,134.70641949999845,134.70641949999845,134.85226370004239,ä,0.36062789999414235,correct,,135.22027119999984,135.26192750001792,134.05368640000233,,,,,,,,,,,,21,B,2023-12-12_14h53.55.582,gca_discrimination,2022.2.4,143.87102243484358,
positions.xlsx,stimuli.xlsx,test.xlsx,stimuli/Social2.png,stimuli/Social1.png,stimuli/Nonsocial1.png,stimuli/Nonsocial2.png,stimuli/Test1.png,stimuli/Test2.png,"(-0.7, 0.5)",cs_minus_s,"(-0.7, -0.5)",cs_plus_s,0,0,0,0,,,,,0,7,7,12,,,,,,,,,,,,,,,135.26192750001792,136.26882679999107,136.26882679999107,136.41471280000405,136.92160500003956,136.92160500003956,137.06742500001565,ä,0.2968225000076927,correct,,137.37296260002768,137.5674018000136,136.26882679999107,,,,,,,,,,,,21,B,2023-12-12_14h53.55.582,gca_discrimination,2022.2.4,143.87102243484358,
positions.xlsx,stimuli.xlsx,test.xlsx,stimuli/Social2.png,stimuli/Social1.png,stimuli/Nonsocial1.png,stimuli/Nonsocial2.png,stimuli/Test1.png,stimuli/Test2.png,"(0.7, -0.5)",cs_plus_ns,"(-0.7, -0.5)",cs_plus_ns,0,0,0,0,,,,,0,8,8,82,,,,,,,,,,,,,,,137.5674018000136,138.57437980000395,138.57437980000395,138.72009940003045,139.22708520002197,139.22708520002197,139.37290970003232,l,0.2795386000070721,correct,,139.66456770000514,139.817382200039,138.57437980000395,,,,,,,,,,,,21,B,2023-12-12_14h53.55.582,gca_discrimination,2022.2.4,143.87102243484358,
positions.xlsx,stimuli.xlsx,test.xlsx,stimuli/Social2.png,stimuli/Social1.png,stimuli/Nonsocial1.png,stimuli/Nonsocial2.png,stimuli/Test1.png,stimuli/Test2.png,"(0.7, 0.5)",cs_plus_ns,"(-0.7, 0.5)",cs_minus_ns,0,0,0,0,,,,,0,9,9,30,,,,,,,,,,,,,,,139.817382200039,140.82425890001468,140.82425890001468,140.970058100007,141.47701670002425,141.47701670002425,141.62280449998798,ä,0.2850395000423305,correct,,141.92142450000392,142.03947920002975,140.82425890001468,,,,,,,,,,,,21,B,2023-12-12_14h53.55.582,gca_discrimination,2022.2.4,143.87102243484358,
positions.xlsx,stimuli.xlsx,test.xlsx,stimuli/Social2.png,stimuli/Social1.png,stimuli/Nonsocial1.png,stimuli/Nonsocial2.png,stimuli/Test1.png,stimuli/Test2.png,"(0.7, 0.5)",cs_minus_ns,"(-0.7, 0.5)",cs_plus_ns,0,0,0,0,,,,,0,10,10,42,,,,,,,,,,,,,,,142.03947920002975,143.04640510003082,143.04640510003082,143.1922018000041,143.69913300004555,143.69913300004555,143.84495629998855,ä,0.27146120002726093,correct,,144.1296809000196,144.61576260003494,143.04640510003082,,,,,,,,,,,,21,B,2023-12-12_14h53.55.582,gca_discrimination,2022.2.4,143.87102243484358,
positions.xlsx,stimuli.xlsx,test.xlsx,stimuli/Social2.png,stimuli/Social1.png,stimuli/Nonsocial1.png,stimuli/Nonsocial2.png,stimuli/Test1.png,stimuli/Test2.png,"(-0.7, -0.5)",cs_plus_ns,"(0.7, 0.5)",cs_plus_ns,0,0,0,0,,,,,0,11,11,76,,,,,,,,,,,,,,,144.61576260003494,145.62265680002747,145.62265680002747,145.76848880003672,146.27540959999897,146.27540959999897,146.42125010001473,l,0.3023719000048004,correct,,146.73370199999772,147.64340960001573,145.62265680002747,,,,,,,,,,,,21,B,2023-12-12_14h53.55.582,gca_discrimination,2022.2.4,143.87102243484358,
positions.xlsx,stimuli.xlsx,test.xlsx,stimuli/Social2.png,stimuli/Social1.png,stimuli/Nonsocial1.png,stimuli/Nonsocial2.png,stimuli/Test1.png,stimuli/Test2.png,"(0.7, 0.5)",cs_plus_s,"(0.7, -0.5)",cs_plus_s,0,0,0,0,,,,,0,12,12,56,,,,,,,,,,,,,,,147.64340960001573,148.65033199999016,148.65033199999016,148.79615020001074,149.3030627000262,149.3030627000262,149.4488837000099,l,0.3310942000243813,correct,,149.78917950001778,150.46972950000782,148.65033199999016,,,,,,,,,,,,21,B,2023-12-12_14h53.55.582,gca_discrimination,2022.2.4,143.87102243484358,
positions.xlsx,stimuli.xlsx,test.xlsx,stimuli/Social2.png,stimuli/Social1.png,stimuli/Nonsocial1.png,stimuli/Nonsocial2.png,stimuli/Test1.png,stimuli/Test2.png,"(0.7, 0.5)",cs_plus_s,"(-0.7, 0.5)",cs_minus_s,0,0,0,0,,,,,0,13,13,6,,,,,,,,,,,,,,,150.46972950000782,151.47660990001168,151.47660990001168,151.622423599998,152.12932370003546,152.12932370003546,152.2751653000014,ä,0.3531074000056833,correct,,152.6362401000224,153.2404036000371,151.47660990001168,,,,,,,,,,,,21,B,2023-12-12_14h53.55.582,gca_discrimination,2022.2.4,143.87102243484358,
positions.xlsx,stimuli.xlsx,test.xlsx,stimuli/Social2.png,stimuli/Social1.png,stimuli/Nonsocial1.png,stimuli/Nonsocial2.png,stimuli/Test1.png,stimuli/Test2.png,"(-0.7, 0.5)",cs_minus_ns,"(0.7, -0.5)",cs_minus_ns,0,0,0,0,,,,,0,14,14,86,,,,,,,,,,,,,,,153.2404036000371,154.2473284000298,154.2473284000298,154.39314430003287,154.90008590003708,154.90008590003708,155.04590670001926,l,0.9193714000284672,correct,,155.9764130000258,156.09448650002014,154.2473284000298,,,,,,,,,,,,21,B,2023-12-12_14h53.55.582,gca_discrimination,2022.2.4,143.87102243484358,
positions.xlsx,stimuli.xlsx,test.xlsx,stimuli/Social2.png,stimuli/Social1.png,stimuli/Nonsocial1.png,stimuli/Nonsocial2.png,stimuli/Test1.png,stimuli/Test2.png,"(0.7, -0.5)",cs_plus_ns,"(-0.7, 0.5)",cs_minus_ns,0,0,0,0,,,,,0,15,15,33,,,,,,,,,,,,,,,156.09448650002014,157.10135469998932,157.10135469998932,157.24723540002014,157.7541590000037,157.7541590000037,157.90002180001466,ä,0.2880729000316933,correct,,158.19855570001528,159.19850709999446,157.10135469998932,,,,,,,,,,,,21,B,2023-12-12_14h53.55.582,gca_discrimination,2022.2.4,143.87102243484358,
positions.xlsx,stimuli.xlsx,test.xlsx,stimuli/Social2.png,stimuli/Social1.png,stimuli/Nonsocial1.png,stimuli/Nonsocial2.png,stimuli/Test1.png,stimuli/Test2.png,"(-0.7, -0.5)",cs_minus_ns,"(0.7, 0.5)",cs_plus_ns,0,0,0,0,,,,,0,16,16,40,,,,,,,,,,,,,,,159.19850709999446,160.20545660000062,160.20545660000062,160.3512606000295,160.85815450001974,160.85815450001974,161.00402360002045,ä,0.31196099997032434,correct,,161.3234536999953,161.49009580002166,160.20545660000062,,,,,,,,,,,,21,B,2023-12-12_14h53.55.582,gca_discrimination,2022.2.4,143.87102243484358,
positions.xlsx,stimuli.xlsx,test.xlsx,stimuli/Social2.png,stimuli/Social1.png,stimuli/Nonsocial1.png,stimuli/Nonsocial2.png,stimuli/Test1.png,stimuli/Test2.png,"(-0.7, -0.5)",cs_minus_s,"(0.7, -0.5)",cs_minus_s,0,0,0,0,,,,,0,17,17,65,,,,,,,,,,,,,,,161.49009580002166,162.4970234000357,162.4970234000357,162.642830900033,163.1497440999956,163.1497440999956,163.29556160001084,l,0.4368745000101626,correct,,163.7400106000132,163.91361450002296,162.4970234000357,,,,,,,,,,,,21,B,2023-12-12_14h53.55.582,gca_discrimination,2022.2.4,143.87102243484358,
positions.xlsx,stimuli.xlsx,test.xlsx,stimuli/Social2.png,stimuli/Social1.png,stimuli/Nonsocial1.png,stimuli/Nonsocial2.png,stimuli/Test1.png,stimuli/Test2.png,"(0.7, -0.5)",cs_minus_s,"(0.7, 0.5)",cs_minus_s,0,0,0,0,,,,,0,18,18,71,,,,,,,,,,,,,,,163.91361450002296,164.92049749998841,164.92049749998841,165.06634670001222,165.57330270000966,165.57330270000966,165.71912920003524,l,0.5008184000034817,correct,,166.2329849000089,166.3579732000362,164.92049749998841,,,,,,,,,,,,21,B,2023-12-12_14h53.55.582,gca_discrimination,2022.2.4,143.87102243484358,
positions.xlsx,stimuli.xlsx,test.xlsx,stimuli/Social2.png,stimuli/Social1.png,stimuli/Nonsocial1.png,stimuli/Nonsocial2.png,stimuli/Test1.png,stimuli/Test2.png,"(0.7, 0.5)",cs_minus_ns,"(-0.7, 0.5)",cs_minus_ns,0,0,0,0,,,,,0,19,19,90,,,,,,,,,,,,,,,166.3579732000362,167.36487789999228,167.36487789999228,167.51068510004552,168.01761610002723,168.01761610002723,168.1634625000297,l,0.32038679998368025,correct,,168.49672620004276,169.49672490003286,167.36487789999228,,,,,,,,,,,,21,B,2023-12-12_14h53.55.582,gca_discrimination,2022.2.4,143.87102243484358,
positions.xlsx,stimuli.xlsx,test.xlsx,stimuli/Social2.png,stimuli/Social1.png,stimuli/Nonsocial1.png,stimuli/Nonsocial2.png,stimuli/Test1.png,stimuli/Test2.png,"(-0.7, -0.5)",cs_minus_s,"(0.7, -0.5)",cs_plus_s,0,0,0,0,,,,,0,20,20,17,,,,,,,,,,,,,,,169.49672490003286,170.5036561000161,170.5036561000161,170.64946580003016,171.15638190001482,171.15638190001482,171.3022159000393,ä,0.2697789999656379,correct,,171.5800212000031,171.85775730002206,170.5036561000161,,,,,,,,,,,,21,B,2023-12-12_14h53.55.582,gca_discrimination,2022.2.4,143.87102243484358,
positions.xlsx,stimuli.xlsx,test.xlsx,stimuli/Social2.png,stimuli/Social1.png,stimuli/Nonsocial1.png,stimuli/Nonsocial2.png,stimuli/Test1.png,stimuli/Test2.png,"(-0.7, 0.5)",cs_minus_ns,"(-0.7, -0.5)",cs_plus_ns,0,0,0,0,,,,,0,21,21,36,,,,,,,,,,,,,,,171.85775730002206,172.86465649999445,172.86465649999445,173.010488800006,173.51741630001925,173.51741630001925,173.66325430001598,ä,0.34104129998013377,correct,,174.01737120002508,174.4895952999941,172.86465649999445,,,,,,,,,,,,21,B,2023-12-12_14h53.55.582,gca_discrimination,2022.2.4,143.87102243484358,
positions.xlsx,stimuli.xlsx,test.xlsx,stimuli/Social2.png,stimuli/Social1.png,stimuli/Nonsocial1.png,stimuli/Nonsocial2.png,stimuli/Test1.png,stimuli/Test2.png,"(-0.7, 0.5)",cs_plus_ns,"(-0.7, -0.5)",cs_minus_ns,0,0,0,0,,,,,0,22,22,24,,,,,,,,,,,,,,,174.4895952999941,175.49650830001337,175.49650830001337,175.6423339000321,176.14925630000653,176.14925630000653,176.29507670004386,ä,0.4291403999668546,correct,,176.73256090003997,177.28115070000058,175.49650830001337,,,,,,,,,,,,21,B,2023-12-12_14h53.55.582,gca_discrimination,2022.2.4,143.87102243484358,
positions.xlsx,stimuli.xlsx,test.xlsx,stimuli/Social2.png,stimuli/Social1.png,stimuli/Nonsocial1.png,stimuli/Nonsocial2.png,stimuli/Test1.png,stimuli/Test2.png,"(0.7, 0.5)",cs_plus_ns,"(0.7, -0.5)",cs_plus_ns,0,0,0,0,,,,,0,23,23,80,,,,,,,,,,,,,,,177.28115070000058,178.28806839999743,178.28806839999743,178.43388540000888,178.9408328999998,178.9408328999998,179.08668220002437,l,0.4537042999872938,correct,,179.5518793000374,180.23243750003166,178.28806839999743,,,,,,,,,,,,21,B,2023-12-12_14h53.55.582,gca_discrimination,2022.2.4,143.87102243484358,
positions.xlsx,stimuli.xlsx,test.xlsx,stimuli/Social2.png,stimuli/Social1.png,stimuli/Nonsocial1.png,stimuli/Nonsocial2.png,stimuli/Test1.png,stimuli/Test2.png,"(-0.7, 0.5)",cs_plus_ns,"(0.7, 0.5)",cs_plus_ns,0,0,0,0,,,,,0,24,24,73,,,,,,,,,,,,,,,180.23243750003166,181.23934030003147,181.23934030003147,181.3851418000413,181.8920625000028,181.8920625000028,182.03792269999394,l,0.3583090000320226,correct,,182.40595159999793,182.65594900003634,181.23934030003147,,,,,,,,,,,,21,B,2023-12-12_14h53.55.582,gca_discrimination,2022.2.4,143.87102243484358,
positions.xlsx,stimuli.xlsx,test.xlsx,stimuli/Social2.png,stimuli/Social1.png,stimuli/Nonsocial1.png,stimuli/Nonsocial2.png,stimuli/Test1.png,stimuli/Test2.png,"(-0.7, -0.5)",cs_plus_ns,"(0.7, 0.5)",cs_minus_ns,0,0,0,0,,,,,0,25,25,28,,,,,,,,,,,,,,,182.65594900003634,183.6628509000293,183.6628509000293,183.808705500036,184.31560710002668,184.31560710002668,184.4614569999976,ä,0.2862297000247054,correct,,184.76003689999925,185.60029440000653,183.6628509000293,,,,,,,,,,,,21,B,2023-12-12_14h53.55.582,gca_discrimination,2022.2.4,143.87102243484358,
positions.xlsx,stimuli.xlsx,test.xlsx,stimuli/Social2.png,stimuli/Social1.png,stimuli/Nonsocial1.png,stimuli/Nonsocial2.png,stimuli/Test1.png,stimuli/Test2.png,"(-0.7, 0.5)",cs_minus_s,"(0.7, -0.5)",cs_minus_s,0,0,0,0,,,,,0,26,26,62,,,,,,,,,,,,,,,185.60029440000653,186.60720700002275,186.60720700002275,186.75307219999377,187.2599571000319,187.2599571000319,187.40573350002524,l,0.31092840002384037,correct,,187.72519580001244,187.77381049998803,186.60720700002275,,,,,,,,,,,,21,B,2023-12-12_14h53.55.582,gca_discrimination,2022.2.4,143.87102243484358,
positions.xlsx,stimuli.xlsx,test.xlsx,stimuli/Social2.png,stimuli/Social1.png,stimuli/Nonsocial1.png,stimuli/Nonsocial2.png,stimuli/Test1.png,stimuli/Test2.png,"(0.7, 0.5)",cs_plus_s,"(-0.7, -0.5)",cs_minus_s,0,0,0,0,,,,,0,27,27,7,,,,,,,,,,,,,,,187.77381049998803,188.78071490000002,188.78071490000002,188.92653270001756,189.4334799000062,189.4334799000062,189.57927280000877,ä,0.3853149000206031,correct,,189.97508100001141,190.55147500004387,188.78071490000002,,,,,,,,,,,,21,B,2023-12-12_14h53.55.582,gca_discrimination,2022.2.4,143.87102243484358,
positions.xlsx,stimuli.xlsx,test.xlsx,stimuli/Social2.png,stimuli/Social1.png,stimuli/Nonsocial1.png,stimuli/Nonsocial2.png,stimuli/Test1.png,stimuli/Test2.png,"(-0.7, 0.5)",cs_minus_ns,"(0.7, 0.5)",cs_plus_ns,0,0,0,0,,,,,0,28,28,37,,,,,,,,,,,,,,,190.55147500004387,191.55841170001077,191.55841170001077,191.7042111000046,192.2111423999886,192.2111423999886,192.35696840001037,ä,0.29504050000105053,correct,,192.66250510001555,192.91251420002664,191.55841170001077,,,,,,,,,,,,21,B,2023-12-12_14h53.55.582,gca_discrimination,2022.2.4,143.87102243484358,
positions.xlsx,stimuli.xlsx,test.xlsx,stimuli/Social2.png,stimuli/Social1.png,stimuli/Nonsocial1.png,stimuli/Nonsocial2.png,stimuli/Test1.png,stimuli/Test2.png,"(-0.7, -0.5)",cs_plus_ns,"(0.7, -0.5)",cs_plus_ns,0,0,0,0,,,,,0,29,29,77,,,,,,,,,,,,,,,192.91251420002664,193.91942690004362,193.91942690004362,194.06525460002013,194.5721352000255,194.5721352000255,194.71800940000685,l,0.3587267999537289,correct,,195.08600860001752,195.15547550003976,193.91942690004362,,,,,,,,,,,,21,B,2023-12-12_14h53.55.582,gca_discrimination,2022.2.4,143.87102243484358,
positions.xlsx,stimuli.xlsx,test.xlsx,stimuli/Social2.png,stimuli/Social1.png,stimuli/Nonsocial1.png,stimuli/Nonsocial2.png,stimuli/Test1.png,stimuli/Test2.png,"(-0.7, 0.5)",cs_minus_ns,"(0.7, 0.5)",cs_minus_ns,0,0,0,0,,,,,0,30,30,85,,,,,,,,,,,,,,,195.15547550003976,196.16238500003237,196.16238500003237,196.30819700000575,196.81514170003356,196.81514170003356,196.960966499988,ä,0.33087550004711375,wrong,,197.30121120001422,197.87763030000497,196.16238500003237,,,,,,,,,,,,21,B,2023-12-12_14h53.55.582,gca_discrimination,2022.2.4,143.87102243484358,
positions.xlsx,stimuli.xlsx,test.xlsx,stimuli/Social2.png,stimuli/Social1.png,stimuli/Nonsocial1.png,stimuli/Nonsocial2.png,stimuli/Test1.png,stimuli/Test2.png,"(0.7, -0.5)",cs_minus_s,"(-0.7, 0.5)",cs_plus_s,0,0,0,0,,,,,0,31,31,21,,,,,,,,,,,,,,,197.87763030000497,198.88448720000451,198.88448720000451,199.03030990000116,199.5372628000332,199.5372628000332,199.68305180000607,ä,0.24905059998854995,correct,,199.94000740000047,200.6135784999933,198.88448720000451,,,,,,,,,,,,21,B,2023-12-12_14h53.55.582,gca_discrimination,2022.2.4,143.87102243484358,
positions.xlsx,stimuli.xlsx,test.xlsx,stimuli/Social2.png,stimuli/Social1.png,stimuli/Nonsocial1.png,stimuli/Nonsocial2.png,stimuli/Test1.png,stimuli/Test2.png,"(-0.7, -0.5)",cs_plus_s,"(0.7, -0.5)",cs_plus_s,0,0,0,0,,,,,0,32,32,53,,,,,,,,,,,,,,,200.6135784999933,201.62052400002722,201.62052400002722,201.7663046999951,202.27325000002747,202.27325000002747,202.41908449999755,l,0.3367302000406198,correct,,202.76628480001818,203.6968169999891,201.62052400002722,,,,,,,,,,,,21,B,2023-12-12_14h53.55.582,gca_discrimination,2022.2.4,143.87102243484358,
positions.xlsx,stimuli.xlsx,test.xlsx,stimuli/Social2.png,stimuli/Social1.png,stimuli/Nonsocial1.png,stimuli/Nonsocial2.png,stimuli/Test1.png,stimuli/Test2.png,"(-0.7, -0.5)",cs_plus_s,"(0.7, -0.5)",cs_minus_s,0,0,0,0,,,,,0,33,33,5,,,,,,,,,,,,,,,203.6968169999891,204.70368560001953,204.70368560001953,204.84952859999612,205.3564804000198,205.3564804000198,205.50226630002726,ä,0.3658298999653198,correct,,205.87728190002963,206.87029240000993,204.70368560001953,,,,,,,,,,,,21,B,2023-12-12_14h53.55.582,gca_discrimination,2022.2.4,143.87102243484358,
positions.xlsx,stimuli.xlsx,test.xlsx,stimuli/Social2.png,stimuli/Social1.png,stimuli/Nonsocial1.png,stimuli/Nonsocial2.png,stimuli/Test1.png,stimuli/Test2.png,"(0.7, -0.5)",cs_plus_s,"(-0.7, -0.5)",cs_plus_s,0,0,0,0,,,,,0,34,34,58,,,,,,,,,,,,,,,206.87029240000993,207.87717350001913,207.87717350001913,208.02304410003126,208.52995029999875,208.52995029999875,208.6757999000256,l,0.29765590000897646,correct,,208.9813430000213,209.05770020000637,207.87717350001913,,,,,,,,,,,,21,B,2023-12-12_14h53.55.582,gca_discrimination,2022.2.4,143.87102243484358,
positions.xlsx,stimuli.xlsx,test.xlsx,stimuli/Social2.png,stimuli/Social1.png,stimuli/Nonsocial1.png,stimuli/Nonsocial2.png,stimuli/Test1.png,stimuli/Test2.png,"(0.7, -0.5)",cs_minus_s,"(-0.7, -0.5)",cs_minus_s,0,0,0,0,,,,,0,35,35,70,,,,,,,,,,,,,,,209.05770020000637,210.06462270003976,210.06462270003976,210.2104626999935,210.71736050001346,210.71736050001346,210.86317760002567,l,0.5174604000058025,correct,,211.39095450000605,211.7104278000188,210.06462270003976,,,,,,,,,,,,21,B,2023-12-12_14h53.55.582,gca_discrimination,2022.2.4,143.87102243484358,
positions.xlsx,stimuli.xlsx,test.xlsx,stimuli/Social2.png,stimuli/Social1.png,stimuli/Nonsocial1.png,stimuli/Nonsocial2.png,stimuli/Test1.png,stimuli/Test2.png,"(-0.7, -0.5)",cs_minus_s,"(0.7, 0.5)",cs_plus_s,0,0,0,0,,,,,0,36,36,16,,,,,,,,,,,,,,,211.7104278000188,212.71728630003054,212.71728630003054,212.8631154000177,213.3700803000247,213.3700803000247,213.51586089999182,ä,0.27202490001218393,correct,,213.8005709000281,214.60611190000782,212.71728630003054,,,,,,,,,,,,21,B,2023-12-12_14h53.55.582,gca_discrimination,2022.2.4,143.87102243484358,
positions.xlsx,stimuli.xlsx,test.xlsx,stimuli/Social2.png,stimuli/Social1.png,stimuli/Nonsocial1.png,stimuli/Nonsocial2.png,stimuli/Test1.png,stimuli/Test2.png,"(-0.7, 0.5)",cs_minus_s,"(0.7, 0.5)",cs_minus_s,0,0,0,0,,,,,0,37,37,61,,,,,,,,,,,,,,,214.60611190000782,215.61300589999883,215.61300589999883,215.75885430001654,216.2657717000111,216.2657717000111,216.41158770001493,l,0.28863909997744486,correct,,216.71019660000456,216.8768482999876,215.61300589999883,,,,,,,,,,,,21,B,2023-12-12_14h53.55.582,gca_discrimination,2022.2.4,143.87102243484358,
positions.xlsx,stimuli.xlsx,test.xlsx,stimuli/Social2.png,stimuli/Social1.png,stimuli/Nonsocial1.png,stimuli/Nonsocial2.png,stimuli/Test1.png,stimuli/Test2.png,"(0.7, -0.5)",cs_plus_s,"(0.7, 0.5)",cs_plus_s,0,0,0,0,,,,,0,38,38,59,,,,,,,,,,,,,,,216.8768482999876,217.88377489999402,217.88377489999402,218.02957080001943,218.53648830001475,218.53648830001475,218.6823340000119,l,0.27341510000405833,correct,,218.96702760003973,219.02961210004287,217.88377489999402,,,,,,,,,,,,21,B,2023-12-12_14h53.55.582,gca_discrimination,2022.2.4,143.87102243484358,
positions.xlsx,stimuli.xlsx,test.xlsx,stimuli/Social2.png,stimuli/Social1.png,stimuli/Nonsocial1.png,stimuli/Nonsocial2.png,stimuli/Test1.png,stimuli/Test2.png,"(0.7, 0.5)",cs_plus_ns,"(-0.7, 0.5)",cs_plus_ns,0,0,0,0,,,,,0,39,39,78,,,,,,,,,,,,,,,219.02961210004287,220.03647089999868,220.03647089999868,220.18228649999946,220.6891923000221,220.6891923000221,220.83501470001647,l,0.2814463999820873,correct,,221.1266966999974,221.75857559998985,220.03647089999868,,,,,,,,,,,,21,B,2023-12-12_14h53.55.582,gca_discrimination,2022.2.4,143.87102243484358,
positions.xlsx,stimuli.xlsx,test.xlsx,stimuli/Social2.png,stimuli/Social1.png,stimuli/Nonsocial1.png,stimuli/Nonsocial2.png,stimuli/Test1.png,stimuli/Test2.png,"(-0.7, -0.5)",cs_minus_ns,"(0.7, -0.5)",cs_minus_ns,0,0,0,0,,,,,0,40,40,89,,,,,,,,,,,,,,,221.75857559998985,222.7655140000279,222.7655140000279,222.91135549999308,223.41826430003857,223.41826430003857,223.56405889999587,l,0.2643099999986589,correct,,223.84185060003074,224.83487240003888,222.7655140000279,,,,,,,,,,,,21,B,2023-12-12_14h53.55.582,gca_discrimination,2022.2.4,143.87102243484358,
positions.xlsx,stimuli.xlsx,test.xlsx,stimuli/Social2.png,stimuli/Social1.png,stimuli/Nonsocial1.png,stimuli/Nonsocial2.png,stimuli/Test1.png,stimuli/Test2.png,"(0.7, 0.5)",cs_plus_ns,"(-0.7, -0.5)",cs_minus_ns,0,0,0,0,,,,,0,41,41,31,,,,,,,,,,,,,,,224.83487240003888,225.84176899999147,225.84176899999147,225.98760190000758,226.4945362000144,226.4945362000144,226.64034570002696,ä,0.34038989996770397,correct,,226.9875568000134,227.48062869999558,225.84176899999147,,,,,,,,,,,,21,B,2023-12-12_14h53.55.582,gca_discrimination,2022.2.4,143.87102243484358,
positions.xlsx,stimuli.xlsx,test.xlsx,stimuli/Social2.png,stimuli/Social1.png,stimuli/Nonsocial1.png,stimuli/Nonsocial2.png,stimuli/Test1.png,stimuli/Test2.png,"(0.7, -0.5)",cs_plus_ns,"(0.7, 0.5)",cs_minus_ns,0,0,0,0,,,,,0,42,42,35,,,,,,,,,,,,,,,227.48062869999558,228.48752280004555,228.48752280004555,228.63334440003382,229.14026479999302,229.14026479999302,229.28608580003493,ä,0.24649210000643507,correct,,229.54302159999497,230.45272960001603,228.48752280004555,,,,,,,,,,,,21,B,2023-12-12_14h53.55.582,gca_discrimination,2022.2.4,143.87102243484358,
positions.xlsx,stimuli.xlsx,test.xlsx,stimuli/Social2.png,stimuli/Social1.png,stimuli/Nonsocial1.png,stimuli/Nonsocial2.png,stimuli/Test1.png,stimuli/Test2.png,"(-0.7, 0.5)",cs_plus_s,"(0.7, 0.5)",cs_plus_s,0,0,0,0,,,,,0,43,43,49,,,,,,,,,,,,,,,230.45272960001603,231.45963490003487,231.45963490003487,231.60546530003194,232.1123612000374,232.1123612000374,232.2582596000284,l,0.38621530000818893,correct,,232.65400390001014,232.8831618000404,231.45963490003487,,,,,,,,,,,,21,B,2023-12-12_14h53.55.582,gca_discrimination,2022.2.4,143.87102243484358,
positions.xlsx,stimuli.xlsx,test.xlsx,stimuli/Social2.png,stimuli/Social1.png,stimuli/Nonsocial1.png,stimuli/Nonsocial2.png,stimuli/Test1.png,stimuli/Test2.png,"(0.7, 0.5)",cs_minus_s,"(-0.7, 0.5)",cs_minus_s,0,0,0,0,,,,,0,44,44,66,,,,,,,,,,,,,,,232.8831618000404,233.8900813999935,233.8900813999935,234.03590780001832,234.54283749999013,234.54283749999013,234.68866290000733,l,0.29974139999831095,correct,,235.00112790003186,235.88306469999952,233.8900813999935,,,,,,,,,,,,21,B,2023-12-12_14h53.55.582,gca_discrimination,2022.2.4,143.87102243484358,
positions.xlsx,stimuli.xlsx,test.xlsx,stimuli/Social2.png,stimuli/Social1.png,stimuli/Nonsocial1.png,stimuli/Nonsocial2.png,stimuli/Test1.png,stimuli/Test2.png,"(0.7, -0.5)",cs_minus_s,"(-0.7, -0.5)",cs_plus_s,0,0,0,0,,,,,0,45,45,22,,,,,,,,,,,,,,,235.88306469999952,236.88998430001084,236.88998430001084,237.0357767000096,237.54272540000966,237.54272540000966,237.6885225000442,ä,0.21212719997856766,correct,,237.9107661000453,238.83431020000717,236.88998430001084,,,,,,,,,,,,21,B,2023-12-12_14h53.55.582,gca_discrimination,2022.2.4,143.87102243484358,
positions.xlsx,stimuli.xlsx,test.xlsx,stimuli/Social2.png,stimuli/Social1.png,stimuli/Nonsocial1.png,stimuli/Nonsocial2.png,stimuli/Test1.png,stimuli/Test2.png,"(0.7, 0.5)",cs_minus_ns,"(0.7, -0.5)",cs_minus_ns,0,0,0,0,,,,,0,46,46,92,,,,,,,,,,,,,,,238.83431020000717,239.84126190003008,239.84126190003008,239.98709170002257,240.49399550003,240.49399550003,240.63983260001987,l,0.4205212999950163,correct,,241.07038300001295,241.93837480002549,239.84126190003008,,,,,,,,,,,,21,B,2023-12-12_14h53.55.582,gca_discrimination,2022.2.4,143.87102243484358,
positions.xlsx,stimuli.xlsx,test.xlsx,stimuli/Social2.png,stimuli/Social1.png,stimuli/Nonsocial1.png,stimuli/Nonsocial2.png,stimuli/Test1.png,stimuli/Test2.png,"(0.7, 0.5)",cs_minus_s,"(-0.7, 0.5)",cs_plus_s,0,0,0,0,,,,,0,47,47,18,,,,,,,,,,,,,,,241.93837480002549,242.9452802000451,242.9452802000451,243.09111450001365,243.59803850000026,243.59803850000026,243.74388980004005,ä,0.2373591000214219,correct,,243.99383940000553,244.1952336000395,242.9452802000451,,,,,,,,,,,,21,B,2023-12-12_14h53.55.582,gca_discrimination,2022.2.4,143.87102243484358,
positions.xlsx,stimuli.xlsx,test.xlsx,stimuli/Social2.png,stimuli/Social1.png,stimuli/Nonsocial1.png,stimuli/Nonsocial2.png,stimuli/Test1.png,stimuli/Test2.png,"(0.7, -0.5)",cs_minus_s,"(-0.7, 0.5)",cs_minus_s,0,0,0,0,,,,,0,48,48,69,,,,,,,,,,,,,,,244.1952336000395,245.20214100001613,245.20214100001613,245.34796760004247,245.85490070004016,245.85490070004016,246.00072180002462,l,0.3161291999858804,correct,,246.32710749999387,246.44514450000133,245.20214100001613,,,,,,,,,,,,21,B,2023-12-12_14h53.55.582,gca_discrimination,2022.2.4,143.87102243484358,
positions.xlsx,stimuli.xlsx,test.xlsx,stimuli/Social2.png,stimuli/Social1.png,stimuli/Nonsocial1.png,stimuli/Nonsocial2.png,stimuli/Test1.png,stimuli/Test2.png,"(-0.7, 0.5)",cs_minus_ns,"(-0.7, -0.5)",cs_minus_ns,0,0,0,0,,,,,0,49,49,84,,,,,,,,,,,,,,,246.44514450000133,247.45207619998837,247.45207619998837,247.59786640002858,248.10482230002526,248.10482230002526,248.25063870003214,l,0.4013993999687955,correct,,248.66033770004287,248.7090141000226,247.45207619998837,,,,,,,,,,,,21,B,2023-12-12_14h53.55.582,gca_discrimination,2022.2.4,143.87102243484358,
positions.xlsx,stimuli.xlsx,test.xlsx,stimuli/Social2.png,stimuli/Social1.png,stimuli/Nonsocial1.png,stimuli/Nonsocial2.png,stimuli/Test1.png,stimuli/Test2.png,"(-0.7, -0.5)",cs_minus_ns,"(-0.7, 0.5)",cs_plus_ns,0,0,0,0,,,,,0,50,50,39,,,,,,,,,,,,,,,248.7090141000226,249.71589230000973,249.71589230000973,249.86171319999266,250.36861070001032,250.36861070001032,250.51445389998844,ä,0.45023409998975694,correct,,250.97276630002307,251.7990949000232,249.71589230000973,,,,,,,,,,,,21,B,2023-12-12_14h53.55.582,gca_discrimination,2022.2.4,143.87102243484358,
positions.xlsx,stimuli.xlsx,test.xlsx,stimuli/Social2.png,stimuli/Social1.png,stimuli/Nonsocial1.png,stimuli/Nonsocial2.png,stimuli/Test1.png,stimuli/Test2.png,"(-0.7, -0.5)",cs_plus_s,"(0.7, 0.5)",cs_plus_s,0,0,0,0,,,,,0,51,51,52,,,,,,,,,,,,,,,251.7990949000232,252.80601830000523,252.80601830000523,252.95185140002286,253.45878340001218,253.45878340001218,253.6045772000216,l,0.3833167999982834,correct,,254.00041600002442,254.12542160000885,252.80601830000523,,,,,,,,,,,,21,B,2023-12-12_14h53.55.582,gca_discrimination,2022.2.4,143.87102243484358,
positions.xlsx,stimuli.xlsx,test.xlsx,stimuli/Social2.png,stimuli/Social1.png,stimuli/Nonsocial1.png,stimuli/Nonsocial2.png,stimuli/Test1.png,stimuli/Test2.png,"(-0.7, -0.5)",cs_plus_ns,"(-0.7, 0.5)",cs_plus_ns,0,0,0,0,,,,,0,52,52,75,,,,,,,,,,,,,,,254.12542160000885,255.13229939999292,255.13229939999292,255.27811240003211,255.78508649999276,255.78508649999276,255.93088920001173,l,0.3135344000183977,correct,,256.2572249000077,257.1183335999958,255.13229939999292,,,,,,,,,,,,21,B,2023-12-12_14h53.55.582,gca_discrimination,2022.2.4,143.87102243484358,
positions.xlsx,stimuli.xlsx,test.xlsx,stimuli/Social2.png,stimuli/Social1.png,stimuli/Nonsocial1.png,stimuli/Nonsocial2.png,stimuli/Test1.png,stimuli/Test2.png,"(-0.7, 0.5)",cs_plus_s,"(0.7, -0.5)",cs_minus_s,0,0,0,0,,,,,0,53,53,2,,,,,,,,,,,,,,,257.1183335999958,258.1252502000425,258.1252502000425,258.27109120000387,258.77797520003514,258.77797520003514,258.9238248000038,ä,0.3126547000138089,correct,,259.24328930000775,259.8821404000046,258.1252502000425,,,,,,,,,,,,21,B,2023-12-12_14h53.55.582,gca_discrimination,2022.2.4,143.87102243484358,
positions.xlsx,stimuli.xlsx,test.xlsx,stimuli/Social2.png,stimuli/Social1.png,stimuli/Nonsocial1.png,stimuli/Nonsocial2.png,stimuli/Test1.png,stimuli/Test2.png,"(-0.7, 0.5)",cs_minus_ns,"(0.7, -0.5)",cs_plus_ns,0,0,0,0,,,,,0,54,54,38,,,,,,,,,,,,,,,259.8821404000046,260.8891210000147,260.8891210000147,261.0348603000166,261.54179500002647,261.54179500002647,261.6875929000089,ä,0.22918580000987276,correct,,261.92374910000945,261.9723385000252,260.8891210000147,,,,,,,,,,,,21,B,2023-12-12_14h53.55.582,gca_discrimination,2022.2.4,143.87102243484358,
positions.xlsx,stimuli.xlsx,test.xlsx,stimuli/Social2.png,stimuli/Social1.png,stimuli/Nonsocial1.png,stimuli/Nonsocial2.png,stimuli/Test1.png,stimuli/Test2.png,"(-0.7, 0.5)",cs_plus_s,"(-0.7, -0.5)",cs_plus_s,0,0,0,0,,,,,0,55,55,48,,,,,,,,,,,,,,,261.9723385000252,262.9792321000132,262.9792321000132,263.1250529999961,263.63196970004356,263.63196970004356,263.7778229000396,l,0.33007099997485057,correct,,264.11804660002235,264.5069536000374,262.9792321000132,,,,,,,,,,,,21,B,2023-12-12_14h53.55.582,gca_discrimination,2022.2.4,143.87102243484358,
positions.xlsx,stimuli.xlsx,test.xlsx,stimuli/Social2.png,stimuli/Social1.png,stimuli/Nonsocial1.png,stimuli/Nonsocial2.png,stimuli/Test1.png,stimuli/Test2.png,"(0.7, 0.5)",cs_minus_s,"(-0.7, -0.5)",cs_minus_s,0,0,0,0,,,,,0,56,56,67,,,,,,,,,,,,,,,264.5069536000374,265.51385049999226,265.51385049999226,265.65967880003154,266.1666024000151,266.1666024000151,266.3124341000221,l,0.3872817999799736,correct,,266.7082089000032,266.82631279999623,265.51385049999226,,,,,,,,,,,,21,B,2023-12-12_14h53.55.582,gca_discrimination,2022.2.4,143.87102243484358,
positions.xlsx,stimuli.xlsx,test.xlsx,stimuli/Social2.png,stimuli/Social1.png,stimuli/Nonsocial1.png,stimuli/Nonsocial2.png,stimuli/Test1.png,stimuli/Test2.png,"(-0.7, -0.5)",cs_minus_s,"(0.7, 0.5)",cs_minus_s,0,0,0,0,,,,,0,57,57,64,,,,,,,,,,,,,,,266.82631279999623,267.8332423000247,267.8332423000247,267.9790084999986,268.4859574000002,268.4859574000002,268.6317846000311,l,0.3659005999797955,correct,,269.00676429999294,269.85395429999335,267.8332423000247,,,,,,,,,,,,21,B,2023-12-12_14h53.55.582,gca_discrimination,2022.2.4,143.87102243484358,
positions.xlsx,stimuli.xlsx,test.xlsx,stimuli/Social2.png,stimuli/Social1.png,stimuli/Nonsocial1.png,stimuli/Nonsocial2.png,stimuli/Test1.png,stimuli/Test2.png,"(0.7, 0.5)",cs_minus_s,"(0.7, -0.5)",cs_plus_s,0,0,0,0,,,,,0,58,58,20,,,,,,,,,,,,,,,269.85395429999335,270.86089230002835,270.86089230002835,271.00666030001594,271.51360890001524,271.51360890001524,271.65944880002644,ä,0.32828939997125417,correct,,271.99974940001266,272.63161139999283,270.86089230002835,,,,,,,,,,,,21,B,2023-12-12_14h53.55.582,gca_discrimination,2022.2.4,143.87102243484358,
positions.xlsx,stimuli.xlsx,test.xlsx,stimuli/Social2.png,stimuli/Social1.png,stimuli/Nonsocial1.png,stimuli/Nonsocial2.png,stimuli/Test1.png,stimuli/Test2.png,"(0.7, 0.5)",cs_minus_s,"(0.7, -0.5)",cs_minus_s,0,0,0,0,,,,,0,59,59,68,,,,,,,,,,,,,,,272.63161139999283,273.6385503000347,273.6385503000347,273.78434320003726,274.2912744000205,274.2912744000205,274.43712960003177,l,0.4548842000076547,correct,,274.90237289998913,275.2356637000339,273.6385503000347,,,,,,,,,,,,21,B,2023-12-12_14h53.55.582,gca_discrimination,2022.2.4,143.87102243484358,
positions.xlsx,stimuli.xlsx,test.xlsx,stimuli/Social2.png,stimuli/Social1.png,stimuli/Nonsocial1.png,stimuli/Nonsocial2.png,stimuli/Test1.png,stimuli/Test2.png,"(0.7, 0.5)",cs_plus_s,"(0.7, -0.5)",cs_minus_s,0,0,0,0,,,,,0,60,60,8,,,,,,,,,,,,,,,275.2356637000339,276.24258760001976,276.24258760001976,276.3884398000082,276.89535539998906,276.89535539998906,277.0412306000362,ä,0.28305420000106096,correct,,277.3328212000197,277.7425360000343,276.24258760001976,,,,,,,,,,,,21,B,2023-12-12_14h53.55.582,gca_discrimination,2022.2.4,143.87102243484358,
positions.xlsx,stimuli.xlsx,test.xlsx,stimuli/Social2.png,stimuli/Social1.png,stimuli/Nonsocial1.png,stimuli/Nonsocial2.png,stimuli/Test1.png,stimuli/Test2.png,"(-0.7, -0.5)",cs_plus_s,"(0.7, 0.5)",cs_minus_s,0,0,0,0,,,,,0,61,61,4,,,,,,,,,,,,,,,277.7425360000343,278.7494631000445,278.7494631000445,278.89525739999954,279.4022954000393,279.4022954000393,279.54801249998854,ä,0.3695018999860622,correct,,279.929952400038,280.24249090004014,278.7494631000445,,,,,,,,,,,,21,B,2023-12-12_14h53.55.582,gca_discrimination,2022.2.4,143.87102243484358,
positions.xlsx,stimuli.xlsx,test.xlsx,stimuli/Social2.png,stimuli/Social1.png,stimuli/Nonsocial1.png,stimuli/Nonsocial2.png,stimuli/Test1.png,stimuli/Test2.png,"(-0.7, 0.5)",cs_minus_s,"(-0.7, -0.5)",cs_minus_s,0,0,0,0,,,,,0,62,62,60,,,,,,,,,,,,,,,280.24249090004014,281.2493322000373,281.2493322000373,281.395144900016,281.9021214999957,281.9021214999957,282.0479439999908,l,0.436041800014209,correct,,282.4923689000425,283.325688300014,281.2493322000373,,,,,,,,,,,,21,B,2023-12-12_14h53.55.582,gca_discrimination,2022.2.4,143.87102243484358,
positions.xlsx,stimuli.xlsx,test.xlsx,stimuli/Social2.png,stimuli/Social1.png,stimuli/Nonsocial1.png,stimuli/Nonsocial2.png,stimuli/Test1.png,stimuli/Test2.png,"(-0.7, -0.5)",cs_minus_ns,"(0.7, 0.5)",cs_minus_ns,0,0,0,0,,,,,0,63,63,88,,,,,,,,,,,,,,,283.325688300014,284.3325882999925,284.3325882999925,284.4783697000239,284.9852854000055,284.9852854000055,285.13113789999625,l,0.3207336000050418,correct,,285.46445630001836,286.1380491000018,284.3325882999925,,,,,,,,,,,,21,B,2023-12-12_14h53.55.582,gca_discrimination,2022.2.4,143.87102243484358,
positions.xlsx,stimuli.xlsx,test.xlsx,stimuli/Social2.png,stimuli/Social1.png,stimuli/Nonsocial1.png,stimuli/Nonsocial2.png,stimuli/Test1.png,stimuli/Test2.png,"(0.7, -0.5)",cs_minus_ns,"(0.7, 0.5)",cs_plus_ns,0,0,0,0,,,,,0,64,64,47,,,,,,,,,,,,,,,286.1380491000018,287.14495650003664,287.14495650003664,287.29079709999496,287.7976885000244,287.7976885000244,287.94352070003515,ä,0.2859501000493765,correct,,288.2420853000367,288.6935490000178,287.14495650003664,,,,,,,,,,,,21,B,2023-12-12_14h53.55.582,gca_discrimination,2022.2.4,143.87102243484358,
positions.xlsx,stimuli.xlsx,test.xlsx,stimuli/Social2.png,stimuli/Social1.png,stimuli/Nonsocial1.png,stimuli/Nonsocial2.png,stimuli/Test1.png,stimuli/Test2.png,"(-0.7, 0.5)",cs_minus_s,"(0.7, 0.5)",cs_plus_s,0,0,0,0,,,,,0,65,65,13,,,,,,,,,,,,,,,288.6935490000178,289.7003936000401,289.7003936000401,289.8462239000364,290.3531573000364,290.3531573000364,290.49894660001155,ä,0.29755560000194237,correct,,290.8045713999891,291.71421230002306,289.7003936000401,,,,,,,,,,,,21,B,2023-12-12_14h53.55.582,gca_discrimination,2022.2.4,143.87102243484358,
positions.xlsx,stimuli.xlsx,test.xlsx,stimuli/Social2.png,stimuli/Social1.png,stimuli/Nonsocial1.png,stimuli/Nonsocial2.png,stimuli/Test1.png,stimuli/Test2.png,"(0.7, 0.5)",cs_minus_ns,"(-0.7, -0.5)",cs_plus_ns,0,0,0,0,,,,,0,66,66,43,,,,,,,,,,,,,,,291.71421230002306,292.72114490001695,292.72114490001695,292.86694620002527,293.37389690004056,293.37389690004056,293.5196985999937,ä,0.24522690003504977,correct,,293.77664039999945,293.8252269999939,292.72114490001695,,,,,,,,,,,,21,B,2023-12-12_14h53.55.582,gca_discrimination,2022.2.4,143.87102243484358,
positions.xlsx,stimuli.xlsx,test.xlsx,stimuli/Social2.png,stimuli/Social1.png,stimuli/Nonsocial1.png,stimuli/Nonsocial2.png,stimuli/Test1.png,stimuli/Test2.png,"(-0.7, 0.5)",cs_plus_s,"(0.7, 0.5)",cs_minus_s,0,0,0,0,,,,,0,67,67,1,,,,,,,,,,,,,,,293.8252269999939,294.83213749999413,294.83213749999413,294.97796049999306,295.48493040003814,295.48493040003814,295.63074150000466,ä,0.3416776999947615,correct,,295.9848834000295,296.49185540003236,294.83213749999413,,,,,,,,,,,,21,B,2023-12-12_14h53.55.582,gca_discrimination,2022.2.4,143.87102243484358,
positions.xlsx,stimuli.xlsx,test.xlsx,stimuli/Social2.png,stimuli/Social1.png,stimuli/Nonsocial1.png,stimuli/Nonsocial2.png,stimuli/Test1.png,stimuli/Test2.png,"(0.7, -0.5)",cs_plus_ns,"(-0.7, -0.5)",cs_minus_ns,0,0,0,0,,,,,0,68,68,34,,,,,,,,,,,,,,,296.49185540003236,297.49872570001753,297.49872570001753,297.6445566000184,298.15146890003234,298.15146890003234,298.297297800018,ä,0.2987633000011556,correct,,298.60281740000937,299.4291947000311,297.49872570001753,,,,,,,,,,,,21,B,2023-12-12_14h53.55.582,gca_discrimination,2022.2.4,143.87102243484358,
positions.xlsx,stimuli.xlsx,test.xlsx,stimuli/Social2.png,stimuli/Social1.png,stimuli/Nonsocial1.png,stimuli/Nonsocial2.png,stimuli/Test1.png,stimuli/Test2.png,"(0.7, 0.5)",cs_minus_ns,"(0.7, -0.5)",cs_plus_ns,0,0,0,0,,,,,0,69,69,44,,,,,,,,,,,,,,,299.4291947000311,300.4361032000161,300.4361032000161,300.5819643000141,301.08885010000085,301.08885010000085,301.23465330002364,ä,0.23346650000894442,correct,,301.47772020002594,302.17909230000805,300.4361032000161,,,,,,,,,,,,21,B,2023-12-12_14h53.55.582,gca_discrimination,2022.2.4,143.87102243484358,
positions.xlsx,stimuli.xlsx,test.xlsx,stimuli/Social2.png,stimuli/Social1.png,stimuli/Nonsocial1.png,stimuli/Nonsocial2.png,stimuli/Test1.png,stimuli/Test2.png,"(-0.7, -0.5)",cs_plus_s,"(-0.7, 0.5)",cs_plus_s,0,0,0,0,,,,,0,70,70,51,,,,,,,,,,,,,,,302.17909230000805,303.18597290001344,303.18597290001344,303.3318145000376,303.8387602000148,303.8387602000148,303.98455779999495,l,0.3555563000263646,correct,,304.3526248999988,304.6025589000201,303.18597290001344,,,,,,,,,,,,21,B,2023-12-12_14h53.55.582,gca_discrimination,2022.2.4,143.87102243484358,
positions.xlsx,stimuli.xlsx,test.xlsx,stimuli/Social2.png,stimuli/Social1.png,stimuli/Nonsocial1.png,stimuli/Nonsocial2.png,stimuli/Test1.png,stimuli/Test2.png,"(0.7, -0.5)",cs_minus_ns,"(-0.7, -0.5)",cs_plus_ns,0,0,0,0,,,,,0,71,71,46,,,,,,,,,,,,,,,304.6025589000201,305.6095190999913,305.6095190999913,305.75535759999184,306.26226190000307,306.26226190000307,306.4080743000377,ä,0.3079308999585919,correct,,306.72749610000756,307.19974050001474,305.6095190999913,,,,,,,,,,,,21,B,2023-12-12_14h53.55.582,gca_discrimination,2022.2.4,143.87102243484358,
positions.xlsx,stimuli.xlsx,test.xlsx,stimuli/Social2.png,stimuli/Social1.png,stimuli/Nonsocial1.png,stimuli/Nonsocial2.png,stimuli/Test1.png,stimuli/Test2.png,"(-0.7, -0.5)",cs_minus_ns,"(0.7, -0.5)",cs_plus_ns,0,0,0,0,,,,,0,72,72,41,,,,,,,,,,,,,,,307.19974050001474,308.2066310000373,308.2066310000373,308.3524758000276,308.8593791000312,308.8593791000312,309.00520880002296,ä,0.2800799999968149,correct,,309.29686120001134,309.55380250001326,308.2066310000373,,,,,,,,,,,,21,B,2023-12-12_14h53.55.582,gca_discrimination,2022.2.4,143.87102243484358,
positions.xlsx,stimuli.xlsx,test.xlsx,stimuli/Social2.png,stimuli/Social1.png,stimuli/Nonsocial1.png,stimuli/Nonsocial2.png,stimuli/Test1.png,stimuli/Test2.png,"(0.7, -0.5)",cs_plus_s,"(0.7, 0.5)",cs_minus_s,0,0,0,0,,,,,0,73,73,11,,,,,,,,,,,,,,,309.55380250001326,310.5607414999977,310.5607414999977,310.7065399000421,311.21344810002483,311.21344810002483,311.35927630000515,ä,0.36558000004151836,correct,,311.7342592999921,312.1161992000416,310.5607414999977,,,,,,,,,,,,21,B,2023-12-12_14h53.55.582,gca_discrimination,2022.2.4,143.87102243484358,
positions.xlsx,stimuli.xlsx,test.xlsx,stimuli/Social2.png,stimuli/Social1.png,stimuli/Nonsocial1.png,stimuli/Nonsocial2.png,stimuli/Test1.png,stimuli/Test2.png,"(0.7, 0.5)",cs_minus_ns,"(-0.7, -0.5)",cs_minus_ns,0,0,0,0,,,,,0,74,74,91,,,,,,,,,,,,,,,312.1161992000416,313.12311839999165,313.12311839999165,313.2689040999976,313.77587230002973,313.77587230002973,313.92169300001115,l,0.2907410000334494,correct,,314.2203119000187,315.14386770001147,313.12311839999165,,,,,,,,,,,,21,B,2023-12-12_14h53.55.582,gca_discrimination,2022.2.4,143.87102243484358,
positions.xlsx,stimuli.xlsx,test.xlsx,stimuli/Social2.png,stimuli/Social1.png,stimuli/Nonsocial1.png,stimuli/Nonsocial2.png,stimuli/Test1.png,stimuli/Test2.png,"(-0.7, 0.5)",cs_plus_ns,"(0.7, 0.5)",cs_minus_ns,0,0,0,0,,,,,0,75,75,25,,,,,,,,,,,,,,,315.14386770001147,316.15078299999004,316.15078299999004,316.2966095000156,316.8035007000435,316.8035007000435,316.9493636999978,ä,0.23065979999955744,correct,,317.19240330002503,318.0743086000439,316.15078299999004,,,,,,,,,,,,21,B,2023-12-12_14h53.55.582,gca_discrimination,2022.2.4,143.87102243484358,
positions.xlsx,stimuli.xlsx,test.xlsx,stimuli/Social2.png,stimuli/Social1.png,stimuli/Nonsocial1.png,stimuli/Nonsocial2.png,stimuli/Test1.png,stimuli/Test2.png,"(0.7, -0.5)",cs_plus_ns,"(-0.7, 0.5)",cs_plus_ns,0,0,0,0,,,,,0,76,76,81,,,,,,,,,,,,,,,318.0743086000439,319.0812157000182,319.0812157000182,319.22702260001097,319.73397180001484,319.73397180001484,319.87975760002155,l,0.26050629996461794,correct,,320.1505572000169,320.345041499997,319.0812157000182,,,,,,,,,,,,21,B,2023-12-12_14h53.55.582,gca_discrimination,2022.2.4,143.87102243484358,
positions.xlsx,stimuli.xlsx,test.xlsx,stimuli/Social2.png,stimuli/Social1.png,stimuli/Nonsocial1.png,stimuli/Nonsocial2.png,stimuli/Test1.png,stimuli/Test2.png,"(-0.7, 0.5)",cs_minus_s,"(0.7, -0.5)",cs_plus_s,0,0,0,0,,,,,0,77,77,14,,,,,,,,,,,,,,,320.345041499997,321.3519368999987,321.3519368999987,321.4977708000224,322.0047292000381,322.0047292000381,322.15052660001675,ä,0.28614809998543933,correct,,322.44912160001695,322.9143790000235,321.3519368999987,,,,,,,,,,,,21,B,2023-12-12_14h53.55.582,gca_discrimination,2022.2.4,143.87102243484358,
positions.xlsx,stimuli.xlsx,test.xlsx,stimuli/Social2.png,stimuli/Social1.png,stimuli/Nonsocial1.png,stimuli/Nonsocial2.png,stimuli/Test1.png,stimuli/Test2.png,"(0.7, -0.5)",cs_minus_s,"(0.7, 0.5)",cs_plus_s,0,0,0,0,,,,,0,78,78,23,,,,,,,,,,,,,,,322.9143790000235,323.92131090001203,323.92131090001203,324.06713570002466,324.5740389000275,324.5740389000275,324.7198566000443,ä,0.1965535000199452,correct,,324.9281708000344,325.539279300021,323.92131090001203,,,,,,,,,,,,21,B,2023-12-12_14h53.55.582,gca_discrimination,2022.2.4,143.87102243484358,
positions.xlsx,stimuli.xlsx,test.xlsx,stimuli/Social2.png,stimuli/Social1.png,stimuli/Nonsocial1.png,stimuli/Nonsocial2.png,stimuli/Test1.png,stimuli/Test2.png,"(0.7, -0.5)",cs_minus_ns,"(-0.7, 0.5)",cs_minus_ns,0,0,0,0,,,,,0,79,79,93,,,,,,,,,,,,,,,325.539279300021,326.5462184000062,326.5462184000062,326.69201260001864,327.1989458000171,327.1989458000171,327.3447834000108,l,0.3483313000178896,correct,,327.7058388000005,328.4349909000448,326.5462184000062,,,,,,,,,,,,21,B,2023-12-12_14h53.55.582,gca_discrimination,2022.2.4,143.87102243484358,
positions.xlsx,stimuli.xlsx,test.xlsx,stimuli/Social2.png,stimuli/Social1.png,stimuli/Nonsocial1.png,stimuli/Nonsocial2.png,stimuli/Test1.png,stimuli/Test2.png,"(0.7, -0.5)",cs_plus_s,"(-0.7, 0.5)",cs_plus_s,0,0,0,0,,,,,0,80,80,57,,,,,,,,,,,,,,,328.4349909000448,329.44188320002286,329.44188320002286,329.58771870000055,330.0946547000203,330.0946547000203,330.24049530003686,l,0.3489646000089124,correct,,330.60160350002116,330.7543614000315,329.44188320002286,,,,,,,,,,,,21,B,2023-12-12_14h53.55.582,gca_discrimination,2022.2.4,143.87102243484358,
positions.xlsx,stimuli.xlsx,test.xlsx,stimuli/Social2.png,stimuli/Social1.png,stimuli/Nonsocial1.png,stimuli/Nonsocial2.png,stimuli/Test1.png,stimuli/Test2.png,"(-0.7, 0.5)",cs_plus_ns,"(0.7, -0.5)",cs_plus_ns,0,0,0,0,,,,,0,81,81,74,,,,,,,,,,,,,,,330.7543614000315,331.76127230003476,331.76127230003476,331.9070767000085,332.41401659999974,332.41401659999974,332.5598408000078,ä,0.2204552000039257,wrong,,332.7890092000016,332.85843930003466,331.76127230003476,,,,,,,,,,,,21,B,2023-12-12_14h53.55.582,gca_discrimination,2022.2.4,143.87102243484358,
positions.xlsx,stimuli.xlsx,test.xlsx,stimuli/Social2.png,stimuli/Social1.png,stimuli/Nonsocial1.png,stimuli/Nonsocial2.png,stimuli/Test1.png,stimuli/Test2.png,"(0.7, 0.5)",cs_plus_s,"(-0.7, -0.5)",cs_plus_s,0,0,0,0,,,,,0,82,82,55,,,,,,,,,,,,,,,332.85843930003466,333.86536440002965,333.86536440002965,334.01117499999236,334.5181116000167,334.5181116000167,334.6639547999948,l,0.2603149000206031,correct,,334.9347543999902,335.4139159999904,333.86536440002965,,,,,,,,,,,,21,B,2023-12-12_14h53.55.582,gca_discrimination,2022.2.4,143.87102243484358,
positions.xlsx,stimuli.xlsx,test.xlsx,stimuli/Social2.png,stimuli/Social1.png,stimuli/Nonsocial1.png,stimuli/Nonsocial2.png,stimuli/Test1.png,stimuli/Test2.png,"(-0.7, 0.5)",cs_plus_ns,"(0.7, -0.5)",cs_minus_ns,0,0,0,0,,,,,0,83,83,26,,,,,,,,,,,,,,,335.4139159999904,336.4208375000162,336.4208375000162,336.56662580004195,337.07356540003093,337.07356540003093,337.21939099999145,ä,0.2739294999628328,correct,,337.5040653999895,338.0318610999966,336.4208375000162,,,,,,,,,,,,21,B,2023-12-12_14h53.55.582,gca_discrimination,2022.2.4,143.87102243484358,
positions.xlsx,stimuli.xlsx,test.xlsx,stimuli/Social2.png,stimuli/Social1.png,stimuli/Nonsocial1.png,stimuli/Nonsocial2.png,stimuli/Test1.png,stimuli/Test2.png,"(-0.7, -0.5)",cs_plus_ns,"(-0.7, 0.5)",cs_minus_ns,0,0,0,0,,,,,0,84,84,27,,,,,,,,,,,,,,,338.0318610999966,339.03878480003914,339.03878480003914,339.18458609998925,339.6915133000002,339.6915133000002,339.8373597000027,ä,0.4481339000049047,correct,,340.2956347000436,340.97616270004073,339.03878480003914,,,,,,,,,,,,21,B,2023-12-12_14h53.55.582,gca_discrimination,2022.2.4,143.87102243484358,
positions.xlsx,stimuli.xlsx,test.xlsx,stimuli/Social2.png,stimuli/Social1.png,stimuli/Nonsocial1.png,stimuli/Nonsocial2.png,stimuli/Test1.png,stimuli/Test2.png,"(0.7, 0.5)",cs_plus_ns,"(0.7, -0.5)",cs_minus_ns,0,0,0,0,,,,,0,85,85,32,,,,,,,,,,,,,,,340.97616270004073,341.9830622000154,341.9830622000154,342.1289096000255,342.6358588000294,342.6358588000294,342.781652100035,ä,0.3668125999975018,correct,,343.1566740000271,343.3927323000389,341.9830622000154,,,,,,,,,,,,21,B,2023-12-12_14h53.55.582,gca_discrimination,2022.2.4,143.87102243484358,
positions.xlsx,stimuli.xlsx,test.xlsx,stimuli/Social2.png,stimuli/Social1.png,stimuli/Nonsocial1.png,stimuli/Nonsocial2.png,stimuli/Test1.png,stimuli/Test2.png,"(0.7, -0.5)",cs_minus_ns,"(-0.7, -0.5)",cs_minus_ns,0,0,0,0,,,,,0,86,86,94,,,,,,,,,,,,,,,343.3927323000389,344.3996621000115,344.3996621000115,344.54547000001185,345.0524218000355,345.0524218000355,345.19824370002607,l,0.246389799984172,correct,,345.45518380001886,345.94824560004054,344.3996621000115,,,,,,,,,,,,21,B,2023-12-12_14h53.55.582,gca_discrimination,2022.2.4,143.87102243484358,
positions.xlsx,stimuli.xlsx,test.xlsx,stimuli/Social2.png,stimuli/Social1.png,stimuli/Nonsocial1.png,stimuli/Nonsocial2.png,stimuli/Test1.png,stimuli/Test2.png,"(0.7, 0.5)",cs_plus_s,"(-0.7, 0.5)",cs_plus_s,0,0,0,0,,,,,0,87,87,54,,,,,,,,,,,,,,,345.94824560004054,346.95509400003357,346.95509400003357,347.1009264999884,347.60797640000237,347.60797640000237,347.7537133000442,l,0.3067365000024438,correct,,348.0731440000236,348.17729469999904,346.95509400003357,,,,,,,,,,,,21,B,2023-12-12_14h53.55.582,gca_discrimination,2022.2.4,143.87102243484358,
positions.xlsx,stimuli.xlsx,test.xlsx,stimuli/Social2.png,stimuli/Social1.png,stimuli/Nonsocial1.png,stimuli/Nonsocial2.png,stimuli/Test1.png,stimuli/Test2.png,"(-0.7, -0.5)",cs_plus_s,"(-0.7, 0.5)",cs_minus_s,0,0,0,0,,,,,0,88,88,3,,,,,,,,,,,,,,,348.17729469999904,349.1841917000129,349.1841917000129,349.33003270003246,349.83695810002973,349.83695810002973,349.98276410001563,ä,0.3497207000036724,correct,,350.3438843000331,350.9757923000143,349.1841917000129,,,,,,,,,,,,21,B,2023-12-12_14h53.55.582,gca_discrimination,2022.2.4,143.87102243484358,
positions.xlsx,stimuli.xlsx,test.xlsx,stimuli/Social2.png,stimuli/Social1.png,stimuli/Nonsocial1.png,stimuli/Nonsocial2.png,stimuli/Test1.png,stimuli/Test2.png,"(0.7, -0.5)",cs_plus_s,"(-0.7, -0.5)",cs_minus_s,0,0,0,0,,,,,0,89,89,10,,,,,,,,,,,,,,,350.9757923000143,351.98269420000724,351.98269420000724,352.1285060000373,352.6354796999949,352.6354796999949,352.78129280003486,ä,0.35075569996843114,correct,,353.14238010003464,353.2326597000356,351.98269420000724,,,,,,,,,,,,21,B,2023-12-12_14h53.55.582,gca_discrimination,2022.2.4,143.87102243484358,
positions.xlsx,stimuli.xlsx,test.xlsx,stimuli/Social2.png,stimuli/Social1.png,stimuli/Nonsocial1.png,stimuli/Nonsocial2.png,stimuli/Test1.png,stimuli/Test2.png,"(0.7, 0.5)",cs_plus_ns,"(-0.7, -0.5)",cs_plus_ns,0,0,0,0,,,,,0,90,90,79,,,,,,,,,,,,,,,353.2326597000356,354.2395451000193,354.2395451000193,354.385399300023,354.8923138999962,354.8923138999962,355.0381611000048,l,0.3657997000264004,correct,,355.4131197000388,356.1839257000247,354.2395451000193,,,,,,,,,,,,21,B,2023-12-12_14h53.55.582,gca_discrimination,2022.2.4,143.87102243484358,
positions.xlsx,stimuli.xlsx,test.xlsx,stimuli/Social2.png,stimuli/Social1.png,stimuli/Nonsocial1.png,stimuli/Nonsocial2.png,stimuli/Test1.png,stimuli/Test2.png,"(0.7, -0.5)",cs_plus_ns,"(0.7, 0.5)",cs_plus_ns,0,0,0,0,,,,,0,91,91,83,,,,,,,,,,,,,,,356.1839257000247,357.19083620002493,357.19083620002493,357.33664470002986,357.8435889999964,357.8435889999964,357.9894193999935,l,0.3107832999667153,correct,,358.30883059999906,358.78802149998955,357.19083620002493,,,,,,,,,,,,21,B,2023-12-12_14h53.55.582,gca_discrimination,2022.2.4,143.87102243484358,
positions.xlsx,stimuli.xlsx,test.xlsx,stimuli/Social2.png,stimuli/Social1.png,stimuli/Nonsocial1.png,stimuli/Nonsocial2.png,stimuli/Test1.png,stimuli/Test2.png,"(-0.7, 0.5)",cs_plus_ns,"(-0.7, -0.5)",cs_plus_ns,0,0,0,0,,,,,0,92,92,72,,,,,,,,,,,,,,,358.78802149998955,359.7949116000091,359.7949116000091,359.94073860003846,360.4476710000308,360.4476710000308,360.59348550002323,l,0.24370059999637306,correct,,360.8504104000167,361.2462218000437,359.7949116000091,,,,,,,,,,,,21,B,2023-12-12_14h53.55.582,gca_discrimination,2022.2.4,143.87102243484358,
positions.xlsx,stimuli.xlsx,test.xlsx,stimuli/Social2.png,stimuli/Social1.png,stimuli/Nonsocial1.png,stimuli/Nonsocial2.png,stimuli/Test1.png,stimuli/Test2.png,"(-0.7, 0.5)",cs_plus_s,"(-0.7, -0.5)",cs_minus_s,0,0,0,0,,,,,0,93,93,0,,,,,,,,,,,,,,,361.2462218000437,362.2531648000004,362.2531648000004,362.39897660003044,362.9059144000057,362.9059144000057,363.0517140000011,ä,0.35303630004636943,correct,,363.4128439000342,363.43362780002644,362.2531648000004,,,,,,,,,,,,21,B,2023-12-12_14h53.55.582,gca_discrimination,2022.2.4,143.87102243484358,
positions.xlsx,stimuli.xlsx,test.xlsx,stimuli/Social2.png,stimuli/Social1.png,stimuli/Nonsocial1.png,stimuli/Nonsocial2.png,stimuli/Test1.png,stimuli/Test2.png,"(-0.7, -0.5)",cs_minus_ns,"(-0.7, 0.5)",cs_minus_ns,0,0,0,0,,,,,0,94,94,87,,,,,,,,,,,,,,,363.43362780002644,364.44055649999063,364.44055649999063,364.5864009000361,365.0933047000435,365.0933047000435,365.23914170003263,l,0.3255023999954574,correct,,365.57246320002014,366.4751866000006,364.44055649999063,,,,,,,,,,,,21,B,2023-12-12_14h53.55.582,gca_discrimination,2022.2.4,143.87102243484358,
positions.xlsx,stimuli.xlsx,test.xlsx,stimuli/Social2.png,stimuli/Social1.png,stimuli/Nonsocial1.png,stimuli/Nonsocial2.png,stimuli/Test1.png,stimuli/Test2.png,"(-0.7, 0.5)",cs_plus_s,"(0.7, -0.5)",cs_plus_s,0,0,0,0,,,,,0,95,95,50,,,,,,,,,,,,,,,366.4751866000006,367.48206420004135,367.48206420004135,367.62793100002455,368.1348800000269,368.1348800000269,368.2806906999904,l,0.3487127999542281,correct,,368.6417999000405,369.113992300001,367.48206420004135,,,,,,,,,,,,21,B,2023-12-12_14h53.55.582,gca_discrimination,2022.2.4,143.87102243484358,
