posFile,stimFile,testFile,cs_plus_s,cs_minus_s,cs_plus_ns,cs_minus_ns,test1,test2,position1,trialtype,position2,comptype,blocks.thisRepN,blocks.thisTrialN,blocks.thisN,blocks.thisIndex,learning_trials.thisRepN,learning_trials.thisTrialN,learning_trials.thisN,learning_trials.thisIndex,trials.thisRepN,trials.thisTrialN,trials.thisN,trials.thisIndex,textStart.started,spaceStart.started,spaceStart.keys,spaceStart.rt,textStartExp.started,textExpImages.started,ImageLearning1.started,ImageLearning2.started,textSpace.started,spaceStartExp.started,spaceStartExp.keys,spaceStartExp.rt,blankScreen.started,blankScreen.stopped,fixcross.started,firstImage.started,fixcrossImage1.started,fixcrossITI.started,secondImage.started,fixcrossImage2.started,key.started,key.keys,key.rt,correctness,feedbackText.started,fixcrossEnd.started,fixcrossEnd.stopped,fixcross.stopped,feedbackText.stopped,textStartTask.started,textTaskImages.started,ImageTask1.started,ImageTask2.started,ImageTask3.started,ImageTask4.started,textTaskSpace.started,spaceStartTask.started,spaceStartTask.keys,spaceStartTask.rt,participant,group,date,expName,psychopyVersion,frameRate,
,,,,,,,,,,,,,,,,,,,,,,,,,13.929272899986245,13.929272899986245,space,3.162321100011468,,,,,,,,,,,,,,,,,,,,,,,,,,,,,,,,,,,,3,D,2023-12-05_11h54.06.562,gca_discrimination,2022.2.4,144.07000649391694,
positions.xlsx,stimuli.xlsx,test.xlsx,stimuli/Social2.png,stimuli/Social1.png,stimuli/Nonsocial2.png,stimuli/Nonsocial1.png,stimuli/Test1.png,stimuli/Test2.png,"(0.7, -0.5)",test2,"(-0.7, 0.5)",test1,0,0,0,0,0,0,0,4,,,,,,,,,17.109701800043695,17.109701800043695,17.109701800043695,17.109701800043695,17.109701800043695,17.109701800043695,space,24.006310900091194,41.129556700005196,42.90726679994259,42.90726679994259,43.92115109995939,43.92115109995939,44.05304769997019,44.56692550005391,44.56692550005391,44.705803200020455,ä,0.5152544000884518,correct,45.240494600031525,47.24042739998549,47.30986539996229,,,,,,,,,,,,,3,D,2023-12-05_11h54.06.562,gca_discrimination,2022.2.4,144.07000649391694,
positions.xlsx,stimuli.xlsx,test.xlsx,stimuli/Social2.png,stimuli/Social1.png,stimuli/Nonsocial2.png,stimuli/Nonsocial1.png,stimuli/Test1.png,stimuli/Test2.png,"(-0.7, -0.5)",test1,"(0.7, 0.5)",test2,0,0,0,0,0,1,1,8,,,,,,,,,,,,,,,,,,,47.30986539996229,48.309823199990205,48.309823199990205,48.46256709995214,48.96251450001728,48.96251450001728,49.115332199959084,ä,0.37707899999804795,correct,49.504157899995334,51.50411520001944,51.68469989998266,48.309823199990205,51.50411520001944,,,,,,,,,,,3,D,2023-12-05_11h54.06.562,gca_discrimination,2022.2.4,144.07000649391694,
positions.xlsx,stimuli.xlsx,test.xlsx,stimuli/Social2.png,stimuli/Social1.png,stimuli/Nonsocial2.png,stimuli/Nonsocial1.png,stimuli/Test1.png,stimuli/Test2.png,"(0.7, 0.5)",test2,"(-0.7, 0.5)",test1,0,0,0,0,0,2,2,13,,,,,,,,,,,,,,,,,,,51.68469989998266,52.69153920002282,52.69153920002282,52.83741879998706,53.33738539996557,53.33738539996557,53.49016859999392,l,0.2899603999685496,wrong,53.788753299973905,55.78866439999547,56.337314300006256,52.69153920002282,55.78866439999547,,,,,,,,,,,3,D,2023-12-05_11h54.06.562,gca_discrimination,2022.2.4,144.07000649391694,
positions.xlsx,stimuli.xlsx,test.xlsx,stimuli/Social2.png,stimuli/Social1.png,stimuli/Nonsocial2.png,stimuli/Nonsocial1.png,stimuli/Test1.png,stimuli/Test2.png,"(-0.7, -0.5)",test2,"(0.7, -0.5)",test2,0,0,0,0,0,3,3,9,,,,,,,,,,,,,,,,,,,56.337314300006256,57.344172599958256,57.344172599958256,57.489986500004306,57.99692479998339,57.99692479998339,58.14273780002259,l,0.49314989999402314,correct,58.64266899996437,60.64263200003188,60.948184499982744,57.344172599958256,60.64263200003188,,,,,,,,,,,3,D,2023-12-05_11h54.06.562,gca_discrimination,2022.2.4,144.07000649391694,
positions.xlsx,stimuli.xlsx,test.xlsx,stimuli/Social2.png,stimuli/Social1.png,stimuli/Nonsocial2.png,stimuli/Nonsocial1.png,stimuli/Test1.png,stimuli/Test2.png,"(0.7, 0.5)",test2,"(0.7, -0.5)",test1,0,0,0,0,0,4,4,6,,,,,,,,,,,,,,,,,,,60.948184499982744,61.95507979998365,61.95507979998365,62.100928799947724,62.600868699955754,62.600868699955754,62.753663299954496,l,0.3864929999690503,wrong,63.14946460002102,65.14939419995062,65.92711209994741,61.95507979998365,65.14939419995062,,,,,,,,,,,3,D,2023-12-05_11h54.06.562,gca_discrimination,2022.2.4,144.07000649391694,
positions.xlsx,stimuli.xlsx,test.xlsx,stimuli/Social2.png,stimuli/Social1.png,stimuli/Nonsocial2.png,stimuli/Nonsocial1.png,stimuli/Test1.png,stimuli/Test2.png,"(0.7, -0.5)",test1,"(0.7, 0.5)",test1,0,0,0,0,0,5,5,10,,,,,,,,,,,,,,,,,,,65.92711209994741,66.93406300002243,66.93406300002243,67.07981809997,67.57988169998862,67.57988169998862,67.73262719996274,l,0.2628569999942556,correct,68.00340439996216,70.003382600029,70.07976100000087,66.93406300002243,70.003382600029,,,,,,,,,,,3,D,2023-12-05_11h54.06.562,gca_discrimination,2022.2.4,144.07000649391694,
positions.xlsx,stimuli.xlsx,test.xlsx,stimuli/Social2.png,stimuli/Social1.png,stimuli/Nonsocial2.png,stimuli/Nonsocial1.png,stimuli/Test1.png,stimuli/Test2.png,"(-0.7, 0.5)",test2,"(0.7, 0.5)",test1,0,0,0,0,0,6,6,3,,,,,,,,,,,,,,,,,,,70.07976100000087,71.08665760001168,71.08665760001168,71.23246029997244,71.73248909995891,71.73248909995891,71.88522139994893,ä,0.422270999988541,correct,72.31576070003211,74.3156631999882,74.32958130002953,71.08665760001168,74.3156631999882,,,,,,,,,,,3,D,2023-12-05_11h54.06.562,gca_discrimination,2022.2.4,144.07000649391694,
positions.xlsx,stimuli.xlsx,test.xlsx,stimuli/Social2.png,stimuli/Social1.png,stimuli/Nonsocial2.png,stimuli/Nonsocial1.png,stimuli/Test1.png,stimuli/Test2.png,"(0.7, 0.5)",test1,"(0.7, -0.5)",test2,0,0,0,0,0,7,7,11,,,,,,,,,,,,,,,,,,,74.32958130002953,75.32950949994847,75.32950949994847,75.48229519999586,75.98921889998019,75.98921889998019,76.13505799998529,ä,0.30092049995437264,correct,76.44754049996845,78.44743359996937,78.89186990004964,75.32950949994847,78.44743359996937,,,,,,,,,,,3,D,2023-12-05_11h54.06.562,gca_discrimination,2022.2.4,144.07000649391694,
positions.xlsx,stimuli.xlsx,test.xlsx,stimuli/Social2.png,stimuli/Social1.png,stimuli/Nonsocial2.png,stimuli/Nonsocial1.png,stimuli/Test1.png,stimuli/Test2.png,"(-0.7, 0.5)",test1,"(0.7, -0.5)",test1,0,0,0,0,0,8,8,5,,,,,,,,,,,,,,,,,,,78.89186990004964,79.89184449997265,79.89184449997265,80.04462169995531,80.54461370001081,80.54461370001081,80.6973579999758,l,0.3389824000187218,correct,81.0445858000312,83.04459910001606,83.3430812000297,79.89184449997265,83.04459910001606,,,,,,,,,,,3,D,2023-12-05_11h54.06.562,gca_discrimination,2022.2.4,144.07000649391694,
positions.xlsx,stimuli.xlsx,test.xlsx,stimuli/Social2.png,stimuli/Social1.png,stimuli/Nonsocial2.png,stimuli/Nonsocial1.png,stimuli/Test1.png,stimuli/Test2.png,"(0.7, -0.5)",test1,"(0.7, 0.5)",test2,0,0,0,0,0,9,9,0,,,,,,,,,,,,,,,,,,,83.3430812000297,84.34301289997529,84.34301289997529,84.49582660000306,84.99580339994282,84.99580339994282,85.1486088000238,ä,0.1995142000960186,correct,85.35689970001113,87.35682069999166,87.7386951999506,84.34301289997529,87.35682069999166,,,,,,,,,,,3,D,2023-12-05_11h54.06.562,gca_discrimination,2022.2.4,144.07000649391694,
positions.xlsx,stimuli.xlsx,test.xlsx,stimuli/Social2.png,stimuli/Social1.png,stimuli/Nonsocial2.png,stimuli/Nonsocial1.png,stimuli/Test1.png,stimuli/Test2.png,"(-0.7, 0.5)",test2,"(0.7, -0.5)",test1,0,0,0,0,0,10,10,12,,,,,,,,,,,,,,,,,,,87.7386951999506,88.74563729995862,88.74563729995862,88.8914893999463,89.39143459999468,89.39143459999468,89.54422339994926,ä,0.323866399936378,correct,89.87752630002797,91.87748180003837,92.12044400000013,88.74563729995862,91.87748180003837,,,,,,,,,,,3,D,2023-12-05_11h54.06.562,gca_discrimination,2022.2.4,144.07000649391694,
positions.xlsx,stimuli.xlsx,test.xlsx,stimuli/Social2.png,stimuli/Social1.png,stimuli/Nonsocial2.png,stimuli/Nonsocial1.png,stimuli/Test1.png,stimuli/Test2.png,"(-0.7, -0.5)",test2,"(0.7, 0.5)",test2,0,0,0,0,0,11,11,7,,,,,,,,,,,,,,,,,,,92.12044400000013,93.12047850003,93.12047850003,93.27325019997079,93.77323609997984,93.77323609997984,93.92598499997985,ä,0.35761329997330904,wrong,94.29402319993824,96.29395259998273,96.682815499953,93.12047850003,96.29395259998273,,,,,,,,,,,3,D,2023-12-05_11h54.06.562,gca_discrimination,2022.2.4,144.07000649391694,
positions.xlsx,stimuli.xlsx,test.xlsx,stimuli/Social2.png,stimuli/Social1.png,stimuli/Nonsocial2.png,stimuli/Nonsocial1.png,stimuli/Test1.png,stimuli/Test2.png,"(-0.7, 0.5)",test2,"(-0.7, -0.5)",test2,0,0,0,0,0,12,12,1,,,,,,,,,,,,,,,,,,,96.682815499953,97.68277499999385,97.68277499999385,97.83555780001916,98.33554300002288,98.33554300002288,98.4883308999706,l,0.2123604000080377,correct,98.71048959996551,100.71043269999791,100.87014030001592,97.68277499999385,100.71043269999791,,,,,,,,,,,3,D,2023-12-05_11h54.06.562,gca_discrimination,2022.2.4,144.07000649391694,
positions.xlsx,stimuli.xlsx,test.xlsx,stimuli/Social2.png,stimuli/Social1.png,stimuli/Nonsocial2.png,stimuli/Nonsocial1.png,stimuli/Test1.png,stimuli/Test2.png,"(-0.7, -0.5)",test2,"(-0.7, 0.5)",test2,0,0,0,0,0,13,13,2,,,,,,,,,,,,,,,,,,,100.87014030001592,101.8770746999653,101.8770746999653,102.02288529998623,102.52286020002794,102.52286020002794,102.67556350002997,l,0.2487669000402093,correct,102.93253300001379,104.93247749994043,105.5782879999606,101.8770746999653,104.93247749994043,,,,,,,,,,,3,D,2023-12-05_11h54.06.562,gca_discrimination,2022.2.4,144.07000649391694,
positions.xlsx,stimuli.xlsx,test.xlsx,stimuli/Social2.png,stimuli/Social1.png,stimuli/Nonsocial2.png,stimuli/Nonsocial1.png,stimuli/Test1.png,stimuli/Test2.png,"(-0.7, 0.5)",cs_plus_s,"(0.7, -0.5)",cs_plus_s,0,0,0,0,,,,,0,0,0,50,,,,,,,,,,,,,118.91805059998296,120.01519720000215,120.01519720000215,121.01513950002845,121.01513950002845,121.1540101999417,121.66096200002357,121.66096200002357,121.80674469994847,l,0.40553909994196147,correct,,122.22339549998287,122.66782009997405,,,105.5782879999606,105.5782879999606,105.5782879999606,105.5782879999606,105.5782879999606,105.5782879999606,105.5782879999606,105.5782879999606,space,13.329656600020826,3,D,2023-12-05_11h54.06.562,gca_discrimination,2022.2.4,144.07000649391694,
positions.xlsx,stimuli.xlsx,test.xlsx,stimuli/Social2.png,stimuli/Social1.png,stimuli/Nonsocial2.png,stimuli/Nonsocial1.png,stimuli/Test1.png,stimuli/Test2.png,"(0.7, -0.5)",cs_minus_ns,"(-0.7, 0.5)",cs_minus_ns,0,0,0,0,,,,,0,1,1,93,,,,,,,,,,,,,,,122.66782009997405,123.67475570004899,123.67475570004899,123.82057660003193,124.32748540001921,124.32748540001921,124.4733138999436,l,0.37879460002295673,correct,,124.8622276999522,124.93856529996265,123.67475570004899,,,,,,,,,,,,3,D,2023-12-05_11h54.06.562,gca_discrimination,2022.2.4,144.07000649391694,
positions.xlsx,stimuli.xlsx,test.xlsx,stimuli/Social2.png,stimuli/Social1.png,stimuli/Nonsocial2.png,stimuli/Nonsocial1.png,stimuli/Test1.png,stimuli/Test2.png,"(0.7, 0.5)",cs_minus_s,"(-0.7, 0.5)",cs_minus_s,0,0,0,0,,,,,0,2,2,66,,,,,,,,,,,,,,,124.93856529996265,125.94549970002845,125.94549970002845,126.0913516000146,126.5982477000216,126.5982477000216,126.74403960001655,l,0.24451870005577803,correct,,127.00098819995765,127.723205300048,125.94549970002845,,,,,,,,,,,,3,D,2023-12-05_11h54.06.562,gca_discrimination,2022.2.4,144.07000649391694,
positions.xlsx,stimuli.xlsx,test.xlsx,stimuli/Social2.png,stimuli/Social1.png,stimuli/Nonsocial2.png,stimuli/Nonsocial1.png,stimuli/Test1.png,stimuli/Test2.png,"(-0.7, -0.5)",cs_minus_ns,"(-0.7, 0.5)",cs_minus_ns,0,0,0,0,,,,,0,3,3,87,,,,,,,,,,,,,,,127.723205300048,128.73013429995626,128.73013429995626,128.87593340000603,129.38287239999045,129.38287239999045,129.5286682000151,l,0.2355247000232339,correct,,129.7717202999629,129.95226429996546,128.73013429995626,,,,,,,,,,,,3,D,2023-12-05_11h54.06.562,gca_discrimination,2022.2.4,144.07000649391694,
positions.xlsx,stimuli.xlsx,test.xlsx,stimuli/Social2.png,stimuli/Social1.png,stimuli/Nonsocial2.png,stimuli/Nonsocial1.png,stimuli/Test1.png,stimuli/Test2.png,"(-0.7, -0.5)",cs_minus_ns,"(-0.7, 0.5)",cs_plus_ns,0,0,0,0,,,,,0,4,4,39,,,,,,,,,,,,,,,129.95226429996546,130.95913920004386,130.95913920004386,131.10498980002012,131.61192649998702,131.61192649998702,131.75776950002182,ä,0.3265250000404194,correct,,132.0910542999627,132.22994680004194,130.95913920004386,,,,,,,,,,,,3,D,2023-12-05_11h54.06.562,gca_discrimination,2022.2.4,144.07000649391694,
positions.xlsx,stimuli.xlsx,test.xlsx,stimuli/Social2.png,stimuli/Social1.png,stimuli/Nonsocial2.png,stimuli/Nonsocial1.png,stimuli/Test1.png,stimuli/Test2.png,"(-0.7, -0.5)",cs_plus_ns,"(0.7, -0.5)",cs_minus_ns,0,0,0,0,,,,,0,5,5,29,,,,,,,,,,,,,,,132.22994680004194,133.2368975999998,133.2368975999998,133.3826764000114,133.88961640000343,133.88961640000343,134.03543060005177,l,0.25747640000190586,wrong,,134.30625190003775,134.3756695999764,133.2368975999998,,,,,,,,,,,,3,D,2023-12-05_11h54.06.562,gca_discrimination,2022.2.4,144.07000649391694,
positions.xlsx,stimuli.xlsx,test.xlsx,stimuli/Social2.png,stimuli/Social1.png,stimuli/Nonsocial2.png,stimuli/Nonsocial1.png,stimuli/Test1.png,stimuli/Test2.png,"(-0.7, 0.5)",cs_plus_ns,"(0.7, -0.5)",cs_plus_ns,0,0,0,0,,,,,0,6,6,74,,,,,,,,,,,,,,,134.3756695999764,135.38258570001926,135.38258570001926,135.52840119996108,136.0352992999833,136.0352992999833,136.18115249997936,ä,0.39831890002824366,wrong,,136.5908532999456,136.5908532999456,135.38258570001926,,,,,,,,,,,,3,D,2023-12-05_11h54.06.562,gca_discrimination,2022.2.4,144.07000649391694,
positions.xlsx,stimuli.xlsx,test.xlsx,stimuli/Social2.png,stimuli/Social1.png,stimuli/Nonsocial2.png,stimuli/Nonsocial1.png,stimuli/Test1.png,stimuli/Test2.png,"(0.7, 0.5)",cs_plus_ns,"(-0.7, -0.5)",cs_plus_ns,0,0,0,0,,,,,0,7,7,79,,,,,,,,,,,,,,,136.5908532999456,137.59776709997095,137.59776709997095,137.74363539996557,138.25053650001064,138.25053650001064,138.3963612000225,l,0.26357100007589906,correct,,138.66718949994538,139.2782897000434,137.59776709997095,,,,,,,,,,,,3,D,2023-12-05_11h54.06.562,gca_discrimination,2022.2.4,144.07000649391694,
positions.xlsx,stimuli.xlsx,test.xlsx,stimuli/Social2.png,stimuli/Social1.png,stimuli/Nonsocial2.png,stimuli/Nonsocial1.png,stimuli/Test1.png,stimuli/Test2.png,"(-0.7, -0.5)",cs_plus_s,"(0.7, -0.5)",cs_minus_s,0,0,0,0,,,,,0,8,8,5,,,,,,,,,,,,,,,139.2782897000434,140.28519069997128,140.28519069997128,140.43101079994813,140.93790789996274,140.93790789996274,141.08372630004305,ä,0.20068480004556477,correct,,141.2920500000473,141.91702509997413,140.28519069997128,,,,,,,,,,,,3,D,2023-12-05_11h54.06.562,gca_discrimination,2022.2.4,144.07000649391694,
positions.xlsx,stimuli.xlsx,test.xlsx,stimuli/Social2.png,stimuli/Social1.png,stimuli/Nonsocial2.png,stimuli/Nonsocial1.png,stimuli/Test1.png,stimuli/Test2.png,"(-0.7, 0.5)",cs_minus_ns,"(0.7, -0.5)",cs_minus_ns,0,0,0,0,,,,,0,9,9,86,,,,,,,,,,,,,,,141.91702509997413,142.923955700011,142.923955700011,143.06983549997676,143.57673660002183,143.57673660002183,143.722534099943,l,0.4411778000649065,correct,,144.173901299946,145.1600097999908,142.923955700011,,,,,,,,,,,,3,D,2023-12-05_11h54.06.562,gca_discrimination,2022.2.4,144.07000649391694,
positions.xlsx,stimuli.xlsx,test.xlsx,stimuli/Social2.png,stimuli/Social1.png,stimuli/Nonsocial2.png,stimuli/Nonsocial1.png,stimuli/Test1.png,stimuli/Test2.png,"(0.7, 0.5)",cs_minus_s,"(0.7, -0.5)",cs_plus_s,0,0,0,0,,,,,0,10,10,20,,,,,,,,,,,,,,,145.1600097999908,146.16688679996878,146.16688679996878,146.31270809995476,146.81962910003494,146.81962910003494,146.9654599999776,ä,0.38387489994056523,correct,,147.3613043000223,148.35428580001462,146.16688679996878,,,,,,,,,,,,3,D,2023-12-05_11h54.06.562,gca_discrimination,2022.2.4,144.07000649391694,
positions.xlsx,stimuli.xlsx,test.xlsx,stimuli/Social2.png,stimuli/Social1.png,stimuli/Nonsocial2.png,stimuli/Nonsocial1.png,stimuli/Test1.png,stimuli/Test2.png,"(0.7, -0.5)",cs_plus_ns,"(0.7, 0.5)",cs_plus_ns,0,0,0,0,,,,,0,11,11,83,,,,,,,,,,,,,,,148.35428580001462,149.36116650002077,149.36116650002077,149.50700620003045,150.01394750003237,150.01394750003237,150.1597832000116,l,0.4036273000529036,correct,,150.57645980000962,151.0347547000274,149.36116650002077,,,,,,,,,,,,3,D,2023-12-05_11h54.06.562,gca_discrimination,2022.2.4,144.07000649391694,
positions.xlsx,stimuli.xlsx,test.xlsx,stimuli/Social2.png,stimuli/Social1.png,stimuli/Nonsocial2.png,stimuli/Nonsocial1.png,stimuli/Test1.png,stimuli/Test2.png,"(-0.7, 0.5)",cs_plus_ns,"(0.7, -0.5)",cs_minus_ns,0,0,0,0,,,,,0,12,12,26,,,,,,,,,,,,,,,151.0347547000274,152.0416134999832,152.0416134999832,152.18744020001031,152.69439289998263,152.69439289998263,152.840275799972,ä,0.33998809999320656,correct,,153.1874454000499,153.5623820000328,152.0416134999832,,,,,,,,,,,,3,D,2023-12-05_11h54.06.562,gca_discrimination,2022.2.4,144.07000649391694,
positions.xlsx,stimuli.xlsx,test.xlsx,stimuli/Social2.png,stimuli/Social1.png,stimuli/Nonsocial2.png,stimuli/Nonsocial1.png,stimuli/Test1.png,stimuli/Test2.png,"(0.7, 0.5)",cs_minus_ns,"(-0.7, -0.5)",cs_plus_ns,0,0,0,0,,,,,0,13,13,43,,,,,,,,,,,,,,,153.5623820000328,154.56932010001037,154.56932010001037,154.7151488000527,155.22205700003542,155.22205700003542,155.36787660000846,l,0.3396891000447795,wrong,,155.71510589995887,156.54838469997048,154.56932010001037,,,,,,,,,,,,3,D,2023-12-05_11h54.06.562,gca_discrimination,2022.2.4,144.07000649391694,
positions.xlsx,stimuli.xlsx,test.xlsx,stimuli/Social2.png,stimuli/Social1.png,stimuli/Nonsocial2.png,stimuli/Nonsocial1.png,stimuli/Test1.png,stimuli/Test2.png,"(-0.7, 0.5)",cs_minus_s,"(-0.7, -0.5)",cs_minus_s,0,0,0,0,,,,,0,14,14,60,,,,,,,,,,,,,,,156.54838469997048,157.55532899999525,157.55532899999525,157.70113219995983,158.20807109994348,158.20807109994348,158.35386789997574,l,0.2578779999166727,correct,,158.6246765999822,159.24967030005064,157.55532899999525,,,,,,,,,,,,3,D,2023-12-05_11h54.06.562,gca_discrimination,2022.2.4,144.07000649391694,
positions.xlsx,stimuli.xlsx,test.xlsx,stimuli/Social2.png,stimuli/Social1.png,stimuli/Nonsocial2.png,stimuli/Nonsocial1.png,stimuli/Test1.png,stimuli/Test2.png,"(-0.7, -0.5)",cs_plus_ns,"(0.7, -0.5)",cs_plus_ns,0,0,0,0,,,,,0,15,15,77,,,,,,,,,,,,,,,159.24967030005064,160.25656430004165,160.25656430004165,160.40239049994852,160.90933669998776,160.90933669998776,161.05512879998423,l,0.28606770001351833,correct,,161.35378280002624,161.68708409997635,160.25656430004165,,,,,,,,,,,,3,D,2023-12-05_11h54.06.562,gca_discrimination,2022.2.4,144.07000649391694,
positions.xlsx,stimuli.xlsx,test.xlsx,stimuli/Social2.png,stimuli/Social1.png,stimuli/Nonsocial2.png,stimuli/Nonsocial1.png,stimuli/Test1.png,stimuli/Test2.png,"(-0.7, -0.5)",cs_minus_ns,"(0.7, -0.5)",cs_plus_ns,0,0,0,0,,,,,0,16,16,41,,,,,,,,,,,,,,,161.68708409997635,162.6940048999386,162.6940048999386,162.83980950003024,163.34673630003817,163.34673630003817,163.49259080004413,ä,0.27916919998824596,correct,,163.78421900002286,164.33972709998488,162.6940048999386,,,,,,,,,,,,3,D,2023-12-05_11h54.06.562,gca_discrimination,2022.2.4,144.07000649391694,
positions.xlsx,stimuli.xlsx,test.xlsx,stimuli/Social2.png,stimuli/Social1.png,stimuli/Nonsocial2.png,stimuli/Nonsocial1.png,stimuli/Test1.png,stimuli/Test2.png,"(0.7, 0.5)",cs_plus_ns,"(0.7, -0.5)",cs_minus_ns,0,0,0,0,,,,,0,17,17,32,,,,,,,,,,,,,,,164.33972709998488,165.34665309998672,165.34665309998672,165.49247349996585,165.99939000001177,165.99939000001177,166.14521999994759,l,0.33828359993640333,wrong,,166.49244900001213,166.64524700003676,165.34665309998672,,,,,,,,,,,,3,D,2023-12-05_11h54.06.562,gca_discrimination,2022.2.4,144.07000649391694,
positions.xlsx,stimuli.xlsx,test.xlsx,stimuli/Social2.png,stimuli/Social1.png,stimuli/Nonsocial2.png,stimuli/Nonsocial1.png,stimuli/Test1.png,stimuli/Test2.png,"(-0.7, -0.5)",cs_plus_s,"(-0.7, 0.5)",cs_minus_s,0,0,0,0,,,,,0,18,18,3,,,,,,,,,,,,,,,166.64524700003676,167.65208779997192,167.65208779997192,167.79793769994285,168.30486819997896,168.30486819997896,168.45071440003812,ä,0.4491424000589177,correct,,168.90902050002478,169.263156699948,167.65208779997192,,,,,,,,,,,,3,D,2023-12-05_11h54.06.562,gca_discrimination,2022.2.4,144.07000649391694,
positions.xlsx,stimuli.xlsx,test.xlsx,stimuli/Social2.png,stimuli/Social1.png,stimuli/Nonsocial2.png,stimuli/Nonsocial1.png,stimuli/Test1.png,stimuli/Test2.png,"(-0.7, -0.5)",cs_minus_ns,"(0.7, 0.5)",cs_plus_ns,0,0,0,0,,,,,0,19,19,40,,,,,,,,,,,,,,,169.263156699948,170.27007490000688,170.27007490000688,170.41586730000563,170.92283569998108,170.92283569998108,171.06863120000344,ä,0.4232966999989003,correct,,171.49916370003484,172.1311357000377,170.27007490000688,,,,,,,,,,,,3,D,2023-12-05_11h54.06.562,gca_discrimination,2022.2.4,144.07000649391694,
positions.xlsx,stimuli.xlsx,test.xlsx,stimuli/Social2.png,stimuli/Social1.png,stimuli/Nonsocial2.png,stimuli/Nonsocial1.png,stimuli/Test1.png,stimuli/Test2.png,"(0.7, -0.5)",cs_plus_s,"(0.7, 0.5)",cs_minus_s,0,0,0,0,,,,,0,20,20,11,,,,,,,,,,,,,,,172.1311357000377,173.13798610004596,173.13798610004596,173.28383490000851,173.79072409996297,173.79072409996297,173.93658890004735,l,0.4356349000008777,wrong,,174.38099760003388,175.03375519998372,173.13798610004596,,,,,,,,,,,,3,D,2023-12-05_11h54.06.562,gca_discrimination,2022.2.4,144.07000649391694,
positions.xlsx,stimuli.xlsx,test.xlsx,stimuli/Social2.png,stimuli/Social1.png,stimuli/Nonsocial2.png,stimuli/Nonsocial1.png,stimuli/Test1.png,stimuli/Test2.png,"(0.7, 0.5)",cs_minus_ns,"(0.7, -0.5)",cs_minus_ns,0,0,0,0,,,,,0,21,21,92,,,,,,,,,,,,,,,175.03375519998372,176.04067839996424,176.04067839996424,176.18645389995072,176.69339729996864,176.69339729996864,176.8392064999789,ä,0.4526077000191435,wrong,,177.30449180002324,177.7766822000267,176.04067839996424,,,,,,,,,,,,3,D,2023-12-05_11h54.06.562,gca_discrimination,2022.2.4,144.07000649391694,
positions.xlsx,stimuli.xlsx,test.xlsx,stimuli/Social2.png,stimuli/Social1.png,stimuli/Nonsocial2.png,stimuli/Nonsocial1.png,stimuli/Test1.png,stimuli/Test2.png,"(0.7, 0.5)",cs_minus_ns,"(-0.7, 0.5)",cs_plus_ns,0,0,0,0,,,,,0,22,22,42,,,,,,,,,,,,,,,177.7766822000267,178.78359919996,178.78359919996,178.92943260003813,179.43636819999665,179.43636819999665,179.58221479994245,ä,0.33408599998801947,correct,,179.9293716000393,180.90851650002878,178.78359919996,,,,,,,,,,,,3,D,2023-12-05_11h54.06.562,gca_discrimination,2022.2.4,144.07000649391694,
positions.xlsx,stimuli.xlsx,test.xlsx,stimuli/Social2.png,stimuli/Social1.png,stimuli/Nonsocial2.png,stimuli/Nonsocial1.png,stimuli/Test1.png,stimuli/Test2.png,"(0.7, -0.5)",cs_minus_ns,"(-0.7, -0.5)",cs_minus_ns,0,0,0,0,,,,,0,23,23,94,,,,,,,,,,,,,,,180.90851650002878,181.91543819999788,181.91543819999788,182.06124609999824,182.56813230004627,182.56813230004627,182.71396650001407,l,0.34594280004967004,correct,,183.068127800012,183.9778533000499,181.91543819999788,,,,,,,,,,,,3,D,2023-12-05_11h54.06.562,gca_discrimination,2022.2.4,144.07000649391694,
positions.xlsx,stimuli.xlsx,test.xlsx,stimuli/Social2.png,stimuli/Social1.png,stimuli/Nonsocial2.png,stimuli/Nonsocial1.png,stimuli/Test1.png,stimuli/Test2.png,"(0.7, -0.5)",cs_plus_ns,"(-0.7, -0.5)",cs_plus_ns,0,0,0,0,,,,,0,24,24,82,,,,,,,,,,,,,,,183.9778533000499,184.98474129999522,184.98474129999522,185.13056950003374,185.6374339000322,185.6374339000322,185.78328690002672,l,0.3085406000027433,correct,,186.10270679998212,186.41523140005302,184.98474129999522,,,,,,,,,,,,3,D,2023-12-05_11h54.06.562,gca_discrimination,2022.2.4,144.07000649391694,
positions.xlsx,stimuli.xlsx,test.xlsx,stimuli/Social2.png,stimuli/Social1.png,stimuli/Nonsocial2.png,stimuli/Nonsocial1.png,stimuli/Test1.png,stimuli/Test2.png,"(0.7, -0.5)",cs_minus_s,"(0.7, 0.5)",cs_plus_s,0,0,0,0,,,,,0,25,25,23,,,,,,,,,,,,,,,186.41523140005302,187.42212100001052,187.42212100001052,187.56790649995673,188.0748889000388,188.0748889000388,188.22072219999973,ä,0.25492690003011376,correct,,188.48460429999977,189.15817549999338,187.42212100001052,,,,,,,,,,,,3,D,2023-12-05_11h54.06.562,gca_discrimination,2022.2.4,144.07000649391694,
positions.xlsx,stimuli.xlsx,test.xlsx,stimuli/Social2.png,stimuli/Social1.png,stimuli/Nonsocial2.png,stimuli/Nonsocial1.png,stimuli/Test1.png,stimuli/Test2.png,"(0.7, -0.5)",cs_plus_ns,"(-0.7, -0.5)",cs_minus_ns,0,0,0,0,,,,,0,26,26,34,,,,,,,,,,,,,,,189.15817549999338,190.16505459998734,190.16505459998734,190.31089550000615,190.81778130005114,190.81778130005114,190.96368219994474,ä,0.23213949997443706,correct,,191.2066460000351,191.3941863999935,190.16505459998734,,,,,,,,,,,,3,D,2023-12-05_11h54.06.562,gca_discrimination,2022.2.4,144.07000649391694,
positions.xlsx,stimuli.xlsx,test.xlsx,stimuli/Social2.png,stimuli/Social1.png,stimuli/Nonsocial2.png,stimuli/Nonsocial1.png,stimuli/Test1.png,stimuli/Test2.png,"(-0.7, 0.5)",cs_minus_s,"(-0.7, -0.5)",cs_plus_s,0,0,0,0,,,,,0,27,27,12,,,,,,,,,,,,,,,191.3941863999935,192.4011737999972,192.4011737999972,192.54688459995668,193.05386430001818,193.05386430001818,193.19968049996532,ä,0.3323522999417037,correct,,193.53995220002253,194.35935080004856,192.4011737999972,,,,,,,,,,,,3,D,2023-12-05_11h54.06.562,gca_discrimination,2022.2.4,144.07000649391694,
positions.xlsx,stimuli.xlsx,test.xlsx,stimuli/Social2.png,stimuli/Social1.png,stimuli/Nonsocial2.png,stimuli/Nonsocial1.png,stimuli/Test1.png,stimuli/Test2.png,"(0.7, -0.5)",cs_minus_s,"(0.7, 0.5)",cs_minus_s,0,0,0,0,,,,,0,28,28,71,,,,,,,,,,,,,,,194.35935080004856,195.36625520000234,195.36625520000234,195.51210049993824,196.01899709994905,196.01899709994905,196.16479940002318,l,0.6076083000516519,correct,,196.78286050003953,197.1994999999879,195.36625520000234,,,,,,,,,,,,3,D,2023-12-05_11h54.06.562,gca_discrimination,2022.2.4,144.07000649391694,
positions.xlsx,stimuli.xlsx,test.xlsx,stimuli/Social2.png,stimuli/Social1.png,stimuli/Nonsocial2.png,stimuli/Nonsocial1.png,stimuli/Test1.png,stimuli/Test2.png,"(0.7, -0.5)",cs_minus_ns,"(-0.7, -0.5)",cs_plus_ns,0,0,0,0,,,,,0,29,29,46,,,,,,,,,,,,,,,197.1994999999879,198.20644380000886,198.20644380000886,198.35223790002055,198.8591550999554,198.8591550999554,199.00498169998173,ä,0.23910999996587634,correct,,199.2549735000357,199.47023400000762,198.20644380000886,,,,,,,,,,,,3,D,2023-12-05_11h54.06.562,gca_discrimination,2022.2.4,144.07000649391694,
positions.xlsx,stimuli.xlsx,test.xlsx,stimuli/Social2.png,stimuli/Social1.png,stimuli/Nonsocial2.png,stimuli/Nonsocial1.png,stimuli/Test1.png,stimuli/Test2.png,"(0.7, 0.5)",cs_plus_s,"(-0.7, -0.5)",cs_minus_s,0,0,0,0,,,,,0,30,30,7,,,,,,,,,,,,,,,199.47023400000762,200.47718429996166,200.47718429996166,200.6229813999962,201.12992650002707,201.12992650002707,201.27575449994765,ä,0.24792120000347495,correct,,201.53266150003765,201.76184149994515,200.47718429996166,,,,,,,,,,,,3,D,2023-12-05_11h54.06.562,gca_discrimination,2022.2.4,144.07000649391694,
positions.xlsx,stimuli.xlsx,test.xlsx,stimuli/Social2.png,stimuli/Social1.png,stimuli/Nonsocial2.png,stimuli/Nonsocial1.png,stimuli/Test1.png,stimuli/Test2.png,"(-0.7, 0.5)",cs_plus_s,"(-0.7, -0.5)",cs_minus_s,0,0,0,0,,,,,0,31,31,0,,,,,,,,,,,,,,,201.76184149994515,202.76872619998176,202.76872619998176,202.9145625999663,203.42150669998955,203.42150669998955,203.56733800005168,ä,0.3732793000526726,correct,,203.94925980002154,204.49088810000103,202.76872619998176,,,,,,,,,,,,3,D,2023-12-05_11h54.06.562,gca_discrimination,2022.2.4,144.07000649391694,
positions.xlsx,stimuli.xlsx,test.xlsx,stimuli/Social2.png,stimuli/Social1.png,stimuli/Nonsocial2.png,stimuli/Nonsocial1.png,stimuli/Test1.png,stimuli/Test2.png,"(0.7, -0.5)",cs_plus_s,"(-0.7, 0.5)",cs_plus_s,0,0,0,0,,,,,0,32,32,57,,,,,,,,,,,,,,,204.49088810000103,205.49780090001877,205.49780090001877,205.64361619995907,206.15052689996082,206.15052689996082,206.29638459999114,l,0.31575369997881353,correct,,206.62268060003407,206.6990815999452,205.49780090001877,,,,,,,,,,,,3,D,2023-12-05_11h54.06.562,gca_discrimination,2022.2.4,144.07000649391694,
positions.xlsx,stimuli.xlsx,test.xlsx,stimuli/Social2.png,stimuli/Social1.png,stimuli/Nonsocial2.png,stimuli/Nonsocial1.png,stimuli/Test1.png,stimuli/Test2.png,"(-0.7, -0.5)",cs_plus_ns,"(-0.7, 0.5)",cs_minus_ns,0,0,0,0,,,,,0,33,33,27,,,,,,,,,,,,,,,206.6990815999452,207.70602909999434,207.70602909999434,207.85185830004048,208.35876840003766,208.35876840003766,208.50459619995672,ä,0.2589833999518305,correct,,208.77538450004067,209.13650949997827,207.70602909999434,,,,,,,,,,,,3,D,2023-12-05_11h54.06.562,gca_discrimination,2022.2.4,144.07000649391694,
positions.xlsx,stimuli.xlsx,test.xlsx,stimuli/Social2.png,stimuli/Social1.png,stimuli/Nonsocial2.png,stimuli/Nonsocial1.png,stimuli/Test1.png,stimuli/Test2.png,"(-0.7, 0.5)",cs_plus_s,"(0.7, 0.5)",cs_plus_s,0,0,0,0,,,,,0,34,34,49,,,,,,,,,,,,,,,209.13650949997827,210.14341489993967,210.14341489993967,210.28923310001846,210.79615930002183,210.79615930002183,210.94197980000172,l,0.24559180007781833,correct,,211.19889849994797,211.94196219998412,210.14341489993967,,,,,,,,,,,,3,D,2023-12-05_11h54.06.562,gca_discrimination,2022.2.4,144.07000649391694,
positions.xlsx,stimuli.xlsx,test.xlsx,stimuli/Social2.png,stimuli/Social1.png,stimuli/Nonsocial2.png,stimuli/Nonsocial1.png,stimuli/Test1.png,stimuli/Test2.png,"(0.7, 0.5)",cs_minus_ns,"(0.7, -0.5)",cs_plus_ns,0,0,0,0,,,,,0,35,35,44,,,,,,,,,,,,,,,211.94196219998412,212.9488699999638,212.9488699999638,213.09469269996043,213.60165109997615,213.60165109997615,213.74746119999327,ä,0.1921167999971658,correct,,213.94879850000143,214.86546120001003,212.9488699999638,,,,,,,,,,,,3,D,2023-12-05_11h54.06.562,gca_discrimination,2022.2.4,144.07000649391694,
positions.xlsx,stimuli.xlsx,test.xlsx,stimuli/Social2.png,stimuli/Social1.png,stimuli/Nonsocial2.png,stimuli/Nonsocial1.png,stimuli/Test1.png,stimuli/Test2.png,"(-0.7, 0.5)",cs_minus_ns,"(0.7, 0.5)",cs_plus_ns,0,0,0,0,,,,,0,36,36,37,,,,,,,,,,,,,,,214.86546120001003,215.87236060004216,215.87236060004216,216.01824989996385,216.5251186999958,216.5251186999958,216.6709457000252,ä,0.189684999990277,correct,,216.87229650001973,217.0389456000412,215.87236060004216,,,,,,,,,,,,3,D,2023-12-05_11h54.06.562,gca_discrimination,2022.2.4,144.07000649391694,
positions.xlsx,stimuli.xlsx,test.xlsx,stimuli/Social2.png,stimuli/Social1.png,stimuli/Nonsocial2.png,stimuli/Nonsocial1.png,stimuli/Test1.png,stimuli/Test2.png,"(0.7, 0.5)",cs_minus_s,"(-0.7, 0.5)",cs_plus_s,0,0,0,0,,,,,0,37,37,18,,,,,,,,,,,,,,,217.0389456000412,218.0458907999564,218.0458907999564,218.19170540000778,218.69860390003305,218.69860390003305,218.84443059994373,ä,0.30347889999393374,correct,,219.15696359996218,219.8026960999705,218.0458907999564,,,,,,,,,,,,3,D,2023-12-05_11h54.06.562,gca_discrimination,2022.2.4,144.07000649391694,
positions.xlsx,stimuli.xlsx,test.xlsx,stimuli/Social2.png,stimuli/Social1.png,stimuli/Nonsocial2.png,stimuli/Nonsocial1.png,stimuli/Test1.png,stimuli/Test2.png,"(0.7, 0.5)",cs_minus_s,"(-0.7, -0.5)",cs_plus_s,0,0,0,0,,,,,0,38,38,19,,,,,,,,,,,,,,,219.8026960999705,220.80968359997496,220.80968359997496,220.95547649997752,221.46240149997175,221.46240149997175,221.6082510999404,l,0.31537810002919286,wrong,,221.93460359994788,222.06659169995692,220.80968359997496,,,,,,,,,,,,3,D,2023-12-05_11h54.06.562,gca_discrimination,2022.2.4,144.07000649391694,
positions.xlsx,stimuli.xlsx,test.xlsx,stimuli/Social2.png,stimuli/Social1.png,stimuli/Nonsocial2.png,stimuli/Nonsocial1.png,stimuli/Test1.png,stimuli/Test2.png,"(-0.7, -0.5)",cs_plus_s,"(0.7, -0.5)",cs_plus_s,0,0,0,0,,,,,0,39,39,53,,,,,,,,,,,,,,,222.06659169995692,223.0734216000419,223.0734216000419,223.21922600001562,223.72618470003363,223.72618470003363,223.87202699994668,l,0.2679086000425741,correct,,224.14979639998637,225.01781999995,223.0734216000419,,,,,,,,,,,,3,D,2023-12-05_11h54.06.562,gca_discrimination,2022.2.4,144.07000649391694,
positions.xlsx,stimuli.xlsx,test.xlsx,stimuli/Social2.png,stimuli/Social1.png,stimuli/Nonsocial2.png,stimuli/Nonsocial1.png,stimuli/Test1.png,stimuli/Test2.png,"(-0.7, -0.5)",cs_plus_s,"(0.7, 0.5)",cs_plus_s,0,0,0,0,,,,,0,40,40,52,,,,,,,,,,,,,,,225.01781999995,226.0247000999516,226.0247000999516,226.17053749994375,226.67748760001268,226.67748760001268,226.82331959996372,l,0.32404129998758435,correct,,227.15661159995943,227.25383409997448,226.0247000999516,,,,,,,,,,,,3,D,2023-12-05_11h54.06.562,gca_discrimination,2022.2.4,144.07000649391694,
positions.xlsx,stimuli.xlsx,test.xlsx,stimuli/Social2.png,stimuli/Social1.png,stimuli/Nonsocial2.png,stimuli/Nonsocial1.png,stimuli/Test1.png,stimuli/Test2.png,"(0.7, 0.5)",cs_plus_ns,"(-0.7, 0.5)",cs_plus_ns,0,0,0,0,,,,,0,41,41,78,,,,,,,,,,,,,,,227.25383409997448,228.2607401999412,228.2607401999412,228.406546000042,228.91350799996872,228.91350799996872,229.05932110000867,l,0.28855850000400096,correct,,229.35786450002342,229.49678889999632,228.2607401999412,,,,,,,,,,,,3,D,2023-12-05_11h54.06.562,gca_discrimination,2022.2.4,144.07000649391694,
positions.xlsx,stimuli.xlsx,test.xlsx,stimuli/Social2.png,stimuli/Social1.png,stimuli/Nonsocial2.png,stimuli/Nonsocial1.png,stimuli/Test1.png,stimuli/Test2.png,"(0.7, -0.5)",cs_plus_ns,"(-0.7, 0.5)",cs_minus_ns,0,0,0,0,,,,,0,42,42,33,,,,,,,,,,,,,,,229.49678889999632,230.5037205000408,230.5037205000408,230.6495125000365,231.15643380000256,231.15643380000256,231.30225369997788,ä,0.2304999999469146,correct,,231.54532020003535,232.15640049998183,230.5037205000408,,,,,,,,,,,,3,D,2023-12-05_11h54.06.562,gca_discrimination,2022.2.4,144.07000649391694,
positions.xlsx,stimuli.xlsx,test.xlsx,stimuli/Social2.png,stimuli/Social1.png,stimuli/Nonsocial2.png,stimuli/Nonsocial1.png,stimuli/Test1.png,stimuli/Test2.png,"(-0.7, 0.5)",cs_minus_ns,"(0.7, -0.5)",cs_plus_ns,0,0,0,0,,,,,0,43,43,38,,,,,,,,,,,,,,,232.15640049998183,233.16329910000786,233.16329910000786,233.30914849997498,233.81606430001557,233.81606430001557,233.9619115999667,l,0.34619169996585697,wrong,,234.31603530002758,234.9549078999553,233.16329910000786,,,,,,,,,,,,3,D,2023-12-05_11h54.06.562,gca_discrimination,2022.2.4,144.07000649391694,
positions.xlsx,stimuli.xlsx,test.xlsx,stimuli/Social2.png,stimuli/Social1.png,stimuli/Nonsocial2.png,stimuli/Nonsocial1.png,stimuli/Test1.png,stimuli/Test2.png,"(0.7, 0.5)",cs_minus_s,"(0.7, -0.5)",cs_minus_s,0,0,0,0,,,,,0,44,44,68,,,,,,,,,,,,,,,234.9549078999553,235.96180349995848,235.96180349995848,236.10762380005326,236.6145922000287,236.6145922000287,236.76041210000403,l,0.3948789000278339,correct,,237.16314249997959,237.55896079994272,235.96180349995848,,,,,,,,,,,,3,D,2023-12-05_11h54.06.562,gca_discrimination,2022.2.4,144.07000649391694,
positions.xlsx,stimuli.xlsx,test.xlsx,stimuli/Social2.png,stimuli/Social1.png,stimuli/Nonsocial2.png,stimuli/Nonsocial1.png,stimuli/Test1.png,stimuli/Test2.png,"(-0.7, -0.5)",cs_minus_s,"(0.7, 0.5)",cs_minus_s,0,0,0,0,,,,,0,45,45,64,,,,,,,,,,,,,,,237.55896079994272,238.5658589999657,238.5658589999657,238.71170580002945,239.21861670003273,239.21861670003273,239.36446299997624,l,0.3354878999525681,correct,,239.71164170000702,240.56579270004295,238.5658589999657,,,,,,,,,,,,3,D,2023-12-05_11h54.06.562,gca_discrimination,2022.2.4,144.07000649391694,
positions.xlsx,stimuli.xlsx,test.xlsx,stimuli/Social2.png,stimuli/Social1.png,stimuli/Nonsocial2.png,stimuli/Nonsocial1.png,stimuli/Test1.png,stimuli/Test2.png,"(0.7, 0.5)",cs_plus_ns,"(-0.7, 0.5)",cs_minus_ns,0,0,0,0,,,,,0,46,46,30,,,,,,,,,,,,,,,240.56579270004295,241.57270220003556,241.57270220003556,241.7185152999591,242.2254695999436,242.2254695999436,242.37128790002316,ä,0.20055449998471886,correct,,242.5795541999396,243.10735059995204,241.57270220003556,,,,,,,,,,,,3,D,2023-12-05_11h54.06.562,gca_discrimination,2022.2.4,144.07000649391694,
positions.xlsx,stimuli.xlsx,test.xlsx,stimuli/Social2.png,stimuli/Social1.png,stimuli/Nonsocial2.png,stimuli/Nonsocial1.png,stimuli/Test1.png,stimuli/Test2.png,"(-0.7, -0.5)",cs_minus_ns,"(0.7, 0.5)",cs_minus_ns,0,0,0,0,,,,,0,47,47,88,,,,,,,,,,,,,,,243.10735059995204,244.1142770999577,244.1142770999577,244.26007680001203,244.76699319994077,244.76699319994077,244.91279149998445,l,0.27532769995741546,correct,,245.19752489996608,245.26698920002673,244.1142770999577,,,,,,,,,,,,3,D,2023-12-05_11h54.06.562,gca_discrimination,2022.2.4,144.07000649391694,
positions.xlsx,stimuli.xlsx,test.xlsx,stimuli/Social2.png,stimuli/Social1.png,stimuli/Nonsocial2.png,stimuli/Nonsocial1.png,stimuli/Test1.png,stimuli/Test2.png,"(-0.7, 0.5)",cs_minus_s,"(0.7, 0.5)",cs_plus_s,0,0,0,0,,,,,0,48,48,13,,,,,,,,,,,,,,,245.26698920002673,246.27388360002078,246.27388360002078,246.41968679998536,246.92661480000243,246.92661480000243,247.07245960005093,ä,0.23639730003196746,correct,,247.3224456999451,247.75989129999653,246.27388360002078,,,,,,,,,,,,3,D,2023-12-05_11h54.06.562,gca_discrimination,2022.2.4,144.07000649391694,
positions.xlsx,stimuli.xlsx,test.xlsx,stimuli/Social2.png,stimuli/Social1.png,stimuli/Nonsocial2.png,stimuli/Nonsocial1.png,stimuli/Test1.png,stimuli/Test2.png,"(0.7, -0.5)",cs_plus_s,"(-0.7, -0.5)",cs_minus_s,0,0,0,0,,,,,0,49,49,10,,,,,,,,,,,,,,,247.75989129999653,248.76683079998475,248.76683079998475,248.91260579996742,249.4195466999663,249.4195466999663,249.56542140000965,l,0.35052890004590154,wrong,,249.9265088000102,250.4681491999654,248.76683079998475,,,,,,,,,,,,3,D,2023-12-05_11h54.06.562,gca_discrimination,2022.2.4,144.07000649391694,
positions.xlsx,stimuli.xlsx,test.xlsx,stimuli/Social2.png,stimuli/Social1.png,stimuli/Nonsocial2.png,stimuli/Nonsocial1.png,stimuli/Test1.png,stimuli/Test2.png,"(0.7, -0.5)",cs_minus_s,"(-0.7, 0.5)",cs_plus_s,0,0,0,0,,,,,0,50,50,21,,,,,,,,,,,,,,,250.4681491999654,251.4750636999961,251.4750636999961,251.62085139995907,252.12778189999517,252.12778189999517,252.27365600003395,ä,0.2979363000486046,correct,,252.57914679998066,252.94024839997292,251.4750636999961,,,,,,,,,,,,3,D,2023-12-05_11h54.06.562,gca_discrimination,2022.2.4,144.07000649391694,
positions.xlsx,stimuli.xlsx,test.xlsx,stimuli/Social2.png,stimuli/Social1.png,stimuli/Nonsocial2.png,stimuli/Nonsocial1.png,stimuli/Test1.png,stimuli/Test2.png,"(-0.7, 0.5)",cs_minus_s,"(0.7, 0.5)",cs_minus_s,0,0,0,0,,,,,0,51,51,61,,,,,,,,,,,,,,,252.94024839997292,253.94719480001368,253.94719480001368,254.09294749994297,254.5999262999976,254.5999262999976,254.74575719994027,l,0.3630430999910459,correct,,255.12074689997826,255.34295920003206,253.94719480001368,,,,,,,,,,,,3,D,2023-12-05_11h54.06.562,gca_discrimination,2022.2.4,144.07000649391694,
positions.xlsx,stimuli.xlsx,test.xlsx,stimuli/Social2.png,stimuli/Social1.png,stimuli/Nonsocial2.png,stimuli/Nonsocial1.png,stimuli/Test1.png,stimuli/Test2.png,"(0.7, -0.5)",cs_plus_ns,"(0.7, 0.5)",cs_minus_ns,0,0,0,0,,,,,0,52,52,35,,,,,,,,,,,,,,,255.34295920003206,256.3497995999642,256.3497995999642,256.49568980000913,257.002628199989,257.002628199989,257.14844749995973,ä,0.1914173000259325,correct,,257.34976110002026,257.426196299959,256.3497995999642,,,,,,,,,,,,3,D,2023-12-05_11h54.06.562,gca_discrimination,2022.2.4,144.07000649391694,
positions.xlsx,stimuli.xlsx,test.xlsx,stimuli/Social2.png,stimuli/Social1.png,stimuli/Nonsocial2.png,stimuli/Nonsocial1.png,stimuli/Test1.png,stimuli/Test2.png,"(-0.7, 0.5)",cs_minus_s,"(0.7, -0.5)",cs_minus_s,0,0,0,0,,,,,0,53,53,62,,,,,,,,,,,,,,,257.426196299959,258.433107299963,258.433107299963,258.5789354000008,259.085829299991,259.085829299991,259.2316752000479,l,0.32426200003828853,correct,,259.5650130000431,260.39830000000075,258.433107299963,,,,,,,,,,,,3,D,2023-12-05_11h54.06.562,gca_discrimination,2022.2.4,144.07000649391694,
positions.xlsx,stimuli.xlsx,test.xlsx,stimuli/Social2.png,stimuli/Social1.png,stimuli/Nonsocial2.png,stimuli/Nonsocial1.png,stimuli/Test1.png,stimuli/Test2.png,"(0.7, -0.5)",cs_plus_s,"(-0.7, -0.5)",cs_plus_s,0,0,0,0,,,,,0,54,54,58,,,,,,,,,,,,,,,260.39830000000075,261.4052043999545,261.4052043999545,261.55103079997934,262.0579602000071,262.0579602000071,262.2038153000176,l,0.3531203999882564,correct,,262.5648833999876,263.4467899999581,261.4052043999545,,,,,,,,,,,,3,D,2023-12-05_11h54.06.562,gca_discrimination,2022.2.4,144.07000649391694,
positions.xlsx,stimuli.xlsx,test.xlsx,stimuli/Social2.png,stimuli/Social1.png,stimuli/Nonsocial2.png,stimuli/Nonsocial1.png,stimuli/Test1.png,stimuli/Test2.png,"(-0.7, -0.5)",cs_minus_s,"(0.7, -0.5)",cs_minus_s,0,0,0,0,,,,,0,55,55,65,,,,,,,,,,,,,,,263.4467899999581,264.45368919998873,264.45368919998873,264.5994928999571,265.1064261000138,265.1064261000138,265.2522506000241,l,0.22326420003082603,correct,,265.48835200001486,265.7522422999609,264.45368919998873,,,,,,,,,,,,3,D,2023-12-05_11h54.06.562,gca_discrimination,2022.2.4,144.07000649391694,
positions.xlsx,stimuli.xlsx,test.xlsx,stimuli/Social2.png,stimuli/Social1.png,stimuli/Nonsocial2.png,stimuli/Nonsocial1.png,stimuli/Test1.png,stimuli/Test2.png,"(-0.7, 0.5)",cs_plus_ns,"(-0.7, -0.5)",cs_minus_ns,0,0,0,0,,,,,0,56,56,24,,,,,,,,,,,,,,,265.7522422999609,266.7591850999743,266.7591850999743,266.90497559995856,267.41193179995753,267.41193179995753,267.55767150002066,ä,0.24657690001185983,correct,,267.8146484999452,268.6896303000394,266.7591850999743,,,,,,,,,,,,3,D,2023-12-05_11h54.06.562,gca_discrimination,2022.2.4,144.07000649391694,
positions.xlsx,stimuli.xlsx,test.xlsx,stimuli/Social2.png,stimuli/Social1.png,stimuli/Nonsocial2.png,stimuli/Nonsocial1.png,stimuli/Test1.png,stimuli/Test2.png,"(0.7, 0.5)",cs_plus_s,"(-0.7, 0.5)",cs_minus_s,0,0,0,0,,,,,0,57,57,6,,,,,,,,,,,,,,,268.6896303000394,269.6965507999994,269.6965507999994,269.84235639998224,270.3492865000153,270.3492865000153,270.4950585999759,ä,0.2521788999438286,correct,,270.75895149994176,271.4325943000149,269.6965507999994,,,,,,,,,,,,3,D,2023-12-05_11h54.06.562,gca_discrimination,2022.2.4,144.07000649391694,
positions.xlsx,stimuli.xlsx,test.xlsx,stimuli/Social2.png,stimuli/Social1.png,stimuli/Nonsocial2.png,stimuli/Nonsocial1.png,stimuli/Test1.png,stimuli/Test2.png,"(0.7, 0.5)",cs_plus_ns,"(0.7, -0.5)",cs_plus_ns,0,0,0,0,,,,,0,58,58,80,,,,,,,,,,,,,,,271.4325943000149,272.4394738000119,272.4394738000119,272.5852661000099,273.09221180004533,273.09221180004533,273.2380812000483,l,0.34980550000909716,correct,,273.599129499984,274.251888699946,272.4394738000119,,,,,,,,,,,,3,D,2023-12-05_11h54.06.562,gca_discrimination,2022.2.4,144.07000649391694,
positions.xlsx,stimuli.xlsx,test.xlsx,stimuli/Social2.png,stimuli/Social1.png,stimuli/Nonsocial2.png,stimuli/Nonsocial1.png,stimuli/Test1.png,stimuli/Test2.png,"(-0.7, -0.5)",cs_minus_s,"(-0.7, 0.5)",cs_plus_s,0,0,0,0,,,,,0,59,59,15,,,,,,,,,,,,,,,274.251888699946,275.2588229000103,275.2588229000103,275.4046351000434,275.911511400016,275.911511400016,276.05733420001343,ä,0.28282260010018945,correct,,276.3490304000443,276.40457949996926,275.2588229000103,,,,,,,,,,,,3,D,2023-12-05_11h54.06.562,gca_discrimination,2022.2.4,144.07000649391694,
positions.xlsx,stimuli.xlsx,test.xlsx,stimuli/Social2.png,stimuli/Social1.png,stimuli/Nonsocial2.png,stimuli/Nonsocial1.png,stimuli/Test1.png,stimuli/Test2.png,"(-0.7, -0.5)",cs_plus_ns,"(0.7, 0.5)",cs_minus_ns,0,0,0,0,,,,,0,60,60,28,,,,,,,,,,,,,,,276.40457949996926,277.41150739998557,277.41150739998557,277.5573013999965,278.0642016000347,278.0642016000347,278.21006519999355,ä,0.3782489999430254,correct,,278.59891719999723,278.75867779995315,277.41150739998557,,,,,,,,,,,,3,D,2023-12-05_11h54.06.562,gca_discrimination,2022.2.4,144.07000649391694,
positions.xlsx,stimuli.xlsx,test.xlsx,stimuli/Social2.png,stimuli/Social1.png,stimuli/Nonsocial2.png,stimuli/Nonsocial1.png,stimuli/Test1.png,stimuli/Test2.png,"(-0.7, 0.5)",cs_minus_s,"(0.7, -0.5)",cs_plus_s,0,0,0,0,,,,,0,61,61,14,,,,,,,,,,,,,,,278.75867779995315,279.76555300003383,279.76555300003383,279.91135629999917,280.4183186000446,280.4183186000446,280.56415550003294,ä,0.20793180004693568,correct,,280.779410499963,281.59878440003376,279.76555300003383,,,,,,,,,,,,3,D,2023-12-05_11h54.06.562,gca_discrimination,2022.2.4,144.07000649391694,
positions.xlsx,stimuli.xlsx,test.xlsx,stimuli/Social2.png,stimuli/Social1.png,stimuli/Nonsocial2.png,stimuli/Nonsocial1.png,stimuli/Test1.png,stimuli/Test2.png,"(-0.7, -0.5)",cs_plus_s,"(0.7, 0.5)",cs_minus_s,0,0,0,0,,,,,0,62,62,4,,,,,,,,,,,,,,,281.59878440003376,282.6057204999961,282.6057204999961,282.7515624000225,283.25841420004144,283.25841420004144,283.4042926999973,ä,0.25602729991078377,correct,,283.6681554999668,284.3486686999677,282.6057204999961,,,,,,,,,,,,3,D,2023-12-05_11h54.06.562,gca_discrimination,2022.2.4,144.07000649391694,
positions.xlsx,stimuli.xlsx,test.xlsx,stimuli/Social2.png,stimuli/Social1.png,stimuli/Nonsocial2.png,stimuli/Nonsocial1.png,stimuli/Test1.png,stimuli/Test2.png,"(-0.7, 0.5)",cs_minus_ns,"(-0.7, -0.5)",cs_plus_ns,0,0,0,0,,,,,0,63,63,36,,,,,,,,,,,,,,,284.3486686999677,285.35557939996943,285.35557939996943,285.50143419997767,286.0083743999712,286.0083743999712,286.1541814999655,ä,0.2249757000245154,correct,,286.39029220002703,286.7860953999916,285.35557939996943,,,,,,,,,,,,3,D,2023-12-05_11h54.06.562,gca_discrimination,2022.2.4,144.07000649391694,
positions.xlsx,stimuli.xlsx,test.xlsx,stimuli/Social2.png,stimuli/Social1.png,stimuli/Nonsocial2.png,stimuli/Nonsocial1.png,stimuli/Test1.png,stimuli/Test2.png,"(0.7, -0.5)",cs_plus_s,"(-0.7, 0.5)",cs_minus_s,0,0,0,0,,,,,0,64,64,9,,,,,,,,,,,,,,,286.7860953999916,287.7930104000261,287.7930104000261,287.9388361000456,288.4457083999878,288.4457083999878,288.5915987000335,l,0.21243120008148253,wrong,,288.8137356999796,289.001280699973,287.7930104000261,,,,,,,,,,,,3,D,2023-12-05_11h54.06.562,gca_discrimination,2022.2.4,144.07000649391694,
positions.xlsx,stimuli.xlsx,test.xlsx,stimuli/Social2.png,stimuli/Social1.png,stimuli/Nonsocial2.png,stimuli/Nonsocial1.png,stimuli/Test1.png,stimuli/Test2.png,"(0.7, 0.5)",cs_plus_s,"(0.7, -0.5)",cs_minus_s,0,0,0,0,,,,,0,65,65,8,,,,,,,,,,,,,,,289.001280699973,290.00818630005233,290.00818630005233,290.1540267999517,290.660900900024,290.660900900024,290.8067653999897,ä,0.25286710006184876,correct,,291.07069740002044,291.98730309994426,290.00818630005233,,,,,,,,,,,,3,D,2023-12-05_11h54.06.562,gca_discrimination,2022.2.4,144.07000649391694,
positions.xlsx,stimuli.xlsx,test.xlsx,stimuli/Social2.png,stimuli/Social1.png,stimuli/Nonsocial2.png,stimuli/Nonsocial1.png,stimuli/Test1.png,stimuli/Test2.png,"(0.7, -0.5)",cs_plus_ns,"(-0.7, 0.5)",cs_plus_ns,0,0,0,0,,,,,0,66,66,81,,,,,,,,,,,,,,,291.98730309994426,292.9941626000218,292.9941626000218,293.1400041000452,293.646894400008,293.646894400008,293.79275769996457,ä,0.1958867999492213,wrong,,294.0010745000327,294.16776029998437,292.9941626000218,,,,,,,,,,,,3,D,2023-12-05_11h54.06.562,gca_discrimination,2022.2.4,144.07000649391694,
positions.xlsx,stimuli.xlsx,test.xlsx,stimuli/Social2.png,stimuli/Social1.png,stimuli/Nonsocial2.png,stimuli/Nonsocial1.png,stimuli/Test1.png,stimuli/Test2.png,"(-0.7, -0.5)",cs_minus_s,"(0.7, -0.5)",cs_plus_s,0,0,0,0,,,,,0,67,67,17,,,,,,,,,,,,,,,294.16776029998437,295.17465049994644,295.17465049994644,295.3204077000264,295.8273554999614,295.8273554999614,295.97322629997507,ä,0.1987370999995619,correct,,296.18152670003474,296.2718465999933,295.17465049994644,,,,,,,,,,,,3,D,2023-12-05_11h54.06.562,gca_discrimination,2022.2.4,144.07000649391694,
positions.xlsx,stimuli.xlsx,test.xlsx,stimuli/Social2.png,stimuli/Social1.png,stimuli/Nonsocial2.png,stimuli/Nonsocial1.png,stimuli/Test1.png,stimuli/Test2.png,"(0.7, -0.5)",cs_minus_s,"(-0.7, -0.5)",cs_plus_s,0,0,0,0,,,,,0,68,68,22,,,,,,,,,,,,,,,296.2718465999933,297.27868899994064,297.27868899994064,297.424527999945,297.9314697999507,297.9314697999507,298.0773522000527,ä,0.2788897999562323,correct,,298.3688953999663,298.90363620000426,297.27868899994064,,,,,,,,,,,,3,D,2023-12-05_11h54.06.562,gca_discrimination,2022.2.4,144.07000649391694,
positions.xlsx,stimuli.xlsx,test.xlsx,stimuli/Social2.png,stimuli/Social1.png,stimuli/Nonsocial2.png,stimuli/Nonsocial1.png,stimuli/Test1.png,stimuli/Test2.png,"(-0.7, -0.5)",cs_plus_s,"(-0.7, 0.5)",cs_plus_s,0,0,0,0,,,,,0,69,69,51,,,,,,,,,,,,,,,298.90363620000426,299.9105503000319,299.9105503000319,300.056351599982,300.56331050000153,300.56331050000153,300.7091284999624,l,0.31082020001485944,correct,,301.0285491000395,301.327167200041,299.9105503000319,,,,,,,,,,,,3,D,2023-12-05_11h54.06.562,gca_discrimination,2022.2.4,144.07000649391694,
positions.xlsx,stimuli.xlsx,test.xlsx,stimuli/Social2.png,stimuli/Social1.png,stimuli/Nonsocial2.png,stimuli/Nonsocial1.png,stimuli/Test1.png,stimuli/Test2.png,"(0.7, -0.5)",cs_minus_ns,"(-0.7, 0.5)",cs_plus_ns,0,0,0,0,,,,,0,70,70,45,,,,,,,,,,,,,,,301.327167200041,302.3340759000275,302.3340759000275,302.47988360002637,302.986813699943,302.986813699943,303.1326485000318,ä,0.255260800011456,correct,,303.39650859998073,304.3062015000032,302.3340759000275,,,,,,,,,,,,3,D,2023-12-05_11h54.06.562,gca_discrimination,2022.2.4,144.07000649391694,
positions.xlsx,stimuli.xlsx,test.xlsx,stimuli/Social2.png,stimuli/Social1.png,stimuli/Nonsocial2.png,stimuli/Nonsocial1.png,stimuli/Test1.png,stimuli/Test2.png,"(-0.7, -0.5)",cs_plus_ns,"(-0.7, 0.5)",cs_plus_ns,0,0,0,0,,,,,0,71,71,75,,,,,,,,,,,,,,,304.3062015000032,305.31309650000185,305.31309650000185,305.45896199997514,305.96584700001404,305.96584700001404,306.1116877000313,l,0.3079401000868529,correct,,306.43111659993883,307.41717769997194,305.31309650000185,,,,,,,,,,,,3,D,2023-12-05_11h54.06.562,gca_discrimination,2022.2.4,144.07000649391694,
positions.xlsx,stimuli.xlsx,test.xlsx,stimuli/Social2.png,stimuli/Social1.png,stimuli/Nonsocial2.png,stimuli/Nonsocial1.png,stimuli/Test1.png,stimuli/Test2.png,"(0.7, -0.5)",cs_minus_ns,"(0.7, 0.5)",cs_minus_ns,0,0,0,0,,,,,0,72,72,95,,,,,,,,,,,,,,,307.41717769997194,308.4240644000238,308.4240644000238,308.5698987999931,309.07684570003767,309.07684570003767,309.22263520001434,ä,0.22199360001832247,wrong,,309.4517691000365,309.55598750000354,308.4240644000238,,,,,,,,,,,,3,D,2023-12-05_11h54.06.562,gca_discrimination,2022.2.4,144.07000649391694,
positions.xlsx,stimuli.xlsx,test.xlsx,stimuli/Social2.png,stimuli/Social1.png,stimuli/Nonsocial2.png,stimuli/Nonsocial1.png,stimuli/Test1.png,stimuli/Test2.png,"(-0.7, 0.5)",cs_plus_ns,"(0.7, 0.5)",cs_minus_ns,0,0,0,0,,,,,0,73,73,25,,,,,,,,,,,,,,,309.55598750000354,310.56289800000377,310.56289800000377,310.7087160999654,311.21564980002586,311.21564980002586,311.3614441000391,ä,0.21859679999761283,correct,,311.59059489995707,311.88230219995603,310.56289800000377,,,,,,,,,,,,3,D,2023-12-05_11h54.06.562,gca_discrimination,2022.2.4,144.07000649391694,
positions.xlsx,stimuli.xlsx,test.xlsx,stimuli/Social2.png,stimuli/Social1.png,stimuli/Nonsocial2.png,stimuli/Nonsocial1.png,stimuli/Test1.png,stimuli/Test2.png,"(-0.7, -0.5)",cs_plus_ns,"(0.7, 0.5)",cs_plus_ns,0,0,0,0,,,,,0,74,74,76,,,,,,,,,,,,,,,311.88230219995603,312.8892054000171,312.8892054000171,313.0350242999848,313.5419378000079,313.5419378000079,313.68779019999783,l,0.29319029999896884,correct,,313.99330510001164,314.1113781000022,312.8892054000171,,,,,,,,,,,,3,D,2023-12-05_11h54.06.562,gca_discrimination,2022.2.4,144.07000649391694,
positions.xlsx,stimuli.xlsx,test.xlsx,stimuli/Social2.png,stimuli/Social1.png,stimuli/Nonsocial2.png,stimuli/Nonsocial1.png,stimuli/Test1.png,stimuli/Test2.png,"(-0.7, 0.5)",cs_plus_s,"(0.7, 0.5)",cs_minus_s,0,0,0,0,,,,,0,75,75,1,,,,,,,,,,,,,,,314.1113781000022,315.1182759000221,315.1182759000221,315.2640754999593,315.7710120000411,315.7710120000411,315.91680440003984,ä,0.2711986000649631,correct,,316.2015164999757,317.1042811999796,315.1182759000221,,,,,,,,,,,,3,D,2023-12-05_11h54.06.562,gca_discrimination,2022.2.4,144.07000649391694,
positions.xlsx,stimuli.xlsx,test.xlsx,stimuli/Social2.png,stimuli/Social1.png,stimuli/Nonsocial2.png,stimuli/Nonsocial1.png,stimuli/Test1.png,stimuli/Test2.png,"(0.7, -0.5)",cs_minus_ns,"(0.7, 0.5)",cs_plus_ns,0,0,0,0,,,,,0,76,76,47,,,,,,,,,,,,,,,317.1042811999796,318.11119369999506,318.11119369999506,318.2570305999834,318.7639645000454,318.7639645000454,318.9097658999963,l,0.37469029997009784,wrong,,319.29169310000725,319.87499619997106,318.11119369999506,,,,,,,,,,,,3,D,2023-12-05_11h54.06.562,gca_discrimination,2022.2.4,144.07000649391694,
positions.xlsx,stimuli.xlsx,test.xlsx,stimuli/Social2.png,stimuli/Social1.png,stimuli/Nonsocial2.png,stimuli/Nonsocial1.png,stimuli/Test1.png,stimuli/Test2.png,"(0.7, 0.5)",cs_plus_s,"(-0.7, 0.5)",cs_plus_s,0,0,0,0,,,,,0,77,77,54,,,,,,,,,,,,,,,319.87499619997106,320.88191620004363,320.88191620004363,321.0277317999862,321.5346537999576,321.5346537999576,321.68046639999375,l,0.259281599894166,correct,,321.9513075000141,322.38180780003313,320.88191620004363,,,,,,,,,,,,3,D,2023-12-05_11h54.06.562,gca_discrimination,2022.2.4,144.07000649391694,
positions.xlsx,stimuli.xlsx,test.xlsx,stimuli/Social2.png,stimuli/Social1.png,stimuli/Nonsocial2.png,stimuli/Nonsocial1.png,stimuli/Test1.png,stimuli/Test2.png,"(0.7, -0.5)",cs_plus_s,"(0.7, 0.5)",cs_plus_s,0,0,0,0,,,,,0,78,78,59,,,,,,,,,,,,,,,322.38180780003313,323.38869990000967,323.38869990000967,323.53457549994346,324.0414964000229,324.0414964000229,324.18729549995624,l,0.25652119994629174,correct,,324.4512074999511,324.9372960999608,323.38869990000967,,,,,,,,,,,,3,D,2023-12-05_11h54.06.562,gca_discrimination,2022.2.4,144.07000649391694,
positions.xlsx,stimuli.xlsx,test.xlsx,stimuli/Social2.png,stimuli/Social1.png,stimuli/Nonsocial2.png,stimuli/Nonsocial1.png,stimuli/Test1.png,stimuli/Test2.png,"(-0.7, 0.5)",cs_minus_ns,"(-0.7, -0.5)",cs_minus_ns,0,0,0,0,,,,,0,79,79,84,,,,,,,,,,,,,,,324.9372960999608,325.94421870005317,325.94421870005317,326.09001699998043,326.5969449999975,326.5969449999975,326.74278760002926,l,0.34156690002419055,correct,,327.0969363000477,327.3399781000335,325.94421870005317,,,,,,,,,,,,3,D,2023-12-05_11h54.06.562,gca_discrimination,2022.2.4,144.07000649391694,
positions.xlsx,stimuli.xlsx,test.xlsx,stimuli/Social2.png,stimuli/Social1.png,stimuli/Nonsocial2.png,stimuli/Nonsocial1.png,stimuli/Test1.png,stimuli/Test2.png,"(0.7, 0.5)",cs_plus_s,"(-0.7, -0.5)",cs_plus_s,0,0,0,0,,,,,0,80,80,55,,,,,,,,,,,,,,,327.3399781000335,328.3468844000017,328.3468844000017,328.49271260004025,328.99963169998955,328.99963169998955,329.1454461000394,l,0.3063990999944508,correct,,329.4648780999705,330.4232004999649,328.3468844000017,,,,,,,,,,,,3,D,2023-12-05_11h54.06.562,gca_discrimination,2022.2.4,144.07000649391694,
positions.xlsx,stimuli.xlsx,test.xlsx,stimuli/Social2.png,stimuli/Social1.png,stimuli/Nonsocial2.png,stimuli/Nonsocial1.png,stimuli/Test1.png,stimuli/Test2.png,"(0.7, -0.5)",cs_minus_s,"(-0.7, 0.5)",cs_minus_s,0,0,0,0,,,,,0,81,81,69,,,,,,,,,,,,,,,330.4232004999649,331.430112299975,331.430112299975,331.57592620002106,332.0828079000348,332.0828079000348,332.22863010002766,ä,0.29473970003891736,wrong,,332.5341733000241,332.8327652999433,331.430112299975,,,,,,,,,,,,3,D,2023-12-05_11h54.06.562,gca_discrimination,2022.2.4,144.07000649391694,
positions.xlsx,stimuli.xlsx,test.xlsx,stimuli/Social2.png,stimuli/Social1.png,stimuli/Nonsocial2.png,stimuli/Nonsocial1.png,stimuli/Test1.png,stimuli/Test2.png,"(-0.7, -0.5)",cs_minus_ns,"(0.7, -0.5)",cs_minus_ns,0,0,0,0,,,,,0,82,82,89,,,,,,,,,,,,,,,332.8327652999433,333.8397477000253,333.8397477000253,333.9855079000117,334.4924353000242,334.4924353000242,334.6382779999403,l,0.3015208999859169,correct,,334.9507977999747,335.61748130002525,333.8397477000253,,,,,,,,,,,,3,D,2023-12-05_11h54.06.562,gca_discrimination,2022.2.4,144.07000649391694,
positions.xlsx,stimuli.xlsx,test.xlsx,stimuli/Social2.png,stimuli/Social1.png,stimuli/Nonsocial2.png,stimuli/Nonsocial1.png,stimuli/Test1.png,stimuli/Test2.png,"(-0.7, 0.5)",cs_plus_s,"(-0.7, -0.5)",cs_plus_s,0,0,0,0,,,,,0,83,83,48,,,,,,,,,,,,,,,335.61748130002525,336.62433320004493,336.62433320004493,336.7701296999585,337.2770763000008,337.2770763000008,337.42289940000046,l,0.21363449993077666,correct,,337.645119599998,338.0201042999979,336.62433320004493,,,,,,,,,,,,3,D,2023-12-05_11h54.06.562,gca_discrimination,2022.2.4,144.07000649391694,
positions.xlsx,stimuli.xlsx,test.xlsx,stimuli/Social2.png,stimuli/Social1.png,stimuli/Nonsocial2.png,stimuli/Nonsocial1.png,stimuli/Test1.png,stimuli/Test2.png,"(0.7, 0.5)",cs_minus_s,"(-0.7, -0.5)",cs_minus_s,0,0,0,0,,,,,0,84,84,67,,,,,,,,,,,,,,,338.0201042999979,339.0269438000396,339.0269438000396,339.17278869997244,339.67977559997234,339.67977559997234,339.8255435000174,l,0.23404340003617108,correct,,340.0686431999784,340.1936068000505,339.0269438000396,,,,,,,,,,,,3,D,2023-12-05_11h54.06.562,gca_discrimination,2022.2.4,144.07000649391694,
positions.xlsx,stimuli.xlsx,test.xlsx,stimuli/Social2.png,stimuli/Social1.png,stimuli/Nonsocial2.png,stimuli/Nonsocial1.png,stimuli/Test1.png,stimuli/Test2.png,"(0.7, -0.5)",cs_minus_s,"(-0.7, -0.5)",cs_minus_s,0,0,0,0,,,,,0,85,85,70,,,,,,,,,,,,,,,340.1936068000505,341.20053339994047,341.20053339994047,341.3463504000101,341.85325939999893,341.85325939999893,341.99911480001174,l,0.340246899984777,correct,,342.3463317999849,342.8948996999534,341.20053339994047,,,,,,,,,,,,3,D,2023-12-05_11h54.06.562,gca_discrimination,2022.2.4,144.07000649391694,
positions.xlsx,stimuli.xlsx,test.xlsx,stimuli/Social2.png,stimuli/Social1.png,stimuli/Nonsocial2.png,stimuli/Nonsocial1.png,stimuli/Test1.png,stimuli/Test2.png,"(-0.7, -0.5)",cs_minus_s,"(0.7, 0.5)",cs_plus_s,0,0,0,0,,,,,0,86,86,16,,,,,,,,,,,,,,,342.8948996999534,343.90174110000953,343.90174110000953,344.04760549997445,344.5545568000525,344.5545568000525,344.7003664999502,ä,0.17659179994370788,correct,,344.8878827999579,345.5962009000359,343.90174110000953,,,,,,,,,,,,3,D,2023-12-05_11h54.06.562,gca_discrimination,2022.2.4,144.07000649391694,
positions.xlsx,stimuli.xlsx,test.xlsx,stimuli/Social2.png,stimuli/Social1.png,stimuli/Nonsocial2.png,stimuli/Nonsocial1.png,stimuli/Test1.png,stimuli/Test2.png,"(-0.7, 0.5)",cs_plus_ns,"(-0.7, -0.5)",cs_plus_ns,0,0,0,0,,,,,0,87,87,72,,,,,,,,,,,,,,,345.5962009000359,346.6030537999468,346.6030537999468,346.7488938999595,347.2558820999693,347.2558820999693,347.4016235000454,l,0.25003140000626445,correct,,347.6585772000253,348.26967419998255,346.6030537999468,,,,,,,,,,,,3,D,2023-12-05_11h54.06.562,gca_discrimination,2022.2.4,144.07000649391694,
positions.xlsx,stimuli.xlsx,test.xlsx,stimuli/Social2.png,stimuli/Social1.png,stimuli/Nonsocial2.png,stimuli/Nonsocial1.png,stimuli/Test1.png,stimuli/Test2.png,"(0.7, 0.5)",cs_plus_s,"(0.7, -0.5)",cs_plus_s,0,0,0,0,,,,,0,88,88,56,,,,,,,,,,,,,,,348.26967419998255,349.2766117999563,349.2766117999563,349.4223900999641,349.9293238000246,349.9293238000246,350.0751305000158,l,0.3137916000559926,correct,,350.40150509995874,350.69319320004433,349.2766117999563,,,,,,,,,,,,3,D,2023-12-05_11h54.06.562,gca_discrimination,2022.2.4,144.07000649391694,
positions.xlsx,stimuli.xlsx,test.xlsx,stimuli/Social2.png,stimuli/Social1.png,stimuli/Nonsocial2.png,stimuli/Nonsocial1.png,stimuli/Test1.png,stimuli/Test2.png,"(-0.7, 0.5)",cs_minus_ns,"(0.7, 0.5)",cs_minus_ns,0,0,0,0,,,,,0,89,89,85,,,,,,,,,,,,,,,350.69319320004433,351.7000875000376,351.7000875000376,351.8458525999449,352.35283270000946,352.35283270000946,352.49866669997573,ä,0.20998329995200038,wrong,,352.72087560000364,352.8458215999417,351.7000875000376,,,,,,,,,,,,3,D,2023-12-05_11h54.06.562,gca_discrimination,2022.2.4,144.07000649391694,
positions.xlsx,stimuli.xlsx,test.xlsx,stimuli/Social2.png,stimuli/Social1.png,stimuli/Nonsocial2.png,stimuli/Nonsocial1.png,stimuli/Test1.png,stimuli/Test2.png,"(0.7, 0.5)",cs_minus_ns,"(-0.7, -0.5)",cs_minus_ns,0,0,0,0,,,,,0,90,90,91,,,,,,,,,,,,,,,352.8458215999417,353.8527581000235,353.8527581000235,353.998640100006,354.505509300041,354.505509300041,354.65135990001727,l,0.2323524000821635,correct,,354.89437640004326,355.2971994000254,353.8527581000235,,,,,,,,,,,,3,D,2023-12-05_11h54.06.562,gca_discrimination,2022.2.4,144.07000649391694,
positions.xlsx,stimuli.xlsx,test.xlsx,stimuli/Social2.png,stimuli/Social1.png,stimuli/Nonsocial2.png,stimuli/Nonsocial1.png,stimuli/Test1.png,stimuli/Test2.png,"(0.7, 0.5)",cs_minus_ns,"(-0.7, 0.5)",cs_minus_ns,0,0,0,0,,,,,0,91,91,90,,,,,,,,,,,,,,,355.2971994000254,356.30405939999036,356.30405939999036,356.4498973999871,356.956893100054,356.956893100054,357.1025792999426,l,0.1812768999952823,correct,,357.29705880000256,357.85952619998716,356.30405939999036,,,,,,,,,,,,3,D,2023-12-05_11h54.06.562,gca_discrimination,2022.2.4,144.07000649391694,
positions.xlsx,stimuli.xlsx,test.xlsx,stimuli/Social2.png,stimuli/Social1.png,stimuli/Nonsocial2.png,stimuli/Nonsocial1.png,stimuli/Test1.png,stimuli/Test2.png,"(-0.7, 0.5)",cs_plus_s,"(0.7, -0.5)",cs_minus_s,0,0,0,0,,,,,0,92,92,2,,,,,,,,,,,,,,,357.85952619998716,358.8664808999747,358.8664808999747,359.0122764999978,359.51921129995026,359.51921129995026,359.665038999985,ä,0.15447549999225885,correct,,359.8316765000345,360.8177885999903,358.8664808999747,,,,,,,,,,,,3,D,2023-12-05_11h54.06.562,gca_discrimination,2022.2.4,144.07000649391694,
positions.xlsx,stimuli.xlsx,test.xlsx,stimuli/Social2.png,stimuli/Social1.png,stimuli/Nonsocial2.png,stimuli/Nonsocial1.png,stimuli/Test1.png,stimuli/Test2.png,"(-0.7, -0.5)",cs_minus_s,"(-0.7, 0.5)",cs_minus_s,0,0,0,0,,,,,0,93,93,63,,,,,,,,,,,,,,,360.8177885999903,361.8246538999956,361.8246538999956,361.97047579998616,362.4773657999467,362.4773657999467,362.62322369997855,l,0.37187309993896633,correct,,363.005203000037,363.74123759998474,361.8246538999956,,,,,,,,,,,,3,D,2023-12-05_11h54.06.562,gca_discrimination,2022.2.4,144.07000649391694,
positions.xlsx,stimuli.xlsx,test.xlsx,stimuli/Social2.png,stimuli/Social1.png,stimuli/Nonsocial2.png,stimuli/Nonsocial1.png,stimuli/Test1.png,stimuli/Test2.png,"(-0.7, 0.5)",cs_plus_ns,"(0.7, 0.5)",cs_plus_ns,0,0,0,0,,,,,0,94,94,73,,,,,,,,,,,,,,,363.74123759998474,364.74817839998286,364.74817839998286,364.8939766000258,365.4009210000513,365.4009210000513,365.5467550000176,l,0.21652760007418692,correct,,365.7758932999568,366.42164539999794,364.74817839998286,,,,,,,,,,,,3,D,2023-12-05_11h54.06.562,gca_discrimination,2022.2.4,144.07000649391694,
positions.xlsx,stimuli.xlsx,test.xlsx,stimuli/Social2.png,stimuli/Social1.png,stimuli/Nonsocial2.png,stimuli/Nonsocial1.png,stimuli/Test1.png,stimuli/Test2.png,"(0.7, 0.5)",cs_plus_ns,"(-0.7, -0.5)",cs_minus_ns,0,0,0,0,,,,,0,95,95,31,,,,,,,,,,,,,,,366.42164539999794,367.4286153999856,367.4286153999856,367.5744278000202,368.0814376999624,368.0814376999624,368.2271864999784,ä,0.21620609995443374,correct,,368.45637519995216,369.28265469998587,367.4286153999856,,,,,,,,,,,,3,D,2023-12-05_11h54.06.562,gca_discrimination,2022.2.4,144.07000649391694,
