posFile,stimFile,testFile,cs_plus_s,cs_minus_s,cs_plus_ns,cs_minus_ns,test1,test2,position1,trialtype,position2,comptype,blocks.thisRepN,blocks.thisTrialN,blocks.thisN,blocks.thisIndex,learning_trials.thisRepN,learning_trials.thisTrialN,learning_trials.thisN,learning_trials.thisIndex,trials.thisRepN,trials.thisTrialN,trials.thisN,trials.thisIndex,textStart.started,key.started,key.keys,key.rt,correctness,textStartTask.started,participant,group,date,expName,psychopyVersion,frameRate,
positions.xlsx,stimuli.xlsx,test.xlsx,stimuli/Social1.png,stimuli/Social2.png,stimuli/Nonsocial1.png,stimuli/Nonsocial2.png,stimuli/Test1.png,stimuli/Test2.png,"(-0.7, -0.5)",test2,"(0.7, 0.5)",test2,0,0,0,0,0,0,0,7,,,,,13.821626399992965,35.41806439997163,l,1.5514018000103533,correct,,29,A,2023-12-14_15h59.24.127,gca_discrimination,2022.2.4,143.85053355565572,
positions.xlsx,stimuli.xlsx,test.xlsx,stimuli/Social1.png,stimuli/Social2.png,stimuli/Nonsocial1.png,stimuli/Nonsocial2.png,stimuli/Test1.png,stimuli/Test2.png,"(-0.7, -0.5)",test1,"(0.7, 0.5)",test2,0,0,0,0,0,1,1,8,,,,,,41.07060699991416,ä,0.7793561000144109,correct,,29,A,2023-12-14_15h59.24.127,gca_discrimination,2022.2.4,143.85053355565572,
positions.xlsx,stimuli.xlsx,test.xlsx,stimuli/Social1.png,stimuli/Social2.png,stimuli/Nonsocial1.png,stimuli/Nonsocial2.png,stimuli/Test1.png,stimuli/Test2.png,"(0.7, 0.5)",test2,"(0.7, -0.5)",test1,0,0,0,0,0,2,2,6,,,,,,46.63985229993705,ä,1.0739110999275,correct,,29,A,2023-12-14_15h59.24.127,gca_discrimination,2022.2.4,143.85053355565572,
positions.xlsx,stimuli.xlsx,test.xlsx,stimuli/Social1.png,stimuli/Social2.png,stimuli/Nonsocial1.png,stimuli/Nonsocial2.png,stimuli/Test1.png,stimuli/Test2.png,"(0.7, -0.5)",test1,"(0.7, 0.5)",test1,0,0,0,0,0,3,3,10,,,,,,52.403510899981484,l,0.8462845999747515,correct,,29,A,2023-12-14_15h59.24.127,gca_discrimination,2022.2.4,143.85053355565572,
positions.xlsx,stimuli.xlsx,test.xlsx,stimuli/Social1.png,stimuli/Social2.png,stimuli/Nonsocial1.png,stimuli/Nonsocial2.png,stimuli/Test1.png,stimuli/Test2.png,"(-0.7, 0.5)",test1,"(0.7, -0.5)",test1,0,0,0,0,0,4,4,5,,,,,,57.82689989998471,l,1.1663115000119433,correct,,29,A,2023-12-14_15h59.24.127,gca_discrimination,2022.2.4,143.85053355565572,
positions.xlsx,stimuli.xlsx,test.xlsx,stimuli/Social1.png,stimuli/Social2.png,stimuli/Nonsocial1.png,stimuli/Nonsocial2.png,stimuli/Test1.png,stimuli/Test2.png,"(0.7, 0.5)",test1,"(0.7, -0.5)",test2,0,0,0,0,0,5,5,11,,,,,,63.60442789993249,ä,0.6849197999108583,correct,,29,A,2023-12-14_15h59.24.127,gca_discrimination,2022.2.4,143.85053355565572,
positions.xlsx,stimuli.xlsx,test.xlsx,stimuli/Social1.png,stimuli/Social2.png,stimuli/Nonsocial1.png,stimuli/Nonsocial2.png,stimuli/Test1.png,stimuli/Test2.png,"(-0.7, 0.5)",test2,"(0.7, 0.5)",test1,0,0,0,0,0,6,6,3,,,,,,68.78481699991971,l,0.641827299958095,wrong,,29,A,2023-12-14_15h59.24.127,gca_discrimination,2022.2.4,143.85053355565572,
positions.xlsx,stimuli.xlsx,test.xlsx,stimuli/Social1.png,stimuli/Social2.png,stimuli/Nonsocial1.png,stimuli/Nonsocial2.png,stimuli/Test1.png,stimuli/Test2.png,"(0.7, -0.5)",test1,"(0.7, 0.5)",test2,0,0,0,0,0,7,7,0,,,,,,73.94433159998152,ä,0.8569790000328794,correct,,29,A,2023-12-14_15h59.24.127,gca_discrimination,2022.2.4,143.85053355565572,
positions.xlsx,stimuli.xlsx,test.xlsx,stimuli/Social1.png,stimuli/Social2.png,stimuli/Nonsocial1.png,stimuli/Nonsocial2.png,stimuli/Test1.png,stimuli/Test2.png,"(-0.7, -0.5)",test2,"(0.7, -0.5)",test2,0,0,0,0,0,8,8,9,,,,,,78.74276949989144,l,1.0431291999993846,correct,,29,A,2023-12-14_15h59.24.127,gca_discrimination,2022.2.4,143.85053355565572,
positions.xlsx,stimuli.xlsx,test.xlsx,stimuli/Social1.png,stimuli/Social2.png,stimuli/Nonsocial1.png,stimuli/Nonsocial2.png,stimuli/Test1.png,stimuli/Test2.png,"(-0.7, 0.5)",test2,"(0.7, -0.5)",test1,0,0,0,0,0,9,9,12,,,,,,84.2981372999493,ä,0.536811700090766,correct,,29,A,2023-12-14_15h59.24.127,gca_discrimination,2022.2.4,143.85053355565572,
positions.xlsx,stimuli.xlsx,test.xlsx,stimuli/Social1.png,stimuli/Social2.png,stimuli/Nonsocial1.png,stimuli/Nonsocial2.png,stimuli/Test1.png,stimuli/Test2.png,"(-0.7, -0.5)",test2,"(-0.7, 0.5)",test2,0,0,0,0,0,10,10,2,,,,,,88.79099259991199,l,1.3317887999583036,correct,,29,A,2023-12-14_15h59.24.127,gca_discrimination,2022.2.4,143.85053355565572,
positions.xlsx,stimuli.xlsx,test.xlsx,stimuli/Social1.png,stimuli/Social2.png,stimuli/Nonsocial1.png,stimuli/Nonsocial2.png,stimuli/Test1.png,stimuli/Test2.png,"(-0.7, 0.5)",test2,"(-0.7, -0.5)",test2,0,0,0,0,0,11,11,1,,,,,,94.19354909996036,l,0.7194584999233484,correct,,29,A,2023-12-14_15h59.24.127,gca_discrimination,2022.2.4,143.85053355565572,
positions.xlsx,stimuli.xlsx,test.xlsx,stimuli/Social1.png,stimuli/Social2.png,stimuli/Nonsocial1.png,stimuli/Nonsocial2.png,stimuli/Test1.png,stimuli/Test2.png,"(0.7, -0.5)",test2,"(-0.7, 0.5)",test1,0,0,0,0,0,12,12,4,,,,,,99.60304819990415,ä,0.48605599999427795,correct,,29,A,2023-12-14_15h59.24.127,gca_discrimination,2022.2.4,143.85053355565572,
positions.xlsx,stimuli.xlsx,test.xlsx,stimuli/Social1.png,stimuli/Social2.png,stimuli/Nonsocial1.png,stimuli/Nonsocial2.png,stimuli/Test1.png,stimuli/Test2.png,"(0.7, 0.5)",test2,"(-0.7, 0.5)",test1,0,0,0,0,0,13,13,13,,,,,,104.533459499944,ä,0.6360595999285579,correct,,29,A,2023-12-14_15h59.24.127,gca_discrimination,2022.2.4,143.85053355565572,
positions.xlsx,stimuli.xlsx,test.xlsx,stimuli/Social1.png,stimuli/Social2.png,stimuli/Nonsocial1.png,stimuli/Nonsocial2.png,stimuli/Test1.png,stimuli/Test2.png,"(0.7, -0.5)",cs_minus_ns,"(-0.7, -0.5)",cs_plus_ns,0,0,0,0,,,,,0,0,0,46,,122.49801159999333,ä,1.0878632999956608,correct,107.35274339991156,29,A,2023-12-14_15h59.24.127,gca_discrimination,2022.2.4,143.85053355565572,
positions.xlsx,stimuli.xlsx,test.xlsx,stimuli/Social1.png,stimuli/Social2.png,stimuli/Nonsocial1.png,stimuli/Nonsocial2.png,stimuli/Test1.png,stimuli/Test2.png,"(0.7, -0.5)",cs_plus_ns,"(-0.7, 0.5)",cs_plus_ns,0,0,0,0,,,,,0,1,1,81,,126.38675279996824,l,0.7353216999908909,correct,,29,A,2023-12-14_15h59.24.127,gca_discrimination,2022.2.4,143.85053355565572,
positions.xlsx,stimuli.xlsx,test.xlsx,stimuli/Social1.png,stimuli/Social2.png,stimuli/Nonsocial1.png,stimuli/Nonsocial2.png,stimuli/Test1.png,stimuli/Test2.png,"(0.7, 0.5)",cs_minus_ns,"(-0.7, -0.5)",cs_minus_ns,0,0,0,0,,,,,0,2,2,91,,129.92827709997073,ä,0.841867099981755,wrong,,29,A,2023-12-14_15h59.24.127,gca_discrimination,2022.2.4,143.85053355565572,
positions.xlsx,stimuli.xlsx,test.xlsx,stimuli/Social1.png,stimuli/Social2.png,stimuli/Nonsocial1.png,stimuli/Nonsocial2.png,stimuli/Test1.png,stimuli/Test2.png,"(-0.7, 0.5)",cs_minus_ns,"(0.7, -0.5)",cs_plus_ns,0,0,0,0,,,,,0,3,3,38,,133.27538559993263,ä,1.5505970999365672,correct,,29,A,2023-12-14_15h59.24.127,gca_discrimination,2022.2.4,143.85053355565572,
positions.xlsx,stimuli.xlsx,test.xlsx,stimuli/Social1.png,stimuli/Social2.png,stimuli/Nonsocial1.png,stimuli/Nonsocial2.png,stimuli/Test1.png,stimuli/Test2.png,"(-0.7, -0.5)",cs_plus_ns,"(-0.7, 0.5)",cs_minus_ns,0,0,0,0,,,,,0,4,4,27,,136.70580579992384,ä,0.7201212999643758,correct,,29,A,2023-12-14_15h59.24.127,gca_discrimination,2022.2.4,143.85053355565572,
positions.xlsx,stimuli.xlsx,test.xlsx,stimuli/Social1.png,stimuli/Social2.png,stimuli/Nonsocial1.png,stimuli/Nonsocial2.png,stimuli/Test1.png,stimuli/Test2.png,"(0.7, -0.5)",cs_plus_s,"(0.7, 0.5)",cs_minus_s,0,0,0,0,,,,,0,5,5,11,,139.40706619992852,None,,no answer,,29,A,2023-12-14_15h59.24.127,gca_discrimination,2022.2.4,143.85053355565572,
positions.xlsx,stimuli.xlsx,test.xlsx,stimuli/Social1.png,stimuli/Social2.png,stimuli/Nonsocial1.png,stimuli/Nonsocial2.png,stimuli/Test1.png,stimuli/Test2.png,"(-0.7, 0.5)",cs_plus_s,"(-0.7, -0.5)",cs_minus_s,0,0,0,0,,,,,0,6,6,0,,143.78893019992393,ä,0.9323591999709606,correct,,29,A,2023-12-14_15h59.24.127,gca_discrimination,2022.2.4,143.85053355565572,
positions.xlsx,stimuli.xlsx,test.xlsx,stimuli/Social1.png,stimuli/Social2.png,stimuli/Nonsocial1.png,stimuli/Nonsocial2.png,stimuli/Test1.png,stimuli/Test2.png,"(0.7, 0.5)",cs_plus_s,"(-0.7, -0.5)",cs_minus_s,0,0,0,0,,,,,0,7,7,7,,146.73316379997414,ä,0.5168496000114828,correct,,29,A,2023-12-14_15h59.24.127,gca_discrimination,2022.2.4,143.85053355565572,
positions.xlsx,stimuli.xlsx,test.xlsx,stimuli/Social1.png,stimuli/Social2.png,stimuli/Nonsocial1.png,stimuli/Nonsocial2.png,stimuli/Test1.png,stimuli/Test2.png,"(-0.7, 0.5)",cs_plus_ns,"(0.7, 0.5)",cs_minus_ns,0,0,0,0,,,,,0,8,8,25,,149.5733576999046,ä,0.8292202999582514,correct,,29,A,2023-12-14_15h59.24.127,gca_discrimination,2022.2.4,143.85053355565572,
positions.xlsx,stimuli.xlsx,test.xlsx,stimuli/Social1.png,stimuli/Social2.png,stimuli/Nonsocial1.png,stimuli/Nonsocial2.png,stimuli/Test1.png,stimuli/Test2.png,"(-0.7, 0.5)",cs_plus_s,"(0.7, 0.5)",cs_plus_s,0,0,0,0,,,,,0,9,9,49,,152.76766819995828,l,0.785743199987337,correct,,29,A,2023-12-14_15h59.24.127,gca_discrimination,2022.2.4,143.85053355565572,
positions.xlsx,stimuli.xlsx,test.xlsx,stimuli/Social1.png,stimuli/Social2.png,stimuli/Nonsocial1.png,stimuli/Nonsocial2.png,stimuli/Test1.png,stimuli/Test2.png,"(0.7, 0.5)",cs_plus_s,"(-0.7, 0.5)",cs_plus_s,0,0,0,0,,,,,0,10,10,54,,156.11477479990572,l,0.7344287999439985,correct,,29,A,2023-12-14_15h59.24.127,gca_discrimination,2022.2.4,143.85053355565572,
positions.xlsx,stimuli.xlsx,test.xlsx,stimuli/Social1.png,stimuli/Social2.png,stimuli/Nonsocial1.png,stimuli/Nonsocial2.png,stimuli/Test1.png,stimuli/Test2.png,"(-0.7, -0.5)",cs_plus_ns,"(0.7, 0.5)",cs_minus_ns,0,0,0,0,,,,,0,11,11,28,,159.21884479990695,ä,0.5262674000114202,correct,,29,A,2023-12-14_15h59.24.127,gca_discrimination,2022.2.4,143.85053355565572,
positions.xlsx,stimuli.xlsx,test.xlsx,stimuli/Social1.png,stimuli/Social2.png,stimuli/Nonsocial1.png,stimuli/Nonsocial2.png,stimuli/Test1.png,stimuli/Test2.png,"(0.7, -0.5)",cs_plus_ns,"(-0.7, 0.5)",cs_minus_ns,0,0,0,0,,,,,0,12,12,33,,162.28114300000016,ä,1.2884699000278488,correct,,29,A,2023-12-14_15h59.24.127,gca_discrimination,2022.2.4,143.85053355565572,
positions.xlsx,stimuli.xlsx,test.xlsx,stimuli/Social1.png,stimuli/Social2.png,stimuli/Nonsocial1.png,stimuli/Nonsocial2.png,stimuli/Test1.png,stimuli/Test2.png,"(-0.7, 0.5)",cs_minus_s,"(0.7, -0.5)",cs_plus_s,0,0,0,0,,,,,0,13,13,14,,165.6213518999284,ä,0.7721355000976473,correct,,29,A,2023-12-14_15h59.24.127,gca_discrimination,2022.2.4,143.85053355565572,
positions.xlsx,stimuli.xlsx,test.xlsx,stimuli/Social1.png,stimuli/Social2.png,stimuli/Nonsocial1.png,stimuli/Nonsocial2.png,stimuli/Test1.png,stimuli/Test2.png,"(-0.7, -0.5)",cs_plus_s,"(0.7, 0.5)",cs_minus_s,0,0,0,0,,,,,0,14,14,4,,168.9059707999695,ä,0.6396583000896499,correct,,29,A,2023-12-14_15h59.24.127,gca_discrimination,2022.2.4,143.85053355565572,
positions.xlsx,stimuli.xlsx,test.xlsx,stimuli/Social1.png,stimuli/Social2.png,stimuli/Nonsocial1.png,stimuli/Nonsocial2.png,stimuli/Test1.png,stimuli/Test2.png,"(0.7, 0.5)",cs_minus_s,"(-0.7, -0.5)",cs_minus_s,0,0,0,0,,,,,0,15,15,67,,172.03084309992846,l,0.8904736000113189,correct,,29,A,2023-12-14_15h59.24.127,gca_discrimination,2022.2.4,143.85053355565572,
positions.xlsx,stimuli.xlsx,test.xlsx,stimuli/Social1.png,stimuli/Social2.png,stimuli/Nonsocial1.png,stimuli/Nonsocial2.png,stimuli/Test1.png,stimuli/Test2.png,"(0.7, 0.5)",cs_plus_ns,"(-0.7, 0.5)",cs_plus_ns,0,0,0,0,,,,,0,16,16,78,,175.19737389998045,l,0.5570913000265136,correct,,29,A,2023-12-14_15h59.24.127,gca_discrimination,2022.2.4,143.85053355565572,
positions.xlsx,stimuli.xlsx,test.xlsx,stimuli/Social1.png,stimuli/Social2.png,stimuli/Nonsocial1.png,stimuli/Nonsocial2.png,stimuli/Test1.png,stimuli/Test2.png,"(-0.7, 0.5)",cs_plus_ns,"(0.7, 0.5)",cs_plus_ns,0,0,0,0,,,,,0,17,17,73,,177.68336339993402,l,0.5029157999670133,correct,,29,A,2023-12-14_15h59.24.127,gca_discrimination,2022.2.4,143.85053355565572,
positions.xlsx,stimuli.xlsx,test.xlsx,stimuli/Social1.png,stimuli/Social2.png,stimuli/Nonsocial1.png,stimuli/Nonsocial2.png,stimuli/Test1.png,stimuli/Test2.png,"(0.7, -0.5)",cs_plus_s,"(-0.7, -0.5)",cs_plus_s,0,0,0,0,,,,,0,18,18,58,,180.25968269992154,ä,0.46192839997820556,wrong,,29,A,2023-12-14_15h59.24.127,gca_discrimination,2022.2.4,143.85053355565572,
positions.xlsx,stimuli.xlsx,test.xlsx,stimuli/Social1.png,stimuli/Social2.png,stimuli/Nonsocial1.png,stimuli/Nonsocial2.png,stimuli/Test1.png,stimuli/Test2.png,"(-0.7, 0.5)",cs_plus_s,"(0.7, -0.5)",cs_plus_s,0,0,0,0,,,,,0,19,19,50,,182.86377999989782,l,1.202909699990414,correct,,29,A,2023-12-14_15h59.24.127,gca_discrimination,2022.2.4,143.85053355565572,
positions.xlsx,stimuli.xlsx,test.xlsx,stimuli/Social1.png,stimuli/Social2.png,stimuli/Nonsocial1.png,stimuli/Nonsocial2.png,stimuli/Test1.png,stimuli/Test2.png,"(0.7, -0.5)",cs_minus_s,"(-0.7, 0.5)",cs_plus_s,0,0,0,0,,,,,0,20,20,21,,186.7941412999062,ä,0.6088973999721929,correct,,29,A,2023-12-14_15h59.24.127,gca_discrimination,2022.2.4,143.85053355565572,
positions.xlsx,stimuli.xlsx,test.xlsx,stimuli/Social1.png,stimuli/Social2.png,stimuli/Nonsocial1.png,stimuli/Nonsocial2.png,stimuli/Test1.png,stimuli/Test2.png,"(0.7, 0.5)",cs_minus_s,"(-0.7, 0.5)",cs_minus_s,0,0,0,0,,,,,0,21,21,66,,189.66904649999924,l,0.6529735999647528,correct,,29,A,2023-12-14_15h59.24.127,gca_discrimination,2022.2.4,143.85053355565572,
positions.xlsx,stimuli.xlsx,test.xlsx,stimuli/Social1.png,stimuli/Social2.png,stimuli/Nonsocial1.png,stimuli/Nonsocial2.png,stimuli/Test1.png,stimuli/Test2.png,"(-0.7, -0.5)",cs_minus_s,"(-0.7, 0.5)",cs_minus_s,0,0,0,0,,,,,0,22,22,63,,192.39114049996715,l,0.47414220008067787,correct,,29,A,2023-12-14_15h59.24.127,gca_discrimination,2022.2.4,143.85053355565572,
positions.xlsx,stimuli.xlsx,test.xlsx,stimuli/Social1.png,stimuli/Social2.png,stimuli/Nonsocial1.png,stimuli/Nonsocial2.png,stimuli/Test1.png,stimuli/Test2.png,"(-0.7, -0.5)",cs_minus_ns,"(0.7, 0.5)",cs_minus_ns,0,0,0,0,,,,,0,23,23,88,,195.44660799996927,ä,0.4432758999755606,wrong,,29,A,2023-12-14_15h59.24.127,gca_discrimination,2022.2.4,143.85053355565572,
positions.xlsx,stimuli.xlsx,test.xlsx,stimuli/Social1.png,stimuli/Social2.png,stimuli/Nonsocial1.png,stimuli/Nonsocial2.png,stimuli/Test1.png,stimuli/Test2.png,"(0.7, 0.5)",cs_plus_ns,"(0.7, -0.5)",cs_plus_ns,0,0,0,0,,,,,0,24,24,80,,198.25897729990538,l,0.8872208000393584,correct,,29,A,2023-12-14_15h59.24.127,gca_discrimination,2022.2.4,143.85053355565572,
positions.xlsx,stimuli.xlsx,test.xlsx,stimuli/Social1.png,stimuli/Social2.png,stimuli/Nonsocial1.png,stimuli/Nonsocial2.png,stimuli/Test1.png,stimuli/Test2.png,"(-0.7, -0.5)",cs_minus_s,"(0.7, -0.5)",cs_plus_s,0,0,0,0,,,,,0,25,25,17,,200.98110449989326,ä,0.8843381999759004,correct,,29,A,2023-12-14_15h59.24.127,gca_discrimination,2022.2.4,143.85053355565572,
positions.xlsx,stimuli.xlsx,test.xlsx,stimuli/Social1.png,stimuli/Social2.png,stimuli/Nonsocial1.png,stimuli/Nonsocial2.png,stimuli/Test1.png,stimuli/Test2.png,"(-0.7, -0.5)",cs_minus_s,"(0.7, 0.5)",cs_minus_s,0,0,0,0,,,,,0,26,26,64,,204.3559791999869,l,0.6053657999727875,correct,,29,A,2023-12-14_15h59.24.127,gca_discrimination,2022.2.4,143.85053355565572,
positions.xlsx,stimuli.xlsx,test.xlsx,stimuli/Social1.png,stimuli/Social2.png,stimuli/Nonsocial1.png,stimuli/Nonsocial2.png,stimuli/Test1.png,stimuli/Test2.png,"(0.7, -0.5)",cs_minus_s,"(0.7, 0.5)",cs_minus_s,0,0,0,0,,,,,0,27,27,71,,207.33501889999025,l,0.6266084000235423,correct,,29,A,2023-12-14_15h59.24.127,gca_discrimination,2022.2.4,143.85053355565572,
positions.xlsx,stimuli.xlsx,test.xlsx,stimuli/Social1.png,stimuli/Social2.png,stimuli/Nonsocial1.png,stimuli/Nonsocial2.png,stimuli/Test1.png,stimuli/Test2.png,"(-0.7, -0.5)",cs_minus_ns,"(0.7, -0.5)",cs_minus_ns,0,0,0,0,,,,,0,28,28,89,,210.25852869998198,l,1.9829785000765696,correct,,29,A,2023-12-14_15h59.24.127,gca_discrimination,2022.2.4,143.85053355565572,
positions.xlsx,stimuli.xlsx,test.xlsx,stimuli/Social1.png,stimuli/Social2.png,stimuli/Nonsocial1.png,stimuli/Nonsocial2.png,stimuli/Test1.png,stimuli/Test2.png,"(-0.7, -0.5)",cs_minus_s,"(0.7, 0.5)",cs_plus_s,0,0,0,0,,,,,0,29,29,16,,214.18893969990313,ä,0.5326768000377342,correct,,29,A,2023-12-14_15h59.24.127,gca_discrimination,2022.2.4,143.85053355565572,
positions.xlsx,stimuli.xlsx,test.xlsx,stimuli/Social1.png,stimuli/Social2.png,stimuli/Nonsocial1.png,stimuli/Nonsocial2.png,stimuli/Test1.png,stimuli/Test2.png,"(-0.7, -0.5)",cs_plus_ns,"(0.7, -0.5)",cs_minus_ns,0,0,0,0,,,,,0,30,30,29,,216.73050559998956,ä,0.9192414999706671,correct,,29,A,2023-12-14_15h59.24.127,gca_discrimination,2022.2.4,143.85053355565572,
positions.xlsx,stimuli.xlsx,test.xlsx,stimuli/Social1.png,stimuli/Social2.png,stimuli/Nonsocial1.png,stimuli/Nonsocial2.png,stimuli/Test1.png,stimuli/Test2.png,"(0.7, -0.5)",cs_plus_ns,"(-0.7, -0.5)",cs_plus_ns,0,0,0,0,,,,,0,31,31,82,,220.06367089995183,l,0.9387241000076756,correct,,29,A,2023-12-14_15h59.24.127,gca_discrimination,2022.2.4,143.85053355565572,
positions.xlsx,stimuli.xlsx,test.xlsx,stimuli/Social1.png,stimuli/Social2.png,stimuli/Nonsocial1.png,stimuli/Nonsocial2.png,stimuli/Test1.png,stimuli/Test2.png,"(0.7, -0.5)",cs_plus_s,"(-0.7, 0.5)",cs_minus_s,0,0,0,0,,,,,0,32,32,9,,223.43857099988963,ä,0.7148420000448823,correct,,29,A,2023-12-14_15h59.24.127,gca_discrimination,2022.2.4,143.85053355565572,
positions.xlsx,stimuli.xlsx,test.xlsx,stimuli/Social1.png,stimuli/Social2.png,stimuli/Nonsocial1.png,stimuli/Nonsocial2.png,stimuli/Test1.png,stimuli/Test2.png,"(-0.7, 0.5)",cs_plus_s,"(-0.7, -0.5)",cs_plus_s,0,0,0,0,,,,,0,33,33,48,,226.10512329998892,l,1.2725952999899164,correct,,29,A,2023-12-14_15h59.24.127,gca_discrimination,2022.2.4,143.85053355565572,
positions.xlsx,stimuli.xlsx,test.xlsx,stimuli/Social1.png,stimuli/Social2.png,stimuli/Nonsocial1.png,stimuli/Nonsocial2.png,stimuli/Test1.png,stimuli/Test2.png,"(-0.7, 0.5)",cs_minus_s,"(0.7, -0.5)",cs_minus_s,0,0,0,0,,,,,0,34,34,62,,230.16748869989533,l,0.7387622999958694,correct,,29,A,2023-12-14_15h59.24.127,gca_discrimination,2022.2.4,143.85053355565572,
positions.xlsx,stimuli.xlsx,test.xlsx,stimuli/Social1.png,stimuli/Social2.png,stimuli/Nonsocial1.png,stimuli/Nonsocial2.png,stimuli/Test1.png,stimuli/Test2.png,"(0.7, 0.5)",cs_minus_ns,"(0.7, -0.5)",cs_plus_ns,0,0,0,0,,,,,0,35,35,44,,232.87568809988443,ä,0.757789200055413,correct,,29,A,2023-12-14_15h59.24.127,gca_discrimination,2022.2.4,143.85053355565572,
positions.xlsx,stimuli.xlsx,test.xlsx,stimuli/Social1.png,stimuli/Social2.png,stimuli/Nonsocial1.png,stimuli/Nonsocial2.png,stimuli/Test1.png,stimuli/Test2.png,"(-0.7, 0.5)",cs_plus_s,"(0.7, 0.5)",cs_minus_s,0,0,0,0,,,,,0,36,36,1,,236.36167069990188,ä,0.8234541999408975,correct,,29,A,2023-12-14_15h59.24.127,gca_discrimination,2022.2.4,143.85053355565572,
positions.xlsx,stimuli.xlsx,test.xlsx,stimuli/Social1.png,stimuli/Social2.png,stimuli/Nonsocial1.png,stimuli/Nonsocial2.png,stimuli/Test1.png,stimuli/Test2.png,"(-0.7, -0.5)",cs_minus_ns,"(0.7, -0.5)",cs_plus_ns,0,0,0,0,,,,,0,37,37,41,,239.68100679991767,ä,0.6889641999732703,correct,,29,A,2023-12-14_15h59.24.127,gca_discrimination,2022.2.4,143.85053355565572,
positions.xlsx,stimuli.xlsx,test.xlsx,stimuli/Social1.png,stimuli/Social2.png,stimuli/Nonsocial1.png,stimuli/Nonsocial2.png,stimuli/Test1.png,stimuli/Test2.png,"(-0.7, -0.5)",cs_plus_s,"(0.7, 0.5)",cs_plus_s,0,0,0,0,,,,,0,38,38,52,,242.84753419994377,l,1.242646099999547,correct,,29,A,2023-12-14_15h59.24.127,gca_discrimination,2022.2.4,143.85053355565572,
positions.xlsx,stimuli.xlsx,test.xlsx,stimuli/Social1.png,stimuli/Social2.png,stimuli/Nonsocial1.png,stimuli/Nonsocial2.png,stimuli/Test1.png,stimuli/Test2.png,"(-0.7, 0.5)",cs_minus_s,"(-0.7, -0.5)",cs_minus_s,0,0,0,0,,,,,0,39,39,60,,246.1946327999467,l,0.8151470000157133,correct,,29,A,2023-12-14_15h59.24.127,gca_discrimination,2022.2.4,143.85053355565572,
positions.xlsx,stimuli.xlsx,test.xlsx,stimuli/Social1.png,stimuli/Social2.png,stimuli/Nonsocial1.png,stimuli/Nonsocial2.png,stimuli/Test1.png,stimuli/Test2.png,"(0.7, 0.5)",cs_plus_ns,"(-0.7, 0.5)",cs_minus_ns,0,0,0,0,,,,,0,40,40,30,,249.03478969994467,ä,0.6074098000535741,correct,,29,A,2023-12-14_15h59.24.127,gca_discrimination,2022.2.4,143.85053355565572,
positions.xlsx,stimuli.xlsx,test.xlsx,stimuli/Social1.png,stimuli/Social2.png,stimuli/Nonsocial1.png,stimuli/Nonsocial2.png,stimuli/Test1.png,stimuli/Test2.png,"(-0.7, 0.5)",cs_plus_ns,"(-0.7, -0.5)",cs_minus_ns,0,0,0,0,,,,,0,41,41,24,,252.45826779992785,ä,1.023400399950333,correct,,29,A,2023-12-14_15h59.24.127,gca_discrimination,2022.2.4,143.85053355565572,
positions.xlsx,stimuli.xlsx,test.xlsx,stimuli/Social1.png,stimuli/Social2.png,stimuli/Nonsocial1.png,stimuli/Nonsocial2.png,stimuli/Test1.png,stimuli/Test2.png,"(-0.7, -0.5)",cs_plus_s,"(-0.7, 0.5)",cs_minus_s,0,0,0,0,,,,,0,42,42,3,,255.37482489994727,ä,1.2113784000976011,correct,,29,A,2023-12-14_15h59.24.127,gca_discrimination,2022.2.4,143.85053355565572,
positions.xlsx,stimuli.xlsx,test.xlsx,stimuli/Social1.png,stimuli/Social2.png,stimuli/Nonsocial1.png,stimuli/Nonsocial2.png,stimuli/Test1.png,stimuli/Test2.png,"(0.7, 0.5)",cs_plus_s,"(0.7, -0.5)",cs_minus_s,0,0,0,0,,,,,0,43,43,8,,258.7149890998844,ä,0.767319199978374,correct,,29,A,2023-12-14_15h59.24.127,gca_discrimination,2022.2.4,143.85053355565572,
positions.xlsx,stimuli.xlsx,test.xlsx,stimuli/Social1.png,stimuli/Social2.png,stimuli/Nonsocial1.png,stimuli/Nonsocial2.png,stimuli/Test1.png,stimuli/Test2.png,"(0.7, -0.5)",cs_minus_s,"(-0.7, -0.5)",cs_minus_s,0,0,0,0,,,,,0,44,44,70,,262.0551492999075,l,0.6351796999806538,correct,,29,A,2023-12-14_15h59.24.127,gca_discrimination,2022.2.4,143.85053355565572,
positions.xlsx,stimuli.xlsx,test.xlsx,stimuli/Social1.png,stimuli/Social2.png,stimuli/Nonsocial1.png,stimuli/Nonsocial2.png,stimuli/Test1.png,stimuli/Test2.png,"(0.7, -0.5)",cs_plus_s,"(-0.7, -0.5)",cs_minus_s,0,0,0,0,,,,,0,45,45,10,,265.0549867999507,ä,0.5714683000696823,correct,,29,A,2023-12-14_15h59.24.127,gca_discrimination,2022.2.4,143.85053355565572,
positions.xlsx,stimuli.xlsx,test.xlsx,stimuli/Social1.png,stimuli/Social2.png,stimuli/Nonsocial1.png,stimuli/Nonsocial2.png,stimuli/Test1.png,stimuli/Test2.png,"(0.7, 0.5)",cs_minus_ns,"(-0.7, -0.5)",cs_plus_ns,0,0,0,0,,,,,0,46,46,43,,268.1382055999711,ä,0.6475470999721438,correct,,29,A,2023-12-14_15h59.24.127,gca_discrimination,2022.2.4,143.85053355565572,
positions.xlsx,stimuli.xlsx,test.xlsx,stimuli/Social1.png,stimuli/Social2.png,stimuli/Nonsocial1.png,stimuli/Nonsocial2.png,stimuli/Test1.png,stimuli/Test2.png,"(0.7, 0.5)",cs_minus_s,"(-0.7, -0.5)",cs_plus_s,0,0,0,0,,,,,0,47,47,19,,270.9367317999713,ä,0.536416899994947,correct,,29,A,2023-12-14_15h59.24.127,gca_discrimination,2022.2.4,143.85053355565572,
positions.xlsx,stimuli.xlsx,test.xlsx,stimuli/Social1.png,stimuli/Social2.png,stimuli/Nonsocial1.png,stimuli/Nonsocial2.png,stimuli/Test1.png,stimuli/Test2.png,"(-0.7, 0.5)",cs_plus_ns,"(-0.7, -0.5)",cs_plus_ns,0,0,0,0,,,,,0,48,48,72,,274.0824365998851,l,0.6711642999434844,correct,,29,A,2023-12-14_15h59.24.127,gca_discrimination,2022.2.4,143.85053355565572,
positions.xlsx,stimuli.xlsx,test.xlsx,stimuli/Social1.png,stimuli/Social2.png,stimuli/Nonsocial1.png,stimuli/Nonsocial2.png,stimuli/Test1.png,stimuli/Test2.png,"(-0.7, 0.5)",cs_minus_s,"(-0.7, -0.5)",cs_plus_s,0,0,0,0,,,,,0,49,49,12,,276.6309462999925,ä,0.4428090000292286,correct,,29,A,2023-12-14_15h59.24.127,gca_discrimination,2022.2.4,143.85053355565572,
positions.xlsx,stimuli.xlsx,test.xlsx,stimuli/Social1.png,stimuli/Social2.png,stimuli/Nonsocial1.png,stimuli/Nonsocial2.png,stimuli/Test1.png,stimuli/Test2.png,"(-0.7, -0.5)",cs_plus_s,"(0.7, -0.5)",cs_minus_s,0,0,0,0,,,,,0,50,50,5,,279.1030571999727,ä,0.5710317000048235,correct,,29,A,2023-12-14_15h59.24.127,gca_discrimination,2022.2.4,143.85053355565572,
positions.xlsx,stimuli.xlsx,test.xlsx,stimuli/Social1.png,stimuli/Social2.png,stimuli/Nonsocial1.png,stimuli/Nonsocial2.png,stimuli/Test1.png,stimuli/Test2.png,"(0.7, 0.5)",cs_plus_s,"(0.7, -0.5)",cs_plus_s,0,0,0,0,,,,,0,51,51,56,,282.40853209991474,l,0.8654461000114679,correct,,29,A,2023-12-14_15h59.24.127,gca_discrimination,2022.2.4,143.85053355565572,
positions.xlsx,stimuli.xlsx,test.xlsx,stimuli/Social1.png,stimuli/Social2.png,stimuli/Nonsocial1.png,stimuli/Nonsocial2.png,stimuli/Test1.png,stimuli/Test2.png,"(-0.7, 0.5)",cs_minus_ns,"(0.7, 0.5)",cs_plus_ns,0,0,0,0,,,,,0,52,52,37,,285.42922189994715,ä,0.4535163000691682,correct,,29,A,2023-12-14_15h59.24.127,gca_discrimination,2022.2.4,143.85053355565572,
positions.xlsx,stimuli.xlsx,test.xlsx,stimuli/Social1.png,stimuli/Social2.png,stimuli/Nonsocial1.png,stimuli/Nonsocial2.png,stimuli/Test1.png,stimuli/Test2.png,"(0.7, -0.5)",cs_minus_ns,"(0.7, 0.5)",cs_plus_ns,0,0,0,0,,,,,0,53,53,47,,287.859641399933,ä,1.1736454999772832,correct,,29,A,2023-12-14_15h59.24.127,gca_discrimination,2022.2.4,143.85053355565572,
positions.xlsx,stimuli.xlsx,test.xlsx,stimuli/Social1.png,stimuli/Social2.png,stimuli/Nonsocial1.png,stimuli/Nonsocial2.png,stimuli/Test1.png,stimuli/Test2.png,"(-0.7, -0.5)",cs_minus_ns,"(-0.7, 0.5)",cs_minus_ns,0,0,0,0,,,,,0,54,54,87,,291.5470488999272,l,0.7421855999855325,correct,,29,A,2023-12-14_15h59.24.127,gca_discrimination,2022.2.4,143.85053355565572,
positions.xlsx,stimuli.xlsx,test.xlsx,stimuli/Social1.png,stimuli/Social2.png,stimuli/Nonsocial1.png,stimuli/Nonsocial2.png,stimuli/Test1.png,stimuli/Test2.png,"(0.7, 0.5)",cs_minus_s,"(0.7, -0.5)",cs_plus_s,0,0,0,0,,,,,0,55,55,20,,294.62332869996317,ä,0.5541774000739679,correct,,29,A,2023-12-14_15h59.24.127,gca_discrimination,2022.2.4,143.85053355565572,
positions.xlsx,stimuli.xlsx,test.xlsx,stimuli/Social1.png,stimuli/Social2.png,stimuli/Nonsocial1.png,stimuli/Nonsocial2.png,stimuli/Test1.png,stimuli/Test2.png,"(0.7, -0.5)",cs_plus_ns,"(0.7, 0.5)",cs_plus_ns,0,0,0,0,,,,,0,56,56,83,,297.56762549991254,l,0.9707399000180885,correct,,29,A,2023-12-14_15h59.24.127,gca_discrimination,2022.2.4,143.85053355565572,
positions.xlsx,stimuli.xlsx,test.xlsx,stimuli/Social1.png,stimuli/Social2.png,stimuli/Nonsocial1.png,stimuli/Nonsocial2.png,stimuli/Test1.png,stimuli/Test2.png,"(-0.7, -0.5)",cs_plus_ns,"(0.7, 0.5)",cs_plus_ns,0,0,0,0,,,,,0,57,57,76,,300.63697759993374,l,0.716627899906598,correct,,29,A,2023-12-14_15h59.24.127,gca_discrimination,2022.2.4,143.85053355565572,
positions.xlsx,stimuli.xlsx,test.xlsx,stimuli/Social1.png,stimuli/Social2.png,stimuli/Nonsocial1.png,stimuli/Nonsocial2.png,stimuli/Test1.png,stimuli/Test2.png,"(-0.7, 0.5)",cs_minus_ns,"(0.7, -0.5)",cs_minus_ns,0,0,0,0,,,,,0,58,58,86,,303.81045429990627,l,0.8073151999851689,correct,,29,A,2023-12-14_15h59.24.127,gca_discrimination,2022.2.4,143.85053355565572,
positions.xlsx,stimuli.xlsx,test.xlsx,stimuli/Social1.png,stimuli/Social2.png,stimuli/Nonsocial1.png,stimuli/Nonsocial2.png,stimuli/Test1.png,stimuli/Test2.png,"(-0.7, 0.5)",cs_minus_s,"(0.7, 0.5)",cs_plus_s,0,0,0,0,,,,,0,59,59,13,,307.0117587998975,ä,0.9979844000190496,correct,,29,A,2023-12-14_15h59.24.127,gca_discrimination,2022.2.4,143.85053355565572,
positions.xlsx,stimuli.xlsx,test.xlsx,stimuli/Social1.png,stimuli/Social2.png,stimuli/Nonsocial1.png,stimuli/Nonsocial2.png,stimuli/Test1.png,stimuli/Test2.png,"(-0.7, 0.5)",cs_plus_s,"(0.7, -0.5)",cs_minus_s,0,0,0,0,,,,,0,60,60,2,,310.0532810000004,ä,0.7721508999820799,correct,,29,A,2023-12-14_15h59.24.127,gca_discrimination,2022.2.4,143.85053355565572,
positions.xlsx,stimuli.xlsx,test.xlsx,stimuli/Social1.png,stimuli/Social2.png,stimuli/Nonsocial1.png,stimuli/Nonsocial2.png,stimuli/Test1.png,stimuli/Test2.png,"(-0.7, -0.5)",cs_minus_ns,"(-0.7, 0.5)",cs_plus_ns,0,0,0,0,,,,,0,61,61,39,,313.09481789998244,ä,0.5947814000537619,correct,,29,A,2023-12-14_15h59.24.127,gca_discrimination,2022.2.4,143.85053355565572,
positions.xlsx,stimuli.xlsx,test.xlsx,stimuli/Social1.png,stimuli/Social2.png,stimuli/Nonsocial1.png,stimuli/Nonsocial2.png,stimuli/Test1.png,stimuli/Test2.png,"(-0.7, 0.5)",cs_minus_s,"(0.7, 0.5)",cs_minus_s,0,0,0,0,,,,,0,62,62,61,,315.5669875999447,l,0.3868992000352591,correct,,29,A,2023-12-14_15h59.24.127,gca_discrimination,2022.2.4,143.85053355565572,
positions.xlsx,stimuli.xlsx,test.xlsx,stimuli/Social1.png,stimuli/Social2.png,stimuli/Nonsocial1.png,stimuli/Nonsocial2.png,stimuli/Test1.png,stimuli/Test2.png,"(0.7, 0.5)",cs_plus_ns,"(0.7, -0.5)",cs_minus_ns,0,0,0,0,,,,,0,63,63,32,,317.8377420998877,ä,0.7475708000129089,correct,,29,A,2023-12-14_15h59.24.127,gca_discrimination,2022.2.4,143.85053355565572,
positions.xlsx,stimuli.xlsx,test.xlsx,stimuli/Social1.png,stimuli/Social2.png,stimuli/Nonsocial1.png,stimuli/Nonsocial2.png,stimuli/Test1.png,stimuli/Test2.png,"(0.7, -0.5)",cs_minus_ns,"(-0.7, 0.5)",cs_minus_ns,0,0,0,0,,,,,0,64,64,93,,321.1639413998928,l,0.6470544999465346,correct,,29,A,2023-12-14_15h59.24.127,gca_discrimination,2022.2.4,143.85053355565572,
positions.xlsx,stimuli.xlsx,test.xlsx,stimuli/Social1.png,stimuli/Social2.png,stimuli/Nonsocial1.png,stimuli/Nonsocial2.png,stimuli/Test1.png,stimuli/Test2.png,"(-0.7, -0.5)",cs_plus_ns,"(0.7, -0.5)",cs_plus_ns,0,0,0,0,,,,,0,65,65,77,,324.5874201999977,l,0.5266948000062257,correct,,29,A,2023-12-14_15h59.24.127,gca_discrimination,2022.2.4,143.85053355565572,
positions.xlsx,stimuli.xlsx,test.xlsx,stimuli/Social1.png,stimuli/Social2.png,stimuli/Nonsocial1.png,stimuli/Nonsocial2.png,stimuli/Test1.png,stimuli/Test2.png,"(0.7, 0.5)",cs_plus_ns,"(-0.7, -0.5)",cs_minus_ns,0,0,0,0,,,,,0,66,66,31,,327.3095786999911,ä,0.4116336000151932,correct,,29,A,2023-12-14_15h59.24.127,gca_discrimination,2022.2.4,143.85053355565572,
positions.xlsx,stimuli.xlsx,test.xlsx,stimuli/Social1.png,stimuli/Social2.png,stimuli/Nonsocial1.png,stimuli/Nonsocial2.png,stimuli/Test1.png,stimuli/Test2.png,"(-0.7, 0.5)",cs_minus_ns,"(0.7, 0.5)",cs_minus_ns,0,0,0,0,,,,,0,67,67,85,,329.95527619996574,l,0.5819566000718623,correct,,29,A,2023-12-14_15h59.24.127,gca_discrimination,2022.2.4,143.85053355565572,
positions.xlsx,stimuli.xlsx,test.xlsx,stimuli/Social1.png,stimuli/Social2.png,stimuli/Nonsocial1.png,stimuli/Nonsocial2.png,stimuli/Test1.png,stimuli/Test2.png,"(0.7, -0.5)",cs_minus_ns,"(-0.7, 0.5)",cs_plus_ns,0,0,0,0,,,,,0,68,68,45,,332.99685239989776,ä,0.47715699998661876,correct,,29,A,2023-12-14_15h59.24.127,gca_discrimination,2022.2.4,143.85053355565572,
positions.xlsx,stimuli.xlsx,test.xlsx,stimuli/Social1.png,stimuli/Social2.png,stimuli/Nonsocial1.png,stimuli/Nonsocial2.png,stimuli/Test1.png,stimuli/Test2.png,"(0.7, -0.5)",cs_minus_s,"(-0.7, -0.5)",cs_plus_s,0,0,0,0,,,,,0,69,69,22,,335.2953357999213,ä,0.5302370000863448,correct,,29,A,2023-12-14_15h59.24.127,gca_discrimination,2022.2.4,143.85053355565572,
positions.xlsx,stimuli.xlsx,test.xlsx,stimuli/Social1.png,stimuli/Social2.png,stimuli/Nonsocial1.png,stimuli/Nonsocial2.png,stimuli/Test1.png,stimuli/Test2.png,"(-0.7, -0.5)",cs_plus_ns,"(-0.7, 0.5)",cs_plus_ns,0,0,0,0,,,,,0,70,70,75,,338.4827244998887,l,0.5512551999418065,correct,,29,A,2023-12-14_15h59.24.127,gca_discrimination,2022.2.4,143.85053355565572,
positions.xlsx,stimuli.xlsx,test.xlsx,stimuli/Social1.png,stimuli/Social2.png,stimuli/Nonsocial1.png,stimuli/Nonsocial2.png,stimuli/Test1.png,stimuli/Test2.png,"(0.7, 0.5)",cs_plus_s,"(-0.7, 0.5)",cs_minus_s,0,0,0,0,,,,,0,71,71,6,,340.9826513999142,ä,0.5552500999765471,correct,,29,A,2023-12-14_15h59.24.127,gca_discrimination,2022.2.4,143.85053355565572,
positions.xlsx,stimuli.xlsx,test.xlsx,stimuli/Social1.png,stimuli/Social2.png,stimuli/Nonsocial1.png,stimuli/Nonsocial2.png,stimuli/Test1.png,stimuli/Test2.png,"(0.7, 0.5)",cs_minus_s,"(-0.7, 0.5)",cs_plus_s,0,0,0,0,,,,,0,72,72,18,,344.0172298999969,ä,0.5201085000298917,correct,,29,A,2023-12-14_15h59.24.127,gca_discrimination,2022.2.4,143.85053355565572,
positions.xlsx,stimuli.xlsx,test.xlsx,stimuli/Social1.png,stimuli/Social2.png,stimuli/Nonsocial1.png,stimuli/Nonsocial2.png,stimuli/Test1.png,stimuli/Test2.png,"(0.7, 0.5)",cs_plus_ns,"(-0.7, -0.5)",cs_plus_ns,0,0,0,0,,,,,0,73,73,79,,347.2810149999568,l,0.6166803000960499,correct,,29,A,2023-12-14_15h59.24.127,gca_discrimination,2022.2.4,143.85053355565572,
positions.xlsx,stimuli.xlsx,test.xlsx,stimuli/Social1.png,stimuli/Social2.png,stimuli/Nonsocial1.png,stimuli/Nonsocial2.png,stimuli/Test1.png,stimuli/Test2.png,"(0.7, -0.5)",cs_minus_ns,"(0.7, 0.5)",cs_minus_ns,0,0,0,0,,,,,0,74,74,95,,350.2808801999781,l,0.5609651000704616,correct,,29,A,2023-12-14_15h59.24.127,gca_discrimination,2022.2.4,143.85053355565572,
positions.xlsx,stimuli.xlsx,test.xlsx,stimuli/Social1.png,stimuli/Social2.png,stimuli/Nonsocial1.png,stimuli/Nonsocial2.png,stimuli/Test1.png,stimuli/Test2.png,"(-0.7, 0.5)",cs_minus_ns,"(-0.7, -0.5)",cs_minus_ns,0,0,0,0,,,,,0,75,75,84,,353.2877281999681,l,0.47444160003215075,correct,,29,A,2023-12-14_15h59.24.127,gca_discrimination,2022.2.4,143.85053355565572,
positions.xlsx,stimuli.xlsx,test.xlsx,stimuli/Social1.png,stimuli/Social2.png,stimuli/Nonsocial1.png,stimuli/Nonsocial2.png,stimuli/Test1.png,stimuli/Test2.png,"(0.7, 0.5)",cs_minus_ns,"(0.7, -0.5)",cs_minus_ns,0,0,0,0,,,,,0,76,76,92,,356.50982139992993,l,0.3956559000071138,correct,,29,A,2023-12-14_15h59.24.127,gca_discrimination,2022.2.4,143.85053355565572,
positions.xlsx,stimuli.xlsx,test.xlsx,stimuli/Social1.png,stimuli/Social2.png,stimuli/Nonsocial1.png,stimuli/Nonsocial2.png,stimuli/Test1.png,stimuli/Test2.png,"(0.7, -0.5)",cs_plus_ns,"(0.7, 0.5)",cs_minus_ns,0,0,0,0,,,,,0,77,77,35,,359.0166587999556,ä,0.8567683000583202,correct,,29,A,2023-12-14_15h59.24.127,gca_discrimination,2022.2.4,143.85053355565572,
positions.xlsx,stimuli.xlsx,test.xlsx,stimuli/Social1.png,stimuli/Social2.png,stimuli/Nonsocial1.png,stimuli/Nonsocial2.png,stimuli/Test1.png,stimuli/Test2.png,"(0.7, 0.5)",cs_minus_ns,"(-0.7, 0.5)",cs_plus_ns,0,0,0,0,,,,,0,78,78,42,,362.56513759994414,ä,0.9327542000683025,correct,,29,A,2023-12-14_15h59.24.127,gca_discrimination,2022.2.4,143.85053355565572,
positions.xlsx,stimuli.xlsx,test.xlsx,stimuli/Social1.png,stimuli/Social2.png,stimuli/Nonsocial1.png,stimuli/Nonsocial2.png,stimuli/Test1.png,stimuli/Test2.png,"(0.7, -0.5)",cs_plus_s,"(0.7, 0.5)",cs_plus_s,0,0,0,0,,,,,0,79,79,59,,365.98864199989475,l,0.8698801000136882,correct,,29,A,2023-12-14_15h59.24.127,gca_discrimination,2022.2.4,143.85053355565572,
positions.xlsx,stimuli.xlsx,test.xlsx,stimuli/Social1.png,stimuli/Social2.png,stimuli/Nonsocial1.png,stimuli/Nonsocial2.png,stimuli/Test1.png,stimuli/Test2.png,"(0.7, 0.5)",cs_minus_ns,"(-0.7, 0.5)",cs_minus_ns,0,0,0,0,,,,,0,80,80,90,,369.4746090999106,l,0.8311796999769285,correct,,29,A,2023-12-14_15h59.24.127,gca_discrimination,2022.2.4,143.85053355565572,
positions.xlsx,stimuli.xlsx,test.xlsx,stimuli/Social1.png,stimuli/Social2.png,stimuli/Nonsocial1.png,stimuli/Nonsocial2.png,stimuli/Test1.png,stimuli/Test2.png,"(0.7, -0.5)",cs_minus_s,"(0.7, 0.5)",cs_plus_s,0,0,0,0,,,,,0,81,81,23,,372.21062819997314,ä,0.48684919998049736,correct,,29,A,2023-12-14_15h59.24.127,gca_discrimination,2022.2.4,143.85053355565572,
positions.xlsx,stimuli.xlsx,test.xlsx,stimuli/Social1.png,stimuli/Social2.png,stimuli/Nonsocial1.png,stimuli/Nonsocial2.png,stimuli/Test1.png,stimuli/Test2.png,"(-0.7, -0.5)",cs_minus_s,"(-0.7, 0.5)",cs_plus_s,0,0,0,0,,,,,0,82,82,15,,374.5924513998907,ä,1.0737071000039577,correct,,29,A,2023-12-14_15h59.24.127,gca_discrimination,2022.2.4,143.85053355565572,
positions.xlsx,stimuli.xlsx,test.xlsx,stimuli/Social1.png,stimuli/Social2.png,stimuli/Nonsocial1.png,stimuli/Nonsocial2.png,stimuli/Test1.png,stimuli/Test2.png,"(0.7, -0.5)",cs_plus_ns,"(-0.7, -0.5)",cs_minus_ns,0,0,0,0,,,,,0,83,83,34,,378.41870049992576,ä,0.3924534999532625,correct,,29,A,2023-12-14_15h59.24.127,gca_discrimination,2022.2.4,143.85053355565572,
positions.xlsx,stimuli.xlsx,test.xlsx,stimuli/Social1.png,stimuli/Social2.png,stimuli/Nonsocial1.png,stimuli/Nonsocial2.png,stimuli/Test1.png,stimuli/Test2.png,"(-0.7, -0.5)",cs_plus_s,"(-0.7, 0.5)",cs_plus_s,0,0,0,0,,,,,0,84,84,51,,381.50193199992646,l,1.2117391999345273,correct,,29,A,2023-12-14_15h59.24.127,gca_discrimination,2022.2.4,143.85053355565572,
positions.xlsx,stimuli.xlsx,test.xlsx,stimuli/Social1.png,stimuli/Social2.png,stimuli/Nonsocial1.png,stimuli/Nonsocial2.png,stimuli/Test1.png,stimuli/Test2.png,"(0.7, 0.5)",cs_plus_s,"(-0.7, -0.5)",cs_plus_s,0,0,0,0,,,,,0,85,85,55,,385.0920448999386,l,1.2618932001059875,correct,,29,A,2023-12-14_15h59.24.127,gca_discrimination,2022.2.4,143.85053355565572,
positions.xlsx,stimuli.xlsx,test.xlsx,stimuli/Social1.png,stimuli/Social2.png,stimuli/Nonsocial1.png,stimuli/Nonsocial2.png,stimuli/Test1.png,stimuli/Test2.png,"(-0.7, 0.5)",cs_plus_ns,"(0.7, -0.5)",cs_minus_ns,0,0,0,0,,,,,0,86,86,26,,388.26554129994474,ä,0.39335240004584193,correct,,29,A,2023-12-14_15h59.24.127,gca_discrimination,2022.2.4,143.85053355565572,
positions.xlsx,stimuli.xlsx,test.xlsx,stimuli/Social1.png,stimuli/Social2.png,stimuli/Nonsocial1.png,stimuli/Nonsocial2.png,stimuli/Test1.png,stimuli/Test2.png,"(-0.7, -0.5)",cs_minus_ns,"(0.7, 0.5)",cs_plus_ns,0,0,0,0,,,,,0,87,87,40,,391.16823639988434,l,0.4571310000028461,wrong,,29,A,2023-12-14_15h59.24.127,gca_discrimination,2022.2.4,143.85053355565572,
positions.xlsx,stimuli.xlsx,test.xlsx,stimuli/Social1.png,stimuli/Social2.png,stimuli/Nonsocial1.png,stimuli/Nonsocial2.png,stimuli/Test1.png,stimuli/Test2.png,"(0.7, -0.5)",cs_minus_ns,"(-0.7, -0.5)",cs_minus_ns,0,0,0,0,,,,,0,88,88,94,,393.8347822999349,l,1.0873774999054149,correct,,29,A,2023-12-14_15h59.24.127,gca_discrimination,2022.2.4,143.85053355565572,
positions.xlsx,stimuli.xlsx,test.xlsx,stimuli/Social1.png,stimuli/Social2.png,stimuli/Nonsocial1.png,stimuli/Nonsocial2.png,stimuli/Test1.png,stimuli/Test2.png,"(-0.7, 0.5)",cs_plus_ns,"(0.7, -0.5)",cs_plus_ns,0,0,0,0,,,,,0,89,89,74,,396.9735374999,l,0.5317817999748513,correct,,29,A,2023-12-14_15h59.24.127,gca_discrimination,2022.2.4,143.85053355565572,
positions.xlsx,stimuli.xlsx,test.xlsx,stimuli/Social1.png,stimuli/Social2.png,stimuli/Nonsocial1.png,stimuli/Nonsocial2.png,stimuli/Test1.png,stimuli/Test2.png,"(-0.7, -0.5)",cs_minus_s,"(0.7, -0.5)",cs_minus_s,0,0,0,0,,,,,0,90,90,65,,400.2650919998996,l,0.5369717000285164,correct,,29,A,2023-12-14_15h59.24.127,gca_discrimination,2022.2.4,143.85053355565572,
positions.xlsx,stimuli.xlsx,test.xlsx,stimuli/Social1.png,stimuli/Social2.png,stimuli/Nonsocial1.png,stimuli/Nonsocial2.png,stimuli/Test1.png,stimuli/Test2.png,"(-0.7, -0.5)",cs_plus_s,"(0.7, -0.5)",cs_plus_s,0,0,0,0,,,,,0,91,91,53,,403.08442119997926,l,0.8140971000539139,correct,,29,A,2023-12-14_15h59.24.127,gca_discrimination,2022.2.4,143.85053355565572,
positions.xlsx,stimuli.xlsx,test.xlsx,stimuli/Social1.png,stimuli/Social2.png,stimuli/Nonsocial1.png,stimuli/Nonsocial2.png,stimuli/Test1.png,stimuli/Test2.png,"(0.7, -0.5)",cs_minus_s,"(-0.7, 0.5)",cs_minus_s,0,0,0,0,,,,,0,92,92,69,,406.21618919994216,l,0.5457786000333726,correct,,29,A,2023-12-14_15h59.24.127,gca_discrimination,2022.2.4,143.85053355565572,
positions.xlsx,stimuli.xlsx,test.xlsx,stimuli/Social1.png,stimuli/Social2.png,stimuli/Nonsocial1.png,stimuli/Nonsocial2.png,stimuli/Test1.png,stimuli/Test2.png,"(0.7, -0.5)",cs_plus_s,"(-0.7, 0.5)",cs_plus_s,0,0,0,0,,,,,0,93,93,57,,408.62588579999283,l,0.503732500015758,correct,,29,A,2023-12-14_15h59.24.127,gca_discrimination,2022.2.4,143.85053355565572,
positions.xlsx,stimuli.xlsx,test.xlsx,stimuli/Social1.png,stimuli/Social2.png,stimuli/Nonsocial1.png,stimuli/Nonsocial2.png,stimuli/Test1.png,stimuli/Test2.png,"(-0.7, 0.5)",cs_minus_ns,"(-0.7, -0.5)",cs_plus_ns,0,0,0,0,,,,,0,94,94,36,,411.5910232999595,ä,0.41883060010150075,correct,,29,A,2023-12-14_15h59.24.127,gca_discrimination,2022.2.4,143.85053355565572,
positions.xlsx,stimuli.xlsx,test.xlsx,stimuli/Social1.png,stimuli/Social2.png,stimuli/Nonsocial1.png,stimuli/Nonsocial2.png,stimuli/Test1.png,stimuli/Test2.png,"(0.7, 0.5)",cs_minus_s,"(0.7, -0.5)",cs_minus_s,0,0,0,0,,,,,0,95,95,68,,414.6603686999297,l,0.6705554999643937,correct,,29,A,2023-12-14_15h59.24.127,gca_discrimination,2022.2.4,143.85053355565572,
