posFile,stimFile,testFile,cs_plus_s,cs_minus_s,cs_plus_ns,cs_minus_ns,test1,test2,position1,trialtype,position2,comptype,blocks.thisRepN,blocks.thisTrialN,blocks.thisN,blocks.thisIndex,learning_trials.thisRepN,learning_trials.thisTrialN,learning_trials.thisN,learning_trials.thisIndex,trials.thisRepN,trials.thisTrialN,trials.thisN,trials.thisIndex,textStart.started,spaceStart.started,spaceStart.keys,spaceStart.rt,textStartExp.started,textExpImages.started,ImageLearning1.started,ImageLearning2.started,textSpace.started,spaceStartExp.started,spaceStartExp.keys,spaceStartExp.rt,blankScreen.started,blankScreen.stopped,fixcross.started,firstImage.started,fixcrossImage1.started,fixcrossITI.started,secondImage.started,fixcrossImage2.started,key.started,key.keys,correctness,feedbackText.started,fixcrossEnd.started,fixcrossEnd.stopped,fixcross.stopped,key.rt,feedbackText.stopped,textStartTask.started,textTaskImages.started,ImageTask1.started,ImageTask2.started,ImageTask3.started,ImageTask4.started,textTaskSpace.started,spaceStartTask.started,spaceStartTask.keys,spaceStartTask.rt,participant,group,date,expName,psychopyVersion,frameRate,
,,,,,,,,,,,,,,,,,,,,,,,,,8.292494200053625,8.292494200053625,space,5.563501799944788,,,,,,,,,,,,,,,,,,,,,,,,,,,,,,,,,,,,19,A,2023-12-11_16h57.56.882,gca_discrimination,2022.2.4,143.7880679109286,
positions.xlsx,stimuli.xlsx,test.xlsx,stimuli/Social1.png,stimuli/Social2.png,stimuli/Nonsocial1.png,stimuli/Nonsocial2.png,stimuli/Test1.png,stimuli/Test2.png,"(-0.7, 0.5)",test2,"(0.7, -0.5)",test1,0,0,0,0,0,0,0,12,,,,,,,,,13.875577900034841,13.875577900034841,13.875577900034841,13.875577900034841,13.875577900034841,13.875577900034841,space,37.22780899994541,51.11023820005357,52.79766970005585,52.79766970005585,53.81154050002806,53.81154050002806,53.94345840002643,54.45736930001294,54.45736930001294,54.5962700000382,None,no answer,56.60307740001008,58.596068800019566,59.23491280002054,,,,,,,,,,,,,,19,A,2023-12-11_16h57.56.882,gca_discrimination,2022.2.4,143.7880679109286,
positions.xlsx,stimuli.xlsx,test.xlsx,stimuli/Social1.png,stimuli/Social2.png,stimuli/Nonsocial1.png,stimuli/Nonsocial2.png,stimuli/Test1.png,stimuli/Test2.png,"(-0.7, 0.5)",test2,"(-0.7, -0.5)",test2,0,0,0,0,0,1,1,1,,,,,,,,,,,,,,,,,,,59.23491280002054,60.23486680001952,60.23486680001952,60.387653000012506,60.88763430004474,60.88763430004474,61.04038850002689,l,correct,61.38067600002978,63.380603900004644,63.450037400005385,60.23486680001952,0.32660399994347245,,,,,,,,,,,,19,A,2023-12-11_16h57.56.882,gca_discrimination,2022.2.4,143.7880679109286,
positions.xlsx,stimuli.xlsx,test.xlsx,stimuli/Social1.png,stimuli/Social2.png,stimuli/Nonsocial1.png,stimuli/Nonsocial2.png,stimuli/Test1.png,stimuli/Test2.png,"(-0.7, -0.5)",test1,"(0.7, 0.5)",test2,0,0,0,0,0,2,2,8,,,,,,,,,,,,,,,,,,,63.450037400005385,64.45000820001587,64.45000820001587,64.60275900003035,65.10277520003729,65.10277520003729,65.25550740002654,ä,correct,65.49161050003022,67.491565000033,68.4915055000456,64.45000820001587,0.22373899992089719,67.491565000033,,,,,,,,,,,19,A,2023-12-11_16h57.56.882,gca_discrimination,2022.2.4,143.7880679109286,
positions.xlsx,stimuli.xlsx,test.xlsx,stimuli/Social1.png,stimuli/Social2.png,stimuli/Nonsocial1.png,stimuli/Nonsocial2.png,stimuli/Test1.png,stimuli/Test2.png,"(-0.7, -0.5)",test2,"(-0.7, 0.5)",test2,0,0,0,0,0,3,3,2,,,,,,,,,,,,,,,,,,,68.4915055000456,69.49146060005296,69.49146060005296,69.64425170002505,70.15115840005456,70.15115840005456,70.2969895999995,l,correct,70.7900237000431,72.78996150003513,73.5121353000286,69.49146060005296,0.4795426999335177,72.78996150003513,,,,,,,,,,,19,A,2023-12-11_16h57.56.882,gca_discrimination,2022.2.4,143.7880679109286,
positions.xlsx,stimuli.xlsx,test.xlsx,stimuli/Social1.png,stimuli/Social2.png,stimuli/Nonsocial1.png,stimuli/Nonsocial2.png,stimuli/Test1.png,stimuli/Test2.png,"(-0.7, 0.5)",test1,"(0.7, -0.5)",test1,0,0,0,0,0,4,4,5,,,,,,,,,,,,,,,,,,,73.5121353000286,74.51211220002733,74.51211220002733,74.66488680004841,75.16486130002886,75.16486130002886,75.31763290002709,l,correct,75.72037930000806,77.72030050004832,78.53277770004934,74.51211220002733,0.3940275999484584,77.72030050004832,,,,,,,,,,,19,A,2023-12-11_16h57.56.882,gca_discrimination,2022.2.4,143.7880679109286,
positions.xlsx,stimuli.xlsx,test.xlsx,stimuli/Social1.png,stimuli/Social2.png,stimuli/Nonsocial1.png,stimuli/Nonsocial2.png,stimuli/Test1.png,stimuli/Test2.png,"(-0.7, -0.5)",test2,"(0.7, 0.5)",test2,0,0,0,0,0,5,5,7,,,,,,,,,,,,,,,,,,,78.53277770004934,79.53970180003671,79.53970180003671,79.68548010004451,80.19243500003358,80.19243500003358,80.33827470004326,l,correct,80.7132319000084,82.71317480003927,83.70617970003514,79.53970180003671,0.3651616999413818,82.71317480003927,,,,,,,,,,,19,A,2023-12-11_16h57.56.882,gca_discrimination,2022.2.4,143.7880679109286,
positions.xlsx,stimuli.xlsx,test.xlsx,stimuli/Social1.png,stimuli/Social2.png,stimuli/Nonsocial1.png,stimuli/Nonsocial2.png,stimuli/Test1.png,stimuli/Test2.png,"(0.7, 0.5)",test2,"(0.7, -0.5)",test1,0,0,0,0,0,6,6,6,,,,,,,,,,,,,,,,,,,83.70617970003514,84.7130412000115,84.7130412000115,84.8588904000353,85.3589207000332,85.3589207000332,85.51166460005334,l,wrong,85.92134990001796,87.92129640001804,88.67126510001253,84.7130412000115,0.40017529990291223,87.92129640001804,,,,,,,,,,,19,A,2023-12-11_16h57.56.882,gca_discrimination,2022.2.4,143.7880679109286,
positions.xlsx,stimuli.xlsx,test.xlsx,stimuli/Social1.png,stimuli/Social2.png,stimuli/Nonsocial1.png,stimuli/Nonsocial2.png,stimuli/Test1.png,stimuli/Test2.png,"(-0.7, -0.5)",test2,"(0.7, -0.5)",test2,0,0,0,0,0,7,7,9,,,,,,,,,,,,,,,,,,,88.67126510001253,89.67125280003529,89.67125280003529,89.82401290000416,90.3239771000226,90.3239771000226,90.47675850003725,ä,wrong,91.06006300001172,93.05998370004818,93.42110010003671,89.67125280003529,0.5700595999369398,93.05998370004818,,,,,,,,,,,19,A,2023-12-11_16h57.56.882,gca_discrimination,2022.2.4,143.7880679109286,
positions.xlsx,stimuli.xlsx,test.xlsx,stimuli/Social1.png,stimuli/Social2.png,stimuli/Nonsocial1.png,stimuli/Nonsocial2.png,stimuli/Test1.png,stimuli/Test2.png,"(-0.7, 0.5)",test2,"(0.7, 0.5)",test1,0,0,0,0,0,8,8,3,,,,,,,,,,,,,,,,,,,93.42110010003671,94.42106330004754,94.42106330004754,94.57383340003435,95.07380780001404,95.07380780001404,95.22659860004205,ä,correct,95.58767840004293,97.58757540001534,97.68481890001567,94.42106330004754,0.34895619994495064,97.58757540001534,,,,,,,,,,,19,A,2023-12-11_16h57.56.882,gca_discrimination,2022.2.4,143.7880679109286,
positions.xlsx,stimuli.xlsx,test.xlsx,stimuli/Social1.png,stimuli/Social2.png,stimuli/Nonsocial1.png,stimuli/Nonsocial2.png,stimuli/Test1.png,stimuli/Test2.png,"(0.7, 0.5)",test2,"(-0.7, 0.5)",test1,0,0,0,0,0,9,9,13,,,,,,,,,,,,,,,,,,,97.68481890001567,98.68475200003013,98.68475200003013,98.83754910004791,99.33752160001313,99.33752160001313,99.49028420000104,ä,correct,99.84441900003003,101.84438300004695,102.32348740001908,98.68475200003013,0.3407684999401681,101.84438300004695,,,,,,,,,,,19,A,2023-12-11_16h57.56.882,gca_discrimination,2022.2.4,143.7880679109286,
positions.xlsx,stimuli.xlsx,test.xlsx,stimuli/Social1.png,stimuli/Social2.png,stimuli/Nonsocial1.png,stimuli/Nonsocial2.png,stimuli/Test1.png,stimuli/Test2.png,"(0.7, -0.5)",test1,"(0.7, 0.5)",test1,0,0,0,0,0,10,10,10,,,,,,,,,,,,,,,,,,,102.32348740001908,103.32347910001408,103.32347910001408,103.47624680004083,103.97625040001003,103.97625040001003,104.12900670000818,l,correct,104.40676880005049,106.40667150000809,107.37189990002662,103.32347910001408,0.27032989996951073,106.40667150000809,,,,,,,,,,,19,A,2023-12-11_16h57.56.882,gca_discrimination,2022.2.4,143.7880679109286,
positions.xlsx,stimuli.xlsx,test.xlsx,stimuli/Social1.png,stimuli/Social2.png,stimuli/Nonsocial1.png,stimuli/Nonsocial2.png,stimuli/Test1.png,stimuli/Test2.png,"(0.7, -0.5)",test1,"(0.7, 0.5)",test2,0,0,0,0,0,11,11,0,,,,,,,,,,,,,,,,,,,107.37189990002662,108.37186160002602,108.37186160002602,108.5246874000295,109.02468470000895,109.02468470000895,109.17740700003924,ä,correct,109.39960970001994,111.39952330000233,112.26062160002766,108.37186160002602,0.21362829994177446,111.39952330000233,,,,,,,,,,,19,A,2023-12-11_16h57.56.882,gca_discrimination,2022.2.4,143.7880679109286,
positions.xlsx,stimuli.xlsx,test.xlsx,stimuli/Social1.png,stimuli/Social2.png,stimuli/Nonsocial1.png,stimuli/Nonsocial2.png,stimuli/Test1.png,stimuli/Test2.png,"(0.7, 0.5)",test1,"(0.7, -0.5)",test2,0,0,0,0,0,12,12,11,,,,,,,,,,,,,,,,,,,112.26062160002766,113.26058930001454,113.26058930001454,113.41336190002039,113.91334340005415,113.91334340005415,114.0661302000517,ä,correct,114.2605470000417,116.26047180005116,116.47573600005126,113.26058930001454,0.1818248999188654,116.26047180005116,,,,,,,,,,,19,A,2023-12-11_16h57.56.882,gca_discrimination,2022.2.4,143.7880679109286,
positions.xlsx,stimuli.xlsx,test.xlsx,stimuli/Social1.png,stimuli/Social2.png,stimuli/Nonsocial1.png,stimuli/Nonsocial2.png,stimuli/Test1.png,stimuli/Test2.png,"(0.7, -0.5)",test2,"(-0.7, 0.5)",test1,0,0,0,0,0,13,13,4,,,,,,,,,,,,,,,,,,,116.47573600005126,117.47572960000252,117.47572960000252,117.62850900000194,118.1284483000054,118.1284483000054,118.28123440005584,ä,correct,118.61454330000561,120.61447260004934,121.03813360002823,117.47572960000252,0.3260967999813147,120.61447260004934,,,,,,,,,,,19,A,2023-12-11_16h57.56.882,gca_discrimination,2022.2.4,143.7880679109286,
positions.xlsx,stimuli.xlsx,test.xlsx,stimuli/Social1.png,stimuli/Social2.png,stimuli/Nonsocial1.png,stimuli/Nonsocial2.png,stimuli/Test1.png,stimuli/Test2.png,"(0.7, 0.5)",cs_plus_s,"(-0.7, -0.5)",cs_minus_s,0,0,0,0,,,,,0,0,0,7,,,,,,,,,,,,,142.37058030004846,143.8705370000098,143.8705370000098,144.87047290004557,144.87047290004557,145.00935620005475,145.51629440003308,145.51629440003308,145.6620954000391,ä,correct,,146.23845840001013,146.9467932000407,,0.5689860999118537,,121.03813360002823,121.03813360002823,121.03813360002823,121.03813360002823,121.03813360002823,121.03813360002823,121.03813360002823,121.03813360002823,space,21.321458799997345,19,A,2023-12-11_16h57.56.882,gca_discrimination,2022.2.4,143.7880679109286,
positions.xlsx,stimuli.xlsx,test.xlsx,stimuli/Social1.png,stimuli/Social2.png,stimuli/Nonsocial1.png,stimuli/Nonsocial2.png,stimuli/Test1.png,stimuli/Test2.png,"(0.7, 0.5)",cs_minus_ns,"(0.7, -0.5)",cs_plus_ns,0,0,0,0,,,,,0,1,1,44,,,,,,,,,,,,,,,146.9467932000407,147.95366490003653,147.95366490003653,148.09953400003724,148.60647930001142,148.60647930001142,148.75227920000907,ä,correct,,149.47445380000863,150.39109129999997,147.95366490003653,0.71066439995775,,,,,,,,,,,,19,A,2023-12-11_16h57.56.882,gca_discrimination,2022.2.4,143.7880679109286,
positions.xlsx,stimuli.xlsx,test.xlsx,stimuli/Social1.png,stimuli/Social2.png,stimuli/Nonsocial1.png,stimuli/Nonsocial2.png,stimuli/Test1.png,stimuli/Test2.png,"(-0.7, 0.5)",cs_plus_s,"(0.7, 0.5)",cs_plus_s,0,0,0,0,,,,,0,2,2,49,,,,,,,,,,,,,,,150.39109129999997,151.3980854000547,151.3980854000547,151.54382110002916,152.05075270001544,152.05075270001544,152.19657720002579,l,correct,,152.57848920003744,153.18960930005414,151.3980854000547,0.37042749993270263,,,,,,,,,,,,19,A,2023-12-11_16h57.56.882,gca_discrimination,2022.2.4,143.7880679109286,
positions.xlsx,stimuli.xlsx,test.xlsx,stimuli/Social1.png,stimuli/Social2.png,stimuli/Nonsocial1.png,stimuli/Nonsocial2.png,stimuli/Test1.png,stimuli/Test2.png,"(-0.7, -0.5)",cs_plus_ns,"(-0.7, 0.5)",cs_minus_ns,0,0,0,0,,,,,0,3,3,27,,,,,,,,,,,,,,,153.18960930005414,154.1965293000103,154.1965293000103,154.3423242000281,154.84922970004845,154.84922970004845,154.99509000004036,ä,correct,,155.39087410003413,155.7519834000268,154.1965293000103,0.38830879994202405,,,,,,,,,,,,19,A,2023-12-11_16h57.56.882,gca_discrimination,2022.2.4,143.7880679109286,
positions.xlsx,stimuli.xlsx,test.xlsx,stimuli/Social1.png,stimuli/Social2.png,stimuli/Nonsocial1.png,stimuli/Nonsocial2.png,stimuli/Test1.png,stimuli/Test2.png,"(0.7, 0.5)",cs_plus_s,"(-0.7, 0.5)",cs_minus_s,0,0,0,0,,,,,0,4,4,6,,,,,,,,,,,,,,,155.7519834000268,156.75888010003837,156.75888010003837,156.90469950000988,157.4116897000349,157.4116897000349,157.55748960003257,ä,correct,,158.16159360000165,158.98797680001007,156.75888010003837,0.5932848999509588,,,,,,,,,,,,19,A,2023-12-11_16h57.56.882,gca_discrimination,2022.2.4,143.7880679109286,
positions.xlsx,stimuli.xlsx,test.xlsx,stimuli/Social1.png,stimuli/Social2.png,stimuli/Nonsocial1.png,stimuli/Nonsocial2.png,stimuli/Test1.png,stimuli/Test2.png,"(0.7, -0.5)",cs_plus_ns,"(0.7, 0.5)",cs_minus_ns,0,0,0,0,,,,,0,5,5,35,,,,,,,,,,,,,,,158.98797680001007,159.9949303000467,159.9949303000467,160.14073620003182,160.64764230005676,160.64764230005676,160.79349380003987,ä,correct,,161.265683500038,161.7586637000204,159.9949303000467,0.46176299994112924,,,,,,,,,,,,19,A,2023-12-11_16h57.56.882,gca_discrimination,2022.2.4,143.7880679109286,
positions.xlsx,stimuli.xlsx,test.xlsx,stimuli/Social1.png,stimuli/Social2.png,stimuli/Nonsocial1.png,stimuli/Nonsocial2.png,stimuli/Test1.png,stimuli/Test2.png,"(-0.7, -0.5)",cs_plus_s,"(0.7, -0.5)",cs_minus_s,0,0,0,0,,,,,0,6,6,5,,,,,,,,,,,,,,,161.7586637000204,162.76560180005617,162.76560180005617,162.91143290000036,163.4183848000248,163.4183848000248,163.56416680000257,ä,correct,,163.841950800037,163.96001740003703,162.76560180005617,0.26723829994443804,,,,,,,,,,,,19,A,2023-12-11_16h57.56.882,gca_discrimination,2022.2.4,143.7880679109286,
positions.xlsx,stimuli.xlsx,test.xlsx,stimuli/Social1.png,stimuli/Social2.png,stimuli/Nonsocial1.png,stimuli/Nonsocial2.png,stimuli/Test1.png,stimuli/Test2.png,"(0.7, -0.5)",cs_minus_s,"(0.7, 0.5)",cs_plus_s,0,0,0,0,,,,,0,7,7,23,,,,,,,,,,,,,,,163.96001740003703,164.96692460001213,164.96692460001213,165.1127853000071,165.6196498000063,165.6196498000063,165.76545260002604,ä,correct,,166.1543874000199,166.3904742000159,164.96692460001213,0.37842879991512746,,,,,,,,,,,,19,A,2023-12-11_16h57.56.882,gca_discrimination,2022.2.4,143.7880679109286,
positions.xlsx,stimuli.xlsx,test.xlsx,stimuli/Social1.png,stimuli/Social2.png,stimuli/Nonsocial1.png,stimuli/Nonsocial2.png,stimuli/Test1.png,stimuli/Test2.png,"(0.7, -0.5)",cs_minus_s,"(-0.7, 0.5)",cs_plus_s,0,0,0,0,,,,,0,8,8,21,,,,,,,,,,,,,,,166.3904742000159,167.3973824000568,167.3973824000568,167.54318990005413,168.05013760004658,168.05013760004658,168.1959842000506,ä,correct,,168.48760110000148,169.0292995000491,167.3973824000568,0.28276699990965426,,,,,,,,,,,,19,A,2023-12-11_16h57.56.882,gca_discrimination,2022.2.4,143.7880679109286,
positions.xlsx,stimuli.xlsx,test.xlsx,stimuli/Social1.png,stimuli/Social2.png,stimuli/Nonsocial1.png,stimuli/Nonsocial2.png,stimuli/Test1.png,stimuli/Test2.png,"(0.7, -0.5)",cs_plus_s,"(-0.7, -0.5)",cs_minus_s,0,0,0,0,,,,,0,9,9,10,,,,,,,,,,,,,,,169.0292995000491,170.03614730003756,170.03614730003756,170.1819990000222,170.68888710002648,170.68888710002648,170.83478030003607,ä,correct,,171.09165760001633,171.39725810004165,170.03614730003756,0.24415509996470064,,,,,,,,,,,,19,A,2023-12-11_16h57.56.882,gca_discrimination,2022.2.4,143.7880679109286,
positions.xlsx,stimuli.xlsx,test.xlsx,stimuli/Social1.png,stimuli/Social2.png,stimuli/Nonsocial1.png,stimuli/Nonsocial2.png,stimuli/Test1.png,stimuli/Test2.png,"(-0.7, -0.5)",cs_minus_s,"(0.7, -0.5)",cs_minus_s,0,0,0,0,,,,,0,10,10,65,,,,,,,,,,,,,,,171.39725810004165,172.40413460001582,172.40413460001582,172.5499756000354,173.05688790004933,173.05688790004933,173.2027144000167,l,correct,,173.52212090004468,173.61241880001035,172.40413460001582,0.30967139994027093,,,,,,,,,,,,19,A,2023-12-11_16h57.56.882,gca_discrimination,2022.2.4,143.7880679109286,
positions.xlsx,stimuli.xlsx,test.xlsx,stimuli/Social1.png,stimuli/Social2.png,stimuli/Nonsocial1.png,stimuli/Nonsocial2.png,stimuli/Test1.png,stimuli/Test2.png,"(0.7, -0.5)",cs_minus_ns,"(-0.7, -0.5)",cs_minus_ns,0,0,0,0,,,,,0,11,11,94,,,,,,,,,,,,,,,173.61241880001035,174.61933549999958,174.61933549999958,174.76511330000358,175.2720800000243,175.2720800000243,175.41787810000824,ä,wrong,,175.85539700003574,175.8692858000286,174.61933549999958,0.4292111999238841,,,,,,,,,,,,19,A,2023-12-11_16h57.56.882,gca_discrimination,2022.2.4,143.7880679109286,
positions.xlsx,stimuli.xlsx,test.xlsx,stimuli/Social1.png,stimuli/Social2.png,stimuli/Nonsocial1.png,stimuli/Nonsocial2.png,stimuli/Test1.png,stimuli/Test2.png,"(0.7, 0.5)",cs_plus_s,"(-0.7, -0.5)",cs_plus_s,0,0,0,0,,,,,0,12,12,55,,,,,,,,,,,,,,,175.8692858000286,176.87617530004354,176.87617530004354,177.0220013000071,177.52894480002578,177.52894480002578,177.6747885000077,None,no answer,,179.67468910000753,179.90386460005539,176.87617530004354,,,,,,,,,,,,,19,A,2023-12-11_16h57.56.882,gca_discrimination,2022.2.4,143.7880679109286,
positions.xlsx,stimuli.xlsx,test.xlsx,stimuli/Social1.png,stimuli/Social2.png,stimuli/Nonsocial1.png,stimuli/Nonsocial2.png,stimuli/Test1.png,stimuli/Test2.png,"(0.7, 0.5)",cs_plus_ns,"(0.7, -0.5)",cs_plus_ns,0,0,0,0,,,,,0,13,13,80,,,,,,,,,,,,,,,179.90386460005539,180.91075320000527,180.91075320000527,181.05654410005081,181.56350470002508,181.56350470002508,181.70931930001825,l,correct,,182.16067160002422,182.1884519000305,180.91075320000527,0.4424290999304503,,,,,,,,,,,,19,A,2023-12-11_16h57.56.882,gca_discrimination,2022.2.4,143.7880679109286,
positions.xlsx,stimuli.xlsx,test.xlsx,stimuli/Social1.png,stimuli/Social2.png,stimuli/Nonsocial1.png,stimuli/Nonsocial2.png,stimuli/Test1.png,stimuli/Test2.png,"(-0.7, -0.5)",cs_plus_ns,"(0.7, -0.5)",cs_minus_ns,0,0,0,0,,,,,0,14,14,29,,,,,,,,,,,,,,,182.1884519000305,183.19535950000864,183.19535950000864,183.34120770002482,183.84818260004977,183.84818260004977,183.99396490002982,ä,correct,,184.26477290003095,184.83422530000098,183.19535950000864,0.2612548999604769,,,,,,,,,,,,19,A,2023-12-11_16h57.56.882,gca_discrimination,2022.2.4,143.7880679109286,
positions.xlsx,stimuli.xlsx,test.xlsx,stimuli/Social1.png,stimuli/Social2.png,stimuli/Nonsocial1.png,stimuli/Nonsocial2.png,stimuli/Test1.png,stimuli/Test2.png,"(-0.7, -0.5)",cs_minus_ns,"(0.7, -0.5)",cs_plus_ns,0,0,0,0,,,,,0,15,15,41,,,,,,,,,,,,,,,184.83422530000098,185.84110520000104,185.84110520000104,185.986953500018,186.49388910003472,186.49388910003472,186.63970930001233,ä,correct,,186.9869092000299,187.39661049999995,185.84110520000104,0.33655799995176494,,,,,,,,,,,,19,A,2023-12-11_16h57.56.882,gca_discrimination,2022.2.4,143.7880679109286,
positions.xlsx,stimuli.xlsx,test.xlsx,stimuli/Social1.png,stimuli/Social2.png,stimuli/Nonsocial1.png,stimuli/Nonsocial2.png,stimuli/Test1.png,stimuli/Test2.png,"(0.7, -0.5)",cs_plus_ns,"(-0.7, 0.5)",cs_minus_ns,0,0,0,0,,,,,0,16,16,33,,,,,,,,,,,,,,,187.39661049999995,188.40356150001753,188.40356150001753,188.54934110003524,189.05630150000798,189.05630150000798,189.20209480001358,ä,correct,,189.57706250000047,189.9103854999994,188.40356150001753,0.36466709995875135,,,,,,,,,,,,19,A,2023-12-11_16h57.56.882,gca_discrimination,2022.2.4,143.7880679109286,
positions.xlsx,stimuli.xlsx,test.xlsx,stimuli/Social1.png,stimuli/Social2.png,stimuli/Nonsocial1.png,stimuli/Nonsocial2.png,stimuli/Test1.png,stimuli/Test2.png,"(0.7, 0.5)",cs_plus_ns,"(-0.7, -0.5)",cs_minus_ns,0,0,0,0,,,,,0,17,17,31,,,,,,,,,,,,,,,189.9103854999994,190.91730220004683,190.91730220004683,191.06312160001835,191.57008600002155,191.57008600002155,191.71595660003368,ä,correct,,192.04227110004285,192.81303830002435,190.91730220004683,0.3148278999142349,,,,,,,,,,,,19,A,2023-12-11_16h57.56.882,gca_discrimination,2022.2.4,143.7880679109286,
positions.xlsx,stimuli.xlsx,test.xlsx,stimuli/Social1.png,stimuli/Social2.png,stimuli/Nonsocial1.png,stimuli/Nonsocial2.png,stimuli/Test1.png,stimuli/Test2.png,"(0.7, 0.5)",cs_minus_ns,"(-0.7, 0.5)",cs_plus_ns,0,0,0,0,,,,,0,18,18,42,,,,,,,,,,,,,,,192.81303830002435,193.81993290001992,193.81993290001992,193.9658241000143,194.47270810004557,194.47270810004557,194.6185647000093,ä,correct,,194.9587932000286,195.38242360000731,193.81993290001992,0.3324130999390036,,,,,,,,,,,,19,A,2023-12-11_16h57.56.882,gca_discrimination,2022.2.4,143.7880679109286,
positions.xlsx,stimuli.xlsx,test.xlsx,stimuli/Social1.png,stimuli/Social2.png,stimuli/Nonsocial1.png,stimuli/Nonsocial2.png,stimuli/Test1.png,stimuli/Test2.png,"(0.7, 0.5)",cs_plus_s,"(-0.7, 0.5)",cs_plus_s,0,0,0,0,,,,,0,19,19,54,,,,,,,,,,,,,,,195.38242360000731,196.38933880004333,196.38933880004333,196.53514780005207,197.042080800049,197.042080800049,197.187902100035,l,correct,,197.51427430001786,198.15316790004726,196.38933880004333,0.3156008999212645,,,,,,,,,,,,19,A,2023-12-11_16h57.56.882,gca_discrimination,2022.2.4,143.7880679109286,
positions.xlsx,stimuli.xlsx,test.xlsx,stimuli/Social1.png,stimuli/Social2.png,stimuli/Nonsocial1.png,stimuli/Nonsocial2.png,stimuli/Test1.png,stimuli/Test2.png,"(-0.7, 0.5)",cs_minus_ns,"(0.7, -0.5)",cs_minus_ns,0,0,0,0,,,,,0,20,20,86,,,,,,,,,,,,,,,198.15316790004726,199.1600442000199,199.1600442000199,199.305920600018,199.8128123000497,199.8128123000497,199.95863010000903,l,correct,,200.29898300004425,200.8752665000502,199.1600442000199,0.32924609998008236,,,,,,,,,,,,19,A,2023-12-11_16h57.56.882,gca_discrimination,2022.2.4,143.7880679109286,
positions.xlsx,stimuli.xlsx,test.xlsx,stimuli/Social1.png,stimuli/Social2.png,stimuli/Nonsocial1.png,stimuli/Nonsocial2.png,stimuli/Test1.png,stimuli/Test2.png,"(-0.7, 0.5)",cs_plus_ns,"(0.7, -0.5)",cs_plus_ns,0,0,0,0,,,,,0,21,21,74,,,,,,,,,,,,,,,200.8752665000502,201.88216760003706,201.88216760003706,202.02800960000604,202.5349048000062,202.5349048000062,202.68073620001087,l,correct,,202.97933800000465,203.81263820000459,201.88216760003706,0.2878081999369897,,,,,,,,,,,,19,A,2023-12-11_16h57.56.882,gca_discrimination,2022.2.4,143.7880679109286,
positions.xlsx,stimuli.xlsx,test.xlsx,stimuli/Social1.png,stimuli/Social2.png,stimuli/Nonsocial1.png,stimuli/Nonsocial2.png,stimuli/Test1.png,stimuli/Test2.png,"(0.7, -0.5)",cs_plus_s,"(-0.7, 0.5)",cs_minus_s,0,0,0,0,,,,,0,22,22,9,,,,,,,,,,,,,,,203.81263820000459,204.81962650001515,204.81962650001515,204.96537660004105,205.47229980002157,205.47229980002157,205.61813540000003,ä,correct,,205.89589850004995,206.63892070000293,204.81962650001515,0.26891539996722713,,,,,,,,,,,,19,A,2023-12-11_16h57.56.882,gca_discrimination,2022.2.4,143.7880679109286,
positions.xlsx,stimuli.xlsx,test.xlsx,stimuli/Social1.png,stimuli/Social2.png,stimuli/Nonsocial1.png,stimuli/Nonsocial2.png,stimuli/Test1.png,stimuli/Test2.png,"(-0.7, -0.5)",cs_plus_ns,"(0.7, 0.5)",cs_minus_ns,0,0,0,0,,,,,0,23,23,28,,,,,,,,,,,,,,,206.63892070000293,207.64583330001915,207.64583330001915,207.79167190002045,208.29858400003286,208.29858400003286,208.44441650004592,ä,correct,,208.84715880005388,209.37493020005058,207.64583330001915,0.3950735999387689,,,,,,,,,,,,19,A,2023-12-11_16h57.56.882,gca_discrimination,2022.2.4,143.7880679109286,
positions.xlsx,stimuli.xlsx,test.xlsx,stimuli/Social1.png,stimuli/Social2.png,stimuli/Nonsocial1.png,stimuli/Nonsocial2.png,stimuli/Test1.png,stimuli/Test2.png,"(0.7, -0.5)",cs_plus_ns,"(0.7, 0.5)",cs_plus_ns,0,0,0,0,,,,,0,24,24,83,,,,,,,,,,,,,,,209.37493020005058,210.38178620004328,210.38178620004328,210.52766940003494,211.03459550003754,211.03459550003754,211.18043950002175,l,correct,,211.66648690000875,212.35399329999927,210.38178620004328,0.4743083999492228,,,,,,,,,,,,19,A,2023-12-11_16h57.56.882,gca_discrimination,2022.2.4,143.7880679109286,
positions.xlsx,stimuli.xlsx,test.xlsx,stimuli/Social1.png,stimuli/Social2.png,stimuli/Nonsocial1.png,stimuli/Nonsocial2.png,stimuli/Test1.png,stimuli/Test2.png,"(0.7, -0.5)",cs_minus_s,"(-0.7, -0.5)",cs_minus_s,0,0,0,0,,,,,0,25,25,70,,,,,,,,,,,,,,,212.35399329999927,213.36093450000044,213.36093450000044,213.50671850005165,214.0136600000551,214.0136600000551,214.1594530000002,l,correct,,214.6732962000533,215.29831880005077,213.36093450000044,0.5037368999328464,,,,,,,,,,,,19,A,2023-12-11_16h57.56.882,gca_discrimination,2022.2.4,143.7880679109286,
positions.xlsx,stimuli.xlsx,test.xlsx,stimuli/Social1.png,stimuli/Social2.png,stimuli/Nonsocial1.png,stimuli/Nonsocial2.png,stimuli/Test1.png,stimuli/Test2.png,"(-0.7, -0.5)",cs_minus_s,"(0.7, -0.5)",cs_plus_s,0,0,0,0,,,,,0,26,26,17,,,,,,,,,,,,,,,215.29831880005077,216.30530350003392,216.30530350003392,216.45105790003436,216.95796780003002,216.95796780003002,217.1037979000248,ä,correct,,217.4579399000504,217.89543120004237,216.30530350003392,0.3435605999547988,,,,,,,,,,,,19,A,2023-12-11_16h57.56.882,gca_discrimination,2022.2.4,143.7880679109286,
positions.xlsx,stimuli.xlsx,test.xlsx,stimuli/Social1.png,stimuli/Social2.png,stimuli/Nonsocial1.png,stimuli/Nonsocial2.png,stimuli/Test1.png,stimuli/Test2.png,"(0.7, 0.5)",cs_plus_ns,"(-0.7, 0.5)",cs_plus_ns,0,0,0,0,,,,,0,27,27,78,,,,,,,,,,,,,,,217.89543120004237,218.90232570003718,218.90232570003718,219.04823390004458,219.55510310002137,219.55510310002137,219.7009116000263,l,correct,,220.09674430004088,220.41615500004264,218.90232570003718,0.38621709996368736,,,,,,,,,,,,19,A,2023-12-11_16h57.56.882,gca_discrimination,2022.2.4,143.7880679109286,
positions.xlsx,stimuli.xlsx,test.xlsx,stimuli/Social1.png,stimuli/Social2.png,stimuli/Nonsocial1.png,stimuli/Nonsocial2.png,stimuli/Test1.png,stimuli/Test2.png,"(-0.7, 0.5)",cs_plus_s,"(-0.7, -0.5)",cs_minus_s,0,0,0,0,,,,,0,28,28,0,,,,,,,,,,,,,,,220.41615500004264,221.4230799000361,221.4230799000361,221.5689110000385,222.07583410001826,222.07583410001826,222.22166060004383,ä,correct,,222.7563145000022,223.41607340000337,221.4230799000361,0.5214081999147311,,,,,,,,,,,,19,A,2023-12-11_16h57.56.882,gca_discrimination,2022.2.4,143.7880679109286,
positions.xlsx,stimuli.xlsx,test.xlsx,stimuli/Social1.png,stimuli/Social2.png,stimuli/Nonsocial1.png,stimuli/Nonsocial2.png,stimuli/Test1.png,stimuli/Test2.png,"(0.7, 0.5)",cs_minus_s,"(-0.7, 0.5)",cs_minus_s,0,0,0,0,,,,,0,29,29,66,,,,,,,,,,,,,,,223.41607340000337,224.4229878000333,224.4229878000333,224.56880060001276,225.07573860004777,225.07573860004777,225.22154700005194,l,correct,,225.70067860005656,226.5617820000043,224.4229878000333,0.4659533998928964,,,,,,,,,,,,19,A,2023-12-11_16h57.56.882,gca_discrimination,2022.2.4,143.7880679109286,
positions.xlsx,stimuli.xlsx,test.xlsx,stimuli/Social1.png,stimuli/Social2.png,stimuli/Nonsocial1.png,stimuli/Nonsocial2.png,stimuli/Test1.png,stimuli/Test2.png,"(0.7, 0.5)",cs_minus_s,"(-0.7, -0.5)",cs_minus_s,0,0,0,0,,,,,0,30,30,67,,,,,,,,,,,,,,,226.5617820000043,227.56869990000268,227.56869990000268,227.71452170005068,228.22143800003687,228.22143800003687,228.3672380000353,l,correct,,228.81168560002698,229.2908133000019,227.56869990000268,0.4321714999387041,,,,,,,,,,,,19,A,2023-12-11_16h57.56.882,gca_discrimination,2022.2.4,143.7880679109286,
positions.xlsx,stimuli.xlsx,test.xlsx,stimuli/Social1.png,stimuli/Social2.png,stimuli/Nonsocial1.png,stimuli/Nonsocial2.png,stimuli/Test1.png,stimuli/Test2.png,"(0.7, -0.5)",cs_minus_ns,"(-0.7, 0.5)",cs_plus_ns,0,0,0,0,,,,,0,31,31,45,,,,,,,,,,,,,,,229.2908133000019,230.2977477000095,230.2977477000095,230.44359240005724,230.95044880005298,230.95044880005298,231.0963030999992,ä,correct,,231.5754459000309,231.8393418000196,230.2977477000095,0.47136919997865334,,,,,,,,,,,,19,A,2023-12-11_16h57.56.882,gca_discrimination,2022.2.4,143.7880679109286,
positions.xlsx,stimuli.xlsx,test.xlsx,stimuli/Social1.png,stimuli/Social2.png,stimuli/Nonsocial1.png,stimuli/Nonsocial2.png,stimuli/Test1.png,stimuli/Test2.png,"(0.7, -0.5)",cs_plus_s,"(-0.7, 0.5)",cs_plus_s,0,0,0,0,,,,,0,32,32,57,,,,,,,,,,,,,,,231.8393418000196,232.8462537000305,232.8462537000305,232.99208730005194,233.49901820003288,233.49901820003288,233.64484630001243,l,correct,,234.3600787000032,235.22818850004114,232.8462537000305,0.7076362999505363,,,,,,,,,,,,19,A,2023-12-11_16h57.56.882,gca_discrimination,2022.2.4,143.7880679109286,
positions.xlsx,stimuli.xlsx,test.xlsx,stimuli/Social1.png,stimuli/Social2.png,stimuli/Nonsocial1.png,stimuli/Nonsocial2.png,stimuli/Test1.png,stimuli/Test2.png,"(0.7, 0.5)",cs_plus_s,"(0.7, -0.5)",cs_plus_s,0,0,0,0,,,,,0,33,33,56,,,,,,,,,,,,,,,235.22818850004114,236.23500130005414,236.23500130005414,236.3808118000161,236.8877612000215,236.8877612000215,237.03358250000747,l,correct,,237.450236100005,238.3460713000386,236.23500130005414,0.40666269994108006,,,,,,,,,,,,19,A,2023-12-11_16h57.56.882,gca_discrimination,2022.2.4,143.7880679109286,
positions.xlsx,stimuli.xlsx,test.xlsx,stimuli/Social1.png,stimuli/Social2.png,stimuli/Nonsocial1.png,stimuli/Nonsocial2.png,stimuli/Test1.png,stimuli/Test2.png,"(0.7, 0.5)",cs_minus_s,"(-0.7, 0.5)",cs_plus_s,0,0,0,0,,,,,0,34,34,18,,,,,,,,,,,,,,,238.3460713000386,239.3529485000181,239.3529485000181,239.49876190000214,240.00570550002158,240.00570550002158,240.15155090001645,ä,correct,,240.69315050001023,241.276455800049,239.3529485000181,0.5282451999373734,,,,,,,,,,,,19,A,2023-12-11_16h57.56.882,gca_discrimination,2022.2.4,143.7880679109286,
positions.xlsx,stimuli.xlsx,test.xlsx,stimuli/Social1.png,stimuli/Social2.png,stimuli/Nonsocial1.png,stimuli/Nonsocial2.png,stimuli/Test1.png,stimuli/Test2.png,"(-0.7, 0.5)",cs_minus_ns,"(0.7, -0.5)",cs_plus_ns,0,0,0,0,,,,,0,35,35,38,,,,,,,,,,,,,,,241.276455800049,242.28335820004577,242.28335820004577,242.42924940004013,242.93615140003385,242.93615140003385,243.0819623999996,ä,correct,,243.67223650001688,243.7972129000118,242.28335820004577,0.5818093999987468,,,,,,,,,,,,19,A,2023-12-11_16h57.56.882,gca_discrimination,2022.2.4,143.7880679109286,
positions.xlsx,stimuli.xlsx,test.xlsx,stimuli/Social1.png,stimuli/Social2.png,stimuli/Nonsocial1.png,stimuli/Nonsocial2.png,stimuli/Test1.png,stimuli/Test2.png,"(0.7, -0.5)",cs_plus_s,"(-0.7, -0.5)",cs_plus_s,0,0,0,0,,,,,0,36,36,58,,,,,,,,,,,,,,,243.7972129000118,244.80409930000314,244.80409930000314,244.94996760005597,245.45684690005146,245.45684690005146,245.60269020003034,l,correct,,246.08185340004275,246.51932680001482,244.80409930000314,0.4681952999671921,,,,,,,,,,,,19,A,2023-12-11_16h57.56.882,gca_discrimination,2022.2.4,143.7880679109286,
positions.xlsx,stimuli.xlsx,test.xlsx,stimuli/Social1.png,stimuli/Social2.png,stimuli/Nonsocial1.png,stimuli/Nonsocial2.png,stimuli/Test1.png,stimuli/Test2.png,"(-0.7, 0.5)",cs_minus_s,"(0.7, -0.5)",cs_minus_s,0,0,0,0,,,,,0,37,37,62,,,,,,,,,,,,,,,246.51932680001482,247.5262460000231,247.5262460000231,247.67208470002515,248.17902600002708,248.17902600002708,248.3248225999996,l,correct,,248.86648940003943,248.9845597000094,247.5262460000231,0.5302720999461599,,,,,,,,,,,,19,A,2023-12-11_16h57.56.882,gca_discrimination,2022.2.4,143.7880679109286,
positions.xlsx,stimuli.xlsx,test.xlsx,stimuli/Social1.png,stimuli/Social2.png,stimuli/Nonsocial1.png,stimuli/Nonsocial2.png,stimuli/Test1.png,stimuli/Test2.png,"(0.7, -0.5)",cs_minus_s,"(-0.7, -0.5)",cs_plus_s,0,0,0,0,,,,,0,38,38,22,,,,,,,,,,,,,,,248.9845597000094,249.99142410000786,249.99142410000786,250.13723890000256,250.6441918000346,250.6441918000346,250.78999800002202,ä,correct,,251.19281410000985,251.36635630001547,249.99142410000786,0.3927493999362923,,,,,,,,,,,,19,A,2023-12-11_16h57.56.882,gca_discrimination,2022.2.4,143.7880679109286,
positions.xlsx,stimuli.xlsx,test.xlsx,stimuli/Social1.png,stimuli/Social2.png,stimuli/Nonsocial1.png,stimuli/Nonsocial2.png,stimuli/Test1.png,stimuli/Test2.png,"(0.7, 0.5)",cs_minus_s,"(0.7, -0.5)",cs_plus_s,0,0,0,0,,,,,0,39,39,20,,,,,,,,,,,,,,,251.36635630001547,252.37330470001325,252.37330470001325,252.51912690000609,253.02599640004337,253.02599640004337,253.17186400003266,ä,correct,,253.65794100001222,253.85936510004103,252.37330470001325,0.4765244999434799,,,,,,,,,,,,19,A,2023-12-11_16h57.56.882,gca_discrimination,2022.2.4,143.7880679109286,
positions.xlsx,stimuli.xlsx,test.xlsx,stimuli/Social1.png,stimuli/Social2.png,stimuli/Nonsocial1.png,stimuli/Nonsocial2.png,stimuli/Test1.png,stimuli/Test2.png,"(-0.7, 0.5)",cs_plus_s,"(0.7, 0.5)",cs_minus_s,0,0,0,0,,,,,0,40,40,1,,,,,,,,,,,,,,,253.85936510004103,254.86621790000936,254.86621790000936,255.0120735000237,255.5190071000252,255.5190071000252,255.6648071000236,ä,correct,,256.13008950004587,256.8869521000306,254.86621790000936,0.45450079994043335,,,,,,,,,,,,19,A,2023-12-11_16h57.56.882,gca_discrimination,2022.2.4,143.7880679109286,
positions.xlsx,stimuli.xlsx,test.xlsx,stimuli/Social1.png,stimuli/Social2.png,stimuli/Nonsocial1.png,stimuli/Nonsocial2.png,stimuli/Test1.png,stimuli/Test2.png,"(0.7, -0.5)",cs_plus_s,"(0.7, 0.5)",cs_plus_s,0,0,0,0,,,,,0,41,41,59,,,,,,,,,,,,,,,256.8869521000306,257.8938917000196,257.8938917000196,258.0397117000539,258.5466561000212,258.5466561000212,258.6924662000383,l,correct,,259.1160781000508,260.0812990000122,257.8938917000196,0.411154999921564,,,,,,,,,,,,19,A,2023-12-11_16h57.56.882,gca_discrimination,2022.2.4,143.7880679109286,
positions.xlsx,stimuli.xlsx,test.xlsx,stimuli/Social1.png,stimuli/Social2.png,stimuli/Nonsocial1.png,stimuli/Nonsocial2.png,stimuli/Test1.png,stimuli/Test2.png,"(0.7, -0.5)",cs_minus_ns,"(-0.7, -0.5)",cs_plus_ns,0,0,0,0,,,,,0,42,42,46,,,,,,,,,,,,,,,260.0812990000122,261.08820280001964,261.08820280001964,261.23405250004726,261.7409588000155,261.7409588000155,261.8867685000296,ä,correct,,262.27566530002514,262.53954280004837,261.08820280001964,0.3765866999165155,,,,,,,,,,,,19,A,2023-12-11_16h57.56.882,gca_discrimination,2022.2.4,143.7880679109286,
positions.xlsx,stimuli.xlsx,test.xlsx,stimuli/Social1.png,stimuli/Social2.png,stimuli/Nonsocial1.png,stimuli/Nonsocial2.png,stimuli/Test1.png,stimuli/Test2.png,"(-0.7, 0.5)",cs_minus_s,"(-0.7, -0.5)",cs_minus_s,0,0,0,0,,,,,0,43,43,60,,,,,,,,,,,,,,,262.53954280004837,263.5464452000451,263.5464452000451,263.69229350000387,264.19920030003414,264.19920030003414,264.3450292000198,l,correct,,264.82418030005647,264.9838829000364,263.5464452000451,0.47052339994115755,,,,,,,,,,,,19,A,2023-12-11_16h57.56.882,gca_discrimination,2022.2.4,143.7880679109286,
positions.xlsx,stimuli.xlsx,test.xlsx,stimuli/Social1.png,stimuli/Social2.png,stimuli/Nonsocial1.png,stimuli/Nonsocial2.png,stimuli/Test1.png,stimuli/Test2.png,"(-0.7, 0.5)",cs_minus_ns,"(-0.7, -0.5)",cs_minus_ns,0,0,0,0,,,,,0,44,44,84,,,,,,,,,,,,,,,264.9838829000364,265.99082180002006,265.99082180002006,266.1366267000558,266.64354560000356,266.64354560000356,266.7893714000238,l,correct,,267.1643637000234,267.3935144999996,265.99082180002006,0.36146399995777756,,,,,,,,,,,,19,A,2023-12-11_16h57.56.882,gca_discrimination,2022.2.4,143.7880679109286,
positions.xlsx,stimuli.xlsx,test.xlsx,stimuli/Social1.png,stimuli/Social2.png,stimuli/Nonsocial1.png,stimuli/Nonsocial2.png,stimuli/Test1.png,stimuli/Test2.png,"(-0.7, -0.5)",cs_minus_s,"(-0.7, 0.5)",cs_minus_s,0,0,0,0,,,,,0,45,45,63,,,,,,,,,,,,,,,267.3935144999996,268.4004476000555,268.4004476000555,268.5462492000079,269.0531796000432,269.0531796000432,269.198982300004,l,correct,,269.59482900000876,269.8378622000455,268.4004476000555,0.38456489995587617,,,,,,,,,,,,19,A,2023-12-11_16h57.56.882,gca_discrimination,2022.2.4,143.7880679109286,
positions.xlsx,stimuli.xlsx,test.xlsx,stimuli/Social1.png,stimuli/Social2.png,stimuli/Nonsocial1.png,stimuli/Nonsocial2.png,stimuli/Test1.png,stimuli/Test2.png,"(0.7, -0.5)",cs_plus_ns,"(-0.7, 0.5)",cs_plus_ns,0,0,0,0,,,,,0,46,46,81,,,,,,,,,,,,,,,269.8378622000455,270.844785400026,270.844785400026,270.99061950005125,271.4975204000366,271.4975204000366,271.64334460004466,l,correct,,272.5113705000258,272.94884240004467,270.844785400026,0.8601122999098152,,,,,,,,,,,,19,A,2023-12-11_16h57.56.882,gca_discrimination,2022.2.4,143.7880679109286,
positions.xlsx,stimuli.xlsx,test.xlsx,stimuli/Social1.png,stimuli/Social2.png,stimuli/Nonsocial1.png,stimuli/Nonsocial2.png,stimuli/Test1.png,stimuli/Test2.png,"(-0.7, -0.5)",cs_minus_ns,"(-0.7, 0.5)",cs_minus_ns,0,0,0,0,,,,,0,47,47,87,,,,,,,,,,,,,,,272.94884240004467,273.9557389000547,273.9557389000547,274.1015579000232,274.608512900013,274.608512900013,274.7543635000475,l,correct,,275.2890426000231,275.4973519000341,273.9557389000547,0.5250864999252371,,,,,,,,,,,,19,A,2023-12-11_16h57.56.882,gca_discrimination,2022.2.4,143.7880679109286,
positions.xlsx,stimuli.xlsx,test.xlsx,stimuli/Social1.png,stimuli/Social2.png,stimuli/Nonsocial1.png,stimuli/Nonsocial2.png,stimuli/Test1.png,stimuli/Test2.png,"(-0.7, 0.5)",cs_minus_ns,"(0.7, 0.5)",cs_plus_ns,0,0,0,0,,,,,0,48,48,37,,,,,,,,,,,,,,,275.4973519000341,276.5043133000145,276.5043133000145,276.6501125000068,277.15699340001447,277.15699340001447,277.3028642000281,ä,correct,,277.8444799000281,278.42781080002896,276.5043133000145,0.5292211999185383,,,,,,,,,,,,19,A,2023-12-11_16h57.56.882,gca_discrimination,2022.2.4,143.7880679109286,
positions.xlsx,stimuli.xlsx,test.xlsx,stimuli/Social1.png,stimuli/Social2.png,stimuli/Nonsocial1.png,stimuli/Nonsocial2.png,stimuli/Test1.png,stimuli/Test2.png,"(-0.7, 0.5)",cs_plus_s,"(0.7, -0.5)",cs_minus_s,0,0,0,0,,,,,0,49,49,2,,,,,,,,,,,,,,,278.42781080002896,279.43472630000906,279.43472630000906,279.5805703000515,280.08743130002404,280.08743130002404,280.233296600054,ä,correct,,280.58747270004824,280.6013594000251,279.43472630000906,0.34205519990064204,,,,,,,,,,,,19,A,2023-12-11_16h57.56.882,gca_discrimination,2022.2.4,143.7880679109286,
positions.xlsx,stimuli.xlsx,test.xlsx,stimuli/Social1.png,stimuli/Social2.png,stimuli/Nonsocial1.png,stimuli/Nonsocial2.png,stimuli/Test1.png,stimuli/Test2.png,"(-0.7, -0.5)",cs_minus_s,"(0.7, 0.5)",cs_minus_s,0,0,0,0,,,,,0,50,50,64,,,,,,,,,,,,,,,280.6013594000251,281.60823830001755,281.60823830001755,281.75407920003636,282.26100270001916,282.26100270001916,282.4068559000152,l,correct,,282.74708870000904,283.4553866000497,281.60823830001755,0.3284811999765225,,,,,,,,,,,,19,A,2023-12-11_16h57.56.882,gca_discrimination,2022.2.4,143.7880679109286,
positions.xlsx,stimuli.xlsx,test.xlsx,stimuli/Social1.png,stimuli/Social2.png,stimuli/Nonsocial1.png,stimuli/Nonsocial2.png,stimuli/Test1.png,stimuli/Test2.png,"(0.7, -0.5)",cs_minus_ns,"(0.7, 0.5)",cs_minus_ns,0,0,0,0,,,,,0,51,51,95,,,,,,,,,,,,,,,283.4553866000497,284.46231170004467,284.46231170004467,284.6081310000154,285.1150512000313,285.1150512000313,285.2609032000182,l,correct,,285.7191860000021,285.9830780000193,284.46231170004467,0.45044089993461967,,,,,,,,,,,,19,A,2023-12-11_16h57.56.882,gca_discrimination,2022.2.4,143.7880679109286,
positions.xlsx,stimuli.xlsx,test.xlsx,stimuli/Social1.png,stimuli/Social2.png,stimuli/Nonsocial1.png,stimuli/Nonsocial2.png,stimuli/Test1.png,stimuli/Test2.png,"(0.7, 0.5)",cs_plus_ns,"(-0.7, -0.5)",cs_plus_ns,0,0,0,0,,,,,0,52,52,79,,,,,,,,,,,,,,,285.9830780000193,286.98995930003,286.98995930003,287.1358052000287,287.64272940001683,287.64272940001683,287.7885634000413,l,correct,,288.4968511000043,288.97602450003615,286.98995930003,0.698508299945388,,,,,,,,,,,,19,A,2023-12-11_16h57.56.882,gca_discrimination,2022.2.4,143.7880679109286,
positions.xlsx,stimuli.xlsx,test.xlsx,stimuli/Social1.png,stimuli/Social2.png,stimuli/Nonsocial1.png,stimuli/Nonsocial2.png,stimuli/Test1.png,stimuli/Test2.png,"(0.7, 0.5)",cs_minus_s,"(-0.7, -0.5)",cs_plus_s,0,0,0,0,,,,,0,53,53,19,,,,,,,,,,,,,,,288.97602450003615,289.98290710005676,289.98290710005676,290.12877310003387,290.63566670002183,290.63566670002183,290.7814764000359,ä,correct,,291.2884208000032,291.47595880000154,289.98290710005676,0.497893399966415,,,,,,,,,,,,19,A,2023-12-11_16h57.56.882,gca_discrimination,2022.2.4,143.7880679109286,
positions.xlsx,stimuli.xlsx,test.xlsx,stimuli/Social1.png,stimuli/Social2.png,stimuli/Nonsocial1.png,stimuli/Nonsocial2.png,stimuli/Test1.png,stimuli/Test2.png,"(0.7, -0.5)",cs_minus_ns,"(0.7, 0.5)",cs_plus_ns,0,0,0,0,,,,,0,54,54,47,,,,,,,,,,,,,,,291.47595880000154,292.48282430000836,292.48282430000836,292.62865180004155,293.1355695000384,293.1355695000384,293.281408800045,ä,correct,,293.78135960001964,294.3229777000379,292.48282430000836,0.48673309991136193,,,,,,,,,,,,19,A,2023-12-11_16h57.56.882,gca_discrimination,2022.2.4,143.7880679109286,
positions.xlsx,stimuli.xlsx,test.xlsx,stimuli/Social1.png,stimuli/Social2.png,stimuli/Nonsocial1.png,stimuli/Nonsocial2.png,stimuli/Test1.png,stimuli/Test2.png,"(-0.7, 0.5)",cs_minus_s,"(0.7, 0.5)",cs_plus_s,0,0,0,0,,,,,0,55,55,13,,,,,,,,,,,,,,,294.3229777000379,295.32993540004827,295.32993540004827,295.4757636000286,295.9826961000217,295.9826961000217,296.12851570005296,ä,correct,,296.5451565000112,297.3437547000358,295.32993540004827,0.40639939991524443,,,,,,,,,,,,19,A,2023-12-11_16h57.56.882,gca_discrimination,2022.2.4,143.7880679109286,
positions.xlsx,stimuli.xlsx,test.xlsx,stimuli/Social1.png,stimuli/Social2.png,stimuli/Nonsocial1.png,stimuli/Nonsocial2.png,stimuli/Test1.png,stimuli/Test2.png,"(-0.7, -0.5)",cs_plus_s,"(0.7, 0.5)",cs_minus_s,0,0,0,0,,,,,0,56,56,4,,,,,,,,,,,,,,,297.3437547000358,298.35064180003246,298.35064180003246,298.4964493000298,299.003426100011,299.003426100011,299.14919980004197,ä,correct,,299.57974420004757,299.84364250005456,298.35064180003246,0.41781409992836416,,,,,,,,,,,,19,A,2023-12-11_16h57.56.882,gca_discrimination,2022.2.4,143.7880679109286,
positions.xlsx,stimuli.xlsx,test.xlsx,stimuli/Social1.png,stimuli/Social2.png,stimuli/Nonsocial1.png,stimuli/Nonsocial2.png,stimuli/Test1.png,stimuli/Test2.png,"(-0.7, 0.5)",cs_plus_ns,"(0.7, -0.5)",cs_minus_ns,0,0,0,0,,,,,0,57,57,26,,,,,,,,,,,,,,,299.84364250005456,300.85056810005335,300.85056810005335,300.9963854000089,301.5032954000053,301.5032954000053,301.64912510005524,ä,correct,,302.1074599000276,302.60744480002904,300.85056810005335,0.44753939990187064,,,,,,,,,,,,19,A,2023-12-11_16h57.56.882,gca_discrimination,2022.2.4,143.7880679109286,
positions.xlsx,stimuli.xlsx,test.xlsx,stimuli/Social1.png,stimuli/Social2.png,stimuli/Nonsocial1.png,stimuli/Nonsocial2.png,stimuli/Test1.png,stimuli/Test2.png,"(-0.7, -0.5)",cs_plus_ns,"(0.7, 0.5)",cs_plus_ns,0,0,0,0,,,,,0,58,58,76,,,,,,,,,,,,,,,302.60744480002904,303.6143579000491,303.6143579000491,303.76015560003,304.267116300005,304.267116300005,304.41289660002803,l,correct,,304.87121650000336,305.100363000005,303.6143579000491,0.4508501999662258,,,,,,,,,,,,19,A,2023-12-11_16h57.56.882,gca_discrimination,2022.2.4,143.7880679109286,
positions.xlsx,stimuli.xlsx,test.xlsx,stimuli/Social1.png,stimuli/Social2.png,stimuli/Nonsocial1.png,stimuli/Nonsocial2.png,stimuli/Test1.png,stimuli/Test2.png,"(-0.7, -0.5)",cs_plus_s,"(-0.7, 0.5)",cs_plus_s,0,0,0,0,,,,,0,59,59,51,,,,,,,,,,,,,,,305.100363000005,306.1072866000468,306.1072866000468,306.25311260001035,306.7600534000085,306.7600534000085,306.905842200038,l,correct,,307.6141943000257,308.06551530002616,306.1072866000468,0.7013862999156117,,,,,,,,,,,,19,A,2023-12-11_16h57.56.882,gca_discrimination,2022.2.4,143.7880679109286,
positions.xlsx,stimuli.xlsx,test.xlsx,stimuli/Social1.png,stimuli/Social2.png,stimuli/Nonsocial1.png,stimuli/Nonsocial2.png,stimuli/Test1.png,stimuli/Test2.png,"(-0.7, -0.5)",cs_minus_ns,"(-0.7, 0.5)",cs_plus_ns,0,0,0,0,,,,,0,60,60,39,,,,,,,,,,,,,,,308.06551530002616,309.072493500018,309.072493500018,309.2182783000171,309.7252042000182,309.7252042000182,309.8710395000526,ä,correct,,310.60017070005415,311.5029057000065,309.072493500018,0.719892299908679,,,,,,,,,,,,19,A,2023-12-11_16h57.56.882,gca_discrimination,2022.2.4,143.7880679109286,
positions.xlsx,stimuli.xlsx,test.xlsx,stimuli/Social1.png,stimuli/Social2.png,stimuli/Nonsocial1.png,stimuli/Nonsocial2.png,stimuli/Test1.png,stimuli/Test2.png,"(-0.7, 0.5)",cs_plus_s,"(-0.7, -0.5)",cs_plus_s,0,0,0,0,,,,,0,61,61,48,,,,,,,,,,,,,,,311.5029057000065,312.5098270000308,312.5098270000308,312.6556656000321,313.1626049000188,313.1626049000188,313.30835200002184,l,correct,,313.76669150003,314.7250097000506,312.5098270000308,0.4510419999714941,,,,,,,,,,,,19,A,2023-12-11_16h57.56.882,gca_discrimination,2022.2.4,143.7880679109286,
positions.xlsx,stimuli.xlsx,test.xlsx,stimuli/Social1.png,stimuli/Social2.png,stimuli/Nonsocial1.png,stimuli/Nonsocial2.png,stimuli/Test1.png,stimuli/Test2.png,"(0.7, -0.5)",cs_plus_ns,"(-0.7, -0.5)",cs_minus_ns,0,0,0,0,,,,,0,62,62,34,,,,,,,,,,,,,,,314.7250097000506,315.73190950002754,315.73190950002754,315.8777254000306,316.3846730000223,316.3846730000223,316.5304951000144,ä,correct,,316.98882370005595,317.4332478000433,315.73190950002754,0.44613159995060414,,,,,,,,,,,,19,A,2023-12-11_16h57.56.882,gca_discrimination,2022.2.4,143.7880679109286,
positions.xlsx,stimuli.xlsx,test.xlsx,stimuli/Social1.png,stimuli/Social2.png,stimuli/Nonsocial1.png,stimuli/Nonsocial2.png,stimuli/Test1.png,stimuli/Test2.png,"(-0.7, -0.5)",cs_plus_s,"(0.7, 0.5)",cs_plus_s,0,0,0,0,,,,,0,63,63,52,,,,,,,,,,,,,,,317.4332478000433,318.44015310000395,318.44015310000395,318.58596710005077,319.0929125000257,319.0929125000257,319.2387170000002,l,correct,,319.7664622000302,319.91924990003463,318.44015310000395,0.5202056998969056,,,,,,,,,,,,19,A,2023-12-11_16h57.56.882,gca_discrimination,2022.2.4,143.7880679109286,
positions.xlsx,stimuli.xlsx,test.xlsx,stimuli/Social1.png,stimuli/Social2.png,stimuli/Nonsocial1.png,stimuli/Nonsocial2.png,stimuli/Test1.png,stimuli/Test2.png,"(-0.7, 0.5)",cs_plus_ns,"(0.7, 0.5)",cs_minus_ns,0,0,0,0,,,,,0,64,64,25,,,,,,,,,,,,,,,319.91924990003463,320.92613380000694,320.92613380000694,321.0719847000437,321.5789286000072,321.5789286000072,321.7247480000369,ä,correct,,322.5510674000252,323.0094088000478,320.92613380000694,0.8180135999573395,,,,,,,,,,,,19,A,2023-12-11_16h57.56.882,gca_discrimination,2022.2.4,143.7880679109286,
positions.xlsx,stimuli.xlsx,test.xlsx,stimuli/Social1.png,stimuli/Social2.png,stimuli/Nonsocial1.png,stimuli/Nonsocial2.png,stimuli/Test1.png,stimuli/Test2.png,"(0.7, 0.5)",cs_minus_ns,"(-0.7, -0.5)",cs_plus_ns,0,0,0,0,,,,,0,65,65,43,,,,,,,,,,,,,,,323.0094088000478,324.0163326000329,324.0163326000329,324.16212710004766,324.6690707000089,324.6690707000089,324.8148842000519,ä,correct,,325.6204218000057,325.78705720003927,324.0163326000329,0.7933950999286026,,,,,,,,,,,,19,A,2023-12-11_16h57.56.882,gca_discrimination,2022.2.4,143.7880679109286,
positions.xlsx,stimuli.xlsx,test.xlsx,stimuli/Social1.png,stimuli/Social2.png,stimuli/Nonsocial1.png,stimuli/Nonsocial2.png,stimuli/Test1.png,stimuli/Test2.png,"(0.7, 0.5)",cs_plus_ns,"(-0.7, 0.5)",cs_minus_ns,0,0,0,0,,,,,0,66,66,30,,,,,,,,,,,,,,,325.78705720003927,326.7939811000251,326.7939811000251,326.93981320003513,327.4467128000106,327.4467128000106,327.5925614000298,ä,correct,,328.5022284000297,329.2036080000107,326.7939811000251,0.902367599948775,,,,,,,,,,,,19,A,2023-12-11_16h57.56.882,gca_discrimination,2022.2.4,143.7880679109286,
positions.xlsx,stimuli.xlsx,test.xlsx,stimuli/Social1.png,stimuli/Social2.png,stimuli/Nonsocial1.png,stimuli/Nonsocial2.png,stimuli/Test1.png,stimuli/Test2.png,"(-0.7, -0.5)",cs_plus_ns,"(-0.7, 0.5)",cs_plus_ns,0,0,0,0,,,,,0,67,67,75,,,,,,,,,,,,,,,329.2036080000107,330.21052160003455,330.21052160003455,330.35636380000506,330.8632691000239,330.8632691000239,331.0091025000438,l,correct,,331.3007495000493,331.7451753000496,330.21052160003455,0.2785063999472186,,,,,,,,,,,,19,A,2023-12-11_16h57.56.882,gca_discrimination,2022.2.4,143.7880679109286,
positions.xlsx,stimuli.xlsx,test.xlsx,stimuli/Social1.png,stimuli/Social2.png,stimuli/Nonsocial1.png,stimuli/Nonsocial2.png,stimuli/Test1.png,stimuli/Test2.png,"(0.7, 0.5)",cs_plus_ns,"(0.7, -0.5)",cs_minus_ns,0,0,0,0,,,,,0,68,68,32,,,,,,,,,,,,,,,331.7451753000496,332.75212710001506,332.75212710001506,332.89788290002616,333.40484630002175,333.40484630002175,333.55068230000325,ä,correct,,333.9603804000071,334.3006336000399,332.75212710001506,0.40204049996100366,,,,,,,,,,,,19,A,2023-12-11_16h57.56.882,gca_discrimination,2022.2.4,143.7880679109286,
positions.xlsx,stimuli.xlsx,test.xlsx,stimuli/Social1.png,stimuli/Social2.png,stimuli/Nonsocial1.png,stimuli/Nonsocial2.png,stimuli/Test1.png,stimuli/Test2.png,"(-0.7, -0.5)",cs_minus_s,"(-0.7, 0.5)",cs_plus_s,0,0,0,0,,,,,0,69,69,15,,,,,,,,,,,,,,,334.3006336000399,335.3075616999995,335.3075616999995,335.4533762000501,335.9602967000101,335.9602967000101,336.10614060005173,ä,correct,,336.52973120001843,337.4602050000103,335.3075616999995,0.41443749994505197,,,,,,,,,,,,19,A,2023-12-11_16h57.56.882,gca_discrimination,2022.2.4,143.7880679109286,
positions.xlsx,stimuli.xlsx,test.xlsx,stimuli/Social1.png,stimuli/Social2.png,stimuli/Nonsocial1.png,stimuli/Nonsocial2.png,stimuli/Test1.png,stimuli/Test2.png,"(0.7, 0.5)",cs_minus_ns,"(0.7, -0.5)",cs_minus_ns,0,0,0,0,,,,,0,70,70,92,,,,,,,,,,,,,,,337.4602050000103,338.4671496000374,338.4671496000374,338.61295380000956,339.1199357000296,339.1199357000296,339.2657339000143,l,correct,,339.68236930004787,340.27263250004034,338.4671496000374,0.40554869995685294,,,,,,,,,,,,19,A,2023-12-11_16h57.56.882,gca_discrimination,2022.2.4,143.7880679109286,
positions.xlsx,stimuli.xlsx,test.xlsx,stimuli/Social1.png,stimuli/Social2.png,stimuli/Nonsocial1.png,stimuli/Nonsocial2.png,stimuli/Test1.png,stimuli/Test2.png,"(-0.7, -0.5)",cs_minus_s,"(0.7, 0.5)",cs_plus_s,0,0,0,0,,,,,0,71,71,16,,,,,,,,,,,,,,,340.27263250004034,341.27953790000174,341.27953790000174,341.42536560003646,341.9322955000098,341.9322955000098,342.07810160005465,ä,correct,,342.48085540003376,342.75864620000357,341.27953790000174,0.3930219999165274,,,,,,,,,,,,19,A,2023-12-11_16h57.56.882,gca_discrimination,2022.2.4,143.7880679109286,
positions.xlsx,stimuli.xlsx,test.xlsx,stimuli/Social1.png,stimuli/Social2.png,stimuli/Nonsocial1.png,stimuli/Nonsocial2.png,stimuli/Test1.png,stimuli/Test2.png,"(-0.7, -0.5)",cs_plus_ns,"(0.7, -0.5)",cs_plus_ns,0,0,0,0,,,,,0,72,72,77,,,,,,,,,,,,,,,342.75864620000357,343.76555240002926,343.76555240002926,343.9113845000393,344.41831300000194,344.41831300000194,344.5641230000183,l,correct,,345.0502374000498,345.8140878000413,343.76555240002926,0.47469769994495437,,,,,,,,,,,,19,A,2023-12-11_16h57.56.882,gca_discrimination,2022.2.4,143.7880679109286,
positions.xlsx,stimuli.xlsx,test.xlsx,stimuli/Social1.png,stimuli/Social2.png,stimuli/Nonsocial1.png,stimuli/Nonsocial2.png,stimuli/Test1.png,stimuli/Test2.png,"(0.7, 0.5)",cs_minus_s,"(0.7, -0.5)",cs_minus_s,0,0,0,0,,,,,0,73,73,68,,,,,,,,,,,,,,,345.8140878000413,346.82099260005634,346.82099260005634,346.9668121000286,347.4737662000116,347.4737662000116,347.61954440001864,l,correct,,348.14039230003254,349.0084448000416,346.82099260005634,0.5085779999499209,,,,,,,,,,,,19,A,2023-12-11_16h57.56.882,gca_discrimination,2022.2.4,143.7880679109286,
positions.xlsx,stimuli.xlsx,test.xlsx,stimuli/Social1.png,stimuli/Social2.png,stimuli/Nonsocial1.png,stimuli/Nonsocial2.png,stimuli/Test1.png,stimuli/Test2.png,"(-0.7, 0.5)",cs_plus_ns,"(-0.7, -0.5)",cs_plus_ns,0,0,0,0,,,,,0,74,74,72,,,,,,,,,,,,,,,349.0084448000416,350.01527220004937,350.01527220004937,350.1611242000363,350.66802870004904,350.66802870004904,350.81385410000803,None,no answer,,352.81381810002495,353.50825510005234,350.01527220004937,,,,,,,,,,,,,19,A,2023-12-11_16h57.56.882,gca_discrimination,2022.2.4,143.7880679109286,
positions.xlsx,stimuli.xlsx,test.xlsx,stimuli/Social1.png,stimuli/Social2.png,stimuli/Nonsocial1.png,stimuli/Nonsocial2.png,stimuli/Test1.png,stimuli/Test2.png,"(0.7, -0.5)",cs_minus_ns,"(-0.7, 0.5)",cs_minus_ns,0,0,0,0,,,,,0,75,75,93,,,,,,,,,,,,,,,353.50825510005234,354.5151458000182,354.5151458000182,354.66093770001316,355.167905600043,355.167905600043,355.3137047000346,l,correct,,355.9595425000298,356.6608812000486,354.5151458000182,0.6377896999474615,,,,,,,,,,,,19,A,2023-12-11_16h57.56.882,gca_discrimination,2022.2.4,143.7880679109286,
positions.xlsx,stimuli.xlsx,test.xlsx,stimuli/Social1.png,stimuli/Social2.png,stimuli/Nonsocial1.png,stimuli/Nonsocial2.png,stimuli/Test1.png,stimuli/Test2.png,"(-0.7, -0.5)",cs_plus_s,"(0.7, -0.5)",cs_plus_s,0,0,0,0,,,,,0,76,76,53,,,,,,,,,,,,,,,356.6608812000486,357.66778880002676,357.66778880002676,357.81360930000665,358.3205565000535,358.3205565000535,358.4663641000516,l,correct,,358.9107959000394,359.1191218000022,357.66778880002676,0.4372037998982705,,,,,,,,,,,,19,A,2023-12-11_16h57.56.882,gca_discrimination,2022.2.4,143.7880679109286,
positions.xlsx,stimuli.xlsx,test.xlsx,stimuli/Social1.png,stimuli/Social2.png,stimuli/Nonsocial1.png,stimuli/Nonsocial2.png,stimuli/Test1.png,stimuli/Test2.png,"(-0.7, -0.5)",cs_plus_s,"(-0.7, 0.5)",cs_minus_s,0,0,0,0,,,,,0,77,77,3,,,,,,,,,,,,,,,359.1191218000022,360.12602910003625,360.12602910003625,360.2718383000465,360.7787753000157,360.7787753000157,360.92463730002055,ä,correct,,361.7232425000402,362.50093410001136,360.12602910003625,0.7866928999428637,,,,,,,,,,,,19,A,2023-12-11_16h57.56.882,gca_discrimination,2022.2.4,143.7880679109286,
positions.xlsx,stimuli.xlsx,test.xlsx,stimuli/Social1.png,stimuli/Social2.png,stimuli/Nonsocial1.png,stimuli/Nonsocial2.png,stimuli/Test1.png,stimuli/Test2.png,"(0.7, -0.5)",cs_minus_s,"(0.7, 0.5)",cs_minus_s,0,0,0,0,,,,,0,78,78,71,,,,,,,,,,,,,,,362.50093410001136,363.50781760003883,363.50781760003883,363.65368070005206,364.16067570005544,364.16067570005544,364.30638900003396,l,correct,,364.6467364000273,364.7439093000139,363.50781760003883,0.3333284999243915,,,,,,,,,,,,19,A,2023-12-11_16h57.56.882,gca_discrimination,2022.2.4,143.7880679109286,
positions.xlsx,stimuli.xlsx,test.xlsx,stimuli/Social1.png,stimuli/Social2.png,stimuli/Nonsocial1.png,stimuli/Nonsocial2.png,stimuli/Test1.png,stimuli/Test2.png,"(-0.7, 0.5)",cs_plus_ns,"(0.7, 0.5)",cs_plus_ns,0,0,0,0,,,,,0,79,79,73,,,,,,,,,,,,,,,364.7439093000139,365.7508077000384,365.7508077000384,365.8966262000031,366.40358370001195,366.40358370001195,366.5493564000353,l,correct,,367.1049218000262,367.8479897000361,365.7508077000384,0.5466860999003984,,,,,,,,,,,,19,A,2023-12-11_16h57.56.882,gca_discrimination,2022.2.4,143.7880679109286,
positions.xlsx,stimuli.xlsx,test.xlsx,stimuli/Social1.png,stimuli/Social2.png,stimuli/Nonsocial1.png,stimuli/Nonsocial2.png,stimuli/Test1.png,stimuli/Test2.png,"(-0.7, 0.5)",cs_minus_ns,"(0.7, 0.5)",cs_minus_ns,0,0,0,0,,,,,0,80,80,85,,,,,,,,,,,,,,,367.8479897000361,368.8548600000213,368.8548600000213,369.0006797000533,369.507627300045,369.507627300045,369.65339850005694,l,correct,,370.20896920002997,370.3269928000518,368.8548600000213,0.5462836999213323,,,,,,,,,,,,19,A,2023-12-11_16h57.56.882,gca_discrimination,2022.2.4,143.7880679109286,
positions.xlsx,stimuli.xlsx,test.xlsx,stimuli/Social1.png,stimuli/Social2.png,stimuli/Nonsocial1.png,stimuli/Nonsocial2.png,stimuli/Test1.png,stimuli/Test2.png,"(0.7, 0.5)",cs_minus_ns,"(-0.7, 0.5)",cs_minus_ns,0,0,0,0,,,,,0,81,81,90,,,,,,,,,,,,,,,370.3269928000518,371.3339127000072,371.3339127000072,371.47975070000393,371.9866916000028,371.9866916000028,372.1325077000074,l,correct,,372.79913560004206,372.92413460003445,371.3339127000072,0.6591434999718331,,,,,,,,,,,,19,A,2023-12-11_16h57.56.882,gca_discrimination,2022.2.4,143.7880679109286,
positions.xlsx,stimuli.xlsx,test.xlsx,stimuli/Social1.png,stimuli/Social2.png,stimuli/Nonsocial1.png,stimuli/Nonsocial2.png,stimuli/Test1.png,stimuli/Test2.png,"(0.7, -0.5)",cs_plus_s,"(0.7, 0.5)",cs_minus_s,0,0,0,0,,,,,0,82,82,11,,,,,,,,,,,,,,,372.92413460003445,373.9310689000413,373.9310689000413,374.07687290001195,374.58381760003977,374.58381760003977,374.72962540003937,ä,correct,,375.5351527000312,375.542109800037,373.9310689000413,0.797325799940154,,,,,,,,,,,,19,A,2023-12-11_16h57.56.882,gca_discrimination,2022.2.4,143.7880679109286,
positions.xlsx,stimuli.xlsx,test.xlsx,stimuli/Social1.png,stimuli/Social2.png,stimuli/Nonsocial1.png,stimuli/Nonsocial2.png,stimuli/Test1.png,stimuli/Test2.png,"(-0.7, -0.5)",cs_minus_ns,"(0.7, 0.5)",cs_minus_ns,0,0,0,0,,,,,0,83,83,88,,,,,,,,,,,,,,,375.542109800037,376.5490512000397,376.5490512000397,376.69484020001255,377.2017716000555,377.2017716000555,377.34755240002414,l,correct,,377.89617270004237,378.80588480003644,376.5490512000397,0.5403400999493897,,,,,,,,,,,,19,A,2023-12-11_16h57.56.882,gca_discrimination,2022.2.4,143.7880679109286,
positions.xlsx,stimuli.xlsx,test.xlsx,stimuli/Social1.png,stimuli/Social2.png,stimuli/Nonsocial1.png,stimuli/Nonsocial2.png,stimuli/Test1.png,stimuli/Test2.png,"(-0.7, -0.5)",cs_minus_ns,"(0.7, -0.5)",cs_minus_ns,0,0,0,0,,,,,0,84,84,89,,,,,,,,,,,,,,,378.80588480003644,379.81278140004724,379.81278140004724,379.95861370000057,380.4655213000369,380.4655213000369,380.61135210003704,l,correct,,381.166884700011,381.52796610002406,379.81278140004724,0.5478970999247395,,,,,,,,,,,,19,A,2023-12-11_16h57.56.882,gca_discrimination,2022.2.4,143.7880679109286,
positions.xlsx,stimuli.xlsx,test.xlsx,stimuli/Social1.png,stimuli/Social2.png,stimuli/Nonsocial1.png,stimuli/Nonsocial2.png,stimuli/Test1.png,stimuli/Test2.png,"(0.7, -0.5)",cs_plus_ns,"(-0.7, -0.5)",cs_plus_ns,0,0,0,0,,,,,0,85,85,82,,,,,,,,,,,,,,,381.52796610002406,382.53488130000187,382.53488130000187,382.68070680001983,383.18764660001034,383.18764660001034,383.33346140000504,l,correct,,384.1111841000384,384.3820190000115,382.53488130000187,0.7700935999746434,,,,,,,,,,,,19,A,2023-12-11_16h57.56.882,gca_discrimination,2022.2.4,143.7880679109286,
positions.xlsx,stimuli.xlsx,test.xlsx,stimuli/Social1.png,stimuli/Social2.png,stimuli/Nonsocial1.png,stimuli/Nonsocial2.png,stimuli/Test1.png,stimuli/Test2.png,"(0.7, 0.5)",cs_plus_s,"(0.7, -0.5)",cs_minus_s,0,0,0,0,,,,,0,86,86,8,,,,,,,,,,,,,,,384.3820190000115,385.3889477000339,385.3889477000339,385.5347604000126,386.04169910005294,386.04169910005294,386.18751390004763,ä,correct,,386.63194700004533,387.57636740000453,385.3889477000339,0.43589159991825,,,,,,,,,,,,19,A,2023-12-11_16h57.56.882,gca_discrimination,2022.2.4,143.7880679109286,
positions.xlsx,stimuli.xlsx,test.xlsx,stimuli/Social1.png,stimuli/Social2.png,stimuli/Nonsocial1.png,stimuli/Nonsocial2.png,stimuli/Test1.png,stimuli/Test2.png,"(-0.7, 0.5)",cs_minus_ns,"(-0.7, -0.5)",cs_plus_ns,0,0,0,0,,,,,0,87,87,36,,,,,,,,,,,,,,,387.57636740000453,388.5832798000192,388.5832798000192,388.72908570000436,389.23601310001686,389.23601310001686,389.3818342000013,ä,correct,,389.9165178000112,390.715095200052,388.5832798000192,0.5220512999803759,,,,,,,,,,,,19,A,2023-12-11_16h57.56.882,gca_discrimination,2022.2.4,143.7880679109286,
positions.xlsx,stimuli.xlsx,test.xlsx,stimuli/Social1.png,stimuli/Social2.png,stimuli/Nonsocial1.png,stimuli/Nonsocial2.png,stimuli/Test1.png,stimuli/Test2.png,"(0.7, -0.5)",cs_minus_s,"(-0.7, 0.5)",cs_minus_s,0,0,0,0,,,,,0,88,88,69,,,,,,,,,,,,,,,390.715095200052,391.722018200031,391.722018200031,391.8678410000284,392.3748135000351,392.3748135000351,392.5206058000331,l,correct,,392.992827100039,393.22195890004514,391.722018200031,0.46241279994137585,,,,,,,,,,,,19,A,2023-12-11_16h57.56.882,gca_discrimination,2022.2.4,143.7880679109286,
positions.xlsx,stimuli.xlsx,test.xlsx,stimuli/Social1.png,stimuli/Social2.png,stimuli/Nonsocial1.png,stimuli/Nonsocial2.png,stimuli/Test1.png,stimuli/Test2.png,"(-0.7, 0.5)",cs_minus_s,"(0.7, -0.5)",cs_plus_s,0,0,0,0,,,,,0,89,89,14,,,,,,,,,,,,,,,393.22195890004514,394.2288959000143,394.2288959000143,394.37467850005487,394.88165120000485,394.88165120000485,395.0274429000565,ä,correct,,395.47881410003174,396.1871293000295,394.2288959000143,0.4438517999369651,,,,,,,,,,,,19,A,2023-12-11_16h57.56.882,gca_discrimination,2022.2.4,143.7880679109286,
positions.xlsx,stimuli.xlsx,test.xlsx,stimuli/Social1.png,stimuli/Social2.png,stimuli/Nonsocial1.png,stimuli/Nonsocial2.png,stimuli/Test1.png,stimuli/Test2.png,"(-0.7, 0.5)",cs_plus_ns,"(-0.7, -0.5)",cs_minus_ns,0,0,0,0,,,,,0,90,90,24,,,,,,,,,,,,,,,396.1871293000295,397.1940243000281,397.1940243000281,397.33987960004015,397.8467960000271,397.8467960000271,397.9926305000554,ä,correct,,398.520382000017,398.9162170000491,397.1940243000281,0.5190118999453261,,,,,,,,,,,,19,A,2023-12-11_16h57.56.882,gca_discrimination,2022.2.4,143.7880679109286,
positions.xlsx,stimuli.xlsx,test.xlsx,stimuli/Social1.png,stimuli/Social2.png,stimuli/Nonsocial1.png,stimuli/Nonsocial2.png,stimuli/Test1.png,stimuli/Test2.png,"(-0.7, 0.5)",cs_plus_s,"(0.7, -0.5)",cs_plus_s,0,0,0,0,,,,,0,91,91,50,,,,,,,,,,,,,,,398.9162170000491,399.9231461000163,399.9231461000163,400.06892410002183,400.5758596000378,400.5758596000378,400.72170510003343,l,correct,,401.24943350005196,402.19382630003383,399.9231461000163,0.5181007999344729,,,,,,,,,,,,19,A,2023-12-11_16h57.56.882,gca_discrimination,2022.2.4,143.7880679109286,
positions.xlsx,stimuli.xlsx,test.xlsx,stimuli/Social1.png,stimuli/Social2.png,stimuli/Nonsocial1.png,stimuli/Nonsocial2.png,stimuli/Test1.png,stimuli/Test2.png,"(0.7, 0.5)",cs_minus_ns,"(-0.7, -0.5)",cs_minus_ns,0,0,0,0,,,,,0,92,92,91,,,,,,,,,,,,,,,402.19382630003383,403.20075440005166,403.20075440005166,403.3465823000297,403.8535128000076,403.8535128000076,403.9993385000271,l,correct,,404.46458590001566,405.28400920005515,403.20075440005166,0.4563530999585055,,,,,,,,,,,,19,A,2023-12-11_16h57.56.882,gca_discrimination,2022.2.4,143.7880679109286,
positions.xlsx,stimuli.xlsx,test.xlsx,stimuli/Social1.png,stimuli/Social2.png,stimuli/Nonsocial1.png,stimuli/Nonsocial2.png,stimuli/Test1.png,stimuli/Test2.png,"(-0.7, 0.5)",cs_minus_s,"(0.7, 0.5)",cs_minus_s,0,0,0,0,,,,,0,93,93,61,,,,,,,,,,,,,,,405.28400920005515,406.29092990001664,406.29092990001664,406.4367471000296,406.9436398000107,406.9436398000107,407.0894634000142,l,correct,,407.61030660005054,408.4088518000208,406.29092990001664,0.5101139999460429,,,,,,,,,,,,19,A,2023-12-11_16h57.56.882,gca_discrimination,2022.2.4,143.7880679109286,
positions.xlsx,stimuli.xlsx,test.xlsx,stimuli/Social1.png,stimuli/Social2.png,stimuli/Nonsocial1.png,stimuli/Nonsocial2.png,stimuli/Test1.png,stimuli/Test2.png,"(-0.7, -0.5)",cs_minus_ns,"(0.7, 0.5)",cs_plus_ns,0,0,0,0,,,,,0,94,94,40,,,,,,,,,,,,,,,408.4088518000208,409.41581270005554,409.41581270005554,409.5616706000292,410.0685385000543,410.0685385000543,410.21439630002715,ä,correct,,411.08241090003867,411.2143561000121,409.41581270005554,0.858274599944707,,,,,,,,,,,,19,A,2023-12-11_16h57.56.882,gca_discrimination,2022.2.4,143.7880679109286,
positions.xlsx,stimuli.xlsx,test.xlsx,stimuli/Social1.png,stimuli/Social2.png,stimuli/Nonsocial1.png,stimuli/Nonsocial2.png,stimuli/Test1.png,stimuli/Test2.png,"(-0.7, 0.5)",cs_minus_s,"(-0.7, -0.5)",cs_plus_s,0,0,0,0,,,,,0,95,95,12,,,,,,,,,,,,,,,411.2143561000121,412.2212271000026,412.2212271000026,412.36705180001445,412.87398960004793,412.87398960004793,413.01983690005727,ä,correct,,413.6170454000239,414.47117440000875,412.2212271000026,0.5875158999115229,,,,,,,,,,,,19,A,2023-12-11_16h57.56.882,gca_discrimination,2022.2.4,143.7880679109286,
