posFile,stimFile,testFile,cs_plus_s,cs_minus_s,cs_plus_ns,cs_minus_ns,test1,test2,position1,trialtype,position2,comptype,blocks.thisRepN,blocks.thisTrialN,blocks.thisN,blocks.thisIndex,learning_trials.thisRepN,learning_trials.thisTrialN,learning_trials.thisN,learning_trials.thisIndex,trials.thisRepN,trials.thisTrialN,trials.thisN,trials.thisIndex,textStart.started,spaceStart.started,spaceStart.keys,spaceStart.rt,textStartExp.started,textExpImages.started,ImageLearning1.started,ImageLearning2.started,textSpace.started,spaceStartExp.started,spaceStartExp.keys,spaceStartExp.rt,blankScreen.started,blankScreen.stopped,fixcross.started,firstImage.started,fixcrossImage1.started,fixcrossITI.started,secondImage.started,fixcrossImage2.started,key.started,key.keys,key.rt,correctness,feedbackText.started,fixcrossEnd.started,fixcrossEnd.stopped,fixcross.stopped,feedbackText.stopped,textStartTask.started,textTaskImages.started,ImageTask1.started,ImageTask2.started,ImageTask3.started,ImageTask4.started,textTaskSpace.started,spaceStartTask.started,spaceStartTask.keys,spaceStartTask.rt,participant,group,date,expName,psychopyVersion,frameRate,
,,,,,,,,,,,,,,,,,,,,,,,,,11.85175079999317,11.85175079999317,space,2.7741351000149734,,,,,,,,,,,,,,,,,,,,,,,,,,,,,,,,,,,,14,C,2023-12-08_15h29.57.069,gca_discrimination,2022.2.4,143.75148244923523,
positions.xlsx,stimuli.xlsx,test.xlsx,stimuli/Social1.png,stimuli/Social2.png,stimuli/Nonsocial2.png,stimuli/Nonsocial1.png,stimuli/Test1.png,stimuli/Test2.png,"(-0.7, 0.5)",test2,"(-0.7, -0.5)",test2,0,0,0,0,0,0,0,1,,,,,,,,,14.64331049998873,14.64331049998873,14.64331049998873,14.64331049998873,14.64331049998873,14.64331049998873,space,30.054881300005945,44.711582099989755,46.579573099996196,46.579573099996196,47.59340399999928,47.59340399999928,47.725383699988015,48.23923439999635,48.23923439999635,48.37813339999411,l,1.4794041000131983,correct,49.878057299996726,51.877986699997564,52.26688799999829,,,,,,,,,,,,,14,C,2023-12-08_15h29.57.069,gca_discrimination,2022.2.4,143.75148244923523,
positions.xlsx,stimuli.xlsx,test.xlsx,stimuli/Social1.png,stimuli/Social2.png,stimuli/Nonsocial2.png,stimuli/Nonsocial1.png,stimuli/Test1.png,stimuli/Test2.png,"(-0.7, -0.5)",test2,"(0.7, 0.5)",test2,0,0,0,0,0,1,1,7,,,,,,,,,,,,,,,,,,,52.26688799999829,53.26684819998627,53.26684819998627,53.419625700000324,53.91958039999008,53.91958039999008,54.07232949999161,l,1.2088927000149852,correct,55.29451799999515,57.29442669999844,57.474995099997614,53.26684819998627,57.29442669999844,,,,,,,,,,,14,C,2023-12-08_15h29.57.069,gca_discrimination,2022.2.4,143.75148244923523,
positions.xlsx,stimuli.xlsx,test.xlsx,stimuli/Social1.png,stimuli/Social2.png,stimuli/Nonsocial2.png,stimuli/Nonsocial1.png,stimuli/Test1.png,stimuli/Test2.png,"(-0.7, -0.5)",test1,"(0.7, 0.5)",test2,0,0,0,0,0,2,2,8,,,,,,,,,,,,,,,,,,,57.474995099997614,58.47496229999524,58.47496229999524,58.62772349998704,59.1277107999922,59.1277107999922,59.280486899995594,ä,1.009311500019976,correct,60.30127859998902,62.30119619998732,62.585908299995936,58.47496229999524,62.30119619998732,,,,,,,,,,,14,C,2023-12-08_15h29.57.069,gca_discrimination,2022.2.4,143.75148244923523,
positions.xlsx,stimuli.xlsx,test.xlsx,stimuli/Social1.png,stimuli/Social2.png,stimuli/Nonsocial2.png,stimuli/Nonsocial1.png,stimuli/Test1.png,stimuli/Test2.png,"(-0.7, 0.5)",test2,"(0.7, 0.5)",test1,0,0,0,0,0,3,3,3,,,,,,,,,,,,,,,,,,,62.585908299995936,63.58586629999627,63.58586629999627,63.738640999989,64.23863989999518,64.23863989999518,64.39139189998969,ä,0.8663719000178389,correct,65.26635969999188,67.26628999999957,67.73851379999542,63.58586629999627,67.26628999999957,,,,,,,,,,,14,C,2023-12-08_15h29.57.069,gca_discrimination,2022.2.4,143.75148244923523,
positions.xlsx,stimuli.xlsx,test.xlsx,stimuli/Social1.png,stimuli/Social2.png,stimuli/Nonsocial2.png,stimuli/Nonsocial1.png,stimuli/Test1.png,stimuli/Test2.png,"(0.7, 0.5)",test1,"(0.7, -0.5)",test2,0,0,0,0,0,4,4,11,,,,,,,,,,,,,,,,,,,67.73851379999542,68.73844239999016,68.73844239999016,68.89122189999034,69.39120629998797,69.39120629998797,69.5439941999939,None,,no answer,71.55081509999582,73.54380329999549,73.62016719998792,68.73844239999016,,,,,,,,,,,,14,C,2023-12-08_15h29.57.069,gca_discrimination,2022.2.4,143.75148244923523,
positions.xlsx,stimuli.xlsx,test.xlsx,stimuli/Social1.png,stimuli/Social2.png,stimuli/Nonsocial2.png,stimuli/Nonsocial1.png,stimuli/Test1.png,stimuli/Test2.png,"(0.7, 0.5)",test2,"(0.7, -0.5)",test1,0,0,0,0,0,5,5,6,,,,,,,,,,,,,,,,,,,73.62016719998792,74.62711319999653,74.62711319999653,74.77292309999757,75.27985629999603,75.27985629999603,75.42566049999732,ä,0.3682470000057947,correct,75.80062189999444,77.80059299999266,78.11305109999375,74.62711319999653,77.80059299999266,,,,,,,,,,,14,C,2023-12-08_15h29.57.069,gca_discrimination,2022.2.4,143.75148244923523,
positions.xlsx,stimuli.xlsx,test.xlsx,stimuli/Social1.png,stimuli/Social2.png,stimuli/Nonsocial2.png,stimuli/Nonsocial1.png,stimuli/Test1.png,stimuli/Test2.png,"(-0.7, 0.5)",test2,"(0.7, -0.5)",test1,0,0,0,0,0,6,6,12,,,,,,,,,,,,,,,,,,,78.11305109999375,79.11998999999196,79.11998999999196,79.26581420000002,79.76575509998656,79.76575509998656,79.91854869999224,ä,0.4509921000135364,correct,80.37687559999176,82.37680639998871,82.39762699999847,79.11998999999196,82.37680639998871,,,,,,,,,,,14,C,2023-12-08_15h29.57.069,gca_discrimination,2022.2.4,143.75148244923523,
positions.xlsx,stimuli.xlsx,test.xlsx,stimuli/Social1.png,stimuli/Social2.png,stimuli/Nonsocial2.png,stimuli/Nonsocial1.png,stimuli/Test1.png,stimuli/Test2.png,"(-0.7, -0.5)",test2,"(0.7, -0.5)",test2,0,0,0,0,0,7,7,9,,,,,,,,,,,,,,,,,,,82.39762699999847,83.39762129999872,83.39762129999872,83.55039119999856,84.0503444999922,84.0503444999922,84.20313349999196,l,0.5264103000226896,correct,84.73783309999271,86.73771370000031,87.12661659999867,83.39762129999872,86.73771370000031,,,,,,,,,,,14,C,2023-12-08_15h29.57.069,gca_discrimination,2022.2.4,143.75148244923523,
positions.xlsx,stimuli.xlsx,test.xlsx,stimuli/Social1.png,stimuli/Social2.png,stimuli/Nonsocial2.png,stimuli/Nonsocial1.png,stimuli/Test1.png,stimuli/Test2.png,"(-0.7, 0.5)",test1,"(0.7, -0.5)",test1,0,0,0,0,0,8,8,5,,,,,,,,,,,,,,,,,,,87.12661659999867,88.12657389999367,88.12657389999367,88.27932419998979,88.77933699999994,88.77933699999994,88.93210899998667,l,0.4940560000104597,correct,89.439011999988,91.43892929999856,92.22362919998704,88.12657389999367,91.43892929999856,,,,,,,,,,,14,C,2023-12-08_15h29.57.069,gca_discrimination,2022.2.4,143.75148244923523,
positions.xlsx,stimuli.xlsx,test.xlsx,stimuli/Social1.png,stimuli/Social2.png,stimuli/Nonsocial2.png,stimuli/Nonsocial1.png,stimuli/Test1.png,stimuli/Test2.png,"(-0.7, -0.5)",test2,"(-0.7, 0.5)",test2,0,0,0,0,0,9,9,2,,,,,,,,,,,,,,,,,,,92.22362919998704,93.23049929999979,93.23049929999979,93.37633199999982,93.87632769999618,93.87632769999618,94.02909799999907,ä,0.5012377000239212,wrong,94.54297629999928,96.54291429999284,96.67488599999342,93.23049929999979,96.54291429999284,,,,,,,,,,,14,C,2023-12-08_15h29.57.069,gca_discrimination,2022.2.4,143.75148244923523,
positions.xlsx,stimuli.xlsx,test.xlsx,stimuli/Social1.png,stimuli/Social2.png,stimuli/Nonsocial2.png,stimuli/Nonsocial1.png,stimuli/Test1.png,stimuli/Test2.png,"(0.7, -0.5)",test1,"(0.7, 0.5)",test2,0,0,0,0,0,10,10,0,,,,,,,,,,,,,,,,,,,96.67488599999342,97.67480899998918,97.67480899998918,97.8275880000001,98.32754829998885,98.32754829998885,98.48032939998666,ä,0.6332448000030126,correct,99.12614799999574,101.12608779998845,101.51492560000042,97.67480899998918,101.12608779998845,,,,,,,,,,,14,C,2023-12-08_15h29.57.069,gca_discrimination,2022.2.4,143.75148244923523,
positions.xlsx,stimuli.xlsx,test.xlsx,stimuli/Social1.png,stimuli/Social2.png,stimuli/Nonsocial2.png,stimuli/Nonsocial1.png,stimuli/Test1.png,stimuli/Test2.png,"(0.7, -0.5)",test1,"(0.7, 0.5)",test1,0,0,0,0,0,11,11,10,,,,,,,,,,,,,,,,,,,101.51492560000042,102.51490840000042,102.51490840000042,102.66766559999087,103.16766259999713,103.16766259999713,103.32046449999325,l,0.4329114000138361,correct,103.76486049999949,105.76475249999203,105.84809019998647,102.51490840000042,105.76475249999203,,,,,,,,,,,14,C,2023-12-08_15h29.57.069,gca_discrimination,2022.2.4,143.75148244923523,
positions.xlsx,stimuli.xlsx,test.xlsx,stimuli/Social1.png,stimuli/Social2.png,stimuli/Nonsocial2.png,stimuli/Nonsocial1.png,stimuli/Test1.png,stimuli/Test2.png,"(0.7, -0.5)",test2,"(-0.7, 0.5)",test1,0,0,0,0,0,12,12,4,,,,,,,,,,,,,,,,,,,105.84809019998647,106.84805899999628,106.84805899999628,107.0008775999886,107.50083359998825,107.50083359998825,107.65360469999723,ä,0.5806442000030074,correct,108.24383110000053,110.24377379998623,110.4590668999881,106.84805899999628,110.24377379998623,,,,,,,,,,,14,C,2023-12-08_15h29.57.069,gca_discrimination,2022.2.4,143.75148244923523,
positions.xlsx,stimuli.xlsx,test.xlsx,stimuli/Social1.png,stimuli/Social2.png,stimuli/Nonsocial2.png,stimuli/Nonsocial1.png,stimuli/Test1.png,stimuli/Test2.png,"(0.7, 0.5)",test2,"(-0.7, 0.5)",test1,0,0,0,0,0,13,13,13,,,,,,,,,,,,,,,,,,,110.4590668999881,111.45903939999698,111.45903939999698,111.61177809999208,112.11176049998903,112.11176049998903,112.2645349999948,ä,0.6250244000111707,correct,112.89644789999875,114.89641149999807,115.77827419999812,111.45903939999698,114.89641149999807,,,,,,,,,,,14,C,2023-12-08_15h29.57.069,gca_discrimination,2022.2.4,143.75148244923523,
positions.xlsx,stimuli.xlsx,test.xlsx,stimuli/Social1.png,stimuli/Social2.png,stimuli/Nonsocial2.png,stimuli/Nonsocial1.png,stimuli/Test1.png,stimuli/Test2.png,"(0.7, -0.5)",cs_plus_s,"(-0.7, 0.5)",cs_plus_s,0,0,0,0,,,,,0,0,0,57,,,,,,,,,,,,,124.48623709999083,126.04871529999946,126.04871529999946,127.0486724999937,127.0486724999937,127.18754329999501,127.69449559999339,127.69449559999339,127.84033649999765,l,0.5783198000135599,correct,,128.4306329999963,128.92360699998972,,,115.77827419999812,115.77827419999812,115.77827419999812,115.77827419999812,115.77827419999812,115.77827419999812,115.77827419999812,115.77827419999812,space,8.695845200010808,14,C,2023-12-08_15h29.57.069,gca_discrimination,2022.2.4,143.75148244923523,
positions.xlsx,stimuli.xlsx,test.xlsx,stimuli/Social1.png,stimuli/Social2.png,stimuli/Nonsocial2.png,stimuli/Nonsocial1.png,stimuli/Test1.png,stimuli/Test2.png,"(0.7, -0.5)",cs_minus_ns,"(-0.7, 0.5)",cs_minus_ns,0,0,0,0,,,,,0,1,1,93,,,,,,,,,,,,,,,128.92360699998972,129.9305072999996,129.9305072999996,130.07634229998803,130.58326569999917,130.58326569999917,130.72909189999336,l,0.625331900009769,correct,,131.36796059999324,131.81237649999093,129.9305072999996,,,,,,,,,,,,14,C,2023-12-08_15h29.57.069,gca_discrimination,2022.2.4,143.75148244923523,
positions.xlsx,stimuli.xlsx,test.xlsx,stimuli/Social1.png,stimuli/Social2.png,stimuli/Nonsocial2.png,stimuli/Nonsocial1.png,stimuli/Test1.png,stimuli/Test2.png,"(0.7, 0.5)",cs_plus_ns,"(0.7, -0.5)",cs_minus_ns,0,0,0,0,,,,,0,2,2,32,,,,,,,,,,,,,,,131.81237649999093,132.81931059999624,132.81931059999624,132.96510979998857,133.47208490000048,133.47208490000048,133.61785679998866,ä,0.4958211000193842,correct,,134.12475049999193,134.97892539999157,132.81931059999624,,,,,,,,,,,,14,C,2023-12-08_15h29.57.069,gca_discrimination,2022.2.4,143.75148244923523,
positions.xlsx,stimuli.xlsx,test.xlsx,stimuli/Social1.png,stimuli/Social2.png,stimuli/Nonsocial2.png,stimuli/Nonsocial1.png,stimuli/Test1.png,stimuli/Test2.png,"(0.7, 0.5)",cs_plus_ns,"(-0.7, 0.5)",cs_minus_ns,0,0,0,0,,,,,0,3,3,30,,,,,,,,,,,,,,,134.97892539999157,135.98580989999755,135.98580989999755,136.13167409999005,136.63855719999992,136.63855719999992,136.78441839999869,ä,0.9050742000108585,correct,,137.70104639999045,137.99964329999057,135.98580989999755,,,,,,,,,,,,14,C,2023-12-08_15h29.57.069,gca_discrimination,2022.2.4,143.75148244923523,
positions.xlsx,stimuli.xlsx,test.xlsx,stimuli/Social1.png,stimuli/Social2.png,stimuli/Nonsocial2.png,stimuli/Nonsocial1.png,stimuli/Test1.png,stimuli/Test2.png,"(0.7, -0.5)",cs_plus_ns,"(0.7, 0.5)",cs_plus_ns,0,0,0,0,,,,,0,4,4,83,,,,,,,,,,,,,,,137.99964329999057,139.00658249999105,139.00658249999105,139.15238119999412,139.6593128999957,139.6593128999957,139.80514169999515,l,0.5566025000152877,correct,,140.37453489999461,141.29118789998756,139.00658249999105,,,,,,,,,,,,14,C,2023-12-08_15h29.57.069,gca_discrimination,2022.2.4,143.75148244923523,
positions.xlsx,stimuli.xlsx,test.xlsx,stimuli/Social1.png,stimuli/Social2.png,stimuli/Nonsocial2.png,stimuli/Nonsocial1.png,stimuli/Test1.png,stimuli/Test2.png,"(-0.7, -0.5)",cs_plus_s,"(0.7, 0.5)",cs_minus_s,0,0,0,0,,,,,0,5,5,4,,,,,,,,,,,,,,,141.29118789998756,142.29809769999702,142.29809769999702,142.44388909998816,142.95084359998873,142.95084359998873,143.09667239998817,l,0.5690476000017952,wrong,,143.6730053999927,144.26332849999017,142.29809769999702,,,,,,,,,,,,14,C,2023-12-08_15h29.57.069,gca_discrimination,2022.2.4,143.75148244923523,
positions.xlsx,stimuli.xlsx,test.xlsx,stimuli/Social1.png,stimuli/Social2.png,stimuli/Nonsocial2.png,stimuli/Nonsocial1.png,stimuli/Test1.png,stimuli/Test2.png,"(-0.7, -0.5)",cs_plus_ns,"(0.7, -0.5)",cs_plus_ns,0,0,0,0,,,,,0,6,6,77,,,,,,,,,,,,,,,144.26332849999017,145.27021909999894,145.27021909999894,145.4160164999921,145.9229956999916,145.9229956999916,146.06876999999804,l,1.0772484000190161,correct,,147.15902369999094,147.64513999999326,145.27021909999894,,,,,,,,,,,,14,C,2023-12-08_15h29.57.069,gca_discrimination,2022.2.4,143.75148244923523,
positions.xlsx,stimuli.xlsx,test.xlsx,stimuli/Social1.png,stimuli/Social2.png,stimuli/Nonsocial2.png,stimuli/Nonsocial1.png,stimuli/Test1.png,stimuli/Test2.png,"(-0.7, -0.5)",cs_minus_ns,"(0.7, -0.5)",cs_plus_ns,0,0,0,0,,,,,0,7,7,41,,,,,,,,,,,,,,,147.64513999999326,148.65203849998943,148.65203849998943,148.79779549999512,149.3047676999995,149.3047676999995,149.4506137999997,ä,0.6550340000103461,correct,,150.11724539998977,150.50610469999083,148.65203849998943,,,,,,,,,,,,14,C,2023-12-08_15h29.57.069,gca_discrimination,2022.2.4,143.75148244923523,
positions.xlsx,stimuli.xlsx,test.xlsx,stimuli/Social1.png,stimuli/Social2.png,stimuli/Nonsocial2.png,stimuli/Nonsocial1.png,stimuli/Test1.png,stimuli/Test2.png,"(-0.7, -0.5)",cs_minus_s,"(0.7, -0.5)",cs_plus_s,0,0,0,0,,,,,0,8,8,17,,,,,,,,,,,,,,,150.50610469999083,151.51304069999605,151.51304069999605,151.65880939998897,152.16576059999352,152.16576059999352,152.31159889999253,ä,0.44200520000595134,correct,,152.76293509999232,152.79769559999113,151.51304069999605,,,,,,,,,,,,14,C,2023-12-08_15h29.57.069,gca_discrimination,2022.2.4,143.75148244923523,
positions.xlsx,stimuli.xlsx,test.xlsx,stimuli/Social1.png,stimuli/Social2.png,stimuli/Nonsocial2.png,stimuli/Nonsocial1.png,stimuli/Test1.png,stimuli/Test2.png,"(-0.7, 0.5)",cs_plus_s,"(0.7, 0.5)",cs_minus_s,0,0,0,0,,,,,0,9,9,1,,,,,,,,,,,,,,,152.79769559999113,153.8046183999977,153.8046183999977,153.95039339999494,154.45732169999974,154.45732169999974,154.60316309999325,ä,0.3985118000127841,correct,,155.0128618999879,155.63093109999318,153.8046183999977,,,,,,,,,,,,14,C,2023-12-08_15h29.57.069,gca_discrimination,2022.2.4,143.75148244923523,
positions.xlsx,stimuli.xlsx,test.xlsx,stimuli/Social1.png,stimuli/Social2.png,stimuli/Nonsocial2.png,stimuli/Nonsocial1.png,stimuli/Test1.png,stimuli/Test2.png,"(-0.7, 0.5)",cs_minus_s,"(0.7, -0.5)",cs_minus_s,0,0,0,0,,,,,0,10,10,62,,,,,,,,,,,,,,,155.63093109999318,156.637836599999,156.637836599999,156.7836505999876,157.29060069999832,157.29060069999832,157.43640899998718,l,0.4375290000170935,correct,,157.88086959999055,158.4502480999945,156.637836599999,,,,,,,,,,,,14,C,2023-12-08_15h29.57.069,gca_discrimination,2022.2.4,143.75148244923523,
positions.xlsx,stimuli.xlsx,test.xlsx,stimuli/Social1.png,stimuli/Social2.png,stimuli/Nonsocial2.png,stimuli/Nonsocial1.png,stimuli/Test1.png,stimuli/Test2.png,"(0.7, 0.5)",cs_plus_s,"(-0.7, 0.5)",cs_plus_s,0,0,0,0,,,,,0,11,11,54,,,,,,,,,,,,,,,158.4502480999945,159.4571661999944,159.4571661999944,159.60296589999052,160.1098925999977,160.1098925999977,160.25569629999518,l,0.6502537000051234,correct,,160.9154189999972,161.89462639999692,159.4571661999944,,,,,,,,,,,,14,C,2023-12-08_15h29.57.069,gca_discrimination,2022.2.4,143.75148244923523,
positions.xlsx,stimuli.xlsx,test.xlsx,stimuli/Social1.png,stimuli/Social2.png,stimuli/Nonsocial2.png,stimuli/Nonsocial1.png,stimuli/Test1.png,stimuli/Test2.png,"(-0.7, -0.5)",cs_minus_ns,"(-0.7, 0.5)",cs_plus_ns,0,0,0,0,,,,,0,12,12,39,,,,,,,,,,,,,,,161.89462639999692,162.90146309998818,162.90146309998818,163.0472841999872,163.55422789999284,163.55422789999284,163.7000384999992,ä,0.501400500012096,correct,,164.21391619999486,164.7833438999951,162.90146309998818,,,,,,,,,,,,14,C,2023-12-08_15h29.57.069,gca_discrimination,2022.2.4,143.75148244923523,
positions.xlsx,stimuli.xlsx,test.xlsx,stimuli/Social1.png,stimuli/Social2.png,stimuli/Nonsocial2.png,stimuli/Nonsocial1.png,stimuli/Test1.png,stimuli/Test2.png,"(0.7, 0.5)",cs_plus_ns,"(-0.7, -0.5)",cs_plus_ns,0,0,0,0,,,,,0,13,13,79,,,,,,,,,,,,,,,164.7833438999951,165.79024919999938,165.79024919999938,165.93608649999078,166.44299569999566,166.44299569999566,166.5888111999957,l,0.7650226000114344,correct,,167.36655189999146,167.51935469999444,165.79024919999938,,,,,,,,,,,,14,C,2023-12-08_15h29.57.069,gca_discrimination,2022.2.4,143.75148244923523,
positions.xlsx,stimuli.xlsx,test.xlsx,stimuli/Social1.png,stimuli/Social2.png,stimuli/Nonsocial2.png,stimuli/Nonsocial1.png,stimuli/Test1.png,stimuli/Test2.png,"(-0.7, 0.5)",cs_plus_s,"(-0.7, -0.5)",cs_minus_s,0,0,0,0,,,,,0,14,14,0,,,,,,,,,,,,,,,167.51935469999444,168.52625629999966,168.52625629999966,168.67205839999951,169.17902599999798,169.17902599999798,169.3248273999925,ä,0.49255780001112726,correct,,169.8247765999986,170.0886751999933,168.52625629999966,,,,,,,,,,,,14,C,2023-12-08_15h29.57.069,gca_discrimination,2022.2.4,143.75148244923523,
positions.xlsx,stimuli.xlsx,test.xlsx,stimuli/Social1.png,stimuli/Social2.png,stimuli/Nonsocial2.png,stimuli/Nonsocial1.png,stimuli/Test1.png,stimuli/Test2.png,"(0.7, -0.5)",cs_plus_ns,"(-0.7, -0.5)",cs_plus_ns,0,0,0,0,,,,,0,15,15,82,,,,,,,,,,,,,,,170.0886751999933,171.09559139999328,171.09559139999328,171.24138939999102,171.7483404999948,171.7483404999948,171.89417759999924,ä,0.7557882000255631,wrong,,172.65803629999573,173.26912279998942,171.09559139999328,,,,,,,,,,,,14,C,2023-12-08_15h29.57.069,gca_discrimination,2022.2.4,143.75148244923523,
positions.xlsx,stimuli.xlsx,test.xlsx,stimuli/Social1.png,stimuli/Social2.png,stimuli/Nonsocial2.png,stimuli/Nonsocial1.png,stimuli/Test1.png,stimuli/Test2.png,"(-0.7, -0.5)",cs_plus_ns,"(0.7, 0.5)",cs_plus_ns,0,0,0,0,,,,,0,16,16,76,,,,,,,,,,,,,,,173.26912279998942,174.27602169998863,174.27602169998863,174.42185859999154,174.92881979999947,174.92881979999947,175.07460579999315,ä,0.5678481000213651,wrong,,175.65095159999328,176.0537159999949,174.27602169998863,,,,,,,,,,,,14,C,2023-12-08_15h29.57.069,gca_discrimination,2022.2.4,143.75148244923523,
positions.xlsx,stimuli.xlsx,test.xlsx,stimuli/Social1.png,stimuli/Social2.png,stimuli/Nonsocial2.png,stimuli/Nonsocial1.png,stimuli/Test1.png,stimuli/Test2.png,"(0.7, -0.5)",cs_plus_s,"(-0.7, -0.5)",cs_minus_s,0,0,0,0,,,,,0,17,17,10,,,,,,,,,,,,,,,176.0537159999949,177.06064649998734,177.06064649998734,177.20644479998737,177.71338979998836,177.71338979998836,177.85922239998763,ä,0.6060895000118762,correct,,178.47723179998866,179.3244612999988,177.06064649998734,,,,,,,,,,,,14,C,2023-12-08_15h29.57.069,gca_discrimination,2022.2.4,143.75148244923523,
positions.xlsx,stimuli.xlsx,test.xlsx,stimuli/Social1.png,stimuli/Social2.png,stimuli/Nonsocial2.png,stimuli/Nonsocial1.png,stimuli/Test1.png,stimuli/Test2.png,"(0.7, 0.5)",cs_minus_s,"(0.7, -0.5)",cs_plus_s,0,0,0,0,,,,,0,18,18,20,,,,,,,,,,,,,,,179.3244612999988,180.33133909999742,180.33133909999742,180.47714049999195,180.98410039998998,180.98410039998998,181.12992409999424,ä,0.5115910000167787,correct,,181.65071189998707,181.7687877999997,180.33133909999742,,,,,,,,,,,,14,C,2023-12-08_15h29.57.069,gca_discrimination,2022.2.4,143.75148244923523,
positions.xlsx,stimuli.xlsx,test.xlsx,stimuli/Social1.png,stimuli/Social2.png,stimuli/Nonsocial2.png,stimuli/Nonsocial1.png,stimuli/Test1.png,stimuli/Test2.png,"(-0.7, 0.5)",cs_minus_s,"(0.7, 0.5)",cs_plus_s,0,0,0,0,,,,,0,19,19,13,,,,,,,,,,,,,,,181.7687877999997,182.7756750999979,182.7756750999979,182.9214995999937,183.42846449998615,183.42846449998615,183.57426969999506,ä,0.4510885000199778,correct,,184.03255779999017,184.11592240000027,182.7756750999979,,,,,,,,,,,,14,C,2023-12-08_15h29.57.069,gca_discrimination,2022.2.4,143.75148244923523,
positions.xlsx,stimuli.xlsx,test.xlsx,stimuli/Social1.png,stimuli/Social2.png,stimuli/Nonsocial2.png,stimuli/Nonsocial1.png,stimuli/Test1.png,stimuli/Test2.png,"(-0.7, 0.5)",cs_minus_ns,"(-0.7, -0.5)",cs_plus_ns,0,0,0,0,,,,,0,20,20,36,,,,,,,,,,,,,,,184.11592240000027,185.12281419998908,185.12281419998908,185.2686446999869,185.77556949999416,185.77556949999416,185.9213793999952,ä,0.5046276000066428,correct,,186.4352562999993,187.2685477999912,185.12281419998908,,,,,,,,,,,,14,C,2023-12-08_15h29.57.069,gca_discrimination,2022.2.4,143.75148244923523,
positions.xlsx,stimuli.xlsx,test.xlsx,stimuli/Social1.png,stimuli/Social2.png,stimuli/Nonsocial2.png,stimuli/Nonsocial1.png,stimuli/Test1.png,stimuli/Test2.png,"(-0.7, -0.5)",cs_plus_ns,"(0.7, -0.5)",cs_minus_ns,0,0,0,0,,,,,0,21,21,29,,,,,,,,,,,,,,,187.2685477999912,188.2754649999988,188.2754649999988,188.42127880000044,188.92824889998883,188.92824889998883,189.07407329999842,ä,0.4316085000173189,correct,,189.51847599999746,189.7129212999862,188.2754649999988,,,,,,,,,,,,14,C,2023-12-08_15h29.57.069,gca_discrimination,2022.2.4,143.75148244923523,
positions.xlsx,stimuli.xlsx,test.xlsx,stimuli/Social1.png,stimuli/Social2.png,stimuli/Nonsocial2.png,stimuli/Nonsocial1.png,stimuli/Test1.png,stimuli/Test2.png,"(-0.7, 0.5)",cs_plus_ns,"(-0.7, -0.5)",cs_minus_ns,0,0,0,0,,,,,0,22,22,24,,,,,,,,,,,,,,,189.7129212999862,190.71985159999167,190.71985159999167,190.86563589998696,191.37260719999904,191.37260719999904,191.51842329998908,ä,0.4602325000014389,correct,,191.99061059999804,192.59472429999732,190.71985159999167,,,,,,,,,,,,14,C,2023-12-08_15h29.57.069,gca_discrimination,2022.2.4,143.75148244923523,
positions.xlsx,stimuli.xlsx,test.xlsx,stimuli/Social1.png,stimuli/Social2.png,stimuli/Nonsocial2.png,stimuli/Nonsocial1.png,stimuli/Test1.png,stimuli/Test2.png,"(0.7, -0.5)",cs_minus_s,"(-0.7, 0.5)",cs_minus_s,0,0,0,0,,,,,0,23,23,69,,,,,,,,,,,,,,,192.59472429999732,193.6017090999958,193.6017090999958,193.7474835999892,194.25442149999435,194.25442149999435,194.4002337999991,l,0.3939876000076765,correct,,194.80297239999345,195.19885009998688,193.6017090999958,,,,,,,,,,,,14,C,2023-12-08_15h29.57.069,gca_discrimination,2022.2.4,143.75148244923523,
positions.xlsx,stimuli.xlsx,test.xlsx,stimuli/Social1.png,stimuli/Social2.png,stimuli/Nonsocial2.png,stimuli/Nonsocial1.png,stimuli/Test1.png,stimuli/Test2.png,"(-0.7, 0.5)",cs_minus_s,"(0.7, 0.5)",cs_minus_s,0,0,0,0,,,,,0,24,24,61,,,,,,,,,,,,,,,195.19885009998688,196.20573149999836,196.20573149999836,196.3515752999956,196.8584775999916,196.8584775999916,197.0043050999957,l,0.4142287000140641,correct,,197.42788169998676,198.33062829999835,196.20573149999836,,,,,,,,,,,,14,C,2023-12-08_15h29.57.069,gca_discrimination,2022.2.4,143.75148244923523,
positions.xlsx,stimuli.xlsx,test.xlsx,stimuli/Social1.png,stimuli/Social2.png,stimuli/Nonsocial2.png,stimuli/Nonsocial1.png,stimuli/Test1.png,stimuli/Test2.png,"(-0.7, -0.5)",cs_minus_s,"(0.7, 0.5)",cs_plus_s,0,0,0,0,,,,,0,25,25,16,,,,,,,,,,,,,,,198.33062829999835,199.3375701999903,199.3375701999903,199.48339229999692,199.99030539998785,199.99030539998785,200.13615339998796,ä,0.41098720001173206,correct,,200.5597168999957,201.4694104999944,199.3375701999903,,,,,,,,,,,,14,C,2023-12-08_15h29.57.069,gca_discrimination,2022.2.4,143.75148244923523,
positions.xlsx,stimuli.xlsx,test.xlsx,stimuli/Social1.png,stimuli/Social2.png,stimuli/Nonsocial2.png,stimuli/Nonsocial1.png,stimuli/Test1.png,stimuli/Test2.png,"(-0.7, 0.5)",cs_minus_ns,"(0.7, 0.5)",cs_minus_ns,0,0,0,0,,,,,0,26,26,85,,,,,,,,,,,,,,,201.4694104999944,202.47633189999033,202.47633189999033,202.62214019999374,203.12906989999465,203.12906989999465,203.2748944999912,l,0.7752532000158681,correct,,204.05959109999822,204.8095556999906,202.47633189999033,,,,,,,,,,,,14,C,2023-12-08_15h29.57.069,gca_discrimination,2022.2.4,143.75148244923523,
positions.xlsx,stimuli.xlsx,test.xlsx,stimuli/Social1.png,stimuli/Social2.png,stimuli/Nonsocial2.png,stimuli/Nonsocial1.png,stimuli/Test1.png,stimuli/Test2.png,"(0.7, 0.5)",cs_plus_ns,"(-0.7, 0.5)",cs_plus_ns,0,0,0,0,,,,,0,27,27,78,,,,,,,,,,,,,,,204.8095556999906,205.81656139998813,205.81656139998813,205.96229359999415,206.46919009998965,206.46919009998965,206.61505049999687,l,0.4589225000090664,correct,,207.087222999995,207.7261138999893,205.81656139998813,,,,,,,,,,,,14,C,2023-12-08_15h29.57.069,gca_discrimination,2022.2.4,143.75148244923523,
positions.xlsx,stimuli.xlsx,test.xlsx,stimuli/Social1.png,stimuli/Social2.png,stimuli/Nonsocial2.png,stimuli/Nonsocial1.png,stimuli/Test1.png,stimuli/Test2.png,"(-0.7, 0.5)",cs_plus_s,"(-0.7, -0.5)",cs_plus_s,0,0,0,0,,,,,0,28,28,48,,,,,,,,,,,,,,,207.7261138999893,208.7330188999913,208.7330188999913,208.87885519998963,209.3857919999864,209.3857919999864,209.53159400000004,l,0.5741036000108579,correct,,210.1149000000005,210.9690486999898,208.7330188999913,,,,,,,,,,,,14,C,2023-12-08_15h29.57.069,gca_discrimination,2022.2.4,143.75148244923523,
positions.xlsx,stimuli.xlsx,test.xlsx,stimuli/Social1.png,stimuli/Social2.png,stimuli/Nonsocial2.png,stimuli/Nonsocial1.png,stimuli/Test1.png,stimuli/Test2.png,"(0.7, 0.5)",cs_minus_ns,"(-0.7, -0.5)",cs_minus_ns,0,0,0,0,,,,,0,29,29,91,,,,,,,,,,,,,,,210.9690486999898,211.9759672999935,211.9759672999935,212.12180749999243,212.62870279999333,212.62870279999333,212.77452049999556,l,0.6681029000174021,correct,,213.45507649998763,214.03838449998875,211.9759672999935,,,,,,,,,,,,14,C,2023-12-08_15h29.57.069,gca_discrimination,2022.2.4,143.75148244923523,
positions.xlsx,stimuli.xlsx,test.xlsx,stimuli/Social1.png,stimuli/Social2.png,stimuli/Nonsocial2.png,stimuli/Nonsocial1.png,stimuli/Test1.png,stimuli/Test2.png,"(0.7, 0.5)",cs_minus_ns,"(-0.7, 0.5)",cs_minus_ns,0,0,0,0,,,,,0,30,30,90,,,,,,,,,,,,,,,214.03838449998875,215.04527949998737,215.04527949998737,215.19109219999518,215.698023799996,215.698023799996,215.84384370000043,l,0.47113000000535976,correct,,216.32303799998772,216.538241199989,215.04527949998737,,,,,,,,,,,,14,C,2023-12-08_15h29.57.069,gca_discrimination,2022.2.4,143.75148244923523,
positions.xlsx,stimuli.xlsx,test.xlsx,stimuli/Social1.png,stimuli/Social2.png,stimuli/Nonsocial2.png,stimuli/Nonsocial1.png,stimuli/Test1.png,stimuli/Test2.png,"(-0.7, 0.5)",cs_plus_s,"(0.7, -0.5)",cs_plus_s,0,0,0,0,,,,,0,31,31,50,,,,,,,,,,,,,,,216.538241199989,217.54516739999235,217.54516739999235,217.69102259998908,218.19792039999447,218.19792039999447,218.34375379999983,l,0.39392050000606105,correct,,218.74651839998842,219.7465230999951,217.54516739999235,,,,,,,,,,,,14,C,2023-12-08_15h29.57.069,gca_discrimination,2022.2.4,143.75148244923523,
positions.xlsx,stimuli.xlsx,test.xlsx,stimuli/Social1.png,stimuli/Social2.png,stimuli/Nonsocial2.png,stimuli/Nonsocial1.png,stimuli/Test1.png,stimuli/Test2.png,"(-0.7, -0.5)",cs_plus_ns,"(-0.7, 0.5)",cs_plus_ns,0,0,0,0,,,,,0,32,32,75,,,,,,,,,,,,,,,219.7465230999951,220.7533556999988,220.7533556999988,220.89921279999544,221.4061432999879,221.4061432999879,221.55194869999832,l,0.5384421000053408,correct,,222.10050899999624,223.08660679998866,220.7533556999988,,,,,,,,,,,,14,C,2023-12-08_15h29.57.069,gca_discrimination,2022.2.4,143.75148244923523,
positions.xlsx,stimuli.xlsx,test.xlsx,stimuli/Social1.png,stimuli/Social2.png,stimuli/Nonsocial2.png,stimuli/Nonsocial1.png,stimuli/Test1.png,stimuli/Test2.png,"(-0.7, 0.5)",cs_plus_ns,"(0.7, -0.5)",cs_plus_ns,0,0,0,0,,,,,0,33,33,74,,,,,,,,,,,,,,,223.08660679998866,224.09355679999862,224.09355679999862,224.2393599999923,224.7463093999977,224.7463093999977,224.89211509999586,l,0.5829319000185933,correct,,225.4823469999974,225.53790749999462,224.09355679999862,,,,,,,,,,,,14,C,2023-12-08_15h29.57.069,gca_discrimination,2022.2.4,143.75148244923523,
positions.xlsx,stimuli.xlsx,test.xlsx,stimuli/Social1.png,stimuli/Social2.png,stimuli/Nonsocial2.png,stimuli/Nonsocial1.png,stimuli/Test1.png,stimuli/Test2.png,"(0.7, -0.5)",cs_plus_s,"(-0.7, -0.5)",cs_plus_s,0,0,0,0,,,,,0,34,34,58,,,,,,,,,,,,,,,225.53790749999462,226.54481579999265,226.54481579999265,226.69063179999648,227.1975698999886,227.1975698999886,227.34338979999302,l,0.39494230001582764,correct,,227.746140999996,228.32249889998639,226.54481579999265,,,,,,,,,,,,14,C,2023-12-08_15h29.57.069,gca_discrimination,2022.2.4,143.75148244923523,
positions.xlsx,stimuli.xlsx,test.xlsx,stimuli/Social1.png,stimuli/Social2.png,stimuli/Nonsocial2.png,stimuli/Nonsocial1.png,stimuli/Test1.png,stimuli/Test2.png,"(-0.7, -0.5)",cs_minus_s,"(0.7, 0.5)",cs_minus_s,0,0,0,0,,,,,0,35,35,64,,,,,,,,,,,,,,,228.32249889998639,229.3294317999971,229.3294317999971,229.47531819999858,229.98221819999162,229.98221819999162,230.12800849998894,l,0.4982080000190763,correct,,230.6349373999983,231.4404702999891,229.3294317999971,,,,,,,,,,,,14,C,2023-12-08_15h29.57.069,gca_discrimination,2022.2.4,143.75148244923523,
positions.xlsx,stimuli.xlsx,test.xlsx,stimuli/Social1.png,stimuli/Social2.png,stimuli/Nonsocial2.png,stimuli/Nonsocial1.png,stimuli/Test1.png,stimuli/Test2.png,"(-0.7, 0.5)",cs_plus_ns,"(-0.7, -0.5)",cs_plus_ns,0,0,0,0,,,,,0,36,36,72,,,,,,,,,,,,,,,231.4404702999891,232.44734439998865,232.44734439998865,232.5931927999918,233.10008269999526,233.10008269999526,233.2459605999902,l,0.3958304000116186,correct,,233.6486952999985,234.06536269999924,232.44734439998865,,,,,,,,,,,,14,C,2023-12-08_15h29.57.069,gca_discrimination,2022.2.4,143.75148244923523,
positions.xlsx,stimuli.xlsx,test.xlsx,stimuli/Social1.png,stimuli/Social2.png,stimuli/Nonsocial2.png,stimuli/Nonsocial1.png,stimuli/Test1.png,stimuli/Test2.png,"(-0.7, 0.5)",cs_plus_ns,"(0.7, 0.5)",cs_minus_ns,0,0,0,0,,,,,0,37,37,25,,,,,,,,,,,,,,,234.06536269999924,235.0722725999949,235.0722725999949,235.21809859998757,235.7250439999916,235.7250439999916,235.87087029998656,ä,0.3952179000043543,correct,,236.27360399998724,236.64165079999657,235.0722725999949,,,,,,,,,,,,14,C,2023-12-08_15h29.57.069,gca_discrimination,2022.2.4,143.75148244923523,
positions.xlsx,stimuli.xlsx,test.xlsx,stimuli/Social1.png,stimuli/Social2.png,stimuli/Nonsocial2.png,stimuli/Nonsocial1.png,stimuli/Test1.png,stimuli/Test2.png,"(0.7, 0.5)",cs_minus_ns,"(-0.7, -0.5)",cs_plus_ns,0,0,0,0,,,,,0,38,38,43,,,,,,,,,,,,,,,236.64165079999657,237.64856209998834,237.64856209998834,237.79437569998845,238.3013021999941,238.3013021999941,238.44710329998634,ä,0.3946145000081742,correct,,238.84988199999498,239.80127569999604,237.64856209998834,,,,,,,,,,,,14,C,2023-12-08_15h29.57.069,gca_discrimination,2022.2.4,143.75148244923523,
positions.xlsx,stimuli.xlsx,test.xlsx,stimuli/Social1.png,stimuli/Social2.png,stimuli/Nonsocial2.png,stimuli/Nonsocial1.png,stimuli/Test1.png,stimuli/Test2.png,"(-0.7, -0.5)",cs_plus_ns,"(0.7, 0.5)",cs_minus_ns,0,0,0,0,,,,,0,39,39,28,,,,,,,,,,,,,,,239.80127569999604,240.808137,240.808137,240.95397930000036,241.46090939998976,241.46090939998976,241.6067594999913,ä,0.42747760002384894,correct,,242.04419399998733,242.07196999998996,240.808137,,,,,,,,,,,,14,C,2023-12-08_15h29.57.069,gca_discrimination,2022.2.4,143.75148244923523,
positions.xlsx,stimuli.xlsx,test.xlsx,stimuli/Social1.png,stimuli/Social2.png,stimuli/Nonsocial2.png,stimuli/Nonsocial1.png,stimuli/Test1.png,stimuli/Test2.png,"(-0.7, -0.5)",cs_plus_s,"(0.7, 0.5)",cs_plus_s,0,0,0,0,,,,,0,40,40,52,,,,,,,,,,,,,,,242.07196999998996,243.07890670000052,243.07890670000052,243.22472419998667,243.73166729998775,243.73166729998775,243.87749949999852,l,0.5159121000178857,correct,,244.40520619999734,244.67605889998958,243.07890670000052,,,,,,,,,,,,14,C,2023-12-08_15h29.57.069,gca_discrimination,2022.2.4,143.75148244923523,
positions.xlsx,stimuli.xlsx,test.xlsx,stimuli/Social1.png,stimuli/Social2.png,stimuli/Nonsocial2.png,stimuli/Nonsocial1.png,stimuli/Test1.png,stimuli/Test2.png,"(0.7, 0.5)",cs_plus_ns,"(-0.7, -0.5)",cs_minus_ns,0,0,0,0,,,,,0,41,41,31,,,,,,,,,,,,,,,244.67605889998958,245.68296399999235,245.68296399999235,245.82876589999069,246.33569209999405,246.33569209999405,246.48154239999712,ä,0.6324287000170443,correct,,247.1273313999991,247.668995,245.68296399999235,,,,,,,,,,,,14,C,2023-12-08_15h29.57.069,gca_discrimination,2022.2.4,143.75148244923523,
positions.xlsx,stimuli.xlsx,test.xlsx,stimuli/Social1.png,stimuli/Social2.png,stimuli/Nonsocial2.png,stimuli/Nonsocial1.png,stimuli/Test1.png,stimuli/Test2.png,"(0.7, 0.5)",cs_minus_ns,"(0.7, -0.5)",cs_plus_ns,0,0,0,0,,,,,0,42,42,44,,,,,,,,,,,,,,,247.668995,248.67590129999735,248.67590129999735,248.8216936999961,249.32865839998703,249.32865839998703,249.4744814000005,ä,0.4632840000122087,correct,,249.94669959999737,250.09253249999892,248.67590129999735,,,,,,,,,,,,14,C,2023-12-08_15h29.57.069,gca_discrimination,2022.2.4,143.75148244923523,
positions.xlsx,stimuli.xlsx,test.xlsx,stimuli/Social1.png,stimuli/Social2.png,stimuli/Nonsocial2.png,stimuli/Nonsocial1.png,stimuli/Test1.png,stimuli/Test2.png,"(0.7, 0.5)",cs_plus_s,"(-0.7, 0.5)",cs_minus_s,0,0,0,0,,,,,0,43,43,6,,,,,,,,,,,,,,,250.09253249999892,251.0994015999895,251.0994015999895,251.24526019999757,251.7521882999863,251.7521882999863,251.89802079999936,ä,0.6154370000149356,correct,,252.52298949999386,252.68964649998816,251.0994015999895,,,,,,,,,,,,14,C,2023-12-08_15h29.57.069,gca_discrimination,2022.2.4,143.75148244923523,
positions.xlsx,stimuli.xlsx,test.xlsx,stimuli/Social1.png,stimuli/Social2.png,stimuli/Nonsocial2.png,stimuli/Nonsocial1.png,stimuli/Test1.png,stimuli/Test2.png,"(-0.7, 0.5)",cs_minus_s,"(-0.7, -0.5)",cs_plus_s,0,0,0,0,,,,,0,44,44,12,,,,,,,,,,,,,,,252.68964649998816,253.6966126999905,253.6966126999905,253.84238209998875,254.34927099999913,254.34927099999913,254.49511269999493,ä,0.6192432000098052,correct,,255.12702409998747,255.34230939998815,253.6966126999905,,,,,,,,,,,,14,C,2023-12-08_15h29.57.069,gca_discrimination,2022.2.4,143.75148244923523,
positions.xlsx,stimuli.xlsx,test.xlsx,stimuli/Social1.png,stimuli/Social2.png,stimuli/Nonsocial2.png,stimuli/Nonsocial1.png,stimuli/Test1.png,stimuli/Test2.png,"(0.7, -0.5)",cs_minus_ns,"(0.7, 0.5)",cs_plus_ns,0,0,0,0,,,,,0,45,45,47,,,,,,,,,,,,,,,255.34230939998815,256.34917389998736,256.34917389998736,256.49502909999865,257.00195919998805,257.00195919998805,257.1478054999898,ä,0.4781088000163436,correct,,257.63391469999624,258.49494309999864,256.34917389998736,,,,,,,,,,,,14,C,2023-12-08_15h29.57.069,gca_discrimination,2022.2.4,143.75148244923523,
positions.xlsx,stimuli.xlsx,test.xlsx,stimuli/Social1.png,stimuli/Social2.png,stimuli/Nonsocial2.png,stimuli/Nonsocial1.png,stimuli/Test1.png,stimuli/Test2.png,"(-0.7, 0.5)",cs_plus_s,"(0.7, 0.5)",cs_plus_s,0,0,0,0,,,,,0,46,46,49,,,,,,,,,,,,,,,258.49494309999864,259.5018720999942,259.5018720999942,259.6476771999878,260.15461479999067,260.15461479999067,260.3004532999912,l,0.4529169000161346,correct,,260.7656927999924,261.44624179998937,259.5018720999942,,,,,,,,,,,,14,C,2023-12-08_15h29.57.069,gca_discrimination,2022.2.4,143.75148244923523,
positions.xlsx,stimuli.xlsx,test.xlsx,stimuli/Social1.png,stimuli/Social2.png,stimuli/Nonsocial2.png,stimuli/Nonsocial1.png,stimuli/Test1.png,stimuli/Test2.png,"(-0.7, 0.5)",cs_minus_s,"(0.7, -0.5)",cs_plus_s,0,0,0,0,,,,,0,47,47,14,,,,,,,,,,,,,,,261.44624179998937,262.4531516999996,262.4531516999996,262.5989666999958,263.10589939999045,263.10589939999045,263.2517446999991,ä,0.4143494000163628,correct,,263.67530879999686,263.84892439999385,262.4531516999996,,,,,,,,,,,,14,C,2023-12-08_15h29.57.069,gca_discrimination,2022.2.4,143.75148244923523,
positions.xlsx,stimuli.xlsx,test.xlsx,stimuli/Social1.png,stimuli/Social2.png,stimuli/Nonsocial2.png,stimuli/Nonsocial1.png,stimuli/Test1.png,stimuli/Test2.png,"(0.7, -0.5)",cs_minus_ns,"(-0.7, -0.5)",cs_minus_ns,0,0,0,0,,,,,0,48,48,94,,,,,,,,,,,,,,,263.84892439999385,264.85584879999806,264.85584879999806,265.00165609999385,265.508580099995,265.508580099995,265.65438469999935,ä,0.5239525000215508,wrong,,266.1891275999951,267.1682440999866,264.85584879999806,,,,,,,,,,,,14,C,2023-12-08_15h29.57.069,gca_discrimination,2022.2.4,143.75148244923523,
positions.xlsx,stimuli.xlsx,test.xlsx,stimuli/Social1.png,stimuli/Social2.png,stimuli/Nonsocial2.png,stimuli/Nonsocial1.png,stimuli/Test1.png,stimuli/Test2.png,"(0.7, -0.5)",cs_plus_ns,"(-0.7, -0.5)",cs_minus_ns,0,0,0,0,,,,,0,49,49,34,,,,,,,,,,,,,,,267.1682440999866,268.1751198999991,268.1751198999991,268.3209763999912,268.8279111999873,268.8279111999873,268.97378169999865,l,0.42841150001913775,wrong,,269.4112361999869,269.88340409999364,268.1751198999991,,,,,,,,,,,,14,C,2023-12-08_15h29.57.069,gca_discrimination,2022.2.4,143.75148244923523,
positions.xlsx,stimuli.xlsx,test.xlsx,stimuli/Social1.png,stimuli/Social2.png,stimuli/Nonsocial2.png,stimuli/Nonsocial1.png,stimuli/Test1.png,stimuli/Test2.png,"(0.7, 0.5)",cs_minus_s,"(-0.7, 0.5)",cs_minus_s,0,0,0,0,,,,,0,50,50,66,,,,,,,,,,,,,,,269.88340409999364,270.8903255999903,270.8903255999903,271.03615849999187,271.5430886999966,271.5430886999966,271.68890699998883,l,0.5205696000048192,correct,,272.21664189999865,272.4249811999907,270.8903255999903,,,,,,,,,,,,14,C,2023-12-08_15h29.57.069,gca_discrimination,2022.2.4,143.75148244923523,
positions.xlsx,stimuli.xlsx,test.xlsx,stimuli/Social1.png,stimuli/Social2.png,stimuli/Nonsocial2.png,stimuli/Nonsocial1.png,stimuli/Test1.png,stimuli/Test2.png,"(-0.7, -0.5)",cs_plus_ns,"(-0.7, 0.5)",cs_minus_ns,0,0,0,0,,,,,0,51,51,27,,,,,,,,,,,,,,,272.4249811999907,273.4319045999873,273.4319045999873,273.5777357999905,274.08465229999274,274.08465229999274,274.23045920000004,ä,0.8669662000029348,correct,,275.10541739998735,275.50820919999387,273.4319045999873,,,,,,,,,,,,14,C,2023-12-08_15h29.57.069,gca_discrimination,2022.2.4,143.75148244923523,
positions.xlsx,stimuli.xlsx,test.xlsx,stimuli/Social1.png,stimuli/Social2.png,stimuli/Nonsocial2.png,stimuli/Nonsocial1.png,stimuli/Test1.png,stimuli/Test2.png,"(0.7, 0.5)",cs_minus_s,"(0.7, -0.5)",cs_minus_s,0,0,0,0,,,,,0,52,52,68,,,,,,,,,,,,,,,275.50820919999387,276.51509429998987,276.51509429998987,276.66093239998736,277.1678365999978,277.1678365999978,277.3136364999955,l,0.5282561000058195,correct,,277.8553108999913,277.9178441999975,276.51509429998987,,,,,,,,,,,,14,C,2023-12-08_15h29.57.069,gca_discrimination,2022.2.4,143.75148244923523,
positions.xlsx,stimuli.xlsx,test.xlsx,stimuli/Social1.png,stimuli/Social2.png,stimuli/Nonsocial2.png,stimuli/Nonsocial1.png,stimuli/Test1.png,stimuli/Test2.png,"(0.7, -0.5)",cs_minus_ns,"(-0.7, -0.5)",cs_plus_ns,0,0,0,0,,,,,0,53,53,46,,,,,,,,,,,,,,,277.9178441999975,278.9246914999967,278.9246914999967,279.07055129999935,279.57744249999814,279.57744249999814,279.7233153999987,ä,0.942182100014179,correct,,280.67464169999585,281.50099959998624,278.9246914999967,,,,,,,,,,,,14,C,2023-12-08_15h29.57.069,gca_discrimination,2022.2.4,143.75148244923523,
positions.xlsx,stimuli.xlsx,test.xlsx,stimuli/Social1.png,stimuli/Social2.png,stimuli/Nonsocial2.png,stimuli/Nonsocial1.png,stimuli/Test1.png,stimuli/Test2.png,"(0.7, 0.5)",cs_plus_s,"(-0.7, -0.5)",cs_minus_s,0,0,0,0,,,,,0,54,54,7,,,,,,,,,,,,,,,281.50099959998624,282.50791149999714,282.50791149999714,282.65374840000004,283.1606946999964,283.1606946999964,283.3064897999866,l,0.39910240001336206,wrong,,283.71620450000046,284.1120222999889,282.50791149999714,,,,,,,,,,,,14,C,2023-12-08_15h29.57.069,gca_discrimination,2022.2.4,143.75148244923523,
positions.xlsx,stimuli.xlsx,test.xlsx,stimuli/Social1.png,stimuli/Social2.png,stimuli/Nonsocial2.png,stimuli/Nonsocial1.png,stimuli/Test1.png,stimuli/Test2.png,"(0.7, -0.5)",cs_minus_s,"(-0.7, 0.5)",cs_plus_s,0,0,0,0,,,,,0,55,55,21,,,,,,,,,,,,,,,284.1120222999889,285.11890969998785,285.11890969998785,285.2647600999917,285.7717346999998,285.7717346999998,285.9175174999982,ä,0.3489022000139812,correct,,286.27864289999707,287.27162189999945,285.11890969998785,,,,,,,,,,,,14,C,2023-12-08_15h29.57.069,gca_discrimination,2022.2.4,143.75148244923523,
positions.xlsx,stimuli.xlsx,test.xlsx,stimuli/Social1.png,stimuli/Social2.png,stimuli/Nonsocial2.png,stimuli/Nonsocial1.png,stimuli/Test1.png,stimuli/Test2.png,"(0.7, -0.5)",cs_minus_s,"(-0.7, -0.5)",cs_plus_s,0,0,0,0,,,,,0,56,56,22,,,,,,,,,,,,,,,287.27162189999945,288.27851499999815,288.27851499999815,288.42433339999116,288.93129589999444,288.93129589999444,289.07710779999616,ä,0.397080000009737,correct,,289.4868070999946,289.75072289998934,288.27851499999815,,,,,,,,,,,,14,C,2023-12-08_15h29.57.069,gca_discrimination,2022.2.4,143.75148244923523,
positions.xlsx,stimuli.xlsx,test.xlsx,stimuli/Social1.png,stimuli/Social2.png,stimuli/Nonsocial2.png,stimuli/Nonsocial1.png,stimuli/Test1.png,stimuli/Test2.png,"(-0.7, -0.5)",cs_minus_ns,"(0.7, 0.5)",cs_plus_ns,0,0,0,0,,,,,0,57,57,40,,,,,,,,,,,,,,,289.75072289998934,290.7576021999994,290.7576021999994,290.90341709999484,291.41037269998924,291.41037269998924,291.5561917999876,ä,0.5580113000032725,correct,,292.1255777999904,292.4172789999866,290.7576021999994,,,,,,,,,,,,14,C,2023-12-08_15h29.57.069,gca_discrimination,2022.2.4,143.75148244923523,
positions.xlsx,stimuli.xlsx,test.xlsx,stimuli/Social1.png,stimuli/Social2.png,stimuli/Nonsocial2.png,stimuli/Nonsocial1.png,stimuli/Test1.png,stimuli/Test2.png,"(0.7, 0.5)",cs_minus_s,"(-0.7, -0.5)",cs_plus_s,0,0,0,0,,,,,0,58,58,19,,,,,,,,,,,,,,,292.4172789999866,293.42417499999283,293.42417499999283,293.5700055999914,294.07695219999005,294.07695219999005,294.2227453999949,ä,0.4434080000210088,correct,,294.6741120999941,295.3338173999946,293.42417499999283,,,,,,,,,,,,14,C,2023-12-08_15h29.57.069,gca_discrimination,2022.2.4,143.75148244923523,
positions.xlsx,stimuli.xlsx,test.xlsx,stimuli/Social1.png,stimuli/Social2.png,stimuli/Nonsocial2.png,stimuli/Nonsocial1.png,stimuli/Test1.png,stimuli/Test2.png,"(0.7, -0.5)",cs_plus_s,"(0.7, 0.5)",cs_minus_s,0,0,0,0,,,,,0,59,59,11,,,,,,,,,,,,,,,295.3338173999946,296.340706899995,296.340706899995,296.4865365999867,296.9934738999873,296.9934738999873,297.1392858999898,ä,0.4878989000135334,correct,,297.6392426999955,297.7781732000003,296.340706899995,,,,,,,,,,,,14,C,2023-12-08_15h29.57.069,gca_discrimination,2022.2.4,143.75148244923523,
positions.xlsx,stimuli.xlsx,test.xlsx,stimuli/Social1.png,stimuli/Social2.png,stimuli/Nonsocial2.png,stimuli/Nonsocial1.png,stimuli/Test1.png,stimuli/Test2.png,"(0.7, -0.5)",cs_plus_s,"(0.7, 0.5)",cs_plus_s,0,0,0,0,,,,,0,60,60,59,,,,,,,,,,,,,,,297.7781732000003,298.7850868999958,298.7850868999958,298.93088709999574,299.4378156999883,299.4378156999883,299.5836846999882,l,0.5458524000132456,correct,,300.1391799999983,300.58361579998746,298.7850868999958,,,,,,,,,,,,14,C,2023-12-08_15h29.57.069,gca_discrimination,2022.2.4,143.75148244923523,
positions.xlsx,stimuli.xlsx,test.xlsx,stimuli/Social1.png,stimuli/Social2.png,stimuli/Nonsocial2.png,stimuli/Nonsocial1.png,stimuli/Test1.png,stimuli/Test2.png,"(-0.7, -0.5)",cs_plus_s,"(0.7, -0.5)",cs_plus_s,0,0,0,0,,,,,0,61,61,53,,,,,,,,,,,,,,,300.58361579998746,301.5905372999987,301.5905372999987,301.73634469999524,302.2432812999905,302.2432812999905,302.38911439999356,l,0.5803264000132913,correct,,302.9793565,303.9029160999926,301.5905372999987,,,,,,,,,,,,14,C,2023-12-08_15h29.57.069,gca_discrimination,2022.2.4,143.75148244923523,
positions.xlsx,stimuli.xlsx,test.xlsx,stimuli/Social1.png,stimuli/Social2.png,stimuli/Nonsocial2.png,stimuli/Nonsocial1.png,stimuli/Test1.png,stimuli/Test2.png,"(0.7, -0.5)",cs_plus_ns,"(0.7, 0.5)",cs_minus_ns,0,0,0,0,,,,,0,62,62,35,,,,,,,,,,,,,,,303.9029160999926,304.90984349999053,304.90984349999053,305.0556568999891,305.5625931999966,305.5625931999966,305.70843009999953,ä,0.5498967000021366,correct,,306.27089099999284,307.22225189999153,304.90984349999053,,,,,,,,,,,,14,C,2023-12-08_15h29.57.069,gca_discrimination,2022.2.4,143.75148244923523,
positions.xlsx,stimuli.xlsx,test.xlsx,stimuli/Social1.png,stimuli/Social2.png,stimuli/Nonsocial2.png,stimuli/Nonsocial1.png,stimuli/Test1.png,stimuli/Test2.png,"(0.7, -0.5)",cs_minus_s,"(-0.7, -0.5)",cs_minus_s,0,0,0,0,,,,,0,63,63,70,,,,,,,,,,,,,,,307.22225189999153,308.22917889998644,308.22917889998644,308.3749863999983,308.88188669999363,308.88188669999363,309.02776299999095,l,0.5260226000100374,correct,,309.562417299996,310.0138125999947,308.22917889998644,,,,,,,,,,,,14,C,2023-12-08_15h29.57.069,gca_discrimination,2022.2.4,143.75148244923523,
positions.xlsx,stimuli.xlsx,test.xlsx,stimuli/Social1.png,stimuli/Social2.png,stimuli/Nonsocial2.png,stimuli/Nonsocial1.png,stimuli/Test1.png,stimuli/Test2.png,"(-0.7, -0.5)",cs_minus_s,"(-0.7, 0.5)",cs_plus_s,0,0,0,0,,,,,0,64,64,15,,,,,,,,,,,,,,,310.0138125999947,311.02073979999113,311.02073979999113,311.16654669999843,311.673490199988,311.673490199988,311.8192863999866,ä,0.4867827000125544,correct,,312.3192521999881,312.67340989998775,311.02073979999113,,,,,,,,,,,,14,C,2023-12-08_15h29.57.069,gca_discrimination,2022.2.4,143.75148244923523,
positions.xlsx,stimuli.xlsx,test.xlsx,stimuli/Social1.png,stimuli/Social2.png,stimuli/Nonsocial2.png,stimuli/Nonsocial1.png,stimuli/Test1.png,stimuli/Test2.png,"(0.7, 0.5)",cs_minus_ns,"(0.7, -0.5)",cs_minus_ns,0,0,0,0,,,,,0,65,65,92,,,,,,,,,,,,,,,312.67340989998775,313.68033920000016,313.68033920000016,313.8261263999884,314.333060399993,314.333060399993,314.4788766999991,l,0.5881170000211569,correct,,315.0760852999956,315.1802766999899,313.68033920000016,,,,,,,,,,,,14,C,2023-12-08_15h29.57.069,gca_discrimination,2022.2.4,143.75148244923523,
positions.xlsx,stimuli.xlsx,test.xlsx,stimuli/Social1.png,stimuli/Social2.png,stimuli/Nonsocial2.png,stimuli/Nonsocial1.png,stimuli/Test1.png,stimuli/Test2.png,"(-0.7, -0.5)",cs_minus_ns,"(0.7, 0.5)",cs_minus_ns,0,0,0,0,,,,,0,66,66,88,,,,,,,,,,,,,,,315.1802766999899,316.18716799998947,316.18716799998947,316.33300419998704,316.8399544999993,316.8399544999993,316.9857386999938,l,0.4889938000123948,correct,,317.4857445999951,317.7912905999983,316.18716799998947,,,,,,,,,,,,14,C,2023-12-08_15h29.57.069,gca_discrimination,2022.2.4,143.75148244923523,
positions.xlsx,stimuli.xlsx,test.xlsx,stimuli/Social1.png,stimuli/Social2.png,stimuli/Nonsocial2.png,stimuli/Nonsocial1.png,stimuli/Test1.png,stimuli/Test2.png,"(-0.7, 0.5)",cs_minus_ns,"(0.7, -0.5)",cs_plus_ns,0,0,0,0,,,,,0,67,67,38,,,,,,,,,,,,,,,317.7912905999983,318.7981897999998,318.7981897999998,318.9439883999876,319.4509371999884,319.4509371999884,319.59683279998717,ä,0.44558330001018476,correct,,320.0550668999931,321.0341974999901,318.7981897999998,,,,,,,,,,,,14,C,2023-12-08_15h29.57.069,gca_discrimination,2022.2.4,143.75148244923523,
positions.xlsx,stimuli.xlsx,test.xlsx,stimuli/Social1.png,stimuli/Social2.png,stimuli/Nonsocial2.png,stimuli/Nonsocial1.png,stimuli/Test1.png,stimuli/Test2.png,"(0.7, 0.5)",cs_minus_s,"(-0.7, -0.5)",cs_minus_s,0,0,0,0,,,,,0,68,68,67,,,,,,,,,,,,,,,321.0341974999901,322.0411352999945,322.0411352999945,322.18695339999977,322.6938938999956,322.6938938999956,322.839693499991,l,0.6262495000119088,correct,,323.47854829998687,323.5896703999897,322.0411352999945,,,,,,,,,,,,14,C,2023-12-08_15h29.57.069,gca_discrimination,2022.2.4,143.75148244923523,
positions.xlsx,stimuli.xlsx,test.xlsx,stimuli/Social1.png,stimuli/Social2.png,stimuli/Nonsocial2.png,stimuli/Nonsocial1.png,stimuli/Test1.png,stimuli/Test2.png,"(-0.7, -0.5)",cs_minus_s,"(-0.7, 0.5)",cs_minus_s,0,0,0,0,,,,,0,69,69,63,,,,,,,,,,,,,,,323.5896703999897,324.59661439999763,324.59661439999763,324.7424383999896,325.2493235999864,325.2493235999864,325.3951570999925,l,0.3834363000059966,correct,,325.7909726999933,326.22157029999653,324.59661439999763,,,,,,,,,,,,14,C,2023-12-08_15h29.57.069,gca_discrimination,2022.2.4,143.75148244923523,
positions.xlsx,stimuli.xlsx,test.xlsx,stimuli/Social1.png,stimuli/Social2.png,stimuli/Nonsocial2.png,stimuli/Nonsocial1.png,stimuli/Test1.png,stimuli/Test2.png,"(0.7, 0.5)",cs_plus_s,"(0.7, -0.5)",cs_minus_s,0,0,0,0,,,,,0,70,70,8,,,,,,,,,,,,,,,326.22157029999653,327.22840809999616,327.22840809999616,327.3742261999869,327.8812002999912,327.8812002999912,328.0269682999933,ä,0.6150417000171728,correct,,328.65199709999433,329.03387739999744,327.22840809999616,,,,,,,,,,,,14,C,2023-12-08_15h29.57.069,gca_discrimination,2022.2.4,143.75148244923523,
positions.xlsx,stimuli.xlsx,test.xlsx,stimuli/Social1.png,stimuli/Social2.png,stimuli/Nonsocial2.png,stimuli/Nonsocial1.png,stimuli/Test1.png,stimuli/Test2.png,"(0.7, 0.5)",cs_plus_ns,"(0.7, -0.5)",cs_plus_ns,0,0,0,0,,,,,0,71,71,80,,,,,,,,,,,,,,,329.03387739999744,330.0408260999975,330.0408260999975,330.1866653999896,330.69358019999345,330.69358019999345,330.8394086999906,l,0.547079300013138,correct,,331.3948829000001,331.7282084999897,330.0408260999975,,,,,,,,,,,,14,C,2023-12-08_15h29.57.069,gca_discrimination,2022.2.4,143.75148244923523,
positions.xlsx,stimuli.xlsx,test.xlsx,stimuli/Social1.png,stimuli/Social2.png,stimuli/Nonsocial2.png,stimuli/Nonsocial1.png,stimuli/Test1.png,stimuli/Test2.png,"(-0.7, -0.5)",cs_minus_ns,"(0.7, -0.5)",cs_minus_ns,0,0,0,0,,,,,0,72,72,89,,,,,,,,,,,,,,,331.7282084999897,332.73513859999366,332.73513859999366,332.88099269999657,333.3878725999966,333.3878725999966,333.5336966999894,l,0.46007540001301095,correct,,334.0059068999981,334.776727199991,332.73513859999366,,,,,,,,,,,,14,C,2023-12-08_15h29.57.069,gca_discrimination,2022.2.4,143.75148244923523,
positions.xlsx,stimuli.xlsx,test.xlsx,stimuli/Social1.png,stimuli/Social2.png,stimuli/Nonsocial2.png,stimuli/Nonsocial1.png,stimuli/Test1.png,stimuli/Test2.png,"(-0.7, -0.5)",cs_plus_s,"(-0.7, 0.5)",cs_minus_s,0,0,0,0,,,,,0,73,73,3,,,,,,,,,,,,,,,334.776727199991,335.7836641999893,335.7836641999893,335.9294744999934,336.43644539998786,336.43644539998786,336.58222789999854,ä,0.5810260000143899,correct,,337.1724847000005,337.84605989999545,335.7836641999893,,,,,,,,,,,,14,C,2023-12-08_15h29.57.069,gca_discrimination,2022.2.4,143.75148244923523,
positions.xlsx,stimuli.xlsx,test.xlsx,stimuli/Social1.png,stimuli/Social2.png,stimuli/Nonsocial2.png,stimuli/Nonsocial1.png,stimuli/Test1.png,stimuli/Test2.png,"(0.7, -0.5)",cs_minus_ns,"(-0.7, 0.5)",cs_plus_ns,0,0,0,0,,,,,0,74,74,45,,,,,,,,,,,,,,,337.84605989999545,338.8529836999951,338.8529836999951,338.99882209999487,339.50572419998934,339.50572419998934,339.651558499987,ä,0.478348000018741,correct,,340.1376125999959,340.24878460000036,338.8529836999951,,,,,,,,,,,,14,C,2023-12-08_15h29.57.069,gca_discrimination,2022.2.4,143.75148244923523,
positions.xlsx,stimuli.xlsx,test.xlsx,stimuli/Social1.png,stimuli/Social2.png,stimuli/Nonsocial2.png,stimuli/Nonsocial1.png,stimuli/Test1.png,stimuli/Test2.png,"(-0.7, 0.5)",cs_minus_ns,"(0.7, -0.5)",cs_minus_ns,0,0,0,0,,,,,0,75,75,86,,,,,,,,,,,,,,,340.24878460000036,341.255651799991,341.255651799991,341.40146979999554,341.9083796999912,341.9083796999912,342.0541802999942,l,0.41946180001832545,correct,,342.4847399999999,342.73476419999497,341.255651799991,,,,,,,,,,,,14,C,2023-12-08_15h29.57.069,gca_discrimination,2022.2.4,143.75148244923523,
positions.xlsx,stimuli.xlsx,test.xlsx,stimuli/Social1.png,stimuli/Social2.png,stimuli/Nonsocial2.png,stimuli/Nonsocial1.png,stimuli/Test1.png,stimuli/Test2.png,"(0.7, -0.5)",cs_minus_s,"(0.7, 0.5)",cs_minus_s,0,0,0,0,,,,,0,76,76,71,,,,,,,,,,,,,,,342.73476419999497,343.74163629999384,343.74163629999384,343.8874669999932,344.39442709999275,344.39442709999275,344.5402371999953,l,0.3745834000146715,correct,,344.92217649999657,345.5471356999915,343.74163629999384,,,,,,,,,,,,14,C,2023-12-08_15h29.57.069,gca_discrimination,2022.2.4,143.75148244923523,
positions.xlsx,stimuli.xlsx,test.xlsx,stimuli/Social1.png,stimuli/Social2.png,stimuli/Nonsocial2.png,stimuli/Nonsocial1.png,stimuli/Test1.png,stimuli/Test2.png,"(-0.7, 0.5)",cs_plus_ns,"(0.7, 0.5)",cs_plus_ns,0,0,0,0,,,,,0,77,77,73,,,,,,,,,,,,,,,345.5471356999915,346.5540730999928,346.5540730999928,346.69988979998743,347.20687409999664,347.20687409999664,347.35263309998845,l,0.513349000015296,correct,,347.87345789998653,348.172058199998,346.5540730999928,,,,,,,,,,,,14,C,2023-12-08_15h29.57.069,gca_discrimination,2022.2.4,143.75148244923523,
positions.xlsx,stimuli.xlsx,test.xlsx,stimuli/Social1.png,stimuli/Social2.png,stimuli/Nonsocial2.png,stimuli/Nonsocial1.png,stimuli/Test1.png,stimuli/Test2.png,"(-0.7, -0.5)",cs_minus_ns,"(-0.7, 0.5)",cs_minus_ns,0,0,0,0,,,,,0,78,78,87,,,,,,,,,,,,,,,348.172058199998,349.1789497999998,349.1789497999998,349.3247689999989,349.8317073999933,349.8317073999933,349.9775631999946,l,0.4879300000175135,correct,,350.47754039999563,351.4705130999937,349.1789497999998,,,,,,,,,,,,14,C,2023-12-08_15h29.57.069,gca_discrimination,2022.2.4,143.75148244923523,
positions.xlsx,stimuli.xlsx,test.xlsx,stimuli/Social1.png,stimuli/Social2.png,stimuli/Nonsocial2.png,stimuli/Nonsocial1.png,stimuli/Test1.png,stimuli/Test2.png,"(-0.7, 0.5)",cs_minus_ns,"(-0.7, -0.5)",cs_minus_ns,0,0,0,0,,,,,0,79,79,84,,,,,,,,,,,,,,,351.4705130999937,352.4774267999892,352.4774267999892,352.62326789999497,353.13020319999487,353.13020319999487,353.27598609999404,l,0.5271396000025561,correct,,353.81073059998744,354.69261169999663,352.4774267999892,,,,,,,,,,,,14,C,2023-12-08_15h29.57.069,gca_discrimination,2022.2.4,143.75148244923523,
positions.xlsx,stimuli.xlsx,test.xlsx,stimuli/Social1.png,stimuli/Social2.png,stimuli/Nonsocial2.png,stimuli/Nonsocial1.png,stimuli/Test1.png,stimuli/Test2.png,"(-0.7, -0.5)",cs_minus_s,"(0.7, -0.5)",cs_minus_s,0,0,0,0,,,,,0,80,80,65,,,,,,,,,,,,,,,354.69261169999663,355.69954009998764,355.69954009998764,355.8453613999882,356.3523024999886,356.3523024999886,356.4980923999974,l,0.42357760001323186,correct,,356.9286682999955,357.6508713999938,355.69954009998764,,,,,,,,,,,,14,C,2023-12-08_15h29.57.069,gca_discrimination,2022.2.4,143.75148244923523,
positions.xlsx,stimuli.xlsx,test.xlsx,stimuli/Social1.png,stimuli/Social2.png,stimuli/Nonsocial2.png,stimuli/Nonsocial1.png,stimuli/Test1.png,stimuli/Test2.png,"(-0.7, -0.5)",cs_plus_s,"(-0.7, 0.5)",cs_plus_s,0,0,0,0,,,,,0,81,81,51,,,,,,,,,,,,,,,357.6508713999938,358.65777519998665,358.65777519998665,358.80357649999496,359.3105021999945,359.3105021999945,359.45633849999285,l,0.5453463000158081,correct,,360.0118373999867,360.72015749999264,358.65777519998665,,,,,,,,,,,,14,C,2023-12-08_15h29.57.069,gca_discrimination,2022.2.4,143.75148244923523,
positions.xlsx,stimuli.xlsx,test.xlsx,stimuli/Social1.png,stimuli/Social2.png,stimuli/Nonsocial2.png,stimuli/Nonsocial1.png,stimuli/Test1.png,stimuli/Test2.png,"(0.7, -0.5)",cs_minus_s,"(0.7, 0.5)",cs_plus_s,0,0,0,0,,,,,0,82,82,23,,,,,,,,,,,,,,,360.72015749999264,361.7270530999958,361.7270530999958,361.87286139999924,362.3798790999863,362.3798790999863,362.5256500999967,ä,0.58840130000317,correct,,363.1228361999965,363.2131195999973,361.7270530999958,,,,,,,,,,,,14,C,2023-12-08_15h29.57.069,gca_discrimination,2022.2.4,143.75148244923523,
positions.xlsx,stimuli.xlsx,test.xlsx,stimuli/Social1.png,stimuli/Social2.png,stimuli/Nonsocial2.png,stimuli/Nonsocial1.png,stimuli/Test1.png,stimuli/Test2.png,"(-0.7, 0.5)",cs_plus_s,"(0.7, -0.5)",cs_minus_s,0,0,0,0,,,,,0,83,83,2,,,,,,,,,,,,,,,363.2131195999973,364.22004699999525,364.22004699999525,364.36587149999104,364.87277289999474,364.87277289999474,365.0186323999951,ä,0.503303000019514,correct,,365.5324780999945,365.59499239998695,364.22004699999525,,,,,,,,,,,,14,C,2023-12-08_15h29.57.069,gca_discrimination,2022.2.4,143.75148244923523,
positions.xlsx,stimuli.xlsx,test.xlsx,stimuli/Social1.png,stimuli/Social2.png,stimuli/Nonsocial2.png,stimuli/Nonsocial1.png,stimuli/Test1.png,stimuli/Test2.png,"(-0.7, 0.5)",cs_plus_ns,"(0.7, -0.5)",cs_minus_ns,0,0,0,0,,,,,0,84,84,26,,,,,,,,,,,,,,,365.59499239998695,366.60189409999293,366.60189409999293,366.7476854999986,367.2546106999944,367.2546106999944,367.40046849999635,ä,0.47298780002165586,correct,,367.88655189999554,367.9837763999967,366.60189409999293,,,,,,,,,,,,14,C,2023-12-08_15h29.57.069,gca_discrimination,2022.2.4,143.75148244923523,
positions.xlsx,stimuli.xlsx,test.xlsx,stimuli/Social1.png,stimuli/Social2.png,stimuli/Nonsocial2.png,stimuli/Nonsocial1.png,stimuli/Test1.png,stimuli/Test2.png,"(-0.7, -0.5)",cs_plus_s,"(0.7, -0.5)",cs_minus_s,0,0,0,0,,,,,0,85,85,5,,,,,,,,,,,,,,,367.9837763999967,368.99069749999035,368.99069749999035,369.13653299999714,369.643413599988,369.643413599988,369.78926469999715,ä,0.5809249000158161,correct,,370.3794901999936,371.2961864999961,368.99069749999035,,,,,,,,,,,,14,C,2023-12-08_15h29.57.069,gca_discrimination,2022.2.4,143.75148244923523,
positions.xlsx,stimuli.xlsx,test.xlsx,stimuli/Social1.png,stimuli/Social2.png,stimuli/Nonsocial2.png,stimuli/Nonsocial1.png,stimuli/Test1.png,stimuli/Test2.png,"(-0.7, 0.5)",cs_minus_ns,"(0.7, 0.5)",cs_plus_ns,0,0,0,0,,,,,0,86,86,37,,,,,,,,,,,,,,,371.2961864999961,372.30305479999515,372.30305479999515,372.44890139999916,372.95588419999694,372.95588419999694,373.10165899999265,ä,0.4438689000089653,correct,,373.55298379999294,374.3029910999903,372.30305479999515,,,,,,,,,,,,14,C,2023-12-08_15h29.57.069,gca_discrimination,2022.2.4,143.75148244923523,
positions.xlsx,stimuli.xlsx,test.xlsx,stimuli/Social1.png,stimuli/Social2.png,stimuli/Nonsocial2.png,stimuli/Nonsocial1.png,stimuli/Test1.png,stimuli/Test2.png,"(0.7, -0.5)",cs_minus_ns,"(0.7, 0.5)",cs_minus_ns,0,0,0,0,,,,,0,87,87,95,,,,,,,,,,,,,,,374.3029910999903,375.30988380000053,375.30988380000053,375.4557230999926,375.9626422000001,375.9626422000001,376.10847359999025,l,0.4854678000265267,correct,,376.60150099999737,377.19173419999424,375.30988380000053,,,,,,,,,,,,14,C,2023-12-08_15h29.57.069,gca_discrimination,2022.2.4,143.75148244923523,
positions.xlsx,stimuli.xlsx,test.xlsx,stimuli/Social1.png,stimuli/Social2.png,stimuli/Nonsocial2.png,stimuli/Nonsocial1.png,stimuli/Test1.png,stimuli/Test2.png,"(0.7, -0.5)",cs_plus_ns,"(-0.7, 0.5)",cs_plus_ns,0,0,0,0,,,,,0,88,88,81,,,,,,,,,,,,,,,377.19173419999424,378.1986728999909,378.1986728999909,378.3444841999881,378.85140619998856,378.85140619998856,378.99723369999265,l,0.47749750001821667,correct,,379.48331899999175,380.1361016999872,378.1986728999909,,,,,,,,,,,,14,C,2023-12-08_15h29.57.069,gca_discrimination,2022.2.4,143.75148244923523,
positions.xlsx,stimuli.xlsx,test.xlsx,stimuli/Social1.png,stimuli/Social2.png,stimuli/Nonsocial2.png,stimuli/Nonsocial1.png,stimuli/Test1.png,stimuli/Test2.png,"(0.7, 0.5)",cs_minus_s,"(-0.7, 0.5)",cs_plus_s,0,0,0,0,,,,,0,89,89,18,,,,,,,,,,,,,,,380.1361016999872,381.14302569998836,381.14302569998836,381.2888348999986,381.7957235999929,381.7957235999929,381.9415617999912,ä,0.3640643000107957,correct,,382.3165783999866,382.51099549999344,381.14302569998836,,,,,,,,,,,,14,C,2023-12-08_15h29.57.069,gca_discrimination,2022.2.4,143.75148244923523,
positions.xlsx,stimuli.xlsx,test.xlsx,stimuli/Social1.png,stimuli/Social2.png,stimuli/Nonsocial2.png,stimuli/Nonsocial1.png,stimuli/Test1.png,stimuli/Test2.png,"(0.7, -0.5)",cs_plus_ns,"(-0.7, 0.5)",cs_minus_ns,0,0,0,0,,,,,0,90,90,33,,,,,,,,,,,,,,,382.51099549999344,383.5178986999963,383.5178986999963,383.6637388999952,384.170644599988,384.170644599988,384.31646299999557,ä,0.677566200014553,correct,,385.0039528999914,385.14281179998943,383.5178986999963,,,,,,,,,,,,14,C,2023-12-08_15h29.57.069,gca_discrimination,2022.2.4,143.75148244923523,
positions.xlsx,stimuli.xlsx,test.xlsx,stimuli/Social1.png,stimuli/Social2.png,stimuli/Nonsocial2.png,stimuli/Nonsocial1.png,stimuli/Test1.png,stimuli/Test2.png,"(0.7, -0.5)",cs_plus_s,"(-0.7, 0.5)",cs_minus_s,0,0,0,0,,,,,0,91,91,9,,,,,,,,,,,,,,,385.14281179998943,386.149751799996,386.149751799996,386.29554259999713,386.80248980000033,386.80248980000033,386.9483223999996,ä,0.5498046000138856,correct,,387.51079289999325,387.9552138999861,386.149751799996,,,,,,,,,,,,14,C,2023-12-08_15h29.57.069,gca_discrimination,2022.2.4,143.75148244923523,
positions.xlsx,stimuli.xlsx,test.xlsx,stimuli/Social1.png,stimuli/Social2.png,stimuli/Nonsocial2.png,stimuli/Nonsocial1.png,stimuli/Test1.png,stimuli/Test2.png,"(0.7, 0.5)",cs_plus_s,"(-0.7, -0.5)",cs_plus_s,0,0,0,0,,,,,0,92,92,55,,,,,,,,,,,,,,,387.9552138999861,388.9621453999862,388.9621453999862,389.1079456999869,389.6149141999922,389.6149141999922,389.7607059000002,l,0.665310500015039,correct,,390.43430269999953,391.399528199996,388.9621453999862,,,,,,,,,,,,14,C,2023-12-08_15h29.57.069,gca_discrimination,2022.2.4,143.75148244923523,
positions.xlsx,stimuli.xlsx,test.xlsx,stimuli/Social1.png,stimuli/Social2.png,stimuli/Nonsocial2.png,stimuli/Nonsocial1.png,stimuli/Test1.png,stimuli/Test2.png,"(0.7, 0.5)",cs_minus_ns,"(-0.7, 0.5)",cs_plus_ns,0,0,0,0,,,,,0,93,93,42,,,,,,,,,,,,,,,391.399528199996,392.4064118999959,392.4064118999959,392.55223429999023,393.0591878999985,393.0591878999985,393.20498809999845,ä,0.5263145000208169,correct,,393.73968759999843,393.7466262999951,392.4064118999959,,,,,,,,,,,,14,C,2023-12-08_15h29.57.069,gca_discrimination,2022.2.4,143.75148244923523,
positions.xlsx,stimuli.xlsx,test.xlsx,stimuli/Social1.png,stimuli/Social2.png,stimuli/Nonsocial2.png,stimuli/Nonsocial1.png,stimuli/Test1.png,stimuli/Test2.png,"(-0.7, 0.5)",cs_minus_s,"(-0.7, -0.5)",cs_minus_s,0,0,0,0,,,,,0,94,94,60,,,,,,,,,,,,,,,393.7466262999951,394.75356420000026,394.75356420000026,394.89939009999216,395.4063136999903,395.4063136999903,395.5521074999997,l,0.45742400002200156,correct,,396.01740679999057,396.25350089999847,394.75356420000026,,,,,,,,,,,,14,C,2023-12-08_15h29.57.069,gca_discrimination,2022.2.4,143.75148244923523,
positions.xlsx,stimuli.xlsx,test.xlsx,stimuli/Social1.png,stimuli/Social2.png,stimuli/Nonsocial2.png,stimuli/Nonsocial1.png,stimuli/Test1.png,stimuli/Test2.png,"(0.7, 0.5)",cs_plus_s,"(0.7, -0.5)",cs_plus_s,0,0,0,0,,,,,0,95,95,56,,,,,,,,,,,,,,,396.25350089999847,397.2604097000003,397.2604097000003,397.406218499993,397.91316189999634,397.91316189999634,398.0590075999935,l,0.4794815000204835,correct,,398.5520334999892,399.0658938999986,397.2604097000003,,,,,,,,,,,,14,C,2023-12-08_15h29.57.069,gca_discrimination,2022.2.4,143.75148244923523,
