posFile,stimFile,testFile,cs_plus_s,cs_minus_s,cs_plus_ns,cs_minus_ns,test1,test2,position1,trialtype,position2,comptype,blocks.thisRepN,blocks.thisTrialN,blocks.thisN,blocks.thisIndex,learning_trials.thisRepN,learning_trials.thisTrialN,learning_trials.thisN,learning_trials.thisIndex,trials.thisRepN,trials.thisTrialN,trials.thisN,trials.thisIndex,textStart.started,spaceStart.started,spaceStart.keys,spaceStart.rt,textStartExp.started,textExpImages.started,ImageLearning1.started,ImageLearning2.started,textSpace.started,spaceStartExp.started,spaceStartExp.keys,spaceStartExp.rt,blankScreen.started,blankScreen.stopped,fixcross.started,firstImage.started,fixcrossImage1.started,fixcrossITI.started,secondImage.started,fixcrossImage2.started,key.started,key.keys,key.rt,correctness,feedbackText.started,fixcrossEnd.started,fixcrossEnd.stopped,fixcross.stopped,feedbackText.stopped,textStartTask.started,textTaskImages.started,ImageTask1.started,ImageTask2.started,ImageTask3.started,ImageTask4.started,textTaskSpace.started,spaceStartTask.started,spaceStartTask.keys,spaceStartTask.rt,participant,group,date,expName,psychopyVersion,frameRate,
,,,,,,,,,,,,,,,,,,,,,,,,,12.117501300002914,12.117501300002914,space,4.708457799992175,,,,,,,,,,,,,,,,,,,,,,,,,,,,,,,,,,,,15,C,2023-12-08_17h29.59.115,gca_discrimination,2022.2.4,144.03016567285243,
positions.xlsx,stimuli.xlsx,test.xlsx,stimuli/Social1.png,stimuli/Social2.png,stimuli/Nonsocial2.png,stimuli/Nonsocial1.png,stimuli/Test1.png,stimuli/Test2.png,"(-0.7, -0.5)",test1,"(0.7, 0.5)",test2,0,0,0,0,0,0,0,8,,,,,,,,,16.846527500005323,16.846527500005323,16.846527500005323,16.846527500005323,16.846527500005323,16.846527500005323,space,22.994658399999025,39.85254819999682,41.73445449999417,41.73445449999417,42.748262199995224,42.748262199995224,42.880207499998505,43.394083999999566,43.394083999999566,43.53297790000215,l,1.044663299995591,wrong,44.59541759999411,46.595352100004675,47.053664999999455,,,,,,,,,,,,,15,C,2023-12-08_17h29.59.115,gca_discrimination,2022.2.4,144.03016567285243,
positions.xlsx,stimuli.xlsx,test.xlsx,stimuli/Social1.png,stimuli/Social2.png,stimuli/Nonsocial2.png,stimuli/Nonsocial1.png,stimuli/Test1.png,stimuli/Test2.png,"(0.7, -0.5)",test1,"(0.7, 0.5)",test1,0,0,0,0,0,1,1,10,,,,,,,,,,,,,,,,,,,47.053664999999455,48.05364660000487,48.05364660000487,48.20638400000462,48.70641169999726,48.70641169999726,48.85915190000378,l,0.6785414000041783,correct,49.54657930000394,51.54655729999649,52.39372949999233,48.05364660000487,51.54655729999649,,,,,,,,,,,15,C,2023-12-08_17h29.59.115,gca_discrimination,2022.2.4,144.03016567285243,
positions.xlsx,stimuli.xlsx,test.xlsx,stimuli/Social1.png,stimuli/Social2.png,stimuli/Nonsocial2.png,stimuli/Nonsocial1.png,stimuli/Test1.png,stimuli/Test2.png,"(-0.7, 0.5)",test2,"(0.7, 0.5)",test1,0,0,0,0,0,2,2,3,,,,,,,,,,,,,,,,,,,52.39372949999233,53.39371570000367,53.39371570000367,53.54643499999656,54.04642660000536,54.04642660000536,54.19919070000469,ä,0.6507257000048412,correct,54.85892230000172,56.858842400004505,57.47683849999157,53.39371570000367,56.858842400004505,,,,,,,,,,,15,C,2023-12-08_17h29.59.115,gca_discrimination,2022.2.4,144.03016567285243,
positions.xlsx,stimuli.xlsx,test.xlsx,stimuli/Social1.png,stimuli/Social2.png,stimuli/Nonsocial2.png,stimuli/Nonsocial1.png,stimuli/Test1.png,stimuli/Test2.png,"(0.7, 0.5)",test2,"(0.7, -0.5)",test1,0,0,0,0,0,3,3,6,,,,,,,,,,,,,,,,,,,57.47683849999157,58.47683070000494,58.47683070000494,58.629600400003255,59.12958589999471,59.12958589999471,59.2823664000025,l,0.7510807999933604,wrong,60.046199599994,62.046137099998305,62.83082469999499,58.47683070000494,62.046137099998305,,,,,,,,,,,15,C,2023-12-08_17h29.59.115,gca_discrimination,2022.2.4,144.03016567285243,
positions.xlsx,stimuli.xlsx,test.xlsx,stimuli/Social1.png,stimuli/Social2.png,stimuli/Nonsocial2.png,stimuli/Nonsocial1.png,stimuli/Test1.png,stimuli/Test2.png,"(-0.7, -0.5)",test2,"(0.7, -0.5)",test2,0,0,0,0,0,4,4,9,,,,,,,,,,,,,,,,,,,62.83082469999499,63.83080329999211,63.83080329999211,63.98355809999339,64.4835713999928,64.4835713999928,64.63633379999374,l,1.1013258999882964,correct,65.74737450000248,67.74730089999503,68.3097415999946,63.83080329999211,67.74730089999503,,,,,,,,,,,15,C,2023-12-08_17h29.59.115,gca_discrimination,2022.2.4,144.03016567285243,
positions.xlsx,stimuli.xlsx,test.xlsx,stimuli/Social1.png,stimuli/Social2.png,stimuli/Nonsocial2.png,stimuli/Nonsocial1.png,stimuli/Test1.png,stimuli/Test2.png,"(-0.7, -0.5)",test2,"(-0.7, 0.5)",test2,0,0,0,0,0,5,5,2,,,,,,,,,,,,,,,,,,,68.3097415999946,69.31668170000194,69.31668170000194,69.46250330000476,69.96250959999452,69.96250959999452,70.11526789999334,l,0.6226160999940475,correct,70.74716329999501,72.7470830999955,73.50398769999447,69.31668170000194,72.7470830999955,,,,,,,,,,,15,C,2023-12-08_17h29.59.115,gca_discrimination,2022.2.4,144.03016567285243,
positions.xlsx,stimuli.xlsx,test.xlsx,stimuli/Social1.png,stimuli/Social2.png,stimuli/Nonsocial2.png,stimuli/Nonsocial1.png,stimuli/Test1.png,stimuli/Test2.png,"(0.7, 0.5)",test1,"(0.7, -0.5)",test2,0,0,0,0,0,6,6,11,,,,,,,,,,,,,,,,,,,73.50398769999447,74.5039778999926,74.5039778999926,74.6567500999954,75.15674659999786,75.15674659999786,75.30949830000463,ä,0.6917766999977175,correct,76.01083539999672,78.01079669999308,78.78155949999928,74.5039778999926,78.01079669999308,,,,,,,,,,,15,C,2023-12-08_17h29.59.115,gca_discrimination,2022.2.4,144.03016567285243,
positions.xlsx,stimuli.xlsx,test.xlsx,stimuli/Social1.png,stimuli/Social2.png,stimuli/Nonsocial2.png,stimuli/Nonsocial1.png,stimuli/Test1.png,stimuli/Test2.png,"(-0.7, -0.5)",test2,"(0.7, 0.5)",test2,0,0,0,0,0,7,7,7,,,,,,,,,,,,,,,,,,,78.78155949999928,79.788478699993,79.788478699993,79.93431379999674,80.43430829999852,80.43430829999852,80.58705200000259,ä,0.6941850000002887,wrong,81.28844010000466,83.28836170000432,83.74665240000468,79.788478699993,83.28836170000432,,,,,,,,,,,15,C,2023-12-08_17h29.59.115,gca_discrimination,2022.2.4,144.03016567285243,
positions.xlsx,stimuli.xlsx,test.xlsx,stimuli/Social1.png,stimuli/Social2.png,stimuli/Nonsocial2.png,stimuli/Nonsocial1.png,stimuli/Test1.png,stimuli/Test2.png,"(-0.7, 0.5)",test2,"(0.7, -0.5)",test1,0,0,0,0,0,8,8,12,,,,,,,,,,,,,,,,,,,83.74665240000468,84.74660759999824,84.74660759999824,84.89941430000181,85.39940339999157,85.39940339999157,85.55214869999327,ä,0.5708070999971824,correct,86.13543729999219,88.13537989999168,88.63537790000555,84.74660759999824,88.13537989999168,,,,,,,,,,,15,C,2023-12-08_17h29.59.115,gca_discrimination,2022.2.4,144.03016567285243,
positions.xlsx,stimuli.xlsx,test.xlsx,stimuli/Social1.png,stimuli/Social2.png,stimuli/Nonsocial2.png,stimuli/Nonsocial1.png,stimuli/Test1.png,stimuli/Test2.png,"(0.7, -0.5)",test1,"(0.7, 0.5)",test2,0,0,0,0,0,9,9,0,,,,,,,,,,,,,,,,,,,88.63537790000555,89.64227680000477,89.64227680000477,89.78809360000014,90.28811209999549,90.28811209999549,90.44087619999482,ä,0.513238999992609,correct,90.96167170000263,92.96159049999551,93.12825829999929,89.64227680000477,92.96159049999551,,,,,,,,,,,15,C,2023-12-08_17h29.59.115,gca_discrimination,2022.2.4,144.03016567285243,
positions.xlsx,stimuli.xlsx,test.xlsx,stimuli/Social1.png,stimuli/Social2.png,stimuli/Nonsocial2.png,stimuli/Nonsocial1.png,stimuli/Test1.png,stimuli/Test2.png,"(0.7, 0.5)",test2,"(-0.7, 0.5)",test1,0,0,0,0,0,10,10,13,,,,,,,,,,,,,,,,,,,93.12825829999929,94.12822529999539,94.12822529999539,94.28099109999312,94.78095020000183,94.78095020000183,94.93371719999413,ä,0.8688665999943623,correct,95.81562209999538,97.81558379999478,98.21137740000268,94.12822529999539,97.81558379999478,,,,,,,,,,,15,C,2023-12-08_17h29.59.115,gca_discrimination,2022.2.4,144.03016567285243,
positions.xlsx,stimuli.xlsx,test.xlsx,stimuli/Social1.png,stimuli/Social2.png,stimuli/Nonsocial2.png,stimuli/Nonsocial1.png,stimuli/Test1.png,stimuli/Test2.png,"(-0.7, 0.5)",test1,"(0.7, -0.5)",test1,0,0,0,0,0,11,11,5,,,,,,,,,,,,,,,,,,,98.21137740000268,99.21135640000284,99.21135640000284,99.36409489999642,99.86409669999557,99.86409669999557,100.01686580000387,l,0.47307890000229236,correct,100.50297220000357,102.50286609999603,102.55151619999378,99.21135640000284,102.50286609999603,,,,,,,,,,,15,C,2023-12-08_17h29.59.115,gca_discrimination,2022.2.4,144.03016567285243,
positions.xlsx,stimuli.xlsx,test.xlsx,stimuli/Social1.png,stimuli/Social2.png,stimuli/Nonsocial2.png,stimuli/Nonsocial1.png,stimuli/Test1.png,stimuli/Test2.png,"(0.7, -0.5)",test2,"(-0.7, 0.5)",test1,0,0,0,0,0,12,12,4,,,,,,,,,,,,,,,,,,,102.55151619999378,103.55147920000309,103.55147920000309,103.70422689999396,104.20423000000301,104.20423000000301,104.35698199999752,ä,0.6208258999977261,correct,104.98889330000384,106.98882949999825,107.16936339999666,103.55147920000309,106.98882949999825,,,,,,,,,,,15,C,2023-12-08_17h29.59.115,gca_discrimination,2022.2.4,144.03016567285243,
positions.xlsx,stimuli.xlsx,test.xlsx,stimuli/Social1.png,stimuli/Social2.png,stimuli/Nonsocial2.png,stimuli/Nonsocial1.png,stimuli/Test1.png,stimuli/Test2.png,"(-0.7, 0.5)",test2,"(-0.7, -0.5)",test2,0,0,0,0,0,13,13,1,,,,,,,,,,,,,,,,,,,107.16936339999666,108.16933979999158,108.16933979999158,108.3221068999992,108.82903890000307,108.82903890000307,108.97484419999819,ä,0.5786327999958303,wrong,109.56510599999456,111.56503620000149,112.54413700000441,108.16933979999158,111.56503620000149,,,,,,,,,,,15,C,2023-12-08_17h29.59.115,gca_discrimination,2022.2.4,144.03016567285243,
positions.xlsx,stimuli.xlsx,test.xlsx,stimuli/Social1.png,stimuli/Social2.png,stimuli/Nonsocial2.png,stimuli/Nonsocial1.png,stimuli/Test1.png,stimuli/Test2.png,"(0.7, -0.5)",cs_plus_ns,"(-0.7, 0.5)",cs_minus_ns,0,0,0,0,,,,,0,0,0,33,,,,,,,,,,,,,122.07153669999389,123.18954479999957,123.18954479999957,124.18950779999432,124.18950779999432,124.32838500000071,124.83534370000416,124.83534370000416,124.98117450000427,ä,0.5967601999873295,correct,,125.5852995000023,125.73808850000205,,,112.54413700000441,112.54413700000441,112.54413700000441,112.54413700000441,112.54413700000441,112.54413700000441,112.54413700000441,112.54413700000441,space,9.514720599996508,15,C,2023-12-08_17h29.59.115,gca_discrimination,2022.2.4,144.03016567285243,
positions.xlsx,stimuli.xlsx,test.xlsx,stimuli/Social1.png,stimuli/Social2.png,stimuli/Nonsocial2.png,stimuli/Nonsocial1.png,stimuli/Test1.png,stimuli/Test2.png,"(-0.7, -0.5)",cs_minus_ns,"(-0.7, 0.5)",cs_plus_ns,0,0,0,0,,,,,0,1,1,39,,,,,,,,,,,,,,,125.73808850000205,126.74498960000346,126.74498960000346,126.8908100999979,127.39774279999256,127.39774279999256,127.54361140000401,ä,0.5223373000044376,correct,,128.07826789999672,128.61294639999687,126.74498960000346,,,,,,,,,,,,15,C,2023-12-08_17h29.59.115,gca_discrimination,2022.2.4,144.03016567285243,
positions.xlsx,stimuli.xlsx,test.xlsx,stimuli/Social1.png,stimuli/Social2.png,stimuli/Nonsocial2.png,stimuli/Nonsocial1.png,stimuli/Test1.png,stimuli/Test2.png,"(0.7, -0.5)",cs_minus_s,"(-0.7, -0.5)",cs_minus_s,0,0,0,0,,,,,0,2,2,70,,,,,,,,,,,,,,,128.61294639999687,129.61986320000142,129.61986320000142,129.76572310000483,130.27266529999906,130.27266529999906,130.4184663000051,l,0.5427707000053488,correct,,130.973960599993,131.286437200004,129.61986320000142,,,,,,,,,,,,15,C,2023-12-08_17h29.59.115,gca_discrimination,2022.2.4,144.03016567285243,
positions.xlsx,stimuli.xlsx,test.xlsx,stimuli/Social1.png,stimuli/Social2.png,stimuli/Nonsocial2.png,stimuli/Nonsocial1.png,stimuli/Test1.png,stimuli/Test2.png,"(-0.7, 0.5)",cs_minus_ns,"(-0.7, -0.5)",cs_minus_ns,0,0,0,0,,,,,0,3,3,84,,,,,,,,,,,,,,,131.286437200004,132.29340229999798,132.29340229999798,132.43920379999327,132.94610859999375,132.94610859999375,133.0919470999943,l,0.573538999989978,correct,,133.6752764999983,134.40442160000384,132.29340229999798,,,,,,,,,,,,15,C,2023-12-08_17h29.59.115,gca_discrimination,2022.2.4,144.03016567285243,
positions.xlsx,stimuli.xlsx,test.xlsx,stimuli/Social1.png,stimuli/Social2.png,stimuli/Nonsocial2.png,stimuli/Nonsocial1.png,stimuli/Test1.png,stimuli/Test2.png,"(0.7, 0.5)",cs_minus_s,"(-0.7, -0.5)",cs_minus_s,0,0,0,0,,,,,0,4,4,67,,,,,,,,,,,,,,,134.40442160000384,135.41131630000018,135.41131630000018,135.5571370999969,136.0641450999974,136.0641450999974,136.20988789999683,l,0.5452025999984471,correct,,136.76538599999913,137.1056949000049,135.41131630000018,,,,,,,,,,,,15,C,2023-12-08_17h29.59.115,gca_discrimination,2022.2.4,144.03016567285243,
positions.xlsx,stimuli.xlsx,test.xlsx,stimuli/Social1.png,stimuli/Social2.png,stimuli/Nonsocial2.png,stimuli/Nonsocial1.png,stimuli/Test1.png,stimuli/Test2.png,"(-0.7, 0.5)",cs_minus_ns,"(0.7, 0.5)",cs_minus_ns,0,0,0,0,,,,,0,5,5,85,,,,,,,,,,,,,,,137.1056949000049,138.1126712999976,138.1126712999976,138.2584010999999,138.76536659999692,138.76536659999692,138.91117389999272,l,0.43525149999186397,correct,,139.35559099999955,140.21665349999967,138.1126712999976,,,,,,,,,,,,15,C,2023-12-08_17h29.59.115,gca_discrimination,2022.2.4,144.03016567285243,
positions.xlsx,stimuli.xlsx,test.xlsx,stimuli/Social1.png,stimuli/Social2.png,stimuli/Nonsocial2.png,stimuli/Nonsocial1.png,stimuli/Test1.png,stimuli/Test2.png,"(0.7, -0.5)",cs_minus_ns,"(-0.7, 0.5)",cs_minus_ns,0,0,0,0,,,,,0,6,6,93,,,,,,,,,,,,,,,140.21665349999967,141.2236288999993,141.2236288999993,141.369374899994,141.8763653999922,141.8763653999922,142.02216140000382,l,0.3074177999951644,correct,,142.34162639999704,142.41800180000428,141.2236288999993,,,,,,,,,,,,15,C,2023-12-08_17h29.59.115,gca_discrimination,2022.2.4,144.03016567285243,
positions.xlsx,stimuli.xlsx,test.xlsx,stimuli/Social1.png,stimuli/Social2.png,stimuli/Nonsocial2.png,stimuli/Nonsocial1.png,stimuli/Test1.png,stimuli/Test2.png,"(0.7, 0.5)",cs_plus_ns,"(-0.7, -0.5)",cs_plus_ns,0,0,0,0,,,,,0,7,7,79,,,,,,,,,,,,,,,142.41800180000428,143.42486440000357,143.42486440000357,143.57069520000368,144.07766419999825,144.07766419999825,144.2234882000048,l,0.5149895999929868,correct,,144.75123819999862,145.27898360000108,143.42486440000357,,,,,,,,,,,,15,C,2023-12-08_17h29.59.115,gca_discrimination,2022.2.4,144.03016567285243,
positions.xlsx,stimuli.xlsx,test.xlsx,stimuli/Social1.png,stimuli/Social2.png,stimuli/Nonsocial2.png,stimuli/Nonsocial1.png,stimuli/Test1.png,stimuli/Test2.png,"(0.7, 0.5)",cs_plus_ns,"(0.7, -0.5)",cs_plus_ns,0,0,0,0,,,,,0,8,8,80,,,,,,,,,,,,,,,145.27898360000108,146.28590439999243,146.28590439999243,146.43172219999542,146.9386397999915,146.9386397999915,147.08446230000118,l,0.5893864999961806,correct,,147.68167029999313,148.2788467999926,146.28590439999243,,,,,,,,,,,,15,C,2023-12-08_17h29.59.115,gca_discrimination,2022.2.4,144.03016567285243,
positions.xlsx,stimuli.xlsx,test.xlsx,stimuli/Social1.png,stimuli/Social2.png,stimuli/Nonsocial2.png,stimuli/Nonsocial1.png,stimuli/Test1.png,stimuli/Test2.png,"(-0.7, 0.5)",cs_plus_s,"(-0.7, -0.5)",cs_minus_s,0,0,0,0,,,,,0,9,9,0,,,,,,,,,,,,,,,148.2788467999926,149.2857828999986,149.2857828999986,149.43159969999397,149.9384943000041,149.9384943000041,150.0843528999976,ä,0.4545940999960294,correct,,150.54958639999677,151.13985160000448,149.2857828999986,,,,,,,,,,,,15,C,2023-12-08_17h29.59.115,gca_discrimination,2022.2.4,144.03016567285243,
positions.xlsx,stimuli.xlsx,test.xlsx,stimuli/Social1.png,stimuli/Social2.png,stimuli/Nonsocial2.png,stimuli/Nonsocial1.png,stimuli/Test1.png,stimuli/Test2.png,"(0.7, 0.5)",cs_minus_ns,"(0.7, -0.5)",cs_plus_ns,0,0,0,0,,,,,0,10,10,44,,,,,,,,,,,,,,,151.13985160000448,152.146788500002,152.146788500002,152.29260620000423,152.79949119999947,152.79949119999947,152.9453599999979,ä,0.8001806999964174,correct,,153.757786400005,154.08425179999904,152.146788500002,,,,,,,,,,,,15,C,2023-12-08_17h29.59.115,gca_discrimination,2022.2.4,144.03016567285243,
positions.xlsx,stimuli.xlsx,test.xlsx,stimuli/Social1.png,stimuli/Social2.png,stimuli/Nonsocial2.png,stimuli/Nonsocial1.png,stimuli/Test1.png,stimuli/Test2.png,"(-0.7, -0.5)",cs_plus_ns,"(0.7, 0.5)",cs_plus_ns,0,0,0,0,,,,,0,11,11,76,,,,,,,,,,,,,,,154.08425179999904,155.09112290000485,155.09112290000485,155.23695459999726,155.7438795999915,155.7438795999915,155.8897561000049,l,0.6720744000049308,correct,,156.5702364000026,156.6674323000043,155.09112290000485,,,,,,,,,,,,15,C,2023-12-08_17h29.59.115,gca_discrimination,2022.2.4,144.03016567285243,
positions.xlsx,stimuli.xlsx,test.xlsx,stimuli/Social1.png,stimuli/Social2.png,stimuli/Nonsocial2.png,stimuli/Nonsocial1.png,stimuli/Test1.png,stimuli/Test2.png,"(0.7, 0.5)",cs_plus_s,"(-0.7, -0.5)",cs_minus_s,0,0,0,0,,,,,0,12,12,7,,,,,,,,,,,,,,,156.6674323000043,157.6743037999986,157.6743037999986,157.8201640000043,158.32710169999336,158.32710169999336,158.47291919999407,ä,0.45667739999771584,correct,,158.93815220000397,159.6534396999923,157.6743037999986,,,,,,,,,,,,15,C,2023-12-08_17h29.59.115,gca_discrimination,2022.2.4,144.03016567285243,
positions.xlsx,stimuli.xlsx,test.xlsx,stimuli/Social1.png,stimuli/Social2.png,stimuli/Nonsocial2.png,stimuli/Nonsocial1.png,stimuli/Test1.png,stimuli/Test2.png,"(0.7, -0.5)",cs_minus_ns,"(-0.7, -0.5)",cs_minus_ns,0,0,0,0,,,,,0,13,13,94,,,,,,,,,,,,,,,159.6534396999923,160.66034040000523,160.66034040000523,160.80615829999442,161.31308849999914,161.31308849999914,161.4589210999984,l,0.3428078999859281,correct,,161.81307509999897,162.11861710000085,160.66034040000523,,,,,,,,,,,,15,C,2023-12-08_17h29.59.115,gca_discrimination,2022.2.4,144.03016567285243,
positions.xlsx,stimuli.xlsx,test.xlsx,stimuli/Social1.png,stimuli/Social2.png,stimuli/Nonsocial2.png,stimuli/Nonsocial1.png,stimuli/Test1.png,stimuli/Test2.png,"(-0.7, -0.5)",cs_plus_s,"(-0.7, 0.5)",cs_minus_s,0,0,0,0,,,,,0,14,14,3,,,,,,,,,,,,,,,162.11861710000085,163.12553330000082,163.12553330000082,163.27134269999806,163.77834780000558,163.77834780000558,163.9241064999951,ä,0.5097017999942182,correct,,164.4449511999992,164.4726915999927,163.12553330000082,,,,,,,,,,,,15,C,2023-12-08_17h29.59.115,gca_discrimination,2022.2.4,144.03016567285243,
positions.xlsx,stimuli.xlsx,test.xlsx,stimuli/Social1.png,stimuli/Social2.png,stimuli/Nonsocial2.png,stimuli/Nonsocial1.png,stimuli/Test1.png,stimuli/Test2.png,"(0.7, -0.5)",cs_minus_ns,"(0.7, 0.5)",cs_plus_ns,0,0,0,0,,,,,0,15,15,47,,,,,,,,,,,,,,,164.4726915999927,165.47959479999554,165.47959479999554,165.62542490000487,166.13235889999487,166.13235889999487,166.2781610999955,ä,0.6270155999955023,correct,,166.91703290000441,167.87531920000038,165.47959479999554,,,,,,,,,,,,15,C,2023-12-08_17h29.59.115,gca_discrimination,2022.2.4,144.03016567285243,
positions.xlsx,stimuli.xlsx,test.xlsx,stimuli/Social1.png,stimuli/Social2.png,stimuli/Nonsocial2.png,stimuli/Nonsocial1.png,stimuli/Test1.png,stimuli/Test2.png,"(0.7, 0.5)",cs_plus_s,"(-0.7, 0.5)",cs_minus_s,0,0,0,0,,,,,0,16,16,6,,,,,,,,,,,,,,,167.87531920000038,168.88224189999164,168.88224189999164,169.02807040000334,169.53500109999732,169.53500109999732,169.6808321999997,ä,0.8408668999909423,correct,,170.53491309999663,171.027983699998,168.88224189999164,,,,,,,,,,,,15,C,2023-12-08_17h29.59.115,gca_discrimination,2022.2.4,144.03016567285243,
positions.xlsx,stimuli.xlsx,test.xlsx,stimuli/Social1.png,stimuli/Social2.png,stimuli/Nonsocial2.png,stimuli/Nonsocial1.png,stimuli/Test1.png,stimuli/Test2.png,"(-0.7, 0.5)",cs_plus_ns,"(0.7, -0.5)",cs_plus_ns,0,0,0,0,,,,,0,17,17,74,,,,,,,,,,,,,,,171.027983699998,172.03490020000027,172.03490020000027,172.1807598000014,172.68762609999976,172.68762609999976,172.83345160000317,l,0.47198230000503827,correct,,173.3126043999946,173.92370790000132,172.03490020000027,,,,,,,,,,,,15,C,2023-12-08_17h29.59.115,gca_discrimination,2022.2.4,144.03016567285243,
positions.xlsx,stimuli.xlsx,test.xlsx,stimuli/Social1.png,stimuli/Social2.png,stimuli/Nonsocial2.png,stimuli/Nonsocial1.png,stimuli/Test1.png,stimuli/Test2.png,"(-0.7, -0.5)",cs_plus_ns,"(0.7, -0.5)",cs_plus_ns,0,0,0,0,,,,,0,18,18,77,,,,,,,,,,,,,,,173.92370790000132,174.9306157999963,174.9306157999963,175.07641549999244,175.58337140000367,175.58337140000367,175.72914219999802,l,0.36882749998767395,correct,,176.11111129999335,176.62499050000042,174.9306157999963,,,,,,,,,,,,15,C,2023-12-08_17h29.59.115,gca_discrimination,2022.2.4,144.03016567285243,
positions.xlsx,stimuli.xlsx,test.xlsx,stimuli/Social1.png,stimuli/Social2.png,stimuli/Nonsocial2.png,stimuli/Nonsocial1.png,stimuli/Test1.png,stimuli/Test2.png,"(-0.7, 0.5)",cs_plus_ns,"(0.7, 0.5)",cs_minus_ns,0,0,0,0,,,,,0,19,19,25,,,,,,,,,,,,,,,176.62499050000042,177.63190379999287,177.63190379999287,177.7777430999995,178.28466829999525,178.28466829999525,178.43049909999536,ä,0.3150123999948846,correct,,178.75683610000124,179.229061799997,177.63190379999287,,,,,,,,,,,,15,C,2023-12-08_17h29.59.115,gca_discrimination,2022.2.4,144.03016567285243,
positions.xlsx,stimuli.xlsx,test.xlsx,stimuli/Social1.png,stimuli/Social2.png,stimuli/Nonsocial2.png,stimuli/Nonsocial1.png,stimuli/Test1.png,stimuli/Test2.png,"(0.7, 0.5)",cs_minus_s,"(0.7, -0.5)",cs_minus_s,0,0,0,0,,,,,0,20,20,68,,,,,,,,,,,,,,,179.229061799997,180.2359817999968,180.2359817999968,180.38181140000233,180.88874300000316,180.88874300000316,181.0345490000036,l,0.5028267000016058,correct,,181.5484209999995,181.6872888999933,180.2359817999968,,,,,,,,,,,,15,C,2023-12-08_17h29.59.115,gca_discrimination,2022.2.4,144.03016567285243,
positions.xlsx,stimuli.xlsx,test.xlsx,stimuli/Social1.png,stimuli/Social2.png,stimuli/Nonsocial2.png,stimuli/Nonsocial1.png,stimuli/Test1.png,stimuli/Test2.png,"(0.7, -0.5)",cs_minus_ns,"(-0.7, -0.5)",cs_plus_ns,0,0,0,0,,,,,0,21,21,46,,,,,,,,,,,,,,,181.6872888999933,182.6942457999976,182.6942457999976,182.84003140000277,183.34699669999827,183.34699669999827,183.49279839999508,ä,0.47677889998885803,correct,,183.97889329999452,184.5552558999916,182.6942457999976,,,,,,,,,,,,15,C,2023-12-08_17h29.59.115,gca_discrimination,2022.2.4,144.03016567285243,
positions.xlsx,stimuli.xlsx,test.xlsx,stimuli/Social1.png,stimuli/Social2.png,stimuli/Nonsocial2.png,stimuli/Nonsocial1.png,stimuli/Test1.png,stimuli/Test2.png,"(0.7, 0.5)",cs_minus_s,"(-0.7, 0.5)",cs_plus_s,0,0,0,0,,,,,0,22,22,18,,,,,,,,,,,,,,,184.5552558999916,185.56212529999902,185.56212529999902,185.7079645000049,186.21490550000453,186.21490550000453,186.36071369999263,ä,0.4890758999972604,correct,,186.8607245000021,187.66623339999933,185.56212529999902,,,,,,,,,,,,15,C,2023-12-08_17h29.59.115,gca_discrimination,2022.2.4,144.03016567285243,
positions.xlsx,stimuli.xlsx,test.xlsx,stimuli/Social1.png,stimuli/Social2.png,stimuli/Nonsocial2.png,stimuli/Nonsocial1.png,stimuli/Test1.png,stimuli/Test2.png,"(0.7, -0.5)",cs_minus_s,"(-0.7, 0.5)",cs_plus_s,0,0,0,0,,,,,0,23,23,21,,,,,,,,,,,,,,,187.66623339999933,188.6731177000038,188.6731177000038,188.81900730000052,189.3258952000033,189.3258952000033,189.47173859999748,ä,0.4978379000094719,correct,,189.9786413999973,190.4370329999947,188.6731177000038,,,,,,,,,,,,15,C,2023-12-08_17h29.59.115,gca_discrimination,2022.2.4,144.03016567285243,
positions.xlsx,stimuli.xlsx,test.xlsx,stimuli/Social1.png,stimuli/Social2.png,stimuli/Nonsocial2.png,stimuli/Nonsocial1.png,stimuli/Test1.png,stimuli/Test2.png,"(-0.7, 0.5)",cs_plus_s,"(-0.7, -0.5)",cs_plus_s,0,0,0,0,,,,,0,24,24,48,,,,,,,,,,,,,,,190.4370329999947,191.44387570000254,191.44387570000254,191.58970850000333,192.0966575999919,192.0966575999919,192.2424267000024,l,0.5429411999939475,correct,,192.79795829999784,192.86739210000087,191.44387570000254,,,,,,,,,,,,15,C,2023-12-08_17h29.59.115,gca_discrimination,2022.2.4,144.03016567285243,
positions.xlsx,stimuli.xlsx,test.xlsx,stimuli/Social1.png,stimuli/Social2.png,stimuli/Nonsocial2.png,stimuli/Nonsocial1.png,stimuli/Test1.png,stimuli/Test2.png,"(0.7, 0.5)",cs_minus_ns,"(-0.7, 0.5)",cs_plus_ns,0,0,0,0,,,,,0,25,25,42,,,,,,,,,,,,,,,192.86739210000087,193.87435389999882,193.87435389999882,194.02015559999563,194.52707749999536,194.52707749999536,194.67292309999175,ä,0.48217940000176895,correct,,195.16594880000048,196.15203509999264,193.87435389999882,,,,,,,,,,,,15,C,2023-12-08_17h29.59.115,gca_discrimination,2022.2.4,144.03016567285243,
positions.xlsx,stimuli.xlsx,test.xlsx,stimuli/Social1.png,stimuli/Social2.png,stimuli/Nonsocial2.png,stimuli/Nonsocial1.png,stimuli/Test1.png,stimuli/Test2.png,"(0.7, -0.5)",cs_plus_ns,"(-0.7, -0.5)",cs_plus_ns,0,0,0,0,,,,,0,26,26,82,,,,,,,,,,,,,,,196.15203509999264,197.15894759999355,197.15894759999355,197.3047263000044,197.81165590000455,197.81165590000455,197.95752199999697,ä,0.2532218999986071,wrong,,198.22139049999532,198.6241447999928,197.15894759999355,,,,,,,,,,,,15,C,2023-12-08_17h29.59.115,gca_discrimination,2022.2.4,144.03016567285243,
positions.xlsx,stimuli.xlsx,test.xlsx,stimuli/Social1.png,stimuli/Social2.png,stimuli/Nonsocial2.png,stimuli/Nonsocial1.png,stimuli/Test1.png,stimuli/Test2.png,"(0.7, -0.5)",cs_minus_ns,"(-0.7, 0.5)",cs_plus_ns,0,0,0,0,,,,,0,27,27,45,,,,,,,,,,,,,,,198.6241447999928,199.6310991999926,199.6310991999926,199.77686879999237,200.28377819999878,200.28377819999878,200.4296156000055,ä,0.8682226999953855,correct,,201.30460639999365,202.15872740000486,199.6310991999926,,,,,,,,,,,,15,C,2023-12-08_17h29.59.115,gca_discrimination,2022.2.4,144.03016567285243,
positions.xlsx,stimuli.xlsx,test.xlsx,stimuli/Social1.png,stimuli/Social2.png,stimuli/Nonsocial2.png,stimuli/Nonsocial1.png,stimuli/Test1.png,stimuli/Test2.png,"(0.7, 0.5)",cs_minus_s,"(0.7, -0.5)",cs_plus_s,0,0,0,0,,,,,0,28,28,20,,,,,,,,,,,,,,,202.15872740000486,203.16562139999587,203.16562139999587,203.31145910000487,203.81840469999588,203.81840469999588,203.96424250000564,ä,0.6610514000058174,correct,,204.6377949000016,205.1585880999919,203.16562139999587,,,,,,,,,,,,15,C,2023-12-08_17h29.59.115,gca_discrimination,2022.2.4,144.03016567285243,
positions.xlsx,stimuli.xlsx,test.xlsx,stimuli/Social1.png,stimuli/Social2.png,stimuli/Nonsocial2.png,stimuli/Nonsocial1.png,stimuli/Test1.png,stimuli/Test2.png,"(-0.7, -0.5)",cs_minus_ns,"(0.7, -0.5)",cs_minus_ns,0,0,0,0,,,,,0,29,29,89,,,,,,,,,,,,,,,205.1585880999919,206.165519999995,206.165519999995,206.31135910000012,206.81829100000323,206.81829100000323,206.96415329999581,l,0.26111699998728,correct,,207.23489419999532,207.5682364999957,206.165519999995,,,,,,,,,,,,15,C,2023-12-08_17h29.59.115,gca_discrimination,2022.2.4,144.03016567285243,
positions.xlsx,stimuli.xlsx,test.xlsx,stimuli/Social1.png,stimuli/Social2.png,stimuli/Nonsocial2.png,stimuli/Nonsocial1.png,stimuli/Test1.png,stimuli/Test2.png,"(-0.7, -0.5)",cs_plus_s,"(-0.7, 0.5)",cs_plus_s,0,0,0,0,,,,,0,30,30,51,,,,,,,,,,,,,,,207.5682364999957,208.5751248000015,208.5751248000015,208.7210436000023,209.22791780000261,209.22791780000261,209.37375020000036,l,0.7094368999969447,correct,,210.09592789999442,210.42229499999667,208.5751248000015,,,,,,,,,,,,15,C,2023-12-08_17h29.59.115,gca_discrimination,2022.2.4,144.03016567285243,
positions.xlsx,stimuli.xlsx,test.xlsx,stimuli/Social1.png,stimuli/Social2.png,stimuli/Nonsocial2.png,stimuli/Nonsocial1.png,stimuli/Test1.png,stimuli/Test2.png,"(-0.7, -0.5)",cs_minus_s,"(0.7, -0.5)",cs_plus_s,0,0,0,0,,,,,0,31,31,17,,,,,,,,,,,,,,,210.42229499999667,211.42921899999783,211.42921899999783,211.57503779999388,212.0819751999952,212.0819751999952,212.22777109999151,ä,0.5514258000039263,correct,,212.7902793999965,213.41527369999676,211.42921899999783,,,,,,,,,,,,15,C,2023-12-08_17h29.59.115,gca_discrimination,2022.2.4,144.03016567285243,
positions.xlsx,stimuli.xlsx,test.xlsx,stimuli/Social1.png,stimuli/Social2.png,stimuli/Nonsocial2.png,stimuli/Nonsocial1.png,stimuli/Test1.png,stimuli/Test2.png,"(-0.7, 0.5)",cs_plus_ns,"(0.7, 0.5)",cs_plus_ns,0,0,0,0,,,,,0,32,32,73,,,,,,,,,,,,,,,213.41527369999676,214.42215549999673,214.42215549999673,214.56796539999777,215.07492909999564,215.07492909999564,215.22073099999398,ä,0.3976921999856131,wrong,,215.63049769999634,215.90814869999303,214.42215549999673,,,,,,,,,,,,15,C,2023-12-08_17h29.59.115,gca_discrimination,2022.2.4,144.03016567285243,
positions.xlsx,stimuli.xlsx,test.xlsx,stimuli/Social1.png,stimuli/Social2.png,stimuli/Nonsocial2.png,stimuli/Nonsocial1.png,stimuli/Test1.png,stimuli/Test2.png,"(-0.7, -0.5)",cs_plus_ns,"(0.7, -0.5)",cs_minus_ns,0,0,0,0,,,,,0,33,33,29,,,,,,,,,,,,,,,215.90814869999303,216.91511240000546,216.91511240000546,217.0609609999956,217.56782699999167,217.56782699999167,217.71368610000354,ä,0.9287829999957466,correct,,218.65112739999313,218.9011298999976,216.91511240000546,,,,,,,,,,,,15,C,2023-12-08_17h29.59.115,gca_discrimination,2022.2.4,144.03016567285243,
positions.xlsx,stimuli.xlsx,test.xlsx,stimuli/Social1.png,stimuli/Social2.png,stimuli/Nonsocial2.png,stimuli/Nonsocial1.png,stimuli/Test1.png,stimuli/Test2.png,"(0.7, 0.5)",cs_plus_ns,"(-0.7, 0.5)",cs_minus_ns,0,0,0,0,,,,,0,34,34,30,,,,,,,,,,,,,,,218.9011298999976,219.90805080000428,219.90805080000428,220.05389080000168,220.56081700000504,220.56081700000504,220.70663810000406,ä,0.4306594999943627,correct,,221.14414879999822,222.08852350000234,219.90805080000428,,,,,,,,,,,,15,C,2023-12-08_17h29.59.115,gca_discrimination,2022.2.4,144.03016567285243,
positions.xlsx,stimuli.xlsx,test.xlsx,stimuli/Social1.png,stimuli/Social2.png,stimuli/Nonsocial2.png,stimuli/Nonsocial1.png,stimuli/Test1.png,stimuli/Test2.png,"(-0.7, 0.5)",cs_minus_s,"(0.7, 0.5)",cs_plus_s,0,0,0,0,,,,,0,35,35,13,,,,,,,,,,,,,,,222.08852350000234,223.09540199999174,223.09540199999174,223.2412331999949,223.74815909999597,223.74815909999597,223.89399219999905,ä,0.37194159999489784,correct,,224.2759495999926,225.13003440000466,223.09540199999174,,,,,,,,,,,,15,C,2023-12-08_17h29.59.115,gca_discrimination,2022.2.4,144.03016567285243,
positions.xlsx,stimuli.xlsx,test.xlsx,stimuli/Social1.png,stimuli/Social2.png,stimuli/Nonsocial2.png,stimuli/Nonsocial1.png,stimuli/Test1.png,stimuli/Test2.png,"(0.7, 0.5)",cs_minus_ns,"(0.7, -0.5)",cs_minus_ns,0,0,0,0,,,,,0,36,36,92,,,,,,,,,,,,,,,225.13003440000466,226.13696819999313,226.13696819999313,226.28277750000416,226.78974639999797,226.78974639999797,226.93556399999943,ä,0.6341799999936484,wrong,,227.58133869999438,228.56742379999196,226.13696819999313,,,,,,,,,,,,15,C,2023-12-08_17h29.59.115,gca_discrimination,2022.2.4,144.03016567285243,
positions.xlsx,stimuli.xlsx,test.xlsx,stimuli/Social1.png,stimuli/Social2.png,stimuli/Nonsocial2.png,stimuli/Nonsocial1.png,stimuli/Test1.png,stimuli/Test2.png,"(-0.7, -0.5)",cs_plus_ns,"(-0.7, 0.5)",cs_plus_ns,0,0,0,0,,,,,0,37,37,75,,,,,,,,,,,,,,,228.56742379999196,229.57433879999735,229.57433879999735,229.720186999999,230.22709600000235,230.22709600000235,230.3729114000016,l,0.5731322999927215,correct,,230.95621619999292,231.54654609999852,229.57433879999735,,,,,,,,,,,,15,C,2023-12-08_17h29.59.115,gca_discrimination,2022.2.4,144.03016567285243,
positions.xlsx,stimuli.xlsx,test.xlsx,stimuli/Social1.png,stimuli/Social2.png,stimuli/Nonsocial2.png,stimuli/Nonsocial1.png,stimuli/Test1.png,stimuli/Test2.png,"(-0.7, 0.5)",cs_minus_s,"(-0.7, -0.5)",cs_minus_s,0,0,0,0,,,,,0,38,38,60,,,,,,,,,,,,,,,231.54654609999852,232.55338529999426,232.55338529999426,232.69922779999615,233.20614589999605,233.20614589999605,233.3519668999943,l,0.40202499998849817,correct,,233.76166259999445,234.14361590000044,232.55338529999426,,,,,,,,,,,,15,C,2023-12-08_17h29.59.115,gca_discrimination,2022.2.4,144.03016567285243,
positions.xlsx,stimuli.xlsx,test.xlsx,stimuli/Social1.png,stimuli/Social2.png,stimuli/Nonsocial2.png,stimuli/Nonsocial1.png,stimuli/Test1.png,stimuli/Test2.png,"(-0.7, 0.5)",cs_plus_s,"(0.7, 0.5)",cs_minus_s,0,0,0,0,,,,,0,39,39,1,,,,,,,,,,,,,,,234.14361590000044,235.15051839999796,235.15051839999796,235.29633349999494,235.8032574999961,235.8032574999961,235.94907829999283,ä,0.5567127999966033,correct,,236.51852329999383,236.6018383000046,235.15051839999796,,,,,,,,,,,,15,C,2023-12-08_17h29.59.115,gca_discrimination,2022.2.4,144.03016567285243,
positions.xlsx,stimuli.xlsx,test.xlsx,stimuli/Social1.png,stimuli/Social2.png,stimuli/Nonsocial2.png,stimuli/Nonsocial1.png,stimuli/Test1.png,stimuli/Test2.png,"(-0.7, 0.5)",cs_minus_ns,"(0.7, -0.5)",cs_plus_ns,0,0,0,0,,,,,0,40,40,38,,,,,,,,,,,,,,,236.6018383000046,237.6087228999968,237.6087228999968,237.7545298000041,238.2614700999984,238.2614700999984,238.40732519999437,ä,0.3941144999989774,correct,,238.81006419999176,239.24757710000267,237.6087228999968,,,,,,,,,,,,15,C,2023-12-08_17h29.59.115,gca_discrimination,2022.2.4,144.03016567285243,
positions.xlsx,stimuli.xlsx,test.xlsx,stimuli/Social1.png,stimuli/Social2.png,stimuli/Nonsocial2.png,stimuli/Nonsocial1.png,stimuli/Test1.png,stimuli/Test2.png,"(-0.7, 0.5)",cs_minus_s,"(0.7, 0.5)",cs_minus_s,0,0,0,0,,,,,0,41,41,61,,,,,,,,,,,,,,,239.24757710000267,240.25447549999808,240.25447549999808,240.4003029000014,240.90726369999174,240.90726369999174,241.05306940000446,l,0.27700969998841174,correct,,241.3377688000037,242.20577689999482,240.25447549999808,,,,,,,,,,,,15,C,2023-12-08_17h29.59.115,gca_discrimination,2022.2.4,144.03016567285243,
positions.xlsx,stimuli.xlsx,test.xlsx,stimuli/Social1.png,stimuli/Social2.png,stimuli/Nonsocial2.png,stimuli/Nonsocial1.png,stimuli/Test1.png,stimuli/Test2.png,"(0.7, -0.5)",cs_plus_ns,"(0.7, 0.5)",cs_minus_ns,0,0,0,0,,,,,0,42,42,35,,,,,,,,,,,,,,,242.20577689999482,243.21271069999784,243.21271069999784,243.35852100000193,243.86547049999353,243.86547049999353,244.0112483999983,ä,0.4871673000016017,correct,,244.51124510000227,245.51119010000548,243.21271069999784,,,,,,,,,,,,15,C,2023-12-08_17h29.59.115,gca_discrimination,2022.2.4,144.03016567285243,
positions.xlsx,stimuli.xlsx,test.xlsx,stimuli/Social1.png,stimuli/Social2.png,stimuli/Nonsocial2.png,stimuli/Nonsocial1.png,stimuli/Test1.png,stimuli/Test2.png,"(-0.7, 0.5)",cs_minus_ns,"(-0.7, -0.5)",cs_plus_ns,0,0,0,0,,,,,0,43,43,36,,,,,,,,,,,,,,,245.51119010000548,246.51814030000241,246.51814030000241,246.66398389999813,247.1708745999931,247.1708745999931,247.3167162000027,ä,0.3969549999892479,correct,,247.72641889999795,248.06665209999483,246.51814030000241,,,,,,,,,,,,15,C,2023-12-08_17h29.59.115,gca_discrimination,2022.2.4,144.03016567285243,
positions.xlsx,stimuli.xlsx,test.xlsx,stimuli/Social1.png,stimuli/Social2.png,stimuli/Nonsocial2.png,stimuli/Nonsocial1.png,stimuli/Test1.png,stimuli/Test2.png,"(-0.7, 0.5)",cs_minus_s,"(0.7, -0.5)",cs_minus_s,0,0,0,0,,,,,0,44,44,62,,,,,,,,,,,,,,,248.06665209999483,249.07357469999988,249.07357469999988,249.21941119999974,249.7263144000026,249.7263144000026,249.8721441999951,l,0.6660325999982888,correct,,250.54580399999395,251.05961460000253,249.07357469999988,,,,,,,,,,,,15,C,2023-12-08_17h29.59.115,gca_discrimination,2022.2.4,144.03016567285243,
positions.xlsx,stimuli.xlsx,test.xlsx,stimuli/Social1.png,stimuli/Social2.png,stimuli/Nonsocial2.png,stimuli/Nonsocial1.png,stimuli/Test1.png,stimuli/Test2.png,"(-0.7, -0.5)",cs_minus_s,"(0.7, 0.5)",cs_plus_s,0,0,0,0,,,,,0,45,45,16,,,,,,,,,,,,,,,251.05961460000253,252.0665333999932,252.0665333999932,252.2123486000055,252.7192600999988,252.7192600999988,252.86506339999323,ä,0.38441870000679046,correct,,253.26089049999428,254.22617969999555,252.0665333999932,,,,,,,,,,,,15,C,2023-12-08_17h29.59.115,gca_discrimination,2022.2.4,144.03016567285243,
positions.xlsx,stimuli.xlsx,test.xlsx,stimuli/Social1.png,stimuli/Social2.png,stimuli/Nonsocial2.png,stimuli/Nonsocial1.png,stimuli/Test1.png,stimuli/Test2.png,"(-0.7, -0.5)",cs_minus_s,"(0.7, -0.5)",cs_minus_s,0,0,0,0,,,,,0,46,46,65,,,,,,,,,,,,,,,254.22617969999555,255.233052399999,255.233052399999,255.37889029999496,255.88581059999706,255.88581059999706,256.0316616999917,l,0.4097382000036305,correct,,256.4483187000005,256.4830217999988,255.233052399999,,,,,,,,,,,,15,C,2023-12-08_17h29.59.115,gca_discrimination,2022.2.4,144.03016567285243,
positions.xlsx,stimuli.xlsx,test.xlsx,stimuli/Social1.png,stimuli/Social2.png,stimuli/Nonsocial2.png,stimuli/Nonsocial1.png,stimuli/Test1.png,stimuli/Test2.png,"(-0.7, -0.5)",cs_minus_ns,"(0.7, 0.5)",cs_minus_ns,0,0,0,0,,,,,0,47,47,88,,,,,,,,,,,,,,,256.4830217999988,257.4899333999929,257.4899333999929,257.6357397999964,258.142671900001,258.142671900001,258.28850209999655,ä,0.45691639999859035,wrong,,258.7537643999967,259.02457460000005,257.4899333999929,,,,,,,,,,,,15,C,2023-12-08_17h29.59.115,gca_discrimination,2022.2.4,144.03016567285243,
positions.xlsx,stimuli.xlsx,test.xlsx,stimuli/Social1.png,stimuli/Social2.png,stimuli/Nonsocial2.png,stimuli/Nonsocial1.png,stimuli/Test1.png,stimuli/Test2.png,"(0.7, -0.5)",cs_plus_s,"(0.7, 0.5)",cs_minus_s,0,0,0,0,,,,,0,48,48,11,,,,,,,,,,,,,,,259.02457460000005,260.0314827999973,260.0314827999973,260.1772931000014,260.6842359000002,260.6842359000002,260.83005550000235,ä,0.41985720000229776,correct,,261.2606025999994,261.91337910000584,260.0314827999973,,,,,,,,,,,,15,C,2023-12-08_17h29.59.115,gca_discrimination,2022.2.4,144.03016567285243,
positions.xlsx,stimuli.xlsx,test.xlsx,stimuli/Social1.png,stimuli/Social2.png,stimuli/Nonsocial2.png,stimuli/Nonsocial1.png,stimuli/Test1.png,stimuli/Test2.png,"(0.7, -0.5)",cs_minus_s,"(-0.7, 0.5)",cs_minus_s,0,0,0,0,,,,,0,49,49,69,,,,,,,,,,,,,,,261.91337910000584,262.9202552999923,262.9202552999923,263.0660859999916,263.57299539999804,263.57299539999804,263.71885039999324,l,0.45131980000587646,correct,,264.1771602999943,264.44101260000025,262.9202552999923,,,,,,,,,,,,15,C,2023-12-08_17h29.59.115,gca_discrimination,2022.2.4,144.03016567285243,
positions.xlsx,stimuli.xlsx,test.xlsx,stimuli/Social1.png,stimuli/Social2.png,stimuli/Nonsocial2.png,stimuli/Nonsocial1.png,stimuli/Test1.png,stimuli/Test2.png,"(0.7, -0.5)",cs_plus_ns,"(0.7, 0.5)",cs_plus_ns,0,0,0,0,,,,,0,50,50,83,,,,,,,,,,,,,,,264.44101260000025,265.44794600000023,265.44794600000023,265.59376590000466,266.10070989999804,266.10070989999804,266.24650219999603,ä,0.555296599995927,wrong,,266.8090494999924,267.15621079999255,265.44794600000023,,,,,,,,,,,,15,C,2023-12-08_17h29.59.115,gca_discrimination,2022.2.4,144.03016567285243,
positions.xlsx,stimuli.xlsx,test.xlsx,stimuli/Social1.png,stimuli/Social2.png,stimuli/Nonsocial2.png,stimuli/Nonsocial1.png,stimuli/Test1.png,stimuli/Test2.png,"(-0.7, 0.5)",cs_plus_s,"(0.7, -0.5)",cs_minus_s,0,0,0,0,,,,,0,51,51,2,,,,,,,,,,,,,,,267.15621079999255,268.1631095000048,268.1631095000048,268.30895829999645,268.8158833000052,268.8158833000052,268.96165589999873,ä,0.44772089998878073,correct,,269.420020000005,269.7602515000035,268.1631095000048,,,,,,,,,,,,15,C,2023-12-08_17h29.59.115,gca_discrimination,2022.2.4,144.03016567285243,
positions.xlsx,stimuli.xlsx,test.xlsx,stimuli/Social1.png,stimuli/Social2.png,stimuli/Nonsocial2.png,stimuli/Nonsocial1.png,stimuli/Test1.png,stimuli/Test2.png,"(-0.7, -0.5)",cs_minus_s,"(-0.7, 0.5)",cs_minus_s,0,0,0,0,,,,,0,52,52,63,,,,,,,,,,,,,,,269.7602515000035,270.7671588999947,270.7671588999947,270.91297390000545,271.41995670000324,271.41995670000324,271.56579530000454,l,0.5014529000036418,correct,,272.0796049000055,272.18379519999144,270.7671588999947,,,,,,,,,,,,15,C,2023-12-08_17h29.59.115,gca_discrimination,2022.2.4,144.03016567285243,
positions.xlsx,stimuli.xlsx,test.xlsx,stimuli/Social1.png,stimuli/Social2.png,stimuli/Nonsocial2.png,stimuli/Nonsocial1.png,stimuli/Test1.png,stimuli/Test2.png,"(-0.7, -0.5)",cs_plus_s,"(0.7, -0.5)",cs_plus_s,0,0,0,0,,,,,0,53,53,53,,,,,,,,,,,,,,,272.18379519999144,273.19071480000275,273.19071480000275,273.33652519999305,273.84345620000386,273.84345620000386,273.9892428000021,ä,0.4052542999997968,wrong,,274.4058984000003,274.662883099998,273.19071480000275,,,,,,,,,,,,15,C,2023-12-08_17h29.59.115,gca_discrimination,2022.2.4,144.03016567285243,
positions.xlsx,stimuli.xlsx,test.xlsx,stimuli/Social1.png,stimuli/Social2.png,stimuli/Nonsocial2.png,stimuli/Nonsocial1.png,stimuli/Test1.png,stimuli/Test2.png,"(0.7, -0.5)",cs_plus_s,"(-0.7, 0.5)",cs_plus_s,0,0,0,0,,,,,0,54,54,57,,,,,,,,,,,,,,,274.662883099998,275.66980010000407,275.66980010000407,275.81561740000325,276.32249009999214,276.32249009999214,276.4683401999937,l,0.4370271999941906,correct,,276.91276589999325,277.7877339999977,275.66980010000407,,,,,,,,,,,,15,C,2023-12-08_17h29.59.115,gca_discrimination,2022.2.4,144.03016567285243,
positions.xlsx,stimuli.xlsx,test.xlsx,stimuli/Social1.png,stimuli/Social2.png,stimuli/Nonsocial2.png,stimuli/Nonsocial1.png,stimuli/Test1.png,stimuli/Test2.png,"(-0.7, -0.5)",cs_minus_ns,"(0.7, 0.5)",cs_plus_ns,0,0,0,0,,,,,0,55,55,40,,,,,,,,,,,,,,,277.7877339999977,278.79465569999593,278.79465569999593,278.94046840000374,279.44738899999356,279.44738899999356,279.59318909999274,ä,1.001381299996865,correct,,280.6070433999994,280.8501127999916,278.79465569999593,,,,,,,,,,,,15,C,2023-12-08_17h29.59.115,gca_discrimination,2022.2.4,144.03016567285243,
positions.xlsx,stimuli.xlsx,test.xlsx,stimuli/Social1.png,stimuli/Social2.png,stimuli/Nonsocial2.png,stimuli/Nonsocial1.png,stimuli/Test1.png,stimuli/Test2.png,"(0.7, -0.5)",cs_minus_s,"(-0.7, -0.5)",cs_plus_s,0,0,0,0,,,,,0,56,56,22,,,,,,,,,,,,,,,280.8501127999916,281.8570248000033,281.8570248000033,282.0028564999957,282.5097577999986,282.5097577999986,282.65561079999316,ä,0.5624767999979667,correct,,283.22500809999474,283.620831799999,281.8570248000033,,,,,,,,,,,,15,C,2023-12-08_17h29.59.115,gca_discrimination,2022.2.4,144.03016567285243,
positions.xlsx,stimuli.xlsx,test.xlsx,stimuli/Social1.png,stimuli/Social2.png,stimuli/Nonsocial2.png,stimuli/Nonsocial1.png,stimuli/Test1.png,stimuli/Test2.png,"(-0.7, 0.5)",cs_minus_s,"(-0.7, -0.5)",cs_plus_s,0,0,0,0,,,,,0,57,57,12,,,,,,,,,,,,,,,283.620831799999,284.62775279999187,284.62775279999187,284.7735709999979,285.28050860000076,285.28050860000076,285.4263226000039,ä,0.3913563999958569,correct,,285.82905590000155,286.2943538999971,284.62775279999187,,,,,,,,,,,,15,C,2023-12-08_17h29.59.115,gca_discrimination,2022.2.4,144.03016567285243,
positions.xlsx,stimuli.xlsx,test.xlsx,stimuli/Social1.png,stimuli/Social2.png,stimuli/Nonsocial2.png,stimuli/Nonsocial1.png,stimuli/Test1.png,stimuli/Test2.png,"(0.7, -0.5)",cs_plus_ns,"(-0.7, 0.5)",cs_plus_ns,0,0,0,0,,,,,0,58,58,81,,,,,,,,,,,,,,,286.2943538999971,287.3012310000049,287.3012310000049,287.447061999992,287.9540161000041,287.9540161000041,288.0998383999977,l,0.41380979999667034,correct,,288.5234143999987,288.57203799999843,287.3012310000049,,,,,,,,,,,,15,C,2023-12-08_17h29.59.115,gca_discrimination,2022.2.4,144.03016567285243,
positions.xlsx,stimuli.xlsx,test.xlsx,stimuli/Social1.png,stimuli/Social2.png,stimuli/Nonsocial2.png,stimuli/Nonsocial1.png,stimuli/Test1.png,stimuli/Test2.png,"(0.7, -0.5)",cs_plus_s,"(-0.7, 0.5)",cs_minus_s,0,0,0,0,,,,,0,59,59,9,,,,,,,,,,,,,,,288.57203799999843,289.5789914000052,289.5789914000052,289.724773199996,290.2317197999946,290.2317197999946,290.37751380000554,ä,0.4245655999984592,correct,,290.81501690000005,291.5858060000028,289.5789914000052,,,,,,,,,,,,15,C,2023-12-08_17h29.59.115,gca_discrimination,2022.2.4,144.03016567285243,
positions.xlsx,stimuli.xlsx,test.xlsx,stimuli/Social1.png,stimuli/Social2.png,stimuli/Nonsocial2.png,stimuli/Nonsocial1.png,stimuli/Test1.png,stimuli/Test2.png,"(-0.7, -0.5)",cs_plus_s,"(0.7, 0.5)",cs_plus_s,0,0,0,0,,,,,0,60,60,52,,,,,,,,,,,,,,,291.5858060000028,292.59273360000225,292.59273360000225,292.7385503999976,293.2454946999933,293.2454946999933,293.39136520000466,l,0.490429800003767,correct,,293.8912808000023,294.3426206000004,292.59273360000225,,,,,,,,,,,,15,C,2023-12-08_17h29.59.115,gca_discrimination,2022.2.4,144.03016567285243,
positions.xlsx,stimuli.xlsx,test.xlsx,stimuli/Social1.png,stimuli/Social2.png,stimuli/Nonsocial2.png,stimuli/Nonsocial1.png,stimuli/Test1.png,stimuli/Test2.png,"(0.7, -0.5)",cs_minus_s,"(0.7, 0.5)",cs_minus_s,0,0,0,0,,,,,0,61,61,71,,,,,,,,,,,,,,,294.3426206000004,295.34956709999824,295.34956709999824,295.49540810000326,296.0022991000005,296.0022991000005,296.1481319000013,l,0.5101465999905486,correct,,296.66893879999407,296.73144099999627,295.34956709999824,,,,,,,,,,,,15,C,2023-12-08_17h29.59.115,gca_discrimination,2022.2.4,144.03016567285243,
positions.xlsx,stimuli.xlsx,test.xlsx,stimuli/Social1.png,stimuli/Social2.png,stimuli/Nonsocial2.png,stimuli/Nonsocial1.png,stimuli/Test1.png,stimuli/Test2.png,"(0.7, 0.5)",cs_minus_s,"(-0.7, -0.5)",cs_plus_s,0,0,0,0,,,,,0,62,62,19,,,,,,,,,,,,,,,296.73144099999627,297.7383504000027,297.7383504000027,297.884183999995,298.3911284999922,298.3911284999922,298.5369357000018,ä,0.4087132999993628,correct,,298.95359449999523,299.8423974000034,297.7383504000027,,,,,,,,,,,,15,C,2023-12-08_17h29.59.115,gca_discrimination,2022.2.4,144.03016567285243,
positions.xlsx,stimuli.xlsx,test.xlsx,stimuli/Social1.png,stimuli/Social2.png,stimuli/Nonsocial2.png,stimuli/Nonsocial1.png,stimuli/Test1.png,stimuli/Test2.png,"(0.7, -0.5)",cs_plus_s,"(-0.7, -0.5)",cs_plus_s,0,0,0,0,,,,,0,63,63,58,,,,,,,,,,,,,,,299.8423974000034,300.84934369999974,300.84934369999974,300.9951669000002,301.50209349999204,301.50209349999204,301.64791250000417,l,0.4112108999834163,correct,,302.0715071000013,303.00201480000396,300.84934369999974,,,,,,,,,,,,15,C,2023-12-08_17h29.59.115,gca_discrimination,2022.2.4,144.03016567285243,
positions.xlsx,stimuli.xlsx,test.xlsx,stimuli/Social1.png,stimuli/Social2.png,stimuli/Nonsocial2.png,stimuli/Nonsocial1.png,stimuli/Test1.png,stimuli/Test2.png,"(0.7, -0.5)",cs_plus_s,"(-0.7, -0.5)",cs_minus_s,0,0,0,0,,,,,0,64,64,10,,,,,,,,,,,,,,,303.00201480000396,304.0089145999955,304.0089145999955,304.15476150000177,304.6616700000013,304.6616700000013,304.8074590000033,ä,0.41039719998661894,correct,,305.2311061999935,305.33527080000204,304.0089145999955,,,,,,,,,,,,15,C,2023-12-08_17h29.59.115,gca_discrimination,2022.2.4,144.03016567285243,
positions.xlsx,stimuli.xlsx,test.xlsx,stimuli/Social1.png,stimuli/Social2.png,stimuli/Nonsocial2.png,stimuli/Nonsocial1.png,stimuli/Test1.png,stimuli/Test2.png,"(0.7, 0.5)",cs_plus_s,"(-0.7, -0.5)",cs_plus_s,0,0,0,0,,,,,0,65,65,55,,,,,,,,,,,,,,,305.33527080000204,306.34217770000396,306.34217770000396,306.48803359999147,306.9949437000032,306.9949437000032,307.14074950000213,l,0.5903315999894403,correct,,307.7379327999952,308.1754613999947,306.34217770000396,,,,,,,,,,,,15,C,2023-12-08_17h29.59.115,gca_discrimination,2022.2.4,144.03016567285243,
positions.xlsx,stimuli.xlsx,test.xlsx,stimuli/Social1.png,stimuli/Social2.png,stimuli/Nonsocial2.png,stimuli/Nonsocial1.png,stimuli/Test1.png,stimuli/Test2.png,"(0.7, -0.5)",cs_plus_ns,"(-0.7, -0.5)",cs_minus_ns,0,0,0,0,,,,,0,66,66,34,,,,,,,,,,,,,,,308.1754613999947,309.18234010000015,309.18234010000015,309.328156699994,309.83509870000125,309.83509870000125,309.9809349999996,ä,0.525169399988954,correct,,310.51561129999754,311.3906047999917,309.18234010000015,,,,,,,,,,,,15,C,2023-12-08_17h29.59.115,gca_discrimination,2022.2.4,144.03016567285243,
positions.xlsx,stimuli.xlsx,test.xlsx,stimuli/Social1.png,stimuli/Social2.png,stimuli/Nonsocial2.png,stimuli/Nonsocial1.png,stimuli/Test1.png,stimuli/Test2.png,"(0.7, 0.5)",cs_minus_ns,"(-0.7, -0.5)",cs_plus_ns,0,0,0,0,,,,,0,67,67,43,,,,,,,,,,,,,,,311.3906047999917,312.39749109999684,312.39749109999684,312.54331910000474,313.0502628999966,313.0502628999966,313.1960773000028,ä,0.3427919999958249,correct,,313.5502284999966,313.98771990000387,312.39749109999684,,,,,,,,,,,,15,C,2023-12-08_17h29.59.115,gca_discrimination,2022.2.4,144.03016567285243,
positions.xlsx,stimuli.xlsx,test.xlsx,stimuli/Social1.png,stimuli/Social2.png,stimuli/Nonsocial2.png,stimuli/Nonsocial1.png,stimuli/Test1.png,stimuli/Test2.png,"(-0.7, 0.5)",cs_plus_ns,"(0.7, -0.5)",cs_minus_ns,0,0,0,0,,,,,0,68,68,26,,,,,,,,,,,,,,,313.98771990000387,314.9946196999954,314.9946196999954,315.1404340000008,315.64737170000444,315.64737170000444,315.7931990999932,ä,0.4417262000060873,correct,,316.244557500002,316.75149159999273,314.9946196999954,,,,,,,,,,,,15,C,2023-12-08_17h29.59.115,gca_discrimination,2022.2.4,144.03016567285243,
positions.xlsx,stimuli.xlsx,test.xlsx,stimuli/Social1.png,stimuli/Social2.png,stimuli/Nonsocial2.png,stimuli/Nonsocial1.png,stimuli/Test1.png,stimuli/Test2.png,"(-0.7, -0.5)",cs_minus_ns,"(-0.7, 0.5)",cs_minus_ns,0,0,0,0,,,,,0,69,69,87,,,,,,,,,,,,,,,316.75149159999273,317.7584157999954,317.7584157999954,317.90422909999324,318.4111469999916,318.4111469999916,318.5569584000041,l,0.26857149999705143,correct,,318.83470049999596,319.34859239999787,317.7584157999954,,,,,,,,,,,,15,C,2023-12-08_17h29.59.115,gca_discrimination,2022.2.4,144.03016567285243,
positions.xlsx,stimuli.xlsx,test.xlsx,stimuli/Social1.png,stimuli/Social2.png,stimuli/Nonsocial2.png,stimuli/Nonsocial1.png,stimuli/Test1.png,stimuli/Test2.png,"(0.7, -0.5)",cs_plus_s,"(0.7, 0.5)",cs_plus_s,0,0,0,0,,,,,0,70,70,59,,,,,,,,,,,,,,,319.34859239999787,320.35553739999887,320.35553739999887,320.50137309999263,321.008305299998,321.008305299998,321.15409579999687,l,0.6397085999924457,correct,,321.80684809999366,321.85544309999386,320.35553739999887,,,,,,,,,,,,15,C,2023-12-08_17h29.59.115,gca_discrimination,2022.2.4,144.03016567285243,
positions.xlsx,stimuli.xlsx,test.xlsx,stimuli/Social1.png,stimuli/Social2.png,stimuli/Nonsocial2.png,stimuli/Nonsocial1.png,stimuli/Test1.png,stimuli/Test2.png,"(0.7, 0.5)",cs_plus_ns,"(-0.7, -0.5)",cs_minus_ns,0,0,0,0,,,,,0,71,71,31,,,,,,,,,,,,,,,321.85544309999386,322.86239080000087,322.86239080000087,323.00820589999785,323.51514669999597,323.51514669999597,323.66095399999176,ä,0.44519829998898786,correct,,324.11927280000236,324.8761807999981,322.86239080000087,,,,,,,,,,,,15,C,2023-12-08_17h29.59.115,gca_discrimination,2022.2.4,144.03016567285243,
positions.xlsx,stimuli.xlsx,test.xlsx,stimuli/Social1.png,stimuli/Social2.png,stimuli/Nonsocial2.png,stimuli/Nonsocial1.png,stimuli/Test1.png,stimuli/Test2.png,"(-0.7, 0.5)",cs_plus_s,"(0.7, 0.5)",cs_plus_s,0,0,0,0,,,,,0,72,72,49,,,,,,,,,,,,,,,324.8761807999981,325.8830709000031,325.8830709000031,326.02891189999355,326.5358000999986,326.5358000999986,326.68162770000345,l,0.4000281999906292,correct,,327.09135139999853,327.3135207000014,325.8830709000031,,,,,,,,,,,,15,C,2023-12-08_17h29.59.115,gca_discrimination,2022.2.4,144.03016567285243,
positions.xlsx,stimuli.xlsx,test.xlsx,stimuli/Social1.png,stimuli/Social2.png,stimuli/Nonsocial2.png,stimuli/Nonsocial1.png,stimuli/Test1.png,stimuli/Test2.png,"(-0.7, -0.5)",cs_plus_ns,"(-0.7, 0.5)",cs_minus_ns,0,0,0,0,,,,,0,73,73,27,,,,,,,,,,,,,,,327.3135207000014,328.3204748999997,328.3204748999997,328.466287999996,328.973199,328.973199,329.1190495000046,ä,0.39514939999207854,correct,,329.5218198999937,330.20932110000285,328.3204748999997,,,,,,,,,,,,15,C,2023-12-08_17h29.59.115,gca_discrimination,2022.2.4,144.03016567285243,
positions.xlsx,stimuli.xlsx,test.xlsx,stimuli/Social1.png,stimuli/Social2.png,stimuli/Nonsocial2.png,stimuli/Nonsocial1.png,stimuli/Test1.png,stimuli/Test2.png,"(-0.7, 0.5)",cs_plus_ns,"(-0.7, -0.5)",cs_minus_ns,0,0,0,0,,,,,0,74,74,24,,,,,,,,,,,,,,,330.20932110000285,331.21620260000054,331.21620260000054,331.3620349999983,331.86893450000207,331.86893450000207,332.0147510999959,ä,0.6272192000033101,correct,,332.65364319999935,332.70223100000294,331.21620260000054,,,,,,,,,,,,15,C,2023-12-08_17h29.59.115,gca_discrimination,2022.2.4,144.03016567285243,
positions.xlsx,stimuli.xlsx,test.xlsx,stimuli/Social1.png,stimuli/Social2.png,stimuli/Nonsocial2.png,stimuli/Nonsocial1.png,stimuli/Test1.png,stimuli/Test2.png,"(-0.7, 0.5)",cs_minus_s,"(0.7, -0.5)",cs_plus_s,0,0,0,0,,,,,0,75,75,14,,,,,,,,,,,,,,,332.70223100000294,333.7091944999993,333.7091944999993,333.85503459999745,334.36188490000495,334.36188490000495,334.5077047999948,ä,0.3584615999861853,correct,,334.87576409999747,335.4937934000045,333.7091944999993,,,,,,,,,,,,15,C,2023-12-08_17h29.59.115,gca_discrimination,2022.2.4,144.03016567285243,
positions.xlsx,stimuli.xlsx,test.xlsx,stimuli/Social1.png,stimuli/Social2.png,stimuli/Nonsocial2.png,stimuli/Nonsocial1.png,stimuli/Test1.png,stimuli/Test2.png,"(-0.7, -0.5)",cs_minus_ns,"(0.7, -0.5)",cs_plus_ns,0,0,0,0,,,,,0,76,76,41,,,,,,,,,,,,,,,335.4937934000045,336.50079079999705,336.50079079999705,336.6465437000006,337.1534724999947,337.1534724999947,337.2993190999987,ä,0.27901319999364205,correct,,337.5909649999958,337.97982979999506,336.50079079999705,,,,,,,,,,,,15,C,2023-12-08_17h29.59.115,gca_discrimination,2022.2.4,144.03016567285243,
positions.xlsx,stimuli.xlsx,test.xlsx,stimuli/Social1.png,stimuli/Social2.png,stimuli/Nonsocial2.png,stimuli/Nonsocial1.png,stimuli/Test1.png,stimuli/Test2.png,"(0.7, 0.5)",cs_plus_ns,"(-0.7, 0.5)",cs_plus_ns,0,0,0,0,,,,,0,77,77,78,,,,,,,,,,,,,,,337.97982979999506,338.986773800003,338.986773800003,339.1326024000009,339.6394997000025,339.6394997000025,339.7853078000044,l,0.43290230000275187,correct,,340.2297380999953,340.7019863000023,338.986773800003,,,,,,,,,,,,15,C,2023-12-08_17h29.59.115,gca_discrimination,2022.2.4,144.03016567285243,
positions.xlsx,stimuli.xlsx,test.xlsx,stimuli/Social1.png,stimuli/Social2.png,stimuli/Nonsocial2.png,stimuli/Nonsocial1.png,stimuli/Test1.png,stimuli/Test2.png,"(0.7, 0.5)",cs_minus_s,"(-0.7, 0.5)",cs_minus_s,0,0,0,0,,,,,0,78,78,66,,,,,,,,,,,,,,,340.7019863000023,341.70883439999307,341.70883439999307,341.8546665000031,342.3616136999917,342.3616136999917,342.50743109999166,l,0.3905642999889096,correct,,342.910175099998,343.8823790000024,341.70883439999307,,,,,,,,,,,,15,C,2023-12-08_17h29.59.115,gca_discrimination,2022.2.4,144.03016567285243,
positions.xlsx,stimuli.xlsx,test.xlsx,stimuli/Social1.png,stimuli/Social2.png,stimuli/Nonsocial2.png,stimuli/Nonsocial1.png,stimuli/Test1.png,stimuli/Test2.png,"(0.7, 0.5)",cs_plus_s,"(0.7, -0.5)",cs_plus_s,0,0,0,0,,,,,0,79,79,56,,,,,,,,,,,,,,,343.8823790000024,344.8892569000018,344.8892569000018,345.0351354000013,345.541990800004,345.541990800004,345.68786399999226,l,0.44239169999491423,correct,,346.13923709999654,347.1114215999987,344.8892569000018,,,,,,,,,,,,15,C,2023-12-08_17h29.59.115,gca_discrimination,2022.2.4,144.03016567285243,
positions.xlsx,stimuli.xlsx,test.xlsx,stimuli/Social1.png,stimuli/Social2.png,stimuli/Nonsocial2.png,stimuli/Nonsocial1.png,stimuli/Test1.png,stimuli/Test2.png,"(-0.7, -0.5)",cs_minus_s,"(-0.7, 0.5)",cs_plus_s,0,0,0,0,,,,,0,80,80,15,,,,,,,,,,,,,,,347.1114215999987,348.11832579999464,348.11832579999464,348.2641685999988,348.7710143000004,348.7710143000004,348.91691790000186,ä,0.5324532999948133,correct,,349.45850199999404,350.33350609999616,348.11832579999464,,,,,,,,,,,,15,C,2023-12-08_17h29.59.115,gca_discrimination,2022.2.4,144.03016567285243,
positions.xlsx,stimuli.xlsx,test.xlsx,stimuli/Social1.png,stimuli/Social2.png,stimuli/Nonsocial2.png,stimuli/Nonsocial1.png,stimuli/Test1.png,stimuli/Test2.png,"(-0.7, 0.5)",cs_plus_ns,"(-0.7, -0.5)",cs_plus_ns,0,0,0,0,,,,,0,81,81,72,,,,,,,,,,,,,,,350.33350609999616,351.34044610000274,351.34044610000274,351.4862543999916,351.9931968000019,351.9931968000019,352.1389894000022,ä,0.42260190000524744,wrong,,352.5695368000015,352.78479839999636,351.34044610000274,,,,,,,,,,,,15,C,2023-12-08_17h29.59.115,gca_discrimination,2022.2.4,144.03016567285243,
positions.xlsx,stimuli.xlsx,test.xlsx,stimuli/Social1.png,stimuli/Social2.png,stimuli/Nonsocial2.png,stimuli/Nonsocial1.png,stimuli/Test1.png,stimuli/Test2.png,"(-0.7, 0.5)",cs_minus_ns,"(0.7, 0.5)",cs_plus_ns,0,0,0,0,,,,,0,82,82,37,,,,,,,,,,,,,,,352.78479839999636,353.7917343000008,353.7917343000008,353.9375682999962,354.4444669999939,354.4444669999939,354.59030670000357,ä,0.643298800001503,correct,,355.2430364000029,356.06939879999845,353.7917343000008,,,,,,,,,,,,15,C,2023-12-08_17h29.59.115,gca_discrimination,2022.2.4,144.03016567285243,
positions.xlsx,stimuli.xlsx,test.xlsx,stimuli/Social1.png,stimuli/Social2.png,stimuli/Nonsocial2.png,stimuli/Nonsocial1.png,stimuli/Test1.png,stimuli/Test2.png,"(-0.7, 0.5)",cs_minus_ns,"(0.7, -0.5)",cs_minus_ns,0,0,0,0,,,,,0,83,83,86,,,,,,,,,,,,,,,356.06939879999845,357.07634939999843,357.07634939999843,357.2221186999959,357.7290615999955,357.7290615999955,357.87489720000303,l,0.9911527999938698,correct,,358.8748166000005,359.4998038000049,357.07634939999843,,,,,,,,,,,,15,C,2023-12-08_17h29.59.115,gca_discrimination,2022.2.4,144.03016567285243,
positions.xlsx,stimuli.xlsx,test.xlsx,stimuli/Social1.png,stimuli/Social2.png,stimuli/Nonsocial2.png,stimuli/Nonsocial1.png,stimuli/Test1.png,stimuli/Test2.png,"(0.7, 0.5)",cs_plus_s,"(-0.7, 0.5)",cs_plus_s,0,0,0,0,,,,,0,84,84,54,,,,,,,,,,,,,,,359.4998038000049,360.50670640000317,360.50670640000317,360.6525733000017,361.159501999995,361.159501999995,361.30533149999974,l,0.49600480000663083,correct,,361.8122211000009,362.7218778999959,360.50670640000317,,,,,,,,,,,,15,C,2023-12-08_17h29.59.115,gca_discrimination,2022.2.4,144.03016567285243,
positions.xlsx,stimuli.xlsx,test.xlsx,stimuli/Social1.png,stimuli/Social2.png,stimuli/Nonsocial2.png,stimuli/Nonsocial1.png,stimuli/Test1.png,stimuli/Test2.png,"(0.7, 0.5)",cs_minus_ns,"(-0.7, 0.5)",cs_minus_ns,0,0,0,0,,,,,0,85,85,90,,,,,,,,,,,,,,,362.7218778999959,363.7288114999974,363.7288114999974,363.8746470000042,364.3815522999939,364.3815522999939,364.5274054000038,l,0.3943329000030644,correct,,364.93017350000446,365.0135256999929,363.7288114999974,,,,,,,,,,,,15,C,2023-12-08_17h29.59.115,gca_discrimination,2022.2.4,144.03016567285243,
positions.xlsx,stimuli.xlsx,test.xlsx,stimuli/Social1.png,stimuli/Social2.png,stimuli/Nonsocial2.png,stimuli/Nonsocial1.png,stimuli/Test1.png,stimuli/Test2.png,"(0.7, 0.5)",cs_plus_ns,"(0.7, -0.5)",cs_minus_ns,0,0,0,0,,,,,0,86,86,32,,,,,,,,,,,,,,,365.0135256999929,366.0204109000042,366.0204109000042,366.16625199999544,366.6731667999993,366.6731667999993,366.8189829000039,ä,0.45529899999382906,correct,,367.28423530000146,367.7911507999961,366.0204109000042,,,,,,,,,,,,15,C,2023-12-08_17h29.59.115,gca_discrimination,2022.2.4,144.03016567285243,
positions.xlsx,stimuli.xlsx,test.xlsx,stimuli/Social1.png,stimuli/Social2.png,stimuli/Nonsocial2.png,stimuli/Nonsocial1.png,stimuli/Test1.png,stimuli/Test2.png,"(0.7, 0.5)",cs_minus_ns,"(-0.7, -0.5)",cs_minus_ns,0,0,0,0,,,,,0,87,87,91,,,,,,,,,,,,,,,367.7911507999961,368.7981257999927,368.7981257999927,368.9439022000006,369.4508122999978,369.4508122999978,369.59666260000085,l,0.405270000002929,correct,,370.0133225000027,370.7493878999958,368.7981257999927,,,,,,,,,,,,15,C,2023-12-08_17h29.59.115,gca_discrimination,2022.2.4,144.03016567285243,
positions.xlsx,stimuli.xlsx,test.xlsx,stimuli/Social1.png,stimuli/Social2.png,stimuli/Nonsocial2.png,stimuli/Nonsocial1.png,stimuli/Test1.png,stimuli/Test2.png,"(-0.7, 0.5)",cs_plus_s,"(0.7, -0.5)",cs_plus_s,0,0,0,0,,,,,0,88,88,50,,,,,,,,,,,,,,,370.7493878999958,371.75628859999415,371.75628859999415,371.9021292999969,372.4090450999938,372.4090450999938,372.55490770000324,l,0.5203655999939656,correct,,373.08264559999225,373.4853858999995,371.75628859999415,,,,,,,,,,,,15,C,2023-12-08_17h29.59.115,gca_discrimination,2022.2.4,144.03016567285243,
positions.xlsx,stimuli.xlsx,test.xlsx,stimuli/Social1.png,stimuli/Social2.png,stimuli/Nonsocial2.png,stimuli/Nonsocial1.png,stimuli/Test1.png,stimuli/Test2.png,"(0.7, -0.5)",cs_minus_ns,"(0.7, 0.5)",cs_minus_ns,0,0,0,0,,,,,0,89,89,95,,,,,,,,,,,,,,,373.4853858999995,374.4923071999947,374.4923071999947,374.63817330000165,375.14505209999334,375.14505209999334,375.2908730999916,l,0.4389738000027137,correct,,375.74224340000364,376.45055120000325,374.4923071999947,,,,,,,,,,,,15,C,2023-12-08_17h29.59.115,gca_discrimination,2022.2.4,144.03016567285243,
positions.xlsx,stimuli.xlsx,test.xlsx,stimuli/Social1.png,stimuli/Social2.png,stimuli/Nonsocial2.png,stimuli/Nonsocial1.png,stimuli/Test1.png,stimuli/Test2.png,"(-0.7, -0.5)",cs_plus_s,"(0.7, 0.5)",cs_minus_s,0,0,0,0,,,,,0,90,90,4,,,,,,,,,,,,,,,376.45055120000325,377.4574605999951,377.4574605999951,377.6032821999979,378.1102438999951,378.1102438999951,378.25601270000334,ä,0.537404599992442,correct,,378.804607099999,379.5129057000013,377.4574605999951,,,,,,,,,,,,15,C,2023-12-08_17h29.59.115,gca_discrimination,2022.2.4,144.03016567285243,
positions.xlsx,stimuli.xlsx,test.xlsx,stimuli/Social1.png,stimuli/Social2.png,stimuli/Nonsocial2.png,stimuli/Nonsocial1.png,stimuli/Test1.png,stimuli/Test2.png,"(0.7, -0.5)",cs_minus_s,"(0.7, 0.5)",cs_plus_s,0,0,0,0,,,,,0,91,91,23,,,,,,,,,,,,,,,379.5129057000013,380.5198545000021,380.5198545000021,380.66565500000434,381.17262119999214,381.17262119999214,381.31844859999546,ä,0.41985699998622295,correct,,381.7489312999969,382.2697715999966,380.5198545000021,,,,,,,,,,,,15,C,2023-12-08_17h29.59.115,gca_discrimination,2022.2.4,144.03016567285243,
positions.xlsx,stimuli.xlsx,test.xlsx,stimuli/Social1.png,stimuli/Social2.png,stimuli/Nonsocial2.png,stimuli/Nonsocial1.png,stimuli/Test1.png,stimuli/Test2.png,"(-0.7, -0.5)",cs_plus_ns,"(0.7, 0.5)",cs_minus_ns,0,0,0,0,,,,,0,92,92,28,,,,,,,,,,,,,,,382.2697715999966,383.27667229999497,383.27667229999497,383.42251950000355,383.92944649999845,383.92944649999845,384.07526379999763,ä,0.4229207999887876,correct,,384.5058008000051,384.55439849999675,383.27667229999497,,,,,,,,,,,,15,C,2023-12-08_17h29.59.115,gca_discrimination,2022.2.4,144.03016567285243,
positions.xlsx,stimuli.xlsx,test.xlsx,stimuli/Social1.png,stimuli/Social2.png,stimuli/Nonsocial2.png,stimuli/Nonsocial1.png,stimuli/Test1.png,stimuli/Test2.png,"(-0.7, -0.5)",cs_plus_s,"(0.7, -0.5)",cs_minus_s,0,0,0,0,,,,,0,93,93,5,,,,,,,,,,,,,,,384.55439849999675,385.56132849999995,385.56132849999995,385.7071292000037,386.21410159999505,386.21410159999505,386.35991939999803,ä,0.44212559999141376,correct,,386.81125139999494,387.4917972999974,385.56132849999995,,,,,,,,,,,,15,C,2023-12-08_17h29.59.115,gca_discrimination,2022.2.4,144.03016567285243,
positions.xlsx,stimuli.xlsx,test.xlsx,stimuli/Social1.png,stimuli/Social2.png,stimuli/Nonsocial2.png,stimuli/Nonsocial1.png,stimuli/Test1.png,stimuli/Test2.png,"(-0.7, -0.5)",cs_minus_s,"(0.7, 0.5)",cs_minus_s,0,0,0,0,,,,,0,94,94,64,,,,,,,,,,,,,,,387.4917972999974,388.49871240000357,388.49871240000357,388.644527299999,389.15146160000586,389.15146160000586,389.29729479999514,l,0.6242447999975411,correct,,389.9292143000057,390.6791502999986,388.49871240000357,,,,,,,,,,,,15,C,2023-12-08_17h29.59.115,gca_discrimination,2022.2.4,144.03016567285243,
positions.xlsx,stimuli.xlsx,test.xlsx,stimuli/Social1.png,stimuli/Social2.png,stimuli/Nonsocial2.png,stimuli/Nonsocial1.png,stimuli/Test1.png,stimuli/Test2.png,"(0.7, 0.5)",cs_plus_s,"(0.7, -0.5)",cs_minus_s,0,0,0,0,,,,,0,95,95,8,,,,,,,,,,,,,,,390.6791502999986,391.6860730000044,391.6860730000044,391.8319188000023,392.33886010000424,392.33886010000424,392.48464909999166,ä,0.437257799989311,correct,,392.92910900000425,393.37349379999796,391.6860730000044,,,,,,,,,,,,15,C,2023-12-08_17h29.59.115,gca_discrimination,2022.2.4,144.03016567285243,
