posFile,stimFile,testFile,cs_plus_s,cs_minus_s,cs_plus_ns,cs_minus_ns,test1,test2,position1,trialtype,position2,comptype,blocks.thisRepN,blocks.thisTrialN,blocks.thisN,blocks.thisIndex,learning_trials.thisRepN,learning_trials.thisTrialN,learning_trials.thisN,learning_trials.thisIndex,trials.thisRepN,trials.thisTrialN,trials.thisN,trials.thisIndex,textStart.started,spaceStart.started,spaceStart.keys,spaceStart.rt,textStartExp.started,textExpImages.started,ImageLearning1.started,ImageLearning2.started,textSpace.started,spaceStartExp.started,spaceStartExp.keys,spaceStartExp.rt,blankScreen.started,blankScreen.stopped,fixcross.started,firstImage.started,fixcrossImage1.started,fixcrossITI.started,secondImage.started,fixcrossImage2.started,key.started,key.keys,key.rt,correctness,feedbackText.started,fixcrossEnd.started,fixcrossEnd.stopped,fixcross.stopped,feedbackText.stopped,textStartTask.started,textTaskImages.started,ImageTask1.started,ImageTask2.started,ImageTask3.started,ImageTask4.started,textTaskSpace.started,spaceStartTask.started,spaceStartTask.keys,spaceStartTask.rt,participant,group,date,expName,psychopyVersion,frameRate,
,,,,,,,,,,,,,,,,,,,,,,,,,12.928997499999696,12.928997499999696,space,3.19389799999999,,,,,,,,,,,,,,,,,,,,,,,,,,,,,,,,,,,,5,D,2023-12-07_09h03.33.985,gca_discrimination,2022.2.4,144.00652061503004,
positions.xlsx,stimuli.xlsx,test.xlsx,stimuli/Social2.png,stimuli/Social1.png,stimuli/Nonsocial2.png,stimuli/Nonsocial1.png,stimuli/Test1.png,stimuli/Test2.png,"(0.7, -0.5)",test2,"(-0.7, 0.5)",test1,0,0,0,0,0,0,0,4,,,,,,,,,16.14416170000004,16.14416170000004,16.14416170000004,16.14416170000004,16.14416170000004,16.14416170000004,space,30.02755160000015,46.1846443999998,47.51794179999979,47.51794179999979,48.52483669999992,48.52483669999992,48.656791599999906,49.170646099999885,49.170646099999885,49.309524899999815,ä,0.7989622000000054,correct,50.12892509999983,52.12886679999974,52.274666199999956,,,,,,,,,,,,,5,D,2023-12-07_09h03.33.985,gca_discrimination,2022.2.4,144.00652061503004,
positions.xlsx,stimuli.xlsx,test.xlsx,stimuli/Social2.png,stimuli/Social1.png,stimuli/Nonsocial2.png,stimuli/Nonsocial1.png,stimuli/Test1.png,stimuli/Test2.png,"(0.7, 0.5)",test2,"(0.7, -0.5)",test1,0,0,0,0,0,1,1,6,,,,,,,,,,,,,,,,,,,52.274666199999956,53.28159289999985,53.28159289999985,53.42742980000003,53.92739269999993,53.92739269999993,54.080157899999904,l,0.43528650000007474,wrong,54.52457279999999,56.52452809999977,57.27449089999982,53.28159289999985,56.52452809999977,,,,,,,,,,,5,D,2023-12-07_09h03.33.985,gca_discrimination,2022.2.4,144.00652061503004,
positions.xlsx,stimuli.xlsx,test.xlsx,stimuli/Social2.png,stimuli/Social1.png,stimuli/Nonsocial2.png,stimuli/Nonsocial1.png,stimuli/Test1.png,stimuli/Test2.png,"(-0.7, 0.5)",test2,"(-0.7, -0.5)",test2,0,0,0,0,0,2,2,1,,,,,,,,,,,,,,,,,,,57.27449089999982,58.27444289999994,58.27444289999994,58.42719229999966,58.93414159999975,58.93414159999975,59.08004230000006,ä,0.4995699999999488,wrong,59.58691309999995,61.58681780000006,61.760445699999764,58.27444289999994,61.58681780000006,,,,,,,,,,,5,D,2023-12-07_09h03.33.985,gca_discrimination,2022.2.4,144.00652061503004,
positions.xlsx,stimuli.xlsx,test.xlsx,stimuli/Social2.png,stimuli/Social1.png,stimuli/Nonsocial2.png,stimuli/Nonsocial1.png,stimuli/Test1.png,stimuli/Test2.png,"(-0.7, -0.5)",test1,"(0.7, 0.5)",test2,0,0,0,0,0,3,3,8,,,,,,,,,,,,,,,,,,,61.760445699999764,62.760385399999905,62.760385399999905,62.91317290000006,63.41315009999971,63.41315009999971,63.56590490000008,ä,0.3657941999999821,correct,63.94090529999994,65.94082529999969,66.19778909999968,62.760385399999905,65.94082529999969,,,,,,,,,,,5,D,2023-12-07_09h03.33.985,gca_discrimination,2022.2.4,144.00652061503004,
positions.xlsx,stimuli.xlsx,test.xlsx,stimuli/Social2.png,stimuli/Social1.png,stimuli/Nonsocial2.png,stimuli/Nonsocial1.png,stimuli/Test1.png,stimuli/Test2.png,"(0.7, 0.5)",test2,"(-0.7, 0.5)",test1,0,0,0,0,0,4,4,13,,,,,,,,,,,,,,,,,,,66.19778909999968,67.19772459999967,67.19772459999967,67.35047579999991,67.85045420000006,67.85045420000006,68.00322460000007,ä,0.7038273000002846,correct,68.71849829999974,70.71840669999983,70.99619589999975,67.19772459999967,70.71840669999983,,,,,,,,,,,5,D,2023-12-07_09h03.33.985,gca_discrimination,2022.2.4,144.00652061503004,
positions.xlsx,stimuli.xlsx,test.xlsx,stimuli/Social2.png,stimuli/Social1.png,stimuli/Nonsocial2.png,stimuli/Nonsocial1.png,stimuli/Test1.png,stimuli/Test2.png,"(-0.7, 0.5)",test2,"(0.7, -0.5)",test1,0,0,0,0,0,5,5,12,,,,,,,,,,,,,,,,,,,70.99619589999975,71.99615409999979,71.99615409999979,72.14890009999999,72.64889509999966,72.64889509999966,72.80166009999994,ä,0.3218661000000793,correct,73.13496910000003,75.13489839999966,75.70431669999971,71.99615409999979,75.13489839999966,,,,,,,,,,,5,D,2023-12-07_09h03.33.985,gca_discrimination,2022.2.4,144.00652061503004,
positions.xlsx,stimuli.xlsx,test.xlsx,stimuli/Social2.png,stimuli/Social1.png,stimuli/Nonsocial2.png,stimuli/Nonsocial1.png,stimuli/Test1.png,stimuli/Test2.png,"(-0.7, 0.5)",test2,"(0.7, 0.5)",test1,0,0,0,0,0,6,6,3,,,,,,,,,,,,,,,,,,,75.70431669999971,76.7112288999997,76.7112288999997,76.85704480000004,77.35706069999969,77.35706069999969,77.50977629999988,ä,0.4147588999999243,correct,77.93341869999995,79.93334980000009,80.75967700000001,76.7112288999997,79.93334980000009,,,,,,,,,,,5,D,2023-12-07_09h03.33.985,gca_discrimination,2022.2.4,144.00652061503004,
positions.xlsx,stimuli.xlsx,test.xlsx,stimuli/Social2.png,stimuli/Social1.png,stimuli/Nonsocial2.png,stimuli/Nonsocial1.png,stimuli/Test1.png,stimuli/Test2.png,"(0.7, -0.5)",test1,"(0.7, 0.5)",test1,0,0,0,0,0,7,7,10,,,,,,,,,,,,,,,,,,,80.75967700000001,81.75964720000002,81.75964720000002,81.91240059999973,82.41240849999986,82.41240849999986,82.56516699999975,l,0.37457949999998164,correct,82.94710369999984,84.94703600000003,85.5720008999997,81.75964720000002,84.94703600000003,,,,,,,,,,,5,D,2023-12-07_09h03.33.985,gca_discrimination,2022.2.4,144.00652061503004,
positions.xlsx,stimuli.xlsx,test.xlsx,stimuli/Social2.png,stimuli/Social1.png,stimuli/Nonsocial2.png,stimuli/Nonsocial1.png,stimuli/Test1.png,stimuli/Test2.png,"(-0.7, -0.5)",test2,"(0.7, -0.5)",test2,0,0,0,0,0,8,8,9,,,,,,,,,,,,,,,,,,,85.5720008999997,86.57194609999988,86.57194609999988,86.72470369999974,87.22471670000004,87.22471670000004,87.37745180000002,l,0.8893295000002581,correct,88.28020759999981,90.28011590000006,90.89816359999986,86.57194609999988,90.28011590000006,,,,,,,,,,,5,D,2023-12-07_09h03.33.985,gca_discrimination,2022.2.4,144.00652061503004,
positions.xlsx,stimuli.xlsx,test.xlsx,stimuli/Social2.png,stimuli/Social1.png,stimuli/Nonsocial2.png,stimuli/Nonsocial1.png,stimuli/Test1.png,stimuli/Test2.png,"(-0.7, -0.5)",test2,"(-0.7, 0.5)",test2,0,0,0,0,0,9,9,2,,,,,,,,,,,,,,,,,,,90.89816359999986,91.89808099999982,91.89808099999982,92.05087229999981,92.55087490000005,92.55087490000005,92.70367289999967,l,0.3070557999999437,correct,93.02308820000007,95.02301609999995,95.05772200000001,91.89808099999982,95.02301609999995,,,,,,,,,,,5,D,2023-12-07_09h03.33.985,gca_discrimination,2022.2.4,144.00652061503004,
positions.xlsx,stimuli.xlsx,test.xlsx,stimuli/Social2.png,stimuli/Social1.png,stimuli/Nonsocial2.png,stimuli/Nonsocial1.png,stimuli/Test1.png,stimuli/Test2.png,"(0.7, -0.5)",test1,"(0.7, 0.5)",test2,0,0,0,0,0,10,10,0,,,,,,,,,,,,,,,,,,,95.05772200000001,96.0576987999998,96.0576987999998,96.21045409999988,96.71045179999965,96.71045179999965,96.86322259999997,ä,0.35576979999996183,correct,97.23128240000005,99.23119700000007,100.07835479999994,96.0576987999998,99.23119700000007,,,,,,,,,,,5,D,2023-12-07_09h03.33.985,gca_discrimination,2022.2.4,144.00652061503004,
positions.xlsx,stimuli.xlsx,test.xlsx,stimuli/Social2.png,stimuli/Social1.png,stimuli/Nonsocial2.png,stimuli/Nonsocial1.png,stimuli/Test1.png,stimuli/Test2.png,"(0.7, 0.5)",test1,"(0.7, -0.5)",test2,0,0,0,0,0,11,11,11,,,,,,,,,,,,,,,,,,,100.07835479999994,101.07831629999964,101.07831629999964,101.23111629999994,101.73105859999987,101.73105859999987,101.88381419999996,ä,0.48798870000018724,correct,102.38385029999972,104.38371219999999,104.50873419999971,101.07831629999964,104.38371219999999,,,,,,,,,,,5,D,2023-12-07_09h03.33.985,gca_discrimination,2022.2.4,144.00652061503004,
positions.xlsx,stimuli.xlsx,test.xlsx,stimuli/Social2.png,stimuli/Social1.png,stimuli/Nonsocial2.png,stimuli/Nonsocial1.png,stimuli/Test1.png,stimuli/Test2.png,"(-0.7, 0.5)",test1,"(0.7, -0.5)",test1,0,0,0,0,0,12,12,5,,,,,,,,,,,,,,,,,,,104.50873419999971,105.50866349999978,105.50866349999978,105.6614526999997,106.16145979999965,106.16145979999965,106.31420549999984,l,0.3698309999999765,correct,106.69617930000004,108.69606739999972,109.26552730000003,105.50866349999978,108.69606739999972,,,,,,,,,,,5,D,2023-12-07_09h03.33.985,gca_discrimination,2022.2.4,144.00652061503004,
positions.xlsx,stimuli.xlsx,test.xlsx,stimuli/Social2.png,stimuli/Social1.png,stimuli/Nonsocial2.png,stimuli/Nonsocial1.png,stimuli/Test1.png,stimuli/Test2.png,"(-0.7, -0.5)",test2,"(0.7, 0.5)",test2,0,0,0,0,0,13,13,7,,,,,,,,,,,,,,,,,,,109.26552730000003,110.26545749999968,110.26545749999968,110.41822769999999,110.91823129999966,110.91823129999966,111.07097969999995,l,0.4933813000002374,correct,111.57791659999975,113.57785449999983,113.89031389999991,110.26545749999968,113.57785449999983,,,,,,,,,,,5,D,2023-12-07_09h03.33.985,gca_discrimination,2022.2.4,144.00652061503004,
positions.xlsx,stimuli.xlsx,test.xlsx,stimuli/Social2.png,stimuli/Social1.png,stimuli/Nonsocial2.png,stimuli/Nonsocial1.png,stimuli/Test1.png,stimuli/Test2.png,"(-0.7, 0.5)",cs_minus_s,"(-0.7, -0.5)",cs_plus_s,0,0,0,0,,,,,0,0,0,12,,,,,,,,,,,,,119.77895739999985,121.05670819999978,121.05670819999978,122.04972550000002,122.04972550000002,122.18859259999999,122.69552870000007,122.69552870000007,122.84136609999996,ä,0.3857693999998446,correct,,123.2371721999998,123.89685929999996,,,113.89031389999991,113.89031389999991,113.89031389999991,113.89031389999991,113.89031389999991,113.89031389999991,113.89031389999991,113.89031389999991,space,5.8810418000002755,5,D,2023-12-07_09h03.33.985,gca_discrimination,2022.2.4,144.00652061503004,
positions.xlsx,stimuli.xlsx,test.xlsx,stimuli/Social2.png,stimuli/Social1.png,stimuli/Nonsocial2.png,stimuli/Nonsocial1.png,stimuli/Test1.png,stimuli/Test2.png,"(0.7, -0.5)",cs_minus_ns,"(-0.7, 0.5)",cs_minus_ns,0,0,0,0,,,,,0,1,1,93,,,,,,,,,,,,,,,123.89685929999996,124.90378439999995,124.90378439999995,125.04961830000002,125.55655849999994,125.55655849999994,125.7023406999997,l,0.48458609999988767,correct,,126.19537839999975,126.75090580000006,124.90378439999995,,,,,,,,,,,,5,D,2023-12-07_09h03.33.985,gca_discrimination,2022.2.4,144.00652061503004,
positions.xlsx,stimuli.xlsx,test.xlsx,stimuli/Social2.png,stimuli/Social1.png,stimuli/Nonsocial2.png,stimuli/Nonsocial1.png,stimuli/Test1.png,stimuli/Test2.png,"(-0.7, 0.5)",cs_plus_ns,"(0.7, -0.5)",cs_minus_ns,0,0,0,0,,,,,0,2,2,26,,,,,,,,,,,,,,,126.75090580000006,127.75783640000009,127.75783640000009,127.90364299999965,128.41057030000002,128.41057030000002,128.55639569999994,l,0.3189987000000656,wrong,,128.88280259999965,129.4452713999999,127.75783640000009,,,,,,,,,,,,5,D,2023-12-07_09h03.33.985,gca_discrimination,2022.2.4,144.00652061503004,
positions.xlsx,stimuli.xlsx,test.xlsx,stimuli/Social2.png,stimuli/Social1.png,stimuli/Nonsocial2.png,stimuli/Nonsocial1.png,stimuli/Test1.png,stimuli/Test2.png,"(0.7, -0.5)",cs_minus_ns,"(0.7, 0.5)",cs_minus_ns,0,0,0,0,,,,,0,3,3,95,,,,,,,,,,,,,,,129.4452713999999,130.45220470000004,130.45220470000004,130.5979871999998,131.10495039999978,131.10495039999978,131.25072839999984,l,0.28803190000007817,correct,,131.5493432999997,131.76461919999974,130.45220470000004,,,,,,,,,,,,5,D,2023-12-07_09h03.33.985,gca_discrimination,2022.2.4,144.00652061503004,
positions.xlsx,stimuli.xlsx,test.xlsx,stimuli/Social2.png,stimuli/Social1.png,stimuli/Nonsocial2.png,stimuli/Nonsocial1.png,stimuli/Test1.png,stimuli/Test2.png,"(0.7, -0.5)",cs_plus_ns,"(-0.7, -0.5)",cs_plus_ns,0,0,0,0,,,,,0,4,4,82,,,,,,,,,,,,,,,131.76461919999974,132.77152989999968,132.77152989999968,132.91733840000006,133.4242875,133.4242875,133.57011039999998,l,0.3131293999999798,correct,,133.89645130000008,134.0145161999999,132.77152989999968,,,,,,,,,,,,5,D,2023-12-07_09h03.33.985,gca_discrimination,2022.2.4,144.00652061503004,
positions.xlsx,stimuli.xlsx,test.xlsx,stimuli/Social2.png,stimuli/Social1.png,stimuli/Nonsocial2.png,stimuli/Nonsocial1.png,stimuli/Test1.png,stimuli/Test2.png,"(0.7, -0.5)",cs_plus_ns,"(-0.7, 0.5)",cs_minus_ns,0,0,0,0,,,,,0,5,5,33,,,,,,,,,,,,,,,134.0145161999999,135.02140659999986,135.02140659999986,135.16725270000006,135.67416129999992,135.67416129999992,135.8200182999999,ä,0.42323820000001433,correct,,136.2505544999999,136.71581349999997,135.02140659999986,,,,,,,,,,,,5,D,2023-12-07_09h03.33.985,gca_discrimination,2022.2.4,144.00652061503004,
positions.xlsx,stimuli.xlsx,test.xlsx,stimuli/Social2.png,stimuli/Social1.png,stimuli/Nonsocial2.png,stimuli/Nonsocial1.png,stimuli/Test1.png,stimuli/Test2.png,"(-0.7, 0.5)",cs_plus_s,"(0.7, -0.5)",cs_minus_s,0,0,0,0,,,,,0,6,6,2,,,,,,,,,,,,,,,136.71581349999997,137.72273219999988,137.72273219999988,137.86856439999974,138.37548369999968,138.37548369999968,138.52129590000004,ä,0.4093270999997003,correct,,138.93793659999983,139.20180819999996,137.72273219999988,,,,,,,,,,,,5,D,2023-12-07_09h03.33.985,gca_discrimination,2022.2.4,144.00652061503004,
positions.xlsx,stimuli.xlsx,test.xlsx,stimuli/Social2.png,stimuli/Social1.png,stimuli/Nonsocial2.png,stimuli/Nonsocial1.png,stimuli/Test1.png,stimuli/Test2.png,"(-0.7, 0.5)",cs_minus_ns,"(0.7, -0.5)",cs_minus_ns,0,0,0,0,,,,,0,7,7,86,,,,,,,,,,,,,,,139.20180819999996,140.20873009999968,140.20873009999968,140.3545565999998,140.86148449999973,140.86148449999973,141.00729359999968,l,0.2754021000000648,correct,,141.2920239,142.21557570000004,140.20873009999968,,,,,,,,,,,,5,D,2023-12-07_09h03.33.985,gca_discrimination,2022.2.4,144.00652061503004,
positions.xlsx,stimuli.xlsx,test.xlsx,stimuli/Social2.png,stimuli/Social1.png,stimuli/Nonsocial2.png,stimuli/Nonsocial1.png,stimuli/Test1.png,stimuli/Test2.png,"(-0.7, -0.5)",cs_plus_ns,"(0.7, -0.5)",cs_minus_ns,0,0,0,0,,,,,0,8,8,29,,,,,,,,,,,,,,,142.21557570000004,143.22249250000004,143.22249250000004,143.36828500000001,143.87525849999975,143.87525849999975,144.0210665999998,ä,0.39834449999989374,correct,,144.43082129999993,144.5488132999999,143.22249250000004,,,,,,,,,,,,5,D,2023-12-07_09h03.33.985,gca_discrimination,2022.2.4,144.00652061503004,
positions.xlsx,stimuli.xlsx,test.xlsx,stimuli/Social2.png,stimuli/Social1.png,stimuli/Nonsocial2.png,stimuli/Nonsocial1.png,stimuli/Test1.png,stimuli/Test2.png,"(0.7, -0.5)",cs_plus_ns,"(0.7, 0.5)",cs_plus_ns,0,0,0,0,,,,,0,9,9,83,,,,,,,,,,,,,,,144.5488132999999,145.55572709999979,145.55572709999979,145.70156439999982,146.20849339999995,146.20849339999995,146.35426890000008,l,0.4487026000001606,correct,,146.8126444999998,147.17371569999978,145.55572709999979,,,,,,,,,,,,5,D,2023-12-07_09h03.33.985,gca_discrimination,2022.2.4,144.00652061503004,
positions.xlsx,stimuli.xlsx,test.xlsx,stimuli/Social2.png,stimuli/Social1.png,stimuli/Nonsocial2.png,stimuli/Nonsocial1.png,stimuli/Test1.png,stimuli/Test2.png,"(0.7, -0.5)",cs_plus_s,"(-0.7, 0.5)",cs_plus_s,0,0,0,0,,,,,0,10,10,57,,,,,,,,,,,,,,,147.17371569999978,148.18062359999976,148.18062359999976,148.32640869999977,148.83335949999991,148.83335949999991,148.97921229999974,l,0.2730717999997978,correct,,149.26392850000002,149.87502640000002,148.18062359999976,,,,,,,,,,,,5,D,2023-12-07_09h03.33.985,gca_discrimination,2022.2.4,144.00652061503004,
positions.xlsx,stimuli.xlsx,test.xlsx,stimuli/Social2.png,stimuli/Social1.png,stimuli/Nonsocial2.png,stimuli/Nonsocial1.png,stimuli/Test1.png,stimuli/Test2.png,"(0.7, 0.5)",cs_plus_s,"(-0.7, 0.5)",cs_plus_s,0,0,0,0,,,,,0,11,11,54,,,,,,,,,,,,,,,149.87502640000002,150.88190889999987,150.88190889999987,151.02773049999996,151.53460589999986,151.53460589999986,151.6804844999997,l,0.3070247000000563,correct,,151.9999183,152.5832006999999,150.88190889999987,,,,,,,,,,,,5,D,2023-12-07_09h03.33.985,gca_discrimination,2022.2.4,144.00652061503004,
positions.xlsx,stimuli.xlsx,test.xlsx,stimuli/Social2.png,stimuli/Social1.png,stimuli/Nonsocial2.png,stimuli/Nonsocial1.png,stimuli/Test1.png,stimuli/Test2.png,"(0.7, -0.5)",cs_plus_s,"(0.7, 0.5)",cs_minus_s,0,0,0,0,,,,,0,12,12,11,,,,,,,,,,,,,,,152.5832006999999,153.59015279999994,153.59015279999994,153.7360002999999,154.2429285999997,154.2429285999997,154.3887262999997,ä,0.3584760999997343,correct,,154.75673460000007,154.91649089999964,153.59015279999994,,,,,,,,,,,,5,D,2023-12-07_09h03.33.985,gca_discrimination,2022.2.4,144.00652061503004,
positions.xlsx,stimuli.xlsx,test.xlsx,stimuli/Social2.png,stimuli/Social1.png,stimuli/Nonsocial2.png,stimuli/Nonsocial1.png,stimuli/Test1.png,stimuli/Test2.png,"(-0.7, -0.5)",cs_minus_ns,"(-0.7, 0.5)",cs_minus_ns,0,0,0,0,,,,,0,13,13,87,,,,,,,,,,,,,,,154.91649089999964,155.92337769999995,155.92337769999995,156.0691950999999,156.57610149999982,156.57610149999982,156.72195319999992,l,0.2811296999998376,correct,,157.01362609999978,157.8816471,155.92337769999995,,,,,,,,,,,,5,D,2023-12-07_09h03.33.985,gca_discrimination,2022.2.4,144.00652061503004,
positions.xlsx,stimuli.xlsx,test.xlsx,stimuli/Social2.png,stimuli/Social1.png,stimuli/Nonsocial2.png,stimuli/Nonsocial1.png,stimuli/Test1.png,stimuli/Test2.png,"(0.7, 0.5)",cs_minus_s,"(0.7, -0.5)",cs_minus_s,0,0,0,0,,,,,0,14,14,68,,,,,,,,,,,,,,,157.8816471,158.88857439999992,158.88857439999992,159.034361,159.54130349999969,159.54130349999969,159.68712379999988,l,0.38026769999987664,correct,,160.07598329999973,160.9578816999997,158.88857439999992,,,,,,,,,,,,5,D,2023-12-07_09h03.33.985,gca_discrimination,2022.2.4,144.00652061503004,
positions.xlsx,stimuli.xlsx,test.xlsx,stimuli/Social2.png,stimuli/Social1.png,stimuli/Nonsocial2.png,stimuli/Nonsocial1.png,stimuli/Test1.png,stimuli/Test2.png,"(0.7, 0.5)",cs_plus_ns,"(-0.7, 0.5)",cs_minus_ns,0,0,0,0,,,,,0,15,15,30,,,,,,,,,,,,,,,160.9578816999997,161.96481519999998,161.96481519999998,162.11063549999972,162.61757269999998,162.61757269999998,162.76339879999978,ä,0.27995529999998325,correct,,163.05504729999984,163.48558409999987,161.96481519999998,,,,,,,,,,,,5,D,2023-12-07_09h03.33.985,gca_discrimination,2022.2.4,144.00652061503004,
positions.xlsx,stimuli.xlsx,test.xlsx,stimuli/Social2.png,stimuli/Social1.png,stimuli/Nonsocial2.png,stimuli/Nonsocial1.png,stimuli/Test1.png,stimuli/Test2.png,"(-0.7, -0.5)",cs_minus_ns,"(0.7, -0.5)",cs_plus_ns,0,0,0,0,,,,,0,16,16,41,,,,,,,,,,,,,,,163.48558409999987,164.49249370000007,164.49249370000007,164.63830800000005,165.14523310000004,165.14523310000004,165.29104519999964,ä,0.3277984000001197,correct,,165.63131969999995,166.47848969999995,164.49249370000007,,,,,,,,,,,,5,D,2023-12-07_09h03.33.985,gca_discrimination,2022.2.4,144.00652061503004,
positions.xlsx,stimuli.xlsx,test.xlsx,stimuli/Social2.png,stimuli/Social1.png,stimuli/Nonsocial2.png,stimuli/Nonsocial1.png,stimuli/Test1.png,stimuli/Test2.png,"(-0.7, -0.5)",cs_plus_ns,"(-0.7, 0.5)",cs_minus_ns,0,0,0,0,,,,,0,17,17,27,,,,,,,,,,,,,,,166.47848969999995,167.4854307999999,167.4854307999999,167.63124759999982,168.1381867,168.1381867,168.28399459999991,ä,0.343127000000095,correct,,168.63815879999993,169.2839644999999,167.4854307999999,,,,,,,,,,,,5,D,2023-12-07_09h03.33.985,gca_discrimination,2022.2.4,144.00652061503004,
positions.xlsx,stimuli.xlsx,test.xlsx,stimuli/Social2.png,stimuli/Social1.png,stimuli/Nonsocial2.png,stimuli/Nonsocial1.png,stimuli/Test1.png,stimuli/Test2.png,"(-0.7, 0.5)",cs_plus_ns,"(0.7, -0.5)",cs_plus_ns,0,0,0,0,,,,,0,18,18,74,,,,,,,,,,,,,,,169.2839644999999,170.29087009999967,170.29087009999967,170.43671330000006,170.94361839999965,170.94361839999965,171.0894599999997,l,0.37840440000036324,correct,,171.47832329999983,171.8949717999999,170.29087009999967,,,,,,,,,,,,5,D,2023-12-07_09h03.33.985,gca_discrimination,2022.2.4,144.00652061503004,
positions.xlsx,stimuli.xlsx,test.xlsx,stimuli/Social2.png,stimuli/Social1.png,stimuli/Nonsocial2.png,stimuli/Nonsocial1.png,stimuli/Test1.png,stimuli/Test2.png,"(-0.7, 0.5)",cs_plus_ns,"(0.7, 0.5)",cs_plus_ns,0,0,0,0,,,,,0,19,19,73,,,,,,,,,,,,,,,171.8949717999999,172.90187339999966,172.90187339999966,173.04769910000005,173.55463439999994,173.55463439999994,173.70047999999997,l,0.4391398000002482,correct,,174.15184539999973,174.58239950000007,172.90187339999966,,,,,,,,,,,,5,D,2023-12-07_09h03.33.985,gca_discrimination,2022.2.4,144.00652061503004,
positions.xlsx,stimuli.xlsx,test.xlsx,stimuli/Social2.png,stimuli/Social1.png,stimuli/Nonsocial2.png,stimuli/Nonsocial1.png,stimuli/Test1.png,stimuli/Test2.png,"(0.7, 0.5)",cs_plus_ns,"(-0.7, -0.5)",cs_plus_ns,0,0,0,0,,,,,0,20,20,79,,,,,,,,,,,,,,,174.58239950000007,175.58928590000005,175.58928590000005,175.7351048999999,176.2420419,176.2420419,176.38785030000008,l,0.35171570000011343,correct,,176.74894360000008,177.57529309999973,175.58928590000005,,,,,,,,,,,,5,D,2023-12-07_09h03.33.985,gca_discrimination,2022.2.4,144.00652061503004,
positions.xlsx,stimuli.xlsx,test.xlsx,stimuli/Social2.png,stimuli/Social1.png,stimuli/Nonsocial2.png,stimuli/Nonsocial1.png,stimuli/Test1.png,stimuli/Test2.png,"(-0.7, -0.5)",cs_minus_s,"(0.7, 0.5)",cs_plus_s,0,0,0,0,,,,,0,21,21,16,,,,,,,,,,,,,,,177.57529309999973,178.58219979999967,178.58219979999967,178.72802599999977,179.23496119999982,179.23496119999982,179.3807727999997,ä,0.23039190000008603,correct,,179.62383610000006,180.23489530000006,178.58219979999967,,,,,,,,,,,,5,D,2023-12-07_09h03.33.985,gca_discrimination,2022.2.4,144.00652061503004,
positions.xlsx,stimuli.xlsx,test.xlsx,stimuli/Social2.png,stimuli/Social1.png,stimuli/Nonsocial2.png,stimuli/Nonsocial1.png,stimuli/Test1.png,stimuli/Test2.png,"(-0.7, -0.5)",cs_plus_s,"(0.7, -0.5)",cs_minus_s,0,0,0,0,,,,,0,22,22,5,,,,,,,,,,,,,,,180.23489530000006,181.24185609999995,181.24185609999995,181.38764679999986,181.89459570000008,181.89459570000008,182.04041449999977,ä,0.28251559999989695,correct,,182.33203000000003,182.38757450000003,181.24185609999995,,,,,,,,,,,,5,D,2023-12-07_09h03.33.985,gca_discrimination,2022.2.4,144.00652061503004,
positions.xlsx,stimuli.xlsx,test.xlsx,stimuli/Social2.png,stimuli/Social1.png,stimuli/Nonsocial2.png,stimuli/Nonsocial1.png,stimuli/Test1.png,stimuli/Test2.png,"(0.7, -0.5)",cs_minus_s,"(-0.7, -0.5)",cs_minus_s,0,0,0,0,,,,,0,23,23,70,,,,,,,,,,,,,,,182.38757450000003,183.39453179999964,183.39453179999964,183.5403670999999,184.04727079999975,184.04727079999975,184.19309219999968,ä,0.7783235000001696,wrong,,184.98470210000005,185.08192599999984,183.39453179999964,,,,,,,,,,,,5,D,2023-12-07_09h03.33.985,gca_discrimination,2022.2.4,144.00652061503004,
positions.xlsx,stimuli.xlsx,test.xlsx,stimuli/Social2.png,stimuli/Social1.png,stimuli/Nonsocial2.png,stimuli/Nonsocial1.png,stimuli/Test1.png,stimuli/Test2.png,"(0.7, -0.5)",cs_plus_ns,"(-0.7, 0.5)",cs_plus_ns,0,0,0,0,,,,,0,24,24,81,,,,,,,,,,,,,,,185.08192599999984,186.0888556,186.0888556,186.23471459999973,186.74160979999988,186.74160979999988,186.88742920000004,l,0.38777140000001964,correct,,187.28331230000003,188.25544459999992,186.0888556,,,,,,,,,,,,5,D,2023-12-07_09h03.33.985,gca_discrimination,2022.2.4,144.00652061503004,
positions.xlsx,stimuli.xlsx,test.xlsx,stimuli/Social2.png,stimuli/Social1.png,stimuli/Nonsocial2.png,stimuli/Nonsocial1.png,stimuli/Test1.png,stimuli/Test2.png,"(-0.7, -0.5)",cs_minus_ns,"(0.7, 0.5)",cs_minus_ns,0,0,0,0,,,,,0,25,25,88,,,,,,,,,,,,,,,188.25544459999992,189.26235359999964,189.26235359999964,189.40818339999987,189.9150955,189.9150955,190.0609144,l,0.27791430000024775,correct,,190.34563630000002,190.67894739999974,,,,,,,,,,,,,5,D,2023-12-07_09h03.33.985,gca_discrimination,2022.2.4,144.00652061503004,
positions.xlsx,stimuli.xlsx,test.xlsx,stimuli/Social2.png,stimuli/Social1.png,stimuli/Nonsocial2.png,stimuli/Nonsocial1.png,stimuli/Test1.png,stimuli/Test2.png,"(0.7, 0.5)",cs_plus_s,"(0.7, -0.5)",cs_plus_s,0,0,0,0,,,,,0,26,26,56,,,,,,,,,,,,,,,190.67894739999974,191.68590210000002,191.68590210000002,191.83166970000002,192.33860929999992,192.33860929999992,192.48445489999995,l,0.29474419999996826,correct,,192.78999059999978,192.9010902,191.68590210000002,,,,,,,,,,,,5,D,2023-12-07_09h03.33.985,gca_discrimination,2022.2.4,144.00652061503004,
positions.xlsx,stimuli.xlsx,test.xlsx,stimuli/Social2.png,stimuli/Social1.png,stimuli/Nonsocial2.png,stimuli/Nonsocial1.png,stimuli/Test1.png,stimuli/Test2.png,"(-0.7, -0.5)",cs_plus_s,"(0.7, 0.5)",cs_minus_s,0,0,0,0,,,,,0,27,27,4,,,,,,,,,,,,,,,192.9010902,193.90798349999977,193.90798349999977,194.05383839999968,194.56074209999997,194.56074209999997,194.70663369999966,ä,0.33764320000000225,correct,,195.05376439999964,195.52598609999995,193.90798349999977,,,,,,,,,,,,5,D,2023-12-07_09h03.33.985,gca_discrimination,2022.2.4,144.00652061503004,
positions.xlsx,stimuli.xlsx,test.xlsx,stimuli/Social2.png,stimuli/Social1.png,stimuli/Nonsocial2.png,stimuli/Nonsocial1.png,stimuli/Test1.png,stimuli/Test2.png,"(-0.7, 0.5)",cs_minus_ns,"(0.7, -0.5)",cs_plus_ns,0,0,0,0,,,,,0,28,28,38,,,,,,,,,,,,,,,195.52598609999995,196.53292269999974,196.53292269999974,196.67871809999997,197.18565689999969,197.18565689999969,197.33147549999967,ä,0.27972040000031484,correct,,197.6231018999997,197.69948859999977,196.53292269999974,,,,,,,,,,,,5,D,2023-12-07_09h03.33.985,gca_discrimination,2022.2.4,144.00652061503004,
positions.xlsx,stimuli.xlsx,test.xlsx,stimuli/Social2.png,stimuli/Social1.png,stimuli/Nonsocial2.png,stimuli/Nonsocial1.png,stimuli/Test1.png,stimuli/Test2.png,"(-0.7, -0.5)",cs_minus_s,"(0.7, -0.5)",cs_plus_s,0,0,0,0,,,,,0,29,29,17,,,,,,,,,,,,,,,197.69948859999977,198.70636839999997,198.70636839999997,198.85224479999988,199.35914559999992,199.35914559999992,199.50500770000008,ä,0.3705881999999292,correct,,199.8869209999998,200.24109799999997,198.70636839999997,,,,,,,,,,,,5,D,2023-12-07_09h03.33.985,gca_discrimination,2022.2.4,144.00652061503004,
positions.xlsx,stimuli.xlsx,test.xlsx,stimuli/Social2.png,stimuli/Social1.png,stimuli/Nonsocial2.png,stimuli/Nonsocial1.png,stimuli/Test1.png,stimuli/Test2.png,"(0.7, -0.5)",cs_minus_s,"(0.7, 0.5)",cs_plus_s,0,0,0,0,,,,,0,30,30,23,,,,,,,,,,,,,,,200.24109799999997,201.2479798999998,201.2479798999998,201.39379919999965,201.90073859999984,201.90073859999984,202.04655749999984,ä,0.3887159999999312,correct,,202.44235419999995,202.95625930000006,201.2479798999998,,,,,,,,,,,,5,D,2023-12-07_09h03.33.985,gca_discrimination,2022.2.4,144.00652061503004,
positions.xlsx,stimuli.xlsx,test.xlsx,stimuli/Social2.png,stimuli/Social1.png,stimuli/Nonsocial2.png,stimuli/Nonsocial1.png,stimuli/Test1.png,stimuli/Test2.png,"(-0.7, 0.5)",cs_plus_s,"(0.7, 0.5)",cs_plus_s,0,0,0,0,,,,,0,31,31,49,,,,,,,,,,,,,,,202.95625930000006,203.96315490000006,203.96315490000006,204.10901839999997,204.61590750000005,204.61590750000005,204.76174249999985,l,0.31371409999974276,correct,,205.0880956000001,206.00475920000008,203.96315490000006,,,,,,,,,,,,5,D,2023-12-07_09h03.33.985,gca_discrimination,2022.2.4,144.00652061503004,
positions.xlsx,stimuli.xlsx,test.xlsx,stimuli/Social2.png,stimuli/Social1.png,stimuli/Nonsocial2.png,stimuli/Nonsocial1.png,stimuli/Test1.png,stimuli/Test2.png,"(0.7, 0.5)",cs_plus_s,"(-0.7, -0.5)",cs_plus_s,0,0,0,0,,,,,0,32,32,55,,,,,,,,,,,,,,,206.00475920000008,207.01166250000006,207.01166250000006,207.1574701999998,207.6644185,207.6644185,207.81022459999986,l,0.2821994999999333,correct,,208.10189730000002,208.4560392999997,207.01166250000006,,,,,,,,,,,,5,D,2023-12-07_09h03.33.985,gca_discrimination,2022.2.4,144.00652061503004,
positions.xlsx,stimuli.xlsx,test.xlsx,stimuli/Social2.png,stimuli/Social1.png,stimuli/Nonsocial2.png,stimuli/Nonsocial1.png,stimuli/Test1.png,stimuli/Test2.png,"(0.7, -0.5)",cs_minus_ns,"(-0.7, 0.5)",cs_plus_ns,0,0,0,0,,,,,0,33,33,45,,,,,,,,,,,,,,,208.4560392999997,209.46294540000008,209.46294540000008,209.60876489999964,210.11569759999975,210.11569759999975,210.26152430000002,ä,0.35005450000016936,correct,,210.6226214999997,211.42119239999965,209.46294540000008,,,,,,,,,,,,5,D,2023-12-07_09h03.33.985,gca_discrimination,2022.2.4,144.00652061503004,
positions.xlsx,stimuli.xlsx,test.xlsx,stimuli/Social2.png,stimuli/Social1.png,stimuli/Nonsocial2.png,stimuli/Nonsocial1.png,stimuli/Test1.png,stimuli/Test2.png,"(-0.7, -0.5)",cs_plus_ns,"(0.7, 0.5)",cs_minus_ns,0,0,0,0,,,,,0,34,34,28,,,,,,,,,,,,,,,211.42119239999965,212.42811559999973,212.42811559999973,212.5739466,213.08086909999975,213.08086909999975,213.22668780000004,ä,0.28811129999985496,correct,,213.5252889999997,213.74754170000006,212.42811559999973,,,,,,,,,,,,5,D,2023-12-07_09h03.33.985,gca_discrimination,2022.2.4,144.00652061503004,
positions.xlsx,stimuli.xlsx,test.xlsx,stimuli/Social2.png,stimuli/Social1.png,stimuli/Nonsocial2.png,stimuli/Nonsocial1.png,stimuli/Test1.png,stimuli/Test2.png,"(0.7, -0.5)",cs_minus_ns,"(-0.7, -0.5)",cs_minus_ns,0,0,0,0,,,,,0,35,35,94,,,,,,,,,,,,,,,213.74754170000006,214.7543799,214.7543799,214.90024919999996,215.40714039999966,215.40714039999966,215.55300050000005,l,0.4114035000002332,correct,,215.9765795999997,216.12934039999982,214.7543799,,,,,,,,,,,,5,D,2023-12-07_09h03.33.985,gca_discrimination,2022.2.4,144.00652061503004,
positions.xlsx,stimuli.xlsx,test.xlsx,stimuli/Social2.png,stimuli/Social1.png,stimuli/Nonsocial2.png,stimuli/Nonsocial1.png,stimuli/Test1.png,stimuli/Test2.png,"(0.7, 0.5)",cs_minus_ns,"(0.7, -0.5)",cs_plus_ns,0,0,0,0,,,,,0,36,36,44,,,,,,,,,,,,,,,216.12934039999982,217.13632549999966,217.13632549999966,217.28208559999985,217.78899839999985,217.78899839999985,217.9348219999997,ä,0.3330049000001054,correct,,218.27509899999995,218.40007789999981,217.13632549999966,,,,,,,,,,,,5,D,2023-12-07_09h03.33.985,gca_discrimination,2022.2.4,144.00652061503004,
positions.xlsx,stimuli.xlsx,test.xlsx,stimuli/Social2.png,stimuli/Social1.png,stimuli/Nonsocial2.png,stimuli/Nonsocial1.png,stimuli/Test1.png,stimuli/Test2.png,"(0.7, -0.5)",cs_minus_s,"(-0.7, 0.5)",cs_plus_s,0,0,0,0,,,,,0,37,37,21,,,,,,,,,,,,,,,218.40007789999981,219.40701450000006,219.40701450000006,219.5528291999999,220.0597776999998,220.0597776999998,220.2056064999997,ä,0.5815944000000854,correct,,220.7958739999999,220.83749940000007,219.40701450000006,,,,,,,,,,,,5,D,2023-12-07_09h03.33.985,gca_discrimination,2022.2.4,144.00652061503004,
positions.xlsx,stimuli.xlsx,test.xlsx,stimuli/Social2.png,stimuli/Social1.png,stimuli/Nonsocial2.png,stimuli/Nonsocial1.png,stimuli/Test1.png,stimuli/Test2.png,"(-0.7, -0.5)",cs_minus_ns,"(-0.7, 0.5)",cs_plus_ns,0,0,0,0,,,,,0,38,38,39,,,,,,,,,,,,,,,220.83749940000007,221.84440210000002,221.84440210000002,221.990229,222.4971728999999,222.4971728999999,222.6430347999999,ä,0.551984000000175,correct,,223.2054592999998,223.82349859999977,221.84440210000002,,,,,,,,,,,,5,D,2023-12-07_09h03.33.985,gca_discrimination,2022.2.4,144.00652061503004,
positions.xlsx,stimuli.xlsx,test.xlsx,stimuli/Social2.png,stimuli/Social1.png,stimuli/Nonsocial2.png,stimuli/Nonsocial1.png,stimuli/Test1.png,stimuli/Test2.png,"(0.7, 0.5)",cs_plus_s,"(-0.7, -0.5)",cs_minus_s,0,0,0,0,,,,,0,39,39,7,,,,,,,,,,,,,,,223.82349859999977,224.8304132999997,224.8304132999997,224.9762099999998,225.48313830000006,225.48313830000006,225.62899459999971,ä,0.3983154999996259,correct,,226.03869099999974,226.42061039999953,224.8304132999997,,,,,,,,,,,,5,D,2023-12-07_09h03.33.985,gca_discrimination,2022.2.4,144.00652061503004,
positions.xlsx,stimuli.xlsx,test.xlsx,stimuli/Social2.png,stimuli/Social1.png,stimuli/Nonsocial2.png,stimuli/Nonsocial1.png,stimuli/Test1.png,stimuli/Test2.png,"(0.7, 0.5)",cs_minus_s,"(-0.7, -0.5)",cs_plus_s,0,0,0,0,,,,,0,40,40,19,,,,,,,,,,,,,,,226.42061039999953,227.42752649999966,227.42752649999966,227.57331900000008,228.08024269999987,228.08024269999987,228.22611609999967,ä,0.30493549999937386,correct,,228.53860949999944,229.41356050000013,227.42752649999966,,,,,,,,,,,,5,D,2023-12-07_09h03.33.985,gca_discrimination,2022.2.4,144.00652061503004,
positions.xlsx,stimuli.xlsx,test.xlsx,stimuli/Social2.png,stimuli/Social1.png,stimuli/Nonsocial2.png,stimuli/Nonsocial1.png,stimuli/Test1.png,stimuli/Test2.png,"(0.7, 0.5)",cs_plus_ns,"(-0.7, 0.5)",cs_plus_ns,0,0,0,0,,,,,0,41,41,78,,,,,,,,,,,,,,,229.41356050000013,230.42042589999983,230.42042589999983,230.56630330000007,231.07321739999952,231.07321739999952,231.21904079999968,l,0.4807880999996996,correct,,231.71207260000028,231.99681119999968,230.42042589999983,,,,,,,,,,,,5,D,2023-12-07_09h03.33.985,gca_discrimination,2022.2.4,144.00652061503004,
positions.xlsx,stimuli.xlsx,test.xlsx,stimuli/Social2.png,stimuli/Social1.png,stimuli/Nonsocial2.png,stimuli/Nonsocial1.png,stimuli/Test1.png,stimuli/Test2.png,"(-0.7, -0.5)",cs_minus_s,"(-0.7, 0.5)",cs_plus_s,0,0,0,0,,,,,0,42,42,15,,,,,,,,,,,,,,,231.99681119999968,233.00369630000023,233.00369630000023,233.14951569999994,233.65644559999964,233.65644559999964,233.80228399999942,ä,0.6013441999994029,correct,,234.41336039999987,235.11475019999943,233.00369630000023,,,,,,,,,,,,5,D,2023-12-07_09h03.33.985,gca_discrimination,2022.2.4,144.00652061503004,
positions.xlsx,stimuli.xlsx,test.xlsx,stimuli/Social2.png,stimuli/Social1.png,stimuli/Nonsocial2.png,stimuli/Nonsocial1.png,stimuli/Test1.png,stimuli/Test2.png,"(0.7, 0.5)",cs_plus_ns,"(0.7, -0.5)",cs_minus_ns,0,0,0,0,,,,,0,43,43,32,,,,,,,,,,,,,,,235.11475019999943,236.12160459999996,236.12160459999996,236.26745169999958,236.77439799999956,236.77439799999956,236.92020950000006,ä,0.2985826000003726,correct,,237.22578309999972,237.3785244999999,236.12160459999996,,,,,,,,,,,,5,D,2023-12-07_09h03.33.985,gca_discrimination,2022.2.4,144.00652061503004,
positions.xlsx,stimuli.xlsx,test.xlsx,stimuli/Social2.png,stimuli/Social1.png,stimuli/Nonsocial2.png,stimuli/Nonsocial1.png,stimuli/Test1.png,stimuli/Test2.png,"(0.7, 0.5)",cs_minus_s,"(-0.7, -0.5)",cs_minus_s,0,0,0,0,,,,,0,44,44,67,,,,,,,,,,,,,,,237.3785244999999,238.38545439999962,238.38545439999962,238.5312543,239.03819180000028,239.03819180000028,239.18401840000024,ä,0.6747607999996035,wrong,,239.87147730000015,240.7464474999997,238.38545439999962,,,,,,,,,,,,5,D,2023-12-07_09h03.33.985,gca_discrimination,2022.2.4,144.00652061503004,
positions.xlsx,stimuli.xlsx,test.xlsx,stimuli/Social2.png,stimuli/Social1.png,stimuli/Nonsocial2.png,stimuli/Nonsocial1.png,stimuli/Test1.png,stimuli/Test2.png,"(0.7, 0.5)",cs_plus_s,"(0.7, -0.5)",cs_minus_s,0,0,0,0,,,,,0,45,45,8,,,,,,,,,,,,,,,240.7464474999997,241.75340640000013,241.75340640000013,241.89919480000026,242.40609799999947,242.40609799999947,242.5519293999996,ä,0.40447240000048623,correct,,242.9685682999998,243.27413220000017,241.75340640000013,,,,,,,,,,,,5,D,2023-12-07_09h03.33.985,gca_discrimination,2022.2.4,144.00652061503004,
positions.xlsx,stimuli.xlsx,test.xlsx,stimuli/Social2.png,stimuli/Social1.png,stimuli/Nonsocial2.png,stimuli/Nonsocial1.png,stimuli/Test1.png,stimuli/Test2.png,"(-0.7, 0.5)",cs_plus_s,"(-0.7, -0.5)",cs_plus_s,0,0,0,0,,,,,0,46,46,48,,,,,,,,,,,,,,,243.27413220000017,244.28106239999943,244.28106239999943,244.42686859999958,244.93380689999958,244.93380689999958,245.07962169999973,l,0.4274405999994997,correct,,245.51714129999982,246.07263150000017,244.28106239999943,,,,,,,,,,,,5,D,2023-12-07_09h03.33.985,gca_discrimination,2022.2.4,144.00652061503004,
positions.xlsx,stimuli.xlsx,test.xlsx,stimuli/Social2.png,stimuli/Social1.png,stimuli/Nonsocial2.png,stimuli/Nonsocial1.png,stimuli/Test1.png,stimuli/Test2.png,"(-0.7, -0.5)",cs_minus_ns,"(0.7, 0.5)",cs_plus_ns,0,0,0,0,,,,,0,47,47,40,,,,,,,,,,,,,,,246.07263150000017,247.07954449999943,247.07954449999943,247.2253614000001,247.7322884999994,247.7322884999994,247.87811779999993,ä,0.46153640000011364,correct,,248.3503197,248.84335289999945,247.07954449999943,,,,,,,,,,,,5,D,2023-12-07_09h03.33.985,gca_discrimination,2022.2.4,144.00652061503004,
positions.xlsx,stimuli.xlsx,test.xlsx,stimuli/Social2.png,stimuli/Social1.png,stimuli/Nonsocial2.png,stimuli/Nonsocial1.png,stimuli/Test1.png,stimuli/Test2.png,"(-0.7, 0.5)",cs_plus_s,"(-0.7, -0.5)",cs_minus_s,0,0,0,0,,,,,0,48,48,0,,,,,,,,,,,,,,,248.84335289999945,249.85025979999955,249.85025979999955,249.99610140000004,250.50301459999991,250.50301459999991,250.64884259999963,ä,0.3227019999994809,correct,,250.98215720000007,250.99606359999962,249.85025979999955,,,,,,,,,,,,5,D,2023-12-07_09h03.33.985,gca_discrimination,2022.2.4,144.00652061503004,
positions.xlsx,stimuli.xlsx,test.xlsx,stimuli/Social2.png,stimuli/Social1.png,stimuli/Nonsocial2.png,stimuli/Nonsocial1.png,stimuli/Test1.png,stimuli/Test2.png,"(0.7, 0.5)",cs_minus_ns,"(-0.7, 0.5)",cs_minus_ns,0,0,0,0,,,,,0,49,49,90,,,,,,,,,,,,,,,250.99606359999962,252.00295529999948,252.00295529999948,252.14878409999983,252.65571629999977,252.65571629999977,252.80154829999992,l,0.32207389999985025,correct,,253.13484229999995,253.29462150000018,252.00295529999948,,,,,,,,,,,,5,D,2023-12-07_09h03.33.985,gca_discrimination,2022.2.4,144.00652061503004,
positions.xlsx,stimuli.xlsx,test.xlsx,stimuli/Social2.png,stimuli/Social1.png,stimuli/Nonsocial2.png,stimuli/Nonsocial1.png,stimuli/Test1.png,stimuli/Test2.png,"(0.7, -0.5)",cs_minus_ns,"(0.7, 0.5)",cs_plus_ns,0,0,0,0,,,,,0,50,50,47,,,,,,,,,,,,,,,253.29462150000018,254.30146009999953,254.30146009999953,254.44731369999954,254.95424300000013,254.95424300000013,255.1000680999996,ä,0.28753169999981765,correct,,255.39869819999967,256.23890930000016,254.30146009999953,,,,,,,,,,,,5,D,2023-12-07_09h03.33.985,gca_discrimination,2022.2.4,144.00652061503004,
positions.xlsx,stimuli.xlsx,test.xlsx,stimuli/Social2.png,stimuli/Social1.png,stimuli/Nonsocial2.png,stimuli/Nonsocial1.png,stimuli/Test1.png,stimuli/Test2.png,"(0.7, 0.5)",cs_minus_ns,"(-0.7, -0.5)",cs_plus_ns,0,0,0,0,,,,,0,51,51,43,,,,,,,,,,,,,,,256.23890930000016,257.2457982999995,257.2457982999995,257.39163259999987,257.89856299999974,257.89856299999974,258.0443943999999,ä,0.3028986999997869,correct,,258.3568554000003,258.96103029999995,257.2457982999995,,,,,,,,,,,,5,D,2023-12-07_09h03.33.985,gca_discrimination,2022.2.4,144.00652061503004,
positions.xlsx,stimuli.xlsx,test.xlsx,stimuli/Social2.png,stimuli/Social1.png,stimuli/Nonsocial2.png,stimuli/Nonsocial1.png,stimuli/Test1.png,stimuli/Test2.png,"(-0.7, 0.5)",cs_plus_s,"(0.7, 0.5)",cs_minus_s,0,0,0,0,,,,,0,52,52,1,,,,,,,,,,,,,,,258.96103029999995,259.96794859999954,259.96794859999954,260.11375679999946,260.6207152999996,260.6207152999996,260.7665085999997,ä,0.2854464000001826,correct,,261.06510199999957,261.8567383999998,259.96794859999954,,,,,,,,,,,,5,D,2023-12-07_09h03.33.985,gca_discrimination,2022.2.4,144.00652061503004,
positions.xlsx,stimuli.xlsx,test.xlsx,stimuli/Social2.png,stimuli/Social1.png,stimuli/Nonsocial2.png,stimuli/Nonsocial1.png,stimuli/Test1.png,stimuli/Test2.png,"(-0.7, 0.5)",cs_minus_ns,"(0.7, 0.5)",cs_minus_ns,0,0,0,0,,,,,0,53,53,85,,,,,,,,,,,,,,,261.8567383999998,262.86365810000007,262.86365810000007,263.0094613000001,263.5163934000002,263.5163934000002,263.66223139999965,l,0.27701450000040495,correct,,263.9469581000003,264.7524545999995,262.86365810000007,,,,,,,,,,,,5,D,2023-12-07_09h03.33.985,gca_discrimination,2022.2.4,144.00652061503004,
positions.xlsx,stimuli.xlsx,test.xlsx,stimuli/Social2.png,stimuli/Social1.png,stimuli/Nonsocial2.png,stimuli/Nonsocial1.png,stimuli/Test1.png,stimuli/Test2.png,"(-0.7, 0.5)",cs_plus_ns,"(-0.7, -0.5)",cs_plus_ns,0,0,0,0,,,,,0,54,54,72,,,,,,,,,,,,,,,264.7524545999995,265.75936379999985,265.75936379999985,265.9051830999997,266.41214450000007,266.41214450000007,266.5579108000002,l,0.43764180000016495,correct,,267.0023678999996,267.3912373000003,265.75936379999985,,,,,,,,,,,,5,D,2023-12-07_09h03.33.985,gca_discrimination,2022.2.4,144.00652061503004,
positions.xlsx,stimuli.xlsx,test.xlsx,stimuli/Social2.png,stimuli/Social1.png,stimuli/Nonsocial2.png,stimuli/Nonsocial1.png,stimuli/Test1.png,stimuli/Test2.png,"(-0.7, -0.5)",cs_plus_s,"(-0.7, 0.5)",cs_minus_s,0,0,0,0,,,,,0,55,55,3,,,,,,,,,,,,,,,267.3912373000003,268.3981471999996,268.3981471999996,268.54398859999947,269.0509069999998,269.0509069999998,269.1967188999997,ä,0.39032109999971,correct,,269.5994965,270.12035279999964,268.3981471999996,,,,,,,,,,,,5,D,2023-12-07_09h03.33.985,gca_discrimination,2022.2.4,144.00652061503004,
positions.xlsx,stimuli.xlsx,test.xlsx,stimuli/Social2.png,stimuli/Social1.png,stimuli/Nonsocial2.png,stimuli/Nonsocial1.png,stimuli/Test1.png,stimuli/Test2.png,"(0.7, 0.5)",cs_minus_s,"(0.7, -0.5)",cs_plus_s,0,0,0,0,,,,,0,56,56,20,,,,,,,,,,,,,,,270.12035279999964,271.1272160999997,271.1272160999997,271.27303239999947,271.7799814,271.7799814,271.9257931000002,ä,0.7891865000001417,correct,,272.72437399999944,273.35626429999957,271.1272160999997,,,,,,,,,,,,5,D,2023-12-07_09h03.33.985,gca_discrimination,2022.2.4,144.00652061503004,
positions.xlsx,stimuli.xlsx,test.xlsx,stimuli/Social2.png,stimuli/Social1.png,stimuli/Nonsocial2.png,stimuli/Nonsocial1.png,stimuli/Test1.png,stimuli/Test2.png,"(0.7, -0.5)",cs_plus_ns,"(0.7, 0.5)",cs_minus_ns,0,0,0,0,,,,,0,57,57,35,,,,,,,,,,,,,,,273.35626429999957,274.36319249999997,274.36319249999997,274.50902059999953,275.01596900000004,275.01596900000004,275.1617774999995,l,0.6014653000001999,wrong,,275.77287520000027,276.3978023999998,274.36319249999997,,,,,,,,,,,,5,D,2023-12-07_09h03.33.985,gca_discrimination,2022.2.4,144.00652061503004,
positions.xlsx,stimuli.xlsx,test.xlsx,stimuli/Social2.png,stimuli/Social1.png,stimuli/Nonsocial2.png,stimuli/Nonsocial1.png,stimuli/Test1.png,stimuli/Test2.png,"(-0.7, -0.5)",cs_plus_s,"(0.7, 0.5)",cs_plus_s,0,0,0,0,,,,,0,58,58,52,,,,,,,,,,,,,,,276.3978023999998,277.4047579999997,277.4047579999997,277.5505855000001,278.05751299999974,278.05751299999974,278.20334039999943,l,0.4479587999994692,correct,,278.6616119,279.4810405999997,277.4047579999997,,,,,,,,,,,,5,D,2023-12-07_09h03.33.985,gca_discrimination,2022.2.4,144.00652061503004,
positions.xlsx,stimuli.xlsx,test.xlsx,stimuli/Social2.png,stimuli/Social1.png,stimuli/Nonsocial2.png,stimuli/Nonsocial1.png,stimuli/Test1.png,stimuli/Test2.png,"(-0.7, -0.5)",cs_minus_s,"(0.7, 0.5)",cs_minus_s,0,0,0,0,,,,,0,59,59,64,,,,,,,,,,,,,,,279.4810405999997,280.48795340000015,280.48795340000015,280.6337642999997,281.1407207000002,281.1407207000002,281.2865432999997,ä,0.44482909999987896,wrong,,281.7448519999998,281.77262729999984,280.48795340000015,,,,,,,,,,,,5,D,2023-12-07_09h03.33.985,gca_discrimination,2022.2.4,144.00652061503004,
positions.xlsx,stimuli.xlsx,test.xlsx,stimuli/Social2.png,stimuli/Social1.png,stimuli/Nonsocial2.png,stimuli/Nonsocial1.png,stimuli/Test1.png,stimuli/Test2.png,"(-0.7, -0.5)",cs_plus_ns,"(-0.7, 0.5)",cs_plus_ns,0,0,0,0,,,,,0,60,60,75,,,,,,,,,,,,,,,281.77262729999984,282.77955419999944,282.77955419999944,282.9253546,283.43230779999976,283.43230779999976,283.5781023999998,l,0.4328912999999375,correct,,284.0225585999997,284.7586589000002,282.77955419999944,,,,,,,,,,,,5,D,2023-12-07_09h03.33.985,gca_discrimination,2022.2.4,144.00652061503004,
positions.xlsx,stimuli.xlsx,test.xlsx,stimuli/Social2.png,stimuli/Social1.png,stimuli/Nonsocial2.png,stimuli/Nonsocial1.png,stimuli/Test1.png,stimuli/Test2.png,"(0.7, 0.5)",cs_plus_ns,"(-0.7, -0.5)",cs_minus_ns,0,0,0,0,,,,,0,61,61,31,,,,,,,,,,,,,,,284.7586589000002,285.7655171999995,285.7655171999995,285.9113526000001,286.41826630000014,286.41826630000014,286.5641061999995,ä,0.31904989999929967,correct,,286.89046210000015,287.4460075999996,285.7655171999995,,,,,,,,,,,,5,D,2023-12-07_09h03.33.985,gca_discrimination,2022.2.4,144.00652061503004,
positions.xlsx,stimuli.xlsx,test.xlsx,stimuli/Social2.png,stimuli/Social1.png,stimuli/Nonsocial2.png,stimuli/Nonsocial1.png,stimuli/Test1.png,stimuli/Test2.png,"(-0.7, 0.5)",cs_minus_s,"(0.7, -0.5)",cs_minus_s,0,0,0,0,,,,,0,62,62,62,,,,,,,,,,,,,,,287.4460075999996,288.45294529999956,288.45294529999956,288.59874039999977,289.1056687,289.1056687,289.25149559999954,l,0.47143810000034136,correct,,289.7305944,290.11258389999966,288.45294529999956,,,,,,,,,,,,5,D,2023-12-07_09h03.33.985,gca_discrimination,2022.2.4,144.00652061503004,
positions.xlsx,stimuli.xlsx,test.xlsx,stimuli/Social2.png,stimuli/Social1.png,stimuli/Nonsocial2.png,stimuli/Nonsocial1.png,stimuli/Test1.png,stimuli/Test2.png,"(-0.7, 0.5)",cs_minus_ns,"(0.7, 0.5)",cs_plus_ns,0,0,0,0,,,,,0,63,63,37,,,,,,,,,,,,,,,290.11258389999966,291.1194889999997,291.1194889999997,291.2652810999998,291.7722315000001,291.7722315000001,291.9180529999994,ä,0.4060170000002472,correct,,292.3346998999996,292.59165140000005,291.1194889999997,,,,,,,,,,,,5,D,2023-12-07_09h03.33.985,gca_discrimination,2022.2.4,144.00652061503004,
positions.xlsx,stimuli.xlsx,test.xlsx,stimuli/Social2.png,stimuli/Social1.png,stimuli/Nonsocial2.png,stimuli/Nonsocial1.png,stimuli/Test1.png,stimuli/Test2.png,"(0.7, -0.5)",cs_minus_s,"(-0.7, 0.5)",cs_minus_s,0,0,0,0,,,,,0,64,64,69,,,,,,,,,,,,,,,292.59165140000005,293.59854709999945,293.59854709999945,293.74443429999974,294.25129949999973,294.25129949999973,294.39714529999947,l,0.3899888000005376,correct,,294.7998894000002,294.81376999999975,293.59854709999945,,,,,,,,,,,,5,D,2023-12-07_09h03.33.985,gca_discrimination,2022.2.4,144.00652061503004,
positions.xlsx,stimuli.xlsx,test.xlsx,stimuli/Social2.png,stimuli/Social1.png,stimuli/Nonsocial2.png,stimuli/Nonsocial1.png,stimuli/Test1.png,stimuli/Test2.png,"(0.7, 0.5)",cs_minus_ns,"(0.7, -0.5)",cs_minus_ns,0,0,0,0,,,,,0,65,65,92,,,,,,,,,,,,,,,294.81376999999975,295.8206889000003,295.8206889000003,295.96650469999986,296.4734459000001,296.4734459000001,296.6192748000003,l,0.44802070000059757,correct,,297.07757500000025,297.8553402999996,295.8206889000003,,,,,,,,,,,,5,D,2023-12-07_09h03.33.985,gca_discrimination,2022.2.4,144.00652061503004,
positions.xlsx,stimuli.xlsx,test.xlsx,stimuli/Social2.png,stimuli/Social1.png,stimuli/Nonsocial2.png,stimuli/Nonsocial1.png,stimuli/Test1.png,stimuli/Test2.png,"(0.7, 0.5)",cs_minus_ns,"(-0.7, 0.5)",cs_plus_ns,0,0,0,0,,,,,0,66,66,42,,,,,,,,,,,,,,,297.8553402999996,298.8622451000001,298.8622451000001,299.00806139999986,299.5149954999997,299.5149954999997,299.6608234999994,ä,0.39033759999983886,correct,,300.0635543999997,300.2579789000001,298.8622451000001,,,,,,,,,,,,5,D,2023-12-07_09h03.33.985,gca_discrimination,2022.2.4,144.00652061503004,
positions.xlsx,stimuli.xlsx,test.xlsx,stimuli/Social2.png,stimuli/Social1.png,stimuli/Nonsocial2.png,stimuli/Nonsocial1.png,stimuli/Test1.png,stimuli/Test2.png,"(-0.7, 0.5)",cs_plus_s,"(0.7, -0.5)",cs_plus_s,0,0,0,0,,,,,0,67,67,50,,,,,,,,,,,,,,,300.2579789000001,301.26493500000015,301.26493500000015,301.4107546999994,301.9176649000001,301.9176649000001,302.0634928999998,l,0.45989670000017213,correct,,302.5357131999999,303.1537275999999,301.26493500000015,,,,,,,,,,,,5,D,2023-12-07_09h03.33.985,gca_discrimination,2022.2.4,144.00652061503004,
positions.xlsx,stimuli.xlsx,test.xlsx,stimuli/Social2.png,stimuli/Social1.png,stimuli/Nonsocial2.png,stimuli/Nonsocial1.png,stimuli/Test1.png,stimuli/Test2.png,"(0.7, -0.5)",cs_plus_s,"(-0.7, -0.5)",cs_plus_s,0,0,0,0,,,,,0,68,68,58,,,,,,,,,,,,,,,303.1537275999999,304.1606284999998,304.1606284999998,304.30646199999956,304.81341150000026,304.81341150000026,304.95917629999985,l,0.36434689999987313,correct,,305.3342155999999,305.84112129999994,304.1606284999998,,,,,,,,,,,,5,D,2023-12-07_09h03.33.985,gca_discrimination,2022.2.4,144.00652061503004,
positions.xlsx,stimuli.xlsx,test.xlsx,stimuli/Social2.png,stimuli/Social1.png,stimuli/Nonsocial2.png,stimuli/Nonsocial1.png,stimuli/Test1.png,stimuli/Test2.png,"(-0.7, -0.5)",cs_plus_s,"(-0.7, 0.5)",cs_plus_s,0,0,0,0,,,,,0,69,69,51,,,,,,,,,,,,,,,305.84112129999994,306.8480619000002,306.8480619000002,306.99386049999976,307.5007776000002,307.5007776000002,307.64662919999955,l,0.3407327000004443,correct,,308.0007521999996,308.4382304999999,306.8480619000002,,,,,,,,,,,,5,D,2023-12-07_09h03.33.985,gca_discrimination,2022.2.4,144.00652061503004,
positions.xlsx,stimuli.xlsx,test.xlsx,stimuli/Social2.png,stimuli/Social1.png,stimuli/Nonsocial2.png,stimuli/Nonsocial1.png,stimuli/Test1.png,stimuli/Test2.png,"(-0.7, -0.5)",cs_minus_s,"(0.7, -0.5)",cs_minus_s,0,0,0,0,,,,,0,70,70,65,,,,,,,,,,,,,,,308.4382304999999,309.44514809999964,309.44514809999964,309.590948,310.09790539999995,310.09790539999995,310.24369599999955,l,0.47202029999971273,correct,,310.7228562999999,310.7437014999996,309.44514809999964,,,,,,,,,,,,5,D,2023-12-07_09h03.33.985,gca_discrimination,2022.2.4,144.00652061503004,
positions.xlsx,stimuli.xlsx,test.xlsx,stimuli/Social2.png,stimuli/Social1.png,stimuli/Nonsocial2.png,stimuli/Nonsocial1.png,stimuli/Test1.png,stimuli/Test2.png,"(-0.7, -0.5)",cs_plus_ns,"(0.7, -0.5)",cs_plus_ns,0,0,0,0,,,,,0,71,71,77,,,,,,,,,,,,,,,310.7437014999996,311.7506119999998,311.7506119999998,311.89643669999987,312.4033681000001,312.4033681000001,312.5492041999996,l,0.32608760000039183,correct,,312.88251930000024,313.44501799999944,311.7506119999998,,,,,,,,,,,,5,D,2023-12-07_09h03.33.985,gca_discrimination,2022.2.4,144.00652061503004,
positions.xlsx,stimuli.xlsx,test.xlsx,stimuli/Social2.png,stimuli/Social1.png,stimuli/Nonsocial2.png,stimuli/Nonsocial1.png,stimuli/Test1.png,stimuli/Test2.png,"(0.7, 0.5)",cs_plus_s,"(-0.7, 0.5)",cs_minus_s,0,0,0,0,,,,,0,72,72,6,,,,,,,,,,,,,,,313.44501799999944,314.4518731999997,314.4518731999997,314.5977227000003,315.1046693999997,315.1046693999997,315.2504995999998,ä,0.3683293000003687,correct,,315.6323887999997,316.5837418000001,314.4518731999997,,,,,,,,,,,,5,D,2023-12-07_09h03.33.985,gca_discrimination,2022.2.4,144.00652061503004,
positions.xlsx,stimuli.xlsx,test.xlsx,stimuli/Social2.png,stimuli/Social1.png,stimuli/Nonsocial2.png,stimuli/Nonsocial1.png,stimuli/Test1.png,stimuli/Test2.png,"(0.7, -0.5)",cs_minus_s,"(0.7, 0.5)",cs_minus_s,0,0,0,0,,,,,0,73,73,71,,,,,,,,,,,,,,,316.5837418000001,317.59068019999995,317.59068019999995,317.7364883,318.24342119999983,318.24342119999983,318.3892353000001,l,0.350143399999979,correct,,318.7503514,319.39612599999964,317.59068019999995,,,,,,,,,,,,5,D,2023-12-07_09h03.33.985,gca_discrimination,2022.2.4,144.00652061503004,
positions.xlsx,stimuli.xlsx,test.xlsx,stimuli/Social2.png,stimuli/Social1.png,stimuli/Nonsocial2.png,stimuli/Nonsocial1.png,stimuli/Test1.png,stimuli/Test2.png,"(-0.7, -0.5)",cs_plus_ns,"(0.7, 0.5)",cs_plus_ns,0,0,0,0,,,,,0,74,74,76,,,,,,,,,,,,,,,319.39612599999964,320.4030504000002,320.4030504000002,320.54883119999977,321.0558040999995,321.0558040999995,321.20163779999984,l,0.32977110000047105,correct,,321.54188520000025,321.70856920000006,320.4030504000002,,,,,,,,,,,,5,D,2023-12-07_09h03.33.985,gca_discrimination,2022.2.4,144.00652061503004,
positions.xlsx,stimuli.xlsx,test.xlsx,stimuli/Social2.png,stimuli/Social1.png,stimuli/Nonsocial2.png,stimuli/Nonsocial1.png,stimuli/Test1.png,stimuli/Test2.png,"(0.7, 0.5)",cs_plus_ns,"(0.7, -0.5)",cs_plus_ns,0,0,0,0,,,,,0,75,75,80,,,,,,,,,,,,,,,321.70856920000006,322.71547159999955,322.71547159999955,322.8612986999997,323.3682110999998,323.3682110999998,323.5140472000003,l,0.4815190999997867,correct,,324.0070657999995,324.11125019999963,322.71547159999955,,,,,,,,,,,,5,D,2023-12-07_09h03.33.985,gca_discrimination,2022.2.4,144.00652061503004,
positions.xlsx,stimuli.xlsx,test.xlsx,stimuli/Social2.png,stimuli/Social1.png,stimuli/Nonsocial2.png,stimuli/Nonsocial1.png,stimuli/Test1.png,stimuli/Test2.png,"(-0.7, 0.5)",cs_plus_ns,"(0.7, 0.5)",cs_minus_ns,0,0,0,0,,,,,0,76,76,25,,,,,,,,,,,,,,,324.11125019999963,325.11816850000014,325.11816850000014,325.26396469999963,325.7708953000001,325.7708953000001,325.9167179999995,ä,0.42324830000052316,correct,,326.34725979999985,327.00697839999975,325.11816850000014,,,,,,,,,,,,5,D,2023-12-07_09h03.33.985,gca_discrimination,2022.2.4,144.00652061503004,
positions.xlsx,stimuli.xlsx,test.xlsx,stimuli/Social2.png,stimuli/Social1.png,stimuli/Nonsocial2.png,stimuli/Nonsocial1.png,stimuli/Test1.png,stimuli/Test2.png,"(-0.7, -0.5)",cs_plus_s,"(0.7, -0.5)",cs_plus_s,0,0,0,0,,,,,0,77,77,53,,,,,,,,,,,,,,,327.00697839999975,328.0138786999996,328.0138786999996,328.1596817999998,328.6666255,328.6666255,328.8124606000001,l,0.3275532999996358,correct,,329.15269739999985,329.95822529999987,328.0138786999996,,,,,,,,,,,,5,D,2023-12-07_09h03.33.985,gca_discrimination,2022.2.4,144.00652061503004,
positions.xlsx,stimuli.xlsx,test.xlsx,stimuli/Social2.png,stimuli/Social1.png,stimuli/Nonsocial2.png,stimuli/Nonsocial1.png,stimuli/Test1.png,stimuli/Test2.png,"(-0.7, 0.5)",cs_minus_s,"(0.7, 0.5)",cs_minus_s,0,0,0,0,,,,,0,78,78,61,,,,,,,,,,,,,,,329.95822529999987,330.9651660999998,330.9651660999998,331.1109618999999,331.61788119999983,331.61788119999983,331.7637202999995,l,0.32704800000010437,correct,,332.10398579999946,332.7845017999998,330.9651660999998,,,,,,,,,,,,5,D,2023-12-07_09h03.33.985,gca_discrimination,2022.2.4,144.00652061503004,
positions.xlsx,stimuli.xlsx,test.xlsx,stimuli/Social2.png,stimuli/Social1.png,stimuli/Nonsocial2.png,stimuli/Nonsocial1.png,stimuli/Test1.png,stimuli/Test2.png,"(0.7, -0.5)",cs_plus_ns,"(-0.7, -0.5)",cs_minus_ns,0,0,0,0,,,,,0,79,79,34,,,,,,,,,,,,,,,332.7845017999998,333.7914482999995,333.7914482999995,333.9372358999999,334.4441697000002,334.4441697000002,334.58999049999966,ä,0.35763240000051155,correct,,334.9580016,335.27743629999986,333.7914482999995,,,,,,,,,,,,5,D,2023-12-07_09h03.33.985,gca_discrimination,2022.2.4,144.00652061503004,
positions.xlsx,stimuli.xlsx,test.xlsx,stimuli/Social2.png,stimuli/Social1.png,stimuli/Nonsocial2.png,stimuli/Nonsocial1.png,stimuli/Test1.png,stimuli/Test2.png,"(-0.7, -0.5)",cs_minus_ns,"(0.7, -0.5)",cs_minus_ns,0,0,0,0,,,,,0,80,80,89,,,,,,,,,,,,,,,335.27743629999986,336.28438240000014,336.28438240000014,336.43020350000006,336.9370945999999,336.9370945999999,337.0829466999994,l,0.3844072000001688,correct,,337.4787795000002,338.2773600999999,336.28438240000014,,,,,,,,,,,,5,D,2023-12-07_09h03.33.985,gca_discrimination,2022.2.4,144.00652061503004,
positions.xlsx,stimuli.xlsx,test.xlsx,stimuli/Social2.png,stimuli/Social1.png,stimuli/Nonsocial2.png,stimuli/Nonsocial1.png,stimuli/Test1.png,stimuli/Test2.png,"(0.7, -0.5)",cs_plus_s,"(-0.7, 0.5)",cs_minus_s,0,0,0,0,,,,,0,81,81,9,,,,,,,,,,,,,,,338.2773600999999,339.28422880000016,339.28422880000016,339.43009079999956,339.93707819999963,339.93707819999963,340.0827946999998,ä,0.344549299999926,correct,,340.43699689999994,340.9369200000001,339.28422880000016,,,,,,,,,,,,5,D,2023-12-07_09h03.33.985,gca_discrimination,2022.2.4,144.00652061503004,
positions.xlsx,stimuli.xlsx,test.xlsx,stimuli/Social2.png,stimuli/Social1.png,stimuli/Nonsocial2.png,stimuli/Nonsocial1.png,stimuli/Test1.png,stimuli/Test2.png,"(-0.7, 0.5)",cs_minus_s,"(0.7, 0.5)",cs_plus_s,0,0,0,0,,,,,0,82,82,13,,,,,,,,,,,,,,,340.9369200000001,341.94386889999987,341.94386889999987,342.08965850000004,342.59662500000013,342.59662500000013,342.74244329999965,ä,0.35733669999990525,correct,,343.1104986,344.0549019,341.94386889999987,,,,,,,,,,,,5,D,2023-12-07_09h03.33.985,gca_discrimination,2022.2.4,144.00652061503004,
positions.xlsx,stimuli.xlsx,test.xlsx,stimuli/Social2.png,stimuli/Social1.png,stimuli/Nonsocial2.png,stimuli/Nonsocial1.png,stimuli/Test1.png,stimuli/Test2.png,"(-0.7, 0.5)",cs_minus_ns,"(-0.7, -0.5)",cs_minus_ns,0,0,0,0,,,,,0,83,83,84,,,,,,,,,,,,,,,344.0549019,345.0618066999996,345.0618066999996,345.2076255000002,345.7145453000003,345.7145453000003,345.86034740000014,l,0.3028506999999081,correct,,346.17284519999976,346.3950909999994,345.0618066999996,,,,,,,,,,,,5,D,2023-12-07_09h03.33.985,gca_discrimination,2022.2.4,144.00652061503004,
positions.xlsx,stimuli.xlsx,test.xlsx,stimuli/Social2.png,stimuli/Social1.png,stimuli/Nonsocial2.png,stimuli/Nonsocial1.png,stimuli/Test1.png,stimuli/Test2.png,"(0.7, -0.5)",cs_plus_s,"(-0.7, -0.5)",cs_minus_s,0,0,0,0,,,,,0,84,84,10,,,,,,,,,,,,,,,346.3950909999994,347.40198989999953,347.40198989999953,347.54781679999996,348.05476799999997,348.05476799999997,348.2005475999995,ä,0.4109694999997373,correct,,348.6241571999999,349.52691479999976,347.40198989999953,,,,,,,,,,,,5,D,2023-12-07_09h03.33.985,gca_discrimination,2022.2.4,144.00652061503004,
positions.xlsx,stimuli.xlsx,test.xlsx,stimuli/Social2.png,stimuli/Social1.png,stimuli/Nonsocial2.png,stimuli/Nonsocial1.png,stimuli/Test1.png,stimuli/Test2.png,"(-0.7, 0.5)",cs_minus_s,"(-0.7, -0.5)",cs_minus_s,0,0,0,0,,,,,0,85,85,60,,,,,,,,,,,,,,,349.52691479999976,350.5338257000003,350.5338257000003,350.6796519999998,351.1866090000003,351.1866090000003,351.3324026999999,l,0.43899229999988165,correct,,351.7837506999995,352.7489980999999,350.5338257000003,,,,,,,,,,,,5,D,2023-12-07_09h03.33.985,gca_discrimination,2022.2.4,144.00652061503004,
positions.xlsx,stimuli.xlsx,test.xlsx,stimuli/Social2.png,stimuli/Social1.png,stimuli/Nonsocial2.png,stimuli/Nonsocial1.png,stimuli/Test1.png,stimuli/Test2.png,"(0.7, 0.5)",cs_minus_s,"(-0.7, 0.5)",cs_plus_s,0,0,0,0,,,,,0,86,86,18,,,,,,,,,,,,,,,352.7489980999999,353.7559296999998,353.7559296999998,353.90172639999946,354.40862899999956,354.40862899999956,354.5544841000001,ä,0.4337384000000384,correct,,354.9989254000002,355.3947443999996,353.7559296999998,,,,,,,,,,,,5,D,2023-12-07_09h03.33.985,gca_discrimination,2022.2.4,144.00652061503004,
positions.xlsx,stimuli.xlsx,test.xlsx,stimuli/Social2.png,stimuli/Social1.png,stimuli/Nonsocial2.png,stimuli/Nonsocial1.png,stimuli/Test1.png,stimuli/Test2.png,"(0.7, -0.5)",cs_plus_s,"(0.7, 0.5)",cs_plus_s,0,0,0,0,,,,,0,87,87,59,,,,,,,,,,,,,,,355.3947443999996,356.4016400999999,356.4016400999999,356.54746609999984,357.05437840000013,357.05437840000013,357.2002193999997,l,0.3546174000002793,correct,,357.5682574000002,357.79046879999987,356.4016400999999,,,,,,,,,,,,5,D,2023-12-07_09h03.33.985,gca_discrimination,2022.2.4,144.00652061503004,
positions.xlsx,stimuli.xlsx,test.xlsx,stimuli/Social2.png,stimuli/Social1.png,stimuli/Nonsocial2.png,stimuli/Nonsocial1.png,stimuli/Test1.png,stimuli/Test2.png,"(-0.7, 0.5)",cs_plus_ns,"(-0.7, -0.5)",cs_minus_ns,0,0,0,0,,,,,0,88,88,24,,,,,,,,,,,,,,,357.79046879999987,358.79738219999945,358.79738219999945,358.94318959999964,359.45013500000005,359.45013500000005,359.5959635999998,ä,0.4320887000003495,correct,,360.04037139999946,360.29731249999986,358.79738219999945,,,,,,,,,,,,5,D,2023-12-07_09h03.33.985,gca_discrimination,2022.2.4,144.00652061503004,
positions.xlsx,stimuli.xlsx,test.xlsx,stimuli/Social2.png,stimuli/Social1.png,stimuli/Nonsocial2.png,stimuli/Nonsocial1.png,stimuli/Test1.png,stimuli/Test2.png,"(0.7, -0.5)",cs_minus_ns,"(-0.7, -0.5)",cs_plus_ns,0,0,0,0,,,,,0,89,89,46,,,,,,,,,,,,,,,360.29731249999986,361.30419319999965,361.30419319999965,361.4500552999998,361.9569728999995,361.9569728999995,362.10279790000004,ä,0.3891613000005236,correct,,362.5055685999996,362.9152629,361.30419319999965,,,,,,,,,,,,5,D,2023-12-07_09h03.33.985,gca_discrimination,2022.2.4,144.00652061503004,
positions.xlsx,stimuli.xlsx,test.xlsx,stimuli/Social2.png,stimuli/Social1.png,stimuli/Nonsocial2.png,stimuli/Nonsocial1.png,stimuli/Test1.png,stimuli/Test2.png,"(0.7, 0.5)",cs_minus_ns,"(-0.7, -0.5)",cs_minus_ns,0,0,0,0,,,,,0,90,90,91,,,,,,,,,,,,,,,362.9152629,363.9221699999998,363.9221699999998,364.0679921000001,364.5749254000002,364.5749254000002,364.7207398999999,l,0.4263276000001497,correct,,365.15822370000024,365.51933069999995,363.9221699999998,,,,,,,,,,,,5,D,2023-12-07_09h03.33.985,gca_discrimination,2022.2.4,144.00652061503004,
positions.xlsx,stimuli.xlsx,test.xlsx,stimuli/Social2.png,stimuli/Social1.png,stimuli/Nonsocial2.png,stimuli/Nonsocial1.png,stimuli/Test1.png,stimuli/Test2.png,"(-0.7, 0.5)",cs_minus_ns,"(-0.7, -0.5)",cs_plus_ns,0,0,0,0,,,,,0,91,91,36,,,,,,,,,,,,,,,365.51933069999995,366.5262309,366.5262309,366.6720316000001,367.17897840000023,367.17897840000023,367.3247822000003,ä,0.38388799999938783,correct,,367.72065250000014,368.1998050000002,366.5262309,,,,,,,,,,,,5,D,2023-12-07_09h03.33.985,gca_discrimination,2022.2.4,144.00652061503004,
positions.xlsx,stimuli.xlsx,test.xlsx,stimuli/Social2.png,stimuli/Social1.png,stimuli/Nonsocial2.png,stimuli/Nonsocial1.png,stimuli/Test1.png,stimuli/Test2.png,"(0.7, -0.5)",cs_minus_s,"(-0.7, -0.5)",cs_plus_s,0,0,0,0,,,,,0,92,92,22,,,,,,,,,,,,,,,368.1998050000002,369.20669389999966,369.20669389999966,369.3524894000002,369.8594519999997,369.8594519999997,370.0052676999994,ä,0.3099164000004748,correct,,370.3246835,370.88024849999965,369.20669389999966,,,,,,,,,,,,5,D,2023-12-07_09h03.33.985,gca_discrimination,2022.2.4,144.00652061503004,
positions.xlsx,stimuli.xlsx,test.xlsx,stimuli/Social2.png,stimuli/Social1.png,stimuli/Nonsocial2.png,stimuli/Nonsocial1.png,stimuli/Test1.png,stimuli/Test2.png,"(0.7, 0.5)",cs_minus_s,"(-0.7, 0.5)",cs_minus_s,0,0,0,0,,,,,0,93,93,66,,,,,,,,,,,,,,,370.88024849999965,371.8871294999999,371.8871294999999,372.0329692999994,372.5398851,372.5398851,372.6856808000002,l,0.4296564000005674,correct,,373.1232084000003,373.4704049000002,371.8871294999999,,,,,,,,,,,,5,D,2023-12-07_09h03.33.985,gca_discrimination,2022.2.4,144.00652061503004,
positions.xlsx,stimuli.xlsx,test.xlsx,stimuli/Social2.png,stimuli/Social1.png,stimuli/Nonsocial2.png,stimuli/Nonsocial1.png,stimuli/Test1.png,stimuli/Test2.png,"(-0.7, 0.5)",cs_minus_s,"(0.7, -0.5)",cs_plus_s,0,0,0,0,,,,,0,94,94,14,,,,,,,,,,,,,,,373.4704049000002,374.4773360999998,374.4773360999998,374.62317470000016,375.13007839999955,375.13007839999955,375.27589089999947,ä,0.3914248000000953,correct,,375.6786585,375.84532969999964,374.4773360999998,,,,,,,,,,,,5,D,2023-12-07_09h03.33.985,gca_discrimination,2022.2.4,144.00652061503004,
positions.xlsx,stimuli.xlsx,test.xlsx,stimuli/Social2.png,stimuli/Social1.png,stimuli/Nonsocial2.png,stimuli/Nonsocial1.png,stimuli/Test1.png,stimuli/Test2.png,"(-0.7, -0.5)",cs_minus_s,"(-0.7, 0.5)",cs_minus_s,0,0,0,0,,,,,0,95,95,63,,,,,,,,,,,,,,,375.84532969999964,376.8522270000003,376.8522270000003,376.9980392999996,377.50496699999985,377.50496699999985,377.65079400000013,l,0.36054539999986446,correct,,378.01882860000023,378.49801620000017,376.8522270000003,,,,,,,,,,,,5,D,2023-12-07_09h03.33.985,gca_discrimination,2022.2.4,144.00652061503004,
