posFile,stimFile,testFile,cs_plus_s,cs_minus_s,cs_plus_ns,cs_minus_ns,test1,test2,position1,trialtype,position2,comptype,blocks.thisRepN,blocks.thisTrialN,blocks.thisN,blocks.thisIndex,learning_trials.thisRepN,learning_trials.thisTrialN,learning_trials.thisN,learning_trials.thisIndex,trials.thisRepN,trials.thisTrialN,trials.thisN,trials.thisIndex,textStart.started,spaceStart.started,spaceStart.keys,spaceStart.rt,textStartExp.started,textExpImages.started,ImageLearning1.started,ImageLearning2.started,textSpace.started,spaceStartExp.started,spaceStartExp.keys,spaceStartExp.rt,blankScreen.started,blankScreen.stopped,fixcross.started,firstImage.started,fixcrossImage1.started,fixcrossITI.started,secondImage.started,fixcrossImage2.started,key.started,key.keys,key.rt,correctness,feedbackText.started,fixcrossEnd.started,fixcrossEnd.stopped,fixcross.stopped,feedbackText.stopped,textStartTask.started,textTaskImages.started,ImageTask1.started,ImageTask2.started,ImageTask3.started,ImageTask4.started,textTaskSpace.started,spaceStartTask.started,spaceStartTask.keys,spaceStartTask.rt,participant,group,date,expName,psychopyVersion,frameRate,
,,,,,,,,,,,,,,,,,,,,,,,,,9.58784699998796,9.58784699998796,space,3.3430958000244573,,,,,,,,,,,,,,,,,,,,,,,,,,,,,,,,,,,,20,B,2023-12-11_18h34.26.533,gca_discrimination,2022.2.4,144.00963138383713,
positions.xlsx,stimuli.xlsx,test.xlsx,stimuli/Social2.png,stimuli/Social1.png,stimuli/Nonsocial1.png,stimuli/Nonsocial2.png,stimuli/Test1.png,stimuli/Test2.png,"(-0.7, 0.5)",test2,"(0.7, 0.5)",test1,0,0,0,0,0,0,0,3,,,,,,,,,12.948922000010498,12.948922000010498,12.948922000010498,12.948922000010498,12.948922000010498,12.948922000010498,space,33.03692460001912,45.99619159998838,47.725291300041135,47.725291300041135,48.73917240003357,48.73917240003357,48.87106130004395,49.38497469999129,49.38497469999129,49.52388420002535,l,1.8940000000293367,correct,51.43346150004072,53.43337869999232,54.39869880001061,,,,,,,,,,,,,20,B,2023-12-11_18h34.26.533,gca_discrimination,2022.2.4,144.00963138383713,
positions.xlsx,stimuli.xlsx,test.xlsx,stimuli/Social2.png,stimuli/Social1.png,stimuli/Nonsocial1.png,stimuli/Nonsocial2.png,stimuli/Test1.png,stimuli/Test2.png,"(-0.7, 0.5)",test2,"(0.7, -0.5)",test1,0,0,0,0,0,1,1,12,,,,,,,,,,,,,,,,,,,54.39869880001061,55.39860529999714,55.39860529999714,55.55138160003116,56.0513370000408,56.0513370000408,56.204111900005955,l,0.878303200006485,correct,57.09301830001641,59.09289580001496,59.71788930002367,55.39860529999714,59.09289580001496,,,,,,,,,,,20,B,2023-12-11_18h34.26.533,gca_discrimination,2022.2.4,144.00963138383713,
positions.xlsx,stimuli.xlsx,test.xlsx,stimuli/Social2.png,stimuli/Social1.png,stimuli/Nonsocial1.png,stimuli/Nonsocial2.png,stimuli/Test1.png,stimuli/Test2.png,"(0.7, -0.5)",test2,"(-0.7, 0.5)",test1,0,0,0,0,0,2,2,4,,,,,,,,,,,,,,,,,,,59.71788930002367,60.71784070000285,60.71784070000285,60.870657599996775,61.37061520002317,61.37061520002317,61.523365700035356,l,0.46319039998343214,correct,61.995583900017664,63.99549290002324,64.09269930003211,60.71784070000285,63.99549290002324,,,,,,,,,,,20,B,2023-12-11_18h34.26.533,gca_discrimination,2022.2.4,144.00963138383713,
positions.xlsx,stimuli.xlsx,test.xlsx,stimuli/Social2.png,stimuli/Social1.png,stimuli/Nonsocial1.png,stimuli/Nonsocial2.png,stimuli/Test1.png,stimuli/Test2.png,"(0.7, 0.5)",test2,"(0.7, -0.5)",test1,0,0,0,0,0,3,3,6,,,,,,,,,,,,,,,,,,,64.09269930003211,65.09268210001756,65.09268210001756,65.24546750000445,65.7454322000267,65.7454322000267,65.89820140000666,l,0.5366804000223055,correct,66.44681049999781,68.44669710000744,68.91890650003916,65.09268210001756,68.44669710000744,,,,,,,,,,,20,B,2023-12-11_18h34.26.533,gca_discrimination,2022.2.4,144.00963138383713,
positions.xlsx,stimuli.xlsx,test.xlsx,stimuli/Social2.png,stimuli/Social1.png,stimuli/Nonsocial1.png,stimuli/Nonsocial2.png,stimuli/Test1.png,stimuli/Test2.png,"(0.7, 0.5)",test1,"(0.7, -0.5)",test2,0,0,0,0,0,4,4,11,,,,,,,,,,,,,,,,,,,68.91890650003916,69.9188805000158,69.9188805000158,70.07166810001945,70.57163449999643,70.57163449999643,70.72437840001658,l,0.3654038999811746,correct,71.09939470002428,73.09928880003281,73.66869530000258,69.9188805000158,73.09928880003281,,,,,,,,,,,20,B,2023-12-11_18h34.26.533,gca_discrimination,2022.2.4,144.00963138383713,
positions.xlsx,stimuli.xlsx,test.xlsx,stimuli/Social2.png,stimuli/Social1.png,stimuli/Nonsocial1.png,stimuli/Nonsocial2.png,stimuli/Test1.png,stimuli/Test2.png,"(-0.7, 0.5)",test1,"(0.7, -0.5)",test1,0,0,0,0,0,5,5,5,,,,,,,,,,,,,,,,,,,73.66869530000258,74.66867660003481,74.66867660003481,74.82144450000487,75.32144440000411,75.32144440000411,75.47420490003424,ä,0.432210800005123,correct,75.91864109999733,77.9185747000156,78.02272090001497,74.66867660003481,77.9185747000156,,,,,,,,,,,20,B,2023-12-11_18h34.26.533,gca_discrimination,2022.2.4,144.00963138383713,
positions.xlsx,stimuli.xlsx,test.xlsx,stimuli/Social2.png,stimuli/Social1.png,stimuli/Nonsocial1.png,stimuli/Nonsocial2.png,stimuli/Test1.png,stimuli/Test2.png,"(-0.7, -0.5)",test1,"(0.7, 0.5)",test2,0,0,0,0,0,6,6,8,,,,,,,,,,,,,,,,,,,78.02272090001497,79.02270380000118,79.02270380000118,79.17544980003731,79.67548080004053,79.67548080004053,79.82820350001566,l,0.39820310001960024,correct,80.23791339999298,82.23791560000973,83.0849991000141,79.02270380000118,82.23791560000973,,,,,,,,,,,20,B,2023-12-11_18h34.26.533,gca_discrimination,2022.2.4,144.00963138383713,
positions.xlsx,stimuli.xlsx,test.xlsx,stimuli/Social2.png,stimuli/Social1.png,stimuli/Nonsocial1.png,stimuli/Nonsocial2.png,stimuli/Test1.png,stimuli/Test2.png,"(-0.7, 0.5)",test2,"(-0.7, -0.5)",test2,0,0,0,0,0,7,7,1,,,,,,,,,,,,,,,,,,,83.0849991000141,84.085006600013,84.085006600013,84.2377933000098,84.73774040001445,84.73774040001445,84.89050949999364,ä,0.8241415000520647,correct,85.72380490001524,87.72372690000338,88.19598900002893,84.085006600013,87.72372690000338,,,,,,,,,,,20,B,2023-12-11_18h34.26.533,gca_discrimination,2022.2.4,144.00963138383713,
positions.xlsx,stimuli.xlsx,test.xlsx,stimuli/Social2.png,stimuli/Social1.png,stimuli/Nonsocial1.png,stimuli/Nonsocial2.png,stimuli/Test1.png,stimuli/Test2.png,"(-0.7, -0.5)",test2,"(-0.7, 0.5)",test2,0,0,0,0,0,8,8,2,,,,,,,,,,,,,,,,,,,88.19598900002893,89.19589090003865,89.19589090003865,89.3486952999956,89.84865530004026,89.84865530004026,90.0014269000385,ä,0.8012605999829248,correct,90.81389950000448,92.81382070004474,92.92490510002244,89.19589090003865,92.81382070004474,,,,,,,,,,,20,B,2023-12-11_18h34.26.533,gca_discrimination,2022.2.4,144.00963138383713,
positions.xlsx,stimuli.xlsx,test.xlsx,stimuli/Social2.png,stimuli/Social1.png,stimuli/Nonsocial1.png,stimuli/Nonsocial2.png,stimuli/Test1.png,stimuli/Test2.png,"(0.7, -0.5)",test1,"(0.7, 0.5)",test1,0,0,0,0,0,9,9,10,,,,,,,,,,,,,,,,,,,92.92490510002244,93.93180270004086,93.93180270004086,94.07765320001636,94.58461630000966,94.58461630000966,94.73038480000105,ä,0.5041695000254549,correct,95.24425730004441,97.2441691000131,97.59141150000505,93.93180270004086,97.2441691000131,,,,,,,,,,,20,B,2023-12-11_18h34.26.533,gca_discrimination,2022.2.4,144.00963138383713,
positions.xlsx,stimuli.xlsx,test.xlsx,stimuli/Social2.png,stimuli/Social1.png,stimuli/Nonsocial1.png,stimuli/Nonsocial2.png,stimuli/Test1.png,stimuli/Test2.png,"(0.7, 0.5)",test2,"(-0.7, 0.5)",test1,0,0,0,0,0,10,10,13,,,,,,,,,,,,,,,,,,,97.59141150000505,98.5913625000394,98.5913625000394,98.74414660001639,99.24412829999346,99.24412829999346,99.39690049999626,l,0.8138547000125982,correct,100.22324910003226,102.22317790001398,103.02872050000587,98.5913625000394,102.22317790001398,,,,,,,,,,,20,B,2023-12-11_18h34.26.533,gca_discrimination,2022.2.4,144.00963138383713,
positions.xlsx,stimuli.xlsx,test.xlsx,stimuli/Social2.png,stimuli/Social1.png,stimuli/Nonsocial1.png,stimuli/Nonsocial2.png,stimuli/Test1.png,stimuli/Test2.png,"(-0.7, -0.5)",test2,"(0.7, -0.5)",test2,0,0,0,0,0,11,11,9,,,,,,,,,,,,,,,,,,,103.02872050000587,104.02864550001686,104.02864550001686,104.18142600002466,104.68142969999462,104.68142969999462,104.8341805000091,ä,0.6322888000286184,correct,105.47996160003822,107.47990800003754,107.59794430003967,104.02864550001686,107.47990800003754,,,,,,,,,,,20,B,2023-12-11_18h34.26.533,gca_discrimination,2022.2.4,144.00963138383713,
positions.xlsx,stimuli.xlsx,test.xlsx,stimuli/Social2.png,stimuli/Social1.png,stimuli/Nonsocial1.png,stimuli/Nonsocial2.png,stimuli/Test1.png,stimuli/Test2.png,"(0.7, -0.5)",test1,"(0.7, 0.5)",test2,0,0,0,0,0,12,12,0,,,,,,,,,,,,,,,,,,,107.59794430003967,108.59792750002816,108.59792750002816,108.75066300004255,109.25066280004103,109.25066280004103,109.40349840000272,l,1.286816900013946,correct,110.70201090001501,112.70192700001644,112.74363199999789,108.59792750002816,112.70192700001644,,,,,,,,,,,20,B,2023-12-11_18h34.26.533,gca_discrimination,2022.2.4,144.00963138383713,
positions.xlsx,stimuli.xlsx,test.xlsx,stimuli/Social2.png,stimuli/Social1.png,stimuli/Nonsocial1.png,stimuli/Nonsocial2.png,stimuli/Test1.png,stimuli/Test2.png,"(-0.7, -0.5)",test2,"(0.7, 0.5)",test2,0,0,0,0,0,13,13,7,,,,,,,,,,,,,,,,,,,112.74363199999789,113.74357930000406,113.74357930000406,113.8963219000143,114.39633260003757,114.39633260003757,114.54908379999688,ä,0.654094299999997,correct,115.21570290002273,117.21565830003237,117.91699850000441,113.74357930000406,117.21565830003237,,,,,,,,,,,20,B,2023-12-11_18h34.26.533,gca_discrimination,2022.2.4,144.00963138383713,
positions.xlsx,stimuli.xlsx,test.xlsx,stimuli/Social2.png,stimuli/Social1.png,stimuli/Nonsocial1.png,stimuli/Nonsocial2.png,stimuli/Test1.png,stimuli/Test2.png,"(-0.7, 0.5)",cs_minus_s,"(-0.7, -0.5)",cs_minus_s,0,0,0,0,,,,,0,0,0,60,,,,,,,,,,,,,125.86810320004588,126.90970910002943,126.90970910002943,127.90966920001665,127.90966920001665,128.04853520001052,128.55549130000873,128.55549130000873,128.70131279999623,ä,0.7497870000079274,correct,,129.4582576000248,129.74989330000244,,,117.91699850000441,117.91699850000441,117.91699850000441,117.91699850000441,117.91699850000441,117.91699850000441,117.91699850000441,117.91699850000441,space,7.94200290000299,20,B,2023-12-11_18h34.26.533,gca_discrimination,2022.2.4,144.00963138383713,
positions.xlsx,stimuli.xlsx,test.xlsx,stimuli/Social2.png,stimuli/Social1.png,stimuli/Nonsocial1.png,stimuli/Nonsocial2.png,stimuli/Test1.png,stimuli/Test2.png,"(0.7, -0.5)",cs_minus_ns,"(-0.7, -0.5)",cs_plus_ns,0,0,0,0,,,,,0,1,1,46,,,,,,,,,,,,,,,129.74989330000244,130.75676580000436,130.75676580000436,130.90260670002317,131.40956450003432,131.40956450003432,131.55535159999272,l,0.7117885000188835,correct,,132.27753890003078,132.95810019999044,130.75676580000436,,,,,,,,,,,,20,B,2023-12-11_18h34.26.533,gca_discrimination,2022.2.4,144.00963138383713,
positions.xlsx,stimuli.xlsx,test.xlsx,stimuli/Social2.png,stimuli/Social1.png,stimuli/Nonsocial1.png,stimuli/Nonsocial2.png,stimuli/Test1.png,stimuli/Test2.png,"(-0.7, -0.5)",cs_plus_ns,"(0.7, -0.5)",cs_plus_ns,0,0,0,0,,,,,0,2,2,77,,,,,,,,,,,,,,,132.95810019999044,133.96499890001724,133.96499890001724,134.11079220002284,134.61777539999457,134.61777539999457,134.76358190004248,ä,0.758314699982293,correct,,135.53435329999775,136.2774042999954,133.96499890001724,,,,,,,,,,,,20,B,2023-12-11_18h34.26.533,gca_discrimination,2022.2.4,144.00963138383713,
positions.xlsx,stimuli.xlsx,test.xlsx,stimuli/Social2.png,stimuli/Social1.png,stimuli/Nonsocial1.png,stimuli/Nonsocial2.png,stimuli/Test1.png,stimuli/Test2.png,"(0.7, -0.5)",cs_plus_ns,"(-0.7, 0.5)",cs_plus_ns,0,0,0,0,,,,,0,3,3,81,,,,,,,,,,,,,,,136.2774042999954,137.28431170003023,137.28431170003023,137.43012199999066,137.9371034000069,137.9371034000069,138.0828787999926,ä,0.4715540999895893,correct,,138.56203460000688,138.60371520003537,137.28431170003023,,,,,,,,,,,,20,B,2023-12-11_18h34.26.533,gca_discrimination,2022.2.4,144.00963138383713,
positions.xlsx,stimuli.xlsx,test.xlsx,stimuli/Social2.png,stimuli/Social1.png,stimuli/Nonsocial1.png,stimuli/Nonsocial2.png,stimuli/Test1.png,stimuli/Test2.png,"(-0.7, 0.5)",cs_plus_ns,"(-0.7, -0.5)",cs_minus_ns,0,0,0,0,,,,,0,4,4,24,,,,,,,,,,,,,,,138.60371520003537,139.61060970003018,139.61060970003018,139.756440200028,140.26333570003044,140.26333570003044,140.4092137000407,l,0.8181250999914482,correct,,141.23553559998982,141.71473750000587,139.61060970003018,,,,,,,,,,,,20,B,2023-12-11_18h34.26.533,gca_discrimination,2022.2.4,144.00963138383713,
positions.xlsx,stimuli.xlsx,test.xlsx,stimuli/Social2.png,stimuli/Social1.png,stimuli/Nonsocial1.png,stimuli/Nonsocial2.png,stimuli/Test1.png,stimuli/Test2.png,"(0.7, 0.5)",cs_plus_s,"(-0.7, 0.5)",cs_plus_s,0,0,0,0,,,,,0,5,5,54,,,,,,,,,,,,,,,141.71473750000587,142.72161830001278,142.72161830001278,142.86743079998996,143.37434060004307,143.37434060004307,143.5202205000096,ä,1.2580333999940194,correct,,144.79096850001952,145.332602999988,142.72161830001278,,,,,,,,,,,,20,B,2023-12-11_18h34.26.533,gca_discrimination,2022.2.4,144.00963138383713,
positions.xlsx,stimuli.xlsx,test.xlsx,stimuli/Social2.png,stimuli/Social1.png,stimuli/Nonsocial1.png,stimuli/Nonsocial2.png,stimuli/Test1.png,stimuli/Test2.png,"(0.7, 0.5)",cs_plus_s,"(-0.7, -0.5)",cs_minus_s,0,0,0,0,,,,,0,6,6,7,,,,,,,,,,,,,,,145.332602999988,146.33950900001219,146.33950900001219,146.48535329999868,146.99224819999654,146.99224819999654,147.13809560000664,l,0.8806831000256352,correct,,148.02692690002732,148.90191900002537,146.33950900001219,,,,,,,,,,,,20,B,2023-12-11_18h34.26.533,gca_discrimination,2022.2.4,144.00963138383713,
positions.xlsx,stimuli.xlsx,test.xlsx,stimuli/Social2.png,stimuli/Social1.png,stimuli/Nonsocial1.png,stimuli/Nonsocial2.png,stimuli/Test1.png,stimuli/Test2.png,"(-0.7, -0.5)",cs_minus_s,"(0.7, 0.5)",cs_plus_s,0,0,0,0,,,,,0,7,7,16,,,,,,,,,,,,,,,148.90191900002537,149.90885290002916,149.90885290002916,150.05464540002868,150.56158939999295,150.56158939999295,150.70739980001235,l,0.72679829999106,correct,,151.44346969999606,151.56849999999395,149.90885290002916,,,,,,,,,,,,20,B,2023-12-11_18h34.26.533,gca_discrimination,2022.2.4,144.00963138383713,
positions.xlsx,stimuli.xlsx,test.xlsx,stimuli/Social2.png,stimuli/Social1.png,stimuli/Nonsocial1.png,stimuli/Nonsocial2.png,stimuli/Test1.png,stimuli/Test2.png,"(0.7, -0.5)",cs_minus_s,"(-0.7, 0.5)",cs_minus_s,0,0,0,0,,,,,0,8,8,69,,,,,,,,,,,,,,,151.56849999999395,152.57540610001888,152.57540610001888,152.7212157000322,153.22814290004317,153.22814290004317,153.37394900002982,ä,0.5240688999765553,correct,,153.90865530003794,154.39478219999,152.57540610001888,,,,,,,,,,,,20,B,2023-12-11_18h34.26.533,gca_discrimination,2022.2.4,144.00963138383713,
positions.xlsx,stimuli.xlsx,test.xlsx,stimuli/Social2.png,stimuli/Social1.png,stimuli/Nonsocial1.png,stimuli/Nonsocial2.png,stimuli/Test1.png,stimuli/Test2.png,"(-0.7, -0.5)",cs_plus_s,"(-0.7, 0.5)",cs_minus_s,0,0,0,0,,,,,0,9,9,3,,,,,,,,,,,,,,,154.39478219999,155.40169520000927,155.40169520000927,155.5474610000383,156.054441699991,156.054441699991,156.20024239999475,ä,0.4979480000329204,wrong,,156.70717220002552,157.3182647000067,155.40169520000927,,,,,,,,,,,,20,B,2023-12-11_18h34.26.533,gca_discrimination,2022.2.4,144.00963138383713,
positions.xlsx,stimuli.xlsx,test.xlsx,stimuli/Social2.png,stimuli/Social1.png,stimuli/Nonsocial1.png,stimuli/Nonsocial2.png,stimuli/Test1.png,stimuli/Test2.png,"(0.7, 0.5)",cs_plus_s,"(0.7, -0.5)",cs_minus_s,0,0,0,0,,,,,0,10,10,8,,,,,,,,,,,,,,,157.3182647000067,158.32518760004314,158.32518760004314,158.47099460003665,158.97798640001565,158.97798640001565,159.12372209999012,ä,0.6471062999917194,wrong,,159.78341440000804,160.6931798000005,158.32518760004314,,,,,,,,,,,,20,B,2023-12-11_18h34.26.533,gca_discrimination,2022.2.4,144.00963138383713,
positions.xlsx,stimuli.xlsx,test.xlsx,stimuli/Social2.png,stimuli/Social1.png,stimuli/Nonsocial1.png,stimuli/Nonsocial2.png,stimuli/Test1.png,stimuli/Test2.png,"(0.7, 0.5)",cs_minus_ns,"(0.7, -0.5)",cs_plus_ns,0,0,0,0,,,,,0,11,11,44,,,,,,,,,,,,,,,160.6931798000005,161.7000515999971,161.7000515999971,161.84585899999365,162.35279370000353,162.35279370000353,162.49857840000186,l,0.48734930000500754,correct,,162.9986101000104,163.05412129999604,161.7000515999971,,,,,,,,,,,,20,B,2023-12-11_18h34.26.533,gca_discrimination,2022.2.4,144.00963138383713,
positions.xlsx,stimuli.xlsx,test.xlsx,stimuli/Social2.png,stimuli/Social1.png,stimuli/Nonsocial1.png,stimuli/Nonsocial2.png,stimuli/Test1.png,stimuli/Test2.png,"(0.7, -0.5)",cs_plus_s,"(0.7, 0.5)",cs_plus_s,0,0,0,0,,,,,0,12,12,59,,,,,,,,,,,,,,,163.05412129999604,164.0610791000072,164.0610791000072,164.20690089999698,164.71381849999307,164.71381849999307,164.85964320000494,l,0.5510797000024468,wrong,,165.4220978000085,165.87348060001386,164.0610791000072,,,,,,,,,,,,20,B,2023-12-11_18h34.26.533,gca_discrimination,2022.2.4,144.00963138383713,
positions.xlsx,stimuli.xlsx,test.xlsx,stimuli/Social2.png,stimuli/Social1.png,stimuli/Nonsocial1.png,stimuli/Nonsocial2.png,stimuli/Test1.png,stimuli/Test2.png,"(0.7, 0.5)",cs_minus_s,"(0.7, -0.5)",cs_minus_s,0,0,0,0,,,,,0,13,13,68,,,,,,,,,,,,,,,165.87348060001386,166.88039609999396,166.88039609999396,167.02621939999517,167.53314840001985,167.53314840001985,167.67900140001439,ä,0.6751550000044517,correct,,168.36644640000304,168.50530509999953,166.88039609999396,,,,,,,,,,,,20,B,2023-12-11_18h34.26.533,gca_discrimination,2022.2.4,144.00963138383713,
positions.xlsx,stimuli.xlsx,test.xlsx,stimuli/Social2.png,stimuli/Social1.png,stimuli/Nonsocial1.png,stimuli/Nonsocial2.png,stimuli/Test1.png,stimuli/Test2.png,"(0.7, 0.5)",cs_minus_ns,"(-0.7, 0.5)",cs_minus_ns,0,0,0,0,,,,,0,14,14,90,,,,,,,,,,,,,,,168.50530509999953,169.5122476000106,169.5122476000106,169.6580471000052,170.1650087000453,170.1650087000453,170.31081460003043,ä,0.6030456000007689,correct,,170.9219207999995,171.78994510002667,169.5122476000106,,,,,,,,,,,,20,B,2023-12-11_18h34.26.533,gca_discrimination,2022.2.4,144.00963138383713,
positions.xlsx,stimuli.xlsx,test.xlsx,stimuli/Social2.png,stimuli/Social1.png,stimuli/Nonsocial1.png,stimuli/Nonsocial2.png,stimuli/Test1.png,stimuli/Test2.png,"(0.7, 0.5)",cs_plus_ns,"(-0.7, 0.5)",cs_minus_ns,0,0,0,0,,,,,0,15,15,30,,,,,,,,,,,,,,,171.78994510002667,172.79685270000482,172.79685270000482,172.94266679999419,173.44958700001007,173.44958700001007,173.5954051000299,ä,1.2871011999668553,wrong,,174.89391790004447,175.13700380001683,172.79685270000482,,,,,,,,,,,,20,B,2023-12-11_18h34.26.533,gca_discrimination,2022.2.4,144.00963138383713,
positions.xlsx,stimuli.xlsx,test.xlsx,stimuli/Social2.png,stimuli/Social1.png,stimuli/Nonsocial1.png,stimuli/Nonsocial2.png,stimuli/Test1.png,stimuli/Test2.png,"(0.7, -0.5)",cs_minus_s,"(0.7, 0.5)",cs_minus_s,0,0,0,0,,,,,0,16,16,71,,,,,,,,,,,,,,,175.13700380001683,176.14393700001528,176.14393700001528,176.28972649999196,176.7966471000109,176.7966471000109,176.9425218999968,ä,0.3807132000220008,correct,,177.3313732999959,177.56053750001593,176.14393700001528,,,,,,,,,,,,20,B,2023-12-11_18h34.26.533,gca_discrimination,2022.2.4,144.00963138383713,
positions.xlsx,stimuli.xlsx,test.xlsx,stimuli/Social2.png,stimuli/Social1.png,stimuli/Nonsocial1.png,stimuli/Nonsocial2.png,stimuli/Test1.png,stimuli/Test2.png,"(-0.7, 0.5)",cs_plus_s,"(0.7, -0.5)",cs_plus_s,0,0,0,0,,,,,0,17,17,50,,,,,,,,,,,,,,,177.56053750001593,178.56748299999163,178.56748299999163,178.7132629000116,179.2201989000314,179.2201989000314,179.36602310003946,l,0.2762970000039786,wrong,,179.65071469999384,179.73407820001012,178.56748299999163,,,,,,,,,,,,20,B,2023-12-11_18h34.26.533,gca_discrimination,2022.2.4,144.00963138383713,
positions.xlsx,stimuli.xlsx,test.xlsx,stimuli/Social2.png,stimuli/Social1.png,stimuli/Nonsocial1.png,stimuli/Nonsocial2.png,stimuli/Test1.png,stimuli/Test2.png,"(-0.7, -0.5)",cs_minus_ns,"(0.7, 0.5)",cs_minus_ns,0,0,0,0,,,,,0,18,18,88,,,,,,,,,,,,,,,179.73407820001012,180.74094360001618,180.74094360001618,180.8868080000393,181.39371690002736,181.39371690002736,181.53957439999795,ä,0.4870997000252828,correct,,182.0395034000394,182.34509940003045,180.74094360001618,,,,,,,,,,,,20,B,2023-12-11_18h34.26.533,gca_discrimination,2022.2.4,144.00963138383713,
positions.xlsx,stimuli.xlsx,test.xlsx,stimuli/Social2.png,stimuli/Social1.png,stimuli/Nonsocial1.png,stimuli/Nonsocial2.png,stimuli/Test1.png,stimuli/Test2.png,"(-0.7, -0.5)",cs_plus_ns,"(-0.7, 0.5)",cs_minus_ns,0,0,0,0,,,,,0,19,19,27,,,,,,,,,,,,,,,182.34509940003045,183.35200549999718,183.35200549999718,183.49780310003553,184.00473630003398,184.00473630003398,184.15054410003358,l,0.8048661999637261,correct,,184.96301010000752,185.31719490000978,183.35200549999718,,,,,,,,,,,,20,B,2023-12-11_18h34.26.533,gca_discrimination,2022.2.4,144.00963138383713,
positions.xlsx,stimuli.xlsx,test.xlsx,stimuli/Social2.png,stimuli/Social1.png,stimuli/Nonsocial1.png,stimuli/Nonsocial2.png,stimuli/Test1.png,stimuli/Test2.png,"(-0.7, 0.5)",cs_plus_ns,"(0.7, -0.5)",cs_minus_ns,0,0,0,0,,,,,0,20,20,26,,,,,,,,,,,,,,,185.31719490000978,186.3240880999947,186.3240880999947,186.46992810000665,186.9768597999937,186.9768597999937,187.1226728000329,l,0.7120136999874376,correct,,187.84484430000884,188.42121510003926,186.3240880999947,,,,,,,,,,,,20,B,2023-12-11_18h34.26.533,gca_discrimination,2022.2.4,144.00963138383713,
positions.xlsx,stimuli.xlsx,test.xlsx,stimuli/Social2.png,stimuli/Social1.png,stimuli/Nonsocial1.png,stimuli/Nonsocial2.png,stimuli/Test1.png,stimuli/Test2.png,"(0.7, 0.5)",cs_plus_ns,"(-0.7, -0.5)",cs_plus_ns,0,0,0,0,,,,,0,21,21,79,,,,,,,,,,,,,,,188.42121510003926,189.42816920002224,189.42816920002224,189.57397200004198,190.080870100006,190.080870100006,190.22672969999257,l,0.8313694999669679,wrong,,191.06696760002524,191.98358310002368,189.42816920002224,,,,,,,,,,,,20,B,2023-12-11_18h34.26.533,gca_discrimination,2022.2.4,144.00963138383713,
positions.xlsx,stimuli.xlsx,test.xlsx,stimuli/Social2.png,stimuli/Social1.png,stimuli/Nonsocial1.png,stimuli/Nonsocial2.png,stimuli/Test1.png,stimuli/Test2.png,"(0.7, 0.5)",cs_minus_ns,"(-0.7, -0.5)",cs_plus_ns,0,0,0,0,,,,,0,22,22,43,,,,,,,,,,,,,,,191.98358310002368,192.99050820001867,192.99050820001867,193.13630650000414,193.64326849998906,193.64326849998906,193.7890788000077,l,0.7176250999909826,correct,,194.51821499998914,194.90708870004164,192.99050820001867,,,,,,,,,,,,20,B,2023-12-11_18h34.26.533,gca_discrimination,2022.2.4,144.00963138383713,
positions.xlsx,stimuli.xlsx,test.xlsx,stimuli/Social2.png,stimuli/Social1.png,stimuli/Nonsocial1.png,stimuli/Nonsocial2.png,stimuli/Test1.png,stimuli/Test2.png,"(-0.7, -0.5)",cs_plus_s,"(0.7, -0.5)",cs_plus_s,0,0,0,0,,,,,0,23,23,53,,,,,,,,,,,,,,,194.90708870004164,195.9140011999989,195.9140011999989,196.05979460000526,196.56674300000304,196.56674300000304,196.71257640002295,ä,0.4182320999680087,correct,,197.14312590000918,198.01113880000776,195.9140011999989,,,,,,,,,,,,20,B,2023-12-11_18h34.26.533,gca_discrimination,2022.2.4,144.00963138383713,
positions.xlsx,stimuli.xlsx,test.xlsx,stimuli/Social2.png,stimuli/Social1.png,stimuli/Nonsocial1.png,stimuli/Nonsocial2.png,stimuli/Test1.png,stimuli/Test2.png,"(0.7, -0.5)",cs_minus_ns,"(-0.7, -0.5)",cs_minus_ns,0,0,0,0,,,,,0,24,24,94,,,,,,,,,,,,,,,198.01113880000776,199.01805180002702,199.01805180002702,199.16386470000725,199.67079370003194,199.67079370003194,199.81660330004524,ä,0.6018371000536717,correct,,200.4276821000385,200.8234977000393,199.01805180002702,,,,,,,,,,,,20,B,2023-12-11_18h34.26.533,gca_discrimination,2022.2.4,144.00963138383713,
positions.xlsx,stimuli.xlsx,test.xlsx,stimuli/Social2.png,stimuli/Social1.png,stimuli/Nonsocial1.png,stimuli/Nonsocial2.png,stimuli/Test1.png,stimuli/Test2.png,"(-0.7, 0.5)",cs_minus_ns,"(0.7, 0.5)",cs_minus_ns,0,0,0,0,,,,,0,25,25,85,,,,,,,,,,,,,,,200.8234977000393,201.83043319999706,201.83043319999706,201.9762748000212,202.48318969999673,202.48318969999673,202.62903040001402,ä,0.30940969998482615,correct,,202.9484211000381,203.02482880000025,201.83043319999706,,,,,,,,,,,,20,B,2023-12-11_18h34.26.533,gca_discrimination,2022.2.4,144.00963138383713,
positions.xlsx,stimuli.xlsx,test.xlsx,stimuli/Social2.png,stimuli/Social1.png,stimuli/Nonsocial1.png,stimuli/Nonsocial2.png,stimuli/Test1.png,stimuli/Test2.png,"(-0.7, -0.5)",cs_plus_ns,"(0.7, -0.5)",cs_minus_ns,0,0,0,0,,,,,0,26,26,29,,,,,,,,,,,,,,,203.02482880000025,204.03174639999634,204.03174639999634,204.1775517000351,204.68449020001572,204.68449020001572,204.83031889999984,l,0.5319468000088818,correct,,205.37194490002003,205.63583590002963,204.03174639999634,,,,,,,,,,,,20,B,2023-12-11_18h34.26.533,gca_discrimination,2022.2.4,144.00963138383713,
positions.xlsx,stimuli.xlsx,test.xlsx,stimuli/Social2.png,stimuli/Social1.png,stimuli/Nonsocial1.png,stimuli/Nonsocial2.png,stimuli/Test1.png,stimuli/Test2.png,"(0.7, -0.5)",cs_plus_s,"(-0.7, -0.5)",cs_plus_s,0,0,0,0,,,,,0,27,27,58,,,,,,,,,,,,,,,205.63583590002963,206.64274700003443,206.64274700003443,206.78857330000028,207.29549749998841,207.29549749998841,207.44132570002694,ä,0.4974876000196673,correct,,207.9482633000007,208.4551987000159,206.64274700003443,,,,,,,,,,,,20,B,2023-12-11_18h34.26.533,gca_discrimination,2022.2.4,144.00963138383713,
positions.xlsx,stimuli.xlsx,test.xlsx,stimuli/Social2.png,stimuli/Social1.png,stimuli/Nonsocial1.png,stimuli/Nonsocial2.png,stimuli/Test1.png,stimuli/Test2.png,"(-0.7, 0.5)",cs_plus_s,"(-0.7, -0.5)",cs_minus_s,0,0,0,0,,,,,0,28,28,0,,,,,,,,,,,,,,,208.4551987000159,209.4620847000042,209.4620847000042,209.60789600003045,210.11483710003085,210.11483710003085,210.26065880001988,l,1.30121569999028,correct,,211.5731197000132,211.78841340000508,209.4620847000042,,,,,,,,,,,,20,B,2023-12-11_18h34.26.533,gca_discrimination,2022.2.4,144.00963138383713,
positions.xlsx,stimuli.xlsx,test.xlsx,stimuli/Social2.png,stimuli/Social1.png,stimuli/Nonsocial1.png,stimuli/Nonsocial2.png,stimuli/Test1.png,stimuli/Test2.png,"(-0.7, 0.5)",cs_minus_s,"(0.7, -0.5)",cs_plus_s,0,0,0,0,,,,,0,29,29,14,,,,,,,,,,,,,,,211.78841340000508,212.79526370001258,212.79526370001258,212.9411226999946,213.44805130001623,213.44805130001623,213.59386790002463,l,0.8018865999765694,correct,,214.4063485999941,214.42716590000782,212.79526370001258,,,,,,,,,,,,20,B,2023-12-11_18h34.26.533,gca_discrimination,2022.2.4,144.00963138383713,
positions.xlsx,stimuli.xlsx,test.xlsx,stimuli/Social2.png,stimuli/Social1.png,stimuli/Nonsocial1.png,stimuli/Nonsocial2.png,stimuli/Test1.png,stimuli/Test2.png,"(-0.7, 0.5)",cs_minus_s,"(0.7, 0.5)",cs_minus_s,0,0,0,0,,,,,0,30,30,61,,,,,,,,,,,,,,,214.42716590000782,215.43405989999883,215.43405989999883,215.57992250000825,216.08682790002786,216.08682790002786,216.23267250001663,ä,0.601867499994114,correct,,216.84377969999332,217.4478545000311,215.43405989999883,,,,,,,,,,,,20,B,2023-12-11_18h34.26.533,gca_discrimination,2022.2.4,144.00963138383713,
positions.xlsx,stimuli.xlsx,test.xlsx,stimuli/Social2.png,stimuli/Social1.png,stimuli/Nonsocial1.png,stimuli/Nonsocial2.png,stimuli/Test1.png,stimuli/Test2.png,"(-0.7, -0.5)",cs_plus_s,"(0.7, 0.5)",cs_plus_s,0,0,0,0,,,,,0,31,31,52,,,,,,,,,,,,,,,217.4478545000311,218.4547842000029,218.4547842000029,218.60069410002325,219.10755110002356,219.10755110002356,219.25337839999702,ä,1.156611900019925,correct,,220.41998780000722,221.07274540001526,218.4547842000029,,,,,,,,,,,,20,B,2023-12-11_18h34.26.533,gca_discrimination,2022.2.4,144.00963138383713,
positions.xlsx,stimuli.xlsx,test.xlsx,stimuli/Social2.png,stimuli/Social1.png,stimuli/Nonsocial1.png,stimuli/Nonsocial2.png,stimuli/Test1.png,stimuli/Test2.png,"(0.7, -0.5)",cs_plus_ns,"(0.7, 0.5)",cs_minus_ns,0,0,0,0,,,,,0,32,32,35,,,,,,,,,,,,,,,221.07274540001526,222.07969899999443,222.07969899999443,222.22544420004124,222.73241810000036,222.73241810000036,222.87822000001324,l,0.605558099981863,correct,,223.49623950000387,223.78793310001493,222.07969899999443,,,,,,,,,,,,20,B,2023-12-11_18h34.26.533,gca_discrimination,2022.2.4,144.00963138383713,
positions.xlsx,stimuli.xlsx,test.xlsx,stimuli/Social2.png,stimuli/Social1.png,stimuli/Nonsocial1.png,stimuli/Nonsocial2.png,stimuli/Test1.png,stimuli/Test2.png,"(0.7, -0.5)",cs_plus_s,"(0.7, 0.5)",cs_minus_s,0,0,0,0,,,,,0,33,33,11,,,,,,,,,,,,,,,223.78793310001493,224.7948197000078,224.7948197000078,224.94064109999454,225.44756090000737,225.44756090000737,225.59340010001324,ä,0.7366508999839425,wrong,,226.3433560000267,227.18363600003067,224.7948197000078,,,,,,,,,,,,20,B,2023-12-11_18h34.26.533,gca_discrimination,2022.2.4,144.00963138383713,
positions.xlsx,stimuli.xlsx,test.xlsx,stimuli/Social2.png,stimuli/Social1.png,stimuli/Nonsocial1.png,stimuli/Nonsocial2.png,stimuli/Test1.png,stimuli/Test2.png,"(0.7, 0.5)",cs_minus_s,"(0.7, -0.5)",cs_plus_s,0,0,0,0,,,,,0,34,34,20,,,,,,,,,,,,,,,227.18363600003067,228.1905059000128,228.1905059000128,228.33634670003084,228.84329039999284,228.84329039999284,228.98906789999455,l,0.7022044999757782,correct,,229.7043964000186,229.72517360001802,228.1905059000128,,,,,,,,,,,,20,B,2023-12-11_18h34.26.533,gca_discrimination,2022.2.4,144.00963138383713,
positions.xlsx,stimuli.xlsx,test.xlsx,stimuli/Social2.png,stimuli/Social1.png,stimuli/Nonsocial1.png,stimuli/Nonsocial2.png,stimuli/Test1.png,stimuli/Test2.png,"(-0.7, 0.5)",cs_plus_ns,"(0.7, 0.5)",cs_plus_ns,0,0,0,0,,,,,0,35,35,73,,,,,,,,,,,,,,,229.72517360001802,230.7320762000163,230.7320762000163,230.87799030001042,231.38484070001869,231.38484070001869,231.53067080001347,ä,0.7676915000192821,correct,,232.30844520003302,232.57924420002382,230.7320762000163,,,,,,,,,,,,20,B,2023-12-11_18h34.26.533,gca_discrimination,2022.2.4,144.00963138383713,
positions.xlsx,stimuli.xlsx,test.xlsx,stimuli/Social2.png,stimuli/Social1.png,stimuli/Nonsocial1.png,stimuli/Nonsocial2.png,stimuli/Test1.png,stimuli/Test2.png,"(-0.7, 0.5)",cs_plus_s,"(0.7, 0.5)",cs_minus_s,0,0,0,0,,,,,0,36,36,1,,,,,,,,,,,,,,,232.57924420002382,233.5861559000332,233.5861559000332,233.73195909999777,234.23890060000122,234.23890060000122,234.38472410000395,l,0.6655912999995053,correct,,235.0582916000276,236.00964679999743,233.5861559000332,,,,,,,,,,,,20,B,2023-12-11_18h34.26.533,gca_discrimination,2022.2.4,144.00963138383713,
positions.xlsx,stimuli.xlsx,test.xlsx,stimuli/Social2.png,stimuli/Social1.png,stimuli/Nonsocial1.png,stimuli/Nonsocial2.png,stimuli/Test1.png,stimuli/Test2.png,"(0.7, 0.5)",cs_plus_ns,"(-0.7, 0.5)",cs_plus_ns,0,0,0,0,,,,,0,37,37,78,,,,,,,,,,,,,,,236.00964679999743,237.0165726999985,237.0165726999985,237.16239180002594,237.66928870003903,237.66928870003903,237.81513290002476,l,0.9629430000204593,wrong,,238.78733050002484,239.6206599000143,237.0165726999985,,,,,,,,,,,,20,B,2023-12-11_18h34.26.533,gca_discrimination,2022.2.4,144.00963138383713,
positions.xlsx,stimuli.xlsx,test.xlsx,stimuli/Social2.png,stimuli/Social1.png,stimuli/Nonsocial1.png,stimuli/Nonsocial2.png,stimuli/Test1.png,stimuli/Test2.png,"(0.7, 0.5)",cs_minus_s,"(-0.7, 0.5)",cs_minus_s,0,0,0,0,,,,,0,38,38,66,,,,,,,,,,,,,,,239.6206599000143,240.6275525999954,240.6275525999954,240.77335880004102,241.28028980002273,241.28028980002273,241.4261445000302,ä,0.5202057000133209,correct,,241.9538800000446,242.41911870002514,240.6275525999954,,,,,,,,,,,,20,B,2023-12-11_18h34.26.533,gca_discrimination,2022.2.4,144.00963138383713,
positions.xlsx,stimuli.xlsx,test.xlsx,stimuli/Social2.png,stimuli/Social1.png,stimuli/Nonsocial1.png,stimuli/Nonsocial2.png,stimuli/Test1.png,stimuli/Test2.png,"(-0.7, 0.5)",cs_plus_ns,"(-0.7, -0.5)",cs_plus_ns,0,0,0,0,,,,,0,39,39,72,,,,,,,,,,,,,,,242.41911870002514,243.42604859999847,243.42604859999847,243.57186269998783,244.07881440001074,244.07881440001074,244.22463780001272,l,1.2180143999867141,wrong,,245.45378020004136,246.08564890001435,243.42604859999847,,,,,,,,,,,,20,B,2023-12-11_18h34.26.533,gca_discrimination,2022.2.4,144.00963138383713,
positions.xlsx,stimuli.xlsx,test.xlsx,stimuli/Social2.png,stimuli/Social1.png,stimuli/Nonsocial1.png,stimuli/Nonsocial2.png,stimuli/Test1.png,stimuli/Test2.png,"(0.7, -0.5)",cs_minus_ns,"(0.7, 0.5)",cs_plus_ns,0,0,0,0,,,,,0,40,40,47,,,,,,,,,,,,,,,246.08564890001435,247.09255870000925,247.09255870000925,247.23839750001207,247.74533480004175,247.74533480004175,247.8911342000356,l,0.7510770999942906,correct,,248.65500820003217,248.94664760003798,247.09255870000925,,,,,,,,,,,,20,B,2023-12-11_18h34.26.533,gca_discrimination,2022.2.4,144.00963138383713,
positions.xlsx,stimuli.xlsx,test.xlsx,stimuli/Social2.png,stimuli/Social1.png,stimuli/Nonsocial1.png,stimuli/Nonsocial2.png,stimuli/Test1.png,stimuli/Test2.png,"(0.7, -0.5)",cs_plus_ns,"(-0.7, 0.5)",cs_minus_ns,0,0,0,0,,,,,0,41,41,33,,,,,,,,,,,,,,,248.94664760003798,249.95356600004015,249.95356600004015,250.09940639999695,250.60633300000336,250.60633300000336,250.75215010001557,l,0.6344485000008717,correct,,251.39793030003784,251.62713119998807,249.95356600004015,,,,,,,,,,,,20,B,2023-12-11_18h34.26.533,gca_discrimination,2022.2.4,144.00963138383713,
positions.xlsx,stimuli.xlsx,test.xlsx,stimuli/Social2.png,stimuli/Social1.png,stimuli/Nonsocial1.png,stimuli/Nonsocial2.png,stimuli/Test1.png,stimuli/Test2.png,"(-0.7, -0.5)",cs_plus_ns,"(0.7, 0.5)",cs_minus_ns,0,0,0,0,,,,,0,42,42,28,,,,,,,,,,,,,,,251.62713119998807,252.6340298000141,252.6340298000141,252.77987090003444,253.28683300002012,253.28683300002012,253.43259680003393,l,0.970517200010363,correct,,254.4117363000405,254.9255589999957,252.6340298000141,,,,,,,,,,,,20,B,2023-12-11_18h34.26.533,gca_discrimination,2022.2.4,144.00963138383713,
positions.xlsx,stimuli.xlsx,test.xlsx,stimuli/Social2.png,stimuli/Social1.png,stimuli/Nonsocial1.png,stimuli/Nonsocial2.png,stimuli/Test1.png,stimuli/Test2.png,"(-0.7, 0.5)",cs_plus_s,"(0.7, -0.5)",cs_minus_s,0,0,0,0,,,,,0,43,43,2,,,,,,,,,,,,,,,254.9255589999957,255.93253930000355,255.93253930000355,256.0783591000363,256.58524809998926,256.58524809998926,256.73110400000587,l,1.0396276999963447,correct,,257.7796718000318,258.32129029999487,255.93253930000355,,,,,,,,,,,,20,B,2023-12-11_18h34.26.533,gca_discrimination,2022.2.4,144.00963138383713,
positions.xlsx,stimuli.xlsx,test.xlsx,stimuli/Social2.png,stimuli/Social1.png,stimuli/Nonsocial1.png,stimuli/Nonsocial2.png,stimuli/Test1.png,stimuli/Test2.png,"(-0.7, -0.5)",cs_minus_ns,"(-0.7, 0.5)",cs_plus_ns,0,0,0,0,,,,,0,44,44,39,,,,,,,,,,,,,,,258.32129029999487,259.3282010999974,259.3282010999974,259.4740185000119,259.98101819999283,259.98101819999283,260.126801800041,l,0.8272238000063226,correct,,260.96702470001765,261.5503454999998,259.3282010999974,,,,,,,,,,,,20,B,2023-12-11_18h34.26.533,gca_discrimination,2022.2.4,144.00963138383713,
positions.xlsx,stimuli.xlsx,test.xlsx,stimuli/Social2.png,stimuli/Social1.png,stimuli/Nonsocial1.png,stimuli/Nonsocial2.png,stimuli/Test1.png,stimuli/Test2.png,"(0.7, 0.5)",cs_minus_s,"(-0.7, -0.5)",cs_minus_s,0,0,0,0,,,,,0,45,45,67,,,,,,,,,,,,,,,261.5503454999998,262.5572622999898,262.5572622999898,262.70305990002817,263.2100064000115,263.2100064000115,263.3558139000088,ä,0.5507293000118807,correct,,263.9182904000045,264.66131600004155,262.5572622999898,,,,,,,,,,,,20,B,2023-12-11_18h34.26.533,gca_discrimination,2022.2.4,144.00963138383713,
positions.xlsx,stimuli.xlsx,test.xlsx,stimuli/Social2.png,stimuli/Social1.png,stimuli/Nonsocial1.png,stimuli/Nonsocial2.png,stimuli/Test1.png,stimuli/Test2.png,"(0.7, -0.5)",cs_plus_s,"(-0.7, 0.5)",cs_plus_s,0,0,0,0,,,,,0,46,46,57,,,,,,,,,,,,,,,264.66131600004155,265.6682086000219,265.6682086000219,265.81402970000636,266.3209795000148,266.3209795000148,266.4668269000249,ä,1.0160144999972545,correct,,267.4945606000256,268.3417306999909,265.6682086000219,,,,,,,,,,,,20,B,2023-12-11_18h34.26.533,gca_discrimination,2022.2.4,144.00963138383713,
positions.xlsx,stimuli.xlsx,test.xlsx,stimuli/Social2.png,stimuli/Social1.png,stimuli/Nonsocial1.png,stimuli/Nonsocial2.png,stimuli/Test1.png,stimuli/Test2.png,"(-0.7, -0.5)",cs_plus_ns,"(-0.7, 0.5)",cs_plus_ns,0,0,0,0,,,,,0,47,47,75,,,,,,,,,,,,,,,268.3417306999909,269.348663300043,269.348663300043,269.49448620004114,270.0013978999923,270.0013978999923,270.1472248000209,ä,0.37542240001494065,correct,,270.5360889000003,270.7513525999966,269.348663300043,,,,,,,,,,,,20,B,2023-12-11_18h34.26.533,gca_discrimination,2022.2.4,144.00963138383713,
positions.xlsx,stimuli.xlsx,test.xlsx,stimuli/Social2.png,stimuli/Social1.png,stimuli/Nonsocial1.png,stimuli/Nonsocial2.png,stimuli/Test1.png,stimuli/Test2.png,"(0.7, 0.5)",cs_plus_s,"(-0.7, -0.5)",cs_plus_s,0,0,0,0,,,,,0,48,48,55,,,,,,,,,,,,,,,270.7513525999966,271.75829030002933,271.75829030002933,271.90412080002716,272.41099490004126,272.41099490004126,272.55681770003866,ä,0.45383299997774884,correct,,273.0220968000358,273.8206892000162,271.75829030002933,,,,,,,,,,,,20,B,2023-12-11_18h34.26.533,gca_discrimination,2022.2.4,144.00963138383713,
positions.xlsx,stimuli.xlsx,test.xlsx,stimuli/Social2.png,stimuli/Social1.png,stimuli/Nonsocial1.png,stimuli/Nonsocial2.png,stimuli/Test1.png,stimuli/Test2.png,"(-0.7, -0.5)",cs_minus_s,"(-0.7, 0.5)",cs_plus_s,0,0,0,0,,,,,0,49,49,15,,,,,,,,,,,,,,,273.8206892000162,274.82756710000103,274.82756710000103,274.9734035000438,275.4803275000304,275.4803275000304,275.62612120003905,l,1.1283130999654531,correct,,276.7649996000109,277.5705360000138,274.82756710000103,,,,,,,,,,,,20,B,2023-12-11_18h34.26.533,gca_discrimination,2022.2.4,144.00963138383713,
positions.xlsx,stimuli.xlsx,test.xlsx,stimuli/Social2.png,stimuli/Social1.png,stimuli/Nonsocial1.png,stimuli/Nonsocial2.png,stimuli/Test1.png,stimuli/Test2.png,"(-0.7, 0.5)",cs_minus_s,"(0.7, 0.5)",cs_plus_s,0,0,0,0,,,,,0,50,50,13,,,,,,,,,,,,,,,277.5705360000138,278.5774324000231,278.5774324000231,278.72326619998785,279.23019930004375,279.23019930004375,279.3760382999899,l,0.45967769995331764,correct,,279.84822169999825,279.95933969999896,278.5774324000231,,,,,,,,,,,,20,B,2023-12-11_18h34.26.533,gca_discrimination,2022.2.4,144.00963138383713,
positions.xlsx,stimuli.xlsx,test.xlsx,stimuli/Social2.png,stimuli/Social1.png,stimuli/Nonsocial1.png,stimuli/Nonsocial2.png,stimuli/Test1.png,stimuli/Test2.png,"(0.7, -0.5)",cs_plus_ns,"(-0.7, -0.5)",cs_minus_ns,0,0,0,0,,,,,0,51,51,34,,,,,,,,,,,,,,,279.95933969999896,280.96625580004184,280.96625580004184,281.11210490000667,281.6190146000008,281.6190146000008,281.7648098000209,l,0.8061220999807119,correct,,282.58424120000564,283.0772653000313,280.96625580004184,,,,,,,,,,,,20,B,2023-12-11_18h34.26.533,gca_discrimination,2022.2.4,144.00963138383713,
positions.xlsx,stimuli.xlsx,test.xlsx,stimuli/Social2.png,stimuli/Social1.png,stimuli/Nonsocial1.png,stimuli/Nonsocial2.png,stimuli/Test1.png,stimuli/Test2.png,"(-0.7, 0.5)",cs_minus_ns,"(-0.7, -0.5)",cs_minus_ns,0,0,0,0,,,,,0,52,52,84,,,,,,,,,,,,,,,283.0772653000313,284.08416590001434,284.08416590001434,284.2300566000049,284.73693260003347,284.73693260003347,284.88276740000583,ä,0.5517494999803603,correct,,285.4452200999949,285.66048550000414,284.08416590001434,,,,,,,,,,,,20,B,2023-12-11_18h34.26.533,gca_discrimination,2022.2.4,144.00963138383713,
positions.xlsx,stimuli.xlsx,test.xlsx,stimuli/Social2.png,stimuli/Social1.png,stimuli/Nonsocial1.png,stimuli/Nonsocial2.png,stimuli/Test1.png,stimuli/Test2.png,"(0.7, 0.5)",cs_plus_s,"(0.7, -0.5)",cs_plus_s,0,0,0,0,,,,,0,53,53,56,,,,,,,,,,,,,,,285.66048550000414,286.66739529999904,286.66739529999904,286.81323830003385,287.320189399994,287.320189399994,287.46597120002843,ä,0.6489974000141956,correct,,288.12567410001066,288.5284167000209,286.66739529999904,,,,,,,,,,,,20,B,2023-12-11_18h34.26.533,gca_discrimination,2022.2.4,144.00963138383713,
positions.xlsx,stimuli.xlsx,test.xlsx,stimuli/Social2.png,stimuli/Social1.png,stimuli/Nonsocial1.png,stimuli/Nonsocial2.png,stimuli/Test1.png,stimuli/Test2.png,"(0.7, -0.5)",cs_plus_ns,"(0.7, 0.5)",cs_plus_ns,0,0,0,0,,,,,0,54,54,83,,,,,,,,,,,,,,,288.5284167000209,289.5353438000311,289.5353438000311,289.6811791000073,290.1881155000301,290.1881155000301,290.33397730003344,ä,1.0519927999703214,correct,,291.39637269999366,291.7366228000028,289.5353438000311,,,,,,,,,,,,20,B,2023-12-11_18h34.26.533,gca_discrimination,2022.2.4,144.00963138383713,
positions.xlsx,stimuli.xlsx,test.xlsx,stimuli/Social2.png,stimuli/Social1.png,stimuli/Nonsocial1.png,stimuli/Nonsocial2.png,stimuli/Test1.png,stimuli/Test2.png,"(-0.7, -0.5)",cs_minus_ns,"(-0.7, 0.5)",cs_minus_ns,0,0,0,0,,,,,0,55,55,87,,,,,,,,,,,,,,,291.7366228000028,292.743597600027,292.743597600027,292.8893415000057,293.39634400000796,293.39634400000796,293.54210160003277,ä,0.6439292000140995,correct,,294.1948698000051,295.09069740003906,292.743597600027,,,,,,,,,,,,20,B,2023-12-11_18h34.26.533,gca_discrimination,2022.2.4,144.00963138383713,
positions.xlsx,stimuli.xlsx,test.xlsx,stimuli/Social2.png,stimuli/Social1.png,stimuli/Nonsocial1.png,stimuli/Nonsocial2.png,stimuli/Test1.png,stimuli/Test2.png,"(-0.7, -0.5)",cs_minus_s,"(0.7, -0.5)",cs_plus_s,0,0,0,0,,,,,0,56,56,17,,,,,,,,,,,,,,,295.09069740003906,296.0975965000107,296.0975965000107,296.2434155000374,296.7503863000311,296.7503863000311,296.8961773000192,l,0.4747649999917485,correct,,297.3822386999964,298.23638130002655,296.0975965000107,,,,,,,,,,,,20,B,2023-12-11_18h34.26.533,gca_discrimination,2022.2.4,144.00963138383713,
positions.xlsx,stimuli.xlsx,test.xlsx,stimuli/Social2.png,stimuli/Social1.png,stimuli/Nonsocial1.png,stimuli/Nonsocial2.png,stimuli/Test1.png,stimuli/Test2.png,"(0.7, 0.5)",cs_minus_s,"(-0.7, 0.5)",cs_plus_s,0,0,0,0,,,,,0,57,57,18,,,,,,,,,,,,,,,298.23638130002655,299.2432781000389,299.2432781000389,299.38913800002774,299.8961023000302,299.8961023000302,300.041888900043,l,0.44054049998521805,correct,,300.4932379000238,301.3890653999988,299.2432781000389,,,,,,,,,,,,20,B,2023-12-11_18h34.26.533,gca_discrimination,2022.2.4,144.00963138383713,
positions.xlsx,stimuli.xlsx,test.xlsx,stimuli/Social2.png,stimuli/Social1.png,stimuli/Nonsocial1.png,stimuli/Nonsocial2.png,stimuli/Test1.png,stimuli/Test2.png,"(-0.7, -0.5)",cs_plus_ns,"(0.7, 0.5)",cs_plus_ns,0,0,0,0,,,,,0,58,58,76,,,,,,,,,,,,,,,301.3890653999988,302.39599190000445,302.39599190000445,302.5418027000269,303.0487104000058,303.0487104000058,303.1945562000037,ä,1.0326370000257157,correct,,304.23615880002035,304.6319866999984,302.39599190000445,,,,,,,,,,,,20,B,2023-12-11_18h34.26.533,gca_discrimination,2022.2.4,144.00963138383713,
positions.xlsx,stimuli.xlsx,test.xlsx,stimuli/Social2.png,stimuli/Social1.png,stimuli/Nonsocial1.png,stimuli/Nonsocial2.png,stimuli/Test1.png,stimuli/Test2.png,"(-0.7, 0.5)",cs_minus_ns,"(0.7, -0.5)",cs_minus_ns,0,0,0,0,,,,,0,59,59,86,,,,,,,,,,,,,,,304.6319866999984,305.6388982000062,305.6388982000062,305.78471680002986,306.2916363000404,306.2916363000404,306.4374896000372,ä,0.9810343999997713,correct,,307.43047130003106,308.1248773999978,305.6388982000062,,,,,,,,,,,,20,B,2023-12-11_18h34.26.533,gca_discrimination,2022.2.4,144.00963138383713,
positions.xlsx,stimuli.xlsx,test.xlsx,stimuli/Social2.png,stimuli/Social1.png,stimuli/Nonsocial1.png,stimuli/Nonsocial2.png,stimuli/Test1.png,stimuli/Test2.png,"(-0.7, -0.5)",cs_minus_s,"(0.7, 0.5)",cs_minus_s,0,0,0,0,,,,,0,60,60,64,,,,,,,,,,,,,,,308.1248773999978,309.1318270000047,309.1318270000047,309.2776426000055,309.78453860001173,309.78453860001173,309.930371000024,ä,0.37683179997839034,correct,,310.31931210000766,310.74979130004067,309.1318270000047,,,,,,,,,,,,20,B,2023-12-11_18h34.26.533,gca_discrimination,2022.2.4,144.00963138383713,
positions.xlsx,stimuli.xlsx,test.xlsx,stimuli/Social2.png,stimuli/Social1.png,stimuli/Nonsocial1.png,stimuli/Nonsocial2.png,stimuli/Test1.png,stimuli/Test2.png,"(0.7, -0.5)",cs_plus_s,"(-0.7, -0.5)",cs_minus_s,0,0,0,0,,,,,0,61,61,10,,,,,,,,,,,,,,,310.74979130004067,311.7567315000342,311.7567315000342,311.90254540002206,312.40946590004023,312.40946590004023,312.5553164000157,l,0.6634843000210822,correct,,313.2288827000302,313.846895100025,311.7567315000342,,,,,,,,,,,,20,B,2023-12-11_18h34.26.533,gca_discrimination,2022.2.4,144.00963138383713,
positions.xlsx,stimuli.xlsx,test.xlsx,stimuli/Social2.png,stimuli/Social1.png,stimuli/Nonsocial1.png,stimuli/Nonsocial2.png,stimuli/Test1.png,stimuli/Test2.png,"(-0.7, 0.5)",cs_minus_s,"(0.7, -0.5)",cs_minus_s,0,0,0,0,,,,,0,62,62,62,,,,,,,,,,,,,,,313.846895100025,314.85382910002954,314.85382910002954,314.9996507000178,315.5065756000113,315.5065756000113,315.6524109999882,ä,0.6471884999773465,correct,,316.31205900001805,316.51349560002564,314.85382910002954,,,,,,,,,,,,20,B,2023-12-11_18h34.26.533,gca_discrimination,2022.2.4,144.00963138383713,
positions.xlsx,stimuli.xlsx,test.xlsx,stimuli/Social2.png,stimuli/Social1.png,stimuli/Nonsocial1.png,stimuli/Nonsocial2.png,stimuli/Test1.png,stimuli/Test2.png,"(-0.7, -0.5)",cs_minus_ns,"(0.7, 0.5)",cs_plus_ns,0,0,0,0,,,,,0,63,63,40,,,,,,,,,,,,,,,316.51349560002564,317.52037690003635,317.52037690003635,317.6661988000269,318.1731296000071,318.1731296000071,318.31893880001735,l,0.564585399988573,correct,,318.89532589999726,319.47862930002157,317.52037690003635,,,,,,,,,,,,20,B,2023-12-11_18h34.26.533,gca_discrimination,2022.2.4,144.00963138383713,
positions.xlsx,stimuli.xlsx,test.xlsx,stimuli/Social2.png,stimuli/Social1.png,stimuli/Nonsocial1.png,stimuli/Nonsocial2.png,stimuli/Test1.png,stimuli/Test2.png,"(0.7, -0.5)",cs_plus_ns,"(-0.7, -0.5)",cs_plus_ns,0,0,0,0,,,,,0,64,64,82,,,,,,,,,,,,,,,319.47862930002157,320.4855242000194,320.4855242000194,320.6313225000049,321.1382898000302,321.1382898000302,321.2841325000045,ä,0.9418240000377409,correct,,322.23545740003465,322.41601809998974,320.4855242000194,,,,,,,,,,,,20,B,2023-12-11_18h34.26.533,gca_discrimination,2022.2.4,144.00963138383713,
positions.xlsx,stimuli.xlsx,test.xlsx,stimuli/Social2.png,stimuli/Social1.png,stimuli/Nonsocial1.png,stimuli/Nonsocial2.png,stimuli/Test1.png,stimuli/Test2.png,"(0.7, -0.5)",cs_minus_s,"(-0.7, 0.5)",cs_plus_s,0,0,0,0,,,,,0,65,65,21,,,,,,,,,,,,,,,322.41601809998974,323.42296510003507,323.42296510003507,323.56875360000413,324.0756839000387,324.0756839000387,324.2215087999939,l,1.1966383999679238,correct,,325.42979990004096,326.4297533000354,323.42296510003507,,,,,,,,,,,,20,B,2023-12-11_18h34.26.533,gca_discrimination,2022.2.4,144.00963138383713,
positions.xlsx,stimuli.xlsx,test.xlsx,stimuli/Social2.png,stimuli/Social1.png,stimuli/Nonsocial1.png,stimuli/Nonsocial2.png,stimuli/Test1.png,stimuli/Test2.png,"(0.7, 0.5)",cs_minus_ns,"(-0.7, -0.5)",cs_minus_ns,0,0,0,0,,,,,0,66,66,91,,,,,,,,,,,,,,,326.4297533000354,327.4366721000406,327.4366721000406,327.5824923000182,328.0894164000056,328.0894164000056,328.23524130001897,ä,0.5992170000099577,correct,,328.8463410999975,329.29075079999166,327.4366721000406,,,,,,,,,,,,20,B,2023-12-11_18h34.26.533,gca_discrimination,2022.2.4,144.00963138383713,
positions.xlsx,stimuli.xlsx,test.xlsx,stimuli/Social2.png,stimuli/Social1.png,stimuli/Nonsocial1.png,stimuli/Nonsocial2.png,stimuli/Test1.png,stimuli/Test2.png,"(-0.7, -0.5)",cs_minus_s,"(-0.7, 0.5)",cs_minus_s,0,0,0,0,,,,,0,67,67,63,,,,,,,,,,,,,,,329.29075079999166,330.29766060004476,330.29766060004476,330.44350100000156,330.9504285000148,330.9504285000148,331.09625669999514,ä,1.1313441000529565,correct,,332.23505640000803,332.3878620000323,330.29766060004476,,,,,,,,,,,,20,B,2023-12-11_18h34.26.533,gca_discrimination,2022.2.4,144.00963138383713,
positions.xlsx,stimuli.xlsx,test.xlsx,stimuli/Social2.png,stimuli/Social1.png,stimuli/Nonsocial1.png,stimuli/Nonsocial2.png,stimuli/Test1.png,stimuli/Test2.png,"(0.7, 0.5)",cs_plus_s,"(-0.7, 0.5)",cs_minus_s,0,0,0,0,,,,,0,68,68,6,,,,,,,,,,,,,,,332.3878620000323,333.39474230003543,333.39474230003543,333.54055630002404,334.04752660001395,334.04752660001395,334.1933398999972,l,0.5937613000278361,correct,,334.79747049999423,335.08221530000446,333.39474230003543,,,,,,,,,,,,20,B,2023-12-11_18h34.26.533,gca_discrimination,2022.2.4,144.00963138383713,
positions.xlsx,stimuli.xlsx,test.xlsx,stimuli/Social2.png,stimuli/Social1.png,stimuli/Nonsocial1.png,stimuli/Nonsocial2.png,stimuli/Test1.png,stimuli/Test2.png,"(-0.7, 0.5)",cs_plus_s,"(0.7, 0.5)",cs_plus_s,0,0,0,0,,,,,0,69,69,49,,,,,,,,,,,,,,,335.08221530000446,336.0890886000125,336.0890886000125,336.23494070000015,336.74186030001147,336.74186030001147,336.88767329999246,ä,0.730471899965778,correct,,337.63072030001786,338.38761000003433,336.0890886000125,,,,,,,,,,,,20,B,2023-12-11_18h34.26.533,gca_discrimination,2022.2.4,144.00963138383713,
positions.xlsx,stimuli.xlsx,test.xlsx,stimuli/Social2.png,stimuli/Social1.png,stimuli/Nonsocial1.png,stimuli/Nonsocial2.png,stimuli/Test1.png,stimuli/Test2.png,"(0.7, 0.5)",cs_minus_ns,"(-0.7, 0.5)",cs_plus_ns,0,0,0,0,,,,,0,70,70,42,,,,,,,,,,,,,,,338.38761000003433,339.3945636000135,339.3945636000135,339.5403652000241,340.0473048000131,340.0473048000131,340.1931084000389,l,0.8171643000096083,correct,,341.019468100043,341.1722967000096,339.3945636000135,,,,,,,,,,,,20,B,2023-12-11_18h34.26.533,gca_discrimination,2022.2.4,144.00963138383713,
positions.xlsx,stimuli.xlsx,test.xlsx,stimuli/Social2.png,stimuli/Social1.png,stimuli/Nonsocial1.png,stimuli/Nonsocial2.png,stimuli/Test1.png,stimuli/Test2.png,"(0.7, 0.5)",cs_plus_ns,"(0.7, -0.5)",cs_minus_ns,0,0,0,0,,,,,0,71,71,32,,,,,,,,,,,,,,,341.1722967000096,342.1791411000304,342.1791411000304,342.3249545000144,342.83188680000603,342.83188680000603,342.977729300037,l,0.5778293999610469,correct,,343.56796880002366,344.4915725000319,342.1791411000304,,,,,,,,,,,,20,B,2023-12-11_18h34.26.533,gca_discrimination,2022.2.4,144.00963138383713,
positions.xlsx,stimuli.xlsx,test.xlsx,stimuli/Social2.png,stimuli/Social1.png,stimuli/Nonsocial1.png,stimuli/Nonsocial2.png,stimuli/Test1.png,stimuli/Test2.png,"(-0.7, -0.5)",cs_minus_s,"(0.7, -0.5)",cs_minus_s,0,0,0,0,,,,,0,72,72,65,,,,,,,,,,,,,,,344.4915725000319,345.49848660000134,345.49848660000134,345.6442643000046,346.15121480001835,346.15121480001835,346.29703499999596,ä,0.7057191000203602,correct,,347.0122809000313,347.20671470003435,345.49848660000134,,,,,,,,,,,,20,B,2023-12-11_18h34.26.533,gca_discrimination,2022.2.4,144.00963138383713,
positions.xlsx,stimuli.xlsx,test.xlsx,stimuli/Social2.png,stimuli/Social1.png,stimuli/Nonsocial1.png,stimuli/Nonsocial2.png,stimuli/Test1.png,stimuli/Test2.png,"(-0.7, 0.5)",cs_minus_ns,"(0.7, 0.5)",cs_plus_ns,0,0,0,0,,,,,0,73,73,37,,,,,,,,,,,,,,,347.20671470003435,348.21361650002655,348.21361650002655,348.3594630000298,348.8663958000252,348.8663958000252,349.0122372999904,l,0.7428093999624252,correct,,349.7621972000343,349.78997879999224,348.21361650002655,,,,,,,,,,,,20,B,2023-12-11_18h34.26.533,gca_discrimination,2022.2.4,144.00963138383713,
positions.xlsx,stimuli.xlsx,test.xlsx,stimuli/Social2.png,stimuli/Social1.png,stimuli/Nonsocial1.png,stimuli/Nonsocial2.png,stimuli/Test1.png,stimuli/Test2.png,"(-0.7, -0.5)",cs_plus_s,"(-0.7, 0.5)",cs_plus_s,0,0,0,0,,,,,0,74,74,51,,,,,,,,,,,,,,,349.78997879999224,350.7968824999989,350.7968824999989,350.94270130002405,351.44965510000475,351.44965510000475,351.5954539999948,ä,1.0307151000015438,correct,,352.63706020003883,353.0884547000169,350.7968824999989,,,,,,,,,,,,20,B,2023-12-11_18h34.26.533,gca_discrimination,2022.2.4,144.00963138383713,
positions.xlsx,stimuli.xlsx,test.xlsx,stimuli/Social2.png,stimuli/Social1.png,stimuli/Nonsocial1.png,stimuli/Nonsocial2.png,stimuli/Test1.png,stimuli/Test2.png,"(0.7, -0.5)",cs_minus_s,"(0.7, 0.5)",cs_plus_s,0,0,0,0,,,,,0,75,75,23,,,,,,,,,,,,,,,353.0884547000169,354.09537180000916,354.09537180000916,354.24119910004083,354.7481134000118,354.7481134000118,354.89395550003974,l,0.45286209997721016,correct,,355.35921470000176,355.8105365000083,354.09537180000916,,,,,,,,,,,,20,B,2023-12-11_18h34.26.533,gca_discrimination,2022.2.4,144.00963138383713,
positions.xlsx,stimuli.xlsx,test.xlsx,stimuli/Social2.png,stimuli/Social1.png,stimuli/Nonsocial1.png,stimuli/Nonsocial2.png,stimuli/Test1.png,stimuli/Test2.png,"(0.7, 0.5)",cs_minus_s,"(-0.7, -0.5)",cs_plus_s,0,0,0,0,,,,,0,76,76,19,,,,,,,,,,,,,,,355.8105365000083,356.81748090003384,356.81748090003384,356.9632968000369,357.4702297000331,357.4702297000331,357.6160731000127,l,0.6501738000079058,correct,,358.2757297999924,358.45631370000774,356.81748090003384,,,,,,,,,,,,20,B,2023-12-11_18h34.26.533,gca_discrimination,2022.2.4,144.00963138383713,
positions.xlsx,stimuli.xlsx,test.xlsx,stimuli/Social2.png,stimuli/Social1.png,stimuli/Nonsocial1.png,stimuli/Nonsocial2.png,stimuli/Test1.png,stimuli/Test2.png,"(0.7, -0.5)",cs_minus_ns,"(-0.7, 0.5)",cs_minus_ns,0,0,0,0,,,,,0,77,77,93,,,,,,,,,,,,,,,358.45631370000774,359.46322760003386,359.46322760003386,359.6090011000051,360.1159636999946,360.1159636999946,360.2618038000073,ä,0.6210525000351481,correct,,360.8936721000355,361.35202960000606,359.46322760003386,,,,,,,,,,,,20,B,2023-12-11_18h34.26.533,gca_discrimination,2022.2.4,144.00963138383713,
positions.xlsx,stimuli.xlsx,test.xlsx,stimuli/Social2.png,stimuli/Social1.png,stimuli/Nonsocial1.png,stimuli/Nonsocial2.png,stimuli/Test1.png,stimuli/Test2.png,"(-0.7, 0.5)",cs_minus_ns,"(0.7, -0.5)",cs_plus_ns,0,0,0,0,,,,,0,78,78,38,,,,,,,,,,,,,,,361.35202960000606,362.3589393000002,362.3589393000002,362.5048073999933,363.01168470003176,363.01168470003176,363.15754690003814,l,0.4766093000071123,correct,,363.643572400033,363.69915110000875,362.3589393000002,,,,,,,,,,,,20,B,2023-12-11_18h34.26.533,gca_discrimination,2022.2.4,144.00963138383713,
positions.xlsx,stimuli.xlsx,test.xlsx,stimuli/Social2.png,stimuli/Social1.png,stimuli/Nonsocial1.png,stimuli/Nonsocial2.png,stimuli/Test1.png,stimuli/Test2.png,"(-0.7, 0.5)",cs_plus_s,"(-0.7, -0.5)",cs_plus_s,0,0,0,0,,,,,0,79,79,48,,,,,,,,,,,,,,,363.69915110000875,364.7060836000019,364.7060836000019,364.85186719999183,365.35884649999207,365.35884649999207,365.50464810000267,ä,0.5459728999994695,correct,,366.06016049999744,366.5671239999938,364.7060836000019,,,,,,,,,,,,20,B,2023-12-11_18h34.26.533,gca_discrimination,2022.2.4,144.00963138383713,
positions.xlsx,stimuli.xlsx,test.xlsx,stimuli/Social2.png,stimuli/Social1.png,stimuli/Nonsocial1.png,stimuli/Nonsocial2.png,stimuli/Test1.png,stimuli/Test2.png,"(0.7, -0.5)",cs_minus_s,"(-0.7, -0.5)",cs_plus_s,0,0,0,0,,,,,0,80,80,22,,,,,,,,,,,,,,,366.5671239999938,367.5740182000445,367.5740182000445,367.7198294000118,368.22672640002565,368.22672640002565,368.3725431000348,l,0.4534521999885328,correct,,368.83782680000877,369.5391770999995,367.5740182000445,,,,,,,,,,,,20,B,2023-12-11_18h34.26.533,gca_discrimination,2022.2.4,144.00963138383713,
positions.xlsx,stimuli.xlsx,test.xlsx,stimuli/Social2.png,stimuli/Social1.png,stimuli/Nonsocial1.png,stimuli/Nonsocial2.png,stimuli/Test1.png,stimuli/Test2.png,"(-0.7, -0.5)",cs_plus_s,"(0.7, -0.5)",cs_minus_s,0,0,0,0,,,,,0,81,81,5,,,,,,,,,,,,,,,369.5391770999995,370.5461077000364,370.5461077000364,370.69193289999384,371.19887449999806,371.19887449999806,371.34468540002126,l,0.45039100002031773,correct,,371.8030180000351,372.13632670004154,370.5461077000364,,,,,,,,,,,,20,B,2023-12-11_18h34.26.533,gca_discrimination,2022.2.4,144.00963138383713,
positions.xlsx,stimuli.xlsx,test.xlsx,stimuli/Social2.png,stimuli/Social1.png,stimuli/Nonsocial1.png,stimuli/Nonsocial2.png,stimuli/Test1.png,stimuli/Test2.png,"(-0.7, -0.5)",cs_plus_s,"(0.7, 0.5)",cs_minus_s,0,0,0,0,,,,,0,82,82,4,,,,,,,,,,,,,,,372.13632670004154,373.1432562000118,373.1432562000118,373.2890696999966,373.79599210002925,373.79599210002925,373.94181829999434,l,0.46026009996421635,correct,,374.4140046000248,374.5528769000084,373.1432562000118,,,,,,,,,,,,20,B,2023-12-11_18h34.26.533,gca_discrimination,2022.2.4,144.00963138383713,
positions.xlsx,stimuli.xlsx,test.xlsx,stimuli/Social2.png,stimuli/Social1.png,stimuli/Nonsocial1.png,stimuli/Nonsocial2.png,stimuli/Test1.png,stimuli/Test2.png,"(-0.7, -0.5)",cs_minus_ns,"(0.7, -0.5)",cs_minus_ns,0,0,0,0,,,,,0,83,83,89,,,,,,,,,,,,,,,374.5528769000084,375.55982720002066,375.55982720002066,375.70564490003744,376.21257070003776,376.21257070003776,376.35839840001427,ä,0.6531538999988697,correct,,377.0250096000382,377.4625134000089,375.55982720002066,,,,,,,,,,,,20,B,2023-12-11_18h34.26.533,gca_discrimination,2022.2.4,144.00963138383713,
positions.xlsx,stimuli.xlsx,test.xlsx,stimuli/Social2.png,stimuli/Social1.png,stimuli/Nonsocial1.png,stimuli/Nonsocial2.png,stimuli/Test1.png,stimuli/Test2.png,"(0.7, -0.5)",cs_plus_s,"(-0.7, 0.5)",cs_minus_s,0,0,0,0,,,,,0,84,84,9,,,,,,,,,,,,,,,377.4625134000089,378.46937390003586,378.46937390003586,378.61524330003886,379.1221667000209,379.1221667000209,379.26800750003895,l,0.7590964999981225,correct,,380.03878290002467,380.14990950003266,378.46937390003586,,,,,,,,,,,,20,B,2023-12-11_18h34.26.533,gca_discrimination,2022.2.4,144.00963138383713,
positions.xlsx,stimuli.xlsx,test.xlsx,stimuli/Social2.png,stimuli/Social1.png,stimuli/Nonsocial1.png,stimuli/Nonsocial2.png,stimuli/Test1.png,stimuli/Test2.png,"(-0.7, 0.5)",cs_plus_ns,"(0.7, -0.5)",cs_plus_ns,0,0,0,0,,,,,0,85,85,74,,,,,,,,,,,,,,,380.14990950003266,381.1568355000345,381.1568355000345,381.30263829999603,381.8095694000367,381.8095694000367,381.9554051000159,ä,1.1756839000154287,correct,,383.14286080002785,383.3025649000192,381.1568355000345,,,,,,,,,,,,20,B,2023-12-11_18h34.26.533,gca_discrimination,2022.2.4,144.00963138383713,
positions.xlsx,stimuli.xlsx,test.xlsx,stimuli/Social2.png,stimuli/Social1.png,stimuli/Nonsocial1.png,stimuli/Nonsocial2.png,stimuli/Test1.png,stimuli/Test2.png,"(0.7, -0.5)",cs_minus_s,"(-0.7, -0.5)",cs_minus_s,0,0,0,0,,,,,0,86,86,70,,,,,,,,,,,,,,,383.3025649000192,384.30944300000556,384.30944300000556,384.4552478000405,384.9622367999982,384.9622367999982,385.1080335000297,ä,0.39794950000941753,correct,,385.5177360000089,386.23300910001853,384.30944300000556,,,,,,,,,,,,20,B,2023-12-11_18h34.26.533,gca_discrimination,2022.2.4,144.00963138383713,
positions.xlsx,stimuli.xlsx,test.xlsx,stimuli/Social2.png,stimuli/Social1.png,stimuli/Nonsocial1.png,stimuli/Nonsocial2.png,stimuli/Test1.png,stimuli/Test2.png,"(-0.7, 0.5)",cs_minus_s,"(-0.7, -0.5)",cs_plus_s,0,0,0,0,,,,,0,87,87,12,,,,,,,,,,,,,,,386.23300910001853,387.23989530000836,387.23989530000836,387.3857292000321,387.89265640004305,387.89265640004305,388.0384612000198,l,0.48452509997878224,correct,,388.5315344000119,389.5037083000061,387.23989530000836,,,,,,,,,,,,20,B,2023-12-11_18h34.26.533,gca_discrimination,2022.2.4,144.00963138383713,
positions.xlsx,stimuli.xlsx,test.xlsx,stimuli/Social2.png,stimuli/Social1.png,stimuli/Nonsocial1.png,stimuli/Nonsocial2.png,stimuli/Test1.png,stimuli/Test2.png,"(0.7, -0.5)",cs_minus_ns,"(-0.7, 0.5)",cs_plus_ns,0,0,0,0,,,,,0,88,88,45,,,,,,,,,,,,,,,389.5037083000061,390.5106175999972,390.5106175999972,390.65648040000815,391.1633904000046,391.1633904000046,391.30921430001035,l,1.3490730000194162,correct,,392.6702663000324,392.9480462000356,390.5106175999972,,,,,,,,,,,,20,B,2023-12-11_18h34.26.533,gca_discrimination,2022.2.4,144.00963138383713,
positions.xlsx,stimuli.xlsx,test.xlsx,stimuli/Social2.png,stimuli/Social1.png,stimuli/Nonsocial1.png,stimuli/Nonsocial2.png,stimuli/Test1.png,stimuli/Test2.png,"(0.7, 0.5)",cs_plus_ns,"(-0.7, -0.5)",cs_minus_ns,0,0,0,0,,,,,0,89,89,31,,,,,,,,,,,,,,,392.9480462000356,393.95492849999573,393.95492849999573,394.10078020003857,394.6076583000249,394.6076583000249,394.75348100002157,l,1.0088770999573171,correct,,395.7742874000105,396.67009530001087,393.95492849999573,,,,,,,,,,,,20,B,2023-12-11_18h34.26.533,gca_discrimination,2022.2.4,144.00963138383713,
positions.xlsx,stimuli.xlsx,test.xlsx,stimuli/Social2.png,stimuli/Social1.png,stimuli/Nonsocial1.png,stimuli/Nonsocial2.png,stimuli/Test1.png,stimuli/Test2.png,"(0.7, 0.5)",cs_plus_ns,"(0.7, -0.5)",cs_plus_ns,0,0,0,0,,,,,0,90,90,80,,,,,,,,,,,,,,,396.67009530001087,397.6770392000326,397.6770392000326,397.82284370000707,398.32976240001153,398.32976240001153,398.47560980002163,l,0.6068915000068955,wrong,,399.09363519999897,399.49637490004534,397.6770392000326,,,,,,,,,,,,20,B,2023-12-11_18h34.26.533,gca_discrimination,2022.2.4,144.00963138383713,
positions.xlsx,stimuli.xlsx,test.xlsx,stimuli/Social2.png,stimuli/Social1.png,stimuli/Nonsocial1.png,stimuli/Nonsocial2.png,stimuli/Test1.png,stimuli/Test2.png,"(0.7, -0.5)",cs_minus_ns,"(0.7, 0.5)",cs_minus_ns,0,0,0,0,,,,,0,91,91,95,,,,,,,,,,,,,,,399.49637490004534,400.5032900000224,400.5032900000224,400.64911009999923,401.156100400025,401.156100400025,401.30185220000567,ä,0.7328830999904312,correct,,402.04487440001685,402.10737290000543,400.5032900000224,,,,,,,,,,,,20,B,2023-12-11_18h34.26.533,gca_discrimination,2022.2.4,144.00963138383713,
positions.xlsx,stimuli.xlsx,test.xlsx,stimuli/Social2.png,stimuli/Social1.png,stimuli/Nonsocial1.png,stimuli/Nonsocial2.png,stimuli/Test1.png,stimuli/Test2.png,"(-0.7, 0.5)",cs_minus_ns,"(-0.7, -0.5)",cs_plus_ns,0,0,0,0,,,,,0,92,92,36,,,,,,,,,,,,,,,402.10737290000543,403.11427540000295,403.11427540000295,403.26013650000095,403.7670506000286,403.7670506000286,403.91288459999487,l,0.7056068999809213,correct,,404.62812710000435,404.65590060001705,403.11427540000295,,,,,,,,,,,,20,B,2023-12-11_18h34.26.533,gca_discrimination,2022.2.4,144.00963138383713,
positions.xlsx,stimuli.xlsx,test.xlsx,stimuli/Social2.png,stimuli/Social1.png,stimuli/Nonsocial1.png,stimuli/Nonsocial2.png,stimuli/Test1.png,stimuli/Test2.png,"(-0.7, -0.5)",cs_minus_ns,"(0.7, -0.5)",cs_plus_ns,0,0,0,0,,,,,0,93,93,41,,,,,,,,,,,,,,,404.65590060001705,405.66282440000214,405.66282440000214,405.8086096000043,406.3156269000028,406.3156269000028,406.4613812000025,l,1.3814199000480585,correct,,407.8502280000248,408.2947097000433,405.66282440000214,,,,,,,,,,,,20,B,2023-12-11_18h34.26.533,gca_discrimination,2022.2.4,144.00963138383713,
positions.xlsx,stimuli.xlsx,test.xlsx,stimuli/Social2.png,stimuli/Social1.png,stimuli/Nonsocial1.png,stimuli/Nonsocial2.png,stimuli/Test1.png,stimuli/Test2.png,"(-0.7, 0.5)",cs_plus_ns,"(0.7, 0.5)",cs_minus_ns,0,0,0,0,,,,,0,94,94,25,,,,,,,,,,,,,,,408.2947097000433,409.301578100014,409.301578100014,409.4474643000285,409.9543093999964,409.9543093999964,410.1001346000121,l,1.5106551999924704,correct,,411.6208857999882,412.51666290004505,409.301578100014,,,,,,,,,,,,20,B,2023-12-11_18h34.26.533,gca_discrimination,2022.2.4,144.00963138383713,
positions.xlsx,stimuli.xlsx,test.xlsx,stimuli/Social2.png,stimuli/Social1.png,stimuli/Nonsocial1.png,stimuli/Nonsocial2.png,stimuli/Test1.png,stimuli/Test2.png,"(0.7, 0.5)",cs_minus_ns,"(0.7, -0.5)",cs_minus_ns,0,0,0,0,,,,,0,95,95,92,,,,,,,,,,,,,,,412.51666290004505,413.52361100004055,413.52361100004055,413.6694287999999,414.17634460004047,414.17634460004047,414.3221950000152,ä,0.4642930999980308,correct,,414.7944209999987,415.46103800000856,413.52361100004055,,,,,,,,,,,,20,B,2023-12-11_18h34.26.533,gca_discrimination,2022.2.4,144.00963138383713,
