posFile,stimFile,testFile,cs_plus_s,cs_minus_s,cs_plus_ns,cs_minus_ns,test1,test2,position1,trialtype,position2,comptype,blocks.thisRepN,blocks.thisTrialN,blocks.thisN,blocks.thisIndex,learning_trials.thisRepN,learning_trials.thisTrialN,learning_trials.thisN,learning_trials.thisIndex,trials.thisRepN,trials.thisTrialN,trials.thisN,trials.thisIndex,textStart.started,key.started,key.keys,key.rt,correctness,textStartTask.started,participant,group,date,expName,psychopyVersion,frameRate,
positions.xlsx,stimuli.xlsx,test.xlsx,stimuli/Social1.png,stimuli/Social2.png,stimuli/Nonsocial2.png,stimuli/Nonsocial1.png,stimuli/Test1.png,stimuli/Test2.png,"(-0.7, -0.5)",test2,"(0.7, -0.5)",test2,0,0,0,0,0,0,0,9,,,,,12.586613100022078,42.62715090007987,l,1.8587711000582203,correct,,45,C,2024-01-03_15h31.53.353,gca_discrimination,2022.2.4,144.05444093221354,
positions.xlsx,stimuli.xlsx,test.xlsx,stimuli/Social1.png,stimuli/Social2.png,stimuli/Nonsocial2.png,stimuli/Nonsocial1.png,stimuli/Test1.png,stimuli/Test2.png,"(-0.7, -0.5)",test1,"(0.7, 0.5)",test2,0,0,0,0,0,1,1,8,,,,,,48.522742800065316,ä,1.5875258999876678,correct,,45,C,2024-01-03_15h31.53.353,gca_discrimination,2022.2.4,144.05444093221354,
positions.xlsx,stimuli.xlsx,test.xlsx,stimuli/Social1.png,stimuli/Social2.png,stimuli/Nonsocial2.png,stimuli/Nonsocial1.png,stimuli/Test1.png,stimuli/Test2.png,"(0.7, 0.5)",test2,"(-0.7, 0.5)",test1,0,0,0,0,0,2,2,13,,,,,,54.91834329999983,ä,1.1521129999309778,correct,,45,C,2024-01-03_15h31.53.353,gca_discrimination,2022.2.4,144.05444093221354,
positions.xlsx,stimuli.xlsx,test.xlsx,stimuli/Social1.png,stimuli/Social2.png,stimuli/Nonsocial2.png,stimuli/Nonsocial1.png,stimuli/Test1.png,stimuli/Test2.png,"(0.7, -0.5)",test1,"(0.7, 0.5)",test2,0,0,0,0,0,3,3,0,,,,,,60.112570700002834,ä,0.8457727999193594,correct,,45,C,2024-01-03_15h31.53.353,gca_discrimination,2022.2.4,144.05444093221354,
positions.xlsx,stimuli.xlsx,test.xlsx,stimuli/Social1.png,stimuli/Social2.png,stimuli/Nonsocial2.png,stimuli/Nonsocial1.png,stimuli/Test1.png,stimuli/Test2.png,"(0.7, -0.5)",test2,"(-0.7, 0.5)",test1,0,0,0,0,0,4,4,4,,,,,,65.70266579999588,ä,0.6472260999726132,correct,,45,C,2024-01-03_15h31.53.353,gca_discrimination,2022.2.4,144.05444093221354,
positions.xlsx,stimuli.xlsx,test.xlsx,stimuli/Social1.png,stimuli/Social2.png,stimuli/Nonsocial2.png,stimuli/Nonsocial1.png,stimuli/Test1.png,stimuli/Test2.png,"(-0.7, 0.5)",test2,"(0.7, -0.5)",test1,0,0,0,0,0,5,5,12,,,,,,70.7927279000869,ä,0.42108820006251335,correct,,45,C,2024-01-03_15h31.53.353,gca_discrimination,2022.2.4,144.05444093221354,
positions.xlsx,stimuli.xlsx,test.xlsx,stimuli/Social1.png,stimuli/Social2.png,stimuli/Nonsocial2.png,stimuli/Nonsocial1.png,stimuli/Test1.png,stimuli/Test2.png,"(-0.7, 0.5)",test1,"(0.7, -0.5)",test1,0,0,0,0,0,6,6,5,,,,,,75.64671430003364,l,0.5835006999550387,correct,,45,C,2024-01-03_15h31.53.353,gca_discrimination,2022.2.4,144.05444093221354,
positions.xlsx,stimuli.xlsx,test.xlsx,stimuli/Social1.png,stimuli/Social2.png,stimuli/Nonsocial2.png,stimuli/Nonsocial1.png,stimuli/Test1.png,stimuli/Test2.png,"(-0.7, 0.5)",test2,"(-0.7, -0.5)",test2,0,0,0,0,0,7,7,1,,,,,,80.94508880004287,l,1.0610160999931395,correct,,45,C,2024-01-03_15h31.53.353,gca_discrimination,2022.2.4,144.05444093221354,
positions.xlsx,stimuli.xlsx,test.xlsx,stimuli/Social1.png,stimuli/Social2.png,stimuli/Nonsocial2.png,stimuli/Nonsocial1.png,stimuli/Test1.png,stimuli/Test2.png,"(0.7, 0.5)",test1,"(0.7, -0.5)",test2,0,0,0,0,0,8,8,11,,,,,,86.49353950005025,ä,0.8726491000270471,correct,,45,C,2024-01-03_15h31.53.353,gca_discrimination,2022.2.4,144.05444093221354,
positions.xlsx,stimuli.xlsx,test.xlsx,stimuli/Social1.png,stimuli/Social2.png,stimuli/Nonsocial2.png,stimuli/Nonsocial1.png,stimuli/Test1.png,stimuli/Test2.png,"(-0.7, 0.5)",test2,"(0.7, 0.5)",test1,0,0,0,0,0,9,9,3,,,,,,92.01413750008214,ä,1.0240012999856845,correct,,45,C,2024-01-03_15h31.53.353,gca_discrimination,2022.2.4,144.05444093221354,
positions.xlsx,stimuli.xlsx,test.xlsx,stimuli/Social1.png,stimuli/Social2.png,stimuli/Nonsocial2.png,stimuli/Nonsocial1.png,stimuli/Test1.png,stimuli/Test2.png,"(-0.7, -0.5)",test2,"(-0.7, 0.5)",test2,0,0,0,0,0,10,10,2,,,,,,97.47227720008232,l,1.301435500034131,correct,,45,C,2024-01-03_15h31.53.353,gca_discrimination,2022.2.4,144.05444093221354,
positions.xlsx,stimuli.xlsx,test.xlsx,stimuli/Social1.png,stimuli/Social2.png,stimuli/Nonsocial2.png,stimuli/Nonsocial1.png,stimuli/Test1.png,stimuli/Test2.png,"(-0.7, -0.5)",test2,"(0.7, 0.5)",test2,0,0,0,0,0,11,11,7,,,,,,102.71513040002901,l,1.2911367999622598,correct,,45,C,2024-01-03_15h31.53.353,gca_discrimination,2022.2.4,144.05444093221354,
positions.xlsx,stimuli.xlsx,test.xlsx,stimuli/Social1.png,stimuli/Social2.png,stimuli/Nonsocial2.png,stimuli/Nonsocial1.png,stimuli/Test1.png,stimuli/Test2.png,"(0.7, -0.5)",test1,"(0.7, 0.5)",test1,0,0,0,0,0,12,12,10,,,,,,108.68010710005183,l,1.0143979000858963,correct,,45,C,2024-01-03_15h31.53.353,gca_discrimination,2022.2.4,144.05444093221354,
positions.xlsx,stimuli.xlsx,test.xlsx,stimuli/Social1.png,stimuli/Social2.png,stimuli/Nonsocial2.png,stimuli/Nonsocial1.png,stimuli/Test1.png,stimuli/Test2.png,"(0.7, 0.5)",test2,"(0.7, -0.5)",test1,0,0,0,0,0,13,13,6,,,,,,113.61047590000089,ä,1.323650800040923,correct,,45,C,2024-01-03_15h31.53.353,gca_discrimination,2022.2.4,144.05444093221354,
positions.xlsx,stimuli.xlsx,test.xlsx,stimuli/Social1.png,stimuli/Social2.png,stimuli/Nonsocial2.png,stimuli/Nonsocial1.png,stimuli/Test1.png,stimuli/Test2.png,"(0.7, -0.5)",cs_plus_s,"(-0.7, -0.5)",cs_plus_s,0,0,0,0,,,,,0,0,0,58,,134.8110656000208,l,0.9791257999604568,correct,116.95759750006255,45,C,2024-01-03_15h31.53.353,gca_discrimination,2022.2.4,144.05444093221354,
positions.xlsx,stimuli.xlsx,test.xlsx,stimuli/Social1.png,stimuli/Social2.png,stimuli/Nonsocial2.png,stimuli/Nonsocial1.png,stimuli/Test1.png,stimuli/Test2.png,"(0.7, 0.5)",cs_minus_s,"(0.7, -0.5)",cs_minus_s,0,0,0,0,,,,,0,1,1,68,,137.95678170002066,l,0.7931695999577641,correct,,45,C,2024-01-03_15h31.53.353,gca_discrimination,2022.2.4,144.05444093221354,
positions.xlsx,stimuli.xlsx,test.xlsx,stimuli/Social1.png,stimuli/Social2.png,stimuli/Nonsocial2.png,stimuli/Nonsocial1.png,stimuli/Test1.png,stimuli/Test2.png,"(0.7, 0.5)",cs_minus_s,"(-0.7, 0.5)",cs_plus_s,0,0,0,0,,,,,0,2,2,18,,141.48444250004832,ä,0.7542195001151413,correct,,45,C,2024-01-03_15h31.53.353,gca_discrimination,2022.2.4,144.05444093221354,
positions.xlsx,stimuli.xlsx,test.xlsx,stimuli/Social1.png,stimuli/Social2.png,stimuli/Nonsocial2.png,stimuli/Nonsocial1.png,stimuli/Test1.png,stimuli/Test2.png,"(-0.7, 0.5)",cs_minus_s,"(0.7, 0.5)",cs_plus_s,0,0,0,0,,,,,0,3,3,13,,144.17876110004727,ä,0.555043299915269,correct,,45,C,2024-01-03_15h31.53.353,gca_discrimination,2022.2.4,144.05444093221354,
positions.xlsx,stimuli.xlsx,test.xlsx,stimuli/Social1.png,stimuli/Social2.png,stimuli/Nonsocial2.png,stimuli/Nonsocial1.png,stimuli/Test1.png,stimuli/Test2.png,"(0.7, -0.5)",cs_minus_s,"(0.7, 0.5)",cs_minus_s,0,0,0,0,,,,,0,4,4,71,,146.56061620009132,l,1.3583523000124842,correct,,45,C,2024-01-03_15h31.53.353,gca_discrimination,2022.2.4,144.05444093221354,
positions.xlsx,stimuli.xlsx,test.xlsx,stimuli/Social1.png,stimuli/Social2.png,stimuli/Nonsocial2.png,stimuli/Nonsocial1.png,stimuli/Test1.png,stimuli/Test2.png,"(0.7, 0.5)",cs_plus_s,"(-0.7, -0.5)",cs_plus_s,0,0,0,0,,,,,0,5,5,55,,149.99797140003648,l,0.9844515000004321,correct,,45,C,2024-01-03_15h31.53.353,gca_discrimination,2022.2.4,144.05444093221354,
positions.xlsx,stimuli.xlsx,test.xlsx,stimuli/Social1.png,stimuli/Social2.png,stimuli/Nonsocial2.png,stimuli/Nonsocial1.png,stimuli/Test1.png,stimuli/Test2.png,"(-0.7, -0.5)",cs_minus_s,"(0.7, 0.5)",cs_plus_s,0,0,0,0,,,,,0,6,6,16,,153.42840610002168,ä,1.0742183999391273,correct,,45,C,2024-01-03_15h31.53.353,gca_discrimination,2022.2.4,144.05444093221354,
positions.xlsx,stimuli.xlsx,test.xlsx,stimuli/Social1.png,stimuli/Social2.png,stimuli/Nonsocial2.png,stimuli/Nonsocial1.png,stimuli/Test1.png,stimuli/Test2.png,"(0.7, 0.5)",cs_minus_s,"(0.7, -0.5)",cs_plus_s,0,0,0,0,,,,,0,7,7,20,,156.94215260003693,ä,0.6084909999044612,correct,,45,C,2024-01-03_15h31.53.353,gca_discrimination,2022.2.4,144.05444093221354,
positions.xlsx,stimuli.xlsx,test.xlsx,stimuli/Social1.png,stimuli/Social2.png,stimuli/Nonsocial2.png,stimuli/Nonsocial1.png,stimuli/Test1.png,stimuli/Test2.png,"(0.7, 0.5)",cs_minus_ns,"(-0.7, 0.5)",cs_minus_ns,0,0,0,0,,,,,0,8,8,90,,160.2266998999985,l,0.7559005999937654,correct,,45,C,2024-01-03_15h31.53.353,gca_discrimination,2022.2.4,144.05444093221354,
positions.xlsx,stimuli.xlsx,test.xlsx,stimuli/Social1.png,stimuli/Social2.png,stimuli/Nonsocial2.png,stimuli/Nonsocial1.png,stimuli/Test1.png,stimuli/Test2.png,"(0.7, -0.5)",cs_minus_ns,"(-0.7, -0.5)",cs_minus_ns,0,0,0,0,,,,,0,9,9,94,,163.79606399999466,l,0.9463978999992833,correct,,45,C,2024-01-03_15h31.53.353,gca_discrimination,2022.2.4,144.05444093221354,
positions.xlsx,stimuli.xlsx,test.xlsx,stimuli/Social1.png,stimuli/Social2.png,stimuli/Nonsocial2.png,stimuli/Nonsocial1.png,stimuli/Test1.png,stimuli/Test2.png,"(-0.7, -0.5)",cs_plus_s,"(0.7, 0.5)",cs_minus_s,0,0,0,0,,,,,0,10,10,4,,167.13619790005032,ä,0.653992100036703,correct,,45,C,2024-01-03_15h31.53.353,gca_discrimination,2022.2.4,144.05444093221354,
positions.xlsx,stimuli.xlsx,test.xlsx,stimuli/Social1.png,stimuli/Social2.png,stimuli/Nonsocial2.png,stimuli/Nonsocial1.png,stimuli/Test1.png,stimuli/Test2.png,"(0.7, 0.5)",cs_minus_ns,"(-0.7, -0.5)",cs_minus_ns,0,0,0,0,,,,,0,11,11,91,,170.4902825000463,l,0.5893595999805257,correct,,45,C,2024-01-03_15h31.53.353,gca_discrimination,2022.2.4,144.05444093221354,
positions.xlsx,stimuli.xlsx,test.xlsx,stimuli/Social1.png,stimuli/Social2.png,stimuli/Nonsocial2.png,stimuli/Nonsocial1.png,stimuli/Test1.png,stimuli/Test2.png,"(-0.7, -0.5)",cs_plus_s,"(-0.7, 0.5)",cs_plus_s,0,0,0,0,,,,,0,12,12,51,,173.3165302000707,l,1.258097100071609,correct,,45,C,2024-01-03_15h31.53.353,gca_discrimination,2022.2.4,144.05444093221354,
positions.xlsx,stimuli.xlsx,test.xlsx,stimuli/Social1.png,stimuli/Social2.png,stimuli/Nonsocial2.png,stimuli/Nonsocial1.png,stimuli/Test1.png,stimuli/Test2.png,"(0.7, 0.5)",cs_plus_s,"(0.7, -0.5)",cs_minus_s,0,0,0,0,,,,,0,13,13,8,,176.71225330000743,ä,0.7748872999800369,correct,,45,C,2024-01-03_15h31.53.353,gca_discrimination,2022.2.4,144.05444093221354,
positions.xlsx,stimuli.xlsx,test.xlsx,stimuli/Social1.png,stimuli/Social2.png,stimuli/Nonsocial2.png,stimuli/Nonsocial1.png,stimuli/Test1.png,stimuli/Test2.png,"(-0.7, -0.5)",cs_minus_s,"(-0.7, 0.5)",cs_minus_s,0,0,0,0,,,,,0,14,14,63,,179.552325900062,l,0.7418045999947935,correct,,45,C,2024-01-03_15h31.53.353,gca_discrimination,2022.2.4,144.05444093221354,
positions.xlsx,stimuli.xlsx,test.xlsx,stimuli/Social1.png,stimuli/Social2.png,stimuli/Nonsocial2.png,stimuli/Nonsocial1.png,stimuli/Test1.png,stimuli/Test2.png,"(-0.7, 0.5)",cs_plus_ns,"(-0.7, -0.5)",cs_minus_ns,0,0,0,0,,,,,0,15,15,24,,182.8856090999907,ä,0.6818891000002623,correct,,45,C,2024-01-03_15h31.53.353,gca_discrimination,2022.2.4,144.05444093221354,
positions.xlsx,stimuli.xlsx,test.xlsx,stimuli/Social1.png,stimuli/Social2.png,stimuli/Nonsocial2.png,stimuli/Nonsocial1.png,stimuli/Test1.png,stimuli/Test2.png,"(-0.7, 0.5)",cs_minus_ns,"(0.7, 0.5)",cs_plus_ns,0,0,0,0,,,,,0,16,16,37,,185.8507910000626,ä,0.8594569000415504,correct,,45,C,2024-01-03_15h31.53.353,gca_discrimination,2022.2.4,144.05444093221354,
positions.xlsx,stimuli.xlsx,test.xlsx,stimuli/Social1.png,stimuli/Social2.png,stimuli/Nonsocial2.png,stimuli/Nonsocial1.png,stimuli/Test1.png,stimuli/Test2.png,"(-0.7, -0.5)",cs_minus_ns,"(0.7, -0.5)",cs_minus_ns,0,0,0,0,,,,,0,17,17,89,,189.2395382000832,l,0.47838149999734014,correct,,45,C,2024-01-03_15h31.53.353,gca_discrimination,2022.2.4,144.05444093221354,
positions.xlsx,stimuli.xlsx,test.xlsx,stimuli/Social1.png,stimuli/Social2.png,stimuli/Nonsocial2.png,stimuli/Nonsocial1.png,stimuli/Test1.png,stimuli/Test2.png,"(-0.7, 0.5)",cs_plus_ns,"(0.7, 0.5)",cs_minus_ns,0,0,0,0,,,,,0,18,18,25,,191.8713791000191,ä,0.8238213999429718,correct,,45,C,2024-01-03_15h31.53.353,gca_discrimination,2022.2.4,144.05444093221354,
positions.xlsx,stimuli.xlsx,test.xlsx,stimuli/Social1.png,stimuli/Social2.png,stimuli/Nonsocial2.png,stimuli/Nonsocial1.png,stimuli/Test1.png,stimuli/Test2.png,"(-0.7, 0.5)",cs_plus_ns,"(0.7, 0.5)",cs_plus_ns,0,0,0,0,,,,,0,19,19,73,,195.37125460000243,l,0.7238939999369904,correct,,45,C,2024-01-03_15h31.53.353,gca_discrimination,2022.2.4,144.05444093221354,
positions.xlsx,stimuli.xlsx,test.xlsx,stimuli/Social1.png,stimuli/Social2.png,stimuli/Nonsocial2.png,stimuli/Nonsocial1.png,stimuli/Test1.png,stimuli/Test2.png,"(-0.7, -0.5)",cs_plus_ns,"(-0.7, 0.5)",cs_minus_ns,0,0,0,0,,,,,0,20,20,27,,198.3294758000411,ä,0.7805715999566019,correct,,45,C,2024-01-03_15h31.53.353,gca_discrimination,2022.2.4,144.05444093221354,
positions.xlsx,stimuli.xlsx,test.xlsx,stimuli/Social1.png,stimuli/Social2.png,stimuli/Nonsocial2.png,stimuli/Nonsocial1.png,stimuli/Test1.png,stimuli/Test2.png,"(0.7, 0.5)",cs_minus_ns,"(-0.7, 0.5)",cs_plus_ns,0,0,0,0,,,,,0,21,21,42,,201.7667986000888,ä,0.879019399988465,correct,,45,C,2024-01-03_15h31.53.353,gca_discrimination,2022.2.4,144.05444093221354,
positions.xlsx,stimuli.xlsx,test.xlsx,stimuli/Social1.png,stimuli/Social2.png,stimuli/Nonsocial2.png,stimuli/Nonsocial1.png,stimuli/Test1.png,stimuli/Test2.png,"(-0.7, -0.5)",cs_plus_s,"(-0.7, 0.5)",cs_minus_s,0,0,0,0,,,,,0,22,22,3,,204.62782450008672,ä,0.7793278000317514,correct,,45,C,2024-01-03_15h31.53.353,gca_discrimination,2022.2.4,144.05444093221354,
positions.xlsx,stimuli.xlsx,test.xlsx,stimuli/Social1.png,stimuli/Social2.png,stimuli/Nonsocial2.png,stimuli/Nonsocial1.png,stimuli/Test1.png,stimuli/Test2.png,"(0.7, -0.5)",cs_plus_s,"(-0.7, 0.5)",cs_minus_s,0,0,0,0,,,,,0,23,23,9,,207.50273120007478,ä,0.5270352000370622,correct,,45,C,2024-01-03_15h31.53.353,gca_discrimination,2022.2.4,144.05444093221354,
positions.xlsx,stimuli.xlsx,test.xlsx,stimuli/Social1.png,stimuli/Social2.png,stimuli/Nonsocial2.png,stimuli/Nonsocial1.png,stimuli/Test1.png,stimuli/Test2.png,"(-0.7, 0.5)",cs_plus_s,"(-0.7, -0.5)",cs_plus_s,0,0,0,0,,,,,0,24,24,48,,209.95403270004317,l,0.8278830000199378,correct,,45,C,2024-01-03_15h31.53.353,gca_discrimination,2022.2.4,144.05444093221354,
positions.xlsx,stimuli.xlsx,test.xlsx,stimuli/Social1.png,stimuli/Social2.png,stimuli/Nonsocial2.png,stimuli/Nonsocial1.png,stimuli/Test1.png,stimuli/Test2.png,"(0.7, -0.5)",cs_plus_ns,"(-0.7, 0.5)",cs_plus_ns,0,0,0,0,,,,,0,25,25,81,,213.3844381000381,l,1.5657881998922676,correct,,45,C,2024-01-03_15h31.53.353,gca_discrimination,2022.2.4,144.05444093221354,
positions.xlsx,stimuli.xlsx,test.xlsx,stimuli/Social1.png,stimuli/Social2.png,stimuli/Nonsocial2.png,stimuli/Nonsocial1.png,stimuli/Test1.png,stimuli/Test2.png,"(0.7, -0.5)",cs_minus_ns,"(0.7, 0.5)",cs_plus_ns,0,0,0,0,,,,,0,26,26,47,,217.03014350007288,ä,1.2076669000089169,correct,,45,C,2024-01-03_15h31.53.353,gca_discrimination,2022.2.4,144.05444093221354,
positions.xlsx,stimuli.xlsx,test.xlsx,stimuli/Social1.png,stimuli/Social2.png,stimuli/Nonsocial2.png,stimuli/Nonsocial1.png,stimuli/Test1.png,stimuli/Test2.png,"(0.7, -0.5)",cs_plus_s,"(-0.7, 0.5)",cs_plus_s,0,0,0,0,,,,,0,27,27,57,,220.21750969998538,l,0.7326249999459833,correct,,45,C,2024-01-03_15h31.53.353,gca_discrimination,2022.2.4,144.05444093221354,
positions.xlsx,stimuli.xlsx,test.xlsx,stimuli/Social1.png,stimuli/Social2.png,stimuli/Nonsocial2.png,stimuli/Nonsocial1.png,stimuli/Test1.png,stimuli/Test2.png,"(-0.7, 0.5)",cs_plus_ns,"(-0.7, -0.5)",cs_plus_ns,0,0,0,0,,,,,0,28,28,72,,222.84237289999146,l,1.2037840000120923,correct,,45,C,2024-01-03_15h31.53.353,gca_discrimination,2022.2.4,144.05444093221354,
positions.xlsx,stimuli.xlsx,test.xlsx,stimuli/Social1.png,stimuli/Social2.png,stimuli/Nonsocial2.png,stimuli/Nonsocial1.png,stimuli/Test1.png,stimuli/Test2.png,"(0.7, -0.5)",cs_minus_s,"(0.7, 0.5)",cs_plus_s,0,0,0,0,,,,,0,29,29,23,,225.96036690007895,ä,0.4465880000498146,correct,,45,C,2024-01-03_15h31.53.353,gca_discrimination,2022.2.4,144.05444093221354,
positions.xlsx,stimuli.xlsx,test.xlsx,stimuli/Social1.png,stimuli/Social2.png,stimuli/Nonsocial2.png,stimuli/Nonsocial1.png,stimuli/Test1.png,stimuli/Test2.png,"(0.7, 0.5)",cs_plus_s,"(-0.7, -0.5)",cs_minus_s,0,0,0,0,,,,,0,30,30,7,,229.00189020007383,ä,1.588408900075592,correct,,45,C,2024-01-03_15h31.53.353,gca_discrimination,2022.2.4,144.05444093221354,
positions.xlsx,stimuli.xlsx,test.xlsx,stimuli/Social1.png,stimuli/Social2.png,stimuli/Nonsocial2.png,stimuli/Nonsocial1.png,stimuli/Test1.png,stimuli/Test2.png,"(-0.7, 0.5)",cs_minus_ns,"(0.7, -0.5)",cs_plus_ns,0,0,0,0,,,,,0,31,31,38,,233.26558630005457,ä,1.173183000064455,correct,,45,C,2024-01-03_15h31.53.353,gca_discrimination,2022.2.4,144.05444093221354,
positions.xlsx,stimuli.xlsx,test.xlsx,stimuli/Social1.png,stimuli/Social2.png,stimuli/Nonsocial2.png,stimuli/Nonsocial1.png,stimuli/Test1.png,stimuli/Test2.png,"(-0.7, 0.5)",cs_minus_s,"(-0.7, -0.5)",cs_plus_s,0,0,0,0,,,,,0,32,32,12,,236.76544970006216,ä,1.4012633000966161,correct,,45,C,2024-01-03_15h31.53.353,gca_discrimination,2022.2.4,144.05444093221354,
positions.xlsx,stimuli.xlsx,test.xlsx,stimuli/Social1.png,stimuli/Social2.png,stimuli/Nonsocial2.png,stimuli/Nonsocial1.png,stimuli/Test1.png,stimuli/Test2.png,"(0.7, 0.5)",cs_plus_ns,"(0.7, -0.5)",cs_minus_ns,0,0,0,0,,,,,0,33,33,32,,240.25142800004687,ä,0.7073997000698,correct,,45,C,2024-01-03_15h31.53.353,gca_discrimination,2022.2.4,144.05444093221354,
positions.xlsx,stimuli.xlsx,test.xlsx,stimuli/Social1.png,stimuli/Social2.png,stimuli/Nonsocial2.png,stimuli/Nonsocial1.png,stimuli/Test1.png,stimuli/Test2.png,"(-0.7, 0.5)",cs_plus_s,"(0.7, -0.5)",cs_plus_s,0,0,0,0,,,,,0,34,34,50,,243.4666039000731,l,0.955580500070937,correct,,45,C,2024-01-03_15h31.53.353,gca_discrimination,2022.2.4,144.05444093221354,
positions.xlsx,stimuli.xlsx,test.xlsx,stimuli/Social1.png,stimuli/Social2.png,stimuli/Nonsocial2.png,stimuli/Nonsocial1.png,stimuli/Test1.png,stimuli/Test2.png,"(-0.7, 0.5)",cs_minus_ns,"(0.7, 0.5)",cs_minus_ns,0,0,0,0,,,,,0,35,35,85,,246.25122109998483,l,0.9950901999836788,correct,,45,C,2024-01-03_15h31.53.353,gca_discrimination,2022.2.4,144.05444093221354,
positions.xlsx,stimuli.xlsx,test.xlsx,stimuli/Social1.png,stimuli/Social2.png,stimuli/Nonsocial2.png,stimuli/Nonsocial1.png,stimuli/Test1.png,stimuli/Test2.png,"(0.7, -0.5)",cs_minus_ns,"(0.7, 0.5)",cs_minus_ns,0,0,0,0,,,,,0,36,36,95,,249.39694300002884,l,1.1692478999029845,correct,,45,C,2024-01-03_15h31.53.353,gca_discrimination,2022.2.4,144.05444093221354,
positions.xlsx,stimuli.xlsx,test.xlsx,stimuli/Social1.png,stimuli/Social2.png,stimuli/Nonsocial2.png,stimuli/Nonsocial1.png,stimuli/Test1.png,stimuli/Test2.png,"(-0.7, -0.5)",cs_plus_s,"(0.7, 0.5)",cs_plus_s,0,0,0,0,,,,,0,37,37,52,,252.55652770004235,l,1.5537948999553919,correct,,45,C,2024-01-03_15h31.53.353,gca_discrimination,2022.2.4,144.05444093221354,
positions.xlsx,stimuli.xlsx,test.xlsx,stimuli/Social1.png,stimuli/Social2.png,stimuli/Nonsocial2.png,stimuli/Nonsocial1.png,stimuli/Test1.png,stimuli/Test2.png,"(-0.7, -0.5)",cs_plus_ns,"(-0.7, 0.5)",cs_plus_ns,0,0,0,0,,,,,0,38,38,75,,256.2161390000256,l,0.5103233999107033,correct,,45,C,2024-01-03_15h31.53.353,gca_discrimination,2022.2.4,144.05444093221354,
positions.xlsx,stimuli.xlsx,test.xlsx,stimuli/Social1.png,stimuli/Social2.png,stimuli/Nonsocial2.png,stimuli/Nonsocial1.png,stimuli/Test1.png,stimuli/Test2.png,"(0.7, -0.5)",cs_plus_ns,"(-0.7, -0.5)",cs_plus_ns,0,0,0,0,,,,,0,39,39,82,,258.6188054000959,l,0.29106970003340393,correct,,45,C,2024-01-03_15h31.53.353,gca_discrimination,2022.2.4,144.05444093221354,
positions.xlsx,stimuli.xlsx,test.xlsx,stimuli/Social1.png,stimuli/Social2.png,stimuli/Nonsocial2.png,stimuli/Nonsocial1.png,stimuli/Test1.png,stimuli/Test2.png,"(-0.7, 0.5)",cs_plus_s,"(0.7, 0.5)",cs_plus_s,0,0,0,0,,,,,0,40,40,49,,260.8825636000838,l,1.3568547000177205,correct,,45,C,2024-01-03_15h31.53.353,gca_discrimination,2022.2.4,144.05444093221354,
positions.xlsx,stimuli.xlsx,test.xlsx,stimuli/Social1.png,stimuli/Social2.png,stimuli/Nonsocial2.png,stimuli/Nonsocial1.png,stimuli/Test1.png,stimuli/Test2.png,"(-0.7, -0.5)",cs_minus_ns,"(-0.7, 0.5)",cs_plus_ns,0,0,0,0,,,,,0,41,41,39,,264.1740871000802,ä,0.7521001000422984,correct,,45,C,2024-01-03_15h31.53.353,gca_discrimination,2022.2.4,144.05444093221354,
positions.xlsx,stimuli.xlsx,test.xlsx,stimuli/Social1.png,stimuli/Social2.png,stimuli/Nonsocial2.png,stimuli/Nonsocial1.png,stimuli/Test1.png,stimuli/Test2.png,"(0.7, 0.5)",cs_minus_s,"(-0.7, -0.5)",cs_plus_s,0,0,0,0,,,,,0,42,42,19,,266.8684874000028,ä,1.0014696000143886,correct,,45,C,2024-01-03_15h31.53.353,gca_discrimination,2022.2.4,144.05444093221354,
positions.xlsx,stimuli.xlsx,test.xlsx,stimuli/Social1.png,stimuli/Social2.png,stimuli/Nonsocial2.png,stimuli/Nonsocial1.png,stimuli/Test1.png,stimuli/Test2.png,"(0.7, 0.5)",cs_minus_s,"(-0.7, -0.5)",cs_minus_s,0,0,0,0,,,,,0,43,43,67,,269.7919734000461,l,0.5661496000830084,correct,,45,C,2024-01-03_15h31.53.353,gca_discrimination,2022.2.4,144.05444093221354,
positions.xlsx,stimuli.xlsx,test.xlsx,stimuli/Social1.png,stimuli/Social2.png,stimuli/Nonsocial2.png,stimuli/Nonsocial1.png,stimuli/Test1.png,stimuli/Test2.png,"(-0.7, -0.5)",cs_minus_s,"(-0.7, 0.5)",cs_plus_s,0,0,0,0,,,,,0,44,44,15,,272.58354180003516,ä,1.0867226999253035,correct,,45,C,2024-01-03_15h31.53.353,gca_discrimination,2022.2.4,144.05444093221354,
positions.xlsx,stimuli.xlsx,test.xlsx,stimuli/Social1.png,stimuli/Social2.png,stimuli/Nonsocial2.png,stimuli/Nonsocial1.png,stimuli/Test1.png,stimuli/Test2.png,"(0.7, 0.5)",cs_minus_ns,"(0.7, -0.5)",cs_plus_ns,0,0,0,0,,,,,0,45,45,44,,275.6181499999948,ä,0.8211648999713361,correct,,45,C,2024-01-03_15h31.53.353,gca_discrimination,2022.2.4,144.05444093221354,
positions.xlsx,stimuli.xlsx,test.xlsx,stimuli/Social1.png,stimuli/Social2.png,stimuli/Nonsocial2.png,stimuli/Nonsocial1.png,stimuli/Test1.png,stimuli/Test2.png,"(-0.7, 0.5)",cs_plus_ns,"(0.7, -0.5)",cs_minus_ns,0,0,0,0,,,,,0,46,46,26,,278.7707563000731,ä,0.6194102000445127,correct,,45,C,2024-01-03_15h31.53.353,gca_discrimination,2022.2.4,144.05444093221354,
positions.xlsx,stimuli.xlsx,test.xlsx,stimuli/Social1.png,stimuli/Social2.png,stimuli/Nonsocial2.png,stimuli/Nonsocial1.png,stimuli/Test1.png,stimuli/Test2.png,"(-0.7, 0.5)",cs_minus_ns,"(-0.7, -0.5)",cs_minus_ns,0,0,0,0,,,,,0,47,47,84,,281.4373510000296,l,0.6325254000257701,correct,,45,C,2024-01-03_15h31.53.353,gca_discrimination,2022.2.4,144.05444093221354,
positions.xlsx,stimuli.xlsx,test.xlsx,stimuli/Social1.png,stimuli/Social2.png,stimuli/Nonsocial2.png,stimuli/Nonsocial1.png,stimuli/Test1.png,stimuli/Test2.png,"(0.7, 0.5)",cs_plus_s,"(-0.7, 0.5)",cs_plus_s,0,0,0,0,,,,,0,48,48,54,,284.70807230006903,l,1.0591604000655934,correct,,45,C,2024-01-03_15h31.53.353,gca_discrimination,2022.2.4,144.05444093221354,
positions.xlsx,stimuli.xlsx,test.xlsx,stimuli/Social1.png,stimuli/Social2.png,stimuli/Nonsocial2.png,stimuli/Nonsocial1.png,stimuli/Test1.png,stimuli/Test2.png,"(-0.7, 0.5)",cs_minus_s,"(0.7, -0.5)",cs_plus_s,0,0,0,0,,,,,0,49,49,14,,287.64547760004643,ä,0.7533397000515833,correct,,45,C,2024-01-03_15h31.53.353,gca_discrimination,2022.2.4,144.05444093221354,
positions.xlsx,stimuli.xlsx,test.xlsx,stimuli/Social1.png,stimuli/Social2.png,stimuli/Nonsocial2.png,stimuli/Nonsocial1.png,stimuli/Test1.png,stimuli/Test2.png,"(-0.7, 0.5)",cs_plus_s,"(-0.7, -0.5)",cs_minus_s,0,0,0,0,,,,,0,50,50,0,,290.52034769998863,None,,no answer,,45,C,2024-01-03_15h31.53.353,gca_discrimination,2022.2.4,144.05444093221354,
positions.xlsx,stimuli.xlsx,test.xlsx,stimuli/Social1.png,stimuli/Social2.png,stimuli/Nonsocial2.png,stimuli/Nonsocial1.png,stimuli/Test1.png,stimuli/Test2.png,"(0.7, -0.5)",cs_minus_s,"(-0.7, -0.5)",cs_minus_s,0,0,0,0,,,,,0,51,51,70,,294.7354211000493,l,0.9029233000474051,correct,,45,C,2024-01-03_15h31.53.353,gca_discrimination,2022.2.4,144.05444093221354,
positions.xlsx,stimuli.xlsx,test.xlsx,stimuli/Social1.png,stimuli/Social2.png,stimuli/Nonsocial2.png,stimuli/Nonsocial1.png,stimuli/Test1.png,stimuli/Test2.png,"(-0.7, -0.5)",cs_minus_s,"(0.7, 0.5)",cs_minus_s,0,0,0,0,,,,,0,52,52,64,,297.58251520001795,l,0.6803939999081194,correct,,45,C,2024-01-03_15h31.53.353,gca_discrimination,2022.2.4,144.05444093221354,
positions.xlsx,stimuli.xlsx,test.xlsx,stimuli/Social1.png,stimuli/Social2.png,stimuli/Nonsocial2.png,stimuli/Nonsocial1.png,stimuli/Test1.png,stimuli/Test2.png,"(-0.7, -0.5)",cs_minus_ns,"(0.7, 0.5)",cs_minus_ns,0,0,0,0,,,,,0,53,53,88,,300.38802620000206,l,0.5464082999387756,correct,,45,C,2024-01-03_15h31.53.353,gca_discrimination,2022.2.4,144.05444093221354,
positions.xlsx,stimuli.xlsx,test.xlsx,stimuli/Social1.png,stimuli/Social2.png,stimuli/Nonsocial2.png,stimuli/Nonsocial1.png,stimuli/Test1.png,stimuli/Test2.png,"(-0.7, 0.5)",cs_minus_s,"(0.7, 0.5)",cs_minus_s,0,0,0,0,,,,,0,54,54,61,,303.3670370000182,l,0.5911437999457121,correct,,45,C,2024-01-03_15h31.53.353,gca_discrimination,2022.2.4,144.05444093221354,
positions.xlsx,stimuli.xlsx,test.xlsx,stimuli/Social1.png,stimuli/Social2.png,stimuli/Nonsocial2.png,stimuli/Nonsocial1.png,stimuli/Test1.png,stimuli/Test2.png,"(-0.7, 0.5)",cs_minus_s,"(-0.7, -0.5)",cs_minus_s,0,0,0,0,,,,,0,55,55,60,,306.20722260000184,l,0.4635025999741629,correct,,45,C,2024-01-03_15h31.53.353,gca_discrimination,2022.2.4,144.05444093221354,
positions.xlsx,stimuli.xlsx,test.xlsx,stimuli/Social1.png,stimuli/Social2.png,stimuli/Nonsocial2.png,stimuli/Nonsocial1.png,stimuli/Test1.png,stimuli/Test2.png,"(-0.7, -0.5)",cs_minus_ns,"(0.7, 0.5)",cs_plus_ns,0,0,0,0,,,,,0,56,56,40,,308.73489570000675,ä,0.6551907999673858,correct,,45,C,2024-01-03_15h31.53.353,gca_discrimination,2022.2.4,144.05444093221354,
positions.xlsx,stimuli.xlsx,test.xlsx,stimuli/Social1.png,stimuli/Social2.png,stimuli/Nonsocial2.png,stimuli/Nonsocial1.png,stimuli/Test1.png,stimuli/Test2.png,"(0.7, -0.5)",cs_minus_ns,"(-0.7, 0.5)",cs_minus_ns,0,0,0,0,,,,,0,57,57,93,,311.6167415000964,l,0.43912859994452447,correct,,45,C,2024-01-03_15h31.53.353,gca_discrimination,2022.2.4,144.05444093221354,
positions.xlsx,stimuli.xlsx,test.xlsx,stimuli/Social1.png,stimuli/Social2.png,stimuli/Nonsocial2.png,stimuli/Nonsocial1.png,stimuli/Test1.png,stimuli/Test2.png,"(-0.7, -0.5)",cs_plus_ns,"(0.7, 0.5)",cs_plus_ns,0,0,0,0,,,,,0,58,58,76,,314.2346676000161,l,1.2752996999770403,correct,,45,C,2024-01-03_15h31.53.353,gca_discrimination,2022.2.4,144.05444093221354,
positions.xlsx,stimuli.xlsx,test.xlsx,stimuli/Social1.png,stimuli/Social2.png,stimuli/Nonsocial2.png,stimuli/Nonsocial1.png,stimuli/Test1.png,stimuli/Test2.png,"(-0.7, -0.5)",cs_plus_ns,"(0.7, -0.5)",cs_minus_ns,0,0,0,0,,,,,0,59,59,29,,317.7067842000397,ä,0.716101200086996,correct,,45,C,2024-01-03_15h31.53.353,gca_discrimination,2022.2.4,144.05444093221354,
positions.xlsx,stimuli.xlsx,test.xlsx,stimuli/Social1.png,stimuli/Social2.png,stimuli/Nonsocial2.png,stimuli/Nonsocial1.png,stimuli/Test1.png,stimuli/Test2.png,"(0.7, -0.5)",cs_minus_ns,"(-0.7, 0.5)",cs_plus_ns,0,0,0,0,,,,,0,60,60,45,,320.3316890000133,ä,0.954241200000979,correct,,45,C,2024-01-03_15h31.53.353,gca_discrimination,2022.2.4,144.05444093221354,
positions.xlsx,stimuli.xlsx,test.xlsx,stimuli/Social1.png,stimuli/Social2.png,stimuli/Nonsocial2.png,stimuli/Nonsocial1.png,stimuli/Test1.png,stimuli/Test2.png,"(-0.7, 0.5)",cs_minus_ns,"(0.7, -0.5)",cs_minus_ns,0,0,0,0,,,,,0,61,61,86,,323.8662724000169,l,0.724466499988921,correct,,45,C,2024-01-03_15h31.53.353,gca_discrimination,2022.2.4,144.05444093221354,
positions.xlsx,stimuli.xlsx,test.xlsx,stimuli/Social1.png,stimuli/Social2.png,stimuli/Nonsocial2.png,stimuli/Nonsocial1.png,stimuli/Test1.png,stimuli/Test2.png,"(0.7, -0.5)",cs_minus_s,"(-0.7, 0.5)",cs_plus_s,0,0,0,0,,,,,0,62,62,21,,327.0744731000159,ä,0.5479378999443725,correct,,45,C,2024-01-03_15h31.53.353,gca_discrimination,2022.2.4,144.05444093221354,
positions.xlsx,stimuli.xlsx,test.xlsx,stimuli/Social1.png,stimuli/Social2.png,stimuli/Nonsocial2.png,stimuli/Nonsocial1.png,stimuli/Test1.png,stimuli/Test2.png,"(-0.7, -0.5)",cs_plus_s,"(0.7, -0.5)",cs_minus_s,0,0,0,0,,,,,0,63,63,5,,330.18547070003115,ä,1.0448069999692962,correct,,45,C,2024-01-03_15h31.53.353,gca_discrimination,2022.2.4,144.05444093221354,
positions.xlsx,stimuli.xlsx,test.xlsx,stimuli/Social1.png,stimuli/Social2.png,stimuli/Nonsocial2.png,stimuli/Nonsocial1.png,stimuli/Test1.png,stimuli/Test2.png,"(-0.7, 0.5)",cs_minus_s,"(0.7, -0.5)",cs_minus_s,0,0,0,0,,,,,0,64,64,62,,333.16451390006114,l,0.657865000073798,correct,,45,C,2024-01-03_15h31.53.353,gca_discrimination,2022.2.4,144.05444093221354,
positions.xlsx,stimuli.xlsx,test.xlsx,stimuli/Social1.png,stimuli/Social2.png,stimuli/Nonsocial2.png,stimuli/Nonsocial1.png,stimuli/Test1.png,stimuli/Test2.png,"(0.7, 0.5)",cs_plus_s,"(-0.7, 0.5)",cs_minus_s,0,0,0,0,,,,,0,65,65,6,,336.52555560006294,ä,0.6969751000870019,correct,,45,C,2024-01-03_15h31.53.353,gca_discrimination,2022.2.4,144.05444093221354,
positions.xlsx,stimuli.xlsx,test.xlsx,stimuli/Social1.png,stimuli/Social2.png,stimuli/Nonsocial2.png,stimuli/Nonsocial1.png,stimuli/Test1.png,stimuli/Test2.png,"(0.7, -0.5)",cs_plus_s,"(-0.7, -0.5)",cs_minus_s,0,0,0,0,,,,,0,66,66,10,,339.62258359999396,ä,1.1771710000466555,correct,,45,C,2024-01-03_15h31.53.353,gca_discrimination,2022.2.4,144.05444093221354,
positions.xlsx,stimuli.xlsx,test.xlsx,stimuli/Social1.png,stimuli/Social2.png,stimuli/Nonsocial2.png,stimuli/Nonsocial1.png,stimuli/Test1.png,stimuli/Test2.png,"(0.7, -0.5)",cs_plus_ns,"(-0.7, 0.5)",cs_minus_ns,0,0,0,0,,,,,0,67,67,33,,342.76134920003824,ä,0.5014221000019461,correct,,45,C,2024-01-03_15h31.53.353,gca_discrimination,2022.2.4,144.05444093221354,
positions.xlsx,stimuli.xlsx,test.xlsx,stimuli/Social1.png,stimuli/Social2.png,stimuli/Nonsocial2.png,stimuli/Nonsocial1.png,stimuli/Test1.png,stimuli/Test2.png,"(0.7, 0.5)",cs_plus_ns,"(-0.7, -0.5)",cs_minus_ns,0,0,0,0,,,,,0,68,68,31,,345.70568740007,ä,0.9884558999910951,correct,,45,C,2024-01-03_15h31.53.353,gca_discrimination,2022.2.4,144.05444093221354,
positions.xlsx,stimuli.xlsx,test.xlsx,stimuli/Social1.png,stimuli/Social2.png,stimuli/Nonsocial2.png,stimuli/Nonsocial1.png,stimuli/Test1.png,stimuli/Test2.png,"(-0.7, -0.5)",cs_plus_ns,"(0.7, -0.5)",cs_plus_ns,0,0,0,0,,,,,0,69,69,77,,349.19862050004303,l,1.0646376000950113,correct,,45,C,2024-01-03_15h31.53.353,gca_discrimination,2022.2.4,144.05444093221354,
positions.xlsx,stimuli.xlsx,test.xlsx,stimuli/Social1.png,stimuli/Social2.png,stimuli/Nonsocial2.png,stimuli/Nonsocial1.png,stimuli/Test1.png,stimuli/Test2.png,"(-0.7, -0.5)",cs_plus_s,"(0.7, -0.5)",cs_plus_s,0,0,0,0,,,,,0,70,70,53,,352.9276459000539,l,1.6554371000966057,correct,,45,C,2024-01-03_15h31.53.353,gca_discrimination,2022.2.4,144.05444093221354,
positions.xlsx,stimuli.xlsx,test.xlsx,stimuli/Social1.png,stimuli/Social2.png,stimuli/Nonsocial2.png,stimuli/Nonsocial1.png,stimuli/Test1.png,stimuli/Test2.png,"(-0.7, 0.5)",cs_minus_ns,"(-0.7, -0.5)",cs_plus_ns,0,0,0,0,,,,,0,71,71,36,,357.29552150005475,ä,1.094950700062327,correct,,45,C,2024-01-03_15h31.53.353,gca_discrimination,2022.2.4,144.05444093221354,
positions.xlsx,stimuli.xlsx,test.xlsx,stimuli/Social1.png,stimuli/Social2.png,stimuli/Nonsocial2.png,stimuli/Nonsocial1.png,stimuli/Test1.png,stimuli/Test2.png,"(0.7, 0.5)",cs_minus_ns,"(-0.7, -0.5)",cs_plus_ns,0,0,0,0,,,,,0,72,72,43,,360.71207090001553,ä,1.5267470999388024,correct,,45,C,2024-01-03_15h31.53.353,gca_discrimination,2022.2.4,144.05444093221354,
positions.xlsx,stimuli.xlsx,test.xlsx,stimuli/Social1.png,stimuli/Social2.png,stimuli/Nonsocial2.png,stimuli/Nonsocial1.png,stimuli/Test1.png,stimuli/Test2.png,"(0.7, -0.5)",cs_plus_ns,"(-0.7, -0.5)",cs_minus_ns,0,0,0,0,,,,,0,73,73,34,,364.29521490004845,ä,0.5046694000484422,correct,,45,C,2024-01-03_15h31.53.353,gca_discrimination,2022.2.4,144.05444093221354,
positions.xlsx,stimuli.xlsx,test.xlsx,stimuli/Social1.png,stimuli/Social2.png,stimuli/Nonsocial2.png,stimuli/Nonsocial1.png,stimuli/Test1.png,stimuli/Test2.png,"(-0.7, -0.5)",cs_minus_s,"(0.7, -0.5)",cs_minus_s,0,0,0,0,,,,,0,74,74,65,,367.3576133000897,l,1.0410953999962658,correct,,45,C,2024-01-03_15h31.53.353,gca_discrimination,2022.2.4,144.05444093221354,
positions.xlsx,stimuli.xlsx,test.xlsx,stimuli/Social1.png,stimuli/Social2.png,stimuli/Nonsocial2.png,stimuli/Nonsocial1.png,stimuli/Test1.png,stimuli/Test2.png,"(-0.7, -0.5)",cs_minus_ns,"(-0.7, 0.5)",cs_minus_ns,0,0,0,0,,,,,0,75,75,87,,370.44780620001256,ä,1.295289499917999,wrong,,45,C,2024-01-03_15h31.53.353,gca_discrimination,2022.2.4,144.05444093221354,
positions.xlsx,stimuli.xlsx,test.xlsx,stimuli/Social1.png,stimuli/Social2.png,stimuli/Nonsocial2.png,stimuli/Nonsocial1.png,stimuli/Test1.png,stimuli/Test2.png,"(0.7, -0.5)",cs_plus_ns,"(0.7, 0.5)",cs_minus_ns,0,0,0,0,,,,,0,76,76,35,,374.33652890007943,ä,0.8775883000344038,correct,,45,C,2024-01-03_15h31.53.353,gca_discrimination,2022.2.4,144.05444093221354,
positions.xlsx,stimuli.xlsx,test.xlsx,stimuli/Social1.png,stimuli/Social2.png,stimuli/Nonsocial2.png,stimuli/Nonsocial1.png,stimuli/Test1.png,stimuli/Test2.png,"(0.7, 0.5)",cs_minus_s,"(-0.7, 0.5)",cs_minus_s,0,0,0,0,,,,,0,77,77,66,,377.98917270009406,None,,no answer,,45,C,2024-01-03_15h31.53.353,gca_discrimination,2022.2.4,144.05444093221354,
positions.xlsx,stimuli.xlsx,test.xlsx,stimuli/Social1.png,stimuli/Social2.png,stimuli/Nonsocial2.png,stimuli/Nonsocial1.png,stimuli/Test1.png,stimuli/Test2.png,"(-0.7, 0.5)",cs_plus_s,"(0.7, -0.5)",cs_minus_s,0,0,0,0,,,,,0,78,78,2,,381.9403934000293,ä,0.41774249996524304,correct,,45,C,2024-01-03_15h31.53.353,gca_discrimination,2022.2.4,144.05444093221354,
positions.xlsx,stimuli.xlsx,test.xlsx,stimuli/Social1.png,stimuli/Social2.png,stimuli/Nonsocial2.png,stimuli/Nonsocial1.png,stimuli/Test1.png,stimuli/Test2.png,"(0.7, 0.5)",cs_plus_ns,"(-0.7, -0.5)",cs_plus_ns,0,0,0,0,,,,,0,79,79,79,,384.1833948000567,l,1.0869060000404716,correct,,45,C,2024-01-03_15h31.53.353,gca_discrimination,2022.2.4,144.05444093221354,
positions.xlsx,stimuli.xlsx,test.xlsx,stimuli/Social1.png,stimuli/Social2.png,stimuli/Nonsocial2.png,stimuli/Nonsocial1.png,stimuli/Test1.png,stimuli/Test2.png,"(0.7, 0.5)",cs_plus_ns,"(-0.7, 0.5)",cs_plus_ns,0,0,0,0,,,,,0,80,80,78,,387.20409430004656,l,0.6592196000274271,correct,,45,C,2024-01-03_15h31.53.353,gca_discrimination,2022.2.4,144.05444093221354,
positions.xlsx,stimuli.xlsx,test.xlsx,stimuli/Social1.png,stimuli/Social2.png,stimuli/Nonsocial2.png,stimuli/Nonsocial1.png,stimuli/Test1.png,stimuli/Test2.png,"(-0.7, -0.5)",cs_minus_s,"(0.7, -0.5)",cs_plus_s,0,0,0,0,,,,,0,81,81,17,,390.60673070000485,ä,0.5364964000182226,correct,,45,C,2024-01-03_15h31.53.353,gca_discrimination,2022.2.4,144.05444093221354,
positions.xlsx,stimuli.xlsx,test.xlsx,stimuli/Social1.png,stimuli/Social2.png,stimuli/Nonsocial2.png,stimuli/Nonsocial1.png,stimuli/Test1.png,stimuli/Test2.png,"(-0.7, 0.5)",cs_plus_s,"(0.7, 0.5)",cs_minus_s,0,0,0,0,,,,,0,82,82,1,,393.20387060008943,ä,0.44272129994351417,correct,,45,C,2024-01-03_15h31.53.353,gca_discrimination,2022.2.4,144.05444093221354,
positions.xlsx,stimuli.xlsx,test.xlsx,stimuli/Social1.png,stimuli/Social2.png,stimuli/Nonsocial2.png,stimuli/Nonsocial1.png,stimuli/Test1.png,stimuli/Test2.png,"(0.7, -0.5)",cs_plus_ns,"(0.7, 0.5)",cs_plus_ns,0,0,0,0,,,,,0,83,83,83,,395.73849900008645,l,0.46824499999638647,correct,,45,C,2024-01-03_15h31.53.353,gca_discrimination,2022.2.4,144.05444093221354,
positions.xlsx,stimuli.xlsx,test.xlsx,stimuli/Social1.png,stimuli/Social2.png,stimuli/Nonsocial2.png,stimuli/Nonsocial1.png,stimuli/Test1.png,stimuli/Test2.png,"(0.7, -0.5)",cs_minus_ns,"(-0.7, -0.5)",cs_plus_ns,0,0,0,0,,,,,0,84,84,46,,398.34947270003613,ä,0.712753799976781,correct,,45,C,2024-01-03_15h31.53.353,gca_discrimination,2022.2.4,144.05444093221354,
positions.xlsx,stimuli.xlsx,test.xlsx,stimuli/Social1.png,stimuli/Social2.png,stimuli/Nonsocial2.png,stimuli/Nonsocial1.png,stimuli/Test1.png,stimuli/Test2.png,"(0.7, 0.5)",cs_minus_ns,"(0.7, -0.5)",cs_minus_ns,0,0,0,0,,,,,0,85,85,92,,401.321595299989,l,1.0692010000348091,correct,,45,C,2024-01-03_15h31.53.353,gca_discrimination,2022.2.4,144.05444093221354,
positions.xlsx,stimuli.xlsx,test.xlsx,stimuli/Social1.png,stimuli/Social2.png,stimuli/Nonsocial2.png,stimuli/Nonsocial1.png,stimuli/Test1.png,stimuli/Test2.png,"(0.7, 0.5)",cs_plus_ns,"(-0.7, 0.5)",cs_minus_ns,0,0,0,0,,,,,0,86,86,30,,404.9117286000401,ä,0.35831110004801303,correct,,45,C,2024-01-03_15h31.53.353,gca_discrimination,2022.2.4,144.05444093221354,
positions.xlsx,stimuli.xlsx,test.xlsx,stimuli/Social1.png,stimuli/Social2.png,stimuli/Nonsocial2.png,stimuli/Nonsocial1.png,stimuli/Test1.png,stimuli/Test2.png,"(0.7, -0.5)",cs_plus_s,"(0.7, 0.5)",cs_plus_s,0,0,0,0,,,,,0,87,87,59,,407.67551750002895,l,0.9070789999095723,correct,,45,C,2024-01-03_15h31.53.353,gca_discrimination,2022.2.4,144.05444093221354,
positions.xlsx,stimuli.xlsx,test.xlsx,stimuli/Social1.png,stimuli/Social2.png,stimuli/Nonsocial2.png,stimuli/Nonsocial1.png,stimuli/Test1.png,stimuli/Test2.png,"(-0.7, 0.5)",cs_plus_ns,"(0.7, -0.5)",cs_plus_ns,0,0,0,0,,,,,0,88,88,74,,410.5434780000942,l,0.8635422000661492,correct,,45,C,2024-01-03_15h31.53.353,gca_discrimination,2022.2.4,144.05444093221354,
positions.xlsx,stimuli.xlsx,test.xlsx,stimuli/Social1.png,stimuli/Social2.png,stimuli/Nonsocial2.png,stimuli/Nonsocial1.png,stimuli/Test1.png,stimuli/Test2.png,"(0.7, -0.5)",cs_minus_s,"(-0.7, 0.5)",cs_minus_s,0,0,0,0,,,,,0,89,89,69,,413.46003339998424,l,0.7149257999844849,correct,,45,C,2024-01-03_15h31.53.353,gca_discrimination,2022.2.4,144.05444093221354,
positions.xlsx,stimuli.xlsx,test.xlsx,stimuli/Social1.png,stimuli/Social2.png,stimuli/Nonsocial2.png,stimuli/Nonsocial1.png,stimuli/Test1.png,stimuli/Test2.png,"(-0.7, -0.5)",cs_minus_ns,"(0.7, -0.5)",cs_plus_ns,0,0,0,0,,,,,0,90,90,41,,416.19604150007945,ä,0.6518635000102222,correct,,45,C,2024-01-03_15h31.53.353,gca_discrimination,2022.2.4,144.05444093221354,
positions.xlsx,stimuli.xlsx,test.xlsx,stimuli/Social1.png,stimuli/Social2.png,stimuli/Nonsocial2.png,stimuli/Nonsocial1.png,stimuli/Test1.png,stimuli/Test2.png,"(0.7, -0.5)",cs_minus_s,"(-0.7, -0.5)",cs_plus_s,0,0,0,0,,,,,0,91,91,22,,418.8070215000771,ä,0.744499700027518,correct,,45,C,2024-01-03_15h31.53.353,gca_discrimination,2022.2.4,144.05444093221354,
positions.xlsx,stimuli.xlsx,test.xlsx,stimuli/Social1.png,stimuli/Social2.png,stimuli/Nonsocial2.png,stimuli/Nonsocial1.png,stimuli/Test1.png,stimuli/Test2.png,"(-0.7, -0.5)",cs_plus_ns,"(0.7, 0.5)",cs_minus_ns,0,0,0,0,,,,,0,92,92,28,,421.83474630001,ä,0.6439907000167295,correct,,45,C,2024-01-03_15h31.53.353,gca_discrimination,2022.2.4,144.05444093221354,
positions.xlsx,stimuli.xlsx,test.xlsx,stimuli/Social1.png,stimuli/Social2.png,stimuli/Nonsocial2.png,stimuli/Nonsocial1.png,stimuli/Test1.png,stimuli/Test2.png,"(0.7, 0.5)",cs_plus_ns,"(0.7, -0.5)",cs_plus_ns,0,0,0,0,,,,,0,93,93,80,,424.3346842000028,l,0.7193132999818772,correct,,45,C,2024-01-03_15h31.53.353,gca_discrimination,2022.2.4,144.05444093221354,
positions.xlsx,stimuli.xlsx,test.xlsx,stimuli/Social1.png,stimuli/Social2.png,stimuli/Nonsocial2.png,stimuli/Nonsocial1.png,stimuli/Test1.png,stimuli/Test2.png,"(0.7, 0.5)",cs_plus_s,"(0.7, -0.5)",cs_plus_s,0,0,0,0,,,,,0,94,94,56,,426.8970339000225,l,0.8457763999467716,correct,,45,C,2024-01-03_15h31.53.353,gca_discrimination,2022.2.4,144.05444093221354,
positions.xlsx,stimuli.xlsx,test.xlsx,stimuli/Social1.png,stimuli/Social2.png,stimuli/Nonsocial2.png,stimuli/Nonsocial1.png,stimuli/Test1.png,stimuli/Test2.png,"(0.7, -0.5)",cs_plus_s,"(0.7, 0.5)",cs_minus_s,0,0,0,0,,,,,0,95,95,11,,429.70246130006853,ä,0.7602154000196606,correct,,45,C,2024-01-03_15h31.53.353,gca_discrimination,2022.2.4,144.05444093221354,
