posFile,stimFile,testFile,cs_plus_s,cs_minus_s,cs_plus_ns,cs_minus_ns,test1,test2,position1,trialtype,position2,comptype,blocks.thisRepN,blocks.thisTrialN,blocks.thisN,blocks.thisIndex,learning_trials.thisRepN,learning_trials.thisTrialN,learning_trials.thisN,learning_trials.thisIndex,trials.thisRepN,trials.thisTrialN,trials.thisN,trials.thisIndex,textStart.started,key.started,key.keys,key.rt,correctness,textStartTask.started,participant,group,date,expName,psychopyVersion,frameRate,
positions.xlsx,stimuli.xlsx,test.xlsx,stimuli/Social2.png,stimuli/Social1.png,stimuli/Nonsocial1.png,stimuli/Nonsocial2.png,stimuli/Test1.png,stimuli/Test2.png,"(-0.7, -0.5)",test1,"(0.7, 0.5)",test2,0,0,0,0,0,0,0,8,,,,,10.111488800030202,54.15147479996085,l,1.834155899938196,correct,,36,B,2023-12-18_11h06.51.677,gca_discrimination,2022.2.4,143.86377838052638,
positions.xlsx,stimuli.xlsx,test.xlsx,stimuli/Social2.png,stimuli/Social1.png,stimuli/Nonsocial1.png,stimuli/Nonsocial2.png,stimuli/Test1.png,stimuli/Test2.png,"(-0.7, 0.5)",test1,"(0.7, -0.5)",test1,0,0,0,0,0,1,1,5,,,,,,60.74147939996328,ä,0.6376201999373734,correct,,36,B,2023-12-18_11h06.51.677,gca_discrimination,2022.2.4,143.86377838052638,
positions.xlsx,stimuli.xlsx,test.xlsx,stimuli/Social2.png,stimuli/Social1.png,stimuli/Nonsocial1.png,stimuli/Nonsocial2.png,stimuli/Test1.png,stimuli/Test2.png,"(-0.7, -0.5)",test2,"(-0.7, 0.5)",test2,0,0,0,0,0,2,2,2,,,,,,65.31768999993801,ä,0.9004897000268102,correct,,36,B,2023-12-18_11h06.51.677,gca_discrimination,2022.2.4,143.86377838052638,
positions.xlsx,stimuli.xlsx,test.xlsx,stimuli/Social2.png,stimuli/Social1.png,stimuli/Nonsocial1.png,stimuli/Nonsocial2.png,stimuli/Test1.png,stimuli/Test2.png,"(-0.7, 0.5)",test2,"(0.7, -0.5)",test1,0,0,0,0,0,3,3,12,,,,,,70.17862459993921,l,0.6556809999747202,correct,,36,B,2023-12-18_11h06.51.677,gca_discrimination,2022.2.4,143.86377838052638,
positions.xlsx,stimuli.xlsx,test.xlsx,stimuli/Social2.png,stimuli/Social1.png,stimuli/Nonsocial1.png,stimuli/Nonsocial2.png,stimuli/Test1.png,stimuli/Test2.png,"(-0.7, -0.5)",test2,"(0.7, -0.5)",test2,0,0,0,0,0,4,4,9,,,,,,74.88677850004751,ä,0.6749428999610245,correct,,36,B,2023-12-18_11h06.51.677,gca_discrimination,2022.2.4,143.86377838052638,
positions.xlsx,stimuli.xlsx,test.xlsx,stimuli/Social2.png,stimuli/Social1.png,stimuli/Nonsocial1.png,stimuli/Nonsocial2.png,stimuli/Test1.png,stimuli/Test2.png,"(-0.7, -0.5)",test2,"(0.7, 0.5)",test2,0,0,0,0,0,5,5,7,,,,,,79.71992499998305,ä,0.3540964999701828,correct,,36,B,2023-12-18_11h06.51.677,gca_discrimination,2022.2.4,143.86377838052638,
positions.xlsx,stimuli.xlsx,test.xlsx,stimuli/Social2.png,stimuli/Social1.png,stimuli/Nonsocial1.png,stimuli/Nonsocial2.png,stimuli/Test1.png,stimuli/Test2.png,"(0.7, 0.5)",test1,"(0.7, -0.5)",test2,0,0,0,0,0,6,6,11,,,,,,84.62942210002802,l,0.5728799999924377,correct,,36,B,2023-12-18_11h06.51.677,gca_discrimination,2022.2.4,143.86377838052638,
positions.xlsx,stimuli.xlsx,test.xlsx,stimuli/Social2.png,stimuli/Social1.png,stimuli/Nonsocial1.png,stimuli/Nonsocial2.png,stimuli/Test1.png,stimuli/Test2.png,"(0.7, -0.5)",test1,"(0.7, 0.5)",test1,0,0,0,0,0,7,7,10,,,,,,89.46952309994958,ä,0.35775680001825094,correct,,36,B,2023-12-18_11h06.51.677,gca_discrimination,2022.2.4,143.86377838052638,
positions.xlsx,stimuli.xlsx,test.xlsx,stimuli/Social2.png,stimuli/Social1.png,stimuli/Nonsocial1.png,stimuli/Nonsocial2.png,stimuli/Test1.png,stimuli/Test2.png,"(0.7, -0.5)",test1,"(0.7, 0.5)",test2,0,0,0,0,0,8,8,0,,,,,,94.49016020004638,l,0.423573000007309,correct,,36,B,2023-12-18_11h06.51.677,gca_discrimination,2022.2.4,143.86377838052638,
positions.xlsx,stimuli.xlsx,test.xlsx,stimuli/Social2.png,stimuli/Social1.png,stimuli/Nonsocial1.png,stimuli/Nonsocial2.png,stimuli/Test1.png,stimuli/Test2.png,"(0.7, -0.5)",test2,"(-0.7, 0.5)",test1,0,0,0,0,0,9,9,4,,,,,,99.33025420003105,ä,0.624272600049153,wrong,,36,B,2023-12-18_11h06.51.677,gca_discrimination,2022.2.4,143.86377838052638,
positions.xlsx,stimuli.xlsx,test.xlsx,stimuli/Social2.png,stimuli/Social1.png,stimuli/Nonsocial1.png,stimuli/Nonsocial2.png,stimuli/Test1.png,stimuli/Test2.png,"(0.7, 0.5)",test2,"(0.7, -0.5)",test1,0,0,0,0,0,10,10,6,,,,,,103.97588779998478,l,0.5788269999902695,correct,,36,B,2023-12-18_11h06.51.677,gca_discrimination,2022.2.4,143.86377838052638,
positions.xlsx,stimuli.xlsx,test.xlsx,stimuli/Social2.png,stimuli/Social1.png,stimuli/Nonsocial1.png,stimuli/Nonsocial2.png,stimuli/Test1.png,stimuli/Test2.png,"(0.7, 0.5)",test2,"(-0.7, 0.5)",test1,0,0,0,0,0,11,11,13,,,,,,108.80903699994087,l,0.736945700016804,correct,,36,B,2023-12-18_11h06.51.677,gca_discrimination,2022.2.4,143.86377838052638,
positions.xlsx,stimuli.xlsx,test.xlsx,stimuli/Social2.png,stimuli/Social1.png,stimuli/Nonsocial1.png,stimuli/Nonsocial2.png,stimuli/Test1.png,stimuli/Test2.png,"(-0.7, 0.5)",test2,"(-0.7, -0.5)",test2,0,0,0,0,0,12,12,1,,,,,,113.69772729999386,ä,0.5524567998945713,correct,,36,B,2023-12-18_11h06.51.677,gca_discrimination,2022.2.4,143.86377838052638,
positions.xlsx,stimuli.xlsx,test.xlsx,stimuli/Social2.png,stimuli/Social1.png,stimuli/Nonsocial1.png,stimuli/Nonsocial2.png,stimuli/Test1.png,stimuli/Test2.png,"(-0.7, 0.5)",test2,"(0.7, 0.5)",test1,0,0,0,0,0,13,13,3,,,,,,118.51698710001074,l,0.49316900002304465,correct,,36,B,2023-12-18_11h06.51.677,gca_discrimination,2022.2.4,143.86377838052638,
positions.xlsx,stimuli.xlsx,test.xlsx,stimuli/Social2.png,stimuli/Social1.png,stimuli/Nonsocial1.png,stimuli/Nonsocial2.png,stimuli/Test1.png,stimuli/Test2.png,"(0.7, -0.5)",cs_minus_s,"(0.7, 0.5)",cs_minus_s,0,0,0,0,,,,,0,0,0,71,,136.53017489996273,ä,0.9197351000038907,correct,121.38491439993959,36,B,2023-12-18_11h06.51.677,gca_discrimination,2022.2.4,143.86377838052638,
positions.xlsx,stimuli.xlsx,test.xlsx,stimuli/Social2.png,stimuli/Social1.png,stimuli/Nonsocial1.png,stimuli/Nonsocial2.png,stimuli/Test1.png,stimuli/Test2.png,"(0.7, -0.5)",cs_minus_s,"(-0.7, -0.5)",cs_plus_s,0,0,0,0,,,,,0,1,1,22,,139.87031000002753,l,0.7393268999876454,correct,,36,B,2023-12-18_11h06.51.677,gca_discrimination,2022.2.4,143.86377838052638,
positions.xlsx,stimuli.xlsx,test.xlsx,stimuli/Social2.png,stimuli/Social1.png,stimuli/Nonsocial1.png,stimuli/Nonsocial2.png,stimuli/Test1.png,stimuli/Test2.png,"(0.7, -0.5)",cs_minus_ns,"(0.7, 0.5)",cs_minus_ns,0,0,0,0,,,,,0,2,2,95,,142.95351370004937,ä,0.9925911000464112,correct,,36,B,2023-12-18_11h06.51.677,gca_discrimination,2022.2.4,143.86377838052638,
positions.xlsx,stimuli.xlsx,test.xlsx,stimuli/Social2.png,stimuli/Social1.png,stimuli/Nonsocial1.png,stimuli/Nonsocial2.png,stimuli/Test1.png,stimuli/Test2.png,"(0.7, 0.5)",cs_minus_ns,"(-0.7, -0.5)",cs_minus_ns,0,0,0,0,,,,,0,3,3,91,,146.52282449998893,ä,0.4312089999439195,correct,,36,B,2023-12-18_11h06.51.677,gca_discrimination,2022.2.4,143.86377838052638,
positions.xlsx,stimuli.xlsx,test.xlsx,stimuli/Social2.png,stimuli/Social1.png,stimuli/Nonsocial1.png,stimuli/Nonsocial2.png,stimuli/Test1.png,stimuli/Test2.png,"(-0.7, -0.5)",cs_plus_ns,"(-0.7, 0.5)",cs_plus_ns,0,0,0,0,,,,,0,4,4,75,,149.43243399995845,ä,0.5784491000231355,correct,,36,B,2023-12-18_11h06.51.677,gca_discrimination,2022.2.4,143.86377838052638,
positions.xlsx,stimuli.xlsx,test.xlsx,stimuli/Social2.png,stimuli/Social1.png,stimuli/Nonsocial1.png,stimuli/Nonsocial2.png,stimuli/Test1.png,stimuli/Test2.png,"(-0.7, 0.5)",cs_plus_ns,"(0.7, 0.5)",cs_minus_ns,0,0,0,0,,,,,0,5,5,25,,151.86289710004348,l,0.5315217999741435,correct,,36,B,2023-12-18_11h06.51.677,gca_discrimination,2022.2.4,143.86377838052638,
positions.xlsx,stimuli.xlsx,test.xlsx,stimuli/Social2.png,stimuli/Social1.png,stimuli/Nonsocial1.png,stimuli/Nonsocial2.png,stimuli/Test1.png,stimuli/Test2.png,"(-0.7, -0.5)",cs_minus_ns,"(-0.7, 0.5)",cs_minus_ns,0,0,0,0,,,,,0,6,6,87,,154.3280460999813,ä,0.47438919998239726,correct,,36,B,2023-12-18_11h06.51.677,gca_discrimination,2022.2.4,143.86377838052638,
positions.xlsx,stimuli.xlsx,test.xlsx,stimuli/Social2.png,stimuli/Social1.png,stimuli/Nonsocial1.png,stimuli/Nonsocial2.png,stimuli/Test1.png,stimuli/Test2.png,"(0.7, 0.5)",cs_plus_s,"(-0.7, -0.5)",cs_minus_s,0,0,0,0,,,,,0,7,7,7,,156.85574379994068,l,0.6825686999363825,correct,,36,B,2023-12-18_11h06.51.677,gca_discrimination,2022.2.4,143.86377838052638,
positions.xlsx,stimuli.xlsx,test.xlsx,stimuli/Social2.png,stimuli/Social1.png,stimuli/Nonsocial1.png,stimuli/Nonsocial2.png,stimuli/Test1.png,stimuli/Test2.png,"(0.7, 0.5)",cs_minus_s,"(-0.7, -0.5)",cs_plus_s,0,0,0,0,,,,,0,8,8,19,,159.952864699997,l,0.38518259988632053,correct,,36,B,2023-12-18_11h06.51.677,gca_discrimination,2022.2.4,143.86377838052638,
positions.xlsx,stimuli.xlsx,test.xlsx,stimuli/Social2.png,stimuli/Social1.png,stimuli/Nonsocial1.png,stimuli/Nonsocial2.png,stimuli/Test1.png,stimuli/Test2.png,"(-0.7, -0.5)",cs_minus_ns,"(0.7, -0.5)",cs_minus_ns,0,0,0,0,,,,,0,9,9,89,,162.6957830999745,ä,0.5300163999199867,correct,,36,B,2023-12-18_11h06.51.677,gca_discrimination,2022.2.4,143.86377838052638,
positions.xlsx,stimuli.xlsx,test.xlsx,stimuli/Social2.png,stimuli/Social1.png,stimuli/Nonsocial1.png,stimuli/Nonsocial2.png,stimuli/Test1.png,stimuli/Test2.png,"(-0.7, -0.5)",cs_plus_ns,"(0.7, 0.5)",cs_minus_ns,0,0,0,0,,,,,0,10,10,28,,165.28599250002299,ä,0.4685896000592038,wrong,,36,B,2023-12-18_11h06.51.677,gca_discrimination,2022.2.4,143.86377838052638,
positions.xlsx,stimuli.xlsx,test.xlsx,stimuli/Social2.png,stimuli/Social1.png,stimuli/Nonsocial1.png,stimuli/Nonsocial2.png,stimuli/Test1.png,stimuli/Test2.png,"(-0.7, -0.5)",cs_minus_s,"(0.7, -0.5)",cs_plus_s,0,0,0,0,,,,,0,11,11,17,,167.7581367000239,l,0.7565813000546768,correct,,36,B,2023-12-18_11h06.51.677,gca_discrimination,2022.2.4,143.86377838052638,
positions.xlsx,stimuli.xlsx,test.xlsx,stimuli/Social2.png,stimuli/Social1.png,stimuli/Nonsocial1.png,stimuli/Nonsocial2.png,stimuli/Test1.png,stimuli/Test2.png,"(-0.7, 0.5)",cs_minus_s,"(-0.7, -0.5)",cs_minus_s,0,0,0,0,,,,,0,12,12,60,,170.7371581000043,ä,0.5684822000330314,correct,,36,B,2023-12-18_11h06.51.677,gca_discrimination,2022.2.4,143.86377838052638,
positions.xlsx,stimuli.xlsx,test.xlsx,stimuli/Social2.png,stimuli/Social1.png,stimuli/Nonsocial1.png,stimuli/Nonsocial2.png,stimuli/Test1.png,stimuli/Test2.png,"(0.7, -0.5)",cs_plus_ns,"(0.7, 0.5)",cs_minus_ns,0,0,0,0,,,,,0,13,13,35,,173.13986690004822,l,0.5901799999410287,correct,,36,B,2023-12-18_11h06.51.677,gca_discrimination,2022.2.4,143.86377838052638,
positions.xlsx,stimuli.xlsx,test.xlsx,stimuli/Social2.png,stimuli/Social1.png,stimuli/Nonsocial1.png,stimuli/Nonsocial2.png,stimuli/Test1.png,stimuli/Test2.png,"(-0.7, 0.5)",cs_minus_s,"(0.7, -0.5)",cs_plus_s,0,0,0,0,,,,,0,14,14,14,,175.97999260004144,l,0.6064199999673292,correct,,36,B,2023-12-18_11h06.51.677,gca_discrimination,2022.2.4,143.86377838052638,
positions.xlsx,stimuli.xlsx,test.xlsx,stimuli/Social2.png,stimuli/Social1.png,stimuli/Nonsocial1.png,stimuli/Nonsocial2.png,stimuli/Test1.png,stimuli/Test2.png,"(-0.7, 0.5)",cs_plus_s,"(-0.7, -0.5)",cs_minus_s,0,0,0,0,,,,,0,15,15,0,,178.77158039994538,l,0.5513909000437707,correct,,36,B,2023-12-18_11h06.51.677,gca_discrimination,2022.2.4,143.86377838052638,
positions.xlsx,stimuli.xlsx,test.xlsx,stimuli/Social2.png,stimuli/Social1.png,stimuli/Nonsocial1.png,stimuli/Nonsocial2.png,stimuli/Test1.png,stimuli/Test2.png,"(0.7, 0.5)",cs_plus_s,"(-0.7, -0.5)",cs_plus_s,0,0,0,0,,,,,0,16,16,55,,181.632591499947,ä,0.6410753999371082,correct,,36,B,2023-12-18_11h06.51.677,gca_discrimination,2022.2.4,143.86377838052638,
positions.xlsx,stimuli.xlsx,test.xlsx,stimuli/Social2.png,stimuli/Social1.png,stimuli/Nonsocial1.png,stimuli/Nonsocial2.png,stimuli/Test1.png,stimuli/Test2.png,"(0.7, 0.5)",cs_minus_s,"(-0.7, -0.5)",cs_minus_s,0,0,0,0,,,,,0,17,17,67,,184.95886649994645,ä,0.6127027999609709,correct,,36,B,2023-12-18_11h06.51.677,gca_discrimination,2022.2.4,143.86377838052638,
positions.xlsx,stimuli.xlsx,test.xlsx,stimuli/Social2.png,stimuli/Social1.png,stimuli/Nonsocial1.png,stimuli/Nonsocial2.png,stimuli/Test1.png,stimuli/Test2.png,"(-0.7, 0.5)",cs_plus_ns,"(0.7, -0.5)",cs_minus_ns,0,0,0,0,,,,,0,18,18,26,,187.93091969995294,l,0.550772299990058,correct,,36,B,2023-12-18_11h06.51.677,gca_discrimination,2022.2.4,143.86377838052638,
positions.xlsx,stimuli.xlsx,test.xlsx,stimuli/Social2.png,stimuli/Social1.png,stimuli/Nonsocial1.png,stimuli/Nonsocial2.png,stimuli/Test1.png,stimuli/Test2.png,"(-0.7, -0.5)",cs_plus_s,"(0.7, 0.5)",cs_plus_s,0,0,0,0,,,,,0,19,19,52,,190.55585390003398,ä,0.5430171999614686,correct,,36,B,2023-12-18_11h06.51.677,gca_discrimination,2022.2.4,143.86377838052638,
positions.xlsx,stimuli.xlsx,test.xlsx,stimuli/Social2.png,stimuli/Social1.png,stimuli/Nonsocial1.png,stimuli/Nonsocial2.png,stimuli/Test1.png,stimuli/Test2.png,"(-0.7, 0.5)",cs_minus_ns,"(-0.7, -0.5)",cs_minus_ns,0,0,0,0,,,,,0,20,20,84,,193.57656219997443,ä,0.5290284999646246,correct,,36,B,2023-12-18_11h06.51.677,gca_discrimination,2022.2.4,143.86377838052638,
positions.xlsx,stimuli.xlsx,test.xlsx,stimuli/Social2.png,stimuli/Social1.png,stimuli/Nonsocial1.png,stimuli/Nonsocial2.png,stimuli/Test1.png,stimuli/Test2.png,"(-0.7, -0.5)",cs_minus_ns,"(-0.7, 0.5)",cs_plus_ns,0,0,0,0,,,,,0,21,21,39,,196.79168669995852,l,0.49045529996510595,correct,,36,B,2023-12-18_11h06.51.677,gca_discrimination,2022.2.4,143.86377838052638,
positions.xlsx,stimuli.xlsx,test.xlsx,stimuli/Social2.png,stimuli/Social1.png,stimuli/Nonsocial1.png,stimuli/Nonsocial2.png,stimuli/Test1.png,stimuli/Test2.png,"(-0.7, 0.5)",cs_minus_ns,"(-0.7, -0.5)",cs_plus_ns,0,0,0,0,,,,,0,22,22,36,,199.69435180001892,l,0.6680730000371113,correct,,36,B,2023-12-18_11h06.51.677,gca_discrimination,2022.2.4,143.86377838052638,
positions.xlsx,stimuli.xlsx,test.xlsx,stimuli/Social2.png,stimuli/Social1.png,stimuli/Nonsocial1.png,stimuli/Nonsocial2.png,stimuli/Test1.png,stimuli/Test2.png,"(0.7, -0.5)",cs_plus_s,"(-0.7, 0.5)",cs_plus_s,0,0,0,0,,,,,0,23,23,57,,202.63870260003023,ä,0.5230350000783801,correct,,36,B,2023-12-18_11h06.51.677,gca_discrimination,2022.2.4,143.86377838052638,
positions.xlsx,stimuli.xlsx,test.xlsx,stimuli/Social2.png,stimuli/Social1.png,stimuli/Nonsocial1.png,stimuli/Nonsocial2.png,stimuli/Test1.png,stimuli/Test2.png,"(-0.7, 0.5)",cs_plus_s,"(-0.7, -0.5)",cs_plus_s,0,0,0,0,,,,,0,24,24,48,,204.98581450001802,ä,0.32078270008787513,correct,,36,B,2023-12-18_11h06.51.677,gca_discrimination,2022.2.4,143.86377838052638,
positions.xlsx,stimuli.xlsx,test.xlsx,stimuli/Social2.png,stimuli/Social1.png,stimuli/Nonsocial1.png,stimuli/Nonsocial2.png,stimuli/Test1.png,stimuli/Test2.png,"(-0.7, -0.5)",cs_minus_s,"(0.7, 0.5)",cs_minus_s,0,0,0,0,,,,,0,25,25,64,,208.07597480004188,ä,0.5821823000442237,correct,,36,B,2023-12-18_11h06.51.677,gca_discrimination,2022.2.4,143.86377838052638,
positions.xlsx,stimuli.xlsx,test.xlsx,stimuli/Social2.png,stimuli/Social1.png,stimuli/Nonsocial1.png,stimuli/Nonsocial2.png,stimuli/Test1.png,stimuli/Test2.png,"(0.7, 0.5)",cs_plus_ns,"(-0.7, 0.5)",cs_plus_ns,0,0,0,0,,,,,0,26,26,78,,211.23560629994608,ä,0.3671783999307081,correct,,36,B,2023-12-18_11h06.51.677,gca_discrimination,2022.2.4,143.86377838052638,
positions.xlsx,stimuli.xlsx,test.xlsx,stimuli/Social2.png,stimuli/Social1.png,stimuli/Nonsocial1.png,stimuli/Nonsocial2.png,stimuli/Test1.png,stimuli/Test2.png,"(0.7, -0.5)",cs_plus_s,"(-0.7, 0.5)",cs_minus_s,0,0,0,0,,,,,0,27,27,9,,214.19383190001827,l,0.6243544000899419,correct,,36,B,2023-12-18_11h06.51.677,gca_discrimination,2022.2.4,143.86377838052638,
positions.xlsx,stimuli.xlsx,test.xlsx,stimuli/Social2.png,stimuli/Social1.png,stimuli/Nonsocial1.png,stimuli/Nonsocial2.png,stimuli/Test1.png,stimuli/Test2.png,"(0.7, -0.5)",cs_plus_ns,"(-0.7, 0.5)",cs_plus_ns,0,0,0,0,,,,,0,28,28,81,,216.6798598000314,ä,0.47445870004594326,correct,,36,B,2023-12-18_11h06.51.677,gca_discrimination,2022.2.4,143.86377838052638,
positions.xlsx,stimuli.xlsx,test.xlsx,stimuli/Social2.png,stimuli/Social1.png,stimuli/Nonsocial1.png,stimuli/Nonsocial2.png,stimuli/Test1.png,stimuli/Test2.png,"(-0.7, -0.5)",cs_minus_ns,"(0.7, 0.5)",cs_plus_ns,0,0,0,0,,,,,0,29,29,40,,219.69360510003753,l,0.8123306999914348,correct,,36,B,2023-12-18_11h06.51.677,gca_discrimination,2022.2.4,143.86377838052638,
positions.xlsx,stimuli.xlsx,test.xlsx,stimuli/Social2.png,stimuli/Social1.png,stimuli/Nonsocial1.png,stimuli/Nonsocial2.png,stimuli/Test1.png,stimuli/Test2.png,"(0.7, 0.5)",cs_plus_s,"(0.7, -0.5)",cs_minus_s,0,0,0,0,,,,,0,30,30,8,,223.0615562000312,l,0.44406020001042634,correct,,36,B,2023-12-18_11h06.51.677,gca_discrimination,2022.2.4,143.86377838052638,
positions.xlsx,stimuli.xlsx,test.xlsx,stimuli/Social2.png,stimuli/Social1.png,stimuli/Nonsocial1.png,stimuli/Nonsocial2.png,stimuli/Test1.png,stimuli/Test2.png,"(-0.7, -0.5)",cs_plus_s,"(-0.7, 0.5)",cs_plus_s,0,0,0,0,,,,,0,31,31,51,,225.32535449997522,ä,0.42090629995800555,correct,,36,B,2023-12-18_11h06.51.677,gca_discrimination,2022.2.4,143.86377838052638,
positions.xlsx,stimuli.xlsx,test.xlsx,stimuli/Social2.png,stimuli/Social1.png,stimuli/Nonsocial1.png,stimuli/Nonsocial2.png,stimuli/Test1.png,stimuli/Test2.png,"(0.7, 0.5)",cs_minus_s,"(0.7, -0.5)",cs_plus_s,0,0,0,0,,,,,0,32,32,20,,227.72803590004332,l,0.44187360000796616,correct,,36,B,2023-12-18_11h06.51.677,gca_discrimination,2022.2.4,143.86377838052638,
positions.xlsx,stimuli.xlsx,test.xlsx,stimuli/Social2.png,stimuli/Social1.png,stimuli/Nonsocial1.png,stimuli/Nonsocial2.png,stimuli/Test1.png,stimuli/Test2.png,"(-0.7, -0.5)",cs_minus_s,"(-0.7, 0.5)",cs_plus_s,0,0,0,0,,,,,0,33,33,15,,230.60983470000792,l,0.5286339001031592,correct,,36,B,2023-12-18_11h06.51.677,gca_discrimination,2022.2.4,143.86377838052638,
positions.xlsx,stimuli.xlsx,test.xlsx,stimuli/Social2.png,stimuli/Social1.png,stimuli/Nonsocial1.png,stimuli/Nonsocial2.png,stimuli/Test1.png,stimuli/Test2.png,"(0.7, -0.5)",cs_plus_ns,"(-0.7, -0.5)",cs_minus_ns,0,0,0,0,,,,,0,34,34,34,,233.7208259999752,l,0.7219547999557108,correct,,36,B,2023-12-18_11h06.51.677,gca_discrimination,2022.2.4,143.86377838052638,
positions.xlsx,stimuli.xlsx,test.xlsx,stimuli/Social2.png,stimuli/Social1.png,stimuli/Nonsocial1.png,stimuli/Nonsocial2.png,stimuli/Test1.png,stimuli/Test2.png,"(-0.7, -0.5)",cs_plus_s,"(-0.7, 0.5)",cs_minus_s,0,0,0,0,,,,,0,35,35,3,,236.9221050000051,l,0.5846014000708237,correct,,36,B,2023-12-18_11h06.51.677,gca_discrimination,2022.2.4,143.86377838052638,
positions.xlsx,stimuli.xlsx,test.xlsx,stimuli/Social2.png,stimuli/Social1.png,stimuli/Nonsocial1.png,stimuli/Nonsocial2.png,stimuli/Test1.png,stimuli/Test2.png,"(0.7, 0.5)",cs_minus_ns,"(-0.7, 0.5)",cs_plus_ns,0,0,0,0,,,,,0,36,36,42,,239.54699750000145,l,0.4474380000028759,correct,,36,B,2023-12-18_11h06.51.677,gca_discrimination,2022.2.4,143.86377838052638,
positions.xlsx,stimuli.xlsx,test.xlsx,stimuli/Social2.png,stimuli/Social1.png,stimuli/Nonsocial1.png,stimuli/Nonsocial2.png,stimuli/Test1.png,stimuli/Test2.png,"(-0.7, 0.5)",cs_minus_ns,"(0.7, 0.5)",cs_plus_ns,0,0,0,0,,,,,0,37,37,37,,242.1579606999876,l,0.40429340000264347,correct,,36,B,2023-12-18_11h06.51.677,gca_discrimination,2022.2.4,143.86377838052638,
positions.xlsx,stimuli.xlsx,test.xlsx,stimuli/Social2.png,stimuli/Social1.png,stimuli/Nonsocial1.png,stimuli/Nonsocial2.png,stimuli/Test1.png,stimuli/Test2.png,"(0.7, -0.5)",cs_minus_ns,"(0.7, 0.5)",cs_plus_ns,0,0,0,0,,,,,0,38,38,47,,244.6092934999615,l,0.35257270000874996,correct,,36,B,2023-12-18_11h06.51.677,gca_discrimination,2022.2.4,143.86377838052638,
positions.xlsx,stimuli.xlsx,test.xlsx,stimuli/Social2.png,stimuli/Social1.png,stimuli/Nonsocial1.png,stimuli/Nonsocial2.png,stimuli/Test1.png,stimuli/Test2.png,"(-0.7, 0.5)",cs_minus_ns,"(0.7, -0.5)",cs_plus_ns,0,0,0,0,,,,,0,39,39,38,,247.38004239997827,l,0.46225159999448806,correct,,36,B,2023-12-18_11h06.51.677,gca_discrimination,2022.2.4,143.86377838052638,
positions.xlsx,stimuli.xlsx,test.xlsx,stimuli/Social2.png,stimuli/Social1.png,stimuli/Nonsocial1.png,stimuli/Nonsocial2.png,stimuli/Test1.png,stimuli/Test2.png,"(0.7, -0.5)",cs_plus_s,"(0.7, 0.5)",cs_minus_s,0,0,0,0,,,,,0,40,40,11,,249.67160470003728,l,0.4424789999611676,correct,,36,B,2023-12-18_11h06.51.677,gca_discrimination,2022.2.4,143.86377838052638,
positions.xlsx,stimuli.xlsx,test.xlsx,stimuli/Social2.png,stimuli/Social1.png,stimuli/Nonsocial1.png,stimuli/Nonsocial2.png,stimuli/Test1.png,stimuli/Test2.png,"(0.7, -0.5)",cs_plus_s,"(0.7, 0.5)",cs_plus_s,0,0,0,0,,,,,0,41,41,59,,252.53257539996412,ä,0.44603280001319945,correct,,36,B,2023-12-18_11h06.51.677,gca_discrimination,2022.2.4,143.86377838052638,
positions.xlsx,stimuli.xlsx,test.xlsx,stimuli/Social2.png,stimuli/Social1.png,stimuli/Nonsocial1.png,stimuli/Nonsocial2.png,stimuli/Test1.png,stimuli/Test2.png,"(0.7, -0.5)",cs_minus_ns,"(-0.7, 0.5)",cs_minus_ns,0,0,0,0,,,,,0,42,42,93,,255.6088807999622,ä,0.40155770001001656,correct,,36,B,2023-12-18_11h06.51.677,gca_discrimination,2022.2.4,143.86377838052638,
positions.xlsx,stimuli.xlsx,test.xlsx,stimuli/Social2.png,stimuli/Social1.png,stimuli/Nonsocial1.png,stimuli/Nonsocial2.png,stimuli/Test1.png,stimuli/Test2.png,"(-0.7, 0.5)",cs_plus_ns,"(-0.7, -0.5)",cs_minus_ns,0,0,0,0,,,,,0,43,43,24,,257.88654530001804,l,0.44505429989658296,correct,,36,B,2023-12-18_11h06.51.677,gca_discrimination,2022.2.4,143.86377838052638,
positions.xlsx,stimuli.xlsx,test.xlsx,stimuli/Social2.png,stimuli/Social1.png,stimuli/Nonsocial1.png,stimuli/Nonsocial2.png,stimuli/Test1.png,stimuli/Test2.png,"(-0.7, 0.5)",cs_minus_ns,"(0.7, -0.5)",cs_minus_ns,0,0,0,0,,,,,0,44,44,86,,260.99756549997255,ä,0.4771863999776542,correct,,36,B,2023-12-18_11h06.51.677,gca_discrimination,2022.2.4,143.86377838052638,
positions.xlsx,stimuli.xlsx,test.xlsx,stimuli/Social2.png,stimuli/Social1.png,stimuli/Nonsocial1.png,stimuli/Nonsocial2.png,stimuli/Test1.png,stimuli/Test2.png,"(-0.7, 0.5)",cs_minus_s,"(0.7, 0.5)",cs_plus_s,0,0,0,0,,,,,0,45,45,13,,264.0738293000031,l,0.6723682000301778,correct,,36,B,2023-12-18_11h06.51.677,gca_discrimination,2022.2.4,143.86377838052638,
positions.xlsx,stimuli.xlsx,test.xlsx,stimuli/Social2.png,stimuli/Social1.png,stimuli/Nonsocial1.png,stimuli/Nonsocial2.png,stimuli/Test1.png,stimuli/Test2.png,"(0.7, 0.5)",cs_plus_s,"(0.7, -0.5)",cs_plus_s,0,0,0,0,,,,,0,46,46,56,,267.26118329993915,ä,0.4769580999854952,correct,,36,B,2023-12-18_11h06.51.677,gca_discrimination,2022.2.4,143.86377838052638,
positions.xlsx,stimuli.xlsx,test.xlsx,stimuli/Social2.png,stimuli/Social1.png,stimuli/Nonsocial1.png,stimuli/Nonsocial2.png,stimuli/Test1.png,stimuli/Test2.png,"(0.7, 0.5)",cs_plus_s,"(-0.7, 0.5)",cs_plus_s,0,0,0,0,,,,,0,47,47,54,,270.1846353999572,ä,0.37752400001045316,correct,,36,B,2023-12-18_11h06.51.677,gca_discrimination,2022.2.4,143.86377838052638,
positions.xlsx,stimuli.xlsx,test.xlsx,stimuli/Social2.png,stimuli/Social1.png,stimuli/Nonsocial1.png,stimuli/Nonsocial2.png,stimuli/Test1.png,stimuli/Test2.png,"(-0.7, -0.5)",cs_plus_s,"(0.7, -0.5)",cs_plus_s,0,0,0,0,,,,,0,48,48,53,,273.0179328999948,ä,0.328279500012286,correct,,36,B,2023-12-18_11h06.51.677,gca_discrimination,2022.2.4,143.86377838052638,
positions.xlsx,stimuli.xlsx,test.xlsx,stimuli/Social2.png,stimuli/Social1.png,stimuli/Nonsocial1.png,stimuli/Nonsocial2.png,stimuli/Test1.png,stimuli/Test2.png,"(-0.7, 0.5)",cs_plus_s,"(0.7, 0.5)",cs_plus_s,0,0,0,0,,,,,0,49,49,49,,275.64281059999485,ä,0.29606610001064837,correct,,36,B,2023-12-18_11h06.51.677,gca_discrimination,2022.2.4,143.86377838052638,
positions.xlsx,stimuli.xlsx,test.xlsx,stimuli/Social2.png,stimuli/Social1.png,stimuli/Nonsocial1.png,stimuli/Nonsocial2.png,stimuli/Test1.png,stimuli/Test2.png,"(-0.7, -0.5)",cs_minus_ns,"(0.7, -0.5)",cs_plus_ns,0,0,0,0,,,,,0,50,50,41,,277.9343910999596,l,0.40416669996920973,correct,,36,B,2023-12-18_11h06.51.677,gca_discrimination,2022.2.4,143.86377838052638,
positions.xlsx,stimuli.xlsx,test.xlsx,stimuli/Social2.png,stimuli/Social1.png,stimuli/Nonsocial1.png,stimuli/Nonsocial2.png,stimuli/Test1.png,stimuli/Test2.png,"(0.7, 0.5)",cs_minus_s,"(0.7, -0.5)",cs_minus_s,0,0,0,0,,,,,0,51,51,68,,280.9759222000139,ä,0.47430740005802363,correct,,36,B,2023-12-18_11h06.51.677,gca_discrimination,2022.2.4,143.86377838052638,
positions.xlsx,stimuli.xlsx,test.xlsx,stimuli/Social2.png,stimuli/Social1.png,stimuli/Nonsocial1.png,stimuli/Nonsocial2.png,stimuli/Test1.png,stimuli/Test2.png,"(0.7, 0.5)",cs_minus_ns,"(-0.7, 0.5)",cs_minus_ns,0,0,0,0,,,,,0,52,52,90,,284.0730182999978,ä,0.6574386999709532,correct,,36,B,2023-12-18_11h06.51.677,gca_discrimination,2022.2.4,143.86377838052638,
positions.xlsx,stimuli.xlsx,test.xlsx,stimuli/Social2.png,stimuli/Social1.png,stimuli/Nonsocial1.png,stimuli/Nonsocial2.png,stimuli/Test1.png,stimuli/Test2.png,"(-0.7, 0.5)",cs_plus_s,"(0.7, -0.5)",cs_plus_s,0,0,0,0,,,,,0,53,53,50,,286.6701389000518,ä,0.25232880003750324,correct,,36,B,2023-12-18_11h06.51.677,gca_discrimination,2022.2.4,143.86377838052638,
positions.xlsx,stimuli.xlsx,test.xlsx,stimuli/Social2.png,stimuli/Social1.png,stimuli/Nonsocial1.png,stimuli/Nonsocial2.png,stimuli/Test1.png,stimuli/Test2.png,"(0.7, -0.5)",cs_plus_ns,"(-0.7, -0.5)",cs_plus_ns,0,0,0,0,,,,,0,54,54,82,,289.1631000000052,ä,0.5194468999980018,correct,,36,B,2023-12-18_11h06.51.677,gca_discrimination,2022.2.4,143.86377838052638,
positions.xlsx,stimuli.xlsx,test.xlsx,stimuli/Social2.png,stimuli/Social1.png,stimuli/Nonsocial1.png,stimuli/Nonsocial2.png,stimuli/Test1.png,stimuli/Test2.png,"(-0.7, 0.5)",cs_plus_s,"(0.7, 0.5)",cs_minus_s,0,0,0,0,,,,,0,55,55,1,,292.2532635999378,l,0.364843099960126,correct,,36,B,2023-12-18_11h06.51.677,gca_discrimination,2022.2.4,143.86377838052638,
positions.xlsx,stimuli.xlsx,test.xlsx,stimuli/Social2.png,stimuli/Social1.png,stimuli/Nonsocial1.png,stimuli/Nonsocial2.png,stimuli/Test1.png,stimuli/Test2.png,"(-0.7, -0.5)",cs_minus_ns,"(0.7, 0.5)",cs_minus_ns,0,0,0,0,,,,,0,56,56,88,,295.2739657999482,ä,0.4799846999812871,correct,,36,B,2023-12-18_11h06.51.677,gca_discrimination,2022.2.4,143.86377838052638,
positions.xlsx,stimuli.xlsx,test.xlsx,stimuli/Social2.png,stimuli/Social1.png,stimuli/Nonsocial1.png,stimuli/Nonsocial2.png,stimuli/Test1.png,stimuli/Test2.png,"(0.7, -0.5)",cs_minus_s,"(0.7, 0.5)",cs_plus_s,0,0,0,0,,,,,0,57,57,23,,298.14886039996054,l,0.45341499999631196,correct,,36,B,2023-12-18_11h06.51.677,gca_discrimination,2022.2.4,143.86377838052638,
positions.xlsx,stimuli.xlsx,test.xlsx,stimuli/Social2.png,stimuli/Social1.png,stimuli/Nonsocial1.png,stimuli/Nonsocial2.png,stimuli/Test1.png,stimuli/Test2.png,"(-0.7, 0.5)",cs_plus_ns,"(-0.7, -0.5)",cs_plus_ns,0,0,0,0,,,,,0,58,58,72,,301.3640374999959,ä,1.446180900093168,correct,,36,B,2023-12-18_11h06.51.677,gca_discrimination,2022.2.4,143.86377838052638,
positions.xlsx,stimuli.xlsx,test.xlsx,stimuli/Social2.png,stimuli/Social1.png,stimuli/Nonsocial1.png,stimuli/Nonsocial2.png,stimuli/Test1.png,stimuli/Test2.png,"(0.7, 0.5)",cs_plus_ns,"(-0.7, 0.5)",cs_minus_ns,0,0,0,0,,,,,0,59,59,30,,305.3638266000198,l,1.2229703000048175,correct,,36,B,2023-12-18_11h06.51.677,gca_discrimination,2022.2.4,143.86377838052638,
positions.xlsx,stimuli.xlsx,test.xlsx,stimuli/Social2.png,stimuli/Social1.png,stimuli/Nonsocial1.png,stimuli/Nonsocial2.png,stimuli/Test1.png,stimuli/Test2.png,"(0.7, 0.5)",cs_plus_ns,"(0.7, -0.5)",cs_plus_ns,0,0,0,0,,,,,0,60,60,80,,308.73177910002414,ä,0.534664100036025,correct,,36,B,2023-12-18_11h06.51.677,gca_discrimination,2022.2.4,143.86377838052638,
positions.xlsx,stimuli.xlsx,test.xlsx,stimuli/Social2.png,stimuli/Social1.png,stimuli/Nonsocial1.png,stimuli/Nonsocial2.png,stimuli/Test1.png,stimuli/Test2.png,"(-0.7, 0.5)",cs_minus_ns,"(0.7, 0.5)",cs_minus_ns,0,0,0,0,,,,,0,61,61,85,,311.3844492000062,ä,0.4735426000552252,correct,,36,B,2023-12-18_11h06.51.677,gca_discrimination,2022.2.4,143.86377838052638,
positions.xlsx,stimuli.xlsx,test.xlsx,stimuli/Social2.png,stimuli/Social1.png,stimuli/Nonsocial1.png,stimuli/Nonsocial2.png,stimuli/Test1.png,stimuli/Test2.png,"(-0.7, 0.5)",cs_minus_s,"(0.7, 0.5)",cs_minus_s,0,0,0,0,,,,,0,62,62,61,,313.7385582999559,ä,0.360399299999699,correct,,36,B,2023-12-18_11h06.51.677,gca_discrimination,2022.2.4,143.86377838052638,
positions.xlsx,stimuli.xlsx,test.xlsx,stimuli/Social2.png,stimuli/Social1.png,stimuli/Nonsocial1.png,stimuli/Nonsocial2.png,stimuli/Test1.png,stimuli/Test2.png,"(0.7, 0.5)",cs_plus_ns,"(-0.7, -0.5)",cs_minus_ns,0,0,0,0,,,,,0,63,63,31,,316.41896499996074,l,0.44741149991750717,correct,,36,B,2023-12-18_11h06.51.677,gca_discrimination,2022.2.4,143.86377838052638,
positions.xlsx,stimuli.xlsx,test.xlsx,stimuli/Social2.png,stimuli/Social1.png,stimuli/Nonsocial1.png,stimuli/Nonsocial2.png,stimuli/Test1.png,stimuli/Test2.png,"(-0.7, 0.5)",cs_minus_s,"(0.7, -0.5)",cs_minus_s,0,0,0,0,,,,,0,64,64,62,,318.9258374000201,ä,0.38833640003576875,correct,,36,B,2023-12-18_11h06.51.677,gca_discrimination,2022.2.4,143.86377838052638,
positions.xlsx,stimuli.xlsx,test.xlsx,stimuli/Social2.png,stimuli/Social1.png,stimuli/Nonsocial1.png,stimuli/Nonsocial2.png,stimuli/Test1.png,stimuli/Test2.png,"(0.7, 0.5)",cs_plus_ns,"(0.7, -0.5)",cs_minus_ns,0,0,0,0,,,,,0,65,65,32,,321.8979213000275,l,0.5521578000625595,correct,,36,B,2023-12-18_11h06.51.677,gca_discrimination,2022.2.4,143.86377838052638,
positions.xlsx,stimuli.xlsx,test.xlsx,stimuli/Social2.png,stimuli/Social1.png,stimuli/Nonsocial1.png,stimuli/Nonsocial2.png,stimuli/Test1.png,stimuli/Test2.png,"(-0.7, -0.5)",cs_plus_ns,"(0.7, 0.5)",cs_plus_ns,0,0,0,0,,,,,0,66,66,76,,325.16169059998356,ä,0.4083459998946637,correct,,36,B,2023-12-18_11h06.51.677,gca_discrimination,2022.2.4,143.86377838052638,
positions.xlsx,stimuli.xlsx,test.xlsx,stimuli/Social2.png,stimuli/Social1.png,stimuli/Nonsocial1.png,stimuli/Nonsocial2.png,stimuli/Test1.png,stimuli/Test2.png,"(-0.7, -0.5)",cs_plus_ns,"(0.7, -0.5)",cs_minus_ns,0,0,0,0,,,,,0,67,67,29,,327.71715479996055,l,0.31797530001495034,correct,,36,B,2023-12-18_11h06.51.677,gca_discrimination,2022.2.4,143.86377838052638,
positions.xlsx,stimuli.xlsx,test.xlsx,stimuli/Social2.png,stimuli/Social1.png,stimuli/Nonsocial1.png,stimuli/Nonsocial2.png,stimuli/Test1.png,stimuli/Test2.png,"(0.7, 0.5)",cs_plus_ns,"(-0.7, -0.5)",cs_plus_ns,0,0,0,0,,,,,0,68,68,79,,330.28650719998404,ä,0.38020239991601557,correct,,36,B,2023-12-18_11h06.51.677,gca_discrimination,2022.2.4,143.86377838052638,
positions.xlsx,stimuli.xlsx,test.xlsx,stimuli/Social2.png,stimuli/Social1.png,stimuli/Nonsocial1.png,stimuli/Nonsocial2.png,stimuli/Test1.png,stimuli/Test2.png,"(0.7, 0.5)",cs_minus_ns,"(-0.7, -0.5)",cs_plus_ns,0,0,0,0,,,,,0,69,69,43,,333.28637139999773,l,0.5155126000754535,correct,,36,B,2023-12-18_11h06.51.677,gca_discrimination,2022.2.4,143.86377838052638,
positions.xlsx,stimuli.xlsx,test.xlsx,stimuli/Social2.png,stimuli/Social1.png,stimuli/Nonsocial1.png,stimuli/Nonsocial2.png,stimuli/Test1.png,stimuli/Test2.png,"(0.7, 0.5)",cs_minus_s,"(-0.7, 0.5)",cs_minus_s,0,0,0,0,,,,,0,70,70,66,,335.8626395999454,ä,0.6272958000190556,correct,,36,B,2023-12-18_11h06.51.677,gca_discrimination,2022.2.4,143.86377838052638,
positions.xlsx,stimuli.xlsx,test.xlsx,stimuli/Social2.png,stimuli/Social1.png,stimuli/Nonsocial1.png,stimuli/Nonsocial2.png,stimuli/Test1.png,stimuli/Test2.png,"(-0.7, -0.5)",cs_minus_s,"(0.7, -0.5)",cs_minus_s,0,0,0,0,,,,,0,71,71,65,,338.80003649997525,ä,0.25049669994041324,correct,,36,B,2023-12-18_11h06.51.677,gca_discrimination,2022.2.4,143.86377838052638,
positions.xlsx,stimuli.xlsx,test.xlsx,stimuli/Social2.png,stimuli/Social1.png,stimuli/Nonsocial1.png,stimuli/Nonsocial2.png,stimuli/Test1.png,stimuli/Test2.png,"(-0.7, -0.5)",cs_plus_ns,"(-0.7, 0.5)",cs_minus_ns,0,0,0,0,,,,,0,72,72,27,,341.66105130000506,l,0.7651452000718564,correct,,36,B,2023-12-18_11h06.51.677,gca_discrimination,2022.2.4,143.86377838052638,
positions.xlsx,stimuli.xlsx,test.xlsx,stimuli/Social2.png,stimuli/Social1.png,stimuli/Nonsocial1.png,stimuli/Nonsocial2.png,stimuli/Test1.png,stimuli/Test2.png,"(0.7, -0.5)",cs_plus_s,"(-0.7, -0.5)",cs_minus_s,0,0,0,0,,,,,0,73,73,10,,344.9664811999537,l,0.49164119991473854,correct,,36,B,2023-12-18_11h06.51.677,gca_discrimination,2022.2.4,143.86377838052638,
positions.xlsx,stimuli.xlsx,test.xlsx,stimuli/Social2.png,stimuli/Social1.png,stimuli/Nonsocial1.png,stimuli/Nonsocial2.png,stimuli/Test1.png,stimuli/Test2.png,"(0.7, -0.5)",cs_plus_ns,"(-0.7, 0.5)",cs_minus_ns,0,0,0,0,,,,,0,74,74,33,,347.7788526000222,l,0.44731000007595867,correct,,36,B,2023-12-18_11h06.51.677,gca_discrimination,2022.2.4,143.86377838052638,
positions.xlsx,stimuli.xlsx,test.xlsx,stimuli/Social2.png,stimuli/Social1.png,stimuli/Nonsocial1.png,stimuli/Nonsocial2.png,stimuli/Test1.png,stimuli/Test2.png,"(-0.7, 0.5)",cs_plus_s,"(0.7, -0.5)",cs_minus_s,0,0,0,0,,,,,0,75,75,2,,350.0912829999579,l,0.6705392999574542,correct,,36,B,2023-12-18_11h06.51.677,gca_discrimination,2022.2.4,143.86377838052638,
positions.xlsx,stimuli.xlsx,test.xlsx,stimuli/Social2.png,stimuli/Social1.png,stimuli/Nonsocial1.png,stimuli/Nonsocial2.png,stimuli/Test1.png,stimuli/Test2.png,"(-0.7, -0.5)",cs_minus_s,"(0.7, 0.5)",cs_plus_s,0,0,0,0,,,,,0,76,76,16,,352.85499639995396,l,0.35488779994193465,correct,,36,B,2023-12-18_11h06.51.677,gca_discrimination,2022.2.4,143.86377838052638,
positions.xlsx,stimuli.xlsx,test.xlsx,stimuli/Social2.png,stimuli/Social1.png,stimuli/Nonsocial1.png,stimuli/Nonsocial2.png,stimuli/Test1.png,stimuli/Test2.png,"(0.7, 0.5)",cs_minus_ns,"(0.7, -0.5)",cs_minus_ns,0,0,0,0,,,,,0,77,77,92,,355.6187966000289,ä,0.4631304000504315,correct,,36,B,2023-12-18_11h06.51.677,gca_discrimination,2022.2.4,143.86377838052638,
positions.xlsx,stimuli.xlsx,test.xlsx,stimuli/Social2.png,stimuli/Social1.png,stimuli/Nonsocial1.png,stimuli/Nonsocial2.png,stimuli/Test1.png,stimuli/Test2.png,"(0.7, -0.5)",cs_minus_s,"(-0.7, 0.5)",cs_minus_s,0,0,0,0,,,,,0,78,78,69,,358.61177329998463,ä,0.574411999899894,correct,,36,B,2023-12-18_11h06.51.677,gca_discrimination,2022.2.4,143.86377838052638,
positions.xlsx,stimuli.xlsx,test.xlsx,stimuli/Social2.png,stimuli/Social1.png,stimuli/Nonsocial1.png,stimuli/Nonsocial2.png,stimuli/Test1.png,stimuli/Test2.png,"(-0.7, -0.5)",cs_plus_ns,"(0.7, -0.5)",cs_plus_ns,0,0,0,0,,,,,0,79,79,77,,361.2783449999988,ä,0.3161993999965489,correct,,36,B,2023-12-18_11h06.51.677,gca_discrimination,2022.2.4,143.86377838052638,
positions.xlsx,stimuli.xlsx,test.xlsx,stimuli/Social2.png,stimuli/Social1.png,stimuli/Nonsocial1.png,stimuli/Nonsocial2.png,stimuli/Test1.png,stimuli/Test2.png,"(0.7, -0.5)",cs_minus_ns,"(-0.7, -0.5)",cs_minus_ns,0,0,0,0,,,,,0,80,80,94,,364.0143802999519,ä,0.4277240999508649,correct,,36,B,2023-12-18_11h06.51.677,gca_discrimination,2022.2.4,143.86377838052638,
positions.xlsx,stimuli.xlsx,test.xlsx,stimuli/Social2.png,stimuli/Social1.png,stimuli/Nonsocial1.png,stimuli/Nonsocial2.png,stimuli/Test1.png,stimuli/Test2.png,"(0.7, -0.5)",cs_plus_ns,"(0.7, 0.5)",cs_plus_ns,0,0,0,0,,,,,0,81,81,83,,366.2850735000102,ä,0.3489219000330195,correct,,36,B,2023-12-18_11h06.51.677,gca_discrimination,2022.2.4,143.86377838052638,
positions.xlsx,stimuli.xlsx,test.xlsx,stimuli/Social2.png,stimuli/Social1.png,stimuli/Nonsocial1.png,stimuli/Nonsocial2.png,stimuli/Test1.png,stimuli/Test2.png,"(0.7, -0.5)",cs_minus_s,"(-0.7, 0.5)",cs_plus_s,0,0,0,0,,,,,0,82,82,21,,368.87527129997034,l,0.382655999972485,correct,,36,B,2023-12-18_11h06.51.677,gca_discrimination,2022.2.4,143.86377838052638,
positions.xlsx,stimuli.xlsx,test.xlsx,stimuli/Social2.png,stimuli/Social1.png,stimuli/Nonsocial1.png,stimuli/Nonsocial2.png,stimuli/Test1.png,stimuli/Test2.png,"(0.7, -0.5)",cs_plus_s,"(-0.7, -0.5)",cs_plus_s,0,0,0,0,,,,,0,83,83,58,,371.6876606999431,ä,0.3948448000010103,correct,,36,B,2023-12-18_11h06.51.677,gca_discrimination,2022.2.4,143.86377838052638,
positions.xlsx,stimuli.xlsx,test.xlsx,stimuli/Social2.png,stimuli/Social1.png,stimuli/Nonsocial1.png,stimuli/Nonsocial2.png,stimuli/Test1.png,stimuli/Test2.png,"(-0.7, -0.5)",cs_plus_s,"(0.7, -0.5)",cs_minus_s,0,0,0,0,,,,,0,84,84,5,,374.8889109999873,l,0.49735199997667223,correct,,36,B,2023-12-18_11h06.51.677,gca_discrimination,2022.2.4,143.86377838052638,
positions.xlsx,stimuli.xlsx,test.xlsx,stimuli/Social2.png,stimuli/Social1.png,stimuli/Nonsocial1.png,stimuli/Nonsocial2.png,stimuli/Test1.png,stimuli/Test2.png,"(0.7, -0.5)",cs_minus_s,"(-0.7, -0.5)",cs_minus_s,0,0,0,0,,,,,0,85,85,70,,377.44435480004176,ä,0.4615207000169903,correct,,36,B,2023-12-18_11h06.51.677,gca_discrimination,2022.2.4,143.86377838052638,
positions.xlsx,stimuli.xlsx,test.xlsx,stimuli/Social2.png,stimuli/Social1.png,stimuli/Nonsocial1.png,stimuli/Nonsocial2.png,stimuli/Test1.png,stimuli/Test2.png,"(0.7, 0.5)",cs_plus_s,"(-0.7, 0.5)",cs_minus_s,0,0,0,0,,,,,0,86,86,6,,380.28453049995005,l,0.5744014999363571,correct,,36,B,2023-12-18_11h06.51.677,gca_discrimination,2022.2.4,143.86377838052638,
positions.xlsx,stimuli.xlsx,test.xlsx,stimuli/Social2.png,stimuli/Social1.png,stimuli/Nonsocial1.png,stimuli/Nonsocial2.png,stimuli/Test1.png,stimuli/Test2.png,"(-0.7, -0.5)",cs_minus_s,"(-0.7, 0.5)",cs_minus_s,0,0,0,0,,,,,0,87,87,63,,383.3816418000497,ä,0.6288801999762654,correct,,36,B,2023-12-18_11h06.51.677,gca_discrimination,2022.2.4,143.86377838052638,
positions.xlsx,stimuli.xlsx,test.xlsx,stimuli/Social2.png,stimuli/Social1.png,stimuli/Nonsocial1.png,stimuli/Nonsocial2.png,stimuli/Test1.png,stimuli/Test2.png,"(0.7, 0.5)",cs_minus_s,"(-0.7, 0.5)",cs_plus_s,0,0,0,0,,,,,0,88,88,18,,386.31208119995426,l,0.402090199990198,correct,,36,B,2023-12-18_11h06.51.677,gca_discrimination,2022.2.4,143.86377838052638,
positions.xlsx,stimuli.xlsx,test.xlsx,stimuli/Social2.png,stimuli/Social1.png,stimuli/Nonsocial1.png,stimuli/Nonsocial2.png,stimuli/Test1.png,stimuli/Test2.png,"(-0.7, 0.5)",cs_minus_s,"(-0.7, -0.5)",cs_plus_s,0,0,0,0,,,,,0,89,89,12,,389.145281599951,l,0.3925127999391407,correct,,36,B,2023-12-18_11h06.51.677,gca_discrimination,2022.2.4,143.86377838052638,
positions.xlsx,stimuli.xlsx,test.xlsx,stimuli/Social2.png,stimuli/Social1.png,stimuli/Nonsocial1.png,stimuli/Nonsocial2.png,stimuli/Test1.png,stimuli/Test2.png,"(0.7, -0.5)",cs_minus_ns,"(-0.7, 0.5)",cs_plus_ns,0,0,0,0,,,,,0,90,90,45,,392.1104400999611,l,0.5158507999731228,correct,,36,B,2023-12-18_11h06.51.677,gca_discrimination,2022.2.4,143.86377838052638,
positions.xlsx,stimuli.xlsx,test.xlsx,stimuli/Social2.png,stimuli/Social1.png,stimuli/Nonsocial1.png,stimuli/Nonsocial2.png,stimuli/Test1.png,stimuli/Test2.png,"(-0.7, 0.5)",cs_plus_ns,"(0.7, -0.5)",cs_plus_ns,0,0,0,0,,,,,0,91,91,74,,394.62424639996607,ä,0.44226589996833354,correct,,36,B,2023-12-18_11h06.51.677,gca_discrimination,2022.2.4,143.86377838052638,
positions.xlsx,stimuli.xlsx,test.xlsx,stimuli/Social2.png,stimuli/Social1.png,stimuli/Nonsocial1.png,stimuli/Nonsocial2.png,stimuli/Test1.png,stimuli/Test2.png,"(-0.7, 0.5)",cs_plus_ns,"(0.7, 0.5)",cs_plus_ns,0,0,0,0,,,,,0,92,92,73,,397.7074522000039,ä,0.35881080001126975,correct,,36,B,2023-12-18_11h06.51.677,gca_discrimination,2022.2.4,143.86377838052638,
positions.xlsx,stimuli.xlsx,test.xlsx,stimuli/Social2.png,stimuli/Social1.png,stimuli/Nonsocial1.png,stimuli/Nonsocial2.png,stimuli/Test1.png,stimuli/Test2.png,"(0.7, -0.5)",cs_minus_ns,"(-0.7, -0.5)",cs_plus_ns,0,0,0,0,,,,,0,93,93,46,,400.4226464999374,l,1.1887426000321284,correct,,36,B,2023-12-18_11h06.51.677,gca_discrimination,2022.2.4,143.86377838052638,
positions.xlsx,stimuli.xlsx,test.xlsx,stimuli/Social2.png,stimuli/Social1.png,stimuli/Nonsocial1.png,stimuli/Nonsocial2.png,stimuli/Test1.png,stimuli/Test2.png,"(-0.7, -0.5)",cs_plus_s,"(0.7, 0.5)",cs_minus_s,0,0,0,0,,,,,0,94,94,4,,403.818346700049,l,0.6162637999514118,correct,,36,B,2023-12-18_11h06.51.677,gca_discrimination,2022.2.4,143.86377838052638,
positions.xlsx,stimuli.xlsx,test.xlsx,stimuli/Social2.png,stimuli/Social1.png,stimuli/Nonsocial1.png,stimuli/Nonsocial2.png,stimuli/Test1.png,stimuli/Test2.png,"(0.7, 0.5)",cs_minus_ns,"(0.7, -0.5)",cs_plus_ns,0,0,0,0,,,,,0,95,95,44,,406.55438360001426,l,0.35206770000513643,correct,,36,B,2023-12-18_11h06.51.677,gca_discrimination,2022.2.4,143.86377838052638,
