posFile,stimFile,testFile,cs_plus_s,cs_minus_s,cs_plus_ns,cs_minus_ns,test1,test2,position1,trialtype,position2,comptype,blocks.thisRepN,blocks.thisTrialN,blocks.thisN,blocks.thisIndex,learning_trials.thisRepN,learning_trials.thisTrialN,learning_trials.thisN,learning_trials.thisIndex,trials.thisRepN,trials.thisTrialN,trials.thisN,trials.thisIndex,textStart.started,key.started,key.keys,key.rt,correctness,textStartTask.started,participant,group,date,expName,psychopyVersion,frameRate,
positions.xlsx,stimuli.xlsx,test.xlsx,stimuli/Social2.png,stimuli/Social1.png,stimuli/Nonsocial1.png,stimuli/Nonsocial2.png,stimuli/Test1.png,stimuli/Test2.png,"(-0.7, -0.5)",test1,"(0.7, 0.5)",test2,0,0,0,0,0,0,0,8,,,,,9.678704400081187,40.69827720010653,ä,1.29512959998101,correct,,34,B,2023-12-15_17h29.36.724,gca_discrimination,2022.2.4,143.77380346169585,
positions.xlsx,stimuli.xlsx,test.xlsx,stimuli/Social2.png,stimuli/Social1.png,stimuli/Nonsocial1.png,stimuli/Nonsocial2.png,stimuli/Test1.png,stimuli/Test2.png,"(-0.7, 0.5)",test2,"(0.7, -0.5)",test1,0,0,0,0,0,1,1,12,,,,,,46.81608530005906,ä,0.4575106000993401,correct,,34,B,2023-12-15_17h29.36.724,gca_discrimination,2022.2.4,143.77380346169585,
positions.xlsx,stimuli.xlsx,test.xlsx,stimuli/Social2.png,stimuli/Social1.png,stimuli/Nonsocial1.png,stimuli/Nonsocial2.png,stimuli/Test1.png,stimuli/Test2.png,"(0.7, 0.5)",test2,"(-0.7, 0.5)",test1,0,0,0,0,0,2,2,13,,,,,,51.190929000033066,ä,0.3707065999042243,correct,,34,B,2023-12-15_17h29.36.724,gca_discrimination,2022.2.4,143.77380346169585,
positions.xlsx,stimuli.xlsx,test.xlsx,stimuli/Social2.png,stimuli/Social1.png,stimuli/Nonsocial1.png,stimuli/Nonsocial2.png,stimuli/Test1.png,stimuli/Test2.png,"(-0.7, 0.5)",test2,"(0.7, 0.5)",test1,0,0,0,0,0,3,3,3,,,,,,55.968519899994135,ä,0.25722919998224825,correct,,34,B,2023-12-15_17h29.36.724,gca_discrimination,2022.2.4,143.77380346169585,
positions.xlsx,stimuli.xlsx,test.xlsx,stimuli/Social2.png,stimuli/Social1.png,stimuli/Nonsocial1.png,stimuli/Nonsocial2.png,stimuli/Test1.png,stimuli/Test2.png,"(-0.7, -0.5)",test2,"(0.7, -0.5)",test2,0,0,0,0,0,4,4,9,,,,,,60.88497680006549,l,0.1887619000626728,correct,,34,B,2023-12-15_17h29.36.724,gca_discrimination,2022.2.4,143.77380346169585,
positions.xlsx,stimuli.xlsx,test.xlsx,stimuli/Social2.png,stimuli/Social1.png,stimuli/Nonsocial1.png,stimuli/Nonsocial2.png,stimuli/Test1.png,stimuli/Test2.png,"(-0.7, -0.5)",test2,"(0.7, 0.5)",test2,0,0,0,0,0,5,5,7,,,,,,65.85697980003897,ä,0.6084364000707865,wrong,,34,B,2023-12-15_17h29.36.724,gca_discrimination,2022.2.4,143.77380346169585,
positions.xlsx,stimuli.xlsx,test.xlsx,stimuli/Social2.png,stimuli/Social1.png,stimuli/Nonsocial1.png,stimuli/Nonsocial2.png,stimuli/Test1.png,stimuli/Test2.png,"(0.7, 0.5)",test2,"(0.7, -0.5)",test1,0,0,0,0,0,6,6,6,,,,,,71.2387480000034,l,0.5950412999372929,wrong,,34,B,2023-12-15_17h29.36.724,gca_discrimination,2022.2.4,143.77380346169585,
positions.xlsx,stimuli.xlsx,test.xlsx,stimuli/Social2.png,stimuli/Social1.png,stimuli/Nonsocial1.png,stimuli/Nonsocial2.png,stimuli/Test1.png,stimuli/Test2.png,"(0.7, -0.5)",test1,"(0.7, 0.5)",test1,0,0,0,0,0,7,7,10,,,,,,75.80107610009145,ä,0.3124048999743536,wrong,,34,B,2023-12-15_17h29.36.724,gca_discrimination,2022.2.4,143.77380346169585,
positions.xlsx,stimuli.xlsx,test.xlsx,stimuli/Social2.png,stimuli/Social1.png,stimuli/Nonsocial1.png,stimuli/Nonsocial2.png,stimuli/Test1.png,stimuli/Test2.png,"(-0.7, 0.5)",test1,"(0.7, -0.5)",test1,0,0,0,0,0,8,8,5,,,,,,80.00228730007075,l,0.3588188000721857,correct,,34,B,2023-12-15_17h29.36.724,gca_discrimination,2022.2.4,143.77380346169585,
positions.xlsx,stimuli.xlsx,test.xlsx,stimuli/Social2.png,stimuli/Social1.png,stimuli/Nonsocial1.png,stimuli/Nonsocial2.png,stimuli/Test1.png,stimuli/Test2.png,"(-0.7, 0.5)",test2,"(-0.7, -0.5)",test2,0,0,0,0,0,9,9,1,,,,,,84.18963670008816,l,0.8931949000107124,correct,,34,B,2023-12-15_17h29.36.724,gca_discrimination,2022.2.4,143.77380346169585,
positions.xlsx,stimuli.xlsx,test.xlsx,stimuli/Social2.png,stimuli/Social1.png,stimuli/Nonsocial1.png,stimuli/Nonsocial2.png,stimuli/Test1.png,stimuli/Test2.png,"(0.7, 0.5)",test1,"(0.7, -0.5)",test2,0,0,0,0,0,10,10,11,,,,,,89.18941049999557,l,0.33275209995917976,wrong,,34,B,2023-12-15_17h29.36.724,gca_discrimination,2022.2.4,143.77380346169585,
positions.xlsx,stimuli.xlsx,test.xlsx,stimuli/Social2.png,stimuli/Social1.png,stimuli/Nonsocial1.png,stimuli/Nonsocial2.png,stimuli/Test1.png,stimuli/Test2.png,"(0.7, -0.5)",test1,"(0.7, 0.5)",test2,0,0,0,0,0,11,11,0,,,,,,94.32117620005738,ä,1.0478140000486746,correct,,34,B,2023-12-15_17h29.36.724,gca_discrimination,2022.2.4,143.77380346169585,
positions.xlsx,stimuli.xlsx,test.xlsx,stimuli/Social2.png,stimuli/Social1.png,stimuli/Nonsocial1.png,stimuli/Nonsocial2.png,stimuli/Test1.png,stimuli/Test2.png,"(-0.7, -0.5)",test2,"(-0.7, 0.5)",test2,0,0,0,0,0,12,12,2,,,,,,99.91820040007588,l,0.27487740002106875,correct,,34,B,2023-12-15_17h29.36.724,gca_discrimination,2022.2.4,143.77380346169585,
positions.xlsx,stimuli.xlsx,test.xlsx,stimuli/Social2.png,stimuli/Social1.png,stimuli/Nonsocial1.png,stimuli/Nonsocial2.png,stimuli/Test1.png,stimuli/Test2.png,"(0.7, -0.5)",test2,"(-0.7, 0.5)",test1,0,0,0,0,0,13,13,4,,,,,,104.04302640003152,ä,0.9268643000395969,correct,,34,B,2023-12-15_17h29.36.724,gca_discrimination,2022.2.4,143.77380346169585,
positions.xlsx,stimuli.xlsx,test.xlsx,stimuli/Social2.png,stimuli/Social1.png,stimuli/Nonsocial1.png,stimuli/Nonsocial2.png,stimuli/Test1.png,stimuli/Test2.png,"(0.7, -0.5)",cs_plus_s,"(0.7, 0.5)",cs_minus_s,0,0,0,0,,,,,0,0,0,11,,128.77819570002612,ä,0.7831884999759495,correct,107.5151046999963,34,B,2023-12-15_17h29.36.724,gca_discrimination,2022.2.4,143.77380346169585,
positions.xlsx,stimuli.xlsx,test.xlsx,stimuli/Social2.png,stimuli/Social1.png,stimuli/Nonsocial1.png,stimuli/Nonsocial2.png,stimuli/Test1.png,stimuli/Test2.png,"(0.7, 0.5)",cs_plus_ns,"(-0.7, -0.5)",cs_minus_ns,0,0,0,0,,,,,0,1,1,31,,131.40307680005208,ä,0.6149610999273136,correct,,34,B,2023-12-15_17h29.36.724,gca_discrimination,2022.2.4,143.77380346169585,
positions.xlsx,stimuli.xlsx,test.xlsx,stimuli/Social2.png,stimuli/Social1.png,stimuli/Nonsocial1.png,stimuli/Nonsocial2.png,stimuli/Test1.png,stimuli/Test2.png,"(0.7, 0.5)",cs_plus_ns,"(0.7, -0.5)",cs_plus_ns,0,0,0,0,,,,,0,2,2,80,,134.3057139000157,l,0.4397288999753073,correct,,34,B,2023-12-15_17h29.36.724,gca_discrimination,2022.2.4,143.77380346169585,
positions.xlsx,stimuli.xlsx,test.xlsx,stimuli/Social2.png,stimuli/Social1.png,stimuli/Nonsocial1.png,stimuli/Nonsocial2.png,stimuli/Test1.png,stimuli/Test2.png,"(0.7, -0.5)",cs_minus_s,"(0.7, 0.5)",cs_plus_s,0,0,0,0,,,,,0,3,3,23,,137.42366220010445,ä,0.6980890999548137,correct,,34,B,2023-12-15_17h29.36.724,gca_discrimination,2022.2.4,143.77380346169585,
positions.xlsx,stimuli.xlsx,test.xlsx,stimuli/Social2.png,stimuli/Social1.png,stimuli/Nonsocial1.png,stimuli/Nonsocial2.png,stimuli/Test1.png,stimuli/Test2.png,"(-0.7, -0.5)",cs_minus_ns,"(0.7, 0.5)",cs_plus_ns,0,0,0,0,,,,,0,4,4,40,,140.29857230000198,ä,0.5991972000338137,correct,,34,B,2023-12-15_17h29.36.724,gca_discrimination,2022.2.4,143.77380346169585,
positions.xlsx,stimuli.xlsx,test.xlsx,stimuli/Social2.png,stimuli/Social1.png,stimuli/Nonsocial1.png,stimuli/Nonsocial2.png,stimuli/Test1.png,stimuli/Test2.png,"(-0.7, 0.5)",cs_minus_s,"(-0.7, -0.5)",cs_plus_s,0,0,0,0,,,,,0,5,5,12,,142.8262666000519,ä,0.3835596999851987,correct,,34,B,2023-12-15_17h29.36.724,gca_discrimination,2022.2.4,143.77380346169585,
positions.xlsx,stimuli.xlsx,test.xlsx,stimuli/Social2.png,stimuli/Social1.png,stimuli/Nonsocial1.png,stimuli/Nonsocial2.png,stimuli/Test1.png,stimuli/Test2.png,"(0.7, 0.5)",cs_minus_ns,"(0.7, -0.5)",cs_minus_ns,0,0,0,0,,,,,0,6,6,92,,145.20122270006686,l,0.40030330000445247,correct,,34,B,2023-12-15_17h29.36.724,gca_discrimination,2022.2.4,143.77380346169585,
positions.xlsx,stimuli.xlsx,test.xlsx,stimuli/Social2.png,stimuli/Social1.png,stimuli/Nonsocial1.png,stimuli/Nonsocial2.png,stimuli/Test1.png,stimuli/Test2.png,"(0.7, 0.5)",cs_minus_s,"(0.7, -0.5)",cs_plus_s,0,0,0,0,,,,,0,7,7,20,,148.38158970000222,ä,0.420112399966456,correct,,34,B,2023-12-15_17h29.36.724,gca_discrimination,2022.2.4,143.77380346169585,
positions.xlsx,stimuli.xlsx,test.xlsx,stimuli/Social2.png,stimuli/Social1.png,stimuli/Nonsocial1.png,stimuli/Nonsocial2.png,stimuli/Test1.png,stimuli/Test2.png,"(-0.7, 0.5)",cs_plus_ns,"(-0.7, -0.5)",cs_plus_ns,0,0,0,0,,,,,0,8,8,72,,151.36064880003687,l,0.5288937999866903,correct,,34,B,2023-12-15_17h29.36.724,gca_discrimination,2022.2.4,143.77380346169585,
positions.xlsx,stimuli.xlsx,test.xlsx,stimuli/Social2.png,stimuli/Social1.png,stimuli/Nonsocial1.png,stimuli/Nonsocial2.png,stimuli/Test1.png,stimuli/Test2.png,"(0.7, -0.5)",cs_minus_ns,"(-0.7, 0.5)",cs_plus_ns,0,0,0,0,,,,,0,9,9,45,,154.54108360002283,ä,0.7170112999156117,correct,,34,B,2023-12-15_17h29.36.724,gca_discrimination,2022.2.4,143.77380346169585,
positions.xlsx,stimuli.xlsx,test.xlsx,stimuli/Social2.png,stimuli/Social1.png,stimuli/Nonsocial1.png,stimuli/Nonsocial2.png,stimuli/Test1.png,stimuli/Test2.png,"(-0.7, -0.5)",cs_plus_ns,"(-0.7, 0.5)",cs_plus_ns,0,0,0,0,,,,,0,10,10,75,,157.59655180003028,l,0.6853628000244498,correct,,34,B,2023-12-15_17h29.36.724,gca_discrimination,2022.2.4,143.77380346169585,
positions.xlsx,stimuli.xlsx,test.xlsx,stimuli/Social2.png,stimuli/Social1.png,stimuli/Nonsocial1.png,stimuli/Nonsocial2.png,stimuli/Test1.png,stimuli/Test2.png,"(0.7, -0.5)",cs_plus_ns,"(-0.7, -0.5)",cs_plus_ns,0,0,0,0,,,,,0,11,11,82,,160.56861670000944,l,0.5452031999593601,correct,,34,B,2023-12-15_17h29.36.724,gca_discrimination,2022.2.4,143.77380346169585,
positions.xlsx,stimuli.xlsx,test.xlsx,stimuli/Social2.png,stimuli/Social1.png,stimuli/Nonsocial1.png,stimuli/Nonsocial2.png,stimuli/Test1.png,stimuli/Test2.png,"(-0.7, 0.5)",cs_plus_ns,"(-0.7, -0.5)",cs_minus_ns,0,0,0,0,,,,,0,12,12,24,,163.0685533999931,ä,0.41259069996885955,correct,,34,B,2023-12-15_17h29.36.724,gca_discrimination,2022.2.4,143.77380346169585,
positions.xlsx,stimuli.xlsx,test.xlsx,stimuli/Social2.png,stimuli/Social1.png,stimuli/Nonsocial1.png,stimuli/Nonsocial2.png,stimuli/Test1.png,stimuli/Test2.png,"(0.7, 0.5)",cs_minus_ns,"(-0.7, 0.5)",cs_minus_ns,0,0,0,0,,,,,0,13,13,90,,166.2836890000617,l,0.7347177000483498,correct,,34,B,2023-12-15_17h29.36.724,gca_discrimination,2022.2.4,143.77380346169585,
positions.xlsx,stimuli.xlsx,test.xlsx,stimuli/Social2.png,stimuli/Social1.png,stimuli/Nonsocial1.png,stimuli/Nonsocial2.png,stimuli/Test1.png,stimuli/Test2.png,"(0.7, 0.5)",cs_minus_s,"(-0.7, -0.5)",cs_minus_s,0,0,0,0,,,,,0,14,14,67,,169.4710586000001,l,0.6266574000474066,correct,,34,B,2023-12-15_17h29.36.724,gca_discrimination,2022.2.4,143.77380346169585,
positions.xlsx,stimuli.xlsx,test.xlsx,stimuli/Social2.png,stimuli/Social1.png,stimuli/Nonsocial1.png,stimuli/Nonsocial2.png,stimuli/Test1.png,stimuli/Test2.png,"(0.7, 0.5)",cs_minus_s,"(-0.7, 0.5)",cs_minus_s,0,0,0,0,,,,,0,15,15,66,,172.7695147000486,l,0.3997386998962611,correct,,34,B,2023-12-15_17h29.36.724,gca_discrimination,2022.2.4,143.77380346169585,
positions.xlsx,stimuli.xlsx,test.xlsx,stimuli/Social2.png,stimuli/Social1.png,stimuli/Nonsocial1.png,stimuli/Nonsocial2.png,stimuli/Test1.png,stimuli/Test2.png,"(-0.7, -0.5)",cs_minus_s,"(0.7, 0.5)",cs_plus_s,0,0,0,0,,,,,0,16,16,16,,175.8388453000225,ä,0.36238419997971505,correct,,34,B,2023-12-15_17h29.36.724,gca_discrimination,2022.2.4,143.77380346169585,
positions.xlsx,stimuli.xlsx,test.xlsx,stimuli/Social2.png,stimuli/Social1.png,stimuli/Nonsocial1.png,stimuli/Nonsocial2.png,stimuli/Test1.png,stimuli/Test2.png,"(-0.7, 0.5)",cs_minus_ns,"(0.7, 0.5)",cs_plus_ns,0,0,0,0,,,,,0,17,17,37,,178.43599100003485,ä,1.0937328999862075,correct,,34,B,2023-12-15_17h29.36.724,gca_discrimination,2022.2.4,143.77380346169585,
positions.xlsx,stimuli.xlsx,test.xlsx,stimuli/Social2.png,stimuli/Social1.png,stimuli/Nonsocial1.png,stimuli/Nonsocial2.png,stimuli/Test1.png,stimuli/Test2.png,"(-0.7, -0.5)",cs_minus_s,"(-0.7, 0.5)",cs_plus_s,0,0,0,0,,,,,0,18,18,15,,181.4081143999938,ä,0.27402060001622885,correct,,34,B,2023-12-15_17h29.36.724,gca_discrimination,2022.2.4,143.77380346169585,
positions.xlsx,stimuli.xlsx,test.xlsx,stimuli/Social2.png,stimuli/Social1.png,stimuli/Nonsocial1.png,stimuli/Nonsocial2.png,stimuli/Test1.png,stimuli/Test2.png,"(-0.7, 0.5)",cs_plus_s,"(-0.7, -0.5)",cs_plus_s,0,0,0,0,,,,,0,19,19,48,,184.0746736000292,l,0.3912620999617502,correct,,34,B,2023-12-15_17h29.36.724,gca_discrimination,2022.2.4,143.77380346169585,
positions.xlsx,stimuli.xlsx,test.xlsx,stimuli/Social2.png,stimuli/Social1.png,stimuli/Nonsocial1.png,stimuli/Nonsocial2.png,stimuli/Test1.png,stimuli/Test2.png,"(-0.7, -0.5)",cs_minus_ns,"(-0.7, 0.5)",cs_plus_ns,0,0,0,0,,,,,0,20,20,39,,186.7412289000349,ä,0.476501900004223,correct,,34,B,2023-12-15_17h29.36.724,gca_discrimination,2022.2.4,143.77380346169585,
positions.xlsx,stimuli.xlsx,test.xlsx,stimuli/Social2.png,stimuli/Social1.png,stimuli/Nonsocial1.png,stimuli/Nonsocial2.png,stimuli/Test1.png,stimuli/Test2.png,"(-0.7, 0.5)",cs_plus_ns,"(0.7, -0.5)",cs_plus_ns,0,0,0,0,,,,,0,21,21,74,,189.11610920005478,l,0.3976223000790924,correct,,34,B,2023-12-15_17h29.36.724,gca_discrimination,2022.2.4,143.77380346169585,
positions.xlsx,stimuli.xlsx,test.xlsx,stimuli/Social2.png,stimuli/Social1.png,stimuli/Nonsocial1.png,stimuli/Nonsocial2.png,stimuli/Test1.png,stimuli/Test2.png,"(-0.7, 0.5)",cs_minus_ns,"(0.7, -0.5)",cs_minus_ns,0,0,0,0,,,,,0,22,22,86,,192.0396343000466,l,0.40233709989115596,correct,,34,B,2023-12-15_17h29.36.724,gca_discrimination,2022.2.4,143.77380346169585,
positions.xlsx,stimuli.xlsx,test.xlsx,stimuli/Social2.png,stimuli/Social1.png,stimuli/Nonsocial1.png,stimuli/Nonsocial2.png,stimuli/Test1.png,stimuli/Test2.png,"(0.7, -0.5)",cs_plus_ns,"(-0.7, -0.5)",cs_minus_ns,0,0,0,0,,,,,0,23,23,34,,194.42843850003555,ä,0.4056310999440029,correct,,34,B,2023-12-15_17h29.36.724,gca_discrimination,2022.2.4,143.77380346169585,
positions.xlsx,stimuli.xlsx,test.xlsx,stimuli/Social2.png,stimuli/Social1.png,stimuli/Nonsocial1.png,stimuli/Nonsocial2.png,stimuli/Test1.png,stimuli/Test2.png,"(0.7, 0.5)",cs_minus_ns,"(0.7, -0.5)",cs_plus_ns,0,0,0,0,,,,,0,24,24,44,,197.42136830009986,l,0.29298010002821684,wrong,,34,B,2023-12-15_17h29.36.724,gca_discrimination,2022.2.4,143.77380346169585,
positions.xlsx,stimuli.xlsx,test.xlsx,stimuli/Social2.png,stimuli/Social1.png,stimuli/Nonsocial1.png,stimuli/Nonsocial2.png,stimuli/Test1.png,stimuli/Test2.png,"(0.7, 0.5)",cs_minus_ns,"(-0.7, -0.5)",cs_minus_ns,0,0,0,0,,,,,0,25,25,91,,200.0254402999999,l,0.3275265999836847,correct,,34,B,2023-12-15_17h29.36.724,gca_discrimination,2022.2.4,143.77380346169585,
positions.xlsx,stimuli.xlsx,test.xlsx,stimuli/Social2.png,stimuli/Social1.png,stimuli/Nonsocial1.png,stimuli/Nonsocial2.png,stimuli/Test1.png,stimuli/Test2.png,"(-0.7, -0.5)",cs_minus_ns,"(0.7, 0.5)",cs_minus_ns,0,0,0,0,,,,,0,26,26,88,,202.87254950008355,l,0.5049663999816403,correct,,34,B,2023-12-15_17h29.36.724,gca_discrimination,2022.2.4,143.77380346169585,
positions.xlsx,stimuli.xlsx,test.xlsx,stimuli/Social2.png,stimuli/Social1.png,stimuli/Nonsocial1.png,stimuli/Nonsocial2.png,stimuli/Test1.png,stimuli/Test2.png,"(0.7, 0.5)",cs_plus_s,"(-0.7, 0.5)",cs_minus_s,0,0,0,0,,,,,0,27,27,6,,205.31689830007963,ä,0.6527248000493273,correct,,34,B,2023-12-15_17h29.36.724,gca_discrimination,2022.2.4,143.77380346169585,
positions.xlsx,stimuli.xlsx,test.xlsx,stimuli/Social2.png,stimuli/Social1.png,stimuli/Nonsocial1.png,stimuli/Nonsocial2.png,stimuli/Test1.png,stimuli/Test2.png,"(0.7, 0.5)",cs_minus_ns,"(-0.7, 0.5)",cs_plus_ns,0,0,0,0,,,,,0,28,28,42,,208.76816430001054,ä,0.8015464999480173,correct,,34,B,2023-12-15_17h29.36.724,gca_discrimination,2022.2.4,143.77380346169585,
positions.xlsx,stimuli.xlsx,test.xlsx,stimuli/Social2.png,stimuli/Social1.png,stimuli/Nonsocial1.png,stimuli/Nonsocial2.png,stimuli/Test1.png,stimuli/Test2.png,"(0.7, 0.5)",cs_minus_s,"(-0.7, -0.5)",cs_plus_s,0,0,0,0,,,,,0,29,29,19,,211.72633990005124,ä,0.3151611000066623,correct,,34,B,2023-12-15_17h29.36.724,gca_discrimination,2022.2.4,143.77380346169585,
positions.xlsx,stimuli.xlsx,test.xlsx,stimuli/Social2.png,stimuli/Social1.png,stimuli/Nonsocial1.png,stimuli/Nonsocial2.png,stimuli/Test1.png,stimuli/Test2.png,"(0.7, 0.5)",cs_plus_s,"(-0.7, -0.5)",cs_plus_s,0,0,0,0,,,,,0,30,30,55,,214.31656579999253,l,0.28459990001283586,correct,,34,B,2023-12-15_17h29.36.724,gca_discrimination,2022.2.4,143.77380346169585,
positions.xlsx,stimuli.xlsx,test.xlsx,stimuli/Social2.png,stimuli/Social1.png,stimuli/Nonsocial1.png,stimuli/Nonsocial2.png,stimuli/Test1.png,stimuli/Test2.png,"(0.7, 0.5)",cs_plus_s,"(0.7, -0.5)",cs_plus_s,0,0,0,0,,,,,0,31,31,56,,217.142830900033,ä,0.7701981000136584,wrong,,34,B,2023-12-15_17h29.36.724,gca_discrimination,2022.2.4,143.77380346169585,
positions.xlsx,stimuli.xlsx,test.xlsx,stimuli/Social2.png,stimuli/Social1.png,stimuli/Nonsocial1.png,stimuli/Nonsocial2.png,stimuli/Test1.png,stimuli/Test2.png,"(-0.7, -0.5)",cs_plus_s,"(0.7, -0.5)",cs_plus_s,0,0,0,0,,,,,0,32,32,53,,219.92049889999907,l,0.3455254000145942,correct,,34,B,2023-12-15_17h29.36.724,gca_discrimination,2022.2.4,143.77380346169585,
positions.xlsx,stimuli.xlsx,test.xlsx,stimuli/Social2.png,stimuli/Social1.png,stimuli/Nonsocial1.png,stimuli/Nonsocial2.png,stimuli/Test1.png,stimuli/Test2.png,"(-0.7, -0.5)",cs_plus_ns,"(0.7, 0.5)",cs_minus_ns,0,0,0,0,,,,,0,33,33,28,,222.61485010001343,ä,0.9874274999601766,correct,,34,B,2023-12-15_17h29.36.724,gca_discrimination,2022.2.4,143.77380346169585,
positions.xlsx,stimuli.xlsx,test.xlsx,stimuli/Social2.png,stimuli/Social1.png,stimuli/Nonsocial1.png,stimuli/Nonsocial2.png,stimuli/Test1.png,stimuli/Test2.png,"(0.7, -0.5)",cs_minus_s,"(-0.7, -0.5)",cs_minus_s,0,0,0,0,,,,,0,34,34,70,,226.13552480004728,ä,0.602556400001049,wrong,,34,B,2023-12-15_17h29.36.724,gca_discrimination,2022.2.4,143.77380346169585,
positions.xlsx,stimuli.xlsx,test.xlsx,stimuli/Social2.png,stimuli/Social1.png,stimuli/Nonsocial1.png,stimuli/Nonsocial2.png,stimuli/Test1.png,stimuli/Test2.png,"(0.7, -0.5)",cs_plus_s,"(-0.7, 0.5)",cs_minus_s,0,0,0,0,,,,,0,35,35,9,,228.7951563000679,ä,0.39823960000649095,correct,,34,B,2023-12-15_17h29.36.724,gca_discrimination,2022.2.4,143.77380346169585,
positions.xlsx,stimuli.xlsx,test.xlsx,stimuli/Social2.png,stimuli/Social1.png,stimuli/Nonsocial1.png,stimuli/Nonsocial2.png,stimuli/Test1.png,stimuli/Test2.png,"(0.7, -0.5)",cs_minus_ns,"(-0.7, -0.5)",cs_plus_ns,0,0,0,0,,,,,0,36,36,46,,231.94087630009744,ä,0.573086200049147,correct,,34,B,2023-12-15_17h29.36.724,gca_discrimination,2022.2.4,143.77380346169585,
positions.xlsx,stimuli.xlsx,test.xlsx,stimuli/Social2.png,stimuli/Social1.png,stimuli/Nonsocial1.png,stimuli/Nonsocial2.png,stimuli/Test1.png,stimuli/Test2.png,"(-0.7, -0.5)",cs_minus_s,"(-0.7, 0.5)",cs_minus_s,0,0,0,0,,,,,0,37,37,63,,235.079639100004,l,0.5939453999744728,correct,,34,B,2023-12-15_17h29.36.724,gca_discrimination,2022.2.4,143.77380346169585,
positions.xlsx,stimuli.xlsx,test.xlsx,stimuli/Social2.png,stimuli/Social1.png,stimuli/Nonsocial1.png,stimuli/Nonsocial2.png,stimuli/Test1.png,stimuli/Test2.png,"(-0.7, -0.5)",cs_minus_ns,"(0.7, -0.5)",cs_plus_ns,0,0,0,0,,,,,0,38,38,41,,238.07258170004934,ä,0.5289510999573395,correct,,34,B,2023-12-15_17h29.36.724,gca_discrimination,2022.2.4,143.77380346169585,
positions.xlsx,stimuli.xlsx,test.xlsx,stimuli/Social2.png,stimuli/Social1.png,stimuli/Nonsocial1.png,stimuli/Nonsocial2.png,stimuli/Test1.png,stimuli/Test2.png,"(0.7, 0.5)",cs_minus_s,"(0.7, -0.5)",cs_minus_s,0,0,0,0,,,,,0,39,39,68,,240.9960578000173,ä,0.6377671000082046,wrong,,34,B,2023-12-15_17h29.36.724,gca_discrimination,2022.2.4,143.77380346169585,
positions.xlsx,stimuli.xlsx,test.xlsx,stimuli/Social2.png,stimuli/Social1.png,stimuli/Nonsocial1.png,stimuli/Nonsocial2.png,stimuli/Test1.png,stimuli/Test2.png,"(0.7, 0.5)",cs_minus_s,"(-0.7, 0.5)",cs_plus_s,0,0,0,0,,,,,0,40,40,18,,243.85010500007775,ä,0.48049310001078993,correct,,34,B,2023-12-15_17h29.36.724,gca_discrimination,2022.2.4,143.77380346169585,
positions.xlsx,stimuli.xlsx,test.xlsx,stimuli/Social2.png,stimuli/Social1.png,stimuli/Nonsocial1.png,stimuli/Nonsocial2.png,stimuli/Test1.png,stimuli/Test2.png,"(-0.7, -0.5)",cs_plus_ns,"(-0.7, 0.5)",cs_minus_ns,0,0,0,0,,,,,0,41,41,27,,246.82916810002644,ä,0.5084578999085352,correct,,34,B,2023-12-15_17h29.36.724,gca_discrimination,2022.2.4,143.77380346169585,
positions.xlsx,stimuli.xlsx,test.xlsx,stimuli/Social2.png,stimuli/Social1.png,stimuli/Nonsocial1.png,stimuli/Nonsocial2.png,stimuli/Test1.png,stimuli/Test2.png,"(-0.7, 0.5)",cs_plus_s,"(0.7, -0.5)",cs_plus_s,0,0,0,0,,,,,0,42,42,50,,249.63464760000352,l,0.590853999950923,correct,,34,B,2023-12-15_17h29.36.724,gca_discrimination,2022.2.4,143.77380346169585,
positions.xlsx,stimuli.xlsx,test.xlsx,stimuli/Social2.png,stimuli/Social1.png,stimuli/Nonsocial1.png,stimuli/Nonsocial2.png,stimuli/Test1.png,stimuli/Test2.png,"(0.7, -0.5)",cs_minus_s,"(-0.7, 0.5)",cs_minus_s,0,0,0,0,,,,,0,43,43,69,,252.2247851000866,l,0.5688773000147194,correct,,34,B,2023-12-15_17h29.36.724,gca_discrimination,2022.2.4,143.77380346169585,
positions.xlsx,stimuli.xlsx,test.xlsx,stimuli/Social2.png,stimuli/Social1.png,stimuli/Nonsocial1.png,stimuli/Nonsocial2.png,stimuli/Test1.png,stimuli/Test2.png,"(0.7, 0.5)",cs_plus_s,"(-0.7, 0.5)",cs_plus_s,0,0,0,0,,,,,0,44,44,54,,255.34271620004438,l,0.4907568000489846,correct,,34,B,2023-12-15_17h29.36.724,gca_discrimination,2022.2.4,143.77380346169585,
positions.xlsx,stimuli.xlsx,test.xlsx,stimuli/Social2.png,stimuli/Social1.png,stimuli/Nonsocial1.png,stimuli/Nonsocial2.png,stimuli/Test1.png,stimuli/Test2.png,"(0.7, -0.5)",cs_plus_ns,"(0.7, 0.5)",cs_minus_ns,0,0,0,0,,,,,0,45,45,35,,258.5995582001051,ä,0.5383178000338376,correct,,34,B,2023-12-15_17h29.36.724,gca_discrimination,2022.2.4,143.77380346169585,
positions.xlsx,stimuli.xlsx,test.xlsx,stimuli/Social2.png,stimuli/Social1.png,stimuli/Nonsocial1.png,stimuli/Nonsocial2.png,stimuli/Test1.png,stimuli/Test2.png,"(-0.7, 0.5)",cs_minus_ns,"(-0.7, -0.5)",cs_minus_ns,0,0,0,0,,,,,0,46,46,84,,261.2591690000845,ä,0.6219562999904156,wrong,,34,B,2023-12-15_17h29.36.724,gca_discrimination,2022.2.4,143.77380346169585,
positions.xlsx,stimuli.xlsx,test.xlsx,stimuli/Social2.png,stimuli/Social1.png,stimuli/Nonsocial1.png,stimuli/Nonsocial2.png,stimuli/Test1.png,stimuli/Test2.png,"(-0.7, -0.5)",cs_plus_s,"(-0.7, 0.5)",cs_plus_s,0,0,0,0,,,,,0,47,47,51,,264.529886500095,ä,0.3832634000573307,wrong,,34,B,2023-12-15_17h29.36.724,gca_discrimination,2022.2.4,143.77380346169585,
positions.xlsx,stimuli.xlsx,test.xlsx,stimuli/Social2.png,stimuli/Social1.png,stimuli/Nonsocial1.png,stimuli/Nonsocial2.png,stimuli/Test1.png,stimuli/Test2.png,"(-0.7, 0.5)",cs_minus_s,"(0.7, 0.5)",cs_plus_s,0,0,0,0,,,,,0,48,48,13,,266.87009209999815,ä,0.5723274999763817,correct,,34,B,2023-12-15_17h29.36.724,gca_discrimination,2022.2.4,143.77380346169585,
positions.xlsx,stimuli.xlsx,test.xlsx,stimuli/Social2.png,stimuli/Social1.png,stimuli/Nonsocial1.png,stimuli/Nonsocial2.png,stimuli/Test1.png,stimuli/Test2.png,"(-0.7, 0.5)",cs_minus_s,"(0.7, -0.5)",cs_minus_s,0,0,0,0,,,,,0,49,49,62,,269.48804470000323,l,0.3692289999453351,correct,,34,B,2023-12-15_17h29.36.724,gca_discrimination,2022.2.4,143.77380346169585,
positions.xlsx,stimuli.xlsx,test.xlsx,stimuli/Social2.png,stimuli/Social1.png,stimuli/Nonsocial1.png,stimuli/Nonsocial2.png,stimuli/Test1.png,stimuli/Test2.png,"(-0.7, 0.5)",cs_plus_s,"(0.7, 0.5)",cs_minus_s,0,0,0,0,,,,,0,50,50,1,,272.008758900105,ä,0.5609420000109822,correct,,34,B,2023-12-15_17h29.36.724,gca_discrimination,2022.2.4,143.77380346169585,
positions.xlsx,stimuli.xlsx,test.xlsx,stimuli/Social2.png,stimuli/Social1.png,stimuli/Nonsocial1.png,stimuli/Nonsocial2.png,stimuli/Test1.png,stimuli/Test2.png,"(-0.7, 0.5)",cs_plus_s,"(-0.7, -0.5)",cs_minus_s,0,0,0,0,,,,,0,51,51,0,,274.5642213000683,ä,0.6295750000281259,correct,,34,B,2023-12-15_17h29.36.724,gca_discrimination,2022.2.4,143.77380346169585,
positions.xlsx,stimuli.xlsx,test.xlsx,stimuli/Social2.png,stimuli/Social1.png,stimuli/Nonsocial1.png,stimuli/Nonsocial2.png,stimuli/Test1.png,stimuli/Test2.png,"(0.7, -0.5)",cs_minus_ns,"(-0.7, 0.5)",cs_minus_ns,0,0,0,0,,,,,0,52,52,93,,277.9391096000327,l,0.5743132999632508,correct,,34,B,2023-12-15_17h29.36.724,gca_discrimination,2022.2.4,143.77380346169585,
positions.xlsx,stimuli.xlsx,test.xlsx,stimuli/Social2.png,stimuli/Social1.png,stimuli/Nonsocial1.png,stimuli/Nonsocial2.png,stimuli/Test1.png,stimuli/Test2.png,"(0.7, -0.5)",cs_plus_s,"(-0.7, -0.5)",cs_plus_s,0,0,0,0,,,,,0,53,53,58,,280.4390185000375,l,0.6820828999625519,correct,,34,B,2023-12-15_17h29.36.724,gca_discrimination,2022.2.4,143.77380346169585,
positions.xlsx,stimuli.xlsx,test.xlsx,stimuli/Social2.png,stimuli/Social1.png,stimuli/Nonsocial1.png,stimuli/Nonsocial2.png,stimuli/Test1.png,stimuli/Test2.png,"(-0.7, -0.5)",cs_plus_ns,"(0.7, -0.5)",cs_minus_ns,0,0,0,0,,,,,0,54,54,29,,282.9944486001041,ä,1.471249800059013,correct,,34,B,2023-12-15_17h29.36.724,gca_discrimination,2022.2.4,143.77380346169585,
positions.xlsx,stimuli.xlsx,test.xlsx,stimuli/Social2.png,stimuli/Social1.png,stimuli/Nonsocial1.png,stimuli/Nonsocial2.png,stimuli/Test1.png,stimuli/Test2.png,"(0.7, 0.5)",cs_plus_s,"(0.7, -0.5)",cs_minus_s,0,0,0,0,,,,,0,55,55,8,,287.19567690009717,ä,0.4699364999542013,correct,,34,B,2023-12-15_17h29.36.724,gca_discrimination,2022.2.4,143.77380346169585,
positions.xlsx,stimuli.xlsx,test.xlsx,stimuli/Social2.png,stimuli/Social1.png,stimuli/Nonsocial1.png,stimuli/Nonsocial2.png,stimuli/Test1.png,stimuli/Test2.png,"(-0.7, -0.5)",cs_plus_s,"(-0.7, 0.5)",cs_minus_s,0,0,0,0,,,,,0,56,56,3,,290.07055920001585,ä,0.38742859999183565,correct,,34,B,2023-12-15_17h29.36.724,gca_discrimination,2022.2.4,143.77380346169585,
positions.xlsx,stimuli.xlsx,test.xlsx,stimuli/Social2.png,stimuli/Social1.png,stimuli/Nonsocial1.png,stimuli/Nonsocial2.png,stimuli/Test1.png,stimuli/Test2.png,"(0.7, -0.5)",cs_minus_ns,"(0.7, 0.5)",cs_minus_ns,0,0,0,0,,,,,0,57,57,95,,293.12596340000164,l,0.49955369997769594,correct,,34,B,2023-12-15_17h29.36.724,gca_discrimination,2022.2.4,143.77380346169585,
positions.xlsx,stimuli.xlsx,test.xlsx,stimuli/Social2.png,stimuli/Social1.png,stimuli/Nonsocial1.png,stimuli/Nonsocial2.png,stimuli/Test1.png,stimuli/Test2.png,"(-0.7, -0.5)",cs_plus_s,"(0.7, 0.5)",cs_plus_s,0,0,0,0,,,,,0,58,58,52,,295.84115850005765,l,0.6729399000760168,correct,,34,B,2023-12-15_17h29.36.724,gca_discrimination,2022.2.4,143.77380346169585,
positions.xlsx,stimuli.xlsx,test.xlsx,stimuli/Social2.png,stimuli/Social1.png,stimuli/Nonsocial1.png,stimuli/Nonsocial2.png,stimuli/Test1.png,stimuli/Test2.png,"(-0.7, 0.5)",cs_plus_ns,"(0.7, 0.5)",cs_plus_ns,0,0,0,0,,,,,0,59,59,73,,298.7160608000122,l,0.2624083999544382,correct,,34,B,2023-12-15_17h29.36.724,gca_discrimination,2022.2.4,143.77380346169585,
positions.xlsx,stimuli.xlsx,test.xlsx,stimuli/Social2.png,stimuli/Social1.png,stimuli/Nonsocial1.png,stimuli/Nonsocial2.png,stimuli/Test1.png,stimuli/Test2.png,"(0.7, 0.5)",cs_plus_ns,"(-0.7, 0.5)",cs_plus_ns,0,0,0,0,,,,,0,60,60,78,,301.4589801999973,l,0.22258509998209774,correct,,34,B,2023-12-15_17h29.36.724,gca_discrimination,2022.2.4,143.77380346169585,
positions.xlsx,stimuli.xlsx,test.xlsx,stimuli/Social2.png,stimuli/Social1.png,stimuli/Nonsocial1.png,stimuli/Nonsocial2.png,stimuli/Test1.png,stimuli/Test2.png,"(0.7, -0.5)",cs_plus_ns,"(-0.7, 0.5)",cs_minus_ns,0,0,0,0,,,,,0,61,61,33,,304.44502550002653,ä,0.292215499910526,correct,,34,B,2023-12-15_17h29.36.724,gca_discrimination,2022.2.4,143.77380346169585,
positions.xlsx,stimuli.xlsx,test.xlsx,stimuli/Social2.png,stimuli/Social1.png,stimuli/Nonsocial1.png,stimuli/Nonsocial2.png,stimuli/Test1.png,stimuli/Test2.png,"(0.7, -0.5)",cs_plus_ns,"(-0.7, 0.5)",cs_plus_ns,0,0,0,0,,,,,0,62,62,81,,307.22266050009057,ä,0.2665983000770211,wrong,,34,B,2023-12-15_17h29.36.724,gca_discrimination,2022.2.4,143.77380346169585,
positions.xlsx,stimuli.xlsx,test.xlsx,stimuli/Social2.png,stimuli/Social1.png,stimuli/Nonsocial1.png,stimuli/Nonsocial2.png,stimuli/Test1.png,stimuli/Test2.png,"(0.7, -0.5)",cs_plus_ns,"(0.7, 0.5)",cs_plus_ns,0,0,0,0,,,,,0,63,63,83,,310.18785900005605,l,0.3502928001107648,correct,,34,B,2023-12-15_17h29.36.724,gca_discrimination,2022.2.4,143.77380346169585,
positions.xlsx,stimuli.xlsx,test.xlsx,stimuli/Social2.png,stimuli/Social1.png,stimuli/Nonsocial1.png,stimuli/Nonsocial2.png,stimuli/Test1.png,stimuli/Test2.png,"(-0.7, -0.5)",cs_plus_s,"(0.7, 0.5)",cs_minus_s,0,0,0,0,,,,,0,64,64,4,,312.9516774000367,ä,0.4587020999751985,correct,,34,B,2023-12-15_17h29.36.724,gca_discrimination,2022.2.4,143.77380346169585,
positions.xlsx,stimuli.xlsx,test.xlsx,stimuli/Social2.png,stimuli/Social1.png,stimuli/Nonsocial1.png,stimuli/Nonsocial2.png,stimuli/Test1.png,stimuli/Test2.png,"(0.7, 0.5)",cs_plus_s,"(-0.7, -0.5)",cs_minus_s,0,0,0,0,,,,,0,65,65,7,,315.34043590002693,ä,0.4609742999309674,correct,,34,B,2023-12-15_17h29.36.724,gca_discrimination,2022.2.4,143.77380346169585,
positions.xlsx,stimuli.xlsx,test.xlsx,stimuli/Social2.png,stimuli/Social1.png,stimuli/Nonsocial1.png,stimuli/Nonsocial2.png,stimuli/Test1.png,stimuli/Test2.png,"(0.7, -0.5)",cs_minus_ns,"(-0.7, -0.5)",cs_minus_ns,0,0,0,0,,,,,0,66,66,94,,318.18056190002244,l,0.4461077000014484,correct,,34,B,2023-12-15_17h29.36.724,gca_discrimination,2022.2.4,143.77380346169585,
positions.xlsx,stimuli.xlsx,test.xlsx,stimuli/Social2.png,stimuli/Social1.png,stimuli/Nonsocial1.png,stimuli/Nonsocial2.png,stimuli/Test1.png,stimuli/Test2.png,"(0.7, -0.5)",cs_minus_s,"(-0.7, -0.5)",cs_plus_s,0,0,0,0,,,,,0,67,67,22,,320.6874451000476,ä,0.39416979998350143,correct,,34,B,2023-12-15_17h29.36.724,gca_discrimination,2022.2.4,143.77380346169585,
positions.xlsx,stimuli.xlsx,test.xlsx,stimuli/Social2.png,stimuli/Social1.png,stimuli/Nonsocial1.png,stimuli/Nonsocial2.png,stimuli/Test1.png,stimuli/Test2.png,"(-0.7, 0.5)",cs_plus_s,"(0.7, 0.5)",cs_plus_s,0,0,0,0,,,,,0,68,68,49,,323.3748233000515,l,0.4041557000018656,correct,,34,B,2023-12-15_17h29.36.724,gca_discrimination,2022.2.4,143.77380346169585,
positions.xlsx,stimuli.xlsx,test.xlsx,stimuli/Social2.png,stimuli/Social1.png,stimuli/Nonsocial1.png,stimuli/Nonsocial2.png,stimuli/Test1.png,stimuli/Test2.png,"(0.7, -0.5)",cs_plus_s,"(-0.7, 0.5)",cs_plus_s,0,0,0,0,,,,,0,69,69,57,,326.32612390001304,l,0.44323410000652075,correct,,34,B,2023-12-15_17h29.36.724,gca_discrimination,2022.2.4,143.77380346169585,
positions.xlsx,stimuli.xlsx,test.xlsx,stimuli/Social2.png,stimuli/Social1.png,stimuli/Nonsocial1.png,stimuli/Nonsocial2.png,stimuli/Test1.png,stimuli/Test2.png,"(-0.7, 0.5)",cs_plus_ns,"(0.7, -0.5)",cs_minus_ns,0,0,0,0,,,,,0,70,70,26,,328.8607331000967,ä,0.3166250999784097,correct,,34,B,2023-12-15_17h29.36.724,gca_discrimination,2022.2.4,143.77380346169585,
positions.xlsx,stimuli.xlsx,test.xlsx,stimuli/Social2.png,stimuli/Social1.png,stimuli/Nonsocial1.png,stimuli/Nonsocial2.png,stimuli/Test1.png,stimuli/Test2.png,"(-0.7, 0.5)",cs_plus_ns,"(0.7, 0.5)",cs_minus_ns,0,0,0,0,,,,,0,71,71,25,,331.3328553000465,ä,0.28541899996344,correct,,34,B,2023-12-15_17h29.36.724,gca_discrimination,2022.2.4,143.77380346169585,
positions.xlsx,stimuli.xlsx,test.xlsx,stimuli/Social2.png,stimuli/Social1.png,stimuli/Nonsocial1.png,stimuli/Nonsocial2.png,stimuli/Test1.png,stimuli/Test2.png,"(0.7, -0.5)",cs_plus_s,"(-0.7, -0.5)",cs_minus_s,0,0,0,0,,,,,0,72,72,10,,333.7633167000022,ä,0.5100569999776781,correct,,34,B,2023-12-15_17h29.36.724,gca_discrimination,2022.2.4,143.77380346169585,
positions.xlsx,stimuli.xlsx,test.xlsx,stimuli/Social2.png,stimuli/Social1.png,stimuli/Nonsocial1.png,stimuli/Nonsocial2.png,stimuli/Test1.png,stimuli/Test2.png,"(-0.7, 0.5)",cs_minus_ns,"(-0.7, -0.5)",cs_plus_ns,0,0,0,0,,,,,0,73,73,36,,336.2632530000992,ä,0.41067260003183037,correct,,34,B,2023-12-15_17h29.36.724,gca_discrimination,2022.2.4,143.77380346169585,
positions.xlsx,stimuli.xlsx,test.xlsx,stimuli/Social2.png,stimuli/Social1.png,stimuli/Nonsocial1.png,stimuli/Nonsocial2.png,stimuli/Test1.png,stimuli/Test2.png,"(-0.7, 0.5)",cs_plus_s,"(0.7, -0.5)",cs_minus_s,0,0,0,0,,,,,0,74,74,2,,339.28392380010337,l,0.8777636999730021,wrong,,34,B,2023-12-15_17h29.36.724,gca_discrimination,2022.2.4,143.77380346169585,
positions.xlsx,stimuli.xlsx,test.xlsx,stimuli/Social2.png,stimuli/Social1.png,stimuli/Nonsocial1.png,stimuli/Nonsocial2.png,stimuli/Test1.png,stimuli/Test2.png,"(-0.7, 0.5)",cs_minus_s,"(0.7, -0.5)",cs_plus_s,0,0,0,0,,,,,0,75,75,14,,342.1796555001056,ä,0.41376539994962513,correct,,34,B,2023-12-15_17h29.36.724,gca_discrimination,2022.2.4,143.77380346169585,
positions.xlsx,stimuli.xlsx,test.xlsx,stimuli/Social2.png,stimuli/Social1.png,stimuli/Nonsocial1.png,stimuli/Nonsocial2.png,stimuli/Test1.png,stimuli/Test2.png,"(0.7, -0.5)",cs_minus_s,"(0.7, 0.5)",cs_minus_s,0,0,0,0,,,,,0,76,76,71,,344.53379390004557,l,0.3242950999410823,correct,,34,B,2023-12-15_17h29.36.724,gca_discrimination,2022.2.4,143.77380346169585,
positions.xlsx,stimuli.xlsx,test.xlsx,stimuli/Social2.png,stimuli/Social1.png,stimuli/Nonsocial1.png,stimuli/Nonsocial2.png,stimuli/Test1.png,stimuli/Test2.png,"(-0.7, 0.5)",cs_minus_ns,"(0.7, -0.5)",cs_plus_ns,0,0,0,0,,,,,0,77,77,38,,347.56837220001034,ä,1.0337880000006407,correct,,34,B,2023-12-15_17h29.36.724,gca_discrimination,2022.2.4,143.77380346169585,
positions.xlsx,stimuli.xlsx,test.xlsx,stimuli/Social2.png,stimuli/Social1.png,stimuli/Nonsocial1.png,stimuli/Nonsocial2.png,stimuli/Test1.png,stimuli/Test2.png,"(0.7, 0.5)",cs_minus_ns,"(-0.7, -0.5)",cs_plus_ns,0,0,0,0,,,,,0,78,78,43,,350.44324570009485,ä,0.7667953000636771,correct,,34,B,2023-12-15_17h29.36.724,gca_discrimination,2022.2.4,143.77380346169585,
positions.xlsx,stimuli.xlsx,test.xlsx,stimuli/Social2.png,stimuli/Social1.png,stimuli/Nonsocial1.png,stimuli/Nonsocial2.png,stimuli/Test1.png,stimuli/Test2.png,"(0.7, 0.5)",cs_plus_ns,"(-0.7, -0.5)",cs_plus_ns,0,0,0,0,,,,,0,79,79,79,,353.7486780000618,l,0.20443849998991936,correct,,34,B,2023-12-15_17h29.36.724,gca_discrimination,2022.2.4,143.77380346169585,
positions.xlsx,stimuli.xlsx,test.xlsx,stimuli/Social2.png,stimuli/Social1.png,stimuli/Nonsocial1.png,stimuli/Nonsocial2.png,stimuli/Test1.png,stimuli/Test2.png,"(0.7, -0.5)",cs_plus_s,"(0.7, 0.5)",cs_plus_s,0,0,0,0,,,,,0,80,80,59,,356.01943450002,l,0.4155236999504268,correct,,34,B,2023-12-15_17h29.36.724,gca_discrimination,2022.2.4,143.77380346169585,
positions.xlsx,stimuli.xlsx,test.xlsx,stimuli/Social2.png,stimuli/Social1.png,stimuli/Nonsocial1.png,stimuli/Nonsocial2.png,stimuli/Test1.png,stimuli/Test2.png,"(-0.7, 0.5)",cs_minus_s,"(0.7, 0.5)",cs_minus_s,0,0,0,0,,,,,0,81,81,61,,358.7276652000146,ä,0.441935500013642,wrong,,34,B,2023-12-15_17h29.36.724,gca_discrimination,2022.2.4,143.77380346169585,
positions.xlsx,stimuli.xlsx,test.xlsx,stimuli/Social2.png,stimuli/Social1.png,stimuli/Nonsocial1.png,stimuli/Nonsocial2.png,stimuli/Test1.png,stimuli/Test2.png,"(-0.7, -0.5)",cs_minus_s,"(0.7, -0.5)",cs_plus_s,0,0,0,0,,,,,0,82,82,17,,361.3942061000271,ä,0.1994298999197781,correct,,34,B,2023-12-15_17h29.36.724,gca_discrimination,2022.2.4,143.77380346169585,
positions.xlsx,stimuli.xlsx,test.xlsx,stimuli/Social2.png,stimuli/Social1.png,stimuli/Nonsocial1.png,stimuli/Nonsocial2.png,stimuli/Test1.png,stimuli/Test2.png,"(-0.7, -0.5)",cs_minus_ns,"(0.7, -0.5)",cs_minus_ns,0,0,0,0,,,,,0,83,83,89,,364.00523500004783,l,0.3969382999930531,correct,,34,B,2023-12-15_17h29.36.724,gca_discrimination,2022.2.4,143.77380346169585,
positions.xlsx,stimuli.xlsx,test.xlsx,stimuli/Social2.png,stimuli/Social1.png,stimuli/Nonsocial1.png,stimuli/Nonsocial2.png,stimuli/Test1.png,stimuli/Test2.png,"(0.7, 0.5)",cs_plus_ns,"(0.7, -0.5)",cs_minus_ns,0,0,0,0,,,,,0,84,84,32,,366.92176800000016,ä,0.7758135000476614,correct,,34,B,2023-12-15_17h29.36.724,gca_discrimination,2022.2.4,143.77380346169585,
positions.xlsx,stimuli.xlsx,test.xlsx,stimuli/Social2.png,stimuli/Social1.png,stimuli/Nonsocial1.png,stimuli/Nonsocial2.png,stimuli/Test1.png,stimuli/Test2.png,"(0.7, -0.5)",cs_minus_ns,"(0.7, 0.5)",cs_plus_ns,0,0,0,0,,,,,0,85,85,47,,370.12302430009004,ä,1.6307890000753105,correct,,34,B,2023-12-15_17h29.36.724,gca_discrimination,2022.2.4,143.77380346169585,
positions.xlsx,stimuli.xlsx,test.xlsx,stimuli/Social2.png,stimuli/Social1.png,stimuli/Nonsocial1.png,stimuli/Nonsocial2.png,stimuli/Test1.png,stimuli/Test2.png,"(-0.7, -0.5)",cs_minus_s,"(0.7, -0.5)",cs_minus_s,0,0,0,0,,,,,0,86,86,65,,374.12285889999475,l,0.2948278000112623,correct,,34,B,2023-12-15_17h29.36.724,gca_discrimination,2022.2.4,143.77380346169585,
positions.xlsx,stimuli.xlsx,test.xlsx,stimuli/Social2.png,stimuli/Social1.png,stimuli/Nonsocial1.png,stimuli/Nonsocial2.png,stimuli/Test1.png,stimuli/Test2.png,"(-0.7, -0.5)",cs_plus_ns,"(0.7, 0.5)",cs_plus_ns,0,0,0,0,,,,,0,87,87,76,,376.6713521000929,l,0.5627438999945298,correct,,34,B,2023-12-15_17h29.36.724,gca_discrimination,2022.2.4,143.77380346169585,
positions.xlsx,stimuli.xlsx,test.xlsx,stimuli/Social2.png,stimuli/Social1.png,stimuli/Nonsocial1.png,stimuli/Nonsocial2.png,stimuli/Test1.png,stimuli/Test2.png,"(-0.7, -0.5)",cs_plus_ns,"(0.7, -0.5)",cs_plus_ns,0,0,0,0,,,,,0,88,88,77,,379.87262270005886,l,0.8649170000571758,correct,,34,B,2023-12-15_17h29.36.724,gca_discrimination,2022.2.4,143.77380346169585,
positions.xlsx,stimuli.xlsx,test.xlsx,stimuli/Social2.png,stimuli/Social1.png,stimuli/Nonsocial1.png,stimuli/Nonsocial2.png,stimuli/Test1.png,stimuli/Test2.png,"(-0.7, 0.5)",cs_minus_s,"(-0.7, -0.5)",cs_minus_s,0,0,0,0,,,,,0,89,89,60,,383.15032060001977,ä,0.4847569999983534,wrong,,34,B,2023-12-15_17h29.36.724,gca_discrimination,2022.2.4,143.77380346169585,
positions.xlsx,stimuli.xlsx,test.xlsx,stimuli/Social2.png,stimuli/Social1.png,stimuli/Nonsocial1.png,stimuli/Nonsocial2.png,stimuli/Test1.png,stimuli/Test2.png,"(-0.7, -0.5)",cs_plus_s,"(0.7, -0.5)",cs_minus_s,0,0,0,0,,,,,0,90,90,5,,385.5946556000272,l,0.343164199963212,wrong,,34,B,2023-12-15_17h29.36.724,gca_discrimination,2022.2.4,143.77380346169585,
positions.xlsx,stimuli.xlsx,test.xlsx,stimuli/Social2.png,stimuli/Social1.png,stimuli/Nonsocial1.png,stimuli/Nonsocial2.png,stimuli/Test1.png,stimuli/Test2.png,"(0.7, 0.5)",cs_plus_ns,"(-0.7, 0.5)",cs_minus_ns,0,0,0,0,,,,,0,91,91,30,,388.2125874001067,ä,1.2780673999805003,correct,,34,B,2023-12-15_17h29.36.724,gca_discrimination,2022.2.4,143.77380346169585,
positions.xlsx,stimuli.xlsx,test.xlsx,stimuli/Social2.png,stimuli/Social1.png,stimuli/Nonsocial1.png,stimuli/Nonsocial2.png,stimuli/Test1.png,stimuli/Test2.png,"(-0.7, 0.5)",cs_minus_ns,"(0.7, 0.5)",cs_minus_ns,0,0,0,0,,,,,0,92,92,85,,391.79576520004775,ä,0.31733809993602335,wrong,,34,B,2023-12-15_17h29.36.724,gca_discrimination,2022.2.4,143.77380346169585,
positions.xlsx,stimuli.xlsx,test.xlsx,stimuli/Social2.png,stimuli/Social1.png,stimuli/Nonsocial1.png,stimuli/Nonsocial2.png,stimuli/Test1.png,stimuli/Test2.png,"(0.7, -0.5)",cs_minus_s,"(-0.7, 0.5)",cs_plus_s,0,0,0,0,,,,,0,93,93,21,,394.8998758000089,ä,0.6857934999279678,correct,,34,B,2023-12-15_17h29.36.724,gca_discrimination,2022.2.4,143.77380346169585,
positions.xlsx,stimuli.xlsx,test.xlsx,stimuli/Social2.png,stimuli/Social1.png,stimuli/Nonsocial1.png,stimuli/Nonsocial2.png,stimuli/Test1.png,stimuli/Test2.png,"(-0.7, -0.5)",cs_minus_s,"(0.7, 0.5)",cs_minus_s,0,0,0,0,,,,,0,94,94,64,,398.3510833000764,ä,1.026374900015071,wrong,,34,B,2023-12-15_17h29.36.724,gca_discrimination,2022.2.4,143.77380346169585,
positions.xlsx,stimuli.xlsx,test.xlsx,stimuli/Social2.png,stimuli/Social1.png,stimuli/Nonsocial1.png,stimuli/Nonsocial2.png,stimuli/Test1.png,stimuli/Test2.png,"(-0.7, -0.5)",cs_minus_ns,"(-0.7, 0.5)",cs_minus_ns,0,0,0,0,,,,,0,95,95,87,,402.0593029001029,l,0.7185904999496415,correct,,34,B,2023-12-15_17h29.36.724,gca_discrimination,2022.2.4,143.77380346169585,
