posFile,stimFile,testFile,cs_plus_s,cs_minus_s,cs_plus_ns,cs_minus_ns,test1,test2,position1,trialtype,position2,comptype,blocks.thisRepN,blocks.thisTrialN,blocks.thisN,blocks.thisIndex,learning_trials.thisRepN,learning_trials.thisTrialN,learning_trials.thisN,learning_trials.thisIndex,trials.thisRepN,trials.thisTrialN,trials.thisN,trials.thisIndex,textStart.started,key.started,key.keys,key.rt,correctness,textStartTask.started,participant,group,date,expName,psychopyVersion,frameRate,
positions.xlsx,stimuli.xlsx,test.xlsx,stimuli/Social1.png,stimuli/Social2.png,stimuli/Nonsocial1.png,stimuli/Nonsocial2.png,stimuli/Test1.png,stimuli/Test2.png,"(-0.7, -0.5)",test2,"(0.7, 0.5)",test2,0,0,0,0,0,0,0,7,,,,,14.71761369984597,69.00021429988556,ä,0.6420708002988249,correct,,42,A,2023-12-22_15h48.05.405,gca_discrimination,2022.2.4,143.98122489304083,
positions.xlsx,stimuli.xlsx,test.xlsx,stimuli/Social1.png,stimuli/Social2.png,stimuli/Nonsocial1.png,stimuli/Nonsocial2.png,stimuli/Test1.png,stimuli/Test2.png,"(-0.7, 0.5)",test1,"(0.7, -0.5)",test1,0,0,0,0,0,1,1,5,,,,,,73.77776759979315,ä,0.5692312000319362,correct,,42,A,2023-12-22_15h48.05.405,gca_discrimination,2022.2.4,143.98122489304083,
positions.xlsx,stimuli.xlsx,test.xlsx,stimuli/Social1.png,stimuli/Social2.png,stimuli/Nonsocial1.png,stimuli/Nonsocial2.png,stimuli/Test1.png,stimuli/Test2.png,"(0.7, 0.5)",test1,"(0.7, -0.5)",test2,0,0,0,0,0,2,2,11,,,,,,79.10394850000739,l,0.6897672000341117,correct,,42,A,2023-12-22_15h48.05.405,gca_discrimination,2022.2.4,143.98122489304083,
positions.xlsx,stimuli.xlsx,test.xlsx,stimuli/Social1.png,stimuli/Social2.png,stimuli/Nonsocial1.png,stimuli/Nonsocial2.png,stimuli/Test1.png,stimuli/Test2.png,"(0.7, -0.5)",test1,"(0.7, 0.5)",test2,0,0,0,0,0,3,3,0,,,,,,84.42315639997832,l,0.6186532999854535,correct,,42,A,2023-12-22_15h48.05.405,gca_discrimination,2022.2.4,143.98122489304083,
positions.xlsx,stimuli.xlsx,test.xlsx,stimuli/Social1.png,stimuli/Social2.png,stimuli/Nonsocial1.png,stimuli/Nonsocial2.png,stimuli/Test1.png,stimuli/Test2.png,"(0.7, -0.5)",test2,"(-0.7, 0.5)",test1,0,0,0,0,0,4,4,4,,,,,,89.27023659995757,l,0.8431681001093239,correct,,42,A,2023-12-22_15h48.05.405,gca_discrimination,2022.2.4,143.98122489304083,
positions.xlsx,stimuli.xlsx,test.xlsx,stimuli/Social1.png,stimuli/Social2.png,stimuli/Nonsocial1.png,stimuli/Nonsocial2.png,stimuli/Test1.png,stimuli/Test2.png,"(0.7, 0.5)",test2,"(0.7, -0.5)",test1,0,0,0,0,0,5,5,6,,,,,,94.79781449981965,l,0.5398906001355499,correct,,42,A,2023-12-22_15h48.05.405,gca_discrimination,2022.2.4,143.98122489304083,
positions.xlsx,stimuli.xlsx,test.xlsx,stimuli/Social1.png,stimuli/Social2.png,stimuli/Nonsocial1.png,stimuli/Nonsocial2.png,stimuli/Test1.png,stimuli/Test2.png,"(-0.7, -0.5)",test1,"(0.7, 0.5)",test2,0,0,0,0,0,6,6,8,,,,,,99.4711741998326,l,0.4590766001492739,correct,,42,A,2023-12-22_15h48.05.405,gca_discrimination,2022.2.4,143.98122489304083,
positions.xlsx,stimuli.xlsx,test.xlsx,stimuli/Social1.png,stimuli/Social2.png,stimuli/Nonsocial1.png,stimuli/Nonsocial2.png,stimuli/Test1.png,stimuli/Test2.png,"(-0.7, 0.5)",test2,"(0.7, -0.5)",test1,0,0,0,0,0,7,7,12,,,,,,104.40157679980621,l,0.48843790008686483,correct,,42,A,2023-12-22_15h48.05.405,gca_discrimination,2022.2.4,143.98122489304083,
positions.xlsx,stimuli.xlsx,test.xlsx,stimuli/Social1.png,stimuli/Social2.png,stimuli/Nonsocial1.png,stimuli/Nonsocial2.png,stimuli/Test1.png,stimuli/Test2.png,"(0.7, 0.5)",test2,"(-0.7, 0.5)",test1,0,0,0,0,0,8,8,13,,,,,,109.15834059985355,l,0.651750200195238,correct,,42,A,2023-12-22_15h48.05.405,gca_discrimination,2022.2.4,143.98122489304083,
positions.xlsx,stimuli.xlsx,test.xlsx,stimuli/Social1.png,stimuli/Social2.png,stimuli/Nonsocial1.png,stimuli/Nonsocial2.png,stimuli/Test1.png,stimuli/Test2.png,"(-0.7, -0.5)",test2,"(-0.7, 0.5)",test2,0,0,0,0,0,9,9,2,,,,,,114.46367319999263,ä,0.44301510020159185,correct,,42,A,2023-12-22_15h48.05.405,gca_discrimination,2022.2.4,143.98122489304083,
positions.xlsx,stimuli.xlsx,test.xlsx,stimuli/Social1.png,stimuli/Social2.png,stimuli/Nonsocial1.png,stimuli/Nonsocial2.png,stimuli/Test1.png,stimuli/Test2.png,"(-0.7, 0.5)",test2,"(0.7, 0.5)",test1,0,0,0,0,0,10,10,3,,,,,,119.30376019980758,l,0.5459076000843197,correct,,42,A,2023-12-22_15h48.05.405,gca_discrimination,2022.2.4,143.98122489304083,
positions.xlsx,stimuli.xlsx,test.xlsx,stimuli/Social1.png,stimuli/Social2.png,stimuli/Nonsocial1.png,stimuli/Nonsocial2.png,stimuli/Test1.png,stimuli/Test2.png,"(-0.7, 0.5)",test2,"(-0.7, -0.5)",test2,0,0,0,0,0,11,11,1,,,,,,123.91473029996268,ä,0.6156578999944031,correct,,42,A,2023-12-22_15h48.05.405,gca_discrimination,2022.2.4,143.98122489304083,
positions.xlsx,stimuli.xlsx,test.xlsx,stimuli/Social1.png,stimuli/Social2.png,stimuli/Nonsocial1.png,stimuli/Nonsocial2.png,stimuli/Test1.png,stimuli/Test2.png,"(-0.7, -0.5)",test2,"(0.7, -0.5)",test2,0,0,0,0,0,12,12,9,,,,,,129.34504109993577,ä,0.6818123001139611,correct,,42,A,2023-12-22_15h48.05.405,gca_discrimination,2022.2.4,143.98122489304083,
positions.xlsx,stimuli.xlsx,test.xlsx,stimuli/Social1.png,stimuli/Social2.png,stimuli/Nonsocial1.png,stimuli/Nonsocial2.png,stimuli/Test1.png,stimuli/Test2.png,"(0.7, -0.5)",test1,"(0.7, 0.5)",test1,0,0,0,0,0,13,13,10,,,,,,134.77541519980878,ä,0.3699054999742657,correct,,42,A,2023-12-22_15h48.05.405,gca_discrimination,2022.2.4,143.98122489304083,
positions.xlsx,stimuli.xlsx,test.xlsx,stimuli/Social1.png,stimuli/Social2.png,stimuli/Nonsocial1.png,stimuli/Nonsocial2.png,stimuli/Test1.png,stimuli/Test2.png,"(-0.7, 0.5)",cs_plus_s,"(0.7, -0.5)",cs_minus_s,0,0,0,0,,,,,0,0,0,2,,154.82324950001203,None,,no answer,137.51832549995743,42,A,2023-12-22_15h48.05.405,gca_discrimination,2022.2.4,143.98122489304083,
positions.xlsx,stimuli.xlsx,test.xlsx,stimuli/Social1.png,stimuli/Social2.png,stimuli/Nonsocial1.png,stimuli/Nonsocial2.png,stimuli/Test1.png,stimuli/Test2.png,"(0.7, 0.5)",cs_plus_ns,"(-0.7, 0.5)",cs_plus_ns,0,0,0,0,,,,,0,1,1,78,,158.86473359982483,ä,1.8727643000893295,correct,,42,A,2023-12-22_15h48.05.405,gca_discrimination,2022.2.4,143.98122489304083,
positions.xlsx,stimuli.xlsx,test.xlsx,stimuli/Social1.png,stimuli/Social2.png,stimuli/Nonsocial1.png,stimuli/Nonsocial2.png,stimuli/Test1.png,stimuli/Test2.png,"(0.7, -0.5)",cs_minus_ns,"(-0.7, 0.5)",cs_plus_ns,0,0,0,0,,,,,0,2,2,45,,163.0590160000138,l,0.6624821000732481,correct,,42,A,2023-12-22_15h48.05.405,gca_discrimination,2022.2.4,143.98122489304083,
positions.xlsx,stimuli.xlsx,test.xlsx,stimuli/Social1.png,stimuli/Social2.png,stimuli/Nonsocial1.png,stimuli/Nonsocial2.png,stimuli/Test1.png,stimuli/Test2.png,"(-0.7, 0.5)",cs_minus_s,"(-0.7, -0.5)",cs_plus_s,0,0,0,0,,,,,0,3,3,12,,166.10059989988804,l,0.6786140999756753,correct,,42,A,2023-12-22_15h48.05.405,gca_discrimination,2022.2.4,143.98122489304083,
positions.xlsx,stimuli.xlsx,test.xlsx,stimuli/Social1.png,stimuli/Social2.png,stimuli/Nonsocial1.png,stimuli/Nonsocial2.png,stimuli/Test1.png,stimuli/Test2.png,"(0.7, 0.5)",cs_plus_s,"(-0.7, -0.5)",cs_plus_s,0,0,0,0,,,,,0,4,4,55,,169.2601916999556,ä,0.5571705000475049,correct,,42,A,2023-12-22_15h48.05.405,gca_discrimination,2022.2.4,143.98122489304083,
positions.xlsx,stimuli.xlsx,test.xlsx,stimuli/Social1.png,stimuli/Social2.png,stimuli/Nonsocial1.png,stimuli/Nonsocial2.png,stimuli/Test1.png,stimuli/Test2.png,"(-0.7, -0.5)",cs_minus_ns,"(0.7, 0.5)",cs_minus_ns,0,0,0,0,,,,,0,5,5,88,,172.08646929985844,l,0.6593983003403991,wrong,,42,A,2023-12-22_15h48.05.405,gca_discrimination,2022.2.4,143.98122489304083,
positions.xlsx,stimuli.xlsx,test.xlsx,stimuli/Social1.png,stimuli/Social2.png,stimuli/Nonsocial1.png,stimuli/Nonsocial2.png,stimuli/Test1.png,stimuli/Test2.png,"(-0.7, 0.5)",cs_plus_s,"(0.7, -0.5)",cs_plus_s,0,0,0,0,,,,,0,6,6,50,,175.47523789992556,ä,0.5341088999994099,correct,,42,A,2023-12-22_15h48.05.405,gca_discrimination,2022.2.4,143.98122489304083,
positions.xlsx,stimuli.xlsx,test.xlsx,stimuli/Social1.png,stimuli/Social2.png,stimuli/Nonsocial1.png,stimuli/Nonsocial2.png,stimuli/Test1.png,stimuli/Test2.png,"(-0.7, -0.5)",cs_plus_s,"(0.7, 0.5)",cs_plus_s,0,0,0,0,,,,,0,7,7,52,,178.35709750000387,ä,0.3809055001474917,correct,,42,A,2023-12-22_15h48.05.405,gca_discrimination,2022.2.4,143.98122489304083,
positions.xlsx,stimuli.xlsx,test.xlsx,stimuli/Social1.png,stimuli/Social2.png,stimuli/Nonsocial1.png,stimuli/Nonsocial2.png,stimuli/Test1.png,stimuli/Test2.png,"(0.7, -0.5)",cs_minus_ns,"(-0.7, -0.5)",cs_minus_ns,0,0,0,0,,,,,0,8,8,94,,180.64168869983405,ä,0.5921865000855178,correct,,42,A,2023-12-22_15h48.05.405,gca_discrimination,2022.2.4,143.98122489304083,
positions.xlsx,stimuli.xlsx,test.xlsx,stimuli/Social1.png,stimuli/Social2.png,stimuli/Nonsocial1.png,stimuli/Nonsocial2.png,stimuli/Test1.png,stimuli/Test2.png,"(-0.7, -0.5)",cs_plus_s,"(0.7, -0.5)",cs_plus_s,0,0,0,0,,,,,0,9,9,53,,183.7040467998013,ä,0.40146840014494956,correct,,42,A,2023-12-22_15h48.05.405,gca_discrimination,2022.2.4,143.98122489304083,
positions.xlsx,stimuli.xlsx,test.xlsx,stimuli/Social1.png,stimuli/Social2.png,stimuli/Nonsocial1.png,stimuli/Nonsocial2.png,stimuli/Test1.png,stimuli/Test2.png,"(0.7, 0.5)",cs_minus_s,"(-0.7, -0.5)",cs_minus_s,0,0,0,0,,,,,0,10,10,67,,186.14148229989223,ä,0.4359664001967758,correct,,42,A,2023-12-22_15h48.05.405,gca_discrimination,2022.2.4,143.98122489304083,
positions.xlsx,stimuli.xlsx,test.xlsx,stimuli/Social1.png,stimuli/Social2.png,stimuli/Nonsocial1.png,stimuli/Nonsocial2.png,stimuli/Test1.png,stimuli/Test2.png,"(-0.7, -0.5)",cs_plus_ns,"(0.7, 0.5)",cs_minus_ns,0,0,0,0,,,,,0,11,11,28,,188.8358610998839,l,0.6062690000981092,correct,,42,A,2023-12-22_15h48.05.405,gca_discrimination,2022.2.4,143.98122489304083,
positions.xlsx,stimuli.xlsx,test.xlsx,stimuli/Social1.png,stimuli/Social2.png,stimuli/Nonsocial1.png,stimuli/Nonsocial2.png,stimuli/Test1.png,stimuli/Test2.png,"(0.7, 0.5)",cs_minus_s,"(0.7, -0.5)",cs_minus_s,0,0,0,0,,,,,0,12,12,68,,191.76628299988806,ä,0.38767710025422275,correct,,42,A,2023-12-22_15h48.05.405,gca_discrimination,2022.2.4,143.98122489304083,
positions.xlsx,stimuli.xlsx,test.xlsx,stimuli/Social1.png,stimuli/Social2.png,stimuli/Nonsocial1.png,stimuli/Nonsocial2.png,stimuli/Test1.png,stimuli/Test2.png,"(-0.7, -0.5)",cs_plus_ns,"(-0.7, 0.5)",cs_minus_ns,0,0,0,0,,,,,0,13,13,27,,194.5439253000077,l,1.121896600117907,correct,,42,A,2023-12-22_15h48.05.405,gca_discrimination,2022.2.4,143.98122489304083,
positions.xlsx,stimuli.xlsx,test.xlsx,stimuli/Social1.png,stimuli/Social2.png,stimuli/Nonsocial1.png,stimuli/Nonsocial2.png,stimuli/Test1.png,stimuli/Test2.png,"(-0.7, -0.5)",cs_minus_ns,"(-0.7, 0.5)",cs_plus_ns,0,0,0,0,,,,,0,14,14,39,,197.95354319992475,l,0.5376828999724239,correct,,42,A,2023-12-22_15h48.05.405,gca_discrimination,2022.2.4,143.98122489304083,
positions.xlsx,stimuli.xlsx,test.xlsx,stimuli/Social1.png,stimuli/Social2.png,stimuli/Nonsocial1.png,stimuli/Nonsocial2.png,stimuli/Test1.png,stimuli/Test2.png,"(0.7, 0.5)",cs_minus_s,"(-0.7, -0.5)",cs_plus_s,0,0,0,0,,,,,0,15,15,19,,201.04369899979793,l,0.6788622001186013,correct,,42,A,2023-12-22_15h48.05.405,gca_discrimination,2022.2.4,143.98122489304083,
positions.xlsx,stimuli.xlsx,test.xlsx,stimuli/Social1.png,stimuli/Social2.png,stimuli/Nonsocial1.png,stimuli/Nonsocial2.png,stimuli/Test1.png,stimuli/Test2.png,"(-0.7, -0.5)",cs_plus_ns,"(-0.7, 0.5)",cs_plus_ns,0,0,0,0,,,,,0,16,16,75,,204.41857589990832,ä,0.8006190001033247,correct,,42,A,2023-12-22_15h48.05.405,gca_discrimination,2022.2.4,143.98122489304083,
positions.xlsx,stimuli.xlsx,test.xlsx,stimuli/Social1.png,stimuli/Social2.png,stimuli/Nonsocial1.png,stimuli/Nonsocial2.png,stimuli/Test1.png,stimuli/Test2.png,"(0.7, -0.5)",cs_plus_s,"(-0.7, -0.5)",cs_minus_s,0,0,0,0,,,,,0,17,17,10,,207.44622999988496,l,0.6119390001986176,correct,,42,A,2023-12-22_15h48.05.405,gca_discrimination,2022.2.4,143.98122489304083,
positions.xlsx,stimuli.xlsx,test.xlsx,stimuli/Social1.png,stimuli/Social2.png,stimuli/Nonsocial1.png,stimuli/Nonsocial2.png,stimuli/Test1.png,stimuli/Test2.png,"(-0.7, -0.5)",cs_plus_ns,"(0.7, -0.5)",cs_plus_ns,0,0,0,0,,,,,0,18,18,77,,210.83497999981046,ä,0.6312120000366122,correct,,42,A,2023-12-22_15h48.05.405,gca_discrimination,2022.2.4,143.98122489304083,
positions.xlsx,stimuli.xlsx,test.xlsx,stimuli/Social1.png,stimuli/Social2.png,stimuli/Nonsocial1.png,stimuli/Nonsocial2.png,stimuli/Test1.png,stimuli/Test2.png,"(-0.7, 0.5)",cs_plus_ns,"(-0.7, -0.5)",cs_minus_ns,0,0,0,0,,,,,0,19,19,24,,213.6890051998198,l,0.5368604999966919,correct,,42,A,2023-12-22_15h48.05.405,gca_discrimination,2022.2.4,143.98122489304083,
positions.xlsx,stimuli.xlsx,test.xlsx,stimuli/Social1.png,stimuli/Social2.png,stimuli/Nonsocial1.png,stimuli/Nonsocial2.png,stimuli/Test1.png,stimuli/Test2.png,"(0.7, 0.5)",cs_plus_s,"(-0.7, 0.5)",cs_minus_s,0,0,0,0,,,,,0,20,20,6,,216.75138809997588,l,1.7229167001787573,correct,,42,A,2023-12-22_15h48.05.405,gca_discrimination,2022.2.4,143.98122489304083,
positions.xlsx,stimuli.xlsx,test.xlsx,stimuli/Social1.png,stimuli/Social2.png,stimuli/Nonsocial1.png,stimuli/Nonsocial2.png,stimuli/Test1.png,stimuli/Test2.png,"(-0.7, 0.5)",cs_plus_ns,"(0.7, -0.5)",cs_plus_ns,0,0,0,0,,,,,0,21,21,74,,220.6887411000207,ä,0.5381467002443969,correct,,42,A,2023-12-22_15h48.05.405,gca_discrimination,2022.2.4,143.98122489304083,
positions.xlsx,stimuli.xlsx,test.xlsx,stimuli/Social1.png,stimuli/Social2.png,stimuli/Nonsocial1.png,stimuli/Nonsocial2.png,stimuli/Test1.png,stimuli/Test2.png,"(0.7, 0.5)",cs_plus_s,"(-0.7, -0.5)",cs_minus_s,0,0,0,0,,,,,0,22,22,7,,223.8761463998817,None,,no answer,,42,A,2023-12-22_15h48.05.405,gca_discrimination,2022.2.4,143.98122489304083,
positions.xlsx,stimuli.xlsx,test.xlsx,stimuli/Social1.png,stimuli/Social2.png,stimuli/Nonsocial1.png,stimuli/Nonsocial2.png,stimuli/Test1.png,stimuli/Test2.png,"(0.7, 0.5)",cs_minus_ns,"(0.7, -0.5)",cs_plus_ns,0,0,0,0,,,,,0,23,23,44,,227.9454404998105,l,1.1609938002657145,correct,,42,A,2023-12-22_15h48.05.405,gca_discrimination,2022.2.4,143.98122489304083,
positions.xlsx,stimuli.xlsx,test.xlsx,stimuli/Social1.png,stimuli/Social2.png,stimuli/Nonsocial1.png,stimuli/Nonsocial2.png,stimuli/Test1.png,stimuli/Test2.png,"(-0.7, 0.5)",cs_minus_ns,"(-0.7, -0.5)",cs_plus_ns,0,0,0,0,,,,,0,24,24,36,,231.90362939983606,l,0.5061023000162095,correct,,42,A,2023-12-22_15h48.05.405,gca_discrimination,2022.2.4,143.98122489304083,
positions.xlsx,stimuli.xlsx,test.xlsx,stimuli/Social1.png,stimuli/Social2.png,stimuli/Nonsocial1.png,stimuli/Nonsocial2.png,stimuli/Test1.png,stimuli/Test2.png,"(-0.7, 0.5)",cs_plus_s,"(-0.7, -0.5)",cs_minus_s,0,0,0,0,,,,,0,25,25,0,,234.4729269000236,l,0.5936207000631839,correct,,42,A,2023-12-22_15h48.05.405,gca_discrimination,2022.2.4,143.98122489304083,
positions.xlsx,stimuli.xlsx,test.xlsx,stimuli/Social1.png,stimuli/Social2.png,stimuli/Nonsocial1.png,stimuli/Nonsocial2.png,stimuli/Test1.png,stimuli/Test2.png,"(-0.7, -0.5)",cs_minus_ns,"(0.7, -0.5)",cs_plus_ns,0,0,0,0,,,,,0,26,26,41,,237.0075627998449,l,0.8274517001118511,correct,,42,A,2023-12-22_15h48.05.405,gca_discrimination,2022.2.4,143.98122489304083,
positions.xlsx,stimuli.xlsx,test.xlsx,stimuli/Social1.png,stimuli/Social2.png,stimuli/Nonsocial1.png,stimuli/Nonsocial2.png,stimuli/Test1.png,stimuli/Test2.png,"(0.7, 0.5)",cs_minus_s,"(-0.7, 0.5)",cs_plus_s,0,0,0,0,,,,,0,27,27,18,,239.93802629993297,l,0.608279500156641,correct,,42,A,2023-12-22_15h48.05.405,gca_discrimination,2022.2.4,143.98122489304083,
positions.xlsx,stimuli.xlsx,test.xlsx,stimuli/Social1.png,stimuli/Social2.png,stimuli/Nonsocial1.png,stimuli/Nonsocial2.png,stimuli/Test1.png,stimuli/Test2.png,"(-0.7, -0.5)",cs_plus_ns,"(0.7, -0.5)",cs_minus_ns,0,0,0,0,,,,,0,28,28,29,,242.53516019997187,l,0.9393408000469208,correct,,42,A,2023-12-22_15h48.05.405,gca_discrimination,2022.2.4,143.98122489304083,
positions.xlsx,stimuli.xlsx,test.xlsx,stimuli/Social1.png,stimuli/Social2.png,stimuli/Nonsocial1.png,stimuli/Nonsocial2.png,stimuli/Test1.png,stimuli/Test2.png,"(-0.7, 0.5)",cs_plus_ns,"(0.7, 0.5)",cs_plus_ns,0,0,0,0,,,,,0,29,29,73,,245.51420490001328,ä,0.696291700238362,correct,,42,A,2023-12-22_15h48.05.405,gca_discrimination,2022.2.4,143.98122489304083,
positions.xlsx,stimuli.xlsx,test.xlsx,stimuli/Social1.png,stimuli/Social2.png,stimuli/Nonsocial1.png,stimuli/Nonsocial2.png,stimuli/Test1.png,stimuli/Test2.png,"(0.7, 0.5)",cs_plus_ns,"(0.7, -0.5)",cs_minus_ns,0,0,0,0,,,,,0,30,30,32,,248.40298080001958,l,0.3830192999448627,correct,,42,A,2023-12-22_15h48.05.405,gca_discrimination,2022.2.4,143.98122489304083,
positions.xlsx,stimuli.xlsx,test.xlsx,stimuli/Social1.png,stimuli/Social2.png,stimuli/Nonsocial1.png,stimuli/Nonsocial2.png,stimuli/Test1.png,stimuli/Test2.png,"(0.7, 0.5)",cs_plus_ns,"(0.7, -0.5)",cs_plus_ns,0,0,0,0,,,,,0,31,31,80,,251.22926209983416,ä,0.5882476002443582,correct,,42,A,2023-12-22_15h48.05.405,gca_discrimination,2022.2.4,143.98122489304083,
positions.xlsx,stimuli.xlsx,test.xlsx,stimuli/Social1.png,stimuli/Social2.png,stimuli/Nonsocial1.png,stimuli/Nonsocial2.png,stimuli/Test1.png,stimuli/Test2.png,"(0.7, -0.5)",cs_plus_s,"(-0.7, 0.5)",cs_plus_s,0,0,0,0,,,,,0,32,32,57,,254.45826699980535,ä,0.7034969001542777,correct,,42,A,2023-12-22_15h48.05.405,gca_discrimination,2022.2.4,143.98122489304083,
positions.xlsx,stimuli.xlsx,test.xlsx,stimuli/Social1.png,stimuli/Social2.png,stimuli/Nonsocial1.png,stimuli/Nonsocial2.png,stimuli/Test1.png,stimuli/Test2.png,"(-0.7, 0.5)",cs_minus_ns,"(0.7, -0.5)",cs_plus_ns,0,0,0,0,,,,,0,33,33,38,,257.5137393998448,l,0.457423800136894,correct,,42,A,2023-12-22_15h48.05.405,gca_discrimination,2022.2.4,143.98122489304083,
positions.xlsx,stimuli.xlsx,test.xlsx,stimuli/Social1.png,stimuli/Social2.png,stimuli/Nonsocial1.png,stimuli/Nonsocial2.png,stimuli/Test1.png,stimuli/Test2.png,"(-0.7, -0.5)",cs_plus_s,"(0.7, 0.5)",cs_minus_s,0,0,0,0,,,,,0,34,34,4,,260.284464799799,l,0.5261005002539605,correct,,42,A,2023-12-22_15h48.05.405,gca_discrimination,2022.2.4,143.98122489304083,
positions.xlsx,stimuli.xlsx,test.xlsx,stimuli/Social1.png,stimuli/Social2.png,stimuli/Nonsocial1.png,stimuli/Nonsocial2.png,stimuli/Test1.png,stimuli/Test2.png,"(0.7, 0.5)",cs_minus_ns,"(-0.7, -0.5)",cs_minus_ns,0,0,0,0,,,,,0,35,35,91,,263.4787551998161,l,0.5792249999940395,wrong,,42,A,2023-12-22_15h48.05.405,gca_discrimination,2022.2.4,143.98122489304083,
positions.xlsx,stimuli.xlsx,test.xlsx,stimuli/Social1.png,stimuli/Social2.png,stimuli/Nonsocial1.png,stimuli/Nonsocial2.png,stimuli/Test1.png,stimuli/Test2.png,"(0.7, -0.5)",cs_minus_s,"(-0.7, 0.5)",cs_minus_s,0,0,0,0,,,,,0,36,36,69,,266.0967374998145,ä,0.40060910023748875,correct,,42,A,2023-12-22_15h48.05.405,gca_discrimination,2022.2.4,143.98122489304083,
positions.xlsx,stimuli.xlsx,test.xlsx,stimuli/Social1.png,stimuli/Social2.png,stimuli/Nonsocial1.png,stimuli/Nonsocial2.png,stimuli/Test1.png,stimuli/Test2.png,"(0.7, -0.5)",cs_minus_ns,"(0.7, 0.5)",cs_plus_ns,0,0,0,0,,,,,0,37,37,47,,268.8744110998232,l,0.4636001002509147,correct,,42,A,2023-12-22_15h48.05.405,gca_discrimination,2022.2.4,143.98122489304083,
positions.xlsx,stimuli.xlsx,test.xlsx,stimuli/Social1.png,stimuli/Social2.png,stimuli/Nonsocial1.png,stimuli/Nonsocial2.png,stimuli/Test1.png,stimuli/Test2.png,"(0.7, -0.5)",cs_minus_s,"(-0.7, 0.5)",cs_plus_s,0,0,0,0,,,,,0,38,38,21,,271.24928699992597,l,0.6641158999409527,correct,,42,A,2023-12-22_15h48.05.405,gca_discrimination,2022.2.4,143.98122489304083,
positions.xlsx,stimuli.xlsx,test.xlsx,stimuli/Social1.png,stimuli/Social2.png,stimuli/Nonsocial1.png,stimuli/Nonsocial2.png,stimuli/Test1.png,stimuli/Test2.png,"(-0.7, 0.5)",cs_plus_ns,"(0.7, 0.5)",cs_minus_ns,0,0,0,0,,,,,0,39,39,25,,274.6728358999826,l,0.6651324999984354,correct,,42,A,2023-12-22_15h48.05.405,gca_discrimination,2022.2.4,143.98122489304083,
positions.xlsx,stimuli.xlsx,test.xlsx,stimuli/Social1.png,stimuli/Social2.png,stimuli/Nonsocial1.png,stimuli/Nonsocial2.png,stimuli/Test1.png,stimuli/Test2.png,"(-0.7, 0.5)",cs_minus_s,"(0.7, -0.5)",cs_minus_s,0,0,0,0,,,,,0,40,40,62,,278.09625019994564,ä,0.39350489992648363,correct,,42,A,2023-12-22_15h48.05.405,gca_discrimination,2022.2.4,143.98122489304083,
positions.xlsx,stimuli.xlsx,test.xlsx,stimuli/Social1.png,stimuli/Social2.png,stimuli/Nonsocial1.png,stimuli/Nonsocial2.png,stimuli/Test1.png,stimuli/Test2.png,"(0.7, 0.5)",cs_plus_ns,"(-0.7, -0.5)",cs_minus_ns,0,0,0,0,,,,,0,41,41,31,,280.61004989990033,l,0.5278875001240522,correct,,42,A,2023-12-22_15h48.05.405,gca_discrimination,2022.2.4,143.98122489304083,
positions.xlsx,stimuli.xlsx,test.xlsx,stimuli/Social1.png,stimuli/Social2.png,stimuli/Nonsocial1.png,stimuli/Nonsocial2.png,stimuli/Test1.png,stimuli/Test2.png,"(-0.7, 0.5)",cs_minus_s,"(0.7, 0.5)",cs_plus_s,0,0,0,0,,,,,0,42,42,13,,283.2627132998314,l,0.4918100000359118,correct,,42,A,2023-12-22_15h48.05.405,gca_discrimination,2022.2.4,143.98122489304083,
positions.xlsx,stimuli.xlsx,test.xlsx,stimuli/Social1.png,stimuli/Social2.png,stimuli/Nonsocial1.png,stimuli/Nonsocial2.png,stimuli/Test1.png,stimuli/Test2.png,"(0.7, 0.5)",cs_minus_s,"(-0.7, 0.5)",cs_minus_s,0,0,0,0,,,,,0,43,43,66,,286.1654171999544,ä,0.33256489993073046,correct,,42,A,2023-12-22_15h48.05.405,gca_discrimination,2022.2.4,143.98122489304083,
positions.xlsx,stimuli.xlsx,test.xlsx,stimuli/Social1.png,stimuli/Social2.png,stimuli/Nonsocial1.png,stimuli/Nonsocial2.png,stimuli/Test1.png,stimuli/Test2.png,"(-0.7, 0.5)",cs_minus_s,"(0.7, -0.5)",cs_plus_s,0,0,0,0,,,,,0,44,44,14,,288.31808350002393,l,0.3958426001481712,correct,,42,A,2023-12-22_15h48.05.405,gca_discrimination,2022.2.4,143.98122489304083,
positions.xlsx,stimuli.xlsx,test.xlsx,stimuli/Social1.png,stimuli/Social2.png,stimuli/Nonsocial1.png,stimuli/Nonsocial2.png,stimuli/Test1.png,stimuli/Test2.png,"(0.7, -0.5)",cs_plus_ns,"(-0.7, -0.5)",cs_minus_ns,0,0,0,0,,,,,0,45,45,34,,291.27632219996303,l,0.4615863999351859,correct,,42,A,2023-12-22_15h48.05.405,gca_discrimination,2022.2.4,143.98122489304083,
positions.xlsx,stimuli.xlsx,test.xlsx,stimuli/Social1.png,stimuli/Social2.png,stimuli/Nonsocial1.png,stimuli/Nonsocial2.png,stimuli/Test1.png,stimuli/Test2.png,"(0.7, -0.5)",cs_plus_s,"(0.7, 0.5)",cs_minus_s,0,0,0,0,,,,,0,46,46,11,,294.33870979980566,l,0.4387029001954943,correct,,42,A,2023-12-22_15h48.05.405,gca_discrimination,2022.2.4,143.98122489304083,
positions.xlsx,stimuli.xlsx,test.xlsx,stimuli/Social1.png,stimuli/Social2.png,stimuli/Nonsocial1.png,stimuli/Nonsocial2.png,stimuli/Test1.png,stimuli/Test2.png,"(-0.7, 0.5)",cs_plus_s,"(-0.7, -0.5)",cs_plus_s,0,0,0,0,,,,,0,47,47,48,,297.22054929984733,ä,0.47775440011173487,correct,,42,A,2023-12-22_15h48.05.405,gca_discrimination,2022.2.4,143.98122489304083,
positions.xlsx,stimuli.xlsx,test.xlsx,stimuli/Social1.png,stimuli/Social2.png,stimuli/Nonsocial1.png,stimuli/Nonsocial2.png,stimuli/Test1.png,stimuli/Test2.png,"(-0.7, 0.5)",cs_minus_ns,"(0.7, 0.5)",cs_minus_ns,0,0,0,0,,,,,0,48,48,85,,300.29676229995675,ä,0.7054053000174463,correct,,42,A,2023-12-22_15h48.05.405,gca_discrimination,2022.2.4,143.98122489304083,
positions.xlsx,stimuli.xlsx,test.xlsx,stimuli/Social1.png,stimuli/Social2.png,stimuli/Nonsocial1.png,stimuli/Nonsocial2.png,stimuli/Test1.png,stimuli/Test2.png,"(-0.7, -0.5)",cs_minus_s,"(0.7, -0.5)",cs_minus_s,0,0,0,0,,,,,0,49,49,65,,303.1994616999291,ä,0.5308952000923455,correct,,42,A,2023-12-22_15h48.05.405,gca_discrimination,2022.2.4,143.98122489304083,
positions.xlsx,stimuli.xlsx,test.xlsx,stimuli/Social1.png,stimuli/Social2.png,stimuli/Nonsocial1.png,stimuli/Nonsocial2.png,stimuli/Test1.png,stimuli/Test2.png,"(-0.7, -0.5)",cs_plus_ns,"(0.7, 0.5)",cs_plus_ns,0,0,0,0,,,,,0,50,50,76,,306.17155610001646,ä,0.5261819001752883,correct,,42,A,2023-12-22_15h48.05.405,gca_discrimination,2022.2.4,143.98122489304083,
positions.xlsx,stimuli.xlsx,test.xlsx,stimuli/Social1.png,stimuli/Social2.png,stimuli/Nonsocial1.png,stimuli/Nonsocial2.png,stimuli/Test1.png,stimuli/Test2.png,"(0.7, 0.5)",cs_minus_ns,"(-0.7, -0.5)",cs_plus_ns,0,0,0,0,,,,,0,51,51,43,,308.8797992998734,l,0.5057437000796199,correct,,42,A,2023-12-22_15h48.05.405,gca_discrimination,2022.2.4,143.98122489304083,
positions.xlsx,stimuli.xlsx,test.xlsx,stimuli/Social1.png,stimuli/Social2.png,stimuli/Nonsocial1.png,stimuli/Nonsocial2.png,stimuli/Test1.png,stimuli/Test2.png,"(0.7, 0.5)",cs_minus_ns,"(0.7, -0.5)",cs_minus_ns,0,0,0,0,,,,,0,52,52,92,,312.07410430000164,ä,0.5119555001147091,correct,,42,A,2023-12-22_15h48.05.405,gca_discrimination,2022.2.4,143.98122489304083,
positions.xlsx,stimuli.xlsx,test.xlsx,stimuli/Social1.png,stimuli/Social2.png,stimuli/Nonsocial1.png,stimuli/Nonsocial2.png,stimuli/Test1.png,stimuli/Test2.png,"(0.7, -0.5)",cs_plus_s,"(-0.7, -0.5)",cs_plus_s,0,0,0,0,,,,,0,53,53,58,,315.33091989997774,ä,0.4398327001836151,correct,,42,A,2023-12-22_15h48.05.405,gca_discrimination,2022.2.4,143.98122489304083,
positions.xlsx,stimuli.xlsx,test.xlsx,stimuli/Social1.png,stimuli/Social2.png,stimuli/Nonsocial1.png,stimuli/Nonsocial2.png,stimuli/Test1.png,stimuli/Test2.png,"(0.7, -0.5)",cs_plus_ns,"(-0.7, 0.5)",cs_plus_ns,0,0,0,0,,,,,0,54,54,81,,318.261357099982,l,1.1259519001469016,wrong,,42,A,2023-12-22_15h48.05.405,gca_discrimination,2022.2.4,143.98122489304083,
positions.xlsx,stimuli.xlsx,test.xlsx,stimuli/Social1.png,stimuli/Social2.png,stimuli/Nonsocial1.png,stimuli/Nonsocial2.png,stimuli/Test1.png,stimuli/Test2.png,"(0.7, -0.5)",cs_plus_ns,"(-0.7, 0.5)",cs_minus_ns,0,0,0,0,,,,,0,55,55,33,,321.77512070001103,l,0.47547890013083816,correct,,42,A,2023-12-22_15h48.05.405,gca_discrimination,2022.2.4,143.98122489304083,
positions.xlsx,stimuli.xlsx,test.xlsx,stimuli/Social1.png,stimuli/Social2.png,stimuli/Nonsocial1.png,stimuli/Nonsocial2.png,stimuli/Test1.png,stimuli/Test2.png,"(-0.7, -0.5)",cs_minus_ns,"(0.7, -0.5)",cs_minus_ns,0,0,0,0,,,,,0,56,56,89,,324.3445100998506,ä,0.5135969999246299,correct,,42,A,2023-12-22_15h48.05.405,gca_discrimination,2022.2.4,143.98122489304083,
positions.xlsx,stimuli.xlsx,test.xlsx,stimuli/Social1.png,stimuli/Social2.png,stimuli/Nonsocial1.png,stimuli/Nonsocial2.png,stimuli/Test1.png,stimuli/Test2.png,"(0.7, -0.5)",cs_minus_ns,"(0.7, 0.5)",cs_minus_ns,0,0,0,0,,,,,0,57,57,95,,327.64989579981193,ä,0.4156917000655085,correct,,42,A,2023-12-22_15h48.05.405,gca_discrimination,2022.2.4,143.98122489304083,
positions.xlsx,stimuli.xlsx,test.xlsx,stimuli/Social1.png,stimuli/Social2.png,stimuli/Nonsocial1.png,stimuli/Nonsocial2.png,stimuli/Test1.png,stimuli/Test2.png,"(0.7, -0.5)",cs_plus_s,"(0.7, 0.5)",cs_plus_s,0,0,0,0,,,,,0,58,58,59,,330.70532740000635,ä,0.4321788002271205,correct,,42,A,2023-12-22_15h48.05.405,gca_discrimination,2022.2.4,143.98122489304083,
positions.xlsx,stimuli.xlsx,test.xlsx,stimuli/Social1.png,stimuli/Social2.png,stimuli/Nonsocial1.png,stimuli/Nonsocial2.png,stimuli/Test1.png,stimuli/Test2.png,"(0.7, -0.5)",cs_minus_s,"(0.7, 0.5)",cs_minus_s,0,0,0,0,,,,,0,59,59,71,,333.84415969997644,ä,0.3973938000854105,correct,,42,A,2023-12-22_15h48.05.405,gca_discrimination,2022.2.4,143.98122489304083,
positions.xlsx,stimuli.xlsx,test.xlsx,stimuli/Social1.png,stimuli/Social2.png,stimuli/Nonsocial1.png,stimuli/Nonsocial2.png,stimuli/Test1.png,stimuli/Test2.png,"(-0.7, 0.5)",cs_minus_ns,"(0.7, 0.5)",cs_plus_ns,0,0,0,0,,,,,0,60,60,37,,336.6078927000053,l,0.42589930002577603,correct,,42,A,2023-12-22_15h48.05.405,gca_discrimination,2022.2.4,143.98122489304083,
positions.xlsx,stimuli.xlsx,test.xlsx,stimuli/Social1.png,stimuli/Social2.png,stimuli/Nonsocial1.png,stimuli/Nonsocial2.png,stimuli/Test1.png,stimuli/Test2.png,"(-0.7, -0.5)",cs_minus_s,"(0.7, 0.5)",cs_minus_s,0,0,0,0,,,,,0,61,61,64,,338.8508390998468,ä,0.49497630004771054,correct,,42,A,2023-12-22_15h48.05.405,gca_discrimination,2022.2.4,143.98122489304083,
positions.xlsx,stimuli.xlsx,test.xlsx,stimuli/Social1.png,stimuli/Social2.png,stimuli/Nonsocial1.png,stimuli/Nonsocial2.png,stimuli/Test1.png,stimuli/Test2.png,"(-0.7, -0.5)",cs_minus_s,"(0.7, -0.5)",cs_plus_s,0,0,0,0,,,,,0,62,62,17,,341.93407800002024,l,0.39662180026061833,correct,,42,A,2023-12-22_15h48.05.405,gca_discrimination,2022.2.4,143.98122489304083,
positions.xlsx,stimuli.xlsx,test.xlsx,stimuli/Social1.png,stimuli/Social2.png,stimuli/Nonsocial1.png,stimuli/Nonsocial2.png,stimuli/Test1.png,stimuli/Test2.png,"(-0.7, 0.5)",cs_plus_ns,"(0.7, -0.5)",cs_minus_ns,0,0,0,0,,,,,0,63,63,26,,344.22563040000387,l,0.5918011001776904,correct,,42,A,2023-12-22_15h48.05.405,gca_discrimination,2022.2.4,143.98122489304083,
positions.xlsx,stimuli.xlsx,test.xlsx,stimuli/Social1.png,stimuli/Social2.png,stimuli/Nonsocial1.png,stimuli/Nonsocial2.png,stimuli/Test1.png,stimuli/Test2.png,"(0.7, 0.5)",cs_plus_s,"(0.7, -0.5)",cs_minus_s,0,0,0,0,,,,,0,64,64,8,,346.98943839990534,l,0.46133700013160706,correct,,42,A,2023-12-22_15h48.05.405,gca_discrimination,2022.2.4,143.98122489304083,
positions.xlsx,stimuli.xlsx,test.xlsx,stimuli/Social1.png,stimuli/Social2.png,stimuli/Nonsocial1.png,stimuli/Nonsocial2.png,stimuli/Test1.png,stimuli/Test2.png,"(0.7, -0.5)",cs_plus_s,"(-0.7, 0.5)",cs_minus_s,0,0,0,0,,,,,0,65,65,9,,349.28794489987195,l,0.457801700104028,correct,,42,A,2023-12-22_15h48.05.405,gca_discrimination,2022.2.4,143.98122489304083,
positions.xlsx,stimuli.xlsx,test.xlsx,stimuli/Social1.png,stimuli/Social2.png,stimuli/Nonsocial1.png,stimuli/Nonsocial2.png,stimuli/Test1.png,stimuli/Test2.png,"(0.7, -0.5)",cs_minus_s,"(-0.7, -0.5)",cs_minus_s,0,0,0,0,,,,,0,66,66,70,,351.80869889981113,ä,0.51341040013358,correct,,42,A,2023-12-22_15h48.05.405,gca_discrimination,2022.2.4,143.98122489304083,
positions.xlsx,stimuli.xlsx,test.xlsx,stimuli/Social1.png,stimuli/Social2.png,stimuli/Nonsocial1.png,stimuli/Nonsocial2.png,stimuli/Test1.png,stimuli/Test2.png,"(-0.7, -0.5)",cs_minus_ns,"(-0.7, 0.5)",cs_minus_ns,0,0,0,0,,,,,0,67,67,87,,354.31555619998835,ä,0.7582146001514047,correct,,42,A,2023-12-22_15h48.05.405,gca_discrimination,2022.2.4,143.98122489304083,
positions.xlsx,stimuli.xlsx,test.xlsx,stimuli/Social1.png,stimuli/Social2.png,stimuli/Nonsocial1.png,stimuli/Nonsocial2.png,stimuli/Test1.png,stimuli/Test2.png,"(0.7, 0.5)",cs_minus_s,"(0.7, -0.5)",cs_plus_s,0,0,0,0,,,,,0,68,68,20,,357.8015216998756,l,0.5999706999864429,correct,,42,A,2023-12-22_15h48.05.405,gca_discrimination,2022.2.4,143.98122489304083,
positions.xlsx,stimuli.xlsx,test.xlsx,stimuli/Social1.png,stimuli/Social2.png,stimuli/Nonsocial1.png,stimuli/Nonsocial2.png,stimuli/Test1.png,stimuli/Test2.png,"(0.7, -0.5)",cs_minus_ns,"(-0.7, -0.5)",cs_plus_ns,0,0,0,0,,,,,0,69,69,46,,361.169437199831,l,0.41702309995889664,correct,,42,A,2023-12-22_15h48.05.405,gca_discrimination,2022.2.4,143.98122489304083,
positions.xlsx,stimuli.xlsx,test.xlsx,stimuli/Social1.png,stimuli/Social2.png,stimuli/Nonsocial1.png,stimuli/Nonsocial2.png,stimuli/Test1.png,stimuli/Test2.png,"(-0.7, -0.5)",cs_minus_s,"(-0.7, 0.5)",cs_plus_s,0,0,0,0,,,,,0,70,70,15,,364.1832104998175,l,0.6831110999919474,correct,,42,A,2023-12-22_15h48.05.405,gca_discrimination,2022.2.4,143.98122489304083,
positions.xlsx,stimuli.xlsx,test.xlsx,stimuli/Social1.png,stimuli/Social2.png,stimuli/Nonsocial1.png,stimuli/Nonsocial2.png,stimuli/Test1.png,stimuli/Test2.png,"(0.7, -0.5)",cs_plus_ns,"(0.7, 0.5)",cs_plus_ns,0,0,0,0,,,,,0,71,71,83,,367.5580517000053,ä,0.5720530000980943,correct,,42,A,2023-12-22_15h48.05.405,gca_discrimination,2022.2.4,143.98122489304083,
positions.xlsx,stimuli.xlsx,test.xlsx,stimuli/Social1.png,stimuli/Social2.png,stimuli/Nonsocial1.png,stimuli/Nonsocial2.png,stimuli/Test1.png,stimuli/Test2.png,"(-0.7, -0.5)",cs_plus_s,"(-0.7, 0.5)",cs_minus_s,0,0,0,0,,,,,0,72,72,3,,370.245486299973,l,0.3735632002353668,correct,,42,A,2023-12-22_15h48.05.405,gca_discrimination,2022.2.4,143.98122489304083,
positions.xlsx,stimuli.xlsx,test.xlsx,stimuli/Social1.png,stimuli/Social2.png,stimuli/Nonsocial1.png,stimuli/Nonsocial2.png,stimuli/Test1.png,stimuli/Test2.png,"(0.7, 0.5)",cs_minus_ns,"(-0.7, 0.5)",cs_minus_ns,0,0,0,0,,,,,0,73,73,90,,372.6134387999773,ä,0.4371440000832081,correct,,42,A,2023-12-22_15h48.05.405,gca_discrimination,2022.2.4,143.98122489304083,
positions.xlsx,stimuli.xlsx,test.xlsx,stimuli/Social1.png,stimuli/Social2.png,stimuli/Nonsocial1.png,stimuli/Nonsocial2.png,stimuli/Test1.png,stimuli/Test2.png,"(0.7, -0.5)",cs_minus_ns,"(-0.7, 0.5)",cs_minus_ns,0,0,0,0,,,,,0,74,74,93,,375.5091461997945,ä,0.3649077001027763,correct,,42,A,2023-12-22_15h48.05.405,gca_discrimination,2022.2.4,143.98122489304083,
positions.xlsx,stimuli.xlsx,test.xlsx,stimuli/Social1.png,stimuli/Social2.png,stimuli/Nonsocial1.png,stimuli/Nonsocial2.png,stimuli/Test1.png,stimuli/Test2.png,"(-0.7, 0.5)",cs_plus_s,"(0.7, 0.5)",cs_minus_s,0,0,0,0,,,,,0,75,75,1,,378.55073499982245,l,0.5151668002363294,correct,,42,A,2023-12-22_15h48.05.405,gca_discrimination,2022.2.4,143.98122489304083,
positions.xlsx,stimuli.xlsx,test.xlsx,stimuli/Social1.png,stimuli/Social2.png,stimuli/Nonsocial1.png,stimuli/Nonsocial2.png,stimuli/Test1.png,stimuli/Test2.png,"(-0.7, 0.5)",cs_minus_ns,"(0.7, -0.5)",cs_minus_ns,0,0,0,0,,,,,0,76,76,86,,381.34922349988483,ä,0.4058662001043558,correct,,42,A,2023-12-22_15h48.05.405,gca_discrimination,2022.2.4,143.98122489304083,
positions.xlsx,stimuli.xlsx,test.xlsx,stimuli/Social1.png,stimuli/Social2.png,stimuli/Nonsocial1.png,stimuli/Nonsocial2.png,stimuli/Test1.png,stimuli/Test2.png,"(-0.7, -0.5)",cs_minus_s,"(-0.7, 0.5)",cs_minus_s,0,0,0,0,,,,,0,77,77,63,,384.02274909988046,ä,0.3795690000988543,correct,,42,A,2023-12-22_15h48.05.405,gca_discrimination,2022.2.4,143.98122489304083,
positions.xlsx,stimuli.xlsx,test.xlsx,stimuli/Social1.png,stimuli/Social2.png,stimuli/Nonsocial1.png,stimuli/Nonsocial2.png,stimuli/Test1.png,stimuli/Test2.png,"(-0.7, 0.5)",cs_minus_s,"(0.7, 0.5)",cs_minus_s,0,0,0,0,,,,,0,78,78,61,,386.7587676998228,ä,0.46808560006320477,correct,,42,A,2023-12-22_15h48.05.405,gca_discrimination,2022.2.4,143.98122489304083,
positions.xlsx,stimuli.xlsx,test.xlsx,stimuli/Social1.png,stimuli/Social2.png,stimuli/Nonsocial1.png,stimuli/Nonsocial2.png,stimuli/Test1.png,stimuli/Test2.png,"(0.7, -0.5)",cs_plus_ns,"(-0.7, -0.5)",cs_plus_ns,0,0,0,0,,,,,0,79,79,82,,389.4391816998832,l,0.7548337001353502,wrong,,42,A,2023-12-22_15h48.05.405,gca_discrimination,2022.2.4,143.98122489304083,
positions.xlsx,stimuli.xlsx,test.xlsx,stimuli/Social1.png,stimuli/Social2.png,stimuli/Nonsocial1.png,stimuli/Nonsocial2.png,stimuli/Test1.png,stimuli/Test2.png,"(0.7, 0.5)",cs_minus_ns,"(-0.7, 0.5)",cs_plus_ns,0,0,0,0,,,,,0,80,80,42,,392.20296289981343,l,0.638501200126484,correct,,42,A,2023-12-22_15h48.05.405,gca_discrimination,2022.2.4,143.98122489304083,
positions.xlsx,stimuli.xlsx,test.xlsx,stimuli/Social1.png,stimuli/Social2.png,stimuli/Nonsocial1.png,stimuli/Nonsocial2.png,stimuli/Test1.png,stimuli/Test2.png,"(0.7, 0.5)",cs_plus_s,"(-0.7, 0.5)",cs_plus_s,0,0,0,0,,,,,0,81,81,54,,394.7098236999009,ä,0.37293450022116303,correct,,42,A,2023-12-22_15h48.05.405,gca_discrimination,2022.2.4,143.98122489304083,
positions.xlsx,stimuli.xlsx,test.xlsx,stimuli/Social1.png,stimuli/Social2.png,stimuli/Nonsocial1.png,stimuli/Nonsocial2.png,stimuli/Test1.png,stimuli/Test2.png,"(-0.7, -0.5)",cs_plus_s,"(-0.7, 0.5)",cs_plus_s,0,0,0,0,,,,,0,82,82,51,,397.4388854999561,ä,0.39544920017942786,correct,,42,A,2023-12-22_15h48.05.405,gca_discrimination,2022.2.4,143.98122489304083,
positions.xlsx,stimuli.xlsx,test.xlsx,stimuli/Social1.png,stimuli/Social2.png,stimuli/Nonsocial1.png,stimuli/Nonsocial2.png,stimuli/Test1.png,stimuli/Test2.png,"(-0.7, -0.5)",cs_minus_ns,"(0.7, 0.5)",cs_plus_ns,0,0,0,0,,,,,0,83,83,40,,400.55681639979593,l,0.4854204000439495,correct,,42,A,2023-12-22_15h48.05.405,gca_discrimination,2022.2.4,143.98122489304083,
positions.xlsx,stimuli.xlsx,test.xlsx,stimuli/Social1.png,stimuli/Social2.png,stimuli/Nonsocial1.png,stimuli/Nonsocial2.png,stimuli/Test1.png,stimuli/Test2.png,"(0.7, 0.5)",cs_plus_ns,"(-0.7, -0.5)",cs_plus_ns,0,0,0,0,,,,,0,84,84,79,,403.79277659999207,ä,0.5127059002406895,correct,,42,A,2023-12-22_15h48.05.405,gca_discrimination,2022.2.4,143.98122489304083,
positions.xlsx,stimuli.xlsx,test.xlsx,stimuli/Social1.png,stimuli/Social2.png,stimuli/Nonsocial1.png,stimuli/Nonsocial2.png,stimuli/Test1.png,stimuli/Test2.png,"(0.7, 0.5)",cs_plus_ns,"(-0.7, 0.5)",cs_minus_ns,0,0,0,0,,,,,0,85,85,30,,406.32045240001753,l,0.43347500008530915,correct,,42,A,2023-12-22_15h48.05.405,gca_discrimination,2022.2.4,143.98122489304083,
positions.xlsx,stimuli.xlsx,test.xlsx,stimuli/Social1.png,stimuli/Social2.png,stimuli/Nonsocial1.png,stimuli/Nonsocial2.png,stimuli/Test1.png,stimuli/Test2.png,"(-0.7, 0.5)",cs_minus_s,"(-0.7, -0.5)",cs_minus_s,0,0,0,0,,,,,0,86,86,60,,409.278705699835,ä,0.4351731000933796,correct,,42,A,2023-12-22_15h48.05.405,gca_discrimination,2022.2.4,143.98122489304083,
positions.xlsx,stimuli.xlsx,test.xlsx,stimuli/Social1.png,stimuli/Social2.png,stimuli/Nonsocial1.png,stimuli/Nonsocial2.png,stimuli/Test1.png,stimuli/Test2.png,"(-0.7, 0.5)",cs_minus_ns,"(-0.7, -0.5)",cs_minus_ns,0,0,0,0,,,,,0,87,87,84,,411.7022069999948,ä,0.5877973001915962,correct,,42,A,2023-12-22_15h48.05.405,gca_discrimination,2022.2.4,143.98122489304083,
positions.xlsx,stimuli.xlsx,test.xlsx,stimuli/Social1.png,stimuli/Social2.png,stimuli/Nonsocial1.png,stimuli/Nonsocial2.png,stimuli/Test1.png,stimuli/Test2.png,"(0.7, -0.5)",cs_minus_s,"(-0.7, -0.5)",cs_plus_s,0,0,0,0,,,,,0,88,88,22,,414.9173869998194,ä,0.533047600183636,wrong,,42,A,2023-12-22_15h48.05.405,gca_discrimination,2022.2.4,143.98122489304083,
positions.xlsx,stimuli.xlsx,test.xlsx,stimuli/Social1.png,stimuli/Social2.png,stimuli/Nonsocial1.png,stimuli/Nonsocial2.png,stimuli/Test1.png,stimuli/Test2.png,"(-0.7, -0.5)",cs_minus_s,"(0.7, 0.5)",cs_plus_s,0,0,0,0,,,,,0,89,89,16,,417.4103380998131,l,0.45597270014695823,correct,,42,A,2023-12-22_15h48.05.405,gca_discrimination,2022.2.4,143.98122489304083,
positions.xlsx,stimuli.xlsx,test.xlsx,stimuli/Social1.png,stimuli/Social2.png,stimuli/Nonsocial1.png,stimuli/Nonsocial2.png,stimuli/Test1.png,stimuli/Test2.png,"(-0.7, 0.5)",cs_plus_ns,"(-0.7, -0.5)",cs_plus_ns,0,0,0,0,,,,,0,90,90,72,,420.5144272998441,ä,0.3998421002179384,correct,,42,A,2023-12-22_15h48.05.405,gca_discrimination,2022.2.4,143.98122489304083,
positions.xlsx,stimuli.xlsx,test.xlsx,stimuli/Social1.png,stimuli/Social2.png,stimuli/Nonsocial1.png,stimuli/Nonsocial2.png,stimuli/Test1.png,stimuli/Test2.png,"(0.7, -0.5)",cs_minus_s,"(0.7, 0.5)",cs_plus_s,0,0,0,0,,,,,0,91,91,23,,422.9517991999164,l,0.6583303001243621,correct,,42,A,2023-12-22_15h48.05.405,gca_discrimination,2022.2.4,143.98122489304083,
positions.xlsx,stimuli.xlsx,test.xlsx,stimuli/Social1.png,stimuli/Social2.png,stimuli/Nonsocial1.png,stimuli/Nonsocial2.png,stimuli/Test1.png,stimuli/Test2.png,"(-0.7, -0.5)",cs_plus_s,"(0.7, -0.5)",cs_minus_s,0,0,0,0,,,,,0,92,92,5,,426.3474879998248,l,0.6388983000069857,correct,,42,A,2023-12-22_15h48.05.405,gca_discrimination,2022.2.4,143.98122489304083,
positions.xlsx,stimuli.xlsx,test.xlsx,stimuli/Social1.png,stimuli/Social2.png,stimuli/Nonsocial1.png,stimuli/Nonsocial2.png,stimuli/Test1.png,stimuli/Test2.png,"(-0.7, 0.5)",cs_plus_s,"(0.7, 0.5)",cs_plus_s,0,0,0,0,,,,,0,93,93,49,,429.11126819998026,ä,0.2909232000820339,correct,,42,A,2023-12-22_15h48.05.405,gca_discrimination,2022.2.4,143.98122489304083,
positions.xlsx,stimuli.xlsx,test.xlsx,stimuli/Social1.png,stimuli/Social2.png,stimuli/Nonsocial1.png,stimuli/Nonsocial2.png,stimuli/Test1.png,stimuli/Test2.png,"(0.7, -0.5)",cs_plus_ns,"(0.7, 0.5)",cs_minus_ns,0,0,0,0,,,,,0,94,94,35,,432.1597575999331,l,0.5143009000457823,correct,,42,A,2023-12-22_15h48.05.405,gca_discrimination,2022.2.4,143.98122489304083,
positions.xlsx,stimuli.xlsx,test.xlsx,stimuli/Social1.png,stimuli/Social2.png,stimuli/Nonsocial1.png,stimuli/Nonsocial2.png,stimuli/Test1.png,stimuli/Test2.png,"(0.7, 0.5)",cs_plus_s,"(0.7, -0.5)",cs_plus_s,0,0,0,0,,,,,0,95,95,56,,434.7638319998514,ä,0.3177585999947041,correct,,42,A,2023-12-22_15h48.05.405,gca_discrimination,2022.2.4,143.98122489304083,
