posFile,stimFile,testFile,cs_plus_s,cs_minus_s,cs_plus_ns,cs_minus_ns,test1,test2,position1,trialtype,position2,comptype,blocks.thisRepN,blocks.thisTrialN,blocks.thisN,blocks.thisIndex,learning_trials.thisRepN,learning_trials.thisTrialN,learning_trials.thisN,learning_trials.thisIndex,trials.thisRepN,trials.thisTrialN,trials.thisN,trials.thisIndex,textStart.started,spaceStart.started,spaceStart.keys,spaceStart.rt,textStartExp.started,textExpImages.started,ImageLearning1.started,ImageLearning2.started,textSpace.started,spaceStartExp.started,spaceStartExp.keys,spaceStartExp.rt,blankScreen.started,blankScreen.stopped,fixcross.started,firstImage.started,fixcrossImage1.started,fixcrossITI.started,secondImage.started,fixcrossImage2.started,key.started,key.keys,key.rt,correctness,feedbackText.started,fixcrossEnd.started,fixcrossEnd.stopped,fixcross.stopped,feedbackText.stopped,textStartTask.started,textTaskImages.started,ImageTask1.started,ImageTask2.started,ImageTask3.started,ImageTask4.started,textTaskSpace.started,spaceStartTask.started,spaceStartTask.keys,spaceStartTask.rt,participant,group,date,expName,psychopyVersion,frameRate,
,,,,,,,,,,,,,,,,,,,,,,,,,13.01623599999948,13.01623599999948,space,10.739306900000884,,,,,,,,,,,,,,,,,,,,,,,,,,,,,,,,,,,,6,B,2023-12-07_12h20.47.041,gca_discrimination,2022.2.4,143.82736114128,
positions.xlsx,stimuli.xlsx,test.xlsx,stimuli/Social2.png,stimuli/Social1.png,stimuli/Nonsocial1.png,stimuli/Nonsocial2.png,stimuli/Test1.png,stimuli/Test2.png,"(0.7, 0.5)",test2,"(0.7, -0.5)",test1,0,0,0,0,0,0,0,6,,,,,,,,,23.779726400000072,23.779726400000072,23.779726400000072,23.779726400000072,23.779726400000072,23.779726400000072,space,51.74444360000052,75.53462609999951,77.22208259999934,77.22208259999934,78.23591440000018,78.23591440000018,78.36785729999974,78.88171249999868,78.88171249999868,79.02063429999907,ä,1.2706300999998348,correct,80.30525130000024,82.30521969999972,83.18710199999987,,,,,,,,,,,,,6,B,2023-12-07_12h20.47.041,gca_discrimination,2022.2.4,143.82736114128,
positions.xlsx,stimuli.xlsx,test.xlsx,stimuli/Social2.png,stimuli/Social1.png,stimuli/Nonsocial1.png,stimuli/Nonsocial2.png,stimuli/Test1.png,stimuli/Test2.png,"(0.7, 0.5)",test2,"(-0.7, 0.5)",test1,0,0,0,0,0,1,1,13,,,,,,,,,,,,,,,,,,,83.18710199999987,84.1940082000001,84.1940082000001,84.33984749999945,84.83983040000021,84.83983040000021,84.99258969999937,ä,0.786544500000673,correct,85.79117419999966,87.79108629999973,88.36746510000012,84.1940082000001,87.79108629999973,,,,,,,,,,,6,B,2023-12-07_12h20.47.041,gca_discrimination,2022.2.4,143.82736114128,
positions.xlsx,stimuli.xlsx,test.xlsx,stimuli/Social2.png,stimuli/Social1.png,stimuli/Nonsocial1.png,stimuli/Nonsocial2.png,stimuli/Test1.png,stimuli/Test2.png,"(-0.7, 0.5)",test2,"(0.7, -0.5)",test1,0,0,0,0,0,2,2,12,,,,,,,,,,,,,,,,,,,88.36746510000012,89.36738979999973,89.36738979999973,89.52018320000025,90.02017259999957,90.02017259999957,90.17293900000004,ä,1.0863892000015767,correct,91.27013959999931,93.27004379999926,94.17279659999986,89.36738979999973,93.27004379999926,,,,,,,,,,,6,B,2023-12-07_12h20.47.041,gca_discrimination,2022.2.4,143.82736114128,
positions.xlsx,stimuli.xlsx,test.xlsx,stimuli/Social2.png,stimuli/Social1.png,stimuli/Nonsocial1.png,stimuli/Nonsocial2.png,stimuli/Test1.png,stimuli/Test2.png,"(-0.7, 0.5)",test2,"(-0.7, -0.5)",test2,0,0,0,0,0,3,3,1,,,,,,,,,,,,,,,,,,,94.17279659999986,95.17274159999943,95.17274159999943,95.32553819999885,95.8255068999988,95.8255068999988,95.9782600999988,l,0.9291090999995504,correct,96.91573249999965,98.91565789999913,99.63785499999904,95.17274159999943,98.91565789999913,,,,,,,,,,,6,B,2023-12-07_12h20.47.041,gca_discrimination,2022.2.4,143.82736114128,
positions.xlsx,stimuli.xlsx,test.xlsx,stimuli/Social2.png,stimuli/Social1.png,stimuli/Nonsocial1.png,stimuli/Nonsocial2.png,stimuli/Test1.png,stimuli/Test2.png,"(0.7, 0.5)",test1,"(0.7, -0.5)",test2,0,0,0,0,0,4,4,11,,,,,,,,,,,,,,,,,,,99.63785499999904,100.6378052,100.6378052,100.7905981999993,101.29055639999933,101.29055639999933,101.44332849999955,ä,0.9121983999993972,correct,102.36685639999996,104.36682709999877,104.3807125000003,100.6378052,104.36682709999877,,,,,,,,,,,6,B,2023-12-07_12h20.47.041,gca_discrimination,2022.2.4,143.82736114128,
positions.xlsx,stimuli.xlsx,test.xlsx,stimuli/Social2.png,stimuli/Social1.png,stimuli/Nonsocial1.png,stimuli/Nonsocial2.png,stimuli/Test1.png,stimuli/Test2.png,"(-0.7, -0.5)",test1,"(0.7, 0.5)",test2,0,0,0,0,0,5,5,8,,,,,,,,,,,,,,,,,,,104.3807125000003,105.3806943999989,105.3806943999989,105.5334630999987,106.03342499999962,106.03342499999962,106.18621359999997,l,1.737963800000216,wrong,107.9361374,109.93605559999924,110.52632089999861,105.3806943999989,109.93605559999924,,,,,,,,,,,6,B,2023-12-07_12h20.47.041,gca_discrimination,2022.2.4,143.82736114128,
positions.xlsx,stimuli.xlsx,test.xlsx,stimuli/Social2.png,stimuli/Social1.png,stimuli/Nonsocial1.png,stimuli/Nonsocial2.png,stimuli/Test1.png,stimuli/Test2.png,"(-0.7, -0.5)",test2,"(0.7, -0.5)",test2,0,0,0,0,0,6,6,9,,,,,,,,,,,,,,,,,,,110.52632089999861,111.52629129999877,111.52629129999877,111.67903879999903,112.17903300000035,112.17903300000035,112.33176679999997,ä,0.5353567000001931,wrong,112.88037839999924,114.88032829999975,115.67194339999878,111.52629129999877,114.88032829999975,,,,,,,,,,,6,B,2023-12-07_12h20.47.041,gca_discrimination,2022.2.4,143.82736114128,
positions.xlsx,stimuli.xlsx,test.xlsx,stimuli/Social2.png,stimuli/Social1.png,stimuli/Nonsocial1.png,stimuli/Nonsocial2.png,stimuli/Test1.png,stimuli/Test2.png,"(-0.7, 0.5)",test2,"(0.7, 0.5)",test1,0,0,0,0,0,7,7,3,,,,,,,,,,,,,,,,,,,115.67194339999878,116.67886089999956,116.67886089999956,116.82462229999874,117.32465690000026,117.32465690000026,117.47741940000014,ä,1.2139649000018835,correct,118.69960209999954,120.69952310000008,121.13702679999915,116.67886089999956,120.69952310000008,,,,,,,,,,,6,B,2023-12-07_12h20.47.041,gca_discrimination,2022.2.4,143.82736114128,
positions.xlsx,stimuli.xlsx,test.xlsx,stimuli/Social2.png,stimuli/Social1.png,stimuli/Nonsocial1.png,stimuli/Nonsocial2.png,stimuli/Test1.png,stimuli/Test2.png,"(0.7, -0.5)",test1,"(0.7, 0.5)",test2,0,0,0,0,0,8,8,0,,,,,,,,,,,,,,,,,,,121.13702679999915,122.1369821999997,122.1369821999997,122.28973269999915,122.78977399999894,122.78977399999894,122.94249440000021,ä,1.0287379000019428,correct,123.9841250999998,125.9840435999995,126.74787839999954,122.1369821999997,125.9840435999995,,,,,,,,,,,6,B,2023-12-07_12h20.47.041,gca_discrimination,2022.2.4,143.82736114128,
positions.xlsx,stimuli.xlsx,test.xlsx,stimuli/Social2.png,stimuli/Social1.png,stimuli/Nonsocial1.png,stimuli/Nonsocial2.png,stimuli/Test1.png,stimuli/Test2.png,"(-0.7, -0.5)",test2,"(0.7, 0.5)",test2,0,0,0,0,0,9,9,7,,,,,,,,,,,,,,,,,,,126.74787839999954,127.74787809999907,127.74787809999907,127.90065159999904,128.40062359999865,128.40062359999865,128.55337510000027,None,,no answer,130.55329419999907,132.55323279999902,133.43514379999942,127.74787809999907,,,,,,,,,,,,6,B,2023-12-07_12h20.47.041,gca_discrimination,2022.2.4,143.82736114128,
positions.xlsx,stimuli.xlsx,test.xlsx,stimuli/Social2.png,stimuli/Social1.png,stimuli/Nonsocial1.png,stimuli/Nonsocial2.png,stimuli/Test1.png,stimuli/Test2.png,"(0.7, -0.5)",test2,"(-0.7, 0.5)",test1,0,0,0,0,0,10,10,4,,,,,,,,,,,,,,,,,,,133.43514379999942,134.43509959999938,134.43509959999938,134.58787029999985,135.0878501999996,135.0878501999996,135.24061999999867,ä,0.6429260999993858,correct,135.89337799999885,137.89330960000007,138.56691599999976,134.43509959999938,137.89330960000007,,,,,,,,,,,6,B,2023-12-07_12h20.47.041,gca_discrimination,2022.2.4,143.82736114128,
positions.xlsx,stimuli.xlsx,test.xlsx,stimuli/Social2.png,stimuli/Social1.png,stimuli/Nonsocial1.png,stimuli/Nonsocial2.png,stimuli/Test1.png,stimuli/Test2.png,"(-0.7, -0.5)",test2,"(-0.7, 0.5)",test2,0,0,0,0,0,11,11,2,,,,,,,,,,,,,,,,,,,138.56691599999976,139.5668501,139.5668501,139.71962679999888,140.21962729999905,140.21962729999905,140.37234439999884,l,0.8079958000016632,correct,141.19178829999873,143.19171519999873,144.04585789999874,139.5668501,143.19171519999873,,,,,,,,,,,6,B,2023-12-07_12h20.47.041,gca_discrimination,2022.2.4,143.82736114128,
positions.xlsx,stimuli.xlsx,test.xlsx,stimuli/Social2.png,stimuli/Social1.png,stimuli/Nonsocial1.png,stimuli/Nonsocial2.png,stimuli/Test1.png,stimuli/Test2.png,"(-0.7, 0.5)",test1,"(0.7, -0.5)",test1,0,0,0,0,0,12,12,5,,,,,,,,,,,,,,,,,,,144.04585789999874,145.04578459999902,145.04578459999902,145.19857559999946,145.69857520000005,145.69857520000005,145.85134029999972,l,1.024036900000283,correct,146.88600679999945,148.88592939999944,149.80950299999859,145.04578459999902,148.88592939999944,,,,,,,,,,,6,B,2023-12-07_12h20.47.041,gca_discrimination,2022.2.4,143.82736114128,
positions.xlsx,stimuli.xlsx,test.xlsx,stimuli/Social2.png,stimuli/Social1.png,stimuli/Nonsocial1.png,stimuli/Nonsocial2.png,stimuli/Test1.png,stimuli/Test2.png,"(0.7, -0.5)",test1,"(0.7, 0.5)",test1,0,0,0,0,0,13,13,10,,,,,,,,,,,,,,,,,,,149.80950299999859,150.8094807999987,150.8094807999987,150.96224520000032,151.46223459999965,151.46223459999965,151.6150562999992,l,0.7240587000014784,correct,152.35114489999978,154.35095439999895,154.37181189999865,150.8094807999987,154.35095439999895,,,,,,,,,,,6,B,2023-12-07_12h20.47.041,gca_discrimination,2022.2.4,143.82736114128,
positions.xlsx,stimuli.xlsx,test.xlsx,stimuli/Social2.png,stimuli/Social1.png,stimuli/Nonsocial1.png,stimuli/Nonsocial2.png,stimuli/Test1.png,stimuli/Test2.png,"(0.7, -0.5)",cs_minus_ns,"(0.7, 0.5)",cs_plus_ns,0,0,0,0,,,,,0,0,0,47,,,,,,,,,,,,,163.6353784999992,164.97558500000014,164.97558500000014,165.97553530000005,165.97553530000005,166.11443279999912,166.62136069999906,166.62136069999906,166.76718470000014,ä,1.4684630000010657,correct,,168.2462904999993,169.23933690000013,,,154.37181189999865,154.37181189999865,154.37181189999865,154.37181189999865,154.37181189999865,154.37181189999865,154.37181189999865,154.37181189999865,space,9.256175900000017,6,B,2023-12-07_12h20.47.041,gca_discrimination,2022.2.4,143.82736114128,
positions.xlsx,stimuli.xlsx,test.xlsx,stimuli/Social2.png,stimuli/Social1.png,stimuli/Nonsocial1.png,stimuli/Nonsocial2.png,stimuli/Test1.png,stimuli/Test2.png,"(-0.7, -0.5)",cs_minus_s,"(0.7, 0.5)",cs_minus_s,0,0,0,0,,,,,0,1,1,64,,,,,,,,,,,,,,,169.23933690000013,170.24620390000018,170.24620390000018,170.39201719999983,170.89897109999947,170.89897109999947,171.04486299999917,l,1.1670549000009487,correct,,172.22530189999998,172.56556929999897,170.24620390000018,,,,,,,,,,,,6,B,2023-12-07_12h20.47.041,gca_discrimination,2022.2.4,143.82736114128,
positions.xlsx,stimuli.xlsx,test.xlsx,stimuli/Social2.png,stimuli/Social1.png,stimuli/Nonsocial1.png,stimuli/Nonsocial2.png,stimuli/Test1.png,stimuli/Test2.png,"(0.7, 0.5)",cs_plus_ns,"(-0.7, 0.5)",cs_minus_ns,0,0,0,0,,,,,0,2,2,30,,,,,,,,,,,,,,,172.56556929999897,173.57247889999962,173.57247889999962,173.71829660000003,174.22520449999865,174.22520449999865,174.3710957000003,ä,1.6720559000004869,correct,,176.05154690000018,176.83632319999924,173.57247889999962,,,,,,,,,,,,6,B,2023-12-07_12h20.47.041,gca_discrimination,2022.2.4,143.82736114128,
positions.xlsx,stimuli.xlsx,test.xlsx,stimuli/Social2.png,stimuli/Social1.png,stimuli/Nonsocial1.png,stimuli/Nonsocial2.png,stimuli/Test1.png,stimuli/Test2.png,"(0.7, -0.5)",cs_minus_s,"(-0.7, -0.5)",cs_plus_s,0,0,0,0,,,,,0,3,3,22,,,,,,,,,,,,,,,176.83632319999924,177.84313939999993,177.84313939999993,177.98899009999877,178.49590329999955,178.49590329999955,178.64175109999996,None,,no answer,,180.6416253999996,181.21107819999997,177.84313939999993,,,,,,,,,,,,6,B,2023-12-07_12h20.47.041,gca_discrimination,2022.2.4,143.82736114128,
positions.xlsx,stimuli.xlsx,test.xlsx,stimuli/Social2.png,stimuli/Social1.png,stimuli/Nonsocial1.png,stimuli/Nonsocial2.png,stimuli/Test1.png,stimuli/Test2.png,"(0.7, -0.5)",cs_minus_s,"(-0.7, 0.5)",cs_minus_s,0,0,0,0,,,,,0,4,4,69,,,,,,,,,,,,,,,181.21107819999997,182.21797559999868,182.21797559999868,182.3638049000001,182.8707046999989,182.8707046999989,183.01655869999922,None,,no answer,,185.01649439999892,185.32201709999936,182.21797559999868,,,,,,,,,,,,6,B,2023-12-07_12h20.47.041,gca_discrimination,2022.2.4,143.82736114128,
positions.xlsx,stimuli.xlsx,test.xlsx,stimuli/Social2.png,stimuli/Social1.png,stimuli/Nonsocial1.png,stimuli/Nonsocial2.png,stimuli/Test1.png,stimuli/Test2.png,"(-0.7, 0.5)",cs_minus_s,"(-0.7, -0.5)",cs_minus_s,0,0,0,0,,,,,0,5,5,60,,,,,,,,,,,,,,,185.32201709999936,186.32898489999934,186.32898489999934,186.47477869999966,186.98166539999875,186.98166539999875,187.1275128999987,ä,1.0121443000007275,wrong,,188.14828139999918,189.13438189999943,186.32898489999934,,,,,,,,,,,,6,B,2023-12-07_12h20.47.041,gca_discrimination,2022.2.4,143.82736114128,
positions.xlsx,stimuli.xlsx,test.xlsx,stimuli/Social2.png,stimuli/Social1.png,stimuli/Nonsocial1.png,stimuli/Nonsocial2.png,stimuli/Test1.png,stimuli/Test2.png,"(-0.7, -0.5)",cs_plus_ns,"(0.7, 0.5)",cs_plus_ns,0,0,0,0,,,,,0,6,6,76,,,,,,,,,,,,,,,189.13438189999943,190.14128119999987,190.14128119999987,190.28710989999854,190.79403679999996,190.79403679999996,190.93985950000024,l,1.0083618000007846,correct,,191.9606666999989,192.51618699999926,190.14128119999987,,,,,,,,,,,,6,B,2023-12-07_12h20.47.041,gca_discrimination,2022.2.4,143.82736114128,
positions.xlsx,stimuli.xlsx,test.xlsx,stimuli/Social2.png,stimuli/Social1.png,stimuli/Nonsocial1.png,stimuli/Nonsocial2.png,stimuli/Test1.png,stimuli/Test2.png,"(-0.7, 0.5)",cs_minus_s,"(0.7, 0.5)",cs_minus_s,0,0,0,0,,,,,0,7,7,61,,,,,,,,,,,,,,,192.51618699999926,193.52315259999887,193.52315259999887,193.66891229999965,194.17585599999984,194.17585599999984,194.32164339999872,l,0.8341497000019444,correct,,195.16890349999994,195.82855769999878,193.52315259999887,,,,,,,,,,,,6,B,2023-12-07_12h20.47.041,gca_discrimination,2022.2.4,143.82736114128,
positions.xlsx,stimuli.xlsx,test.xlsx,stimuli/Social2.png,stimuli/Social1.png,stimuli/Nonsocial1.png,stimuli/Nonsocial2.png,stimuli/Test1.png,stimuli/Test2.png,"(0.7, -0.5)",cs_minus_ns,"(-0.7, 0.5)",cs_minus_ns,0,0,0,0,,,,,0,8,8,93,,,,,,,,,,,,,,,195.82855769999878,196.83548549999978,196.83548549999978,196.98128480000014,197.4882304999992,197.4882304999992,197.6340638999991,l,0.9135049000014988,correct,,198.55763409999963,199.14093289999983,196.83548549999978,,,,,,,,,,,,6,B,2023-12-07_12h20.47.041,gca_discrimination,2022.2.4,143.82736114128,
positions.xlsx,stimuli.xlsx,test.xlsx,stimuli/Social2.png,stimuli/Social1.png,stimuli/Nonsocial1.png,stimuli/Nonsocial2.png,stimuli/Test1.png,stimuli/Test2.png,"(0.7, 0.5)",cs_plus_ns,"(0.7, -0.5)",cs_minus_ns,0,0,0,0,,,,,0,9,9,32,,,,,,,,,,,,,,,199.14093289999983,200.14783849999912,200.14783849999912,200.29369269999916,200.80058230000031,200.80058230000031,200.94641709999996,ä,1.1049912000016775,correct,,202.06442769999921,202.83519840000008,200.14783849999912,,,,,,,,,,,,6,B,2023-12-07_12h20.47.041,gca_discrimination,2022.2.4,143.82736114128,
positions.xlsx,stimuli.xlsx,test.xlsx,stimuli/Social2.png,stimuli/Social1.png,stimuli/Nonsocial1.png,stimuli/Nonsocial2.png,stimuli/Test1.png,stimuli/Test2.png,"(-0.7, 0.5)",cs_plus_ns,"(-0.7, -0.5)",cs_minus_ns,0,0,0,0,,,,,0,10,10,24,,,,,,,,,,,,,,,202.83519840000008,203.84215739999854,203.84215739999854,203.98792949999915,204.49490419999893,204.49490419999893,204.64071519999925,ä,0.7067018000016105,correct,,205.3559839999998,206.00174779999907,203.84215739999854,,,,,,,,,,,,6,B,2023-12-07_12h20.47.041,gca_discrimination,2022.2.4,143.82736114128,
positions.xlsx,stimuli.xlsx,test.xlsx,stimuli/Social2.png,stimuli/Social1.png,stimuli/Nonsocial1.png,stimuli/Nonsocial2.png,stimuli/Test1.png,stimuli/Test2.png,"(-0.7, -0.5)",cs_plus_ns,"(0.7, -0.5)",cs_minus_ns,0,0,0,0,,,,,0,11,11,29,,,,,,,,,,,,,,,206.00174779999907,207.00868519999858,207.00868519999858,207.1545215999995,207.66141439999956,207.66141439999956,207.8072794999989,ä,0.757268400000612,correct,,208.57806319999872,208.73778469999888,207.00868519999858,,,,,,,,,,,,6,B,2023-12-07_12h20.47.041,gca_discrimination,2022.2.4,143.82736114128,
positions.xlsx,stimuli.xlsx,test.xlsx,stimuli/Social2.png,stimuli/Social1.png,stimuli/Nonsocial1.png,stimuli/Nonsocial2.png,stimuli/Test1.png,stimuli/Test2.png,"(0.7, 0.5)",cs_plus_s,"(0.7, -0.5)",cs_plus_s,0,0,0,0,,,,,0,12,12,56,,,,,,,,,,,,,,,208.73778469999888,209.7446842999998,209.7446842999998,209.89054939999914,210.3973933999987,210.3973933999987,210.54326579999906,l,1.5567094000016368,correct,,212.11262069999975,212.12651189999997,209.7446842999998,,,,,,,,,,,,6,B,2023-12-07_12h20.47.041,gca_discrimination,2022.2.4,143.82736114128,
positions.xlsx,stimuli.xlsx,test.xlsx,stimuli/Social2.png,stimuli/Social1.png,stimuli/Nonsocial1.png,stimuli/Nonsocial2.png,stimuli/Test1.png,stimuli/Test2.png,"(-0.7, 0.5)",cs_plus_ns,"(0.7, -0.5)",cs_plus_ns,0,0,0,0,,,,,0,13,13,74,,,,,,,,,,,,,,,212.12651189999997,213.13340629999948,213.13340629999948,213.27927909999926,213.78620919999958,213.78620919999958,213.93201799999952,l,0.7513245000009192,correct,,214.69586439999875,215.68197919999875,213.13340629999948,,,,,,,,,,,,6,B,2023-12-07_12h20.47.041,gca_discrimination,2022.2.4,143.82736114128,
positions.xlsx,stimuli.xlsx,test.xlsx,stimuli/Social2.png,stimuli/Social1.png,stimuli/Nonsocial1.png,stimuli/Nonsocial2.png,stimuli/Test1.png,stimuli/Test2.png,"(0.7, -0.5)",cs_plus_ns,"(0.7, 0.5)",cs_minus_ns,0,0,0,0,,,,,0,14,14,35,,,,,,,,,,,,,,,215.68197919999875,216.68888189999961,216.68888189999961,216.83468189999985,217.3416206999991,217.3416206999991,217.48744519999855,ä,0.6922038000011526,correct,,218.18881359999978,218.55687380000018,216.68888189999961,,,,,,,,,,,,6,B,2023-12-07_12h20.47.041,gca_discrimination,2022.2.4,143.82736114128,
positions.xlsx,stimuli.xlsx,test.xlsx,stimuli/Social2.png,stimuli/Social1.png,stimuli/Nonsocial1.png,stimuli/Nonsocial2.png,stimuli/Test1.png,stimuli/Test2.png,"(-0.7, -0.5)",cs_minus_ns,"(-0.7, 0.5)",cs_plus_ns,0,0,0,0,,,,,0,15,15,39,,,,,,,,,,,,,,,218.55687380000018,219.56375200000002,219.56375200000002,219.7095733999995,220.21651109999948,220.21651109999948,220.3623140999989,ä,0.7454142000005959,correct,,221.11925439999868,222.0011512000001,219.56375200000002,,,,,,,,,,,,6,B,2023-12-07_12h20.47.041,gca_discrimination,2022.2.4,143.82736114128,
positions.xlsx,stimuli.xlsx,test.xlsx,stimuli/Social2.png,stimuli/Social1.png,stimuli/Nonsocial1.png,stimuli/Nonsocial2.png,stimuli/Test1.png,stimuli/Test2.png,"(-0.7, -0.5)",cs_minus_s,"(0.7, -0.5)",cs_plus_s,0,0,0,0,,,,,0,16,16,17,,,,,,,,,,,,,,,222.0011512000001,223.0080683999986,223.0080683999986,223.15390509999997,223.66081870000016,223.66081870000016,223.80663189999905,ä,1.1251979999997275,correct,,224.94550460000028,225.70239109999966,223.0080683999986,,,,,,,,,,,,6,B,2023-12-07_12h20.47.041,gca_discrimination,2022.2.4,143.82736114128,
positions.xlsx,stimuli.xlsx,test.xlsx,stimuli/Social2.png,stimuli/Social1.png,stimuli/Nonsocial1.png,stimuli/Nonsocial2.png,stimuli/Test1.png,stimuli/Test2.png,"(-0.7, -0.5)",cs_plus_ns,"(0.7, -0.5)",cs_plus_ns,0,0,0,0,,,,,0,17,17,77,,,,,,,,,,,,,,,225.70239109999966,226.7093062999993,226.7093062999993,226.85516839999946,227.36205619999964,227.36205619999964,227.50790299999971,l,1.535958500000561,correct,,229.05643400000008,229.53558759999942,226.7093062999993,,,,,,,,,,,,6,B,2023-12-07_12h20.47.041,gca_discrimination,2022.2.4,143.82736114128,
positions.xlsx,stimuli.xlsx,test.xlsx,stimuli/Social2.png,stimuli/Social1.png,stimuli/Nonsocial1.png,stimuli/Nonsocial2.png,stimuli/Test1.png,stimuli/Test2.png,"(-0.7, -0.5)",cs_minus_s,"(-0.7, 0.5)",cs_minus_s,0,0,0,0,,,,,0,18,18,63,,,,,,,,,,,,,,,229.53558759999942,230.54251309999927,230.54251309999927,230.68830829999933,231.19524629999978,231.19524629999978,231.34104259999913,l,0.7743248000006133,correct,,232.1257655999998,232.6535162,230.54251309999927,,,,,,,,,,,,6,B,2023-12-07_12h20.47.041,gca_discrimination,2022.2.4,143.82736114128,
positions.xlsx,stimuli.xlsx,test.xlsx,stimuli/Social2.png,stimuli/Social1.png,stimuli/Nonsocial1.png,stimuli/Nonsocial2.png,stimuli/Test1.png,stimuli/Test2.png,"(-0.7, 0.5)",cs_plus_s,"(-0.7, -0.5)",cs_minus_s,0,0,0,0,,,,,0,19,19,0,,,,,,,,,,,,,,,232.6535162,233.66041039999982,233.66041039999982,233.8062388999988,234.31317949999902,234.31317949999902,234.4590017999999,ä,1.0082836000001407,correct,,235.47978329999933,235.5145365999997,233.66041039999982,,,,,,,,,,,,6,B,2023-12-07_12h20.47.041,gca_discrimination,2022.2.4,143.82736114128,
positions.xlsx,stimuli.xlsx,test.xlsx,stimuli/Social2.png,stimuli/Social1.png,stimuli/Nonsocial1.png,stimuli/Nonsocial2.png,stimuli/Test1.png,stimuli/Test2.png,"(0.7, -0.5)",cs_minus_ns,"(-0.7, -0.5)",cs_plus_ns,0,0,0,0,,,,,0,20,20,46,,,,,,,,,,,,,,,235.5145365999997,236.52141519999896,236.52141519999896,236.6672441999999,237.174135199999,237.174135199999,237.31999609999912,l,1.307143600000927,wrong,,238.63940980000007,238.99351949999982,236.52141519999896,,,,,,,,,,,,6,B,2023-12-07_12h20.47.041,gca_discrimination,2022.2.4,143.82736114128,
positions.xlsx,stimuli.xlsx,test.xlsx,stimuli/Social2.png,stimuli/Social1.png,stimuli/Nonsocial1.png,stimuli/Nonsocial2.png,stimuli/Test1.png,stimuli/Test2.png,"(0.7, -0.5)",cs_plus_ns,"(-0.7, 0.5)",cs_minus_ns,0,0,0,0,,,,,0,21,21,33,,,,,,,,,,,,,,,238.99351949999982,240.00045489999866,240.00045489999866,240.14628399999856,240.6532041999999,240.6532041999999,240.79904159999933,ä,1.0285124000020005,correct,,241.84068149999985,242.51420869999856,240.00045489999866,,,,,,,,,,,,6,B,2023-12-07_12h20.47.041,gca_discrimination,2022.2.4,143.82736114128,
positions.xlsx,stimuli.xlsx,test.xlsx,stimuli/Social2.png,stimuli/Social1.png,stimuli/Nonsocial1.png,stimuli/Nonsocial2.png,stimuli/Test1.png,stimuli/Test2.png,"(0.7, -0.5)",cs_minus_ns,"(-0.7, 0.5)",cs_plus_ns,0,0,0,0,,,,,0,22,22,45,,,,,,,,,,,,,,,242.51420869999856,243.52118719999999,243.52118719999999,243.6669727999997,244.17390799999885,244.17390799999885,244.31973639999887,ä,0.9717615999998088,correct,,245.2988690000002,245.56964139999945,243.52118719999999,,,,,,,,,,,,6,B,2023-12-07_12h20.47.041,gca_discrimination,2022.2.4,143.82736114128,
positions.xlsx,stimuli.xlsx,test.xlsx,stimuli/Social2.png,stimuli/Social1.png,stimuli/Nonsocial1.png,stimuli/Nonsocial2.png,stimuli/Test1.png,stimuli/Test2.png,"(-0.7, -0.5)",cs_plus_s,"(0.7, 0.5)",cs_plus_s,0,0,0,0,,,,,0,23,23,52,,,,,,,,,,,,,,,245.56964139999945,246.57661929999995,246.57661929999995,246.72242679999908,247.2293351999997,247.2293351999997,247.3751601999993,l,0.8527584000003117,correct,,248.23625179999908,248.76400099999955,246.57661929999995,,,,,,,,,,,,6,B,2023-12-07_12h20.47.041,gca_discrimination,2022.2.4,143.82736114128,
positions.xlsx,stimuli.xlsx,test.xlsx,stimuli/Social2.png,stimuli/Social1.png,stimuli/Nonsocial1.png,stimuli/Nonsocial2.png,stimuli/Test1.png,stimuli/Test2.png,"(0.7, -0.5)",cs_plus_ns,"(-0.7, -0.5)",cs_plus_ns,0,0,0,0,,,,,0,24,24,82,,,,,,,,,,,,,,,248.76400099999955,249.77091459999974,249.77091459999974,249.91671229999884,250.42368039999928,250.42368039999928,250.56948329999977,l,0.9853472000013426,correct,,251.56249559999924,251.62500329999966,249.77091459999974,,,,,,,,,,,,6,B,2023-12-07_12h20.47.041,gca_discrimination,2022.2.4,143.82736114128,
positions.xlsx,stimuli.xlsx,test.xlsx,stimuli/Social2.png,stimuli/Social1.png,stimuli/Nonsocial1.png,stimuli/Nonsocial2.png,stimuli/Test1.png,stimuli/Test2.png,"(0.7, -0.5)",cs_minus_s,"(-0.7, -0.5)",cs_minus_s,0,0,0,0,,,,,0,25,25,70,,,,,,,,,,,,,,,251.62500329999966,252.63190179999947,252.63190179999947,252.7777275999997,253.28466920000028,253.28466920000028,253.4304949999987,l,1.1330843000014283,correct,,254.57625579999876,254.59015649999856,252.63190179999947,,,,,,,,,,,,6,B,2023-12-07_12h20.47.041,gca_discrimination,2022.2.4,143.82736114128,
positions.xlsx,stimuli.xlsx,test.xlsx,stimuli/Social2.png,stimuli/Social1.png,stimuli/Nonsocial1.png,stimuli/Nonsocial2.png,stimuli/Test1.png,stimuli/Test2.png,"(0.7, -0.5)",cs_minus_ns,"(0.7, 0.5)",cs_minus_ns,0,0,0,0,,,,,0,26,26,95,,,,,,,,,,,,,,,254.59015649999856,255.59706079999887,255.59706079999887,255.74293059999945,256.2498065999989,256.2498065999989,256.3956359999993,l,0.6088085999999748,correct,,257.01367199999913,258.0136547000002,255.59706079999887,,,,,,,,,,,,6,B,2023-12-07_12h20.47.041,gca_discrimination,2022.2.4,143.82736114128,
positions.xlsx,stimuli.xlsx,test.xlsx,stimuli/Social2.png,stimuli/Social1.png,stimuli/Nonsocial1.png,stimuli/Nonsocial2.png,stimuli/Test1.png,stimuli/Test2.png,"(-0.7, -0.5)",cs_plus_s,"(0.7, -0.5)",cs_plus_s,0,0,0,0,,,,,0,27,27,53,,,,,,,,,,,,,,,258.0136547000002,259.02053759999944,259.02053759999944,259.1663668000001,259.6732844999988,259.6732844999988,259.81911669999863,l,0.6004580000007991,correct,,260.43023079999875,260.8884930999993,259.02053759999944,,,,,,,,,,,,6,B,2023-12-07_12h20.47.041,gca_discrimination,2022.2.4,143.82736114128,
positions.xlsx,stimuli.xlsx,test.xlsx,stimuli/Social2.png,stimuli/Social1.png,stimuli/Nonsocial1.png,stimuli/Nonsocial2.png,stimuli/Test1.png,stimuli/Test2.png,"(0.7, -0.5)",cs_plus_ns,"(0.7, 0.5)",cs_plus_ns,0,0,0,0,,,,,0,28,28,83,,,,,,,,,,,,,,,260.8884930999993,261.89544449999994,261.89544449999994,262.0412656999997,262.54820479999944,262.54820479999944,262.69401239999934,l,1.174107599999843,correct,,263.88146029999916,264.5550506999989,261.89544449999994,,,,,,,,,,,,6,B,2023-12-07_12h20.47.041,gca_discrimination,2022.2.4,143.82736114128,
positions.xlsx,stimuli.xlsx,test.xlsx,stimuli/Social2.png,stimuli/Social1.png,stimuli/Nonsocial1.png,stimuli/Nonsocial2.png,stimuli/Test1.png,stimuli/Test2.png,"(-0.7, 0.5)",cs_minus_ns,"(0.7, 0.5)",cs_plus_ns,0,0,0,0,,,,,0,29,29,37,,,,,,,,,,,,,,,264.5550506999989,265.5619822999997,265.5619822999997,265.7077819999995,266.2147281999987,266.2147281999987,266.36053269999866,ä,0.7303824999999051,correct,,267.10357659999863,267.33970109999973,265.5619822999997,,,,,,,,,,,,6,B,2023-12-07_12h20.47.041,gca_discrimination,2022.2.4,143.82736114128,
positions.xlsx,stimuli.xlsx,test.xlsx,stimuli/Social2.png,stimuli/Social1.png,stimuli/Nonsocial1.png,stimuli/Nonsocial2.png,stimuli/Test1.png,stimuli/Test2.png,"(-0.7, -0.5)",cs_plus_s,"(0.7, 0.5)",cs_minus_s,0,0,0,0,,,,,0,30,30,4,,,,,,,,,,,,,,,267.33970109999973,268.3465794999993,268.3465794999993,268.4923882999992,268.9993240999993,268.9993240999993,269.1451363999986,ä,0.7943881000010151,correct,,269.9506830999999,270.2701477999999,268.3465794999993,,,,,,,,,,,,6,B,2023-12-07_12h20.47.041,gca_discrimination,2022.2.4,143.82736114128,
positions.xlsx,stimuli.xlsx,test.xlsx,stimuli/Social2.png,stimuli/Social1.png,stimuli/Nonsocial1.png,stimuli/Nonsocial2.png,stimuli/Test1.png,stimuli/Test2.png,"(0.7, -0.5)",cs_minus_s,"(-0.7, 0.5)",cs_plus_s,0,0,0,0,,,,,0,31,31,21,,,,,,,,,,,,,,,270.2701477999999,271.2770170999993,271.2770170999993,271.4228325999993,271.9297640999994,271.9297640999994,272.0755922999997,ä,0.7679076000022178,correct,,272.8533298000002,273.54078200000004,271.2770170999993,,,,,,,,,,,,6,B,2023-12-07_12h20.47.041,gca_discrimination,2022.2.4,143.82736114128,
positions.xlsx,stimuli.xlsx,test.xlsx,stimuli/Social2.png,stimuli/Social1.png,stimuli/Nonsocial1.png,stimuli/Nonsocial2.png,stimuli/Test1.png,stimuli/Test2.png,"(0.7, 0.5)",cs_plus_s,"(-0.7, -0.5)",cs_plus_s,0,0,0,0,,,,,0,32,32,55,,,,,,,,,,,,,,,273.54078200000004,274.5477327999997,274.5477327999997,274.6935397999987,275.2004925000001,275.2004925000001,275.34628469999916,l,0.7136563000003662,correct,,276.06847839999864,276.91567679999935,274.5477327999997,,,,,,,,,,,,6,B,2023-12-07_12h20.47.041,gca_discrimination,2022.2.4,143.82736114128,
positions.xlsx,stimuli.xlsx,test.xlsx,stimuli/Social2.png,stimuli/Social1.png,stimuli/Nonsocial1.png,stimuli/Nonsocial2.png,stimuli/Test1.png,stimuli/Test2.png,"(-0.7, -0.5)",cs_minus_ns,"(0.7, -0.5)",cs_plus_ns,0,0,0,0,,,,,0,33,33,41,,,,,,,,,,,,,,,276.91567679999935,277.9225501000001,277.9225501000001,278.06841089999944,278.57533220000005,278.57533220000005,278.72116370000003,ä,1.1384880000005069,correct,,279.866901899999,280.3808109999991,277.9225501000001,,,,,,,,,,,,6,B,2023-12-07_12h20.47.041,gca_discrimination,2022.2.4,143.82736114128,
positions.xlsx,stimuli.xlsx,test.xlsx,stimuli/Social2.png,stimuli/Social1.png,stimuli/Nonsocial1.png,stimuli/Nonsocial2.png,stimuli/Test1.png,stimuli/Test2.png,"(0.7, 0.5)",cs_minus_s,"(-0.7, -0.5)",cs_plus_s,0,0,0,0,,,,,0,34,34,19,,,,,,,,,,,,,,,280.3808109999991,281.3877229999998,281.3877229999998,281.53356579999854,282.0404679000003,282.0404679000003,282.1863051,ä,1.0092409999997471,correct,,283.2070855999991,283.2348704999986,281.3877229999998,,,,,,,,,,,,6,B,2023-12-07_12h20.47.041,gca_discrimination,2022.2.4,143.82736114128,
positions.xlsx,stimuli.xlsx,test.xlsx,stimuli/Social2.png,stimuli/Social1.png,stimuli/Nonsocial1.png,stimuli/Nonsocial2.png,stimuli/Test1.png,stimuli/Test2.png,"(-0.7, 0.5)",cs_minus_ns,"(0.7, -0.5)",cs_plus_ns,0,0,0,0,,,,,0,35,35,38,,,,,,,,,,,,,,,283.2348704999986,284.24177710000004,284.24177710000004,284.3875849999986,284.8945600999996,284.8945600999996,285.04035719999956,ä,0.643004600000495,correct,,285.69311949999974,286.15836539999873,284.24177710000004,,,,,,,,,,,,6,B,2023-12-07_12h20.47.041,gca_discrimination,2022.2.4,143.82736114128,
positions.xlsx,stimuli.xlsx,test.xlsx,stimuli/Social2.png,stimuli/Social1.png,stimuli/Nonsocial1.png,stimuli/Nonsocial2.png,stimuli/Test1.png,stimuli/Test2.png,"(0.7, 0.5)",cs_plus_ns,"(-0.7, -0.5)",cs_minus_ns,0,0,0,0,,,,,0,36,36,31,,,,,,,,,,,,,,,286.15836539999873,287.16524649999883,287.16524649999883,287.31111509999937,287.8180341999996,287.8180341999996,287.9638734,ä,0.8160420999993221,correct,,288.79018650000035,289.60265079999954,287.16524649999883,,,,,,,,,,,,6,B,2023-12-07_12h20.47.041,gca_discrimination,2022.2.4,143.82736114128,
positions.xlsx,stimuli.xlsx,test.xlsx,stimuli/Social2.png,stimuli/Social1.png,stimuli/Nonsocial1.png,stimuli/Nonsocial2.png,stimuli/Test1.png,stimuli/Test2.png,"(-0.7, 0.5)",cs_minus_ns,"(-0.7, -0.5)",cs_minus_ns,0,0,0,0,,,,,0,37,37,84,,,,,,,,,,,,,,,289.60265079999954,290.6096063999994,290.6096063999994,290.7554132999994,291.2623421999997,291.2623421999997,291.4081666000002,l,0.6995215000006283,correct,,292.11645879999924,292.7831034999999,290.6096063999994,,,,,,,,,,,,6,B,2023-12-07_12h20.47.041,gca_discrimination,2022.2.4,143.82736114128,
positions.xlsx,stimuli.xlsx,test.xlsx,stimuli/Social2.png,stimuli/Social1.png,stimuli/Nonsocial1.png,stimuli/Nonsocial2.png,stimuli/Test1.png,stimuli/Test2.png,"(-0.7, -0.5)",cs_plus_s,"(-0.7, 0.5)",cs_minus_s,0,0,0,0,,,,,0,38,38,3,,,,,,,,,,,,,,,292.7831034999999,293.7900310999994,293.7900310999994,293.9358586999988,294.4427856000002,294.4427856000002,294.5886021999995,ä,0.878366000000824,correct,,295.4774450999994,295.5816204999992,293.7900310999994,,,,,,,,,,,,6,B,2023-12-07_12h20.47.041,gca_discrimination,2022.2.4,143.82736114128,
positions.xlsx,stimuli.xlsx,test.xlsx,stimuli/Social2.png,stimuli/Social1.png,stimuli/Nonsocial1.png,stimuli/Nonsocial2.png,stimuli/Test1.png,stimuli/Test2.png,"(0.7, -0.5)",cs_minus_s,"(0.7, 0.5)",cs_minus_s,0,0,0,0,,,,,0,39,39,71,,,,,,,,,,,,,,,295.5816204999992,296.5885127999991,296.5885127999991,296.73435079999945,297.24128500000006,297.24128500000006,297.3871094999995,l,0.8799388000024919,correct,,298.27593369999886,298.3731663999988,296.5885127999991,,,,,,,,,,,,6,B,2023-12-07_12h20.47.041,gca_discrimination,2022.2.4,143.82736114128,
positions.xlsx,stimuli.xlsx,test.xlsx,stimuli/Social2.png,stimuli/Social1.png,stimuli/Nonsocial1.png,stimuli/Nonsocial2.png,stimuli/Test1.png,stimuli/Test2.png,"(-0.7, -0.5)",cs_minus_ns,"(0.7, 0.5)",cs_minus_ns,0,0,0,0,,,,,0,40,40,88,,,,,,,,,,,,,,,298.3731663999988,299.3801007999991,299.3801007999991,299.52589259999877,300.03282020000006,300.03282020000006,300.1786592999997,l,0.8166281000012532,correct,,301.0050085999992,301.90774169999895,299.3801007999991,,,,,,,,,,,,6,B,2023-12-07_12h20.47.041,gca_discrimination,2022.2.4,143.82736114128,
positions.xlsx,stimuli.xlsx,test.xlsx,stimuli/Social2.png,stimuli/Social1.png,stimuli/Nonsocial1.png,stimuli/Nonsocial2.png,stimuli/Test1.png,stimuli/Test2.png,"(-0.7, 0.5)",cs_minus_ns,"(-0.7, -0.5)",cs_plus_ns,0,0,0,0,,,,,0,41,41,36,,,,,,,,,,,,,,,301.90774169999895,302.91466690000016,302.91466690000016,303.06048139999984,303.5673963999998,303.5673963999998,303.7132211999997,ä,0.5778774999998859,correct,,304.30347879999863,305.08818729999984,302.91466690000016,,,,,,,,,,,,6,B,2023-12-07_12h20.47.041,gca_discrimination,2022.2.4,143.82736114128,
positions.xlsx,stimuli.xlsx,test.xlsx,stimuli/Social2.png,stimuli/Social1.png,stimuli/Nonsocial1.png,stimuli/Nonsocial2.png,stimuli/Test1.png,stimuli/Test2.png,"(-0.7, 0.5)",cs_plus_ns,"(0.7, 0.5)",cs_plus_ns,0,0,0,0,,,,,0,42,42,73,,,,,,,,,,,,,,,305.08818729999984,306.09510469999987,306.09510469999987,306.2409396999992,306.74783690000004,306.74783690000004,306.8936705999986,l,1.4861699000011868,correct,,308.38664769999923,309.3241270999988,306.09510469999987,,,,,,,,,,,,6,B,2023-12-07_12h20.47.041,gca_discrimination,2022.2.4,143.82736114128,
positions.xlsx,stimuli.xlsx,test.xlsx,stimuli/Social2.png,stimuli/Social1.png,stimuli/Nonsocial1.png,stimuli/Nonsocial2.png,stimuli/Test1.png,stimuli/Test2.png,"(-0.7, -0.5)",cs_plus_s,"(0.7, -0.5)",cs_minus_s,0,0,0,0,,,,,0,43,43,5,,,,,,,,,,,,,,,309.3241270999988,310.33104159999857,310.33104159999857,310.4768551999987,310.98379869999917,310.98379869999917,311.12960869999915,ä,0.7058930000002874,correct,,311.8448503999989,312.3309255999993,310.33104159999857,,,,,,,,,,,,6,B,2023-12-07_12h20.47.041,gca_discrimination,2022.2.4,143.82736114128,
positions.xlsx,stimuli.xlsx,test.xlsx,stimuli/Social2.png,stimuli/Social1.png,stimuli/Nonsocial1.png,stimuli/Nonsocial2.png,stimuli/Test1.png,stimuli/Test2.png,"(-0.7, 0.5)",cs_plus_ns,"(0.7, -0.5)",cs_minus_ns,0,0,0,0,,,,,0,44,44,26,,,,,,,,,,,,,,,312.3309255999993,313.33785290000014,313.33785290000014,313.48371009999937,313.9906300999992,313.9906300999992,314.136426699999,ä,0.5949496000012005,correct,,314.7405904999996,314.86555769999904,313.33785290000014,,,,,,,,,,,,6,B,2023-12-07_12h20.47.041,gca_discrimination,2022.2.4,143.82736114128,
positions.xlsx,stimuli.xlsx,test.xlsx,stimuli/Social2.png,stimuli/Social1.png,stimuli/Nonsocial1.png,stimuli/Nonsocial2.png,stimuli/Test1.png,stimuli/Test2.png,"(0.7, 0.5)",cs_minus_s,"(-0.7, 0.5)",cs_plus_s,0,0,0,0,,,,,0,45,45,18,,,,,,,,,,,,,,,314.86555769999904,315.8724900999987,315.8724900999987,316.0183006999996,316.52521479999996,316.52521479999996,316.67105300000003,ä,0.7326511000010214,correct,,317.4140950000001,318.36544089999916,315.8724900999987,,,,,,,,,,,,6,B,2023-12-07_12h20.47.041,gca_discrimination,2022.2.4,143.82736114128,
positions.xlsx,stimuli.xlsx,test.xlsx,stimuli/Social2.png,stimuli/Social1.png,stimuli/Nonsocial1.png,stimuli/Nonsocial2.png,stimuli/Test1.png,stimuli/Test2.png,"(0.7, 0.5)",cs_minus_ns,"(-0.7, -0.5)",cs_plus_ns,0,0,0,0,,,,,0,46,46,43,,,,,,,,,,,,,,,318.36544089999916,319.3723517999988,319.3723517999988,319.51814749999903,320.0250890999996,320.0250890999996,320.1709116999991,ä,0.832306400001471,correct,,321.0111674999989,321.97640129999854,319.3723517999988,,,,,,,,,,,,6,B,2023-12-07_12h20.47.041,gca_discrimination,2022.2.4,143.82736114128,
positions.xlsx,stimuli.xlsx,test.xlsx,stimuli/Social2.png,stimuli/Social1.png,stimuli/Nonsocial1.png,stimuli/Nonsocial2.png,stimuli/Test1.png,stimuli/Test2.png,"(0.7, 0.5)",cs_minus_ns,"(-0.7, 0.5)",cs_plus_ns,0,0,0,0,,,,,0,47,47,42,,,,,,,,,,,,,,,321.97640129999854,322.98335869999937,322.98335869999937,323.1291444999988,323.6360586999999,323.6360586999999,323.7818946999996,ä,1.0536630999995396,correct,,324.8443625,325.1985444000002,322.98335869999937,,,,,,,,,,,,6,B,2023-12-07_12h20.47.041,gca_discrimination,2022.2.4,143.82736114128,
positions.xlsx,stimuli.xlsx,test.xlsx,stimuli/Social2.png,stimuli/Social1.png,stimuli/Nonsocial1.png,stimuli/Nonsocial2.png,stimuli/Test1.png,stimuli/Test2.png,"(-0.7, 0.5)",cs_plus_s,"(0.7, 0.5)",cs_plus_s,0,0,0,0,,,,,0,48,48,49,,,,,,,,,,,,,,,325.1985444000002,326.2054791999999,326.2054791999999,326.35124879999967,326.8581835999994,326.8581835999994,327.00402399999984,l,0.7755776000012702,correct,,327.7886497999989,328.1150579999994,326.2054791999999,,,,,,,,,,,,6,B,2023-12-07_12h20.47.041,gca_discrimination,2022.2.4,143.82736114128,
positions.xlsx,stimuli.xlsx,test.xlsx,stimuli/Social2.png,stimuli/Social1.png,stimuli/Nonsocial1.png,stimuli/Nonsocial2.png,stimuli/Test1.png,stimuli/Test2.png,"(0.7, 0.5)",cs_plus_ns,"(-0.7, 0.5)",cs_plus_ns,0,0,0,0,,,,,0,49,49,78,,,,,,,,,,,,,,,328.1150579999994,329.1219568999986,329.1219568999986,329.26779050000005,329.77470659999926,329.77470659999926,329.9205205999988,l,0.6278221000011399,correct,,330.55939639999997,331.087169299999,329.1219568999986,,,,,,,,,,,,6,B,2023-12-07_12h20.47.041,gca_discrimination,2022.2.4,143.82736114128,
positions.xlsx,stimuli.xlsx,test.xlsx,stimuli/Social2.png,stimuli/Social1.png,stimuli/Nonsocial1.png,stimuli/Nonsocial2.png,stimuli/Test1.png,stimuli/Test2.png,"(-0.7, -0.5)",cs_minus_s,"(0.7, -0.5)",cs_minus_s,0,0,0,0,,,,,0,50,50,65,,,,,,,,,,,,,,,331.087169299999,332.0940785999992,332.0940785999992,332.2398925999987,332.7468334999994,332.7468334999994,332.89264829999956,l,0.6629837000000407,correct,,333.5662384999996,334.4134061999994,332.0940785999992,,,,,,,,,,,,6,B,2023-12-07_12h20.47.041,gca_discrimination,2022.2.4,143.82736114128,
positions.xlsx,stimuli.xlsx,test.xlsx,stimuli/Social2.png,stimuli/Social1.png,stimuli/Nonsocial1.png,stimuli/Nonsocial2.png,stimuli/Test1.png,stimuli/Test2.png,"(-0.7, 0.5)",cs_minus_s,"(0.7, -0.5)",cs_plus_s,0,0,0,0,,,,,0,51,51,14,,,,,,,,,,,,,,,334.4134061999994,335.4203784000001,335.4203784000001,335.5661139999993,336.07305929999893,336.07305929999893,336.2188933999987,ä,0.6651949000006425,correct,,336.89249149999887,337.30915379999897,335.4203784000001,,,,,,,,,,,,6,B,2023-12-07_12h20.47.041,gca_discrimination,2022.2.4,143.82736114128,
positions.xlsx,stimuli.xlsx,test.xlsx,stimuli/Social2.png,stimuli/Social1.png,stimuli/Nonsocial1.png,stimuli/Nonsocial2.png,stimuli/Test1.png,stimuli/Test2.png,"(-0.7, 0.5)",cs_minus_ns,"(0.7, 0.5)",cs_minus_ns,0,0,0,0,,,,,0,52,52,85,,,,,,,,,,,,,,,337.30915379999897,338.31605599999966,338.31605599999966,338.46188529999927,338.96880359999886,338.96880359999886,339.11462239999855,l,0.7770418000018253,correct,,339.89931780000006,340.71872950000034,338.31605599999966,,,,,,,,,,,,6,B,2023-12-07_12h20.47.041,gca_discrimination,2022.2.4,143.82736114128,
positions.xlsx,stimuli.xlsx,test.xlsx,stimuli/Social2.png,stimuli/Social1.png,stimuli/Nonsocial1.png,stimuli/Nonsocial2.png,stimuli/Test1.png,stimuli/Test2.png,"(0.7, 0.5)",cs_minus_s,"(-0.7, -0.5)",cs_minus_s,0,0,0,0,,,,,0,53,53,67,,,,,,,,,,,,,,,340.71872950000034,341.72563869999976,341.72563869999976,341.8714645,342.37839919999897,342.37839919999897,342.52425909999874,l,0.7909587000012834,correct,,343.32276789999923,344.10055680000005,341.72563869999976,,,,,,,,,,,,6,B,2023-12-07_12h20.47.041,gca_discrimination,2022.2.4,143.82736114128,
positions.xlsx,stimuli.xlsx,test.xlsx,stimuli/Social2.png,stimuli/Social1.png,stimuli/Nonsocial1.png,stimuli/Nonsocial2.png,stimuli/Test1.png,stimuli/Test2.png,"(0.7, -0.5)",cs_plus_s,"(0.7, 0.5)",cs_plus_s,0,0,0,0,,,,,0,54,54,59,,,,,,,,,,,,,,,344.10055680000005,345.1074573999995,345.1074573999995,345.253310099999,345.76020400000016,345.76020400000016,345.90607589999854,l,0.6334932999998273,correct,,346.5518343999993,346.8226582999996,345.1074573999995,,,,,,,,,,,,6,B,2023-12-07_12h20.47.041,gca_discrimination,2022.2.4,143.82736114128,
positions.xlsx,stimuli.xlsx,test.xlsx,stimuli/Social2.png,stimuli/Social1.png,stimuli/Nonsocial1.png,stimuli/Nonsocial2.png,stimuli/Test1.png,stimuli/Test2.png,"(-0.7, 0.5)",cs_minus_s,"(-0.7, -0.5)",cs_plus_s,0,0,0,0,,,,,0,55,55,12,,,,,,,,,,,,,,,346.8226582999996,347.8295804999998,347.8295804999998,347.97539159999906,348.4823357999994,348.4823357999994,348.62814849999995,ä,0.6709547999998904,correct,,349.3086794999999,349.8780984999994,347.8295804999998,,,,,,,,,,,,6,B,2023-12-07_12h20.47.041,gca_discrimination,2022.2.4,143.82736114128,
positions.xlsx,stimuli.xlsx,test.xlsx,stimuli/Social2.png,stimuli/Social1.png,stimuli/Nonsocial1.png,stimuli/Nonsocial2.png,stimuli/Test1.png,stimuli/Test2.png,"(-0.7, -0.5)",cs_plus_ns,"(0.7, 0.5)",cs_minus_ns,0,0,0,0,,,,,0,56,56,28,,,,,,,,,,,,,,,349.8780984999994,350.88502589999916,350.88502589999916,351.0308331999986,351.5377591999986,351.5377591999986,351.6835766999993,ä,0.9278960000010557,correct,,352.62106270000004,352.92658870000014,350.88502589999916,,,,,,,,,,,,6,B,2023-12-07_12h20.47.041,gca_discrimination,2022.2.4,143.82736114128,
positions.xlsx,stimuli.xlsx,test.xlsx,stimuli/Social2.png,stimuli/Social1.png,stimuli/Nonsocial1.png,stimuli/Nonsocial2.png,stimuli/Test1.png,stimuli/Test2.png,"(0.7, 0.5)",cs_minus_ns,"(0.7, -0.5)",cs_minus_ns,0,0,0,0,,,,,0,57,57,92,,,,,,,,,,,,,,,352.92658870000014,353.9335057999997,353.9335057999997,354.0793178999993,354.58626360000017,354.58626360000017,354.7320925999993,l,0.8234204000018508,correct,,355.5653818999999,355.5931631000003,353.9335057999997,,,,,,,,,,,,6,B,2023-12-07_12h20.47.041,gca_discrimination,2022.2.4,143.82736114128,
positions.xlsx,stimuli.xlsx,test.xlsx,stimuli/Social2.png,stimuli/Social1.png,stimuli/Nonsocial1.png,stimuli/Nonsocial2.png,stimuli/Test1.png,stimuli/Test2.png,"(0.7, -0.5)",cs_plus_s,"(-0.7, 0.5)",cs_minus_s,0,0,0,0,,,,,0,58,58,9,,,,,,,,,,,,,,,355.5931631000003,356.6000776000001,356.6000776000001,356.74588389999917,357.25281279999945,357.25281279999945,357.39861329999985,ä,0.7803166000012425,correct,,358.1902444999996,358.6972031999994,356.6000776000001,,,,,,,,,,,,6,B,2023-12-07_12h20.47.041,gca_discrimination,2022.2.4,143.82736114128,
positions.xlsx,stimuli.xlsx,test.xlsx,stimuli/Social2.png,stimuli/Social1.png,stimuli/Nonsocial1.png,stimuli/Nonsocial2.png,stimuli/Test1.png,stimuli/Test2.png,"(-0.7, 0.5)",cs_minus_s,"(0.7, -0.5)",cs_minus_s,0,0,0,0,,,,,0,59,59,62,,,,,,,,,,,,,,,358.6972031999994,359.7040785999998,359.7040785999998,359.84997079999994,360.35686779999924,360.35686779999924,360.50269370000024,l,0.8531447000004846,correct,,361.36378179999883,361.6623632999999,359.7040785999998,,,,,,,,,,,,6,B,2023-12-07_12h20.47.041,gca_discrimination,2022.2.4,143.82736114128,
positions.xlsx,stimuli.xlsx,test.xlsx,stimuli/Social2.png,stimuli/Social1.png,stimuli/Nonsocial1.png,stimuli/Nonsocial2.png,stimuli/Test1.png,stimuli/Test2.png,"(-0.7, 0.5)",cs_minus_s,"(0.7, 0.5)",cs_plus_s,0,0,0,0,,,,,0,60,60,13,,,,,,,,,,,,,,,361.6623632999999,362.6692426999998,362.6692426999998,362.81508810000014,363.32203909999953,363.32203909999953,363.467847599999,ä,0.5999810000012076,correct,,364.07895709999866,364.5928140999986,362.6692426999998,,,,,,,,,,,,6,B,2023-12-07_12h20.47.041,gca_discrimination,2022.2.4,143.82736114128,
positions.xlsx,stimuli.xlsx,test.xlsx,stimuli/Social2.png,stimuli/Social1.png,stimuli/Nonsocial1.png,stimuli/Nonsocial2.png,stimuli/Test1.png,stimuli/Test2.png,"(0.7, -0.5)",cs_minus_ns,"(-0.7, -0.5)",cs_minus_ns,0,0,0,0,,,,,0,61,61,94,,,,,,,,,,,,,,,364.5928140999986,365.599687599999,365.599687599999,365.7455393,366.252439599999,366.252439599999,366.39832299999944,l,0.7252457000013237,correct,,367.13438209999913,367.8010369000003,365.599687599999,,,,,,,,,,,,6,B,2023-12-07_12h20.47.041,gca_discrimination,2022.2.4,143.82736114128,
positions.xlsx,stimuli.xlsx,test.xlsx,stimuli/Social2.png,stimuli/Social1.png,stimuli/Nonsocial1.png,stimuli/Nonsocial2.png,stimuli/Test1.png,stimuli/Test2.png,"(-0.7, -0.5)",cs_minus_ns,"(0.7, -0.5)",cs_minus_ns,0,0,0,0,,,,,0,62,62,89,,,,,,,,,,,,,,,367.8010369000003,368.8079252999996,368.8079252999996,368.9537530999987,369.4606903999993,369.4606903999993,369.6064994999997,l,0.7164663000021392,correct,,370.3356461000003,370.509296799999,368.8079252999996,,,,,,,,,,,,6,B,2023-12-07_12h20.47.041,gca_discrimination,2022.2.4,143.82736114128,
positions.xlsx,stimuli.xlsx,test.xlsx,stimuli/Social2.png,stimuli/Social1.png,stimuli/Nonsocial1.png,stimuli/Nonsocial2.png,stimuli/Test1.png,stimuli/Test2.png,"(0.7, 0.5)",cs_minus_s,"(0.7, -0.5)",cs_plus_s,0,0,0,0,,,,,0,63,63,20,,,,,,,,,,,,,,,370.509296799999,371.5161595999998,371.5161595999998,371.66200039999967,372.16890710000007,372.16890710000007,372.3147294999999,ä,0.6007991000024049,correct,,372.9258185999988,373.7035390000001,371.5161595999998,,,,,,,,,,,,6,B,2023-12-07_12h20.47.041,gca_discrimination,2022.2.4,143.82736114128,
positions.xlsx,stimuli.xlsx,test.xlsx,stimuli/Social2.png,stimuli/Social1.png,stimuli/Nonsocial1.png,stimuli/Nonsocial2.png,stimuli/Test1.png,stimuli/Test2.png,"(0.7, 0.5)",cs_plus_s,"(0.7, -0.5)",cs_minus_s,0,0,0,0,,,,,0,64,64,8,,,,,,,,,,,,,,,373.7035390000001,374.7104899999995,374.7104899999995,374.85629809999955,375.3632140999998,375.3632140999998,375.5090487999987,ä,0.7499774999996589,correct,,376.26594979999936,376.79371790000005,374.7104899999995,,,,,,,,,,,,6,B,2023-12-07_12h20.47.041,gca_discrimination,2022.2.4,143.82736114128,
positions.xlsx,stimuli.xlsx,test.xlsx,stimuli/Social2.png,stimuli/Social1.png,stimuli/Nonsocial1.png,stimuli/Nonsocial2.png,stimuli/Test1.png,stimuli/Test2.png,"(0.7, -0.5)",cs_plus_s,"(-0.7, 0.5)",cs_plus_s,0,0,0,0,,,,,0,65,65,57,,,,,,,,,,,,,,,376.79371790000005,377.8006276999986,377.8006276999986,377.946471199999,378.45337800000016,378.45337800000016,378.59918039999866,l,0.8842750000003434,correct,,379.49501379999856,379.8561031999998,377.8006276999986,,,,,,,,,,,,6,B,2023-12-07_12h20.47.041,gca_discrimination,2022.2.4,143.82736114128,
positions.xlsx,stimuli.xlsx,test.xlsx,stimuli/Social2.png,stimuli/Social1.png,stimuli/Nonsocial1.png,stimuli/Nonsocial2.png,stimuli/Test1.png,stimuli/Test2.png,"(-0.7, 0.5)",cs_plus_s,"(-0.7, -0.5)",cs_plus_s,0,0,0,0,,,,,0,66,66,48,,,,,,,,,,,,,,,379.8561031999998,380.8629904999998,380.8629904999998,381.0088485999986,381.51576079999904,381.51576079999904,381.6615891000001,l,0.5978770000001532,correct,,382.27265869999974,383.18932889999996,380.8629904999998,,,,,,,,,,,,6,B,2023-12-07_12h20.47.041,gca_discrimination,2022.2.4,143.82736114128,
positions.xlsx,stimuli.xlsx,test.xlsx,stimuli/Social2.png,stimuli/Social1.png,stimuli/Nonsocial1.png,stimuli/Nonsocial2.png,stimuli/Test1.png,stimuli/Test2.png,"(-0.7, 0.5)",cs_plus_s,"(0.7, -0.5)",cs_minus_s,0,0,0,0,,,,,0,67,67,2,,,,,,,,,,,,,,,383.18932889999996,384.1962079999994,384.1962079999994,384.3420119000002,384.848970699999,384.848970699999,384.9947940000002,ä,0.8251962000013009,correct,,385.8281138000002,386.4947331000003,384.1962079999994,,,,,,,,,,,,6,B,2023-12-07_12h20.47.041,gca_discrimination,2022.2.4,143.82736114128,
positions.xlsx,stimuli.xlsx,test.xlsx,stimuli/Social2.png,stimuli/Social1.png,stimuli/Nonsocial1.png,stimuli/Nonsocial2.png,stimuli/Test1.png,stimuli/Test2.png,"(-0.7, -0.5)",cs_plus_s,"(-0.7, 0.5)",cs_plus_s,0,0,0,0,,,,,0,68,68,51,,,,,,,,,,,,,,,386.4947331000003,387.5016383000002,387.5016383000002,387.64747239999997,388.1544052999998,388.1544052999998,388.30024570000023,l,0.7599429000019882,correct,,389.0710264999998,389.96680729999935,387.5016383000002,,,,,,,,,,,,6,B,2023-12-07_12h20.47.041,gca_discrimination,2022.2.4,143.82736114128,
positions.xlsx,stimuli.xlsx,test.xlsx,stimuli/Social2.png,stimuli/Social1.png,stimuli/Nonsocial1.png,stimuli/Nonsocial2.png,stimuli/Test1.png,stimuli/Test2.png,"(0.7, 0.5)",cs_plus_s,"(-0.7, -0.5)",cs_minus_s,0,0,0,0,,,,,0,69,69,7,,,,,,,,,,,,,,,389.96680729999935,390.9737583999995,390.9737583999995,391.1195638999998,391.6264969999993,391.6264969999993,391.77231239999855,ä,0.6478136000005179,correct,,392.43202779999956,392.96672209999997,390.9737583999995,,,,,,,,,,,,6,B,2023-12-07_12h20.47.041,gca_discrimination,2022.2.4,143.82736114128,
positions.xlsx,stimuli.xlsx,test.xlsx,stimuli/Social2.png,stimuli/Social1.png,stimuli/Nonsocial1.png,stimuli/Nonsocial2.png,stimuli/Test1.png,stimuli/Test2.png,"(0.7, 0.5)",cs_minus_s,"(0.7, -0.5)",cs_minus_s,0,0,0,0,,,,,0,70,70,68,,,,,,,,,,,,,,,392.96672209999997,393.97361490000003,393.97361490000003,394.11942499999896,394.62641559999975,394.62641559999975,394.772205199999,l,0.7349338000003627,correct,,395.51518469999974,396.04296839999915,393.97361490000003,,,,,,,,,,,,6,B,2023-12-07_12h20.47.041,gca_discrimination,2022.2.4,143.82736114128,
positions.xlsx,stimuli.xlsx,test.xlsx,stimuli/Social2.png,stimuli/Social1.png,stimuli/Nonsocial1.png,stimuli/Nonsocial2.png,stimuli/Test1.png,stimuli/Test2.png,"(0.7, 0.5)",cs_plus_s,"(-0.7, 0.5)",cs_plus_s,0,0,0,0,,,,,0,71,71,54,,,,,,,,,,,,,,,396.04296839999915,397.0498996999995,397.0498996999995,397.1957201999994,397.7026322999991,397.7026322999991,397.8485232999992,l,0.9231865000001562,correct,,398.7789918999988,399.2789651000003,397.0498996999995,,,,,,,,,,,,6,B,2023-12-07_12h20.47.041,gca_discrimination,2022.2.4,143.82736114128,
positions.xlsx,stimuli.xlsx,test.xlsx,stimuli/Social2.png,stimuli/Social1.png,stimuli/Nonsocial1.png,stimuli/Nonsocial2.png,stimuli/Test1.png,stimuli/Test2.png,"(0.7, 0.5)",cs_minus_ns,"(-0.7, -0.5)",cs_minus_ns,0,0,0,0,,,,,0,72,72,91,,,,,,,,,,,,,,,399.2789651000003,400.28589439999996,400.28589439999996,400.43169130000024,400.93862329999865,400.93862329999865,401.08443329999864,l,0.7754769000021042,correct,,401.86910929999976,402.7927166999998,400.28589439999996,,,,,,,,,,,,6,B,2023-12-07_12h20.47.041,gca_discrimination,2022.2.4,143.82736114128,
positions.xlsx,stimuli.xlsx,test.xlsx,stimuli/Social2.png,stimuli/Social1.png,stimuli/Nonsocial1.png,stimuli/Nonsocial2.png,stimuli/Test1.png,stimuli/Test2.png,"(0.7, 0.5)",cs_minus_s,"(-0.7, 0.5)",cs_minus_s,0,0,0,0,,,,,0,73,73,66,,,,,,,,,,,,,,,402.7927166999998,403.7996210000001,403.7996210000001,403.94544080000014,404.45238289999907,404.45238289999907,404.5982026999991,l,0.8531530000000203,correct,,405.45931759999985,405.8620343999992,403.7996210000001,,,,,,,,,,,,6,B,2023-12-07_12h20.47.041,gca_discrimination,2022.2.4,143.82736114128,
positions.xlsx,stimuli.xlsx,test.xlsx,stimuli/Social2.png,stimuli/Social1.png,stimuli/Nonsocial1.png,stimuli/Nonsocial2.png,stimuli/Test1.png,stimuli/Test2.png,"(-0.7, 0.5)",cs_plus_ns,"(-0.7, -0.5)",cs_plus_ns,0,0,0,0,,,,,0,74,74,72,,,,,,,,,,,,,,,405.8620343999992,406.86891859999923,406.86891859999923,407.01479370000015,407.5217182999986,407.5217182999986,407.66754669999864,l,0.9201000000011845,correct,,408.59804989999975,409.36190309999984,406.86891859999923,,,,,,,,,,,,6,B,2023-12-07_12h20.47.041,gca_discrimination,2022.2.4,143.82736114128,
positions.xlsx,stimuli.xlsx,test.xlsx,stimuli/Social2.png,stimuli/Social1.png,stimuli/Nonsocial1.png,stimuli/Nonsocial2.png,stimuli/Test1.png,stimuli/Test2.png,"(-0.7, 0.5)",cs_minus_ns,"(0.7, -0.5)",cs_minus_ns,0,0,0,0,,,,,0,75,75,86,,,,,,,,,,,,,,,409.36190309999984,410.36889449999944,410.36889449999944,410.51466079999955,411.02155889999995,411.02155889999995,411.1673842,l,0.62805660000231,correct,,411.8062801999986,412.4451227999998,410.36889449999944,,,,,,,,,,,,6,B,2023-12-07_12h20.47.041,gca_discrimination,2022.2.4,143.82736114128,
positions.xlsx,stimuli.xlsx,test.xlsx,stimuli/Social2.png,stimuli/Social1.png,stimuli/Nonsocial1.png,stimuli/Nonsocial2.png,stimuli/Test1.png,stimuli/Test2.png,"(0.7, 0.5)",cs_minus_ns,"(-0.7, 0.5)",cs_minus_ns,0,0,0,0,,,,,0,76,76,90,,,,,,,,,,,,,,,412.4451227999998,413.45202289999906,413.45202289999906,413.59784579999905,414.10482690000026,414.10482690000026,414.2505990999998,l,0.8179393999998865,correct,,415.0769565999999,415.4588953000002,413.45202289999906,,,,,,,,,,,,6,B,2023-12-07_12h20.47.041,gca_discrimination,2022.2.4,143.82736114128,
positions.xlsx,stimuli.xlsx,test.xlsx,stimuli/Social2.png,stimuli/Social1.png,stimuli/Nonsocial1.png,stimuli/Nonsocial2.png,stimuli/Test1.png,stimuli/Test2.png,"(0.7, -0.5)",cs_plus_s,"(0.7, 0.5)",cs_minus_s,0,0,0,0,,,,,0,77,77,11,,,,,,,,,,,,,,,415.4588953000002,416.46581049999986,416.46581049999986,416.6116227000002,417.11855639999885,417.11855639999885,417.2643683999995,ä,0.611652800000229,correct,,417.88935949999905,418.5421065999999,416.46581049999986,,,,,,,,,,,,6,B,2023-12-07_12h20.47.041,gca_discrimination,2022.2.4,143.82736114128,
positions.xlsx,stimuli.xlsx,test.xlsx,stimuli/Social2.png,stimuli/Social1.png,stimuli/Nonsocial1.png,stimuli/Nonsocial2.png,stimuli/Test1.png,stimuli/Test2.png,"(-0.7, 0.5)",cs_plus_s,"(0.7, -0.5)",cs_plus_s,0,0,0,0,,,,,0,78,78,50,,,,,,,,,,,,,,,418.5421065999999,419.54902559999937,419.54902559999937,419.6948046999987,420.201759399999,420.201759399999,420.347587799999,l,0.5593662999999651,correct,,420.9170267999998,421.39612859999943,419.54902559999937,,,,,,,,,,,,6,B,2023-12-07_12h20.47.041,gca_discrimination,2022.2.4,143.82736114128,
positions.xlsx,stimuli.xlsx,test.xlsx,stimuli/Social2.png,stimuli/Social1.png,stimuli/Nonsocial1.png,stimuli/Nonsocial2.png,stimuli/Test1.png,stimuli/Test2.png,"(0.7, 0.5)",cs_minus_ns,"(0.7, -0.5)",cs_plus_ns,0,0,0,0,,,,,0,79,79,44,,,,,,,,,,,,,,,421.39612859999943,422.40308709999954,422.40308709999954,422.5488824999993,423.05582329999925,423.05582329999925,423.2016459999995,ä,1.3223553999996511,correct,,424.5349387999995,425.3126711999994,422.40308709999954,,,,,,,,,,,,6,B,2023-12-07_12h20.47.041,gca_discrimination,2022.2.4,143.82736114128,
positions.xlsx,stimuli.xlsx,test.xlsx,stimuli/Social2.png,stimuli/Social1.png,stimuli/Nonsocial1.png,stimuli/Nonsocial2.png,stimuli/Test1.png,stimuli/Test2.png,"(-0.7, 0.5)",cs_plus_s,"(0.7, 0.5)",cs_minus_s,0,0,0,0,,,,,0,80,80,1,,,,,,,,,,,,,,,425.3126711999994,426.3195820000001,426.3195820000001,426.4654168999987,426.9723310999998,426.9723310999998,427.1181882000001,ä,0.5744843000011315,correct,,427.7014765999993,428.11811130000024,426.3195820000001,,,,,,,,,,,,6,B,2023-12-07_12h20.47.041,gca_discrimination,2022.2.4,143.82736114128,
positions.xlsx,stimuli.xlsx,test.xlsx,stimuli/Social2.png,stimuli/Social1.png,stimuli/Nonsocial1.png,stimuli/Nonsocial2.png,stimuli/Test1.png,stimuli/Test2.png,"(0.7, -0.5)",cs_plus_s,"(-0.7, -0.5)",cs_minus_s,0,0,0,0,,,,,0,81,81,10,,,,,,,,,,,,,,,428.11811130000024,429.1249998000003,429.1249998000003,429.2708514999995,429.77778529999887,429.77778529999887,429.92361419999907,ä,0.4874562999993941,correct,,430.4235921999989,430.9791858999997,429.1249998000003,,,,,,,,,,,,6,B,2023-12-07_12h20.47.041,gca_discrimination,2022.2.4,143.82736114128,
positions.xlsx,stimuli.xlsx,test.xlsx,stimuli/Social2.png,stimuli/Social1.png,stimuli/Nonsocial1.png,stimuli/Nonsocial2.png,stimuli/Test1.png,stimuli/Test2.png,"(0.7, -0.5)",cs_minus_s,"(0.7, 0.5)",cs_plus_s,0,0,0,0,,,,,0,82,82,23,,,,,,,,,,,,,,,430.9791858999997,431.9860252999988,431.9860252999988,432.1318403999994,432.63879629999974,432.63879629999974,432.78461719999905,ä,0.45120830000087153,correct,,433.24298180000005,433.3123622000003,431.9860252999988,,,,,,,,,,,,6,B,2023-12-07_12h20.47.041,gca_discrimination,2022.2.4,143.82736114128,
positions.xlsx,stimuli.xlsx,test.xlsx,stimuli/Social2.png,stimuli/Social1.png,stimuli/Nonsocial1.png,stimuli/Nonsocial2.png,stimuli/Test1.png,stimuli/Test2.png,"(0.7, 0.5)",cs_plus_ns,"(0.7, -0.5)",cs_plus_ns,0,0,0,0,,,,,0,83,83,80,,,,,,,,,,,,,,,433.3123622000003,434.3192902999999,434.3192902999999,434.4650896000003,434.9720196999988,434.9720196999988,435.11785119999877,l,0.6059038000003056,correct,,435.73590279999917,436.5691780999987,434.3192902999999,,,,,,,,,,,,6,B,2023-12-07_12h20.47.041,gca_discrimination,2022.2.4,143.82736114128,
positions.xlsx,stimuli.xlsx,test.xlsx,stimuli/Social2.png,stimuli/Social1.png,stimuli/Nonsocial1.png,stimuli/Nonsocial2.png,stimuli/Test1.png,stimuli/Test2.png,"(0.7, -0.5)",cs_plus_ns,"(-0.7, -0.5)",cs_minus_ns,0,0,0,0,,,,,0,84,84,34,,,,,,,,,,,,,,,436.5691780999987,437.57610380000006,437.57610380000006,437.72190749999936,438.22883189999993,438.22883189999993,438.374679999999,ä,0.5322833000009268,correct,,438.91632599999866,439.05519509999976,437.57610380000006,,,,,,,,,,,,6,B,2023-12-07_12h20.47.041,gca_discrimination,2022.2.4,143.82736114128,
positions.xlsx,stimuli.xlsx,test.xlsx,stimuli/Social2.png,stimuli/Social1.png,stimuli/Nonsocial1.png,stimuli/Nonsocial2.png,stimuli/Test1.png,stimuli/Test2.png,"(0.7, 0.5)",cs_plus_ns,"(-0.7, -0.5)",cs_plus_ns,0,0,0,0,,,,,0,85,85,79,,,,,,,,,,,,,,,439.05519509999976,440.06211819999953,440.06211819999953,440.2079044000002,440.7148664999986,440.7148664999986,440.86067829999956,l,0.6065748000000895,correct,,441.4787146999988,441.67315189999863,440.06211819999953,,,,,,,,,,,,6,B,2023-12-07_12h20.47.041,gca_discrimination,2022.2.4,143.82736114128,
positions.xlsx,stimuli.xlsx,test.xlsx,stimuli/Social2.png,stimuli/Social1.png,stimuli/Nonsocial1.png,stimuli/Nonsocial2.png,stimuli/Test1.png,stimuli/Test2.png,"(-0.7, -0.5)",cs_minus_ns,"(-0.7, 0.5)",cs_minus_ns,0,0,0,0,,,,,0,86,86,87,,,,,,,,,,,,,,,441.67315189999863,442.6800449000002,442.6800449000002,442.82589129999906,443.33281089999946,443.33281089999946,443.47863849999885,l,0.6613761000007798,correct,,444.15223700000024,444.99247379999906,442.6800449000002,,,,,,,,,,,,6,B,2023-12-07_12h20.47.041,gca_discrimination,2022.2.4,143.82736114128,
positions.xlsx,stimuli.xlsx,test.xlsx,stimuli/Social2.png,stimuli/Social1.png,stimuli/Nonsocial1.png,stimuli/Nonsocial2.png,stimuli/Test1.png,stimuli/Test2.png,"(0.7, 0.5)",cs_plus_s,"(-0.7, 0.5)",cs_minus_s,0,0,0,0,,,,,0,87,87,6,,,,,,,,,,,,,,,444.99247379999906,445.99938099999963,445.99938099999963,446.14519420000033,446.6521211999989,446.6521211999989,446.79796329999954,ä,0.5573860000004061,correct,,447.36735640000006,448.36038670000016,445.99938099999963,,,,,,,,,,,,6,B,2023-12-07_12h20.47.041,gca_discrimination,2022.2.4,143.82736114128,
positions.xlsx,stimuli.xlsx,test.xlsx,stimuli/Social2.png,stimuli/Social1.png,stimuli/Nonsocial1.png,stimuli/Nonsocial2.png,stimuli/Test1.png,stimuli/Test2.png,"(0.7, -0.5)",cs_plus_ns,"(-0.7, 0.5)",cs_plus_ns,0,0,0,0,,,,,0,88,88,81,,,,,,,,,,,,,,,448.36038670000016,449.3673153,449.3673153,449.51310379999995,450.0201000999987,450.0201000999987,450.16588859999865,l,0.8778246000001673,correct,,451.0548010000002,451.7074640999999,449.3673153,,,,,,,,,,,,6,B,2023-12-07_12h20.47.041,gca_discrimination,2022.2.4,143.82736114128,
positions.xlsx,stimuli.xlsx,test.xlsx,stimuli/Social2.png,stimuli/Social1.png,stimuli/Nonsocial1.png,stimuli/Nonsocial2.png,stimuli/Test1.png,stimuli/Test2.png,"(-0.7, -0.5)",cs_plus_ns,"(-0.7, 0.5)",cs_minus_ns,0,0,0,0,,,,,0,89,89,27,,,,,,,,,,,,,,,451.7074640999999,452.71438769999986,452.71438769999986,452.8602028999994,453.36713529999906,453.36713529999906,453.51296459999867,ä,0.6264503000002151,correct,,454.15182449999884,454.63792209999883,452.71438769999986,,,,,,,,,,,,6,B,2023-12-07_12h20.47.041,gca_discrimination,2022.2.4,143.82736114128,
positions.xlsx,stimuli.xlsx,test.xlsx,stimuli/Social2.png,stimuli/Social1.png,stimuli/Nonsocial1.png,stimuli/Nonsocial2.png,stimuli/Test1.png,stimuli/Test2.png,"(0.7, -0.5)",cs_plus_s,"(-0.7, -0.5)",cs_plus_s,0,0,0,0,,,,,0,90,90,58,,,,,,,,,,,,,,,454.63792209999883,455.644831399999,455.644831399999,455.79064599999947,456.29757189999873,456.29757189999873,456.44339279999986,l,0.599613500000487,correct,,457.05448009999964,457.99195940000027,455.644831399999,,,,,,,,,,,,6,B,2023-12-07_12h20.47.041,gca_discrimination,2022.2.4,143.82736114128,
positions.xlsx,stimuli.xlsx,test.xlsx,stimuli/Social2.png,stimuli/Social1.png,stimuli/Nonsocial1.png,stimuli/Nonsocial2.png,stimuli/Test1.png,stimuli/Test2.png,"(-0.7, -0.5)",cs_minus_s,"(0.7, 0.5)",cs_plus_s,0,0,0,0,,,,,0,91,91,16,,,,,,,,,,,,,,,457.99195940000027,458.99884849999944,458.99884849999944,459.1446589999996,459.6516273999987,459.6516273999987,459.79745039999943,ä,0.6148595000013302,correct,,460.42245269999876,461.0751701999998,458.99884849999944,,,,,,,,,,,,6,B,2023-12-07_12h20.47.041,gca_discrimination,2022.2.4,143.82736114128,
positions.xlsx,stimuli.xlsx,test.xlsx,stimuli/Social2.png,stimuli/Social1.png,stimuli/Nonsocial1.png,stimuli/Nonsocial2.png,stimuli/Test1.png,stimuli/Test2.png,"(-0.7, -0.5)",cs_minus_s,"(-0.7, 0.5)",cs_plus_s,0,0,0,0,,,,,0,92,92,15,,,,,,,,,,,,,,,461.0751701999998,462.082073399999,462.082073399999,462.22791320000033,462.7348259999999,462.7348259999999,462.88065019999885,l,1.5958561999996164,wrong,,464.4847536999987,464.6305776999998,462.082073399999,,,,,,,,,,,,6,B,2023-12-07_12h20.47.041,gca_discrimination,2022.2.4,143.82736114128,
positions.xlsx,stimuli.xlsx,test.xlsx,stimuli/Social2.png,stimuli/Social1.png,stimuli/Nonsocial1.png,stimuli/Nonsocial2.png,stimuli/Test1.png,stimuli/Test2.png,"(-0.7, -0.5)",cs_minus_ns,"(0.7, 0.5)",cs_plus_ns,0,0,0,0,,,,,0,93,93,40,,,,,,,,,,,,,,,464.6305776999998,465.63750809999874,465.63750809999874,465.7833157999994,466.29025009999896,466.29025009999896,466.4360625999998,ä,0.8715246000010666,correct,,467.31796869999926,467.40131289999954,465.63750809999874,,,,,,,,,,,,6,B,2023-12-07_12h20.47.041,gca_discrimination,2022.2.4,143.82736114128,
positions.xlsx,stimuli.xlsx,test.xlsx,stimuli/Social2.png,stimuli/Social1.png,stimuli/Nonsocial1.png,stimuli/Nonsocial2.png,stimuli/Test1.png,stimuli/Test2.png,"(-0.7, -0.5)",cs_plus_ns,"(-0.7, 0.5)",cs_plus_ns,0,0,0,0,,,,,0,94,94,75,,,,,,,,,,,,,,,467.40131289999954,468.40818519999993,468.40818519999993,468.5540474999998,469.0610023999998,469.0610023999998,469.2068139999992,l,0.43695860000116227,correct,,469.65122209999936,470.5400821000003,468.40818519999993,,,,,,,,,,,,6,B,2023-12-07_12h20.47.041,gca_discrimination,2022.2.4,143.82736114128,
positions.xlsx,stimuli.xlsx,test.xlsx,stimuli/Social2.png,stimuli/Social1.png,stimuli/Nonsocial1.png,stimuli/Nonsocial2.png,stimuli/Test1.png,stimuli/Test2.png,"(-0.7, 0.5)",cs_plus_ns,"(0.7, 0.5)",cs_minus_ns,0,0,0,0,,,,,0,95,95,25,,,,,,,,,,,,,,,470.5400821000003,471.54697339999984,471.54697339999984,471.6927973999991,472.19972659999985,472.19972659999985,472.3455692999996,ä,0.5621451000006346,correct,,472.91496539999935,473.1024794999994,471.54697339999984,,,,,,,,,,,,6,B,2023-12-07_12h20.47.041,gca_discrimination,2022.2.4,143.82736114128,
