posFile,stimFile,testFile,cs_plus_s,cs_minus_s,cs_plus_ns,cs_minus_ns,test1,test2,position1,trialtype,position2,comptype,blocks.thisRepN,blocks.thisTrialN,blocks.thisN,blocks.thisIndex,learning_trials.thisRepN,learning_trials.thisTrialN,learning_trials.thisN,learning_trials.thisIndex,trials.thisRepN,trials.thisTrialN,trials.thisN,trials.thisIndex,textStart.started,key.started,key.keys,key.rt,correctness,textStartTask.started,participant,group,date,expName,psychopyVersion,frameRate,
positions.xlsx,stimuli.xlsx,test.xlsx,stimuli/Social1.png,stimuli/Social2.png,stimuli/Nonsocial2.png,stimuli/Nonsocial1.png,stimuli/Test1.png,stimuli/Test2.png,"(-0.7, 0.5)",test2,"(-0.7, -0.5)",test2,0,0,0,0,0,0,0,1,,,,,11.356394200003706,33.640256299986504,ä,0.6540128999622539,correct,,44,C,2024-01-02_15h37.46.523,gca_discrimination,2022.2.4,143.7405309911362,
positions.xlsx,stimuli.xlsx,test.xlsx,stimuli/Social1.png,stimuli/Social2.png,stimuli/Nonsocial2.png,stimuli/Nonsocial1.png,stimuli/Test1.png,stimuli/Test2.png,"(-0.7, -0.5)",test1,"(0.7, 0.5)",test2,0,0,0,0,0,1,1,8,,,,,,38.188691599993035,l,1.128872900037095,correct,,44,C,2024-01-02_15h37.46.523,gca_discrimination,2022.2.4,143.7405309911362,
positions.xlsx,stimuli.xlsx,test.xlsx,stimuli/Social1.png,stimuli/Social2.png,stimuli/Nonsocial2.png,stimuli/Nonsocial1.png,stimuli/Test1.png,stimuli/Test2.png,"(0.7, -0.5)",test1,"(0.7, 0.5)",test2,0,0,0,0,0,2,2,0,,,,,,43.19542989996262,ä,0.39496219996362925,wrong,,44,C,2024-01-02_15h37.46.523,gca_discrimination,2022.2.4,143.7405309911362,
positions.xlsx,stimuli.xlsx,test.xlsx,stimuli/Social1.png,stimuli/Social2.png,stimuli/Nonsocial2.png,stimuli/Nonsocial1.png,stimuli/Test1.png,stimuli/Test2.png,"(0.7, 0.5)",test1,"(0.7, -0.5)",test2,0,0,0,0,0,3,3,11,,,,,,48.02163059997838,l,0.7448497000150383,correct,,44,C,2024-01-02_15h37.46.523,gca_discrimination,2022.2.4,143.7405309911362,
positions.xlsx,stimuli.xlsx,test.xlsx,stimuli/Social1.png,stimuli/Social2.png,stimuli/Nonsocial2.png,stimuli/Nonsocial1.png,stimuli/Test1.png,stimuli/Test2.png,"(-0.7, -0.5)",test2,"(0.7, 0.5)",test2,0,0,0,0,0,4,4,7,,,,,,52.97284619999118,ä,0.6097394999815151,correct,,44,C,2024-01-02_15h37.46.523,gca_discrimination,2022.2.4,143.7405309911362,
positions.xlsx,stimuli.xlsx,test.xlsx,stimuli/Social1.png,stimuli/Social2.png,stimuli/Nonsocial2.png,stimuli/Nonsocial1.png,stimuli/Test1.png,stimuli/Test2.png,"(-0.7, -0.5)",test2,"(-0.7, 0.5)",test2,0,0,0,0,0,5,5,2,,,,,,58.2295517999446,ä,0.4808123999973759,correct,,44,C,2024-01-02_15h37.46.523,gca_discrimination,2022.2.4,143.7405309911362,
positions.xlsx,stimuli.xlsx,test.xlsx,stimuli/Social1.png,stimuli/Social2.png,stimuli/Nonsocial2.png,stimuli/Nonsocial1.png,stimuli/Test1.png,stimuli/Test2.png,"(0.7, -0.5)",test1,"(0.7, 0.5)",test1,0,0,0,0,0,6,6,10,,,,,,63.3336073999526,ä,0.4884384999750182,correct,,44,C,2024-01-02_15h37.46.523,gca_discrimination,2022.2.4,143.7405309911362,
positions.xlsx,stimuli.xlsx,test.xlsx,stimuli/Social1.png,stimuli/Social2.png,stimuli/Nonsocial2.png,stimuli/Nonsocial1.png,stimuli/Test1.png,stimuli/Test2.png,"(-0.7, 0.5)",test2,"(0.7, 0.5)",test1,0,0,0,0,0,7,7,3,,,,,,67.85419649991672,l,0.21665740001481026,correct,,44,C,2024-01-02_15h37.46.523,gca_discrimination,2022.2.4,143.7405309911362,
positions.xlsx,stimuli.xlsx,test.xlsx,stimuli/Social1.png,stimuli/Social2.png,stimuli/Nonsocial2.png,stimuli/Nonsocial1.png,stimuli/Test1.png,stimuli/Test2.png,"(0.7, -0.5)",test2,"(-0.7, 0.5)",test1,0,0,0,0,0,8,8,4,,,,,,72.34010599995963,l,0.31377870007418096,correct,,44,C,2024-01-02_15h37.46.523,gca_discrimination,2022.2.4,143.7405309911362,
positions.xlsx,stimuli.xlsx,test.xlsx,stimuli/Social1.png,stimuli/Social2.png,stimuli/Nonsocial2.png,stimuli/Nonsocial1.png,stimuli/Test1.png,stimuli/Test2.png,"(0.7, 0.5)",test2,"(-0.7, 0.5)",test1,0,0,0,0,0,9,9,13,,,,,,76.47884479991626,l,0.5507315000286326,correct,,44,C,2024-01-02_15h37.46.523,gca_discrimination,2022.2.4,143.7405309911362,
positions.xlsx,stimuli.xlsx,test.xlsx,stimuli/Social1.png,stimuli/Social2.png,stimuli/Nonsocial2.png,stimuli/Nonsocial1.png,stimuli/Test1.png,stimuli/Test2.png,"(0.7, 0.5)",test2,"(0.7, -0.5)",test1,0,0,0,0,0,10,10,6,,,,,,81.81199529999867,l,0.2899330999935046,correct,,44,C,2024-01-02_15h37.46.523,gca_discrimination,2022.2.4,143.7405309911362,
positions.xlsx,stimuli.xlsx,test.xlsx,stimuli/Social1.png,stimuli/Social2.png,stimuli/Nonsocial2.png,stimuli/Nonsocial1.png,stimuli/Test1.png,stimuli/Test2.png,"(-0.7, -0.5)",test2,"(0.7, -0.5)",test2,0,0,0,0,0,11,11,9,,,,,,86.56871859997045,ä,0.2612909999443218,correct,,44,C,2024-01-02_15h37.46.523,gca_discrimination,2022.2.4,143.7405309911362,
positions.xlsx,stimuli.xlsx,test.xlsx,stimuli/Social1.png,stimuli/Social2.png,stimuli/Nonsocial2.png,stimuli/Nonsocial1.png,stimuli/Test1.png,stimuli/Test2.png,"(-0.7, 0.5)",test2,"(0.7, -0.5)",test1,0,0,0,0,0,12,12,12,,,,,,91.47132959996816,l,0.2399205999681726,correct,,44,C,2024-01-02_15h37.46.523,gca_discrimination,2022.2.4,143.7405309911362,
positions.xlsx,stimuli.xlsx,test.xlsx,stimuli/Social1.png,stimuli/Social2.png,stimuli/Nonsocial2.png,stimuli/Nonsocial1.png,stimuli/Test1.png,stimuli/Test2.png,"(-0.7, 0.5)",test1,"(0.7, -0.5)",test1,0,0,0,0,0,13,13,5,,,,,,96.49888249998912,ä,0.34714700002223253,correct,,44,C,2024-01-02_15h37.46.523,gca_discrimination,2022.2.4,143.7405309911362,
positions.xlsx,stimuli.xlsx,test.xlsx,stimuli/Social1.png,stimuli/Social2.png,stimuli/Nonsocial2.png,stimuli/Nonsocial1.png,stimuli/Test1.png,stimuli/Test2.png,"(-0.7, 0.5)",cs_plus_s,"(-0.7, -0.5)",cs_minus_s,0,0,0,0,,,,,0,0,0,0,,111.00528839998879,l,0.7689797000493854,correct,99.1724089999916,44,C,2024-01-02_15h37.46.523,gca_discrimination,2022.2.4,143.7405309911362,
positions.xlsx,stimuli.xlsx,test.xlsx,stimuli/Social1.png,stimuli/Social2.png,stimuli/Nonsocial2.png,stimuli/Nonsocial1.png,stimuli/Test1.png,stimuli/Test2.png,"(-0.7, -0.5)",cs_plus_s,"(-0.7, 0.5)",cs_minus_s,0,0,0,0,,,,,0,1,1,3,,114.29682819999289,l,0.3903776000952348,correct,,44,C,2024-01-02_15h37.46.523,gca_discrimination,2022.2.4,143.7405309911362,
positions.xlsx,stimuli.xlsx,test.xlsx,stimuli/Social1.png,stimuli/Social2.png,stimuli/Nonsocial2.png,stimuli/Nonsocial1.png,stimuli/Test1.png,stimuli/Test2.png,"(0.7, 0.5)",cs_minus_ns,"(-0.7, 0.5)",cs_plus_ns,0,0,0,0,,,,,0,2,2,42,,117.14395779999904,l,0.4780609000008553,correct,,44,C,2024-01-02_15h37.46.523,gca_discrimination,2022.2.4,143.7405309911362,
positions.xlsx,stimuli.xlsx,test.xlsx,stimuli/Social1.png,stimuli/Social2.png,stimuli/Nonsocial2.png,stimuli/Nonsocial1.png,stimuli/Test1.png,stimuli/Test2.png,"(-0.7, 0.5)",cs_minus_s,"(0.7, -0.5)",cs_plus_s,0,0,0,0,,,,,0,3,3,14,,119.99801199999638,l,1.1039490000111982,correct,,44,C,2024-01-02_15h37.46.523,gca_discrimination,2022.2.4,143.7405309911362,
positions.xlsx,stimuli.xlsx,test.xlsx,stimuli/Social1.png,stimuli/Social2.png,stimuli/Nonsocial2.png,stimuli/Nonsocial1.png,stimuli/Test1.png,stimuli/Test2.png,"(-0.7, 0.5)",cs_plus_s,"(0.7, -0.5)",cs_minus_s,0,0,0,0,,,,,0,4,4,2,,123.54645969998091,l,0.307816700078547,correct,,44,C,2024-01-02_15h37.46.523,gca_discrimination,2022.2.4,143.7405309911362,
positions.xlsx,stimuli.xlsx,test.xlsx,stimuli/Social1.png,stimuli/Social2.png,stimuli/Nonsocial2.png,stimuli/Nonsocial1.png,stimuli/Test1.png,stimuli/Test2.png,"(-0.7, 0.5)",cs_minus_ns,"(-0.7, -0.5)",cs_plus_ns,0,0,0,0,,,,,0,5,5,36,,126.21994640002958,l,0.4574197999900207,correct,,44,C,2024-01-02_15h37.46.523,gca_discrimination,2022.2.4,143.7405309911362,
positions.xlsx,stimuli.xlsx,test.xlsx,stimuli/Social1.png,stimuli/Social2.png,stimuli/Nonsocial2.png,stimuli/Nonsocial1.png,stimuli/Test1.png,stimuli/Test2.png,"(0.7, 0.5)",cs_minus_s,"(-0.7, -0.5)",cs_plus_s,0,0,0,0,,,,,0,6,6,19,,129.15039869991597,l,0.4636606000130996,correct,,44,C,2024-01-02_15h37.46.523,gca_discrimination,2022.2.4,143.7405309911362,
positions.xlsx,stimuli.xlsx,test.xlsx,stimuli/Social1.png,stimuli/Social2.png,stimuli/Nonsocial2.png,stimuli/Nonsocial1.png,stimuli/Test1.png,stimuli/Test2.png,"(-0.7, -0.5)",cs_plus_ns,"(0.7, -0.5)",cs_plus_ns,0,0,0,0,,,,,0,7,7,77,,132.30307929997798,ä,0.5671923001063988,correct,,44,C,2024-01-02_15h37.46.523,gca_discrimination,2022.2.4,143.7405309911362,
positions.xlsx,stimuli.xlsx,test.xlsx,stimuli/Social1.png,stimuli/Social2.png,stimuli/Nonsocial2.png,stimuli/Nonsocial1.png,stimuli/Test1.png,stimuli/Test2.png,"(-0.7, -0.5)",cs_minus_ns,"(-0.7, 0.5)",cs_plus_ns,0,0,0,0,,,,,0,8,8,39,,134.98350919992663,l,0.4063514999579638,correct,,44,C,2024-01-02_15h37.46.523,gca_discrimination,2022.2.4,143.7405309911362,
positions.xlsx,stimuli.xlsx,test.xlsx,stimuli/Social1.png,stimuli/Social2.png,stimuli/Nonsocial2.png,stimuli/Nonsocial1.png,stimuli/Test1.png,stimuli/Test2.png,"(-0.7, 0.5)",cs_minus_s,"(-0.7, -0.5)",cs_plus_s,0,0,0,0,,,,,0,9,9,12,,137.64314910001121,l,0.3557538000168279,correct,,44,C,2024-01-02_15h37.46.523,gca_discrimination,2022.2.4,143.7405309911362,
positions.xlsx,stimuli.xlsx,test.xlsx,stimuli/Social1.png,stimuli/Social2.png,stimuli/Nonsocial2.png,stimuli/Nonsocial1.png,stimuli/Test1.png,stimuli/Test2.png,"(-0.7, -0.5)",cs_minus_s,"(-0.7, 0.5)",cs_minus_s,0,0,0,0,,,,,0,10,10,63,,139.9555393999908,ä,0.48345500009600073,correct,,44,C,2024-01-02_15h37.46.523,gca_discrimination,2022.2.4,143.7405309911362,
positions.xlsx,stimuli.xlsx,test.xlsx,stimuli/Social1.png,stimuli/Social2.png,stimuli/Nonsocial2.png,stimuli/Nonsocial1.png,stimuli/Test1.png,stimuli/Test2.png,"(0.7, 0.5)",cs_minus_s,"(-0.7, 0.5)",cs_plus_s,0,0,0,0,,,,,0,11,11,18,,142.28182479995303,l,0.5243632000638172,correct,,44,C,2024-01-02_15h37.46.523,gca_discrimination,2022.2.4,143.7405309911362,
positions.xlsx,stimuli.xlsx,test.xlsx,stimuli/Social1.png,stimuli/Social2.png,stimuli/Nonsocial2.png,stimuli/Nonsocial1.png,stimuli/Test1.png,stimuli/Test2.png,"(-0.7, -0.5)",cs_minus_s,"(0.7, -0.5)",cs_minus_s,0,0,0,0,,,,,0,12,12,65,,145.2469873999944,ä,0.5990709000034258,correct,,44,C,2024-01-02_15h37.46.523,gca_discrimination,2022.2.4,143.7405309911362,
positions.xlsx,stimuli.xlsx,test.xlsx,stimuli/Social1.png,stimuli/Social2.png,stimuli/Nonsocial2.png,stimuli/Nonsocial1.png,stimuli/Test1.png,stimuli/Test2.png,"(-0.7, -0.5)",cs_minus_ns,"(0.7, 0.5)",cs_plus_ns,0,0,0,0,,,,,0,13,13,40,,148.1288213999942,l,1.452828700072132,correct,,44,C,2024-01-02_15h37.46.523,gca_discrimination,2022.2.4,143.7405309911362,
positions.xlsx,stimuli.xlsx,test.xlsx,stimuli/Social1.png,stimuli/Social2.png,stimuli/Nonsocial2.png,stimuli/Nonsocial1.png,stimuli/Test1.png,stimuli/Test2.png,"(0.7, 0.5)",cs_minus_ns,"(-0.7, -0.5)",cs_minus_ns,0,0,0,0,,,,,0,14,14,91,,152.2189508000156,ä,0.42646730004344136,correct,,44,C,2024-01-02_15h37.46.523,gca_discrimination,2022.2.4,143.7405309911362,
positions.xlsx,stimuli.xlsx,test.xlsx,stimuli/Social1.png,stimuli/Social2.png,stimuli/Nonsocial2.png,stimuli/Nonsocial1.png,stimuli/Test1.png,stimuli/Test2.png,"(0.7, -0.5)",cs_minus_ns,"(0.7, 0.5)",cs_plus_ns,0,0,0,0,,,,,0,15,15,47,,155.26050470001064,l,0.5380586000392213,correct,,44,C,2024-01-02_15h37.46.523,gca_discrimination,2022.2.4,143.7405309911362,
positions.xlsx,stimuli.xlsx,test.xlsx,stimuli/Social1.png,stimuli/Social2.png,stimuli/Nonsocial2.png,stimuli/Nonsocial1.png,stimuli/Test1.png,stimuli/Test2.png,"(0.7, 0.5)",cs_minus_ns,"(0.7, -0.5)",cs_minus_ns,0,0,0,0,,,,,0,16,16,92,,158.48954420001246,ä,0.3724882999667898,correct,,44,C,2024-01-02_15h37.46.523,gca_discrimination,2022.2.4,143.7405309911362,
positions.xlsx,stimuli.xlsx,test.xlsx,stimuli/Social1.png,stimuli/Social2.png,stimuli/Nonsocial2.png,stimuli/Nonsocial1.png,stimuli/Test1.png,stimuli/Test2.png,"(-0.7, 0.5)",cs_minus_s,"(0.7, -0.5)",cs_minus_s,0,0,0,0,,,,,0,17,17,62,,161.29498429992236,ä,0.5432780999690294,correct,,44,C,2024-01-02_15h37.46.523,gca_discrimination,2022.2.4,143.7405309911362,
positions.xlsx,stimuli.xlsx,test.xlsx,stimuli/Social1.png,stimuli/Social2.png,stimuli/Nonsocial2.png,stimuli/Nonsocial1.png,stimuli/Test1.png,stimuli/Test2.png,"(0.7, 0.5)",cs_minus_s,"(-0.7, 0.5)",cs_minus_s,0,0,0,0,,,,,0,18,18,66,,163.80877929995768,ä,0.30971790000330657,correct,,44,C,2024-01-02_15h37.46.523,gca_discrimination,2022.2.4,143.7405309911362,
positions.xlsx,stimuli.xlsx,test.xlsx,stimuli/Social1.png,stimuli/Social2.png,stimuli/Nonsocial2.png,stimuli/Nonsocial1.png,stimuli/Test1.png,stimuli/Test2.png,"(0.7, 0.5)",cs_plus_s,"(-0.7, 0.5)",cs_plus_s,0,0,0,0,,,,,0,19,19,54,,166.59339079994243,ä,0.5321653999853879,correct,,44,C,2024-01-02_15h37.46.523,gca_discrimination,2022.2.4,143.7405309911362,
positions.xlsx,stimuli.xlsx,test.xlsx,stimuli/Social1.png,stimuli/Social2.png,stimuli/Nonsocial2.png,stimuli/Nonsocial1.png,stimuli/Test1.png,stimuli/Test2.png,"(0.7, -0.5)",cs_plus_ns,"(-0.7, -0.5)",cs_plus_ns,0,0,0,0,,,,,0,20,20,82,,169.66271699999925,ä,0.4483592000324279,correct,,44,C,2024-01-02_15h37.46.523,gca_discrimination,2022.2.4,143.7405309911362,
positions.xlsx,stimuli.xlsx,test.xlsx,stimuli/Social1.png,stimuli/Social2.png,stimuli/Nonsocial2.png,stimuli/Nonsocial1.png,stimuli/Test1.png,stimuli/Test2.png,"(-0.7, 0.5)",cs_plus_ns,"(0.7, -0.5)",cs_plus_ns,0,0,0,0,,,,,0,21,21,74,,172.84315839991905,ä,0.2267050000373274,correct,,44,C,2024-01-02_15h37.46.523,gca_discrimination,2022.2.4,143.7405309911362,
positions.xlsx,stimuli.xlsx,test.xlsx,stimuli/Social1.png,stimuli/Social2.png,stimuli/Nonsocial2.png,stimuli/Nonsocial1.png,stimuli/Test1.png,stimuli/Test2.png,"(0.7, 0.5)",cs_plus_ns,"(-0.7, -0.5)",cs_plus_ns,0,0,0,0,,,,,0,22,22,79,,175.7735864999704,ä,0.20825759996660054,correct,,44,C,2024-01-02_15h37.46.523,gca_discrimination,2022.2.4,143.7405309911362,
positions.xlsx,stimuli.xlsx,test.xlsx,stimuli/Social1.png,stimuli/Social2.png,stimuli/Nonsocial2.png,stimuli/Nonsocial1.png,stimuli/Test1.png,stimuli/Test2.png,"(-0.7, -0.5)",cs_plus_ns,"(0.7, -0.5)",cs_minus_ns,0,0,0,0,,,,,0,23,23,29,,178.75268239993602,l,0.5335908000124618,correct,,44,C,2024-01-02_15h37.46.523,gca_discrimination,2022.2.4,143.7405309911362,
positions.xlsx,stimuli.xlsx,test.xlsx,stimuli/Social1.png,stimuli/Social2.png,stimuli/Nonsocial2.png,stimuli/Nonsocial1.png,stimuli/Test1.png,stimuli/Test2.png,"(0.7, 0.5)",cs_plus_ns,"(-0.7, 0.5)",cs_minus_ns,0,0,0,0,,,,,0,24,24,30,,181.56503389996942,l,0.34557939996011555,correct,,44,C,2024-01-02_15h37.46.523,gca_discrimination,2022.2.4,143.7405309911362,
positions.xlsx,stimuli.xlsx,test.xlsx,stimuli/Social1.png,stimuli/Social2.png,stimuli/Nonsocial2.png,stimuli/Nonsocial1.png,stimuli/Test1.png,stimuli/Test2.png,"(0.7, 0.5)",cs_plus_s,"(0.7, -0.5)",cs_plus_s,0,0,0,0,,,,,0,25,25,56,,184.67604709998704,ä,0.5786309000104666,correct,,44,C,2024-01-02_15h37.46.523,gca_discrimination,2022.2.4,143.7405309911362,
positions.xlsx,stimuli.xlsx,test.xlsx,stimuli/Social1.png,stimuli/Social2.png,stimuli/Nonsocial2.png,stimuli/Nonsocial1.png,stimuli/Test1.png,stimuli/Test2.png,"(-0.7, 0.5)",cs_minus_ns,"(0.7, -0.5)",cs_minus_ns,0,0,0,0,,,,,0,26,26,86,,187.7661787000252,ä,0.47208199999295175,correct,,44,C,2024-01-02_15h37.46.523,gca_discrimination,2022.2.4,143.7405309911362,
positions.xlsx,stimuli.xlsx,test.xlsx,stimuli/Social1.png,stimuli/Social2.png,stimuli/Nonsocial2.png,stimuli/Nonsocial1.png,stimuli/Test1.png,stimuli/Test2.png,"(0.7, -0.5)",cs_plus_ns,"(-0.7, 0.5)",cs_plus_ns,0,0,0,0,,,,,0,27,27,81,,190.43277509999461,ä,0.45267620007507503,correct,,44,C,2024-01-02_15h37.46.523,gca_discrimination,2022.2.4,143.7405309911362,
positions.xlsx,stimuli.xlsx,test.xlsx,stimuli/Social1.png,stimuli/Social2.png,stimuli/Nonsocial2.png,stimuli/Nonsocial1.png,stimuli/Test1.png,stimuli/Test2.png,"(-0.7, -0.5)",cs_plus_ns,"(-0.7, 0.5)",cs_plus_ns,0,0,0,0,,,,,0,28,28,75,,193.21041089994833,ä,0.29177719994913787,correct,,44,C,2024-01-02_15h37.46.523,gca_discrimination,2022.2.4,143.7405309911362,
positions.xlsx,stimuli.xlsx,test.xlsx,stimuli/Social1.png,stimuli/Social2.png,stimuli/Nonsocial2.png,stimuli/Nonsocial1.png,stimuli/Test1.png,stimuli/Test2.png,"(-0.7, 0.5)",cs_minus_s,"(0.7, 0.5)",cs_plus_s,0,0,0,0,,,,,0,29,29,13,,196.2033721000189,l,0.21808969997800887,correct,,44,C,2024-01-02_15h37.46.523,gca_discrimination,2022.2.4,143.7405309911362,
positions.xlsx,stimuli.xlsx,test.xlsx,stimuli/Social1.png,stimuli/Social2.png,stimuli/Nonsocial2.png,stimuli/Nonsocial1.png,stimuli/Test1.png,stimuli/Test2.png,"(0.7, 0.5)",cs_minus_s,"(0.7, -0.5)",cs_plus_s,0,0,0,0,,,,,0,30,30,20,,198.43939399998635,l,0.4785229000262916,correct,,44,C,2024-01-02_15h37.46.523,gca_discrimination,2022.2.4,143.7405309911362,
positions.xlsx,stimuli.xlsx,test.xlsx,stimuli/Social1.png,stimuli/Social2.png,stimuli/Nonsocial2.png,stimuli/Nonsocial1.png,stimuli/Test1.png,stimuli/Test2.png,"(-0.7, -0.5)",cs_minus_s,"(0.7, 0.5)",cs_plus_s,0,0,0,0,,,,,0,31,31,16,,201.2379114999203,l,0.4638042999431491,correct,,44,C,2024-01-02_15h37.46.523,gca_discrimination,2022.2.4,143.7405309911362,
positions.xlsx,stimuli.xlsx,test.xlsx,stimuli/Social1.png,stimuli/Social2.png,stimuli/Nonsocial2.png,stimuli/Nonsocial1.png,stimuli/Test1.png,stimuli/Test2.png,"(-0.7, -0.5)",cs_plus_ns,"(0.7, 0.5)",cs_plus_ns,0,0,0,0,,,,,0,32,32,76,,203.88362460001372,ä,0.307288600015454,correct,,44,C,2024-01-02_15h37.46.523,gca_discrimination,2022.2.4,143.7405309911362,
positions.xlsx,stimuli.xlsx,test.xlsx,stimuli/Social1.png,stimuli/Social2.png,stimuli/Nonsocial2.png,stimuli/Nonsocial1.png,stimuli/Test1.png,stimuli/Test2.png,"(0.7, 0.5)",cs_minus_ns,"(-0.7, 0.5)",cs_minus_ns,0,0,0,0,,,,,0,33,33,90,,206.16128010000102,ä,0.3008088000351563,correct,,44,C,2024-01-02_15h37.46.523,gca_discrimination,2022.2.4,143.7405309911362,
positions.xlsx,stimuli.xlsx,test.xlsx,stimuli/Social1.png,stimuli/Social2.png,stimuli/Nonsocial2.png,stimuli/Nonsocial1.png,stimuli/Test1.png,stimuli/Test2.png,"(-0.7, 0.5)",cs_plus_s,"(0.7, 0.5)",cs_plus_s,0,0,0,0,,,,,0,34,34,49,,209.11257040000055,ä,0.3579393000109121,correct,,44,C,2024-01-02_15h37.46.523,gca_discrimination,2022.2.4,143.7405309911362,
positions.xlsx,stimuli.xlsx,test.xlsx,stimuli/Social1.png,stimuli/Social2.png,stimuli/Nonsocial2.png,stimuli/Nonsocial1.png,stimuli/Test1.png,stimuli/Test2.png,"(-0.7, 0.5)",cs_plus_s,"(0.7, 0.5)",cs_minus_s,0,0,0,0,,,,,0,35,35,1,,211.98052879993338,l,0.28933339996729046,correct,,44,C,2024-01-02_15h37.46.523,gca_discrimination,2022.2.4,143.7405309911362,
positions.xlsx,stimuli.xlsx,test.xlsx,stimuli/Social1.png,stimuli/Social2.png,stimuli/Nonsocial2.png,stimuli/Nonsocial1.png,stimuli/Test1.png,stimuli/Test2.png,"(0.7, -0.5)",cs_plus_s,"(-0.7, 0.5)",cs_plus_s,0,0,0,0,,,,,0,36,36,57,,214.92485359997954,ä,0.3608965000603348,correct,,44,C,2024-01-02_15h37.46.523,gca_discrimination,2022.2.4,143.7405309911362,
positions.xlsx,stimuli.xlsx,test.xlsx,stimuli/Social1.png,stimuli/Social2.png,stimuli/Nonsocial2.png,stimuli/Nonsocial1.png,stimuli/Test1.png,stimuli/Test2.png,"(0.7, -0.5)",cs_minus_ns,"(-0.7, -0.5)",cs_minus_ns,0,0,0,0,,,,,0,37,37,94,,217.36227069993038,ä,0.22039679996669292,correct,,44,C,2024-01-02_15h37.46.523,gca_discrimination,2022.2.4,143.7405309911362,
positions.xlsx,stimuli.xlsx,test.xlsx,stimuli/Social1.png,stimuli/Social2.png,stimuli/Nonsocial2.png,stimuli/Nonsocial1.png,stimuli/Test1.png,stimuli/Test2.png,"(0.7, -0.5)",cs_plus_ns,"(0.7, 0.5)",cs_minus_ns,0,0,0,0,,,,,0,38,38,35,,219.771900099935,l,0.36997579992748797,correct,,44,C,2024-01-02_15h37.46.523,gca_discrimination,2022.2.4,143.7405309911362,
positions.xlsx,stimuli.xlsx,test.xlsx,stimuli/Social1.png,stimuli/Social2.png,stimuli/Nonsocial2.png,stimuli/Nonsocial1.png,stimuli/Test1.png,stimuli/Test2.png,"(-0.7, 0.5)",cs_minus_s,"(0.7, 0.5)",cs_minus_s,0,0,0,0,,,,,0,39,39,61,,222.7092678999761,ä,0.2564572000410408,correct,,44,C,2024-01-02_15h37.46.523,gca_discrimination,2022.2.4,143.7405309911362,
positions.xlsx,stimuli.xlsx,test.xlsx,stimuli/Social1.png,stimuli/Social2.png,stimuli/Nonsocial2.png,stimuli/Nonsocial1.png,stimuli/Test1.png,stimuli/Test2.png,"(-0.7, -0.5)",cs_plus_s,"(0.7, -0.5)",cs_plus_s,0,0,0,0,,,,,0,40,40,53,,225.53554389998317,ä,0.2468838000204414,correct,,44,C,2024-01-02_15h37.46.523,gca_discrimination,2022.2.4,143.7405309911362,
positions.xlsx,stimuli.xlsx,test.xlsx,stimuli/Social1.png,stimuli/Social2.png,stimuli/Nonsocial2.png,stimuli/Nonsocial1.png,stimuli/Test1.png,stimuli/Test2.png,"(0.7, -0.5)",cs_plus_s,"(-0.7, 0.5)",cs_minus_s,0,0,0,0,,,,,0,41,41,9,,228.0562972999178,l,0.3416788000613451,correct,,44,C,2024-01-02_15h37.46.523,gca_discrimination,2022.2.4,143.7405309911362,
positions.xlsx,stimuli.xlsx,test.xlsx,stimuli/Social1.png,stimuli/Social2.png,stimuli/Nonsocial2.png,stimuli/Nonsocial1.png,stimuli/Test1.png,stimuli/Test2.png,"(0.7, 0.5)",cs_plus_s,"(-0.7, -0.5)",cs_plus_s,0,0,0,0,,,,,0,42,42,55,,230.22982409992255,ä,0.28055260004475713,correct,,44,C,2024-01-02_15h37.46.523,gca_discrimination,2022.2.4,143.7405309911362,
positions.xlsx,stimuli.xlsx,test.xlsx,stimuli/Social1.png,stimuli/Social2.png,stimuli/Nonsocial2.png,stimuli/Nonsocial1.png,stimuli/Test1.png,stimuli/Test2.png,"(-0.7, -0.5)",cs_minus_s,"(-0.7, 0.5)",cs_plus_s,0,0,0,0,,,,,0,43,43,15,,233.1949856999563,l,0.555036999983713,correct,,44,C,2024-01-02_15h37.46.523,gca_discrimination,2022.2.4,143.7405309911362,
positions.xlsx,stimuli.xlsx,test.xlsx,stimuli/Social1.png,stimuli/Social2.png,stimuli/Nonsocial2.png,stimuli/Nonsocial1.png,stimuli/Test1.png,stimuli/Test2.png,"(0.7, 0.5)",cs_plus_ns,"(-0.7, -0.5)",cs_minus_ns,0,0,0,0,,,,,0,44,44,31,,235.8268320999341,l,0.23552680003922433,correct,,44,C,2024-01-02_15h37.46.523,gca_discrimination,2022.2.4,143.7405309911362,
positions.xlsx,stimuli.xlsx,test.xlsx,stimuli/Social1.png,stimuli/Social2.png,stimuli/Nonsocial2.png,stimuli/Nonsocial1.png,stimuli/Test1.png,stimuli/Test2.png,"(0.7, 0.5)",cs_plus_s,"(-0.7, -0.5)",cs_minus_s,0,0,0,0,,,,,0,45,45,7,,238.8683933999855,l,0.4252904000459239,correct,,44,C,2024-01-02_15h37.46.523,gca_discrimination,2022.2.4,143.7405309911362,
positions.xlsx,stimuli.xlsx,test.xlsx,stimuli/Social1.png,stimuli/Social2.png,stimuli/Nonsocial2.png,stimuli/Nonsocial1.png,stimuli/Test1.png,stimuli/Test2.png,"(0.7, -0.5)",cs_minus_s,"(-0.7, 0.5)",cs_minus_s,0,0,0,0,,,,,0,46,46,69,,241.2432844999712,ä,0.23475829989183694,correct,,44,C,2024-01-02_15h37.46.523,gca_discrimination,2022.2.4,143.7405309911362,
positions.xlsx,stimuli.xlsx,test.xlsx,stimuli/Social1.png,stimuli/Social2.png,stimuli/Nonsocial2.png,stimuli/Nonsocial1.png,stimuli/Test1.png,stimuli/Test2.png,"(0.7, 0.5)",cs_minus_ns,"(-0.7, -0.5)",cs_plus_ns,0,0,0,0,,,,,0,47,47,43,,243.7987496999558,l,0.27942169993184507,correct,,44,C,2024-01-02_15h37.46.523,gca_discrimination,2022.2.4,143.7405309911362,
positions.xlsx,stimuli.xlsx,test.xlsx,stimuli/Social1.png,stimuli/Social2.png,stimuli/Nonsocial2.png,stimuli/Nonsocial1.png,stimuli/Test1.png,stimuli/Test2.png,"(0.7, 0.5)",cs_plus_ns,"(-0.7, 0.5)",cs_plus_ns,0,0,0,0,,,,,0,48,48,78,,246.58336799999233,ä,0.3985875000944361,correct,,44,C,2024-01-02_15h37.46.523,gca_discrimination,2022.2.4,143.7405309911362,
positions.xlsx,stimuli.xlsx,test.xlsx,stimuli/Social1.png,stimuli/Social2.png,stimuli/Nonsocial2.png,stimuli/Nonsocial1.png,stimuli/Test1.png,stimuli/Test2.png,"(0.7, 0.5)",cs_minus_s,"(0.7, -0.5)",cs_minus_s,0,0,0,0,,,,,0,49,49,68,,249.5415882000234,ä,0.44008840003516525,correct,,44,C,2024-01-02_15h37.46.523,gca_discrimination,2022.2.4,143.7405309911362,
positions.xlsx,stimuli.xlsx,test.xlsx,stimuli/Social1.png,stimuli/Social2.png,stimuli/Nonsocial2.png,stimuli/Nonsocial1.png,stimuli/Test1.png,stimuli/Test2.png,"(-0.7, 0.5)",cs_plus_ns,"(0.7, 0.5)",cs_minus_ns,0,0,0,0,,,,,0,50,50,25,,252.02065249998122,l,0.3936308000702411,correct,,44,C,2024-01-02_15h37.46.523,gca_discrimination,2022.2.4,143.7405309911362,
positions.xlsx,stimuli.xlsx,test.xlsx,stimuli/Social1.png,stimuli/Social2.png,stimuli/Nonsocial2.png,stimuli/Nonsocial1.png,stimuli/Test1.png,stimuli/Test2.png,"(-0.7, 0.5)",cs_minus_ns,"(0.7, -0.5)",cs_plus_ns,0,0,0,0,,,,,0,51,51,38,,254.9927747999318,l,0.3651769000571221,correct,,44,C,2024-01-02_15h37.46.523,gca_discrimination,2022.2.4,143.7405309911362,
positions.xlsx,stimuli.xlsx,test.xlsx,stimuli/Social1.png,stimuli/Social2.png,stimuli/Nonsocial2.png,stimuli/Nonsocial1.png,stimuli/Test1.png,stimuli/Test2.png,"(0.7, -0.5)",cs_plus_s,"(0.7, 0.5)",cs_plus_s,0,0,0,0,,,,,0,52,52,59,,257.81904769991525,ä,0.4043453000485897,correct,,44,C,2024-01-02_15h37.46.523,gca_discrimination,2022.2.4,143.7405309911362,
positions.xlsx,stimuli.xlsx,test.xlsx,stimuli/Social1.png,stimuli/Social2.png,stimuli/Nonsocial2.png,stimuli/Nonsocial1.png,stimuli/Test1.png,stimuli/Test2.png,"(0.7, -0.5)",cs_plus_s,"(-0.7, -0.5)",cs_minus_s,0,0,0,0,,,,,0,53,53,10,,260.95086689991876,l,0.36671540001407266,correct,,44,C,2024-01-02_15h37.46.523,gca_discrimination,2022.2.4,143.7405309911362,
positions.xlsx,stimuli.xlsx,test.xlsx,stimuli/Social1.png,stimuli/Social2.png,stimuli/Nonsocial2.png,stimuli/Nonsocial1.png,stimuli/Test1.png,stimuli/Test2.png,"(0.7, -0.5)",cs_plus_ns,"(-0.7, 0.5)",cs_minus_ns,0,0,0,0,,,,,0,54,54,33,,263.2632816999685,l,0.4867122999858111,correct,,44,C,2024-01-02_15h37.46.523,gca_discrimination,2022.2.4,143.7405309911362,
positions.xlsx,stimuli.xlsx,test.xlsx,stimuli/Social1.png,stimuli/Social2.png,stimuli/Nonsocial2.png,stimuli/Nonsocial1.png,stimuli/Test1.png,stimuli/Test2.png,"(0.7, -0.5)",cs_plus_s,"(-0.7, -0.5)",cs_plus_s,0,0,0,0,,,,,0,55,55,58,,266.11738299997523,ä,0.4402242999058217,correct,,44,C,2024-01-02_15h37.46.523,gca_discrimination,2022.2.4,143.7405309911362,
positions.xlsx,stimuli.xlsx,test.xlsx,stimuli/Social1.png,stimuli/Social2.png,stimuli/Nonsocial2.png,stimuli/Nonsocial1.png,stimuli/Test1.png,stimuli/Test2.png,"(0.7, 0.5)",cs_minus_ns,"(0.7, -0.5)",cs_plus_ns,0,0,0,0,,,,,0,56,56,44,,268.88108359999023,l,0.33266730001196265,correct,,44,C,2024-01-02_15h37.46.523,gca_discrimination,2022.2.4,143.7405309911362,
positions.xlsx,stimuli.xlsx,test.xlsx,stimuli/Social1.png,stimuli/Social2.png,stimuli/Nonsocial2.png,stimuli/Nonsocial1.png,stimuli/Test1.png,stimuli/Test2.png,"(0.7, -0.5)",cs_minus_ns,"(-0.7, -0.5)",cs_plus_ns,0,0,0,0,,,,,0,57,57,46,,271.3254603999667,l,0.45674479997251183,correct,,44,C,2024-01-02_15h37.46.523,gca_discrimination,2022.2.4,143.7405309911362,
positions.xlsx,stimuli.xlsx,test.xlsx,stimuli/Social1.png,stimuli/Social2.png,stimuli/Nonsocial2.png,stimuli/Nonsocial1.png,stimuli/Test1.png,stimuli/Test2.png,"(-0.7, 0.5)",cs_plus_ns,"(-0.7, -0.5)",cs_minus_ns,0,0,0,0,,,,,0,58,58,24,,274.13788829999976,l,0.4116246000630781,correct,,44,C,2024-01-02_15h37.46.523,gca_discrimination,2022.2.4,143.7405309911362,
positions.xlsx,stimuli.xlsx,test.xlsx,stimuli/Social1.png,stimuli/Social2.png,stimuli/Nonsocial2.png,stimuli/Nonsocial1.png,stimuli/Test1.png,stimuli/Test2.png,"(0.7, 0.5)",cs_plus_s,"(0.7, -0.5)",cs_minus_s,0,0,0,0,,,,,0,59,59,8,,277.31133840000257,l,0.2548630000092089,correct,,44,C,2024-01-02_15h37.46.523,gca_discrimination,2022.2.4,143.7405309911362,
positions.xlsx,stimuli.xlsx,test.xlsx,stimuli/Social1.png,stimuli/Social2.png,stimuli/Nonsocial2.png,stimuli/Nonsocial1.png,stimuli/Test1.png,stimuli/Test2.png,"(0.7, -0.5)",cs_minus_ns,"(-0.7, 0.5)",cs_plus_ns,0,0,0,0,,,,,0,60,60,45,,280.3528757999884,l,0.31722730002366006,correct,,44,C,2024-01-02_15h37.46.523,gca_discrimination,2022.2.4,143.7405309911362,
positions.xlsx,stimuli.xlsx,test.xlsx,stimuli/Social1.png,stimuli/Social2.png,stimuli/Nonsocial2.png,stimuli/Nonsocial1.png,stimuli/Test1.png,stimuli/Test2.png,"(0.7, -0.5)",cs_minus_s,"(0.7, 0.5)",cs_plus_s,0,0,0,0,,,,,0,61,61,23,,282.78334919991903,l,0.3585196000058204,correct,,44,C,2024-01-02_15h37.46.523,gca_discrimination,2022.2.4,143.7405309911362,
positions.xlsx,stimuli.xlsx,test.xlsx,stimuli/Social1.png,stimuli/Social2.png,stimuli/Nonsocial2.png,stimuli/Nonsocial1.png,stimuli/Test1.png,stimuli/Test2.png,"(0.7, 0.5)",cs_plus_s,"(-0.7, 0.5)",cs_minus_s,0,0,0,0,,,,,0,62,62,6,,285.5193721000105,l,0.4788516000844538,correct,,44,C,2024-01-02_15h37.46.523,gca_discrimination,2022.2.4,143.7405309911362,
positions.xlsx,stimuli.xlsx,test.xlsx,stimuli/Social1.png,stimuli/Social2.png,stimuli/Nonsocial2.png,stimuli/Nonsocial1.png,stimuli/Test1.png,stimuli/Test2.png,"(0.7, -0.5)",cs_minus_s,"(-0.7, -0.5)",cs_minus_s,0,0,0,0,,,,,0,63,63,70,,288.1512104999274,ä,0.3103064999449998,correct,,44,C,2024-01-02_15h37.46.523,gca_discrimination,2022.2.4,143.7405309911362,
positions.xlsx,stimuli.xlsx,test.xlsx,stimuli/Social1.png,stimuli/Social2.png,stimuli/Nonsocial2.png,stimuli/Nonsocial1.png,stimuli/Test1.png,stimuli/Test2.png,"(0.7, 0.5)",cs_minus_s,"(-0.7, -0.5)",cs_minus_s,0,0,0,0,,,,,0,64,64,67,,291.2482843999751,ä,0.2774468999123201,correct,,44,C,2024-01-02_15h37.46.523,gca_discrimination,2022.2.4,143.7405309911362,
positions.xlsx,stimuli.xlsx,test.xlsx,stimuli/Social1.png,stimuli/Social2.png,stimuli/Nonsocial2.png,stimuli/Nonsocial1.png,stimuli/Test1.png,stimuli/Test2.png,"(0.7, 0.5)",cs_plus_ns,"(0.7, -0.5)",cs_minus_ns,0,0,0,0,,,,,0,65,65,32,,293.83849719993304,l,0.3358649000292644,correct,,44,C,2024-01-02_15h37.46.523,gca_discrimination,2022.2.4,143.7405309911362,
positions.xlsx,stimuli.xlsx,test.xlsx,stimuli/Social1.png,stimuli/Social2.png,stimuli/Nonsocial2.png,stimuli/Nonsocial1.png,stimuli/Test1.png,stimuli/Test2.png,"(0.7, -0.5)",cs_plus_ns,"(0.7, 0.5)",cs_plus_ns,0,0,0,0,,,,,0,66,66,83,,296.84530549997,ä,0.6088586999103427,correct,,44,C,2024-01-02_15h37.46.523,gca_discrimination,2022.2.4,143.7405309911362,
positions.xlsx,stimuli.xlsx,test.xlsx,stimuli/Social1.png,stimuli/Social2.png,stimuli/Nonsocial2.png,stimuli/Nonsocial1.png,stimuli/Test1.png,stimuli/Test2.png,"(-0.7, 0.5)",cs_plus_s,"(-0.7, -0.5)",cs_plus_s,0,0,0,0,,,,,0,67,67,48,,299.9910113000078,ä,0.40668080002069473,correct,,44,C,2024-01-02_15h37.46.523,gca_discrimination,2022.2.4,143.7405309911362,
positions.xlsx,stimuli.xlsx,test.xlsx,stimuli/Social1.png,stimuli/Social2.png,stimuli/Nonsocial2.png,stimuli/Nonsocial1.png,stimuli/Test1.png,stimuli/Test2.png,"(-0.7, 0.5)",cs_plus_ns,"(0.7, -0.5)",cs_minus_ns,0,0,0,0,,,,,0,68,68,26,,302.31037029996514,l,0.4887746999738738,correct,,44,C,2024-01-02_15h37.46.523,gca_discrimination,2022.2.4,143.7405309911362,
positions.xlsx,stimuli.xlsx,test.xlsx,stimuli/Social1.png,stimuli/Social2.png,stimuli/Nonsocial2.png,stimuli/Nonsocial1.png,stimuli/Test1.png,stimuli/Test2.png,"(-0.7, -0.5)",cs_minus_s,"(0.7, -0.5)",cs_plus_s,0,0,0,0,,,,,0,69,69,17,,305.615806399961,l,0.3349729999899864,correct,,44,C,2024-01-02_15h37.46.523,gca_discrimination,2022.2.4,143.7405309911362,
positions.xlsx,stimuli.xlsx,test.xlsx,stimuli/Social1.png,stimuli/Social2.png,stimuli/Nonsocial2.png,stimuli/Nonsocial1.png,stimuli/Test1.png,stimuli/Test2.png,"(-0.7, 0.5)",cs_minus_ns,"(0.7, 0.5)",cs_minus_ns,0,0,0,0,,,,,0,70,70,85,,308.51844629994594,ä,0.3994857999496162,correct,,44,C,2024-01-02_15h37.46.523,gca_discrimination,2022.2.4,143.7405309911362,
positions.xlsx,stimuli.xlsx,test.xlsx,stimuli/Social1.png,stimuli/Social2.png,stimuli/Nonsocial2.png,stimuli/Nonsocial1.png,stimuli/Test1.png,stimuli/Test2.png,"(-0.7, -0.5)",cs_plus_s,"(0.7, 0.5)",cs_plus_s,0,0,0,0,,,,,0,71,71,52,,311.6016909999307,ä,0.284014799981378,correct,,44,C,2024-01-02_15h37.46.523,gca_discrimination,2022.2.4,143.7405309911362,
positions.xlsx,stimuli.xlsx,test.xlsx,stimuli/Social1.png,stimuli/Social2.png,stimuli/Nonsocial2.png,stimuli/Nonsocial1.png,stimuli/Test1.png,stimuli/Test2.png,"(-0.7, -0.5)",cs_plus_ns,"(-0.7, 0.5)",cs_minus_ns,0,0,0,0,,,,,0,72,72,27,,314.2404661999317,l,0.2613362999400124,correct,,44,C,2024-01-02_15h37.46.523,gca_discrimination,2022.2.4,143.7405309911362,
positions.xlsx,stimuli.xlsx,test.xlsx,stimuli/Social1.png,stimuli/Social2.png,stimuli/Nonsocial2.png,stimuli/Nonsocial1.png,stimuli/Test1.png,stimuli/Test2.png,"(-0.7, -0.5)",cs_plus_ns,"(0.7, 0.5)",cs_minus_ns,0,0,0,0,,,,,0,73,73,28,,317.15007279999554,l,0.3121865000575781,correct,,44,C,2024-01-02_15h37.46.523,gca_discrimination,2022.2.4,143.7405309911362,
positions.xlsx,stimuli.xlsx,test.xlsx,stimuli/Social1.png,stimuli/Social2.png,stimuli/Nonsocial2.png,stimuli/Nonsocial1.png,stimuli/Test1.png,stimuli/Test2.png,"(-0.7, 0.5)",cs_minus_ns,"(-0.7, -0.5)",cs_minus_ns,0,0,0,0,,,,,0,74,74,84,,319.8305386999855,ä,0.32760469999630004,correct,,44,C,2024-01-02_15h37.46.523,gca_discrimination,2022.2.4,143.7405309911362,
positions.xlsx,stimuli.xlsx,test.xlsx,stimuli/Social1.png,stimuli/Social2.png,stimuli/Nonsocial2.png,stimuli/Nonsocial1.png,stimuli/Test1.png,stimuli/Test2.png,"(-0.7, 0.5)",cs_minus_ns,"(0.7, 0.5)",cs_plus_ns,0,0,0,0,,,,,0,75,75,37,,321.99017320002895,l,0.2633684000466019,correct,,44,C,2024-01-02_15h37.46.523,gca_discrimination,2022.2.4,143.7405309911362,
positions.xlsx,stimuli.xlsx,test.xlsx,stimuli/Social1.png,stimuli/Social2.png,stimuli/Nonsocial2.png,stimuli/Nonsocial1.png,stimuli/Test1.png,stimuli/Test2.png,"(-0.7, -0.5)",cs_minus_ns,"(0.7, 0.5)",cs_minus_ns,0,0,0,0,,,,,0,76,76,88,,324.5387195999501,ä,0.19525440002325922,correct,,44,C,2024-01-02_15h37.46.523,gca_discrimination,2022.2.4,143.7405309911362,
positions.xlsx,stimuli.xlsx,test.xlsx,stimuli/Social1.png,stimuli/Social2.png,stimuli/Nonsocial2.png,stimuli/Nonsocial1.png,stimuli/Test1.png,stimuli/Test2.png,"(-0.7, -0.5)",cs_minus_ns,"(0.7, -0.5)",cs_minus_ns,0,0,0,0,,,,,0,77,77,89,,327.0177522000158,ä,0.18834370002150536,correct,,44,C,2024-01-02_15h37.46.523,gca_discrimination,2022.2.4,143.7405309911362,
positions.xlsx,stimuli.xlsx,test.xlsx,stimuli/Social1.png,stimuli/Social2.png,stimuli/Nonsocial2.png,stimuli/Nonsocial1.png,stimuli/Test1.png,stimuli/Test2.png,"(0.7, -0.5)",cs_plus_ns,"(-0.7, -0.5)",cs_minus_ns,0,0,0,0,,,,,0,78,78,34,,329.94818680000026,l,0.23350159998517483,correct,,44,C,2024-01-02_15h37.46.523,gca_discrimination,2022.2.4,143.7405309911362,
positions.xlsx,stimuli.xlsx,test.xlsx,stimuli/Social1.png,stimuli/Social2.png,stimuli/Nonsocial2.png,stimuli/Nonsocial1.png,stimuli/Test1.png,stimuli/Test2.png,"(0.7, 0.5)",cs_plus_ns,"(0.7, -0.5)",cs_plus_ns,0,0,0,0,,,,,0,79,79,80,,332.9133746000007,ä,0.41267540003173053,correct,,44,C,2024-01-02_15h37.46.523,gca_discrimination,2022.2.4,143.7405309911362,
positions.xlsx,stimuli.xlsx,test.xlsx,stimuli/Social1.png,stimuli/Social2.png,stimuli/Nonsocial2.png,stimuli/Nonsocial1.png,stimuli/Test1.png,stimuli/Test2.png,"(-0.7, -0.5)",cs_minus_s,"(0.7, 0.5)",cs_minus_s,0,0,0,0,,,,,0,80,80,64,,335.149345099926,ä,0.32101760001387447,correct,,44,C,2024-01-02_15h37.46.523,gca_discrimination,2022.2.4,143.7405309911362,
positions.xlsx,stimuli.xlsx,test.xlsx,stimuli/Social1.png,stimuli/Social2.png,stimuli/Nonsocial2.png,stimuli/Nonsocial1.png,stimuli/Test1.png,stimuli/Test2.png,"(-0.7, -0.5)",cs_plus_s,"(0.7, 0.5)",cs_minus_s,0,0,0,0,,,,,0,81,81,4,,337.9687147999648,l,0.23716809996403754,correct,,44,C,2024-01-02_15h37.46.523,gca_discrimination,2022.2.4,143.7405309911362,
positions.xlsx,stimuli.xlsx,test.xlsx,stimuli/Social1.png,stimuli/Social2.png,stimuli/Nonsocial2.png,stimuli/Nonsocial1.png,stimuli/Test1.png,stimuli/Test2.png,"(-0.7, -0.5)",cs_plus_s,"(-0.7, 0.5)",cs_plus_s,0,0,0,0,,,,,0,82,82,51,,340.2116835999768,l,0.2179007000522688,wrong,,44,C,2024-01-02_15h37.46.523,gca_discrimination,2022.2.4,143.7405309911362,
positions.xlsx,stimuli.xlsx,test.xlsx,stimuli/Social1.png,stimuli/Social2.png,stimuli/Nonsocial2.png,stimuli/Nonsocial1.png,stimuli/Test1.png,stimuli/Test2.png,"(0.7, -0.5)",cs_minus_s,"(-0.7, 0.5)",cs_plus_s,0,0,0,0,,,,,0,83,83,21,,342.8504563999595,l,0.5326187999453396,correct,,44,C,2024-01-02_15h37.46.523,gca_discrimination,2022.2.4,143.7405309911362,
positions.xlsx,stimuli.xlsx,test.xlsx,stimuli/Social1.png,stimuli/Social2.png,stimuli/Nonsocial2.png,stimuli/Nonsocial1.png,stimuli/Test1.png,stimuli/Test2.png,"(-0.7, -0.5)",cs_minus_ns,"(-0.7, 0.5)",cs_minus_ns,0,0,0,0,,,,,0,84,84,87,,345.37121829995885,l,0.2265451999846846,wrong,,44,C,2024-01-02_15h37.46.523,gca_discrimination,2022.2.4,143.7405309911362,
positions.xlsx,stimuli.xlsx,test.xlsx,stimuli/Social1.png,stimuli/Social2.png,stimuli/Nonsocial2.png,stimuli/Nonsocial1.png,stimuli/Test1.png,stimuli/Test2.png,"(-0.7, 0.5)",cs_plus_ns,"(-0.7, -0.5)",cs_plus_ns,0,0,0,0,,,,,0,85,85,72,,347.67665849998593,ä,0.5131811000173911,correct,,44,C,2024-01-02_15h37.46.523,gca_discrimination,2022.2.4,143.7405309911362,
positions.xlsx,stimuli.xlsx,test.xlsx,stimuli/Social1.png,stimuli/Social2.png,stimuli/Nonsocial2.png,stimuli/Nonsocial1.png,stimuli/Test1.png,stimuli/Test2.png,"(-0.7, -0.5)",cs_plus_s,"(0.7, -0.5)",cs_minus_s,0,0,0,0,,,,,0,86,86,5,,350.75988709996454,l,0.5507779999170452,correct,,44,C,2024-01-02_15h37.46.523,gca_discrimination,2022.2.4,143.7405309911362,
positions.xlsx,stimuli.xlsx,test.xlsx,stimuli/Social1.png,stimuli/Social2.png,stimuli/Nonsocial2.png,stimuli/Nonsocial1.png,stimuli/Test1.png,stimuli/Test2.png,"(-0.7, 0.5)",cs_minus_s,"(-0.7, -0.5)",cs_minus_s,0,0,0,0,,,,,0,87,87,60,,354.12781069998164,ä,0.29409250000026077,correct,,44,C,2024-01-02_15h37.46.523,gca_discrimination,2022.2.4,143.7405309911362,
positions.xlsx,stimuli.xlsx,test.xlsx,stimuli/Social1.png,stimuli/Social2.png,stimuli/Nonsocial2.png,stimuli/Nonsocial1.png,stimuli/Test1.png,stimuli/Test2.png,"(-0.7, -0.5)",cs_minus_ns,"(0.7, -0.5)",cs_plus_ns,0,0,0,0,,,,,0,88,88,41,,357.00963330001105,l,0.6127294000471011,correct,,44,C,2024-01-02_15h37.46.523,gca_discrimination,2022.2.4,143.7405309911362,
positions.xlsx,stimuli.xlsx,test.xlsx,stimuli/Social1.png,stimuli/Social2.png,stimuli/Nonsocial2.png,stimuli/Nonsocial1.png,stimuli/Test1.png,stimuli/Test2.png,"(0.7, -0.5)",cs_minus_s,"(-0.7, -0.5)",cs_plus_s,0,0,0,0,,,,,0,89,89,22,,359.54423070000485,l,0.4621998999500647,correct,,44,C,2024-01-02_15h37.46.523,gca_discrimination,2022.2.4,143.7405309911362,
positions.xlsx,stimuli.xlsx,test.xlsx,stimuli/Social1.png,stimuli/Social2.png,stimuli/Nonsocial2.png,stimuli/Nonsocial1.png,stimuli/Test1.png,stimuli/Test2.png,"(-0.7, 0.5)",cs_plus_s,"(0.7, -0.5)",cs_plus_s,0,0,0,0,,,,,0,90,90,50,,362.08584840002004,ä,0.4010425000451505,correct,,44,C,2024-01-02_15h37.46.523,gca_discrimination,2022.2.4,143.7405309911362,
positions.xlsx,stimuli.xlsx,test.xlsx,stimuli/Social1.png,stimuli/Social2.png,stimuli/Nonsocial2.png,stimuli/Nonsocial1.png,stimuli/Test1.png,stimuli/Test2.png,"(0.7, -0.5)",cs_minus_s,"(0.7, 0.5)",cs_minus_s,0,0,0,0,,,,,0,91,91,71,,364.5926795999985,ä,0.53414000000339,correct,,44,C,2024-01-02_15h37.46.523,gca_discrimination,2022.2.4,143.7405309911362,
positions.xlsx,stimuli.xlsx,test.xlsx,stimuli/Social1.png,stimuli/Social2.png,stimuli/Nonsocial2.png,stimuli/Nonsocial1.png,stimuli/Test1.png,stimuli/Test2.png,"(0.7, -0.5)",cs_minus_ns,"(0.7, 0.5)",cs_minus_ns,0,0,0,0,,,,,0,92,92,95,,367.7869641999714,ä,0.4429963000584394,correct,,44,C,2024-01-02_15h37.46.523,gca_discrimination,2022.2.4,143.7405309911362,
positions.xlsx,stimuli.xlsx,test.xlsx,stimuli/Social1.png,stimuli/Social2.png,stimuli/Nonsocial2.png,stimuli/Nonsocial1.png,stimuli/Test1.png,stimuli/Test2.png,"(0.7, -0.5)",cs_plus_s,"(0.7, 0.5)",cs_minus_s,0,0,0,0,,,,,0,93,93,11,,370.9326941999607,l,0.3060862999409437,correct,,44,C,2024-01-02_15h37.46.523,gca_discrimination,2022.2.4,143.7405309911362,
positions.xlsx,stimuli.xlsx,test.xlsx,stimuli/Social1.png,stimuli/Social2.png,stimuli/Nonsocial2.png,stimuli/Nonsocial1.png,stimuli/Test1.png,stimuli/Test2.png,"(-0.7, 0.5)",cs_plus_ns,"(0.7, 0.5)",cs_plus_ns,0,0,0,0,,,,,0,94,94,73,,373.7034345000284,ä,0.5346664000535384,correct,,44,C,2024-01-02_15h37.46.523,gca_discrimination,2022.2.4,143.7405309911362,
positions.xlsx,stimuli.xlsx,test.xlsx,stimuli/Social1.png,stimuli/Social2.png,stimuli/Nonsocial2.png,stimuli/Nonsocial1.png,stimuli/Test1.png,stimuli/Test2.png,"(0.7, -0.5)",cs_minus_ns,"(-0.7, 0.5)",cs_minus_ns,0,0,0,0,,,,,0,95,95,93,,376.5505527999485,ä,0.4070677999407053,correct,,44,C,2024-01-02_15h37.46.523,gca_discrimination,2022.2.4,143.7405309911362,
