posFile,stimFile,testFile,cs_plus_s,cs_minus_s,cs_plus_ns,cs_minus_ns,test1,test2,position1,trialtype,position2,comptype,blocks.thisRepN,blocks.thisTrialN,blocks.thisN,blocks.thisIndex,learning_trials.thisRepN,learning_trials.thisTrialN,learning_trials.thisN,learning_trials.thisIndex,trials.thisRepN,trials.thisTrialN,trials.thisN,trials.thisIndex,textStart.started,key.started,key.keys,correctness,key.rt,textStartTask.started,participant,group,date,expName,psychopyVersion,frameRate,
positions.xlsx,stimuli.xlsx,test.xlsx,stimuli/Social1.png,stimuli/Social2.png,stimuli/Nonsocial1.png,stimuli/Nonsocial2.png,stimuli/Test1.png,stimuli/Test2.png,"(0.7, 0.5)",test1,"(0.7, -0.5)",test2,0,0,0,0,0,0,0,11,,,,,8.883620899869129,54.86791249993257,None,no answer,,,51,A,2024-01-15_11h14.52.317,gca_discrimination,2022.2.4,143.7671890255453,
positions.xlsx,stimuli.xlsx,test.xlsx,stimuli/Social1.png,stimuli/Social2.png,stimuli/Nonsocial1.png,stimuli/Nonsocial2.png,stimuli/Test1.png,stimuli/Test2.png,"(0.7, -0.5)",test1,"(0.7, 0.5)",test2,0,0,0,0,0,1,1,0,,,,,,60.98573309998028,None,no answer,,,51,A,2024-01-15_11h14.52.317,gca_discrimination,2022.2.4,143.7671890255453,
positions.xlsx,stimuli.xlsx,test.xlsx,stimuli/Social1.png,stimuli/Social2.png,stimuli/Nonsocial1.png,stimuli/Nonsocial2.png,stimuli/Test1.png,stimuli/Test2.png,"(-0.7, 0.5)",test2,"(0.7, 0.5)",test1,0,0,0,0,0,2,2,3,,,,,,67.39517509983853,None,no answer,,,51,A,2024-01-15_11h14.52.317,gca_discrimination,2022.2.4,143.7671890255453,
positions.xlsx,stimuli.xlsx,test.xlsx,stimuli/Social1.png,stimuli/Social2.png,stimuli/Nonsocial1.png,stimuli/Nonsocial2.png,stimuli/Test1.png,stimuli/Test2.png,"(-0.7, -0.5)",test1,"(0.7, 0.5)",test2,0,0,0,0,0,3,3,8,,,,,,73.631081599975,None,no answer,,,51,A,2024-01-15_11h14.52.317,gca_discrimination,2022.2.4,143.7671890255453,
positions.xlsx,stimuli.xlsx,test.xlsx,stimuli/Social1.png,stimuli/Social2.png,stimuli/Nonsocial1.png,stimuli/Nonsocial2.png,stimuli/Test1.png,stimuli/Test2.png,"(0.7, -0.5)",test1,"(0.7, 0.5)",test1,0,0,0,0,0,4,4,10,,,,,,79.4433199998457,None,no answer,,,51,A,2024-01-15_11h14.52.317,gca_discrimination,2022.2.4,143.7671890255453,
positions.xlsx,stimuli.xlsx,test.xlsx,stimuli/Social1.png,stimuli/Social2.png,stimuli/Nonsocial1.png,stimuli/Nonsocial2.png,stimuli/Test1.png,stimuli/Test2.png,"(-0.7, 0.5)",test2,"(0.7, -0.5)",test1,0,0,0,0,0,5,5,12,,,,,,86.18613239983097,None,no answer,,,51,A,2024-01-15_11h14.52.317,gca_discrimination,2022.2.4,143.7671890255453,
positions.xlsx,stimuli.xlsx,test.xlsx,stimuli/Social1.png,stimuli/Social2.png,stimuli/Nonsocial1.png,stimuli/Nonsocial2.png,stimuli/Test1.png,stimuli/Test2.png,"(0.7, 0.5)",test2,"(-0.7, 0.5)",test1,0,0,0,0,0,6,6,13,,,,,,92.02616409980692,None,no answer,,,51,A,2024-01-15_11h14.52.317,gca_discrimination,2022.2.4,143.7671890255453,
positions.xlsx,stimuli.xlsx,test.xlsx,stimuli/Social1.png,stimuli/Social2.png,stimuli/Nonsocial1.png,stimuli/Nonsocial2.png,stimuli/Test1.png,stimuli/Test2.png,"(-0.7, 0.5)",test2,"(-0.7, -0.5)",test2,0,0,0,0,0,7,7,1,,,,,,98.4425825998187,None,no answer,,,51,A,2024-01-15_11h14.52.317,gca_discrimination,2022.2.4,143.7671890255453,
positions.xlsx,stimuli.xlsx,test.xlsx,stimuli/Social1.png,stimuli/Social2.png,stimuli/Nonsocial1.png,stimuli/Nonsocial2.png,stimuli/Test1.png,stimuli/Test2.png,"(-0.7, -0.5)",test2,"(0.7, 0.5)",test2,0,0,0,0,0,8,8,7,,,,,,104.78957499982789,None,no answer,,,51,A,2024-01-15_11h14.52.317,gca_discrimination,2022.2.4,143.7671890255453,
positions.xlsx,stimuli.xlsx,test.xlsx,stimuli/Social1.png,stimuli/Social2.png,stimuli/Nonsocial1.png,stimuli/Nonsocial2.png,stimuli/Test1.png,stimuli/Test2.png,"(-0.7, -0.5)",test2,"(-0.7, 0.5)",test2,0,0,0,0,0,9,9,2,,,,,,111.48372259992175,None,no answer,,,51,A,2024-01-15_11h14.52.317,gca_discrimination,2022.2.4,143.7671890255453,
positions.xlsx,stimuli.xlsx,test.xlsx,stimuli/Social1.png,stimuli/Social2.png,stimuli/Nonsocial1.png,stimuli/Nonsocial2.png,stimuli/Test1.png,stimuli/Test2.png,"(0.7, 0.5)",test2,"(0.7, -0.5)",test1,0,0,0,0,0,10,10,6,,,,,,117.983460099902,None,no answer,,,51,A,2024-01-15_11h14.52.317,gca_discrimination,2022.2.4,143.7671890255453,
positions.xlsx,stimuli.xlsx,test.xlsx,stimuli/Social1.png,stimuli/Social2.png,stimuli/Nonsocial1.png,stimuli/Nonsocial2.png,stimuli/Test1.png,stimuli/Test2.png,"(0.7, -0.5)",test2,"(-0.7, 0.5)",test1,0,0,0,0,0,11,11,4,,,,,,124.53182939998806,l,correct,1.5601294001098722,,51,A,2024-01-15_11h14.52.317,gca_discrimination,2022.2.4,143.7671890255453,
positions.xlsx,stimuli.xlsx,test.xlsx,stimuli/Social1.png,stimuli/Social2.png,stimuli/Nonsocial1.png,stimuli/Nonsocial2.png,stimuli/Test1.png,stimuli/Test2.png,"(-0.7, -0.5)",test2,"(0.7, -0.5)",test2,0,0,0,0,0,12,12,9,,,,,,129.9552084999159,None,no answer,,,51,A,2024-01-15_11h14.52.317,gca_discrimination,2022.2.4,143.7671890255453,
positions.xlsx,stimuli.xlsx,test.xlsx,stimuli/Social1.png,stimuli/Social2.png,stimuli/Nonsocial1.png,stimuli/Nonsocial2.png,stimuli/Test1.png,stimuli/Test2.png,"(-0.7, 0.5)",test1,"(0.7, -0.5)",test1,0,0,0,0,0,13,13,5,,,,,,135.90636049979366,ä,correct,1.0883073001168668,,51,A,2024-01-15_11h14.52.317,gca_discrimination,2022.2.4,143.7671890255453,
positions.xlsx,stimuli.xlsx,test.xlsx,stimuli/Social1.png,stimuli/Social2.png,stimuli/Nonsocial1.png,stimuli/Nonsocial2.png,stimuli/Test1.png,stimuli/Test2.png,"(-0.7, -0.5)",cs_plus_ns,"(0.7, -0.5)",cs_plus_ns,0,0,0,0,,,,,0,0,0,77,,163.6205376998987,ä,correct,0.9262661002576351,139.7048185998574,51,A,2024-01-15_11h14.52.317,gca_discrimination,2022.2.4,143.7671890255453,
positions.xlsx,stimuli.xlsx,test.xlsx,stimuli/Social1.png,stimuli/Social2.png,stimuli/Nonsocial1.png,stimuli/Nonsocial2.png,stimuli/Test1.png,stimuli/Test2.png,"(-0.7, 0.5)",cs_plus_s,"(0.7, -0.5)",cs_minus_s,0,0,0,0,,,,,0,1,1,2,,166.93290199991316,l,correct,1.2945138001814485,,51,A,2024-01-15_11h14.52.317,gca_discrimination,2022.2.4,143.7671890255453,
positions.xlsx,stimuli.xlsx,test.xlsx,stimuli/Social1.png,stimuli/Social2.png,stimuli/Nonsocial1.png,stimuli/Nonsocial2.png,stimuli/Test1.png,stimuli/Test2.png,"(0.7, -0.5)",cs_plus_ns,"(-0.7, -0.5)",cs_minus_ns,0,0,0,0,,,,,0,2,2,34,,170.39805319998413,l,correct,1.7975768002215773,,51,A,2024-01-15_11h14.52.317,gca_discrimination,2022.2.4,143.7671890255453,
positions.xlsx,stimuli.xlsx,test.xlsx,stimuli/Social1.png,stimuli/Social2.png,stimuli/Nonsocial1.png,stimuli/Nonsocial2.png,stimuli/Test1.png,stimuli/Test2.png,"(-0.7, -0.5)",cs_minus_ns,"(0.7, 0.5)",cs_minus_ns,0,0,0,0,,,,,0,3,3,88,,174.2381660998799,ä,correct,0.6459793001413345,,51,A,2024-01-15_11h14.52.317,gca_discrimination,2022.2.4,143.7671890255453,
positions.xlsx,stimuli.xlsx,test.xlsx,stimuli/Social1.png,stimuli/Social2.png,stimuli/Nonsocial1.png,stimuli/Nonsocial2.png,stimuli/Test1.png,stimuli/Test2.png,"(-0.7, -0.5)",cs_minus_ns,"(-0.7, 0.5)",cs_minus_ns,0,0,0,0,,,,,0,4,4,87,,176.9811801998876,ä,correct,1.1818320001475513,,51,A,2024-01-15_11h14.52.317,gca_discrimination,2022.2.4,143.7671890255453,
positions.xlsx,stimuli.xlsx,test.xlsx,stimuli/Social1.png,stimuli/Social2.png,stimuli/Nonsocial1.png,stimuli/Nonsocial2.png,stimuli/Test1.png,stimuli/Test2.png,"(-0.7, -0.5)",cs_minus_s,"(-0.7, 0.5)",cs_plus_s,0,0,0,0,,,,,0,5,5,15,,180.6754282999318,l,correct,0.6235674999188632,,51,A,2024-01-15_11h14.52.317,gca_discrimination,2022.2.4,143.7671890255453,
positions.xlsx,stimuli.xlsx,test.xlsx,stimuli/Social1.png,stimuli/Social2.png,stimuli/Nonsocial1.png,stimuli/Nonsocial2.png,stimuli/Test1.png,stimuli/Test2.png,"(-0.7, 0.5)",cs_minus_s,"(-0.7, -0.5)",cs_plus_s,0,0,0,0,,,,,0,6,6,12,,183.2517264999915,l,correct,1.6393996002152562,,51,A,2024-01-15_11h14.52.317,gca_discrimination,2022.2.4,143.7671890255453,
positions.xlsx,stimuli.xlsx,test.xlsx,stimuli/Social1.png,stimuli/Social2.png,stimuli/Nonsocial1.png,stimuli/Nonsocial2.png,stimuli/Test1.png,stimuli/Test2.png,"(-0.7, -0.5)",cs_minus_ns,"(0.7, 0.5)",cs_plus_ns,0,0,0,0,,,,,0,7,7,40,,187.34184229979292,l,correct,1.0931813002098352,,51,A,2024-01-15_11h14.52.317,gca_discrimination,2022.2.4,143.7671890255453,
positions.xlsx,stimuli.xlsx,test.xlsx,stimuli/Social1.png,stimuli/Social2.png,stimuli/Nonsocial1.png,stimuli/Nonsocial2.png,stimuli/Test1.png,stimuli/Test2.png,"(0.7, -0.5)",cs_plus_s,"(-0.7, 0.5)",cs_plus_s,0,0,0,0,,,,,0,8,8,57,,190.66112289996818,ä,correct,0.566928000189364,,51,A,2024-01-15_11h14.52.317,gca_discrimination,2022.2.4,143.7671890255453,
positions.xlsx,stimuli.xlsx,test.xlsx,stimuli/Social1.png,stimuli/Social2.png,stimuli/Nonsocial1.png,stimuli/Nonsocial2.png,stimuli/Test1.png,stimuli/Test2.png,"(0.7, -0.5)",cs_minus_s,"(-0.7, 0.5)",cs_minus_s,0,0,0,0,,,,,0,9,9,69,,193.6401705997996,ä,correct,1.1304292001295835,,51,A,2024-01-15_11h14.52.317,gca_discrimination,2022.2.4,143.7671890255453,
positions.xlsx,stimuli.xlsx,test.xlsx,stimuli/Social1.png,stimuli/Social2.png,stimuli/Nonsocial1.png,stimuli/Nonsocial2.png,stimuli/Test1.png,stimuli/Test2.png,"(0.7, -0.5)",cs_minus_ns,"(-0.7, -0.5)",cs_plus_ns,0,0,0,0,,,,,0,10,10,46,,196.64006389980204,l,correct,1.0427147999871522,,51,A,2024-01-15_11h14.52.317,gca_discrimination,2022.2.4,143.7671890255453,
positions.xlsx,stimuli.xlsx,test.xlsx,stimuli/Social1.png,stimuli/Social2.png,stimuli/Nonsocial1.png,stimuli/Nonsocial2.png,stimuli/Test1.png,stimuli/Test2.png,"(0.7, 0.5)",cs_plus_ns,"(-0.7, -0.5)",cs_plus_ns,0,0,0,0,,,,,0,11,11,79,,199.68856169981882,None,no answer,,,51,A,2024-01-15_11h14.52.317,gca_discrimination,2022.2.4,143.7671890255453,
positions.xlsx,stimuli.xlsx,test.xlsx,stimuli/Social1.png,stimuli/Social2.png,stimuli/Nonsocial1.png,stimuli/Nonsocial2.png,stimuli/Test1.png,stimuli/Test2.png,"(0.7, -0.5)",cs_minus_ns,"(-0.7, -0.5)",cs_minus_ns,0,0,0,0,,,,,0,12,12,94,,203.76474959985353,None,no answer,,,51,A,2024-01-15_11h14.52.317,gca_discrimination,2022.2.4,143.7671890255453,
positions.xlsx,stimuli.xlsx,test.xlsx,stimuli/Social1.png,stimuli/Social2.png,stimuli/Nonsocial1.png,stimuli/Nonsocial2.png,stimuli/Test1.png,stimuli/Test2.png,"(-0.7, 0.5)",cs_minus_s,"(0.7, 0.5)",cs_plus_s,0,0,0,0,,,,,0,13,13,13,,207.59795959992334,l,correct,1.3172784999478608,,51,A,2024-01-15_11h14.52.317,gca_discrimination,2022.2.4,143.7671890255453,
positions.xlsx,stimuli.xlsx,test.xlsx,stimuli/Social1.png,stimuli/Social2.png,stimuli/Nonsocial1.png,stimuli/Nonsocial2.png,stimuli/Test1.png,stimuli/Test2.png,"(0.7, 0.5)",cs_plus_s,"(0.7, -0.5)",cs_plus_s,0,0,0,0,,,,,0,14,14,56,,211.72972339997068,None,no answer,,,51,A,2024-01-15_11h14.52.317,gca_discrimination,2022.2.4,143.7671890255453,
positions.xlsx,stimuli.xlsx,test.xlsx,stimuli/Social1.png,stimuli/Social2.png,stimuli/Nonsocial1.png,stimuli/Nonsocial2.png,stimuli/Test1.png,stimuli/Test2.png,"(-0.7, -0.5)",cs_minus_ns,"(-0.7, 0.5)",cs_plus_ns,0,0,0,0,,,,,0,15,15,39,,215.65321299992502,None,no answer,,,51,A,2024-01-15_11h14.52.317,gca_discrimination,2022.2.4,143.7671890255453,
positions.xlsx,stimuli.xlsx,test.xlsx,stimuli/Social1.png,stimuli/Social2.png,stimuli/Nonsocial1.png,stimuli/Nonsocial2.png,stimuli/Test1.png,stimuli/Test2.png,"(-0.7, 0.5)",cs_minus_s,"(0.7, -0.5)",cs_minus_s,0,0,0,0,,,,,0,16,16,62,,220.20858169998974,None,no answer,,,51,A,2024-01-15_11h14.52.317,gca_discrimination,2022.2.4,143.7671890255453,
positions.xlsx,stimuli.xlsx,test.xlsx,stimuli/Social1.png,stimuli/Social2.png,stimuli/Nonsocial1.png,stimuli/Nonsocial2.png,stimuli/Test1.png,stimuli/Test2.png,"(0.7, -0.5)",cs_minus_s,"(0.7, 0.5)",cs_plus_s,0,0,0,0,,,,,0,17,17,23,,224.68066679988988,None,no answer,,,51,A,2024-01-15_11h14.52.317,gca_discrimination,2022.2.4,143.7671890255453,
positions.xlsx,stimuli.xlsx,test.xlsx,stimuli/Social1.png,stimuli/Social2.png,stimuli/Nonsocial1.png,stimuli/Nonsocial2.png,stimuli/Test1.png,stimuli/Test2.png,"(-0.7, -0.5)",cs_minus_s,"(0.7, -0.5)",cs_minus_s,0,0,0,0,,,,,0,18,18,65,,228.9443489999976,l,wrong,0.8913303001318127,,51,A,2024-01-15_11h14.52.317,gca_discrimination,2022.2.4,143.7671890255453,
positions.xlsx,stimuli.xlsx,test.xlsx,stimuli/Social1.png,stimuli/Social2.png,stimuli/Nonsocial1.png,stimuli/Nonsocial2.png,stimuli/Test1.png,stimuli/Test2.png,"(0.7, 0.5)",cs_plus_s,"(0.7, -0.5)",cs_minus_s,0,0,0,0,,,,,0,19,19,8,,232.0275643998757,ä,wrong,0.9435511000920087,,51,A,2024-01-15_11h14.52.317,gca_discrimination,2022.2.4,143.7671890255453,
positions.xlsx,stimuli.xlsx,test.xlsx,stimuli/Social1.png,stimuli/Social2.png,stimuli/Nonsocial1.png,stimuli/Nonsocial2.png,stimuli/Test1.png,stimuli/Test2.png,"(-0.7, 0.5)",cs_minus_ns,"(0.7, -0.5)",cs_minus_ns,0,0,0,0,,,,,0,20,20,86,,235.78437839983962,None,no answer,,,51,A,2024-01-15_11h14.52.317,gca_discrimination,2022.2.4,143.7671890255453,
positions.xlsx,stimuli.xlsx,test.xlsx,stimuli/Social1.png,stimuli/Social2.png,stimuli/Nonsocial1.png,stimuli/Nonsocial2.png,stimuli/Test1.png,stimuli/Test2.png,"(-0.7, -0.5)",cs_plus_s,"(0.7, 0.5)",cs_minus_s,0,0,0,0,,,,,0,21,21,4,,239.7217017998919,l,correct,0.04991349996998906,,51,A,2024-01-15_11h14.52.317,gca_discrimination,2022.2.4,143.7671890255453,
positions.xlsx,stimuli.xlsx,test.xlsx,stimuli/Social1.png,stimuli/Social2.png,stimuli/Nonsocial1.png,stimuli/Nonsocial2.png,stimuli/Test1.png,stimuli/Test2.png,"(0.7, -0.5)",cs_minus_ns,"(-0.7, 0.5)",cs_plus_ns,0,0,0,0,,,,,0,22,22,45,,241.71467749984004,None,no answer,,,51,A,2024-01-15_11h14.52.317,gca_discrimination,2022.2.4,143.7671890255453,
positions.xlsx,stimuli.xlsx,test.xlsx,stimuli/Social1.png,stimuli/Social2.png,stimuli/Nonsocial1.png,stimuli/Nonsocial2.png,stimuli/Test1.png,stimuli/Test2.png,"(-0.7, -0.5)",cs_plus_ns,"(0.7, 0.5)",cs_plus_ns,0,0,0,0,,,,,0,23,23,76,,246.4575483999215,None,no answer,,,51,A,2024-01-15_11h14.52.317,gca_discrimination,2022.2.4,143.7671890255453,
positions.xlsx,stimuli.xlsx,test.xlsx,stimuli/Social1.png,stimuli/Social2.png,stimuli/Nonsocial1.png,stimuli/Nonsocial2.png,stimuli/Test1.png,stimuli/Test2.png,"(0.7, 0.5)",cs_minus_ns,"(0.7, -0.5)",cs_plus_ns,0,0,0,0,,,,,0,24,24,44,,250.2976834999863,None,no answer,,,51,A,2024-01-15_11h14.52.317,gca_discrimination,2022.2.4,143.7671890255453,
positions.xlsx,stimuli.xlsx,test.xlsx,stimuli/Social1.png,stimuli/Social2.png,stimuli/Nonsocial1.png,stimuli/Nonsocial2.png,stimuli/Test1.png,stimuli/Test2.png,"(0.7, -0.5)",cs_minus_s,"(0.7, 0.5)",cs_minus_s,0,0,0,0,,,,,0,25,25,71,,254.46417429996654,None,no answer,,,51,A,2024-01-15_11h14.52.317,gca_discrimination,2022.2.4,143.7671890255453,
positions.xlsx,stimuli.xlsx,test.xlsx,stimuli/Social1.png,stimuli/Social2.png,stimuli/Nonsocial1.png,stimuli/Nonsocial2.png,stimuli/Test1.png,stimuli/Test2.png,"(-0.7, -0.5)",cs_plus_s,"(0.7, -0.5)",cs_minus_s,0,0,0,0,,,,,0,26,26,5,,258.2834881998133,l,correct,1.4159606001339853,,51,A,2024-01-15_11h14.52.317,gca_discrimination,2022.2.4,143.7671890255453,
positions.xlsx,stimuli.xlsx,test.xlsx,stimuli/Social1.png,stimuli/Social2.png,stimuli/Nonsocial1.png,stimuli/Nonsocial2.png,stimuli/Test1.png,stimuli/Test2.png,"(-0.7, 0.5)",cs_plus_ns,"(-0.7, -0.5)",cs_plus_ns,0,0,0,0,,,,,0,27,27,72,,261.67914819996804,ä,correct,0.4358224000316113,,51,A,2024-01-15_11h14.52.317,gca_discrimination,2022.2.4,143.7671890255453,
positions.xlsx,stimuli.xlsx,test.xlsx,stimuli/Social1.png,stimuli/Social2.png,stimuli/Nonsocial1.png,stimuli/Nonsocial2.png,stimuli/Test1.png,stimuli/Test2.png,"(-0.7, 0.5)",cs_minus_ns,"(0.7, 0.5)",cs_minus_ns,0,0,0,0,,,,,0,28,28,85,,263.9637788999826,ä,correct,0.6887911001686007,,51,A,2024-01-15_11h14.52.317,gca_discrimination,2022.2.4,143.7671890255453,
positions.xlsx,stimuli.xlsx,test.xlsx,stimuli/Social1.png,stimuli/Social2.png,stimuli/Nonsocial1.png,stimuli/Nonsocial2.png,stimuli/Test1.png,stimuli/Test2.png,"(-0.7, -0.5)",cs_plus_s,"(-0.7, 0.5)",cs_plus_s,0,0,0,0,,,,,0,29,29,51,,266.831727999961,ä,correct,0.4351113000884652,,51,A,2024-01-15_11h14.52.317,gca_discrimination,2022.2.4,143.7671890255453,
positions.xlsx,stimuli.xlsx,test.xlsx,stimuli/Social1.png,stimuli/Social2.png,stimuli/Nonsocial1.png,stimuli/Nonsocial2.png,stimuli/Test1.png,stimuli/Test2.png,"(-0.7, 0.5)",cs_plus_ns,"(-0.7, -0.5)",cs_minus_ns,0,0,0,0,,,,,0,30,30,24,,269.33164919982664,l,correct,0.488023100188002,,51,A,2024-01-15_11h14.52.317,gca_discrimination,2022.2.4,143.7671890255453,
positions.xlsx,stimuli.xlsx,test.xlsx,stimuli/Social1.png,stimuli/Social2.png,stimuli/Nonsocial1.png,stimuli/Nonsocial2.png,stimuli/Test1.png,stimuli/Test2.png,"(0.7, 0.5)",cs_plus_ns,"(-0.7, -0.5)",cs_minus_ns,0,0,0,0,,,,,0,31,31,31,,272.45653570001014,ä,wrong,0.40363209997303784,,51,A,2024-01-15_11h14.52.317,gca_discrimination,2022.2.4,143.7671890255453,
positions.xlsx,stimuli.xlsx,test.xlsx,stimuli/Social1.png,stimuli/Social2.png,stimuli/Nonsocial1.png,stimuli/Nonsocial2.png,stimuli/Test1.png,stimuli/Test2.png,"(0.7, -0.5)",cs_minus_s,"(-0.7, 0.5)",cs_plus_s,0,0,0,0,,,,,0,32,32,21,,275.24114309996367,l,correct,0.7384724000003189,,51,A,2024-01-15_11h14.52.317,gca_discrimination,2022.2.4,143.7671890255453,
positions.xlsx,stimuli.xlsx,test.xlsx,stimuli/Social1.png,stimuli/Social2.png,stimuli/Nonsocial1.png,stimuli/Nonsocial2.png,stimuli/Test1.png,stimuli/Test2.png,"(0.7, 0.5)",cs_minus_s,"(-0.7, 0.5)",cs_minus_s,0,0,0,0,,,,,0,33,33,66,,277.95628109993413,ä,correct,0.4150648000650108,,51,A,2024-01-15_11h14.52.317,gca_discrimination,2022.2.4,143.7671890255453,
positions.xlsx,stimuli.xlsx,test.xlsx,stimuli/Social1.png,stimuli/Social2.png,stimuli/Nonsocial1.png,stimuli/Nonsocial2.png,stimuli/Test1.png,stimuli/Test2.png,"(-0.7, 0.5)",cs_minus_ns,"(0.7, -0.5)",cs_plus_ns,0,0,0,0,,,,,0,34,34,38,,280.91451049991883,l,correct,0.5769569999538362,,51,A,2024-01-15_11h14.52.317,gca_discrimination,2022.2.4,143.7671890255453,
positions.xlsx,stimuli.xlsx,test.xlsx,stimuli/Social1.png,stimuli/Social2.png,stimuli/Nonsocial1.png,stimuli/Nonsocial2.png,stimuli/Test1.png,stimuli/Test2.png,"(-0.7, -0.5)",cs_plus_ns,"(-0.7, 0.5)",cs_plus_ns,0,0,0,0,,,,,0,35,35,75,,283.6713670999743,None,no answer,,,51,A,2024-01-15_11h14.52.317,gca_discrimination,2022.2.4,143.7671890255453,
positions.xlsx,stimuli.xlsx,test.xlsx,stimuli/Social1.png,stimuli/Social2.png,stimuli/Nonsocial1.png,stimuli/Nonsocial2.png,stimuli/Test1.png,stimuli/Test2.png,"(-0.7, -0.5)",cs_plus_ns,"(0.7, -0.5)",cs_minus_ns,0,0,0,0,,,,,0,36,36,29,,287.96283719991334,ä,wrong,0.8083944001700729,,51,A,2024-01-15_11h14.52.317,gca_discrimination,2022.2.4,143.7671890255453,
positions.xlsx,stimuli.xlsx,test.xlsx,stimuli/Social1.png,stimuli/Social2.png,stimuli/Nonsocial1.png,stimuli/Nonsocial2.png,stimuli/Test1.png,stimuli/Test2.png,"(-0.7, 0.5)",cs_minus_ns,"(0.7, 0.5)",cs_plus_ns,0,0,0,0,,,,,0,37,37,37,,291.58772359997965,l,correct,0.3995305001735687,,51,A,2024-01-15_11h14.52.317,gca_discrimination,2022.2.4,143.7671890255453,
positions.xlsx,stimuli.xlsx,test.xlsx,stimuli/Social1.png,stimuli/Social2.png,stimuli/Nonsocial1.png,stimuli/Nonsocial2.png,stimuli/Test1.png,stimuli/Test2.png,"(0.7, -0.5)",cs_minus_s,"(-0.7, -0.5)",cs_plus_s,0,0,0,0,,,,,0,38,38,22,,293.87234189989977,l,correct,0.4186934002209455,,51,A,2024-01-15_11h14.52.317,gca_discrimination,2022.2.4,143.7671890255453,
positions.xlsx,stimuli.xlsx,test.xlsx,stimuli/Social1.png,stimuli/Social2.png,stimuli/Nonsocial1.png,stimuli/Nonsocial2.png,stimuli/Test1.png,stimuli/Test2.png,"(0.7, -0.5)",cs_plus_ns,"(-0.7, 0.5)",cs_minus_ns,0,0,0,0,,,,,0,39,39,33,,296.55975009989925,l,correct,0.4595556000713259,,51,A,2024-01-15_11h14.52.317,gca_discrimination,2022.2.4,143.7671890255453,
positions.xlsx,stimuli.xlsx,test.xlsx,stimuli/Social1.png,stimuli/Social2.png,stimuli/Nonsocial1.png,stimuli/Nonsocial2.png,stimuli/Test1.png,stimuli/Test2.png,"(0.7, 0.5)",cs_plus_ns,"(-0.7, 0.5)",cs_minus_ns,0,0,0,0,,,,,0,40,40,30,,299.3026573997922,l,correct,0.4452012002002448,,51,A,2024-01-15_11h14.52.317,gca_discrimination,2022.2.4,143.7671890255453,
positions.xlsx,stimuli.xlsx,test.xlsx,stimuli/Social1.png,stimuli/Social2.png,stimuli/Nonsocial1.png,stimuli/Nonsocial2.png,stimuli/Test1.png,stimuli/Test2.png,"(-0.7, -0.5)",cs_plus_s,"(0.7, -0.5)",cs_plus_s,0,0,0,0,,,,,0,41,41,53,,301.691475499887,ä,correct,0.38388990005478263,,51,A,2024-01-15_11h14.52.317,gca_discrimination,2022.2.4,143.7671890255453,
positions.xlsx,stimuli.xlsx,test.xlsx,stimuli/Social1.png,stimuli/Social2.png,stimuli/Nonsocial1.png,stimuli/Nonsocial2.png,stimuli/Test1.png,stimuli/Test2.png,"(0.7, -0.5)",cs_plus_s,"(0.7, 0.5)",cs_plus_s,0,0,0,0,,,,,0,42,42,59,,304.19832109985873,l,wrong,0.6131424002815038,,51,A,2024-01-15_11h14.52.317,gca_discrimination,2022.2.4,143.7671890255453,
positions.xlsx,stimuli.xlsx,test.xlsx,stimuli/Social1.png,stimuli/Social2.png,stimuli/Nonsocial1.png,stimuli/Nonsocial2.png,stimuli/Test1.png,stimuli/Test2.png,"(0.7, 0.5)",cs_minus_ns,"(-0.7, 0.5)",cs_plus_ns,0,0,0,0,,,,,0,43,43,42,,306.7746291998774,l,correct,0.36409410019405186,,51,A,2024-01-15_11h14.52.317,gca_discrimination,2022.2.4,143.7671890255453,
positions.xlsx,stimuli.xlsx,test.xlsx,stimuli/Social1.png,stimuli/Social2.png,stimuli/Nonsocial1.png,stimuli/Nonsocial2.png,stimuli/Test1.png,stimuli/Test2.png,"(0.7, 0.5)",cs_minus_s,"(-0.7, -0.5)",cs_minus_s,0,0,0,0,,,,,0,44,44,67,,309.899459999986,ä,correct,0.6406056000851095,,51,A,2024-01-15_11h14.52.317,gca_discrimination,2022.2.4,143.7671890255453,
positions.xlsx,stimuli.xlsx,test.xlsx,stimuli/Social1.png,stimuli/Social2.png,stimuli/Nonsocial1.png,stimuli/Nonsocial2.png,stimuli/Test1.png,stimuli/Test2.png,"(0.7, 0.5)",cs_minus_s,"(-0.7, -0.5)",cs_plus_s,0,0,0,0,,,,,0,45,45,19,,312.6632748998236,l,correct,0.3401305000297725,,51,A,2024-01-15_11h14.52.317,gca_discrimination,2022.2.4,143.7671890255453,
positions.xlsx,stimuli.xlsx,test.xlsx,stimuli/Social1.png,stimuli/Social2.png,stimuli/Nonsocial1.png,stimuli/Nonsocial2.png,stimuli/Test1.png,stimuli/Test2.png,"(-0.7, -0.5)",cs_minus_s,"(0.7, 0.5)",cs_minus_s,0,0,0,0,,,,,0,46,46,64,,315.649272199953,ä,correct,0.28220770019106567,,51,A,2024-01-15_11h14.52.317,gca_discrimination,2022.2.4,143.7671890255453,
positions.xlsx,stimuli.xlsx,test.xlsx,stimuli/Social1.png,stimuli/Social2.png,stimuli/Nonsocial1.png,stimuli/Nonsocial2.png,stimuli/Test1.png,stimuli/Test2.png,"(0.7, 0.5)",cs_minus_s,"(-0.7, 0.5)",cs_plus_s,0,0,0,0,,,,,0,47,47,18,,317.74640299985185,l,correct,0.5613745001610368,,51,A,2024-01-15_11h14.52.317,gca_discrimination,2022.2.4,143.7671890255453,
positions.xlsx,stimuli.xlsx,test.xlsx,stimuli/Social1.png,stimuli/Social2.png,stimuli/Nonsocial1.png,stimuli/Nonsocial2.png,stimuli/Test1.png,stimuli/Test2.png,"(-0.7, 0.5)",cs_minus_s,"(-0.7, -0.5)",cs_minus_s,0,0,0,0,,,,,0,48,48,60,,320.4268567999825,None,no answer,,,51,A,2024-01-15_11h14.52.317,gca_discrimination,2022.2.4,143.7671890255453,
positions.xlsx,stimuli.xlsx,test.xlsx,stimuli/Social1.png,stimuli/Social2.png,stimuli/Nonsocial1.png,stimuli/Nonsocial2.png,stimuli/Test1.png,stimuli/Test2.png,"(0.7, -0.5)",cs_plus_ns,"(-0.7, 0.5)",cs_plus_ns,0,0,0,0,,,,,0,49,49,81,,324.8572193,ä,correct,0.5295816001016647,,51,A,2024-01-15_11h14.52.317,gca_discrimination,2022.2.4,143.7671890255453,
positions.xlsx,stimuli.xlsx,test.xlsx,stimuli/Social1.png,stimuli/Social2.png,stimuli/Nonsocial1.png,stimuli/Nonsocial2.png,stimuli/Test1.png,stimuli/Test2.png,"(-0.7, -0.5)",cs_minus_ns,"(0.7, -0.5)",cs_plus_ns,0,0,0,0,,,,,0,50,50,41,,328.1557420999743,ä,wrong,0.4079396000597626,,51,A,2024-01-15_11h14.52.317,gca_discrimination,2022.2.4,143.7671890255453,
positions.xlsx,stimuli.xlsx,test.xlsx,stimuli/Social1.png,stimuli/Social2.png,stimuli/Nonsocial1.png,stimuli/Nonsocial2.png,stimuli/Test1.png,stimuli/Test2.png,"(-0.7, -0.5)",cs_plus_ns,"(0.7, 0.5)",cs_minus_ns,0,0,0,0,,,,,0,51,51,28,,330.9819904998876,l,correct,0.4610974001698196,,51,A,2024-01-15_11h14.52.317,gca_discrimination,2022.2.4,143.7671890255453,
positions.xlsx,stimuli.xlsx,test.xlsx,stimuli/Social1.png,stimuli/Social2.png,stimuli/Nonsocial1.png,stimuli/Nonsocial2.png,stimuli/Test1.png,stimuli/Test2.png,"(0.7, -0.5)",cs_plus_s,"(0.7, 0.5)",cs_minus_s,0,0,0,0,,,,,0,52,52,11,,333.4263772999402,l,correct,0.4726561000570655,,51,A,2024-01-15_11h14.52.317,gca_discrimination,2022.2.4,143.7671890255453,
positions.xlsx,stimuli.xlsx,test.xlsx,stimuli/Social1.png,stimuli/Social2.png,stimuli/Nonsocial1.png,stimuli/Nonsocial2.png,stimuli/Test1.png,stimuli/Test2.png,"(-0.7, 0.5)",cs_plus_ns,"(0.7, 0.5)",cs_plus_ns,0,0,0,0,,,,,0,53,53,73,,336.5026394999586,ä,correct,0.48398480005562305,,51,A,2024-01-15_11h14.52.317,gca_discrimination,2022.2.4,143.7671890255453,
positions.xlsx,stimuli.xlsx,test.xlsx,stimuli/Social1.png,stimuli/Social2.png,stimuli/Nonsocial1.png,stimuli/Nonsocial2.png,stimuli/Test1.png,stimuli/Test2.png,"(0.7, 0.5)",cs_minus_s,"(0.7, -0.5)",cs_plus_s,0,0,0,0,,,,,0,54,54,20,,339.76636739983223,l,correct,0.38837910001166165,,51,A,2024-01-15_11h14.52.317,gca_discrimination,2022.2.4,143.7671890255453,
positions.xlsx,stimuli.xlsx,test.xlsx,stimuli/Social1.png,stimuli/Social2.png,stimuli/Nonsocial1.png,stimuli/Nonsocial2.png,stimuli/Test1.png,stimuli/Test2.png,"(0.7, 0.5)",cs_minus_ns,"(-0.7, -0.5)",cs_plus_ns,0,0,0,0,,,,,0,55,55,43,,342.495423699962,l,correct,0.43522750004194677,,51,A,2024-01-15_11h14.52.317,gca_discrimination,2022.2.4,143.7671890255453,
positions.xlsx,stimuli.xlsx,test.xlsx,stimuli/Social1.png,stimuli/Social2.png,stimuli/Nonsocial1.png,stimuli/Nonsocial2.png,stimuli/Test1.png,stimuli/Test2.png,"(-0.7, 0.5)",cs_plus_s,"(-0.7, -0.5)",cs_plus_s,0,0,0,0,,,,,0,56,56,48,,345.0300274998881,ä,correct,0.31697720009833574,,51,A,2024-01-15_11h14.52.317,gca_discrimination,2022.2.4,143.7671890255453,
positions.xlsx,stimuli.xlsx,test.xlsx,stimuli/Social1.png,stimuli/Social2.png,stimuli/Nonsocial1.png,stimuli/Nonsocial2.png,stimuli/Test1.png,stimuli/Test2.png,"(-0.7, 0.5)",cs_minus_s,"(0.7, 0.5)",cs_minus_s,0,0,0,0,,,,,0,57,57,61,,347.6757837999612,ä,correct,0.30301400017924607,,51,A,2024-01-15_11h14.52.317,gca_discrimination,2022.2.4,143.7671890255453,
positions.xlsx,stimuli.xlsx,test.xlsx,stimuli/Social1.png,stimuli/Social2.png,stimuli/Nonsocial1.png,stimuli/Nonsocial2.png,stimuli/Test1.png,stimuli/Test2.png,"(-0.7, -0.5)",cs_plus_s,"(0.7, 0.5)",cs_plus_s,0,0,0,0,,,,,0,58,58,52,,350.41178449988365,ä,correct,0.31937830010429025,,51,A,2024-01-15_11h14.52.317,gca_discrimination,2022.2.4,143.7671890255453,
positions.xlsx,stimuli.xlsx,test.xlsx,stimuli/Social1.png,stimuli/Social2.png,stimuli/Nonsocial1.png,stimuli/Nonsocial2.png,stimuli/Test1.png,stimuli/Test2.png,"(-0.7, -0.5)",cs_plus_ns,"(-0.7, 0.5)",cs_minus_ns,0,0,0,0,,,,,0,59,59,27,,352.7588762999512,l,correct,0.3000527003314346,,51,A,2024-01-15_11h14.52.317,gca_discrimination,2022.2.4,143.7671890255453,
positions.xlsx,stimuli.xlsx,test.xlsx,stimuli/Social1.png,stimuli/Social2.png,stimuli/Nonsocial1.png,stimuli/Nonsocial2.png,stimuli/Test1.png,stimuli/Test2.png,"(0.7, 0.5)",cs_plus_s,"(-0.7, 0.5)",cs_minus_s,0,0,0,0,,,,,0,60,60,6,,355.28657339978963,l,correct,0.6054030002560467,,51,A,2024-01-15_11h14.52.317,gca_discrimination,2022.2.4,143.7671890255453,
positions.xlsx,stimuli.xlsx,test.xlsx,stimuli/Social1.png,stimuli/Social2.png,stimuli/Nonsocial1.png,stimuli/Nonsocial2.png,stimuli/Test1.png,stimuli/Test2.png,"(0.7, -0.5)",cs_plus_ns,"(-0.7, -0.5)",cs_plus_ns,0,0,0,0,,,,,0,61,61,82,,357.82123419991694,ä,correct,0.4454936000984162,,51,A,2024-01-15_11h14.52.317,gca_discrimination,2022.2.4,143.7671890255453,
positions.xlsx,stimuli.xlsx,test.xlsx,stimuli/Social1.png,stimuli/Social2.png,stimuli/Nonsocial1.png,stimuli/Nonsocial2.png,stimuli/Test1.png,stimuli/Test2.png,"(-0.7, 0.5)",cs_plus_ns,"(0.7, 0.5)",cs_minus_ns,0,0,0,0,,,,,0,62,62,25,,360.67524319980294,l,correct,0.4795892999973148,,51,A,2024-01-15_11h14.52.317,gca_discrimination,2022.2.4,143.7671890255453,
positions.xlsx,stimuli.xlsx,test.xlsx,stimuli/Social1.png,stimuli/Social2.png,stimuli/Nonsocial1.png,stimuli/Nonsocial2.png,stimuli/Test1.png,stimuli/Test2.png,"(-0.7, -0.5)",cs_minus_ns,"(0.7, -0.5)",cs_minus_ns,0,0,0,0,,,,,0,63,63,89,,363.20987219992094,ä,correct,0.19335760013200343,,51,A,2024-01-15_11h14.52.317,gca_discrimination,2022.2.4,143.7671890255453,
positions.xlsx,stimuli.xlsx,test.xlsx,stimuli/Social1.png,stimuli/Social2.png,stimuli/Nonsocial1.png,stimuli/Nonsocial2.png,stimuli/Test1.png,stimuli/Test2.png,"(0.7, 0.5)",cs_plus_ns,"(0.7, -0.5)",cs_minus_ns,0,0,0,0,,,,,0,64,64,32,,365.6195099998731,ä,wrong,0.31127439998090267,,51,A,2024-01-15_11h14.52.317,gca_discrimination,2022.2.4,143.7671890255453,
positions.xlsx,stimuli.xlsx,test.xlsx,stimuli/Social1.png,stimuli/Social2.png,stimuli/Nonsocial1.png,stimuli/Nonsocial2.png,stimuli/Test1.png,stimuli/Test2.png,"(-0.7, -0.5)",cs_plus_s,"(-0.7, 0.5)",cs_minus_s,0,0,0,0,,,,,0,65,65,3,,368.6888351999223,l,correct,0.5539164000656456,,51,A,2024-01-15_11h14.52.317,gca_discrimination,2022.2.4,143.7671890255453,
positions.xlsx,stimuli.xlsx,test.xlsx,stimuli/Social1.png,stimuli/Social2.png,stimuli/Nonsocial1.png,stimuli/Nonsocial2.png,stimuli/Test1.png,stimuli/Test2.png,"(0.7, -0.5)",cs_plus_ns,"(0.7, 0.5)",cs_plus_ns,0,0,0,0,,,,,0,66,66,83,,371.5637180998456,l,wrong,0.5351609999779612,,51,A,2024-01-15_11h14.52.317,gca_discrimination,2022.2.4,143.7671890255453,
positions.xlsx,stimuli.xlsx,test.xlsx,stimuli/Social1.png,stimuli/Social2.png,stimuli/Nonsocial1.png,stimuli/Nonsocial2.png,stimuli/Test1.png,stimuli/Test2.png,"(0.7, 0.5)",cs_minus_ns,"(-0.7, -0.5)",cs_minus_ns,0,0,0,0,,,,,0,67,67,91,,374.57055169995874,None,no answer,,,51,A,2024-01-15_11h14.52.317,gca_discrimination,2022.2.4,143.7671890255453,
positions.xlsx,stimuli.xlsx,test.xlsx,stimuli/Social1.png,stimuli/Social2.png,stimuli/Nonsocial1.png,stimuli/Nonsocial2.png,stimuli/Test1.png,stimuli/Test2.png,"(0.7, 0.5)",cs_plus_s,"(-0.7, 0.5)",cs_plus_s,0,0,0,0,,,,,0,68,68,54,,378.52876549982466,None,no answer,,,51,A,2024-01-15_11h14.52.317,gca_discrimination,2022.2.4,143.7671890255453,
positions.xlsx,stimuli.xlsx,test.xlsx,stimuli/Social1.png,stimuli/Social2.png,stimuli/Nonsocial1.png,stimuli/Nonsocial2.png,stimuli/Test1.png,stimuli/Test2.png,"(-0.7, 0.5)",cs_plus_s,"(0.7, 0.5)",cs_plus_s,0,0,0,0,,,,,0,69,69,49,,382.81336599984206,None,no answer,,,51,A,2024-01-15_11h14.52.317,gca_discrimination,2022.2.4,143.7671890255453,
positions.xlsx,stimuli.xlsx,test.xlsx,stimuli/Social1.png,stimuli/Social2.png,stimuli/Nonsocial1.png,stimuli/Nonsocial2.png,stimuli/Test1.png,stimuli/Test2.png,"(0.7, 0.5)",cs_minus_ns,"(-0.7, 0.5)",cs_minus_ns,0,0,0,0,,,,,0,70,70,90,,387.1950940999668,None,no answer,,,51,A,2024-01-15_11h14.52.317,gca_discrimination,2022.2.4,143.7671890255453,
positions.xlsx,stimuli.xlsx,test.xlsx,stimuli/Social1.png,stimuli/Social2.png,stimuli/Nonsocial1.png,stimuli/Nonsocial2.png,stimuli/Test1.png,stimuli/Test2.png,"(0.7, -0.5)",cs_minus_ns,"(0.7, 0.5)",cs_minus_ns,0,0,0,0,,,,,0,71,71,95,,391.61157299997285,None,no answer,,,51,A,2024-01-15_11h14.52.317,gca_discrimination,2022.2.4,143.7671890255453,
positions.xlsx,stimuli.xlsx,test.xlsx,stimuli/Social1.png,stimuli/Social2.png,stimuli/Nonsocial1.png,stimuli/Nonsocial2.png,stimuli/Test1.png,stimuli/Test2.png,"(0.7, 0.5)",cs_minus_s,"(0.7, -0.5)",cs_minus_s,0,0,0,0,,,,,0,72,72,68,,396.0488829999231,None,no answer,,,51,A,2024-01-15_11h14.52.317,gca_discrimination,2022.2.4,143.7671890255453,
positions.xlsx,stimuli.xlsx,test.xlsx,stimuli/Social1.png,stimuli/Social2.png,stimuli/Nonsocial1.png,stimuli/Nonsocial2.png,stimuli/Test1.png,stimuli/Test2.png,"(0.7, -0.5)",cs_plus_s,"(-0.7, -0.5)",cs_minus_s,0,0,0,0,,,,,0,73,73,10,,400.5973024999257,None,no answer,,,51,A,2024-01-15_11h14.52.317,gca_discrimination,2022.2.4,143.7671890255453,
positions.xlsx,stimuli.xlsx,test.xlsx,stimuli/Social1.png,stimuli/Social2.png,stimuli/Nonsocial1.png,stimuli/Nonsocial2.png,stimuli/Test1.png,stimuli/Test2.png,"(0.7, -0.5)",cs_minus_ns,"(-0.7, 0.5)",cs_minus_ns,0,0,0,0,,,,,0,74,74,93,,405.22909399983473,None,no answer,,,51,A,2024-01-15_11h14.52.317,gca_discrimination,2022.2.4,143.7671890255453,
positions.xlsx,stimuli.xlsx,test.xlsx,stimuli/Social1.png,stimuli/Social2.png,stimuli/Nonsocial1.png,stimuli/Nonsocial2.png,stimuli/Test1.png,stimuli/Test2.png,"(-0.7, 0.5)",cs_minus_ns,"(-0.7, -0.5)",cs_plus_ns,0,0,0,0,,,,,0,75,75,36,,409.57612230000086,None,no answer,,,51,A,2024-01-15_11h14.52.317,gca_discrimination,2022.2.4,143.7671890255453,
positions.xlsx,stimuli.xlsx,test.xlsx,stimuli/Social1.png,stimuli/Social2.png,stimuli/Nonsocial1.png,stimuli/Nonsocial2.png,stimuli/Test1.png,stimuli/Test2.png,"(-0.7, 0.5)",cs_minus_s,"(0.7, -0.5)",cs_plus_s,0,0,0,0,,,,,0,76,76,14,,414.00648869993165,None,no answer,,,51,A,2024-01-15_11h14.52.317,gca_discrimination,2022.2.4,143.7671890255453,
positions.xlsx,stimuli.xlsx,test.xlsx,stimuli/Social1.png,stimuli/Social2.png,stimuli/Nonsocial1.png,stimuli/Nonsocial2.png,stimuli/Test1.png,stimuli/Test2.png,"(0.7, 0.5)",cs_plus_s,"(-0.7, -0.5)",cs_minus_s,0,0,0,0,,,,,0,77,77,7,,417.81887199985795,None,no answer,,,51,A,2024-01-15_11h14.52.317,gca_discrimination,2022.2.4,143.7671890255453,
positions.xlsx,stimuli.xlsx,test.xlsx,stimuli/Social1.png,stimuli/Social2.png,stimuli/Nonsocial1.png,stimuli/Nonsocial2.png,stimuli/Test1.png,stimuli/Test2.png,"(0.7, -0.5)",cs_minus_s,"(-0.7, -0.5)",cs_minus_s,0,0,0,0,,,,,0,78,78,70,,422.5686412998475,None,no answer,,,51,A,2024-01-15_11h14.52.317,gca_discrimination,2022.2.4,143.7671890255453,
positions.xlsx,stimuli.xlsx,test.xlsx,stimuli/Social1.png,stimuli/Social2.png,stimuli/Nonsocial1.png,stimuli/Nonsocial2.png,stimuli/Test1.png,stimuli/Test2.png,"(-0.7, 0.5)",cs_plus_s,"(0.7, 0.5)",cs_minus_s,0,0,0,0,,,,,0,79,79,1,,427.1379466999788,None,no answer,,,51,A,2024-01-15_11h14.52.317,gca_discrimination,2022.2.4,143.7671890255453,
positions.xlsx,stimuli.xlsx,test.xlsx,stimuli/Social1.png,stimuli/Social2.png,stimuli/Nonsocial1.png,stimuli/Nonsocial2.png,stimuli/Test1.png,stimuli/Test2.png,"(-0.7, 0.5)",cs_plus_ns,"(0.7, -0.5)",cs_minus_ns,0,0,0,0,,,,,0,80,80,26,,431.2766660999041,None,no answer,,,51,A,2024-01-15_11h14.52.317,gca_discrimination,2022.2.4,143.7671890255453,
positions.xlsx,stimuli.xlsx,test.xlsx,stimuli/Social1.png,stimuli/Social2.png,stimuli/Nonsocial1.png,stimuli/Nonsocial2.png,stimuli/Test1.png,stimuli/Test2.png,"(0.7, -0.5)",cs_plus_ns,"(0.7, 0.5)",cs_minus_ns,0,0,0,0,,,,,0,81,81,35,,435.4015265998896,None,no answer,,,51,A,2024-01-15_11h14.52.317,gca_discrimination,2022.2.4,143.7671890255453,
positions.xlsx,stimuli.xlsx,test.xlsx,stimuli/Social1.png,stimuli/Social2.png,stimuli/Nonsocial1.png,stimuli/Nonsocial2.png,stimuli/Test1.png,stimuli/Test2.png,"(-0.7, 0.5)",cs_minus_ns,"(-0.7, -0.5)",cs_minus_ns,0,0,0,0,,,,,0,82,82,84,,439.4013395998627,None,no answer,,,51,A,2024-01-15_11h14.52.317,gca_discrimination,2022.2.4,143.7671890255453,
positions.xlsx,stimuli.xlsx,test.xlsx,stimuli/Social1.png,stimuli/Social2.png,stimuli/Nonsocial1.png,stimuli/Nonsocial2.png,stimuli/Test1.png,stimuli/Test2.png,"(0.7, -0.5)",cs_minus_ns,"(0.7, 0.5)",cs_plus_ns,0,0,0,0,,,,,0,83,83,47,,443.9220182998106,None,no answer,,,51,A,2024-01-15_11h14.52.317,gca_discrimination,2022.2.4,143.7671890255453,
positions.xlsx,stimuli.xlsx,test.xlsx,stimuli/Social1.png,stimuli/Social2.png,stimuli/Nonsocial1.png,stimuli/Nonsocial2.png,stimuli/Test1.png,stimuli/Test2.png,"(-0.7, -0.5)",cs_minus_s,"(0.7, 0.5)",cs_plus_s,0,0,0,0,,,,,0,84,84,16,,448.0468215998262,None,no answer,,,51,A,2024-01-15_11h14.52.317,gca_discrimination,2022.2.4,143.7671890255453,
positions.xlsx,stimuli.xlsx,test.xlsx,stimuli/Social1.png,stimuli/Social2.png,stimuli/Nonsocial1.png,stimuli/Nonsocial2.png,stimuli/Test1.png,stimuli/Test2.png,"(-0.7, 0.5)",cs_plus_s,"(0.7, -0.5)",cs_plus_s,0,0,0,0,,,,,0,85,85,50,,452.0535966998432,None,no answer,,,51,A,2024-01-15_11h14.52.317,gca_discrimination,2022.2.4,143.7671890255453,
positions.xlsx,stimuli.xlsx,test.xlsx,stimuli/Social1.png,stimuli/Social2.png,stimuli/Nonsocial1.png,stimuli/Nonsocial2.png,stimuli/Test1.png,stimuli/Test2.png,"(-0.7, -0.5)",cs_minus_s,"(-0.7, 0.5)",cs_minus_s,0,0,0,0,,,,,0,86,86,63,,456.511777699925,None,no answer,,,51,A,2024-01-15_11h14.52.317,gca_discrimination,2022.2.4,143.7671890255453,
positions.xlsx,stimuli.xlsx,test.xlsx,stimuli/Social1.png,stimuli/Social2.png,stimuli/Nonsocial1.png,stimuli/Nonsocial2.png,stimuli/Test1.png,stimuli/Test2.png,"(-0.7, 0.5)",cs_plus_ns,"(0.7, -0.5)",cs_plus_ns,0,0,0,0,,,,,0,87,87,74,,461.2893701000139,None,no answer,,,51,A,2024-01-15_11h14.52.317,gca_discrimination,2022.2.4,143.7671890255453,
positions.xlsx,stimuli.xlsx,test.xlsx,stimuli/Social1.png,stimuli/Social2.png,stimuli/Nonsocial1.png,stimuli/Nonsocial2.png,stimuli/Test1.png,stimuli/Test2.png,"(-0.7, 0.5)",cs_plus_s,"(-0.7, -0.5)",cs_minus_s,0,0,0,0,,,,,0,88,88,0,,465.62253009993583,None,no answer,,,51,A,2024-01-15_11h14.52.317,gca_discrimination,2022.2.4,143.7671890255453,
positions.xlsx,stimuli.xlsx,test.xlsx,stimuli/Social1.png,stimuli/Social2.png,stimuli/Nonsocial1.png,stimuli/Nonsocial2.png,stimuli/Test1.png,stimuli/Test2.png,"(0.7, -0.5)",cs_plus_s,"(-0.7, 0.5)",cs_minus_s,0,0,0,0,,,,,0,89,89,9,,469.504292299971,None,no answer,,,51,A,2024-01-15_11h14.52.317,gca_discrimination,2022.2.4,143.7671890255453,
positions.xlsx,stimuli.xlsx,test.xlsx,stimuli/Social1.png,stimuli/Social2.png,stimuli/Nonsocial1.png,stimuli/Nonsocial2.png,stimuli/Test1.png,stimuli/Test2.png,"(0.7, -0.5)",cs_plus_s,"(-0.7, -0.5)",cs_plus_s,0,0,0,0,,,,,0,90,90,58,,473.74027939978987,None,no answer,,,51,A,2024-01-15_11h14.52.317,gca_discrimination,2022.2.4,143.7671890255453,
positions.xlsx,stimuli.xlsx,test.xlsx,stimuli/Social1.png,stimuli/Social2.png,stimuli/Nonsocial1.png,stimuli/Nonsocial2.png,stimuli/Test1.png,stimuli/Test2.png,"(0.7, 0.5)",cs_plus_ns,"(-0.7, 0.5)",cs_plus_ns,0,0,0,0,,,,,0,91,91,78,,477.6775795998983,None,no answer,,,51,A,2024-01-15_11h14.52.317,gca_discrimination,2022.2.4,143.7671890255453,
positions.xlsx,stimuli.xlsx,test.xlsx,stimuli/Social1.png,stimuli/Social2.png,stimuli/Nonsocial1.png,stimuli/Nonsocial2.png,stimuli/Test1.png,stimuli/Test2.png,"(0.7, 0.5)",cs_plus_s,"(-0.7, -0.5)",cs_plus_s,0,0,0,0,,,,,0,92,92,55,,481.9343987000175,None,no answer,,,51,A,2024-01-15_11h14.52.317,gca_discrimination,2022.2.4,143.7671890255453,
positions.xlsx,stimuli.xlsx,test.xlsx,stimuli/Social1.png,stimuli/Social2.png,stimuli/Nonsocial1.png,stimuli/Nonsocial2.png,stimuli/Test1.png,stimuli/Test2.png,"(0.7, 0.5)",cs_minus_ns,"(0.7, -0.5)",cs_minus_ns,0,0,0,0,,,,,0,93,93,92,,486.58697950001806,None,no answer,,,51,A,2024-01-15_11h14.52.317,gca_discrimination,2022.2.4,143.7671890255453,
positions.xlsx,stimuli.xlsx,test.xlsx,stimuli/Social1.png,stimuli/Social2.png,stimuli/Nonsocial1.png,stimuli/Nonsocial2.png,stimuli/Test1.png,stimuli/Test2.png,"(-0.7, -0.5)",cs_minus_s,"(0.7, -0.5)",cs_plus_s,0,0,0,0,,,,,0,94,94,17,,490.4895693999715,None,no answer,,,51,A,2024-01-15_11h14.52.317,gca_discrimination,2022.2.4,143.7671890255453,
positions.xlsx,stimuli.xlsx,test.xlsx,stimuli/Social1.png,stimuli/Social2.png,stimuli/Nonsocial1.png,stimuli/Nonsocial2.png,stimuli/Test1.png,stimuli/Test2.png,"(0.7, 0.5)",cs_plus_ns,"(0.7, -0.5)",cs_plus_ns,0,0,0,0,,,,,0,95,95,80,,494.89914779993705,None,no answer,,,51,A,2024-01-15_11h14.52.317,gca_discrimination,2022.2.4,143.7671890255453,
