posFile,stimFile,testFile,cs_plus_s,cs_minus_s,cs_plus_ns,cs_minus_ns,test1,test2,position1,trialtype,position2,comptype,blocks.thisRepN,blocks.thisTrialN,blocks.thisN,blocks.thisIndex,learning_trials.thisRepN,learning_trials.thisTrialN,learning_trials.thisN,learning_trials.thisIndex,trials.thisRepN,trials.thisTrialN,trials.thisN,trials.thisIndex,textStart.started,key.started,key.keys,key.rt,correctness,textStartTask.started,participant,group,date,expName,psychopyVersion,frameRate,
positions.xlsx,stimuli.xlsx,test.xlsx,stimuli/Social1.png,stimuli/Social2.png,stimuli/Nonsocial2.png,stimuli/Nonsocial1.png,stimuli/Test1.png,stimuli/Test2.png,"(-0.7, 0.5)",test2,"(-0.7, -0.5)",test2,0,0,0,0,0,0,0,1,,,,,16.68484150012955,44.732287800172344,l,0.6131013000849634,correct,,50,C,2024-01-15_09h52.03.472,gca_discrimination,2022.2.4,143.7688425775255,
positions.xlsx,stimuli.xlsx,test.xlsx,stimuli/Social1.png,stimuli/Social2.png,stimuli/Nonsocial2.png,stimuli/Nonsocial1.png,stimuli/Test1.png,stimuli/Test2.png,"(-0.7, 0.5)",test1,"(0.7, -0.5)",test1,0,0,0,0,0,1,1,5,,,,,,49.544585100142285,l,0.48783429991453886,correct,,50,C,2024-01-15_09h52.03.472,gca_discrimination,2022.2.4,143.7688425775255,
positions.xlsx,stimuli.xlsx,test.xlsx,stimuli/Social1.png,stimuli/Social2.png,stimuli/Nonsocial2.png,stimuli/Nonsocial1.png,stimuli/Test1.png,stimuli/Test2.png,"(-0.7, -0.5)",test2,"(0.7, -0.5)",test2,0,0,0,0,0,2,2,9,,,,,,54.07912360015325,l,0.3928799999412149,correct,,50,C,2024-01-15_09h52.03.472,gca_discrimination,2022.2.4,143.7688425775255,
positions.xlsx,stimuli.xlsx,test.xlsx,stimuli/Social1.png,stimuli/Social2.png,stimuli/Nonsocial2.png,stimuli/Nonsocial1.png,stimuli/Test1.png,stimuli/Test2.png,"(-0.7, 0.5)",test2,"(0.7, -0.5)",test1,0,0,0,0,0,3,3,12,,,,,,58.620628100121394,ä,0.3628684999421239,correct,,50,C,2024-01-15_09h52.03.472,gca_discrimination,2022.2.4,143.7688425775255,
positions.xlsx,stimuli.xlsx,test.xlsx,stimuli/Social1.png,stimuli/Social2.png,stimuli/Nonsocial2.png,stimuli/Nonsocial1.png,stimuli/Test1.png,stimuli/Test2.png,"(-0.7, 0.5)",test2,"(0.7, 0.5)",test1,0,0,0,0,0,4,4,3,,,,,,63.24542950000614,ä,0.32291859993711114,correct,,50,C,2024-01-15_09h52.03.472,gca_discrimination,2022.2.4,143.7688425775255,
positions.xlsx,stimuli.xlsx,test.xlsx,stimuli/Social1.png,stimuli/Social2.png,stimuli/Nonsocial2.png,stimuli/Nonsocial1.png,stimuli/Test1.png,stimuli/Test2.png,"(0.7, -0.5)",test2,"(-0.7, 0.5)",test1,0,0,0,0,0,5,5,4,,,,,,67.50218080007471,ä,0.3536082999780774,correct,,50,C,2024-01-15_09h52.03.472,gca_discrimination,2022.2.4,143.7688425775255,
positions.xlsx,stimuli.xlsx,test.xlsx,stimuli/Social1.png,stimuli/Social2.png,stimuli/Nonsocial2.png,stimuli/Nonsocial1.png,stimuli/Test1.png,stimuli/Test2.png,"(0.7, -0.5)",test1,"(0.7, 0.5)",test2,0,0,0,0,0,6,6,0,,,,,,72.37696940009482,ä,0.39084969996474683,correct,,50,C,2024-01-15_09h52.03.472,gca_discrimination,2022.2.4,143.7688425775255,
positions.xlsx,stimuli.xlsx,test.xlsx,stimuli/Social1.png,stimuli/Social2.png,stimuli/Nonsocial2.png,stimuli/Nonsocial1.png,stimuli/Test1.png,stimuli/Test2.png,"(-0.7, -0.5)",test2,"(0.7, 0.5)",test2,0,0,0,0,0,7,7,7,,,,,,76.91154180001467,l,0.5840735000092536,correct,,50,C,2024-01-15_09h52.03.472,gca_discrimination,2022.2.4,143.7688425775255,
positions.xlsx,stimuli.xlsx,test.xlsx,stimuli/Social1.png,stimuli/Social2.png,stimuli/Nonsocial2.png,stimuli/Nonsocial1.png,stimuli/Test1.png,stimuli/Test2.png,"(0.7, -0.5)",test1,"(0.7, 0.5)",test1,0,0,0,0,0,8,8,10,,,,,,81.35580540006049,l,0.4601469000335783,correct,,50,C,2024-01-15_09h52.03.472,gca_discrimination,2022.2.4,143.7688425775255,
positions.xlsx,stimuli.xlsx,test.xlsx,stimuli/Social1.png,stimuli/Social2.png,stimuli/Nonsocial2.png,stimuli/Nonsocial1.png,stimuli/Test1.png,stimuli/Test2.png,"(0.7, 0.5)",test2,"(0.7, -0.5)",test1,0,0,0,0,0,9,9,6,,,,,,86.54311040020548,ä,0.6090828001033515,correct,,50,C,2024-01-15_09h52.03.472,gca_discrimination,2022.2.4,143.7688425775255,
positions.xlsx,stimuli.xlsx,test.xlsx,stimuli/Social1.png,stimuli/Social2.png,stimuli/Nonsocial2.png,stimuli/Nonsocial1.png,stimuli/Test1.png,stimuli/Test2.png,"(0.7, 0.5)",test2,"(-0.7, 0.5)",test1,0,0,0,0,0,10,10,13,,,,,,91.9595702001825,ä,0.44072409998625517,correct,,50,C,2024-01-15_09h52.03.472,gca_discrimination,2022.2.4,143.7688425775255,
positions.xlsx,stimuli.xlsx,test.xlsx,stimuli/Social1.png,stimuli/Social2.png,stimuli/Nonsocial2.png,stimuli/Nonsocial1.png,stimuli/Test1.png,stimuli/Test2.png,"(0.7, 0.5)",test1,"(0.7, -0.5)",test2,0,0,0,0,0,11,11,11,,,,,,96.79273160011508,ä,0.5832573999650776,correct,,50,C,2024-01-15_09h52.03.472,gca_discrimination,2022.2.4,143.7688425775255,
positions.xlsx,stimuli.xlsx,test.xlsx,stimuli/Social1.png,stimuli/Social2.png,stimuli/Nonsocial2.png,stimuli/Nonsocial1.png,stimuli/Test1.png,stimuli/Test2.png,"(-0.7, -0.5)",test1,"(0.7, 0.5)",test2,0,0,0,0,0,12,12,8,,,,,,101.48000380001031,ä,0.48002439993433654,correct,,50,C,2024-01-15_09h52.03.472,gca_discrimination,2022.2.4,143.7688425775255,
positions.xlsx,stimuli.xlsx,test.xlsx,stimuli/Social1.png,stimuli/Social2.png,stimuli/Nonsocial2.png,stimuli/Nonsocial1.png,stimuli/Test1.png,stimuli/Test2.png,"(-0.7, -0.5)",test2,"(-0.7, 0.5)",test2,0,0,0,0,0,13,13,2,,,,,,105.8756624001544,l,0.4527286000084132,correct,,50,C,2024-01-15_09h52.03.472,gca_discrimination,2022.2.4,143.7688425775255,
positions.xlsx,stimuli.xlsx,test.xlsx,stimuli/Social1.png,stimuli/Social2.png,stimuli/Nonsocial2.png,stimuli/Nonsocial1.png,stimuli/Test1.png,stimuli/Test2.png,"(0.7, -0.5)",cs_plus_ns,"(-0.7, 0.5)",cs_plus_ns,0,0,0,0,,,,,0,0,0,81,,119.46536430018023,l,0.4225763001013547,correct,108.86167110013776,50,C,2024-01-15_09h52.03.472,gca_discrimination,2022.2.4,143.7688425775255,
positions.xlsx,stimuli.xlsx,test.xlsx,stimuli/Social1.png,stimuli/Social2.png,stimuli/Nonsocial2.png,stimuli/Nonsocial1.png,stimuli/Test1.png,stimuli/Test2.png,"(0.7, 0.5)",cs_minus_s,"(-0.7, -0.5)",cs_plus_s,0,0,0,0,,,,,0,1,1,19,,121.73613470001146,ä,0.39213769999332726,correct,,50,C,2024-01-15_09h52.03.472,gca_discrimination,2022.2.4,143.7688425775255,
positions.xlsx,stimuli.xlsx,test.xlsx,stimuli/Social1.png,stimuli/Social2.png,stimuli/Nonsocial2.png,stimuli/Nonsocial1.png,stimuli/Test1.png,stimuli/Test2.png,"(-0.7, 0.5)",cs_plus_ns,"(0.7, -0.5)",cs_plus_ns,0,0,0,0,,,,,0,2,2,74,,124.72909330017865,l,0.4004381000995636,correct,,50,C,2024-01-15_09h52.03.472,gca_discrimination,2022.2.4,143.7688425775255,
positions.xlsx,stimuli.xlsx,test.xlsx,stimuli/Social1.png,stimuli/Social2.png,stimuli/Nonsocial2.png,stimuli/Nonsocial1.png,stimuli/Test1.png,stimuli/Test2.png,"(-0.7, -0.5)",cs_minus_s,"(0.7, -0.5)",cs_plus_s,0,0,0,0,,,,,0,3,3,17,,127.79839940019883,ä,0.594091400038451,correct,,50,C,2024-01-15_09h52.03.472,gca_discrimination,2022.2.4,143.7688425775255,
positions.xlsx,stimuli.xlsx,test.xlsx,stimuli/Social1.png,stimuli/Social2.png,stimuli/Nonsocial2.png,stimuli/Nonsocial1.png,stimuli/Test1.png,stimuli/Test2.png,"(-0.7, -0.5)",cs_plus_s,"(-0.7, 0.5)",cs_minus_s,0,0,0,0,,,,,0,4,4,3,,130.520518100122,None,,no answer,,50,C,2024-01-15_09h52.03.472,gca_discrimination,2022.2.4,143.7688425775255,
positions.xlsx,stimuli.xlsx,test.xlsx,stimuli/Social1.png,stimuli/Social2.png,stimuli/Nonsocial2.png,stimuli/Nonsocial1.png,stimuli/Test1.png,stimuli/Test2.png,"(0.7, -0.5)",cs_plus_ns,"(0.7, 0.5)",cs_plus_ns,0,0,0,0,,,,,0,5,5,83,,134.97175740008242,ä,0.47660870011895895,wrong,,50,C,2024-01-15_09h52.03.472,gca_discrimination,2022.2.4,143.7688425775255,
positions.xlsx,stimuli.xlsx,test.xlsx,stimuli/Social1.png,stimuli/Social2.png,stimuli/Nonsocial2.png,stimuli/Nonsocial1.png,stimuli/Test1.png,stimuli/Test2.png,"(-0.7, -0.5)",cs_minus_s,"(0.7, -0.5)",cs_minus_s,0,0,0,0,,,,,0,6,6,65,,138.11055960017256,l,0.37777010002173483,correct,,50,C,2024-01-15_09h52.03.472,gca_discrimination,2022.2.4,143.7688425775255,
positions.xlsx,stimuli.xlsx,test.xlsx,stimuli/Social1.png,stimuli/Social2.png,stimuli/Nonsocial2.png,stimuli/Nonsocial1.png,stimuli/Test1.png,stimuli/Test2.png,"(-0.7, 0.5)",cs_plus_ns,"(-0.7, -0.5)",cs_minus_ns,0,0,0,0,,,,,0,7,7,24,,140.6034324001521,ä,0.6045433001127094,correct,,50,C,2024-01-15_09h52.03.472,gca_discrimination,2022.2.4,143.7688425775255,
positions.xlsx,stimuli.xlsx,test.xlsx,stimuli/Social1.png,stimuli/Social2.png,stimuli/Nonsocial2.png,stimuli/Nonsocial1.png,stimuli/Test1.png,stimuli/Test2.png,"(-0.7, -0.5)",cs_minus_ns,"(-0.7, 0.5)",cs_plus_ns,0,0,0,0,,,,,0,8,8,39,,143.76305350009352,ä,0.46212619985453784,correct,,50,C,2024-01-15_09h52.03.472,gca_discrimination,2022.2.4,143.7688425775255,
positions.xlsx,stimuli.xlsx,test.xlsx,stimuli/Social1.png,stimuli/Social2.png,stimuli/Nonsocial2.png,stimuli/Nonsocial1.png,stimuli/Test1.png,stimuli/Test2.png,"(-0.7, -0.5)",cs_minus_ns,"(0.7, 0.5)",cs_minus_ns,0,0,0,0,,,,,0,9,9,88,,146.3601667000912,l,0.30441069998778403,correct,,50,C,2024-01-15_09h52.03.472,gca_discrimination,2022.2.4,143.7688425775255,
positions.xlsx,stimuli.xlsx,test.xlsx,stimuli/Social1.png,stimuli/Social2.png,stimuli/Nonsocial2.png,stimuli/Nonsocial1.png,stimuli/Test1.png,stimuli/Test2.png,"(0.7, 0.5)",cs_minus_ns,"(0.7, -0.5)",cs_plus_ns,0,0,0,0,,,,,0,10,10,44,,148.83228980004787,ä,0.39142920006997883,correct,,50,C,2024-01-15_09h52.03.472,gca_discrimination,2022.2.4,143.7688425775255,
positions.xlsx,stimuli.xlsx,test.xlsx,stimuli/Social1.png,stimuli/Social2.png,stimuli/Nonsocial2.png,stimuli/Nonsocial1.png,stimuli/Test1.png,stimuli/Test2.png,"(-0.7, 0.5)",cs_plus_s,"(0.7, 0.5)",cs_plus_s,0,0,0,0,,,,,0,11,11,49,,151.12383650010452,l,0.6606476998422295,correct,,50,C,2024-01-15_09h52.03.472,gca_discrimination,2022.2.4,143.7688425775255,
positions.xlsx,stimuli.xlsx,test.xlsx,stimuli/Social1.png,stimuli/Social2.png,stimuli/Nonsocial2.png,stimuli/Nonsocial1.png,stimuli/Test1.png,stimuli/Test2.png,"(0.7, -0.5)",cs_minus_s,"(-0.7, 0.5)",cs_plus_s,0,0,0,0,,,,,0,12,12,21,,154.31819010013714,ä,0.5543090999126434,correct,,50,C,2024-01-15_09h52.03.472,gca_discrimination,2022.2.4,143.7688425775255,
positions.xlsx,stimuli.xlsx,test.xlsx,stimuli/Social1.png,stimuli/Social2.png,stimuli/Nonsocial2.png,stimuli/Nonsocial1.png,stimuli/Test1.png,stimuli/Test2.png,"(0.7, 0.5)",cs_minus_s,"(-0.7, 0.5)",cs_plus_s,0,0,0,0,,,,,0,13,13,18,,156.97781569999643,ä,0.510435399832204,correct,,50,C,2024-01-15_09h52.03.472,gca_discrimination,2022.2.4,143.7688425775255,
positions.xlsx,stimuli.xlsx,test.xlsx,stimuli/Social1.png,stimuli/Social2.png,stimuli/Nonsocial2.png,stimuli/Nonsocial1.png,stimuli/Test1.png,stimuli/Test2.png,"(0.7, -0.5)",cs_plus_ns,"(0.7, 0.5)",cs_minus_ns,0,0,0,0,,,,,0,14,14,35,,159.75547450012527,l,0.36442729993723333,wrong,,50,C,2024-01-15_09h52.03.472,gca_discrimination,2022.2.4,143.7688425775255,
positions.xlsx,stimuli.xlsx,test.xlsx,stimuli/Social1.png,stimuli/Social2.png,stimuli/Nonsocial2.png,stimuli/Nonsocial1.png,stimuli/Test1.png,stimuli/Test2.png,"(-0.7, 0.5)",cs_minus_s,"(0.7, 0.5)",cs_minus_s,0,0,0,0,,,,,0,15,15,61,,162.3317472001072,l,0.48451630002819,correct,,50,C,2024-01-15_09h52.03.472,gca_discrimination,2022.2.4,143.7688425775255,
positions.xlsx,stimuli.xlsx,test.xlsx,stimuli/Social1.png,stimuli/Social2.png,stimuli/Nonsocial2.png,stimuli/Nonsocial1.png,stimuli/Test1.png,stimuli/Test2.png,"(0.7, 0.5)",cs_minus_ns,"(-0.7, -0.5)",cs_plus_ns,0,0,0,0,,,,,0,16,16,43,,164.9497807000298,ä,0.5065329999197274,correct,,50,C,2024-01-15_09h52.03.472,gca_discrimination,2022.2.4,143.7688425775255,
positions.xlsx,stimuli.xlsx,test.xlsx,stimuli/Social1.png,stimuli/Social2.png,stimuli/Nonsocial2.png,stimuli/Nonsocial1.png,stimuli/Test1.png,stimuli/Test2.png,"(0.7, -0.5)",cs_plus_s,"(-0.7, 0.5)",cs_minus_s,0,0,0,0,,,,,0,17,17,9,,167.26907210005447,l,0.3712058002129197,wrong,,50,C,2024-01-15_09h52.03.472,gca_discrimination,2022.2.4,143.7688425775255,
positions.xlsx,stimuli.xlsx,test.xlsx,stimuli/Social1.png,stimuli/Social2.png,stimuli/Nonsocial2.png,stimuli/Nonsocial1.png,stimuli/Test1.png,stimuli/Test2.png,"(0.7, -0.5)",cs_plus_s,"(0.7, 0.5)",cs_minus_s,0,0,0,0,,,,,0,18,18,11,,170.15088680014014,ä,0.6741345999762416,correct,,50,C,2024-01-15_09h52.03.472,gca_discrimination,2022.2.4,143.7688425775255,
positions.xlsx,stimuli.xlsx,test.xlsx,stimuli/Social1.png,stimuli/Social2.png,stimuli/Nonsocial2.png,stimuli/Nonsocial1.png,stimuli/Test1.png,stimuli/Test2.png,"(-0.7, 0.5)",cs_minus_ns,"(-0.7, -0.5)",cs_plus_ns,0,0,0,0,,,,,0,19,19,36,,173.35213270015083,ä,0.4890645002014935,correct,,50,C,2024-01-15_09h52.03.472,gca_discrimination,2022.2.4,143.7688425775255,
positions.xlsx,stimuli.xlsx,test.xlsx,stimuli/Social1.png,stimuli/Social2.png,stimuli/Nonsocial2.png,stimuli/Nonsocial1.png,stimuli/Test1.png,stimuli/Test2.png,"(-0.7, 0.5)",cs_minus_ns,"(0.7, -0.5)",cs_minus_ns,0,0,0,0,,,,,0,20,20,86,,176.581182599999,l,0.3466487000696361,correct,,50,C,2024-01-15_09h52.03.472,gca_discrimination,2022.2.4,143.7688425775255,
positions.xlsx,stimuli.xlsx,test.xlsx,stimuli/Social1.png,stimuli/Social2.png,stimuli/Nonsocial2.png,stimuli/Nonsocial1.png,stimuli/Test1.png,stimuli/Test2.png,"(0.7, 0.5)",cs_minus_s,"(0.7, -0.5)",cs_minus_s,0,0,0,0,,,,,0,21,21,68,,179.55329700000584,l,0.5362595999613404,correct,,50,C,2024-01-15_09h52.03.472,gca_discrimination,2022.2.4,143.7688425775255,
positions.xlsx,stimuli.xlsx,test.xlsx,stimuli/Social1.png,stimuli/Social2.png,stimuli/Nonsocial2.png,stimuli/Nonsocial1.png,stimuli/Test1.png,stimuli/Test2.png,"(-0.7, 0.5)",cs_minus_s,"(0.7, -0.5)",cs_plus_s,0,0,0,0,,,,,0,22,22,14,,182.587910000002,l,0.8841995000839233,wrong,,50,C,2024-01-15_09h52.03.472,gca_discrimination,2022.2.4,143.7688425775255,
positions.xlsx,stimuli.xlsx,test.xlsx,stimuli/Social1.png,stimuli/Social2.png,stimuli/Nonsocial2.png,stimuli/Nonsocial1.png,stimuli/Test1.png,stimuli/Test2.png,"(-0.7, 0.5)",cs_plus_s,"(0.7, -0.5)",cs_plus_s,0,0,0,0,,,,,0,23,23,50,,185.59470960008912,l,0.7099977000616491,correct,,50,C,2024-01-15_09h52.03.472,gca_discrimination,2022.2.4,143.7688425775255,
positions.xlsx,stimuli.xlsx,test.xlsx,stimuli/Social1.png,stimuli/Social2.png,stimuli/Nonsocial2.png,stimuli/Nonsocial1.png,stimuli/Test1.png,stimuli/Test2.png,"(-0.7, 0.5)",cs_plus_ns,"(0.7, 0.5)",cs_plus_ns,0,0,0,0,,,,,0,24,24,73,,188.7681846001651,l,1.3118239000905305,correct,,50,C,2024-01-15_09h52.03.472,gca_discrimination,2022.2.4,143.7688425775255,
positions.xlsx,stimuli.xlsx,test.xlsx,stimuli/Social1.png,stimuli/Social2.png,stimuli/Nonsocial2.png,stimuli/Nonsocial1.png,stimuli/Test1.png,stimuli/Test2.png,"(0.7, 0.5)",cs_minus_ns,"(-0.7, -0.5)",cs_minus_ns,0,0,0,0,,,,,0,25,25,91,,192.17085820017383,l,0.4368424001149833,correct,,50,C,2024-01-15_09h52.03.472,gca_discrimination,2022.2.4,143.7688425775255,
positions.xlsx,stimuli.xlsx,test.xlsx,stimuli/Social1.png,stimuli/Social2.png,stimuli/Nonsocial2.png,stimuli/Nonsocial1.png,stimuli/Test1.png,stimuli/Test2.png,"(-0.7, 0.5)",cs_minus_s,"(-0.7, -0.5)",cs_plus_s,0,0,0,0,,,,,0,26,26,12,,195.39991260017268,ä,0.43190800002776086,correct,,50,C,2024-01-15_09h52.03.472,gca_discrimination,2022.2.4,143.7688425775255,
positions.xlsx,stimuli.xlsx,test.xlsx,stimuli/Social1.png,stimuli/Social2.png,stimuli/Nonsocial2.png,stimuli/Nonsocial1.png,stimuli/Test1.png,stimuli/Test2.png,"(0.7, -0.5)",cs_minus_s,"(-0.7, -0.5)",cs_plus_s,0,0,0,0,,,,,0,27,27,22,,198.04558290005662,ä,0.48321199999190867,correct,,50,C,2024-01-15_09h52.03.472,gca_discrimination,2022.2.4,143.7688425775255,
positions.xlsx,stimuli.xlsx,test.xlsx,stimuli/Social1.png,stimuli/Social2.png,stimuli/Nonsocial2.png,stimuli/Nonsocial1.png,stimuli/Test1.png,stimuli/Test2.png,"(-0.7, -0.5)",cs_minus_s,"(-0.7, 0.5)",cs_plus_s,0,0,0,0,,,,,0,28,28,15,,201.1912842001766,ä,0.4006841001100838,correct,,50,C,2024-01-15_09h52.03.472,gca_discrimination,2022.2.4,143.7688425775255,
positions.xlsx,stimuli.xlsx,test.xlsx,stimuli/Social1.png,stimuli/Social2.png,stimuli/Nonsocial2.png,stimuli/Nonsocial1.png,stimuli/Test1.png,stimuli/Test2.png,"(-0.7, -0.5)",cs_minus_s,"(0.7, 0.5)",cs_plus_s,0,0,0,0,,,,,0,29,29,16,,203.93428230006248,ä,0.5619294999632984,correct,,50,C,2024-01-15_09h52.03.472,gca_discrimination,2022.2.4,143.7688425775255,
positions.xlsx,stimuli.xlsx,test.xlsx,stimuli/Social1.png,stimuli/Social2.png,stimuli/Nonsocial2.png,stimuli/Nonsocial1.png,stimuli/Test1.png,stimuli/Test2.png,"(-0.7, -0.5)",cs_minus_ns,"(0.7, -0.5)",cs_minus_ns,0,0,0,0,,,,,0,30,30,89,,206.98971610004082,l,0.5155716000590473,correct,,50,C,2024-01-15_09h52.03.472,gca_discrimination,2022.2.4,143.7688425775255,
positions.xlsx,stimuli.xlsx,test.xlsx,stimuli/Social1.png,stimuli/Social2.png,stimuli/Nonsocial2.png,stimuli/Nonsocial1.png,stimuli/Test1.png,stimuli/Test2.png,"(-0.7, 0.5)",cs_plus_s,"(-0.7, -0.5)",cs_plus_s,0,0,0,0,,,,,0,31,31,48,,210.0451478001196,l,0.44282349990680814,correct,,50,C,2024-01-15_09h52.03.472,gca_discrimination,2022.2.4,143.7688425775255,
positions.xlsx,stimuli.xlsx,test.xlsx,stimuli/Social1.png,stimuli/Social2.png,stimuli/Nonsocial2.png,stimuli/Nonsocial1.png,stimuli/Test1.png,stimuli/Test2.png,"(-0.7, -0.5)",cs_minus_ns,"(0.7, -0.5)",cs_plus_ns,0,0,0,0,,,,,0,32,32,41,,212.85058540012687,ä,0.35732159996405244,correct,,50,C,2024-01-15_09h52.03.472,gca_discrimination,2022.2.4,143.7688425775255,
positions.xlsx,stimuli.xlsx,test.xlsx,stimuli/Social1.png,stimuli/Social2.png,stimuli/Nonsocial2.png,stimuli/Nonsocial1.png,stimuli/Test1.png,stimuli/Test2.png,"(0.7, 0.5)",cs_plus_ns,"(-0.7, 0.5)",cs_plus_ns,0,0,0,0,,,,,0,33,33,78,,215.53105009999126,l,1.2691864999942482,correct,,50,C,2024-01-15_09h52.03.472,gca_discrimination,2022.2.4,143.7688425775255,
positions.xlsx,stimuli.xlsx,test.xlsx,stimuli/Social1.png,stimuli/Social2.png,stimuli/Nonsocial2.png,stimuli/Nonsocial1.png,stimuli/Test1.png,stimuli/Test2.png,"(-0.7, -0.5)",cs_minus_ns,"(0.7, 0.5)",cs_plus_ns,0,0,0,0,,,,,0,34,34,40,,218.99617960001342,ä,0.46782030002214015,correct,,50,C,2024-01-15_09h52.03.472,gca_discrimination,2022.2.4,143.7688425775255,
positions.xlsx,stimuli.xlsx,test.xlsx,stimuli/Social1.png,stimuli/Social2.png,stimuli/Nonsocial2.png,stimuli/Nonsocial1.png,stimuli/Test1.png,stimuli/Test2.png,"(0.7, -0.5)",cs_minus_ns,"(-0.7, -0.5)",cs_minus_ns,0,0,0,0,,,,,0,35,35,94,,221.63497180002742,l,0.4704097998328507,correct,,50,C,2024-01-15_09h52.03.472,gca_discrimination,2022.2.4,143.7688425775255,
positions.xlsx,stimuli.xlsx,test.xlsx,stimuli/Social1.png,stimuli/Social2.png,stimuli/Nonsocial2.png,stimuli/Nonsocial1.png,stimuli/Test1.png,stimuli/Test2.png,"(0.7, -0.5)",cs_minus_ns,"(0.7, 0.5)",cs_minus_ns,0,0,0,0,,,,,0,36,36,95,,224.67652159999125,l,0.37139620003290474,correct,,50,C,2024-01-15_09h52.03.472,gca_discrimination,2022.2.4,143.7688425775255,
positions.xlsx,stimuli.xlsx,test.xlsx,stimuli/Social1.png,stimuli/Social2.png,stimuli/Nonsocial2.png,stimuli/Nonsocial1.png,stimuli/Test1.png,stimuli/Test2.png,"(0.7, 0.5)",cs_plus_s,"(0.7, -0.5)",cs_plus_s,0,0,0,0,,,,,0,37,37,56,,227.41946960007772,l,0.508164299884811,correct,,50,C,2024-01-15_09h52.03.472,gca_discrimination,2022.2.4,143.7688425775255,
positions.xlsx,stimuli.xlsx,test.xlsx,stimuli/Social1.png,stimuli/Social2.png,stimuli/Nonsocial2.png,stimuli/Nonsocial1.png,stimuli/Test1.png,stimuli/Test2.png,"(0.7, 0.5)",cs_minus_ns,"(0.7, -0.5)",cs_minus_ns,0,0,0,0,,,,,0,38,38,92,,230.28741630003788,l,0.41655030008405447,correct,,50,C,2024-01-15_09h52.03.472,gca_discrimination,2022.2.4,143.7688425775255,
positions.xlsx,stimuli.xlsx,test.xlsx,stimuli/Social1.png,stimuli/Social2.png,stimuli/Nonsocial2.png,stimuli/Nonsocial1.png,stimuli/Test1.png,stimuli/Test2.png,"(0.7, -0.5)",cs_minus_s,"(0.7, 0.5)",cs_plus_s,0,0,0,0,,,,,0,39,39,23,,233.3705836001318,ä,0.43005450000055134,correct,,50,C,2024-01-15_09h52.03.472,gca_discrimination,2022.2.4,143.7688425775255,
positions.xlsx,stimuli.xlsx,test.xlsx,stimuli/Social1.png,stimuli/Social2.png,stimuli/Nonsocial2.png,stimuli/Nonsocial1.png,stimuli/Test1.png,stimuli/Test2.png,"(0.7, 0.5)",cs_plus_ns,"(-0.7, -0.5)",cs_minus_ns,0,0,0,0,,,,,0,40,40,31,,235.62745960010216,ä,0.4940456999465823,correct,,50,C,2024-01-15_09h52.03.472,gca_discrimination,2022.2.4,143.7688425775255,
positions.xlsx,stimuli.xlsx,test.xlsx,stimuli/Social1.png,stimuli/Social2.png,stimuli/Nonsocial2.png,stimuli/Nonsocial1.png,stimuli/Test1.png,stimuli/Test2.png,"(-0.7, -0.5)",cs_plus_ns,"(-0.7, 0.5)",cs_plus_ns,0,0,0,0,,,,,0,41,41,75,,238.59958160016686,l,0.48803220014087856,correct,,50,C,2024-01-15_09h52.03.472,gca_discrimination,2022.2.4,143.7688425775255,
positions.xlsx,stimuli.xlsx,test.xlsx,stimuli/Social1.png,stimuli/Social2.png,stimuli/Nonsocial2.png,stimuli/Nonsocial1.png,stimuli/Test1.png,stimuli/Test2.png,"(0.7, 0.5)",cs_plus_s,"(-0.7, -0.5)",cs_minus_s,0,0,0,0,,,,,0,42,42,7,,241.21055960003287,ä,0.7098548000212759,correct,,50,C,2024-01-15_09h52.03.472,gca_discrimination,2022.2.4,143.7688425775255,
positions.xlsx,stimuli.xlsx,test.xlsx,stimuli/Social1.png,stimuli/Social2.png,stimuli/Nonsocial2.png,stimuli/Nonsocial1.png,stimuli/Test1.png,stimuli/Test2.png,"(0.7, -0.5)",cs_plus_s,"(-0.7, -0.5)",cs_plus_s,0,0,0,0,,,,,0,43,43,58,,244.45351640018634,l,0.4582443998660892,correct,,50,C,2024-01-15_09h52.03.472,gca_discrimination,2022.2.4,143.7688425775255,
positions.xlsx,stimuli.xlsx,test.xlsx,stimuli/Social1.png,stimuli/Social2.png,stimuli/Nonsocial2.png,stimuli/Nonsocial1.png,stimuli/Test1.png,stimuli/Test2.png,"(0.7, -0.5)",cs_minus_ns,"(-0.7, -0.5)",cs_plus_ns,0,0,0,0,,,,,0,44,44,46,,247.08536790008657,ä,0.5147764999419451,correct,,50,C,2024-01-15_09h52.03.472,gca_discrimination,2022.2.4,143.7688425775255,
positions.xlsx,stimuli.xlsx,test.xlsx,stimuli/Social1.png,stimuli/Social2.png,stimuli/Nonsocial2.png,stimuli/Nonsocial1.png,stimuli/Test1.png,stimuli/Test2.png,"(-0.7, -0.5)",cs_plus_s,"(0.7, 0.5)",cs_plus_s,0,0,0,0,,,,,0,45,45,52,,250.41852340009063,l,0.4853360999841243,correct,,50,C,2024-01-15_09h52.03.472,gca_discrimination,2022.2.4,143.7688425775255,
positions.xlsx,stimuli.xlsx,test.xlsx,stimuli/Social1.png,stimuli/Social2.png,stimuli/Nonsocial2.png,stimuli/Nonsocial1.png,stimuli/Test1.png,stimuli/Test2.png,"(-0.7, 0.5)",cs_plus_ns,"(0.7, -0.5)",cs_minus_ns,0,0,0,0,,,,,0,46,46,26,,253.5920150000602,ä,0.9440929999109358,correct,,50,C,2024-01-15_09h52.03.472,gca_discrimination,2022.2.4,143.7688425775255,
positions.xlsx,stimuli.xlsx,test.xlsx,stimuli/Social1.png,stimuli/Social2.png,stimuli/Nonsocial2.png,stimuli/Nonsocial1.png,stimuli/Test1.png,stimuli/Test2.png,"(-0.7, 0.5)",cs_minus_s,"(0.7, -0.5)",cs_minus_s,0,0,0,0,,,,,0,47,47,62,,257.0502390000038,l,0.9100784999318421,correct,,50,C,2024-01-15_09h52.03.472,gca_discrimination,2022.2.4,143.7688425775255,
positions.xlsx,stimuli.xlsx,test.xlsx,stimuli/Social1.png,stimuli/Social2.png,stimuli/Nonsocial2.png,stimuli/Nonsocial1.png,stimuli/Test1.png,stimuli/Test2.png,"(0.7, 0.5)",cs_minus_ns,"(-0.7, 0.5)",cs_plus_ns,0,0,0,0,,,,,0,48,48,42,,259.82797139999457,ä,0.5884307001251727,correct,,50,C,2024-01-15_09h52.03.472,gca_discrimination,2022.2.4,143.7688425775255,
positions.xlsx,stimuli.xlsx,test.xlsx,stimuli/Social1.png,stimuli/Social2.png,stimuli/Nonsocial2.png,stimuli/Nonsocial1.png,stimuli/Test1.png,stimuli/Test2.png,"(-0.7, -0.5)",cs_plus_ns,"(0.7, 0.5)",cs_minus_ns,0,0,0,0,,,,,0,49,49,28,,262.6472362000495,ä,0.7445201999507844,correct,,50,C,2024-01-15_09h52.03.472,gca_discrimination,2022.2.4,143.7688425775255,
positions.xlsx,stimuli.xlsx,test.xlsx,stimuli/Social1.png,stimuli/Social2.png,stimuli/Nonsocial2.png,stimuli/Nonsocial1.png,stimuli/Test1.png,stimuli/Test2.png,"(-0.7, -0.5)",cs_plus_ns,"(0.7, 0.5)",cs_plus_ns,0,0,0,0,,,,,0,50,50,76,,266.05685860011727,l,0.6959398998878896,correct,,50,C,2024-01-15_09h52.03.472,gca_discrimination,2022.2.4,143.7688425775255,
positions.xlsx,stimuli.xlsx,test.xlsx,stimuli/Social1.png,stimuli/Social2.png,stimuli/Nonsocial2.png,stimuli/Nonsocial1.png,stimuli/Test1.png,stimuli/Test2.png,"(0.7, -0.5)",cs_plus_s,"(-0.7, 0.5)",cs_plus_s,0,0,0,0,,,,,0,51,51,57,,269.1886426000856,l,0.7318561999127269,correct,,50,C,2024-01-15_09h52.03.472,gca_discrimination,2022.2.4,143.7688425775255,
positions.xlsx,stimuli.xlsx,test.xlsx,stimuli/Social1.png,stimuli/Social2.png,stimuli/Nonsocial2.png,stimuli/Nonsocial1.png,stimuli/Test1.png,stimuli/Test2.png,"(0.7, -0.5)",cs_minus_ns,"(-0.7, 0.5)",cs_plus_ns,0,0,0,0,,,,,0,52,52,45,,272.63295620004646,ä,0.6555860999505967,correct,,50,C,2024-01-15_09h52.03.472,gca_discrimination,2022.2.4,143.7688425775255,
positions.xlsx,stimuli.xlsx,test.xlsx,stimuli/Social1.png,stimuli/Social2.png,stimuli/Nonsocial2.png,stimuli/Nonsocial1.png,stimuli/Test1.png,stimuli/Test2.png,"(-0.7, 0.5)",cs_plus_s,"(-0.7, -0.5)",cs_minus_s,0,0,0,0,,,,,0,53,53,0,,275.5425514001399,ä,1.06518719997257,correct,,50,C,2024-01-15_09h52.03.472,gca_discrimination,2022.2.4,143.7688425775255,
positions.xlsx,stimuli.xlsx,test.xlsx,stimuli/Social1.png,stimuli/Social2.png,stimuli/Nonsocial2.png,stimuli/Nonsocial1.png,stimuli/Test1.png,stimuli/Test2.png,"(0.7, 0.5)",cs_minus_s,"(-0.7, 0.5)",cs_minus_s,0,0,0,0,,,,,0,54,54,66,,278.9035438001156,l,0.2488957999739796,correct,,50,C,2024-01-15_09h52.03.472,gca_discrimination,2022.2.4,143.7688425775255,
positions.xlsx,stimuli.xlsx,test.xlsx,stimuli/Social1.png,stimuli/Social2.png,stimuli/Nonsocial2.png,stimuli/Nonsocial1.png,stimuli/Test1.png,stimuli/Test2.png,"(0.7, 0.5)",cs_plus_s,"(-0.7, 0.5)",cs_plus_s,0,0,0,0,,,,,0,55,55,54,,281.8200703000184,l,0.3321888002101332,correct,,50,C,2024-01-15_09h52.03.472,gca_discrimination,2022.2.4,143.7688425775255,
positions.xlsx,stimuli.xlsx,test.xlsx,stimuli/Social1.png,stimuli/Social2.png,stimuli/Nonsocial2.png,stimuli/Nonsocial1.png,stimuli/Test1.png,stimuli/Test2.png,"(0.7, -0.5)",cs_minus_ns,"(0.7, 0.5)",cs_plus_ns,0,0,0,0,,,,,0,56,56,47,,284.19499340001494,ä,0.3736339998431504,correct,,50,C,2024-01-15_09h52.03.472,gca_discrimination,2022.2.4,143.7688425775255,
positions.xlsx,stimuli.xlsx,test.xlsx,stimuli/Social1.png,stimuli/Social2.png,stimuli/Nonsocial2.png,stimuli/Nonsocial1.png,stimuli/Test1.png,stimuli/Test2.png,"(-0.7, -0.5)",cs_plus_ns,"(0.7, -0.5)",cs_plus_ns,0,0,0,0,,,,,0,57,57,77,,286.4726796001196,l,0.7357219001278281,correct,,50,C,2024-01-15_09h52.03.472,gca_discrimination,2022.2.4,143.7688425775255,
positions.xlsx,stimuli.xlsx,test.xlsx,stimuli/Social1.png,stimuli/Social2.png,stimuli/Nonsocial2.png,stimuli/Nonsocial1.png,stimuli/Test1.png,stimuli/Test2.png,"(0.7, 0.5)",cs_plus_ns,"(-0.7, -0.5)",cs_plus_ns,0,0,0,0,,,,,0,58,58,79,,289.69478330016136,l,0.24887969996780157,correct,,50,C,2024-01-15_09h52.03.472,gca_discrimination,2022.2.4,143.7688425775255,
positions.xlsx,stimuli.xlsx,test.xlsx,stimuli/Social1.png,stimuli/Social2.png,stimuli/Nonsocial2.png,stimuli/Nonsocial1.png,stimuli/Test1.png,stimuli/Test2.png,"(0.7, -0.5)",cs_plus_ns,"(-0.7, -0.5)",cs_minus_ns,0,0,0,0,,,,,0,59,59,34,,292.4308278001845,ä,0.5614206998143345,correct,,50,C,2024-01-15_09h52.03.472,gca_discrimination,2022.2.4,143.7688425775255,
positions.xlsx,stimuli.xlsx,test.xlsx,stimuli/Social1.png,stimuli/Social2.png,stimuli/Nonsocial2.png,stimuli/Nonsocial1.png,stimuli/Test1.png,stimuli/Test2.png,"(0.7, -0.5)",cs_plus_ns,"(-0.7, 0.5)",cs_minus_ns,0,0,0,0,,,,,0,60,60,33,,295.7640111001674,ä,0.8441210000310093,correct,,50,C,2024-01-15_09h52.03.472,gca_discrimination,2022.2.4,143.7688425775255,
positions.xlsx,stimuli.xlsx,test.xlsx,stimuli/Social1.png,stimuli/Social2.png,stimuli/Nonsocial2.png,stimuli/Nonsocial1.png,stimuli/Test1.png,stimuli/Test2.png,"(0.7, -0.5)",cs_plus_ns,"(-0.7, -0.5)",cs_plus_ns,0,0,0,0,,,,,0,61,61,82,,299.40275920019485,ä,0.7656299001537263,wrong,,50,C,2024-01-15_09h52.03.472,gca_discrimination,2022.2.4,143.7688425775255,
positions.xlsx,stimuli.xlsx,test.xlsx,stimuli/Social1.png,stimuli/Social2.png,stimuli/Nonsocial2.png,stimuli/Nonsocial1.png,stimuli/Test1.png,stimuli/Test2.png,"(-0.7, 0.5)",cs_plus_ns,"(-0.7, -0.5)",cs_plus_ns,0,0,0,0,,,,,0,62,62,72,,302.49981750012375,ä,1.0520561998710036,wrong,,50,C,2024-01-15_09h52.03.472,gca_discrimination,2022.2.4,143.7688425775255,
positions.xlsx,stimuli.xlsx,test.xlsx,stimuli/Social1.png,stimuli/Social2.png,stimuli/Nonsocial2.png,stimuli/Nonsocial1.png,stimuli/Test1.png,stimuli/Test2.png,"(0.7, 0.5)",cs_plus_s,"(-0.7, 0.5)",cs_minus_s,0,0,0,0,,,,,0,63,63,6,,306.08297630003653,l,0.4613214998971671,wrong,,50,C,2024-01-15_09h52.03.472,gca_discrimination,2022.2.4,143.7688425775255,
positions.xlsx,stimuli.xlsx,test.xlsx,stimuli/Social1.png,stimuli/Social2.png,stimuli/Nonsocial2.png,stimuli/Nonsocial1.png,stimuli/Test1.png,stimuli/Test2.png,"(0.7, 0.5)",cs_minus_s,"(0.7, -0.5)",cs_plus_s,0,0,0,0,,,,,0,64,64,20,,309.0620525002014,ä,0.6912306000012904,correct,,50,C,2024-01-15_09h52.03.472,gca_discrimination,2022.2.4,143.7688425775255,
positions.xlsx,stimuli.xlsx,test.xlsx,stimuli/Social1.png,stimuli/Social2.png,stimuli/Nonsocial2.png,stimuli/Nonsocial1.png,stimuli/Test1.png,stimuli/Test2.png,"(0.7, 0.5)",cs_plus_s,"(0.7, -0.5)",cs_minus_s,0,0,0,0,,,,,0,65,65,8,,312.31892220000736,l,0.3767578999977559,wrong,,50,C,2024-01-15_09h52.03.472,gca_discrimination,2022.2.4,143.7688425775255,
positions.xlsx,stimuli.xlsx,test.xlsx,stimuli/Social1.png,stimuli/Social2.png,stimuli/Nonsocial2.png,stimuli/Nonsocial1.png,stimuli/Test1.png,stimuli/Test2.png,"(0.7, -0.5)",cs_plus_s,"(0.7, 0.5)",cs_plus_s,0,0,0,0,,,,,0,66,66,59,,314.8049027000088,l,0.6277943998575211,correct,,50,C,2024-01-15_09h52.03.472,gca_discrimination,2022.2.4,143.7688425775255,
positions.xlsx,stimuli.xlsx,test.xlsx,stimuli/Social1.png,stimuli/Social2.png,stimuli/Nonsocial2.png,stimuli/Nonsocial1.png,stimuli/Test1.png,stimuli/Test2.png,"(-0.7, 0.5)",cs_minus_ns,"(-0.7, -0.5)",cs_minus_ns,0,0,0,0,,,,,0,67,67,84,,317.51314320019446,l,0.39196470007300377,correct,,50,C,2024-01-15_09h52.03.472,gca_discrimination,2022.2.4,143.7688425775255,
positions.xlsx,stimuli.xlsx,test.xlsx,stimuli/Social1.png,stimuli/Social2.png,stimuli/Nonsocial2.png,stimuli/Nonsocial1.png,stimuli/Test1.png,stimuli/Test2.png,"(0.7, 0.5)",cs_plus_s,"(-0.7, -0.5)",cs_plus_s,0,0,0,0,,,,,0,68,68,55,,319.90885810018517,ä,1.1483251000754535,wrong,,50,C,2024-01-15_09h52.03.472,gca_discrimination,2022.2.4,143.7688425775255,
positions.xlsx,stimuli.xlsx,test.xlsx,stimuli/Social1.png,stimuli/Social2.png,stimuli/Nonsocial2.png,stimuli/Nonsocial1.png,stimuli/Test1.png,stimuli/Test2.png,"(-0.7, -0.5)",cs_plus_ns,"(-0.7, 0.5)",cs_minus_ns,0,0,0,0,,,,,0,69,69,27,,323.6031481001992,ä,0.5405710998456925,correct,,50,C,2024-01-15_09h52.03.472,gca_discrimination,2022.2.4,143.7688425775255,
positions.xlsx,stimuli.xlsx,test.xlsx,stimuli/Social1.png,stimuli/Social2.png,stimuli/Nonsocial2.png,stimuli/Nonsocial1.png,stimuli/Test1.png,stimuli/Test2.png,"(-0.7, -0.5)",cs_plus_s,"(0.7, -0.5)",cs_plus_s,0,0,0,0,,,,,0,70,70,53,,326.3183309000451,l,0.48969130008481443,correct,,50,C,2024-01-15_09h52.03.472,gca_discrimination,2022.2.4,143.7688425775255,
positions.xlsx,stimuli.xlsx,test.xlsx,stimuli/Social1.png,stimuli/Social2.png,stimuli/Nonsocial2.png,stimuli/Nonsocial1.png,stimuli/Test1.png,stimuli/Test2.png,"(0.7, -0.5)",cs_plus_s,"(-0.7, -0.5)",cs_minus_s,0,0,0,0,,,,,0,71,71,10,,329.4778935001232,l,0.49898759997449815,wrong,,50,C,2024-01-15_09h52.03.472,gca_discrimination,2022.2.4,143.7688425775255,
positions.xlsx,stimuli.xlsx,test.xlsx,stimuli/Social1.png,stimuli/Social2.png,stimuli/Nonsocial2.png,stimuli/Nonsocial1.png,stimuli/Test1.png,stimuli/Test2.png,"(0.7, -0.5)",cs_minus_s,"(0.7, 0.5)",cs_minus_s,0,0,0,0,,,,,0,72,72,71,,332.78333270014264,l,0.520449899835512,correct,,50,C,2024-01-15_09h52.03.472,gca_discrimination,2022.2.4,143.7688425775255,
positions.xlsx,stimuli.xlsx,test.xlsx,stimuli/Social1.png,stimuli/Social2.png,stimuli/Nonsocial2.png,stimuli/Nonsocial1.png,stimuli/Test1.png,stimuli/Test2.png,"(-0.7, 0.5)",cs_minus_s,"(0.7, 0.5)",cs_plus_s,0,0,0,0,,,,,0,73,73,13,,335.2624166000169,ä,0.44196099997498095,correct,,50,C,2024-01-15_09h52.03.472,gca_discrimination,2022.2.4,143.7688425775255,
positions.xlsx,stimuli.xlsx,test.xlsx,stimuli/Social1.png,stimuli/Social2.png,stimuli/Nonsocial2.png,stimuli/Nonsocial1.png,stimuli/Test1.png,stimuli/Test2.png,"(-0.7, 0.5)",cs_minus_ns,"(0.7, 0.5)",cs_plus_ns,0,0,0,0,,,,,0,74,74,37,,337.6928588000592,ä,0.4600581000559032,correct,,50,C,2024-01-15_09h52.03.472,gca_discrimination,2022.2.4,143.7688425775255,
positions.xlsx,stimuli.xlsx,test.xlsx,stimuli/Social1.png,stimuli/Social2.png,stimuli/Nonsocial2.png,stimuli/Nonsocial1.png,stimuli/Test1.png,stimuli/Test2.png,"(0.7, 0.5)",cs_plus_ns,"(0.7, -0.5)",cs_plus_ns,0,0,0,0,,,,,0,75,75,80,,339.9983586000744,l,0.6025400999933481,correct,,50,C,2024-01-15_09h52.03.472,gca_discrimination,2022.2.4,143.7688425775255,
positions.xlsx,stimuli.xlsx,test.xlsx,stimuli/Social1.png,stimuli/Social2.png,stimuli/Nonsocial2.png,stimuli/Nonsocial1.png,stimuli/Test1.png,stimuli/Test2.png,"(0.7, 0.5)",cs_minus_s,"(-0.7, -0.5)",cs_minus_s,0,0,0,0,,,,,0,76,76,67,,342.9565275001805,l,0.3803498998750001,correct,,50,C,2024-01-15_09h52.03.472,gca_discrimination,2022.2.4,143.7688425775255,
positions.xlsx,stimuli.xlsx,test.xlsx,stimuli/Social1.png,stimuli/Social2.png,stimuli/Nonsocial2.png,stimuli/Nonsocial1.png,stimuli/Test1.png,stimuli/Test2.png,"(-0.7, 0.5)",cs_minus_s,"(-0.7, -0.5)",cs_minus_s,0,0,0,0,,,,,0,77,77,60,,345.6856083001476,l,0.47554969997145236,correct,,50,C,2024-01-15_09h52.03.472,gca_discrimination,2022.2.4,143.7688425775255,
positions.xlsx,stimuli.xlsx,test.xlsx,stimuli/Social1.png,stimuli/Social2.png,stimuli/Nonsocial2.png,stimuli/Nonsocial1.png,stimuli/Test1.png,stimuli/Test2.png,"(-0.7, -0.5)",cs_minus_ns,"(-0.7, 0.5)",cs_minus_ns,0,0,0,0,,,,,0,78,78,87,,348.8174314000644,l,0.23126969998702407,correct,,50,C,2024-01-15_09h52.03.472,gca_discrimination,2022.2.4,143.7688425775255,
positions.xlsx,stimuli.xlsx,test.xlsx,stimuli/Social1.png,stimuli/Social2.png,stimuli/Nonsocial2.png,stimuli/Nonsocial1.png,stimuli/Test1.png,stimuli/Test2.png,"(-0.7, -0.5)",cs_plus_s,"(-0.7, 0.5)",cs_plus_s,0,0,0,0,,,,,0,79,79,51,,350.95624070009217,l,0.5242532000411302,correct,,50,C,2024-01-15_09h52.03.472,gca_discrimination,2022.2.4,143.7688425775255,
positions.xlsx,stimuli.xlsx,test.xlsx,stimuli/Social1.png,stimuli/Social2.png,stimuli/Nonsocial2.png,stimuli/Nonsocial1.png,stimuli/Test1.png,stimuli/Test2.png,"(-0.7, 0.5)",cs_minus_ns,"(0.7, 0.5)",cs_minus_ns,0,0,0,0,,,,,0,80,80,85,,354.0394485001452,l,0.44841620000079274,correct,,50,C,2024-01-15_09h52.03.472,gca_discrimination,2022.2.4,143.7688425775255,
positions.xlsx,stimuli.xlsx,test.xlsx,stimuli/Social1.png,stimuli/Social2.png,stimuli/Nonsocial2.png,stimuli/Nonsocial1.png,stimuli/Test1.png,stimuli/Test2.png,"(-0.7, -0.5)",cs_minus_s,"(0.7, 0.5)",cs_minus_s,0,0,0,0,,,,,0,81,81,64,,357.13655180018395,l,0.3278977000154555,correct,,50,C,2024-01-15_09h52.03.472,gca_discrimination,2022.2.4,143.7688425775255,
positions.xlsx,stimuli.xlsx,test.xlsx,stimuli/Social1.png,stimuli/Social2.png,stimuli/Nonsocial2.png,stimuli/Nonsocial1.png,stimuli/Test1.png,stimuli/Test2.png,"(-0.7, 0.5)",cs_plus_s,"(0.7, -0.5)",cs_minus_s,0,0,0,0,,,,,0,82,82,2,,359.4558701000642,ä,0.5538179001305252,correct,,50,C,2024-01-15_09h52.03.472,gca_discrimination,2022.2.4,143.7688425775255,
positions.xlsx,stimuli.xlsx,test.xlsx,stimuli/Social1.png,stimuli/Social2.png,stimuli/Nonsocial2.png,stimuli/Nonsocial1.png,stimuli/Test1.png,stimuli/Test2.png,"(-0.7, -0.5)",cs_plus_s,"(0.7, 0.5)",cs_minus_s,0,0,0,0,,,,,0,83,83,4,,362.64327900018543,ä,0.48518559988588095,correct,,50,C,2024-01-15_09h52.03.472,gca_discrimination,2022.2.4,143.7688425775255,
positions.xlsx,stimuli.xlsx,test.xlsx,stimuli/Social1.png,stimuli/Social2.png,stimuli/Nonsocial2.png,stimuli/Nonsocial1.png,stimuli/Test1.png,stimuli/Test2.png,"(-0.7, -0.5)",cs_plus_s,"(0.7, -0.5)",cs_minus_s,0,0,0,0,,,,,0,84,84,5,,365.42094630002975,ä,0.4125737000722438,correct,,50,C,2024-01-15_09h52.03.472,gca_discrimination,2022.2.4,143.7688425775255,
positions.xlsx,stimuli.xlsx,test.xlsx,stimuli/Social1.png,stimuli/Social2.png,stimuli/Nonsocial2.png,stimuli/Nonsocial1.png,stimuli/Test1.png,stimuli/Test2.png,"(-0.7, 0.5)",cs_minus_ns,"(0.7, -0.5)",cs_plus_ns,0,0,0,0,,,,,0,85,85,38,,367.92780830012634,ä,0.49616819992661476,correct,,50,C,2024-01-15_09h52.03.472,gca_discrimination,2022.2.4,143.7688425775255,
positions.xlsx,stimuli.xlsx,test.xlsx,stimuli/Social1.png,stimuli/Social2.png,stimuli/Nonsocial2.png,stimuli/Nonsocial1.png,stimuli/Test1.png,stimuli/Test2.png,"(0.7, -0.5)",cs_minus_s,"(-0.7, -0.5)",cs_minus_s,0,0,0,0,,,,,0,86,86,70,,370.9485080000013,l,0.5404414001386613,correct,,50,C,2024-01-15_09h52.03.472,gca_discrimination,2022.2.4,143.7688425775255,
positions.xlsx,stimuli.xlsx,test.xlsx,stimuli/Social1.png,stimuli/Social2.png,stimuli/Nonsocial2.png,stimuli/Nonsocial1.png,stimuli/Test1.png,stimuli/Test2.png,"(0.7, -0.5)",cs_minus_ns,"(-0.7, 0.5)",cs_minus_ns,0,0,0,0,,,,,0,87,87,93,,374.2955698000733,l,0.3927032998763025,correct,,50,C,2024-01-15_09h52.03.472,gca_discrimination,2022.2.4,143.7688425775255,
positions.xlsx,stimuli.xlsx,test.xlsx,stimuli/Social1.png,stimuli/Social2.png,stimuli/Nonsocial2.png,stimuli/Nonsocial1.png,stimuli/Test1.png,stimuli/Test2.png,"(0.7, 0.5)",cs_plus_ns,"(0.7, -0.5)",cs_minus_ns,0,0,0,0,,,,,0,88,88,32,,377.00387350004166,ä,0.5884626000188291,correct,,50,C,2024-01-15_09h52.03.472,gca_discrimination,2022.2.4,143.7688425775255,
positions.xlsx,stimuli.xlsx,test.xlsx,stimuli/Social1.png,stimuli/Social2.png,stimuli/Nonsocial2.png,stimuli/Nonsocial1.png,stimuli/Test1.png,stimuli/Test2.png,"(-0.7, -0.5)",cs_plus_ns,"(0.7, -0.5)",cs_minus_ns,0,0,0,0,,,,,0,89,89,29,,380.05231230007485,ä,0.42020029993727803,correct,,50,C,2024-01-15_09h52.03.472,gca_discrimination,2022.2.4,143.7688425775255,
positions.xlsx,stimuli.xlsx,test.xlsx,stimuli/Social1.png,stimuli/Social2.png,stimuli/Nonsocial2.png,stimuli/Nonsocial1.png,stimuli/Test1.png,stimuli/Test2.png,"(0.7, 0.5)",cs_plus_ns,"(-0.7, 0.5)",cs_minus_ns,0,0,0,0,,,,,0,90,90,30,,382.43416439997964,ä,0.5258182999677956,correct,,50,C,2024-01-15_09h52.03.472,gca_discrimination,2022.2.4,143.7688425775255,
positions.xlsx,stimuli.xlsx,test.xlsx,stimuli/Social1.png,stimuli/Social2.png,stimuli/Nonsocial2.png,stimuli/Nonsocial1.png,stimuli/Test1.png,stimuli/Test2.png,"(-0.7, -0.5)",cs_minus_s,"(-0.7, 0.5)",cs_minus_s,0,0,0,0,,,,,0,91,91,63,,385.343752700137,l,0.5125577000435442,correct,,50,C,2024-01-15_09h52.03.472,gca_discrimination,2022.2.4,143.7688425775255,
positions.xlsx,stimuli.xlsx,test.xlsx,stimuli/Social1.png,stimuli/Social2.png,stimuli/Nonsocial2.png,stimuli/Nonsocial1.png,stimuli/Test1.png,stimuli/Test2.png,"(0.7, 0.5)",cs_minus_ns,"(-0.7, 0.5)",cs_minus_ns,0,0,0,0,,,,,0,92,92,90,,387.9408728000708,l,0.47634240007027984,correct,,50,C,2024-01-15_09h52.03.472,gca_discrimination,2022.2.4,143.7688425775255,
positions.xlsx,stimuli.xlsx,test.xlsx,stimuli/Social1.png,stimuli/Social2.png,stimuli/Nonsocial2.png,stimuli/Nonsocial1.png,stimuli/Test1.png,stimuli/Test2.png,"(-0.7, 0.5)",cs_plus_s,"(0.7, 0.5)",cs_minus_s,0,0,0,0,,,,,0,93,93,1,,390.246328700101,ä,0.7616580999456346,correct,,50,C,2024-01-15_09h52.03.472,gca_discrimination,2022.2.4,143.7688425775255,
positions.xlsx,stimuli.xlsx,test.xlsx,stimuli/Social1.png,stimuli/Social2.png,stimuli/Nonsocial2.png,stimuli/Nonsocial1.png,stimuli/Test1.png,stimuli/Test2.png,"(0.7, -0.5)",cs_minus_s,"(-0.7, 0.5)",cs_minus_s,0,0,0,0,,,,,0,94,94,69,,393.44066130020656,l,0.3270819999743253,correct,,50,C,2024-01-15_09h52.03.472,gca_discrimination,2022.2.4,143.7688425775255,
positions.xlsx,stimuli.xlsx,test.xlsx,stimuli/Social1.png,stimuli/Social2.png,stimuli/Nonsocial2.png,stimuli/Nonsocial1.png,stimuli/Test1.png,stimuli/Test2.png,"(-0.7, 0.5)",cs_plus_ns,"(0.7, 0.5)",cs_minus_ns,0,0,0,0,,,,,0,95,95,25,,395.9614091999829,ä,0.8786011999472976,correct,,50,C,2024-01-15_09h52.03.472,gca_discrimination,2022.2.4,143.7688425775255,
