posFile,stimFile,testFile,cs_plus_s,cs_minus_s,cs_plus_ns,cs_minus_ns,test1,test2,position1,trialtype,position2,comptype,blocks.thisRepN,blocks.thisTrialN,blocks.thisN,blocks.thisIndex,learning_trials.thisRepN,learning_trials.thisTrialN,learning_trials.thisN,learning_trials.thisIndex,trials.thisRepN,trials.thisTrialN,trials.thisN,trials.thisIndex,textStart.started,key.started,key.keys,correctness,key.rt,textStartTask.started,participant,group,date,expName,psychopyVersion,frameRate,
positions.xlsx,stimuli.xlsx,test.xlsx,stimuli/Social2.png,stimuli/Social1.png,stimuli/Nonsocial1.png,stimuli/Nonsocial2.png,stimuli/Test1.png,stimuli/Test2.png,"(-0.7, 0.5)",test1,"(0.7, -0.5)",test1,0,0,0,0,0,0,0,5,,,,,12.494395799934864,44.132079399889335,None,no answer,,,37,B,2023-12-19_15h40.16.086,gca_discrimination,2022.2.4,144.03638933537061,
positions.xlsx,stimuli.xlsx,test.xlsx,stimuli/Social2.png,stimuli/Social1.png,stimuli/Nonsocial1.png,stimuli/Nonsocial2.png,stimuli/Test1.png,stimuli/Test2.png,"(-0.7, 0.5)",test2,"(0.7, 0.5)",test1,0,0,0,0,0,1,1,3,,,,,,50.47217239998281,ä,correct,0.46669519995339215,,37,B,2023-12-19_15h40.16.086,gca_discrimination,2022.2.4,144.03638933537061,
positions.xlsx,stimuli.xlsx,test.xlsx,stimuli/Social2.png,stimuli/Social1.png,stimuli/Nonsocial1.png,stimuli/Nonsocial2.png,stimuli/Test1.png,stimuli/Test2.png,"(0.7, 0.5)",test2,"(-0.7, 0.5)",test1,0,0,0,0,0,2,2,13,,,,,,55.270546899875626,ä,correct,0.47458250005729496,,37,B,2023-12-19_15h40.16.086,gca_discrimination,2022.2.4,144.03638933537061,
positions.xlsx,stimuli.xlsx,test.xlsx,stimuli/Social2.png,stimuli/Social1.png,stimuli/Nonsocial1.png,stimuli/Nonsocial2.png,stimuli/Test1.png,stimuli/Test2.png,"(-0.7, -0.5)",test2,"(0.7, -0.5)",test2,0,0,0,0,0,3,3,9,,,,,,59.62451480003074,l,correct,0.4891251001972705,,37,B,2023-12-19_15h40.16.086,gca_discrimination,2022.2.4,144.03638933537061,
positions.xlsx,stimuli.xlsx,test.xlsx,stimuli/Social2.png,stimuli/Social1.png,stimuli/Nonsocial1.png,stimuli/Nonsocial2.png,stimuli/Test1.png,stimuli/Test2.png,"(0.7, 0.5)",test1,"(0.7, -0.5)",test2,0,0,0,0,0,4,4,11,,,,,,64.38823419995606,ä,correct,0.5096173002384603,,37,B,2023-12-19_15h40.16.086,gca_discrimination,2022.2.4,144.03638933537061,
positions.xlsx,stimuli.xlsx,test.xlsx,stimuli/Social2.png,stimuli/Social1.png,stimuli/Nonsocial1.png,stimuli/Nonsocial2.png,stimuli/Test1.png,stimuli/Test2.png,"(0.7, 0.5)",test2,"(0.7, -0.5)",test1,0,0,0,0,0,5,5,6,,,,,,69.47139830002561,ä,correct,0.634331000270322,,37,B,2023-12-19_15h40.16.086,gca_discrimination,2022.2.4,144.03638933537061,
positions.xlsx,stimuli.xlsx,test.xlsx,stimuli/Social2.png,stimuli/Social1.png,stimuli/Nonsocial1.png,stimuli/Nonsocial2.png,stimuli/Test1.png,stimuli/Test2.png,"(-0.7, -0.5)",test1,"(0.7, 0.5)",test2,0,0,0,0,0,6,6,8,,,,,,74.83922189986333,ä,correct,0.426632400136441,,37,B,2023-12-19_15h40.16.086,gca_discrimination,2022.2.4,144.03638933537061,
positions.xlsx,stimuli.xlsx,test.xlsx,stimuli/Social2.png,stimuli/Social1.png,stimuli/Nonsocial1.png,stimuli/Nonsocial2.png,stimuli/Test1.png,stimuli/Test2.png,"(0.7, -0.5)",test2,"(-0.7, 0.5)",test1,0,0,0,0,0,7,7,4,,,,,,80.07516800006852,ä,correct,0.41404970013536513,,37,B,2023-12-19_15h40.16.086,gca_discrimination,2022.2.4,144.03638933537061,
positions.xlsx,stimuli.xlsx,test.xlsx,stimuli/Social2.png,stimuli/Social1.png,stimuli/Nonsocial1.png,stimuli/Nonsocial2.png,stimuli/Test1.png,stimuli/Test2.png,"(0.7, -0.5)",test1,"(0.7, 0.5)",test1,0,0,0,0,0,8,8,10,,,,,,84.56106069986708,l,correct,0.32914870022796094,,37,B,2023-12-19_15h40.16.086,gca_discrimination,2022.2.4,144.03638933537061,
positions.xlsx,stimuli.xlsx,test.xlsx,stimuli/Social2.png,stimuli/Social1.png,stimuli/Nonsocial1.png,stimuli/Nonsocial2.png,stimuli/Test1.png,stimuli/Test2.png,"(-0.7, 0.5)",test2,"(0.7, -0.5)",test1,0,0,0,0,0,9,9,12,,,,,,89.06782760005444,ä,correct,0.35008540004491806,,37,B,2023-12-19_15h40.16.086,gca_discrimination,2022.2.4,144.03638933537061,
positions.xlsx,stimuli.xlsx,test.xlsx,stimuli/Social2.png,stimuli/Social1.png,stimuli/Nonsocial1.png,stimuli/Nonsocial2.png,stimuli/Test1.png,stimuli/Test2.png,"(0.7, -0.5)",test1,"(0.7, 0.5)",test2,0,0,0,0,0,10,10,0,,,,,,94.14401920000091,ä,correct,0.37696660007350147,,37,B,2023-12-19_15h40.16.086,gca_discrimination,2022.2.4,144.03638933537061,
positions.xlsx,stimuli.xlsx,test.xlsx,stimuli/Social2.png,stimuli/Social1.png,stimuli/Nonsocial1.png,stimuli/Nonsocial2.png,stimuli/Test1.png,stimuli/Test2.png,"(-0.7, -0.5)",test2,"(0.7, 0.5)",test2,0,0,0,0,0,11,11,7,,,,,,98.37998129986227,l,correct,0.29381239996291697,,37,B,2023-12-19_15h40.16.086,gca_discrimination,2022.2.4,144.03638933537061,
positions.xlsx,stimuli.xlsx,test.xlsx,stimuli/Social2.png,stimuli/Social1.png,stimuli/Nonsocial1.png,stimuli/Nonsocial2.png,stimuli/Test1.png,stimuli/Test2.png,"(-0.7, -0.5)",test2,"(-0.7, 0.5)",test2,0,0,0,0,0,12,12,2,,,,,,103.28256489988416,l,correct,0.29510420002043247,,37,B,2023-12-19_15h40.16.086,gca_discrimination,2022.2.4,144.03638933537061,
positions.xlsx,stimuli.xlsx,test.xlsx,stimuli/Social2.png,stimuli/Social1.png,stimuli/Nonsocial1.png,stimuli/Nonsocial2.png,stimuli/Test1.png,stimuli/Test2.png,"(-0.7, 0.5)",test2,"(-0.7, -0.5)",test2,0,0,0,0,0,13,13,1,,,,,,108.35875989985652,l,correct,0.3952399999834597,,37,B,2023-12-19_15h40.16.086,gca_discrimination,2022.2.4,144.03638933537061,
positions.xlsx,stimuli.xlsx,test.xlsx,stimuli/Social2.png,stimuli/Social1.png,stimuli/Nonsocial1.png,stimuli/Nonsocial2.png,stimuli/Test1.png,stimuli/Test2.png,"(0.7, -0.5)",cs_plus_s,"(-0.7, 0.5)",cs_plus_s,0,0,0,0,,,,,0,0,0,57,,119.99029630003497,l,correct,0.37179640028625727,111.40727159986272,37,B,2023-12-19_15h40.16.086,gca_discrimination,2022.2.4,144.03638933537061,
positions.xlsx,stimuli.xlsx,test.xlsx,stimuli/Social2.png,stimuli/Social1.png,stimuli/Nonsocial1.png,stimuli/Nonsocial2.png,stimuli/Test1.png,stimuli/Test2.png,"(0.7, -0.5)",cs_minus_ns,"(-0.7, -0.5)",cs_plus_ns,0,0,0,0,,,,,0,1,1,46,,122.87208019988611,ä,correct,0.4014447000809014,,37,B,2023-12-19_15h40.16.086,gca_discrimination,2022.2.4,144.03638933537061,
positions.xlsx,stimuli.xlsx,test.xlsx,stimuli/Social2.png,stimuli/Social1.png,stimuli/Nonsocial1.png,stimuli/Nonsocial2.png,stimuli/Test1.png,stimuli/Test2.png,"(0.7, -0.5)",cs_plus_ns,"(0.7, 0.5)",cs_minus_ns,0,0,0,0,,,,,0,2,2,35,,125.42753500002436,ä,correct,0.35118109988979995,,37,B,2023-12-19_15h40.16.086,gca_discrimination,2022.2.4,144.03638933537061,
positions.xlsx,stimuli.xlsx,test.xlsx,stimuli/Social2.png,stimuli/Social1.png,stimuli/Nonsocial1.png,stimuli/Nonsocial2.png,stimuli/Test1.png,stimuli/Test2.png,"(0.7, 0.5)",cs_minus_ns,"(0.7, -0.5)",cs_minus_ns,0,0,0,0,,,,,0,3,3,92,,128.5246031000279,l,correct,0.31022580014541745,,37,B,2023-12-19_15h40.16.086,gca_discrimination,2022.2.4,144.03638933537061,
positions.xlsx,stimuli.xlsx,test.xlsx,stimuli/Social2.png,stimuli/Social1.png,stimuli/Nonsocial1.png,stimuli/Nonsocial2.png,stimuli/Test1.png,stimuli/Test2.png,"(0.7, 0.5)",cs_plus_ns,"(-0.7, 0.5)",cs_minus_ns,0,0,0,0,,,,,0,4,4,30,,131.42032999987714,l,wrong,0.3815098002087325,,37,B,2023-12-19_15h40.16.086,gca_discrimination,2022.2.4,144.03638933537061,
positions.xlsx,stimuli.xlsx,test.xlsx,stimuli/Social2.png,stimuli/Social1.png,stimuli/Nonsocial1.png,stimuli/Nonsocial2.png,stimuli/Test1.png,stimuli/Test2.png,"(0.7, 0.5)",cs_plus_ns,"(0.7, -0.5)",cs_plus_ns,0,0,0,0,,,,,0,5,5,80,,133.87858789996244,l,correct,0.38722690008580685,,37,B,2023-12-19_15h40.16.086,gca_discrimination,2022.2.4,144.03638933537061,
positions.xlsx,stimuli.xlsx,test.xlsx,stimuli/Social2.png,stimuli/Social1.png,stimuli/Nonsocial1.png,stimuli/Nonsocial2.png,stimuli/Test1.png,stimuli/Test2.png,"(-0.7, -0.5)",cs_plus_ns,"(0.7, 0.5)",cs_minus_ns,0,0,0,0,,,,,0,6,6,28,,136.7256749998778,ä,correct,0.4116410999558866,,37,B,2023-12-19_15h40.16.086,gca_discrimination,2022.2.4,144.03638933537061,
positions.xlsx,stimuli.xlsx,test.xlsx,stimuli/Social2.png,stimuli/Social1.png,stimuli/Nonsocial1.png,stimuli/Nonsocial2.png,stimuli/Test1.png,stimuli/Test2.png,"(-0.7, -0.5)",cs_minus_s,"(0.7, 0.5)",cs_plus_s,0,0,0,0,,,,,0,7,7,16,,139.58669929997995,ä,correct,0.46279860008507967,,37,B,2023-12-19_15h40.16.086,gca_discrimination,2022.2.4,144.03638933537061,
positions.xlsx,stimuli.xlsx,test.xlsx,stimuli/Social2.png,stimuli/Social1.png,stimuli/Nonsocial1.png,stimuli/Nonsocial2.png,stimuli/Test1.png,stimuli/Test2.png,"(0.7, -0.5)",cs_plus_s,"(-0.7, -0.5)",cs_minus_s,0,0,0,0,,,,,0,8,8,10,,142.15602710004896,ä,correct,0.41333160013891757,,37,B,2023-12-19_15h40.16.086,gca_discrimination,2022.2.4,144.03638933537061,
positions.xlsx,stimuli.xlsx,test.xlsx,stimuli/Social2.png,stimuli/Social1.png,stimuli/Nonsocial1.png,stimuli/Nonsocial2.png,stimuli/Test1.png,stimuli/Test2.png,"(-0.7, 0.5)",cs_plus_s,"(0.7, -0.5)",cs_plus_s,0,0,0,0,,,,,0,9,9,50,,144.46842569997534,l,correct,0.4769383000675589,,37,B,2023-12-19_15h40.16.086,gca_discrimination,2022.2.4,144.03638933537061,
positions.xlsx,stimuli.xlsx,test.xlsx,stimuli/Social2.png,stimuli/Social1.png,stimuli/Nonsocial1.png,stimuli/Nonsocial2.png,stimuli/Test1.png,stimuli/Test2.png,"(0.7, 0.5)",cs_minus_ns,"(-0.7, 0.5)",cs_plus_ns,0,0,0,0,,,,,0,10,10,42,,147.21140130003914,ä,correct,0.33370950003154576,,37,B,2023-12-19_15h40.16.086,gca_discrimination,2022.2.4,144.03638933537061,
positions.xlsx,stimuli.xlsx,test.xlsx,stimuli/Social2.png,stimuli/Social1.png,stimuli/Nonsocial1.png,stimuli/Nonsocial2.png,stimuli/Test1.png,stimuli/Test2.png,"(0.7, 0.5)",cs_minus_ns,"(0.7, -0.5)",cs_plus_ns,0,0,0,0,,,,,0,11,11,44,,150.32933069998398,ä,correct,0.4318779001478106,,37,B,2023-12-19_15h40.16.086,gca_discrimination,2022.2.4,144.03638933537061,
positions.xlsx,stimuli.xlsx,test.xlsx,stimuli/Social2.png,stimuli/Social1.png,stimuli/Nonsocial1.png,stimuli/Nonsocial2.png,stimuli/Test1.png,stimuli/Test2.png,"(0.7, -0.5)",cs_plus_ns,"(0.7, 0.5)",cs_plus_ns,0,0,0,0,,,,,0,12,12,83,,153.52366709988564,l,correct,0.3415981999132782,,37,B,2023-12-19_15h40.16.086,gca_discrimination,2022.2.4,144.03638933537061,
positions.xlsx,stimuli.xlsx,test.xlsx,stimuli/Social2.png,stimuli/Social1.png,stimuli/Nonsocial1.png,stimuli/Nonsocial2.png,stimuli/Test1.png,stimuli/Test2.png,"(0.7, -0.5)",cs_minus_s,"(0.7, 0.5)",cs_minus_s,0,0,0,0,,,,,0,13,13,71,,156.6485502999276,l,correct,0.4254054001066834,,37,B,2023-12-19_15h40.16.086,gca_discrimination,2022.2.4,144.03638933537061,
positions.xlsx,stimuli.xlsx,test.xlsx,stimuli/Social2.png,stimuli/Social1.png,stimuli/Nonsocial1.png,stimuli/Nonsocial2.png,stimuli/Test1.png,stimuli/Test2.png,"(-0.7, 0.5)",cs_plus_ns,"(-0.7, -0.5)",cs_minus_ns,0,0,0,0,,,,,0,14,14,24,,158.98873570002615,ä,correct,0.5965525000356138,,37,B,2023-12-19_15h40.16.086,gca_discrimination,2022.2.4,144.03638933537061,
positions.xlsx,stimuli.xlsx,test.xlsx,stimuli/Social2.png,stimuli/Social1.png,stimuli/Nonsocial1.png,stimuli/Nonsocial2.png,stimuli/Test1.png,stimuli/Test2.png,"(-0.7, -0.5)",cs_minus_ns,"(-0.7, 0.5)",cs_minus_ns,0,0,0,0,,,,,0,15,15,87,,161.6761137000285,l,correct,0.4856993001885712,,37,B,2023-12-19_15h40.16.086,gca_discrimination,2022.2.4,144.03638933537061,
positions.xlsx,stimuli.xlsx,test.xlsx,stimuli/Social2.png,stimuli/Social1.png,stimuli/Nonsocial1.png,stimuli/Nonsocial2.png,stimuli/Test1.png,stimuli/Test2.png,"(-0.7, -0.5)",cs_plus_ns,"(0.7, -0.5)",cs_plus_ns,0,0,0,0,,,,,0,16,16,77,,164.8009969999548,l,correct,0.384400200098753,,37,B,2023-12-19_15h40.16.086,gca_discrimination,2022.2.4,144.03638933537061,
positions.xlsx,stimuli.xlsx,test.xlsx,stimuli/Social2.png,stimuli/Social1.png,stimuli/Nonsocial1.png,stimuli/Nonsocial2.png,stimuli/Test1.png,stimuli/Test2.png,"(-0.7, 0.5)",cs_minus_ns,"(-0.7, -0.5)",cs_plus_ns,0,0,0,0,,,,,0,17,17,36,,167.7661550999619,ä,correct,0.37908200011588633,,37,B,2023-12-19_15h40.16.086,gca_discrimination,2022.2.4,144.03638933537061,
positions.xlsx,stimuli.xlsx,test.xlsx,stimuli/Social2.png,stimuli/Social1.png,stimuli/Nonsocial1.png,stimuli/Nonsocial2.png,stimuli/Test1.png,stimuli/Test2.png,"(0.7, 0.5)",cs_plus_s,"(0.7, -0.5)",cs_minus_s,0,0,0,0,,,,,0,18,18,8,,170.73134639998898,ä,correct,0.5024217001628131,,37,B,2023-12-19_15h40.16.086,gca_discrimination,2022.2.4,144.03638933537061,
positions.xlsx,stimuli.xlsx,test.xlsx,stimuli/Social2.png,stimuli/Social1.png,stimuli/Nonsocial1.png,stimuli/Nonsocial2.png,stimuli/Test1.png,stimuli/Test2.png,"(-0.7, 0.5)",cs_minus_ns,"(0.7, 0.5)",cs_minus_ns,0,0,0,0,,,,,0,19,19,85,,173.3284664999228,l,correct,0.29736130009405315,,37,B,2023-12-19_15h40.16.086,gca_discrimination,2022.2.4,144.03638933537061,
positions.xlsx,stimuli.xlsx,test.xlsx,stimuli/Social2.png,stimuli/Social1.png,stimuli/Nonsocial1.png,stimuli/Nonsocial2.png,stimuli/Test1.png,stimuli/Test2.png,"(-0.7, -0.5)",cs_minus_ns,"(0.7, 0.5)",cs_minus_ns,0,0,0,0,,,,,0,20,20,88,,176.32834120001644,l,correct,0.4264062000438571,,37,B,2023-12-19_15h40.16.086,gca_discrimination,2022.2.4,144.03638933537061,
positions.xlsx,stimuli.xlsx,test.xlsx,stimuli/Social2.png,stimuli/Social1.png,stimuli/Nonsocial1.png,stimuli/Nonsocial2.png,stimuli/Test1.png,stimuli/Test2.png,"(-0.7, 0.5)",cs_plus_s,"(0.7, 0.5)",cs_minus_s,0,0,0,0,,,,,0,21,21,1,,179.46713760006242,ä,correct,0.4301952002570033,,37,B,2023-12-19_15h40.16.086,gca_discrimination,2022.2.4,144.03638933537061,
positions.xlsx,stimuli.xlsx,test.xlsx,stimuli/Social2.png,stimuli/Social1.png,stimuli/Nonsocial1.png,stimuli/Nonsocial2.png,stimuli/Test1.png,stimuli/Test2.png,"(-0.7, -0.5)",cs_minus_s,"(-0.7, 0.5)",cs_plus_s,0,0,0,0,,,,,0,22,22,15,,182.68919919990003,ä,correct,0.32100060023367405,,37,B,2023-12-19_15h40.16.086,gca_discrimination,2022.2.4,144.03638933537061,
positions.xlsx,stimuli.xlsx,test.xlsx,stimuli/Social2.png,stimuli/Social1.png,stimuli/Nonsocial1.png,stimuli/Nonsocial2.png,stimuli/Test1.png,stimuli/Test2.png,"(0.7, -0.5)",cs_plus_ns,"(-0.7, 0.5)",cs_minus_ns,0,0,0,0,,,,,0,23,23,33,,185.70990909985267,ä,correct,0.34815119998529553,,37,B,2023-12-19_15h40.16.086,gca_discrimination,2022.2.4,144.03638933537061,
positions.xlsx,stimuli.xlsx,test.xlsx,stimuli/Social2.png,stimuli/Social1.png,stimuli/Nonsocial1.png,stimuli/Nonsocial2.png,stimuli/Test1.png,stimuli/Test2.png,"(0.7, -0.5)",cs_plus_ns,"(-0.7, -0.5)",cs_minus_ns,0,0,0,0,,,,,0,24,24,34,,187.96677659987472,ä,correct,0.3706475000362843,,37,B,2023-12-19_15h40.16.086,gca_discrimination,2022.2.4,144.03638933537061,
positions.xlsx,stimuli.xlsx,test.xlsx,stimuli/Social2.png,stimuli/Social1.png,stimuli/Nonsocial1.png,stimuli/Nonsocial2.png,stimuli/Test1.png,stimuli/Test2.png,"(-0.7, 0.5)",cs_minus_ns,"(0.7, -0.5)",cs_plus_ns,0,0,0,0,,,,,0,25,25,38,,191.15412890003063,ä,correct,0.24785870010964572,,37,B,2023-12-19_15h40.16.086,gca_discrimination,2022.2.4,144.03638933537061,
positions.xlsx,stimuli.xlsx,test.xlsx,stimuli/Social2.png,stimuli/Social1.png,stimuli/Nonsocial1.png,stimuli/Nonsocial2.png,stimuli/Test1.png,stimuli/Test2.png,"(0.7, -0.5)",cs_minus_ns,"(-0.7, -0.5)",cs_minus_ns,0,0,0,0,,,,,0,26,26,94,,193.80682910000905,l,correct,0.28299720003269613,,37,B,2023-12-19_15h40.16.086,gca_discrimination,2022.2.4,144.03638933537061,
positions.xlsx,stimuli.xlsx,test.xlsx,stimuli/Social2.png,stimuli/Social1.png,stimuli/Nonsocial1.png,stimuli/Nonsocial2.png,stimuli/Test1.png,stimuli/Test2.png,"(0.7, -0.5)",cs_plus_ns,"(-0.7, 0.5)",cs_plus_ns,0,0,0,0,,,,,0,27,27,81,,196.584538300056,ä,wrong,0.7772499001584947,,37,B,2023-12-19_15h40.16.086,gca_discrimination,2022.2.4,144.03638933537061,
positions.xlsx,stimuli.xlsx,test.xlsx,stimuli/Social2.png,stimuli/Social1.png,stimuli/Nonsocial1.png,stimuli/Nonsocial2.png,stimuli/Test1.png,stimuli/Test2.png,"(0.7, 0.5)",cs_minus_ns,"(-0.7, -0.5)",cs_minus_ns,0,0,0,0,,,,,0,28,28,91,,199.80656949989498,l,correct,0.31517760013230145,,37,B,2023-12-19_15h40.16.086,gca_discrimination,2022.2.4,144.03638933537061,
positions.xlsx,stimuli.xlsx,test.xlsx,stimuli/Social2.png,stimuli/Social1.png,stimuli/Nonsocial1.png,stimuli/Nonsocial2.png,stimuli/Test1.png,stimuli/Test2.png,"(0.7, 0.5)",cs_plus_s,"(-0.7, 0.5)",cs_minus_s,0,0,0,0,,,,,0,29,29,6,,202.43845939985476,ä,correct,0.4107314001303166,,37,B,2023-12-19_15h40.16.086,gca_discrimination,2022.2.4,144.03638933537061,
positions.xlsx,stimuli.xlsx,test.xlsx,stimuli/Social2.png,stimuli/Social1.png,stimuli/Nonsocial1.png,stimuli/Nonsocial2.png,stimuli/Test1.png,stimuli/Test2.png,"(0.7, -0.5)",cs_minus_ns,"(-0.7, 0.5)",cs_minus_ns,0,0,0,0,,,,,0,30,30,93,,204.84111939999275,l,correct,0.3527512000873685,,37,B,2023-12-19_15h40.16.086,gca_discrimination,2022.2.4,144.03638933537061,
positions.xlsx,stimuli.xlsx,test.xlsx,stimuli/Social2.png,stimuli/Social1.png,stimuli/Nonsocial1.png,stimuli/Nonsocial2.png,stimuli/Test1.png,stimuli/Test2.png,"(-0.7, -0.5)",cs_plus_s,"(0.7, 0.5)",cs_minus_s,0,0,0,0,,,,,0,31,31,4,,207.54242299986072,ä,correct,0.37085970025509596,,37,B,2023-12-19_15h40.16.086,gca_discrimination,2022.2.4,144.03638933537061,
positions.xlsx,stimuli.xlsx,test.xlsx,stimuli/Social2.png,stimuli/Social1.png,stimuli/Nonsocial1.png,stimuli/Nonsocial2.png,stimuli/Test1.png,stimuli/Test2.png,"(-0.7, -0.5)",cs_minus_ns,"(-0.7, 0.5)",cs_plus_ns,0,0,0,0,,,,,0,32,32,39,,210.61868950002827,ä,correct,0.27903500013053417,,37,B,2023-12-19_15h40.16.086,gca_discrimination,2022.2.4,144.03638933537061,
positions.xlsx,stimuli.xlsx,test.xlsx,stimuli/Social2.png,stimuli/Social1.png,stimuli/Nonsocial1.png,stimuli/Nonsocial2.png,stimuli/Test1.png,stimuli/Test2.png,"(0.7, 0.5)",cs_minus_s,"(-0.7, -0.5)",cs_minus_s,0,0,0,0,,,,,0,33,33,67,,213.569966299925,l,correct,0.37577720009721816,,37,B,2023-12-19_15h40.16.086,gca_discrimination,2022.2.4,144.03638933537061,
positions.xlsx,stimuli.xlsx,test.xlsx,stimuli/Social2.png,stimuli/Social1.png,stimuli/Nonsocial1.png,stimuli/Nonsocial2.png,stimuli/Test1.png,stimuli/Test2.png,"(0.7, 0.5)",cs_plus_ns,"(-0.7, -0.5)",cs_minus_ns,0,0,0,0,,,,,0,34,34,31,,216.68093829997815,ä,correct,0.4325825001578778,,37,B,2023-12-19_15h40.16.086,gca_discrimination,2022.2.4,144.03638933537061,
positions.xlsx,stimuli.xlsx,test.xlsx,stimuli/Social2.png,stimuli/Social1.png,stimuli/Nonsocial1.png,stimuli/Nonsocial2.png,stimuli/Test1.png,stimuli/Test2.png,"(-0.7, 0.5)",cs_plus_ns,"(0.7, -0.5)",cs_plus_ns,0,0,0,0,,,,,0,35,35,74,,219.479430800071,l,correct,0.6109680002555251,,37,B,2023-12-19_15h40.16.086,gca_discrimination,2022.2.4,144.03638933537061,
positions.xlsx,stimuli.xlsx,test.xlsx,stimuli/Social2.png,stimuli/Social1.png,stimuli/Nonsocial1.png,stimuli/Nonsocial2.png,stimuli/Test1.png,stimuli/Test2.png,"(-0.7, -0.5)",cs_plus_ns,"(-0.7, 0.5)",cs_minus_ns,0,0,0,0,,,,,0,36,36,27,,222.52095129992813,ä,correct,0.48904040013439953,,37,B,2023-12-19_15h40.16.086,gca_discrimination,2022.2.4,144.03638933537061,
positions.xlsx,stimuli.xlsx,test.xlsx,stimuli/Social2.png,stimuli/Social1.png,stimuli/Nonsocial1.png,stimuli/Nonsocial2.png,stimuli/Test1.png,stimuli/Test2.png,"(0.7, -0.5)",cs_minus_s,"(-0.7, 0.5)",cs_minus_s,0,0,0,0,,,,,0,37,37,69,,225.250053799944,l,correct,0.4235221000853926,,37,B,2023-12-19_15h40.16.086,gca_discrimination,2022.2.4,144.03638933537061,
positions.xlsx,stimuli.xlsx,test.xlsx,stimuli/Social2.png,stimuli/Social1.png,stimuli/Nonsocial1.png,stimuli/Nonsocial2.png,stimuli/Test1.png,stimuli/Test2.png,"(-0.7, 0.5)",cs_minus_s,"(0.7, -0.5)",cs_plus_s,0,0,0,0,,,,,0,38,38,14,,227.92353169992566,ä,correct,0.32581040007062256,,37,B,2023-12-19_15h40.16.086,gca_discrimination,2022.2.4,144.03638933537061,
positions.xlsx,stimuli.xlsx,test.xlsx,stimuli/Social2.png,stimuli/Social1.png,stimuli/Nonsocial1.png,stimuli/Nonsocial2.png,stimuli/Test1.png,stimuli/Test2.png,"(-0.7, 0.5)",cs_plus_s,"(-0.7, -0.5)",cs_minus_s,0,0,0,0,,,,,0,39,39,0,,230.5276158999186,ä,correct,0.5867545001674443,,37,B,2023-12-19_15h40.16.086,gca_discrimination,2022.2.4,144.03638933537061,
positions.xlsx,stimuli.xlsx,test.xlsx,stimuli/Social2.png,stimuli/Social1.png,stimuli/Nonsocial1.png,stimuli/Nonsocial2.png,stimuli/Test1.png,stimuli/Test2.png,"(-0.7, -0.5)",cs_minus_ns,"(0.7, -0.5)",cs_plus_ns,0,0,0,0,,,,,0,40,40,41,,233.2775609998498,ä,correct,0.34805750008672476,,37,B,2023-12-19_15h40.16.086,gca_discrimination,2022.2.4,144.03638933537061,
positions.xlsx,stimuli.xlsx,test.xlsx,stimuli/Social2.png,stimuli/Social1.png,stimuli/Nonsocial1.png,stimuli/Nonsocial2.png,stimuli/Test1.png,stimuli/Test2.png,"(-0.7, 0.5)",cs_minus_ns,"(0.7, 0.5)",cs_plus_ns,0,0,0,0,,,,,0,41,41,37,,236.11069949995726,ä,correct,0.4426931000780314,,37,B,2023-12-19_15h40.16.086,gca_discrimination,2022.2.4,144.03638933537061,
positions.xlsx,stimuli.xlsx,test.xlsx,stimuli/Social2.png,stimuli/Social1.png,stimuli/Nonsocial1.png,stimuli/Nonsocial2.png,stimuli/Test1.png,stimuli/Test2.png,"(-0.7, -0.5)",cs_minus_ns,"(0.7, 0.5)",cs_plus_ns,0,0,0,0,,,,,0,42,42,40,,238.95090289996006,ä,correct,0.32270410005003214,,37,B,2023-12-19_15h40.16.086,gca_discrimination,2022.2.4,144.03638933537061,
positions.xlsx,stimuli.xlsx,test.xlsx,stimuli/Social2.png,stimuli/Social1.png,stimuli/Nonsocial1.png,stimuli/Nonsocial2.png,stimuli/Test1.png,stimuli/Test2.png,"(-0.7, -0.5)",cs_plus_ns,"(-0.7, 0.5)",cs_plus_ns,0,0,0,0,,,,,0,43,43,75,,241.27719169994816,ä,wrong,0.4778507000301033,,37,B,2023-12-19_15h40.16.086,gca_discrimination,2022.2.4,144.03638933537061,
positions.xlsx,stimuli.xlsx,test.xlsx,stimuli/Social2.png,stimuli/Social1.png,stimuli/Nonsocial1.png,stimuli/Nonsocial2.png,stimuli/Test1.png,stimuli/Test2.png,"(-0.7, -0.5)",cs_plus_s,"(-0.7, 0.5)",cs_minus_s,0,0,0,0,,,,,0,44,44,3,,244.4506941998843,ä,correct,0.49580260016955435,,37,B,2023-12-19_15h40.16.086,gca_discrimination,2022.2.4,144.03638933537061,
positions.xlsx,stimuli.xlsx,test.xlsx,stimuli/Social2.png,stimuli/Social1.png,stimuli/Nonsocial1.png,stimuli/Nonsocial2.png,stimuli/Test1.png,stimuli/Test2.png,"(-0.7, 0.5)",cs_plus_s,"(0.7, -0.5)",cs_minus_s,0,0,0,0,,,,,0,45,45,2,,247.76304599992,ä,correct,0.3908270001411438,,37,B,2023-12-19_15h40.16.086,gca_discrimination,2022.2.4,144.03638933537061,
positions.xlsx,stimuli.xlsx,test.xlsx,stimuli/Social2.png,stimuli/Social1.png,stimuli/Nonsocial1.png,stimuli/Nonsocial2.png,stimuli/Test1.png,stimuli/Test2.png,"(-0.7, 0.5)",cs_plus_ns,"(0.7, -0.5)",cs_minus_ns,0,0,0,0,,,,,0,46,46,26,,250.2282304998953,ä,correct,1.0544620999135077,,37,B,2023-12-19_15h40.16.086,gca_discrimination,2022.2.4,144.03638933537061,
positions.xlsx,stimuli.xlsx,test.xlsx,stimuli/Social2.png,stimuli/Social1.png,stimuli/Nonsocial1.png,stimuli/Nonsocial2.png,stimuli/Test1.png,stimuli/Test2.png,"(0.7, -0.5)",cs_plus_s,"(-0.7, -0.5)",cs_plus_s,0,0,0,0,,,,,0,47,47,58,,253.8878037999384,l,correct,0.3220948001835495,,37,B,2023-12-19_15h40.16.086,gca_discrimination,2022.2.4,144.03638933537061,
positions.xlsx,stimuli.xlsx,test.xlsx,stimuli/Social2.png,stimuli/Social1.png,stimuli/Nonsocial1.png,stimuli/Nonsocial2.png,stimuli/Test1.png,stimuli/Test2.png,"(0.7, 0.5)",cs_minus_s,"(-0.7, -0.5)",cs_plus_s,0,0,0,0,,,,,0,48,48,19,,256.9016140999738,ä,correct,0.41951830009929836,,37,B,2023-12-19_15h40.16.086,gca_discrimination,2022.2.4,144.03638933537061,
positions.xlsx,stimuli.xlsx,test.xlsx,stimuli/Social2.png,stimuli/Social1.png,stimuli/Nonsocial1.png,stimuli/Nonsocial2.png,stimuli/Test1.png,stimuli/Test2.png,"(-0.7, 0.5)",cs_minus_s,"(0.7, 0.5)",cs_minus_s,0,0,0,0,,,,,0,49,49,61,,259.73481080005877,l,correct,0.5787933999672532,,37,B,2023-12-19_15h40.16.086,gca_discrimination,2022.2.4,144.03638933537061,
positions.xlsx,stimuli.xlsx,test.xlsx,stimuli/Social2.png,stimuli/Social1.png,stimuli/Nonsocial1.png,stimuli/Nonsocial2.png,stimuli/Test1.png,stimuli/Test2.png,"(0.7, 0.5)",cs_plus_s,"(0.7, -0.5)",cs_plus_s,0,0,0,0,,,,,0,50,50,56,,262.54719930002466,l,correct,0.3994981001596898,,37,B,2023-12-19_15h40.16.086,gca_discrimination,2022.2.4,144.03638933537061,
positions.xlsx,stimuli.xlsx,test.xlsx,stimuli/Social2.png,stimuli/Social1.png,stimuli/Nonsocial1.png,stimuli/Nonsocial2.png,stimuli/Test1.png,stimuli/Test2.png,"(-0.7, 0.5)",cs_plus_ns,"(-0.7, -0.5)",cs_plus_ns,0,0,0,0,,,,,0,51,51,72,,265.22072259988636,l,correct,0.7410587999038398,,37,B,2023-12-19_15h40.16.086,gca_discrimination,2022.2.4,144.03638933537061,
positions.xlsx,stimuli.xlsx,test.xlsx,stimuli/Social2.png,stimuli/Social1.png,stimuli/Nonsocial1.png,stimuli/Nonsocial2.png,stimuli/Test1.png,stimuli/Test2.png,"(-0.7, 0.5)",cs_minus_ns,"(-0.7, -0.5)",cs_minus_ns,0,0,0,0,,,,,0,52,52,84,,268.49145890004,l,correct,0.3271724001970142,,37,B,2023-12-19_15h40.16.086,gca_discrimination,2022.2.4,144.03638933537061,
positions.xlsx,stimuli.xlsx,test.xlsx,stimuli/Social2.png,stimuli/Social1.png,stimuli/Nonsocial1.png,stimuli/Nonsocial2.png,stimuli/Test1.png,stimuli/Test2.png,"(-0.7, -0.5)",cs_plus_ns,"(0.7, 0.5)",cs_plus_ns,0,0,0,0,,,,,0,53,53,76,,271.5260322999675,l,correct,0.5076152002438903,,37,B,2023-12-19_15h40.16.086,gca_discrimination,2022.2.4,144.03638933537061,
positions.xlsx,stimuli.xlsx,test.xlsx,stimuli/Social2.png,stimuli/Social1.png,stimuli/Nonsocial1.png,stimuli/Nonsocial2.png,stimuli/Test1.png,stimuli/Test2.png,"(0.7, -0.5)",cs_minus_s,"(-0.7, 0.5)",cs_plus_s,0,0,0,0,,,,,0,54,54,21,,274.8245035998989,ä,correct,0.4409314999356866,,37,B,2023-12-19_15h40.16.086,gca_discrimination,2022.2.4,144.03638933537061,
positions.xlsx,stimuli.xlsx,test.xlsx,stimuli/Social2.png,stimuli/Social1.png,stimuli/Nonsocial1.png,stimuli/Nonsocial2.png,stimuli/Test1.png,stimuli/Test2.png,"(0.7, 0.5)",cs_plus_s,"(-0.7, -0.5)",cs_plus_s,0,0,0,0,,,,,0,55,55,55,,277.86607019999065,l,correct,0.4071255000308156,,37,B,2023-12-19_15h40.16.086,gca_discrimination,2022.2.4,144.03638933537061,
positions.xlsx,stimuli.xlsx,test.xlsx,stimuli/Social2.png,stimuli/Social1.png,stimuli/Nonsocial1.png,stimuli/Nonsocial2.png,stimuli/Test1.png,stimuli/Test2.png,"(-0.7, 0.5)",cs_minus_s,"(0.7, -0.5)",cs_minus_s,0,0,0,0,,,,,0,56,56,62,,280.6090051999781,l,correct,0.4650072001386434,,37,B,2023-12-19_15h40.16.086,gca_discrimination,2022.2.4,144.03638933537061,
positions.xlsx,stimuli.xlsx,test.xlsx,stimuli/Social2.png,stimuli/Social1.png,stimuli/Nonsocial1.png,stimuli/Nonsocial2.png,stimuli/Test1.png,stimuli/Test2.png,"(-0.7, 0.5)",cs_minus_s,"(0.7, 0.5)",cs_plus_s,0,0,0,0,,,,,0,57,57,13,,283.5950708000455,ä,correct,0.39874109998345375,,37,B,2023-12-19_15h40.16.086,gca_discrimination,2022.2.4,144.03638933537061,
positions.xlsx,stimuli.xlsx,test.xlsx,stimuli/Social2.png,stimuli/Social1.png,stimuli/Nonsocial1.png,stimuli/Nonsocial2.png,stimuli/Test1.png,stimuli/Test2.png,"(0.7, -0.5)",cs_minus_ns,"(0.7, 0.5)",cs_minus_ns,0,0,0,0,,,,,0,58,58,95,,286.65041709993966,l,correct,0.24733420019038022,,37,B,2023-12-19_15h40.16.086,gca_discrimination,2022.2.4,144.03638933537061,
positions.xlsx,stimuli.xlsx,test.xlsx,stimuli/Social2.png,stimuli/Social1.png,stimuli/Nonsocial1.png,stimuli/Nonsocial2.png,stimuli/Test1.png,stimuli/Test2.png,"(0.7, 0.5)",cs_plus_s,"(-0.7, -0.5)",cs_minus_s,0,0,0,0,,,,,0,59,59,7,,289.21975059993565,ä,correct,0.29514500009827316,,37,B,2023-12-19_15h40.16.086,gca_discrimination,2022.2.4,144.03638933537061,
positions.xlsx,stimuli.xlsx,test.xlsx,stimuli/Social2.png,stimuli/Social1.png,stimuli/Nonsocial1.png,stimuli/Nonsocial2.png,stimuli/Test1.png,stimuli/Test2.png,"(0.7, 0.5)",cs_minus_s,"(0.7, -0.5)",cs_minus_s,0,0,0,0,,,,,0,60,60,68,,291.3516446999274,l,correct,0.40209810016676784,,37,B,2023-12-19_15h40.16.086,gca_discrimination,2022.2.4,144.03638933537061,
positions.xlsx,stimuli.xlsx,test.xlsx,stimuli/Social2.png,stimuli/Social1.png,stimuli/Nonsocial1.png,stimuli/Nonsocial2.png,stimuli/Test1.png,stimuli/Test2.png,"(-0.7, -0.5)",cs_plus_s,"(-0.7, 0.5)",cs_plus_s,0,0,0,0,,,,,0,61,61,51,,294.3029080000706,l,correct,0.37080870009958744,,37,B,2023-12-19_15h40.16.086,gca_discrimination,2022.2.4,144.03638933537061,
positions.xlsx,stimuli.xlsx,test.xlsx,stimuli/Social2.png,stimuli/Social1.png,stimuli/Nonsocial1.png,stimuli/Nonsocial2.png,stimuli/Test1.png,stimuli/Test2.png,"(0.7, -0.5)",cs_minus_s,"(-0.7, -0.5)",cs_plus_s,0,0,0,0,,,,,0,62,62,22,,296.69173279986717,ä,correct,0.44559550005942583,,37,B,2023-12-19_15h40.16.086,gca_discrimination,2022.2.4,144.03638933537061,
positions.xlsx,stimuli.xlsx,test.xlsx,stimuli/Social2.png,stimuli/Social1.png,stimuli/Nonsocial1.png,stimuli/Nonsocial2.png,stimuli/Test1.png,stimuli/Test2.png,"(0.7, 0.5)",cs_plus_ns,"(-0.7, 0.5)",cs_plus_ns,0,0,0,0,,,,,0,63,63,78,,299.8998916998971,l,correct,0.4779730001464486,,37,B,2023-12-19_15h40.16.086,gca_discrimination,2022.2.4,144.03638933537061,
positions.xlsx,stimuli.xlsx,test.xlsx,stimuli/Social2.png,stimuli/Social1.png,stimuli/Nonsocial1.png,stimuli/Nonsocial2.png,stimuli/Test1.png,stimuli/Test2.png,"(-0.7, 0.5)",cs_minus_s,"(-0.7, -0.5)",cs_plus_s,0,0,0,0,,,,,0,64,64,12,,302.57343650003895,ä,correct,0.29988330020569265,,37,B,2023-12-19_15h40.16.086,gca_discrimination,2022.2.4,144.03638933537061,
positions.xlsx,stimuli.xlsx,test.xlsx,stimuli/Social2.png,stimuli/Social1.png,stimuli/Nonsocial1.png,stimuli/Nonsocial2.png,stimuli/Test1.png,stimuli/Test2.png,"(-0.7, 0.5)",cs_plus_s,"(0.7, 0.5)",cs_plus_s,0,0,0,0,,,,,0,65,65,49,,305.2885932000354,l,correct,0.3292420001234859,,37,B,2023-12-19_15h40.16.086,gca_discrimination,2022.2.4,144.03638933537061,
positions.xlsx,stimuli.xlsx,test.xlsx,stimuli/Social2.png,stimuli/Social1.png,stimuli/Nonsocial1.png,stimuli/Nonsocial2.png,stimuli/Test1.png,stimuli/Test2.png,"(0.7, 0.5)",cs_minus_ns,"(-0.7, 0.5)",cs_minus_ns,0,0,0,0,,,,,0,66,66,90,,307.67044540005736,l,correct,0.26746630016714334,,37,B,2023-12-19_15h40.16.086,gca_discrimination,2022.2.4,144.03638933537061,
positions.xlsx,stimuli.xlsx,test.xlsx,stimuli/Social2.png,stimuli/Social1.png,stimuli/Nonsocial1.png,stimuli/Nonsocial2.png,stimuli/Test1.png,stimuli/Test2.png,"(-0.7, -0.5)",cs_minus_s,"(0.7, -0.5)",cs_minus_s,0,0,0,0,,,,,0,67,67,65,,310.17034090007655,l,correct,0.42294140020385385,,37,B,2023-12-19_15h40.16.086,gca_discrimination,2022.2.4,144.03638933537061,
positions.xlsx,stimuli.xlsx,test.xlsx,stimuli/Social2.png,stimuli/Social1.png,stimuli/Nonsocial1.png,stimuli/Nonsocial2.png,stimuli/Test1.png,stimuli/Test2.png,"(-0.7, 0.5)",cs_plus_ns,"(0.7, 0.5)",cs_plus_ns,0,0,0,0,,,,,0,68,68,73,,313.1632953998633,ä,wrong,0.6624286002479494,,37,B,2023-12-19_15h40.16.086,gca_discrimination,2022.2.4,144.03638933537061,
positions.xlsx,stimuli.xlsx,test.xlsx,stimuli/Social2.png,stimuli/Social1.png,stimuli/Nonsocial1.png,stimuli/Nonsocial2.png,stimuli/Test1.png,stimuli/Test2.png,"(-0.7, -0.5)",cs_plus_ns,"(0.7, -0.5)",cs_minus_ns,0,0,0,0,,,,,0,69,69,29,,316.08679219987243,ä,correct,0.3870215001516044,,37,B,2023-12-19_15h40.16.086,gca_discrimination,2022.2.4,144.03638933537061,
positions.xlsx,stimuli.xlsx,test.xlsx,stimuli/Social2.png,stimuli/Social1.png,stimuli/Nonsocial1.png,stimuli/Nonsocial2.png,stimuli/Test1.png,stimuli/Test2.png,"(0.7, 0.5)",cs_minus_ns,"(-0.7, -0.5)",cs_plus_ns,0,0,0,0,,,,,0,70,70,43,,318.44085479993373,ä,correct,0.3366509003099054,,37,B,2023-12-19_15h40.16.086,gca_discrimination,2022.2.4,144.03638933537061,
positions.xlsx,stimuli.xlsx,test.xlsx,stimuli/Social2.png,stimuli/Social1.png,stimuli/Nonsocial1.png,stimuli/Nonsocial2.png,stimuli/Test1.png,stimuli/Test2.png,"(0.7, -0.5)",cs_plus_s,"(0.7, 0.5)",cs_minus_s,0,0,0,0,,,,,0,71,71,11,,320.8158014998771,ä,correct,0.5056906002573669,,37,B,2023-12-19_15h40.16.086,gca_discrimination,2022.2.4,144.03638933537061,
positions.xlsx,stimuli.xlsx,test.xlsx,stimuli/Social2.png,stimuli/Social1.png,stimuli/Nonsocial1.png,stimuli/Nonsocial2.png,stimuli/Test1.png,stimuli/Test2.png,"(0.7, 0.5)",cs_plus_ns,"(-0.7, -0.5)",cs_plus_ns,0,0,0,0,,,,,0,72,72,79,,323.94758609985,l,correct,0.3099227000493556,,37,B,2023-12-19_15h40.16.086,gca_discrimination,2022.2.4,144.03638933537061,
positions.xlsx,stimuli.xlsx,test.xlsx,stimuli/Social2.png,stimuli/Social1.png,stimuli/Nonsocial1.png,stimuli/Nonsocial2.png,stimuli/Test1.png,stimuli/Test2.png,"(0.7, -0.5)",cs_plus_s,"(-0.7, 0.5)",cs_minus_s,0,0,0,0,,,,,0,73,73,9,,326.357230699854,ä,correct,0.3412669999524951,,37,B,2023-12-19_15h40.16.086,gca_discrimination,2022.2.4,144.03638933537061,
positions.xlsx,stimuli.xlsx,test.xlsx,stimuli/Social2.png,stimuli/Social1.png,stimuli/Nonsocial1.png,stimuli/Nonsocial2.png,stimuli/Test1.png,stimuli/Test2.png,"(-0.7, 0.5)",cs_plus_s,"(-0.7, -0.5)",cs_plus_s,0,0,0,0,,,,,0,74,74,48,,328.586295499932,l,correct,0.3674570000730455,,37,B,2023-12-19_15h40.16.086,gca_discrimination,2022.2.4,144.03638933537061,
positions.xlsx,stimuli.xlsx,test.xlsx,stimuli/Social2.png,stimuli/Social1.png,stimuli/Nonsocial1.png,stimuli/Nonsocial2.png,stimuli/Test1.png,stimuli/Test2.png,"(-0.7, -0.5)",cs_plus_s,"(0.7, -0.5)",cs_minus_s,0,0,0,0,,,,,0,75,75,5,,331.30839719995856,ä,correct,0.30893260007724166,,37,B,2023-12-19_15h40.16.086,gca_discrimination,2022.2.4,144.03638933537061,
positions.xlsx,stimuli.xlsx,test.xlsx,stimuli/Social2.png,stimuli/Social1.png,stimuli/Nonsocial1.png,stimuli/Nonsocial2.png,stimuli/Test1.png,stimuli/Test2.png,"(0.7, 0.5)",cs_minus_s,"(-0.7, 0.5)",cs_plus_s,0,0,0,0,,,,,0,76,76,18,,334.169421199942,ä,correct,0.26389230019412935,,37,B,2023-12-19_15h40.16.086,gca_discrimination,2022.2.4,144.03638933537061,
positions.xlsx,stimuli.xlsx,test.xlsx,stimuli/Social2.png,stimuli/Social1.png,stimuli/Nonsocial1.png,stimuli/Nonsocial2.png,stimuli/Test1.png,stimuli/Test2.png,"(-0.7, -0.5)",cs_minus_ns,"(0.7, -0.5)",cs_minus_ns,0,0,0,0,,,,,0,77,77,89,,336.9540144999046,l,correct,0.31181850004941225,,37,B,2023-12-19_15h40.16.086,gca_discrimination,2022.2.4,144.03638933537061,
positions.xlsx,stimuli.xlsx,test.xlsx,stimuli/Social2.png,stimuli/Social1.png,stimuli/Nonsocial1.png,stimuli/Nonsocial2.png,stimuli/Test1.png,stimuli/Test2.png,"(0.7, 0.5)",cs_minus_s,"(0.7, -0.5)",cs_plus_s,0,0,0,0,,,,,0,78,78,20,,339.808105800068,ä,correct,0.2896014000289142,,37,B,2023-12-19_15h40.16.086,gca_discrimination,2022.2.4,144.03638933537061,
positions.xlsx,stimuli.xlsx,test.xlsx,stimuli/Social2.png,stimuli/Social1.png,stimuli/Nonsocial1.png,stimuli/Nonsocial2.png,stimuli/Test1.png,stimuli/Test2.png,"(-0.7, -0.5)",cs_minus_s,"(0.7, -0.5)",cs_plus_s,0,0,0,0,,,,,0,79,79,17,,342.07188949990086,ä,correct,0.28205460007302463,,37,B,2023-12-19_15h40.16.086,gca_discrimination,2022.2.4,144.03638933537061,
positions.xlsx,stimuli.xlsx,test.xlsx,stimuli/Social2.png,stimuli/Social1.png,stimuli/Nonsocial1.png,stimuli/Nonsocial2.png,stimuli/Test1.png,stimuli/Test2.png,"(0.7, -0.5)",cs_plus_s,"(0.7, 0.5)",cs_plus_s,0,0,0,0,,,,,0,80,80,59,,344.1968248998746,l,correct,0.34183340007439256,,37,B,2023-12-19_15h40.16.086,gca_discrimination,2022.2.4,144.03638933537061,
positions.xlsx,stimuli.xlsx,test.xlsx,stimuli/Social2.png,stimuli/Social1.png,stimuli/Nonsocial1.png,stimuli/Nonsocial2.png,stimuli/Test1.png,stimuli/Test2.png,"(-0.7, -0.5)",cs_plus_s,"(0.7, -0.5)",cs_plus_s,0,0,0,0,,,,,0,81,81,53,,346.91197549994104,l,correct,0.31350140017457306,,37,B,2023-12-19_15h40.16.086,gca_discrimination,2022.2.4,144.03638933537061,
positions.xlsx,stimuli.xlsx,test.xlsx,stimuli/Social2.png,stimuli/Social1.png,stimuli/Nonsocial1.png,stimuli/Nonsocial2.png,stimuli/Test1.png,stimuli/Test2.png,"(-0.7, 0.5)",cs_plus_ns,"(0.7, 0.5)",cs_minus_ns,0,0,0,0,,,,,0,82,82,25,,349.7729813000187,ä,correct,0.3245689000468701,,37,B,2023-12-19_15h40.16.086,gca_discrimination,2022.2.4,144.03638933537061,
positions.xlsx,stimuli.xlsx,test.xlsx,stimuli/Social2.png,stimuli/Social1.png,stimuli/Nonsocial1.png,stimuli/Nonsocial2.png,stimuli/Test1.png,stimuli/Test2.png,"(0.7, -0.5)",cs_minus_s,"(0.7, 0.5)",cs_plus_s,0,0,0,0,,,,,0,83,83,23,,352.2589701998513,ä,correct,0.2870754001196474,,37,B,2023-12-19_15h40.16.086,gca_discrimination,2022.2.4,144.03638933537061,
positions.xlsx,stimuli.xlsx,test.xlsx,stimuli/Social2.png,stimuli/Social1.png,stimuli/Nonsocial1.png,stimuli/Nonsocial2.png,stimuli/Test1.png,stimuli/Test2.png,"(-0.7, -0.5)",cs_minus_s,"(-0.7, 0.5)",cs_minus_s,0,0,0,0,,,,,0,84,84,63,,354.7311144999694,l,correct,0.4789350002538413,,37,B,2023-12-19_15h40.16.086,gca_discrimination,2022.2.4,144.03638933537061,
positions.xlsx,stimuli.xlsx,test.xlsx,stimuli/Social2.png,stimuli/Social1.png,stimuli/Nonsocial1.png,stimuli/Nonsocial2.png,stimuli/Test1.png,stimuli/Test2.png,"(-0.7, -0.5)",cs_plus_s,"(0.7, 0.5)",cs_plus_s,0,0,0,0,,,,,0,85,85,52,,357.29352850001305,l,correct,0.27597979991696775,,37,B,2023-12-19_15h40.16.086,gca_discrimination,2022.2.4,144.03638933537061,
positions.xlsx,stimuli.xlsx,test.xlsx,stimuli/Social2.png,stimuli/Social1.png,stimuli/Nonsocial1.png,stimuli/Nonsocial2.png,stimuli/Test1.png,stimuli/Test2.png,"(-0.7, -0.5)",cs_minus_s,"(0.7, 0.5)",cs_minus_s,0,0,0,0,,,,,0,86,86,64,,359.56428950000554,l,correct,0.5575099000707269,,37,B,2023-12-19_15h40.16.086,gca_discrimination,2022.2.4,144.03638933537061,
positions.xlsx,stimuli.xlsx,test.xlsx,stimuli/Social2.png,stimuli/Social1.png,stimuli/Nonsocial1.png,stimuli/Nonsocial2.png,stimuli/Test1.png,stimuli/Test2.png,"(0.7, -0.5)",cs_minus_s,"(-0.7, -0.5)",cs_minus_s,0,0,0,0,,,,,0,87,87,70,,362.11278149997815,l,correct,0.505042300093919,,37,B,2023-12-19_15h40.16.086,gca_discrimination,2022.2.4,144.03638933537061,
positions.xlsx,stimuli.xlsx,test.xlsx,stimuli/Social2.png,stimuli/Social1.png,stimuli/Nonsocial1.png,stimuli/Nonsocial2.png,stimuli/Test1.png,stimuli/Test2.png,"(-0.7, 0.5)",cs_minus_s,"(-0.7, -0.5)",cs_minus_s,0,0,0,0,,,,,0,88,88,60,,364.45293650007807,l,correct,0.34935090015642345,,37,B,2023-12-19_15h40.16.086,gca_discrimination,2022.2.4,144.03638933537061,
positions.xlsx,stimuli.xlsx,test.xlsx,stimuli/Social2.png,stimuli/Social1.png,stimuli/Nonsocial1.png,stimuli/Nonsocial2.png,stimuli/Test1.png,stimuli/Test2.png,"(0.7, -0.5)",cs_minus_ns,"(-0.7, 0.5)",cs_plus_ns,0,0,0,0,,,,,0,89,89,45,,367.33478450006805,ä,correct,0.3787490001413971,,37,B,2023-12-19_15h40.16.086,gca_discrimination,2022.2.4,144.03638933537061,
positions.xlsx,stimuli.xlsx,test.xlsx,stimuli/Social2.png,stimuli/Social1.png,stimuli/Nonsocial1.png,stimuli/Nonsocial2.png,stimuli/Test1.png,stimuli/Test2.png,"(-0.7, 0.5)",cs_minus_ns,"(0.7, -0.5)",cs_minus_ns,0,0,0,0,,,,,0,90,90,86,,370.4040993999224,l,correct,0.2309473000932485,,37,B,2023-12-19_15h40.16.086,gca_discrimination,2022.2.4,144.03638933537061,
positions.xlsx,stimuli.xlsx,test.xlsx,stimuli/Social2.png,stimuli/Social1.png,stimuli/Nonsocial1.png,stimuli/Nonsocial2.png,stimuli/Test1.png,stimuli/Test2.png,"(0.7, 0.5)",cs_plus_ns,"(0.7, -0.5)",cs_minus_ns,0,0,0,0,,,,,0,91,91,32,,373.11936399992555,ä,correct,0.6106616000179201,,37,B,2023-12-19_15h40.16.086,gca_discrimination,2022.2.4,144.03638933537061,
positions.xlsx,stimuli.xlsx,test.xlsx,stimuli/Social2.png,stimuli/Social1.png,stimuli/Nonsocial1.png,stimuli/Nonsocial2.png,stimuli/Test1.png,stimuli/Test2.png,"(0.7, 0.5)",cs_minus_s,"(-0.7, 0.5)",cs_minus_s,0,0,0,0,,,,,0,92,92,66,,376.1608348998707,l,correct,0.28113150014542043,,37,B,2023-12-19_15h40.16.086,gca_discrimination,2022.2.4,144.03638933537061,
positions.xlsx,stimuli.xlsx,test.xlsx,stimuli/Social2.png,stimuli/Social1.png,stimuli/Nonsocial1.png,stimuli/Nonsocial2.png,stimuli/Test1.png,stimuli/Test2.png,"(0.7, -0.5)",cs_plus_ns,"(-0.7, -0.5)",cs_plus_ns,0,0,0,0,,,,,0,93,93,82,,378.6746465000324,l,correct,0.5988848002161831,,37,B,2023-12-19_15h40.16.086,gca_discrimination,2022.2.4,144.03638933537061,
positions.xlsx,stimuli.xlsx,test.xlsx,stimuli/Social2.png,stimuli/Social1.png,stimuli/Nonsocial1.png,stimuli/Nonsocial2.png,stimuli/Test1.png,stimuli/Test2.png,"(0.7, -0.5)",cs_minus_ns,"(0.7, 0.5)",cs_plus_ns,0,0,0,0,,,,,0,94,94,47,,381.4592420998961,ä,correct,0.32640820019878447,,37,B,2023-12-19_15h40.16.086,gca_discrimination,2022.2.4,144.03638933537061,
positions.xlsx,stimuli.xlsx,test.xlsx,stimuli/Social2.png,stimuli/Social1.png,stimuli/Nonsocial1.png,stimuli/Nonsocial2.png,stimuli/Test1.png,stimuli/Test2.png,"(0.7, 0.5)",cs_plus_s,"(-0.7, 0.5)",cs_plus_s,0,0,0,0,,,,,0,95,95,54,,384.36886719986796,l,correct,0.2095745000988245,,37,B,2023-12-19_15h40.16.086,gca_discrimination,2022.2.4,144.03638933537061,
