posFile,stimFile,testFile,cs_plus_s,cs_minus_s,cs_plus_ns,cs_minus_ns,test1,test2,position1,trialtype,position2,comptype,blocks.thisRepN,blocks.thisTrialN,blocks.thisN,blocks.thisIndex,learning_trials.thisRepN,learning_trials.thisTrialN,learning_trials.thisN,learning_trials.thisIndex,trials.thisRepN,trials.thisTrialN,trials.thisN,trials.thisIndex,textStart.started,spaceStart.started,spaceStart.keys,spaceStart.rt,textStartExp.started,textExpImages.started,ImageLearning1.started,ImageLearning2.started,textSpace.started,spaceStartExp.started,spaceStartExp.keys,spaceStartExp.rt,blankScreen.started,blankScreen.stopped,fixcross.started,firstImage.started,fixcrossImage1.started,fixcrossITI.started,secondImage.started,fixcrossImage2.started,key.started,key.keys,key.rt,correctness,feedbackText.started,feedbackText.stopped,fixcrossEnd.started,fixcrossEnd.stopped,fixcross.stopped,textStartTask.started,textTaskImages.started,ImageTask1.started,ImageTask2.started,ImageTask3.started,ImageTask4.started,textTaskSpace.started,spaceStartTask.started,spaceStartTask.keys,spaceStartTask.rt,participant,group,date,expName,psychopyVersion,frameRate,
,,,,,,,,,,,,,,,,,,,,,,,,,9.594533299998147,9.594533299998147,space,3.2648258000117494,,,,,,,,,,,,,,,,,,,,,,,,,,,,,,,,,,,,11,B,2023-12-08_10h42.24.257,gca_discrimination,2022.2.4,143.79902649372661,
positions.xlsx,stimuli.xlsx,test.xlsx,stimuli/Social2.png,stimuli/Social1.png,stimuli/Nonsocial1.png,stimuli/Nonsocial2.png,stimuli/Test1.png,stimuli/Test2.png,"(0.7, 0.5)",test1,"(0.7, -0.5)",test2,0,0,0,0,0,0,0,11,,,,,,,,,12.879103799990844,12.879103799990844,12.879103799990844,12.879103799990844,12.879103799990844,12.879103799990844,space,27.333459700006642,40.2252654999902,41.26698200000101,41.26698200000101,42.280799000000115,42.280799000000115,42.412718399995356,42.92656549999083,42.92656549999083,43.06546479999088,l,1.5622637000051327,wrong,44.63480400000117,46.634758699990925,46.634758699990925,47.093100400001276,,,,,,,,,,,,11,B,2023-12-08_10h42.24.257,gca_discrimination,2022.2.4,143.79902649372661,
positions.xlsx,stimuli.xlsx,test.xlsx,stimuli/Social2.png,stimuli/Social1.png,stimuli/Nonsocial1.png,stimuli/Nonsocial2.png,stimuli/Test1.png,stimuli/Test2.png,"(-0.7, -0.5)",test2,"(0.7, -0.5)",test2,0,0,0,0,0,1,1,9,,,,,,,,,,,,,,,,,,,47.093100400001276,48.09302419998858,48.09302419998858,48.24582399999781,48.7457965999929,48.7457965999929,48.89853459999722,ä,0.6746621000056621,wrong,49.58606059999147,51.585965399994166,51.585965399994166,52.440110299998196,48.09302419998858,,,,,,,,,,,11,B,2023-12-08_10h42.24.257,gca_discrimination,2022.2.4,143.79902649372661,
positions.xlsx,stimuli.xlsx,test.xlsx,stimuli/Social2.png,stimuli/Social1.png,stimuli/Nonsocial1.png,stimuli/Nonsocial2.png,stimuli/Test1.png,stimuli/Test2.png,"(0.7, 0.5)",test2,"(-0.7, 0.5)",test1,0,0,0,0,0,2,2,13,,,,,,,,,,,,,,,,,,,52.440110299998196,53.440070199998445,53.440070199998445,53.59282209999219,54.09279989999777,54.09279989999777,54.245550799998455,ä,0.6541330000181915,correct,54.912243099999614,56.9121310999908,56.9121310999908,57.148236199995154,53.440070199998445,,,,,,,,,,,11,B,2023-12-08_10h42.24.257,gca_discrimination,2022.2.4,143.79902649372661,
positions.xlsx,stimuli.xlsx,test.xlsx,stimuli/Social2.png,stimuli/Social1.png,stimuli/Nonsocial1.png,stimuli/Nonsocial2.png,stimuli/Test1.png,stimuli/Test2.png,"(-0.7, -0.5)",test2,"(0.7, 0.5)",test2,0,0,0,0,0,3,3,7,,,,,,,,,,,,,,,,,,,57.148236199995154,58.14822350000031,58.14822350000031,58.30098200000066,58.80096419999609,58.80096419999609,58.95375049998984,l,0.5308417000051122,correct,59.495406299989554,61.49530650000088,61.49530650000088,62.23831679999421,58.14822350000031,,,,,,,,,,,11,B,2023-12-08_10h42.24.257,gca_discrimination,2022.2.4,143.79902649372661,
positions.xlsx,stimuli.xlsx,test.xlsx,stimuli/Social2.png,stimuli/Social1.png,stimuli/Nonsocial1.png,stimuli/Nonsocial2.png,stimuli/Test1.png,stimuli/Test2.png,"(0.7, -0.5)",test2,"(-0.7, 0.5)",test1,0,0,0,0,0,4,4,4,,,,,,,,,,,,,,,,,,,62.23831679999421,63.23828869999852,63.23828869999852,63.3910809999943,63.89107629998762,63.89107629998762,64.04380200000014,ä,0.4882890000153566,correct,64.54377530000056,66.54372509999666,66.54372509999666,67.15477989999636,63.23828869999852,,,,,,,,,,,11,B,2023-12-08_10h42.24.257,gca_discrimination,2022.2.4,143.79902649372661,
positions.xlsx,stimuli.xlsx,test.xlsx,stimuli/Social2.png,stimuli/Social1.png,stimuli/Nonsocial1.png,stimuli/Nonsocial2.png,stimuli/Test1.png,stimuli/Test2.png,"(-0.7, -0.5)",test1,"(0.7, 0.5)",test2,0,0,0,0,0,5,5,8,,,,,,,,,,,,,,,,,,,67.15477989999636,68.15476729998772,68.15476729998772,68.30753489999915,68.80754119998892,68.80754119998892,68.96034900000086,ä,0.5163359000143828,correct,69.48801729999832,71.48797509999713,71.48797509999713,72.1615402999887,68.15476729998772,,,,,,,,,,,11,B,2023-12-08_10h42.24.257,gca_discrimination,2022.2.4,143.79902649372661,
positions.xlsx,stimuli.xlsx,test.xlsx,stimuli/Social2.png,stimuli/Social1.png,stimuli/Nonsocial1.png,stimuli/Nonsocial2.png,stimuli/Test1.png,stimuli/Test2.png,"(-0.7, 0.5)",test2,"(-0.7, -0.5)",test2,0,0,0,0,0,6,6,1,,,,,,,,,,,,,,,,,,,72.1615402999887,73.1615071999986,73.1615071999986,73.31428599999344,73.81428179999057,73.81428179999057,73.96705369999108,l,0.8605249000102049,correct,74.83502959999896,76.83494839999184,76.83494839999184,77.80024779999803,73.1615071999986,,,,,,,,,,,11,B,2023-12-08_10h42.24.257,gca_discrimination,2022.2.4,143.79902649372661,
positions.xlsx,stimuli.xlsx,test.xlsx,stimuli/Social2.png,stimuli/Social1.png,stimuli/Nonsocial1.png,stimuli/Nonsocial2.png,stimuli/Test1.png,stimuli/Test2.png,"(0.7, 0.5)",test2,"(0.7, -0.5)",test1,0,0,0,0,0,7,7,6,,,,,,,,,,,,,,,,,,,77.80024779999803,78.8001787999965,78.8001787999965,78.95295519998763,79.45987769999192,79.45987769999192,79.60575370000151,ä,0.551329000008991,correct,80.16820729999745,82.16807749999862,82.16807749999862,82.7583530999982,78.8001787999965,,,,,,,,,,,11,B,2023-12-08_10h42.24.257,gca_discrimination,2022.2.4,143.79902649372661,
positions.xlsx,stimuli.xlsx,test.xlsx,stimuli/Social2.png,stimuli/Social1.png,stimuli/Nonsocial1.png,stimuli/Nonsocial2.png,stimuli/Test1.png,stimuli/Test2.png,"(-0.7, 0.5)",test2,"(0.7, 0.5)",test1,0,0,0,0,0,8,8,3,,,,,,,,,,,,,,,,,,,82.7583530999982,83.765253199992,83.765253199992,83.91111000000092,84.41107119999651,84.41107119999651,84.5638445999939,ä,1.15164090001781,correct,85.7235609999916,87.72344000000157,87.72344000000157,87.8623254999984,83.765253199992,,,,,,,,,,,11,B,2023-12-08_10h42.24.257,gca_discrimination,2022.2.4,143.79902649372661,
positions.xlsx,stimuli.xlsx,test.xlsx,stimuli/Social2.png,stimuli/Social1.png,stimuli/Nonsocial1.png,stimuli/Nonsocial2.png,stimuli/Test1.png,stimuli/Test2.png,"(0.7, -0.5)",test1,"(0.7, 0.5)",test2,0,0,0,0,0,9,9,0,,,,,,,,,,,,,,,,,,,87.8623254999984,88.86229009999079,88.86229009999079,89.0150738999946,89.51505629999156,89.51505629999156,89.66778489999706,ä,0.7359914000116987,correct,90.4107925999997,92.41075909999199,92.41075909999199,92.69545859999198,88.86229009999079,,,,,,,,,,,11,B,2023-12-08_10h42.24.257,gca_discrimination,2022.2.4,143.79902649372661,
positions.xlsx,stimuli.xlsx,test.xlsx,stimuli/Social2.png,stimuli/Social1.png,stimuli/Nonsocial1.png,stimuli/Nonsocial2.png,stimuli/Test1.png,stimuli/Test2.png,"(-0.7, -0.5)",test2,"(-0.7, 0.5)",test2,0,0,0,0,0,10,10,2,,,,,,,,,,,,,,,,,,,92.69545859999198,93.69543039999553,93.69543039999553,93.84819910000078,94.34816499998851,94.34816499998851,94.50094979999994,l,0.8075126000185264,correct,95.3203680000006,97.32028369999898,97.32028369999898,98.27164110000012,93.69543039999553,,,,,,,,,,,11,B,2023-12-08_10h42.24.257,gca_discrimination,2022.2.4,143.79902649372661,
positions.xlsx,stimuli.xlsx,test.xlsx,stimuli/Social2.png,stimuli/Social1.png,stimuli/Nonsocial1.png,stimuli/Nonsocial2.png,stimuli/Test1.png,stimuli/Test2.png,"(0.7, -0.5)",test1,"(0.7, 0.5)",test1,0,0,0,0,0,11,11,10,,,,,,,,,,,,,,,,,,,98.27164110000012,99.27158939999936,99.27158939999936,99.42436710000038,99.92437169999175,99.92437169999175,100.07714939999278,ä,0.7584630000055768,wrong,100.84792169999855,102.8478546999977,102.8478546999977,103.41728639999928,99.27158939999936,,,,,,,,,,,11,B,2023-12-08_10h42.24.257,gca_discrimination,2022.2.4,143.79902649372661,
positions.xlsx,stimuli.xlsx,test.xlsx,stimuli/Social2.png,stimuli/Social1.png,stimuli/Nonsocial1.png,stimuli/Nonsocial2.png,stimuli/Test1.png,stimuli/Test2.png,"(-0.7, 0.5)",test2,"(0.7, -0.5)",test1,0,0,0,0,0,12,12,12,,,,,,,,,,,,,,,,,,,103.41728639999928,104.41723239999556,104.41723239999556,104.56998049998947,105.07000419999531,105.07000419999531,105.22275889999582,ä,0.7569282000185922,correct,105.9866034000006,107.986510799994,107.986510799994,108.11153840000043,104.41723239999556,,,,,,,,,,,11,B,2023-12-08_10h42.24.257,gca_discrimination,2022.2.4,143.79902649372661,
positions.xlsx,stimuli.xlsx,test.xlsx,stimuli/Social2.png,stimuli/Social1.png,stimuli/Nonsocial1.png,stimuli/Nonsocial2.png,stimuli/Test1.png,stimuli/Test2.png,"(-0.7, 0.5)",test1,"(0.7, -0.5)",test1,0,0,0,0,0,13,13,5,,,,,,,,,,,,,,,,,,,108.11153840000043,109.11148110000067,109.11148110000067,109.26424589999078,109.7642429999978,109.7642429999978,109.91702319998876,l,0.8465765000146348,correct,110.77116239999305,112.77108729998872,112.77108729998872,113.03496669999731,109.11148110000067,,,,,,,,,,,11,B,2023-12-08_10h42.24.257,gca_discrimination,2022.2.4,143.79902649372661,
positions.xlsx,stimuli.xlsx,test.xlsx,stimuli/Social2.png,stimuli/Social1.png,stimuli/Nonsocial1.png,stimuli/Nonsocial2.png,stimuli/Test1.png,stimuli/Test2.png,"(0.7, -0.5)",cs_minus_ns,"(-0.7, -0.5)",cs_minus_ns,0,0,0,0,,,,,0,0,0,94,,,,,,,,,,,,,125.30530279999948,126.95804409999982,126.95804409999982,127.95798779999313,127.95798779999313,128.09688879999158,128.60381619998952,128.60381619998952,128.74961990000156,ä,0.8551780000125291,wrong,,,129.61763359999168,129.63153239998792,,113.03496669999731,113.03496669999731,113.03496669999731,113.03496669999731,113.03496669999731,113.03496669999731,113.03496669999731,113.03496669999731,space,12.256965300010052,11,B,2023-12-08_10h42.24.257,gca_discrimination,2022.2.4,143.79902649372661,
positions.xlsx,stimuli.xlsx,test.xlsx,stimuli/Social2.png,stimuli/Social1.png,stimuli/Nonsocial1.png,stimuli/Nonsocial2.png,stimuli/Test1.png,stimuli/Test2.png,"(0.7, -0.5)",cs_minus_s,"(-0.7, -0.5)",cs_minus_s,0,0,0,0,,,,,0,1,1,70,,,,,,,,,,,,,,,129.63153239998792,130.638449399994,130.638449399994,130.7842527999892,131.29120110000076,131.29120110000076,131.4370143999986,l,1.3992896000127075,correct,,,132.8466727999912,133.04112759999407,130.638449399994,,,,,,,,,,,11,B,2023-12-08_10h42.24.257,gca_discrimination,2022.2.4,143.79902649372661,
positions.xlsx,stimuli.xlsx,test.xlsx,stimuli/Social2.png,stimuli/Social1.png,stimuli/Nonsocial1.png,stimuli/Nonsocial2.png,stimuli/Test1.png,stimuli/Test2.png,"(0.7, 0.5)",cs_plus_ns,"(-0.7, 0.5)",cs_plus_ns,0,0,0,0,,,,,0,2,2,78,,,,,,,,,,,,,,,133.04112759999407,134.04800669998804,134.04800669998804,134.1938642999885,134.7008286999917,134.7008286999917,134.84661429999687,l,0.9978935000108322,correct,,,135.85349379999388,135.94379579999077,134.04800669998804,,,,,,,,,,,11,B,2023-12-08_10h42.24.257,gca_discrimination,2022.2.4,143.79902649372661,
positions.xlsx,stimuli.xlsx,test.xlsx,stimuli/Social2.png,stimuli/Social1.png,stimuli/Nonsocial1.png,stimuli/Nonsocial2.png,stimuli/Test1.png,stimuli/Test2.png,"(-0.7, 0.5)",cs_minus_ns,"(-0.7, -0.5)",cs_plus_ns,0,0,0,0,,,,,0,3,3,36,,,,,,,,,,,,,,,135.94379579999077,136.95070399998804,136.95070399998804,137.09650279999187,137.60343819999252,137.60343819999252,137.74925059999805,l,0.7994294000091031,wrong,,,138.56177989998832,139.32561010000063,136.95070399998804,,,,,,,,,,,11,B,2023-12-08_10h42.24.257,gca_discrimination,2022.2.4,143.79902649372661,
positions.xlsx,stimuli.xlsx,test.xlsx,stimuli/Social2.png,stimuli/Social1.png,stimuli/Nonsocial1.png,stimuli/Nonsocial2.png,stimuli/Test1.png,stimuli/Test2.png,"(0.7, 0.5)",cs_minus_s,"(-0.7, 0.5)",cs_plus_s,0,0,0,0,,,,,0,4,4,18,,,,,,,,,,,,,,,139.32561010000063,140.33251409999502,140.33251409999502,140.47831359998963,140.98527039999317,140.98527039999317,141.13111379998736,ä,0.7127638000092702,correct,,,141.8532961999881,142.79771569999866,140.33251409999502,,,,,,,,,,,11,B,2023-12-08_10h42.24.257,gca_discrimination,2022.2.4,143.79902649372661,
positions.xlsx,stimuli.xlsx,test.xlsx,stimuli/Social2.png,stimuli/Social1.png,stimuli/Nonsocial1.png,stimuli/Nonsocial2.png,stimuli/Test1.png,stimuli/Test2.png,"(-0.7, -0.5)",cs_minus_s,"(0.7, -0.5)",cs_minus_s,0,0,0,0,,,,,0,5,5,65,,,,,,,,,,,,,,,142.79771569999866,143.80460839999432,143.80460839999432,143.95041269999638,144.45737139999983,144.45737139999983,144.60320559999673,l,0.7932166000100551,correct,,,145.40869759999623,145.9156268999941,143.80460839999432,,,,,,,,,,,11,B,2023-12-08_10h42.24.257,gca_discrimination,2022.2.4,143.79902649372661,
positions.xlsx,stimuli.xlsx,test.xlsx,stimuli/Social2.png,stimuli/Social1.png,stimuli/Nonsocial1.png,stimuli/Nonsocial2.png,stimuli/Test1.png,stimuli/Test2.png,"(0.7, 0.5)",cs_minus_ns,"(0.7, -0.5)",cs_plus_ns,0,0,0,0,,,,,0,6,6,44,,,,,,,,,,,,,,,145.9156268999941,146.92255699999805,146.92255699999805,147.06833090000146,147.57529769999383,147.57529769999383,147.72107410000172,ä,1.235682300015469,correct,,,148.96412579999014,149.71406529999513,146.92255699999805,,,,,,,,,,,11,B,2023-12-08_10h42.24.257,gca_discrimination,2022.2.4,143.79902649372661,
positions.xlsx,stimuli.xlsx,test.xlsx,stimuli/Social2.png,stimuli/Social1.png,stimuli/Nonsocial1.png,stimuli/Nonsocial2.png,stimuli/Test1.png,stimuli/Test2.png,"(-0.7, 0.5)",cs_plus_s,"(0.7, 0.5)",cs_plus_s,0,0,0,0,,,,,0,7,7,49,,,,,,,,,,,,,,,149.71406529999513,150.72097359999316,150.72097359999316,150.8668018999888,151.3737267999968,151.3737267999968,151.51957419999235,ä,1.2601895000116201,wrong,,,152.79036889999406,152.9709123999928,150.72097359999316,,,,,,,,,,,11,B,2023-12-08_10h42.24.257,gca_discrimination,2022.2.4,143.79902649372661,
positions.xlsx,stimuli.xlsx,test.xlsx,stimuli/Social2.png,stimuli/Social1.png,stimuli/Nonsocial1.png,stimuli/Nonsocial2.png,stimuli/Test1.png,stimuli/Test2.png,"(-0.7, 0.5)",cs_minus_s,"(0.7, -0.5)",cs_minus_s,0,0,0,0,,,,,0,8,8,62,,,,,,,,,,,,,,,152.9709123999928,153.9778202999878,153.9778202999878,154.12362649998977,154.6305938000005,154.6305938000005,154.77641690000019,ä,0.970981300008134,wrong,,,155.75550179999846,155.83191879998776,153.9778202999878,,,,,,,,,,,11,B,2023-12-08_10h42.24.257,gca_discrimination,2022.2.4,143.79902649372661,
positions.xlsx,stimuli.xlsx,test.xlsx,stimuli/Social2.png,stimuli/Social1.png,stimuli/Nonsocial1.png,stimuli/Nonsocial2.png,stimuli/Test1.png,stimuli/Test2.png,"(0.7, -0.5)",cs_plus_s,"(0.7, 0.5)",cs_minus_s,0,0,0,0,,,,,0,9,9,11,,,,,,,,,,,,,,,155.83191879998776,156.83882469999662,156.83882469999662,156.9846178000007,157.4915914999874,157.4915914999874,157.63741109998955,ä,1.686784900011844,correct,,,159.33177689999866,159.6720551999897,156.83882469999662,,,,,,,,,,,11,B,2023-12-08_10h42.24.257,gca_discrimination,2022.2.4,143.79902649372661,
positions.xlsx,stimuli.xlsx,test.xlsx,stimuli/Social2.png,stimuli/Social1.png,stimuli/Nonsocial1.png,stimuli/Nonsocial2.png,stimuli/Test1.png,stimuli/Test2.png,"(0.7, 0.5)",cs_plus_s,"(-0.7, 0.5)",cs_plus_s,0,0,0,0,,,,,0,10,10,54,,,,,,,,,,,,,,,159.6720551999897,160.6789540999889,160.6789540999889,160.82475709999562,161.3317253999994,161.3317253999994,161.47753619999276,l,0.7184645000088494,correct,,,162.20666329999221,162.859432799989,160.6789540999889,,,,,,,,,,,11,B,2023-12-08_10h42.24.257,gca_discrimination,2022.2.4,143.79902649372661,
positions.xlsx,stimuli.xlsx,test.xlsx,stimuli/Social2.png,stimuli/Social1.png,stimuli/Nonsocial1.png,stimuli/Nonsocial2.png,stimuli/Test1.png,stimuli/Test2.png,"(-0.7, 0.5)",cs_plus_ns,"(-0.7, -0.5)",cs_minus_ns,0,0,0,0,,,,,0,11,11,24,,,,,,,,,,,,,,,162.859432799989,163.8663216999994,163.8663216999994,164.01214999999502,164.51908079998975,164.51908079998975,164.6649611999892,l,0.9072683999984292,wrong,,,165.58151439999347,165.68568119998963,163.8663216999994,,,,,,,,,,,11,B,2023-12-08_10h42.24.257,gca_discrimination,2022.2.4,143.79902649372661,
positions.xlsx,stimuli.xlsx,test.xlsx,stimuli/Social2.png,stimuli/Social1.png,stimuli/Nonsocial1.png,stimuli/Nonsocial2.png,stimuli/Test1.png,stimuli/Test2.png,"(0.7, 0.5)",cs_minus_ns,"(-0.7, 0.5)",cs_plus_ns,0,0,0,0,,,,,0,12,12,42,,,,,,,,,,,,,,,165.68568119998963,166.69264219999604,166.69264219999604,166.83844199999294,167.34536139998818,167.34536139998818,167.4911834999948,ä,1.0339235000137705,correct,,,168.53279389999807,168.74115549999988,166.69264219999604,,,,,,,,,,,11,B,2023-12-08_10h42.24.257,gca_discrimination,2022.2.4,143.79902649372661,
positions.xlsx,stimuli.xlsx,test.xlsx,stimuli/Social2.png,stimuli/Social1.png,stimuli/Nonsocial1.png,stimuli/Nonsocial2.png,stimuli/Test1.png,stimuli/Test2.png,"(0.7, -0.5)",cs_plus_s,"(0.7, 0.5)",cs_plus_s,0,0,0,0,,,,,0,13,13,59,,,,,,,,,,,,,,,168.74115549999988,169.748056299999,169.748056299999,169.89384289999725,170.40082729999267,170.40082729999267,170.54664000000048,l,0.4891632000071695,correct,,,171.0466097999888,171.48408329999074,169.748056299999,,,,,,,,,,,11,B,2023-12-08_10h42.24.257,gca_discrimination,2022.2.4,143.79902649372661,
positions.xlsx,stimuli.xlsx,test.xlsx,stimuli/Social2.png,stimuli/Social1.png,stimuli/Nonsocial1.png,stimuli/Nonsocial2.png,stimuli/Test1.png,stimuli/Test2.png,"(-0.7, -0.5)",cs_plus_s,"(0.7, -0.5)",cs_plus_s,0,0,0,0,,,,,0,14,14,53,,,,,,,,,,,,,,,171.48408329999074,172.49096529999224,172.49096529999224,172.6367714999942,173.1437442999886,173.1437442999886,173.289600899996,l,0.7066939000069397,correct,,,174.00477769999998,174.52563199998986,172.49096529999224,,,,,,,,,,,11,B,2023-12-08_10h42.24.257,gca_discrimination,2022.2.4,143.79902649372661,
positions.xlsx,stimuli.xlsx,test.xlsx,stimuli/Social2.png,stimuli/Social1.png,stimuli/Nonsocial1.png,stimuli/Nonsocial2.png,stimuli/Test1.png,stimuli/Test2.png,"(-0.7, 0.5)",cs_plus_ns,"(0.7, 0.5)",cs_plus_ns,0,0,0,0,,,,,0,15,15,73,,,,,,,,,,,,,,,174.52563199998986,175.53253889999178,175.53253889999178,175.67836419999367,176.18530169999576,176.18530169999576,176.33110689999012,l,1.5052596000168705,correct,,,177.8449316999904,178.20605809999688,175.53253889999178,,,,,,,,,,,11,B,2023-12-08_10h42.24.257,gca_discrimination,2022.2.4,143.79902649372661,
positions.xlsx,stimuli.xlsx,test.xlsx,stimuli/Social2.png,stimuli/Social1.png,stimuli/Nonsocial1.png,stimuli/Nonsocial2.png,stimuli/Test1.png,stimuli/Test2.png,"(0.7, 0.5)",cs_plus_s,"(0.7, -0.5)",cs_plus_s,0,0,0,0,,,,,0,16,16,56,,,,,,,,,,,,,,,178.20605809999688,179.2129630999989,179.2129630999989,179.3587711,179.86572989998967,179.86572989998967,180.01152889999503,l,0.4401448000135133,correct,,,180.4629227999976,181.26841350000177,179.2129630999989,,,,,,,,,,,11,B,2023-12-08_10h42.24.257,gca_discrimination,2022.2.4,143.79902649372661,
positions.xlsx,stimuli.xlsx,test.xlsx,stimuli/Social2.png,stimuli/Social1.png,stimuli/Nonsocial1.png,stimuli/Nonsocial2.png,stimuli/Test1.png,stimuli/Test2.png,"(-0.7, 0.5)",cs_minus_ns,"(-0.7, -0.5)",cs_minus_ns,0,0,0,0,,,,,0,17,17,84,,,,,,,,,,,,,,,181.26841350000177,182.2753187999915,182.2753187999915,182.42114249999577,182.92810219999228,182.92810219999228,183.07391389999248,l,0.4415916000143625,correct,,,183.525278599991,184.38636279999628,182.2753187999915,,,,,,,,,,,11,B,2023-12-08_10h42.24.257,gca_discrimination,2022.2.4,143.79902649372661,
positions.xlsx,stimuli.xlsx,test.xlsx,stimuli/Social2.png,stimuli/Social1.png,stimuli/Nonsocial1.png,stimuli/Nonsocial2.png,stimuli/Test1.png,stimuli/Test2.png,"(0.7, 0.5)",cs_plus_s,"(-0.7, -0.5)",cs_plus_s,0,0,0,0,,,,,0,18,18,55,,,,,,,,,,,,,,,184.38636279999628,185.3932621999993,185.3932621999993,185.5390924999956,186.04604319999635,186.04604319999635,186.19186539998918,l,0.5800757000106387,correct,,,186.7820750999963,187.48345669999253,185.3932621999993,,,,,,,,,,,11,B,2023-12-08_10h42.24.257,gca_discrimination,2022.2.4,143.79902649372661,
positions.xlsx,stimuli.xlsx,test.xlsx,stimuli/Social2.png,stimuli/Social1.png,stimuli/Nonsocial1.png,stimuli/Nonsocial2.png,stimuli/Test1.png,stimuli/Test2.png,"(-0.7, 0.5)",cs_plus_s,"(-0.7, -0.5)",cs_plus_s,0,0,0,0,,,,,0,19,19,48,,,,,,,,,,,,,,,187.48345669999253,188.49036640000122,188.49036640000122,188.63620559999254,189.14308319998963,189.14308319998963,189.28896219999297,l,0.419119900019723,correct,,,189.71949749998748,189.87918550000177,188.49036640000122,,,,,,,,,,,11,B,2023-12-08_10h42.24.257,gca_discrimination,2022.2.4,143.79902649372661,
positions.xlsx,stimuli.xlsx,test.xlsx,stimuli/Social2.png,stimuli/Social1.png,stimuli/Nonsocial1.png,stimuli/Nonsocial2.png,stimuli/Test1.png,stimuli/Test2.png,"(-0.7, -0.5)",cs_minus_ns,"(-0.7, 0.5)",cs_plus_ns,0,0,0,0,,,,,0,20,20,39,,,,,,,,,,,,,,,189.87918550000177,190.88611379999202,190.88611379999202,191.03192869998747,191.5388602999883,191.5388602999883,191.68469679998816,ä,1.0628082000039285,correct,,,192.76098719998845,193.3443486999895,190.88611379999202,,,,,,,,,,,11,B,2023-12-08_10h42.24.257,gca_discrimination,2022.2.4,143.79902649372661,
positions.xlsx,stimuli.xlsx,test.xlsx,stimuli/Social2.png,stimuli/Social1.png,stimuli/Nonsocial1.png,stimuli/Nonsocial2.png,stimuli/Test1.png,stimuli/Test2.png,"(0.7, 0.5)",cs_minus_s,"(-0.7, 0.5)",cs_minus_s,0,0,0,0,,,,,0,21,21,66,,,,,,,,,,,,,,,193.3443486999895,194.3512275999965,194.3512275999965,194.4970922999928,195.00398949999362,195.00398949999362,195.14982749999035,ä,1.1421688000118593,wrong,,,196.30254979999154,196.89977249999356,194.3512275999965,,,,,,,,,,,11,B,2023-12-08_10h42.24.257,gca_discrimination,2022.2.4,143.79902649372661,
positions.xlsx,stimuli.xlsx,test.xlsx,stimuli/Social2.png,stimuli/Social1.png,stimuli/Nonsocial1.png,stimuli/Nonsocial2.png,stimuli/Test1.png,stimuli/Test2.png,"(0.7, -0.5)",cs_minus_s,"(-0.7, 0.5)",cs_minus_s,0,0,0,0,,,,,0,22,22,69,,,,,,,,,,,,,,,196.89977249999356,197.9066434999986,197.9066434999986,198.05250609999348,198.55942539998796,198.55942539998796,198.70527419999416,ä,0.46644420000666287,wrong,,,199.18439299998863,199.66354959999444,197.9066434999986,,,,,,,,,,,11,B,2023-12-08_10h42.24.257,gca_discrimination,2022.2.4,143.79902649372661,
positions.xlsx,stimuli.xlsx,test.xlsx,stimuli/Social2.png,stimuli/Social1.png,stimuli/Nonsocial1.png,stimuli/Nonsocial2.png,stimuli/Test1.png,stimuli/Test2.png,"(-0.7, -0.5)",cs_plus_ns,"(-0.7, 0.5)",cs_minus_ns,0,0,0,0,,,,,0,23,23,27,,,,,,,,,,,,,,,199.66354959999444,200.67045179998968,200.67045179998968,200.8162708000018,201.32319499998994,201.32319499998994,201.46901829999115,l,0.5987606000126107,wrong,,,202.08012210000015,202.93424709999817,200.67045179998968,,,,,,,,,,,11,B,2023-12-08_10h42.24.257,gca_discrimination,2022.2.4,143.79902649372661,
positions.xlsx,stimuli.xlsx,test.xlsx,stimuli/Social2.png,stimuli/Social1.png,stimuli/Nonsocial1.png,stimuli/Nonsocial2.png,stimuli/Test1.png,stimuli/Test2.png,"(-0.7, 0.5)",cs_plus_ns,"(0.7, -0.5)",cs_plus_ns,0,0,0,0,,,,,0,24,24,74,,,,,,,,,,,,,,,202.93424709999817,203.94113269999798,203.94113269999798,204.0869543000008,204.5939217999985,204.5939217999985,204.73972649998905,l,0.7840376000094693,correct,,,205.53133959999832,205.71887509999215,203.94113269999798,,,,,,,,,,,11,B,2023-12-08_10h42.24.257,gca_discrimination,2022.2.4,143.79902649372661,
positions.xlsx,stimuli.xlsx,test.xlsx,stimuli/Social2.png,stimuli/Social1.png,stimuli/Nonsocial1.png,stimuli/Nonsocial2.png,stimuli/Test1.png,stimuli/Test2.png,"(0.7, -0.5)",cs_plus_s,"(-0.7, -0.5)",cs_minus_s,0,0,0,0,,,,,0,25,25,10,,,,,,,,,,,,,,,205.71887509999215,206.72578709998925,206.72578709998925,206.87159399999655,207.37849239999196,207.37849239999196,207.52434869999706,ä,0.7359825000021374,correct,,,208.26740009999776,208.54513269999006,206.72578709998925,,,,,,,,,,,11,B,2023-12-08_10h42.24.257,gca_discrimination,2022.2.4,143.79902649372661,
positions.xlsx,stimuli.xlsx,test.xlsx,stimuli/Social2.png,stimuli/Social1.png,stimuli/Nonsocial1.png,stimuli/Nonsocial2.png,stimuli/Test1.png,stimuli/Test2.png,"(-0.7, -0.5)",cs_minus_ns,"(0.7, 0.5)",cs_minus_ns,0,0,0,0,,,,,0,26,26,88,,,,,,,,,,,,,,,208.54513269999006,209.55208670000138,209.55208670000138,209.69789169999422,210.20478909999656,210.20478909999656,210.3506223000004,l,0.7980361000081757,correct,,,211.15614779999305,211.43393119999382,209.55208670000138,,,,,,,,,,,11,B,2023-12-08_10h42.24.257,gca_discrimination,2022.2.4,143.79902649372661,
positions.xlsx,stimuli.xlsx,test.xlsx,stimuli/Social2.png,stimuli/Social1.png,stimuli/Nonsocial1.png,stimuli/Nonsocial2.png,stimuli/Test1.png,stimuli/Test2.png,"(-0.7, -0.5)",cs_minus_ns,"(0.7, 0.5)",cs_plus_ns,0,0,0,0,,,,,0,27,27,40,,,,,,,,,,,,,,,211.43393119999382,212.440806899991,212.440806899991,212.58662599998934,213.09359309999854,213.09359309999854,213.23939849999442,ä,0.8044075000070734,correct,,,214.051850799995,214.58657590000075,212.440806899991,,,,,,,,,,,11,B,2023-12-08_10h42.24.257,gca_discrimination,2022.2.4,143.79902649372661,
positions.xlsx,stimuli.xlsx,test.xlsx,stimuli/Social2.png,stimuli/Social1.png,stimuli/Nonsocial1.png,stimuli/Nonsocial2.png,stimuli/Test1.png,stimuli/Test2.png,"(0.7, 0.5)",cs_minus_ns,"(-0.7, -0.5)",cs_minus_ns,0,0,0,0,,,,,0,28,28,91,,,,,,,,,,,,,,,214.58657590000075,215.59350219999033,215.59350219999033,215.7393153999874,216.24622829999134,216.24622829999134,216.39204909998807,l,1.259896800009301,correct,,,217.66283449999173,218.38503849999688,215.59350219999033,,,,,,,,,,,11,B,2023-12-08_10h42.24.257,gca_discrimination,2022.2.4,143.79902649372661,
positions.xlsx,stimuli.xlsx,test.xlsx,stimuli/Social2.png,stimuli/Social1.png,stimuli/Nonsocial1.png,stimuli/Nonsocial2.png,stimuli/Test1.png,stimuli/Test2.png,"(-0.7, 0.5)",cs_minus_s,"(0.7, -0.5)",cs_plus_s,0,0,0,0,,,,,0,29,29,14,,,,,,,,,,,,,,,218.38503849999688,219.39193499999237,219.39193499999237,219.537774299999,220.04471740000008,220.04471740000008,220.19052889999875,ä,0.5738313000183553,correct,,,220.7738316999894,220.85717839999415,219.39193499999237,,,,,,,,,,,11,B,2023-12-08_10h42.24.257,gca_discrimination,2022.2.4,143.79902649372661,
positions.xlsx,stimuli.xlsx,test.xlsx,stimuli/Social2.png,stimuli/Social1.png,stimuli/Nonsocial1.png,stimuli/Nonsocial2.png,stimuli/Test1.png,stimuli/Test2.png,"(-0.7, -0.5)",cs_plus_ns,"(0.7, -0.5)",cs_minus_ns,0,0,0,0,,,,,0,30,30,29,,,,,,,,,,,,,,,220.85717839999415,221.86401509999996,221.86401509999996,222.00989829999162,222.51680729999498,222.51680729999498,222.6626271999994,l,0.8849834000138799,wrong,,,223.55842859999393,223.98203400000057,221.86401509999996,,,,,,,,,,,11,B,2023-12-08_10h42.24.257,gca_discrimination,2022.2.4,143.79902649372661,
positions.xlsx,stimuli.xlsx,test.xlsx,stimuli/Social2.png,stimuli/Social1.png,stimuli/Nonsocial1.png,stimuli/Nonsocial2.png,stimuli/Test1.png,stimuli/Test2.png,"(0.7, 0.5)",cs_minus_ns,"(0.7, -0.5)",cs_minus_ns,0,0,0,0,,,,,0,31,31,92,,,,,,,,,,,,,,,223.98203400000057,224.98893139998836,224.98893139998836,225.13474219999625,225.64166449999902,225.64166449999902,225.7875073999894,l,1.1612330000061775,correct,,,226.96108709998953,227.42633849999402,224.98893139998836,,,,,,,,,,,11,B,2023-12-08_10h42.24.257,gca_discrimination,2022.2.4,143.79902649372661,
positions.xlsx,stimuli.xlsx,test.xlsx,stimuli/Social2.png,stimuli/Social1.png,stimuli/Nonsocial1.png,stimuli/Nonsocial2.png,stimuli/Test1.png,stimuli/Test2.png,"(0.7, -0.5)",cs_plus_ns,"(-0.7, -0.5)",cs_minus_ns,0,0,0,0,,,,,0,32,32,34,,,,,,,,,,,,,,,227.42633849999402,228.43322399999306,228.43322399999306,228.57909059998929,229.08604369999375,229.08604369999375,229.23181399999885,l,0.7481895000091754,wrong,,,229.9887291999912,230.88453189999564,228.43322399999306,,,,,,,,,,,11,B,2023-12-08_10h42.24.257,gca_discrimination,2022.2.4,143.79902649372661,
positions.xlsx,stimuli.xlsx,test.xlsx,stimuli/Social2.png,stimuli/Social1.png,stimuli/Nonsocial1.png,stimuli/Nonsocial2.png,stimuli/Test1.png,stimuli/Test2.png,"(0.7, 0.5)",cs_plus_s,"(-0.7, -0.5)",cs_minus_s,0,0,0,0,,,,,0,33,33,7,,,,,,,,,,,,,,,230.88453189999564,231.89142909999646,231.89142909999646,232.0372866999969,232.54420249999384,232.54420249999384,232.69006549999176,ä,0.5936325000075158,correct,,,233.2941748999874,234.09964669999317,231.89142909999646,,,,,,,,,,,11,B,2023-12-08_10h42.24.257,gca_discrimination,2022.2.4,143.79902649372661,
positions.xlsx,stimuli.xlsx,test.xlsx,stimuli/Social2.png,stimuli/Social1.png,stimuli/Nonsocial1.png,stimuli/Nonsocial2.png,stimuli/Test1.png,stimuli/Test2.png,"(0.7, -0.5)",cs_minus_ns,"(-0.7, -0.5)",cs_plus_ns,0,0,0,0,,,,,0,34,34,46,,,,,,,,,,,,,,,234.09964669999317,235.10661399998935,235.10661399998935,235.25239759999386,235.759367199993,235.759367199993,235.90517759999784,l,1.14012520002143,wrong,,,237.0579219999927,237.09957349998876,235.10661399998935,,,,,,,,,,,11,B,2023-12-08_10h42.24.257,gca_discrimination,2022.2.4,143.79902649372661,
positions.xlsx,stimuli.xlsx,test.xlsx,stimuli/Social2.png,stimuli/Social1.png,stimuli/Nonsocial1.png,stimuli/Nonsocial2.png,stimuli/Test1.png,stimuli/Test2.png,"(0.7, 0.5)",cs_minus_ns,"(-0.7, 0.5)",cs_minus_ns,0,0,0,0,,,,,0,35,35,90,,,,,,,,,,,,,,,237.09957349998876,238.10648999999103,238.10648999999103,238.25232149999647,238.75921409999137,238.75921409999137,238.90503609999723,l,0.6352509000134887,correct,,,239.55084799999895,240.21751219998987,238.10648999999103,,,,,,,,,,,11,B,2023-12-08_10h42.24.257,gca_discrimination,2022.2.4,143.79902649372661,
positions.xlsx,stimuli.xlsx,test.xlsx,stimuli/Social2.png,stimuli/Social1.png,stimuli/Nonsocial1.png,stimuli/Nonsocial2.png,stimuli/Test1.png,stimuli/Test2.png,"(0.7, 0.5)",cs_minus_s,"(-0.7, -0.5)",cs_minus_s,0,0,0,0,,,,,0,36,36,67,,,,,,,,,,,,,,,240.21751219998987,241.22442829998909,241.22442829998909,241.37024399999063,241.8771820999973,241.8771820999973,242.02300669999386,l,0.7894234000123106,correct,,,242.82155179999245,243.52293189999182,241.22442829998909,,,,,,,,,,,11,B,2023-12-08_10h42.24.257,gca_discrimination,2022.2.4,143.79902649372661,
positions.xlsx,stimuli.xlsx,test.xlsx,stimuli/Social2.png,stimuli/Social1.png,stimuli/Nonsocial1.png,stimuli/Nonsocial2.png,stimuli/Test1.png,stimuli/Test2.png,"(0.7, -0.5)",cs_plus_ns,"(-0.7, 0.5)",cs_plus_ns,0,0,0,0,,,,,0,37,37,81,,,,,,,,,,,,,,,243.52293189999182,244.52984959998867,244.52984959998867,244.67566689998785,245.18260489999375,245.18260489999375,245.32840829998895,l,0.6433464000147069,correct,,,245.9811941999942,246.87696609999693,244.52984959998867,,,,,,,,,,,11,B,2023-12-08_10h42.24.257,gca_discrimination,2022.2.4,143.79902649372661,
positions.xlsx,stimuli.xlsx,test.xlsx,stimuli/Social2.png,stimuli/Social1.png,stimuli/Nonsocial1.png,stimuli/Nonsocial2.png,stimuli/Test1.png,stimuli/Test2.png,"(0.7, -0.5)",cs_plus_ns,"(-0.7, -0.5)",cs_plus_ns,0,0,0,0,,,,,0,38,38,82,,,,,,,,,,,,,,,246.87696609999693,247.88387809999404,247.88387809999404,248.02973270000075,248.5366273999971,248.5366273999971,248.68245709998882,l,0.48286600002029445,correct,,,249.17548149998765,249.20324329999858,247.88387809999404,,,,,,,,,,,11,B,2023-12-08_10h42.24.257,gca_discrimination,2022.2.4,143.79902649372661,
positions.xlsx,stimuli.xlsx,test.xlsx,stimuli/Social2.png,stimuli/Social1.png,stimuli/Nonsocial1.png,stimuli/Nonsocial2.png,stimuli/Test1.png,stimuli/Test2.png,"(-0.7, 0.5)",cs_plus_ns,"(0.7, -0.5)",cs_minus_ns,0,0,0,0,,,,,0,39,39,26,,,,,,,,,,,,,,,249.20324329999858,250.21016679999593,250.21016679999593,250.35597479999706,250.86292619998858,250.86292619998858,251.008734499992,ä,1.196166900015669,correct,,,252.21702820000064,253.09202129999176,250.21016679999593,,,,,,,,,,,11,B,2023-12-08_10h42.24.257,gca_discrimination,2022.2.4,143.79902649372661,
positions.xlsx,stimuli.xlsx,test.xlsx,stimuli/Social2.png,stimuli/Social1.png,stimuli/Nonsocial1.png,stimuli/Nonsocial2.png,stimuli/Test1.png,stimuli/Test2.png,"(0.7, 0.5)",cs_minus_s,"(0.7, -0.5)",cs_plus_s,0,0,0,0,,,,,0,40,40,20,,,,,,,,,,,,,,,253.09202129999176,254.09890820000146,254.09890820000146,254.24471529999573,254.7516973999882,254.7516973999882,254.8974894999992,ä,0.7784730000130367,correct,,,255.68913329999486,255.8280143999873,254.09890820000146,,,,,,,,,,,11,B,2023-12-08_10h42.24.257,gca_discrimination,2022.2.4,143.79902649372661,
positions.xlsx,stimuli.xlsx,test.xlsx,stimuli/Social2.png,stimuli/Social1.png,stimuli/Nonsocial1.png,stimuli/Nonsocial2.png,stimuli/Test1.png,stimuli/Test2.png,"(-0.7, -0.5)",cs_plus_ns,"(0.7, -0.5)",cs_plus_ns,0,0,0,0,,,,,0,41,41,77,,,,,,,,,,,,,,,255.8280143999873,256.83491979999235,256.83491979999235,256.98074139999517,257.48767429999134,257.48767429999134,257.633516899994,l,0.5303140000178246,correct,,,258.1751450999873,258.6126494999917,256.83491979999235,,,,,,,,,,,11,B,2023-12-08_10h42.24.257,gca_discrimination,2022.2.4,143.79902649372661,
positions.xlsx,stimuli.xlsx,test.xlsx,stimuli/Social2.png,stimuli/Social1.png,stimuli/Nonsocial1.png,stimuli/Nonsocial2.png,stimuli/Test1.png,stimuli/Test2.png,"(-0.7, 0.5)",cs_minus_ns,"(0.7, 0.5)",cs_plus_ns,0,0,0,0,,,,,0,42,42,37,,,,,,,,,,,,,,,258.6126494999917,259.6195399999997,259.6195399999997,259.7653202999936,260.2723522999877,260.2723522999877,260.41809510000166,ä,1.233774700012873,correct,,,261.66112629999407,262.4180112999893,259.6195399999997,,,,,,,,,,,11,B,2023-12-08_10h42.24.257,gca_discrimination,2022.2.4,143.79902649372661,
positions.xlsx,stimuli.xlsx,test.xlsx,stimuli/Social2.png,stimuli/Social1.png,stimuli/Nonsocial1.png,stimuli/Nonsocial2.png,stimuli/Test1.png,stimuli/Test2.png,"(0.7, -0.5)",cs_plus_s,"(-0.7, -0.5)",cs_plus_s,0,0,0,0,,,,,0,43,43,58,,,,,,,,,,,,,,,262.4180112999893,263.4249234000017,263.4249234000017,263.570768199992,264.07766779999656,264.07766779999656,264.22352220000175,l,0.9319685000082245,correct,,,265.16792809999606,266.1400971999974,263.4249234000017,,,,,,,,,,,11,B,2023-12-08_10h42.24.257,gca_discrimination,2022.2.4,143.79902649372661,
positions.xlsx,stimuli.xlsx,test.xlsx,stimuli/Social2.png,stimuli/Social1.png,stimuli/Nonsocial1.png,stimuli/Nonsocial2.png,stimuli/Test1.png,stimuli/Test2.png,"(0.7, -0.5)",cs_plus_ns,"(0.7, 0.5)",cs_plus_ns,0,0,0,0,,,,,0,44,44,83,,,,,,,,,,,,,,,266.1400971999974,267.1470072999946,267.1470072999946,267.2928302999935,267.79976739999256,267.79976739999256,267.94557879999047,l,0.5153619000047911,correct,,,268.47334139999293,268.91081889999623,267.1470072999946,,,,,,,,,,,11,B,2023-12-08_10h42.24.257,gca_discrimination,2022.2.4,143.79902649372661,
positions.xlsx,stimuli.xlsx,test.xlsx,stimuli/Social2.png,stimuli/Social1.png,stimuli/Nonsocial1.png,stimuli/Nonsocial2.png,stimuli/Test1.png,stimuli/Test2.png,"(-0.7, -0.5)",cs_minus_ns,"(-0.7, 0.5)",cs_minus_ns,0,0,0,0,,,,,0,45,45,87,,,,,,,,,,,,,,,268.91081889999623,269.9177370999969,269.9177370999969,270.0635404999921,270.57047169998987,270.57047169998987,270.716310799995,l,0.6641759000194725,correct,,,271.38990539999213,271.99405249999836,269.9177370999969,,,,,,,,,,,11,B,2023-12-08_10h42.24.257,gca_discrimination,2022.2.4,143.79902649372661,
positions.xlsx,stimuli.xlsx,test.xlsx,stimuli/Social2.png,stimuli/Social1.png,stimuli/Nonsocial1.png,stimuli/Nonsocial2.png,stimuli/Test1.png,stimuli/Test2.png,"(-0.7, -0.5)",cs_minus_ns,"(0.7, -0.5)",cs_minus_ns,0,0,0,0,,,,,0,46,46,89,,,,,,,,,,,,,,,271.99405249999836,273.0009548999951,273.0009548999951,273.14677289999963,273.65372529999877,273.65372529999877,273.79952179999964,l,0.5807789000100456,correct,,,274.3897854999959,274.6883822999953,273.0009548999951,,,,,,,,,,,11,B,2023-12-08_10h42.24.257,gca_discrimination,2022.2.4,143.79902649372661,
positions.xlsx,stimuli.xlsx,test.xlsx,stimuli/Social2.png,stimuli/Social1.png,stimuli/Nonsocial1.png,stimuli/Nonsocial2.png,stimuli/Test1.png,stimuli/Test2.png,"(0.7, -0.5)",cs_minus_s,"(-0.7, -0.5)",cs_plus_s,0,0,0,0,,,,,0,47,47,22,,,,,,,,,,,,,,,274.6883822999953,275.69530849999865,275.69530849999865,275.8411221999995,276.34803100000136,276.34803100000136,276.4938803999976,ä,1.1261732000129996,correct,,,277.63268149999203,278.5910226999986,275.69530849999865,,,,,,,,,,,11,B,2023-12-08_10h42.24.257,gca_discrimination,2022.2.4,143.79902649372661,
positions.xlsx,stimuli.xlsx,test.xlsx,stimuli/Social2.png,stimuli/Social1.png,stimuli/Nonsocial1.png,stimuli/Nonsocial2.png,stimuli/Test1.png,stimuli/Test2.png,"(-0.7, -0.5)",cs_minus_ns,"(0.7, -0.5)",cs_plus_ns,0,0,0,0,,,,,0,48,48,41,,,,,,,,,,,,,,,278.5910226999986,279.5979212999955,279.5979212999955,279.7437523999979,280.25069599998824,280.25069599998824,280.39649759999884,ä,1.047298800011049,correct,,,281.4519988999964,282.1394891999953,279.5979212999955,,,,,,,,,,,11,B,2023-12-08_10h42.24.257,gca_discrimination,2022.2.4,143.79902649372661,
positions.xlsx,stimuli.xlsx,test.xlsx,stimuli/Social2.png,stimuli/Social1.png,stimuli/Nonsocial1.png,stimuli/Nonsocial2.png,stimuli/Test1.png,stimuli/Test2.png,"(-0.7, -0.5)",cs_plus_s,"(0.7, -0.5)",cs_minus_s,0,0,0,0,,,,,0,49,49,5,,,,,,,,,,,,,,,282.1394891999953,283.14638769999146,283.14638769999146,283.29221600000164,283.79916549999325,283.79916549999325,283.94497599999886,ä,0.5394616000121459,correct,,,284.4935223999928,285.188006899989,283.14638769999146,,,,,,,,,,,11,B,2023-12-08_10h42.24.257,gca_discrimination,2022.2.4,143.79902649372661,
positions.xlsx,stimuli.xlsx,test.xlsx,stimuli/Social2.png,stimuli/Social1.png,stimuli/Nonsocial1.png,stimuli/Nonsocial2.png,stimuli/Test1.png,stimuli/Test2.png,"(-0.7, -0.5)",cs_minus_s,"(0.7, 0.5)",cs_minus_s,0,0,0,0,,,,,0,50,50,64,,,,,,,,,,,,,,,285.188006899989,286.1949076999881,286.1949076999881,286.340741299995,286.8476553999935,286.8476553999935,286.99346810000134,ä,1.154541000010795,wrong,,,288.1600904999941,289.0211583999917,286.1949076999881,,,,,,,,,,,11,B,2023-12-08_10h42.24.257,gca_discrimination,2022.2.4,143.79902649372661,
positions.xlsx,stimuli.xlsx,test.xlsx,stimuli/Social2.png,stimuli/Social1.png,stimuli/Nonsocial1.png,stimuli/Nonsocial2.png,stimuli/Test1.png,stimuli/Test2.png,"(-0.7, -0.5)",cs_minus_s,"(-0.7, 0.5)",cs_minus_s,0,0,0,0,,,,,0,51,51,63,,,,,,,,,,,,,,,289.0211583999917,290.02806099999,290.02806099999,290.1739055999933,290.68079379999836,290.68079379999836,290.8266259999946,l,0.921591600010288,correct,,,291.75716029999603,292.1877075999946,290.02806099999,,,,,,,,,,,11,B,2023-12-08_10h42.24.257,gca_discrimination,2022.2.4,143.79902649372661,
positions.xlsx,stimuli.xlsx,test.xlsx,stimuli/Social2.png,stimuli/Social1.png,stimuli/Nonsocial1.png,stimuli/Nonsocial2.png,stimuli/Test1.png,stimuli/Test2.png,"(-0.7, 0.5)",cs_minus_s,"(0.7, 0.5)",cs_minus_s,0,0,0,0,,,,,0,52,52,61,,,,,,,,,,,,,,,292.1877075999946,293.1946132999874,293.1946132999874,293.3404199999932,293.8473675999994,293.8473675999994,293.9931915999914,l,0.7395778000209248,correct,,,294.74314229999436,294.9792548999976,293.1946132999874,,,,,,,,,,,11,B,2023-12-08_10h42.24.257,gca_discrimination,2022.2.4,143.79902649372661,
positions.xlsx,stimuli.xlsx,test.xlsx,stimuli/Social2.png,stimuli/Social1.png,stimuli/Nonsocial1.png,stimuli/Nonsocial2.png,stimuli/Test1.png,stimuli/Test2.png,"(0.7, -0.5)",cs_minus_ns,"(-0.7, 0.5)",cs_plus_ns,0,0,0,0,,,,,0,53,53,45,,,,,,,,,,,,,,,294.9792548999976,295.9861871999892,295.9861871999892,296.1320013999939,296.6389227999898,296.6389227999898,296.7847502999939,ä,0.6431542000209447,correct,,,297.43751099999645,298.38884519999556,295.9861871999892,,,,,,,,,,,11,B,2023-12-08_10h42.24.257,gca_discrimination,2022.2.4,143.79902649372661,
positions.xlsx,stimuli.xlsx,test.xlsx,stimuli/Social2.png,stimuli/Social1.png,stimuli/Nonsocial1.png,stimuli/Nonsocial2.png,stimuli/Test1.png,stimuli/Test2.png,"(0.7, -0.5)",cs_plus_s,"(-0.7, 0.5)",cs_minus_s,0,0,0,0,,,,,0,54,54,9,,,,,,,,,,,,,,,298.38884519999556,299.3957507000014,299.3957507000014,299.54158999999345,300.0485312999954,300.0485312999954,300.1943395999988,ä,0.7381711000198266,correct,,,300.9442901000002,301.67345789998944,299.3957507000014,,,,,,,,,,,11,B,2023-12-08_10h42.24.257,gca_discrimination,2022.2.4,143.79902649372661,
positions.xlsx,stimuli.xlsx,test.xlsx,stimuli/Social2.png,stimuli/Social1.png,stimuli/Nonsocial1.png,stimuli/Nonsocial2.png,stimuli/Test1.png,stimuli/Test2.png,"(0.7, -0.5)",cs_minus_ns,"(0.7, 0.5)",cs_plus_ns,0,0,0,0,,,,,0,55,55,47,,,,,,,,,,,,,,,301.67345789998944,302.6803535999934,302.6803535999934,302.8261664999882,303.33314899999823,303.33314899999823,303.4789143999951,ä,0.636629200016614,correct,,,304.1247344000003,304.6871900999977,302.6803535999934,,,,,,,,,,,11,B,2023-12-08_10h42.24.257,gca_discrimination,2022.2.4,143.79902649372661,
positions.xlsx,stimuli.xlsx,test.xlsx,stimuli/Social2.png,stimuli/Social1.png,stimuli/Nonsocial1.png,stimuli/Nonsocial2.png,stimuli/Test1.png,stimuli/Test2.png,"(0.7, 0.5)",cs_plus_ns,"(-0.7, -0.5)",cs_plus_ns,0,0,0,0,,,,,0,56,56,79,,,,,,,,,,,,,,,304.6871900999977,305.6941240999877,305.6941240999877,305.8399522999971,306.34685999999056,306.34685999999056,306.49270879999676,l,0.8150398000143468,correct,,,307.3190751999937,307.3329815999896,305.6941240999877,,,,,,,,,,,11,B,2023-12-08_10h42.24.257,gca_discrimination,2022.2.4,143.79902649372661,
positions.xlsx,stimuli.xlsx,test.xlsx,stimuli/Social2.png,stimuli/Social1.png,stimuli/Nonsocial1.png,stimuli/Nonsocial2.png,stimuli/Test1.png,stimuli/Test2.png,"(0.7, -0.5)",cs_plus_s,"(-0.7, 0.5)",cs_plus_s,0,0,0,0,,,,,0,57,57,57,,,,,,,,,,,,,,,307.3329815999896,308.33983459998854,308.33983459998854,308.4856555000006,308.99262229999295,308.99262229999295,309.1384371999884,l,0.6891157000063686,correct,,,309.83980750000046,310.4717485000001,308.33983459998854,,,,,,,,,,,11,B,2023-12-08_10h42.24.257,gca_discrimination,2022.2.4,143.79902649372661,
positions.xlsx,stimuli.xlsx,test.xlsx,stimuli/Social2.png,stimuli/Social1.png,stimuli/Nonsocial1.png,stimuli/Nonsocial2.png,stimuli/Test1.png,stimuli/Test2.png,"(-0.7, -0.5)",cs_minus_s,"(0.7, 0.5)",cs_plus_s,0,0,0,0,,,,,0,58,58,16,,,,,,,,,,,,,,,310.4717485000001,311.47863569999754,311.47863569999754,311.62441879999824,312.1313792000001,312.1313792000001,312.2772178999876,ä,0.9110233000101289,correct,,,313.20079609999084,313.9854995999922,311.47863569999754,,,,,,,,,,,11,B,2023-12-08_10h42.24.257,gca_discrimination,2022.2.4,143.79902649372661,
positions.xlsx,stimuli.xlsx,test.xlsx,stimuli/Social2.png,stimuli/Social1.png,stimuli/Nonsocial1.png,stimuli/Nonsocial2.png,stimuli/Test1.png,stimuli/Test2.png,"(0.7, -0.5)",cs_minus_s,"(0.7, 0.5)",cs_plus_s,0,0,0,0,,,,,0,59,59,23,,,,,,,,,,,,,,,313.9854995999922,314.9923776999931,314.9923776999931,315.1382051999972,315.6451277999877,315.6451277999877,315.7909340999904,ä,0.7015479000110645,correct,,,316.4992454999883,317.08256539999275,314.9923776999931,,,,,,,,,,,11,B,2023-12-08_10h42.24.257,gca_discrimination,2022.2.4,143.79902649372661,
positions.xlsx,stimuli.xlsx,test.xlsx,stimuli/Social2.png,stimuli/Social1.png,stimuli/Nonsocial1.png,stimuli/Nonsocial2.png,stimuli/Test1.png,stimuli/Test2.png,"(0.7, -0.5)",cs_minus_s,"(-0.7, 0.5)",cs_plus_s,0,0,0,0,,,,,0,60,60,21,,,,,,,,,,,,,,,317.08256539999275,318.0895002999896,318.0895002999896,318.23527409999224,318.74222899999586,318.74222899999586,318.888060199999,ä,0.5885135999997146,correct,,,319.4852535999962,319.74915409999085,318.0895002999896,,,,,,,,,,,11,B,2023-12-08_10h42.24.257,gca_discrimination,2022.2.4,143.79902649372661,
positions.xlsx,stimuli.xlsx,test.xlsx,stimuli/Social2.png,stimuli/Social1.png,stimuli/Nonsocial1.png,stimuli/Nonsocial2.png,stimuli/Test1.png,stimuli/Test2.png,"(-0.7, 0.5)",cs_minus_s,"(-0.7, -0.5)",cs_plus_s,0,0,0,0,,,,,0,61,61,12,,,,,,,,,,,,,,,319.74915409999085,320.7560253999982,320.7560253999982,320.9018825999956,321.40881189999345,321.40881189999345,321.5546400999883,ä,0.7451153000001796,correct,,,322.31153079999785,322.6170695999899,320.7560253999982,,,,,,,,,,,11,B,2023-12-08_10h42.24.257,gca_discrimination,2022.2.4,143.79902649372661,
positions.xlsx,stimuli.xlsx,test.xlsx,stimuli/Social2.png,stimuli/Social1.png,stimuli/Nonsocial1.png,stimuli/Nonsocial2.png,stimuli/Test1.png,stimuli/Test2.png,"(-0.7, 0.5)",cs_minus_ns,"(0.7, -0.5)",cs_plus_ns,0,0,0,0,,,,,0,62,62,38,,,,,,,,,,,,,,,322.6170695999899,323.6239518999937,323.6239518999937,323.76981800000067,324.27681579999626,324.27681579999626,324.4225807999901,ä,0.6228719000209821,correct,,,325.05457529998966,325.71417789999396,323.6239518999937,,,,,,,,,,,11,B,2023-12-08_10h42.24.257,gca_discrimination,2022.2.4,143.79902649372661,
positions.xlsx,stimuli.xlsx,test.xlsx,stimuli/Social2.png,stimuli/Social1.png,stimuli/Nonsocial1.png,stimuli/Nonsocial2.png,stimuli/Test1.png,stimuli/Test2.png,"(-0.7, 0.5)",cs_plus_s,"(0.7, 0.5)",cs_minus_s,0,0,0,0,,,,,0,63,63,1,,,,,,,,,,,,,,,325.71417789999396,326.7210667999898,326.7210667999898,326.8668963999953,327.3737775999907,327.3737775999907,327.5196200999926,ä,1.1559702000085963,correct,,,328.68627169998945,329.0543134999898,326.7210667999898,,,,,,,,,,,11,B,2023-12-08_10h42.24.257,gca_discrimination,2022.2.4,143.79902649372661,
positions.xlsx,stimuli.xlsx,test.xlsx,stimuli/Social2.png,stimuli/Social1.png,stimuli/Nonsocial1.png,stimuli/Nonsocial2.png,stimuli/Test1.png,stimuli/Test2.png,"(0.7, -0.5)",cs_minus_ns,"(-0.7, 0.5)",cs_minus_ns,0,0,0,0,,,,,0,64,64,93,,,,,,,,,,,,,,,329.0543134999898,330.06124719999207,330.06124719999207,330.20708309998736,330.7140031999879,330.7140031999879,330.8598275999975,l,0.8882414000108838,correct,,,331.75561279999965,332.00561319998815,330.06124719999207,,,,,,,,,,,11,B,2023-12-08_10h42.24.257,gca_discrimination,2022.2.4,143.79902649372661,
positions.xlsx,stimuli.xlsx,test.xlsx,stimuli/Social2.png,stimuli/Social1.png,stimuli/Nonsocial1.png,stimuli/Nonsocial2.png,stimuli/Test1.png,stimuli/Test2.png,"(-0.7, -0.5)",cs_plus_s,"(0.7, 0.5)",cs_plus_s,0,0,0,0,,,,,0,65,65,52,,,,,,,,,,,,,,,332.00561319998815,333.01250289999007,333.01250289999007,333.15832039999077,333.66524989999016,333.66524989999016,333.81107769999653,ä,0.8729170000151498,wrong,,,334.6930182999931,335.05409359998885,333.01250289999007,,,,,,,,,,,11,B,2023-12-08_10h42.24.257,gca_discrimination,2022.2.4,143.79902649372661,
positions.xlsx,stimuli.xlsx,test.xlsx,stimuli/Social2.png,stimuli/Social1.png,stimuli/Nonsocial1.png,stimuli/Nonsocial2.png,stimuli/Test1.png,stimuli/Test2.png,"(0.7, 0.5)",cs_plus_s,"(-0.7, 0.5)",cs_minus_s,0,0,0,0,,,,,0,66,66,6,,,,,,,,,,,,,,,335.05409359998885,336.0610450999957,336.0610450999957,336.2068285999994,336.71376889999374,336.71376889999374,336.8596031999914,ä,0.7360353000112809,correct,,,337.60260089999065,338.17202649998944,336.0610450999957,,,,,,,,,,,11,B,2023-12-08_10h42.24.257,gca_discrimination,2022.2.4,143.79902649372661,
positions.xlsx,stimuli.xlsx,test.xlsx,stimuli/Social2.png,stimuli/Social1.png,stimuli/Nonsocial1.png,stimuli/Nonsocial2.png,stimuli/Test1.png,stimuli/Test2.png,"(-0.7, -0.5)",cs_plus_ns,"(0.7, 0.5)",cs_plus_ns,0,0,0,0,,,,,0,67,67,76,,,,,,,,,,,,,,,338.17202649998944,339.1789718999935,339.1789718999935,339.3247488999914,339.83169589999306,339.83169589999306,339.97752039998886,l,0.6996950000029756,correct,,,340.6858069000009,341.23439040000085,339.1789718999935,,,,,,,,,,,11,B,2023-12-08_10h42.24.257,gca_discrimination,2022.2.4,143.79902649372661,
positions.xlsx,stimuli.xlsx,test.xlsx,stimuli/Social2.png,stimuli/Social1.png,stimuli/Nonsocial1.png,stimuli/Nonsocial2.png,stimuli/Test1.png,stimuli/Test2.png,"(0.7, -0.5)",cs_minus_s,"(0.7, 0.5)",cs_minus_s,0,0,0,0,,,,,0,68,68,71,,,,,,,,,,,,,,,341.23439040000085,342.24133189998975,342.24133189998975,342.3871663999889,342.89403859998856,342.89403859998856,343.03989569999976,None,,no answer,,,345.03985190000094,345.5120209000015,342.24133189998975,,,,,,,,,,,11,B,2023-12-08_10h42.24.257,gca_discrimination,2022.2.4,143.79902649372661,
positions.xlsx,stimuli.xlsx,test.xlsx,stimuli/Social2.png,stimuli/Social1.png,stimuli/Nonsocial1.png,stimuli/Nonsocial2.png,stimuli/Test1.png,stimuli/Test2.png,"(-0.7, -0.5)",cs_plus_ns,"(0.7, 0.5)",cs_minus_ns,0,0,0,0,,,,,0,69,69,28,,,,,,,,,,,,,,,345.5120209000015,346.51891459999024,346.51891459999024,346.6647293999995,347.1717028999992,347.1717028999992,347.31757649999054,ä,0.7026472000143258,correct,,,348.0327709999983,348.0883150000009,346.51891459999024,,,,,,,,,,,11,B,2023-12-08_10h42.24.257,gca_discrimination,2022.2.4,143.79902649372661,
positions.xlsx,stimuli.xlsx,test.xlsx,stimuli/Social2.png,stimuli/Social1.png,stimuli/Nonsocial1.png,stimuli/Nonsocial2.png,stimuli/Test1.png,stimuli/Test2.png,"(-0.7, 0.5)",cs_plus_ns,"(-0.7, -0.5)",cs_plus_ns,0,0,0,0,,,,,0,70,70,72,,,,,,,,,,,,,,,348.0883150000009,349.0952599000011,349.0952599000011,349.24102149999817,349.74798210000154,349.74798210000154,349.8938127000001,ä,1.21492960001342,wrong,,,351.11597809998784,351.33125909999944,349.0952599000011,,,,,,,,,,,11,B,2023-12-08_10h42.24.257,gca_discrimination,2022.2.4,143.79902649372661,
positions.xlsx,stimuli.xlsx,test.xlsx,stimuli/Social2.png,stimuli/Social1.png,stimuli/Nonsocial1.png,stimuli/Nonsocial2.png,stimuli/Test1.png,stimuli/Test2.png,"(0.7, -0.5)",cs_plus_ns,"(0.7, 0.5)",cs_minus_ns,0,0,0,0,,,,,0,71,71,35,,,,,,,,,,,,,,,351.33125909999944,352.3381858999928,352.3381858999928,352.48397939999995,352.99091529998987,352.99091529998987,353.13675439999497,l,0.5240408000099706,wrong,,,353.6714539999957,354.0950856999989,352.3381858999928,,,,,,,,,,,11,B,2023-12-08_10h42.24.257,gca_discrimination,2022.2.4,143.79902649372661,
positions.xlsx,stimuli.xlsx,test.xlsx,stimuli/Social2.png,stimuli/Social1.png,stimuli/Nonsocial1.png,stimuli/Nonsocial2.png,stimuli/Test1.png,stimuli/Test2.png,"(0.7, 0.5)",cs_minus_s,"(-0.7, -0.5)",cs_plus_s,0,0,0,0,,,,,0,72,72,19,,,,,,,,,,,,,,,354.0950856999989,355.10194209999463,355.10194209999463,355.2477738000016,355.75470739998855,355.75470739998855,355.9004977000004,ä,0.9678126000071643,correct,,,356.87962139998854,357.4976946999959,355.10194209999463,,,,,,,,,,,11,B,2023-12-08_10h42.24.257,gca_discrimination,2022.2.4,143.79902649372661,
positions.xlsx,stimuli.xlsx,test.xlsx,stimuli/Social2.png,stimuli/Social1.png,stimuli/Nonsocial1.png,stimuli/Nonsocial2.png,stimuli/Test1.png,stimuli/Test2.png,"(-0.7, -0.5)",cs_plus_s,"(-0.7, 0.5)",cs_plus_s,0,0,0,0,,,,,0,73,73,51,,,,,,,,,,,,,,,357.4976946999959,358.5045609999943,358.5045609999943,358.6503955999942,359.1573251999944,359.1573251999944,359.3031435999874,ä,1.2378278000105638,wrong,,,360.55311309998797,360.96281810000073,358.5045609999943,,,,,,,,,,,11,B,2023-12-08_10h42.24.257,gca_discrimination,2022.2.4,143.79902649372661,
positions.xlsx,stimuli.xlsx,test.xlsx,stimuli/Social2.png,stimuli/Social1.png,stimuli/Nonsocial1.png,stimuli/Nonsocial2.png,stimuli/Test1.png,stimuli/Test2.png,"(0.7, 0.5)",cs_minus_ns,"(-0.7, -0.5)",cs_plus_ns,0,0,0,0,,,,,0,74,74,43,,,,,,,,,,,,,,,360.96281810000073,361.9696811999893,361.9696811999893,362.11556979999295,362.62249589999556,362.62249589999556,362.7683055999951,ä,1.0996119000192266,correct,,,363.87939149999875,364.7543250000017,361.9696811999893,,,,,,,,,,,11,B,2023-12-08_10h42.24.257,gca_discrimination,2022.2.4,143.79902649372661,
positions.xlsx,stimuli.xlsx,test.xlsx,stimuli/Social2.png,stimuli/Social1.png,stimuli/Nonsocial1.png,stimuli/Nonsocial2.png,stimuli/Test1.png,stimuli/Test2.png,"(-0.7, -0.5)",cs_minus_s,"(0.7, -0.5)",cs_plus_s,0,0,0,0,,,,,0,75,75,17,,,,,,,,,,,,,,,364.7543250000017,365.76126349999686,365.76126349999686,365.9070703999896,366.4140591999894,366.4140591999894,366.5598237999948,ä,0.6614279000204988,correct,,,367.2333662999881,368.2055936999968,365.76126349999686,,,,,,,,,,,11,B,2023-12-08_10h42.24.257,gca_discrimination,2022.2.4,143.79902649372661,
positions.xlsx,stimuli.xlsx,test.xlsx,stimuli/Social2.png,stimuli/Social1.png,stimuli/Nonsocial1.png,stimuli/Nonsocial2.png,stimuli/Test1.png,stimuli/Test2.png,"(0.7, -0.5)",cs_minus_ns,"(0.7, 0.5)",cs_minus_ns,0,0,0,0,,,,,0,76,76,95,,,,,,,,,,,,,,,368.2055936999968,369.21249700000044,369.21249700000044,369.3583257999999,369.86528839998937,369.86528839998937,370.0110883000016,l,0.7375479000183986,correct,,,370.7610626999958,370.9346591999929,369.21249700000044,,,,,,,,,,,11,B,2023-12-08_10h42.24.257,gca_discrimination,2022.2.4,143.79902649372661,
positions.xlsx,stimuli.xlsx,test.xlsx,stimuli/Social2.png,stimuli/Social1.png,stimuli/Nonsocial1.png,stimuli/Nonsocial2.png,stimuli/Test1.png,stimuli/Test2.png,"(0.7, 0.5)",cs_plus_ns,"(0.7, -0.5)",cs_minus_ns,0,0,0,0,,,,,0,77,77,32,,,,,,,,,,,,,,,370.9346591999929,371.9415605999966,371.9415605999966,372.08740749998833,372.59431179999956,372.59431179999956,372.74008550000144,l,0.8397484000161057,wrong,,,373.5873322999978,373.9414844999992,371.9415605999966,,,,,,,,,,,11,B,2023-12-08_10h42.24.257,gca_discrimination,2022.2.4,143.79902649372661,
positions.xlsx,stimuli.xlsx,test.xlsx,stimuli/Social2.png,stimuli/Social1.png,stimuli/Nonsocial1.png,stimuli/Nonsocial2.png,stimuli/Test1.png,stimuli/Test2.png,"(-0.7, -0.5)",cs_plus_s,"(0.7, 0.5)",cs_minus_s,0,0,0,0,,,,,0,78,78,4,,,,,,,,,,,,,,,373.9414844999992,374.9483856000006,374.9483856000006,375.09427719999803,375.6011442000017,375.6011442000017,375.7469742999965,ä,0.6818352000118466,correct,,,376.4414001999976,376.8372182999883,374.9483856000006,,,,,,,,,,,11,B,2023-12-08_10h42.24.257,gca_discrimination,2022.2.4,143.79902649372661,
positions.xlsx,stimuli.xlsx,test.xlsx,stimuli/Social2.png,stimuli/Social1.png,stimuli/Nonsocial1.png,stimuli/Nonsocial2.png,stimuli/Test1.png,stimuli/Test2.png,"(-0.7, 0.5)",cs_minus_ns,"(0.7, 0.5)",cs_minus_ns,0,0,0,0,,,,,0,79,79,85,,,,,,,,,,,,,,,376.8372182999883,377.8441230999888,377.8441230999888,377.98993569999584,378.49689349999244,378.49689349999244,378.64268409999204,l,0.8729115000023739,correct,,,379.52460239999346,379.83706130000064,377.8441230999888,,,,,,,,,,,11,B,2023-12-08_10h42.24.257,gca_discrimination,2022.2.4,143.79902649372661,
positions.xlsx,stimuli.xlsx,test.xlsx,stimuli/Social2.png,stimuli/Social1.png,stimuli/Nonsocial1.png,stimuli/Nonsocial2.png,stimuli/Test1.png,stimuli/Test2.png,"(0.7, 0.5)",cs_minus_s,"(0.7, -0.5)",cs_minus_s,0,0,0,0,,,,,0,80,80,68,,,,,,,,,,,,,,,379.83706130000064,380.8439912999893,380.8439912999893,380.98987429999397,381.4967500999919,381.4967500999919,381.6425908999954,ä,0.7298324000148568,wrong,,,382.3855707999901,383.01057479999145,380.8439912999893,,,,,,,,,,,11,B,2023-12-08_10h42.24.257,gca_discrimination,2022.2.4,143.79902649372661,
positions.xlsx,stimuli.xlsx,test.xlsx,stimuli/Social2.png,stimuli/Social1.png,stimuli/Nonsocial1.png,stimuli/Nonsocial2.png,stimuli/Test1.png,stimuli/Test2.png,"(-0.7, 0.5)",cs_plus_s,"(0.7, -0.5)",cs_minus_s,0,0,0,0,,,,,0,81,81,2,,,,,,,,,,,,,,,383.01057479999145,384.0174808999873,384.0174808999873,384.1633017999993,384.67025029999786,384.67025029999786,384.81608039999264,ä,0.6522838000091724,correct,,,385.4757624999911,386.3715743999928,384.0174808999873,,,,,,,,,,,11,B,2023-12-08_10h42.24.257,gca_discrimination,2022.2.4,143.79902649372661,
positions.xlsx,stimuli.xlsx,test.xlsx,stimuli/Social2.png,stimuli/Social1.png,stimuli/Nonsocial1.png,stimuli/Nonsocial2.png,stimuli/Test1.png,stimuli/Test2.png,"(-0.7, 0.5)",cs_minus_ns,"(0.7, -0.5)",cs_minus_ns,0,0,0,0,,,,,0,82,82,86,,,,,,,,,,,,,,,386.3715743999928,387.37846409999474,387.37846409999474,387.52429180000036,388.0312189999968,388.0312189999968,388.17707159998827,l,0.4906010000122478,correct,,,388.67701939999824,389.5172642999969,387.37846409999474,,,,,,,,,,,11,B,2023-12-08_10h42.24.257,gca_discrimination,2022.2.4,143.79902649372661,
positions.xlsx,stimuli.xlsx,test.xlsx,stimuli/Social2.png,stimuli/Social1.png,stimuli/Nonsocial1.png,stimuli/Nonsocial2.png,stimuli/Test1.png,stimuli/Test2.png,"(0.7, -0.5)",cs_plus_ns,"(-0.7, 0.5)",cs_minus_ns,0,0,0,0,,,,,0,83,83,33,,,,,,,,,,,,,,,389.5172642999969,390.52419999999984,390.52419999999984,390.67000169999665,391.1769132999907,391.1769132999907,391.32273849999183,ä,0.8654289000114659,correct,,,392.1977019999904,392.5379772000015,390.52419999999984,,,,,,,,,,,11,B,2023-12-08_10h42.24.257,gca_discrimination,2022.2.4,143.79902649372661,
positions.xlsx,stimuli.xlsx,test.xlsx,stimuli/Social2.png,stimuli/Social1.png,stimuli/Nonsocial1.png,stimuli/Nonsocial2.png,stimuli/Test1.png,stimuli/Test2.png,"(0.7, 0.5)",cs_plus_ns,"(-0.7, 0.5)",cs_minus_ns,0,0,0,0,,,,,0,84,84,30,,,,,,,,,,,,,,,392.5379772000015,393.5448655999935,393.5448655999935,393.6907121999975,394.1976502999896,394.1976502999896,394.3434616000013,l,0.9967375000123866,wrong,,,395.35035989999596,396.2392017999955,393.5448655999935,,,,,,,,,,,11,B,2023-12-08_10h42.24.257,gca_discrimination,2022.2.4,143.79902649372661,
positions.xlsx,stimuli.xlsx,test.xlsx,stimuli/Social2.png,stimuli/Social1.png,stimuli/Nonsocial1.png,stimuli/Nonsocial2.png,stimuli/Test1.png,stimuli/Test2.png,"(-0.7, 0.5)",cs_plus_s,"(0.7, -0.5)",cs_plus_s,0,0,0,0,,,,,0,85,85,50,,,,,,,,,,,,,,,396.2392017999955,397.24613499999396,397.24613499999396,397.39196470000024,397.89890259999083,397.89890259999083,398.0446992999932,l,0.9915219000104116,correct,,,399.04467889999796,399.28077489999123,397.24613499999396,,,,,,,,,,,11,B,2023-12-08_10h42.24.257,gca_discrimination,2022.2.4,143.79902649372661,
positions.xlsx,stimuli.xlsx,test.xlsx,stimuli/Social2.png,stimuli/Social1.png,stimuli/Nonsocial1.png,stimuli/Nonsocial2.png,stimuli/Test1.png,stimuli/Test2.png,"(-0.7, 0.5)",cs_plus_s,"(-0.7, -0.5)",cs_minus_s,0,0,0,0,,,,,0,86,86,0,,,,,,,,,,,,,,,399.28077489999123,400.287688899989,400.287688899989,400.4335712999891,400.94042099999206,400.94042099999206,401.08624509999936,ä,0.5339295000158018,correct,,,401.6279216999974,401.9334730999981,400.287688899989,,,,,,,,,,,11,B,2023-12-08_10h42.24.257,gca_discrimination,2022.2.4,143.79902649372661,
positions.xlsx,stimuli.xlsx,test.xlsx,stimuli/Social2.png,stimuli/Social1.png,stimuli/Nonsocial1.png,stimuli/Nonsocial2.png,stimuli/Test1.png,stimuli/Test2.png,"(-0.7, -0.5)",cs_minus_s,"(-0.7, 0.5)",cs_plus_s,0,0,0,0,,,,,0,87,87,15,,,,,,,,,,,,,,,401.9334730999981,402.9403170000005,402.9403170000005,403.08619659999385,403.5931197999889,403.5931197999889,403.7389878999966,ä,0.6887734000192722,correct,,,404.4403009999951,404.6763673999958,402.9403170000005,,,,,,,,,,,11,B,2023-12-08_10h42.24.257,gca_discrimination,2022.2.4,143.79902649372661,
positions.xlsx,stimuli.xlsx,test.xlsx,stimuli/Social2.png,stimuli/Social1.png,stimuli/Nonsocial1.png,stimuli/Nonsocial2.png,stimuli/Test1.png,stimuli/Test2.png,"(0.7, 0.5)",cs_plus_s,"(0.7, -0.5)",cs_minus_s,0,0,0,0,,,,,0,88,88,8,,,,,,,,,,,,,,,404.6763673999958,405.6832817999966,405.6832817999966,405.8291314999951,406.336064099989,406.336064099989,406.481878999999,ä,0.6105737000034424,correct,,,407.0999127999967,407.8290460999997,405.6832817999966,,,,,,,,,,,11,B,2023-12-08_10h42.24.257,gca_discrimination,2022.2.4,143.79902649372661,
positions.xlsx,stimuli.xlsx,test.xlsx,stimuli/Social2.png,stimuli/Social1.png,stimuli/Nonsocial1.png,stimuli/Nonsocial2.png,stimuli/Test1.png,stimuli/Test2.png,"(-0.7, 0.5)",cs_minus_s,"(-0.7, -0.5)",cs_minus_s,0,0,0,0,,,,,0,89,89,60,,,,,,,,,,,,,,,407.8290460999997,408.83597609998833,408.83597609998833,408.9817769999936,409.488709799989,409.488709799989,409.63452409999445,ä,0.8413636000186671,wrong,,,410.4886414999928,410.75255710000056,408.83597609998833,,,,,,,,,,,11,B,2023-12-08_10h42.24.257,gca_discrimination,2022.2.4,143.79902649372661,
positions.xlsx,stimuli.xlsx,test.xlsx,stimuli/Social2.png,stimuli/Social1.png,stimuli/Nonsocial1.png,stimuli/Nonsocial2.png,stimuli/Test1.png,stimuli/Test2.png,"(-0.7, -0.5)",cs_plus_ns,"(-0.7, 0.5)",cs_plus_ns,0,0,0,0,,,,,0,90,90,75,,,,,,,,,,,,,,,410.75255710000056,411.75948849999986,411.75948849999986,411.90537680000125,412.4122223999875,412.4122223999875,412.55802799999947,l,0.5667503000004217,correct,,,413.1343965999986,413.94685279999976,411.75948849999986,,,,,,,,,,,11,B,2023-12-08_10h42.24.257,gca_discrimination,2022.2.4,143.79902649372661,
positions.xlsx,stimuli.xlsx,test.xlsx,stimuli/Social2.png,stimuli/Social1.png,stimuli/Nonsocial1.png,stimuli/Nonsocial2.png,stimuli/Test1.png,stimuli/Test2.png,"(0.7, 0.5)",cs_plus_ns,"(-0.7, -0.5)",cs_minus_ns,0,0,0,0,,,,,0,91,91,31,,,,,,,,,,,,,,,413.94685279999976,414.95379149999644,414.95379149999644,415.09960869999486,415.60653399999137,415.60653399999137,415.75235319999047,ä,0.9079052000015508,correct,,,416.6689556999918,416.7245077999978,414.95379149999644,,,,,,,,,,,11,B,2023-12-08_10h42.24.257,gca_discrimination,2022.2.4,143.79902649372661,
positions.xlsx,stimuli.xlsx,test.xlsx,stimuli/Social2.png,stimuli/Social1.png,stimuli/Nonsocial1.png,stimuli/Nonsocial2.png,stimuli/Test1.png,stimuli/Test2.png,"(-0.7, -0.5)",cs_plus_s,"(-0.7, 0.5)",cs_minus_s,0,0,0,0,,,,,0,92,92,3,,,,,,,,,,,,,,,416.7245077999978,417.73147849999077,417.73147849999077,417.87728709999647,418.38426169999,418.38426169999,418.53002169998945,ä,0.6585541000094963,correct,,,419.19664829999965,419.2661054999917,417.73147849999077,,,,,,,,,,,11,B,2023-12-08_10h42.24.257,gca_discrimination,2022.2.4,143.79902649372661,
positions.xlsx,stimuli.xlsx,test.xlsx,stimuli/Social2.png,stimuli/Social1.png,stimuli/Nonsocial1.png,stimuli/Nonsocial2.png,stimuli/Test1.png,stimuli/Test2.png,"(-0.7, 0.5)",cs_minus_s,"(0.7, 0.5)",cs_plus_s,0,0,0,0,,,,,0,93,93,13,,,,,,,,,,,,,,,419.2661054999917,420.2730336999957,420.2730336999957,420.4188495999988,420.92576800000097,420.92576800000097,421.07160080000176,ä,0.6847074000106659,correct,,,421.7660265999875,422.3284699999931,420.2730336999957,,,,,,,,,,,11,B,2023-12-08_10h42.24.257,gca_discrimination,2022.2.4,143.79902649372661,
positions.xlsx,stimuli.xlsx,test.xlsx,stimuli/Social2.png,stimuli/Social1.png,stimuli/Nonsocial1.png,stimuli/Nonsocial2.png,stimuli/Test1.png,stimuli/Test2.png,"(0.7, 0.5)",cs_plus_ns,"(0.7, -0.5)",cs_plus_ns,0,0,0,0,,,,,0,94,94,80,,,,,,,,,,,,,,,422.3284699999931,423.33539549999114,423.33539549999114,423.4812238000013,423.9881480999902,423.9881480999902,424.1339745000005,l,0.5907410000072559,correct,,,424.73810799999046,424.953382599997,423.33539549999114,,,,,,,,,,,11,B,2023-12-08_10h42.24.257,gca_discrimination,2022.2.4,143.79902649372661,
positions.xlsx,stimuli.xlsx,test.xlsx,stimuli/Social2.png,stimuli/Social1.png,stimuli/Nonsocial1.png,stimuli/Nonsocial2.png,stimuli/Test1.png,stimuli/Test2.png,"(-0.7, 0.5)",cs_plus_ns,"(0.7, 0.5)",cs_minus_ns,0,0,0,0,,,,,0,95,95,25,,,,,,,,,,,,,,,424.953382599997,425.96033659999375,425.96033659999375,426.1061320000008,426.6130731999874,426.6130731999874,426.75887149998744,l,0.5250335000164341,wrong,,,427.2935767000017,427.51582399998733,425.96033659999375,,,,,,,,,,,11,B,2023-12-08_10h42.24.257,gca_discrimination,2022.2.4,143.79902649372661,
