posFile,stimFile,testFile,cs_plus_s,cs_minus_s,cs_plus_ns,cs_minus_ns,test1,test2,position1,trialtype,position2,comptype,blocks.thisRepN,blocks.thisTrialN,blocks.thisN,blocks.thisIndex,learning_trials.thisRepN,learning_trials.thisTrialN,learning_trials.thisN,learning_trials.thisIndex,trials.thisRepN,trials.thisTrialN,trials.thisN,trials.thisIndex,textStart.started,key.started,key.keys,key.rt,correctness,textStartTask.started,participant,group,date,expName,psychopyVersion,frameRate,
positions.xlsx,stimuli.xlsx,test.xlsx,stimuli/Social2.png,stimuli/Social1.png,stimuli/Nonsocial2.png,stimuli/Nonsocial1.png,stimuli/Test1.png,stimuli/Test2.png,"(0.7, 0.5)",test1,"(0.7, -0.5)",test2,0,0,0,0,0,0,0,11,,,,,9.54751479998231,47.879398999968544,l,1.034114700043574,correct,,33,D,2023-12-15_13h55.47.172,gca_discrimination,2022.2.4,144.0818385707201,
positions.xlsx,stimuli.xlsx,test.xlsx,stimuli/Social2.png,stimuli/Social1.png,stimuli/Nonsocial2.png,stimuli/Nonsocial1.png,stimuli/Test1.png,stimuli/Test2.png,"(0.7, -0.5)",test2,"(-0.7, 0.5)",test1,0,0,0,0,0,1,1,4,,,,,,53.31665199995041,l,1.1572406000923365,correct,,33,D,2023-12-15_13h55.47.172,gca_discrimination,2022.2.4,144.0818385707201,
positions.xlsx,stimuli.xlsx,test.xlsx,stimuli/Social2.png,stimuli/Social1.png,stimuli/Nonsocial2.png,stimuli/Nonsocial1.png,stimuli/Test1.png,stimuli/Test2.png,"(-0.7, -0.5)",test2,"(0.7, -0.5)",test2,0,0,0,0,0,2,2,9,,,,,,58.392858600011095,ä,0.8418957000831142,correct,,33,D,2023-12-15_13h55.47.172,gca_discrimination,2022.2.4,144.0818385707201,
positions.xlsx,stimuli.xlsx,test.xlsx,stimuli/Social2.png,stimuli/Social1.png,stimuli/Nonsocial2.png,stimuli/Nonsocial1.png,stimuli/Test1.png,stimuli/Test2.png,"(-0.7, -0.5)",test2,"(0.7, 0.5)",test2,0,0,0,0,0,3,3,7,,,,,,63.94816179992631,ä,0.637347099953331,correct,,33,D,2023-12-15_13h55.47.172,gca_discrimination,2022.2.4,144.0818385707201,
positions.xlsx,stimuli.xlsx,test.xlsx,stimuli/Social2.png,stimuli/Social1.png,stimuli/Nonsocial2.png,stimuli/Nonsocial1.png,stimuli/Test1.png,stimuli/Test2.png,"(-0.7, 0.5)",test2,"(-0.7, -0.5)",test2,0,0,0,0,0,4,4,1,,,,,,68.61470359994564,ä,0.5312331999884918,correct,,33,D,2023-12-15_13h55.47.172,gca_discrimination,2022.2.4,144.0818385707201,
positions.xlsx,stimuli.xlsx,test.xlsx,stimuli/Social2.png,stimuli/Social1.png,stimuli/Nonsocial2.png,stimuli/Nonsocial1.png,stimuli/Test1.png,stimuli/Test2.png,"(0.7, -0.5)",test1,"(0.7, 0.5)",test1,0,0,0,0,0,5,5,10,,,,,,73.11451639991719,ä,0.8069550000363961,correct,,33,D,2023-12-15_13h55.47.172,gca_discrimination,2022.2.4,144.0818385707201,
positions.xlsx,stimuli.xlsx,test.xlsx,stimuli/Social2.png,stimuli/Social1.png,stimuli/Nonsocial2.png,stimuli/Nonsocial1.png,stimuli/Test1.png,stimuli/Test2.png,"(-0.7, 0.5)",test2,"(0.7, -0.5)",test1,0,0,0,0,0,6,6,12,,,,,,78.51014349993784,l,0.6513764999108389,correct,,33,D,2023-12-15_13h55.47.172,gca_discrimination,2022.2.4,144.0818385707201,
positions.xlsx,stimuli.xlsx,test.xlsx,stimuli/Social2.png,stimuli/Social1.png,stimuli/Nonsocial2.png,stimuli/Nonsocial1.png,stimuli/Test1.png,stimuli/Test2.png,"(-0.7, -0.5)",test2,"(-0.7, 0.5)",test2,0,0,0,0,0,7,7,2,,,,,,83.37101789994631,ä,0.7837457000277936,correct,,33,D,2023-12-15_13h55.47.172,gca_discrimination,2022.2.4,144.0818385707201,
positions.xlsx,stimuli.xlsx,test.xlsx,stimuli/Social2.png,stimuli/Social1.png,stimuli/Nonsocial2.png,stimuli/Nonsocial1.png,stimuli/Test1.png,stimuli/Test2.png,"(0.7, -0.5)",test1,"(0.7, 0.5)",test2,0,0,0,0,0,8,8,0,,,,,,88.30835790000856,l,0.8705907999537885,correct,,33,D,2023-12-15_13h55.47.172,gca_discrimination,2022.2.4,144.0818385707201,
positions.xlsx,stimuli.xlsx,test.xlsx,stimuli/Social2.png,stimuli/Social1.png,stimuli/Nonsocial2.png,stimuli/Nonsocial1.png,stimuli/Test1.png,stimuli/Test2.png,"(-0.7, 0.5)",test2,"(0.7, 0.5)",test1,0,0,0,0,0,9,9,3,,,,,,93.89844259992242,l,0.8228080000262707,correct,,33,D,2023-12-15_13h55.47.172,gca_discrimination,2022.2.4,144.0818385707201,
positions.xlsx,stimuli.xlsx,test.xlsx,stimuli/Social2.png,stimuli/Social1.png,stimuli/Nonsocial2.png,stimuli/Nonsocial1.png,stimuli/Test1.png,stimuli/Test2.png,"(0.7, 0.5)",test2,"(0.7, -0.5)",test1,0,0,0,0,0,10,10,6,,,,,,99.34957269998267,l,0.6366440000711009,correct,,33,D,2023-12-15_13h55.47.172,gca_discrimination,2022.2.4,144.0818385707201,
positions.xlsx,stimuli.xlsx,test.xlsx,stimuli/Social2.png,stimuli/Social1.png,stimuli/Nonsocial2.png,stimuli/Nonsocial1.png,stimuli/Test1.png,stimuli/Test2.png,"(-0.7, 0.5)",test1,"(0.7, -0.5)",test1,0,0,0,0,0,11,11,5,,,,,,104.64105229999404,ä,0.6244336999952793,correct,,33,D,2023-12-15_13h55.47.172,gca_discrimination,2022.2.4,144.0818385707201,
positions.xlsx,stimuli.xlsx,test.xlsx,stimuli/Social2.png,stimuli/Social1.png,stimuli/Nonsocial2.png,stimuli/Nonsocial1.png,stimuli/Test1.png,stimuli/Test2.png,"(-0.7, -0.5)",test1,"(0.7, 0.5)",test2,0,0,0,0,0,12,12,8,,,,,,109.99503539991565,l,0.8225252999691293,correct,,33,D,2023-12-15_13h55.47.172,gca_discrimination,2022.2.4,144.0818385707201,
positions.xlsx,stimuli.xlsx,test.xlsx,stimuli/Social2.png,stimuli/Social1.png,stimuli/Nonsocial2.png,stimuli/Nonsocial1.png,stimuli/Test1.png,stimuli/Test2.png,"(0.7, 0.5)",test2,"(-0.7, 0.5)",test1,0,0,0,0,0,13,13,13,,,,,,114.64065529999789,l,0.9610525000607595,correct,,33,D,2023-12-15_13h55.47.172,gca_discrimination,2022.2.4,144.0818385707201,
positions.xlsx,stimuli.xlsx,test.xlsx,stimuli/Social2.png,stimuli/Social1.png,stimuli/Nonsocial2.png,stimuli/Nonsocial1.png,stimuli/Test1.png,stimuli/Test2.png,"(-0.7, 0.5)",cs_plus_s,"(-0.7, -0.5)",cs_plus_s,0,0,0,0,,,,,0,0,0,48,,134.97322479996365,ä,0.7562040000921115,correct,117.81420389993582,33,D,2023-12-15_13h55.47.172,gca_discrimination,2022.2.4,144.0818385707201,
positions.xlsx,stimuli.xlsx,test.xlsx,stimuli/Social2.png,stimuli/Social1.png,stimuli/Nonsocial2.png,stimuli/Nonsocial1.png,stimuli/Test1.png,stimuli/Test2.png,"(0.7, 0.5)",cs_minus_s,"(0.7, -0.5)",cs_minus_s,0,0,0,0,,,,,0,1,1,68,,138.2786519000074,ä,0.7625249000266194,correct,,33,D,2023-12-15_13h55.47.172,gca_discrimination,2022.2.4,144.0818385707201,
positions.xlsx,stimuli.xlsx,test.xlsx,stimuli/Social2.png,stimuli/Social1.png,stimuli/Nonsocial2.png,stimuli/Nonsocial1.png,stimuli/Test1.png,stimuli/Test2.png,"(0.7, 0.5)",cs_plus_ns,"(-0.7, -0.5)",cs_plus_ns,0,0,0,0,,,,,0,2,2,79,,141.396581399953,ä,1.6129160999553278,correct,,33,D,2023-12-15_13h55.47.172,gca_discrimination,2022.2.4,144.0818385707201,
positions.xlsx,stimuli.xlsx,test.xlsx,stimuli/Social2.png,stimuli/Social1.png,stimuli/Nonsocial2.png,stimuli/Nonsocial1.png,stimuli/Test1.png,stimuli/Test2.png,"(-0.7, 0.5)",cs_plus_ns,"(0.7, -0.5)",cs_minus_ns,0,0,0,0,,,,,0,3,3,26,,144.9797954999376,l,0.6457138999830931,correct,,33,D,2023-12-15_13h55.47.172,gca_discrimination,2022.2.4,144.0818385707201,
positions.xlsx,stimuli.xlsx,test.xlsx,stimuli/Social2.png,stimuli/Social1.png,stimuli/Nonsocial2.png,stimuli/Nonsocial1.png,stimuli/Test1.png,stimuli/Test2.png,"(0.7, -0.5)",cs_plus_s,"(0.7, 0.5)",cs_minus_s,0,0,0,0,,,,,0,4,4,11,,148.43099799996708,l,0.6904035999905318,correct,,33,D,2023-12-15_13h55.47.172,gca_discrimination,2022.2.4,144.0818385707201,
positions.xlsx,stimuli.xlsx,test.xlsx,stimuli/Social2.png,stimuli/Social1.png,stimuli/Nonsocial2.png,stimuli/Nonsocial1.png,stimuli/Test1.png,stimuli/Test2.png,"(-0.7, -0.5)",cs_plus_ns,"(0.7, 0.5)",cs_plus_ns,0,0,0,0,,,,,0,5,5,76,,151.5351072999183,ä,0.6025071999756619,correct,,33,D,2023-12-15_13h55.47.172,gca_discrimination,2022.2.4,144.0818385707201,
positions.xlsx,stimuli.xlsx,test.xlsx,stimuli/Social2.png,stimuli/Social1.png,stimuli/Nonsocial2.png,stimuli/Nonsocial1.png,stimuli/Test1.png,stimuli/Test2.png,"(-0.7, -0.5)",cs_plus_ns,"(0.7, -0.5)",cs_minus_ns,0,0,0,0,,,,,0,6,6,29,,154.45857249991968,l,0.631456800037995,correct,,33,D,2023-12-15_13h55.47.172,gca_discrimination,2022.2.4,144.0818385707201,
positions.xlsx,stimuli.xlsx,test.xlsx,stimuli/Social2.png,stimuli/Social1.png,stimuli/Nonsocial2.png,stimuli/Nonsocial1.png,stimuli/Test1.png,stimuli/Test2.png,"(-0.7, -0.5)",cs_minus_ns,"(-0.7, 0.5)",cs_plus_ns,0,0,0,0,,,,,0,7,7,39,,157.41679249994922,l,0.624322299961932,correct,,33,D,2023-12-15_13h55.47.172,gca_discrimination,2022.2.4,144.0818385707201,
positions.xlsx,stimuli.xlsx,test.xlsx,stimuli/Social2.png,stimuli/Social1.png,stimuli/Nonsocial2.png,stimuli/Nonsocial1.png,stimuli/Test1.png,stimuli/Test2.png,"(0.7, 0.5)",cs_minus_ns,"(0.7, -0.5)",cs_minus_ns,0,0,0,0,,,,,0,8,8,92,,160.4166859999532,ä,0.5132298999233171,correct,,33,D,2023-12-15_13h55.47.172,gca_discrimination,2022.2.4,144.0818385707201,
positions.xlsx,stimuli.xlsx,test.xlsx,stimuli/Social2.png,stimuli/Social1.png,stimuli/Nonsocial2.png,stimuli/Nonsocial1.png,stimuli/Test1.png,stimuli/Test2.png,"(0.7, -0.5)",cs_minus_ns,"(-0.7, -0.5)",cs_minus_ns,0,0,0,0,,,,,0,9,9,94,,163.15269679995254,ä,0.43264349992386997,correct,,33,D,2023-12-15_13h55.47.172,gca_discrimination,2022.2.4,144.0818385707201,
positions.xlsx,stimuli.xlsx,test.xlsx,stimuli/Social2.png,stimuli/Social1.png,stimuli/Nonsocial2.png,stimuli/Nonsocial1.png,stimuli/Test1.png,stimuli/Test2.png,"(0.7, -0.5)",cs_plus_ns,"(-0.7, 0.5)",cs_plus_ns,0,0,0,0,,,,,0,10,10,81,,166.04146469989792,l,0.5450190999545157,wrong,,33,D,2023-12-15_13h55.47.172,gca_discrimination,2022.2.4,144.0818385707201,
positions.xlsx,stimuli.xlsx,test.xlsx,stimuli/Social2.png,stimuli/Social1.png,stimuli/Nonsocial2.png,stimuli/Nonsocial1.png,stimuli/Test1.png,stimuli/Test2.png,"(0.7, 0.5)",cs_minus_s,"(0.7, -0.5)",cs_plus_s,0,0,0,0,,,,,0,11,11,20,,169.11076059995685,l,0.6348907999927178,correct,,33,D,2023-12-15_13h55.47.172,gca_discrimination,2022.2.4,144.0818385707201,
positions.xlsx,stimuli.xlsx,test.xlsx,stimuli/Social2.png,stimuli/Social1.png,stimuli/Nonsocial2.png,stimuli/Nonsocial1.png,stimuli/Test1.png,stimuli/Test2.png,"(0.7, 0.5)",cs_minus_ns,"(0.7, -0.5)",cs_plus_ns,0,0,0,0,,,,,0,12,12,44,,172.11761680000927,l,0.7088391999714077,correct,,33,D,2023-12-15_13h55.47.172,gca_discrimination,2022.2.4,144.0818385707201,
positions.xlsx,stimuli.xlsx,test.xlsx,stimuli/Social2.png,stimuli/Social1.png,stimuli/Nonsocial2.png,stimuli/Nonsocial1.png,stimuli/Test1.png,stimuli/Test2.png,"(0.7, -0.5)",cs_plus_ns,"(-0.7, -0.5)",cs_plus_ns,0,0,0,0,,,,,0,13,13,82,,174.99944049993064,ä,0.8823425999144092,correct,,33,D,2023-12-15_13h55.47.172,gca_discrimination,2022.2.4,144.0818385707201,
positions.xlsx,stimuli.xlsx,test.xlsx,stimuli/Social2.png,stimuli/Social1.png,stimuli/Nonsocial2.png,stimuli/Nonsocial1.png,stimuli/Test1.png,stimuli/Test2.png,"(0.7, -0.5)",cs_plus_ns,"(0.7, 0.5)",cs_plus_ns,0,0,0,0,,,,,0,14,14,83,,178.45072550000623,ä,0.622464400017634,correct,,33,D,2023-12-15_13h55.47.172,gca_discrimination,2022.2.4,144.0818385707201,
positions.xlsx,stimuli.xlsx,test.xlsx,stimuli/Social2.png,stimuli/Social1.png,stimuli/Nonsocial2.png,stimuli/Nonsocial1.png,stimuli/Test1.png,stimuli/Test2.png,"(-0.7, 0.5)",cs_minus_s,"(-0.7, -0.5)",cs_plus_s,0,0,0,0,,,,,0,15,15,12,,181.13115259993356,l,0.510873599909246,correct,,33,D,2023-12-15_13h55.47.172,gca_discrimination,2022.2.4,144.0818385707201,
positions.xlsx,stimuli.xlsx,test.xlsx,stimuli/Social2.png,stimuli/Social1.png,stimuli/Nonsocial2.png,stimuli/Nonsocial1.png,stimuli/Test1.png,stimuli/Test2.png,"(0.7, -0.5)",cs_minus_ns,"(-0.7, 0.5)",cs_plus_ns,0,0,0,0,,,,,0,16,16,45,,183.69356469996274,l,0.5479564999695867,correct,,33,D,2023-12-15_13h55.47.172,gca_discrimination,2022.2.4,144.0818385707201,
positions.xlsx,stimuli.xlsx,test.xlsx,stimuli/Social2.png,stimuli/Social1.png,stimuli/Nonsocial2.png,stimuli/Nonsocial1.png,stimuli/Test1.png,stimuli/Test2.png,"(-0.7, -0.5)",cs_minus_s,"(0.7, 0.5)",cs_plus_s,0,0,0,0,,,,,0,17,17,16,,186.32540359999985,l,0.5007759999716654,correct,,33,D,2023-12-15_13h55.47.172,gca_discrimination,2022.2.4,144.0818385707201,
positions.xlsx,stimuli.xlsx,test.xlsx,stimuli/Social2.png,stimuli/Social1.png,stimuli/Nonsocial2.png,stimuli/Nonsocial1.png,stimuli/Test1.png,stimuli/Test2.png,"(-0.7, -0.5)",cs_plus_s,"(0.7, 0.5)",cs_minus_s,0,0,0,0,,,,,0,18,18,4,,189.20724589994643,l,0.7702334999339655,correct,,33,D,2023-12-15_13h55.47.172,gca_discrimination,2022.2.4,144.0818385707201,
positions.xlsx,stimuli.xlsx,test.xlsx,stimuli/Social2.png,stimuli/Social1.png,stimuli/Nonsocial2.png,stimuli/Nonsocial1.png,stimuli/Test1.png,stimuli/Test2.png,"(-0.7, 0.5)",cs_minus_ns,"(-0.7, -0.5)",cs_plus_ns,0,0,0,0,,,,,0,19,19,36,,192.59600019990467,l,1.4140227000461891,correct,,33,D,2023-12-15_13h55.47.172,gca_discrimination,2022.2.4,144.0818385707201,
positions.xlsx,stimuli.xlsx,test.xlsx,stimuli/Social2.png,stimuli/Social1.png,stimuli/Nonsocial2.png,stimuli/Nonsocial1.png,stimuli/Test1.png,stimuli/Test2.png,"(-0.7, 0.5)",cs_minus_ns,"(-0.7, -0.5)",cs_minus_ns,0,0,0,0,,,,,0,20,20,84,,196.27640360000078,ä,0.5889035000000149,correct,,33,D,2023-12-15_13h55.47.172,gca_discrimination,2022.2.4,144.0818385707201,
positions.xlsx,stimuli.xlsx,test.xlsx,stimuli/Social2.png,stimuli/Social1.png,stimuli/Nonsocial2.png,stimuli/Nonsocial1.png,stimuli/Test1.png,stimuli/Test2.png,"(-0.7, -0.5)",cs_plus_ns,"(0.7, 0.5)",cs_minus_ns,0,0,0,0,,,,,0,21,21,28,,198.91521209990606,l,0.7740538000361994,correct,,33,D,2023-12-15_13h55.47.172,gca_discrimination,2022.2.4,144.0818385707201,
positions.xlsx,stimuli.xlsx,test.xlsx,stimuli/Social2.png,stimuli/Social1.png,stimuli/Nonsocial2.png,stimuli/Nonsocial1.png,stimuli/Test1.png,stimuli/Test2.png,"(0.7, -0.5)",cs_minus_s,"(-0.7, -0.5)",cs_plus_s,0,0,0,0,,,,,0,22,22,22,,201.89424749999307,l,0.5802358000073582,correct,,33,D,2023-12-15_13h55.47.172,gca_discrimination,2022.2.4,144.0818385707201,
positions.xlsx,stimuli.xlsx,test.xlsx,stimuli/Social2.png,stimuli/Social1.png,stimuli/Nonsocial2.png,stimuli/Nonsocial1.png,stimuli/Test1.png,stimuli/Test2.png,"(0.7, 0.5)",cs_plus_s,"(-0.7, 0.5)",cs_minus_s,0,0,0,0,,,,,0,23,23,6,,204.72745149990078,l,0.6180904000066221,correct,,33,D,2023-12-15_13h55.47.172,gca_discrimination,2022.2.4,144.0818385707201,
positions.xlsx,stimuli.xlsx,test.xlsx,stimuli/Social2.png,stimuli/Social1.png,stimuli/Nonsocial2.png,stimuli/Nonsocial1.png,stimuli/Test1.png,stimuli/Test2.png,"(0.7, 0.5)",cs_minus_ns,"(-0.7, -0.5)",cs_minus_ns,0,0,0,0,,,,,0,24,24,91,,207.71350059995893,ä,0.5284765999531373,correct,,33,D,2023-12-15_13h55.47.172,gca_discrimination,2022.2.4,144.0818385707201,
positions.xlsx,stimuli.xlsx,test.xlsx,stimuli/Social2.png,stimuli/Social1.png,stimuli/Nonsocial2.png,stimuli/Nonsocial1.png,stimuli/Test1.png,stimuli/Test2.png,"(-0.7, 0.5)",cs_plus_ns,"(-0.7, -0.5)",cs_plus_ns,0,0,0,0,,,,,0,25,25,72,,210.82447909994517,ä,0.6493201999692246,correct,,33,D,2023-12-15_13h55.47.172,gca_discrimination,2022.2.4,144.0818385707201,
positions.xlsx,stimuli.xlsx,test.xlsx,stimuli/Social2.png,stimuli/Social1.png,stimuli/Nonsocial2.png,stimuli/Nonsocial1.png,stimuli/Test1.png,stimuli/Test2.png,"(0.7, -0.5)",cs_minus_ns,"(-0.7, 0.5)",cs_minus_ns,0,0,0,0,,,,,0,26,26,93,,214.03960369993,ä,0.5552103000227362,correct,,33,D,2023-12-15_13h55.47.172,gca_discrimination,2022.2.4,144.0818385707201,
positions.xlsx,stimuli.xlsx,test.xlsx,stimuli/Social2.png,stimuli/Social1.png,stimuli/Nonsocial2.png,stimuli/Nonsocial1.png,stimuli/Test1.png,stimuli/Test2.png,"(0.7, 0.5)",cs_minus_ns,"(-0.7, 0.5)",cs_minus_ns,0,0,0,0,,,,,0,27,27,90,,216.96314249990974,ä,0.42264979996252805,correct,,33,D,2023-12-15_13h55.47.172,gca_discrimination,2022.2.4,144.0818385707201,
positions.xlsx,stimuli.xlsx,test.xlsx,stimuli/Social2.png,stimuli/Social1.png,stimuli/Nonsocial2.png,stimuli/Nonsocial1.png,stimuli/Test1.png,stimuli/Test2.png,"(-0.7, 0.5)",cs_minus_s,"(0.7, 0.5)",cs_minus_s,0,0,0,0,,,,,0,28,28,61,,219.7338266998995,ä,0.6279175999807194,correct,,33,D,2023-12-15_13h55.47.172,gca_discrimination,2022.2.4,144.0818385707201,
positions.xlsx,stimuli.xlsx,test.xlsx,stimuli/Social2.png,stimuli/Social1.png,stimuli/Nonsocial2.png,stimuli/Nonsocial1.png,stimuli/Test1.png,stimuli/Test2.png,"(0.7, 0.5)",cs_minus_ns,"(-0.7, -0.5)",cs_plus_ns,0,0,0,0,,,,,0,29,29,43,,222.26848169998266,l,0.4776615999871865,correct,,33,D,2023-12-15_13h55.47.172,gca_discrimination,2022.2.4,144.0818385707201,
positions.xlsx,stimuli.xlsx,test.xlsx,stimuli/Social2.png,stimuli/Social1.png,stimuli/Nonsocial2.png,stimuli/Nonsocial1.png,stimuli/Test1.png,stimuli/Test2.png,"(0.7, -0.5)",cs_plus_s,"(-0.7, -0.5)",cs_plus_s,0,0,0,0,,,,,0,30,30,58,,225.39330999995582,ä,0.8571498000528663,correct,,33,D,2023-12-15_13h55.47.172,gca_discrimination,2022.2.4,144.0818385707201,
positions.xlsx,stimuli.xlsx,test.xlsx,stimuli/Social2.png,stimuli/Social1.png,stimuli/Nonsocial2.png,stimuli/Nonsocial1.png,stimuli/Test1.png,stimuli/Test2.png,"(-0.7, 0.5)",cs_plus_s,"(0.7, 0.5)",cs_plus_s,0,0,0,0,,,,,0,31,31,49,,228.78206979995593,ä,0.5234726999187842,correct,,33,D,2023-12-15_13h55.47.172,gca_discrimination,2022.2.4,144.0818385707201,
positions.xlsx,stimuli.xlsx,test.xlsx,stimuli/Social2.png,stimuli/Social1.png,stimuli/Nonsocial2.png,stimuli/Nonsocial1.png,stimuli/Test1.png,stimuli/Test2.png,"(0.7, -0.5)",cs_minus_ns,"(-0.7, -0.5)",cs_plus_ns,0,0,0,0,,,,,0,32,32,46,,231.768136199913,l,0.6501575999427587,correct,,33,D,2023-12-15_13h55.47.172,gca_discrimination,2022.2.4,144.0818385707201,
positions.xlsx,stimuli.xlsx,test.xlsx,stimuli/Social2.png,stimuli/Social1.png,stimuli/Nonsocial2.png,stimuli/Nonsocial1.png,stimuli/Test1.png,stimuli/Test2.png,"(0.7, 0.5)",cs_plus_s,"(-0.7, -0.5)",cs_minus_s,0,0,0,0,,,,,0,33,33,7,,234.47635579993948,l,0.6627852999372408,correct,,33,D,2023-12-15_13h55.47.172,gca_discrimination,2022.2.4,144.0818385707201,
positions.xlsx,stimuli.xlsx,test.xlsx,stimuli/Social2.png,stimuli/Social1.png,stimuli/Nonsocial2.png,stimuli/Nonsocial1.png,stimuli/Test1.png,stimuli/Test2.png,"(-0.7, -0.5)",cs_plus_s,"(0.7, -0.5)",cs_minus_s,0,0,0,0,,,,,0,34,34,5,,237.60814519994892,l,0.86500679992605,correct,,33,D,2023-12-15_13h55.47.172,gca_discrimination,2022.2.4,144.0818385707201,
positions.xlsx,stimuli.xlsx,test.xlsx,stimuli/Social2.png,stimuli/Social1.png,stimuli/Nonsocial2.png,stimuli/Nonsocial1.png,stimuli/Test1.png,stimuli/Test2.png,"(0.7, 0.5)",cs_plus_s,"(0.7, -0.5)",cs_plus_s,0,0,0,0,,,,,0,35,35,56,,240.87884879997,ä,0.6997507000342011,correct,,33,D,2023-12-15_13h55.47.172,gca_discrimination,2022.2.4,144.0818385707201,
positions.xlsx,stimuli.xlsx,test.xlsx,stimuli/Social2.png,stimuli/Social1.png,stimuli/Nonsocial2.png,stimuli/Nonsocial1.png,stimuli/Test1.png,stimuli/Test2.png,"(-0.7, 0.5)",cs_minus_ns,"(0.7, -0.5)",cs_minus_ns,0,0,0,0,,,,,0,36,36,86,,244.35090769990347,ä,0.4903855000156909,correct,,33,D,2023-12-15_13h55.47.172,gca_discrimination,2022.2.4,144.0818385707201,
positions.xlsx,stimuli.xlsx,test.xlsx,stimuli/Social2.png,stimuli/Social1.png,stimuli/Nonsocial2.png,stimuli/Nonsocial1.png,stimuli/Test1.png,stimuli/Test2.png,"(-0.7, -0.5)",cs_minus_s,"(-0.7, 0.5)",cs_plus_s,0,0,0,0,,,,,0,37,37,15,,246.78835479996633,l,0.9252512000966817,correct,,33,D,2023-12-15_13h55.47.172,gca_discrimination,2022.2.4,144.0818385707201,
positions.xlsx,stimuli.xlsx,test.xlsx,stimuli/Social2.png,stimuli/Social1.png,stimuli/Nonsocial2.png,stimuli/Nonsocial1.png,stimuli/Test1.png,stimuli/Test2.png,"(-0.7, 0.5)",cs_plus_ns,"(-0.7, -0.5)",cs_minus_ns,0,0,0,0,,,,,0,38,38,24,,249.76739499997348,l,1.0907297000521794,correct,,33,D,2023-12-15_13h55.47.172,gca_discrimination,2022.2.4,144.0818385707201,
positions.xlsx,stimuli.xlsx,test.xlsx,stimuli/Social2.png,stimuli/Social1.png,stimuli/Nonsocial2.png,stimuli/Nonsocial1.png,stimuli/Test1.png,stimuli/Test2.png,"(-0.7, -0.5)",cs_minus_ns,"(0.7, 0.5)",cs_plus_ns,0,0,0,0,,,,,0,39,39,40,,253.39222609996796,l,0.7066885000094771,correct,,33,D,2023-12-15_13h55.47.172,gca_discrimination,2022.2.4,144.0818385707201,
positions.xlsx,stimuli.xlsx,test.xlsx,stimuli/Social2.png,stimuli/Social1.png,stimuli/Nonsocial2.png,stimuli/Nonsocial1.png,stimuli/Test1.png,stimuli/Test2.png,"(-0.7, -0.5)",cs_minus_ns,"(0.7, 0.5)",cs_minus_ns,0,0,0,0,,,,,0,40,40,88,,256.6838430999778,ä,0.4298078001011163,correct,,33,D,2023-12-15_13h55.47.172,gca_discrimination,2022.2.4,144.0818385707201,
positions.xlsx,stimuli.xlsx,test.xlsx,stimuli/Social2.png,stimuli/Social1.png,stimuli/Nonsocial2.png,stimuli/Nonsocial1.png,stimuli/Test1.png,stimuli/Test2.png,"(-0.7, 0.5)",cs_plus_s,"(0.7, 0.5)",cs_minus_s,0,0,0,0,,,,,0,41,41,1,,259.23924299993087,l,0.7545108000049368,correct,,33,D,2023-12-15_13h55.47.172,gca_discrimination,2022.2.4,144.0818385707201,
positions.xlsx,stimuli.xlsx,test.xlsx,stimuli/Social2.png,stimuli/Social1.png,stimuli/Nonsocial2.png,stimuli/Nonsocial1.png,stimuli/Test1.png,stimuli/Test2.png,"(0.7, -0.5)",cs_plus_s,"(0.7, 0.5)",cs_plus_s,0,0,0,0,,,,,0,42,42,59,,261.8293926999904,ä,0.476077500032261,correct,,33,D,2023-12-15_13h55.47.172,gca_discrimination,2022.2.4,144.0818385707201,
positions.xlsx,stimuli.xlsx,test.xlsx,stimuli/Social2.png,stimuli/Social1.png,stimuli/Nonsocial2.png,stimuli/Nonsocial1.png,stimuli/Test1.png,stimuli/Test2.png,"(0.7, 0.5)",cs_minus_s,"(-0.7, -0.5)",cs_minus_s,0,0,0,0,,,,,0,43,43,67,,265.0098384999437,ä,0.5044136999640614,correct,,33,D,2023-12-15_13h55.47.172,gca_discrimination,2022.2.4,144.0818385707201,
positions.xlsx,stimuli.xlsx,test.xlsx,stimuli/Social2.png,stimuli/Social1.png,stimuli/Nonsocial2.png,stimuli/Nonsocial1.png,stimuli/Test1.png,stimuli/Test2.png,"(-0.7, 0.5)",cs_plus_ns,"(0.7, -0.5)",cs_plus_ns,0,0,0,0,,,,,0,44,44,74,,267.9472497999668,ä,0.5661047000903636,correct,,33,D,2023-12-15_13h55.47.172,gca_discrimination,2022.2.4,144.0818385707201,
positions.xlsx,stimuli.xlsx,test.xlsx,stimuli/Social2.png,stimuli/Social1.png,stimuli/Nonsocial2.png,stimuli/Nonsocial1.png,stimuli/Test1.png,stimuli/Test2.png,"(-0.7, 0.5)",cs_plus_ns,"(0.7, 0.5)",cs_plus_ns,0,0,0,0,,,,,0,45,45,73,,270.5235339999199,ä,0.5109994999365881,correct,,33,D,2023-12-15_13h55.47.172,gca_discrimination,2022.2.4,144.0818385707201,
positions.xlsx,stimuli.xlsx,test.xlsx,stimuli/Social2.png,stimuli/Social1.png,stimuli/Nonsocial2.png,stimuli/Nonsocial1.png,stimuli/Test1.png,stimuli/Test2.png,"(-0.7, 0.5)",cs_plus_s,"(-0.7, -0.5)",cs_minus_s,0,0,0,0,,,,,0,46,46,0,,273.58588739996776,l,0.5684034000150859,correct,,33,D,2023-12-15_13h55.47.172,gca_discrimination,2022.2.4,144.0818385707201,
positions.xlsx,stimuli.xlsx,test.xlsx,stimuli/Social2.png,stimuli/Social1.png,stimuli/Nonsocial2.png,stimuli/Nonsocial1.png,stimuli/Test1.png,stimuli/Test2.png,"(0.7, 0.5)",cs_plus_ns,"(-0.7, -0.5)",cs_minus_ns,0,0,0,0,,,,,0,47,47,31,,276.71774160000496,l,0.6838425999740139,correct,,33,D,2023-12-15_13h55.47.172,gca_discrimination,2022.2.4,144.0818385707201,
positions.xlsx,stimuli.xlsx,test.xlsx,stimuli/Social2.png,stimuli/Social1.png,stimuli/Nonsocial2.png,stimuli/Nonsocial1.png,stimuli/Test1.png,stimuli/Test2.png,"(-0.7, -0.5)",cs_minus_ns,"(0.7, -0.5)",cs_minus_ns,0,0,0,0,,,,,0,48,48,89,,279.3009633999318,ä,0.4453446000115946,correct,,33,D,2023-12-15_13h55.47.172,gca_discrimination,2022.2.4,144.0818385707201,
positions.xlsx,stimuli.xlsx,test.xlsx,stimuli/Social2.png,stimuli/Social1.png,stimuli/Nonsocial2.png,stimuli/Nonsocial1.png,stimuli/Test1.png,stimuli/Test2.png,"(-0.7, 0.5)",cs_minus_s,"(0.7, -0.5)",cs_plus_s,0,0,0,0,,,,,0,49,49,14,,282.335580999963,l,0.5621966000180691,correct,,33,D,2023-12-15_13h55.47.172,gca_discrimination,2022.2.4,144.0818385707201,
positions.xlsx,stimuli.xlsx,test.xlsx,stimuli/Social2.png,stimuli/Social1.png,stimuli/Nonsocial2.png,stimuli/Nonsocial1.png,stimuli/Test1.png,stimuli/Test2.png,"(0.7, -0.5)",cs_minus_s,"(-0.7, 0.5)",cs_minus_s,0,0,0,0,,,,,0,50,50,69,,285.24518239998724,ä,0.597062100074254,correct,,33,D,2023-12-15_13h55.47.172,gca_discrimination,2022.2.4,144.0818385707201,
positions.xlsx,stimuli.xlsx,test.xlsx,stimuli/Social2.png,stimuli/Social1.png,stimuli/Nonsocial2.png,stimuli/Nonsocial1.png,stimuli/Test1.png,stimuli/Test2.png,"(0.7, 0.5)",cs_plus_ns,"(-0.7, 0.5)",cs_plus_ns,0,0,0,0,,,,,0,51,51,78,,287.96729269996285,ä,0.6356269000098109,correct,,33,D,2023-12-15_13h55.47.172,gca_discrimination,2022.2.4,144.0818385707201,
positions.xlsx,stimuli.xlsx,test.xlsx,stimuli/Social2.png,stimuli/Social1.png,stimuli/Nonsocial2.png,stimuli/Nonsocial1.png,stimuli/Test1.png,stimuli/Test2.png,"(-0.7, 0.5)",cs_plus_ns,"(0.7, 0.5)",cs_minus_ns,0,0,0,0,,,,,0,52,52,25,,290.43243609997444,l,0.5222739999881014,correct,,33,D,2023-12-15_13h55.47.172,gca_discrimination,2022.2.4,144.0818385707201,
positions.xlsx,stimuli.xlsx,test.xlsx,stimuli/Social2.png,stimuli/Social1.png,stimuli/Nonsocial2.png,stimuli/Nonsocial1.png,stimuli/Test1.png,stimuli/Test2.png,"(-0.7, 0.5)",cs_minus_ns,"(0.7, 0.5)",cs_minus_ns,0,0,0,0,,,,,0,53,53,85,,293.75873759994283,ä,0.45045309991110116,correct,,33,D,2023-12-15_13h55.47.172,gca_discrimination,2022.2.4,144.0818385707201,
positions.xlsx,stimuli.xlsx,test.xlsx,stimuli/Social2.png,stimuli/Social1.png,stimuli/Nonsocial2.png,stimuli/Nonsocial1.png,stimuli/Test1.png,stimuli/Test2.png,"(-0.7, -0.5)",cs_minus_ns,"(-0.7, 0.5)",cs_minus_ns,0,0,0,0,,,,,0,54,54,87,,296.1267023999244,ä,0.4834400999825448,correct,,33,D,2023-12-15_13h55.47.172,gca_discrimination,2022.2.4,144.0818385707201,
positions.xlsx,stimuli.xlsx,test.xlsx,stimuli/Social2.png,stimuli/Social1.png,stimuli/Nonsocial2.png,stimuli/Nonsocial1.png,stimuli/Test1.png,stimuli/Test2.png,"(0.7, -0.5)",cs_plus_s,"(-0.7, 0.5)",cs_minus_s,0,0,0,0,,,,,0,55,55,9,,298.82797659991775,l,0.5902694000396878,correct,,33,D,2023-12-15_13h55.47.172,gca_discrimination,2022.2.4,144.0818385707201,
positions.xlsx,stimuli.xlsx,test.xlsx,stimuli/Social2.png,stimuli/Social1.png,stimuli/Nonsocial2.png,stimuli/Nonsocial1.png,stimuli/Test1.png,stimuli/Test2.png,"(0.7, -0.5)",cs_plus_s,"(-0.7, 0.5)",cs_plus_s,0,0,0,0,,,,,0,56,56,57,,302.0084105998976,ä,0.6808146999683231,correct,,33,D,2023-12-15_13h55.47.172,gca_discrimination,2022.2.4,144.0818385707201,
positions.xlsx,stimuli.xlsx,test.xlsx,stimuli/Social2.png,stimuli/Social1.png,stimuli/Nonsocial2.png,stimuli/Nonsocial1.png,stimuli/Test1.png,stimuli/Test2.png,"(-0.7, 0.5)",cs_minus_ns,"(0.7, -0.5)",cs_plus_ns,0,0,0,0,,,,,0,57,57,38,,304.5430405999068,l,0.46693120000418276,correct,,33,D,2023-12-15_13h55.47.172,gca_discrimination,2022.2.4,144.0818385707201,
positions.xlsx,stimuli.xlsx,test.xlsx,stimuli/Social2.png,stimuli/Social1.png,stimuli/Nonsocial2.png,stimuli/Nonsocial1.png,stimuli/Test1.png,stimuli/Test2.png,"(0.7, -0.5)",cs_minus_s,"(-0.7, -0.5)",cs_minus_s,0,0,0,0,,,,,0,58,58,70,,307.16793699993286,ä,0.43442980002146214,correct,,33,D,2023-12-15_13h55.47.172,gca_discrimination,2022.2.4,144.0818385707201,
positions.xlsx,stimuli.xlsx,test.xlsx,stimuli/Social2.png,stimuli/Social1.png,stimuli/Nonsocial2.png,stimuli/Nonsocial1.png,stimuli/Test1.png,stimuli/Test2.png,"(-0.7, 0.5)",cs_minus_s,"(-0.7, -0.5)",cs_minus_s,0,0,0,0,,,,,0,59,59,60,,310.1955886000069,ä,0.4384403000585735,correct,,33,D,2023-12-15_13h55.47.172,gca_discrimination,2022.2.4,144.0818385707201,
positions.xlsx,stimuli.xlsx,test.xlsx,stimuli/Social2.png,stimuli/Social1.png,stimuli/Nonsocial2.png,stimuli/Nonsocial1.png,stimuli/Test1.png,stimuli/Test2.png,"(-0.7, -0.5)",cs_minus_s,"(0.7, -0.5)",cs_minus_s,0,0,0,0,,,,,0,60,60,65,,313.2162874999922,ä,0.4183949999278411,correct,,33,D,2023-12-15_13h55.47.172,gca_discrimination,2022.2.4,144.0818385707201,
positions.xlsx,stimuli.xlsx,test.xlsx,stimuli/Social2.png,stimuli/Social1.png,stimuli/Nonsocial2.png,stimuli/Nonsocial1.png,stimuli/Test1.png,stimuli/Test2.png,"(-0.7, 0.5)",cs_plus_s,"(0.7, -0.5)",cs_minus_s,0,0,0,0,,,,,0,61,61,2,,316.33425819990225,l,0.5395360999973491,correct,,33,D,2023-12-15_13h55.47.172,gca_discrimination,2022.2.4,144.0818385707201,
positions.xlsx,stimuli.xlsx,test.xlsx,stimuli/Social2.png,stimuli/Social1.png,stimuli/Nonsocial2.png,stimuli/Nonsocial1.png,stimuli/Test1.png,stimuli/Test2.png,"(0.7, -0.5)",cs_minus_ns,"(0.7, 0.5)",cs_minus_ns,0,0,0,0,,,,,0,62,62,95,,319.59105189994443,ä,0.4830892999889329,correct,,33,D,2023-12-15_13h55.47.172,gca_discrimination,2022.2.4,144.0818385707201,
positions.xlsx,stimuli.xlsx,test.xlsx,stimuli/Social2.png,stimuli/Social1.png,stimuli/Nonsocial2.png,stimuli/Nonsocial1.png,stimuli/Test1.png,stimuli/Test2.png,"(0.7, 0.5)",cs_minus_ns,"(-0.7, 0.5)",cs_plus_ns,0,0,0,0,,,,,0,63,63,42,,322.3131839999696,l,0.5368787000188604,correct,,33,D,2023-12-15_13h55.47.172,gca_discrimination,2022.2.4,144.0818385707201,
positions.xlsx,stimuli.xlsx,test.xlsx,stimuli/Social2.png,stimuli/Social1.png,stimuli/Nonsocial2.png,stimuli/Nonsocial1.png,stimuli/Test1.png,stimuli/Test2.png,"(0.7, -0.5)",cs_plus_ns,"(0.7, 0.5)",cs_minus_ns,0,0,0,0,,,,,0,64,64,35,,324.9033687999472,l,0.8020665999501944,correct,,33,D,2023-12-15_13h55.47.172,gca_discrimination,2022.2.4,144.0818385707201,
positions.xlsx,stimuli.xlsx,test.xlsx,stimuli/Social2.png,stimuli/Social1.png,stimuli/Nonsocial2.png,stimuli/Nonsocial1.png,stimuli/Test1.png,stimuli/Test2.png,"(0.7, 0.5)",cs_plus_s,"(-0.7, 0.5)",cs_plus_s,0,0,0,0,,,,,0,65,65,54,,328.45180429995526,ä,0.5579510000534356,correct,,33,D,2023-12-15_13h55.47.172,gca_discrimination,2022.2.4,144.0818385707201,
positions.xlsx,stimuli.xlsx,test.xlsx,stimuli/Social2.png,stimuli/Social1.png,stimuli/Nonsocial2.png,stimuli/Nonsocial1.png,stimuli/Test1.png,stimuli/Test2.png,"(0.7, 0.5)",cs_plus_ns,"(0.7, -0.5)",cs_plus_ns,0,0,0,0,,,,,0,66,66,80,,331.38228479993995,ä,0.5877352999523282,correct,,33,D,2023-12-15_13h55.47.172,gca_discrimination,2022.2.4,144.0818385707201,
positions.xlsx,stimuli.xlsx,test.xlsx,stimuli/Social2.png,stimuli/Social1.png,stimuli/Nonsocial2.png,stimuli/Nonsocial1.png,stimuli/Test1.png,stimuli/Test2.png,"(-0.7, -0.5)",cs_plus_ns,"(0.7, -0.5)",cs_plus_ns,0,0,0,0,,,,,0,67,67,77,,334.4585201999871,ä,0.4806150000076741,correct,,33,D,2023-12-15_13h55.47.172,gca_discrimination,2022.2.4,144.0818385707201,
positions.xlsx,stimuli.xlsx,test.xlsx,stimuli/Social2.png,stimuli/Social1.png,stimuli/Nonsocial2.png,stimuli/Nonsocial1.png,stimuli/Test1.png,stimuli/Test2.png,"(-0.7, -0.5)",cs_minus_s,"(0.7, 0.5)",cs_minus_s,0,0,0,0,,,,,0,68,68,64,,337.34731399989687,ä,0.6556772999465466,correct,,33,D,2023-12-15_13h55.47.172,gca_discrimination,2022.2.4,144.0818385707201,
positions.xlsx,stimuli.xlsx,test.xlsx,stimuli/Social2.png,stimuli/Social1.png,stimuli/Nonsocial2.png,stimuli/Nonsocial1.png,stimuli/Test1.png,stimuli/Test2.png,"(-0.7, 0.5)",cs_minus_s,"(0.7, 0.5)",cs_plus_s,0,0,0,0,,,,,0,69,69,13,,340.6527470999863,l,0.5013824000488967,correct,,33,D,2023-12-15_13h55.47.172,gca_discrimination,2022.2.4,144.0818385707201,
positions.xlsx,stimuli.xlsx,test.xlsx,stimuli/Social2.png,stimuli/Social1.png,stimuli/Nonsocial2.png,stimuli/Nonsocial1.png,stimuli/Test1.png,stimuli/Test2.png,"(-0.7, -0.5)",cs_minus_ns,"(0.7, -0.5)",cs_plus_ns,0,0,0,0,,,,,0,70,70,41,,343.43734619999304,l,0.5573304999852553,correct,,33,D,2023-12-15_13h55.47.172,gca_discrimination,2022.2.4,144.0818385707201,
positions.xlsx,stimuli.xlsx,test.xlsx,stimuli/Social2.png,stimuli/Social1.png,stimuli/Nonsocial2.png,stimuli/Nonsocial1.png,stimuli/Test1.png,stimuli/Test2.png,"(-0.7, -0.5)",cs_minus_s,"(-0.7, 0.5)",cs_minus_s,0,0,0,0,,,,,0,71,71,63,,346.15945439995266,ä,0.6025082000996917,correct,,33,D,2023-12-15_13h55.47.172,gca_discrimination,2022.2.4,144.0818385707201,
positions.xlsx,stimuli.xlsx,test.xlsx,stimuli/Social2.png,stimuli/Social1.png,stimuli/Nonsocial2.png,stimuli/Nonsocial1.png,stimuli/Test1.png,stimuli/Test2.png,"(0.7, 0.5)",cs_plus_s,"(0.7, -0.5)",cs_minus_s,0,0,0,0,,,,,0,72,72,8,,348.73577869997825,l,0.5300259999930859,correct,,33,D,2023-12-15_13h55.47.172,gca_discrimination,2022.2.4,144.0818385707201,
positions.xlsx,stimuli.xlsx,test.xlsx,stimuli/Social2.png,stimuli/Social1.png,stimuli/Nonsocial2.png,stimuli/Nonsocial1.png,stimuli/Test1.png,stimuli/Test2.png,"(-0.7, -0.5)",cs_plus_s,"(0.7, 0.5)",cs_plus_s,0,0,0,0,,,,,0,73,73,52,,351.55512799997814,ä,0.7981686000712216,correct,,33,D,2023-12-15_13h55.47.172,gca_discrimination,2022.2.4,144.0818385707201,
positions.xlsx,stimuli.xlsx,test.xlsx,stimuli/Social2.png,stimuli/Social1.png,stimuli/Nonsocial2.png,stimuli/Nonsocial1.png,stimuli/Test1.png,stimuli/Test2.png,"(0.7, 0.5)",cs_plus_s,"(-0.7, -0.5)",cs_plus_s,0,0,0,0,,,,,0,74,74,55,,354.992491699988,ä,0.6169928000308573,correct,,33,D,2023-12-15_13h55.47.172,gca_discrimination,2022.2.4,144.0818385707201,
positions.xlsx,stimuli.xlsx,test.xlsx,stimuli/Social2.png,stimuli/Social1.png,stimuli/Nonsocial2.png,stimuli/Nonsocial1.png,stimuli/Test1.png,stimuli/Test2.png,"(-0.7, -0.5)",cs_minus_s,"(0.7, -0.5)",cs_plus_s,0,0,0,0,,,,,0,75,75,17,,357.79099479992874,l,0.506537799956277,correct,,33,D,2023-12-15_13h55.47.172,gca_discrimination,2022.2.4,144.0818385707201,
positions.xlsx,stimuli.xlsx,test.xlsx,stimuli/Social2.png,stimuli/Social1.png,stimuli/Nonsocial2.png,stimuli/Nonsocial1.png,stimuli/Test1.png,stimuli/Test2.png,"(-0.7, -0.5)",cs_plus_s,"(0.7, -0.5)",cs_plus_s,0,0,0,0,,,,,0,76,76,53,,360.23533629998565,ä,0.5823916000081226,correct,,33,D,2023-12-15_13h55.47.172,gca_discrimination,2022.2.4,144.0818385707201,
positions.xlsx,stimuli.xlsx,test.xlsx,stimuli/Social2.png,stimuli/Social1.png,stimuli/Nonsocial2.png,stimuli/Nonsocial1.png,stimuli/Test1.png,stimuli/Test2.png,"(0.7, -0.5)",cs_plus_s,"(-0.7, -0.5)",cs_minus_s,0,0,0,0,,,,,0,77,77,10,,363.17276639991906,l,0.8455151999369264,correct,,33,D,2023-12-15_13h55.47.172,gca_discrimination,2022.2.4,144.0818385707201,
positions.xlsx,stimuli.xlsx,test.xlsx,stimuli/Social2.png,stimuli/Social1.png,stimuli/Nonsocial2.png,stimuli/Nonsocial1.png,stimuli/Test1.png,stimuli/Test2.png,"(-0.7, -0.5)",cs_plus_ns,"(-0.7, 0.5)",cs_minus_ns,0,0,0,0,,,,,0,78,78,27,,366.67263089993503,l,0.5219918000511825,correct,,33,D,2023-12-15_13h55.47.172,gca_discrimination,2022.2.4,144.0818385707201,
positions.xlsx,stimuli.xlsx,test.xlsx,stimuli/Social2.png,stimuli/Social1.png,stimuli/Nonsocial2.png,stimuli/Nonsocial1.png,stimuli/Test1.png,stimuli/Test2.png,"(-0.7, 0.5)",cs_plus_s,"(0.7, -0.5)",cs_plus_s,0,0,0,0,,,,,0,79,79,50,,369.49887019989546,ä,0.3587641000049189,correct,,33,D,2023-12-15_13h55.47.172,gca_discrimination,2022.2.4,144.0818385707201,
positions.xlsx,stimuli.xlsx,test.xlsx,stimuli/Social2.png,stimuli/Social1.png,stimuli/Nonsocial2.png,stimuli/Nonsocial1.png,stimuli/Test1.png,stimuli/Test2.png,"(0.7, 0.5)",cs_plus_ns,"(0.7, -0.5)",cs_minus_ns,0,0,0,0,,,,,0,80,80,32,,372.1932034000056,l,0.5689055999973789,correct,,33,D,2023-12-15_13h55.47.172,gca_discrimination,2022.2.4,144.0818385707201,
positions.xlsx,stimuli.xlsx,test.xlsx,stimuli/Social2.png,stimuli/Social1.png,stimuli/Nonsocial2.png,stimuli/Nonsocial1.png,stimuli/Test1.png,stimuli/Test2.png,"(0.7, -0.5)",cs_minus_s,"(0.7, 0.5)",cs_minus_s,0,0,0,0,,,,,0,81,81,71,,375.5541924999561,ä,0.5035483000101522,correct,,33,D,2023-12-15_13h55.47.172,gca_discrimination,2022.2.4,144.0818385707201,
positions.xlsx,stimuli.xlsx,test.xlsx,stimuli/Social2.png,stimuli/Social1.png,stimuli/Nonsocial2.png,stimuli/Nonsocial1.png,stimuli/Test1.png,stimuli/Test2.png,"(0.7, -0.5)",cs_plus_ns,"(-0.7, 0.5)",cs_minus_ns,0,0,0,0,,,,,0,82,82,33,,377.984645599965,l,0.5221117000328377,correct,,33,D,2023-12-15_13h55.47.172,gca_discrimination,2022.2.4,144.0818385707201,
positions.xlsx,stimuli.xlsx,test.xlsx,stimuli/Social2.png,stimuli/Social1.png,stimuli/Nonsocial2.png,stimuli/Nonsocial1.png,stimuli/Test1.png,stimuli/Test2.png,"(0.7, -0.5)",cs_minus_ns,"(0.7, 0.5)",cs_plus_ns,0,0,0,0,,,,,0,83,83,47,,380.81785419990774,l,0.5600606999360025,correct,,33,D,2023-12-15_13h55.47.172,gca_discrimination,2022.2.4,144.0818385707201,
positions.xlsx,stimuli.xlsx,test.xlsx,stimuli/Social2.png,stimuli/Social1.png,stimuli/Nonsocial2.png,stimuli/Nonsocial1.png,stimuli/Test1.png,stimuli/Test2.png,"(0.7, 0.5)",cs_minus_s,"(-0.7, 0.5)",cs_plus_s,0,0,0,0,,,,,0,84,84,18,,383.74832039989997,l,0.5011815000325441,correct,,33,D,2023-12-15_13h55.47.172,gca_discrimination,2022.2.4,144.0818385707201,
positions.xlsx,stimuli.xlsx,test.xlsx,stimuli/Social2.png,stimuli/Social1.png,stimuli/Nonsocial2.png,stimuli/Nonsocial1.png,stimuli/Test1.png,stimuli/Test2.png,"(0.7, 0.5)",cs_minus_s,"(-0.7, 0.5)",cs_minus_s,0,0,0,0,,,,,0,85,85,66,,386.56070709996857,ä,0.5293351000873372,correct,,33,D,2023-12-15_13h55.47.172,gca_discrimination,2022.2.4,144.0818385707201,
positions.xlsx,stimuli.xlsx,test.xlsx,stimuli/Social2.png,stimuli/Social1.png,stimuli/Nonsocial2.png,stimuli/Nonsocial1.png,stimuli/Test1.png,stimuli/Test2.png,"(0.7, -0.5)",cs_plus_ns,"(-0.7, -0.5)",cs_minus_ns,0,0,0,0,,,,,0,86,86,34,,388.96339709998574,l,0.5106262000044808,correct,,33,D,2023-12-15_13h55.47.172,gca_discrimination,2022.2.4,144.0818385707201,
positions.xlsx,stimuli.xlsx,test.xlsx,stimuli/Social2.png,stimuli/Social1.png,stimuli/Nonsocial2.png,stimuli/Nonsocial1.png,stimuli/Test1.png,stimuli/Test2.png,"(-0.7, -0.5)",cs_plus_s,"(-0.7, 0.5)",cs_plus_s,0,0,0,0,,,,,0,87,87,51,,392.2688105999259,ä,0.9735980000114068,correct,,33,D,2023-12-15_13h55.47.172,gca_discrimination,2022.2.4,144.0818385707201,
positions.xlsx,stimuli.xlsx,test.xlsx,stimuli/Social2.png,stimuli/Social1.png,stimuli/Nonsocial2.png,stimuli/Nonsocial1.png,stimuli/Test1.png,stimuli/Test2.png,"(-0.7, -0.5)",cs_plus_ns,"(-0.7, 0.5)",cs_plus_ns,0,0,0,0,,,,,0,88,88,75,,395.650636699982,ä,0.4877935000695288,correct,,33,D,2023-12-15_13h55.47.172,gca_discrimination,2022.2.4,144.0818385707201,
positions.xlsx,stimuli.xlsx,test.xlsx,stimuli/Social2.png,stimuli/Social1.png,stimuli/Nonsocial2.png,stimuli/Nonsocial1.png,stimuli/Test1.png,stimuli/Test2.png,"(-0.7, -0.5)",cs_plus_s,"(-0.7, 0.5)",cs_minus_s,0,0,0,0,,,,,0,89,89,3,,398.1713672999758,l,0.5498943000566214,correct,,33,D,2023-12-15_13h55.47.172,gca_discrimination,2022.2.4,144.0818385707201,
positions.xlsx,stimuli.xlsx,test.xlsx,stimuli/Social2.png,stimuli/Social1.png,stimuli/Nonsocial2.png,stimuli/Nonsocial1.png,stimuli/Test1.png,stimuli/Test2.png,"(0.7, -0.5)",cs_minus_s,"(-0.7, 0.5)",cs_plus_s,0,0,0,0,,,,,0,90,90,21,,400.699067599955,l,0.8705203999998048,correct,,33,D,2023-12-15_13h55.47.172,gca_discrimination,2022.2.4,144.0818385707201,
positions.xlsx,stimuli.xlsx,test.xlsx,stimuli/Social2.png,stimuli/Social1.png,stimuli/Nonsocial2.png,stimuli/Nonsocial1.png,stimuli/Test1.png,stimuli/Test2.png,"(-0.7, 0.5)",cs_minus_ns,"(0.7, 0.5)",cs_plus_ns,0,0,0,0,,,,,0,91,91,37,,403.6781304999022,l,0.5316718999529257,correct,,33,D,2023-12-15_13h55.47.172,gca_discrimination,2022.2.4,144.0818385707201,
positions.xlsx,stimuli.xlsx,test.xlsx,stimuli/Social2.png,stimuli/Social1.png,stimuli/Nonsocial2.png,stimuli/Nonsocial1.png,stimuli/Test1.png,stimuli/Test2.png,"(0.7, -0.5)",cs_minus_s,"(0.7, 0.5)",cs_plus_s,0,0,0,0,,,,,0,92,92,23,,406.4487790999701,l,0.5290753000881523,correct,,33,D,2023-12-15_13h55.47.172,gca_discrimination,2022.2.4,144.0818385707201,
positions.xlsx,stimuli.xlsx,test.xlsx,stimuli/Social2.png,stimuli/Social1.png,stimuli/Nonsocial2.png,stimuli/Nonsocial1.png,stimuli/Test1.png,stimuli/Test2.png,"(0.7, 0.5)",cs_minus_s,"(-0.7, -0.5)",cs_plus_s,0,0,0,0,,,,,0,93,93,19,,409.0668014999246,l,0.5025446999352425,correct,,33,D,2023-12-15_13h55.47.172,gca_discrimination,2022.2.4,144.0818385707201,
positions.xlsx,stimuli.xlsx,test.xlsx,stimuli/Social2.png,stimuli/Social1.png,stimuli/Nonsocial2.png,stimuli/Nonsocial1.png,stimuli/Test1.png,stimuli/Test2.png,"(0.7, 0.5)",cs_plus_ns,"(-0.7, 0.5)",cs_minus_ns,0,0,0,0,,,,,0,94,94,30,,411.8652744999854,l,0.45626080001238734,correct,,33,D,2023-12-15_13h55.47.172,gca_discrimination,2022.2.4,144.0818385707201,
positions.xlsx,stimuli.xlsx,test.xlsx,stimuli/Social2.png,stimuli/Social1.png,stimuli/Nonsocial2.png,stimuli/Nonsocial1.png,stimuli/Test1.png,stimuli/Test2.png,"(-0.7, 0.5)",cs_minus_s,"(0.7, -0.5)",cs_minus_s,0,0,0,0,,,,,0,95,95,62,,414.62905899994075,ä,0.39665999996941537,correct,,33,D,2023-12-15_13h55.47.172,gca_discrimination,2022.2.4,144.0818385707201,
