posFile,stimFile,testFile,cs_plus_s,cs_minus_s,cs_plus_ns,cs_minus_ns,test1,test2,position1,trialtype,position2,comptype,blocks.thisRepN,blocks.thisTrialN,blocks.thisN,blocks.thisIndex,learning_trials.thisRepN,learning_trials.thisTrialN,learning_trials.thisN,learning_trials.thisIndex,trials.thisRepN,trials.thisTrialN,trials.thisN,trials.thisIndex,textStart.started,spaceStart.started,spaceStart.keys,spaceStart.rt,textStartExp.started,textExpImages.started,ImageLearning1.started,ImageLearning2.started,textSpace.started,spaceStartExp.started,spaceStartExp.keys,spaceStartExp.rt,blankScreen.started,blankScreen.stopped,fixcross.started,firstImage.started,fixcrossImage1.started,fixcrossITI.started,secondImage.started,fixcrossImage2.started,key.started,key.keys,key.rt,correctness,feedbackText.started,fixcrossEnd.started,fixcrossEnd.stopped,fixcross.stopped,feedbackText.stopped,textStartTask.started,textTaskImages.started,ImageTask1.started,ImageTask2.started,ImageTask3.started,ImageTask4.started,textTaskSpace.started,spaceStartTask.started,spaceStartTask.keys,spaceStartTask.rt,participant,group,date,expName,psychopyVersion,frameRate,
,,,,,,,,,,,,,,,,,,,,,,,,,13.890410399995744,13.890410399995744,space,5.581896699965,,,,,,,,,,,,,,,,,,,,,,,,,,,,,,,,,,,,17,B,2023-12-11_10h54.33.458,gca_discrimination,2022.2.4,143.92071702188983,
positions.xlsx,stimuli.xlsx,test.xlsx,stimuli/Social2.png,stimuli/Social1.png,stimuli/Nonsocial1.png,stimuli/Nonsocial2.png,stimuli/Test1.png,stimuli/Test2.png,"(-0.7, 0.5)",test2,"(-0.7, -0.5)",test2,0,0,0,0,0,0,0,1,,,,,,,,,19.487399899982847,19.487399899982847,19.487399899982847,19.487399899982847,19.487399899982847,19.487399899982847,space,16.320410799991805,35.82008530001622,37.743655400001444,37.743655400001444,38.75746120000258,38.75746120000258,38.889421099971514,39.403293400013354,39.403293400013354,39.54215459997067,ä,0.7937947000027634,correct,40.354618999990635,42.35454929998377,42.430933099996764,,,,,,,,,,,,,17,B,2023-12-11_10h54.33.458,gca_discrimination,2022.2.4,143.92071702188983,
positions.xlsx,stimuli.xlsx,test.xlsx,stimuli/Social2.png,stimuli/Social1.png,stimuli/Nonsocial1.png,stimuli/Nonsocial2.png,stimuli/Test1.png,stimuli/Test2.png,"(-0.7, -0.5)",test2,"(0.7, -0.5)",test2,0,0,0,0,0,1,1,9,,,,,,,,,,,,,,,,,,,42.430933099996764,43.43090999999549,43.43090999999549,43.58370760001708,44.08368719997816,44.08368719997816,44.23641429998679,ä,0.29101169999921694,correct,44.53504960000282,46.534969399974216,46.673840900009964,43.43090999999549,46.534969399974216,,,,,,,,,,,17,B,2023-12-11_10h54.33.458,gca_discrimination,2022.2.4,143.92071702188983,
positions.xlsx,stimuli.xlsx,test.xlsx,stimuli/Social2.png,stimuli/Social1.png,stimuli/Nonsocial1.png,stimuli/Nonsocial2.png,stimuli/Test1.png,stimuli/Test2.png,"(-0.7, -0.5)",test2,"(-0.7, 0.5)",test2,0,0,0,0,0,2,2,2,,,,,,,,,,,,,,,,,,,46.673840900009964,47.67379339999752,47.67379339999752,47.826611800002865,48.326555599982385,48.326555599982385,48.4792948999675,ä,0.3120718999998644,correct,48.79875189997256,50.79875209997408,51.56948000000557,47.67379339999752,50.79875209997408,,,,,,,,,,,17,B,2023-12-11_10h54.33.458,gca_discrimination,2022.2.4,143.92071702188983,
positions.xlsx,stimuli.xlsx,test.xlsx,stimuli/Social2.png,stimuli/Social1.png,stimuli/Nonsocial1.png,stimuli/Nonsocial2.png,stimuli/Test1.png,stimuli/Test2.png,"(-0.7, 0.5)",test2,"(0.7, -0.5)",test1,0,0,0,0,0,3,3,12,,,,,,,,,,,,,,,,,,,51.56948000000557,52.56944839999778,52.56944839999778,52.72221759997774,53.222194399975706,53.222194399975706,53.37496899999678,l,0.4252541000023484,correct,53.81242699996801,55.812358999974094,56.354004799970426,52.56944839999778,55.812358999974094,,,,,,,,,,,17,B,2023-12-11_10h54.33.458,gca_discrimination,2022.2.4,143.92071702188983,
positions.xlsx,stimuli.xlsx,test.xlsx,stimuli/Social2.png,stimuli/Social1.png,stimuli/Nonsocial1.png,stimuli/Nonsocial2.png,stimuli/Test1.png,stimuli/Test2.png,"(-0.7, 0.5)",test2,"(0.7, 0.5)",test1,0,0,0,0,0,4,4,3,,,,,,,,,,,,,,,,,,,56.354004799970426,57.353963000001386,57.353963000001386,57.50674089998938,58.00673079997068,58.00673079997068,58.15951480000513,l,0.43983449996449053,correct,58.61087979999138,60.61076619999949,61.57600669999374,57.353963000001386,60.61076619999949,,,,,,,,,,,17,B,2023-12-11_10h54.33.458,gca_discrimination,2022.2.4,143.92071702188983,
positions.xlsx,stimuli.xlsx,test.xlsx,stimuli/Social2.png,stimuli/Social1.png,stimuli/Nonsocial1.png,stimuli/Nonsocial2.png,stimuli/Test1.png,stimuli/Test2.png,"(0.7, -0.5)",test1,"(0.7, 0.5)",test1,0,0,0,0,0,5,5,10,,,,,,,,,,,,,,,,,,,61.57600669999374,62.575971300015226,62.575971300015226,62.72879029996693,63.22874190000584,63.22874190000584,63.381524899974465,ä,0.29933420004090294,correct,63.693972199980635,65.69393439998385,66.5341383999912,62.575971300015226,65.69393439998385,,,,,,,,,,,17,B,2023-12-11_10h54.33.458,gca_discrimination,2022.2.4,143.92071702188983,
positions.xlsx,stimuli.xlsx,test.xlsx,stimuli/Social2.png,stimuli/Social1.png,stimuli/Nonsocial1.png,stimuli/Nonsocial2.png,stimuli/Test1.png,stimuli/Test2.png,"(0.7, -0.5)",test2,"(-0.7, 0.5)",test1,0,0,0,0,0,6,6,4,,,,,,,,,,,,,,,,,,,66.5341383999912,67.53414190001786,67.53414190001786,67.68688880000263,68.1869082999765,68.1869082999765,68.3396474000183,ä,0.3237191999796778,wrong,68.67992520000553,70.67983490001643,71.38128329999745,67.53414190001786,,,,,,,,,,,,17,B,2023-12-11_10h54.33.458,gca_discrimination,2022.2.4,143.92071702188983,
positions.xlsx,stimuli.xlsx,test.xlsx,stimuli/Social2.png,stimuli/Social1.png,stimuli/Nonsocial1.png,stimuli/Nonsocial2.png,stimuli/Test1.png,stimuli/Test2.png,"(0.7, 0.5)",test2,"(-0.7, 0.5)",test1,0,0,0,0,0,7,7,13,,,,,,,,,,,,,,,,,,,71.38128329999745,72.38810879999073,72.38810879999073,72.53393689997029,73.03392820002045,73.03392820002045,73.18667149997782,l,0.39780229999450967,correct,73.59641220001504,75.59630919998745,75.6935541999992,72.38810879999073,75.59630919998745,,,,,,,,,,,17,B,2023-12-11_10h54.33.458,gca_discrimination,2022.2.4,143.92071702188983,
positions.xlsx,stimuli.xlsx,test.xlsx,stimuli/Social2.png,stimuli/Social1.png,stimuli/Nonsocial1.png,stimuli/Nonsocial2.png,stimuli/Test1.png,stimuli/Test2.png,"(0.7, 0.5)",test1,"(0.7, -0.5)",test2,0,0,0,0,0,8,8,11,,,,,,,,,,,,,,,,,,,75.6935541999992,76.69350779999513,76.69350779999513,76.84626909997314,77.34621320001315,77.34621320001315,77.49901550001232,l,0.49374569999054074,correct,78.00592389999656,80.00588469998911,80.74192689999472,76.69350779999513,80.00588469998911,,,,,,,,,,,17,B,2023-12-11_10h54.33.458,gca_discrimination,2022.2.4,143.92071702188983,
positions.xlsx,stimuli.xlsx,test.xlsx,stimuli/Social2.png,stimuli/Social1.png,stimuli/Nonsocial1.png,stimuli/Nonsocial2.png,stimuli/Test1.png,stimuli/Test2.png,"(0.7, 0.5)",test2,"(0.7, -0.5)",test1,0,0,0,0,0,9,9,6,,,,,,,,,,,,,,,,,,,80.74192689999472,81.74193359998753,81.74193359998753,81.89464529999532,82.39466689998517,82.39466689998517,82.54742369998712,l,0.47644310002215207,correct,83.03350209997734,85.03348430001643,85.56813679996412,81.74193359998753,85.03348430001643,,,,,,,,,,,17,B,2023-12-11_10h54.33.458,gca_discrimination,2022.2.4,143.92071702188983,
positions.xlsx,stimuli.xlsx,test.xlsx,stimuli/Social2.png,stimuli/Social1.png,stimuli/Nonsocial1.png,stimuli/Nonsocial2.png,stimuli/Test1.png,stimuli/Test2.png,"(-0.7, -0.5)",test1,"(0.7, 0.5)",test2,0,0,0,0,0,10,10,8,,,,,,,,,,,,,,,,,,,85.56813679996412,86.5681096999906,86.5681096999906,86.72089739999501,87.22086649999255,87.22086649999255,87.37365989998216,l,0.3068918000208214,correct,87.69309999997495,89.692988099996,89.91523879999295,86.5681096999906,89.692988099996,,,,,,,,,,,17,B,2023-12-11_10h54.33.458,gca_discrimination,2022.2.4,143.92071702188983,
positions.xlsx,stimuli.xlsx,test.xlsx,stimuli/Social2.png,stimuli/Social1.png,stimuli/Nonsocial1.png,stimuli/Nonsocial2.png,stimuli/Test1.png,stimuli/Test2.png,"(0.7, -0.5)",test1,"(0.7, 0.5)",test2,0,0,0,0,0,11,11,0,,,,,,,,,,,,,,,,,,,89.91523879999295,90.91513609996764,90.91513609996764,91.06793760001892,91.56793249998009,91.56793249998009,91.72068440000294,l,0.35168260004138574,correct,92.08175750001101,94.08175750001101,95.07472319999943,90.91513609996764,94.08175750001101,,,,,,,,,,,17,B,2023-12-11_10h54.33.458,gca_discrimination,2022.2.4,143.92071702188983,
positions.xlsx,stimuli.xlsx,test.xlsx,stimuli/Social2.png,stimuli/Social1.png,stimuli/Nonsocial1.png,stimuli/Nonsocial2.png,stimuli/Test1.png,stimuli/Test2.png,"(-0.7, -0.5)",test2,"(0.7, 0.5)",test2,0,0,0,0,0,12,12,7,,,,,,,,,,,,,,,,,,,95.07472319999943,96.07468089996837,96.07468089996837,96.22744970000349,96.72745850001229,96.72745850001229,96.88019870000426,ä,0.1991699999780394,correct,97.08853979996638,99.0884531000047,99.13010680000298,96.07468089996837,99.0884531000047,,,,,,,,,,,17,B,2023-12-11_10h54.33.458,gca_discrimination,2022.2.4,143.92071702188983,
positions.xlsx,stimuli.xlsx,test.xlsx,stimuli/Social2.png,stimuli/Social1.png,stimuli/Nonsocial1.png,stimuli/Nonsocial2.png,stimuli/Test1.png,stimuli/Test2.png,"(-0.7, 0.5)",test1,"(0.7, -0.5)",test1,0,0,0,0,0,13,13,5,,,,,,,,,,,,,,,,,,,99.13010680000298,100.13008999999147,100.13008999999147,100.28283989999909,100.78283300000476,100.78283300000476,100.9356399999815,l,0.2565673000062816,wrong,101.19947160000447,103.1993933999911,103.44938760000514,100.13008999999147,103.1993933999911,,,,,,,,,,,17,B,2023-12-11_10h54.33.458,gca_discrimination,2022.2.4,143.92071702188983,
positions.xlsx,stimuli.xlsx,test.xlsx,stimuli/Social2.png,stimuli/Social1.png,stimuli/Nonsocial1.png,stimuli/Nonsocial2.png,stimuli/Test1.png,stimuli/Test2.png,"(-0.7, -0.5)",cs_plus_ns,"(0.7, -0.5)",cs_minus_ns,0,0,0,0,,,,,0,0,0,29,,,,,,,,,,,,,112.06015500001376,113.83092839998426,113.83092839998426,114.83089039998595,114.83089039998595,114.96977899997728,115.47671259997878,115.47671259997878,115.6225403000135,l,0.969059799972456,correct,,116.6016184000182,116.95579689997248,,,103.44938760000514,103.44938760000514,103.44938760000514,103.44938760000514,103.44938760000514,103.44938760000514,103.44938760000514,103.44938760000514,space,8.598088299972005,17,B,2023-12-11_10h54.33.458,gca_discrimination,2022.2.4,143.92071702188983,
positions.xlsx,stimuli.xlsx,test.xlsx,stimuli/Social2.png,stimuli/Social1.png,stimuli/Nonsocial1.png,stimuli/Nonsocial2.png,stimuli/Test1.png,stimuli/Test2.png,"(0.7, -0.5)",cs_plus_s,"(-0.7, 0.5)",cs_plus_s,0,0,0,0,,,,,0,1,1,57,,,,,,,,,,,,,,,116.95579689997248,117.96271170000546,117.96271170000546,118.10853029997088,118.61548789998051,118.61548789998051,118.76130249997368,ä,0.5587550000054762,correct,,119.33071399998153,120.25428110000212,117.96271170000546,,,,,,,,,,,,17,B,2023-12-11_10h54.33.458,gca_discrimination,2022.2.4,143.92071702188983,
positions.xlsx,stimuli.xlsx,test.xlsx,stimuli/Social2.png,stimuli/Social1.png,stimuli/Nonsocial1.png,stimuli/Nonsocial2.png,stimuli/Test1.png,stimuli/Test2.png,"(0.7, 0.5)",cs_plus_ns,"(-0.7, -0.5)",cs_minus_ns,0,0,0,0,,,,,0,2,2,31,,,,,,,,,,,,,,,120.25428110000212,121.2611885999795,121.2611885999795,121.4070496999775,121.91395620000549,121.91395620000549,122.05973139998969,l,0.5244256000150926,correct,,122.5944703000132,122.96946599998046,121.2611885999795,,,,,,,,,,,,17,B,2023-12-11_10h54.33.458,gca_discrimination,2022.2.4,143.92071702188983,
positions.xlsx,stimuli.xlsx,test.xlsx,stimuli/Social2.png,stimuli/Social1.png,stimuli/Nonsocial1.png,stimuli/Nonsocial2.png,stimuli/Test1.png,stimuli/Test2.png,"(0.7, 0.5)",cs_minus_ns,"(-0.7, 0.5)",cs_minus_ns,0,0,0,0,,,,,0,3,3,90,,,,,,,,,,,,,,,122.96946599998046,123.9763568000053,123.9763568000053,124.12220179999713,124.62916090001818,124.62916090001818,124.77493830001913,ä,0.5284794999752194,correct,,125.31659249996301,125.8859793000156,123.9763568000053,,,,,,,,,,,,17,B,2023-12-11_10h54.33.458,gca_discrimination,2022.2.4,143.92071702188983,
positions.xlsx,stimuli.xlsx,test.xlsx,stimuli/Social2.png,stimuli/Social1.png,stimuli/Nonsocial1.png,stimuli/Nonsocial2.png,stimuli/Test1.png,stimuli/Test2.png,"(0.7, -0.5)",cs_minus_ns,"(0.7, 0.5)",cs_minus_ns,0,0,0,0,,,,,0,4,4,95,,,,,,,,,,,,,,,125.8859793000156,126.8929322999902,126.8929322999902,127.0387087999843,127.54567359999055,127.54567359999055,127.69147899997188,ä,0.572123299993109,correct,,128.27480179996928,128.4484003999969,126.8929322999902,,,,,,,,,,,,17,B,2023-12-11_10h54.33.458,gca_discrimination,2022.2.4,143.92071702188983,
positions.xlsx,stimuli.xlsx,test.xlsx,stimuli/Social2.png,stimuli/Social1.png,stimuli/Nonsocial1.png,stimuli/Nonsocial2.png,stimuli/Test1.png,stimuli/Test2.png,"(0.7, 0.5)",cs_minus_ns,"(-0.7, -0.5)",cs_plus_ns,0,0,0,0,,,,,0,5,5,43,,,,,,,,,,,,,,,128.4484003999969,129.45530999999028,129.45530999999028,129.60113159997854,130.10805169999367,130.10805169999367,130.2538963999832,l,0.5301702000433579,correct,,130.79552089999197,130.9413535000058,129.45530999999028,,,,,,,,,,,,17,B,2023-12-11_10h54.33.458,gca_discrimination,2022.2.4,143.92071702188983,
positions.xlsx,stimuli.xlsx,test.xlsx,stimuli/Social2.png,stimuli/Social1.png,stimuli/Nonsocial1.png,stimuli/Nonsocial2.png,stimuli/Test1.png,stimuli/Test2.png,"(0.7, -0.5)",cs_minus_s,"(-0.7, 0.5)",cs_minus_s,0,0,0,0,,,,,0,6,6,69,,,,,,,,,,,,,,,130.9413535000058,131.94828309997683,131.94828309997683,132.09411289996933,132.6010320999776,132.6010320999776,132.74684669997077,l,0.7656067999778315,wrong,,133.52459280000767,133.60791209997842,131.94828309997683,,,,,,,,,,,,17,B,2023-12-11_10h54.33.458,gca_discrimination,2022.2.4,143.92071702188983,
positions.xlsx,stimuli.xlsx,test.xlsx,stimuli/Social2.png,stimuli/Social1.png,stimuli/Nonsocial1.png,stimuli/Nonsocial2.png,stimuli/Test1.png,stimuli/Test2.png,"(0.7, 0.5)",cs_plus_s,"(0.7, -0.5)",cs_minus_s,0,0,0,0,,,,,0,7,7,8,,,,,,,,,,,,,,,133.60791209997842,134.61482939997222,134.61482939997222,134.7606589999632,135.267618199985,135.267618199985,135.41343359998427,ä,0.6750750000355765,wrong,,136.10087179997936,136.88560629996937,134.61482939997222,,,,,,,,,,,,17,B,2023-12-11_10h54.33.458,gca_discrimination,2022.2.4,143.92071702188983,
positions.xlsx,stimuli.xlsx,test.xlsx,stimuli/Social2.png,stimuli/Social1.png,stimuli/Nonsocial1.png,stimuli/Nonsocial2.png,stimuli/Test1.png,stimuli/Test2.png,"(-0.7, 0.5)",cs_minus_s,"(0.7, 0.5)",cs_minus_s,0,0,0,0,,,,,0,8,8,61,,,,,,,,,,,,,,,136.88560629996937,137.8924862999702,137.8924862999702,138.0383434999967,138.54524730000412,138.54524730000412,138.69106400001328,ä,0.5168238999904133,correct,,139.2188024999923,139.461876699992,137.8924862999702,,,,,,,,,,,,17,B,2023-12-11_10h54.33.458,gca_discrimination,2022.2.4,143.92071702188983,
positions.xlsx,stimuli.xlsx,test.xlsx,stimuli/Social2.png,stimuli/Social1.png,stimuli/Nonsocial1.png,stimuli/Nonsocial2.png,stimuli/Test1.png,stimuli/Test2.png,"(0.7, -0.5)",cs_plus_ns,"(-0.7, 0.5)",cs_plus_ns,0,0,0,0,,,,,0,9,9,81,,,,,,,,,,,,,,,139.461876699992,140.4687676000176,140.4687676000176,140.6145988999633,141.12152340001194,141.12152340001194,141.2673228000058,ä,0.636603000049945,correct,,141.91315779997967,142.55897389998427,140.4687676000176,,,,,,,,,,,,17,B,2023-12-11_10h54.33.458,gca_discrimination,2022.2.4,143.92071702188983,
positions.xlsx,stimuli.xlsx,test.xlsx,stimuli/Social2.png,stimuli/Social1.png,stimuli/Nonsocial1.png,stimuli/Nonsocial2.png,stimuli/Test1.png,stimuli/Test2.png,"(-0.7, 0.5)",cs_minus_ns,"(-0.7, -0.5)",cs_plus_ns,0,0,0,0,,,,,0,10,10,36,,,,,,,,,,,,,,,142.55897389998427,143.56587539997417,143.56587539997417,143.71167469996726,144.2185981000075,144.2185981000075,144.36446529999375,l,0.5471988000208512,correct,,144.91998880001483,145.87826909997966,143.56587539997417,,,,,,,,,,,,17,B,2023-12-11_10h54.33.458,gca_discrimination,2022.2.4,143.92071702188983,
positions.xlsx,stimuli.xlsx,test.xlsx,stimuli/Social2.png,stimuli/Social1.png,stimuli/Nonsocial1.png,stimuli/Nonsocial2.png,stimuli/Test1.png,stimuli/Test2.png,"(-0.7, 0.5)",cs_minus_ns,"(0.7, -0.5)",cs_plus_ns,0,0,0,0,,,,,0,11,11,38,,,,,,,,,,,,,,,145.87826909997966,146.88524699996924,146.88524699996924,147.03102070000023,147.5379619000014,147.5379619000014,147.68378149997443,l,0.4608029000228271,correct,,148.15597540000454,148.62125119997654,146.88524699996924,,,,,,,,,,,,17,B,2023-12-11_10h54.33.458,gca_discrimination,2022.2.4,143.92071702188983,
positions.xlsx,stimuli.xlsx,test.xlsx,stimuli/Social2.png,stimuli/Social1.png,stimuli/Nonsocial1.png,stimuli/Nonsocial2.png,stimuli/Test1.png,stimuli/Test2.png,"(0.7, -0.5)",cs_minus_s,"(-0.7, -0.5)",cs_plus_s,0,0,0,0,,,,,0,12,12,22,,,,,,,,,,,,,,,148.62125119997654,149.62814310000977,149.62814310000977,149.77396540000336,150.28089880000334,150.28089880000334,150.42672109999694,l,0.6055387000087649,correct,,151.04473359999247,151.5030834999634,149.62814310000977,,,,,,,,,,,,17,B,2023-12-11_10h54.33.458,gca_discrimination,2022.2.4,143.92071702188983,
positions.xlsx,stimuli.xlsx,test.xlsx,stimuli/Social2.png,stimuli/Social1.png,stimuli/Nonsocial1.png,stimuli/Nonsocial2.png,stimuli/Test1.png,stimuli/Test2.png,"(0.7, -0.5)",cs_minus_ns,"(-0.7, -0.5)",cs_minus_ns,0,0,0,0,,,,,0,13,13,94,,,,,,,,,,,,,,,151.5030834999634,152.50997820001794,152.50997820001794,152.65577790001407,153.1627382999868,153.1627382999868,153.30856360000325,ä,0.6352075999602675,correct,,153.95436149998568,154.45434379996732,152.50997820001794,,,,,,,,,,,,17,B,2023-12-11_10h54.33.458,gca_discrimination,2022.2.4,143.92071702188983,
positions.xlsx,stimuli.xlsx,test.xlsx,stimuli/Social2.png,stimuli/Social1.png,stimuli/Nonsocial1.png,stimuli/Nonsocial2.png,stimuli/Test1.png,stimuli/Test2.png,"(0.7, -0.5)",cs_minus_ns,"(-0.7, -0.5)",cs_plus_ns,0,0,0,0,,,,,0,14,14,46,,,,,,,,,,,,,,,154.45434379996732,155.46124049997889,155.46124049997889,155.60706189996563,156.11400150001282,156.11400150001282,156.25979189999634,l,0.8359791999682784,correct,,157.10700680001173,157.23200499999803,155.46124049997889,,,,,,,,,,,,17,B,2023-12-11_10h54.33.458,gca_discrimination,2022.2.4,143.92071702188983,
positions.xlsx,stimuli.xlsx,test.xlsx,stimuli/Social2.png,stimuli/Social1.png,stimuli/Nonsocial1.png,stimuli/Nonsocial2.png,stimuli/Test1.png,stimuli/Test2.png,"(0.7, -0.5)",cs_minus_s,"(0.7, 0.5)",cs_minus_s,0,0,0,0,,,,,0,15,15,71,,,,,,,,,,,,,,,157.23200499999803,158.2389335000189,158.2389335000189,158.38475590001326,158.89167029998498,158.89167029998498,159.0374932999839,ä,0.7707977000391111,correct,,159.815238900017,160.63471299997764,158.2389335000189,,,,,,,,,,,,17,B,2023-12-11_10h54.33.458,gca_discrimination,2022.2.4,143.92071702188983,
positions.xlsx,stimuli.xlsx,test.xlsx,stimuli/Social2.png,stimuli/Social1.png,stimuli/Nonsocial1.png,stimuli/Nonsocial2.png,stimuli/Test1.png,stimuli/Test2.png,"(-0.7, 0.5)",cs_plus_s,"(0.7, -0.5)",cs_minus_s,0,0,0,0,,,,,0,16,16,2,,,,,,,,,,,,,,,160.63471299997764,161.64156399999047,161.64156399999047,161.78736299998127,162.29432929999894,162.29432929999894,162.4401288999943,l,0.4641362000256777,correct,,162.91232210001908,163.19012290000683,161.64156399999047,,,,,,,,,,,,17,B,2023-12-11_10h54.33.458,gca_discrimination,2022.2.4,143.92071702188983,
positions.xlsx,stimuli.xlsx,test.xlsx,stimuli/Social2.png,stimuli/Social1.png,stimuli/Nonsocial1.png,stimuli/Nonsocial2.png,stimuli/Test1.png,stimuli/Test2.png,"(-0.7, -0.5)",cs_minus_s,"(0.7, -0.5)",cs_plus_s,0,0,0,0,,,,,0,17,17,17,,,,,,,,,,,,,,,163.19012290000683,164.19703270000173,164.19703270000173,164.34286460001022,164.84977410000283,164.84977410000283,164.99559269996826,l,0.4123581000021659,correct,,165.41918849997455,165.78028989996528,164.19703270000173,,,,,,,,,,,,17,B,2023-12-11_10h54.33.458,gca_discrimination,2022.2.4,143.92071702188983,
positions.xlsx,stimuli.xlsx,test.xlsx,stimuli/Social2.png,stimuli/Social1.png,stimuli/Nonsocial1.png,stimuli/Nonsocial2.png,stimuli/Test1.png,stimuli/Test2.png,"(0.7, -0.5)",cs_minus_s,"(-0.7, 0.5)",cs_plus_s,0,0,0,0,,,,,0,18,18,21,,,,,,,,,,,,,,,165.78028989996528,166.7872206000029,166.7872206000029,166.93298499996308,167.43995390000055,167.43995390000055,167.58578939997824,l,0.3258459000498988,correct,,167.9190840999945,168.14132300001802,166.7872206000029,,,,,,,,,,,,17,B,2023-12-11_10h54.33.458,gca_discrimination,2022.2.4,143.92071702188983,
positions.xlsx,stimuli.xlsx,test.xlsx,stimuli/Social2.png,stimuli/Social1.png,stimuli/Nonsocial1.png,stimuli/Nonsocial2.png,stimuli/Test1.png,stimuli/Test2.png,"(0.7, 0.5)",cs_minus_s,"(-0.7, -0.5)",cs_plus_s,0,0,0,0,,,,,0,19,19,19,,,,,,,,,,,,,,,168.14132300001802,169.14823469996918,169.14823469996918,169.29404229996726,169.80096429999685,169.80096429999685,169.9468407999957,l,0.4686686000204645,correct,,170.4259360000142,170.4328899999964,169.14823469996918,,,,,,,,,,,,17,B,2023-12-11_10h54.33.458,gca_discrimination,2022.2.4,143.92071702188983,
positions.xlsx,stimuli.xlsx,test.xlsx,stimuli/Social2.png,stimuli/Social1.png,stimuli/Nonsocial1.png,stimuli/Nonsocial2.png,stimuli/Test1.png,stimuli/Test2.png,"(0.7, -0.5)",cs_minus_ns,"(-0.7, 0.5)",cs_minus_ns,0,0,0,0,,,,,0,20,20,93,,,,,,,,,,,,,,,170.4328899999964,171.43979089998174,171.43979089998174,171.5856163999997,172.09251909999875,172.09251909999875,172.23838070000056,ä,0.3388687999686226,correct,,172.58559769997373,172.6967028999934,171.43979089998174,,,,,,,,,,,,17,B,2023-12-11_10h54.33.458,gca_discrimination,2022.2.4,143.92071702188983,
positions.xlsx,stimuli.xlsx,test.xlsx,stimuli/Social2.png,stimuli/Social1.png,stimuli/Nonsocial1.png,stimuli/Nonsocial2.png,stimuli/Test1.png,stimuli/Test2.png,"(0.7, 0.5)",cs_plus_ns,"(-0.7, -0.5)",cs_plus_ns,0,0,0,0,,,,,0,21,21,79,,,,,,,,,,,,,,,172.6967028999934,173.7035770000075,173.7035770000075,173.8494544000132,174.3563765999861,174.3563765999861,174.5021710000001,ä,0.25852600001962855,correct,,174.7730026000063,175.20350160001544,173.7035770000075,,,,,,,,,,,,17,B,2023-12-11_10h54.33.458,gca_discrimination,2022.2.4,143.92071702188983,
positions.xlsx,stimuli.xlsx,test.xlsx,stimuli/Social2.png,stimuli/Social1.png,stimuli/Nonsocial1.png,stimuli/Nonsocial2.png,stimuli/Test1.png,stimuli/Test2.png,"(0.7, 0.5)",cs_minus_ns,"(0.7, -0.5)",cs_plus_ns,0,0,0,0,,,,,0,22,22,44,,,,,,,,,,,,,,,175.20350160001544,176.21044009999605,176.21044009999605,176.35630789998686,176.86319830000866,176.86319830000866,177.00903690000996,l,0.4470685999840498,correct,,177.46734749997267,178.06450119998772,176.21044009999605,,,,,,,,,,,,17,B,2023-12-11_10h54.33.458,gca_discrimination,2022.2.4,143.92071702188983,
positions.xlsx,stimuli.xlsx,test.xlsx,stimuli/Social2.png,stimuli/Social1.png,stimuli/Nonsocial1.png,stimuli/Nonsocial2.png,stimuli/Test1.png,stimuli/Test2.png,"(-0.7, 0.5)",cs_minus_ns,"(0.7, 0.5)",cs_plus_ns,0,0,0,0,,,,,0,23,23,37,,,,,,,,,,,,,,,178.06450119998772,179.07144869997865,179.07144869997865,179.21728320000693,179.72426039999118,179.72426039999118,179.870019999973,l,0.4099018999841064,correct,,180.28667070000665,180.64773699996294,179.07144869997865,,,,,,,,,,,,17,B,2023-12-11_10h54.33.458,gca_discrimination,2022.2.4,143.92071702188983,
positions.xlsx,stimuli.xlsx,test.xlsx,stimuli/Social2.png,stimuli/Social1.png,stimuli/Nonsocial1.png,stimuli/Nonsocial2.png,stimuli/Test1.png,stimuli/Test2.png,"(-0.7, -0.5)",cs_plus_ns,"(0.7, -0.5)",cs_plus_ns,0,0,0,0,,,,,0,24,24,77,,,,,,,,,,,,,,,180.64773699996294,181.6546797999763,181.6546797999763,181.8005062000011,182.30743459996302,182.30743459996302,182.45325209997827,ä,0.47505700000328943,correct,,182.93939999997383,183.39070270000957,181.6546797999763,,,,,,,,,,,,17,B,2023-12-11_10h54.33.458,gca_discrimination,2022.2.4,143.92071702188983,
positions.xlsx,stimuli.xlsx,test.xlsx,stimuli/Social2.png,stimuli/Social1.png,stimuli/Nonsocial1.png,stimuli/Nonsocial2.png,stimuli/Test1.png,stimuli/Test2.png,"(-0.7, -0.5)",cs_minus_ns,"(0.7, -0.5)",cs_plus_ns,0,0,0,0,,,,,0,25,25,41,,,,,,,,,,,,,,,183.39070270000957,184.39762980001979,184.39762980001979,184.54344280000078,185.0503519999911,185.0503519999911,185.1962262999732,l,0.5167437000200152,correct,,185.72395149996737,185.94615269999485,184.39762980001979,,,,,,,,,,,,17,B,2023-12-11_10h54.33.458,gca_discrimination,2022.2.4,143.92071702188983,
positions.xlsx,stimuli.xlsx,test.xlsx,stimuli/Social2.png,stimuli/Social1.png,stimuli/Nonsocial1.png,stimuli/Nonsocial2.png,stimuli/Test1.png,stimuli/Test2.png,"(0.7, -0.5)",cs_plus_ns,"(-0.7, 0.5)",cs_minus_ns,0,0,0,0,,,,,0,26,26,33,,,,,,,,,,,,,,,185.94615269999485,186.95309739996446,186.95309739996446,187.09890869999072,187.6059072999633,187.6059072999633,187.75168459996348,l,0.432004300004337,correct,,188.19609869999113,189.1335345999687,186.95309739996446,,,,,,,,,,,,17,B,2023-12-11_10h54.33.458,gca_discrimination,2022.2.4,143.92071702188983,
positions.xlsx,stimuli.xlsx,test.xlsx,stimuli/Social2.png,stimuli/Social1.png,stimuli/Nonsocial1.png,stimuli/Nonsocial2.png,stimuli/Test1.png,stimuli/Test2.png,"(-0.7, 0.5)",cs_minus_ns,"(-0.7, -0.5)",cs_minus_ns,0,0,0,0,,,,,0,27,27,84,,,,,,,,,,,,,,,189.1335345999687,190.14046209998196,190.14046209998196,190.2862747000181,190.79319559998112,190.79319559998112,190.93906030000653,l,0.2686682000057772,wrong,,191.2168178000138,191.619540899992,190.14046209998196,,,,,,,,,,,,17,B,2023-12-11_10h54.33.458,gca_discrimination,2022.2.4,143.92071702188983,
positions.xlsx,stimuli.xlsx,test.xlsx,stimuli/Social2.png,stimuli/Social1.png,stimuli/Nonsocial1.png,stimuli/Nonsocial2.png,stimuli/Test1.png,stimuli/Test2.png,"(0.7, 0.5)",cs_plus_s,"(-0.7, 0.5)",cs_plus_s,0,0,0,0,,,,,0,28,28,54,,,,,,,,,,,,,,,191.619540899992,192.62649429996964,192.62649429996964,192.77228859998286,193.27922530000797,193.27922530000797,193.42505650001112,ä,0.6796089999843389,correct,,194.11251989996526,194.64027500001248,192.62649429996964,,,,,,,,,,,,17,B,2023-12-11_10h54.33.458,gca_discrimination,2022.2.4,143.92071702188983,
positions.xlsx,stimuli.xlsx,test.xlsx,stimuli/Social2.png,stimuli/Social1.png,stimuli/Nonsocial1.png,stimuli/Nonsocial2.png,stimuli/Test1.png,stimuli/Test2.png,"(0.7, 0.5)",cs_minus_s,"(0.7, -0.5)",cs_plus_s,0,0,0,0,,,,,0,29,29,20,,,,,,,,,,,,,,,194.64027500001248,195.647185800015,195.647185800015,195.79298069997458,196.29994820000138,196.29994820000138,196.4457658000174,l,0.5940797999501228,correct,,197.04993549996288,197.0846097000176,195.647185800015,,,,,,,,,,,,17,B,2023-12-11_10h54.33.458,gca_discrimination,2022.2.4,143.92071702188983,
positions.xlsx,stimuli.xlsx,test.xlsx,stimuli/Social2.png,stimuli/Social1.png,stimuli/Nonsocial1.png,stimuli/Nonsocial2.png,stimuli/Test1.png,stimuli/Test2.png,"(-0.7, 0.5)",cs_plus_s,"(0.7, -0.5)",cs_plus_s,0,0,0,0,,,,,0,30,30,50,,,,,,,,,,,,,,,197.0846097000176,198.0915428000153,198.0915428000153,198.2373285999638,198.7442629999714,198.7442629999714,198.89011979999486,l,0.6392311999807134,wrong,,199.54287659999682,200.33448179997504,198.0915428000153,,,,,,,,,,,,17,B,2023-12-11_10h54.33.458,gca_discrimination,2022.2.4,143.92071702188983,
positions.xlsx,stimuli.xlsx,test.xlsx,stimuli/Social2.png,stimuli/Social1.png,stimuli/Nonsocial1.png,stimuli/Nonsocial2.png,stimuli/Test1.png,stimuli/Test2.png,"(-0.7, 0.5)",cs_minus_s,"(0.7, -0.5)",cs_minus_s,0,0,0,0,,,,,0,31,31,62,,,,,,,,,,,,,,,200.33448179997504,201.34142589999828,201.34142589999828,201.48727230000077,201.9941814999911,201.9941814999911,202.1399694000138,ä,0.5399506999528967,correct,,202.68857469997602,202.8830090999836,201.34142589999828,,,,,,,,,,,,17,B,2023-12-11_10h54.33.458,gca_discrimination,2022.2.4,143.92071702188983,
positions.xlsx,stimuli.xlsx,test.xlsx,stimuli/Social2.png,stimuli/Social1.png,stimuli/Nonsocial1.png,stimuli/Nonsocial2.png,stimuli/Test1.png,stimuli/Test2.png,"(0.7, 0.5)",cs_minus_ns,"(-0.7, 0.5)",cs_plus_ns,0,0,0,0,,,,,0,32,32,42,,,,,,,,,,,,,,,202.8830090999836,203.88998450001236,203.88998450001236,204.0357614000095,204.54271279997192,204.54271279997192,204.68848690000596,l,0.5039833000046201,correct,,205.2023858000175,206.00786329997936,203.88998450001236,,,,,,,,,,,,17,B,2023-12-11_10h54.33.458,gca_discrimination,2022.2.4,143.92071702188983,
positions.xlsx,stimuli.xlsx,test.xlsx,stimuli/Social2.png,stimuli/Social1.png,stimuli/Nonsocial1.png,stimuli/Nonsocial2.png,stimuli/Test1.png,stimuli/Test2.png,"(-0.7, -0.5)",cs_minus_s,"(0.7, -0.5)",cs_minus_s,0,0,0,0,,,,,0,33,33,65,,,,,,,,,,,,,,,206.00786329997936,207.01482199999737,207.01482199999737,207.16062490001787,207.6675234999857,207.6675234999857,207.81336319999536,ä,0.6264694999554195,correct,,208.4522349999752,208.83416359999683,207.01482199999737,,,,,,,,,,,,17,B,2023-12-11_10h54.33.458,gca_discrimination,2022.2.4,143.92071702188983,
positions.xlsx,stimuli.xlsx,test.xlsx,stimuli/Social2.png,stimuli/Social1.png,stimuli/Nonsocial1.png,stimuli/Nonsocial2.png,stimuli/Test1.png,stimuli/Test2.png,"(-0.7, -0.5)",cs_plus_s,"(0.7, -0.5)",cs_minus_s,0,0,0,0,,,,,0,34,34,5,,,,,,,,,,,,,,,208.83416359999683,209.84108209999977,209.84108209999977,209.9868967999937,210.49382249999326,210.49382249999326,210.63965650001774,l,0.6000513999606483,correct,,211.2507819000166,211.9868354999926,209.84108209999977,,,,,,,,,,,,17,B,2023-12-11_10h54.33.458,gca_discrimination,2022.2.4,143.92071702188983,
positions.xlsx,stimuli.xlsx,test.xlsx,stimuli/Social2.png,stimuli/Social1.png,stimuli/Nonsocial1.png,stimuli/Nonsocial2.png,stimuli/Test1.png,stimuli/Test2.png,"(-0.7, -0.5)",cs_minus_s,"(-0.7, 0.5)",cs_plus_s,0,0,0,0,,,,,0,35,35,15,,,,,,,,,,,,,,,211.9868354999926,212.9937902999809,212.9937902999809,213.13955189997796,213.6464751000167,213.6464751000167,213.7923041000031,l,0.7279041999718174,correct,,214.5283868999686,215.00756170001114,212.9937902999809,,,,,,,,,,,,17,B,2023-12-11_10h54.33.458,gca_discrimination,2022.2.4,143.92071702188983,
positions.xlsx,stimuli.xlsx,test.xlsx,stimuli/Social2.png,stimuli/Social1.png,stimuli/Nonsocial1.png,stimuli/Nonsocial2.png,stimuli/Test1.png,stimuli/Test2.png,"(-0.7, 0.5)",cs_plus_s,"(0.7, 0.5)",cs_plus_s,0,0,0,0,,,,,0,36,36,49,,,,,,,,,,,,,,,215.00756170001114,216.0144681999809,216.0144681999809,216.16029089997755,216.66719509998802,216.66719509998802,216.81301250000251,ä,0.5083100000047125,correct,,217.33385160000762,217.88244349998422,216.0144681999809,,,,,,,,,,,,17,B,2023-12-11_10h54.33.458,gca_discrimination,2022.2.4,143.92071702188983,
positions.xlsx,stimuli.xlsx,test.xlsx,stimuli/Social2.png,stimuli/Social1.png,stimuli/Nonsocial1.png,stimuli/Nonsocial2.png,stimuli/Test1.png,stimuli/Test2.png,"(-0.7, -0.5)",cs_plus_ns,"(0.7, 0.5)",cs_minus_ns,0,0,0,0,,,,,0,37,37,28,,,,,,,,,,,,,,,217.88244349998422,218.88934499997413,218.88934499997413,219.03515760001028,219.54210399999283,219.54210399999283,219.68796770001063,l,0.6241448000073433,correct,,220.319831300003,220.61148209997918,218.88934499997413,,,,,,,,,,,,17,B,2023-12-11_10h54.33.458,gca_discrimination,2022.2.4,143.92071702188983,
positions.xlsx,stimuli.xlsx,test.xlsx,stimuli/Social2.png,stimuli/Social1.png,stimuli/Nonsocial1.png,stimuli/Nonsocial2.png,stimuli/Test1.png,stimuli/Test2.png,"(0.7, -0.5)",cs_plus_s,"(-0.7, -0.5)",cs_plus_s,0,0,0,0,,,,,0,38,38,58,,,,,,,,,,,,,,,220.61148209997918,221.61839839996537,221.61839839996537,221.76424220000627,222.27113469998585,222.27113469998585,222.41695569996955,ä,0.5109159999992698,correct,,222.9377793999738,223.05585010000505,221.61839839996537,,,,,,,,,,,,17,B,2023-12-11_10h54.33.458,gca_discrimination,2022.2.4,143.92071702188983,
positions.xlsx,stimuli.xlsx,test.xlsx,stimuli/Social2.png,stimuli/Social1.png,stimuli/Nonsocial1.png,stimuli/Nonsocial2.png,stimuli/Test1.png,stimuli/Test2.png,"(0.7, 0.5)",cs_plus_ns,"(-0.7, 0.5)",cs_minus_ns,0,0,0,0,,,,,0,39,39,30,,,,,,,,,,,,,,,223.05585010000505,224.06272270000773,224.06272270000773,224.20856840000488,224.71546789997956,224.71546789997956,224.86133139999583,l,0.6187598999822512,correct,,225.49325429997407,225.86824729997898,224.06272270000773,,,,,,,,,,,,17,B,2023-12-11_10h54.33.458,gca_discrimination,2022.2.4,143.92071702188983,
positions.xlsx,stimuli.xlsx,test.xlsx,stimuli/Social2.png,stimuli/Social1.png,stimuli/Nonsocial1.png,stimuli/Nonsocial2.png,stimuli/Test1.png,stimuli/Test2.png,"(-0.7, -0.5)",cs_plus_ns,"(0.7, 0.5)",cs_plus_ns,0,0,0,0,,,,,0,40,40,76,,,,,,,,,,,,,,,225.86824729997898,226.87516339996364,226.87516339996364,227.0209933000151,227.52790009998716,227.52790009998716,227.67372129997239,ä,0.598812900017947,correct,,228.2847722999868,228.9375651999726,226.87516339996364,,,,,,,,,,,,17,B,2023-12-11_10h54.33.458,gca_discrimination,2022.2.4,143.92071702188983,
positions.xlsx,stimuli.xlsx,test.xlsx,stimuli/Social2.png,stimuli/Social1.png,stimuli/Nonsocial1.png,stimuli/Nonsocial2.png,stimuli/Test1.png,stimuli/Test2.png,"(0.7, 0.5)",cs_plus_ns,"(-0.7, 0.5)",cs_plus_ns,0,0,0,0,,,,,0,41,41,78,,,,,,,,,,,,,,,228.9375651999726,229.9444151999778,229.9444151999778,230.09028130001388,230.59722090000287,230.59722090000287,230.7430091999704,ä,0.5287112999940291,correct,,231.28468270000303,231.84718500002054,229.9444151999778,,,,,,,,,,,,17,B,2023-12-11_10h54.33.458,gca_discrimination,2022.2.4,143.92071702188983,
positions.xlsx,stimuli.xlsx,test.xlsx,stimuli/Social2.png,stimuli/Social1.png,stimuli/Nonsocial1.png,stimuli/Nonsocial2.png,stimuli/Test1.png,stimuli/Test2.png,"(-0.7, 0.5)",cs_plus_ns,"(0.7, 0.5)",cs_plus_ns,0,0,0,0,,,,,0,42,42,73,,,,,,,,,,,,,,,231.84718500002054,232.8540398000041,232.8540398000041,232.9998923999956,233.50682369997958,233.50682369997958,233.65262750000693,ä,0.5791570000001229,correct,,234.24291179998545,234.8817387999734,232.8540398000041,,,,,,,,,,,,17,B,2023-12-11_10h54.33.458,gca_discrimination,2022.2.4,143.92071702188983,
positions.xlsx,stimuli.xlsx,test.xlsx,stimuli/Social2.png,stimuli/Social1.png,stimuli/Nonsocial1.png,stimuli/Nonsocial2.png,stimuli/Test1.png,stimuli/Test2.png,"(0.7, 0.5)",cs_minus_s,"(0.7, -0.5)",cs_minus_s,0,0,0,0,,,,,0,43,43,68,,,,,,,,,,,,,,,234.8817387999734,235.88867879996542,235.88867879996542,236.0344897999894,236.54142139997566,236.54142139997566,236.68725949997315,ä,0.6501013000379317,correct,,237.34695649996866,238.31915359996492,235.88867879996542,,,,,,,,,,,,17,B,2023-12-11_10h54.33.458,gca_discrimination,2022.2.4,143.92071702188983,
positions.xlsx,stimuli.xlsx,test.xlsx,stimuli/Social2.png,stimuli/Social1.png,stimuli/Nonsocial1.png,stimuli/Nonsocial2.png,stimuli/Test1.png,stimuli/Test2.png,"(-0.7, -0.5)",cs_plus_s,"(0.7, -0.5)",cs_plus_s,0,0,0,0,,,,,0,44,44,53,,,,,,,,,,,,,,,238.31915359996492,239.326040200016,239.326040200016,239.47186469996814,239.9788031000062,239.9788031000062,240.12461160001112,ä,0.47519119997741655,correct,,240.61073299997952,240.90930599998683,239.326040200016,,,,,,,,,,,,17,B,2023-12-11_10h54.33.458,gca_discrimination,2022.2.4,143.92071702188983,
positions.xlsx,stimuli.xlsx,test.xlsx,stimuli/Social2.png,stimuli/Social1.png,stimuli/Nonsocial1.png,stimuli/Nonsocial2.png,stimuli/Test1.png,stimuli/Test2.png,"(0.7, 0.5)",cs_plus_s,"(-0.7, -0.5)",cs_minus_s,0,0,0,0,,,,,0,45,45,7,,,,,,,,,,,,,,,240.90930599998683,241.91625349997776,241.91625349997776,242.06204380001873,242.56897939997725,242.56897939997725,242.71484410000267,l,0.4686008000280708,correct,,243.1939440999995,243.36752600001637,241.91625349997776,,,,,,,,,,,,17,B,2023-12-11_10h54.33.458,gca_discrimination,2022.2.4,143.92071702188983,
positions.xlsx,stimuli.xlsx,test.xlsx,stimuli/Social2.png,stimuli/Social1.png,stimuli/Nonsocial1.png,stimuli/Nonsocial2.png,stimuli/Test1.png,stimuli/Test2.png,"(0.7, -0.5)",cs_plus_s,"(0.7, 0.5)",cs_minus_s,0,0,0,0,,,,,0,46,46,11,,,,,,,,,,,,,,,243.36752600001637,244.3744493999984,244.3744493999984,244.52025509998202,245.02720830001635,245.02720830001635,245.1730283999932,l,0.5629253999795765,correct,,245.74941649998073,246.33964500000002,244.3744493999984,,,,,,,,,,,,17,B,2023-12-11_10h54.33.458,gca_discrimination,2022.2.4,143.92071702188983,
positions.xlsx,stimuli.xlsx,test.xlsx,stimuli/Social2.png,stimuli/Social1.png,stimuli/Nonsocial1.png,stimuli/Nonsocial2.png,stimuli/Test1.png,stimuli/Test2.png,"(-0.7, -0.5)",cs_plus_s,"(0.7, 0.5)",cs_plus_s,0,0,0,0,,,,,0,47,47,52,,,,,,,,,,,,,,,246.33964500000002,247.34654589998536,247.34654589998536,247.49238760001026,247.9993214000133,247.9993214000133,248.14510089997202,ä,0.5195455000502989,correct,,248.67289819999132,249.3118083999725,247.34654589998536,,,,,,,,,,,,17,B,2023-12-11_10h54.33.458,gca_discrimination,2022.2.4,143.92071702188983,
positions.xlsx,stimuli.xlsx,test.xlsx,stimuli/Social2.png,stimuli/Social1.png,stimuli/Nonsocial1.png,stimuli/Nonsocial2.png,stimuli/Test1.png,stimuli/Test2.png,"(-0.7, 0.5)",cs_plus_s,"(0.7, 0.5)",cs_minus_s,0,0,0,0,,,,,0,48,48,1,,,,,,,,,,,,,,,249.3118083999725,250.31866230000742,250.31866230000742,250.4644967999775,250.97140749997925,250.97140749997925,251.1172814000165,l,0.3543340999749489,correct,,251.478338899964,251.55472070001997,250.31866230000742,,,,,,,,,,,,17,B,2023-12-11_10h54.33.458,gca_discrimination,2022.2.4,143.92071702188983,
positions.xlsx,stimuli.xlsx,test.xlsx,stimuli/Social2.png,stimuli/Social1.png,stimuli/Nonsocial1.png,stimuli/Nonsocial2.png,stimuli/Test1.png,stimuli/Test2.png,"(-0.7, 0.5)",cs_plus_s,"(-0.7, -0.5)",cs_plus_s,0,0,0,0,,,,,0,49,49,48,,,,,,,,,,,,,,,251.55472070001997,252.5616034999839,252.5616034999839,252.70745749998605,253.2143826999818,253.2143826999818,253.3602199999732,ä,0.5033903000294231,correct,,253.87407459999667,254.24908859998686,252.5616034999839,,,,,,,,,,,,17,B,2023-12-11_10h54.33.458,gca_discrimination,2022.2.4,143.92071702188983,
positions.xlsx,stimuli.xlsx,test.xlsx,stimuli/Social2.png,stimuli/Social1.png,stimuli/Nonsocial1.png,stimuli/Nonsocial2.png,stimuli/Test1.png,stimuli/Test2.png,"(0.7, -0.5)",cs_plus_ns,"(0.7, 0.5)",cs_plus_ns,0,0,0,0,,,,,0,50,50,83,,,,,,,,,,,,,,,254.24908859998686,255.25599659996806,255.25599659996806,255.40180240001064,255.90874769998481,255.90874769998481,256.05455210001674,l,0.5529000000096858,wrong,,256.61702229996445,257.09618839999894,255.25599659996806,,,,,,,,,,,,17,B,2023-12-11_10h54.33.458,gca_discrimination,2022.2.4,143.92071702188983,
positions.xlsx,stimuli.xlsx,test.xlsx,stimuli/Social2.png,stimuli/Social1.png,stimuli/Nonsocial1.png,stimuli/Nonsocial2.png,stimuli/Test1.png,stimuli/Test2.png,"(-0.7, 0.5)",cs_minus_s,"(-0.7, -0.5)",cs_plus_s,0,0,0,0,,,,,0,51,51,12,,,,,,,,,,,,,,,257.09618839999894,258.1030776000116,258.1030776000116,258.24891839997144,258.7558351000189,258.7558351000189,258.9016629999969,l,1.0022987999836914,correct,,259.91551099997014,260.33912099996815,258.1030776000116,,,,,,,,,,,,17,B,2023-12-11_10h54.33.458,gca_discrimination,2022.2.4,143.92071702188983,
positions.xlsx,stimuli.xlsx,test.xlsx,stimuli/Social2.png,stimuli/Social1.png,stimuli/Nonsocial1.png,stimuli/Nonsocial2.png,stimuli/Test1.png,stimuli/Test2.png,"(0.7, -0.5)",cs_plus_ns,"(-0.7, -0.5)",cs_plus_ns,0,0,0,0,,,,,0,52,52,82,,,,,,,,,,,,,,,260.33912099996815,261.3460406999802,261.3460406999802,261.491824799974,261.998760699993,261.998760699993,262.14458309998736,ä,0.6157488999888301,correct,,262.7695805999683,263.2973158999812,261.3460406999802,,,,,,,,,,,,17,B,2023-12-11_10h54.33.458,gca_discrimination,2022.2.4,143.92071702188983,
positions.xlsx,stimuli.xlsx,test.xlsx,stimuli/Social2.png,stimuli/Social1.png,stimuli/Nonsocial1.png,stimuli/Nonsocial2.png,stimuli/Test1.png,stimuli/Test2.png,"(-0.7, 0.5)",cs_plus_ns,"(0.7, -0.5)",cs_plus_ns,0,0,0,0,,,,,0,53,53,74,,,,,,,,,,,,,,,263.2973158999812,264.30422709998675,264.30422709998675,264.4499999000109,264.9569289999781,264.9569289999781,265.10284359997604,ä,0.952844700019341,correct,,266.0680582000059,266.99161640001694,264.30422709998675,,,,,,,,,,,,17,B,2023-12-11_10h54.33.458,gca_discrimination,2022.2.4,143.92071702188983,
positions.xlsx,stimuli.xlsx,test.xlsx,stimuli/Social2.png,stimuli/Social1.png,stimuli/Nonsocial1.png,stimuli/Nonsocial2.png,stimuli/Test1.png,stimuli/Test2.png,"(0.7, 0.5)",cs_minus_s,"(-0.7, -0.5)",cs_minus_s,0,0,0,0,,,,,0,54,54,67,,,,,,,,,,,,,,,266.99161640001694,267.9985467999941,267.9985467999941,268.144355299999,268.6512967000017,268.6512967000017,268.7971144000185,l,0.9469042999553494,wrong,,269.75541659997543,270.4428734999965,267.9985467999941,,,,,,,,,,,,17,B,2023-12-11_10h54.33.458,gca_discrimination,2022.2.4,143.92071702188983,
positions.xlsx,stimuli.xlsx,test.xlsx,stimuli/Social2.png,stimuli/Social1.png,stimuli/Nonsocial1.png,stimuli/Nonsocial2.png,stimuli/Test1.png,stimuli/Test2.png,"(0.7, -0.5)",cs_plus_s,"(-0.7, 0.5)",cs_minus_s,0,0,0,0,,,,,0,55,55,9,,,,,,,,,,,,,,,270.4428734999965,271.4497961999732,271.4497961999732,271.5955784000107,272.10254140000325,272.10254140000325,272.24837330001174,l,0.8953810000093654,correct,,273.15109449997544,273.53303579997737,271.4497961999732,,,,,,,,,,,,17,B,2023-12-11_10h54.33.458,gca_discrimination,2022.2.4,143.92071702188983,
positions.xlsx,stimuli.xlsx,test.xlsx,stimuli/Social2.png,stimuli/Social1.png,stimuli/Nonsocial1.png,stimuli/Nonsocial2.png,stimuli/Test1.png,stimuli/Test2.png,"(0.7, 0.5)",cs_plus_ns,"(0.7, -0.5)",cs_plus_ns,0,0,0,0,,,,,0,56,56,80,,,,,,,,,,,,,,,273.53303579997737,274.5399032999994,274.5399032999994,274.68572730000596,275.1926970999921,275.1926970999921,275.3385238000192,ä,0.39814249996561557,correct,,275.74821150000207,276.0676385000115,274.5399032999994,,,,,,,,,,,,17,B,2023-12-11_10h54.33.458,gca_discrimination,2022.2.4,143.92071702188983,
positions.xlsx,stimuli.xlsx,test.xlsx,stimuli/Social2.png,stimuli/Social1.png,stimuli/Nonsocial1.png,stimuli/Nonsocial2.png,stimuli/Test1.png,stimuli/Test2.png,"(0.7, 0.5)",cs_minus_s,"(-0.7, 0.5)",cs_minus_s,0,0,0,0,,,,,0,57,57,66,,,,,,,,,,,,,,,276.0676385000115,277.0745852999971,277.0745852999971,277.2203902999754,277.7273091999814,277.7273091999814,277.873137699964,ä,0.2952087000012398,correct,,278.1786605999805,279.01197190000676,277.0745852999971,,,,,,,,,,,,17,B,2023-12-11_10h54.33.458,gca_discrimination,2022.2.4,143.92071702188983,
positions.xlsx,stimuli.xlsx,test.xlsx,stimuli/Social2.png,stimuli/Social1.png,stimuli/Nonsocial1.png,stimuli/Nonsocial2.png,stimuli/Test1.png,stimuli/Test2.png,"(-0.7, -0.5)",cs_plus_ns,"(-0.7, 0.5)",cs_plus_ns,0,0,0,0,,,,,0,58,58,75,,,,,,,,,,,,,,,279.01197190000676,280.0188773999689,280.0188773999689,280.1646817000001,280.67162370000733,280.67162370000733,280.8174747999874,ä,0.6062437000218779,correct,,281.43549010000424,281.8174204999814,280.0188773999689,,,,,,,,,,,,17,B,2023-12-11_10h54.33.458,gca_discrimination,2022.2.4,143.92071702188983,
positions.xlsx,stimuli.xlsx,test.xlsx,stimuli/Social2.png,stimuli/Social1.png,stimuli/Nonsocial1.png,stimuli/Nonsocial2.png,stimuli/Test1.png,stimuli/Test2.png,"(0.7, -0.5)",cs_plus_s,"(-0.7, -0.5)",cs_minus_s,0,0,0,0,,,,,0,59,59,10,,,,,,,,,,,,,,,281.8174204999814,282.82430759997806,282.82430759997806,282.9701483999961,283.47707979998086,283.47707979998086,283.62294969998766,l,0.5049919000011869,correct,,284.13676159997704,284.51175379997585,282.82430759997806,,,,,,,,,,,,17,B,2023-12-11_10h54.33.458,gca_discrimination,2022.2.4,143.92071702188983,
positions.xlsx,stimuli.xlsx,test.xlsx,stimuli/Social2.png,stimuli/Social1.png,stimuli/Nonsocial1.png,stimuli/Nonsocial2.png,stimuli/Test1.png,stimuli/Test2.png,"(-0.7, 0.5)",cs_plus_s,"(-0.7, -0.5)",cs_minus_s,0,0,0,0,,,,,0,60,60,0,,,,,,,,,,,,,,,284.51175379997585,285.51866389997303,285.51866389997303,285.66449809999904,286.17141720000654,286.17141720000654,286.3172407000093,ä,0.3785560000105761,wrong,,286.70610359997954,287.69219269999303,285.51866389997303,,,,,,,,,,,,17,B,2023-12-11_10h54.33.458,gca_discrimination,2022.2.4,143.92071702188983,
positions.xlsx,stimuli.xlsx,test.xlsx,stimuli/Social2.png,stimuli/Social1.png,stimuli/Nonsocial1.png,stimuli/Nonsocial2.png,stimuli/Test1.png,stimuli/Test2.png,"(-0.7, 0.5)",cs_plus_ns,"(-0.7, -0.5)",cs_plus_ns,0,0,0,0,,,,,0,61,61,72,,,,,,,,,,,,,,,287.69219269999303,288.69910059997346,288.69910059997346,288.8449277000036,289.3518793999683,289.3518793999683,289.4976630000165,ä,0.47813900001347065,correct,,289.9837439999683,290.3448580999975,288.69910059997346,,,,,,,,,,,,17,B,2023-12-11_10h54.33.458,gca_discrimination,2022.2.4,143.92071702188983,
positions.xlsx,stimuli.xlsx,test.xlsx,stimuli/Social2.png,stimuli/Social1.png,stimuli/Nonsocial1.png,stimuli/Nonsocial2.png,stimuli/Test1.png,stimuli/Test2.png,"(0.7, -0.5)",cs_plus_ns,"(-0.7, -0.5)",cs_minus_ns,0,0,0,0,,,,,0,62,62,34,,,,,,,,,,,,,,,290.3448580999975,291.35177189996466,291.35177189996466,291.49760230001993,292.0045256000012,292.0045256000012,292.1503457999788,l,0.5300260999938473,correct,,292.69201519998023,293.44892599998275,291.35177189996466,,,,,,,,,,,,17,B,2023-12-11_10h54.33.458,gca_discrimination,2022.2.4,143.92071702188983,
positions.xlsx,stimuli.xlsx,test.xlsx,stimuli/Social2.png,stimuli/Social1.png,stimuli/Nonsocial1.png,stimuli/Nonsocial2.png,stimuli/Test1.png,stimuli/Test2.png,"(0.7, -0.5)",cs_plus_ns,"(0.7, 0.5)",cs_minus_ns,0,0,0,0,,,,,0,63,63,35,,,,,,,,,,,,,,,293.44892599998275,294.4558141999878,294.4558141999878,294.60165630001575,295.1085960000055,295.1085960000055,295.2543730000034,l,0.4413475000183098,correct,,295.70578169997316,296.08077679999406,294.4558141999878,,,,,,,,,,,,17,B,2023-12-11_10h54.33.458,gca_discrimination,2022.2.4,143.92071702188983,
positions.xlsx,stimuli.xlsx,test.xlsx,stimuli/Social2.png,stimuli/Social1.png,stimuli/Nonsocial1.png,stimuli/Nonsocial2.png,stimuli/Test1.png,stimuli/Test2.png,"(0.7, -0.5)",cs_plus_s,"(0.7, 0.5)",cs_plus_s,0,0,0,0,,,,,0,64,64,59,,,,,,,,,,,,,,,296.08077679999406,297.08768250001594,297.08768250001594,297.2334773999755,297.740416799963,297.740416799963,297.8862300000037,ä,0.5296632000245154,correct,,298.4279053999926,298.83760849997634,297.08768250001594,,,,,,,,,,,,17,B,2023-12-11_10h54.33.458,gca_discrimination,2022.2.4,143.92071702188983,
positions.xlsx,stimuli.xlsx,test.xlsx,stimuli/Social2.png,stimuli/Social1.png,stimuli/Nonsocial1.png,stimuli/Nonsocial2.png,stimuli/Test1.png,stimuli/Test2.png,"(-0.7, -0.5)",cs_minus_s,"(0.7, 0.5)",cs_plus_s,0,0,0,0,,,,,0,65,65,16,,,,,,,,,,,,,,,298.83760849997634,299.8444684999995,299.8444684999995,299.99032189999707,300.497248700005,300.497248700005,300.6430646000081,l,0.6204268999863416,correct,,301.2749734999961,301.3861028999672,299.8444684999995,,,,,,,,,,,,17,B,2023-12-11_10h54.33.458,gca_discrimination,2022.2.4,143.92071702188983,
positions.xlsx,stimuli.xlsx,test.xlsx,stimuli/Social2.png,stimuli/Social1.png,stimuli/Nonsocial1.png,stimuli/Nonsocial2.png,stimuli/Test1.png,stimuli/Test2.png,"(0.7, 0.5)",cs_plus_s,"(0.7, -0.5)",cs_plus_s,0,0,0,0,,,,,0,66,66,56,,,,,,,,,,,,,,,301.3861028999672,302.3930129999644,302.3930129999644,302.538812600018,303.0457764000166,303.0457764000166,303.1915669000009,ä,0.6725123999640346,correct,,303.87209439999424,303.99710159999086,302.3930129999644,,,,,,,,,,,,17,B,2023-12-11_10h54.33.458,gca_discrimination,2022.2.4,143.92071702188983,
positions.xlsx,stimuli.xlsx,test.xlsx,stimuli/Social2.png,stimuli/Social1.png,stimuli/Nonsocial1.png,stimuli/Nonsocial2.png,stimuli/Test1.png,stimuli/Test2.png,"(0.7, 0.5)",cs_minus_s,"(-0.7, 0.5)",cs_plus_s,0,0,0,0,,,,,0,67,67,18,,,,,,,,,,,,,,,303.99710159999086,305.0040332999779,305.0040332999779,305.1498338999809,305.6567741999752,305.6567741999752,305.80260509997606,l,0.49307690002024174,correct,,306.3025762999896,306.7608609999879,305.0040332999779,,,,,,,,,,,,17,B,2023-12-11_10h54.33.458,gca_discrimination,2022.2.4,143.92071702188983,
positions.xlsx,stimuli.xlsx,test.xlsx,stimuli/Social2.png,stimuli/Social1.png,stimuli/Nonsocial1.png,stimuli/Nonsocial2.png,stimuli/Test1.png,stimuli/Test2.png,"(-0.7, -0.5)",cs_plus_s,"(0.7, 0.5)",cs_minus_s,0,0,0,0,,,,,0,68,68,4,,,,,,,,,,,,,,,306.7608609999879,307.7678024999914,307.7678024999914,307.913623099972,308.42053990002023,308.42053990002023,308.5663630000199,l,0.4973918999894522,correct,,309.0733023000066,309.3371991000022,307.7678024999914,,,,,,,,,,,,17,B,2023-12-11_10h54.33.458,gca_discrimination,2022.2.4,143.92071702188983,
positions.xlsx,stimuli.xlsx,test.xlsx,stimuli/Social2.png,stimuli/Social1.png,stimuli/Nonsocial1.png,stimuli/Nonsocial2.png,stimuli/Test1.png,stimuli/Test2.png,"(-0.7, 0.5)",cs_plus_ns,"(0.7, -0.5)",cs_minus_ns,0,0,0,0,,,,,0,69,69,26,,,,,,,,,,,,,,,309.3371991000022,310.34407300001476,310.34407300001476,310.4899295999785,310.9968492999906,310.9968492999906,311.14268869999796,l,0.7778495000093244,correct,,311.92733869998483,312.5662150999997,310.34407300001476,,,,,,,,,,,,17,B,2023-12-11_10h54.33.458,gca_discrimination,2022.2.4,143.92071702188983,
positions.xlsx,stimuli.xlsx,test.xlsx,stimuli/Social2.png,stimuli/Social1.png,stimuli/Nonsocial1.png,stimuli/Nonsocial2.png,stimuli/Test1.png,stimuli/Test2.png,"(-0.7, -0.5)",cs_plus_s,"(-0.7, 0.5)",cs_minus_s,0,0,0,0,,,,,0,70,70,3,,,,,,,,,,,,,,,312.5662150999997,313.5731400999939,313.5731400999939,313.718968399975,314.22591859998647,314.22591859998647,314.37168199999724,l,0.5405809999792837,correct,,314.9203137999866,315.6633370000054,313.5731400999939,,,,,,,,,,,,17,B,2023-12-11_10h54.33.458,gca_discrimination,2022.2.4,143.92071702188983,
positions.xlsx,stimuli.xlsx,test.xlsx,stimuli/Social2.png,stimuli/Social1.png,stimuli/Nonsocial1.png,stimuli/Nonsocial2.png,stimuli/Test1.png,stimuli/Test2.png,"(0.7, -0.5)",cs_minus_s,"(0.7, 0.5)",cs_plus_s,0,0,0,0,,,,,0,71,71,23,,,,,,,,,,,,,,,315.6633370000054,316.6702187000192,316.6702187000192,316.8160627000034,317.3229876999976,317.3229876999976,317.46878709999146,l,0.4991728999884799,correct,,317.97570730000734,318.1909896999714,316.6702187000192,,,,,,,,,,,,17,B,2023-12-11_10h54.33.458,gca_discrimination,2022.2.4,143.92071702188983,
positions.xlsx,stimuli.xlsx,test.xlsx,stimuli/Social2.png,stimuli/Social1.png,stimuli/Nonsocial1.png,stimuli/Nonsocial2.png,stimuli/Test1.png,stimuli/Test2.png,"(-0.7, -0.5)",cs_minus_ns,"(0.7, 0.5)",cs_minus_ns,0,0,0,0,,,,,0,72,72,88,,,,,,,,,,,,,,,318.1909896999714,319.19798339996487,319.19798339996487,319.3437385999714,319.85064359998796,319.85064359998796,319.9964758999995,ä,0.4918263999861665,correct,,320.49644499999704,321.1561670000083,319.19798339996487,,,,,,,,,,,,17,B,2023-12-11_10h54.33.458,gca_discrimination,2022.2.4,143.92071702188983,
positions.xlsx,stimuli.xlsx,test.xlsx,stimuli/Social2.png,stimuli/Social1.png,stimuli/Nonsocial1.png,stimuli/Nonsocial2.png,stimuli/Test1.png,stimuli/Test2.png,"(-0.7, 0.5)",cs_minus_s,"(0.7, -0.5)",cs_plus_s,0,0,0,0,,,,,0,73,73,14,,,,,,,,,,,,,,,321.1561670000083,322.1630754999933,322.1630754999933,322.3089247000171,322.81582289998187,322.81582289998187,322.9616523999721,l,0.3339234000304714,correct,,323.3088558000163,323.61439930001507,322.1630754999933,,,,,,,,,,,,17,B,2023-12-11_10h54.33.458,gca_discrimination,2022.2.4,143.92071702188983,
positions.xlsx,stimuli.xlsx,test.xlsx,stimuli/Social2.png,stimuli/Social1.png,stimuli/Nonsocial1.png,stimuli/Nonsocial2.png,stimuli/Test1.png,stimuli/Test2.png,"(-0.7, 0.5)",cs_plus_ns,"(-0.7, -0.5)",cs_minus_ns,0,0,0,0,,,,,0,74,74,24,,,,,,,,,,,,,,,323.61439930001507,324.6213628000114,324.6213628000114,324.76713379996363,325.2740870999987,325.2740870999987,325.41992359998403,l,0.34815490001346916,correct,,325.7809940999723,326.4962046999717,324.6213628000114,,,,,,,,,,,,17,B,2023-12-11_10h54.33.458,gca_discrimination,2022.2.4,143.92071702188983,
positions.xlsx,stimuli.xlsx,test.xlsx,stimuli/Social2.png,stimuli/Social1.png,stimuli/Nonsocial1.png,stimuli/Nonsocial2.png,stimuli/Test1.png,stimuli/Test2.png,"(-0.7, 0.5)",cs_minus_s,"(0.7, 0.5)",cs_plus_s,0,0,0,0,,,,,0,75,75,13,,,,,,,,,,,,,,,326.4962046999717,327.5031333999941,327.5031333999941,327.64896670001326,328.1559082000167,328.1559082000167,328.30172990000574,l,0.47497589996783063,correct,,328.78784579999046,329.2738830000162,327.5031333999941,,,,,,,,,,,,17,B,2023-12-11_10h54.33.458,gca_discrimination,2022.2.4,143.92071702188983,
positions.xlsx,stimuli.xlsx,test.xlsx,stimuli/Social2.png,stimuli/Social1.png,stimuli/Nonsocial1.png,stimuli/Nonsocial2.png,stimuli/Test1.png,stimuli/Test2.png,"(-0.7, 0.5)",cs_minus_s,"(-0.7, -0.5)",cs_minus_s,0,0,0,0,,,,,0,76,76,60,,,,,,,,,,,,,,,329.2738830000162,330.28078909998294,330.28078909998294,330.42660900001647,330.9335506000207,330.9335506000207,331.07933929999126,ä,0.5289962000097148,correct,,331.6210330000031,332.2529566999874,330.28078909998294,,,,,,,,,,,,17,B,2023-12-11_10h54.33.458,gca_discrimination,2022.2.4,143.92071702188983,
positions.xlsx,stimuli.xlsx,test.xlsx,stimuli/Social2.png,stimuli/Social1.png,stimuli/Nonsocial1.png,stimuli/Nonsocial2.png,stimuli/Test1.png,stimuli/Test2.png,"(-0.7, -0.5)",cs_minus_ns,"(-0.7, 0.5)",cs_plus_ns,0,0,0,0,,,,,0,77,77,39,,,,,,,,,,,,,,,332.2529566999874,333.2598643999663,333.2598643999663,333.405694200017,333.91262439999264,333.91262439999264,334.05843239999376,l,0.933795300021302,correct,,335.0028462000191,335.8569846000173,333.2598643999663,,,,,,,,,,,,17,B,2023-12-11_10h54.33.458,gca_discrimination,2022.2.4,143.92071702188983,
positions.xlsx,stimuli.xlsx,test.xlsx,stimuli/Social2.png,stimuli/Social1.png,stimuli/Nonsocial1.png,stimuli/Nonsocial2.png,stimuli/Test1.png,stimuli/Test2.png,"(0.7, -0.5)",cs_minus_ns,"(0.7, 0.5)",cs_plus_ns,0,0,0,0,,,,,0,78,78,47,,,,,,,,,,,,,,,335.8569846000173,336.8638628000044,336.8638628000044,337.00971269997535,337.5166792999953,337.5166792999953,337.66247899999144,l,0.4660021999734454,correct,,338.1416316999821,339.0374102999922,336.8638628000044,,,,,,,,,,,,17,B,2023-12-11_10h54.33.458,gca_discrimination,2022.2.4,143.92071702188983,
positions.xlsx,stimuli.xlsx,test.xlsx,stimuli/Social2.png,stimuli/Social1.png,stimuli/Nonsocial1.png,stimuli/Nonsocial2.png,stimuli/Test1.png,stimuli/Test2.png,"(-0.7, 0.5)",cs_plus_ns,"(0.7, 0.5)",cs_minus_ns,0,0,0,0,,,,,0,79,79,25,,,,,,,,,,,,,,,339.0374102999922,340.0443305000081,340.0443305000081,340.1901578999823,340.69709759997204,340.69709759997204,340.8428960000165,l,0.429479899990838,correct,,341.2804474000004,341.62064470001496,340.0443305000081,,,,,,,,,,,,17,B,2023-12-11_10h54.33.458,gca_discrimination,2022.2.4,143.92071702188983,
positions.xlsx,stimuli.xlsx,test.xlsx,stimuli/Social2.png,stimuli/Social1.png,stimuli/Nonsocial1.png,stimuli/Nonsocial2.png,stimuli/Test1.png,stimuli/Test2.png,"(-0.7, -0.5)",cs_minus_s,"(0.7, 0.5)",cs_minus_s,0,0,0,0,,,,,0,80,80,64,,,,,,,,,,,,,,,341.62064470001496,342.6275707000168,342.6275707000168,342.77337890001945,343.2802806000109,343.2802806000109,343.4260768999811,ä,0.5497871999978088,correct,,343.9886204999639,344.15528969996376,342.6275707000168,,,,,,,,,,,,17,B,2023-12-11_10h54.33.458,gca_discrimination,2022.2.4,143.92071702188983,
positions.xlsx,stimuli.xlsx,test.xlsx,stimuli/Social2.png,stimuli/Social1.png,stimuli/Nonsocial1.png,stimuli/Nonsocial2.png,stimuli/Test1.png,stimuli/Test2.png,"(-0.7, -0.5)",cs_plus_s,"(-0.7, 0.5)",cs_plus_s,0,0,0,0,,,,,0,81,81,51,,,,,,,,,,,,,,,344.15528969996376,345.1621831000084,345.1621831000084,345.30801849998534,345.81496160000097,345.81496160000097,345.9607656999724,ä,0.5829004000406712,correct,,346.5509855999844,347.09961159998784,345.1621831000084,,,,,,,,,,,,17,B,2023-12-11_10h54.33.458,gca_discrimination,2022.2.4,143.92071702188983,
positions.xlsx,stimuli.xlsx,test.xlsx,stimuli/Social2.png,stimuli/Social1.png,stimuli/Nonsocial1.png,stimuli/Nonsocial2.png,stimuli/Test1.png,stimuli/Test2.png,"(0.7, 0.5)",cs_plus_s,"(-0.7, -0.5)",cs_plus_s,0,0,0,0,,,,,0,82,82,55,,,,,,,,,,,,,,,347.09961159998784,348.10650689998874,348.10650689998874,348.2523269999656,348.75928090000525,348.75928090000525,348.90513859997736,ä,0.6072285000118427,correct,,349.5231130999746,349.59949689998757,348.10650689998874,,,,,,,,,,,,17,B,2023-12-11_10h54.33.458,gca_discrimination,2022.2.4,143.92071702188983,
positions.xlsx,stimuli.xlsx,test.xlsx,stimuli/Social2.png,stimuli/Social1.png,stimuli/Nonsocial1.png,stimuli/Nonsocial2.png,stimuli/Test1.png,stimuli/Test2.png,"(0.7, 0.5)",cs_minus_ns,"(0.7, -0.5)",cs_minus_ns,0,0,0,0,,,,,0,83,83,92,,,,,,,,,,,,,,,349.59949689998757,350.6063978999737,350.6063978999737,350.7522236999939,351.2591825000127,351.2591825000127,351.4049490999896,l,0.2831193000311032,wrong,,351.69663009996293,352.00914759997977,350.6063978999737,,,,,,,,,,,,17,B,2023-12-11_10h54.33.458,gca_discrimination,2022.2.4,143.92071702188983,
positions.xlsx,stimuli.xlsx,test.xlsx,stimuli/Social2.png,stimuli/Social1.png,stimuli/Nonsocial1.png,stimuli/Nonsocial2.png,stimuli/Test1.png,stimuli/Test2.png,"(-0.7, -0.5)",cs_plus_ns,"(-0.7, 0.5)",cs_minus_ns,0,0,0,0,,,,,0,84,84,27,,,,,,,,,,,,,,,352.00914759997977,353.01605069998186,353.01605069998186,353.1618663999834,353.6687949000043,353.6687949000043,353.81461309996666,l,0.6332552000530995,correct,,354.4604125000187,354.48126390000107,353.01605069998186,,,,,,,,,,,,17,B,2023-12-11_10h54.33.458,gca_discrimination,2022.2.4,143.92071702188983,
positions.xlsx,stimuli.xlsx,test.xlsx,stimuli/Social2.png,stimuli/Social1.png,stimuli/Nonsocial1.png,stimuli/Nonsocial2.png,stimuli/Test1.png,stimuli/Test2.png,"(0.7, 0.5)",cs_plus_ns,"(0.7, -0.5)",cs_minus_ns,0,0,0,0,,,,,0,85,85,32,,,,,,,,,,,,,,,354.48126390000107,355.48816959996475,355.48816959996475,355.6339827000047,356.1409634000156,356.1409634000156,356.2867467000033,l,0.6251171000185423,correct,,356.91863969998667,357.33532159996685,355.48816959996475,,,,,,,,,,,,17,B,2023-12-11_10h54.33.458,gca_discrimination,2022.2.4,143.92071702188983,
positions.xlsx,stimuli.xlsx,test.xlsx,stimuli/Social2.png,stimuli/Social1.png,stimuli/Nonsocial1.png,stimuli/Nonsocial2.png,stimuli/Test1.png,stimuli/Test2.png,"(0.7, -0.5)",cs_minus_s,"(-0.7, -0.5)",cs_minus_s,0,0,0,0,,,,,0,86,86,70,,,,,,,,,,,,,,,357.33532159996685,358.3422610000125,358.3422610000125,358.4880555999698,358.9949874000158,358.9949874000158,359.14081630000146,ä,0.46038810000754893,correct,,359.6129644999746,359.80743659997825,358.3422610000125,,,,,,,,,,,,17,B,2023-12-11_10h54.33.458,gca_discrimination,2022.2.4,143.92071702188983,
positions.xlsx,stimuli.xlsx,test.xlsx,stimuli/Social2.png,stimuli/Social1.png,stimuli/Nonsocial1.png,stimuli/Nonsocial2.png,stimuli/Test1.png,stimuli/Test2.png,"(-0.7, -0.5)",cs_minus_ns,"(0.7, -0.5)",cs_minus_ns,0,0,0,0,,,,,0,87,87,89,,,,,,,,,,,,,,,359.80743659997825,360.81437099998584,360.81437099998584,360.9601343999966,361.46712899999693,361.46712899999693,361.6129933000193,ä,0.6513436999521218,correct,,362.27262649999466,362.6128902999917,360.81437099998584,,,,,,,,,,,,17,B,2023-12-11_10h54.33.458,gca_discrimination,2022.2.4,143.92071702188983,
positions.xlsx,stimuli.xlsx,test.xlsx,stimuli/Social2.png,stimuli/Social1.png,stimuli/Nonsocial1.png,stimuli/Nonsocial2.png,stimuli/Test1.png,stimuli/Test2.png,"(-0.7, -0.5)",cs_minus_ns,"(-0.7, 0.5)",cs_minus_ns,0,0,0,0,,,,,0,88,88,87,,,,,,,,,,,,,,,362.6128902999917,363.61979289999,363.61979289999,363.76562819996616,364.2725336999865,364.2725336999865,364.41835130000254,ä,0.40574309998191893,correct,,364.8350434000022,365.57108909997623,363.61979289999,,,,,,,,,,,,17,B,2023-12-11_10h54.33.458,gca_discrimination,2022.2.4,143.92071702188983,
positions.xlsx,stimuli.xlsx,test.xlsx,stimuli/Social2.png,stimuli/Social1.png,stimuli/Nonsocial1.png,stimuli/Nonsocial2.png,stimuli/Test1.png,stimuli/Test2.png,"(-0.7, -0.5)",cs_minus_ns,"(0.7, 0.5)",cs_plus_ns,0,0,0,0,,,,,0,89,89,40,,,,,,,,,,,,,,,365.57108909997623,366.57802419998916,366.57802419998916,366.7238415000029,367.2307659999933,367.2307659999933,367.3765914000105,l,0.42493759997887537,correct,,367.8140859999694,367.8488192000077,366.57802419998916,,,,,,,,,,,,17,B,2023-12-11_10h54.33.458,gca_discrimination,2022.2.4,143.92071702188983,
positions.xlsx,stimuli.xlsx,test.xlsx,stimuli/Social2.png,stimuli/Social1.png,stimuli/Nonsocial1.png,stimuli/Nonsocial2.png,stimuli/Test1.png,stimuli/Test2.png,"(0.7, 0.5)",cs_plus_s,"(-0.7, 0.5)",cs_minus_s,0,0,0,0,,,,,0,90,90,6,,,,,,,,,,,,,,,367.8488192000077,368.85570169996936,368.85570169996936,369.0015429999912,369.5085025000153,369.5085025000153,369.65426490001846,l,0.8973884000442922,correct,,370.56395179999527,371.5500116000185,368.85570169996936,,,,,,,,,,,,17,B,2023-12-11_10h54.33.458,gca_discrimination,2022.2.4,143.92071702188983,
positions.xlsx,stimuli.xlsx,test.xlsx,stimuli/Social2.png,stimuli/Social1.png,stimuli/Nonsocial1.png,stimuli/Nonsocial2.png,stimuli/Test1.png,stimuli/Test2.png,"(0.7, -0.5)",cs_minus_ns,"(-0.7, 0.5)",cs_plus_ns,0,0,0,0,,,,,0,91,91,45,,,,,,,,,,,,,,,371.5500116000185,372.5569521000143,372.5569521000143,372.7027650999953,373.2096993000014,373.2096993000014,373.35550960002,l,0.5806824999745004,correct,,373.945774599968,373.945774599968,372.5569521000143,,,,,,,,,,,,17,B,2023-12-11_10h54.33.458,gca_discrimination,2022.2.4,143.92071702188983,
positions.xlsx,stimuli.xlsx,test.xlsx,stimuli/Social2.png,stimuli/Social1.png,stimuli/Nonsocial1.png,stimuli/Nonsocial2.png,stimuli/Test1.png,stimuli/Test2.png,"(0.7, 0.5)",cs_minus_ns,"(-0.7, -0.5)",cs_minus_ns,0,0,0,0,,,,,0,92,92,91,,,,,,,,,,,,,,,373.945774599968,374.95270500000333,374.95270500000333,375.0985294000129,375.605463600019,375.605463600019,375.7513014000142,ä,0.8330028000054881,correct,,376.59150199999567,376.61232309998013,374.95270500000333,,,,,,,,,,,,17,B,2023-12-11_10h54.33.458,gca_discrimination,2022.2.4,143.92071702188983,
positions.xlsx,stimuli.xlsx,test.xlsx,stimuli/Social2.png,stimuli/Social1.png,stimuli/Nonsocial1.png,stimuli/Nonsocial2.png,stimuli/Test1.png,stimuli/Test2.png,"(-0.7, 0.5)",cs_minus_ns,"(0.7, -0.5)",cs_minus_ns,0,0,0,0,,,,,0,93,93,86,,,,,,,,,,,,,,,376.61232309998013,377.6192559999763,377.6192559999763,377.76510020002024,378.2720208999817,378.2720208999817,378.4178369999863,ä,0.29465520003577694,correct,,378.72335990000283,379.299780500005,377.6192559999763,,,,,,,,,,,,17,B,2023-12-11_10h54.33.458,gca_discrimination,2022.2.4,143.92071702188983,
positions.xlsx,stimuli.xlsx,test.xlsx,stimuli/Social2.png,stimuli/Social1.png,stimuli/Nonsocial1.png,stimuli/Nonsocial2.png,stimuli/Test1.png,stimuli/Test2.png,"(-0.7, -0.5)",cs_minus_s,"(-0.7, 0.5)",cs_minus_s,0,0,0,0,,,,,0,94,94,63,,,,,,,,,,,,,,,379.299780500005,380.3066734999884,380.3066734999884,380.45244550000643,380.959394400008,380.959394400008,381.10523089999333,ä,0.5668112999992445,correct,,381.68160760001047,381.74409749999177,380.3066734999884,,,,,,,,,,,,17,B,2023-12-11_10h54.33.458,gca_discrimination,2022.2.4,143.92071702188983,
positions.xlsx,stimuli.xlsx,test.xlsx,stimuli/Social2.png,stimuli/Social1.png,stimuli/Nonsocial1.png,stimuli/Nonsocial2.png,stimuli/Test1.png,stimuli/Test2.png,"(-0.7, 0.5)",cs_minus_ns,"(0.7, 0.5)",cs_minus_ns,0,0,0,0,,,,,0,95,95,85,,,,,,,,,,,,,,,381.74409749999177,382.7509923999896,382.7509923999896,382.896837599983,383.40372190001654,383.40372190001654,383.5495480999816,ä,0.20230310002807528,correct,,383.76488600001903,383.8759517999715,382.7509923999896,,,,,,,,,,,,17,B,2023-12-11_10h54.33.458,gca_discrimination,2022.2.4,143.92071702188983,
