posFile,stimFile,testFile,cs_plus_s,cs_minus_s,cs_plus_ns,cs_minus_ns,test1,test2,position1,trialtype,position2,comptype,blocks.thisRepN,blocks.thisTrialN,blocks.thisN,blocks.thisIndex,learning_trials.thisRepN,learning_trials.thisTrialN,learning_trials.thisN,learning_trials.thisIndex,trials.thisRepN,trials.thisTrialN,trials.thisN,trials.thisIndex,textStart.started,key.started,key.keys,key.rt,correctness,textStartTask.started,participant,group,date,expName,psychopyVersion,frameRate,
positions.xlsx,stimuli.xlsx,test.xlsx,stimuli/Social2.png,stimuli/Social1.png,stimuli/Nonsocial2.png,stimuli/Nonsocial1.png,stimuli/Test1.png,stimuli/Test2.png,"(-0.7, -0.5)",test2,"(0.7, 0.5)",test2,0,0,0,0,0,0,0,7,,,,,13.090611800085753,42.047708600061014,l,0.8697394002228975,correct,,40,D,2023-12-20_15h30.06.201,gca_discrimination,2022.2.4,144.01792743446387,
positions.xlsx,stimuli.xlsx,test.xlsx,stimuli/Social2.png,stimuli/Social1.png,stimuli/Nonsocial2.png,stimuli/Nonsocial1.png,stimuli/Test1.png,stimuli/Test2.png,"(0.7, 0.5)",test2,"(0.7, -0.5)",test1,0,0,0,0,0,1,1,6,,,,,,47.5405772998929,ä,0.8488010000437498,correct,,40,D,2023-12-20_15h30.06.201,gca_discrimination,2022.2.4,144.01792743446387,
positions.xlsx,stimuli.xlsx,test.xlsx,stimuli/Social2.png,stimuli/Social1.png,stimuli/Nonsocial2.png,stimuli/Nonsocial1.png,stimuli/Test1.png,stimuli/Test2.png,"(0.7, -0.5)",test1,"(0.7, 0.5)",test1,0,0,0,0,0,2,2,10,,,,,,52.5056308999192,l,0.444078000029549,correct,,40,D,2023-12-20_15h30.06.201,gca_discrimination,2022.2.4,144.01792743446387,
positions.xlsx,stimuli.xlsx,test.xlsx,stimuli/Social2.png,stimuli/Social1.png,stimuli/Nonsocial2.png,stimuli/Nonsocial1.png,stimuli/Test1.png,stimuli/Test2.png,"(-0.7, 0.5)",test2,"(-0.7, -0.5)",test2,0,0,0,0,0,3,3,1,,,,,,56.984647900098935,l,0.6060803001746535,correct,,40,D,2023-12-20_15h30.06.201,gca_discrimination,2022.2.4,144.01792743446387,
positions.xlsx,stimuli.xlsx,test.xlsx,stimuli/Social2.png,stimuli/Social1.png,stimuli/Nonsocial2.png,stimuli/Nonsocial1.png,stimuli/Test1.png,stimuli/Test2.png,"(-0.7, 0.5)",test1,"(0.7, -0.5)",test1,0,0,0,0,0,4,4,5,,,,,,61.49143709987402,l,0.39401810010895133,correct,,40,D,2023-12-20_15h30.06.201,gca_discrimination,2022.2.4,144.01792743446387,
positions.xlsx,stimuli.xlsx,test.xlsx,stimuli/Social2.png,stimuli/Social1.png,stimuli/Nonsocial2.png,stimuli/Nonsocial1.png,stimuli/Test1.png,stimuli/Test2.png,"(0.7, 0.5)",test2,"(-0.7, 0.5)",test1,0,0,0,0,0,5,5,13,,,,,,65.78988620010205,l,0.4075507002416998,wrong,,40,D,2023-12-20_15h30.06.201,gca_discrimination,2022.2.4,144.01792743446387,
positions.xlsx,stimuli.xlsx,test.xlsx,stimuli/Social2.png,stimuli/Social1.png,stimuli/Nonsocial2.png,stimuli/Nonsocial1.png,stimuli/Test1.png,stimuli/Test2.png,"(-0.7, -0.5)",test1,"(0.7, 0.5)",test2,0,0,0,0,0,6,6,8,,,,,,71.00490140006877,ä,0.42509700008668005,correct,,40,D,2023-12-20_15h30.06.201,gca_discrimination,2022.2.4,144.01792743446387,
positions.xlsx,stimuli.xlsx,test.xlsx,stimuli/Social2.png,stimuli/Social1.png,stimuli/Nonsocial2.png,stimuli/Nonsocial1.png,stimuli/Test1.png,stimuli/Test2.png,"(0.7, -0.5)",test1,"(0.7, 0.5)",test2,0,0,0,0,0,7,7,0,,,,,,75.33117439993657,ä,0.338623900199309,correct,,40,D,2023-12-20_15h30.06.201,gca_discrimination,2022.2.4,144.01792743446387,
positions.xlsx,stimuli.xlsx,test.xlsx,stimuli/Social2.png,stimuli/Social1.png,stimuli/Nonsocial2.png,stimuli/Nonsocial1.png,stimuli/Test1.png,stimuli/Test2.png,"(-0.7, -0.5)",test2,"(0.7, -0.5)",test2,0,0,0,0,0,8,8,9,,,,,,80.06710679992102,l,1.1621528000105172,correct,,40,D,2023-12-20_15h30.06.201,gca_discrimination,2022.2.4,144.01792743446387,
positions.xlsx,stimuli.xlsx,test.xlsx,stimuli/Social2.png,stimuli/Social1.png,stimuli/Nonsocial2.png,stimuli/Nonsocial1.png,stimuli/Test1.png,stimuli/Test2.png,"(0.7, -0.5)",test2,"(-0.7, 0.5)",test1,0,0,0,0,0,9,9,4,,,,,,86.04600670002401,ä,0.49554140004329383,correct,,40,D,2023-12-20_15h30.06.201,gca_discrimination,2022.2.4,144.01792743446387,
positions.xlsx,stimuli.xlsx,test.xlsx,stimuli/Social2.png,stimuli/Social1.png,stimuli/Nonsocial2.png,stimuli/Nonsocial1.png,stimuli/Test1.png,stimuli/Test2.png,"(-0.7, -0.5)",test2,"(-0.7, 0.5)",test2,0,0,0,0,0,10,10,2,,,,,,91.24031220003963,l,0.8536744001321495,correct,,40,D,2023-12-20_15h30.06.201,gca_discrimination,2022.2.4,144.01792743446387,
positions.xlsx,stimuli.xlsx,test.xlsx,stimuli/Social2.png,stimuli/Social1.png,stimuli/Nonsocial2.png,stimuli/Nonsocial1.png,stimuli/Test1.png,stimuli/Test2.png,"(0.7, 0.5)",test1,"(0.7, -0.5)",test2,0,0,0,0,0,11,11,11,,,,,,96.82336560008116,ä,0.4300619000568986,correct,,40,D,2023-12-20_15h30.06.201,gca_discrimination,2022.2.4,144.01792743446387,
positions.xlsx,stimuli.xlsx,test.xlsx,stimuli/Social2.png,stimuli/Social1.png,stimuli/Nonsocial2.png,stimuli/Nonsocial1.png,stimuli/Test1.png,stimuli/Test2.png,"(-0.7, 0.5)",test2,"(0.7, 0.5)",test1,0,0,0,0,0,12,12,3,,,,,,101.30932360002771,ä,0.4478434999473393,correct,,40,D,2023-12-20_15h30.06.201,gca_discrimination,2022.2.4,144.01792743446387,
positions.xlsx,stimuli.xlsx,test.xlsx,stimuli/Social2.png,stimuli/Social1.png,stimuli/Nonsocial2.png,stimuli/Nonsocial1.png,stimuli/Test1.png,stimuli/Test2.png,"(-0.7, 0.5)",test2,"(0.7, -0.5)",test1,0,0,0,0,0,13,13,12,,,,,,106.2813838000875,ä,0.5158035999629647,correct,,40,D,2023-12-20_15h30.06.201,gca_discrimination,2022.2.4,144.01792743446387,
positions.xlsx,stimuli.xlsx,test.xlsx,stimuli/Social2.png,stimuli/Social1.png,stimuli/Nonsocial2.png,stimuli/Nonsocial1.png,stimuli/Test1.png,stimuli/Test2.png,"(0.7, 0.5)",cs_plus_s,"(0.7, -0.5)",cs_plus_s,0,0,0,0,,,,,0,0,0,56,,117.24622040009126,l,0.5509573000017554,correct,109.77427969989367,40,D,2023-12-20_15h30.06.201,gca_discrimination,2022.2.4,144.01792743446387,
positions.xlsx,stimuli.xlsx,test.xlsx,stimuli/Social2.png,stimuli/Social1.png,stimuli/Nonsocial2.png,stimuli/Nonsocial1.png,stimuli/Test1.png,stimuli/Test2.png,"(-0.7, 0.5)",cs_minus_s,"(0.7, -0.5)",cs_plus_s,0,0,0,0,,,,,0,1,1,14,,120.6002245999407,ä,0.6848452002741396,correct,,40,D,2023-12-20_15h30.06.201,gca_discrimination,2022.2.4,144.01792743446387,
positions.xlsx,stimuli.xlsx,test.xlsx,stimuli/Social2.png,stimuli/Social1.png,stimuli/Nonsocial2.png,stimuli/Nonsocial1.png,stimuli/Test1.png,stimuli/Test2.png,"(-0.7, -0.5)",cs_plus_ns,"(-0.7, 0.5)",cs_plus_ns,0,0,0,0,,,,,0,2,2,75,,123.16959300008602,ä,0.45304930000565946,wrong,,40,D,2023-12-20_15h30.06.201,gca_discrimination,2022.2.4,144.01792743446387,
positions.xlsx,stimuli.xlsx,test.xlsx,stimuli/Social2.png,stimuli/Social1.png,stimuli/Nonsocial2.png,stimuli/Nonsocial1.png,stimuli/Test1.png,stimuli/Test2.png,"(-0.7, -0.5)",cs_minus_ns,"(0.7, -0.5)",cs_plus_ns,0,0,0,0,,,,,0,3,3,41,,125.52363469987176,ä,0.6574478000402451,correct,,40,D,2023-12-20_15h30.06.201,gca_discrimination,2022.2.4,144.01792743446387,
positions.xlsx,stimuli.xlsx,test.xlsx,stimuli/Social2.png,stimuli/Social1.png,stimuli/Nonsocial2.png,stimuli/Nonsocial1.png,stimuli/Test1.png,stimuli/Test2.png,"(0.7, 0.5)",cs_plus_s,"(-0.7, 0.5)",cs_minus_s,0,0,0,0,,,,,0,4,4,6,,128.46105240006,ä,0.9438907001167536,correct,,40,D,2023-12-20_15h30.06.201,gca_discrimination,2022.2.4,144.01792743446387,
positions.xlsx,stimuli.xlsx,test.xlsx,stimuli/Social2.png,stimuli/Social1.png,stimuli/Nonsocial2.png,stimuli/Nonsocial1.png,stimuli/Test1.png,stimuli/Test2.png,"(0.7, 0.5)",cs_minus_s,"(-0.7, 0.5)",cs_minus_s,0,0,0,0,,,,,0,5,5,66,,131.94009570009075,l,0.4975285001564771,correct,,40,D,2023-12-20_15h30.06.201,gca_discrimination,2022.2.4,144.01792743446387,
positions.xlsx,stimuli.xlsx,test.xlsx,stimuli/Social2.png,stimuli/Social1.png,stimuli/Nonsocial2.png,stimuli/Nonsocial1.png,stimuli/Test1.png,stimuli/Test2.png,"(0.7, -0.5)",cs_minus_ns,"(-0.7, -0.5)",cs_minus_ns,0,0,0,0,,,,,0,6,6,94,,135.17604480008595,l,0.7827680001500994,correct,,40,D,2023-12-20_15h30.06.201,gca_discrimination,2022.2.4,144.01792743446387,
positions.xlsx,stimuli.xlsx,test.xlsx,stimuli/Social2.png,stimuli/Social1.png,stimuli/Nonsocial2.png,stimuli/Nonsocial1.png,stimuli/Test1.png,stimuli/Test2.png,"(-0.7, 0.5)",cs_plus_s,"(0.7, 0.5)",cs_plus_s,0,0,0,0,,,,,0,7,7,49,,138.38428299990483,l,0.6212687001097947,correct,,40,D,2023-12-20_15h30.06.201,gca_discrimination,2022.2.4,144.01792743446387,
positions.xlsx,stimuli.xlsx,test.xlsx,stimuli/Social2.png,stimuli/Social1.png,stimuli/Nonsocial2.png,stimuli/Nonsocial1.png,stimuli/Test1.png,stimuli/Test2.png,"(-0.7, -0.5)",cs_minus_ns,"(0.7, 0.5)",cs_plus_ns,0,0,0,0,,,,,0,8,8,40,,141.71052010008134,ä,0.49482550006359816,correct,,40,D,2023-12-20_15h30.06.201,gca_discrimination,2022.2.4,144.01792743446387,
positions.xlsx,stimuli.xlsx,test.xlsx,stimuli/Social2.png,stimuli/Social1.png,stimuli/Nonsocial2.png,stimuli/Nonsocial1.png,stimuli/Test1.png,stimuli/Test2.png,"(-0.7, 0.5)",cs_plus_ns,"(0.7, -0.5)",cs_minus_ns,0,0,0,0,,,,,0,9,9,26,,144.3562779999338,l,0.4570280001498759,wrong,,40,D,2023-12-20_15h30.06.201,gca_discrimination,2022.2.4,144.01792743446387,
positions.xlsx,stimuli.xlsx,test.xlsx,stimuli/Social2.png,stimuli/Social1.png,stimuli/Nonsocial2.png,stimuli/Nonsocial1.png,stimuli/Test1.png,stimuli/Test2.png,"(-0.7, -0.5)",cs_plus_ns,"(-0.7, 0.5)",cs_minus_ns,0,0,0,0,,,,,0,10,10,27,,147.12701479997486,ä,0.9506343000102788,correct,,40,D,2023-12-20_15h30.06.201,gca_discrimination,2022.2.4,144.01792743446387,
positions.xlsx,stimuli.xlsx,test.xlsx,stimuli/Social2.png,stimuli/Social1.png,stimuli/Nonsocial2.png,stimuli/Nonsocial1.png,stimuli/Test1.png,stimuli/Test2.png,"(-0.7, 0.5)",cs_minus_ns,"(-0.7, -0.5)",cs_plus_ns,0,0,0,0,,,,,0,11,11,36,,149.96715570008382,ä,0.6780676001217216,correct,,40,D,2023-12-20_15h30.06.201,gca_discrimination,2022.2.4,144.01792743446387,
positions.xlsx,stimuli.xlsx,test.xlsx,stimuli/Social2.png,stimuli/Social1.png,stimuli/Nonsocial2.png,stimuli/Nonsocial1.png,stimuli/Test1.png,stimuli/Test2.png,"(-0.7, 0.5)",cs_plus_s,"(0.7, -0.5)",cs_plus_s,0,0,0,0,,,,,0,12,12,50,,152.90455910004675,l,0.5007277000695467,correct,,40,D,2023-12-20_15h30.06.201,gca_discrimination,2022.2.4,144.01792743446387,
positions.xlsx,stimuli.xlsx,test.xlsx,stimuli/Social2.png,stimuli/Social1.png,stimuli/Nonsocial2.png,stimuli/Nonsocial1.png,stimuli/Test1.png,stimuli/Test2.png,"(-0.7, 0.5)",cs_minus_s,"(-0.7, -0.5)",cs_minus_s,0,0,0,0,,,,,0,13,13,60,,155.6474985999521,ä,0.7415352002717555,wrong,,40,D,2023-12-20_15h30.06.201,gca_discrimination,2022.2.4,144.01792743446387,
positions.xlsx,stimuli.xlsx,test.xlsx,stimuli/Social2.png,stimuli/Social1.png,stimuli/Nonsocial2.png,stimuli/Nonsocial1.png,stimuli/Test1.png,stimuli/Test2.png,"(-0.7, 0.5)",cs_plus_s,"(-0.7, -0.5)",cs_plus_s,0,0,0,0,,,,,0,14,14,48,,158.42518089991063,ä,0.5246841001790017,wrong,,40,D,2023-12-20_15h30.06.201,gca_discrimination,2022.2.4,144.01792743446387,
positions.xlsx,stimuli.xlsx,test.xlsx,stimuli/Social2.png,stimuli/Social1.png,stimuli/Nonsocial2.png,stimuli/Nonsocial1.png,stimuli/Test1.png,stimuli/Test2.png,"(0.7, -0.5)",cs_minus_s,"(-0.7, -0.5)",cs_plus_s,0,0,0,0,,,,,0,15,15,22,,160.84175270004198,ä,0.48347960016690195,correct,,40,D,2023-12-20_15h30.06.201,gca_discrimination,2022.2.4,144.01792743446387,
positions.xlsx,stimuli.xlsx,test.xlsx,stimuli/Social2.png,stimuli/Social1.png,stimuli/Nonsocial2.png,stimuli/Nonsocial1.png,stimuli/Test1.png,stimuli/Test2.png,"(-0.7, -0.5)",cs_plus_s,"(-0.7, 0.5)",cs_minus_s,0,0,0,0,,,,,0,16,16,3,,163.93883990007453,ä,0.48281160020269454,correct,,40,D,2023-12-20_15h30.06.201,gca_discrimination,2022.2.4,144.01792743446387,
positions.xlsx,stimuli.xlsx,test.xlsx,stimuli/Social2.png,stimuli/Social1.png,stimuli/Nonsocial2.png,stimuli/Nonsocial1.png,stimuli/Test1.png,stimuli/Test2.png,"(0.7, 0.5)",cs_plus_ns,"(0.7, -0.5)",cs_minus_ns,0,0,0,0,,,,,0,17,17,32,,166.2721082000062,ä,0.7409268000628799,correct,,40,D,2023-12-20_15h30.06.201,gca_discrimination,2022.2.4,144.01792743446387,
positions.xlsx,stimuli.xlsx,test.xlsx,stimuli/Social2.png,stimuli/Social1.png,stimuli/Nonsocial2.png,stimuli/Nonsocial1.png,stimuli/Test1.png,stimuli/Test2.png,"(-0.7, 0.5)",cs_minus_s,"(0.7, 0.5)",cs_plus_s,0,0,0,0,,,,,0,18,18,13,,169.02893429994583,l,0.544076600112021,wrong,,40,D,2023-12-20_15h30.06.201,gca_discrimination,2022.2.4,144.01792743446387,
positions.xlsx,stimuli.xlsx,test.xlsx,stimuli/Social2.png,stimuli/Social1.png,stimuli/Nonsocial2.png,stimuli/Nonsocial1.png,stimuli/Test1.png,stimuli/Test2.png,"(0.7, -0.5)",cs_minus_ns,"(-0.7, 0.5)",cs_minus_ns,0,0,0,0,,,,,0,19,19,93,,172.21632150001824,l,1.060926100006327,correct,,40,D,2023-12-20_15h30.06.201,gca_discrimination,2022.2.4,144.01792743446387,
positions.xlsx,stimuli.xlsx,test.xlsx,stimuli/Social2.png,stimuli/Social1.png,stimuli/Nonsocial2.png,stimuli/Nonsocial1.png,stimuli/Test1.png,stimuli/Test2.png,"(0.7, -0.5)",cs_plus_s,"(0.7, 0.5)",cs_plus_s,0,0,0,0,,,,,0,20,20,59,,175.95226259995252,l,0.7896381001919508,correct,,40,D,2023-12-20_15h30.06.201,gca_discrimination,2022.2.4,144.01792743446387,
positions.xlsx,stimuli.xlsx,test.xlsx,stimuli/Social2.png,stimuli/Social1.png,stimuli/Nonsocial2.png,stimuli/Nonsocial1.png,stimuli/Test1.png,stimuli/Test2.png,"(-0.7, -0.5)",cs_plus_ns,"(0.7, 0.5)",cs_plus_ns,0,0,0,0,,,,,0,21,21,76,,178.71606089989655,l,0.9449766001198441,correct,,40,D,2023-12-20_15h30.06.201,gca_discrimination,2022.2.4,144.01792743446387,
positions.xlsx,stimuli.xlsx,test.xlsx,stimuli/Social2.png,stimuli/Social1.png,stimuli/Nonsocial2.png,stimuli/Nonsocial1.png,stimuli/Test1.png,stimuli/Test2.png,"(0.7, -0.5)",cs_minus_s,"(-0.7, -0.5)",cs_minus_s,0,0,0,0,,,,,0,22,22,70,,182.01453449996188,l,0.6784289001952857,correct,,40,D,2023-12-20_15h30.06.201,gca_discrimination,2022.2.4,144.01792743446387,
positions.xlsx,stimuli.xlsx,test.xlsx,stimuli/Social2.png,stimuli/Social1.png,stimuli/Nonsocial2.png,stimuli/Nonsocial1.png,stimuli/Test1.png,stimuli/Test2.png,"(0.7, 0.5)",cs_minus_ns,"(0.7, -0.5)",cs_minus_ns,0,0,0,0,,,,,0,23,23,92,,184.8894501000177,l,0.7963088001124561,correct,,40,D,2023-12-20_15h30.06.201,gca_discrimination,2022.2.4,144.01792743446387,
positions.xlsx,stimuli.xlsx,test.xlsx,stimuli/Social2.png,stimuli/Social1.png,stimuli/Nonsocial2.png,stimuli/Nonsocial1.png,stimuli/Test1.png,stimuli/Test2.png,"(-0.7, 0.5)",cs_plus_s,"(0.7, 0.5)",cs_minus_s,0,0,0,0,,,,,0,24,24,1,,187.8337654999923,ä,0.6284937001764774,correct,,40,D,2023-12-20_15h30.06.201,gca_discrimination,2022.2.4,144.01792743446387,
positions.xlsx,stimuli.xlsx,test.xlsx,stimuli/Social2.png,stimuli/Social1.png,stimuli/Nonsocial2.png,stimuli/Nonsocial1.png,stimuli/Test1.png,stimuli/Test2.png,"(0.7, -0.5)",cs_plus_ns,"(-0.7, -0.5)",cs_minus_ns,0,0,0,0,,,,,0,25,25,34,,190.6947635000106,l,0.19895859993994236,wrong,,40,D,2023-12-20_15h30.06.201,gca_discrimination,2022.2.4,144.01792743446387,
positions.xlsx,stimuli.xlsx,test.xlsx,stimuli/Social2.png,stimuli/Social1.png,stimuli/Nonsocial2.png,stimuli/Nonsocial1.png,stimuli/Test1.png,stimuli/Test2.png,"(-0.7, -0.5)",cs_minus_s,"(0.7, 0.5)",cs_minus_s,0,0,0,0,,,,,0,26,26,64,,193.4863495999016,l,0.464569800067693,correct,,40,D,2023-12-20_15h30.06.201,gca_discrimination,2022.2.4,144.01792743446387,
positions.xlsx,stimuli.xlsx,test.xlsx,stimuli/Social2.png,stimuli/Social1.png,stimuli/Nonsocial2.png,stimuli/Nonsocial1.png,stimuli/Test1.png,stimuli/Test2.png,"(-0.7, -0.5)",cs_minus_s,"(-0.7, 0.5)",cs_minus_s,0,0,0,0,,,,,0,27,27,63,,195.95151929999702,l,0.357760300161317,correct,,40,D,2023-12-20_15h30.06.201,gca_discrimination,2022.2.4,144.01792743446387,
positions.xlsx,stimuli.xlsx,test.xlsx,stimuli/Social2.png,stimuli/Social1.png,stimuli/Nonsocial2.png,stimuli/Nonsocial1.png,stimuli/Test1.png,stimuli/Test2.png,"(-0.7, 0.5)",cs_minus_ns,"(0.7, 0.5)",cs_plus_ns,0,0,0,0,,,,,0,28,28,37,,198.94442140008323,ä,0.7973076002672315,correct,,40,D,2023-12-20_15h30.06.201,gca_discrimination,2022.2.4,144.01792743446387,
positions.xlsx,stimuli.xlsx,test.xlsx,stimuli/Social2.png,stimuli/Social1.png,stimuli/Nonsocial2.png,stimuli/Nonsocial1.png,stimuli/Test1.png,stimuli/Test2.png,"(0.7, 0.5)",cs_plus_ns,"(-0.7, -0.5)",cs_plus_ns,0,0,0,0,,,,,0,29,29,79,,202.09712520008907,l,0.8291251002810895,correct,,40,D,2023-12-20_15h30.06.201,gca_discrimination,2022.2.4,144.01792743446387,
positions.xlsx,stimuli.xlsx,test.xlsx,stimuli/Social2.png,stimuli/Social1.png,stimuli/Nonsocial2.png,stimuli/Nonsocial1.png,stimuli/Test1.png,stimuli/Test2.png,"(0.7, 0.5)",cs_minus_s,"(0.7, -0.5)",cs_minus_s,0,0,0,0,,,,,0,30,30,68,,205.6108790000435,l,0.4424717000219971,correct,,40,D,2023-12-20_15h30.06.201,gca_discrimination,2022.2.4,144.01792743446387,
positions.xlsx,stimuli.xlsx,test.xlsx,stimuli/Social2.png,stimuli/Social1.png,stimuli/Nonsocial2.png,stimuli/Nonsocial1.png,stimuli/Test1.png,stimuli/Test2.png,"(0.7, -0.5)",cs_plus_s,"(-0.7, 0.5)",cs_plus_s,0,0,0,0,,,,,0,31,31,57,,208.0968661000952,l,0.5084073999896646,correct,,40,D,2023-12-20_15h30.06.201,gca_discrimination,2022.2.4,144.01792743446387,
positions.xlsx,stimuli.xlsx,test.xlsx,stimuli/Social2.png,stimuli/Social1.png,stimuli/Nonsocial2.png,stimuli/Nonsocial1.png,stimuli/Test1.png,stimuli/Test2.png,"(0.7, -0.5)",cs_minus_s,"(-0.7, 0.5)",cs_plus_s,0,0,0,0,,,,,0,32,32,21,,210.95092689990997,ä,0.35820970009081066,correct,,40,D,2023-12-20_15h30.06.201,gca_discrimination,2022.2.4,144.01792743446387,
positions.xlsx,stimuli.xlsx,test.xlsx,stimuli/Social2.png,stimuli/Social1.png,stimuli/Nonsocial2.png,stimuli/Nonsocial1.png,stimuli/Test1.png,stimuli/Test2.png,"(0.7, -0.5)",cs_minus_ns,"(-0.7, -0.5)",cs_plus_ns,0,0,0,0,,,,,0,33,33,46,,213.80498620006256,ä,1.0004188001621515,correct,,40,D,2023-12-20_15h30.06.201,gca_discrimination,2022.2.4,144.01792743446387,
positions.xlsx,stimuli.xlsx,test.xlsx,stimuli/Social2.png,stimuli/Social1.png,stimuli/Nonsocial2.png,stimuli/Nonsocial1.png,stimuli/Test1.png,stimuli/Test2.png,"(-0.7, 0.5)",cs_minus_s,"(0.7, -0.5)",cs_minus_s,0,0,0,0,,,,,0,34,34,62,,216.7076324999798,l,0.5459740001242608,correct,,40,D,2023-12-20_15h30.06.201,gca_discrimination,2022.2.4,144.01792743446387,
positions.xlsx,stimuli.xlsx,test.xlsx,stimuli/Social2.png,stimuli/Social1.png,stimuli/Nonsocial2.png,stimuli/Nonsocial1.png,stimuli/Test1.png,stimuli/Test2.png,"(0.7, 0.5)",cs_minus_s,"(-0.7, -0.5)",cs_minus_s,0,0,0,0,,,,,0,35,35,67,,219.95056940009817,l,0.38254870008677244,correct,,40,D,2023-12-20_15h30.06.201,gca_discrimination,2022.2.4,144.01792743446387,
positions.xlsx,stimuli.xlsx,test.xlsx,stimuli/Social2.png,stimuli/Social1.png,stimuli/Nonsocial2.png,stimuli/Nonsocial1.png,stimuli/Test1.png,stimuli/Test2.png,"(0.7, -0.5)",cs_minus_ns,"(0.7, 0.5)",cs_minus_ns,0,0,0,0,,,,,0,36,36,95,,222.24215659988113,l,0.346895300084725,correct,,40,D,2023-12-20_15h30.06.201,gca_discrimination,2022.2.4,144.01792743446387,
positions.xlsx,stimuli.xlsx,test.xlsx,stimuli/Social2.png,stimuli/Social1.png,stimuli/Nonsocial2.png,stimuli/Nonsocial1.png,stimuli/Test1.png,stimuli/Test2.png,"(0.7, 0.5)",cs_plus_ns,"(0.7, -0.5)",cs_plus_ns,0,0,0,0,,,,,0,37,37,80,,225.31840689992532,l,0.7913027000613511,correct,,40,D,2023-12-20_15h30.06.201,gca_discrimination,2022.2.4,144.01792743446387,
positions.xlsx,stimuli.xlsx,test.xlsx,stimuli/Social2.png,stimuli/Social1.png,stimuli/Nonsocial2.png,stimuli/Nonsocial1.png,stimuli/Test1.png,stimuli/Test2.png,"(-0.7, 0.5)",cs_plus_ns,"(0.7, 0.5)",cs_plus_ns,0,0,0,0,,,,,0,38,38,73,,228.20720389997587,l,0.566142600029707,correct,,40,D,2023-12-20_15h30.06.201,gca_discrimination,2022.2.4,144.01792743446387,
positions.xlsx,stimuli.xlsx,test.xlsx,stimuli/Social2.png,stimuli/Social1.png,stimuli/Nonsocial2.png,stimuli/Nonsocial1.png,stimuli/Test1.png,stimuli/Test2.png,"(-0.7, 0.5)",cs_plus_s,"(-0.7, -0.5)",cs_minus_s,0,0,0,0,,,,,0,39,39,0,,230.66545070009306,ä,1.76424270006828,correct,,40,D,2023-12-20_15h30.06.201,gca_discrimination,2022.2.4,144.01792743446387,
positions.xlsx,stimuli.xlsx,test.xlsx,stimuli/Social2.png,stimuli/Social1.png,stimuli/Nonsocial2.png,stimuli/Nonsocial1.png,stimuli/Test1.png,stimuli/Test2.png,"(0.7, 0.5)",cs_plus_ns,"(-0.7, 0.5)",cs_plus_ns,0,0,0,0,,,,,0,40,40,78,,234.4708646000363,l,0.2225043000653386,correct,,40,D,2023-12-20_15h30.06.201,gca_discrimination,2022.2.4,144.01792743446387,
positions.xlsx,stimuli.xlsx,test.xlsx,stimuli/Social2.png,stimuli/Social1.png,stimuli/Nonsocial2.png,stimuli/Nonsocial1.png,stimuli/Test1.png,stimuli/Test2.png,"(0.7, -0.5)",cs_plus_s,"(-0.7, 0.5)",cs_minus_s,0,0,0,0,,,,,0,41,41,9,,237.27626649988815,ä,0.5293181999586523,correct,,40,D,2023-12-20_15h30.06.201,gca_discrimination,2022.2.4,144.01792743446387,
positions.xlsx,stimuli.xlsx,test.xlsx,stimuli/Social2.png,stimuli/Social1.png,stimuli/Nonsocial2.png,stimuli/Nonsocial1.png,stimuli/Test1.png,stimuli/Test2.png,"(-0.7, -0.5)",cs_minus_ns,"(-0.7, 0.5)",cs_minus_ns,0,0,0,0,,,,,0,42,42,87,,239.65814059996046,l,0.2358735001180321,correct,,40,D,2023-12-20_15h30.06.201,gca_discrimination,2022.2.4,144.01792743446387,
positions.xlsx,stimuli.xlsx,test.xlsx,stimuli/Social2.png,stimuli/Social1.png,stimuli/Nonsocial2.png,stimuli/Nonsocial1.png,stimuli/Test1.png,stimuli/Test2.png,"(-0.7, -0.5)",cs_plus_ns,"(0.7, -0.5)",cs_plus_ns,0,0,0,0,,,,,0,43,43,77,,242.32470720005222,ä,0.0322655001655221,wrong,,40,D,2023-12-20_15h30.06.201,gca_discrimination,2022.2.4,144.01792743446387,
positions.xlsx,stimuli.xlsx,test.xlsx,stimuli/Social2.png,stimuli/Social1.png,stimuli/Nonsocial2.png,stimuli/Nonsocial1.png,stimuli/Test1.png,stimuli/Test2.png,"(0.7, 0.5)",cs_minus_s,"(-0.7, 0.5)",cs_plus_s,0,0,0,0,,,,,0,44,44,18,,245.0676734999288,ä,0.3856490000616759,correct,,40,D,2023-12-20_15h30.06.201,gca_discrimination,2022.2.4,144.01792743446387,
positions.xlsx,stimuli.xlsx,test.xlsx,stimuli/Social2.png,stimuli/Social1.png,stimuli/Nonsocial2.png,stimuli/Nonsocial1.png,stimuli/Test1.png,stimuli/Test2.png,"(-0.7, -0.5)",cs_plus_ns,"(0.7, 0.5)",cs_minus_ns,0,0,0,0,,,,,0,45,45,28,,248.13003790006042,l,0.4915148001164198,wrong,,40,D,2023-12-20_15h30.06.201,gca_discrimination,2022.2.4,144.01792743446387,
positions.xlsx,stimuli.xlsx,test.xlsx,stimuli/Social2.png,stimuli/Social1.png,stimuli/Nonsocial2.png,stimuli/Nonsocial1.png,stimuli/Test1.png,stimuli/Test2.png,"(0.7, 0.5)",cs_minus_ns,"(0.7, -0.5)",cs_plus_ns,0,0,0,0,,,,,0,46,46,44,,250.55352469999343,l,0.4836816000752151,wrong,,40,D,2023-12-20_15h30.06.201,gca_discrimination,2022.2.4,144.01792743446387,
positions.xlsx,stimuli.xlsx,test.xlsx,stimuli/Social2.png,stimuli/Social1.png,stimuli/Nonsocial2.png,stimuli/Nonsocial1.png,stimuli/Test1.png,stimuli/Test2.png,"(-0.7, -0.5)",cs_minus_s,"(0.7, -0.5)",cs_minus_s,0,0,0,0,,,,,0,47,47,65,,253.03263480006717,l,0.48507510032504797,correct,,40,D,2023-12-20_15h30.06.201,gca_discrimination,2022.2.4,144.01792743446387,
positions.xlsx,stimuli.xlsx,test.xlsx,stimuli/Social2.png,stimuli/Social1.png,stimuli/Nonsocial2.png,stimuli/Nonsocial1.png,stimuli/Test1.png,stimuli/Test2.png,"(-0.7, 0.5)",cs_minus_s,"(0.7, 0.5)",cs_minus_s,0,0,0,0,,,,,0,48,48,61,,255.84503409988247,l,0.37601060001179576,correct,,40,D,2023-12-20_15h30.06.201,gca_discrimination,2022.2.4,144.01792743446387,
positions.xlsx,stimuli.xlsx,test.xlsx,stimuli/Social2.png,stimuli/Social1.png,stimuli/Nonsocial2.png,stimuli/Nonsocial1.png,stimuli/Test1.png,stimuli/Test2.png,"(0.7, -0.5)",cs_plus_ns,"(-0.7, 0.5)",cs_minus_ns,0,0,0,0,,,,,0,49,49,33,,258.12963099987246,ä,0.8439152000937611,correct,,40,D,2023-12-20_15h30.06.201,gca_discrimination,2022.2.4,144.01792743446387,
positions.xlsx,stimuli.xlsx,test.xlsx,stimuli/Social2.png,stimuli/Social1.png,stimuli/Nonsocial2.png,stimuli/Nonsocial1.png,stimuli/Test1.png,stimuli/Test2.png,"(0.7, 0.5)",cs_minus_s,"(0.7, -0.5)",cs_plus_s,0,0,0,0,,,,,0,50,50,20,,261.6503431000747,ä,0.6751290000975132,correct,,40,D,2023-12-20_15h30.06.201,gca_discrimination,2022.2.4,144.01792743446387,
positions.xlsx,stimuli.xlsx,test.xlsx,stimuli/Social2.png,stimuli/Social1.png,stimuli/Nonsocial2.png,stimuli/Nonsocial1.png,stimuli/Test1.png,stimuli/Test2.png,"(-0.7, 0.5)",cs_plus_ns,"(0.7, 0.5)",cs_minus_ns,0,0,0,0,,,,,0,51,51,25,,264.9279738999903,ä,1.2621094002388418,correct,,40,D,2023-12-20_15h30.06.201,gca_discrimination,2022.2.4,144.01792743446387,
positions.xlsx,stimuli.xlsx,test.xlsx,stimuli/Social2.png,stimuli/Social1.png,stimuli/Nonsocial2.png,stimuli/Nonsocial1.png,stimuli/Test1.png,stimuli/Test2.png,"(0.7, 0.5)",cs_plus_s,"(-0.7, 0.5)",cs_plus_s,0,0,0,0,,,,,0,52,52,54,,268.33759599993937,l,0.9408077001571655,correct,,40,D,2023-12-20_15h30.06.201,gca_discrimination,2022.2.4,144.01792743446387,
positions.xlsx,stimuli.xlsx,test.xlsx,stimuli/Social2.png,stimuli/Social1.png,stimuli/Nonsocial2.png,stimuli/Nonsocial1.png,stimuli/Test1.png,stimuli/Test2.png,"(-0.7, -0.5)",cs_minus_s,"(-0.7, 0.5)",cs_plus_s,0,0,0,0,,,,,0,53,53,15,,271.3166026000399,ä,0.36917470023036003,correct,,40,D,2023-12-20_15h30.06.201,gca_discrimination,2022.2.4,144.01792743446387,
positions.xlsx,stimuli.xlsx,test.xlsx,stimuli/Social2.png,stimuli/Social1.png,stimuli/Nonsocial2.png,stimuli/Nonsocial1.png,stimuli/Test1.png,stimuli/Test2.png,"(-0.7, -0.5)",cs_minus_ns,"(-0.7, 0.5)",cs_plus_ns,0,0,0,0,,,,,0,54,54,39,,274.4415110000409,ä,0.8526332001201808,correct,,40,D,2023-12-20_15h30.06.201,gca_discrimination,2022.2.4,144.01792743446387,
positions.xlsx,stimuli.xlsx,test.xlsx,stimuli/Social2.png,stimuli/Social1.png,stimuli/Nonsocial2.png,stimuli/Nonsocial1.png,stimuli/Test1.png,stimuli/Test2.png,"(-0.7, -0.5)",cs_plus_s,"(0.7, 0.5)",cs_minus_s,0,0,0,0,,,,,0,55,55,4,,277.3372370998841,ä,0.5096720000728965,correct,,40,D,2023-12-20_15h30.06.201,gca_discrimination,2022.2.4,144.01792743446387,
positions.xlsx,stimuli.xlsx,test.xlsx,stimuli/Social2.png,stimuli/Social1.png,stimuli/Nonsocial2.png,stimuli/Nonsocial1.png,stimuli/Test1.png,stimuli/Test2.png,"(0.7, 0.5)",cs_plus_s,"(-0.7, -0.5)",cs_minus_s,0,0,0,0,,,,,0,56,56,7,,279.8163304000627,ä,0.45453310012817383,correct,,40,D,2023-12-20_15h30.06.201,gca_discrimination,2022.2.4,144.01792743446387,
positions.xlsx,stimuli.xlsx,test.xlsx,stimuli/Social2.png,stimuli/Social1.png,stimuli/Nonsocial2.png,stimuli/Nonsocial1.png,stimuli/Test1.png,stimuli/Test2.png,"(0.7, -0.5)",cs_minus_ns,"(0.7, 0.5)",cs_plus_ns,0,0,0,0,,,,,0,57,57,47,,282.6703786000144,ä,0.7829581000842154,correct,,40,D,2023-12-20_15h30.06.201,gca_discrimination,2022.2.4,144.01792743446387,
positions.xlsx,stimuli.xlsx,test.xlsx,stimuli/Social2.png,stimuli/Social1.png,stimuli/Nonsocial2.png,stimuli/Nonsocial1.png,stimuli/Test1.png,stimuli/Test2.png,"(-0.7, -0.5)",cs_minus_s,"(0.7, -0.5)",cs_plus_s,0,0,0,0,,,,,0,58,58,17,,285.91330199991353,ä,0.4839471001178026,correct,,40,D,2023-12-20_15h30.06.201,gca_discrimination,2022.2.4,144.01792743446387,
positions.xlsx,stimuli.xlsx,test.xlsx,stimuli/Social2.png,stimuli/Social1.png,stimuli/Nonsocial2.png,stimuli/Nonsocial1.png,stimuli/Test1.png,stimuli/Test2.png,"(-0.7, -0.5)",cs_plus_ns,"(0.7, -0.5)",cs_minus_ns,0,0,0,0,,,,,0,59,59,29,,289.21177789987996,ä,0.3709283999633044,correct,,40,D,2023-12-20_15h30.06.201,gca_discrimination,2022.2.4,144.01792743446387,
positions.xlsx,stimuli.xlsx,test.xlsx,stimuli/Social2.png,stimuli/Social1.png,stimuli/Nonsocial2.png,stimuli/Nonsocial1.png,stimuli/Test1.png,stimuli/Test2.png,"(-0.7, 0.5)",cs_plus_s,"(0.7, -0.5)",cs_minus_s,0,0,0,0,,,,,0,60,60,2,,291.8991658000741,ä,0.3299734001047909,correct,,40,D,2023-12-20_15h30.06.201,gca_discrimination,2022.2.4,144.01792743446387,
positions.xlsx,stimuli.xlsx,test.xlsx,stimuli/Social2.png,stimuli/Social1.png,stimuli/Nonsocial2.png,stimuli/Nonsocial1.png,stimuli/Test1.png,stimuli/Test2.png,"(0.7, 0.5)",cs_minus_ns,"(-0.7, 0.5)",cs_plus_ns,0,0,0,0,,,,,0,61,61,42,,294.18381349998526,ä,0.6852665999904275,correct,,40,D,2023-12-20_15h30.06.201,gca_discrimination,2022.2.4,144.01792743446387,
positions.xlsx,stimuli.xlsx,test.xlsx,stimuli/Social2.png,stimuli/Social1.png,stimuli/Nonsocial2.png,stimuli/Nonsocial1.png,stimuli/Test1.png,stimuli/Test2.png,"(0.7, 0.5)",cs_minus_ns,"(-0.7, -0.5)",cs_plus_ns,0,0,0,0,,,,,0,62,62,43,,297.162875500042,ä,0.5714501000475138,correct,,40,D,2023-12-20_15h30.06.201,gca_discrimination,2022.2.4,144.01792743446387,
positions.xlsx,stimuli.xlsx,test.xlsx,stimuli/Social2.png,stimuli/Social1.png,stimuli/Nonsocial2.png,stimuli/Nonsocial1.png,stimuli/Test1.png,stimuli/Test2.png,"(-0.7, 0.5)",cs_minus_ns,"(0.7, 0.5)",cs_minus_ns,0,0,0,0,,,,,0,63,63,85,,299.9336204000283,l,0.9278073001187295,correct,,40,D,2023-12-20_15h30.06.201,gca_discrimination,2022.2.4,144.01792743446387,
positions.xlsx,stimuli.xlsx,test.xlsx,stimuli/Social2.png,stimuli/Social1.png,stimuli/Nonsocial2.png,stimuli/Nonsocial1.png,stimuli/Test1.png,stimuli/Test2.png,"(-0.7, 0.5)",cs_minus_ns,"(0.7, -0.5)",cs_minus_ns,0,0,0,0,,,,,0,64,64,86,,302.8709853000473,l,0.5746743001509458,correct,,40,D,2023-12-20_15h30.06.201,gca_discrimination,2022.2.4,144.01792743446387,
positions.xlsx,stimuli.xlsx,test.xlsx,stimuli/Social2.png,stimuli/Social1.png,stimuli/Nonsocial2.png,stimuli/Nonsocial1.png,stimuli/Test1.png,stimuli/Test2.png,"(-0.7, -0.5)",cs_plus_s,"(0.7, 0.5)",cs_plus_s,0,0,0,0,,,,,0,65,65,52,,305.5861736999359,l,0.5552642003167421,correct,,40,D,2023-12-20_15h30.06.201,gca_discrimination,2022.2.4,144.01792743446387,
positions.xlsx,stimuli.xlsx,test.xlsx,stimuli/Social2.png,stimuli/Social1.png,stimuli/Nonsocial2.png,stimuli/Nonsocial1.png,stimuli/Test1.png,stimuli/Test2.png,"(0.7, -0.5)",cs_minus_s,"(-0.7, 0.5)",cs_minus_s,0,0,0,0,,,,,0,66,66,69,,308.10685219988227,ä,0.5069308001548052,wrong,,40,D,2023-12-20_15h30.06.201,gca_discrimination,2022.2.4,144.01792743446387,
positions.xlsx,stimuli.xlsx,test.xlsx,stimuli/Social2.png,stimuli/Social1.png,stimuli/Nonsocial2.png,stimuli/Nonsocial1.png,stimuli/Test1.png,stimuli/Test2.png,"(-0.7, -0.5)",cs_minus_ns,"(0.7, -0.5)",cs_minus_ns,0,0,0,0,,,,,0,67,67,89,,311.4053692999296,l,0.5682089999318123,correct,,40,D,2023-12-20_15h30.06.201,gca_discrimination,2022.2.4,144.01792743446387,
positions.xlsx,stimuli.xlsx,test.xlsx,stimuli/Social2.png,stimuli/Social1.png,stimuli/Nonsocial2.png,stimuli/Nonsocial1.png,stimuli/Test1.png,stimuli/Test2.png,"(0.7, -0.5)",cs_plus_ns,"(-0.7, 0.5)",cs_plus_ns,0,0,0,0,,,,,0,68,68,81,,314.6969103999436,l,0.5809278001543134,correct,,40,D,2023-12-20_15h30.06.201,gca_discrimination,2022.2.4,144.01792743446387,
positions.xlsx,stimuli.xlsx,test.xlsx,stimuli/Social2.png,stimuli/Social1.png,stimuli/Nonsocial2.png,stimuli/Nonsocial1.png,stimuli/Test1.png,stimuli/Test2.png,"(-0.7, -0.5)",cs_minus_ns,"(0.7, 0.5)",cs_minus_ns,0,0,0,0,,,,,0,69,69,88,,317.82178419991396,l,0.5676412000320852,correct,,40,D,2023-12-20_15h30.06.201,gca_discrimination,2022.2.4,144.01792743446387,
positions.xlsx,stimuli.xlsx,test.xlsx,stimuli/Social2.png,stimuli/Social1.png,stimuli/Nonsocial2.png,stimuli/Nonsocial1.png,stimuli/Test1.png,stimuli/Test2.png,"(0.7, 0.5)",cs_plus_ns,"(-0.7, -0.5)",cs_minus_ns,0,0,0,0,,,,,0,70,70,31,,321.0439579000231,ä,0.6743539001327008,correct,,40,D,2023-12-20_15h30.06.201,gca_discrimination,2022.2.4,144.01792743446387,
positions.xlsx,stimuli.xlsx,test.xlsx,stimuli/Social2.png,stimuli/Social1.png,stimuli/Nonsocial2.png,stimuli/Nonsocial1.png,stimuli/Test1.png,stimuli/Test2.png,"(0.7, -0.5)",cs_plus_s,"(0.7, 0.5)",cs_minus_s,0,0,0,0,,,,,0,71,71,11,,323.54378619999625,ä,0.5653697000816464,correct,,40,D,2023-12-20_15h30.06.201,gca_discrimination,2022.2.4,144.01792743446387,
positions.xlsx,stimuli.xlsx,test.xlsx,stimuli/Social2.png,stimuli/Social1.png,stimuli/Nonsocial2.png,stimuli/Nonsocial1.png,stimuli/Test1.png,stimuli/Test2.png,"(-0.7, 0.5)",cs_minus_ns,"(0.7, -0.5)",cs_plus_ns,0,0,0,0,,,,,0,72,72,38,,326.2172747000586,ä,0.6443418001290411,correct,,40,D,2023-12-20_15h30.06.201,gca_discrimination,2022.2.4,144.01792743446387,
positions.xlsx,stimuli.xlsx,test.xlsx,stimuli/Social2.png,stimuli/Social1.png,stimuli/Nonsocial2.png,stimuli/Nonsocial1.png,stimuli/Test1.png,stimuli/Test2.png,"(-0.7, 0.5)",cs_minus_ns,"(-0.7, -0.5)",cs_minus_ns,0,0,0,0,,,,,0,73,73,84,,329.13383769989014,l,0.6232315001543611,correct,,40,D,2023-12-20_15h30.06.201,gca_discrimination,2022.2.4,144.01792743446387,
positions.xlsx,stimuli.xlsx,test.xlsx,stimuli/Social2.png,stimuli/Social1.png,stimuli/Nonsocial2.png,stimuli/Nonsocial1.png,stimuli/Test1.png,stimuli/Test2.png,"(0.7, -0.5)",cs_minus_ns,"(-0.7, 0.5)",cs_plus_ns,0,0,0,0,,,,,0,74,74,45,,332.19622700009495,ä,0.6657743002288043,correct,,40,D,2023-12-20_15h30.06.201,gca_discrimination,2022.2.4,144.01792743446387,
positions.xlsx,stimuli.xlsx,test.xlsx,stimuli/Social2.png,stimuli/Social1.png,stimuli/Nonsocial2.png,stimuli/Nonsocial1.png,stimuli/Test1.png,stimuli/Test2.png,"(0.7, 0.5)",cs_minus_ns,"(-0.7, -0.5)",cs_minus_ns,0,0,0,0,,,,,0,75,75,91,,335.0155714000575,None,,no answer,,40,D,2023-12-20_15h30.06.201,gca_discrimination,2022.2.4,144.01792743446387,
positions.xlsx,stimuli.xlsx,test.xlsx,stimuli/Social2.png,stimuli/Social1.png,stimuli/Nonsocial2.png,stimuli/Nonsocial1.png,stimuli/Test1.png,stimuli/Test2.png,"(-0.7, 0.5)",cs_plus_ns,"(-0.7, -0.5)",cs_minus_ns,0,0,0,0,,,,,0,76,76,24,,339.3348346001003,ä,0.6318302000872791,correct,,40,D,2023-12-20_15h30.06.201,gca_discrimination,2022.2.4,144.01792743446387,
positions.xlsx,stimuli.xlsx,test.xlsx,stimuli/Social2.png,stimuli/Social1.png,stimuli/Nonsocial2.png,stimuli/Nonsocial1.png,stimuli/Test1.png,stimuli/Test2.png,"(-0.7, -0.5)",cs_minus_s,"(0.7, 0.5)",cs_plus_s,0,0,0,0,,,,,0,77,77,16,,342.4527632999234,l,0.48913700017146766,wrong,,40,D,2023-12-20_15h30.06.201,gca_discrimination,2022.2.4,144.01792743446387,
positions.xlsx,stimuli.xlsx,test.xlsx,stimuli/Social2.png,stimuli/Social1.png,stimuli/Nonsocial2.png,stimuli/Nonsocial1.png,stimuli/Test1.png,stimuli/Test2.png,"(-0.7, -0.5)",cs_plus_s,"(0.7, -0.5)",cs_plus_s,0,0,0,0,,,,,0,78,78,53,,345.15408360003494,l,0.3963232000824064,correct,,40,D,2023-12-20_15h30.06.201,gca_discrimination,2022.2.4,144.01792743446387,
positions.xlsx,stimuli.xlsx,test.xlsx,stimuli/Social2.png,stimuli/Social1.png,stimuli/Nonsocial2.png,stimuli/Nonsocial1.png,stimuli/Test1.png,stimuli/Test2.png,"(0.7, -0.5)",cs_plus_ns,"(0.7, 0.5)",cs_plus_ns,0,0,0,0,,,,,0,79,79,83,,348.25811529997736,l,0.5151981001254171,correct,,40,D,2023-12-20_15h30.06.201,gca_discrimination,2022.2.4,144.01792743446387,
positions.xlsx,stimuli.xlsx,test.xlsx,stimuli/Social2.png,stimuli/Social1.png,stimuli/Nonsocial2.png,stimuli/Nonsocial1.png,stimuli/Test1.png,stimuli/Test2.png,"(0.7, 0.5)",cs_minus_ns,"(-0.7, 0.5)",cs_minus_ns,0,0,0,0,,,,,0,80,80,90,,350.93161020008847,l,0.3220995001029223,correct,,40,D,2023-12-20_15h30.06.201,gca_discrimination,2022.2.4,144.01792743446387,
positions.xlsx,stimuli.xlsx,test.xlsx,stimuli/Social2.png,stimuli/Social1.png,stimuli/Nonsocial2.png,stimuli/Nonsocial1.png,stimuli/Test1.png,stimuli/Test2.png,"(0.7, 0.5)",cs_plus_ns,"(-0.7, 0.5)",cs_minus_ns,0,0,0,0,,,,,0,81,81,30,,353.98014179989696,ä,0.7215768001042306,correct,,40,D,2023-12-20_15h30.06.201,gca_discrimination,2022.2.4,144.01792743446387,
positions.xlsx,stimuli.xlsx,test.xlsx,stimuli/Social2.png,stimuli/Social1.png,stimuli/Nonsocial2.png,stimuli/Nonsocial1.png,stimuli/Test1.png,stimuli/Test2.png,"(-0.7, -0.5)",cs_plus_s,"(0.7, -0.5)",cs_minus_s,0,0,0,0,,,,,0,82,82,5,,357.514675399987,ä,0.5708145999815315,correct,,40,D,2023-12-20_15h30.06.201,gca_discrimination,2022.2.4,144.01792743446387,
positions.xlsx,stimuli.xlsx,test.xlsx,stimuli/Social2.png,stimuli/Social1.png,stimuli/Nonsocial2.png,stimuli/Nonsocial1.png,stimuli/Test1.png,stimuli/Test2.png,"(0.7, -0.5)",cs_plus_ns,"(-0.7, -0.5)",cs_plus_ns,0,0,0,0,,,,,0,83,83,82,,360.1257245999295,l,0.48064789990894496,correct,,40,D,2023-12-20_15h30.06.201,gca_discrimination,2022.2.4,144.01792743446387,
positions.xlsx,stimuli.xlsx,test.xlsx,stimuli/Social2.png,stimuli/Social1.png,stimuli/Nonsocial2.png,stimuli/Nonsocial1.png,stimuli/Test1.png,stimuli/Test2.png,"(0.7, 0.5)",cs_minus_s,"(-0.7, -0.5)",cs_plus_s,0,0,0,0,,,,,0,84,84,19,,363.05619079992175,ä,0.7583890000823885,correct,,40,D,2023-12-20_15h30.06.201,gca_discrimination,2022.2.4,144.01792743446387,
positions.xlsx,stimuli.xlsx,test.xlsx,stimuli/Social2.png,stimuli/Social1.png,stimuli/Nonsocial2.png,stimuli/Nonsocial1.png,stimuli/Test1.png,stimuli/Test2.png,"(0.7, -0.5)",cs_plus_s,"(-0.7, -0.5)",cs_minus_s,0,0,0,0,,,,,0,85,85,10,,365.7713250000961,ä,0.6978389001451433,correct,,40,D,2023-12-20_15h30.06.201,gca_discrimination,2022.2.4,144.01792743446387,
positions.xlsx,stimuli.xlsx,test.xlsx,stimuli/Social2.png,stimuli/Social1.png,stimuli/Nonsocial2.png,stimuli/Nonsocial1.png,stimuli/Test1.png,stimuli/Test2.png,"(-0.7, 0.5)",cs_minus_s,"(-0.7, -0.5)",cs_plus_s,0,0,0,0,,,,,0,86,86,12,,368.7503559999168,ä,0.5593375000171363,correct,,40,D,2023-12-20_15h30.06.201,gca_discrimination,2022.2.4,144.01792743446387,
positions.xlsx,stimuli.xlsx,test.xlsx,stimuli/Social2.png,stimuli/Social1.png,stimuli/Nonsocial2.png,stimuli/Nonsocial1.png,stimuli/Test1.png,stimuli/Test2.png,"(0.7, 0.5)",cs_plus_s,"(0.7, -0.5)",cs_minus_s,0,0,0,0,,,,,0,87,87,8,,371.7988712999504,ä,0.2472795001231134,correct,,40,D,2023-12-20_15h30.06.201,gca_discrimination,2022.2.4,144.01792743446387,
positions.xlsx,stimuli.xlsx,test.xlsx,stimuli/Social2.png,stimuli/Social1.png,stimuli/Nonsocial2.png,stimuli/Nonsocial1.png,stimuli/Test1.png,stimuli/Test2.png,"(0.7, 0.5)",cs_plus_s,"(-0.7, -0.5)",cs_plus_s,0,0,0,0,,,,,0,88,88,55,,374.06268099998124,ä,0.39048130018636584,wrong,,40,D,2023-12-20_15h30.06.201,gca_discrimination,2022.2.4,144.01792743446387,
positions.xlsx,stimuli.xlsx,test.xlsx,stimuli/Social2.png,stimuli/Social1.png,stimuli/Nonsocial2.png,stimuli/Nonsocial1.png,stimuli/Test1.png,stimuli/Test2.png,"(0.7, -0.5)",cs_plus_s,"(-0.7, -0.5)",cs_plus_s,0,0,0,0,,,,,0,89,89,58,,376.31257670000196,ä,0.12475840002298355,wrong,,40,D,2023-12-20_15h30.06.201,gca_discrimination,2022.2.4,144.01792743446387,
positions.xlsx,stimuli.xlsx,test.xlsx,stimuli/Social2.png,stimuli/Social1.png,stimuli/Nonsocial2.png,stimuli/Nonsocial1.png,stimuli/Test1.png,stimuli/Test2.png,"(0.7, -0.5)",cs_plus_ns,"(0.7, 0.5)",cs_minus_ns,0,0,0,0,,,,,0,90,90,35,,379.01389009994455,ä,0.19184290012344718,correct,,40,D,2023-12-20_15h30.06.201,gca_discrimination,2022.2.4,144.01792743446387,
positions.xlsx,stimuli.xlsx,test.xlsx,stimuli/Social2.png,stimuli/Social1.png,stimuli/Nonsocial2.png,stimuli/Nonsocial1.png,stimuli/Test1.png,stimuli/Test2.png,"(-0.7, 0.5)",cs_plus_ns,"(-0.7, -0.5)",cs_plus_ns,0,0,0,0,,,,,0,91,91,72,,381.68736009998247,l,0.5663660001009703,correct,,40,D,2023-12-20_15h30.06.201,gca_discrimination,2022.2.4,144.01792743446387,
positions.xlsx,stimuli.xlsx,test.xlsx,stimuli/Social2.png,stimuli/Social1.png,stimuli/Nonsocial2.png,stimuli/Nonsocial1.png,stimuli/Test1.png,stimuli/Test2.png,"(-0.7, 0.5)",cs_plus_ns,"(0.7, -0.5)",cs_plus_ns,0,0,0,0,,,,,0,92,92,74,,384.67337960004807,l,0.21239010011777282,correct,,40,D,2023-12-20_15h30.06.201,gca_discrimination,2022.2.4,144.01792743446387,
positions.xlsx,stimuli.xlsx,test.xlsx,stimuli/Social2.png,stimuli/Social1.png,stimuli/Nonsocial2.png,stimuli/Nonsocial1.png,stimuli/Test1.png,stimuli/Test2.png,"(-0.7, -0.5)",cs_plus_s,"(-0.7, 0.5)",cs_plus_s,0,0,0,0,,,,,0,93,93,51,,386.87467569997534,ä,0.5641326999757439,wrong,,40,D,2023-12-20_15h30.06.201,gca_discrimination,2022.2.4,144.01792743446387,
positions.xlsx,stimuli.xlsx,test.xlsx,stimuli/Social2.png,stimuli/Social1.png,stimuli/Nonsocial2.png,stimuli/Nonsocial1.png,stimuli/Test1.png,stimuli/Test2.png,"(0.7, -0.5)",cs_minus_s,"(0.7, 0.5)",cs_plus_s,0,0,0,0,,,,,0,94,94,23,,390.04118649987504,ä,0.7173643002752215,correct,,40,D,2023-12-20_15h30.06.201,gca_discrimination,2022.2.4,144.01792743446387,
positions.xlsx,stimuli.xlsx,test.xlsx,stimuli/Social2.png,stimuli/Social1.png,stimuli/Nonsocial2.png,stimuli/Nonsocial1.png,stimuli/Test1.png,stimuli/Test2.png,"(0.7, -0.5)",cs_minus_s,"(0.7, 0.5)",cs_minus_s,0,0,0,0,,,,,0,95,95,71,,393.2494337998796,l,0.5084257000125945,correct,,40,D,2023-12-20_15h30.06.201,gca_discrimination,2022.2.4,144.01792743446387,
