posFile,stimFile,testFile,cs_plus_s,cs_minus_s,cs_plus_ns,cs_minus_ns,test1,test2,position1,trialtype,position2,comptype,blocks.thisRepN,blocks.thisTrialN,blocks.thisN,blocks.thisIndex,learning_trials.thisRepN,learning_trials.thisTrialN,learning_trials.thisN,learning_trials.thisIndex,trials.thisRepN,trials.thisTrialN,trials.thisN,trials.thisIndex,textStart.started,spaceStart.started,spaceStart.keys,spaceStart.rt,textStartExp.started,textExpImages.started,ImageLearning1.started,ImageLearning2.started,textSpace.started,spaceStartExp.started,spaceStartExp.keys,spaceStartExp.rt,blankScreen.started,blankScreen.stopped,fixcross.started,firstImage.started,fixcrossImage1.started,fixcrossITI.started,secondImage.started,fixcrossImage2.started,key.started,key.keys,key.rt,correctness,feedbackText.started,fixcrossEnd.started,fixcrossEnd.stopped,fixcross.stopped,feedbackText.stopped,textStartTask.started,textTaskImages.started,ImageTask1.started,ImageTask2.started,ImageTask3.started,ImageTask4.started,textTaskSpace.started,spaceStartTask.started,spaceStartTask.keys,spaceStartTask.rt,participant,group,date,expName,psychopyVersion,frameRate,
,,,,,,,,,,,,,,,,,,,,,,,,,8.404232199987746,8.404232199987746,space,4.089979900018079,,,,,,,,,,,,,,,,,,,,,,,,,,,,,,,,,,,,12,A,2023-12-08_12h13.03.598,gca_discrimination,2022.2.4,143.89048209329934,
positions.xlsx,stimuli.xlsx,test.xlsx,stimuli/Social1.png,stimuli/Social2.png,stimuli/Nonsocial1.png,stimuli/Nonsocial2.png,stimuli/Test1.png,stimuli/Test2.png,"(-0.7, -0.5)",test2,"(0.7, 0.5)",test2,0,0,0,0,0,0,0,7,,,,,,,,,12.508277000000817,12.508277000000817,12.508277000000817,12.508277000000817,12.508277000000817,12.508277000000817,space,23.87564260000363,36.39617599999474,37.666998899992905,37.666998899992905,38.68080750000081,38.68080750000081,38.81276119999529,39.32664329999534,39.32664329999534,39.465544599996065,ä,1.0931937000132166,wrong,40.576575599989155,42.576482099990244,43.00010369998927,,,,,,,,,,,,,12,A,2023-12-08_12h13.03.598,gca_discrimination,2022.2.4,143.89048209329934,
positions.xlsx,stimuli.xlsx,test.xlsx,stimuli/Social1.png,stimuli/Social2.png,stimuli/Nonsocial1.png,stimuli/Nonsocial2.png,stimuli/Test1.png,stimuli/Test2.png,"(-0.7, 0.5)",test2,"(0.7, -0.5)",test1,0,0,0,0,0,1,1,12,,,,,,,,,,,,,,,,,,,43.00010369998927,44.00009359999967,44.00009359999967,44.15282049999223,44.65277869999409,44.65277869999409,44.805601000000024,ä,0.4564544000168098,correct,45.27085719999741,47.27073009999003,48.006838299988885,44.00009359999967,47.27073009999003,,,,,,,,,,,12,A,2023-12-08_12h13.03.598,gca_discrimination,2022.2.4,143.89048209329934,
positions.xlsx,stimuli.xlsx,test.xlsx,stimuli/Social1.png,stimuli/Social2.png,stimuli/Nonsocial1.png,stimuli/Nonsocial2.png,stimuli/Test1.png,stimuli/Test2.png,"(-0.7, -0.5)",test2,"(0.7, -0.5)",test2,0,0,0,0,0,2,2,9,,,,,,,,,,,,,,,,,,,48.006838299988885,49.006813699990744,49.006813699990744,49.1595660999883,49.65957740000158,49.65957740000158,49.81235159999051,ä,0.5940580000169575,wrong,50.416493299999274,52.41640619999089,53.3746977999981,49.006813699990744,52.41640619999089,,,,,,,,,,,12,A,2023-12-08_12h13.03.598,gca_discrimination,2022.2.4,143.89048209329934,
positions.xlsx,stimuli.xlsx,test.xlsx,stimuli/Social1.png,stimuli/Social2.png,stimuli/Nonsocial1.png,stimuli/Nonsocial2.png,stimuli/Test1.png,stimuli/Test2.png,"(0.7, 0.5)",test2,"(-0.7, 0.5)",test1,0,0,0,0,0,3,3,13,,,,,,,,,,,,,,,,,,,53.3746977999981,54.374702499990235,54.374702499990235,54.52740589999303,55.027413799994974,55.027413799994974,55.18018769999617,ä,0.6664877000148408,correct,55.853781599988,57.853659199987305,57.86755969999649,54.374702499990235,57.853659199987305,,,,,,,,,,,12,A,2023-12-08_12h13.03.598,gca_discrimination,2022.2.4,143.89048209329934,
positions.xlsx,stimuli.xlsx,test.xlsx,stimuli/Social1.png,stimuli/Social2.png,stimuli/Nonsocial1.png,stimuli/Nonsocial2.png,stimuli/Test1.png,stimuli/Test2.png,"(0.7, -0.5)",test2,"(-0.7, 0.5)",test1,0,0,0,0,0,4,4,4,,,,,,,,,,,,,,,,,,,57.86755969999649,58.86755169999378,58.86755169999378,59.02032729999337,59.52027049999742,59.52027049999742,59.67303479999828,ä,0.781469500012463,correct,60.46471719999681,62.46462669999164,63.25624329999846,58.86755169999378,62.46462669999164,,,,,,,,,,,12,A,2023-12-08_12h13.03.598,gca_discrimination,2022.2.4,143.89048209329934,
positions.xlsx,stimuli.xlsx,test.xlsx,stimuli/Social1.png,stimuli/Social2.png,stimuli/Nonsocial1.png,stimuli/Nonsocial2.png,stimuli/Test1.png,stimuli/Test2.png,"(-0.7, -0.5)",test2,"(-0.7, 0.5)",test2,0,0,0,0,0,5,5,2,,,,,,,,,,,,,,,,,,,63.25624329999846,64.2631965999899,64.2631965999899,64.40899239999999,64.90896529999736,64.90896529999736,65.06169309999677,ä,0.7364681000035489,wrong,65.811698599995,67.81161389999033,67.87414219998755,64.2631965999899,67.81161389999033,,,,,,,,,,,12,A,2023-12-08_12h13.03.598,gca_discrimination,2022.2.4,143.89048209329934,
positions.xlsx,stimuli.xlsx,test.xlsx,stimuli/Social1.png,stimuli/Social2.png,stimuli/Nonsocial1.png,stimuli/Nonsocial2.png,stimuli/Test1.png,stimuli/Test2.png,"(-0.7, 0.5)",test2,"(-0.7, -0.5)",test2,0,0,0,0,0,6,6,1,,,,,,,,,,,,,,,,,,,67.87414219998755,68.87411749998864,68.87411749998864,69.02685989999736,69.52686189999804,69.52686189999804,69.67958949999593,l,0.5359875000140164,correct,70.22820879999199,72.228137099999,72.42953119998856,68.87411749998864,72.228137099999,,,,,,,,,,,12,A,2023-12-08_12h13.03.598,gca_discrimination,2022.2.4,143.89048209329934,
positions.xlsx,stimuli.xlsx,test.xlsx,stimuli/Social1.png,stimuli/Social2.png,stimuli/Nonsocial1.png,stimuli/Nonsocial2.png,stimuli/Test1.png,stimuli/Test2.png,"(0.7, 0.5)",test1,"(0.7, -0.5)",test2,0,0,0,0,0,7,7,11,,,,,,,,,,,,,,,,,,,72.42953119998856,73.42948389999219,73.42948389999219,73.58226129999093,74.0822494999884,74.0822494999884,74.2349944000016,ä,0.5713658000022406,correct,74.81830600000103,76.81822639999154,77.44323029999214,73.42948389999219,76.81822639999154,,,,,,,,,,,12,A,2023-12-08_12h13.03.598,gca_discrimination,2022.2.4,143.89048209329934,
positions.xlsx,stimuli.xlsx,test.xlsx,stimuli/Social1.png,stimuli/Social2.png,stimuli/Nonsocial1.png,stimuli/Nonsocial2.png,stimuli/Test1.png,stimuli/Test2.png,"(0.7, -0.5)",test1,"(0.7, 0.5)",test2,0,0,0,0,0,8,8,0,,,,,,,,,,,,,,,,,,,77.44323029999214,78.4431743999885,78.4431743999885,78.59593779999705,79.09592059999704,79.09592059999704,79.24868530000094,ä,0.454348300001584,correct,79.71397029999935,81.71382799999265,81.81804220000049,78.4431743999885,81.71382799999265,,,,,,,,,,,12,A,2023-12-08_12h13.03.598,gca_discrimination,2022.2.4,143.89048209329934,
positions.xlsx,stimuli.xlsx,test.xlsx,stimuli/Social1.png,stimuli/Social2.png,stimuli/Nonsocial1.png,stimuli/Nonsocial2.png,stimuli/Test1.png,stimuli/Test2.png,"(-0.7, -0.5)",test1,"(0.7, 0.5)",test2,0,0,0,0,0,9,9,8,,,,,,,,,,,,,,,,,,,81.81804220000049,82.81801869999617,82.81801869999617,82.9707558999944,83.47074259999499,83.47074259999499,83.62351849999686,ä,0.39979640001547523,correct,84.03322839998873,86.0331421999872,86.38035519998812,82.81801869999617,86.0331421999872,,,,,,,,,,,12,A,2023-12-08_12h13.03.598,gca_discrimination,2022.2.4,143.89048209329934,
positions.xlsx,stimuli.xlsx,test.xlsx,stimuli/Social1.png,stimuli/Social2.png,stimuli/Nonsocial1.png,stimuli/Nonsocial2.png,stimuli/Test1.png,stimuli/Test2.png,"(-0.7, 0.5)",test1,"(0.7, -0.5)",test1,0,0,0,0,0,10,10,5,,,,,,,,,,,,,,,,,,,86.38035519998812,87.38034659999539,87.38034659999539,87.53308919999108,88.03305649998947,88.03305649998947,88.18583039999066,l,0.5168341000098735,correct,88.71360759998788,90.71351819999109,90.89407169999322,87.38034659999539,90.71351819999109,,,,,,,,,,,12,A,2023-12-08_12h13.03.598,gca_discrimination,2022.2.4,143.89048209329934,
positions.xlsx,stimuli.xlsx,test.xlsx,stimuli/Social1.png,stimuli/Social2.png,stimuli/Nonsocial1.png,stimuli/Nonsocial2.png,stimuli/Test1.png,stimuli/Test2.png,"(0.7, 0.5)",test2,"(0.7, -0.5)",test1,0,0,0,0,0,11,11,6,,,,,,,,,,,,,,,,,,,90.89407169999322,91.89402739999059,91.89402739999059,92.04682949998823,92.54677859999356,92.54677859999356,92.69955299999856,ä,0.9957422000006773,correct,93.70640209999692,95.70636929999455,95.92163810000056,91.89402739999059,95.70636929999455,,,,,,,,,,,12,A,2023-12-08_12h13.03.598,gca_discrimination,2022.2.4,143.89048209329934,
positions.xlsx,stimuli.xlsx,test.xlsx,stimuli/Social1.png,stimuli/Social2.png,stimuli/Nonsocial1.png,stimuli/Nonsocial2.png,stimuli/Test1.png,stimuli/Test2.png,"(-0.7, 0.5)",test2,"(0.7, 0.5)",test1,0,0,0,0,0,12,12,3,,,,,,,,,,,,,,,,,,,95.92163810000056,96.9216071999981,96.9216071999981,97.07438459999685,97.57436779999989,97.57436779999989,97.72709639999084,ä,0.6234339000075124,correct,98.35899899998913,100.35895479998726,101.34504109999398,96.9216071999981,100.35895479998726,,,,,,,,,,,12,A,2023-12-08_12h13.03.598,gca_discrimination,2022.2.4,143.89048209329934,
positions.xlsx,stimuli.xlsx,test.xlsx,stimuli/Social1.png,stimuli/Social2.png,stimuli/Nonsocial1.png,stimuli/Nonsocial2.png,stimuli/Test1.png,stimuli/Test2.png,"(0.7, -0.5)",test1,"(0.7, 0.5)",test1,0,0,0,0,0,13,13,10,,,,,,,,,,,,,,,,,,,101.34504109999398,102.34501029999228,102.34501029999228,102.4977738999878,102.99776139999449,102.99776139999449,103.15049489999365,l,0.5043752000055974,correct,103.66440509998938,105.66432830000122,106.5601056000014,102.34501029999228,105.66432830000122,,,,,,,,,,,12,A,2023-12-08_12h13.03.598,gca_discrimination,2022.2.4,143.89048209329934,
positions.xlsx,stimuli.xlsx,test.xlsx,stimuli/Social1.png,stimuli/Social2.png,stimuli/Nonsocial1.png,stimuli/Nonsocial2.png,stimuli/Test1.png,stimuli/Test2.png,"(-0.7, -0.5)",cs_plus_s,"(0.7, 0.5)",cs_plus_s,0,0,0,0,,,,,0,0,0,52,,,,,,,,,,,,,114.03898159999517,115.26117329999397,115.26117329999397,116.26108539999404,116.26108539999404,116.39998399998876,116.90691859999788,116.90691859999788,117.05273499999021,l,0.8584929000062402,correct,,117.9207968999981,117.96242469998833,,,106.5601056000014,106.5601056000014,106.5601056000014,106.5601056000014,106.5601056000014,106.5601056000014,106.5601056000014,106.5601056000014,space,7.470106900014798,12,A,2023-12-08_12h13.03.598,gca_discrimination,2022.2.4,143.89048209329934,
positions.xlsx,stimuli.xlsx,test.xlsx,stimuli/Social1.png,stimuli/Social2.png,stimuli/Nonsocial1.png,stimuli/Nonsocial2.png,stimuli/Test1.png,stimuli/Test2.png,"(-0.7, -0.5)",cs_plus_ns,"(0.7, 0.5)",cs_plus_ns,0,0,0,0,,,,,0,1,1,76,,,,,,,,,,,,,,,117.96242469998833,118.96935059998941,118.96935059998941,119.11517829999502,119.62209039999289,119.62209039999289,119.76793469999393,l,0.8310890000138897,correct,,120.60816109999723,120.85814949999622,118.96935059998941,,,,,,,,,,,,12,A,2023-12-08_12h13.03.598,gca_discrimination,2022.2.4,143.89048209329934,
positions.xlsx,stimuli.xlsx,test.xlsx,stimuli/Social1.png,stimuli/Social2.png,stimuli/Nonsocial1.png,stimuli/Nonsocial2.png,stimuli/Test1.png,stimuli/Test2.png,"(-0.7, 0.5)",cs_plus_ns,"(0.7, -0.5)",cs_minus_ns,0,0,0,0,,,,,0,2,2,26,,,,,,,,,,,,,,,120.85814949999622,121.86508689999755,121.86508689999755,122.01088779998827,122.51785389998986,122.51785389998986,122.66361069999402,ä,0.4945942000049399,correct,,123.17055929999333,123.67752240000118,121.86508689999755,,,,,,,,,,,,12,A,2023-12-08_12h13.03.598,gca_discrimination,2022.2.4,143.89048209329934,
positions.xlsx,stimuli.xlsx,test.xlsx,stimuli/Social1.png,stimuli/Social2.png,stimuli/Nonsocial1.png,stimuli/Nonsocial2.png,stimuli/Test1.png,stimuli/Test2.png,"(0.7, 0.5)",cs_minus_ns,"(-0.7, -0.5)",cs_minus_ns,0,0,0,0,,,,,0,3,3,91,,,,,,,,,,,,,,,123.67752240000118,124.6844124999916,124.6844124999916,124.83023069999763,125.33716060000006,125.33716060000006,125.4829849999951,l,0.6359759000188205,correct,,126.12879930000054,126.87180999999691,124.6844124999916,,,,,,,,,,,,12,A,2023-12-08_12h13.03.598,gca_discrimination,2022.2.4,143.89048209329934,
positions.xlsx,stimuli.xlsx,test.xlsx,stimuli/Social1.png,stimuli/Social2.png,stimuli/Nonsocial1.png,stimuli/Nonsocial2.png,stimuli/Test1.png,stimuli/Test2.png,"(0.7, 0.5)",cs_plus_s,"(-0.7, -0.5)",cs_minus_s,0,0,0,0,,,,,0,4,4,7,,,,,,,,,,,,,,,126.87180999999691,127.87873259998742,127.87873259998742,128.02459129999625,128.5314795999875,128.5314795999875,128.67732350000006,ä,0.5782314000098268,correct,,129.26756079999905,130.0522265999898,127.87873259998742,,,,,,,,,,,,12,A,2023-12-08_12h13.03.598,gca_discrimination,2022.2.4,143.89048209329934,
positions.xlsx,stimuli.xlsx,test.xlsx,stimuli/Social1.png,stimuli/Social2.png,stimuli/Nonsocial1.png,stimuli/Nonsocial2.png,stimuli/Test1.png,stimuli/Test2.png,"(-0.7, -0.5)",cs_minus_s,"(0.7, -0.5)",cs_minus_s,0,0,0,0,,,,,0,5,5,65,,,,,,,,,,,,,,,130.0522265999898,131.05918729999394,131.05918729999394,131.20496170000115,131.71190959999512,131.71190959999512,131.85775619999913,l,0.5091800000082003,correct,,132.37854869999865,132.62852149999526,131.05918729999394,,,,,,,,,,,,12,A,2023-12-08_12h13.03.598,gca_discrimination,2022.2.4,143.89048209329934,
positions.xlsx,stimuli.xlsx,test.xlsx,stimuli/Social1.png,stimuli/Social2.png,stimuli/Nonsocial1.png,stimuli/Nonsocial2.png,stimuli/Test1.png,stimuli/Test2.png,"(-0.7, -0.5)",cs_plus_s,"(0.7, -0.5)",cs_minus_s,0,0,0,0,,,,,0,6,6,5,,,,,,,,,,,,,,,132.62852149999526,133.63547409999592,133.63547409999592,133.78130799999053,134.28823489999922,134.28823489999922,134.4340397999913,ä,0.7169413000083296,correct,,135.1631772999972,136.10756469999615,133.63547409999592,,,,,,,,,,,,12,A,2023-12-08_12h13.03.598,gca_discrimination,2022.2.4,143.89048209329934,
positions.xlsx,stimuli.xlsx,test.xlsx,stimuli/Social1.png,stimuli/Social2.png,stimuli/Nonsocial1.png,stimuli/Nonsocial2.png,stimuli/Test1.png,stimuli/Test2.png,"(-0.7, -0.5)",cs_plus_s,"(-0.7, 0.5)",cs_plus_s,0,0,0,0,,,,,0,7,7,51,,,,,,,,,,,,,,,136.10756469999615,137.11446389999765,137.11446389999765,137.26027600000089,137.7673161999992,137.7673161999992,137.91308089999075,l,0.5422316000040155,correct,,138.4686120999977,139.07970839999325,137.11446389999765,,,,,,,,,,,,12,A,2023-12-08_12h13.03.598,gca_discrimination,2022.2.4,143.89048209329934,
positions.xlsx,stimuli.xlsx,test.xlsx,stimuli/Social1.png,stimuli/Social2.png,stimuli/Nonsocial1.png,stimuli/Nonsocial2.png,stimuli/Test1.png,stimuli/Test2.png,"(-0.7, 0.5)",cs_minus_s,"(0.7, 0.5)",cs_minus_s,0,0,0,0,,,,,0,8,8,61,,,,,,,,,,,,,,,139.07970839999325,140.08655769999314,140.08655769999314,140.23240809999697,140.73933209999814,140.73933209999814,140.88516409999283,l,1.2651762000023155,correct,,142.1628883999947,142.61428650000016,140.08655769999314,,,,,,,,,,,,12,A,2023-12-08_12h13.03.598,gca_discrimination,2022.2.4,143.89048209329934,
positions.xlsx,stimuli.xlsx,test.xlsx,stimuli/Social1.png,stimuli/Social2.png,stimuli/Nonsocial1.png,stimuli/Nonsocial2.png,stimuli/Test1.png,stimuli/Test2.png,"(-0.7, 0.5)",cs_plus_s,"(0.7, 0.5)",cs_plus_s,0,0,0,0,,,,,0,9,9,49,,,,,,,,,,,,,,,142.61428650000016,143.62115529998846,143.62115529998846,143.76699489999737,144.2739150999987,144.2739150999987,144.41974219999975,l,0.4823805000196444,correct,,144.91275429999223,145.60721289999492,143.62115529998846,,,,,,,,,,,,12,A,2023-12-08_12h13.03.598,gca_discrimination,2022.2.4,143.89048209329934,
positions.xlsx,stimuli.xlsx,test.xlsx,stimuli/Social1.png,stimuli/Social2.png,stimuli/Nonsocial1.png,stimuli/Nonsocial2.png,stimuli/Test1.png,stimuli/Test2.png,"(0.7, 0.5)",cs_plus_ns,"(-0.7, 0.5)",cs_plus_ns,0,0,0,0,,,,,0,10,10,78,,,,,,,,,,,,,,,145.60721289999492,146.6141168999893,146.6141168999893,146.7599407999951,147.26687859999947,147.26687859999947,147.41268929999205,l,0.6422898000164423,correct,,148.06544789999316,148.3987633999932,146.6141168999893,,,,,,,,,,,,12,A,2023-12-08_12h13.03.598,gca_discrimination,2022.2.4,143.89048209329934,
positions.xlsx,stimuli.xlsx,test.xlsx,stimuli/Social1.png,stimuli/Social2.png,stimuli/Nonsocial1.png,stimuli/Nonsocial2.png,stimuli/Test1.png,stimuli/Test2.png,"(0.7, -0.5)",cs_minus_s,"(0.7, 0.5)",cs_plus_s,0,0,0,0,,,,,0,11,11,23,,,,,,,,,,,,,,,148.3987633999932,149.40567389999342,149.40567389999342,149.55148669998744,150.05842419998953,150.05842419998953,150.20424469999853,ä,0.5779516000038711,correct,,150.79450269999506,151.13476249999076,149.40567389999342,,,,,,,,,,,,12,A,2023-12-08_12h13.03.598,gca_discrimination,2022.2.4,143.89048209329934,
positions.xlsx,stimuli.xlsx,test.xlsx,stimuli/Social1.png,stimuli/Social2.png,stimuli/Nonsocial1.png,stimuli/Nonsocial2.png,stimuli/Test1.png,stimuli/Test2.png,"(0.7, -0.5)",cs_plus_ns,"(0.7, 0.5)",cs_plus_ns,0,0,0,0,,,,,0,12,12,83,,,,,,,,,,,,,,,151.13476249999076,152.14168589998735,152.14168589998735,152.28751599999669,152.79442449999624,152.79442449999624,152.94029469999077,l,0.7228859000169905,correct,,153.67632259998936,154.12075709999772,152.14168589998735,,,,,,,,,,,,12,A,2023-12-08_12h13.03.598,gca_discrimination,2022.2.4,143.89048209329934,
positions.xlsx,stimuli.xlsx,test.xlsx,stimuli/Social1.png,stimuli/Social2.png,stimuli/Nonsocial1.png,stimuli/Nonsocial2.png,stimuli/Test1.png,stimuli/Test2.png,"(-0.7, -0.5)",cs_minus_s,"(-0.7, 0.5)",cs_plus_s,0,0,0,0,,,,,0,13,13,15,,,,,,,,,,,,,,,154.12075709999772,155.1276945999998,155.1276945999998,155.27350929999375,155.78043959999923,155.78043959999923,155.9262357999978,ä,0.504956900011166,correct,,156.44010959999287,156.69704799998726,155.1276945999998,,,,,,,,,,,,12,A,2023-12-08_12h13.03.598,gca_discrimination,2022.2.4,143.89048209329934,
positions.xlsx,stimuli.xlsx,test.xlsx,stimuli/Social1.png,stimuli/Social2.png,stimuli/Nonsocial1.png,stimuli/Nonsocial2.png,stimuli/Test1.png,stimuli/Test2.png,"(-0.7, 0.5)",cs_plus_ns,"(0.7, 0.5)",cs_plus_ns,0,0,0,0,,,,,0,14,14,73,,,,,,,,,,,,,,,156.69704799998726,157.70395669998834,157.70395669998834,157.84979939999175,158.3567086999974,158.3567086999974,158.5025495999871,l,0.7285630000114907,correct,,159.23861909999687,159.51636899998994,157.70395669998834,,,,,,,,,,,,12,A,2023-12-08_12h13.03.598,gca_discrimination,2022.2.4,143.89048209329934,
positions.xlsx,stimuli.xlsx,test.xlsx,stimuli/Social1.png,stimuli/Social2.png,stimuli/Nonsocial1.png,stimuli/Nonsocial2.png,stimuli/Test1.png,stimuli/Test2.png,"(-0.7, 0.5)",cs_plus_s,"(0.7, -0.5)",cs_plus_s,0,0,0,0,,,,,0,15,15,50,,,,,,,,,,,,,,,159.51636899998994,160.52328799999668,160.52328799999668,160.66910220000136,161.17605049999838,161.17605049999838,161.3218549999874,l,0.5483182000025408,correct,,161.87739569999394,162.23851299998933,160.52328799999668,,,,,,,,,,,,12,A,2023-12-08_12h13.03.598,gca_discrimination,2022.2.4,143.89048209329934,
positions.xlsx,stimuli.xlsx,test.xlsx,stimuli/Social1.png,stimuli/Social2.png,stimuli/Nonsocial1.png,stimuli/Nonsocial2.png,stimuli/Test1.png,stimuli/Test2.png,"(-0.7, 0.5)",cs_minus_ns,"(0.7, 0.5)",cs_plus_ns,0,0,0,0,,,,,0,16,16,37,,,,,,,,,,,,,,,162.23851299998933,163.245402799992,163.245402799992,163.3912214000011,163.89817570000014,163.89817570000014,164.04397739999695,ä,1.0021025000169175,correct,,165.05784080000012,165.72447570000077,163.245402799992,,,,,,,,,,,,12,A,2023-12-08_12h13.03.598,gca_discrimination,2022.2.4,143.89048209329934,
positions.xlsx,stimuli.xlsx,test.xlsx,stimuli/Social1.png,stimuli/Social2.png,stimuli/Nonsocial1.png,stimuli/Nonsocial2.png,stimuli/Test1.png,stimuli/Test2.png,"(-0.7, 0.5)",cs_minus_ns,"(0.7, -0.5)",cs_minus_ns,0,0,0,0,,,,,0,17,17,86,,,,,,,,,,,,,,,165.72447570000077,166.73138299999118,166.73138299999118,166.87721089999832,167.38414639999974,167.38414639999974,167.52996449999046,l,0.4042016000166768,correct,,167.9466112999944,168.3493771999929,166.73138299999118,,,,,,,,,,,,12,A,2023-12-08_12h13.03.598,gca_discrimination,2022.2.4,143.89048209329934,
positions.xlsx,stimuli.xlsx,test.xlsx,stimuli/Social1.png,stimuli/Social2.png,stimuli/Nonsocial1.png,stimuli/Nonsocial2.png,stimuli/Test1.png,stimuli/Test2.png,"(0.7, 0.5)",cs_plus_ns,"(0.7, -0.5)",cs_plus_ns,0,0,0,0,,,,,0,18,18,80,,,,,,,,,,,,,,,168.3493771999929,169.3562849999871,169.3562849999871,169.50208349998866,170.00903079999262,170.00903079999262,170.15486109998892,l,0.851903200004017,correct,,171.01593529999082,171.73118649999378,169.3562849999871,,,,,,,,,,,,12,A,2023-12-08_12h13.03.598,gca_discrimination,2022.2.4,143.89048209329934,
positions.xlsx,stimuli.xlsx,test.xlsx,stimuli/Social1.png,stimuli/Social2.png,stimuli/Nonsocial1.png,stimuli/Nonsocial2.png,stimuli/Test1.png,stimuli/Test2.png,"(0.7, -0.5)",cs_minus_ns,"(0.7, 0.5)",cs_minus_ns,0,0,0,0,,,,,0,19,19,95,,,,,,,,,,,,,,,171.73118649999378,172.7381150000001,172.7381150000001,172.88391129999945,173.39082669999334,173.39082669999334,173.53664969999227,l,0.5581759000051534,correct,,174.10606659999758,174.49498479999602,172.7381150000001,,,,,,,,,,,,12,A,2023-12-08_12h13.03.598,gca_discrimination,2022.2.4,143.89048209329934,
positions.xlsx,stimuli.xlsx,test.xlsx,stimuli/Social1.png,stimuli/Social2.png,stimuli/Nonsocial1.png,stimuli/Nonsocial2.png,stimuli/Test1.png,stimuli/Test2.png,"(-0.7, 0.5)",cs_plus_ns,"(-0.7, -0.5)",cs_minus_ns,0,0,0,0,,,,,0,20,20,24,,,,,,,,,,,,,,,174.49498479999602,175.5018943999894,175.5018943999894,175.64772059999814,176.15462939999998,176.15462939999998,176.3004718000011,ä,0.5544393000018317,correct,,176.8630153999984,177.0990931999986,175.5018943999894,,,,,,,,,,,,12,A,2023-12-08_12h13.03.598,gca_discrimination,2022.2.4,143.89048209329934,
positions.xlsx,stimuli.xlsx,test.xlsx,stimuli/Social1.png,stimuli/Social2.png,stimuli/Nonsocial1.png,stimuli/Nonsocial2.png,stimuli/Test1.png,stimuli/Test2.png,"(0.7, -0.5)",cs_minus_ns,"(-0.7, 0.5)",cs_plus_ns,0,0,0,0,,,,,0,21,21,45,,,,,,,,,,,,,,,177.0990931999986,178.10595820000162,178.10595820000162,178.2517608999915,178.75867619999917,178.75867619999917,178.90452979999827,ä,0.8623681000026409,correct,,179.77948019999894,180.66835119998723,178.10595820000162,,,,,,,,,,,,12,A,2023-12-08_12h13.03.598,gca_discrimination,2022.2.4,143.89048209329934,
positions.xlsx,stimuli.xlsx,test.xlsx,stimuli/Social1.png,stimuli/Social2.png,stimuli/Nonsocial1.png,stimuli/Nonsocial2.png,stimuli/Test1.png,stimuli/Test2.png,"(0.7, -0.5)",cs_minus_ns,"(-0.7, 0.5)",cs_minus_ns,0,0,0,0,,,,,0,22,22,93,,,,,,,,,,,,,,,180.66835119998723,181.67525339999702,181.67525339999702,181.82109139999375,182.32801019999897,182.32801019999897,182.47385049999866,l,0.4767291000171099,correct,,182.95990599998913,183.3904896999884,181.67525339999702,,,,,,,,,,,,12,A,2023-12-08_12h13.03.598,gca_discrimination,2022.2.4,143.89048209329934,
positions.xlsx,stimuli.xlsx,test.xlsx,stimuli/Social1.png,stimuli/Social2.png,stimuli/Nonsocial1.png,stimuli/Nonsocial2.png,stimuli/Test1.png,stimuli/Test2.png,"(-0.7, 0.5)",cs_plus_ns,"(0.7, -0.5)",cs_plus_ns,0,0,0,0,,,,,0,23,23,74,,,,,,,,,,,,,,,183.3904896999884,184.39737379999133,184.39737379999133,184.54320580000058,185.05009349998727,185.05009349998727,185.1959336,l,0.9228869000216946,correct,,186.12646739999764,186.41817449999508,184.39737379999133,,,,,,,,,,,,12,A,2023-12-08_12h13.03.598,gca_discrimination,2022.2.4,143.89048209329934,
positions.xlsx,stimuli.xlsx,test.xlsx,stimuli/Social1.png,stimuli/Social2.png,stimuli/Nonsocial1.png,stimuli/Nonsocial2.png,stimuli/Test1.png,stimuli/Test2.png,"(0.7, -0.5)",cs_plus_s,"(-0.7, -0.5)",cs_plus_s,0,0,0,0,,,,,0,24,24,58,,,,,,,,,,,,,,,186.41817449999508,187.42503349999606,187.42503349999606,187.57085730000108,188.07778120000148,188.07778120000148,188.2235795000015,l,0.8872427000169409,correct,,189.1193903999956,190.02216969999427,187.42503349999606,,,,,,,,,,,,12,A,2023-12-08_12h13.03.598,gca_discrimination,2022.2.4,143.89048209329934,
positions.xlsx,stimuli.xlsx,test.xlsx,stimuli/Social1.png,stimuli/Social2.png,stimuli/Nonsocial1.png,stimuli/Nonsocial2.png,stimuli/Test1.png,stimuli/Test2.png,"(-0.7, -0.5)",cs_minus_s,"(0.7, -0.5)",cs_plus_s,0,0,0,0,,,,,0,25,25,17,,,,,,,,,,,,,,,190.02216969999427,191.029074399994,191.029074399994,191.17488069999672,191.68182729999535,191.68182729999535,191.82765709998785,ä,0.578790100014885,correct,,192.4179116000014,192.6956591999915,191.029074399994,,,,,,,,,,,,12,A,2023-12-08_12h13.03.598,gca_discrimination,2022.2.4,143.89048209329934,
positions.xlsx,stimuli.xlsx,test.xlsx,stimuli/Social1.png,stimuli/Social2.png,stimuli/Nonsocial1.png,stimuli/Nonsocial2.png,stimuli/Test1.png,stimuli/Test2.png,"(0.7, 0.5)",cs_plus_s,"(-0.7, 0.5)",cs_minus_s,0,0,0,0,,,,,0,26,26,6,,,,,,,,,,,,,,,192.6956591999915,193.70258249998733,193.70258249998733,193.8483744999976,194.3553474999935,194.3553474999935,194.50114659999963,ä,0.7773241000104463,correct,,195.28583419999632,195.68167019999237,193.70258249998733,,,,,,,,,,,,12,A,2023-12-08_12h13.03.598,gca_discrimination,2022.2.4,143.89048209329934,
positions.xlsx,stimuli.xlsx,test.xlsx,stimuli/Social1.png,stimuli/Social2.png,stimuli/Nonsocial1.png,stimuli/Nonsocial2.png,stimuli/Test1.png,stimuli/Test2.png,"(0.7, -0.5)",cs_plus_ns,"(0.7, 0.5)",cs_minus_ns,0,0,0,0,,,,,0,27,27,35,,,,,,,,,,,,,,,195.68167019999237,196.68859239999438,196.68859239999438,196.8343901999906,197.3413012999954,197.3413012999954,197.48716720000084,ä,0.8316654000082053,correct,,198.32733439998992,198.65372699999716,196.68859239999438,,,,,,,,,,,,12,A,2023-12-08_12h13.03.598,gca_discrimination,2022.2.4,143.89048209329934,
positions.xlsx,stimuli.xlsx,test.xlsx,stimuli/Social1.png,stimuli/Social2.png,stimuli/Nonsocial1.png,stimuli/Nonsocial2.png,stimuli/Test1.png,stimuli/Test2.png,"(0.7, 0.5)",cs_plus_s,"(-0.7, -0.5)",cs_plus_s,0,0,0,0,,,,,0,28,28,55,,,,,,,,,,,,,,,198.65372699999716,199.66064659999392,199.66064659999392,199.8064990999992,200.31342269999732,200.31342269999732,200.4592255999887,l,0.6110143000114476,correct,,201.07727739999245,201.29254850000143,199.66064659999392,,,,,,,,,,,,12,A,2023-12-08_12h13.03.598,gca_discrimination,2022.2.4,143.89048209329934,
positions.xlsx,stimuli.xlsx,test.xlsx,stimuli/Social1.png,stimuli/Social2.png,stimuli/Nonsocial1.png,stimuli/Nonsocial2.png,stimuli/Test1.png,stimuli/Test2.png,"(0.7, 0.5)",cs_plus_ns,"(-0.7, -0.5)",cs_minus_ns,0,0,0,0,,,,,0,29,29,31,,,,,,,,,,,,,,,201.29254850000143,202.29951630000141,202.29951630000141,202.44527709999238,202.95224659999076,202.95224659999076,203.09804089998943,ä,0.6609471000119811,correct,,203.77160779999394,204.34797919999983,202.29951630000141,,,,,,,,,,,,12,A,2023-12-08_12h13.03.598,gca_discrimination,2022.2.4,143.89048209329934,
positions.xlsx,stimuli.xlsx,test.xlsx,stimuli/Social1.png,stimuli/Social2.png,stimuli/Nonsocial1.png,stimuli/Nonsocial2.png,stimuli/Test1.png,stimuli/Test2.png,"(0.7, 0.5)",cs_minus_s,"(-0.7, 0.5)",cs_plus_s,0,0,0,0,,,,,0,30,30,18,,,,,,,,,,,,,,,204.34797919999983,205.3549042999948,205.3549042999948,205.50068610000017,206.00763709998864,206.00763709998864,206.15347059999476,ä,0.5888917000120273,correct,,206.75066209999204,207.69508809999388,205.3549042999948,,,,,,,,,,,,12,A,2023-12-08_12h13.03.598,gca_discrimination,2022.2.4,143.89048209329934,
positions.xlsx,stimuli.xlsx,test.xlsx,stimuli/Social1.png,stimuli/Social2.png,stimuli/Nonsocial1.png,stimuli/Nonsocial2.png,stimuli/Test1.png,stimuli/Test2.png,"(-0.7, 0.5)",cs_plus_s,"(-0.7, -0.5)",cs_plus_s,0,0,0,0,,,,,0,31,31,48,,,,,,,,,,,,,,,207.69508809999388,208.70202169999538,208.70202169999538,208.8478380000015,209.35475990000123,209.35475990000123,209.50056289999338,l,0.43408720001752954,correct,,209.94497989999945,210.54910399999062,208.70202169999538,,,,,,,,,,,,12,A,2023-12-08_12h13.03.598,gca_discrimination,2022.2.4,143.89048209329934,
positions.xlsx,stimuli.xlsx,test.xlsx,stimuli/Social1.png,stimuli/Social2.png,stimuli/Nonsocial1.png,stimuli/Nonsocial2.png,stimuli/Test1.png,stimuli/Test2.png,"(0.7, -0.5)",cs_plus_ns,"(-0.7, -0.5)",cs_minus_ns,0,0,0,0,,,,,0,32,32,34,,,,,,,,,,,,,,,210.54910399999062,211.55605089999153,211.55605089999153,211.70186059999105,212.2087915000011,212.2087915000011,212.35460690000036,ä,0.6675029000034556,correct,,213.03514419999556,213.59075609999127,211.55605089999153,,,,,,,,,,,,12,A,2023-12-08_12h13.03.598,gca_discrimination,2022.2.4,143.89048209329934,
positions.xlsx,stimuli.xlsx,test.xlsx,stimuli/Social1.png,stimuli/Social2.png,stimuli/Nonsocial1.png,stimuli/Nonsocial2.png,stimuli/Test1.png,stimuli/Test2.png,"(0.7, -0.5)",cs_plus_s,"(-0.7, 0.5)",cs_plus_s,0,0,0,0,,,,,0,33,33,57,,,,,,,,,,,,,,,213.59075609999127,214.59760179999284,214.59760179999284,214.74339589999,215.2503483999899,215.2503483999899,215.39614820000133,l,0.8180393000220647,correct,,216.2225169000012,216.69474709998758,214.59760179999284,,,,,,,,,,,,12,A,2023-12-08_12h13.03.598,gca_discrimination,2022.2.4,143.89048209329934,
positions.xlsx,stimuli.xlsx,test.xlsx,stimuli/Social1.png,stimuli/Social2.png,stimuli/Nonsocial1.png,stimuli/Nonsocial2.png,stimuli/Test1.png,stimuli/Test2.png,"(-0.7, -0.5)",cs_minus_ns,"(0.7, -0.5)",cs_minus_ns,0,0,0,0,,,,,0,34,34,89,,,,,,,,,,,,,,,216.69474709998758,217.70163039999898,217.70163039999898,217.8474675999896,218.35435899998993,218.35435899998993,218.50020669998776,ä,1.9468152000190457,wrong,,220.4584523999947,220.53487999999197,217.70163039999898,,,,,,,,,,,,12,A,2023-12-08_12h13.03.598,gca_discrimination,2022.2.4,143.89048209329934,
positions.xlsx,stimuli.xlsx,test.xlsx,stimuli/Social1.png,stimuli/Social2.png,stimuli/Nonsocial1.png,stimuli/Nonsocial2.png,stimuli/Test1.png,stimuli/Test2.png,"(-0.7, -0.5)",cs_plus_ns,"(-0.7, 0.5)",cs_minus_ns,0,0,0,0,,,,,0,35,35,27,,,,,,,,,,,,,,,220.53487999999197,221.5417226999998,221.5417226999998,221.6875810999918,222.19453119998798,222.19453119998798,222.34033719998843,ä,0.5221203000255628,correct,,222.875048899994,223.15287669999816,221.5417226999998,,,,,,,,,,,,12,A,2023-12-08_12h13.03.598,gca_discrimination,2022.2.4,143.89048209329934,
positions.xlsx,stimuli.xlsx,test.xlsx,stimuli/Social1.png,stimuli/Social2.png,stimuli/Nonsocial1.png,stimuli/Nonsocial2.png,stimuli/Test1.png,stimuli/Test2.png,"(0.7, -0.5)",cs_plus_ns,"(-0.7, -0.5)",cs_plus_ns,0,0,0,0,,,,,0,36,36,82,,,,,,,,,,,,,,,223.15287669999816,224.1597069999989,224.1597069999989,224.30555289999756,224.8124700999906,224.8124700999906,224.9582970999909,l,0.5918846000131452,correct,,225.562400099996,225.71521689998917,224.1597069999989,,,,,,,,,,,,12,A,2023-12-08_12h13.03.598,gca_discrimination,2022.2.4,143.89048209329934,
positions.xlsx,stimuli.xlsx,test.xlsx,stimuli/Social1.png,stimuli/Social2.png,stimuli/Nonsocial1.png,stimuli/Nonsocial2.png,stimuli/Test1.png,stimuli/Test2.png,"(0.7, 0.5)",cs_plus_ns,"(0.7, -0.5)",cs_minus_ns,0,0,0,0,,,,,0,37,37,32,,,,,,,,,,,,,,,225.71521689998917,226.7221228999988,226.7221228999988,226.86794830000144,227.37488369998755,227.37488369998755,227.52071449998766,ä,0.6552291000116384,correct,,228.18731369999296,228.42342179999105,226.7221228999988,,,,,,,,,,,,12,A,2023-12-08_12h13.03.598,gca_discrimination,2022.2.4,143.89048209329934,
positions.xlsx,stimuli.xlsx,test.xlsx,stimuli/Social1.png,stimuli/Social2.png,stimuli/Nonsocial1.png,stimuli/Nonsocial2.png,stimuli/Test1.png,stimuli/Test2.png,"(0.7, -0.5)",cs_plus_s,"(0.7, 0.5)",cs_minus_s,0,0,0,0,,,,,0,38,38,11,,,,,,,,,,,,,,,228.42342179999105,229.4303809999983,229.4303809999983,229.57615639999858,230.08308159999433,230.08308159999433,230.22894760000054,ä,0.6175450000155251,correct,,230.85391239999444,231.70107840000128,229.4303809999983,,,,,,,,,,,,12,A,2023-12-08_12h13.03.598,gca_discrimination,2022.2.4,143.89048209329934,
positions.xlsx,stimuli.xlsx,test.xlsx,stimuli/Social1.png,stimuli/Social2.png,stimuli/Nonsocial1.png,stimuli/Nonsocial2.png,stimuli/Test1.png,stimuli/Test2.png,"(-0.7, -0.5)",cs_minus_ns,"(0.7, 0.5)",cs_plus_ns,0,0,0,0,,,,,0,39,39,40,,,,,,,,,,,,,,,231.70107840000128,232.70801579998806,232.70801579998806,232.85380789999908,233.36080049999873,233.36080049999873,233.5065925999952,ä,0.5893662000162294,correct,,234.10376719999476,234.5065448999958,232.70801579998806,,,,,,,,,,,,12,A,2023-12-08_12h13.03.598,gca_discrimination,2022.2.4,143.89048209329934,
positions.xlsx,stimuli.xlsx,test.xlsx,stimuli/Social1.png,stimuli/Social2.png,stimuli/Nonsocial1.png,stimuli/Nonsocial2.png,stimuli/Test1.png,stimuli/Test2.png,"(-0.7, 0.5)",cs_plus_s,"(0.7, 0.5)",cs_minus_s,0,0,0,0,,,,,0,40,40,1,,,,,,,,,,,,,,,234.5065448999958,235.5134790000011,235.5134790000011,235.65927179998835,236.16621709999163,236.16621709999163,236.31199119999656,ä,0.6311889000207884,correct,,236.9508613999933,237.90915569999197,235.5134790000011,,,,,,,,,,,,12,A,2023-12-08_12h13.03.598,gca_discrimination,2022.2.4,143.89048209329934,
positions.xlsx,stimuli.xlsx,test.xlsx,stimuli/Social1.png,stimuli/Social2.png,stimuli/Nonsocial1.png,stimuli/Nonsocial2.png,stimuli/Test1.png,stimuli/Test2.png,"(0.7, 0.5)",cs_minus_ns,"(-0.7, 0.5)",cs_minus_ns,0,0,0,0,,,,,0,41,41,90,,,,,,,,,,,,,,,237.90915569999197,238.9160880999989,238.9160880999989,239.06190689999494,239.56883709999966,239.56883709999966,239.71463750000112,l,0.4598370000021532,correct,,240.18688739999197,240.5062717999972,238.9160880999989,,,,,,,,,,,,12,A,2023-12-08_12h13.03.598,gca_discrimination,2022.2.4,143.89048209329934,
positions.xlsx,stimuli.xlsx,test.xlsx,stimuli/Social1.png,stimuli/Social2.png,stimuli/Nonsocial1.png,stimuli/Nonsocial2.png,stimuli/Test1.png,stimuli/Test2.png,"(0.7, -0.5)",cs_minus_s,"(-0.7, 0.5)",cs_minus_s,0,0,0,0,,,,,0,42,42,69,,,,,,,,,,,,,,,240.5062717999972,241.51320359999954,241.51320359999954,241.65901429999212,242.16596079999,242.16596079999,242.31178179998824,l,0.6069191000133287,correct,,242.92983229999663,243.01311259999056,241.51320359999954,,,,,,,,,,,,12,A,2023-12-08_12h13.03.598,gca_discrimination,2022.2.4,143.89048209329934,
positions.xlsx,stimuli.xlsx,test.xlsx,stimuli/Social1.png,stimuli/Social2.png,stimuli/Nonsocial1.png,stimuli/Nonsocial2.png,stimuli/Test1.png,stimuli/Test2.png,"(-0.7, 0.5)",cs_plus_ns,"(0.7, 0.5)",cs_minus_ns,0,0,0,0,,,,,0,43,43,25,,,,,,,,,,,,,,,243.01311259999056,244.020054099994,244.020054099994,244.16588179999962,244.67281720000028,244.67281720000028,244.81863299998804,ä,0.4283805000013672,correct,,245.25614869999117,245.9227499999979,244.020054099994,,,,,,,,,,,,12,A,2023-12-08_12h13.03.598,gca_discrimination,2022.2.4,143.89048209329934,
positions.xlsx,stimuli.xlsx,test.xlsx,stimuli/Social1.png,stimuli/Social2.png,stimuli/Nonsocial1.png,stimuli/Nonsocial2.png,stimuli/Test1.png,stimuli/Test2.png,"(0.7, -0.5)",cs_minus_ns,"(-0.7, -0.5)",cs_plus_ns,0,0,0,0,,,,,0,44,44,46,,,,,,,,,,,,,,,245.9227499999979,246.9296949999989,246.9296949999989,247.075479799998,247.58241329999873,247.58241329999873,247.72825839999132,ä,0.9269502000097418,correct,,248.66567119999672,249.10320649998903,246.9296949999989,,,,,,,,,,,,12,A,2023-12-08_12h13.03.598,gca_discrimination,2022.2.4,143.89048209329934,
positions.xlsx,stimuli.xlsx,test.xlsx,stimuli/Social1.png,stimuli/Social2.png,stimuli/Nonsocial1.png,stimuli/Nonsocial2.png,stimuli/Test1.png,stimuli/Test2.png,"(0.7, -0.5)",cs_plus_s,"(-0.7, 0.5)",cs_minus_s,0,0,0,0,,,,,0,45,45,9,,,,,,,,,,,,,,,249.10320649998903,250.1101093999896,250.1101093999896,250.25591669999994,250.7628573999973,250.7628573999973,250.90868689998752,ä,0.4580751000030432,correct,,251.37395909999032,251.84614599999622,250.1101093999896,,,,,,,,,,,,12,A,2023-12-08_12h13.03.598,gca_discrimination,2022.2.4,143.89048209329934,
positions.xlsx,stimuli.xlsx,test.xlsx,stimuli/Social1.png,stimuli/Social2.png,stimuli/Nonsocial1.png,stimuli/Nonsocial2.png,stimuli/Test1.png,stimuli/Test2.png,"(0.7, 0.5)",cs_minus_ns,"(-0.7, 0.5)",cs_plus_ns,0,0,0,0,,,,,0,46,46,42,,,,,,,,,,,,,,,251.84614599999622,252.85305309999967,252.85305309999967,252.99886979999428,253.5058022999874,253.5058022999874,253.6516258999909,ä,1.2912635000102455,correct,,254.95016779999423,255.69321219999983,252.85305309999967,,,,,,,,,,,,12,A,2023-12-08_12h13.03.598,gca_discrimination,2022.2.4,143.89048209329934,
positions.xlsx,stimuli.xlsx,test.xlsx,stimuli/Social1.png,stimuli/Social2.png,stimuli/Nonsocial1.png,stimuli/Nonsocial2.png,stimuli/Test1.png,stimuli/Test2.png,"(0.7, 0.5)",cs_plus_s,"(0.7, -0.5)",cs_minus_s,0,0,0,0,,,,,0,47,47,8,,,,,,,,,,,,,,,255.69321219999983,256.7001244999992,256.7001244999992,256.84593809999933,257.3528632999951,257.3528632999951,257.49866899999324,ä,0.6520551000139676,correct,,258.15837399999145,258.4292254999891,256.7001244999992,,,,,,,,,,,,12,A,2023-12-08_12h13.03.598,gca_discrimination,2022.2.4,143.89048209329934,
positions.xlsx,stimuli.xlsx,test.xlsx,stimuli/Social1.png,stimuli/Social2.png,stimuli/Nonsocial1.png,stimuli/Nonsocial2.png,stimuli/Test1.png,stimuli/Test2.png,"(-0.7, 0.5)",cs_minus_s,"(-0.7, -0.5)",cs_plus_s,0,0,0,0,,,,,0,48,48,12,,,,,,,,,,,,,,,258.4292254999891,259.43611489998875,259.43611489998875,259.5819264999882,260.0888687999977,260.0888687999977,260.23468189999403,ä,0.9637986000161618,correct,,261.20685489999596,262.0332560999959,259.43611489998875,,,,,,,,,,,,12,A,2023-12-08_12h13.03.598,gca_discrimination,2022.2.4,143.89048209329934,
positions.xlsx,stimuli.xlsx,test.xlsx,stimuli/Social1.png,stimuli/Social2.png,stimuli/Nonsocial1.png,stimuli/Nonsocial2.png,stimuli/Test1.png,stimuli/Test2.png,"(-0.7, 0.5)",cs_minus_s,"(0.7, -0.5)",cs_minus_s,0,0,0,0,,,,,0,49,49,62,,,,,,,,,,,,,,,262.0332560999959,263.04015519999666,263.04015519999666,263.1859706999967,263.6928932999872,263.6928932999872,263.83876139999484,l,0.4558038000104716,correct,,264.3039779999963,265.08865009999136,263.04015519999666,,,,,,,,,,,,12,A,2023-12-08_12h13.03.598,gca_discrimination,2022.2.4,143.89048209329934,
positions.xlsx,stimuli.xlsx,test.xlsx,stimuli/Social1.png,stimuli/Social2.png,stimuli/Nonsocial1.png,stimuli/Nonsocial2.png,stimuli/Test1.png,stimuli/Test2.png,"(0.7, -0.5)",cs_plus_s,"(-0.7, -0.5)",cs_minus_s,0,0,0,0,,,,,0,50,50,10,,,,,,,,,,,,,,,265.08865009999136,266.0955767999985,266.0955767999985,266.2414090999955,266.74840119999135,266.74840119999135,266.8941668999905,ä,0.9929893000080483,correct,,267.8941128000006,268.4565403000015,266.0955767999985,,,,,,,,,,,,12,A,2023-12-08_12h13.03.598,gca_discrimination,2022.2.4,143.89048209329934,
positions.xlsx,stimuli.xlsx,test.xlsx,stimuli/Social1.png,stimuli/Social2.png,stimuli/Nonsocial1.png,stimuli/Nonsocial2.png,stimuli/Test1.png,stimuli/Test2.png,"(0.7, 0.5)",cs_minus_ns,"(-0.7, -0.5)",cs_plus_ns,0,0,0,0,,,,,0,51,51,43,,,,,,,,,,,,,,,268.4565403000015,269.4635123999906,269.4635123999906,269.6093619999883,270.1162580999953,270.1162580999953,270.26207719999366,ä,0.8729328000190435,correct,,271.14402100000007,272.03975099998934,269.4635123999906,,,,,,,,,,,,12,A,2023-12-08_12h13.03.598,gca_discrimination,2022.2.4,143.89048209329934,
positions.xlsx,stimuli.xlsx,test.xlsx,stimuli/Social1.png,stimuli/Social2.png,stimuli/Nonsocial1.png,stimuli/Nonsocial2.png,stimuli/Test1.png,stimuli/Test2.png,"(-0.7, -0.5)",cs_plus_ns,"(0.7, -0.5)",cs_minus_ns,0,0,0,0,,,,,0,52,52,29,,,,,,,,,,,,,,,272.03975099998934,273.0467478999926,273.0467478999926,273.1925380999892,273.6994554999983,273.6994554999983,273.84526509999705,ä,0.561114300013287,correct,,274.4146972999879,275.27584459999343,273.0467478999926,,,,,,,,,,,,12,A,2023-12-08_12h13.03.598,gca_discrimination,2022.2.4,143.89048209329934,
positions.xlsx,stimuli.xlsx,test.xlsx,stimuli/Social1.png,stimuli/Social2.png,stimuli/Nonsocial1.png,stimuli/Nonsocial2.png,stimuli/Test1.png,stimuli/Test2.png,"(-0.7, -0.5)",cs_plus_ns,"(-0.7, 0.5)",cs_plus_ns,0,0,0,0,,,,,0,53,53,75,,,,,,,,,,,,,,,275.27584459999343,276.2826864999952,276.2826864999952,276.42851189999783,276.9354527999967,276.9354527999967,277.0812683999975,l,0.6143566000100691,correct,,277.7062289999885,277.7131890999881,276.2826864999952,,,,,,,,,,,,12,A,2023-12-08_12h13.03.598,gca_discrimination,2022.2.4,143.89048209329934,
positions.xlsx,stimuli.xlsx,test.xlsx,stimuli/Social1.png,stimuli/Social2.png,stimuli/Nonsocial1.png,stimuli/Nonsocial2.png,stimuli/Test1.png,stimuli/Test2.png,"(0.7, -0.5)",cs_minus_s,"(-0.7, -0.5)",cs_plus_s,0,0,0,0,,,,,0,54,54,22,,,,,,,,,,,,,,,277.7131890999881,278.72007949999534,278.72007949999534,278.86587949999375,279.37285780000093,279.37285780000093,279.51868749999267,ä,0.7274628000159282,correct,,280.25471299998753,280.40748539999186,278.72007949999534,,,,,,,,,,,,12,A,2023-12-08_12h13.03.598,gca_discrimination,2022.2.4,143.89048209329934,
positions.xlsx,stimuli.xlsx,test.xlsx,stimuli/Social1.png,stimuli/Social2.png,stimuli/Nonsocial1.png,stimuli/Nonsocial2.png,stimuli/Test1.png,stimuli/Test2.png,"(-0.7, -0.5)",cs_plus_ns,"(0.7, 0.5)",cs_minus_ns,0,0,0,0,,,,,0,55,55,28,,,,,,,,,,,,,,,280.40748539999186,281.4144871999888,281.4144871999888,281.56024890000117,282.0671494999988,282.0671494999988,282.2130012999987,ä,0.921238800015999,correct,,283.14352249998774,283.4698963999981,281.4144871999888,,,,,,,,,,,,12,A,2023-12-08_12h13.03.598,gca_discrimination,2022.2.4,143.89048209329934,
positions.xlsx,stimuli.xlsx,test.xlsx,stimuli/Social1.png,stimuli/Social2.png,stimuli/Nonsocial1.png,stimuli/Nonsocial2.png,stimuli/Test1.png,stimuli/Test2.png,"(0.7, 0.5)",cs_plus_ns,"(-0.7, 0.5)",cs_minus_ns,0,0,0,0,,,,,0,56,56,30,,,,,,,,,,,,,,,283.4698963999981,284.47680859999673,284.47680859999673,284.62266379999346,285.12955329999386,285.12955329999386,285.2753961999988,ä,0.3727023000101326,correct,,285.6573100999958,286.5531065999967,284.47680859999673,,,,,,,,,,,,12,A,2023-12-08_12h13.03.598,gca_discrimination,2022.2.4,143.89048209329934,
positions.xlsx,stimuli.xlsx,test.xlsx,stimuli/Social1.png,stimuli/Social2.png,stimuli/Nonsocial1.png,stimuli/Nonsocial2.png,stimuli/Test1.png,stimuli/Test2.png,"(-0.7, -0.5)",cs_plus_ns,"(0.7, -0.5)",cs_plus_ns,0,0,0,0,,,,,0,57,57,77,,,,,,,,,,,,,,,286.5531065999967,287.56002330000047,287.56002330000047,287.7058752000012,288.2127623999986,288.2127623999986,288.3585835999984,l,0.5202916000125697,correct,,288.8863646999962,289.18495659998734,287.56002330000047,,,,,,,,,,,,12,A,2023-12-08_12h13.03.598,gca_discrimination,2022.2.4,143.89048209329934,
positions.xlsx,stimuli.xlsx,test.xlsx,stimuli/Social1.png,stimuli/Social2.png,stimuli/Nonsocial1.png,stimuli/Nonsocial2.png,stimuli/Test1.png,stimuli/Test2.png,"(0.7, -0.5)",cs_plus_s,"(0.7, 0.5)",cs_plus_s,0,0,0,0,,,,,0,58,58,59,,,,,,,,,,,,,,,289.18495659998734,290.19186700000137,290.19186700000137,290.33765409998887,290.84460399999807,290.84460399999807,290.99041809998744,l,0.58475300000282,correct,,291.58763019999606,292.4209329000005,290.19186700000137,,,,,,,,,,,,12,A,2023-12-08_12h13.03.598,gca_discrimination,2022.2.4,143.89048209329934,
positions.xlsx,stimuli.xlsx,test.xlsx,stimuli/Social1.png,stimuli/Social2.png,stimuli/Nonsocial1.png,stimuli/Nonsocial2.png,stimuli/Test1.png,stimuli/Test2.png,"(0.7, 0.5)",cs_minus_s,"(-0.7, -0.5)",cs_plus_s,0,0,0,0,,,,,0,59,59,19,,,,,,,,,,,,,,,292.4209329000005,293.42781149999064,293.42781149999064,293.57369779999135,294.0806148999982,294.0806148999982,294.2264318999951,ä,0.46786810002231505,correct,,294.7055248999968,295.43472759998986,293.42781149999064,,,,,,,,,,,,12,A,2023-12-08_12h13.03.598,gca_discrimination,2022.2.4,143.89048209329934,
positions.xlsx,stimuli.xlsx,test.xlsx,stimuli/Social1.png,stimuli/Social2.png,stimuli/Nonsocial1.png,stimuli/Nonsocial2.png,stimuli/Test1.png,stimuli/Test2.png,"(-0.7, 0.5)",cs_minus_ns,"(0.7, -0.5)",cs_plus_ns,0,0,0,0,,,,,0,60,60,38,,,,,,,,,,,,,,,295.43472759998986,296.44168889999855,296.44168889999855,296.58742569999595,297.0943957999989,297.0943957999989,297.240175599989,ä,0.44603420002385974,correct,,297.69850759999827,298.51793319999706,296.44168889999855,,,,,,,,,,,,12,A,2023-12-08_12h13.03.598,gca_discrimination,2022.2.4,143.89048209329934,
positions.xlsx,stimuli.xlsx,test.xlsx,stimuli/Social1.png,stimuli/Social2.png,stimuli/Nonsocial1.png,stimuli/Nonsocial2.png,stimuli/Test1.png,stimuli/Test2.png,"(0.7, -0.5)",cs_plus_ns,"(-0.7, 0.5)",cs_plus_ns,0,0,0,0,,,,,0,61,61,81,,,,,,,,,,,,,,,298.51793319999706,299.5248408999905,299.5248408999905,299.67065939999884,300.1775822999916,300.1775822999916,300.32337699999334,l,1.147013000008883,correct,,301.4830726999935,302.30248699999356,299.5248408999905,,,,,,,,,,,,12,A,2023-12-08_12h13.03.598,gca_discrimination,2022.2.4,143.89048209329934,
positions.xlsx,stimuli.xlsx,test.xlsx,stimuli/Social1.png,stimuli/Social2.png,stimuli/Nonsocial1.png,stimuli/Nonsocial2.png,stimuli/Test1.png,stimuli/Test2.png,"(-0.7, -0.5)",cs_minus_ns,"(0.7, 0.5)",cs_minus_ns,0,0,0,0,,,,,0,62,62,88,,,,,,,,,,,,,,,302.30248699999356,303.3093755999871,303.3093755999871,303.45522549998714,303.9621438999893,303.9621438999893,304.10798629999044,l,0.5869468000018969,correct,,304.7051693999965,305.00377399999707,303.3093755999871,,,,,,,,,,,,12,A,2023-12-08_12h13.03.598,gca_discrimination,2022.2.4,143.89048209329934,
positions.xlsx,stimuli.xlsx,test.xlsx,stimuli/Social1.png,stimuli/Social2.png,stimuli/Nonsocial1.png,stimuli/Nonsocial2.png,stimuli/Test1.png,stimuli/Test2.png,"(-0.7, -0.5)",cs_plus_s,"(0.7, 0.5)",cs_minus_s,0,0,0,0,,,,,0,63,63,4,,,,,,,,,,,,,,,305.00377399999707,306.01072769999155,306.01072769999155,306.15649219999614,306.66343219998816,306.66343219998816,306.80927599999995,ä,0.6689578000223264,correct,,307.4897579999961,308.3369892999908,306.01072769999155,,,,,,,,,,,,12,A,2023-12-08_12h13.03.598,gca_discrimination,2022.2.4,143.89048209329934,
positions.xlsx,stimuli.xlsx,test.xlsx,stimuli/Social1.png,stimuli/Social2.png,stimuli/Nonsocial1.png,stimuli/Nonsocial2.png,stimuli/Test1.png,stimuli/Test2.png,"(-0.7, -0.5)",cs_minus_s,"(0.7, 0.5)",cs_plus_s,0,0,0,0,,,,,0,64,64,16,,,,,,,,,,,,,,,308.3369892999908,309.3438979999919,309.3438979999919,309.48971709999023,309.996642699989,309.996642699989,310.1424532999954,ä,1.688450300018303,correct,,311.843778800001,312.843761600001,309.3438979999919,,,,,,,,,,,,12,A,2023-12-08_12h13.03.598,gca_discrimination,2022.2.4,143.89048209329934,
positions.xlsx,stimuli.xlsx,test.xlsx,stimuli/Social1.png,stimuli/Social2.png,stimuli/Nonsocial1.png,stimuli/Nonsocial2.png,stimuli/Test1.png,stimuli/Test2.png,"(0.7, 0.5)",cs_minus_s,"(0.7, -0.5)",cs_plus_s,0,0,0,0,,,,,0,65,65,20,,,,,,,,,,,,,,,312.843761600001,313.8506752999965,313.8506752999965,313.9964811999962,314.5034076999873,314.5034076999873,314.6492270999879,ä,1.0050794000126189,correct,,315.6630856999982,316.4686088999879,313.8506752999965,,,,,,,,,,,,12,A,2023-12-08_12h13.03.598,gca_discrimination,2022.2.4,143.89048209329934,
positions.xlsx,stimuli.xlsx,test.xlsx,stimuli/Social1.png,stimuli/Social2.png,stimuli/Nonsocial1.png,stimuli/Nonsocial2.png,stimuli/Test1.png,stimuli/Test2.png,"(-0.7, 0.5)",cs_minus_s,"(0.7, -0.5)",cs_plus_s,0,0,0,0,,,,,0,66,66,14,,,,,,,,,,,,,,,316.4686088999879,317.47551059999387,317.47551059999387,317.6213290000014,318.128254700001,318.128254700001,318.27408529999957,ä,1.0209110000141663,correct,,319.30180609998934,320.0101041000016,317.47551059999387,,,,,,,,,,,,12,A,2023-12-08_12h13.03.598,gca_discrimination,2022.2.4,143.89048209329934,
positions.xlsx,stimuli.xlsx,test.xlsx,stimuli/Social1.png,stimuli/Social2.png,stimuli/Nonsocial1.png,stimuli/Nonsocial2.png,stimuli/Test1.png,stimuli/Test2.png,"(-0.7, -0.5)",cs_minus_s,"(-0.7, 0.5)",cs_minus_s,0,0,0,0,,,,,0,67,67,63,,,,,,,,,,,,,,,320.0101041000016,321.0169973000011,321.0169973000011,321.1628858999902,321.669774199996,321.669774199996,321.8156222999969,l,0.3993379000166897,correct,,322.22534269999596,323.04472609999357,321.0169973000011,,,,,,,,,,,,12,A,2023-12-08_12h13.03.598,gca_discrimination,2022.2.4,143.89048209329934,
positions.xlsx,stimuli.xlsx,test.xlsx,stimuli/Social1.png,stimuli/Social2.png,stimuli/Nonsocial1.png,stimuli/Nonsocial2.png,stimuli/Test1.png,stimuli/Test2.png,"(-0.7, -0.5)",cs_minus_ns,"(-0.7, 0.5)",cs_plus_ns,0,0,0,0,,,,,0,68,68,39,,,,,,,,,,,,,,,323.04472609999357,324.0516239999997,324.0516239999997,324.1974530000007,324.70439099999203,324.70439099999203,324.8502307999879,ä,0.5726289000158431,correct,,325.4335274999903,326.176552799996,324.0516239999997,,,,,,,,,,,,12,A,2023-12-08_12h13.03.598,gca_discrimination,2022.2.4,143.89048209329934,
positions.xlsx,stimuli.xlsx,test.xlsx,stimuli/Social1.png,stimuli/Social2.png,stimuli/Nonsocial1.png,stimuli/Nonsocial2.png,stimuli/Test1.png,stimuli/Test2.png,"(-0.7, 0.5)",cs_minus_s,"(0.7, 0.5)",cs_plus_s,0,0,0,0,,,,,0,69,69,13,,,,,,,,,,,,,,,326.176552799996,327.1834678999876,327.1834678999876,327.3293252000003,327.8361830999929,327.8361830999929,327.9820275999955,ä,0.4978140000021085,correct,,328.4889279999916,328.61395809998794,327.1834678999876,,,,,,,,,,,,12,A,2023-12-08_12h13.03.598,gca_discrimination,2022.2.4,143.89048209329934,
positions.xlsx,stimuli.xlsx,test.xlsx,stimuli/Social1.png,stimuli/Social2.png,stimuli/Nonsocial1.png,stimuli/Nonsocial2.png,stimuli/Test1.png,stimuli/Test2.png,"(0.7, 0.5)",cs_plus_s,"(-0.7, 0.5)",cs_plus_s,0,0,0,0,,,,,0,70,70,54,,,,,,,,,,,,,,,328.61395809998794,329.62088249999215,329.62088249999215,329.7666790999938,330.273621299988,330.273621299988,330.4194443000015,l,0.6273885000118753,correct,,331.0583368999942,331.5583079999924,329.62088249999215,,,,,,,,,,,,12,A,2023-12-08_12h13.03.598,gca_discrimination,2022.2.4,143.89048209329934,
positions.xlsx,stimuli.xlsx,test.xlsx,stimuli/Social1.png,stimuli/Social2.png,stimuli/Nonsocial1.png,stimuli/Nonsocial2.png,stimuli/Test1.png,stimuli/Test2.png,"(-0.7, 0.5)",cs_plus_ns,"(-0.7, -0.5)",cs_plus_ns,0,0,0,0,,,,,0,71,71,72,,,,,,,,,,,,,,,331.5583079999924,332.56519199999457,332.56519199999457,332.7110473999928,333.2179513999872,333.2179513999872,333.36378049998893,l,0.5393852000124753,correct,,333.91236429999117,334.57899189999443,332.56519199999457,,,,,,,,,,,,12,A,2023-12-08_12h13.03.598,gca_discrimination,2022.2.4,143.89048209329934,
positions.xlsx,stimuli.xlsx,test.xlsx,stimuli/Social1.png,stimuli/Social2.png,stimuli/Nonsocial1.png,stimuli/Nonsocial2.png,stimuli/Test1.png,stimuli/Test2.png,"(0.7, -0.5)",cs_minus_ns,"(0.7, 0.5)",cs_plus_ns,0,0,0,0,,,,,0,72,72,47,,,,,,,,,,,,,,,334.57899189999443,335.5859342999902,335.5859342999902,335.73178099999495,336.23867320000136,336.23867320000136,336.38449209999817,ä,0.6297403000062332,correct,,337.02335009998933,337.73862219999137,335.5859342999902,,,,,,,,,,,,12,A,2023-12-08_12h13.03.598,gca_discrimination,2022.2.4,143.89048209329934,
positions.xlsx,stimuli.xlsx,test.xlsx,stimuli/Social1.png,stimuli/Social2.png,stimuli/Nonsocial1.png,stimuli/Nonsocial2.png,stimuli/Test1.png,stimuli/Test2.png,"(0.7, -0.5)",cs_plus_ns,"(-0.7, 0.5)",cs_minus_ns,0,0,0,0,,,,,0,73,73,33,,,,,,,,,,,,,,,337.73862219999137,338.7455782999896,338.7455782999896,338.8913429999957,339.39825969999947,339.39825969999947,339.54410780000035,ä,0.7033307000092464,correct,,340.2593268999917,341.0787440999993,338.7455782999896,,,,,,,,,,,,12,A,2023-12-08_12h13.03.598,gca_discrimination,2022.2.4,143.89048209329934,
positions.xlsx,stimuli.xlsx,test.xlsx,stimuli/Social1.png,stimuli/Social2.png,stimuli/Nonsocial1.png,stimuli/Nonsocial2.png,stimuli/Test1.png,stimuli/Test2.png,"(0.7, 0.5)",cs_minus_s,"(-0.7, -0.5)",cs_minus_s,0,0,0,0,,,,,0,74,74,67,,,,,,,,,,,,,,,341.0787440999993,342.085671599998,342.085671599998,342.2314929999993,342.7384244999994,342.7384244999994,342.8842377999972,l,0.5789881000091555,correct,,343.4744936999923,344.141157399994,342.085671599998,,,,,,,,,,,,12,A,2023-12-08_12h13.03.598,gca_discrimination,2022.2.4,143.89048209329934,
positions.xlsx,stimuli.xlsx,test.xlsx,stimuli/Social1.png,stimuli/Social2.png,stimuli/Nonsocial1.png,stimuli/Nonsocial2.png,stimuli/Test1.png,stimuli/Test2.png,"(-0.7, -0.5)",cs_plus_s,"(0.7, -0.5)",cs_plus_s,0,0,0,0,,,,,0,75,75,53,,,,,,,,,,,,,,,344.141157399994,345.14803949999623,345.14803949999623,345.2938889999932,345.80080499999167,345.80080499999167,345.9466251999984,l,1.0682067000161624,correct,,347.0229679999902,347.1479566999915,345.14803949999623,,,,,,,,,,,,12,A,2023-12-08_12h13.03.598,gca_discrimination,2022.2.4,143.89048209329934,
positions.xlsx,stimuli.xlsx,test.xlsx,stimuli/Social1.png,stimuli/Social2.png,stimuli/Nonsocial1.png,stimuli/Nonsocial2.png,stimuli/Test1.png,stimuli/Test2.png,"(0.7, 0.5)",cs_minus_s,"(0.7, -0.5)",cs_minus_s,0,0,0,0,,,,,0,76,76,68,,,,,,,,,,,,,,,347.1479566999915,348.1548402999906,348.1548402999906,348.30068339999707,348.8076444999897,348.8076444999897,348.95346429999336,l,0.6531162000173936,correct,,349.62005329999374,350.5367147999932,348.1548402999906,,,,,,,,,,,,12,A,2023-12-08_12h13.03.598,gca_discrimination,2022.2.4,143.89048209329934,
positions.xlsx,stimuli.xlsx,test.xlsx,stimuli/Social1.png,stimuli/Social2.png,stimuli/Nonsocial1.png,stimuli/Nonsocial2.png,stimuli/Test1.png,stimuli/Test2.png,"(-0.7, 0.5)",cs_minus_ns,"(0.7, 0.5)",cs_minus_ns,0,0,0,0,,,,,0,77,77,85,,,,,,,,,,,,,,,350.5367147999932,351.5436320000008,351.5436320000008,351.68945559998974,352.1963806999993,352.1963806999993,352.342187199989,l,0.39293840002210345,correct,,352.7449697999982,353.16161969999666,351.5436320000008,,,,,,,,,,,,12,A,2023-12-08_12h13.03.598,gca_discrimination,2022.2.4,143.89048209329934,
positions.xlsx,stimuli.xlsx,test.xlsx,stimuli/Social1.png,stimuli/Social2.png,stimuli/Nonsocial1.png,stimuli/Nonsocial2.png,stimuli/Test1.png,stimuli/Test2.png,"(-0.7, -0.5)",cs_minus_s,"(0.7, 0.5)",cs_minus_s,0,0,0,0,,,,,0,78,78,64,,,,,,,,,,,,,,,353.16161969999666,354.1685230000003,354.1685230000003,354.3143723999965,354.82127760000003,354.82127760000003,354.9671085000009,l,0.48762810000334866,correct,,355.4670818000013,355.6129135999945,354.1685230000003,,,,,,,,,,,,12,A,2023-12-08_12h13.03.598,gca_discrimination,2022.2.4,143.89048209329934,
positions.xlsx,stimuli.xlsx,test.xlsx,stimuli/Social1.png,stimuli/Social2.png,stimuli/Nonsocial1.png,stimuli/Nonsocial2.png,stimuli/Test1.png,stimuli/Test2.png,"(0.7, -0.5)",cs_minus_s,"(-0.7, 0.5)",cs_plus_s,0,0,0,0,,,,,0,79,79,21,,,,,,,,,,,,,,,355.6129135999945,356.619807199997,356.619807199997,356.7656644999952,357.2725735999993,357.2725735999993,357.4183701000002,ä,0.3879639000224415,correct,,357.81422609998845,358.39057930000126,356.619807199997,,,,,,,,,,,,12,A,2023-12-08_12h13.03.598,gca_discrimination,2022.2.4,143.89048209329934,
positions.xlsx,stimuli.xlsx,test.xlsx,stimuli/Social1.png,stimuli/Social2.png,stimuli/Nonsocial1.png,stimuli/Nonsocial2.png,stimuli/Test1.png,stimuli/Test2.png,"(-0.7, 0.5)",cs_plus_s,"(0.7, -0.5)",cs_minus_s,0,0,0,0,,,,,0,80,80,2,,,,,,,,,,,,,,,358.39057930000126,359.39747479998914,359.39747479998914,359.5433243000007,360.05023389999405,360.05023389999405,360.19606159999967,ä,0.5640134000132093,correct,,360.77245589999075,361.5640759999951,359.39747479998914,,,,,,,,,,,,12,A,2023-12-08_12h13.03.598,gca_discrimination,2022.2.4,143.89048209329934,
positions.xlsx,stimuli.xlsx,test.xlsx,stimuli/Social1.png,stimuli/Social2.png,stimuli/Nonsocial1.png,stimuli/Nonsocial2.png,stimuli/Test1.png,stimuli/Test2.png,"(-0.7, -0.5)",cs_plus_s,"(-0.7, 0.5)",cs_minus_s,0,0,0,0,,,,,0,81,81,3,,,,,,,,,,,,,,,361.5640759999951,362.57095589999517,362.57095589999517,362.71677459999046,363.2237448999949,363.2237448999949,363.36958199999935,ä,1.5009918000141624,correct,,364.88335879999795,365.36252650000097,362.57095589999517,,,,,,,,,,,,12,A,2023-12-08_12h13.03.598,gca_discrimination,2022.2.4,143.89048209329934,
positions.xlsx,stimuli.xlsx,test.xlsx,stimuli/Social1.png,stimuli/Social2.png,stimuli/Nonsocial1.png,stimuli/Nonsocial2.png,stimuli/Test1.png,stimuli/Test2.png,"(-0.7, 0.5)",cs_minus_s,"(-0.7, -0.5)",cs_minus_s,0,0,0,0,,,,,0,82,82,60,,,,,,,,,,,,,,,365.36252650000097,366.369452599989,366.369452599989,366.5153053999966,367.02218789998733,367.02218789998733,367.1680161999975,l,0.7840950000099838,correct,,367.9596392999956,368.0013156999921,366.369452599989,,,,,,,,,,,,12,A,2023-12-08_12h13.03.598,gca_discrimination,2022.2.4,143.89048209329934,
positions.xlsx,stimuli.xlsx,test.xlsx,stimuli/Social1.png,stimuli/Social2.png,stimuli/Nonsocial1.png,stimuli/Nonsocial2.png,stimuli/Test1.png,stimuli/Test2.png,"(0.7, 0.5)",cs_plus_ns,"(-0.7, -0.5)",cs_plus_ns,0,0,0,0,,,,,0,83,83,79,,,,,,,,,,,,,,,368.0013156999921,369.0082387000002,369.0082387000002,369.15403009999136,369.6609724000009,369.6609724000009,369.8068418999901,l,0.5117324000166263,correct,,370.3276918999909,371.18870009999955,369.0082387000002,,,,,,,,,,,,12,A,2023-12-08_12h13.03.598,gca_discrimination,2022.2.4,143.89048209329934,
positions.xlsx,stimuli.xlsx,test.xlsx,stimuli/Social1.png,stimuli/Social2.png,stimuli/Nonsocial1.png,stimuli/Nonsocial2.png,stimuli/Test1.png,stimuli/Test2.png,"(-0.7, -0.5)",cs_minus_ns,"(0.7, -0.5)",cs_plus_ns,0,0,0,0,,,,,0,84,84,41,,,,,,,,,,,,,,,371.18870009999955,372.1956232999946,372.1956232999946,372.34142399999837,372.84835469999234,372.84835469999234,372.9941797999927,ä,0.5015901000151644,correct,,373.5080523999932,373.8205403999891,372.1956232999946,,,,,,,,,,,,12,A,2023-12-08_12h13.03.598,gca_discrimination,2022.2.4,143.89048209329934,
positions.xlsx,stimuli.xlsx,test.xlsx,stimuli/Social1.png,stimuli/Social2.png,stimuli/Nonsocial1.png,stimuli/Nonsocial2.png,stimuli/Test1.png,stimuli/Test2.png,"(-0.7, 0.5)",cs_minus_ns,"(-0.7, -0.5)",cs_minus_ns,0,0,0,0,,,,,0,85,85,84,,,,,,,,,,,,,,,373.8205403999891,374.82744779999484,374.82744779999484,374.9732875999907,375.480195799988,375.480195799988,375.62603410000156,l,0.717394699997385,correct,,376.3551790999918,376.8551496,374.82744779999484,,,,,,,,,,,,12,A,2023-12-08_12h13.03.598,gca_discrimination,2022.2.4,143.89048209329934,
positions.xlsx,stimuli.xlsx,test.xlsx,stimuli/Social1.png,stimuli/Social2.png,stimuli/Nonsocial1.png,stimuli/Nonsocial2.png,stimuli/Test1.png,stimuli/Test2.png,"(-0.7, 0.5)",cs_plus_s,"(-0.7, -0.5)",cs_minus_s,0,0,0,0,,,,,0,86,86,0,,,,,,,,,,,,,,,376.8551496,377.8620239999873,377.8620239999873,378.0078266999917,378.51477789999626,378.51477789999626,378.6605997000006,ä,0.41769980000390206,correct,,379.09114939998835,379.5494861999905,377.8620239999873,,,,,,,,,,,,12,A,2023-12-08_12h13.03.598,gca_discrimination,2022.2.4,143.89048209329934,
positions.xlsx,stimuli.xlsx,test.xlsx,stimuli/Social1.png,stimuli/Social2.png,stimuli/Nonsocial1.png,stimuli/Nonsocial2.png,stimuli/Test1.png,stimuli/Test2.png,"(0.7, -0.5)",cs_minus_s,"(0.7, 0.5)",cs_minus_s,0,0,0,0,,,,,0,87,87,71,,,,,,,,,,,,,,,379.5494861999905,380.5563877999957,380.5563877999957,380.70221409999067,381.2091107000015,381.2091107000015,381.3549382999918,l,0.37241420001373626,correct,,381.7368998999882,382.60491969999566,380.5563877999957,,,,,,,,,,,,12,A,2023-12-08_12h13.03.598,gca_discrimination,2022.2.4,143.89048209329934,
positions.xlsx,stimuli.xlsx,test.xlsx,stimuli/Social1.png,stimuli/Social2.png,stimuli/Nonsocial1.png,stimuli/Nonsocial2.png,stimuli/Test1.png,stimuli/Test2.png,"(-0.7, -0.5)",cs_minus_ns,"(-0.7, 0.5)",cs_minus_ns,0,0,0,0,,,,,0,88,88,87,,,,,,,,,,,,,,,382.60491969999566,383.61184119999234,383.61184119999234,383.75767399999313,384.2646104000014,384.2646104000014,384.4104115999944,l,0.6768846000049962,correct,,385.09788399998797,385.2367563000007,383.61184119999234,,,,,,,,,,,,12,A,2023-12-08_12h13.03.598,gca_discrimination,2022.2.4,143.89048209329934,
positions.xlsx,stimuli.xlsx,test.xlsx,stimuli/Social1.png,stimuli/Social2.png,stimuli/Nonsocial1.png,stimuli/Nonsocial2.png,stimuli/Test1.png,stimuli/Test2.png,"(0.7, -0.5)",cs_minus_s,"(-0.7, -0.5)",cs_minus_s,0,0,0,0,,,,,0,89,89,70,,,,,,,,,,,,,,,385.2367563000007,386.2436655999918,386.2436655999918,386.38949599998887,386.8964539000008,386.8964539000008,387.0422469999903,l,0.5560948000202188,correct,,387.6116709999915,388.1186142999941,386.2436655999918,,,,,,,,,,,,12,A,2023-12-08_12h13.03.598,gca_discrimination,2022.2.4,143.89048209329934,
positions.xlsx,stimuli.xlsx,test.xlsx,stimuli/Social1.png,stimuli/Social2.png,stimuli/Nonsocial1.png,stimuli/Nonsocial2.png,stimuli/Test1.png,stimuli/Test2.png,"(0.7, 0.5)",cs_minus_ns,"(0.7, -0.5)",cs_minus_ns,0,0,0,0,,,,,0,90,90,92,,,,,,,,,,,,,,,388.1186142999941,389.1254764999903,389.1254764999903,389.27131339999323,389.7782490999962,389.7782490999962,389.9240872999944,l,0.35472680001112167,correct,,390.2921059999935,390.38933619999443,389.1254764999903,,,,,,,,,,,,12,A,2023-12-08_12h13.03.598,gca_discrimination,2022.2.4,143.89048209329934,
positions.xlsx,stimuli.xlsx,test.xlsx,stimuli/Social1.png,stimuli/Social2.png,stimuli/Nonsocial1.png,stimuli/Nonsocial2.png,stimuli/Test1.png,stimuli/Test2.png,"(0.7, 0.5)",cs_plus_s,"(0.7, -0.5)",cs_plus_s,0,0,0,0,,,,,0,91,91,56,,,,,,,,,,,,,,,390.38933619999443,391.39625469999737,391.39625469999737,391.5420950999978,392.0489938999963,392.0489938999963,392.1948126999923,l,0.40420970002014656,correct,,392.6114916999941,393.3475725999888,391.39625469999737,,,,,,,,,,,,12,A,2023-12-08_12h13.03.598,gca_discrimination,2022.2.4,143.89048209329934,
positions.xlsx,stimuli.xlsx,test.xlsx,stimuli/Social1.png,stimuli/Social2.png,stimuli/Nonsocial1.png,stimuli/Nonsocial2.png,stimuli/Test1.png,stimuli/Test2.png,"(0.7, -0.5)",cs_minus_ns,"(-0.7, -0.5)",cs_minus_ns,0,0,0,0,,,,,0,92,92,94,,,,,,,,,,,,,,,393.3475725999888,394.3544843999989,394.3544843999989,394.5002783999953,395.00723629999266,395.00723629999266,395.1530481999944,l,0.46266540001670364,correct,,395.6252500999981,396.3821762000007,394.3544843999989,,,,,,,,,,,,12,A,2023-12-08_12h13.03.598,gca_discrimination,2022.2.4,143.89048209329934,
positions.xlsx,stimuli.xlsx,test.xlsx,stimuli/Social1.png,stimuli/Social2.png,stimuli/Nonsocial1.png,stimuli/Nonsocial2.png,stimuli/Test1.png,stimuli/Test2.png,"(0.7, 0.5)",cs_minus_ns,"(0.7, -0.5)",cs_plus_ns,0,0,0,0,,,,,0,93,93,44,,,,,,,,,,,,,,,396.3821762000007,397.3891345999873,397.3891345999873,397.5348843999964,398.04182800000126,398.04182800000126,398.1876592999906,ä,0.6587374000082491,correct,,398.8543254999968,399.4445326999994,397.3891345999873,,,,,,,,,,,,12,A,2023-12-08_12h13.03.598,gca_discrimination,2022.2.4,143.89048209329934,
positions.xlsx,stimuli.xlsx,test.xlsx,stimuli/Social1.png,stimuli/Social2.png,stimuli/Nonsocial1.png,stimuli/Nonsocial2.png,stimuli/Test1.png,stimuli/Test2.png,"(0.7, 0.5)",cs_minus_s,"(-0.7, 0.5)",cs_minus_s,0,0,0,0,,,,,0,94,94,66,,,,,,,,,,,,,,,399.4445326999994,400.45146069998736,400.45146069998736,400.59729900000093,401.1042247000005,401.1042247000005,401.25003650000144,l,0.3485549000179162,correct,,401.61111249998794,402.312488999989,400.45146069998736,,,,,,,,,,,,12,A,2023-12-08_12h13.03.598,gca_discrimination,2022.2.4,143.89048209329934,
positions.xlsx,stimuli.xlsx,test.xlsx,stimuli/Social1.png,stimuli/Social2.png,stimuli/Nonsocial1.png,stimuli/Nonsocial2.png,stimuli/Test1.png,stimuli/Test2.png,"(-0.7, 0.5)",cs_minus_ns,"(-0.7, -0.5)",cs_plus_ns,0,0,0,0,,,,,0,95,95,36,,,,,,,,,,,,,,,402.312488999989,403.31940309998754,403.31940309998754,403.46523739999975,403.9721548999951,403.9721548999951,404.1179833999922,ä,0.9207838000147603,correct,,405.04847119998885,405.74985949999245,403.31940309998754,,,,,,,,,,,,12,A,2023-12-08_12h13.03.598,gca_discrimination,2022.2.4,143.89048209329934,
