posFile,stimFile,testFile,cs_plus_s,cs_minus_s,cs_plus_ns,cs_minus_ns,test1,test2,position1,trialtype,position2,comptype,blocks.thisRepN,blocks.thisTrialN,blocks.thisN,blocks.thisIndex,learning_trials.thisRepN,learning_trials.thisTrialN,learning_trials.thisN,learning_trials.thisIndex,trials.thisRepN,trials.thisTrialN,trials.thisN,trials.thisIndex,textStart.started,key.started,key.keys,key.rt,correctness,textStartTask.started,participant,group,date,expName,psychopyVersion,frameRate,
positions.xlsx,stimuli.xlsx,test.xlsx,stimuli/Social2.png,stimuli/Social1.png,stimuli/Nonsocial2.png,stimuli/Nonsocial1.png,stimuli/Test1.png,stimuli/Test2.png,"(-0.7, 0.5)",test2,"(0.7, -0.5)",test1,0,0,0,0,0,0,0,12,,,,,12.859600899973884,58.920346200000495,ä,1.116614600061439,wrong,,31,D,2023-12-15_10h02.25.960,gca_discrimination,2022.2.4,144.00258073365416,
positions.xlsx,stimuli.xlsx,test.xlsx,stimuli/Social2.png,stimuli/Social1.png,stimuli/Nonsocial2.png,stimuli/Nonsocial1.png,stimuli/Test1.png,stimuli/Test2.png,"(0.7, -0.5)",test1,"(0.7, 0.5)",test2,0,0,0,0,0,1,1,0,,,,,,63.89930869999807,l,0.8409388000145555,correct,,31,D,2023-12-15_10h02.25.960,gca_discrimination,2022.2.4,144.00258073365416,
positions.xlsx,stimuli.xlsx,test.xlsx,stimuli/Social2.png,stimuli/Social1.png,stimuli/Nonsocial2.png,stimuli/Nonsocial1.png,stimuli/Test1.png,stimuli/Test2.png,"(0.7, 0.5)",test2,"(-0.7, 0.5)",test1,0,0,0,0,0,2,2,13,,,,,,68.77410719997715,l,0.6935796999605373,correct,,31,D,2023-12-15_10h02.25.960,gca_discrimination,2022.2.4,144.00258073365416,
positions.xlsx,stimuli.xlsx,test.xlsx,stimuli/Social2.png,stimuli/Social1.png,stimuli/Nonsocial2.png,stimuli/Nonsocial1.png,stimuli/Test1.png,stimuli/Test2.png,"(-0.7, -0.5)",test2,"(0.7, -0.5)",test2,0,0,0,0,0,3,3,9,,,,,,74.27392459998373,ä,1.0262430999428034,correct,,31,D,2023-12-15_10h02.25.960,gca_discrimination,2022.2.4,144.00258073365416,
positions.xlsx,stimuli.xlsx,test.xlsx,stimuli/Social2.png,stimuli/Social1.png,stimuli/Nonsocial2.png,stimuli/Nonsocial1.png,stimuli/Test1.png,stimuli/Test2.png,"(-0.7, 0.5)",test2,"(-0.7, -0.5)",test2,0,0,0,0,0,4,4,1,,,,,,79.75979359995108,ä,0.8680226999567822,correct,,31,D,2023-12-15_10h02.25.960,gca_discrimination,2022.2.4,144.00258073365416,
positions.xlsx,stimuli.xlsx,test.xlsx,stimuli/Social2.png,stimuli/Social1.png,stimuli/Nonsocial2.png,stimuli/Nonsocial1.png,stimuli/Test1.png,stimuli/Test2.png,"(-0.7, 0.5)",test2,"(0.7, 0.5)",test1,0,0,0,0,0,5,5,3,,,,,,84.44711459998507,l,0.5888735000044107,correct,,31,D,2023-12-15_10h02.25.960,gca_discrimination,2022.2.4,144.00258073365416,
positions.xlsx,stimuli.xlsx,test.xlsx,stimuli/Social2.png,stimuli/Social1.png,stimuli/Nonsocial2.png,stimuli/Nonsocial1.png,stimuli/Test1.png,stimuli/Test2.png,"(-0.7, -0.5)",test2,"(0.7, 0.5)",test2,0,0,0,0,0,6,6,7,,,,,,89.53720270004123,ä,1.0359724999871105,correct,,31,D,2023-12-15_10h02.25.960,gca_discrimination,2022.2.4,144.00258073365416,
positions.xlsx,stimuli.xlsx,test.xlsx,stimuli/Social2.png,stimuli/Social1.png,stimuli/Nonsocial2.png,stimuli/Nonsocial1.png,stimuli/Test1.png,stimuli/Test2.png,"(-0.7, -0.5)",test1,"(0.7, 0.5)",test2,0,0,0,0,0,7,7,8,,,,,,94.78698530001566,l,1.2652505000587553,correct,,31,D,2023-12-15_10h02.25.960,gca_discrimination,2022.2.4,144.00258073365416,
positions.xlsx,stimuli.xlsx,test.xlsx,stimuli/Social2.png,stimuli/Social1.png,stimuli/Nonsocial2.png,stimuli/Nonsocial1.png,stimuli/Test1.png,stimuli/Test2.png,"(0.7, 0.5)",test2,"(0.7, -0.5)",test1,0,0,0,0,0,8,8,6,,,,,,100.59234139998443,ä,0.6832860999274999,wrong,,31,D,2023-12-15_10h02.25.960,gca_discrimination,2022.2.4,144.00258073365416,
positions.xlsx,stimuli.xlsx,test.xlsx,stimuli/Social2.png,stimuli/Social1.png,stimuli/Nonsocial2.png,stimuli/Nonsocial1.png,stimuli/Test1.png,stimuli/Test2.png,"(0.7, -0.5)",test1,"(0.7, 0.5)",test1,0,0,0,0,0,9,9,10,,,,,,105.66857189999428,ä,0.6717013999586925,correct,,31,D,2023-12-15_10h02.25.960,gca_discrimination,2022.2.4,144.00258073365416,
positions.xlsx,stimuli.xlsx,test.xlsx,stimuli/Social2.png,stimuli/Social1.png,stimuli/Nonsocial2.png,stimuli/Nonsocial1.png,stimuli/Test1.png,stimuli/Test2.png,"(0.7, -0.5)",test2,"(-0.7, 0.5)",test1,0,0,0,0,0,10,10,4,,,,,,110.80723249993753,None,,no answer,,31,D,2023-12-15_10h02.25.960,gca_discrimination,2022.2.4,144.00258073365416,
positions.xlsx,stimuli.xlsx,test.xlsx,stimuli/Social2.png,stimuli/Social1.png,stimuli/Nonsocial2.png,stimuli/Nonsocial1.png,stimuli/Test1.png,stimuli/Test2.png,"(-0.7, -0.5)",test2,"(-0.7, 0.5)",test2,0,0,0,0,0,11,11,2,,,,,,117.45278619998135,ä,0.7673509999876842,correct,,31,D,2023-12-15_10h02.25.960,gca_discrimination,2022.2.4,144.00258073365416,
positions.xlsx,stimuli.xlsx,test.xlsx,stimuli/Social2.png,stimuli/Social1.png,stimuli/Nonsocial2.png,stimuli/Nonsocial1.png,stimuli/Test1.png,stimuli/Test2.png,"(-0.7, 0.5)",test1,"(0.7, -0.5)",test1,0,0,0,0,0,12,12,5,,,,,,122.59840829996392,ä,0.7177219999721274,correct,,31,D,2023-12-15_10h02.25.960,gca_discrimination,2022.2.4,144.00258073365416,
positions.xlsx,stimuli.xlsx,test.xlsx,stimuli/Social2.png,stimuli/Social1.png,stimuli/Nonsocial2.png,stimuli/Nonsocial1.png,stimuli/Test1.png,stimuli/Test2.png,"(0.7, 0.5)",test1,"(0.7, -0.5)",test2,0,0,0,0,0,13,13,11,,,,,,128.11209179996513,l,0.4999495999654755,correct,,31,D,2023-12-15_10h02.25.960,gca_discrimination,2022.2.4,144.00258073365416,
positions.xlsx,stimuli.xlsx,test.xlsx,stimuli/Social2.png,stimuli/Social1.png,stimuli/Nonsocial2.png,stimuli/Nonsocial1.png,stimuli/Test1.png,stimuli/Test2.png,"(0.7, -0.5)",cs_plus_ns,"(-0.7, 0.5)",cs_minus_ns,0,0,0,0,,,,,0,0,0,33,,148.271000299952,l,1.0765021999832243,correct,131.02863199997228,31,D,2023-12-15_10h02.25.960,gca_discrimination,2022.2.4,144.00258073365416,
positions.xlsx,stimuli.xlsx,test.xlsx,stimuli/Social2.png,stimuli/Social1.png,stimuli/Nonsocial2.png,stimuli/Nonsocial1.png,stimuli/Test1.png,stimuli/Test2.png,"(-0.7, 0.5)",cs_plus_ns,"(-0.7, -0.5)",cs_plus_ns,0,0,0,0,,,,,0,1,1,72,,151.97226720000617,ä,0.639923800015822,correct,,31,D,2023-12-15_10h02.25.960,gca_discrimination,2022.2.4,144.00258073365416,
positions.xlsx,stimuli.xlsx,test.xlsx,stimuli/Social2.png,stimuli/Social1.png,stimuli/Nonsocial2.png,stimuli/Nonsocial1.png,stimuli/Test1.png,stimuli/Test2.png,"(0.7, -0.5)",cs_plus_ns,"(-0.7, -0.5)",cs_minus_ns,0,0,0,0,,,,,0,2,2,34,,154.902707500034,l,0.6933403000002727,correct,,31,D,2023-12-15_10h02.25.960,gca_discrimination,2022.2.4,144.00258073365416,
positions.xlsx,stimuli.xlsx,test.xlsx,stimuli/Social2.png,stimuli/Social1.png,stimuli/Nonsocial2.png,stimuli/Nonsocial1.png,stimuli/Test1.png,stimuli/Test2.png,"(-0.7, 0.5)",cs_plus_s,"(0.7, -0.5)",cs_plus_s,0,0,0,0,,,,,0,3,3,50,,158.18734569998924,ä,0.5445896000601351,correct,,31,D,2023-12-15_10h02.25.960,gca_discrimination,2022.2.4,144.00258073365416,
positions.xlsx,stimuli.xlsx,test.xlsx,stimuli/Social2.png,stimuli/Social1.png,stimuli/Nonsocial2.png,stimuli/Nonsocial1.png,stimuli/Test1.png,stimuli/Test2.png,"(0.7, 0.5)",cs_plus_ns,"(-0.7, -0.5)",cs_plus_ns,0,0,0,0,,,,,0,4,4,79,,160.97885730001144,ä,0.6485898999962956,correct,,31,D,2023-12-15_10h02.25.960,gca_discrimination,2022.2.4,144.00258073365416,
positions.xlsx,stimuli.xlsx,test.xlsx,stimuli/Social2.png,stimuli/Social1.png,stimuli/Nonsocial2.png,stimuli/Nonsocial1.png,stimuli/Test1.png,stimuli/Test2.png,"(-0.7, -0.5)",cs_plus_s,"(0.7, -0.5)",cs_minus_s,0,0,0,0,,,,,0,5,5,5,,163.7079130000202,l,0.8796281000832096,correct,,31,D,2023-12-15_10h02.25.960,gca_discrimination,2022.2.4,144.00258073365416,
positions.xlsx,stimuli.xlsx,test.xlsx,stimuli/Social2.png,stimuli/Social1.png,stimuli/Nonsocial2.png,stimuli/Nonsocial1.png,stimuli/Test1.png,stimuli/Test2.png,"(0.7, 0.5)",cs_minus_s,"(0.7, -0.5)",cs_plus_s,0,0,0,0,,,,,0,6,6,20,,166.9925338999601,l,0.7558474999386817,correct,,31,D,2023-12-15_10h02.25.960,gca_discrimination,2022.2.4,144.00258073365416,
positions.xlsx,stimuli.xlsx,test.xlsx,stimuli/Social2.png,stimuli/Social1.png,stimuli/Nonsocial2.png,stimuli/Nonsocial1.png,stimuli/Test1.png,stimuli/Test2.png,"(-0.7, 0.5)",cs_plus_ns,"(0.7, 0.5)",cs_plus_ns,0,0,0,0,,,,,0,7,7,73,,170.3673690999858,ä,0.5242743999697268,correct,,31,D,2023-12-15_10h02.25.960,gca_discrimination,2022.2.4,144.00258073365416,
positions.xlsx,stimuli.xlsx,test.xlsx,stimuli/Social2.png,stimuli/Social1.png,stimuli/Nonsocial2.png,stimuli/Nonsocial1.png,stimuli/Test1.png,stimuli/Test2.png,"(-0.7, -0.5)",cs_minus_ns,"(0.7, -0.5)",cs_minus_ns,0,0,0,0,,,,,0,8,8,89,,173.6867002999643,ä,0.6293686999706551,correct,,31,D,2023-12-15_10h02.25.960,gca_discrimination,2022.2.4,144.00258073365416,
positions.xlsx,stimuli.xlsx,test.xlsx,stimuli/Social2.png,stimuli/Social1.png,stimuli/Nonsocial2.png,stimuli/Nonsocial1.png,stimuli/Test1.png,stimuli/Test2.png,"(0.7, -0.5)",cs_plus_s,"(0.7, 0.5)",cs_minus_s,0,0,0,0,,,,,0,9,9,11,,176.99211729993112,l,0.5882783000124618,correct,,31,D,2023-12-15_10h02.25.960,gca_discrimination,2022.2.4,144.00258073365416,
positions.xlsx,stimuli.xlsx,test.xlsx,stimuli/Social2.png,stimuli/Social1.png,stimuli/Nonsocial2.png,stimuli/Nonsocial1.png,stimuli/Test1.png,stimuli/Test2.png,"(-0.7, 0.5)",cs_minus_s,"(0.7, 0.5)",cs_plus_s,0,0,0,0,,,,,0,10,10,13,,180.15171500004362,l,0.6118263000389561,correct,,31,D,2023-12-15_10h02.25.960,gca_discrimination,2022.2.4,144.00258073365416,
positions.xlsx,stimuli.xlsx,test.xlsx,stimuli/Social2.png,stimuli/Social1.png,stimuli/Nonsocial2.png,stimuli/Nonsocial1.png,stimuli/Test1.png,stimuli/Test2.png,"(-0.7, -0.5)",cs_plus_ns,"(0.7, 0.5)",cs_minus_ns,0,0,0,0,,,,,0,11,11,28,,183.49881409993395,l,0.7530076999682933,correct,,31,D,2023-12-15_10h02.25.960,gca_discrimination,2022.2.4,144.00258073365416,
positions.xlsx,stimuli.xlsx,test.xlsx,stimuli/Social2.png,stimuli/Social1.png,stimuli/Nonsocial2.png,stimuli/Nonsocial1.png,stimuli/Test1.png,stimuli/Test2.png,"(-0.7, -0.5)",cs_minus_s,"(-0.7, 0.5)",cs_minus_s,0,0,0,0,,,,,0,12,12,63,,186.26256860001013,ä,0.6135897999629378,correct,,31,D,2023-12-15_10h02.25.960,gca_discrimination,2022.2.4,144.00258073365416,
positions.xlsx,stimuli.xlsx,test.xlsx,stimuli/Social2.png,stimuli/Social1.png,stimuli/Nonsocial2.png,stimuli/Nonsocial1.png,stimuli/Test1.png,stimuli/Test2.png,"(0.7, 0.5)",cs_plus_s,"(0.7, -0.5)",cs_plus_s,0,0,0,0,,,,,0,13,13,56,,189.1791195999831,ä,0.6492497998988256,correct,,31,D,2023-12-15_10h02.25.960,gca_discrimination,2022.2.4,144.00258073365416,
positions.xlsx,stimuli.xlsx,test.xlsx,stimuli/Social2.png,stimuli/Social1.png,stimuli/Nonsocial2.png,stimuli/Nonsocial1.png,stimuli/Test1.png,stimuli/Test2.png,"(0.7, 0.5)",cs_minus_ns,"(0.7, -0.5)",cs_minus_ns,0,0,0,0,,,,,0,14,14,92,,192.58179850003216,ä,0.9500113000394776,correct,,31,D,2023-12-15_10h02.25.960,gca_discrimination,2022.2.4,144.00258073365416,
positions.xlsx,stimuli.xlsx,test.xlsx,stimuli/Social2.png,stimuli/Social1.png,stimuli/Nonsocial2.png,stimuli/Nonsocial1.png,stimuli/Test1.png,stimuli/Test2.png,"(-0.7, 0.5)",cs_minus_ns,"(-0.7, -0.5)",cs_minus_ns,0,0,0,0,,,,,0,15,15,84,,195.66500409995206,ä,0.4507537999888882,correct,,31,D,2023-12-15_10h02.25.960,gca_discrimination,2022.2.4,144.00258073365416,
positions.xlsx,stimuli.xlsx,test.xlsx,stimuli/Social2.png,stimuli/Social1.png,stimuli/Nonsocial2.png,stimuli/Nonsocial1.png,stimuli/Test1.png,stimuli/Test2.png,"(0.7, 0.5)",cs_minus_s,"(0.7, -0.5)",cs_minus_s,0,0,0,0,,,,,0,16,16,68,,198.06074109999463,ä,0.4797069999622181,correct,,31,D,2023-12-15_10h02.25.960,gca_discrimination,2022.2.4,144.00258073365416,
positions.xlsx,stimuli.xlsx,test.xlsx,stimuli/Social2.png,stimuli/Social1.png,stimuli/Nonsocial2.png,stimuli/Nonsocial1.png,stimuli/Test1.png,stimuli/Test2.png,"(-0.7, 0.5)",cs_plus_ns,"(-0.7, -0.5)",cs_minus_ns,0,0,0,0,,,,,0,17,17,24,,200.65787070000079,l,0.4739211000269279,correct,,31,D,2023-12-15_10h02.25.960,gca_discrimination,2022.2.4,144.00258073365416,
positions.xlsx,stimuli.xlsx,test.xlsx,stimuli/Social2.png,stimuli/Social1.png,stimuli/Nonsocial2.png,stimuli/Nonsocial1.png,stimuli/Test1.png,stimuli/Test2.png,"(0.7, 0.5)",cs_minus_ns,"(0.7, -0.5)",cs_plus_ns,0,0,0,0,,,,,0,18,18,44,,203.90081659995485,l,0.5270799000281841,correct,,31,D,2023-12-15_10h02.25.960,gca_discrimination,2022.2.4,144.00258073365416,
positions.xlsx,stimuli.xlsx,test.xlsx,stimuli/Social2.png,stimuli/Social1.png,stimuli/Nonsocial2.png,stimuli/Nonsocial1.png,stimuli/Test1.png,stimuli/Test2.png,"(0.7, -0.5)",cs_minus_ns,"(-0.7, -0.5)",cs_minus_ns,0,0,0,0,,,,,0,19,19,94,,207.12986710004043,ä,0.5147913000546396,correct,,31,D,2023-12-15_10h02.25.960,gca_discrimination,2022.2.4,144.00258073365416,
positions.xlsx,stimuli.xlsx,test.xlsx,stimuli/Social2.png,stimuli/Social1.png,stimuli/Nonsocial2.png,stimuli/Nonsocial1.png,stimuli/Test1.png,stimuli/Test2.png,"(0.7, 0.5)",cs_plus_ns,"(0.7, -0.5)",cs_minus_ns,0,0,0,0,,,,,0,20,20,32,,210.3589120999677,l,0.820735799963586,correct,,31,D,2023-12-15_10h02.25.960,gca_discrimination,2022.2.4,144.00258073365416,
positions.xlsx,stimuli.xlsx,test.xlsx,stimuli/Social2.png,stimuli/Social1.png,stimuli/Nonsocial2.png,stimuli/Nonsocial1.png,stimuli/Test1.png,stimuli/Test2.png,"(0.7, 0.5)",cs_plus_ns,"(-0.7, 0.5)",cs_plus_ns,0,0,0,0,,,,,0,21,21,78,,213.67821359995287,ä,0.7818527999334037,correct,,31,D,2023-12-15_10h02.25.960,gca_discrimination,2022.2.4,144.00258073365416,
positions.xlsx,stimuli.xlsx,test.xlsx,stimuli/Social2.png,stimuli/Social1.png,stimuli/Nonsocial2.png,stimuli/Nonsocial1.png,stimuli/Test1.png,stimuli/Test2.png,"(-0.7, -0.5)",cs_minus_ns,"(-0.7, 0.5)",cs_minus_ns,0,0,0,0,,,,,0,22,22,87,,216.6086423000088,ä,0.6513420999981463,correct,,31,D,2023-12-15_10h02.25.960,gca_discrimination,2022.2.4,144.00258073365416,
positions.xlsx,stimuli.xlsx,test.xlsx,stimuli/Social2.png,stimuli/Social1.png,stimuli/Nonsocial2.png,stimuli/Nonsocial1.png,stimuli/Test1.png,stimuli/Test2.png,"(-0.7, 0.5)",cs_minus_ns,"(0.7, -0.5)",cs_minus_ns,0,0,0,0,,,,,0,23,23,86,,219.5599310999969,ä,0.500310100032948,correct,,31,D,2023-12-15_10h02.25.960,gca_discrimination,2022.2.4,144.00258073365416,
positions.xlsx,stimuli.xlsx,test.xlsx,stimuli/Social2.png,stimuli/Social1.png,stimuli/Nonsocial2.png,stimuli/Nonsocial1.png,stimuli/Test1.png,stimuli/Test2.png,"(-0.7, -0.5)",cs_plus_s,"(0.7, 0.5)",cs_minus_s,0,0,0,0,,,,,0,24,24,4,,222.56677070003934,ä,1.0051918999524787,wrong,,31,D,2023-12-15_10h02.25.960,gca_discrimination,2022.2.4,144.00258073365416,
positions.xlsx,stimuli.xlsx,test.xlsx,stimuli/Social2.png,stimuli/Social1.png,stimuli/Nonsocial2.png,stimuli/Nonsocial1.png,stimuli/Test1.png,stimuli/Test2.png,"(0.7, -0.5)",cs_plus_s,"(-0.7, -0.5)",cs_minus_s,0,0,0,0,,,,,0,25,25,10,,226.0110672999872,l,0.8332837000489235,correct,,31,D,2023-12-15_10h02.25.960,gca_discrimination,2022.2.4,144.00258073365416,
positions.xlsx,stimuli.xlsx,test.xlsx,stimuli/Social2.png,stimuli/Social1.png,stimuli/Nonsocial2.png,stimuli/Nonsocial1.png,stimuli/Test1.png,stimuli/Test2.png,"(0.7, -0.5)",cs_minus_s,"(-0.7, -0.5)",cs_minus_s,0,0,0,0,,,,,0,26,26,70,,229.36511130002327,ä,0.7025562999770045,correct,,31,D,2023-12-15_10h02.25.960,gca_discrimination,2022.2.4,144.00258073365416,
positions.xlsx,stimuli.xlsx,test.xlsx,stimuli/Social2.png,stimuli/Social1.png,stimuli/Nonsocial2.png,stimuli/Nonsocial1.png,stimuli/Test1.png,stimuli/Test2.png,"(-0.7, 0.5)",cs_plus_s,"(0.7, 0.5)",cs_plus_s,0,0,0,0,,,,,0,27,27,49,,232.86498279997613,None,,no answer,,31,D,2023-12-15_10h02.25.960,gca_discrimination,2022.2.4,144.00258073365416,
positions.xlsx,stimuli.xlsx,test.xlsx,stimuli/Social2.png,stimuli/Social1.png,stimuli/Nonsocial2.png,stimuli/Nonsocial1.png,stimuli/Test1.png,stimuli/Test2.png,"(0.7, -0.5)",cs_minus_ns,"(0.7, 0.5)",cs_minus_ns,0,0,0,0,,,,,0,28,28,95,,236.73288709996268,l,0.7920057999435812,wrong,,31,D,2023-12-15_10h02.25.960,gca_discrimination,2022.2.4,144.00258073365416,
positions.xlsx,stimuli.xlsx,test.xlsx,stimuli/Social2.png,stimuli/Social1.png,stimuli/Nonsocial2.png,stimuli/Nonsocial1.png,stimuli/Test1.png,stimuli/Test2.png,"(0.7, 0.5)",cs_minus_ns,"(-0.7, -0.5)",cs_minus_ns,0,0,0,0,,,,,0,29,29,91,,239.84385619999375,ä,0.5295929000712931,correct,,31,D,2023-12-15_10h02.25.960,gca_discrimination,2022.2.4,144.00258073365416,
positions.xlsx,stimuli.xlsx,test.xlsx,stimuli/Social2.png,stimuli/Social1.png,stimuli/Nonsocial2.png,stimuli/Nonsocial1.png,stimuli/Test1.png,stimuli/Test2.png,"(0.7, -0.5)",cs_minus_ns,"(0.7, 0.5)",cs_plus_ns,0,0,0,0,,,,,0,30,30,47,,242.3784932999406,l,0.4576326999813318,correct,,31,D,2023-12-15_10h02.25.960,gca_discrimination,2022.2.4,144.00258073365416,
positions.xlsx,stimuli.xlsx,test.xlsx,stimuli/Social2.png,stimuli/Social1.png,stimuli/Nonsocial2.png,stimuli/Nonsocial1.png,stimuli/Test1.png,stimuli/Test2.png,"(0.7, -0.5)",cs_plus_ns,"(0.7, 0.5)",cs_plus_ns,0,0,0,0,,,,,0,31,31,83,,245.34366430004593,ä,0.988356199930422,correct,,31,D,2023-12-15_10h02.25.960,gca_discrimination,2022.2.4,144.00258073365416,
positions.xlsx,stimuli.xlsx,test.xlsx,stimuli/Social2.png,stimuli/Social1.png,stimuli/Nonsocial2.png,stimuli/Nonsocial1.png,stimuli/Test1.png,stimuli/Test2.png,"(0.7, 0.5)",cs_plus_s,"(-0.7, 0.5)",cs_plus_s,0,0,0,0,,,,,0,32,32,54,,248.63518959993962,ä,0.5450867000035942,correct,,31,D,2023-12-15_10h02.25.960,gca_discrimination,2022.2.4,144.00258073365416,
positions.xlsx,stimuli.xlsx,test.xlsx,stimuli/Social2.png,stimuli/Social1.png,stimuli/Nonsocial2.png,stimuli/Nonsocial1.png,stimuli/Test1.png,stimuli/Test2.png,"(-0.7, -0.5)",cs_plus_s,"(-0.7, 0.5)",cs_minus_s,0,0,0,0,,,,,0,33,33,3,,251.01705299993046,l,0.6434490999672562,correct,,31,D,2023-12-15_10h02.25.960,gca_discrimination,2022.2.4,144.00258073365416,
positions.xlsx,stimuli.xlsx,test.xlsx,stimuli/Social2.png,stimuli/Social1.png,stimuli/Nonsocial2.png,stimuli/Nonsocial1.png,stimuli/Test1.png,stimuli/Test2.png,"(0.7, 0.5)",cs_plus_ns,"(0.7, -0.5)",cs_plus_ns,0,0,0,0,,,,,0,34,34,80,,254.33631659997627,ä,0.7078126999549568,correct,,31,D,2023-12-15_10h02.25.960,gca_discrimination,2022.2.4,144.00258073365416,
positions.xlsx,stimuli.xlsx,test.xlsx,stimuli/Social2.png,stimuli/Social1.png,stimuli/Nonsocial2.png,stimuli/Nonsocial1.png,stimuli/Test1.png,stimuli/Test2.png,"(-0.7, 0.5)",cs_plus_s,"(-0.7, -0.5)",cs_plus_s,0,0,0,0,,,,,0,35,35,48,,257.00296309997793,ä,0.8173545999452472,correct,,31,D,2023-12-15_10h02.25.960,gca_discrimination,2022.2.4,144.00258073365416,
positions.xlsx,stimuli.xlsx,test.xlsx,stimuli/Social2.png,stimuli/Social1.png,stimuli/Nonsocial2.png,stimuli/Nonsocial1.png,stimuli/Test1.png,stimuli/Test2.png,"(-0.7, -0.5)",cs_plus_s,"(0.7, -0.5)",cs_plus_s,0,0,0,0,,,,,0,36,36,53,,259.67643130000215,ä,0.48081550002098083,correct,,31,D,2023-12-15_10h02.25.960,gca_discrimination,2022.2.4,144.00258073365416,
positions.xlsx,stimuli.xlsx,test.xlsx,stimuli/Social2.png,stimuli/Social1.png,stimuli/Nonsocial2.png,stimuli/Nonsocial1.png,stimuli/Test1.png,stimuli/Test2.png,"(-0.7, 0.5)",cs_plus_s,"(-0.7, -0.5)",cs_minus_s,0,0,0,0,,,,,0,37,37,0,,262.7944053999381,l,0.6746970999520272,correct,,31,D,2023-12-15_10h02.25.960,gca_discrimination,2022.2.4,144.00258073365416,
positions.xlsx,stimuli.xlsx,test.xlsx,stimuli/Social2.png,stimuli/Social1.png,stimuli/Nonsocial2.png,stimuli/Nonsocial1.png,stimuli/Test1.png,stimuli/Test2.png,"(-0.7, 0.5)",cs_plus_s,"(0.7, 0.5)",cs_minus_s,0,0,0,0,,,,,0,38,38,1,,266.2317208999302,l,0.6923584999749437,correct,,31,D,2023-12-15_10h02.25.960,gca_discrimination,2022.2.4,144.00258073365416,
positions.xlsx,stimuli.xlsx,test.xlsx,stimuli/Social2.png,stimuli/Social1.png,stimuli/Nonsocial2.png,stimuli/Nonsocial1.png,stimuli/Test1.png,stimuli/Test2.png,"(-0.7, 0.5)",cs_minus_ns,"(0.7, -0.5)",cs_plus_ns,0,0,0,0,,,,,0,39,39,38,,269.2316248000134,l,0.7006174999987707,correct,,31,D,2023-12-15_10h02.25.960,gca_discrimination,2022.2.4,144.00258073365416,
positions.xlsx,stimuli.xlsx,test.xlsx,stimuli/Social2.png,stimuli/Social1.png,stimuli/Nonsocial2.png,stimuli/Nonsocial1.png,stimuli/Test1.png,stimuli/Test2.png,"(-0.7, -0.5)",cs_minus_ns,"(0.7, 0.5)",cs_minus_ns,0,0,0,0,,,,,0,40,40,88,,272.460666900035,ä,0.6796859999885783,correct,,31,D,2023-12-15_10h02.25.960,gca_discrimination,2022.2.4,144.00258073365416,
positions.xlsx,stimuli.xlsx,test.xlsx,stimuli/Social2.png,stimuli/Social1.png,stimuli/Nonsocial2.png,stimuli/Nonsocial1.png,stimuli/Test1.png,stimuli/Test2.png,"(0.7, -0.5)",cs_plus_s,"(-0.7, -0.5)",cs_plus_s,0,0,0,0,,,,,0,41,41,58,,275.0438887999626,ä,0.5600528999930248,correct,,31,D,2023-12-15_10h02.25.960,gca_discrimination,2022.2.4,144.00258073365416,
positions.xlsx,stimuli.xlsx,test.xlsx,stimuli/Social2.png,stimuli/Social1.png,stimuli/Nonsocial2.png,stimuli/Nonsocial1.png,stimuli/Test1.png,stimuli/Test2.png,"(0.7, -0.5)",cs_minus_ns,"(-0.7, 0.5)",cs_minus_ns,0,0,0,0,,,,,0,42,42,93,,278.245175799937,ä,0.3904910000273958,correct,,31,D,2023-12-15_10h02.25.960,gca_discrimination,2022.2.4,144.00258073365416,
positions.xlsx,stimuli.xlsx,test.xlsx,stimuli/Social2.png,stimuli/Social1.png,stimuli/Nonsocial2.png,stimuli/Nonsocial1.png,stimuli/Test1.png,stimuli/Test2.png,"(0.7, -0.5)",cs_plus_ns,"(-0.7, -0.5)",cs_plus_ns,0,0,0,0,,,,,0,43,43,82,,280.5159034000244,ä,0.5440665000351146,correct,,31,D,2023-12-15_10h02.25.960,gca_discrimination,2022.2.4,144.00258073365416,
positions.xlsx,stimuli.xlsx,test.xlsx,stimuli/Social2.png,stimuli/Social1.png,stimuli/Nonsocial2.png,stimuli/Nonsocial1.png,stimuli/Test1.png,stimuli/Test2.png,"(-0.7, -0.5)",cs_minus_ns,"(0.7, 0.5)",cs_plus_ns,0,0,0,0,,,,,0,44,44,40,,283.8630019000266,l,0.5329287999775261,correct,,31,D,2023-12-15_10h02.25.960,gca_discrimination,2022.2.4,144.00258073365416,
positions.xlsx,stimuli.xlsx,test.xlsx,stimuli/Social2.png,stimuli/Social1.png,stimuli/Nonsocial2.png,stimuli/Nonsocial1.png,stimuli/Test1.png,stimuli/Test2.png,"(0.7, 0.5)",cs_minus_s,"(-0.7, -0.5)",cs_minus_s,0,0,0,0,,,,,0,45,45,67,,286.59204130002763,ä,0.6679580999771133,correct,,31,D,2023-12-15_10h02.25.960,gca_discrimination,2022.2.4,144.00258073365416,
positions.xlsx,stimuli.xlsx,test.xlsx,stimuli/Social2.png,stimuli/Social1.png,stimuli/Nonsocial2.png,stimuli/Nonsocial1.png,stimuli/Test1.png,stimuli/Test2.png,"(0.7, -0.5)",cs_minus_s,"(0.7, 0.5)",cs_minus_s,0,0,0,0,,,,,0,46,46,71,,289.5780686000362,ä,0.3621218999614939,correct,,31,D,2023-12-15_10h02.25.960,gca_discrimination,2022.2.4,144.00258073365416,
positions.xlsx,stimuli.xlsx,test.xlsx,stimuli/Social2.png,stimuli/Social1.png,stimuli/Nonsocial2.png,stimuli/Nonsocial1.png,stimuli/Test1.png,stimuli/Test2.png,"(0.7, 0.5)",cs_plus_s,"(-0.7, 0.5)",cs_minus_s,0,0,0,0,,,,,0,47,47,6,,292.0224064999493,l,0.44548939995002,correct,,31,D,2023-12-15_10h02.25.960,gca_discrimination,2022.2.4,144.00258073365416,
positions.xlsx,stimuli.xlsx,test.xlsx,stimuli/Social2.png,stimuli/Social1.png,stimuli/Nonsocial2.png,stimuli/Nonsocial1.png,stimuli/Test1.png,stimuli/Test2.png,"(0.7, -0.5)",cs_plus_s,"(-0.7, 0.5)",cs_minus_s,0,0,0,0,,,,,0,48,48,9,,295.2861787000438,l,0.8782687999773771,correct,,31,D,2023-12-15_10h02.25.960,gca_discrimination,2022.2.4,144.00258073365416,
positions.xlsx,stimuli.xlsx,test.xlsx,stimuli/Social2.png,stimuli/Social1.png,stimuli/Nonsocial2.png,stimuli/Nonsocial1.png,stimuli/Test1.png,stimuli/Test2.png,"(-0.7, -0.5)",cs_plus_s,"(0.7, 0.5)",cs_plus_s,0,0,0,0,,,,,0,49,49,52,,298.50825369998347,ä,0.9199345000088215,correct,,31,D,2023-12-15_10h02.25.960,gca_discrimination,2022.2.4,144.00258073365416,
positions.xlsx,stimuli.xlsx,test.xlsx,stimuli/Social2.png,stimuli/Social1.png,stimuli/Nonsocial2.png,stimuli/Nonsocial1.png,stimuli/Test1.png,stimuli/Test2.png,"(-0.7, -0.5)",cs_plus_ns,"(0.7, 0.5)",cs_plus_ns,0,0,0,0,,,,,0,50,50,76,,301.39010119996965,ä,0.6460509999888018,correct,,31,D,2023-12-15_10h02.25.960,gca_discrimination,2022.2.4,144.00258073365416,
positions.xlsx,stimuli.xlsx,test.xlsx,stimuli/Social2.png,stimuli/Social1.png,stimuli/Nonsocial2.png,stimuli/Nonsocial1.png,stimuli/Test1.png,stimuli/Test2.png,"(0.7, 0.5)",cs_plus_s,"(-0.7, -0.5)",cs_minus_s,0,0,0,0,,,,,0,51,51,7,,304.26496489997953,l,0.8835152999963611,correct,,31,D,2023-12-15_10h02.25.960,gca_discrimination,2022.2.4,144.00258073365416,
positions.xlsx,stimuli.xlsx,test.xlsx,stimuli/Social2.png,stimuli/Social1.png,stimuli/Nonsocial2.png,stimuli/Nonsocial1.png,stimuli/Test1.png,stimuli/Test2.png,"(-0.7, 0.5)",cs_minus_s,"(-0.7, -0.5)",cs_minus_s,0,0,0,0,,,,,0,52,52,60,,307.3204153999686,ä,0.5156990999821573,correct,,31,D,2023-12-15_10h02.25.960,gca_discrimination,2022.2.4,144.00258073365416,
positions.xlsx,stimuli.xlsx,test.xlsx,stimuli/Social2.png,stimuli/Social1.png,stimuli/Nonsocial2.png,stimuli/Nonsocial1.png,stimuli/Test1.png,stimuli/Test2.png,"(-0.7, -0.5)",cs_plus_ns,"(0.7, -0.5)",cs_plus_ns,0,0,0,0,,,,,0,53,53,77,,310.59113049996085,ä,0.6142761999508366,correct,,31,D,2023-12-15_10h02.25.960,gca_discrimination,2022.2.4,144.00258073365416,
positions.xlsx,stimuli.xlsx,test.xlsx,stimuli/Social2.png,stimuli/Social1.png,stimuli/Nonsocial2.png,stimuli/Nonsocial1.png,stimuli/Test1.png,stimuli/Test2.png,"(-0.7, -0.5)",cs_plus_ns,"(0.7, -0.5)",cs_minus_ns,0,0,0,0,,,,,0,54,54,29,,313.72300520003773,l,0.5055023999884725,correct,,31,D,2023-12-15_10h02.25.960,gca_discrimination,2022.2.4,144.00258073365416,
positions.xlsx,stimuli.xlsx,test.xlsx,stimuli/Social2.png,stimuli/Social1.png,stimuli/Nonsocial2.png,stimuli/Nonsocial1.png,stimuli/Test1.png,stimuli/Test2.png,"(0.7, 0.5)",cs_plus_ns,"(-0.7, -0.5)",cs_minus_ns,0,0,0,0,,,,,0,55,55,31,,316.43118960002903,l,0.6284423000179231,correct,,31,D,2023-12-15_10h02.25.960,gca_discrimination,2022.2.4,144.00258073365416,
positions.xlsx,stimuli.xlsx,test.xlsx,stimuli/Social2.png,stimuli/Social1.png,stimuli/Nonsocial2.png,stimuli/Nonsocial1.png,stimuli/Test1.png,stimuli/Test2.png,"(0.7, 0.5)",cs_plus_s,"(0.7, -0.5)",cs_minus_s,0,0,0,0,,,,,0,56,56,8,,319.4657789999619,l,0.5940287000266835,correct,,31,D,2023-12-15_10h02.25.960,gca_discrimination,2022.2.4,144.00258073365416,
positions.xlsx,stimuli.xlsx,test.xlsx,stimuli/Social2.png,stimuli/Social1.png,stimuli/Nonsocial2.png,stimuli/Nonsocial1.png,stimuli/Test1.png,stimuli/Test2.png,"(-0.7, -0.5)",cs_minus_s,"(0.7, 0.5)",cs_minus_s,0,0,0,0,,,,,0,57,57,64,,322.6531697999453,ä,0.518542299978435,correct,,31,D,2023-12-15_10h02.25.960,gca_discrimination,2022.2.4,144.00258073365416,
positions.xlsx,stimuli.xlsx,test.xlsx,stimuli/Social2.png,stimuli/Social1.png,stimuli/Nonsocial2.png,stimuli/Nonsocial1.png,stimuli/Test1.png,stimuli/Test2.png,"(0.7, 0.5)",cs_plus_s,"(-0.7, -0.5)",cs_plus_s,0,0,0,0,,,,,0,58,58,55,,325.85442099999636,ä,0.5332050999859348,correct,,31,D,2023-12-15_10h02.25.960,gca_discrimination,2022.2.4,144.00258073365416,
positions.xlsx,stimuli.xlsx,test.xlsx,stimuli/Social2.png,stimuli/Social1.png,stimuli/Nonsocial2.png,stimuli/Nonsocial1.png,stimuli/Test1.png,stimuli/Test2.png,"(0.7, 0.5)",cs_minus_s,"(-0.7, 0.5)",cs_plus_s,0,0,0,0,,,,,0,59,59,18,,329.15984979993664,l,0.7245759000070393,correct,,31,D,2023-12-15_10h02.25.960,gca_discrimination,2022.2.4,144.00258073365416,
positions.xlsx,stimuli.xlsx,test.xlsx,stimuli/Social2.png,stimuli/Social1.png,stimuli/Nonsocial2.png,stimuli/Nonsocial1.png,stimuli/Test1.png,stimuli/Test2.png,"(0.7, 0.5)",cs_minus_s,"(-0.7, 0.5)",cs_minus_s,0,0,0,0,,,,,0,60,60,66,,331.9097658999963,ä,0.7023015999002382,correct,,31,D,2023-12-15_10h02.25.960,gca_discrimination,2022.2.4,144.00258073365416,
positions.xlsx,stimuli.xlsx,test.xlsx,stimuli/Social2.png,stimuli/Social1.png,stimuli/Nonsocial2.png,stimuli/Nonsocial1.png,stimuli/Test1.png,stimuli/Test2.png,"(-0.7, 0.5)",cs_minus_s,"(0.7, -0.5)",cs_minus_s,0,0,0,0,,,,,0,61,61,62,,334.84711299999617,ä,0.44590940000489354,correct,,31,D,2023-12-15_10h02.25.960,gca_discrimination,2022.2.4,144.00258073365416,
positions.xlsx,stimuli.xlsx,test.xlsx,stimuli/Social2.png,stimuli/Social1.png,stimuli/Nonsocial2.png,stimuli/Nonsocial1.png,stimuli/Test1.png,stimuli/Test2.png,"(-0.7, 0.5)",cs_plus_ns,"(0.7, -0.5)",cs_minus_ns,0,0,0,0,,,,,0,62,62,26,,337.1178533999482,l,0.4944069000193849,correct,,31,D,2023-12-15_10h02.25.960,gca_discrimination,2022.2.4,144.00258073365416,
positions.xlsx,stimuli.xlsx,test.xlsx,stimuli/Social2.png,stimuli/Social1.png,stimuli/Nonsocial2.png,stimuli/Nonsocial1.png,stimuli/Test1.png,stimuli/Test2.png,"(0.7, -0.5)",cs_plus_ns,"(0.7, 0.5)",cs_minus_ns,0,0,0,0,,,,,0,63,63,35,,340.4163109000074,l,0.6844528000801802,correct,,31,D,2023-12-15_10h02.25.960,gca_discrimination,2022.2.4,144.00258073365416,
positions.xlsx,stimuli.xlsx,test.xlsx,stimuli/Social2.png,stimuli/Social1.png,stimuli/Nonsocial2.png,stimuli/Nonsocial1.png,stimuli/Test1.png,stimuli/Test2.png,"(-0.7, -0.5)",cs_minus_s,"(-0.7, 0.5)",cs_plus_s,0,0,0,0,,,,,0,64,64,15,,343.7773292999482,l,0.6679679999360815,correct,,31,D,2023-12-15_10h02.25.960,gca_discrimination,2022.2.4,144.00258073365416,
positions.xlsx,stimuli.xlsx,test.xlsx,stimuli/Social2.png,stimuli/Social1.png,stimuli/Nonsocial2.png,stimuli/Nonsocial1.png,stimuli/Test1.png,stimuli/Test2.png,"(-0.7, -0.5)",cs_minus_ns,"(-0.7, 0.5)",cs_plus_ns,0,0,0,0,,,,,0,65,65,39,,346.37446640001144,l,0.5103130000643432,correct,,31,D,2023-12-15_10h02.25.960,gca_discrimination,2022.2.4,144.00258073365416,
positions.xlsx,stimuli.xlsx,test.xlsx,stimuli/Social2.png,stimuli/Social1.png,stimuli/Nonsocial2.png,stimuli/Nonsocial1.png,stimuli/Test1.png,stimuli/Test2.png,"(0.7, -0.5)",cs_minus_s,"(0.7, 0.5)",cs_plus_s,0,0,0,0,,,,,0,66,66,23,,349.686852099956,l,0.5739524000091478,correct,,31,D,2023-12-15_10h02.25.960,gca_discrimination,2022.2.4,144.00258073365416,
positions.xlsx,stimuli.xlsx,test.xlsx,stimuli/Social2.png,stimuli/Social1.png,stimuli/Nonsocial2.png,stimuli/Nonsocial1.png,stimuli/Test1.png,stimuli/Test2.png,"(0.7, 0.5)",cs_minus_ns,"(-0.7, 0.5)",cs_plus_ns,0,0,0,0,,,,,0,67,67,42,,352.74922899995,l,0.5270788000198081,correct,,31,D,2023-12-15_10h02.25.960,gca_discrimination,2022.2.4,144.00258073365416,
positions.xlsx,stimuli.xlsx,test.xlsx,stimuli/Social2.png,stimuli/Social1.png,stimuli/Nonsocial2.png,stimuli/Nonsocial1.png,stimuli/Test1.png,stimuli/Test2.png,"(-0.7, -0.5)",cs_minus_s,"(0.7, -0.5)",cs_plus_s,0,0,0,0,,,,,0,68,68,17,,355.54075939999893,l,0.439179899985902,correct,,31,D,2023-12-15_10h02.25.960,gca_discrimination,2022.2.4,144.00258073365416,
positions.xlsx,stimuli.xlsx,test.xlsx,stimuli/Social2.png,stimuli/Social1.png,stimuli/Nonsocial2.png,stimuli/Nonsocial1.png,stimuli/Test1.png,stimuli/Test2.png,"(0.7, 0.5)",cs_minus_ns,"(-0.7, -0.5)",cs_plus_ns,0,0,0,0,,,,,0,69,69,43,,358.7628532999661,l,0.401781199965626,correct,,31,D,2023-12-15_10h02.25.960,gca_discrimination,2022.2.4,144.00258073365416,
positions.xlsx,stimuli.xlsx,test.xlsx,stimuli/Social2.png,stimuli/Social1.png,stimuli/Nonsocial2.png,stimuli/Nonsocial1.png,stimuli/Test1.png,stimuli/Test2.png,"(0.7, -0.5)",cs_plus_s,"(0.7, 0.5)",cs_plus_s,0,0,0,0,,,,,0,70,70,59,,361.00581240002066,ä,0.6226155000040308,correct,,31,D,2023-12-15_10h02.25.960,gca_discrimination,2022.2.4,144.00258073365416,
positions.xlsx,stimuli.xlsx,test.xlsx,stimuli/Social2.png,stimuli/Social1.png,stimuli/Nonsocial2.png,stimuli/Nonsocial1.png,stimuli/Test1.png,stimuli/Test2.png,"(-0.7, 0.5)",cs_minus_ns,"(0.7, 0.5)",cs_minus_ns,0,0,0,0,,,,,0,71,71,85,,363.54740969999693,ä,0.3442991999909282,correct,,31,D,2023-12-15_10h02.25.960,gca_discrimination,2022.2.4,144.00258073365416,
positions.xlsx,stimuli.xlsx,test.xlsx,stimuli/Social2.png,stimuli/Social1.png,stimuli/Nonsocial2.png,stimuli/Nonsocial1.png,stimuli/Test1.png,stimuli/Test2.png,"(-0.7, 0.5)",cs_minus_ns,"(0.7, 0.5)",cs_plus_ns,0,0,0,0,,,,,0,72,72,37,,366.5889492999995,l,0.6556450000498444,correct,,31,D,2023-12-15_10h02.25.960,gca_discrimination,2022.2.4,144.00258073365416,
positions.xlsx,stimuli.xlsx,test.xlsx,stimuli/Social2.png,stimuli/Social1.png,stimuli/Nonsocial2.png,stimuli/Nonsocial1.png,stimuli/Test1.png,stimuli/Test2.png,"(-0.7, 0.5)",cs_plus_ns,"(0.7, 0.5)",cs_minus_ns,0,0,0,0,,,,,0,73,73,25,,369.0958045000443,l,1.037181599996984,correct,,31,D,2023-12-15_10h02.25.960,gca_discrimination,2022.2.4,144.00258073365416,
positions.xlsx,stimuli.xlsx,test.xlsx,stimuli/Social2.png,stimuli/Social1.png,stimuli/Nonsocial2.png,stimuli/Nonsocial1.png,stimuli/Test1.png,stimuli/Test2.png,"(-0.7, 0.5)",cs_minus_ns,"(-0.7, -0.5)",cs_plus_ns,0,0,0,0,,,,,0,74,74,36,,372.08176930004265,l,0.6184534999774769,correct,,31,D,2023-12-15_10h02.25.960,gca_discrimination,2022.2.4,144.00258073365416,
positions.xlsx,stimuli.xlsx,test.xlsx,stimuli/Social2.png,stimuli/Social1.png,stimuli/Nonsocial2.png,stimuli/Nonsocial1.png,stimuli/Test1.png,stimuli/Test2.png,"(-0.7, -0.5)",cs_minus_s,"(0.7, -0.5)",cs_minus_s,0,0,0,0,,,,,0,75,75,65,,374.8664137000451,ä,0.8349389999639243,correct,,31,D,2023-12-15_10h02.25.960,gca_discrimination,2022.2.4,144.00258073365416,
positions.xlsx,stimuli.xlsx,test.xlsx,stimuli/Social2.png,stimuli/Social1.png,stimuli/Nonsocial2.png,stimuli/Nonsocial1.png,stimuli/Test1.png,stimuli/Test2.png,"(-0.7, 0.5)",cs_plus_s,"(0.7, -0.5)",cs_minus_s,0,0,0,0,,,,,0,76,76,2,,377.7135047999909,l,0.5543526000110433,correct,,31,D,2023-12-15_10h02.25.960,gca_discrimination,2022.2.4,144.00258073365416,
positions.xlsx,stimuli.xlsx,test.xlsx,stimuli/Social2.png,stimuli/Social1.png,stimuli/Nonsocial2.png,stimuli/Nonsocial1.png,stimuli/Test1.png,stimuli/Test2.png,"(0.7, -0.5)",cs_minus_ns,"(-0.7, -0.5)",cs_plus_ns,0,0,0,0,,,,,0,77,77,46,,380.77590849995613,l,0.47595089999958873,correct,,31,D,2023-12-15_10h02.25.960,gca_discrimination,2022.2.4,144.00258073365416,
positions.xlsx,stimuli.xlsx,test.xlsx,stimuli/Social2.png,stimuli/Social1.png,stimuli/Nonsocial2.png,stimuli/Nonsocial1.png,stimuli/Test1.png,stimuli/Test2.png,"(-0.7, -0.5)",cs_plus_ns,"(-0.7, 0.5)",cs_plus_ns,0,0,0,0,,,,,0,78,78,75,,383.7688363000052,ä,0.6351632999721915,correct,,31,D,2023-12-15_10h02.25.960,gca_discrimination,2022.2.4,144.00258073365416,
positions.xlsx,stimuli.xlsx,test.xlsx,stimuli/Social2.png,stimuli/Social1.png,stimuli/Nonsocial2.png,stimuli/Nonsocial1.png,stimuli/Test1.png,stimuli/Test2.png,"(0.7, -0.5)",cs_minus_ns,"(-0.7, 0.5)",cs_plus_ns,0,0,0,0,,,,,0,79,79,45,,387.07426180003677,l,1.137716899975203,correct,,31,D,2023-12-15_10h02.25.960,gca_discrimination,2022.2.4,144.00258073365416,
positions.xlsx,stimuli.xlsx,test.xlsx,stimuli/Social2.png,stimuli/Social1.png,stimuli/Nonsocial2.png,stimuli/Nonsocial1.png,stimuli/Test1.png,stimuli/Test2.png,"(0.7, 0.5)",cs_minus_s,"(-0.7, -0.5)",cs_plus_s,0,0,0,0,,,,,0,80,80,19,,390.22692089993507,l,0.545285000000149,correct,,31,D,2023-12-15_10h02.25.960,gca_discrimination,2022.2.4,144.00258073365416,
positions.xlsx,stimuli.xlsx,test.xlsx,stimuli/Social2.png,stimuli/Social1.png,stimuli/Nonsocial2.png,stimuli/Nonsocial1.png,stimuli/Test1.png,stimuli/Test2.png,"(-0.7, 0.5)",cs_minus_s,"(0.7, 0.5)",cs_minus_s,0,0,0,0,,,,,0,81,81,61,,393.5809380999999,ä,0.7428313000127673,correct,,31,D,2023-12-15_10h02.25.960,gca_discrimination,2022.2.4,144.00258073365416,
positions.xlsx,stimuli.xlsx,test.xlsx,stimuli/Social2.png,stimuli/Social1.png,stimuli/Nonsocial2.png,stimuli/Nonsocial1.png,stimuli/Test1.png,stimuli/Test2.png,"(0.7, -0.5)",cs_minus_s,"(-0.7, -0.5)",cs_plus_s,0,0,0,0,,,,,0,82,82,22,,396.46972349996213,l,0.6703623000066727,correct,,31,D,2023-12-15_10h02.25.960,gca_discrimination,2022.2.4,144.00258073365416,
positions.xlsx,stimuli.xlsx,test.xlsx,stimuli/Social2.png,stimuli/Social1.png,stimuli/Nonsocial2.png,stimuli/Nonsocial1.png,stimuli/Test1.png,stimuli/Test2.png,"(0.7, -0.5)",cs_minus_s,"(-0.7, 0.5)",cs_minus_s,0,0,0,0,,,,,0,83,83,69,,399.1154468000168,ä,0.4890280000399798,correct,,31,D,2023-12-15_10h02.25.960,gca_discrimination,2022.2.4,144.00258073365416,
positions.xlsx,stimuli.xlsx,test.xlsx,stimuli/Social2.png,stimuli/Social1.png,stimuli/Nonsocial2.png,stimuli/Nonsocial1.png,stimuli/Test1.png,stimuli/Test2.png,"(0.7, 0.5)",cs_minus_ns,"(-0.7, 0.5)",cs_minus_ns,0,0,0,0,,,,,0,84,84,90,,402.31673259998206,ä,0.471377499983646,correct,,31,D,2023-12-15_10h02.25.960,gca_discrimination,2022.2.4,144.00258073365416,
positions.xlsx,stimuli.xlsx,test.xlsx,stimuli/Social2.png,stimuli/Social1.png,stimuli/Nonsocial2.png,stimuli/Nonsocial1.png,stimuli/Test1.png,stimuli/Test2.png,"(-0.7, -0.5)",cs_plus_ns,"(-0.7, 0.5)",cs_minus_ns,0,0,0,0,,,,,0,85,85,27,,404.9902012000093,l,0.517748299986124,correct,,31,D,2023-12-15_10h02.25.960,gca_discrimination,2022.2.4,144.00258073365416,
positions.xlsx,stimuli.xlsx,test.xlsx,stimuli/Social2.png,stimuli/Social1.png,stimuli/Nonsocial2.png,stimuli/Nonsocial1.png,stimuli/Test1.png,stimuli/Test2.png,"(-0.7, 0.5)",cs_minus_s,"(-0.7, -0.5)",cs_plus_s,0,0,0,0,,,,,0,86,86,12,,408.1776496999664,l,0.7302546999417245,correct,,31,D,2023-12-15_10h02.25.960,gca_discrimination,2022.2.4,144.00258073365416,
positions.xlsx,stimuli.xlsx,test.xlsx,stimuli/Social2.png,stimuli/Social1.png,stimuli/Nonsocial2.png,stimuli/Nonsocial1.png,stimuli/Test1.png,stimuli/Test2.png,"(0.7, 0.5)",cs_plus_ns,"(-0.7, 0.5)",cs_minus_ns,0,0,0,0,,,,,0,87,87,30,,411.55943389993627,l,0.46853750001173466,correct,,31,D,2023-12-15_10h02.25.960,gca_discrimination,2022.2.4,144.00258073365416,
positions.xlsx,stimuli.xlsx,test.xlsx,stimuli/Social2.png,stimuli/Social1.png,stimuli/Nonsocial2.png,stimuli/Nonsocial1.png,stimuli/Test1.png,stimuli/Test2.png,"(0.7, -0.5)",cs_plus_s,"(-0.7, 0.5)",cs_plus_s,0,0,0,0,,,,,0,88,88,57,,414.0037577999756,ä,0.6567731999093667,correct,,31,D,2023-12-15_10h02.25.960,gca_discrimination,2022.2.4,144.00258073365416,
positions.xlsx,stimuli.xlsx,test.xlsx,stimuli/Social2.png,stimuli/Social1.png,stimuli/Nonsocial2.png,stimuli/Nonsocial1.png,stimuli/Test1.png,stimuli/Test2.png,"(-0.7, -0.5)",cs_minus_ns,"(0.7, -0.5)",cs_plus_ns,0,0,0,0,,,,,0,89,89,41,,417.1633909000084,l,0.5290823000250384,correct,,31,D,2023-12-15_10h02.25.960,gca_discrimination,2022.2.4,144.00258073365416,
positions.xlsx,stimuli.xlsx,test.xlsx,stimuli/Social2.png,stimuli/Social1.png,stimuli/Nonsocial2.png,stimuli/Nonsocial1.png,stimuli/Test1.png,stimuli/Test2.png,"(-0.7, 0.5)",cs_plus_ns,"(0.7, -0.5)",cs_plus_ns,0,0,0,0,,,,,0,90,90,74,,420.2743757000426,ä,0.905320500023663,correct,,31,D,2023-12-15_10h02.25.960,gca_discrimination,2022.2.4,144.00258073365416,
positions.xlsx,stimuli.xlsx,test.xlsx,stimuli/Social2.png,stimuli/Social1.png,stimuli/Nonsocial2.png,stimuli/Nonsocial1.png,stimuli/Test1.png,stimuli/Test2.png,"(-0.7, -0.5)",cs_minus_s,"(0.7, 0.5)",cs_plus_s,0,0,0,0,,,,,0,91,91,16,,423.5937491999939,l,0.538753200089559,correct,,31,D,2023-12-15_10h02.25.960,gca_discrimination,2022.2.4,144.00258073365416,
positions.xlsx,stimuli.xlsx,test.xlsx,stimuli/Social2.png,stimuli/Social1.png,stimuli/Nonsocial2.png,stimuli/Nonsocial1.png,stimuli/Test1.png,stimuli/Test2.png,"(0.7, -0.5)",cs_plus_ns,"(-0.7, 0.5)",cs_plus_ns,0,0,0,0,,,,,0,92,92,81,,426.86442210001405,ä,0.5795632000081241,correct,,31,D,2023-12-15_10h02.25.960,gca_discrimination,2022.2.4,144.00258073365416,
positions.xlsx,stimuli.xlsx,test.xlsx,stimuli/Social2.png,stimuli/Social1.png,stimuli/Nonsocial2.png,stimuli/Nonsocial1.png,stimuli/Test1.png,stimuli/Test2.png,"(-0.7, 0.5)",cs_minus_s,"(0.7, -0.5)",cs_plus_s,0,0,0,0,,,,,0,93,93,14,,429.7184194000438,l,0.6061549999285489,correct,,31,D,2023-12-15_10h02.25.960,gca_discrimination,2022.2.4,144.00258073365416,
positions.xlsx,stimuli.xlsx,test.xlsx,stimuli/Social2.png,stimuli/Social1.png,stimuli/Nonsocial2.png,stimuli/Nonsocial1.png,stimuli/Test1.png,stimuli/Test2.png,"(-0.7, -0.5)",cs_plus_s,"(-0.7, 0.5)",cs_plus_s,0,0,0,0,,,,,0,94,94,51,,433.14192860003095,ä,0.8384205000475049,correct,,31,D,2023-12-15_10h02.25.960,gca_discrimination,2022.2.4,144.00258073365416,
positions.xlsx,stimuli.xlsx,test.xlsx,stimuli/Social2.png,stimuli/Social1.png,stimuli/Nonsocial2.png,stimuli/Nonsocial1.png,stimuli/Test1.png,stimuli/Test2.png,"(0.7, -0.5)",cs_minus_s,"(-0.7, 0.5)",cs_plus_s,0,0,0,0,,,,,0,95,95,21,,436.29461879993323,l,1.085783899994567,correct,,31,D,2023-12-15_10h02.25.960,gca_discrimination,2022.2.4,144.00258073365416,
