posFile,stimFile,testFile,cs_plus_s,cs_minus_s,cs_plus_ns,cs_minus_ns,test1,test2,position1,trialtype,position2,comptype,blocks.thisRepN,blocks.thisTrialN,blocks.thisN,blocks.thisIndex,learning_trials.thisRepN,learning_trials.thisTrialN,learning_trials.thisN,learning_trials.thisIndex,trials.thisRepN,trials.thisTrialN,trials.thisN,trials.thisIndex,textStart.started,key.started,key.keys,key.rt,correctness,textStartTask.started,participant,group,date,expName,psychopyVersion,frameRate,
positions.xlsx,stimuli.xlsx,test.xlsx,stimuli/Social1.png,stimuli/Social2.png,stimuli/Nonsocial1.png,stimuli/Nonsocial2.png,stimuli/Test1.png,stimuli/Test2.png,"(-0.7, -0.5)",test1,"(0.7, 0.5)",test2,0,0,0,0,0,0,0,8,,,,,9.142856299993582,38.78754980000667,ä,0.5599068000447005,correct,,26,A,2023-12-14_11h04.18.107,gca_discrimination,2022.2.4,144.05921425514848,
positions.xlsx,stimuli.xlsx,test.xlsx,stimuli/Social1.png,stimuli/Social2.png,stimuli/Nonsocial1.png,stimuli/Nonsocial2.png,stimuli/Test1.png,stimuli/Test2.png,"(-0.7, 0.5)",test2,"(0.7, 0.5)",test1,0,0,0,0,0,1,1,3,,,,,,43.6623742999509,ä,1.645327299949713,correct,,26,A,2023-12-14_11h04.18.107,gca_discrimination,2022.2.4,144.05921425514848,
positions.xlsx,stimuli.xlsx,test.xlsx,stimuli/Social1.png,stimuli/Social2.png,stimuli/Nonsocial1.png,stimuli/Nonsocial2.png,stimuli/Test1.png,stimuli/Test2.png,"(0.7, 0.5)",test2,"(-0.7, 0.5)",test1,0,0,0,0,0,2,2,13,,,,,,49.23860979999881,ä,0.9091060000937432,correct,,26,A,2023-12-14_11h04.18.107,gca_discrimination,2022.2.4,144.05921425514848,
positions.xlsx,stimuli.xlsx,test.xlsx,stimuli/Social1.png,stimuli/Social2.png,stimuli/Nonsocial1.png,stimuli/Nonsocial2.png,stimuli/Test1.png,stimuli/Test2.png,"(0.7, 0.5)",test2,"(0.7, -0.5)",test1,0,0,0,0,0,3,3,6,,,,,,54.738337700022385,ä,0.4739555000560358,correct,,26,A,2023-12-14_11h04.18.107,gca_discrimination,2022.2.4,144.05921425514848,
positions.xlsx,stimuli.xlsx,test.xlsx,stimuli/Social1.png,stimuli/Social2.png,stimuli/Nonsocial1.png,stimuli/Nonsocial2.png,stimuli/Test1.png,stimuli/Test2.png,"(-0.7, -0.5)",test2,"(-0.7, 0.5)",test2,0,0,0,0,0,4,4,2,,,,,,59.50900429999456,l,0.6304385000839829,correct,,26,A,2023-12-14_11h04.18.107,gca_discrimination,2022.2.4,144.05921425514848,
positions.xlsx,stimuli.xlsx,test.xlsx,stimuli/Social1.png,stimuli/Social2.png,stimuli/Nonsocial1.png,stimuli/Nonsocial2.png,stimuli/Test1.png,stimuli/Test2.png,"(0.7, -0.5)",test1,"(0.7, 0.5)",test1,0,0,0,0,0,5,5,10,,,,,,64.1060315000359,l,0.7216245000017807,correct,,26,A,2023-12-14_11h04.18.107,gca_discrimination,2022.2.4,144.05921425514848,
positions.xlsx,stimuli.xlsx,test.xlsx,stimuli/Social1.png,stimuli/Social2.png,stimuli/Nonsocial1.png,stimuli/Nonsocial2.png,stimuli/Test1.png,stimuli/Test2.png,"(-0.7, -0.5)",test2,"(0.7, -0.5)",test2,0,0,0,0,0,6,6,9,,,,,,68.64752809994388,l,0.30825040000490844,correct,,26,A,2023-12-14_11h04.18.107,gca_discrimination,2022.2.4,144.05921425514848,
positions.xlsx,stimuli.xlsx,test.xlsx,stimuli/Social1.png,stimuli/Social2.png,stimuli/Nonsocial1.png,stimuli/Nonsocial2.png,stimuli/Test1.png,stimuli/Test2.png,"(0.7, -0.5)",test1,"(0.7, 0.5)",test2,0,0,0,0,0,7,7,0,,,,,,73.00847829994746,ä,0.5085465000011027,correct,,26,A,2023-12-14_11h04.18.107,gca_discrimination,2022.2.4,144.05921425514848,
positions.xlsx,stimuli.xlsx,test.xlsx,stimuli/Social1.png,stimuli/Social2.png,stimuli/Nonsocial1.png,stimuli/Nonsocial2.png,stimuli/Test1.png,stimuli/Test2.png,"(-0.7, 0.5)",test2,"(0.7, -0.5)",test1,0,0,0,0,0,8,8,12,,,,,,78.0638367999345,ä,1.2197160000214353,correct,,26,A,2023-12-14_11h04.18.107,gca_discrimination,2022.2.4,144.05921425514848,
positions.xlsx,stimuli.xlsx,test.xlsx,stimuli/Social1.png,stimuli/Social2.png,stimuli/Nonsocial1.png,stimuli/Nonsocial2.png,stimuli/Test1.png,stimuli/Test2.png,"(-0.7, -0.5)",test2,"(0.7, 0.5)",test2,0,0,0,0,0,9,9,7,,,,,,83.29275679995771,ä,0.31983940000645816,wrong,,26,A,2023-12-14_11h04.18.107,gca_discrimination,2022.2.4,144.05921425514848,
positions.xlsx,stimuli.xlsx,test.xlsx,stimuli/Social1.png,stimuli/Social2.png,stimuli/Nonsocial1.png,stimuli/Nonsocial2.png,stimuli/Test1.png,stimuli/Test2.png,"(0.7, 0.5)",test1,"(0.7, -0.5)",test2,0,0,0,0,0,10,10,11,,,,,,87.79955560003873,ä,0.9483633999479935,correct,,26,A,2023-12-14_11h04.18.107,gca_discrimination,2022.2.4,144.05921425514848,
positions.xlsx,stimuli.xlsx,test.xlsx,stimuli/Social1.png,stimuli/Social2.png,stimuli/Nonsocial1.png,stimuli/Nonsocial2.png,stimuli/Test1.png,stimuli/Test2.png,"(0.7, -0.5)",test2,"(-0.7, 0.5)",test1,0,0,0,0,0,11,11,4,,,,,,93.31324689998291,ä,0.39513769990298897,correct,,26,A,2023-12-14_11h04.18.107,gca_discrimination,2022.2.4,144.05921425514848,
positions.xlsx,stimuli.xlsx,test.xlsx,stimuli/Social1.png,stimuli/Social2.png,stimuli/Nonsocial1.png,stimuli/Nonsocial2.png,stimuli/Test1.png,stimuli/Test2.png,"(-0.7, 0.5)",test2,"(-0.7, -0.5)",test2,0,0,0,0,0,12,12,1,,,,,,97.68112950003706,l,0.5948534000199288,correct,,26,A,2023-12-14_11h04.18.107,gca_discrimination,2022.2.4,144.05921425514848,
positions.xlsx,stimuli.xlsx,test.xlsx,stimuli/Social1.png,stimuli/Social2.png,stimuli/Nonsocial1.png,stimuli/Nonsocial2.png,stimuli/Test1.png,stimuli/Test2.png,"(-0.7, 0.5)",test1,"(0.7, -0.5)",test1,0,0,0,0,0,13,13,5,,,,,,102.63925779995043,l,0.6041001999983564,correct,,26,A,2023-12-14_11h04.18.107,gca_discrimination,2022.2.4,144.05921425514848,
positions.xlsx,stimuli.xlsx,test.xlsx,stimuli/Social1.png,stimuli/Social2.png,stimuli/Nonsocial1.png,stimuli/Nonsocial2.png,stimuli/Test1.png,stimuli/Test2.png,"(0.7, 0.5)",cs_plus_ns,"(0.7, -0.5)",cs_minus_ns,0,0,0,0,,,,,0,0,0,32,,113.27078659995459,ä,0.9007375999353826,correct,105.91689410002436,26,A,2023-12-14_11h04.18.107,gca_discrimination,2022.2.4,144.05921425514848,
positions.xlsx,stimuli.xlsx,test.xlsx,stimuli/Social1.png,stimuli/Social2.png,stimuli/Nonsocial1.png,stimuli/Nonsocial2.png,stimuli/Test1.png,stimuli/Test2.png,"(0.7, 0.5)",cs_minus_s,"(-0.7, -0.5)",cs_minus_s,0,0,0,0,,,,,0,1,1,67,,116.84009309997782,l,0.6600136000197381,correct,,26,A,2023-12-14_11h04.18.107,gca_discrimination,2022.2.4,144.05921425514848,
positions.xlsx,stimuli.xlsx,test.xlsx,stimuli/Social1.png,stimuli/Social2.png,stimuli/Nonsocial1.png,stimuli/Nonsocial2.png,stimuli/Test1.png,stimuli/Test2.png,"(0.7, -0.5)",cs_plus_s,"(-0.7, -0.5)",cs_minus_s,0,0,0,0,,,,,0,2,2,10,,120.0344084999524,ä,0.6017076999414712,correct,,26,A,2023-12-14_11h04.18.107,gca_discrimination,2022.2.4,144.05921425514848,
positions.xlsx,stimuli.xlsx,test.xlsx,stimuli/Social1.png,stimuli/Social2.png,stimuli/Nonsocial1.png,stimuli/Nonsocial2.png,stimuli/Test1.png,stimuli/Test2.png,"(-0.7, 0.5)",cs_plus_s,"(0.7, 0.5)",cs_minus_s,0,0,0,0,,,,,0,3,3,1,,123.2356830999488,ä,0.9281700999708846,correct,,26,A,2023-12-14_11h04.18.107,gca_discrimination,2022.2.4,144.05921425514848,
positions.xlsx,stimuli.xlsx,test.xlsx,stimuli/Social1.png,stimuli/Social2.png,stimuli/Nonsocial1.png,stimuli/Nonsocial2.png,stimuli/Test1.png,stimuli/Test2.png,"(0.7, -0.5)",cs_plus_ns,"(0.7, 0.5)",cs_plus_ns,0,0,0,0,,,,,0,4,4,83,,126.15916109993123,l,0.644464600016363,correct,,26,A,2023-12-14_11h04.18.107,gca_discrimination,2022.2.4,144.05921425514848,
positions.xlsx,stimuli.xlsx,test.xlsx,stimuli/Social1.png,stimuli/Social2.png,stimuli/Nonsocial1.png,stimuli/Nonsocial2.png,stimuli/Test1.png,stimuli/Test2.png,"(0.7, 0.5)",cs_plus_ns,"(0.7, -0.5)",cs_plus_ns,0,0,0,0,,,,,0,5,5,80,,129.3257124000229,l,0.4539295000722632,correct,,26,A,2023-12-14_11h04.18.107,gca_discrimination,2022.2.4,144.05921425514848,
positions.xlsx,stimuli.xlsx,test.xlsx,stimuli/Social1.png,stimuli/Social2.png,stimuli/Nonsocial1.png,stimuli/Nonsocial2.png,stimuli/Test1.png,stimuli/Test2.png,"(-0.7, -0.5)",cs_minus_ns,"(0.7, 0.5)",cs_plus_ns,0,0,0,0,,,,,0,6,6,40,,132.18672390002757,l,0.4175732000730932,wrong,,26,A,2023-12-14_11h04.18.107,gca_discrimination,2022.2.4,144.05921425514848,
positions.xlsx,stimuli.xlsx,test.xlsx,stimuli/Social1.png,stimuli/Social2.png,stimuli/Nonsocial1.png,stimuli/Nonsocial2.png,stimuli/Test1.png,stimuli/Test2.png,"(0.7, 0.5)",cs_minus_s,"(-0.7, -0.5)",cs_plus_s,0,0,0,0,,,,,0,7,7,19,,134.81161209999118,ä,0.8974534999579191,correct,,26,A,2023-12-14_11h04.18.107,gca_discrimination,2022.2.4,144.05921425514848,
positions.xlsx,stimuli.xlsx,test.xlsx,stimuli/Social1.png,stimuli/Social2.png,stimuli/Nonsocial1.png,stimuli/Nonsocial2.png,stimuli/Test1.png,stimuli/Test2.png,"(0.7, 0.5)",cs_plus_ns,"(-0.7, -0.5)",cs_plus_ns,0,0,0,0,,,,,0,8,8,79,,137.64483460003976,l,0.838548699975945,correct,,26,A,2023-12-14_11h04.18.107,gca_discrimination,2022.2.4,144.05921425514848,
positions.xlsx,stimuli.xlsx,test.xlsx,stimuli/Social1.png,stimuli/Social2.png,stimuli/Nonsocial1.png,stimuli/Nonsocial2.png,stimuli/Test1.png,stimuli/Test2.png,"(-0.7, 0.5)",cs_plus_s,"(0.7, -0.5)",cs_minus_s,0,0,0,0,,,,,0,9,9,2,,140.3669579999987,ä,0.7648983000544831,correct,,26,A,2023-12-14_11h04.18.107,gca_discrimination,2022.2.4,144.05921425514848,
positions.xlsx,stimuli.xlsx,test.xlsx,stimuli/Social1.png,stimuli/Social2.png,stimuli/Nonsocial1.png,stimuli/Nonsocial2.png,stimuli/Test1.png,stimuli/Test2.png,"(-0.7, -0.5)",cs_minus_ns,"(-0.7, 0.5)",cs_minus_ns,0,0,0,0,,,,,0,10,10,87,,143.8598837000318,l,0.7280209000455216,correct,,26,A,2023-12-14_11h04.18.107,gca_discrimination,2022.2.4,144.05921425514848,
positions.xlsx,stimuli.xlsx,test.xlsx,stimuli/Social1.png,stimuli/Social2.png,stimuli/Nonsocial1.png,stimuli/Nonsocial2.png,stimuli/Test1.png,stimuli/Test2.png,"(0.7, -0.5)",cs_minus_ns,"(-0.7, -0.5)",cs_plus_ns,0,0,0,0,,,,,0,11,11,46,,146.7208880999824,ä,0.5315358999650925,correct,,26,A,2023-12-14_11h04.18.107,gca_discrimination,2022.2.4,144.05921425514848,
positions.xlsx,stimuli.xlsx,test.xlsx,stimuli/Social1.png,stimuli/Social2.png,stimuli/Nonsocial1.png,stimuli/Nonsocial2.png,stimuli/Test1.png,stimuli/Test2.png,"(-0.7, -0.5)",cs_minus_ns,"(0.7, -0.5)",cs_plus_ns,0,0,0,0,,,,,0,12,12,41,,149.49162620003335,ä,1.1762681000400335,correct,,26,A,2023-12-14_11h04.18.107,gca_discrimination,2022.2.4,144.05921425514848,
positions.xlsx,stimuli.xlsx,test.xlsx,stimuli/Social1.png,stimuli/Social2.png,stimuli/Nonsocial1.png,stimuli/Nonsocial2.png,stimuli/Test1.png,stimuli/Test2.png,"(-0.7, 0.5)",cs_minus_s,"(0.7, -0.5)",cs_plus_s,0,0,0,0,,,,,0,13,13,14,,152.76230880001094,ä,0.8498594000702724,correct,,26,A,2023-12-14_11h04.18.107,gca_discrimination,2022.2.4,144.05921425514848,
positions.xlsx,stimuli.xlsx,test.xlsx,stimuli/Social1.png,stimuli/Social2.png,stimuli/Nonsocial1.png,stimuli/Nonsocial2.png,stimuli/Test1.png,stimuli/Test2.png,"(-0.7, 0.5)",cs_plus_ns,"(0.7, -0.5)",cs_minus_ns,0,0,0,0,,,,,0,14,14,26,,155.9635748999426,ä,1.0166186999995261,correct,,26,A,2023-12-14_11h04.18.107,gca_discrimination,2022.2.4,144.05921425514848,
positions.xlsx,stimuli.xlsx,test.xlsx,stimuli/Social1.png,stimuli/Social2.png,stimuli/Nonsocial1.png,stimuli/Nonsocial2.png,stimuli/Test1.png,stimuli/Test2.png,"(0.7, 0.5)",cs_minus_s,"(0.7, -0.5)",cs_plus_s,0,0,0,0,,,,,0,15,15,20,,159.32457219995558,ä,1.0549373999238014,correct,,26,A,2023-12-14_11h04.18.107,gca_discrimination,2022.2.4,144.05921425514848,
positions.xlsx,stimuli.xlsx,test.xlsx,stimuli/Social1.png,stimuli/Social2.png,stimuli/Nonsocial1.png,stimuli/Nonsocial2.png,stimuli/Test1.png,stimuli/Test2.png,"(-0.7, -0.5)",cs_minus_s,"(-0.7, 0.5)",cs_plus_s,0,0,0,0,,,,,0,16,16,15,,162.33139099995606,ä,0.4491985000204295,correct,,26,A,2023-12-14_11h04.18.107,gca_discrimination,2022.2.4,144.05921425514848,
positions.xlsx,stimuli.xlsx,test.xlsx,stimuli/Social1.png,stimuli/Social2.png,stimuli/Nonsocial1.png,stimuli/Nonsocial2.png,stimuli/Test1.png,stimuli/Test2.png,"(-0.7, 0.5)",cs_minus_s,"(0.7, -0.5)",cs_minus_s,0,0,0,0,,,,,0,17,17,62,,165.52571930002887,l,0.4140489000128582,correct,,26,A,2023-12-14_11h04.18.107,gca_discrimination,2022.2.4,144.05921425514848,
positions.xlsx,stimuli.xlsx,test.xlsx,stimuli/Social1.png,stimuli/Social2.png,stimuli/Nonsocial1.png,stimuli/Nonsocial2.png,stimuli/Test1.png,stimuli/Test2.png,"(0.7, 0.5)",cs_plus_s,"(-0.7, 0.5)",cs_minus_s,0,0,0,0,,,,,0,18,18,6,,168.52562850003596,ä,0.5264213000191376,correct,,26,A,2023-12-14_11h04.18.107,gca_discrimination,2022.2.4,144.05921425514848,
positions.xlsx,stimuli.xlsx,test.xlsx,stimuli/Social1.png,stimuli/Social2.png,stimuli/Nonsocial1.png,stimuli/Nonsocial2.png,stimuli/Test1.png,stimuli/Test2.png,"(-0.7, 0.5)",cs_minus_ns,"(0.7, 0.5)",cs_minus_ns,0,0,0,0,,,,,0,19,19,85,,171.060227900045,l,0.6090296000475064,correct,,26,A,2023-12-14_11h04.18.107,gca_discrimination,2022.2.4,144.05921425514848,
positions.xlsx,stimuli.xlsx,test.xlsx,stimuli/Social1.png,stimuli/Social2.png,stimuli/Nonsocial1.png,stimuli/Nonsocial2.png,stimuli/Test1.png,stimuli/Test2.png,"(0.7, 0.5)",cs_plus_ns,"(-0.7, -0.5)",cs_minus_ns,0,0,0,0,,,,,0,20,20,31,,174.07398779992945,ä,0.7141405999427661,correct,,26,A,2023-12-14_11h04.18.107,gca_discrimination,2022.2.4,144.05921425514848,
positions.xlsx,stimuli.xlsx,test.xlsx,stimuli/Social1.png,stimuli/Social2.png,stimuli/Nonsocial1.png,stimuli/Nonsocial2.png,stimuli/Test1.png,stimuli/Test2.png,"(0.7, -0.5)",cs_minus_ns,"(0.7, 0.5)",cs_plus_ns,0,0,0,0,,,,,0,21,21,47,,177.48364120000042,ä,0.7856575000332668,correct,,26,A,2023-12-14_11h04.18.107,gca_discrimination,2022.2.4,144.05921425514848,
positions.xlsx,stimuli.xlsx,test.xlsx,stimuli/Social1.png,stimuli/Social2.png,stimuli/Nonsocial1.png,stimuli/Nonsocial2.png,stimuli/Test1.png,stimuli/Test2.png,"(-0.7, -0.5)",cs_minus_s,"(0.7, -0.5)",cs_minus_s,0,0,0,0,,,,,0,22,22,65,,180.5320905999979,l,0.5361828000750393,correct,,26,A,2023-12-14_11h04.18.107,gca_discrimination,2022.2.4,144.05921425514848,
positions.xlsx,stimuli.xlsx,test.xlsx,stimuli/Social1.png,stimuli/Social2.png,stimuli/Nonsocial1.png,stimuli/Nonsocial2.png,stimuli/Test1.png,stimuli/Test2.png,"(-0.7, 0.5)",cs_plus_s,"(0.7, -0.5)",cs_plus_s,0,0,0,0,,,,,0,23,23,50,,183.3514127000235,l,0.5400354000739753,correct,,26,A,2023-12-14_11h04.18.107,gca_discrimination,2022.2.4,144.05921425514848,
positions.xlsx,stimuli.xlsx,test.xlsx,stimuli/Social1.png,stimuli/Social2.png,stimuli/Nonsocial1.png,stimuli/Nonsocial2.png,stimuli/Test1.png,stimuli/Test2.png,"(-0.7, 0.5)",cs_minus_ns,"(0.7, -0.5)",cs_minus_ns,0,0,0,0,,,,,0,24,24,86,,186.64990349998698,l,0.4821680999593809,correct,,26,A,2023-12-14_11h04.18.107,gca_discrimination,2022.2.4,144.05921425514848,
positions.xlsx,stimuli.xlsx,test.xlsx,stimuli/Social1.png,stimuli/Social2.png,stimuli/Nonsocial1.png,stimuli/Nonsocial2.png,stimuli/Test1.png,stimuli/Test2.png,"(-0.7, -0.5)",cs_minus_s,"(-0.7, 0.5)",cs_minus_s,0,0,0,0,,,,,0,25,25,63,,189.6567439000355,l,0.35548600007314235,correct,,26,A,2023-12-14_11h04.18.107,gca_discrimination,2022.2.4,144.05921425514848,
positions.xlsx,stimuli.xlsx,test.xlsx,stimuli/Social1.png,stimuli/Social2.png,stimuli/Nonsocial1.png,stimuli/Nonsocial2.png,stimuli/Test1.png,stimuli/Test2.png,"(-0.7, -0.5)",cs_plus_ns,"(0.7, 0.5)",cs_minus_ns,0,0,0,0,,,,,0,26,26,28,,192.58022270002402,ä,0.759912500041537,correct,,26,A,2023-12-14_11h04.18.107,gca_discrimination,2022.2.4,144.05921425514848,
positions.xlsx,stimuli.xlsx,test.xlsx,stimuli/Social1.png,stimuli/Social2.png,stimuli/Nonsocial1.png,stimuli/Nonsocial2.png,stimuli/Test1.png,stimuli/Test2.png,"(-0.7, 0.5)",cs_minus_s,"(-0.7, -0.5)",cs_minus_s,0,0,0,0,,,,,0,27,27,60,,195.39263240003493,l,0.7085074000060558,correct,,26,A,2023-12-14_11h04.18.107,gca_discrimination,2022.2.4,144.05921425514848,
positions.xlsx,stimuli.xlsx,test.xlsx,stimuli/Social1.png,stimuli/Social2.png,stimuli/Nonsocial1.png,stimuli/Nonsocial2.png,stimuli/Test1.png,stimuli/Test2.png,"(-0.7, -0.5)",cs_plus_s,"(-0.7, 0.5)",cs_plus_s,0,0,0,0,,,,,0,28,28,51,,198.01059179997537,l,0.49859589990228415,correct,,26,A,2023-12-14_11h04.18.107,gca_discrimination,2022.2.4,144.05921425514848,
positions.xlsx,stimuli.xlsx,test.xlsx,stimuli/Social1.png,stimuli/Social2.png,stimuli/Nonsocial1.png,stimuli/Nonsocial2.png,stimuli/Test1.png,stimuli/Test2.png,"(-0.7, 0.5)",cs_plus_s,"(0.7, 0.5)",cs_plus_s,0,0,0,0,,,,,0,29,29,49,,201.17710820003413,l,0.4908343000570312,correct,,26,A,2023-12-14_11h04.18.107,gca_discrimination,2022.2.4,144.05921425514848,
positions.xlsx,stimuli.xlsx,test.xlsx,stimuli/Social1.png,stimuli/Social2.png,stimuli/Nonsocial1.png,stimuli/Nonsocial2.png,stimuli/Test1.png,stimuli/Test2.png,"(-0.7, -0.5)",cs_minus_ns,"(-0.7, 0.5)",cs_plus_ns,0,0,0,0,,,,,0,30,30,39,,204.1075824999716,ä,0.49628219997975975,correct,,26,A,2023-12-14_11h04.18.107,gca_discrimination,2022.2.4,144.05921425514848,
positions.xlsx,stimuli.xlsx,test.xlsx,stimuli/Social1.png,stimuli/Social2.png,stimuli/Nonsocial1.png,stimuli/Nonsocial2.png,stimuli/Test1.png,stimuli/Test2.png,"(-0.7, -0.5)",cs_plus_s,"(0.7, 0.5)",cs_minus_s,0,0,0,0,,,,,0,31,31,4,,206.9060628999723,ä,1.9694041999755427,correct,,26,A,2023-12-14_11h04.18.107,gca_discrimination,2022.2.4,144.05921425514848,
positions.xlsx,stimuli.xlsx,test.xlsx,stimuli/Social1.png,stimuli/Social2.png,stimuli/Nonsocial1.png,stimuli/Nonsocial2.png,stimuli/Test1.png,stimuli/Test2.png,"(0.7, -0.5)",cs_minus_s,"(-0.7, -0.5)",cs_plus_s,0,0,0,0,,,,,0,32,32,22,,210.69758889998775,ä,0.6666058999253437,correct,,26,A,2023-12-14_11h04.18.107,gca_discrimination,2022.2.4,144.05921425514848,
positions.xlsx,stimuli.xlsx,test.xlsx,stimuli/Social1.png,stimuli/Social2.png,stimuli/Nonsocial1.png,stimuli/Nonsocial2.png,stimuli/Test1.png,stimuli/Test2.png,"(-0.7, 0.5)",cs_minus_s,"(0.7, 0.5)",cs_plus_s,0,0,0,0,,,,,0,33,33,13,,213.61414920003153,ä,1.2618138999678195,correct,,26,A,2023-12-14_11h04.18.107,gca_discrimination,2022.2.4,144.05921425514848,
positions.xlsx,stimuli.xlsx,test.xlsx,stimuli/Social1.png,stimuli/Social2.png,stimuli/Nonsocial1.png,stimuli/Nonsocial2.png,stimuli/Test1.png,stimuli/Test2.png,"(0.7, -0.5)",cs_plus_ns,"(-0.7, -0.5)",cs_plus_ns,0,0,0,0,,,,,0,34,34,82,,217.09319909999613,l,0.8635089000454172,correct,,26,A,2023-12-14_11h04.18.107,gca_discrimination,2022.2.4,144.05921425514848,
positions.xlsx,stimuli.xlsx,test.xlsx,stimuli/Social1.png,stimuli/Social2.png,stimuli/Nonsocial1.png,stimuli/Nonsocial2.png,stimuli/Test1.png,stimuli/Test2.png,"(0.7, 0.5)",cs_minus_ns,"(0.7, -0.5)",cs_plus_ns,0,0,0,0,,,,,0,35,35,44,,219.80141209997237,ä,0.6992167999269441,correct,,26,A,2023-12-14_11h04.18.107,gca_discrimination,2022.2.4,144.05921425514848,
positions.xlsx,stimuli.xlsx,test.xlsx,stimuli/Social1.png,stimuli/Social2.png,stimuli/Nonsocial1.png,stimuli/Nonsocial2.png,stimuli/Test1.png,stimuli/Test2.png,"(0.7, 0.5)",cs_minus_s,"(0.7, -0.5)",cs_minus_s,0,0,0,0,,,,,0,36,36,68,,222.9748952999944,l,0.5965948000084609,correct,,26,A,2023-12-14_11h04.18.107,gca_discrimination,2022.2.4,144.05921425514848,
positions.xlsx,stimuli.xlsx,test.xlsx,stimuli/Social1.png,stimuli/Social2.png,stimuli/Nonsocial1.png,stimuli/Nonsocial2.png,stimuli/Test1.png,stimuli/Test2.png,"(-0.7, -0.5)",cs_plus_ns,"(0.7, -0.5)",cs_minus_ns,0,0,0,0,,,,,0,37,37,29,,226.35672129993327,ä,0.8068691999651492,correct,,26,A,2023-12-14_11h04.18.107,gca_discrimination,2022.2.4,144.05921425514848,
positions.xlsx,stimuli.xlsx,test.xlsx,stimuli/Social1.png,stimuli/Social2.png,stimuli/Nonsocial1.png,stimuli/Nonsocial2.png,stimuli/Test1.png,stimuli/Test2.png,"(0.7, -0.5)",cs_minus_ns,"(-0.7, 0.5)",cs_minus_ns,0,0,0,0,,,,,0,38,38,93,,229.45381199999247,l,0.453959499951452,correct,,26,A,2023-12-14_11h04.18.107,gca_discrimination,2022.2.4,144.05921425514848,
positions.xlsx,stimuli.xlsx,test.xlsx,stimuli/Social1.png,stimuli/Social2.png,stimuli/Nonsocial1.png,stimuli/Nonsocial2.png,stimuli/Test1.png,stimuli/Test2.png,"(0.7, 0.5)",cs_plus_s,"(0.7, -0.5)",cs_minus_s,0,0,0,0,,,,,0,39,39,8,,232.64119310001843,ä,0.5869121999712661,correct,,26,A,2023-12-14_11h04.18.107,gca_discrimination,2022.2.4,144.05921425514848,
positions.xlsx,stimuli.xlsx,test.xlsx,stimuli/Social1.png,stimuli/Social2.png,stimuli/Nonsocial1.png,stimuli/Nonsocial2.png,stimuli/Test1.png,stimuli/Test2.png,"(0.7, 0.5)",cs_minus_s,"(-0.7, 0.5)",cs_minus_s,0,0,0,0,,,,,0,40,40,66,,235.21053479996044,l,0.9371081000426784,correct,,26,A,2023-12-14_11h04.18.107,gca_discrimination,2022.2.4,144.05921425514848,
positions.xlsx,stimuli.xlsx,test.xlsx,stimuli/Social1.png,stimuli/Social2.png,stimuli/Nonsocial1.png,stimuli/Nonsocial2.png,stimuli/Test1.png,stimuli/Test2.png,"(0.7, 0.5)",cs_plus_s,"(-0.7, 0.5)",cs_plus_s,0,0,0,0,,,,,0,41,41,54,,238.3354316999903,l,1.0681578000076115,correct,,26,A,2023-12-14_11h04.18.107,gca_discrimination,2022.2.4,144.05921425514848,
positions.xlsx,stimuli.xlsx,test.xlsx,stimuli/Social1.png,stimuli/Social2.png,stimuli/Nonsocial1.png,stimuli/Nonsocial2.png,stimuli/Test1.png,stimuli/Test2.png,"(-0.7, 0.5)",cs_plus_ns,"(0.7, 0.5)",cs_minus_ns,0,0,0,0,,,,,0,42,42,25,,242.18942039995454,ä,0.46282030001748353,correct,,26,A,2023-12-14_11h04.18.107,gca_discrimination,2022.2.4,144.05921425514848,
positions.xlsx,stimuli.xlsx,test.xlsx,stimuli/Social1.png,stimuli/Social2.png,stimuli/Nonsocial1.png,stimuli/Nonsocial2.png,stimuli/Test1.png,stimuli/Test2.png,"(0.7, -0.5)",cs_plus_s,"(-0.7, -0.5)",cs_plus_s,0,0,0,0,,,,,0,43,43,58,,245.2518454999663,l,0.8325796999270096,correct,,26,A,2023-12-14_11h04.18.107,gca_discrimination,2022.2.4,144.05921425514848,
positions.xlsx,stimuli.xlsx,test.xlsx,stimuli/Social1.png,stimuli/Social2.png,stimuli/Nonsocial1.png,stimuli/Nonsocial2.png,stimuli/Test1.png,stimuli/Test2.png,"(0.7, 0.5)",cs_plus_s,"(-0.7, -0.5)",cs_plus_s,0,0,0,0,,,,,0,44,44,55,,248.3905931999907,l,0.8297339999116957,correct,,26,A,2023-12-14_11h04.18.107,gca_discrimination,2022.2.4,144.05921425514848,
positions.xlsx,stimuli.xlsx,test.xlsx,stimuli/Social1.png,stimuli/Social2.png,stimuli/Nonsocial1.png,stimuli/Nonsocial2.png,stimuli/Test1.png,stimuli/Test2.png,"(-0.7, 0.5)",cs_minus_ns,"(0.7, -0.5)",cs_plus_ns,0,0,0,0,,,,,0,45,45,38,,251.4668490999611,ä,1.209624100010842,correct,,26,A,2023-12-14_11h04.18.107,gca_discrimination,2022.2.4,144.05921425514848,
positions.xlsx,stimuli.xlsx,test.xlsx,stimuli/Social1.png,stimuli/Social2.png,stimuli/Nonsocial1.png,stimuli/Nonsocial2.png,stimuli/Test1.png,stimuli/Test2.png,"(-0.7, -0.5)",cs_plus_s,"(-0.7, 0.5)",cs_minus_s,0,0,0,0,,,,,0,46,46,3,,255.42500289995223,ä,0.954832199960947,correct,,26,A,2023-12-14_11h04.18.107,gca_discrimination,2022.2.4,144.05921425514848,
positions.xlsx,stimuli.xlsx,test.xlsx,stimuli/Social1.png,stimuli/Social2.png,stimuli/Nonsocial1.png,stimuli/Nonsocial2.png,stimuli/Test1.png,stimuli/Test2.png,"(-0.7, -0.5)",cs_plus_ns,"(0.7, -0.5)",cs_plus_ns,0,0,0,0,,,,,0,47,47,77,,259.063778599957,l,0.492591799935326,correct,,26,A,2023-12-14_11h04.18.107,gca_discrimination,2022.2.4,144.05921425514848,
positions.xlsx,stimuli.xlsx,test.xlsx,stimuli/Social1.png,stimuli/Social2.png,stimuli/Nonsocial1.png,stimuli/Nonsocial2.png,stimuli/Test1.png,stimuli/Test2.png,"(-0.7, 0.5)",cs_minus_s,"(-0.7, -0.5)",cs_plus_s,0,0,0,0,,,,,0,48,48,12,,262.06368789996486,ä,0.9406244999263436,correct,,26,A,2023-12-14_11h04.18.107,gca_discrimination,2022.2.4,144.05921425514848,
positions.xlsx,stimuli.xlsx,test.xlsx,stimuli/Social1.png,stimuli/Social2.png,stimuli/Nonsocial1.png,stimuli/Nonsocial2.png,stimuli/Test1.png,stimuli/Test2.png,"(0.7, -0.5)",cs_minus_s,"(-0.7, 0.5)",cs_minus_s,0,0,0,0,,,,,0,49,49,69,,265.7510200999677,l,0.6206922999117523,correct,,26,A,2023-12-14_11h04.18.107,gca_discrimination,2022.2.4,144.05921425514848,
positions.xlsx,stimuli.xlsx,test.xlsx,stimuli/Social1.png,stimuli/Social2.png,stimuli/Nonsocial1.png,stimuli/Nonsocial2.png,stimuli/Test1.png,stimuli/Test2.png,"(-0.7, -0.5)",cs_minus_s,"(0.7, 0.5)",cs_minus_s,0,0,0,0,,,,,0,50,50,64,,268.56340280000586,l,0.5449393000453711,correct,,26,A,2023-12-14_11h04.18.107,gca_discrimination,2022.2.4,144.05921425514848,
positions.xlsx,stimuli.xlsx,test.xlsx,stimuli/Social1.png,stimuli/Social2.png,stimuli/Nonsocial1.png,stimuli/Nonsocial2.png,stimuli/Test1.png,stimuli/Test2.png,"(-0.7, 0.5)",cs_minus_s,"(0.7, 0.5)",cs_minus_s,0,0,0,0,,,,,0,51,51,61,,271.042496799957,l,0.3143328999867663,correct,,26,A,2023-12-14_11h04.18.107,gca_discrimination,2022.2.4,144.05921425514848,
positions.xlsx,stimuli.xlsx,test.xlsx,stimuli/Social1.png,stimuli/Social2.png,stimuli/Nonsocial1.png,stimuli/Nonsocial2.png,stimuli/Test1.png,stimuli/Test2.png,"(-0.7, 0.5)",cs_minus_ns,"(-0.7, -0.5)",cs_minus_ns,0,0,0,0,,,,,0,52,52,84,,273.4729505999712,l,0.3710562000051141,correct,,26,A,2023-12-14_11h04.18.107,gca_discrimination,2022.2.4,144.05921425514848,
positions.xlsx,stimuli.xlsx,test.xlsx,stimuli/Social1.png,stimuli/Social2.png,stimuli/Nonsocial1.png,stimuli/Nonsocial2.png,stimuli/Test1.png,stimuli/Test2.png,"(0.7, 0.5)",cs_plus_s,"(-0.7, -0.5)",cs_minus_s,0,0,0,0,,,,,0,53,53,7,,276.646454700036,l,1.253765600034967,wrong,,26,A,2023-12-14_11h04.18.107,gca_discrimination,2022.2.4,144.05921425514848,
positions.xlsx,stimuli.xlsx,test.xlsx,stimuli/Social1.png,stimuli/Social2.png,stimuli/Nonsocial1.png,stimuli/Nonsocial2.png,stimuli/Test1.png,stimuli/Test2.png,"(-0.7, 0.5)",cs_plus_ns,"(0.7, -0.5)",cs_plus_ns,0,0,0,0,,,,,0,54,54,74,,279.77130599995144,l,0.408562200027518,correct,,26,A,2023-12-14_11h04.18.107,gca_discrimination,2022.2.4,144.05921425514848,
positions.xlsx,stimuli.xlsx,test.xlsx,stimuli/Social1.png,stimuli/Social2.png,stimuli/Nonsocial1.png,stimuli/Nonsocial2.png,stimuli/Test1.png,stimuli/Test2.png,"(-0.7, 0.5)",cs_plus_s,"(-0.7, -0.5)",cs_minus_s,0,0,0,0,,,,,0,55,55,0,,282.0628892999375,ä,0.860737600014545,correct,,26,A,2023-12-14_11h04.18.107,gca_discrimination,2022.2.4,144.05921425514848,
positions.xlsx,stimuli.xlsx,test.xlsx,stimuli/Social1.png,stimuli/Social2.png,stimuli/Nonsocial1.png,stimuli/Nonsocial2.png,stimuli/Test1.png,stimuli/Test2.png,"(0.7, -0.5)",cs_minus_s,"(0.7, 0.5)",cs_minus_s,0,0,0,0,,,,,0,56,56,71,,285.13917470001616,l,0.6244538000319153,correct,,26,A,2023-12-14_11h04.18.107,gca_discrimination,2022.2.4,144.05921425514848,
positions.xlsx,stimuli.xlsx,test.xlsx,stimuli/Social1.png,stimuli/Social2.png,stimuli/Nonsocial1.png,stimuli/Nonsocial2.png,stimuli/Test1.png,stimuli/Test2.png,"(-0.7, 0.5)",cs_minus_ns,"(0.7, 0.5)",cs_plus_ns,0,0,0,0,,,,,0,57,57,37,,287.91685449995566,ä,0.40729479992296547,correct,,26,A,2023-12-14_11h04.18.107,gca_discrimination,2022.2.4,144.05921425514848,
positions.xlsx,stimuli.xlsx,test.xlsx,stimuli/Social1.png,stimuli/Social2.png,stimuli/Nonsocial1.png,stimuli/Nonsocial2.png,stimuli/Test1.png,stimuli/Test2.png,"(0.7, 0.5)",cs_minus_s,"(-0.7, 0.5)",cs_plus_s,0,0,0,0,,,,,0,58,58,18,,290.63200440001674,l,0.4756333000259474,wrong,,26,A,2023-12-14_11h04.18.107,gca_discrimination,2022.2.4,144.05921425514848,
positions.xlsx,stimuli.xlsx,test.xlsx,stimuli/Social1.png,stimuli/Social2.png,stimuli/Nonsocial1.png,stimuli/Nonsocial2.png,stimuli/Test1.png,stimuli/Test2.png,"(0.7, 0.5)",cs_minus_ns,"(-0.7, 0.5)",cs_plus_ns,0,0,0,0,,,,,0,59,59,42,,293.01385290001053,ä,0.8145797000033781,correct,,26,A,2023-12-14_11h04.18.107,gca_discrimination,2022.2.4,144.05921425514848,
positions.xlsx,stimuli.xlsx,test.xlsx,stimuli/Social1.png,stimuli/Social2.png,stimuli/Nonsocial1.png,stimuli/Nonsocial2.png,stimuli/Test1.png,stimuli/Test2.png,"(0.7, -0.5)",cs_plus_s,"(0.7, 0.5)",cs_minus_s,0,0,0,0,,,,,0,60,60,11,,295.79844529996626,ä,0.7989337999606505,correct,,26,A,2023-12-14_11h04.18.107,gca_discrimination,2022.2.4,144.05921425514848,
positions.xlsx,stimuli.xlsx,test.xlsx,stimuli/Social1.png,stimuli/Social2.png,stimuli/Nonsocial1.png,stimuli/Nonsocial2.png,stimuli/Test1.png,stimuli/Test2.png,"(0.7, 0.5)",cs_minus_ns,"(-0.7, 0.5)",cs_minus_ns,0,0,0,0,,,,,0,61,61,90,,298.45112979994155,None,,no answer,,26,A,2023-12-14_11h04.18.107,gca_discrimination,2022.2.4,144.05921425514848,
positions.xlsx,stimuli.xlsx,test.xlsx,stimuli/Social1.png,stimuli/Social2.png,stimuli/Nonsocial1.png,stimuli/Nonsocial2.png,stimuli/Test1.png,stimuli/Test2.png,"(-0.7, -0.5)",cs_plus_ns,"(0.7, 0.5)",cs_plus_ns,0,0,0,0,,,,,0,62,62,76,,302.61764449998736,l,0.5553172999061644,correct,,26,A,2023-12-14_11h04.18.107,gca_discrimination,2022.2.4,144.05921425514848,
positions.xlsx,stimuli.xlsx,test.xlsx,stimuli/Social1.png,stimuli/Social2.png,stimuli/Nonsocial1.png,stimuli/Nonsocial2.png,stimuli/Test1.png,stimuli/Test2.png,"(0.7, -0.5)",cs_plus_ns,"(-0.7, -0.5)",cs_minus_ns,0,0,0,0,,,,,0,63,63,34,,305.4786435000133,ä,0.7248036999953911,correct,,26,A,2023-12-14_11h04.18.107,gca_discrimination,2022.2.4,144.05921425514848,
positions.xlsx,stimuli.xlsx,test.xlsx,stimuli/Social1.png,stimuli/Social2.png,stimuli/Nonsocial1.png,stimuli/Nonsocial2.png,stimuli/Test1.png,stimuli/Test2.png,"(-0.7, -0.5)",cs_minus_ns,"(0.7, 0.5)",cs_minus_ns,0,0,0,0,,,,,0,64,64,88,,308.31880599993747,ä,0.6054740999825299,wrong,,26,A,2023-12-14_11h04.18.107,gca_discrimination,2022.2.4,144.05921425514848,
positions.xlsx,stimuli.xlsx,test.xlsx,stimuli/Social1.png,stimuli/Social2.png,stimuli/Nonsocial1.png,stimuli/Nonsocial2.png,stimuli/Test1.png,stimuli/Test2.png,"(0.7, -0.5)",cs_plus_ns,"(-0.7, 0.5)",cs_minus_ns,0,0,0,0,,,,,0,65,65,33,,310.77012360002846,ä,0.8987244999734685,correct,,26,A,2023-12-14_11h04.18.107,gca_discrimination,2022.2.4,144.05921425514848,
positions.xlsx,stimuli.xlsx,test.xlsx,stimuli/Social1.png,stimuli/Social2.png,stimuli/Nonsocial1.png,stimuli/Nonsocial2.png,stimuli/Test1.png,stimuli/Test2.png,"(-0.7, -0.5)",cs_plus_ns,"(-0.7, 0.5)",cs_plus_ns,0,0,0,0,,,,,0,66,66,75,,313.8741500999313,l,0.5942398000042886,correct,,26,A,2023-12-14_11h04.18.107,gca_discrimination,2022.2.4,144.05921425514848,
positions.xlsx,stimuli.xlsx,test.xlsx,stimuli/Social1.png,stimuli/Social2.png,stimuli/Nonsocial1.png,stimuli/Nonsocial2.png,stimuli/Test1.png,stimuli/Test2.png,"(-0.7, 0.5)",cs_minus_ns,"(-0.7, -0.5)",cs_plus_ns,0,0,0,0,,,,,0,67,67,36,,317.158716200036,ä,0.79025650001131,correct,,26,A,2023-12-14_11h04.18.107,gca_discrimination,2022.2.4,144.05921425514848,
positions.xlsx,stimuli.xlsx,test.xlsx,stimuli/Social1.png,stimuli/Social2.png,stimuli/Nonsocial1.png,stimuli/Nonsocial2.png,stimuli/Test1.png,stimuli/Test2.png,"(0.7, -0.5)",cs_minus_s,"(-0.7, 0.5)",cs_plus_s,0,0,0,0,,,,,0,68,68,21,,320.2280521999346,ä,0.7197436999995261,correct,,26,A,2023-12-14_11h04.18.107,gca_discrimination,2022.2.4,144.05921425514848,
positions.xlsx,stimuli.xlsx,test.xlsx,stimuli/Social1.png,stimuli/Social2.png,stimuli/Nonsocial1.png,stimuli/Nonsocial2.png,stimuli/Test1.png,stimuli/Test2.png,"(-0.7, 0.5)",cs_plus_ns,"(-0.7, -0.5)",cs_plus_ns,0,0,0,0,,,,,0,69,69,72,,322.85295039997436,l,0.8953399999300018,correct,,26,A,2023-12-14_11h04.18.107,gca_discrimination,2022.2.4,144.05921425514848,
positions.xlsx,stimuli.xlsx,test.xlsx,stimuli/Social1.png,stimuli/Social2.png,stimuli/Nonsocial1.png,stimuli/Nonsocial2.png,stimuli/Test1.png,stimuli/Test2.png,"(-0.7, -0.5)",cs_plus_ns,"(-0.7, 0.5)",cs_minus_ns,0,0,0,0,,,,,0,70,70,27,,325.9847821999574,ä,0.9311283000279218,correct,,26,A,2023-12-14_11h04.18.107,gca_discrimination,2022.2.4,144.05921425514848,
positions.xlsx,stimuli.xlsx,test.xlsx,stimuli/Social1.png,stimuli/Social2.png,stimuli/Nonsocial1.png,stimuli/Nonsocial2.png,stimuli/Test1.png,stimuli/Test2.png,"(0.7, -0.5)",cs_plus_ns,"(0.7, 0.5)",cs_minus_ns,0,0,0,0,,,,,0,71,71,35,,329.06106079998426,ä,0.6472483999095857,correct,,26,A,2023-12-14_11h04.18.107,gca_discrimination,2022.2.4,144.05921425514848,
positions.xlsx,stimuli.xlsx,test.xlsx,stimuli/Social1.png,stimuli/Social2.png,stimuli/Nonsocial1.png,stimuli/Nonsocial2.png,stimuli/Test1.png,stimuli/Test2.png,"(0.7, 0.5)",cs_plus_ns,"(-0.7, 0.5)",cs_minus_ns,0,0,0,0,,,,,0,72,72,30,,331.748444100027,ä,0.6314827000023797,correct,,26,A,2023-12-14_11h04.18.107,gca_discrimination,2022.2.4,144.05921425514848,
positions.xlsx,stimuli.xlsx,test.xlsx,stimuli/Social1.png,stimuli/Social2.png,stimuli/Nonsocial1.png,stimuli/Nonsocial2.png,stimuli/Test1.png,stimuli/Test2.png,"(0.7, -0.5)",cs_plus_s,"(-0.7, 0.5)",cs_plus_s,0,0,0,0,,,,,0,73,73,57,,334.442838500021,l,0.8811561000766233,correct,,26,A,2023-12-14_11h04.18.107,gca_discrimination,2022.2.4,144.05921425514848,
positions.xlsx,stimuli.xlsx,test.xlsx,stimuli/Social1.png,stimuli/Social2.png,stimuli/Nonsocial1.png,stimuli/Nonsocial2.png,stimuli/Test1.png,stimuli/Test2.png,"(0.7, 0.5)",cs_plus_ns,"(-0.7, 0.5)",cs_plus_ns,0,0,0,0,,,,,0,74,74,78,,337.65794119995553,l,0.761915700044483,correct,,26,A,2023-12-14_11h04.18.107,gca_discrimination,2022.2.4,144.05921425514848,
positions.xlsx,stimuli.xlsx,test.xlsx,stimuli/Social1.png,stimuli/Social2.png,stimuli/Nonsocial1.png,stimuli/Nonsocial2.png,stimuli/Test1.png,stimuli/Test2.png,"(-0.7, -0.5)",cs_plus_s,"(0.7, 0.5)",cs_plus_s,0,0,0,0,,,,,0,75,75,52,,340.3036885999609,l,0.9244421999901533,correct,,26,A,2023-12-14_11h04.18.107,gca_discrimination,2022.2.4,144.05921425514848,
positions.xlsx,stimuli.xlsx,test.xlsx,stimuli/Social1.png,stimuli/Social2.png,stimuli/Nonsocial1.png,stimuli/Nonsocial2.png,stimuli/Test1.png,stimuli/Test2.png,"(0.7, 0.5)",cs_minus_ns,"(0.7, -0.5)",cs_minus_ns,0,0,0,0,,,,,0,76,76,92,,343.373008799972,l,0.6144655999960378,correct,,26,A,2023-12-14_11h04.18.107,gca_discrimination,2022.2.4,144.05921425514848,
positions.xlsx,stimuli.xlsx,test.xlsx,stimuli/Social1.png,stimuli/Social2.png,stimuli/Nonsocial1.png,stimuli/Nonsocial2.png,stimuli/Test1.png,stimuli/Test2.png,"(-0.7, 0.5)",cs_plus_s,"(-0.7, -0.5)",cs_plus_s,0,0,0,0,,,,,0,77,77,48,,345.85207130003255,l,0.3439457999775186,correct,,26,A,2023-12-14_11h04.18.107,gca_discrimination,2022.2.4,144.05921425514848,
positions.xlsx,stimuli.xlsx,test.xlsx,stimuli/Social1.png,stimuli/Social2.png,stimuli/Nonsocial1.png,stimuli/Nonsocial2.png,stimuli/Test1.png,stimuli/Test2.png,"(-0.7, -0.5)",cs_plus_s,"(0.7, -0.5)",cs_minus_s,0,0,0,0,,,,,0,78,78,5,,348.96306360000744,ä,1.0495974000077695,correct,,26,A,2023-12-14_11h04.18.107,gca_discrimination,2022.2.4,144.05921425514848,
positions.xlsx,stimuli.xlsx,test.xlsx,stimuli/Social1.png,stimuli/Social2.png,stimuli/Nonsocial1.png,stimuli/Nonsocial2.png,stimuli/Test1.png,stimuli/Test2.png,"(-0.7, -0.5)",cs_plus_s,"(0.7, -0.5)",cs_plus_s,0,0,0,0,,,,,0,79,79,53,,351.95600350003224,l,1.1835330000612885,correct,,26,A,2023-12-14_11h04.18.107,gca_discrimination,2022.2.4,144.05921425514848,
positions.xlsx,stimuli.xlsx,test.xlsx,stimuli/Social1.png,stimuli/Social2.png,stimuli/Nonsocial1.png,stimuli/Nonsocial2.png,stimuli/Test1.png,stimuli/Test2.png,"(0.7, -0.5)",cs_plus_ns,"(-0.7, 0.5)",cs_plus_ns,0,0,0,0,,,,,0,80,80,81,,355.83779679995496,l,0.8303606000263244,correct,,26,A,2023-12-14_11h04.18.107,gca_discrimination,2022.2.4,144.05921425514848,
positions.xlsx,stimuli.xlsx,test.xlsx,stimuli/Social1.png,stimuli/Social2.png,stimuli/Nonsocial1.png,stimuli/Nonsocial2.png,stimuli/Test1.png,stimuli/Test2.png,"(-0.7, 0.5)",cs_plus_ns,"(0.7, 0.5)",cs_plus_ns,0,0,0,0,,,,,0,81,81,73,,359.1501678000204,l,0.43801270006224513,correct,,26,A,2023-12-14_11h04.18.107,gca_discrimination,2022.2.4,144.05921425514848,
positions.xlsx,stimuli.xlsx,test.xlsx,stimuli/Social1.png,stimuli/Social2.png,stimuli/Nonsocial1.png,stimuli/Nonsocial2.png,stimuli/Test1.png,stimuli/Test2.png,"(0.7, -0.5)",cs_plus_s,"(0.7, 0.5)",cs_plus_s,0,0,0,0,,,,,0,82,82,59,,361.65703769994434,l,0.8347785000223666,correct,,26,A,2023-12-14_11h04.18.107,gca_discrimination,2022.2.4,144.05921425514848,
positions.xlsx,stimuli.xlsx,test.xlsx,stimuli/Social1.png,stimuli/Social2.png,stimuli/Nonsocial1.png,stimuli/Nonsocial2.png,stimuli/Test1.png,stimuli/Test2.png,"(0.7, 0.5)",cs_minus_ns,"(-0.7, -0.5)",cs_minus_ns,0,0,0,0,,,,,0,83,83,91,,364.37909960001707,l,0.5127960999961942,correct,,26,A,2023-12-14_11h04.18.107,gca_discrimination,2022.2.4,144.05921425514848,
positions.xlsx,stimuli.xlsx,test.xlsx,stimuli/Social1.png,stimuli/Social2.png,stimuli/Nonsocial1.png,stimuli/Nonsocial2.png,stimuli/Test1.png,stimuli/Test2.png,"(0.7, -0.5)",cs_minus_ns,"(0.7, 0.5)",cs_minus_ns,0,0,0,0,,,,,0,84,84,95,,367.5665390000213,l,0.9182256000349298,correct,,26,A,2023-12-14_11h04.18.107,gca_discrimination,2022.2.4,144.05921425514848,
positions.xlsx,stimuli.xlsx,test.xlsx,stimuli/Social1.png,stimuli/Social2.png,stimuli/Nonsocial1.png,stimuli/Nonsocial2.png,stimuli/Test1.png,stimuli/Test2.png,"(-0.7, -0.5)",cs_minus_s,"(0.7, 0.5)",cs_plus_s,0,0,0,0,,,,,0,85,85,16,,370.4900223000441,ä,0.626390099991113,correct,,26,A,2023-12-14_11h04.18.107,gca_discrimination,2022.2.4,144.05921425514848,
positions.xlsx,stimuli.xlsx,test.xlsx,stimuli/Social1.png,stimuli/Social2.png,stimuli/Nonsocial1.png,stimuli/Nonsocial2.png,stimuli/Test1.png,stimuli/Test2.png,"(-0.7, -0.5)",cs_minus_s,"(0.7, -0.5)",cs_plus_s,0,0,0,0,,,,,0,86,86,17,,373.42046789999586,ä,0.5679193000542,correct,,26,A,2023-12-14_11h04.18.107,gca_discrimination,2022.2.4,144.05921425514848,
positions.xlsx,stimuli.xlsx,test.xlsx,stimuli/Social1.png,stimuli/Social2.png,stimuli/Nonsocial1.png,stimuli/Nonsocial2.png,stimuli/Test1.png,stimuli/Test2.png,"(0.7, -0.5)",cs_minus_ns,"(-0.7, 0.5)",cs_plus_ns,0,0,0,0,,,,,0,87,87,45,,376.72589510004036,ä,0.8943294000346214,correct,,26,A,2023-12-14_11h04.18.107,gca_discrimination,2022.2.4,144.05921425514848,
positions.xlsx,stimuli.xlsx,test.xlsx,stimuli/Social1.png,stimuli/Social2.png,stimuli/Nonsocial1.png,stimuli/Nonsocial2.png,stimuli/Test1.png,stimuli/Test2.png,"(-0.7, -0.5)",cs_minus_ns,"(0.7, -0.5)",cs_minus_ns,0,0,0,0,,,,,0,88,88,89,,380.1771454999689,ä,0.4349969000322744,wrong,,26,A,2023-12-14_11h04.18.107,gca_discrimination,2022.2.4,144.05921425514848,
positions.xlsx,stimuli.xlsx,test.xlsx,stimuli/Social1.png,stimuli/Social2.png,stimuli/Nonsocial1.png,stimuli/Nonsocial2.png,stimuli/Test1.png,stimuli/Test2.png,"(0.7, 0.5)",cs_plus_s,"(0.7, -0.5)",cs_plus_s,0,0,0,0,,,,,0,89,89,56,,382.4479006000329,l,0.5796822999836877,correct,,26,A,2023-12-14_11h04.18.107,gca_discrimination,2022.2.4,144.05921425514848,
positions.xlsx,stimuli.xlsx,test.xlsx,stimuli/Social1.png,stimuli/Social2.png,stimuli/Nonsocial1.png,stimuli/Nonsocial2.png,stimuli/Test1.png,stimuli/Test2.png,"(0.7, -0.5)",cs_minus_s,"(-0.7, -0.5)",cs_minus_s,0,0,0,0,,,,,0,90,90,70,,385.71863419993315,l,0.8290534999687225,correct,,26,A,2023-12-14_11h04.18.107,gca_discrimination,2022.2.4,144.05921425514848,
positions.xlsx,stimuli.xlsx,test.xlsx,stimuli/Social1.png,stimuli/Social2.png,stimuli/Nonsocial1.png,stimuli/Nonsocial2.png,stimuli/Test1.png,stimuli/Test2.png,"(0.7, -0.5)",cs_minus_s,"(0.7, 0.5)",cs_plus_s,0,0,0,0,,,,,0,91,91,23,,388.6907498999499,ä,0.5137126999907196,correct,,26,A,2023-12-14_11h04.18.107,gca_discrimination,2022.2.4,144.05921425514848,
positions.xlsx,stimuli.xlsx,test.xlsx,stimuli/Social1.png,stimuli/Social2.png,stimuli/Nonsocial1.png,stimuli/Nonsocial2.png,stimuli/Test1.png,stimuli/Test2.png,"(-0.7, 0.5)",cs_plus_ns,"(-0.7, -0.5)",cs_minus_ns,0,0,0,0,,,,,0,92,92,24,,391.4336558999494,ä,0.7955897999927402,correct,,26,A,2023-12-14_11h04.18.107,gca_discrimination,2022.2.4,144.05921425514848,
positions.xlsx,stimuli.xlsx,test.xlsx,stimuli/Social1.png,stimuli/Social2.png,stimuli/Nonsocial1.png,stimuli/Nonsocial2.png,stimuli/Test1.png,stimuli/Test2.png,"(0.7, 0.5)",cs_minus_ns,"(-0.7, -0.5)",cs_plus_ns,0,0,0,0,,,,,0,93,93,43,,394.2738260999322,ä,0.6987061999971047,correct,,26,A,2023-12-14_11h04.18.107,gca_discrimination,2022.2.4,144.05921425514848,
positions.xlsx,stimuli.xlsx,test.xlsx,stimuli/Social1.png,stimuli/Social2.png,stimuli/Nonsocial1.png,stimuli/Nonsocial2.png,stimuli/Test1.png,stimuli/Test2.png,"(0.7, -0.5)",cs_plus_s,"(-0.7, 0.5)",cs_minus_s,0,0,0,0,,,,,0,94,94,9,,397.4612121999962,ä,1.1431802000151947,correct,,26,A,2023-12-14_11h04.18.107,gca_discrimination,2022.2.4,144.05921425514848,
positions.xlsx,stimuli.xlsx,test.xlsx,stimuli/Social1.png,stimuli/Social2.png,stimuli/Nonsocial1.png,stimuli/Nonsocial2.png,stimuli/Test1.png,stimuli/Test2.png,"(0.7, -0.5)",cs_minus_ns,"(-0.7, -0.5)",cs_minus_ns,0,0,0,0,,,,,0,95,95,94,,401.05830719997175,l,0.641553399967961,correct,,26,A,2023-12-14_11h04.18.107,gca_discrimination,2022.2.4,144.05921425514848,
