posFile,stimFile,cs_plus_s,cs_minus_s,cs_plus_ns,cs_minus_ns,stimtype,position,trialtype,trials_threshold.thisRepN,trials_threshold.thisTrialN,trials_threshold.thisN,trials_threshold.thisIndex,blocks.thisRepN,blocks.thisTrialN,blocks.thisN,blocks.thisIndex,ratingtrials1.thisRepN,ratingtrials1.thisTrialN,ratingtrials1.thisN,ratingtrials1.thisIndex,learning_trials.thisRepN,learning_trials.thisTrialN,learning_trials.thisN,learning_trials.thisIndex,trials.thisRepN,trials.thisTrialN,trials.thisN,trials.thisIndex,ratingtrials2.thisRepN,ratingtrials2.thisTrialN,ratingtrials2.thisN,ratingtrials2.thisIndex,testtrials.thisRepN,testtrials.thisTrialN,testtrials.thisN,testtrials.thisIndex,ratingtrials3.thisRepN,ratingtrials3.thisTrialN,ratingtrials3.thisN,ratingtrials3.thisIndex,textStart.started,sliderPainT.response,sliderPainT.rt,textStartExp.started,imageRating.started,sliderStim.response,sliderStim.rt,textStartTask.started,image.started,score,outcome,roi.numLooks,roi.timesOn,roi.timesOff,imageFeedback.started,sliderPain.response,sliderPain.rt,textTestInstr.started,imageTest.started,roiTest.numLooks,roiTest.timesOn,roiTest.timesOff,participant,group,date,expName,psychopyVersion,frameRate,
,,,,,,,,,0,0,0,0,,,,,,,,,,,,,,,,,,,,,,,,,,,,,20.475917399977334,None,None,,,,,,,,,,,,,,,,,,,,34,B,2023-12-15_16h33.04.626,gca_avoidance_task,2022.2.4,144.04717839596768,
,,,,,,,,,1,0,1,0,,,,,,,,,,,,,,,,,,,,,,,,,,,,,,None,None,,,,,,,,,,,,,,,,,,,,34,B,2023-12-15_16h33.04.626,gca_avoidance_task,2022.2.4,144.04717839596768,
,,,,,,,,,2,0,2,0,,,,,,,,,,,,,,,,,,,,,,,,,,,,,,1.0,20.947577300015837,,,,,,,,,,,,,,,,,,,,34,B,2023-12-15_16h33.04.626,gca_avoidance_task,2022.2.4,144.04717839596768,
,,,,,,,,,3,0,3,0,,,,,,,,,,,,,,,,,,,,,,,,,,,,,,1.0,1.458754500024952,,,,,,,,,,,,,,,,,,,,34,B,2023-12-15_16h33.04.626,gca_avoidance_task,2022.2.4,144.04717839596768,
,,,,,,,,,4,0,4,0,,,,,,,,,,,,,,,,,,,,,,,,,,,,,,1.0,2.12269940006081,,,,,,,,,,,,,,,,,,,,34,B,2023-12-15_16h33.04.626,gca_avoidance_task,2022.2.4,144.04717839596768,
,,,,,,,,,5,0,5,0,,,,,,,,,,,,,,,,,,,,,,,,,,,,,,2.0,0.8696384000359103,,,,,,,,,,,,,,,,,,,,34,B,2023-12-15_16h33.04.626,gca_avoidance_task,2022.2.4,144.04717839596768,
,,,,,,,,,6,0,6,0,,,,,,,,,,,,,,,,,,,,,,,,,,,,,,3.0,5.6221836999757215,,,,,,,,,,,,,,,,,,,,34,B,2023-12-15_16h33.04.626,gca_avoidance_task,2022.2.4,144.04717839596768,
,,,,,,,,,7,0,7,0,,,,,,,,,,,,,,,,,,,,,,,,,,,,,,3.0,3.183425100054592,,,,,,,,,,,,,,,,,,,,34,B,2023-12-15_16h33.04.626,gca_avoidance_task,2022.2.4,144.04717839596768,
,,,,,,,,,8,0,8,0,,,,,,,,,,,,,,,,,,,,,,,,,,,,,,3.0,1.6270942999981344,,,,,,,,,,,,,,,,,,,,34,B,2023-12-15_16h33.04.626,gca_avoidance_task,2022.2.4,144.04717839596768,
,,,,,,,,,9,0,9,0,,,,,,,,,,,,,,,,,,,,,,,,,,,,,,3.0,4.673856499954127,,,,,,,,,,,,,,,,,,,,34,B,2023-12-15_16h33.04.626,gca_avoidance_task,2022.2.4,144.04717839596768,
,,,,,,,,,10,0,10,0,,,,,,,,,,,,,,,,,,,,,,,,,,,,,,3.0,3.2204753000987694,,,,,,,,,,,,,,,,,,,,34,B,2023-12-15_16h33.04.626,gca_avoidance_task,2022.2.4,144.04717839596768,
,,,,,,,,,11,0,11,0,,,,,,,,,,,,,,,,,,,,,,,,,,,,,,3.0,6.310417799977586,,,,,,,,,,,,,,,,,,,,34,B,2023-12-15_16h33.04.626,gca_avoidance_task,2022.2.4,144.04717839596768,
,,,,,,,,,12,0,12,0,,,,,,,,,,,,,,,,,,,,,,,,,,,,,,4.0,1.521087900036946,,,,,,,,,,,,,,,,,,,,34,B,2023-12-15_16h33.04.626,gca_avoidance_task,2022.2.4,144.04717839596768,
,,,,,,,,,13,0,13,0,,,,,,,,,,,,,,,,,,,,,,,,,,,,,,4.0,2.9235163999255747,,,,,,,,,,,,,,,,,,,,34,B,2023-12-15_16h33.04.626,gca_avoidance_task,2022.2.4,144.04717839596768,
,,,,,,,,,14,0,14,0,,,,,,,,,,,,,,,,,,,,,,,,,,,,,,5.0,2.4143020999617875,,,,,,,,,,,,,,,,,,,,34,B,2023-12-15_16h33.04.626,gca_avoidance_task,2022.2.4,144.04717839596768,
,,,,,,,,,15,0,15,0,,,,,,,,,,,,,,,,,,,,,,,,,,,,,,5.0,3.924756799940951,,,,,,,,,,,,,,,,,,,,34,B,2023-12-15_16h33.04.626,gca_avoidance_task,2022.2.4,144.04717839596768,
,,,,,,,,,16,0,16,0,,,,,,,,,,,,,,,,,,,,,,,,,,,,,,6.0,1.364447500091046,,,,,,,,,,,,,,,,,,,,34,B,2023-12-15_16h33.04.626,gca_avoidance_task,2022.2.4,144.04717839596768,
,,,,,,,,,17,0,17,0,,,,,,,,,,,,,,,,,,,,,,,,,,,,,,6.0,2.658330599893816,,,,,,,,,,,,,,,,,,,,34,B,2023-12-15_16h33.04.626,gca_avoidance_task,2022.2.4,144.04717839596768,
,,,,,,,,,18,0,18,0,,,,,,,,,,,,,,,,,,,,,,,,,,,,,,7.0,1.5658459999831393,,,,,,,,,,,,,,,,,,,,34,B,2023-12-15_16h33.04.626,gca_avoidance_task,2022.2.4,144.04717839596768,
,,,,,,,,,19,0,19,0,,,,,,,,,,,,,,,,,,,,,,,,,,,,,,8.0,3.1372498999116942,,,,,,,,,,,,,,,,,,,,34,B,2023-12-15_16h33.04.626,gca_avoidance_task,2022.2.4,144.04717839596768,
,,,,,,,,,20,0,20,0,,,,,,,,,,,,,,,,,,,,,,,,,,,,,,8.0,2.557618699967861,,,,,,,,,,,,,,,,,,,,34,B,2023-12-15_16h33.04.626,gca_avoidance_task,2022.2.4,144.04717839596768,
,,,,,,,,,21,0,21,0,,,,,,,,,,,,,,,,,,,,,,,,,,,,,,9.0,2.4302553000161424,,,,,,,,,,,,,,,,,,,,34,B,2023-12-15_16h33.04.626,gca_avoidance_task,2022.2.4,144.04717839596768,
,,,,,,,,,22,0,22,0,,,,,,,,,,,,,,,,,,,,,,,,,,,,,,6.0,32.190711400005966,,,,,,,,,,,,,,,,,,,,34,B,2023-12-15_16h33.04.626,gca_avoidance_task,2022.2.4,144.04717839596768,
,,,,,,,,,23,0,23,0,,,,,,,,,,,,,,,,,,,,,,,,,,,,,,6.0,5.226548900012858,,,,,,,,,,,,,,,,,,,,34,B,2023-12-15_16h33.04.626,gca_avoidance_task,2022.2.4,144.04717839596768,
,,,,,,,,,24,0,24,0,,,,,,,,,,,,,,,,,,,,,,,,,,,,,,7.0,1.8500854999292642,,,,,,,,,,,,,,,,,,,,34,B,2023-12-15_16h33.04.626,gca_avoidance_task,2022.2.4,144.04717839596768,
,,,,,,,,,25,0,25,0,,,,,,,,,,,,,,,,,,,,,,,,,,,,,,4.0,1.9530288999667391,,,,,,,,,,,,,,,,,,,,34,B,2023-12-15_16h33.04.626,gca_avoidance_task,2022.2.4,144.04717839596768,
,,,,,,,,,26,0,26,0,,,,,,,,,,,,,,,,,,,,,,,,,,,,,,5.0,2.7832783000776544,,,,,,,,,,,,,,,,,,,,34,B,2023-12-15_16h33.04.626,gca_avoidance_task,2022.2.4,144.04717839596768,
,,,,,,,,,27,0,27,0,,,,,,,,,,,,,,,,,,,,,,,,,,,,,,4.0,3.6524322000332177,,,,,,,,,,,,,,,,,,,,34,B,2023-12-15_16h33.04.626,gca_avoidance_task,2022.2.4,144.04717839596768,
,,,,,,,,,28,0,28,0,,,,,,,,,,,,,,,,,,,,,,,,,,,,,,5.0,8.864326599985361,,,,,,,,,,,,,,,,,,,,34,B,2023-12-15_16h33.04.626,gca_avoidance_task,2022.2.4,144.04717839596768,
,,,,,,,,,29,0,29,0,,,,,,,,,,,,,,,,,,,,,,,,,,,,,,5.0,1.789637599955313,,,,,,,,,,,,,,,,,,,,34,B,2023-12-15_16h33.04.626,gca_avoidance_task,2022.2.4,144.04717839596768,
,,,,,,,,,30,0,30,0,,,,,,,,,,,,,,,,,,,,,,,,,,,,,,6.0,1.3740488999756053,,,,,,,,,,,,,,,,,,,,34,B,2023-12-15_16h33.04.626,gca_avoidance_task,2022.2.4,144.04717839596768,
,,,,,,,,,31,0,31,0,,,,,,,,,,,,,,,,,,,,,,,,,,,,,,5.0,1.8050717000151053,,,,,,,,,,,,,,,,,,,,34,B,2023-12-15_16h33.04.626,gca_avoidance_task,2022.2.4,144.04717839596768,
,,,,,,,,,32,0,32,0,,,,,,,,,,,,,,,,,,,,,,,,,,,,,,6.0,0.9480991999153048,,,,,,,,,,,,,,,,,,,,34,B,2023-12-15_16h33.04.626,gca_avoidance_task,2022.2.4,144.04717839596768,
,,,,,,,,,33,0,33,0,,,,,,,,,,,,,,,,,,,,,,,,,,,,,,5.0,2.979407500009984,,,,,,,,,,,,,,,,,,,,34,B,2023-12-15_16h33.04.626,gca_avoidance_task,2022.2.4,144.04717839596768,
,,,,,,,,,34,0,34,0,,,,,,,,,,,,,,,,,,,,,,,,,,,,,,6.0,2.592149999924004,,,,,,,,,,,,,,,,,,,,34,B,2023-12-15_16h33.04.626,gca_avoidance_task,2022.2.4,144.04717839596768,
,,,,,,,,,35,0,35,0,,,,,,,,,,,,,,,,,,,,,,,,,,,,,,5.0,4.510641200002283,,,,,,,,,,,,,,,,,,,,34,B,2023-12-15_16h33.04.626,gca_avoidance_task,2022.2.4,144.04717839596768,
,,,,,,,,,36,0,36,0,,,,,,,,,,,,,,,,,,,,,,,,,,,,,,6.0,1.1431520999176428,,,,,,,,,,,,,,,,,,,,34,B,2023-12-15_16h33.04.626,gca_avoidance_task,2022.2.4,144.04717839596768,
,,,,,,,,,37,0,37,0,,,,,,,,,,,,,,,,,,,,,,,,,,,,,,6.0,2.139953800011426,,,,,,,,,,,,,,,,,,,,34,B,2023-12-15_16h33.04.626,gca_avoidance_task,2022.2.4,144.04717839596768,
,,,,,,,,,38,0,38,0,,,,,,,,,,,,,,,,,,,,,,,,,,,,,,7.0,1.1137820000294596,,,,,,,,,,,,,,,,,,,,34,B,2023-12-15_16h33.04.626,gca_avoidance_task,2022.2.4,144.04717839596768,
,,,,,,,,,39,0,39,0,,,,,,,,,,,,,,,,,,,,,,,,,,,,,,6.0,1.564886900014244,,,,,,,,,,,,,,,,,,,,34,B,2023-12-15_16h33.04.626,gca_avoidance_task,2022.2.4,144.04717839596768,
positions.xlsx,stimuli.xlsx,stimuli/Social2.png,stimuli/Social1.png,stimuli/Nonsocial1.png,stimuli/Nonsocial2.png,cs_minus_ns,,,,,,,0,0,0,0,0,0,0,3,,,,,,,,,,,,,,,,,,,,,,,,1118.691317500081,1179.180284800008,4.0,9.500496700056829,,,,,,,,,,,,,,,,34,B,2023-12-15_16h33.04.626,gca_avoidance_task,2022.2.4,144.04717839596768,
positions.xlsx,stimuli.xlsx,stimuli/Social2.png,stimuli/Social1.png,stimuli/Nonsocial1.png,stimuli/Nonsocial2.png,cs_minus_s,,,,,,,0,0,0,0,0,1,1,2,,,,,,,,,,,,,,,,,,,,,,,,,1189.7145674000494,5.0,8.25619840004947,,,,,,,,,,,,,,,,34,B,2023-12-15_16h33.04.626,gca_avoidance_task,2022.2.4,144.04717839596768,
positions.xlsx,stimuli.xlsx,stimuli/Social2.png,stimuli/Social1.png,stimuli/Nonsocial1.png,stimuli/Nonsocial2.png,cs_plus_s,,,,,,,0,0,0,0,0,2,2,0,,,,,,,,,,,,,,,,,,,,,,,,,1198.9364704000764,5.0,4.577518400037661,,,,,,,,,,,,,,,,34,B,2023-12-15_16h33.04.626,gca_avoidance_task,2022.2.4,144.04717839596768,
positions.xlsx,stimuli.xlsx,stimuli/Social2.png,stimuli/Social1.png,stimuli/Nonsocial1.png,stimuli/Nonsocial2.png,cs_plus_ns,,,,,,,0,0,0,0,0,3,3,1,,,,,,,,,,,,,,,,,,,,,,,,,1203.7696118999738,2.0,3.6466555999359116,,,,,,,,,,,,,,,,34,B,2023-12-15_16h33.04.626,gca_avoidance_task,2022.2.4,144.04717839596768,
positions.xlsx,stimuli.xlsx,stimuli/Social2.png,stimuli/Social1.png,stimuli/Nonsocial1.png,stimuli/Nonsocial2.png,,"(0.7, -0.5)",cs_plus_s,,,,,0,0,0,0,,,,,0,0,0,3,,,,,,,,,,,,,,,,,,,,,,,,1207.602760000038,1228.282500899979,0,shock,1,0.2151965000666678,0.21520010009407997,1228.5047094000038,,,,,,,,34,B,2023-12-15_16h33.04.626,gca_avoidance_task,2022.2.4,144.04717839596768,
positions.xlsx,stimuli.xlsx,stimuli/Social2.png,stimuli/Social1.png,stimuli/Nonsocial1.png,stimuli/Nonsocial2.png,,"(-0.7, -0.5)",cs_plus_ns,,,,,0,0,0,0,,,,,0,1,1,9,,,,,,,,,,,,,,,,,,,,,,,,,1237.8376742000692,0,shock,1,0.25727269996423274,0.2572764999931678,1238.101575299981,,,,,,,,34,B,2023-12-15_16h33.04.626,gca_avoidance_task,2022.2.4,144.04717839596768,
positions.xlsx,stimuli.xlsx,stimuli/Social2.png,stimuli/Social1.png,stimuli/Nonsocial1.png,stimuli/Nonsocial2.png,,"(0.7, 0.5)",cs_plus_s,,,,,0,0,0,0,,,,,0,2,2,2,,,,,,,,,,,,,,,,,,,,,,,,,1247.337306200061,0,shock,1,0.20142369996756315,0.2085042999824509,1247.5525942000095,,,,,,,,34,B,2023-12-15_16h33.04.626,gca_avoidance_task,2022.2.4,144.04717839596768,
positions.xlsx,stimuli.xlsx,stimuli/Social2.png,stimuli/Social1.png,stimuli/Nonsocial1.png,stimuli/Nonsocial2.png,,"(0.7, -0.5)",cs_plus_ns,,,,,0,0,0,0,,,,,0,3,3,11,,,,,,,,,,,,,,,,,,,,,,,,,1257.0938651000615,0,shock,1,0.2918438999913633,0.291847400018014,1257.3924864999717,,,,,,,,34,B,2023-12-15_16h33.04.626,gca_avoidance_task,2022.2.4,144.04717839596768,
positions.xlsx,stimuli.xlsx,stimuli/Social2.png,stimuli/Social1.png,stimuli/Nonsocial1.png,stimuli/Nonsocial2.png,,"(0.7, -0.5)",cs_minus_s,,,,,0,0,0,0,,,,,0,4,4,7,,,,,,,,,,,,,,,,,,,,,,,,,1265.9129873000784,5,reward,1,0.2778997999848798,0.27790360001381487,1266.197691700072,,,,,,,,34,B,2023-12-15_16h33.04.626,gca_avoidance_task,2022.2.4,144.04717839596768,
positions.xlsx,stimuli.xlsx,stimuli/Social2.png,stimuli/Social1.png,stimuli/Nonsocial1.png,stimuli/Nonsocial2.png,,"(0.7, 0.5)",cs_plus_ns,,,,,0,0,0,0,,,,,0,5,5,10,,,,,,,,,,,,,,,,,,,,,,,,,1276.3986909000669,5,shock,1,0.3268110000062734,0.326814700034447,1276.7319822000572,,,,,,,,34,B,2023-12-15_16h33.04.626,gca_avoidance_task,2022.2.4,144.04717839596768,
positions.xlsx,stimuli.xlsx,stimuli/Social2.png,stimuli/Social1.png,stimuli/Nonsocial1.png,stimuli/Nonsocial2.png,,"(0.7, -0.5)",cs_minus_ns,,,,,0,0,0,0,,,,,0,6,6,15,,,,,,,,,,,,,,,,,,,,,,,,,1286.9052080999827,10,reward,1,0.3058924999786541,0.30589590000454336,1287.2176951000001,,,,,,,,34,B,2023-12-15_16h33.04.626,gca_avoidance_task,2022.2.4,144.04717839596768,
positions.xlsx,stimuli.xlsx,stimuli/Social2.png,stimuli/Social1.png,stimuli/Nonsocial1.png,stimuli/Nonsocial2.png,,"(-0.7, -0.5)",cs_minus_s,,,,,0,0,0,0,,,,,0,7,7,5,,,,,,,,,,,,,,,,,,,,,,,,,1295.9812330000568,15,reward,1,0.22226549999322742,0.22226899990346283,1296.210397100076,,,,,,,,34,B,2023-12-15_16h33.04.626,gca_avoidance_task,2022.2.4,144.04717839596768,
positions.xlsx,stimuli.xlsx,stimuli/Social2.png,stimuli/Social1.png,stimuli/Nonsocial1.png,stimuli/Nonsocial2.png,,"(-0.7, 0.5)",cs_minus_s,,,,,0,0,0,0,,,,,0,8,8,4,,,,,,,,,,,,,,,,,,,,,,,,,1305.8697634000564,20,reward,1,0.257029699976556,0.25703340000472963,1306.1336213999894,,,,,,,,34,B,2023-12-15_16h33.04.626,gca_avoidance_task,2022.2.4,144.04717839596768,
positions.xlsx,stimuli.xlsx,stimuli/Social2.png,stimuli/Social1.png,stimuli/Nonsocial1.png,stimuli/Nonsocial2.png,,"(-0.7, -0.5)",cs_plus_s,,,,,0,0,0,0,,,,,0,9,9,1,,,,,,,,,,,,,,,,,,,,,,,,,1316.202655900037,20,shock,1,0.2709054999286309,0.2709093999583274,1316.4804436999839,,,,,,,,34,B,2023-12-15_16h33.04.626,gca_avoidance_task,2022.2.4,144.04717839596768,
positions.xlsx,stimuli.xlsx,stimuli/Social2.png,stimuli/Social1.png,stimuli/Nonsocial1.png,stimuli/Nonsocial2.png,,"(-0.7, 0.5)",cs_plus_s,,,,,0,0,0,0,,,,,0,10,10,0,,,,,,,,,,,,,,,,,,,,,,,,,1326.0078605000162,20,shock,1,0.2920948000391945,0.2920986000681296,1326.29949330003,,,,,,,,34,B,2023-12-15_16h33.04.626,gca_avoidance_task,2022.2.4,144.04717839596768,
positions.xlsx,stimuli.xlsx,stimuli/Social2.png,stimuli/Social1.png,stimuli/Nonsocial1.png,stimuli/Nonsocial2.png,,"(-0.7, 0.5)",cs_minus_ns,,,,,0,0,0,0,,,,,0,11,11,12,,,,,,,,,,,,,,,,,,,,,,,,,1335.4032887000358,25,reward,1,0.22925759991630912,0.2292609999421984,1335.6393892000197,,,,,,,,34,B,2023-12-15_16h33.04.626,gca_avoidance_task,2022.2.4,144.04717839596768,
positions.xlsx,stimuli.xlsx,stimuli/Social2.png,stimuli/Social1.png,stimuli/Nonsocial1.png,stimuli/Nonsocial2.png,,"(-0.7, 0.5)",cs_plus_ns,,,,,0,0,0,0,,,,,0,12,12,8,,,,,,,,,,,,,,,,,,,,,,,,,1345.6181808999972,25,shock,1,0.2570845999289304,0.2641266999999061,1345.8889853999717,,,,,,,,34,B,2023-12-15_16h33.04.626,gca_avoidance_task,2022.2.4,144.04717839596768,
positions.xlsx,stimuli.xlsx,stimuli/Social2.png,stimuli/Social1.png,stimuli/Nonsocial1.png,stimuli/Nonsocial2.png,,"(0.7, 0.5)",cs_minus_ns,,,,,0,0,0,0,,,,,0,13,13,14,,,,,,,,,,,,,,,,,,,,,,,,,1355.465023900033,30,reward,1,0.21534620004240423,0.22220449999440461,1355.6941613000818,,,,,,,,34,B,2023-12-15_16h33.04.626,gca_avoidance_task,2022.2.4,144.04717839596768,
positions.xlsx,stimuli.xlsx,stimuli/Social2.png,stimuli/Social1.png,stimuli/Nonsocial1.png,stimuli/Nonsocial2.png,,"(0.7, 0.5)",cs_minus_s,,,,,0,0,0,0,,,,,0,14,14,6,,,,,,,,,,,,,,,,,,,,,,,,,1365.2285169999814,35,reward,1,0.2920012000249699,0.2920049000531435,1365.5271141000558,,,,,,,,34,B,2023-12-15_16h33.04.626,gca_avoidance_task,2022.2.4,144.04717839596768,
positions.xlsx,stimuli.xlsx,stimuli/Social2.png,stimuli/Social1.png,stimuli/Nonsocial1.png,stimuli/Nonsocial2.png,,"(-0.7, -0.5)",cs_minus_ns,,,,,0,0,0,0,,,,,0,15,15,13,,,,,,,,,,,,,,,,,,,,,,,,,1375.3461620999733,40,reward,1,0.25688060000538826,0.2568841999163851,1375.6100991000421,,,,,,,,34,B,2023-12-15_16h33.04.626,gca_avoidance_task,2022.2.4,144.04717839596768,
positions.xlsx,stimuli.xlsx,stimuli/Social2.png,stimuli/Social1.png,stimuli/Nonsocial1.png,stimuli/Nonsocial2.png,,"(-0.7, -0.5)",cs_plus_ns,,,,,0,0,0,0,,,,,1,0,16,9,,,,,,,,,,,,,,,,,,,,,,,,,1385.3527452000417,40,shock,1,0.3263629999710247,0.32636659999843687,1385.686072600074,,,,,,,,34,B,2023-12-15_16h33.04.626,gca_avoidance_task,2022.2.4,144.04717839596768,
positions.xlsx,stimuli.xlsx,stimuli/Social2.png,stimuli/Social1.png,stimuli/Nonsocial1.png,stimuli/Nonsocial2.png,,"(0.7, -0.5)",cs_plus_s,,,,,0,0,0,0,,,,,1,1,17,3,,,,,,,,,,,,,,,,,,,,,,,,,1394.5606950999936,40,shock,1,0.41673429997172207,0.4167379999998957,1394.984348100028,,,,,,,,34,B,2023-12-15_16h33.04.626,gca_avoidance_task,2022.2.4,144.04717839596768,
positions.xlsx,stimuli.xlsx,stimuli/Social2.png,stimuli/Social1.png,stimuli/Nonsocial1.png,stimuli/Nonsocial2.png,,"(0.7, 0.5)",cs_minus_s,,,,,0,0,0,0,,,,,1,2,18,6,,,,,,,,,,,,,,,,,,,,,,,,,1404.1506077999948,45,reward,1,0.26409099996089935,0.26409479998983443,1404.4214266000781,,,,,,,,34,B,2023-12-15_16h33.04.626,gca_avoidance_task,2022.2.4,144.04717839596768,
positions.xlsx,stimuli.xlsx,stimuli/Social2.png,stimuli/Social1.png,stimuli/Nonsocial1.png,stimuli/Nonsocial2.png,,"(0.7, -0.5)",cs_plus_ns,,,,,0,0,0,0,,,,,1,3,19,11,,,,,,,,,,,,,,,,,,,,,,,,,1414.4766070999904,45,shock,1,0.2712319000856951,0.2712353999959305,1414.7544144000858,,,,,,,,34,B,2023-12-15_16h33.04.626,gca_avoidance_task,2022.2.4,144.04717839596768,
positions.xlsx,stimuli.xlsx,stimuli/Social2.png,stimuli/Social1.png,stimuli/Nonsocial1.png,stimuli/Nonsocial2.png,,"(-0.7, 0.5)",cs_minus_s,,,,,0,0,0,0,,,,,1,4,20,4,,,,,,,,,,,,,,,,,,,,,,,,,1424.3234423000831,50,reward,1,0.26455709990113974,0.26456079992931336,1424.5942678999854,,,,,,,,34,B,2023-12-15_16h33.04.626,gca_avoidance_task,2022.2.4,144.04717839596768,
positions.xlsx,stimuli.xlsx,stimuli/Social2.png,stimuli/Social1.png,stimuli/Nonsocial1.png,stimuli/Nonsocial2.png,,"(0.7, -0.5)",cs_minus_s,,,,,0,0,0,0,,,,,1,5,21,7,,,,,,,,,,,,,,,,,,,,,,,,,1433.975824000081,55,reward,1,0.2504614000208676,0.25046480004675686,1434.232821200043,,,,,,,,34,B,2023-12-15_16h33.04.626,gca_avoidance_task,2022.2.4,144.04717839596768,
positions.xlsx,stimuli.xlsx,stimuli/Social2.png,stimuli/Social1.png,stimuli/Nonsocial1.png,stimuli/Nonsocial2.png,,"(-0.7, -0.5)",cs_minus_ns,,,,,0,0,0,0,,,,,1,6,22,13,,,,,,,,,,,,,,,,,,,,,,,,,1444.3990426000673,60,reward,1,0.27132920001167804,0.27133289992343634,1444.676806100062,,,,,,,,34,B,2023-12-15_16h33.04.626,gca_avoidance_task,2022.2.4,144.04717839596768,
positions.xlsx,stimuli.xlsx,stimuli/Social2.png,stimuli/Social1.png,stimuli/Nonsocial1.png,stimuli/Nonsocial2.png,,"(0.7, -0.5)",cs_minus_ns,,,,,0,0,0,0,,,,,1,7,23,15,,,,,,,,,,,,,,,,,,,,,,,,,1454.433351200074,65,reward,1,0.26390500005800277,0.26390860008541495,1454.7041996000335,,,,,,,,34,B,2023-12-15_16h33.04.626,gca_avoidance_task,2022.2.4,144.04717839596768,
positions.xlsx,stimuli.xlsx,stimuli/Social2.png,stimuli/Social1.png,stimuli/Nonsocial1.png,stimuli/Nonsocial2.png,,"(-0.7, 0.5)",cs_plus_ns,,,,,0,0,0,0,,,,,1,8,24,8,,,,,,,,,,,,,,,,,,,,,,,,,1464.870471799979,65,shock,1,0.27833559992723167,0.27833919995464385,1465.1551629999885,,,,,,,,34,B,2023-12-15_16h33.04.626,gca_avoidance_task,2022.2.4,144.04717839596768,
positions.xlsx,stimuli.xlsx,stimuli/Social2.png,stimuli/Social1.png,stimuli/Nonsocial1.png,stimuli/Nonsocial2.png,,"(0.7, 0.5)",cs_plus_ns,,,,,0,0,0,0,,,,,1,9,25,10,,,,,,,,,,,,,,,,,,,,,,,,,1475.3839191000443,65,shock,1,0.29185050004161894,0.2918542999541387,1475.6825511000352,,,,,,,,34,B,2023-12-15_16h33.04.626,gca_avoidance_task,2022.2.4,144.04717839596768,
positions.xlsx,stimuli.xlsx,stimuli/Social2.png,stimuli/Social1.png,stimuli/Nonsocial1.png,stimuli/Nonsocial2.png,,"(0.7, 0.5)",cs_plus_s,,,,,0,0,0,0,,,,,1,10,26,2,,,,,,,,,,,,,,,,,,,,,,,,,1484.8557929000817,65,shock,1,0.4169000000692904,0.4169036000967026,1485.279403500026,,,,,,,,34,B,2023-12-15_16h33.04.626,gca_avoidance_task,2022.2.4,144.04717839596768,
positions.xlsx,stimuli.xlsx,stimuli/Social2.png,stimuli/Social1.png,stimuli/Nonsocial1.png,stimuli/Nonsocial2.png,,"(0.7, 0.5)",cs_minus_ns,,,,,0,0,0,0,,,,,1,11,27,14,,,,,,,,,,,,,,,,,,,,,,,,,1495.0706786999945,70,reward,1,0.21583140001166612,0.21583530004136264,1495.292865500087,,,,,,,,34,B,2023-12-15_16h33.04.626,gca_avoidance_task,2022.2.4,144.04717839596768,
positions.xlsx,stimuli.xlsx,stimuli/Social2.png,stimuli/Social1.png,stimuli/Nonsocial1.png,stimuli/Nonsocial2.png,,"(-0.7, -0.5)",cs_plus_s,,,,,0,0,0,0,,,,,1,12,28,1,,,,,,,,,,,,,,,,,,,,,,,,,1504.868892800063,70,shock,1,0.30572000006213784,0.30572369997389615,1505.1813808999723,,,,,,,,34,B,2023-12-15_16h33.04.626,gca_avoidance_task,2022.2.4,144.04717839596768,
positions.xlsx,stimuli.xlsx,stimuli/Social2.png,stimuli/Social1.png,stimuli/Nonsocial1.png,stimuli/Nonsocial2.png,,"(-0.7, 0.5)",cs_plus_s,,,,,0,0,0,0,,,,,1,13,29,0,,,,,,,,,,,,,,,,,,,,,,,,,1514.4726675000275,70,shock,1,0.22908180009108037,0.22908550000283867,1514.7087720000418,,,,,,,,34,B,2023-12-15_16h33.04.626,gca_avoidance_task,2022.2.4,144.04717839596768,
positions.xlsx,stimuli.xlsx,stimuli/Social2.png,stimuli/Social1.png,stimuli/Nonsocial1.png,stimuli/Nonsocial2.png,,"(-0.7, -0.5)",cs_minus_s,,,,,0,0,0,0,,,,,1,14,30,5,,,,,,,,,,,,,,,,,,,,,,,,,1524.4930721999845,75,reward,1,0.37515889992937446,0.37516269995830953,1524.875078400015,,,,,,,,34,B,2023-12-15_16h33.04.626,gca_avoidance_task,2022.2.4,144.04717839596768,
positions.xlsx,stimuli.xlsx,stimuli/Social2.png,stimuli/Social1.png,stimuli/Nonsocial1.png,stimuli/Nonsocial2.png,,"(-0.7, 0.5)",cs_minus_ns,,,,,0,0,0,0,,,,,1,15,31,12,,,,,,,,,,,,,,,,,,,,,,,,,1534.0483092999784,80,reward,1,0.3893108000047505,0.3893144999165088,1534.4441279000603,,,,,,,,34,B,2023-12-15_16h33.04.626,gca_avoidance_task,2022.2.4,144.04717839596768,
positions.xlsx,stimuli.xlsx,stimuli/Social2.png,stimuli/Social1.png,stimuli/Nonsocial1.png,stimuli/Nonsocial2.png,,"(0.7, 0.5)",cs_minus_s,,,,,0,0,0,0,,,,,,,,,0,0,0,6,,,,,,,,,,,,,,,,,,,,,1564.5957052999875,80,none,0,,,1569.6024978000205,,,,,,,,34,B,2023-12-15_16h33.04.626,gca_avoidance_task,2022.2.4,144.04717839596768,
positions.xlsx,stimuli.xlsx,stimuli/Social2.png,stimuli/Social1.png,stimuli/Nonsocial1.png,stimuli/Nonsocial2.png,,"(-0.7, 0.5)",cs_plus_ns,,,,,0,0,0,0,,,,,,,,,0,1,1,8,,,,,,,,,,,,,,,,,,,,,1579.2687705000862,80,none,0,,,1584.275528899976,,,,,,,,34,B,2023-12-15_16h33.04.626,gca_avoidance_task,2022.2.4,144.04717839596768,
positions.xlsx,stimuli.xlsx,stimuli/Social2.png,stimuli/Social1.png,stimuli/Nonsocial1.png,stimuli/Nonsocial2.png,,"(0.7, 0.5)",cs_plus_ns,,,,,0,0,0,0,,,,,,,,,0,2,2,10,,,,,,,,,,,,,,,,,,,,,1593.6362578000408,80,none,0,,,1598.6430296000326,,,,,,,,34,B,2023-12-15_16h33.04.626,gca_avoidance_task,2022.2.4,144.04717839596768,
positions.xlsx,stimuli.xlsx,stimuli/Social2.png,stimuli/Social1.png,stimuli/Nonsocial1.png,stimuli/Nonsocial2.png,,"(0.7, -0.5)",cs_plus_s,,,,,0,0,0,0,,,,,,,,,0,3,3,3,,,,,,,,,,,,,,,,,,,,,1608.1842981000664,80,none,0,,,1613.1910938000074,,,,,,,,34,B,2023-12-15_16h33.04.626,gca_avoidance_task,2022.2.4,144.04717839596768,
positions.xlsx,stimuli.xlsx,stimuli/Social2.png,stimuli/Social1.png,stimuli/Nonsocial1.png,stimuli/Nonsocial2.png,,"(-0.7, -0.5)",cs_minus_ns,,,,,0,0,0,0,,,,,,,,,0,4,4,13,,,,,,,,,,,,,,,,,,,,,1622.3782262000022,80,none,0,,,1627.3849418000318,,,,,,,,34,B,2023-12-15_16h33.04.626,gca_avoidance_task,2022.2.4,144.04717839596768,
positions.xlsx,stimuli.xlsx,stimuli/Social2.png,stimuli/Social1.png,stimuli/Nonsocial1.png,stimuli/Nonsocial2.png,,"(0.7, 0.5)",cs_plus_s,,,,,0,0,0,0,,,,,,,,,0,5,5,2,,,,,,,,,,,,,,,,,,,,,1636.3360003000125,80,none,0,,,1641.3427784000523,,,,,,,,34,B,2023-12-15_16h33.04.626,gca_avoidance_task,2022.2.4,144.04717839596768,
positions.xlsx,stimuli.xlsx,stimuli/Social2.png,stimuli/Social1.png,stimuli/Nonsocial1.png,stimuli/Nonsocial2.png,,"(-0.7, 0.5)",cs_minus_ns,,,,,0,0,0,0,,,,,,,,,0,6,6,12,,,,,,,,,,,,,,,,,,,,,1650.5437627000501,85,reward,1,0.6532176000764593,0.653221300104633,1651.2034756999929,,,,,,,,34,B,2023-12-15_16h33.04.626,gca_avoidance_task,2022.2.4,144.04717839596768,
positions.xlsx,stimuli.xlsx,stimuli/Social2.png,stimuli/Social1.png,stimuli/Nonsocial1.png,stimuli/Nonsocial2.png,,"(-0.7, 0.5)",cs_plus_s,,,,,0,0,0,0,,,,,,,,,0,7,7,0,,,,,,,,,,,,,,,,,,,,,1660.4461706000147,85,shock,1,0.4728282999712974,0.4796457999618724,1660.932261500042,,,,,,,,34,B,2023-12-15_16h33.04.626,gca_avoidance_task,2022.2.4,144.04717839596768,
positions.xlsx,stimuli.xlsx,stimuli/Social2.png,stimuli/Social1.png,stimuli/Nonsocial1.png,stimuli/Nonsocial2.png,,"(-0.7, -0.5)",cs_plus_s,,,,,0,0,0,0,,,,,,,,,0,8,8,1,,,,,,,,,,,,,,,,,,,,,1670.022159700049,85,none,0,,,1675.0289308000356,,,,,,,,34,B,2023-12-15_16h33.04.626,gca_avoidance_task,2022.2.4,144.04717839596768,
positions.xlsx,stimuli.xlsx,stimuli/Social2.png,stimuli/Social1.png,stimuli/Nonsocial1.png,stimuli/Nonsocial2.png,,"(-0.7, -0.5)",cs_minus_s,,,,,0,0,0,0,,,,,,,,,0,9,9,5,,,,,,,,,,,,,,,,,,,,,1685.2715870999964,90,reward,1,0.5069794000592083,0.5069829999702051,1685.7854477000656,,,,,,,,34,B,2023-12-15_16h33.04.626,gca_avoidance_task,2022.2.4,144.04717839596768,
positions.xlsx,stimuli.xlsx,stimuli/Social2.png,stimuli/Social1.png,stimuli/Nonsocial1.png,stimuli/Nonsocial2.png,,"(0.7, -0.5)",cs_plus_ns,,,,,0,0,0,0,,,,,,,,,0,10,10,11,,,,,,,,,,,,,,,,,,,,,1694.6809465000406,90,shock,1,0.7502761000068858,0.7502798999194056,1695.437846200075,,,,,,,,34,B,2023-12-15_16h33.04.626,gca_avoidance_task,2022.2.4,144.04717839596768,
positions.xlsx,stimuli.xlsx,stimuli/Social2.png,stimuli/Social1.png,stimuli/Nonsocial1.png,stimuli/Nonsocial2.png,,"(0.7, -0.5)",cs_minus_s,,,,,0,0,0,0,,,,,,,,,0,11,11,7,,,,,,,,,,,,,,,,,,,,,1705.1805315000238,95,reward,1,0.5695940000005066,0.5695975000271574,1705.7569596000249,,,,,,,,34,B,2023-12-15_16h33.04.626,gca_avoidance_task,2022.2.4,144.04717839596768,
positions.xlsx,stimuli.xlsx,stimuli/Social2.png,stimuli/Social1.png,stimuli/Nonsocial1.png,stimuli/Nonsocial2.png,,"(-0.7, -0.5)",cs_plus_ns,,,,,0,0,0,0,,,,,,,,,0,12,12,9,,,,,,,,,,,,,,,,,,,,,1716.0689930000808,95,shock,1,0.7362636000616476,0.7362673999741673,1716.8120361000765,,,,,,,,34,B,2023-12-15_16h33.04.626,gca_avoidance_task,2022.2.4,144.04717839596768,
positions.xlsx,stimuli.xlsx,stimuli/Social2.png,stimuli/Social1.png,stimuli/Nonsocial1.png,stimuli/Nonsocial2.png,,"(0.7, -0.5)",cs_minus_ns,,,,,0,0,0,0,,,,,,,,,0,13,13,15,,,,,,,,,,,,,,,,,,,,,1726.075536700082,95,none,0,,,1731.0823182000313,,,,,,,,34,B,2023-12-15_16h33.04.626,gca_avoidance_task,2022.2.4,144.04717839596768,
positions.xlsx,stimuli.xlsx,stimuli/Social2.png,stimuli/Social1.png,stimuli/Nonsocial1.png,stimuli/Nonsocial2.png,,"(-0.7, 0.5)",cs_minus_s,,,,,0,0,0,0,,,,,,,,,0,14,14,4,,,,,,,,,,,,,,,,,,,,,1741.5054883999983,100,reward,1,0.6387685000663623,0.6387721000937745,1742.1513332000468,,,,,,,,34,B,2023-12-15_16h33.04.626,gca_avoidance_task,2022.2.4,144.04717839596768,
positions.xlsx,stimuli.xlsx,stimuli/Social2.png,stimuli/Social1.png,stimuli/Nonsocial1.png,stimuli/Nonsocial2.png,,"(0.7, 0.5)",cs_minus_ns,,,,,0,0,0,0,,,,,,,,,0,15,15,14,,,,,,,,,,,,,,,,,,,,,1751.171808800078,105,reward,1,0.8407204000977799,0.8476519000250846,1752.0258994000033,,,,,,,,34,B,2023-12-15_16h33.04.626,gca_avoidance_task,2022.2.4,144.04717839596768,
positions.xlsx,stimuli.xlsx,stimuli/Social2.png,stimuli/Social1.png,stimuli/Nonsocial1.png,stimuli/Nonsocial2.png,,"(0.7, 0.5)",cs_minus_s,,,,,0,0,0,0,,,,,,,,,1,0,16,6,,,,,,,,,,,,,,,,,,,,,1761.5463775000535,110,reward,1,0.5840978999622166,0.5841015999903902,1762.1366286000703,,,,,,,,34,B,2023-12-15_16h33.04.626,gca_avoidance_task,2022.2.4,144.04717839596768,
positions.xlsx,stimuli.xlsx,stimuli/Social2.png,stimuli/Social1.png,stimuli/Nonsocial1.png,stimuli/Nonsocial2.png,,"(-0.7, -0.5)",cs_minus_ns,,,,,0,0,0,0,,,,,,,,,1,1,17,13,,,,,,,,,,,,,,,,,,,,,1771.907088899985,115,reward,1,1.6530991999898106,1.6531030000187457,1773.5667625999777,,,,,,,,34,B,2023-12-15_16h33.04.626,gca_avoidance_task,2022.2.4,144.04717839596768,
positions.xlsx,stimuli.xlsx,stimuli/Social2.png,stimuli/Social1.png,stimuli/Nonsocial1.png,stimuli/Nonsocial2.png,,"(-0.7, -0.5)",cs_minus_s,,,,,0,0,0,0,,,,,,,,,1,2,18,5,,,,,,,,,,,,,,,,,,,,,1783.9274569000117,120,reward,1,0.5491288000484928,0.5491326000774279,1784.483046600013,,,,,,,,34,B,2023-12-15_16h33.04.626,gca_avoidance_task,2022.2.4,144.04717839596768,
positions.xlsx,stimuli.xlsx,stimuli/Social2.png,stimuli/Social1.png,stimuli/Nonsocial1.png,stimuli/Nonsocial2.png,,"(0.7, 0.5)",cs_plus_s,,,,,0,0,0,0,,,,,,,,,1,3,19,2,,,,,,,,,,,,,,,,,,,,,1794.3506672000512,120,none,0,,,1799.3574211000232,,,,,,,,34,B,2023-12-15_16h33.04.626,gca_avoidance_task,2022.2.4,144.04717839596768,
positions.xlsx,stimuli.xlsx,stimuli/Social2.png,stimuli/Social1.png,stimuli/Nonsocial1.png,stimuli/Nonsocial2.png,,"(0.7, 0.5)",cs_minus_ns,,,,,0,0,0,0,,,,,,,,,1,4,20,14,,,,,,,,,,,,,,,,,,,,,1808.1418117000721,125,reward,1,0.6524588000029325,0.6524754000129178,1808.8015027000802,,,,,,,,34,B,2023-12-15_16h33.04.626,gca_avoidance_task,2022.2.4,144.04717839596768,
positions.xlsx,stimuli.xlsx,stimuli/Social2.png,stimuli/Social1.png,stimuli/Nonsocial1.png,stimuli/Nonsocial2.png,,"(-0.7, 0.5)",cs_minus_s,,,,,0,0,0,0,,,,,,,,,1,5,21,4,,,,,,,,,,,,,,,,,,,,,1817.9955547000282,130,reward,1,0.4864794999593869,0.4864831999875605,1818.4886630000547,,,,,,,,34,B,2023-12-15_16h33.04.626,gca_avoidance_task,2022.2.4,144.04717839596768,
positions.xlsx,stimuli.xlsx,stimuli/Social2.png,stimuli/Social1.png,stimuli/Nonsocial1.png,stimuli/Nonsocial2.png,,"(-0.7, -0.5)",cs_plus_ns,,,,,0,0,0,0,,,,,,,,,1,6,22,9,,,,,,,,,,,,,,,,,,,,,1827.1410494999727,130,none,0,,,1832.1478505000705,,,,,,,,34,B,2023-12-15_16h33.04.626,gca_avoidance_task,2022.2.4,144.04717839596768,
positions.xlsx,stimuli.xlsx,stimuli/Social2.png,stimuli/Social1.png,stimuli/Nonsocial1.png,stimuli/Nonsocial2.png,,"(-0.7, 0.5)",cs_minus_ns,,,,,0,0,0,0,,,,,,,,,1,7,23,12,,,,,,,,,,,,,,,,,,,,,1841.8279687999748,135,reward,1,0.7367129999911413,0.7367171000223607,1842.5710349000292,,,,,,,,34,B,2023-12-15_16h33.04.626,gca_avoidance_task,2022.2.4,144.04717839596768,
positions.xlsx,stimuli.xlsx,stimuli/Social2.png,stimuli/Social1.png,stimuli/Nonsocial1.png,stimuli/Nonsocial2.png,,"(0.7, -0.5)",cs_plus_ns,,,,,0,0,0,0,,,,,,,,,1,8,24,11,,,,,,,,,,,,,,,,,,,,,1851.515109000029,135,none,0,,,1856.5218617999926,,,,,,,,34,B,2023-12-15_16h33.04.626,gca_avoidance_task,2022.2.4,144.04717839596768,
positions.xlsx,stimuli.xlsx,stimuli/Social2.png,stimuli/Social1.png,stimuli/Nonsocial1.png,stimuli/Nonsocial2.png,,"(-0.7, 0.5)",cs_plus_s,,,,,0,0,0,0,,,,,,,,,1,9,25,0,,,,,,,,,,,,,,,,,,,,,1866.0909490999766,135,none,0,,,1871.0977275000187,,,,,,,,34,B,2023-12-15_16h33.04.626,gca_avoidance_task,2022.2.4,144.04717839596768,
positions.xlsx,stimuli.xlsx,stimuli/Social2.png,stimuli/Social1.png,stimuli/Nonsocial1.png,stimuli/Nonsocial2.png,,"(0.7, -0.5)",cs_plus_s,,,,,0,0,0,0,,,,,,,,,1,10,26,3,,,,,,,,,,,,,,,,,,,,,1880.458469800069,135,none,0,,,1885.4651624000398,,,,,,,,34,B,2023-12-15_16h33.04.626,gca_avoidance_task,2022.2.4,144.04717839596768,
positions.xlsx,stimuli.xlsx,stimuli/Social2.png,stimuli/Social1.png,stimuli/Nonsocial1.png,stimuli/Nonsocial2.png,,"(0.7, -0.5)",cs_minus_s,,,,,0,0,0,0,,,,,,,,,1,11,27,7,,,,,,,,,,,,,,,,,,,,,1894.7426057000412,140,reward,1,0.5624881000258029,0.562491999939084,1895.3120272000087,,,,,,,,34,B,2023-12-15_16h33.04.626,gca_avoidance_task,2022.2.4,144.04717839596768,
positions.xlsx,stimuli.xlsx,stimuli/Social2.png,stimuli/Social1.png,stimuli/Nonsocial1.png,stimuli/Nonsocial2.png,,"(0.7, 0.5)",cs_plus_ns,,,,,0,0,0,0,,,,,,,,,1,12,28,10,,,,,,,,,,,,,,,,,,,,,1904.7282950000372,140,none,0,,,1909.7350663000252,,,,,,,,34,B,2023-12-15_16h33.04.626,gca_avoidance_task,2022.2.4,144.04717839596768,
positions.xlsx,stimuli.xlsx,stimuli/Social2.png,stimuli/Social1.png,stimuli/Nonsocial1.png,stimuli/Nonsocial2.png,,"(-0.7, -0.5)",cs_plus_s,,,,,0,0,0,0,,,,,,,,,1,13,29,1,,,,,,,,,,,,,,,,,,,,,1918.5264074000297,140,none,0,,,1923.533123500063,,,,,,,,34,B,2023-12-15_16h33.04.626,gca_avoidance_task,2022.2.4,144.04717839596768,
positions.xlsx,stimuli.xlsx,stimuli/Social2.png,stimuli/Social1.png,stimuli/Nonsocial1.png,stimuli/Nonsocial2.png,,"(-0.7, 0.5)",cs_plus_ns,,,,,0,0,0,0,,,,,,,,,1,14,30,8,,,,,,,,,,,,,,,,,,,,,1932.789736000006,140,none,0,,,1937.7964592999779,,,,,,,,34,B,2023-12-15_16h33.04.626,gca_avoidance_task,2022.2.4,144.04717839596768,
positions.xlsx,stimuli.xlsx,stimuli/Social2.png,stimuli/Social1.png,stimuli/Nonsocial1.png,stimuli/Nonsocial2.png,,"(0.7, -0.5)",cs_minus_ns,,,,,0,0,0,0,,,,,,,,,1,15,31,15,,,,,,,,,,,,,,,,,,,,,1947.3793857999844,145,reward,1,0.6738876999588683,0.6738914999878034,1948.0599571000785,,,,,,,,34,B,2023-12-15_16h33.04.626,gca_avoidance_task,2022.2.4,144.04717839596768,
positions.xlsx,stimuli.xlsx,stimuli/Social2.png,stimuli/Social1.png,stimuli/Nonsocial1.png,stimuli/Nonsocial2.png,,"(0.7, -0.5)",cs_plus_s,,,,,0,0,0,0,,,,,,,,,2,0,32,3,,,,,,,,,,,,,,,,,,,,,1957.156817900017,145,none,0,,,1962.1635553999804,,,,,,,,34,B,2023-12-15_16h33.04.626,gca_avoidance_task,2022.2.4,144.04717839596768,
positions.xlsx,stimuli.xlsx,stimuli/Social2.png,stimuli/Social1.png,stimuli/Nonsocial1.png,stimuli/Nonsocial2.png,,"(-0.7, 0.5)",cs_plus_ns,,,,,0,0,0,0,,,,,,,,,2,1,33,8,,,,,,,,,,,,,,,,,,,,,1971.378530099988,145,none,0,,,1976.385254700086,,,,,,,,34,B,2023-12-15_16h33.04.626,gca_avoidance_task,2022.2.4,144.04717839596768,
positions.xlsx,stimuli.xlsx,stimuli/Social2.png,stimuli/Social1.png,stimuli/Nonsocial1.png,stimuli/Nonsocial2.png,,"(0.7, -0.5)",cs_plus_ns,,,,,0,0,0,0,,,,,,,,,2,2,34,11,,,,,,,,,,,,,,,,,,,,,1986.4820707000326,145,none,0,,,1991.4888203999726,,,,,,,,34,B,2023-12-15_16h33.04.626,gca_avoidance_task,2022.2.4,144.04717839596768,
positions.xlsx,stimuli.xlsx,stimuli/Social2.png,stimuli/Social1.png,stimuli/Nonsocial1.png,stimuli/Nonsocial2.png,,"(-0.7, -0.5)",cs_minus_ns,,,,,0,0,0,0,,,,,,,,,2,3,35,13,,,,,,,,,,,,,,,,,,,,,2000.981496600085,150,reward,1,1.4447922999970615,1.4447961000259966,2002.4328354999889,,,,,,,,34,B,2023-12-15_16h33.04.626,gca_avoidance_task,2022.2.4,144.04717839596768,
positions.xlsx,stimuli.xlsx,stimuli/Social2.png,stimuli/Social1.png,stimuli/Nonsocial1.png,stimuli/Nonsocial2.png,,"(-0.7, -0.5)",cs_plus_s,,,,,0,0,0,0,,,,,,,,,2,4,36,1,,,,,,,,,,,,,,,,,,,,,2011.6686195000075,150,none,0,,,2016.675366600044,,,,,,,,34,B,2023-12-15_16h33.04.626,gca_avoidance_task,2022.2.4,144.04717839596768,
positions.xlsx,stimuli.xlsx,stimuli/Social2.png,stimuli/Social1.png,stimuli/Nonsocial1.png,stimuli/Nonsocial2.png,,"(0.7, 0.5)",cs_minus_ns,,,,,0,0,0,0,,,,,,,,,2,5,37,14,,,,,,,,,,,,,,,,,,,,,2025.9805475000758,155,reward,1,0.7015233000274748,0.7015271000564098,2026.688838400063,,,,,,,,34,B,2023-12-15_16h33.04.626,gca_avoidance_task,2022.2.4,144.04717839596768,
positions.xlsx,stimuli.xlsx,stimuli/Social2.png,stimuli/Social1.png,stimuli/Nonsocial1.png,stimuli/Nonsocial2.png,,"(-0.7, -0.5)",cs_plus_ns,,,,,0,0,0,0,,,,,,,,,2,6,38,9,,,,,,,,,,,,,,,,,,,,,2035.6467829999747,155,none,0,,,2040.6605369000463,,,,,,,,34,B,2023-12-15_16h33.04.626,gca_avoidance_task,2022.2.4,144.04717839596768,
positions.xlsx,stimuli.xlsx,stimuli/Social2.png,stimuli/Social1.png,stimuli/Nonsocial1.png,stimuli/Nonsocial2.png,,"(0.7, 0.5)",cs_plus_ns,,,,,0,0,0,0,,,,,,,,,2,7,39,10,,,,,,,,,,,,,,,,,,,,,2050.3198460000567,155,none,0,,,2055.326610999997,,,,,,,,34,B,2023-12-15_16h33.04.626,gca_avoidance_task,2022.2.4,144.04717839596768,
positions.xlsx,stimuli.xlsx,stimuli/Social2.png,stimuli/Social1.png,stimuli/Nonsocial1.png,stimuli/Nonsocial2.png,,"(0.7, 0.5)",cs_plus_s,,,,,0,0,0,0,,,,,,,,,2,8,40,2,,,,,,,,,,,,,,,,,,,,,2065.1040315000573,155,none,0,,,2070.1107784999767,,,,,,,,34,B,2023-12-15_16h33.04.626,gca_avoidance_task,2022.2.4,144.04717839596768,
positions.xlsx,stimuli.xlsx,stimuli/Social2.png,stimuli/Social1.png,stimuli/Nonsocial1.png,stimuli/Nonsocial2.png,,"(-0.7, 0.5)",cs_minus_s,,,,,0,0,0,0,,,,,,,,,2,9,41,4,,,,,,,,,,,,,,,,,,,,,2078.8951467999723,160,reward,1,0.6316738000605255,0.6316776000894606,2079.533991000033,,,,,,,,34,B,2023-12-15_16h33.04.626,gca_avoidance_task,2022.2.4,144.04717839596768,
positions.xlsx,stimuli.xlsx,stimuli/Social2.png,stimuli/Social1.png,stimuli/Nonsocial1.png,stimuli/Nonsocial2.png,,"(0.7, -0.5)",cs_minus_ns,,,,,0,0,0,0,,,,,,,,,2,10,42,15,,,,,,,,,,,,,,,,,,,,,2089.061409200076,165,reward,1,0.6183736999519169,0.6183773999800906,2089.6864189000335,,,,,,,,34,B,2023-12-15_16h33.04.626,gca_avoidance_task,2022.2.4,144.04717839596768,
positions.xlsx,stimuli.xlsx,stimuli/Social2.png,stimuli/Social1.png,stimuli/Nonsocial1.png,stimuli/Nonsocial2.png,,"(-0.7, 0.5)",cs_plus_s,,,,,0,0,0,0,,,,,,,,,2,11,43,0,,,,,,,,,,,,,,,,,,,,,2098.4846562000457,165,none,0,,,2103.4914157000603,,,,,,,,34,B,2023-12-15_16h33.04.626,gca_avoidance_task,2022.2.4,144.04717839596768,
positions.xlsx,stimuli.xlsx,stimuli/Social2.png,stimuli/Social1.png,stimuli/Nonsocial1.png,stimuli/Nonsocial2.png,,"(-0.7, 0.5)",cs_minus_ns,,,,,0,0,0,0,,,,,,,,,2,12,44,12,,,,,,,,,,,,,,,,,,,,,2112.1646696000826,170,reward,1,0.563036400009878,0.5630399000365287,2112.7341145999962,,,,,,,,34,B,2023-12-15_16h33.04.626,gca_avoidance_task,2022.2.4,144.04717839596768,
positions.xlsx,stimuli.xlsx,stimuli/Social2.png,stimuli/Social1.png,stimuli/Nonsocial1.png,stimuli/Nonsocial2.png,,"(0.7, -0.5)",cs_minus_s,,,,,0,0,0,0,,,,,,,,,2,13,45,7,,,,,,,,,,,,,,,,,,,,,2122.4142679000506,175,reward,1,1.4033532999455929,1.403357099974528,2123.8239416000433,,,,,,,,34,B,2023-12-15_16h33.04.626,gca_avoidance_task,2022.2.4,144.04717839596768,
positions.xlsx,stimuli.xlsx,stimuli/Social2.png,stimuli/Social1.png,stimuli/Nonsocial1.png,stimuli/Nonsocial2.png,,"(-0.7, -0.5)",cs_minus_s,,,,,0,0,0,0,,,,,,,,,2,14,46,5,,,,,,,,,,,,,,,,,,,,,2133.4555736000184,180,reward,1,0.3821901000337675,0.3821935999440029,2133.844396200031,,,,,,,,34,B,2023-12-15_16h33.04.626,gca_avoidance_task,2022.2.4,144.04717839596768,
positions.xlsx,stimuli.xlsx,stimuli/Social2.png,stimuli/Social1.png,stimuli/Nonsocial1.png,stimuli/Nonsocial2.png,,"(0.7, 0.5)",cs_minus_s,,,,,0,0,0,0,,,,,,,,,2,15,47,6,,,,,,,,,,,,,,,,,,,,,2143.163486000034,185,reward,1,0.42392269999254495,0.4239264000207186,2143.5940062999725,,,,,,,,34,B,2023-12-15_16h33.04.626,gca_avoidance_task,2022.2.4,144.04717839596768,
positions.xlsx,stimuli.xlsx,stimuli/Social2.png,stimuli/Social1.png,stimuli/Nonsocial1.png,stimuli/Nonsocial2.png,,"(0.7, 0.5)",cs_minus_ns,,,,,0,0,0,0,,,,,,,,,3,0,48,14,,,,,,,,,,,,,,,,,,,,,2152.9200241999933,190,reward,1,0.6738286999752745,0.6738324000034481,2153.6005846000044,,,,,,,,34,B,2023-12-15_16h33.04.626,gca_avoidance_task,2022.2.4,144.04717839596768,
positions.xlsx,stimuli.xlsx,stimuli/Social2.png,stimuli/Social1.png,stimuli/Nonsocial1.png,stimuli/Nonsocial2.png,,"(-0.7, -0.5)",cs_plus_s,,,,,0,0,0,0,,,,,,,,,3,1,49,1,,,,,,,,,,,,,,,,,,,,,2163.218236600049,190,shock,1,1.4239744000369683,1.423977900063619,2164.6487409999827,,,,,,,,34,B,2023-12-15_16h33.04.626,gca_avoidance_task,2022.2.4,144.04717839596768,
positions.xlsx,stimuli.xlsx,stimuli/Social2.png,stimuli/Social1.png,stimuli/Nonsocial1.png,stimuli/Nonsocial2.png,,"(-0.7, 0.5)",cs_plus_ns,,,,,0,0,0,0,,,,,,,,,3,2,50,8,,,,,,,,,,,,,,,,,,,,,2173.585893500014,190,shock,1,0.4165632000658661,0.41656670009251684,2174.0095023000613,,,,,,,,34,B,2023-12-15_16h33.04.626,gca_avoidance_task,2022.2.4,144.04717839596768,
positions.xlsx,stimuli.xlsx,stimuli/Social2.png,stimuli/Social1.png,stimuli/Nonsocial1.png,stimuli/Nonsocial2.png,,"(0.7, 0.5)",cs_minus_s,,,,,0,0,0,0,,,,,,,,,3,3,51,6,,,,,,,,,,,,,,,,,,,,,2182.675808800035,195,reward,1,0.5690868999809027,0.569090300006792,2183.2521776000503,,,,,,,,34,B,2023-12-15_16h33.04.626,gca_avoidance_task,2022.2.4,144.04717839596768,
positions.xlsx,stimuli.xlsx,stimuli/Social2.png,stimuli/Social1.png,stimuli/Nonsocial1.png,stimuli/Nonsocial2.png,,"(-0.7, -0.5)",cs_plus_ns,,,,,0,0,0,0,,,,,,,,,3,4,52,9,,,,,,,,,,,,,,,,,,,,,2192.807384600048,195,shock,1,0.30601990001741797,0.3060233999276534,2193.1198584000813,,,,,,,,34,B,2023-12-15_16h33.04.626,gca_avoidance_task,2022.2.4,144.04717839596768,
positions.xlsx,stimuli.xlsx,stimuli/Social2.png,stimuli/Social1.png,stimuli/Nonsocial1.png,stimuli/Nonsocial2.png,,"(-0.7, -0.5)",cs_minus_s,,,,,0,0,0,0,,,,,,,,,3,5,53,5,,,,,,,,,,,,,,,,,,,,,2203.188902300084,200,reward,1,0.43815970001742244,0.43816340004559606,2203.63341400004,,,,,,,,34,B,2023-12-15_16h33.04.626,gca_avoidance_task,2022.2.4,144.04717839596768,
positions.xlsx,stimuli.xlsx,stimuli/Social2.png,stimuli/Social1.png,stimuli/Nonsocial1.png,stimuli/Nonsocial2.png,,"(0.7, -0.5)",cs_plus_ns,,,,,0,0,0,0,,,,,,,,,3,6,54,11,,,,,,,,,,,,,,,,,,,,,2213.535721900058,200,shock,1,0.42382819997146726,0.4238451999844983,2213.9662804000545,,,,,,,,34,B,2023-12-15_16h33.04.626,gca_avoidance_task,2022.2.4,144.04717839596768,
positions.xlsx,stimuli.xlsx,stimuli/Social2.png,stimuli/Social1.png,stimuli/Nonsocial1.png,stimuli/Nonsocial2.png,,"(0.7, 0.5)",cs_plus_ns,,,,,0,0,0,0,,,,,,,,,3,7,55,10,,,,,,,,,,,,,,,,,,,,,2224.278357299976,200,shock,1,0.6249365999829024,0.624940300011076,2224.91030410002,,,,,,,,34,B,2023-12-15_16h33.04.626,gca_avoidance_task,2022.2.4,144.04717839596768,
positions.xlsx,stimuli.xlsx,stimuli/Social2.png,stimuli/Social1.png,stimuli/Nonsocial1.png,stimuli/Nonsocial2.png,,"(-0.7, -0.5)",cs_minus_ns,,,,,0,0,0,0,,,,,,,,,3,8,56,13,,,,,,,,,,,,,,,,,,,,,2234.3335242000176,205,reward,2,0.6393511999631301,0.6462470999686047,2235.666856799973,,,,,,,,34,B,2023-12-15_16h33.04.626,gca_avoidance_task,2022.2.4,144.04717839596768,
positions.xlsx,stimuli.xlsx,stimuli/Social2.png,stimuli/Social1.png,stimuli/Nonsocial1.png,stimuli/Nonsocial2.png,,"(0.7, -0.5)",cs_minus_s,,,,,0,0,0,0,,,,,,,,,3,9,57,7,,,,,,,,,,,,,,,,,,,,,2245.305319300038,210,reward,1,0.47918949997983873,0.4791931000072509,2245.791416299995,,,,,,,,34,B,2023-12-15_16h33.04.626,gca_avoidance_task,2022.2.4,144.04717839596768,
positions.xlsx,stimuli.xlsx,stimuli/Social2.png,stimuli/Social1.png,stimuli/Nonsocial1.png,stimuli/Nonsocial2.png,,"(0.7, -0.5)",cs_plus_s,,,,,0,0,0,0,,,,,,,,,3,10,58,3,,,,,,,,,,,,,,,,,,,,,2255.256336700055,210,none,0,,,2260.2630650000647,,,,,,,,34,B,2023-12-15_16h33.04.626,gca_avoidance_task,2022.2.4,144.04717839596768,
positions.xlsx,stimuli.xlsx,stimuli/Social2.png,stimuli/Social1.png,stimuli/Nonsocial1.png,stimuli/Nonsocial2.png,,"(-0.7, 0.5)",cs_minus_ns,,,,,0,0,0,0,,,,,,,,,3,11,59,12,,,,,,,,,,,,,,,,,,,,,2269.547423399985,215,reward,1,0.597191600012593,0.5971953999251127,2270.151595600066,,,,,,,,34,B,2023-12-15_16h33.04.626,gca_avoidance_task,2022.2.4,144.04717839596768,
positions.xlsx,stimuli.xlsx,stimuli/Social2.png,stimuli/Social1.png,stimuli/Nonsocial1.png,stimuli/Nonsocial2.png,,"(0.7, 0.5)",cs_plus_s,,,,,0,0,0,0,,,,,,,,,3,12,60,2,,,,,,,,,,,,,,,,,,,,,2279.6095465000253,215,none,0,,,2284.6163050000323,,,,,,,,34,B,2023-12-15_16h33.04.626,gca_avoidance_task,2022.2.4,144.04717839596768,
positions.xlsx,stimuli.xlsx,stimuli/Social2.png,stimuli/Social1.png,stimuli/Nonsocial1.png,stimuli/Nonsocial2.png,,"(0.7, -0.5)",cs_minus_ns,,,,,0,0,0,0,,,,,,,,,3,13,61,15,,,,,,,,,,,,,,,,,,,,,2294.1923160000006,220,reward,1,0.5350517999613658,0.5350552999880165,2294.7339794000145,,,,,,,,34,B,2023-12-15_16h33.04.626,gca_avoidance_task,2022.2.4,144.04717839596768,
positions.xlsx,stimuli.xlsx,stimuli/Social2.png,stimuli/Social1.png,stimuli/Nonsocial1.png,stimuli/Nonsocial2.png,,"(-0.7, 0.5)",cs_minus_s,,,,,0,0,0,0,,,,,,,,,3,14,62,4,,,,,,,,,,,,,,,,,,,,,2304.3724695000565,225,reward,1,0.5281117999693379,0.5281156999990344,2304.9071797999786,,,,,,,,34,B,2023-12-15_16h33.04.626,gca_avoidance_task,2022.2.4,144.04717839596768,
positions.xlsx,stimuli.xlsx,stimuli/Social2.png,stimuli/Social1.png,stimuli/Nonsocial1.png,stimuli/Nonsocial2.png,,"(-0.7, 0.5)",cs_plus_s,,,,,0,0,0,0,,,,,,,,,3,15,63,0,,,,,,,,,,,,,,,,,,,,,2314.323465400026,225,none,0,,,2319.3302190999966,,,,,,,,34,B,2023-12-15_16h33.04.626,gca_avoidance_task,2022.2.4,144.04717839596768,
positions.xlsx,stimuli.xlsx,stimuli/Social2.png,stimuli/Social1.png,stimuli/Nonsocial1.png,stimuli/Nonsocial2.png,,"(-0.7, -0.5)",cs_minus_ns,,,,,0,0,0,0,,,,,,,,,4,0,64,13,,,,,,,,,,,,,,,,,,,,,2329.197901000036,230,reward,1,0.5210643999744207,0.5210682000033557,2329.7256587999873,,,,,,,,34,B,2023-12-15_16h33.04.626,gca_avoidance_task,2022.2.4,144.04717839596768,
positions.xlsx,stimuli.xlsx,stimuli/Social2.png,stimuli/Social1.png,stimuli/Nonsocial1.png,stimuli/Nonsocial2.png,,"(0.7, 0.5)",cs_minus_ns,,,,,0,0,0,0,,,,,,,,,4,1,65,14,,,,,,,,,,,,,,,,,,,,,2339.593312400044,235,reward,1,0.5000454999972135,0.5000493000261486,2340.100241200067,,,,,,,,34,B,2023-12-15_16h33.04.626,gca_avoidance_task,2022.2.4,144.04717839596768,
positions.xlsx,stimuli.xlsx,stimuli/Social2.png,stimuli/Social1.png,stimuli/Nonsocial1.png,stimuli/Nonsocial2.png,,"(-0.7, 0.5)",cs_minus_s,,,,,0,0,0,0,,,,,,,,,4,2,66,4,,,,,,,,,,,,,,,,,,,,,2350.079043000005,240,reward,1,0.4310902999714017,0.4310939999995753,2350.516523499973,,,,,,,,34,B,2023-12-15_16h33.04.626,gca_avoidance_task,2022.2.4,144.04717839596768,
positions.xlsx,stimuli.xlsx,stimuli/Social2.png,stimuli/Social1.png,stimuli/Nonsocial1.png,stimuli/Nonsocial2.png,,"(-0.7, -0.5)",cs_plus_ns,,,,,0,0,0,0,,,,,,,,,4,3,67,9,,,,,,,,,,,,,,,,,,,,,2360.2175261999946,240,shock,1,1.0488899999763817,1.0488940000068396,2361.2730363999726,,,,,,,,34,B,2023-12-15_16h33.04.626,gca_avoidance_task,2022.2.4,144.04717839596768,
positions.xlsx,stimuli.xlsx,stimuli/Social2.png,stimuli/Social1.png,stimuli/Nonsocial1.png,stimuli/Nonsocial2.png,,"(-0.7, 0.5)",cs_plus_s,,,,,0,0,0,0,,,,,,,,,4,4,68,0,,,,,,,,,,,,,,,,,,,,,2370.126869700034,240,shock,1,0.5207459999946877,0.5207495000213385,2370.6546053000493,,,,,,,,34,B,2023-12-15_16h33.04.626,gca_avoidance_task,2022.2.4,144.04717839596768,
positions.xlsx,stimuli.xlsx,stimuli/Social2.png,stimuli/Social1.png,stimuli/Nonsocial1.png,stimuli/Nonsocial2.png,,"(0.7, 0.5)",cs_plus_s,,,,,0,0,0,0,,,,,,,,,4,5,69,2,,,,,,,,,,,,,,,,,,,,,2379.7098266000394,240,shock,1,0.3332774000009522,0.3332809000276029,2380.050068599987,,,,,,,,34,B,2023-12-15_16h33.04.626,gca_avoidance_task,2022.2.4,144.04717839596768,
positions.xlsx,stimuli.xlsx,stimuli/Social2.png,stimuli/Social1.png,stimuli/Nonsocial1.png,stimuli/Nonsocial2.png,,"(-0.7, 0.5)",cs_plus_ns,,,,,0,0,0,0,,,,,,,,,4,6,70,8,,,,,,,,,,,,,,,,,,,,,2389.1539110000012,240,none,0,,,2394.1607233000686,,,,,,,,34,B,2023-12-15_16h33.04.626,gca_avoidance_task,2022.2.4,144.04717839596768,
positions.xlsx,stimuli.xlsx,stimuli/Social2.png,stimuli/Social1.png,stimuli/Nonsocial1.png,stimuli/Nonsocial2.png,,"(-0.7, -0.5)",cs_plus_s,,,,,0,0,0,0,,,,,,,,,4,7,71,1,,,,,,,,,,,,,,,,,,,,,2404.035254199989,240,none,0,,,2409.0420325000305,,,,,,,,34,B,2023-12-15_16h33.04.626,gca_avoidance_task,2022.2.4,144.04717839596768,
positions.xlsx,stimuli.xlsx,stimuli/Social2.png,stimuli/Social1.png,stimuli/Nonsocial1.png,stimuli/Nonsocial2.png,,"(-0.7, -0.5)",cs_minus_s,,,,,0,0,0,0,,,,,,,,,4,8,72,5,,,,,,,,,,,,,,,,,,,,,2418.0833171000704,245,reward,1,0.5766301000257954,0.5766336000524461,2418.6666238000616,,,,,,,,34,B,2023-12-15_16h33.04.626,gca_avoidance_task,2022.2.4,144.04717839596768,
positions.xlsx,stimuli.xlsx,stimuli/Social2.png,stimuli/Social1.png,stimuli/Nonsocial1.png,stimuli/Nonsocial2.png,,"(0.7, -0.5)",cs_minus_s,,,,,0,0,0,0,,,,,,,,,4,9,73,7,,,,,,,,,,,,,,,,,,,,,2427.999603000004,250,reward,1,0.4307673000730574,0.4307709999848157,2428.437105000019,,,,,,,,34,B,2023-12-15_16h33.04.626,gca_avoidance_task,2022.2.4,144.04717839596768,
positions.xlsx,stimuli.xlsx,stimuli/Social2.png,stimuli/Social1.png,stimuli/Nonsocial1.png,stimuli/Nonsocial2.png,,"(0.7, 0.5)",cs_plus_ns,,,,,0,0,0,0,,,,,,,,,4,10,74,10,,,,,,,,,,,,,,,,,,,,,2437.42978320003,250,shock,1,0.4722837000153959,0.4722874000435695,2437.9089580000145,,,,,,,,34,B,2023-12-15_16h33.04.626,gca_avoidance_task,2022.2.4,144.04717839596768,
positions.xlsx,stimuli.xlsx,stimuli/Social2.png,stimuli/Social1.png,stimuli/Nonsocial1.png,stimuli/Nonsocial2.png,,"(-0.7, 0.5)",cs_minus_ns,,,,,0,0,0,0,,,,,,,,,4,11,75,12,,,,,,,,,,,,,,,,,,,,,2447.318308899994,255,reward,1,0.6807776999194175,0.6807813999475911,2448.0058328000596,,,,,,,,34,B,2023-12-15_16h33.04.626,gca_avoidance_task,2022.2.4,144.04717839596768,
positions.xlsx,stimuli.xlsx,stimuli/Social2.png,stimuli/Social1.png,stimuli/Nonsocial1.png,stimuli/Nonsocial2.png,,"(0.7, -0.5)",cs_plus_ns,,,,,0,0,0,0,,,,,,,,,4,12,76,11,,,,,,,,,,,,,,,,,,,,,2457.0679278000025,255,shock,1,0.39589869999326766,0.39590239990502596,2457.4707001000643,,,,,,,,34,B,2023-12-15_16h33.04.626,gca_avoidance_task,2022.2.4,144.04717839596768,
positions.xlsx,stimuli.xlsx,stimuli/Social2.png,stimuli/Social1.png,stimuli/Nonsocial1.png,stimuli/Nonsocial2.png,,"(0.7, -0.5)",cs_plus_s,,,,,0,0,0,0,,,,,,,,,4,13,77,3,,,,,,,,,,,,,,,,,,,,,2466.991140700062,255,none,0,,,2471.9979181999806,,,,,,,,34,B,2023-12-15_16h33.04.626,gca_avoidance_task,2022.2.4,144.04717839596768,
positions.xlsx,stimuli.xlsx,stimuli/Social2.png,stimuli/Social1.png,stimuli/Nonsocial1.png,stimuli/Nonsocial2.png,,"(0.7, 0.5)",cs_minus_s,,,,,0,0,0,0,,,,,,,,,4,14,78,6,,,,,,,,,,,,,,,,,,,,,2480.983652300085,260,reward,1,0.7015446000732481,0.7015482999850065,2481.691970700049,,,,,,,,34,B,2023-12-15_16h33.04.626,gca_avoidance_task,2022.2.4,144.04717839596768,
positions.xlsx,stimuli.xlsx,stimuli/Social2.png,stimuli/Social1.png,stimuli/Nonsocial1.png,stimuli/Nonsocial2.png,,"(0.7, -0.5)",cs_minus_ns,,,,,0,0,0,0,,,,,,,,,4,15,79,15,,,,,,,,,,,,,,,,,,,,,2490.740215500002,265,reward,1,0.7571932000573725,0.7571966000832617,2491.5041105999844,,,,,,,,34,B,2023-12-15_16h33.04.626,gca_avoidance_task,2022.2.4,144.04717839596768,
positions.xlsx,stimuli.xlsx,stimuli/Social2.png,stimuli/Social1.png,stimuli/Nonsocial1.png,stimuli/Nonsocial2.png,cs_minus_ns,,,,,,,0,0,0,0,,,,,,,,,,,,,0,0,0,3,,,,,,,,,,,,,2506.60765660007,6.0,6.405939800082706,,,,,,,,,5.0,7.139075299957767,,,,,,34,B,2023-12-15_16h33.04.626,gca_avoidance_task,2022.2.4,144.04717839596768,
positions.xlsx,stimuli.xlsx,stimuli/Social2.png,stimuli/Social1.png,stimuli/Nonsocial1.png,stimuli/Nonsocial2.png,cs_plus_s,,,,,,,0,0,0,0,,,,,,,,,,,,,0,1,1,0,,,,,,,,,,,,,2513.371322400053,2.0,2.750610599992797,,,,,,,,,,,,,,,,34,B,2023-12-15_16h33.04.626,gca_avoidance_task,2022.2.4,144.04717839596768,
positions.xlsx,stimuli.xlsx,stimuli/Social2.png,stimuli/Social1.png,stimuli/Nonsocial1.png,stimuli/Nonsocial2.png,cs_minus_s,,,,,,,0,0,0,0,,,,,,,,,,,,,0,2,2,2,,,,,,,,,,,,,2517.8433615000686,9.0,13.368862899951637,,,,,,,,,,,,,,,,34,B,2023-12-15_16h33.04.626,gca_avoidance_task,2022.2.4,144.04717839596768,
positions.xlsx,stimuli.xlsx,stimuli/Social2.png,stimuli/Social1.png,stimuli/Nonsocial1.png,stimuli/Nonsocial2.png,cs_plus_ns,,,,,,,0,0,0,0,,,,,,,,,,,,,0,3,3,1,,,,,,,,,,,,,2532.5094706000527,2.0,4.159226799965836,,,,,,,,,,,,,,,,34,B,2023-12-15_16h33.04.626,gca_avoidance_task,2022.2.4,144.04717839596768,
positions.xlsx,stimuli.xlsx,stimuli/Social2.png,stimuli/Social1.png,stimuli/Nonsocial1.png,stimuli/Nonsocial2.png,cs_plus_s,,,,,,,0,0,0,0,,,,,,,,,,,,,,,,,0,0,0,0,,,,,,,,,,,,,,,,,,,,,,2537.106483099982,2757.2646483000135,11,0.02156589995138347,0.06934960000216961,34,B,2023-12-15_16h33.04.626,gca_avoidance_task,2022.2.4,144.04717839596768,
positions.xlsx,stimuli.xlsx,stimuli/Social2.png,stimuli/Social1.png,stimuli/Nonsocial1.png,stimuli/Nonsocial2.png,cs_plus_ns,,,,,,,0,0,0,0,,,,,,,,,,,,,,,,,0,1,1,1,,,,,,,,,,,,,,,,,,,,,,,2772.37516950001,8,0.014119699946604669,1.7365810999181122,34,B,2023-12-15_16h33.04.626,gca_avoidance_task,2022.2.4,144.04717839596768,
positions.xlsx,stimuli.xlsx,stimuli/Social2.png,stimuli/Social1.png,stimuli/Nonsocial1.png,stimuli/Nonsocial2.png,cs_minus_s,,,,,,,0,0,0,0,,,,,,,,,,,,,,,,,0,2,2,2,,,,,,,,,,,,,,,,,,,,,,,2787.798211800051,4,0.02819059998728335,1.42366219998803,34,B,2023-12-15_16h33.04.626,gca_avoidance_task,2022.2.4,144.04717839596768,
positions.xlsx,stimuli.xlsx,stimuli/Social2.png,stimuli/Social1.png,stimuli/Nonsocial1.png,stimuli/Nonsocial2.png,cs_minus_ns,,,,,,,0,0,0,0,,,,,,,,,,,,,,,,,0,3,3,3,,,,,,,,,,,,,,,,,,,,,,,2802.346243100008,2,0.015464399941265583,5.562595900031738,34,B,2023-12-15_16h33.04.626,gca_avoidance_task,2022.2.4,144.04717839596768,
positions.xlsx,stimuli.xlsx,stimuli/Social2.png,stimuli/Social1.png,stimuli/Nonsocial1.png,stimuli/Nonsocial2.png,cs_minus_s,,,,,,,0,0,0,0,,,,,,,,,,,,,,,,,1,0,4,2,,,,,,,,,,,,,,,,,,,,,,,2817.4776102000615,2,0.01351079996675253,2.9723538999678567,34,B,2023-12-15_16h33.04.626,gca_avoidance_task,2022.2.4,144.04717839596768,
positions.xlsx,stimuli.xlsx,stimuli/Social2.png,stimuli/Social1.png,stimuli/Nonsocial1.png,stimuli/Nonsocial2.png,cs_plus_s,,,,,,,0,0,0,0,,,,,,,,,,,,,,,,,1,1,5,0,,,,,,,,,,,,,,,,,,,,,,,2832.775635399972,3,0.013898600009270012,5.194304900011048,34,B,2023-12-15_16h33.04.626,gca_avoidance_task,2022.2.4,144.04717839596768,
positions.xlsx,stimuli.xlsx,stimuli/Social2.png,stimuli/Social1.png,stimuli/Nonsocial1.png,stimuli/Nonsocial2.png,cs_minus_ns,,,,,,,0,0,0,0,,,,,,,,,,,,,,,,,1,2,6,3,,,,,,,,,,,,,,,,,,,,,,,2847.802802500082,3,0.014998500002548099,4.271167299943045,34,B,2023-12-15_16h33.04.626,gca_avoidance_task,2022.2.4,144.04717839596768,
positions.xlsx,stimuli.xlsx,stimuli/Social2.png,stimuli/Social1.png,stimuli/Nonsocial1.png,stimuli/Nonsocial2.png,cs_plus_ns,,,,,,,0,0,0,0,,,,,,,,,,,,,,,,,1,3,7,1,,,,,,,,,,,,,,,,,,,,,,,2862.448080000002,1,0.01409330009482801,10.000087100081146,34,B,2023-12-15_16h33.04.626,gca_avoidance_task,2022.2.4,144.04717839596768,
positions.xlsx,stimuli.xlsx,stimuli/Social2.png,stimuli/Social1.png,stimuli/Nonsocial1.png,stimuli/Nonsocial2.png,cs_minus_ns,,,,,,,0,0,0,0,,,,,,,,,,,,,,,,,2,0,8,3,,,,,,,,,,,,,,,,,,,,,,,2877.0794556000037,2,0.014114500023424625,3.5698376999935135,34,B,2023-12-15_16h33.04.626,gca_avoidance_task,2022.2.4,144.04717839596768,
positions.xlsx,stimuli.xlsx,stimuli/Social2.png,stimuli/Social1.png,stimuli/Nonsocial1.png,stimuli/Nonsocial2.png,cs_plus_ns,,,,,,,0,0,0,0,,,,,,,,,,,,,,,,,2,1,9,1,,,,,,,,,,,,,,,,,,,,,,,2892.113606699975,10,0.01575080002658069,3.9933645999990404,34,B,2023-12-15_16h33.04.626,gca_avoidance_task,2022.2.4,144.04717839596768,
positions.xlsx,stimuli.xlsx,stimuli/Social2.png,stimuli/Social1.png,stimuli/Nonsocial1.png,stimuli/Nonsocial2.png,cs_minus_s,,,,,,,0,0,0,0,,,,,,,,,,,,,,,,,2,2,10,2,,,,,,,,,,,,,,,,,,,,,,,2907.3421743999934,4,0.01352430006954819,3.854352700058371,34,B,2023-12-15_16h33.04.626,gca_avoidance_task,2022.2.4,144.04717839596768,
positions.xlsx,stimuli.xlsx,stimuli/Social2.png,stimuli/Social1.png,stimuli/Nonsocial1.png,stimuli/Nonsocial2.png,cs_plus_s,,,,,,,0,0,0,0,,,,,,,,,,,,,,,,,2,3,11,0,,,,,,,,,,,,,,,,,,,,,,,2922.7235292000696,2,0.01374329999089241,7.72246159997303,34,B,2023-12-15_16h33.04.626,gca_avoidance_task,2022.2.4,144.04717839596768,
positions.xlsx,stimuli.xlsx,stimuli/Social2.png,stimuli/Social1.png,stimuli/Nonsocial1.png,stimuli/Nonsocial2.png,cs_minus_ns,,,,,,,0,0,0,0,,,,,,,,,,,,,,,,,3,0,12,3,,,,,,,,,,,,,,,,,,,,,,,2937.5354858000064,3,0.015175700071267784,1.7366925000678748,34,B,2023-12-15_16h33.04.626,gca_avoidance_task,2022.2.4,144.04717839596768,
positions.xlsx,stimuli.xlsx,stimuli/Social2.png,stimuli/Social1.png,stimuli/Nonsocial1.png,stimuli/Nonsocial2.png,cs_plus_ns,,,,,,,0,0,0,0,,,,,,,,,,,,,,,,,3,1,13,1,,,,,,,,,,,,,,,,,,,,,,,2952.1459800000302,2,0.01442190003581345,9.597355899983086,34,B,2023-12-15_16h33.04.626,gca_avoidance_task,2022.2.4,144.04717839596768,
positions.xlsx,stimuli.xlsx,stimuli/Social2.png,stimuli/Social1.png,stimuli/Nonsocial1.png,stimuli/Nonsocial2.png,cs_plus_s,,,,,,,0,0,0,0,,,,,,,,,,,,,,,,,3,2,14,0,,,,,,,,,,,,,,,,,,,,,,,2967.1176267000847,8,0.09079159994143993,1.0210024999687448,34,B,2023-12-15_16h33.04.626,gca_avoidance_task,2022.2.4,144.04717839596768,
positions.xlsx,stimuli.xlsx,stimuli/Social2.png,stimuli/Social1.png,stimuli/Nonsocial1.png,stimuli/Nonsocial2.png,cs_minus_s,,,,,,,0,0,0,0,,,,,,,,,,,,,,,,,3,3,15,2,,,,,,,,,,,,,,,,,,,,,,,2981.7490189999808,2,0.01368259999435395,5.937413000036031,34,B,2023-12-15_16h33.04.626,gca_avoidance_task,2022.2.4,144.04717839596768,
positions.xlsx,stimuli.xlsx,stimuli/Social2.png,stimuli/Social1.png,stimuli/Nonsocial1.png,stimuli/Nonsocial2.png,cs_plus_ns,,,,,,,0,0,0,0,,,,,,,,,,,,,,,,,4,0,16,1,,,,,,,,,,,,,,,,,,,,,,,2997.03317160008,3,0.013946600025519729,0.9167904000496492,34,B,2023-12-15_16h33.04.626,gca_avoidance_task,2022.2.4,144.04717839596768,
positions.xlsx,stimuli.xlsx,stimuli/Social2.png,stimuli/Social1.png,stimuli/Nonsocial1.png,stimuli/Nonsocial2.png,cs_minus_ns,,,,,,,0,0,0,0,,,,,,,,,,,,,,,,,4,1,17,3,,,,,,,,,,,,,,,,,,,,,,,3011.8381395000033,3,0.014008800033479929,6.013947500032373,34,B,2023-12-15_16h33.04.626,gca_avoidance_task,2022.2.4,144.04717839596768,
positions.xlsx,stimuli.xlsx,stimuli/Social2.png,stimuli/Social1.png,stimuli/Nonsocial1.png,stimuli/Nonsocial2.png,cs_plus_s,,,,,,,0,0,0,0,,,,,,,,,,,,,,,,,4,2,18,0,,,,,,,,,,,,,,,,,,,,,,,3026.3514555,2,0.013584800064563751,8.541857599979267,34,B,2023-12-15_16h33.04.626,gca_avoidance_task,2022.2.4,144.04717839596768,
positions.xlsx,stimuli.xlsx,stimuli/Social2.png,stimuli/Social1.png,stimuli/Nonsocial1.png,stimuli/Nonsocial2.png,cs_minus_s,,,,,,,0,0,0,0,,,,,,,,,,,,,,,,,4,3,19,2,,,,,,,,,,,,,,,,,,,,,,,3041.260575500084,3,0.013523599947802722,1.375137299997732,34,B,2023-12-15_16h33.04.626,gca_avoidance_task,2022.2.4,144.04717839596768,
positions.xlsx,stimuli.xlsx,stimuli/Social2.png,stimuli/Social1.png,stimuli/Nonsocial1.png,stimuli/Nonsocial2.png,cs_plus_s,,,,,,,0,0,0,0,,,,,,,,,,,,,,,,,5,0,20,0,,,,,,,,,,,,,,,,,,,,,,,3056.690542299999,6,0.013892200076952577,2.923840400064364,34,B,2023-12-15_16h33.04.626,gca_avoidance_task,2022.2.4,144.04717839596768,
positions.xlsx,stimuli.xlsx,stimuli/Social2.png,stimuli/Social1.png,stimuli/Nonsocial1.png,stimuli/Nonsocial2.png,cs_plus_ns,,,,,,,0,0,0,0,,,,,,,,,,,,,,,,,5,1,21,1,,,,,,,,,,,,,,,,,,,,,,,3071.2177844999824,8,0.01496269996277988,0.7084631000179797,34,B,2023-12-15_16h33.04.626,gca_avoidance_task,2022.2.4,144.04717839596768,
positions.xlsx,stimuli.xlsx,stimuli/Social2.png,stimuli/Social1.png,stimuli/Nonsocial1.png,stimuli/Nonsocial2.png,cs_minus_ns,,,,,,,0,0,0,0,,,,,,,,,,,,,,,,,5,2,22,3,,,,,,,,,,,,,,,,,,,,,,,3086.203272300074,2,0.014729199931025505,7.9237276000203565,34,B,2023-12-15_16h33.04.626,gca_avoidance_task,2022.2.4,144.04717839596768,
positions.xlsx,stimuli.xlsx,stimuli/Social2.png,stimuli/Social1.png,stimuli/Nonsocial1.png,stimuli/Nonsocial2.png,cs_minus_s,,,,,,,0,0,0,0,,,,,,,,,,,,,,,,,5,3,23,2,,,,,,,,,,,,,,,,,,,,,,,3101.0152086999733,1,0.013343499973416328,10.000039299950004,34,B,2023-12-15_16h33.04.626,gca_avoidance_task,2022.2.4,144.04717839596768,
positions.xlsx,stimuli.xlsx,stimuli/Social2.png,stimuli/Social1.png,stimuli/Nonsocial1.png,stimuli/Nonsocial2.png,cs_minus_ns,,,,,,,0,0,0,0,,,,,,,,,,,,,,,,,6,0,24,3,,,,,,,,,,,,,,,,,,,,,,,3116.3410032000393,6,0.01392440008930862,0.7714746000710875,34,B,2023-12-15_16h33.04.626,gca_avoidance_task,2022.2.4,144.04717839596768,
positions.xlsx,stimuli.xlsx,stimuli/Social2.png,stimuli/Social1.png,stimuli/Nonsocial1.png,stimuli/Nonsocial2.png,cs_plus_s,,,,,,,0,0,0,0,,,,,,,,,,,,,,,,,6,1,25,0,,,,,,,,,,,,,,,,,,,,,,,3131.389034299995,3,0.013629699940793216,1.0001103999093175,34,B,2023-12-15_16h33.04.626,gca_avoidance_task,2022.2.4,144.04717839596768,
positions.xlsx,stimuli.xlsx,stimuli/Social2.png,stimuli/Social1.png,stimuli/Nonsocial1.png,stimuli/Nonsocial2.png,cs_minus_s,,,,,,,0,0,0,0,,,,,,,,,,,,,,,,,6,2,26,2,,,,,,,,,,,,,,,,,,,,,,,3145.9579208000796,2,0.013577700010500848,3.368426900007762,34,B,2023-12-15_16h33.04.626,gca_avoidance_task,2022.2.4,144.04717839596768,
positions.xlsx,stimuli.xlsx,stimuli/Social2.png,stimuli/Social1.png,stimuli/Nonsocial1.png,stimuli/Nonsocial2.png,cs_plus_ns,,,,,,,0,0,0,0,,,,,,,,,,,,,,,,,6,3,27,1,,,,,,,,,,,,,,,,,,,,,,,3161.269821700058,3,0.014290800085291266,2.2224414000520483,34,B,2023-12-15_16h33.04.626,gca_avoidance_task,2022.2.4,144.04717839596768,
positions.xlsx,stimuli.xlsx,stimuli/Social2.png,stimuli/Social1.png,stimuli/Nonsocial1.png,stimuli/Nonsocial2.png,cs_plus_s,,,,,,,0,0,0,0,,,,,,,,,,,,,,,,,7,0,28,0,,,,,,,,,,,,,,,,,,,,,,,3176.2831375000533,2,0.013595500029623508,3.833443699986674,34,B,2023-12-15_16h33.04.626,gca_avoidance_task,2022.2.4,144.04717839596768,
positions.xlsx,stimuli.xlsx,stimuli/Social2.png,stimuli/Social1.png,stimuli/Nonsocial1.png,stimuli/Nonsocial2.png,cs_plus_ns,,,,,,,0,0,0,0,,,,,,,,,,,,,,,,,7,1,29,1,,,,,,,,,,,,,,,,,,,,,,,3191.6853053000523,3,0.013959500007331371,0.49342449998948723,34,B,2023-12-15_16h33.04.626,gca_avoidance_task,2022.2.4,144.04717839596768,
positions.xlsx,stimuli.xlsx,stimuli/Social2.png,stimuli/Social1.png,stimuli/Nonsocial1.png,stimuli/Nonsocial2.png,cs_minus_ns,,,,,,,0,0,0,0,,,,,,,,,,,,,,,,,7,2,30,3,,,,,,,,,,,,,,,,,,,,,,,3206.6083300000755,4,0.014341800007969141,4.298928500036709,34,B,2023-12-15_16h33.04.626,gca_avoidance_task,2022.2.4,144.04717839596768,
positions.xlsx,stimuli.xlsx,stimuli/Social2.png,stimuli/Social1.png,stimuli/Nonsocial1.png,stimuli/Nonsocial2.png,cs_minus_s,,,,,,,0,0,0,0,,,,,,,,,,,,,,,,,7,3,31,2,,,,,,,,,,,,,,,,,,,,,,,3221.8646796999965,8,0.014140799990855157,0.49320929998066276,34,B,2023-12-15_16h33.04.626,gca_avoidance_task,2022.2.4,144.04717839596768,
positions.xlsx,stimuli.xlsx,stimuli/Social2.png,stimuli/Social1.png,stimuli/Nonsocial1.png,stimuli/Nonsocial2.png,cs_plus_s,,,,,,,0,0,0,0,,,,,,,,,,,,,,,,,8,0,32,0,,,,,,,,,,,,,,,,,,,,,,,3236.614110200084,1,0.01407659996766597,10.000040299957618,34,B,2023-12-15_16h33.04.626,gca_avoidance_task,2022.2.4,144.04717839596768,
positions.xlsx,stimuli.xlsx,stimuli/Social2.png,stimuli/Social1.png,stimuli/Nonsocial1.png,stimuli/Nonsocial2.png,cs_minus_s,,,,,,,0,0,0,0,,,,,,,,,,,,,,,,,8,1,33,2,,,,,,,,,,,,,,,,,,,,,,,3251.4260801000055,1,0.01451509993057698,10.000171999912709,34,B,2023-12-15_16h33.04.626,gca_avoidance_task,2022.2.4,144.04717839596768,
positions.xlsx,stimuli.xlsx,stimuli/Social2.png,stimuli/Social1.png,stimuli/Nonsocial1.png,stimuli/Nonsocial2.png,cs_plus_ns,,,,,,,0,0,0,0,,,,,,,,,,,,,,,,,8,2,34,1,,,,,,,,,,,,,,,,,,,,,,,3266.3699082999956,2,0.014494300005026162,2.513921800069511,34,B,2023-12-15_16h33.04.626,gca_avoidance_task,2022.2.4,144.04717839596768,
positions.xlsx,stimuli.xlsx,stimuli/Social2.png,stimuli/Social1.png,stimuli/Nonsocial1.png,stimuli/Nonsocial2.png,cs_minus_ns,,,,,,,0,0,0,0,,,,,,,,,,,,,,,,,8,3,35,3,,,,,,,,,,,,,,,,,,,,,,,3281.3138051000424,2,0.015035699936561286,5.6041201000334695,34,B,2023-12-15_16h33.04.626,gca_avoidance_task,2022.2.4,144.04717839596768,
positions.xlsx,stimuli.xlsx,stimuli/Social2.png,stimuli/Social1.png,stimuli/Nonsocial1.png,stimuli/Nonsocial2.png,cs_plus_s,,,,,,,0,0,0,0,,,,,,,,,,,,,,,,,9,0,36,0,,,,,,,,,,,,,,,,,,,,,,,3296.361852400005,5,0.013458300032652915,1.3404216000344604,34,B,2023-12-15_16h33.04.626,gca_avoidance_task,2022.2.4,144.04717839596768,
positions.xlsx,stimuli.xlsx,stimuli/Social2.png,stimuli/Social1.png,stimuli/Nonsocial1.png,stimuli/Nonsocial2.png,cs_minus_ns,,,,,,,0,0,0,0,,,,,,,,,,,,,,,,,9,1,37,3,,,,,,,,,,,,,,,,,,,,,,,3311.048726500012,4,0.014388800016604364,1.8822694000555202,34,B,2023-12-15_16h33.04.626,gca_avoidance_task,2022.2.4,144.04717839596768,
positions.xlsx,stimuli.xlsx,stimuli/Social2.png,stimuli/Social1.png,stimuli/Nonsocial1.png,stimuli/Nonsocial2.png,cs_minus_s,,,,,,,0,0,0,0,,,,,,,,,,,,,,,,,9,2,38,2,,,,,,,,,,,,,,,,,,,,,,,3326.131478999974,3,0.01359680003952235,0.45179239998105913,34,B,2023-12-15_16h33.04.626,gca_avoidance_task,2022.2.4,144.04717839596768,
positions.xlsx,stimuli.xlsx,stimuli/Social2.png,stimuli/Social1.png,stimuli/Nonsocial1.png,stimuli/Nonsocial2.png,cs_plus_ns,,,,,,,0,0,0,0,,,,,,,,,,,,,,,,,9,3,39,1,,,,,,,,,,,,,,,,,,,,,,,3341.547538600047,4,0.013872399926185608,0.4862818999681622,34,B,2023-12-15_16h33.04.626,gca_avoidance_task,2022.2.4,144.04717839596768,
positions.xlsx,stimuli.xlsx,stimuli/Social2.png,stimuli/Social1.png,stimuli/Nonsocial1.png,stimuli/Nonsocial2.png,cs_minus_s,,,,,,,0,0,0,0,,,,,,,,,,,,,,,,,,,,,0,0,0,2,,,,,3355.894229100086,8.0,8.336853599990718,,,,,,,,,,,,,,,,34,B,2023-12-15_16h33.04.626,gca_avoidance_task,2022.2.4,144.04717839596768,
positions.xlsx,stimuli.xlsx,stimuli/Social2.png,stimuli/Social1.png,stimuli/Nonsocial1.png,stimuli/Nonsocial2.png,cs_plus_s,,,,,,,0,0,0,0,,,,,,,,,,,,,,,,,,,,,0,1,1,0,,,,,3366.539655099972,4.0,2.437342399964109,,,,,,,,,,,,,,,,34,B,2023-12-15_16h33.04.626,gca_avoidance_task,2022.2.4,144.04717839596768,
positions.xlsx,stimuli.xlsx,stimuli/Social2.png,stimuli/Social1.png,stimuli/Nonsocial1.png,stimuli/Nonsocial2.png,cs_plus_ns,,,,,,,0,0,0,0,,,,,,,,,,,,,,,,,,,,,0,2,2,1,,,,,3369.3450898000738,3.0,1.8821168000577018,,,,,,,,,,,,,,,,34,B,2023-12-15_16h33.04.626,gca_avoidance_task,2022.2.4,144.04717839596768,
positions.xlsx,stimuli.xlsx,stimuli/Social2.png,stimuli/Social1.png,stimuli/Nonsocial1.png,stimuli/Nonsocial2.png,cs_minus_ns,,,,,,,0,0,0,0,,,,,,,,,,,,,,,,,,,,,0,3,3,3,,,,,3374.803213800071,4.0,3.74306950008031,,,,,,,,,,,,,,,,34,B,2023-12-15_16h33.04.626,gca_avoidance_task,2022.2.4,144.04717839596768,
