posFile,stimFile,cs_plus_s,cs_minus_s,cs_plus_ns,cs_minus_ns,stimtype,position,trialtype,trials_threshold.thisRepN,trials_threshold.thisTrialN,trials_threshold.thisN,trials_threshold.thisIndex,blocks.thisRepN,blocks.thisTrialN,blocks.thisN,blocks.thisIndex,ratingtrials1.thisRepN,ratingtrials1.thisTrialN,ratingtrials1.thisN,ratingtrials1.thisIndex,learning_trials.thisRepN,learning_trials.thisTrialN,learning_trials.thisN,learning_trials.thisIndex,trials.thisRepN,trials.thisTrialN,trials.thisN,trials.thisIndex,ratingtrials2.thisRepN,ratingtrials2.thisTrialN,ratingtrials2.thisN,ratingtrials2.thisIndex,testtrials.thisRepN,testtrials.thisTrialN,testtrials.thisN,testtrials.thisIndex,ratingtrials3.thisRepN,ratingtrials3.thisTrialN,ratingtrials3.thisN,ratingtrials3.thisIndex,textStart.started,spaceStart.started,spaceStart.keys,spaceStart.rt,textPainThreshold.started,spacePainThreshold.started,spacePainThreshold.keys,spacePainThreshold.rt,textRateT.started,text_noPainT.started,text_slightPainT.started,text_highPainT.started,sliderPainT.started,keys_PainT.started,sliderPainT.response,sliderPainT.rt,keys_PainT.keys,keys_PainT.rt,fixcrossT.started,portShock1T.started,portShock1T.stopped,portShock2T.started,portShock2T.stopped,portShock3T.started,portShock3T.stopped,fixcrossT.stopped,text_ETCalibration.started,spaceETCalibration.started,spaceETCalibration.keys,spaceETCalibration.rt,textStartExp.started,spaceStartExp.started,spaceStartExp.keys,spaceStartExp.rt,imageRating.started,sliderStim.started,spaceStim.started,sliderStim.response,sliderStim.rt,spaceStim.keys,spaceStim.rt,textStartTask.started,spaceStartTask.started,spaceStartTask.keys,spaceStartTask.rt,blankScreen.started,blankScreen.stopped,fixcross.started,image.started,roi.started,gazeCursor.started,portImage.started,portImage.stopped,score,outcome,roi.numLooks,roi.timesOn,roi.timesOff,imageFeedback.started,gazeCursor_Feedback.started,soundFeedback.started,portShock1.started,portShock1.stopped,portShock2.started,portShock2.stopped,portShock3.started,portShock3.stopped,soundFeedback.stopped,fixcrossE.started,fixcrossE.stopped,textRepeatTask.started,textboxRepeatInstruction.started,textRepeatSpace.started,spaceRepeatTask.started,spaceRepeatTask.keys,spaceRepeatTask.rt,textRate.started,text_noPain.started,text_slightPain.started,text_highPain.started,sliderPain.started,textSpacePain.started,spacePain.started,sliderPain.response,sliderPain.rt,spacePain.keys,spacePain.rt,textTestInstr.started,spaceTestInstr.started,spaceTestInstr.keys,spaceTestInstr.rt,imageTest.started,roiTest.started,portTestImage.started,portTestImage.stopped,roiTest.numLooks,roiTest.timesOn,roiTest.timesOff,participant,group,date,expName,psychopyVersion,frameRate,
,,,,,,,,,,,,,,,,,,,,,,,,,,,,,,,,,,,,,,,,,14.139733099997102,14.139733099997102,space,7.663336100002198,,,,,,,,,,,,,,,,,,,,,,,,,,,,,,,,,,,,,,,,,,,,,,,,,,,,,,,,,,,,,,,,,,,,,,,,,,,,,,,,,,,,,,,,,,,,,,,8,C,2023-12-07_14h52.31.762,gca_avoidance_task,2022.2.4,143.94350505194188,
,,,,,,,,,,,,,,,,,,,,,,,,,,,,,,,,,,,,,,,,,,,,,21.81305589999829,21.81305589999829,space,1.8378999000015028,,,,,,,,,,,,,,,,,,,,,,,,,,,,,,,,,,,,,,,,,,,,,,,,,,,,,,,,,,,,,,,,,,,,,,,,,,,,,,,,,,,,,,,,,,,8,C,2023-12-07_14h52.31.762,gca_avoidance_task,2022.2.4,143.94350505194188,
,,,,,,,,,0,0,0,0,,,,,,,,,,,,,,,,,,,,,,,,,,,,,,,,,,,,,24.722618599997077,24.722618599997077,24.722618599997077,24.722618599997077,24.722618599997077,24.722618599997077,None,None,s,4.231289800001832,29.54185829999915,0.09980139999970561,0.10674110000036308,0.15534950000073877,0.16231530000004568,0.20397310000043944,0.21089299999948707,30.298821500000486,,,,,,,,,,,,,,,,,,,,,,,,,,,,,,,,,,,,,,,,,,,,,,,,,,,,,,,,,,,,,,,,,,,,,,,,,8,C,2023-12-07_14h52.31.762,gca_avoidance_task,2022.2.4,143.94350505194188,
,,,,,,,,,1,0,1,0,,,,,,,,,,,,,,,,,,,,,,,,,,,,,,,,,,,,,30.298821500000486,30.298821500000486,30.298821500000486,30.298821500000486,30.298821500000486,30.298821500000486,0.0,2.6425419000006514,s,11.59179850000146,42.388584000000264,0.1015854000033869,0.10856370000328752,0.1501672000013059,0.1571371000027284,0.20575270000335877,0.2126776000004611,43.14547699999821,,,,,,,,,,,,,,,,,,,,,,,,,,,,,,,,,,,,,,,,,,,,,,,,,,,,,,,,,,,,,,,,,,,,,,,,,8,C,2023-12-07_14h52.31.762,gca_avoidance_task,2022.2.4,143.94350505194188,
,,,,,,,,,2,0,2,0,,,,,,,,,,,,,,,,,,,,,,,,,,,,,,,,,,,,,43.14547699999821,43.14547699999821,43.14547699999821,43.14547699999821,43.14547699999821,43.14547699999821,1.0,1.3428628000001481,s,5.865401600000041,49.61052439999912,0.10105029999976978,0.10805090000212658,0.14966049999929965,0.15663069999936852,0.2052782999999181,0.2121660000011616,50.374348699999246,,,,,,,,,,,,,,,,,,,,,,,,,,,,,,,,,,,,,,,,,,,,,,,,,,,,,,,,,,,,,,,,,,,,,,,,,8,C,2023-12-07_14h52.31.762,gca_avoidance_task,2022.2.4,143.94350505194188,
,,,,,,,,,3,0,3,0,,,,,,,,,,,,,,,,,,,,,,,,,,,,,,,,,,,,,50.374348699999246,50.374348699999246,50.374348699999246,50.374348699999246,50.374348699999246,50.374348699999246,2.0,1.650072700002056,s,6.115591900001164,56.999101899997186,0.10473509999792441,0.11166409999714233,0.15334539999821573,0.16024199999810662,0.20196629999918514,0.20889460000034887,,,,,,,,,,,,,,,,,,,,,,,,,,,,,,,,,,,,,,,,,,,,,,,,,,,,,,,,,,,,,,,,,,,,,,,,,,8,C,2023-12-07_14h52.31.762,gca_avoidance_task,2022.2.4,143.94350505194188,
,,,,,,,,,4,0,4,0,,,,,,,,,,,,,,,,,,,,,,,,,,,,,,,,,,,,,57.81158180000057,57.81158180000057,57.81158180000057,57.81158180000057,57.81158180000057,57.81158180000057,3.0,1.8109050000020943,s,5.751220300000568,64.06824779999806,0.09928069999659783,0.10623469999700319,0.15487729999949806,0.16179409999676864,0.20347359999868786,0.21044809999875724,64.83211789999768,,,,,,,,,,,,,,,,,,,,,,,,,,,,,,,,,,,,,,,,,,,,,,,,,,,,,,,,,,,,,,,,,,,,,,,,,8,C,2023-12-07_14h52.31.762,gca_avoidance_task,2022.2.4,143.94350505194188,
,,,,,,,,,5,0,5,0,,,,,,,,,,,,,,,,,,,,,,,,,,,,,,,,,,,,,64.83211789999768,64.83211789999768,64.83211789999768,64.83211789999768,64.83211789999768,64.83211789999768,4.0,2.7435779999977967,s,6.513861400002497,71.98463389999961,0.10239119999823743,0.10934890000135056,0.1510121999999683,0.15797770000062883,0.19956969999839203,0.20656429999871762,72.7484764999972,,,,,,,,,,,,,,,,,,,,,,,,,,,,,,,,,,,,,,,,,,,,,,,,,,,,,,,,,,,,,,,,,,,,,,,,,8,C,2023-12-07_14h52.31.762,gca_avoidance_task,2022.2.4,143.94350505194188,
,,,,,,,,,6,0,6,0,,,,,,,,,,,,,,,,,,,,,,,,,,,,,,,,,,,,,72.7484764999972,72.7484764999972,72.7484764999972,72.7484764999972,72.7484764999972,72.7484764999972,6.0,0.9798936000006506,s,8.653668000002654,81.91478809999899,0.10032919999866863,0.10732749999806401,0.15583200000037323,0.16280489999917336,0.20442829999956302,0.2113881000004767,82.67169619999913,,,,,,,,,,,,,,,,,,,,,,,,,,,,,,,,,,,,,,,,,,,,,,,,,,,,,,,,,,,,,,,,,,,,,,,,,8,C,2023-12-07_14h52.31.762,gca_avoidance_task,2022.2.4,143.94350505194188,
,,,,,,,,,7,0,7,0,,,,,,,,,,,,,,,,,,,,,,,,,,,,,,,,,,,,,82.67169619999913,82.67169619999913,82.67169619999913,82.67169619999913,82.67169619999913,82.67169619999913,5.0,1.3232202999970468,s,7.122930599998654,90.29638630000045,0.09946750000017346,0.10641390000091633,0.1550334000021394,0.16197599999941303,0.20364970000082394,0.2105879000009736,91.0533319999995,,,,,,,,,,,,,,,,,,,,,,,,,,,,,,,,,,,,,,,,,,,,,,,,,,,,,,,,,,,,,,,,,,,,,,,,,8,C,2023-12-07_14h52.31.762,gca_avoidance_task,2022.2.4,143.94350505194188,
,,,,,,,,,8,0,8,0,,,,,,,,,,,,,,,,,,,,,,,,,,,,,,,,,,,,,91.0533319999995,91.0533319999995,91.0533319999995,91.0533319999995,91.0533319999995,91.0533319999995,6.0,1.0841307999980927,s,4.749329900001612,96.30306389999896,0.10464299999875948,0.11159960000077263,0.15321440000116127,0.16019840000080876,0.20184320000043954,0.2087667000014335,,,,,,,,,,,,,,,,,,,,,,,,,,,,,,,,,,,,,,,,,,,,,,,,,,,,,,,,,,,,,,,,,,,,,,,,,,8,C,2023-12-07_14h52.31.762,gca_avoidance_task,2022.2.4,143.94350505194188,
,,,,,,,,,9,0,9,0,,,,,,,,,,,,,,,,,,,,,,,,,,,,,,,,,,,,,97.06000249999852,97.06000249999852,97.06000249999852,97.06000249999852,97.06000249999852,97.06000249999852,6.0,1.631265700001677,s,4.613911500004178,102.1778462000002,0.10135719999743742,0.10831409999809694,0.1499588999977277,0.1569612999992387,0.20553169999766396,0.21249489999900106,103.05975449999823,,,,,,,,,,,,,,,,,,,,,,,,,,,,,,,,,,,,,,,,,,,,,,,,,,,,,,,,,,,,,,,,,,,,,,,,,8,C,2023-12-07_14h52.31.762,gca_avoidance_task,2022.2.4,143.94350505194188,
,,,,,,,,,10,0,10,0,,,,,,,,,,,,,,,,,,,,,,,,,,,,,,,,,,,,,103.05975449999823,103.05975449999823,103.05975449999823,103.05975449999823,103.05975449999823,103.05975449999823,7.0,0.5051276999984111,s,11.974975000000995,115.53841889999967,0.10018270000000484,0.1071302000018477,0.15569529999993392,0.16265470000143978,0.20430470000064815,0.21129410000139615,116.2952906999999,,,,,,,,,,,,,,,,,,,,,,,,,,,,,,,,,,,,,,,,,,,,,,,,,,,,,,,,,,,,,,,,,,,,,,,,,8,C,2023-12-07_14h52.31.762,gca_avoidance_task,2022.2.4,143.94350505194188,
,,,,,,,,,11,0,11,0,,,,,,,,,,,,,,,,,,,,,,,,,,,,,,,,,,,,,116.2952906999999,116.2952906999999,116.2952906999999,116.2952906999999,116.2952906999999,116.2952906999999,6.0,1.690159500001755,g,32.330579400000715,149.28016209999987,,,,,,,,,,,,,,,,,,,,,,,,,,,,,,,,,,,,,,,,,,,,,,,,,,,,,,,,,,,,,,,,,,,,,,,,,,,,,,,,8,C,2023-12-07_14h52.31.762,gca_avoidance_task,2022.2.4,143.94350505194188,
,,,,,,,,,,,,,,,,,,,,,,,,,,,,,,,,,,,,,,,,,,,,,,,,,,,,,,,,,,,,,,,,,,,149.28016209999987,149.28016209999987,space,10.105907900000602,,,,,,,,,,,,,,,,,,,,,,,,,,,,,,,,,,,,,,,,,,,,,,,,,,,,,,,,,,,,,,,,,,,,,8,C,2023-12-07_14h52.31.762,gca_avoidance_task,2022.2.4,143.94350505194188,
positions.xlsx,stimuli.xlsx,stimuli/Social1.png,stimuli/Social2.png,stimuli/Nonsocial2.png,stimuli/Nonsocial1.png,cs_minus_s,,,,,,,0,0,0,0,0,0,0,2,,,,,,,,,,,,,,,,,,,,,,,,,,,,,,,,,,,,,,,,,,,,,,,,,,,271.7198755999998,271.7198755999998,space,14.210768400000234,285.9760749999987,285.9760749999987,292.5660647000004,7.0,6.584693699998752,space,2.3406217000010656,,,,,,,,,,,,,,,,,,,,,,,,,,,,,,,,,,,,,,,,,,,,,,,,,,,,,,,,,,8,C,2023-12-07_14h52.31.762,gca_avoidance_task,2022.2.4,143.94350505194188,
positions.xlsx,stimuli.xlsx,stimuli/Social1.png,stimuli/Social2.png,stimuli/Nonsocial2.png,stimuli/Nonsocial1.png,cs_minus_ns,,,,,,,0,0,0,0,0,1,1,3,,,,,,,,,,,,,,,,,,,,,,,,,,,,,,,,,,,,,,,,,,,,,,,,,,,,,,,294.94784869999785,294.94784869999785,298.7602111999986,5.0,3.7905602999999246,space,0.9067967000009958,,,,,,,,,,,,,,,,,,,,,,,,,,,,,,,,,,,,,,,,,,,,,,,,,,,,,,,,,,8,C,2023-12-07_14h52.31.762,gca_avoidance_task,2022.2.4,143.94350505194188,
positions.xlsx,stimuli.xlsx,stimuli/Social1.png,stimuli/Social2.png,stimuli/Nonsocial2.png,stimuli/Nonsocial1.png,cs_plus_s,,,,,,,0,0,0,0,0,2,2,0,,,,,,,,,,,,,,,,,,,,,,,,,,,,,,,,,,,,,,,,,,,,,,,,,,,,,,,299.6977154999986,299.6977154999986,303.13503649999984,5.0,3.4301615999975184,space,1.1315313000013703,,,,,,,,,,,,,,,,,,,,,,,,,,,,,,,,,,,,,,,,,,,,,,,,,,,,,,,,,,8,C,2023-12-07_14h52.31.762,gca_avoidance_task,2022.2.4,143.94350505194188,
positions.xlsx,stimuli.xlsx,stimuli/Social1.png,stimuli/Social2.png,stimuli/Nonsocial2.png,stimuli/Nonsocial1.png,cs_plus_ns,,,,,,,0,0,0,0,0,3,3,1,,,,,,,,,,,,,,,,,,,,,,,,,,,,,,,,,,,,,,,,,,,,,,,,,,,,,,,304.29475549999916,304.29475549999916,310.6000247999982,4.0,6.2968837000007625,space,0.866281100003107,,,,,,,,,,,,,,,,,,,,,,,,,,,,,,,,,,,,,,,,,,,,,,,,,,,,,,,,,,8,C,2023-12-07_14h52.31.762,gca_avoidance_task,2022.2.4,143.94350505194188,
positions.xlsx,stimuli.xlsx,stimuli/Social1.png,stimuli/Social2.png,stimuli/Nonsocial2.png,stimuli/Nonsocial1.png,,"(0.7, 0.5)",cs_plus_s,,,,,0,0,0,0,,,,,0,0,0,2,,,,,,,,,,,,,,,,,,,,,,,,,,,,,,,,,,,,,,,,,,,,,,,,,,,,,,,,,,311.475038499997,311.475038499997,space,16.791846100004477,331.21033239999815,332.3283331999992,330.71041440000045,332.3283331999992,332.3283331999992,332.3283331999992,0.015610900001775008,0.02684149999913643,0,shock,1,[0.1873529000004055],[0.18735630000082892],332.5158042999974,332.5158042999974,0.016064899999037152,0.016064899999037152,0.025552999999490567,0.053270600001269486,0.0602495999992243,0.10187880000012228,0.10884409999925992,1.0115661999989243,336.00182199999836,340.32114509999883,,,,,,,,,,,,,,,,,,,,,,,,,,,,,8,C,2023-12-07_14h52.31.762,gca_avoidance_task,2022.2.4,143.94350505194188,
positions.xlsx,stimuli.xlsx,stimuli/Social1.png,stimuli/Social2.png,stimuli/Nonsocial2.png,stimuli/Nonsocial1.png,,"(-0.7, -0.5)",cs_plus_ns,,,,,0,0,0,0,,,,,0,1,1,9,,,,,,,,,,,,,,,,,,,,,,,,,,,,,,,,,,,,,,,,,,,,,,,,,,,,,,,,,,,,,,340.82799349999914,341.9737830999984,340.32114509999883,341.9737830999984,341.9737830999984,341.9737830999984,0.007702499999140855,0.013249999999970896,0,shock,1,[0.20907509999960894],[0.20907850000003236],342.1890558999985,342.1890558999985,0.008065100002568215,0.008065100002568215,0.018347500001254957,0.05301950000284705,0.05994230000214884,0.10164290000102483,0.1085445000026084,1.004304600002797,345.68201289999706,349.70964359999925,,,,,,,,,,,,,,,,,,,,,,,,,,,,,8,C,2023-12-07_14h52.31.762,gca_avoidance_task,2022.2.4,143.94350505194188,
positions.xlsx,stimuli.xlsx,stimuli/Social1.png,stimuli/Social2.png,stimuli/Nonsocial2.png,stimuli/Nonsocial1.png,,"(-0.7, 0.5)",cs_minus_s,,,,,0,0,0,0,,,,,0,2,2,4,,,,,,,,,,,,,,,,,,,,,,,,,,,,,,,,,,,,,,,,,,,,,,,,,,,,,,,,,,,,,,350.2165000999994,351.487300599998,349.70964359999925,351.487300599998,351.487300599998,351.487300599998,0.006213000000570901,0.013323600000148872,5,reward,1,[0.2434194999987085],[0.24342320000141626],351.7372985000002,351.7372985000002,0.006892999997944571,0.006892999997944571,0.018496199998480733,0.05310379999718862,0.06011949999810895,0.10173649999705958,0.10868560000017169,1.0044557000001078,355.23028749999867,358.81341279999833,,,,,,,,,,,,,,,,,,,,,,,,,,,,,8,C,2023-12-07_14h52.31.762,gca_avoidance_task,2022.2.4,143.94350505194188,
positions.xlsx,stimuli.xlsx,stimuli/Social1.png,stimuli/Social2.png,stimuli/Nonsocial2.png,stimuli/Nonsocial1.png,,"(0.7, -0.5)",cs_minus_ns,,,,,0,0,0,0,,,,,0,3,3,15,,,,,,,,,,,,,,,,,,,,,,,,,,,,,,,,,,,,,,,,,,,,,,,,,,,,,,,,,,,,,,359.3203126999979,360.97302469999704,358.81341279999833,360.97302469999704,360.97302469999704,360.97302469999704,0.006376000001182547,0.013218600000982406,10,reward,1,[0.22934199999872362],[0.22934539999914705],361.2091158000003,361.2091158000003,0.007708000001002802,0.007708000001002802,0.018803700000717072,0.05348070000036387,0.06042820000220672,0.10213840000142227,0.10908610000115004,1.0048730000016803,364.70205329999953,368.8408101999994,,,,,,,,,,,,,,,,,,,,,,,,,,,,,8,C,2023-12-07_14h52.31.762,gca_avoidance_task,2022.2.4,143.94350505194188,
positions.xlsx,stimuli.xlsx,stimuli/Social1.png,stimuli/Social2.png,stimuli/Nonsocial2.png,stimuli/Nonsocial1.png,,"(-0.7, -0.5)",cs_minus_ns,,,,,0,0,0,0,,,,,0,4,4,13,,,,,,,,,,,,,,,,,,,,,,,,,,,,,,,,,,,,,,,,,,,,,,,,,,,,,,,,,,,,,,369.34768229999827,370.6323435999984,368.8408101999994,370.6323435999984,370.6323435999984,370.6323435999984,0.00679390000004787,0.01342310000109137,15,reward,1,[0.19475919999968028],[0.1947760000002745],370.8337384000006,370.8337384000006,0.0076991999994788785,0.0076991999994788785,0.018357299999479437,0.05302600000140956,0.05995380000240402,0.10164559999975609,0.1086183000006713,1.00437729999976,374.3267476000001,378.63906009999846,,,,,,,,,,,,,,,,,,,,,,,,,,,,,8,C,2023-12-07_14h52.31.762,gca_avoidance_task,2022.2.4,143.94350505194188,
positions.xlsx,stimuli.xlsx,stimuli/Social1.png,stimuli/Social2.png,stimuli/Nonsocial2.png,stimuli/Nonsocial1.png,,"(-0.7, -0.5)",cs_minus_s,,,,,0,0,0,0,,,,,0,5,5,5,,,,,,,,,,,,,,,,,,,,,,,,,,,,,,,,,,,,,,,,,,,,,,,,,,,,,,,,,,,,,,379.1458974999987,380.1875316000005,378.63906009999846,380.1875316000005,380.1875316000005,380.1875316000005,0.006598799998755567,0.013107499999023275,20,reward,1,[0.2015356999982032],[0.20153940000091097],380.39589010000054,380.39589010000054,0.007466200000635581,0.007466200000635581,0.018408700001600664,0.053014799999800744,0.059970400001475355,0.10164420000000973,0.10862570000244887,1.004429100001289,383.8888589999988,387.7497349999976,,,,,,,,,,,,,,,,,,,,,,,,,,,,,8,C,2023-12-07_14h52.31.762,gca_avoidance_task,2022.2.4,143.94350505194188,
positions.xlsx,stimuli.xlsx,stimuli/Social1.png,stimuli/Social2.png,stimuli/Nonsocial2.png,stimuli/Nonsocial1.png,,"(0.7, -0.5)",cs_minus_s,,,,,0,0,0,0,,,,,0,6,6,7,,,,,,,,,,,,,,,,,,,,,,,,,,,,,,,,,,,,,,,,,,,,,,,,,,,,,,,,,,,,,,388.2566764999974,389.4718795999979,387.7497349999976,389.4718795999979,389.4718795999979,389.4718795999979,0.007423300001391908,0.012923000002047047,25,reward,1,[0.20819219999975758],[0.2081958000017039],389.68718009999793,389.68718009999793,0.00803259999884176,0.00803259999884176,0.018636400000104913,0.05328179999924032,0.06027479999829666,0.10190039999724831,0.10882689999925788,1.0046301000002131,393.180077099998,396.85356909999973,,,,,,,,,,,,,,,,,,,,,,,,,,,,,8,C,2023-12-07_14h52.31.762,gca_avoidance_task,2022.2.4,143.94350505194188,
positions.xlsx,stimuli.xlsx,stimuli/Social1.png,stimuli/Social2.png,stimuli/Nonsocial2.png,stimuli/Nonsocial1.png,,"(-0.7, -0.5)",cs_plus_s,,,,,0,0,0,0,,,,,0,7,7,1,,,,,,,,,,,,,,,,,,,,,,,,,,,,,,,,,,,,,,,,,,,,,,,,,,,,,,,,,,,,,,397.3604685999999,398.8604067999986,396.85356909999973,398.8604067999986,398.8604067999986,398.8604067999986,0.007147899999836227,0.013203300000895979,25,shock,1,[0.21560939999835682],[0.21561320000182604],399.0826218999973,399.0826218999973,0.008470099997794023,0.008470099997794023,0.01787730000069132,0.0525591000005079,0.05953609999778564,0.10117709999758517,0.1081491000004462,1.0039289999986067,402.57560249999733,406.76295369999934,,,,,,,,,,,,,,,,,,,,,,,,,,,,,8,C,2023-12-07_14h52.31.762,gca_avoidance_task,2022.2.4,143.94350505194188,
positions.xlsx,stimuli.xlsx,stimuli/Social1.png,stimuli/Social2.png,stimuli/Nonsocial2.png,stimuli/Nonsocial1.png,,"(0.7, -0.5)",cs_plus_ns,,,,,0,0,0,0,,,,,0,8,8,11,,,,,,,,,,,,,,,,,,,,,,,,,,,,,,,,,,,,,,,,,,,,,,,,,,,,,,,,,,,,,,407.2697675999989,408.4364311999998,406.76295369999934,408.4364311999998,408.4364311999998,408.4364311999998,0.0074826999989454634,0.013277299996843794,25,shock,1,[0.20181959999899846],[0.2018231999973068],408.64472939999905,408.64472939999905,0.007828199999494245,0.007828199999494245,0.018210599999292754,0.05295219999970868,0.05987269999968703,0.10151029999906314,0.1084573999978602,1.0042356999983895,412.13763130000007,415.7625403999991,,,,,,,,,,,,,,,,,,,,,,,,,,,,,8,C,2023-12-07_14h52.31.762,gca_avoidance_task,2022.2.4,143.94350505194188,
positions.xlsx,stimuli.xlsx,stimuli/Social1.png,stimuli/Social2.png,stimuli/Nonsocial2.png,stimuli/Nonsocial1.png,,"(0.7, 0.5)",cs_minus_ns,,,,,0,0,0,0,,,,,0,9,9,14,,,,,,,,,,,,,,,,,,,,,,,,,,,,,,,,,,,,,,,,,,,,,,,,,,,,,,,,,,,,,,416.26942269999927,417.3596598999975,415.7625403999991,417.3596598999975,417.3596598999975,417.3596598999975,0.0071180999984790105,0.013262899999972433,30,reward,1,[0.22953140000026906],[0.22953509999933885],417.59575389999736,417.59575389999736,0.00795020000077784,0.00795020000077784,0.018317399997613393,0.053031200000987155,0.05997209999986808,0.1016271999978926,0.10859379999965313,1.0043671999992512,421.0886919000004,425.012152299998,,,,,,,,,,,,,,,,,,,,,,,,,,,,,8,C,2023-12-07_14h52.31.762,gca_avoidance_task,2022.2.4,143.94350505194188,
positions.xlsx,stimuli.xlsx,stimuli/Social1.png,stimuli/Social2.png,stimuli/Nonsocial2.png,stimuli/Nonsocial1.png,,"(-0.7, 0.5)",cs_plus_s,,,,,0,0,0,0,,,,,0,10,10,0,,,,,,,,,,,,,,,,,,,,,,,,,,,,,,,,,,,,,,,,,,,,,,,,,,,,,,,,,,,,,,425.51907500000016,426.96347669999886,425.012152299998,426.96347669999886,426.96347669999886,426.96347669999886,0.006512799998745322,0.012982599997485522,30,shock,1,[0.24301339999874472],[0.24301679999916814],427.2134292999981,427.2134292999981,0.007247400000778725,0.007247400000778725,0.01849700000093435,0.05312979999871459,0.06005809999987832,0.10170490000018617,0.10870900000008987,1.0044754999980796,430.7063767999971,434.4215315000001,,,,,,,,,,,,,,,,,,,,,,,,,,,,,8,C,2023-12-07_14h52.31.762,gca_avoidance_task,2022.2.4,143.94350505194188,
positions.xlsx,stimuli.xlsx,stimuli/Social1.png,stimuli/Social2.png,stimuli/Nonsocial2.png,stimuli/Nonsocial1.png,,"(-0.7, 0.5)",cs_minus_ns,,,,,0,0,0,0,,,,,0,11,11,12,,,,,,,,,,,,,,,,,,,,,,,,,,,,,,,,,,,,,,,,,,,,,,,,,,,,,,,,,,,,,,434.9284101999983,436.63673149999886,434.4215315000001,436.63673149999886,436.63673149999886,436.63673149999886,0.006983300001593307,0.013384199999563862,35,reward,1,[0.24344240000209538],[0.24344600000040373],436.8867019999998,436.8867019999998,0.008161499998095678,0.008161499998095678,0.018746699999610428,0.05331630000000587,0.060289699998975266,0.10196240000004764,0.10892899999817018,1.0047099999974307,440.379609399999,443.8933389999984,,,,,,,,,,,,,,,,,,,,,,,,,,,,,8,C,2023-12-07_14h52.31.762,gca_avoidance_task,2022.2.4,143.94350505194188,
positions.xlsx,stimuli.xlsx,stimuli/Social1.png,stimuli/Social2.png,stimuli/Nonsocial2.png,stimuli/Nonsocial1.png,,"(0.7, -0.5)",cs_plus_s,,,,,0,0,0,0,,,,,0,12,12,3,,,,,,,,,,,,,,,,,,,,,,,,,,,,,,,,,,,,,,,,,,,,,,,,,,,,,,,,,,,,,,444.40023879999717,446.35154949999924,443.8933389999984,446.35154949999924,446.35154949999924,446.35154949999924,0.006427199998142896,0.013216899998951703,35,shock,1,[0.1530230999997002],[0.15999769999689306],446.5182038999992,446.5182038999992,0.007777999999234453,0.007777999999234453,0.018560900000011316,0.05326469999999972,0.06023049999930663,0.10184940000181086,0.10885459999917657,1.0046266999997897,450.0111975,453.7610203999975,,,,,,,,,,,,,,,,,,,,,,,,,,,,,8,C,2023-12-07_14h52.31.762,gca_avoidance_task,2022.2.4,143.94350505194188,
positions.xlsx,stimuli.xlsx,stimuli/Social1.png,stimuli/Social2.png,stimuli/Nonsocial2.png,stimuli/Nonsocial1.png,,"(0.7, 0.5)",cs_plus_ns,,,,,0,0,0,0,,,,,0,13,13,10,,,,,,,,,,,,,,,,,,,,,,,,,,,,,,,,,,,,,,,,,,,,,,,,,,,,,,,,,,,,,,454.26787719999993,455.97617959999843,453.7610203999975,455.97617959999843,455.97617959999843,455.97617959999843,0.0071446000001742505,0.013003199997910997,35,shock,1,[0.18735469999955967],[0.1873580999999831],456.17060499999934,456.17060499999934,0.008482299999741372,0.008482299999741372,0.01853359999950044,0.053220099998725345,0.060151800000312505,0.10181839999859221,0.10878429999866057,1.004562000001897,459.6635490999979,463.4134443999974,,,,,,,,,,,,,,,,,,,,,,,,,,,,,8,C,2023-12-07_14h52.31.762,gca_avoidance_task,2022.2.4,143.94350505194188,
positions.xlsx,stimuli.xlsx,stimuli/Social1.png,stimuli/Social2.png,stimuli/Nonsocial2.png,stimuli/Nonsocial1.png,,"(-0.7, 0.5)",cs_plus_ns,,,,,0,0,0,0,,,,,0,14,14,8,,,,,,,,,,,,,,,,,,,,,,,,,,,,,,,,,,,,,,,,,,,,,,,,,,,,,,,,,,,,,,463.9202922999975,465.552192799998,463.4134443999974,465.552192799998,465.552192799998,465.552192799998,0.006288900000072317,0.01320339999801945,35,shock,1,[0.2502210999991803],[0.25022469999748864],465.8091299999978,465.8091299999978,0.007912099998065969,0.007912099998065969,0.01830349999727332,0.05293279999750666,0.059858900000108406,0.10157189999881666,0.10849169999710284,1.004280099998141,469.30212689999826,473.5797172999992,,,,,,,,,,,,,,,,,,,,,,,,,,,,,8,C,2023-12-07_14h52.31.762,gca_avoidance_task,2022.2.4,143.94350505194188,
positions.xlsx,stimuli.xlsx,stimuli/Social1.png,stimuli/Social2.png,stimuli/Nonsocial2.png,stimuli/Nonsocial1.png,,"(0.7, 0.5)",cs_minus_s,,,,,0,0,0,0,,,,,0,15,15,6,,,,,,,,,,,,,,,,,,,,,,,,,,,,,,,,,,,,,,,,,,,,,,,,,,,,,,,,,,,,,,474.0865629999971,475.3364978999998,473.5797172999992,475.3364978999998,475.3364978999998,475.3364978999998,0.005889900003239745,0.012998900001548463,40,reward,1,[0.2361823999999615],[0.23618610000266926],475.5795987999991,475.5795987999991,0.0069590999992215075,0.0069590999992215075,0.01849949999814271,0.053135399997700006,0.060069600000133505,0.10171509999781847,0.10869389999788837,1.0044899999993504,479.07255609999993,483.38480179999897,,,,,,,,,,,,,,,,,,,,,,,,,,,,,8,C,2023-12-07_14h52.31.762,gca_avoidance_task,2022.2.4,143.94350505194188,
positions.xlsx,stimuli.xlsx,stimuli/Social1.png,stimuli/Social2.png,stimuli/Nonsocial2.png,stimuli/Nonsocial1.png,,"(-0.7, -0.5)",cs_plus_ns,,,,,0,0,0,0,,,,,1,0,16,9,,,,,,,,,,,,,,,,,,,,,,,,,,,,,,,,,,,,,,,,,,,,,,,,,,,,,,,,,,,,,,483.8917685999986,485.53747699999803,483.38480179999897,485.53747699999803,485.53747699999803,485.53747699999803,0.006853000002593035,0.012901000001875218,40,shock,1,[0.21503900000243448],[0.2150424000028579],485.7597003999981,485.7597003999981,0.007406900000205496,0.007406900000205496,0.01879719999851659,0.05350729999918258,0.06049229999916861,0.10212440000032075,0.1090887999998813,1.0048360000000685,489.2526988999998,493.4399844999971,,,,,,,,,,,,,,,,,,,,,,,,,,,,,8,C,2023-12-07_14h52.31.762,gca_avoidance_task,2022.2.4,143.94350505194188,
positions.xlsx,stimuli.xlsx,stimuli/Social1.png,stimuli/Social2.png,stimuli/Nonsocial2.png,stimuli/Nonsocial1.png,,"(-0.7, -0.5)",cs_minus_ns,,,,,0,0,0,0,,,,,1,1,17,13,,,,,,,,,,,,,,,,,,,,,,,,,,,,,,,,,,,,,,,,,,,,,,,,,,,,,,,,,,,,,,493.9468646999994,495.9537055999972,493.4399844999971,495.9537055999972,495.9537055999972,495.9537055999972,0.0064134999993257225,0.013041300000622869,45,reward,1,[0.19439219999912893],[0.19439589999819873],496.1551387999971,496.1551387999971,0.008532399999239715,0.008532399999239715,0.018862799999624258,0.05355979999876581,0.06052470000213361,0.10215160000007018,0.10913939999954891,1.004914799999824,499.6480315999979,503.6965008999978,,,,,,,,,,,,,,,,,,,,,,,,,,,,,8,C,2023-12-07_14h52.31.762,gca_avoidance_task,2022.2.4,143.94350505194188,
positions.xlsx,stimuli.xlsx,stimuli/Social1.png,stimuli/Social2.png,stimuli/Nonsocial2.png,stimuli/Nonsocial1.png,,"(0.7, -0.5)",cs_minus_ns,,,,,0,0,0,0,,,,,1,2,18,15,,,,,,,,,,,,,,,,,,,,,,,,,,,,,,,,,,,,,,,,,,,,,,,,,,,,,,,,,,,,,,504.20340120000037,505.80055619999985,503.6965008999978,505.80055619999985,505.80055619999985,505.80055619999985,0.0065520999996806495,0.013041599999269238,50,reward,1,[0.19443880000108038],[0.19444250000015018],506.0019528999983,506.0019528999983,0.0077778999984730035,0.0077778999984730035,0.018585699999675853,0.05323099999804981,0.060229099999560276,0.10182050000003073,0.10879649999696994,1.0045728999975836,509.49487379999846,513.3211843999998,,,,,,,,,,,,,,,,,,,,,,,,,,,,,8,C,2023-12-07_14h52.31.762,gca_avoidance_task,2022.2.4,143.94350505194188,
positions.xlsx,stimuli.xlsx,stimuli/Social1.png,stimuli/Social2.png,stimuli/Nonsocial2.png,stimuli/Nonsocial1.png,,"(0.7, -0.5)",cs_plus_s,,,,,0,0,0,0,,,,,1,3,19,3,,,,,,,,,,,,,,,,,,,,,,,,,,,,,,,,,,,,,,,,,,,,,,,,,,,,,,,,,,,,,,513.8280373999987,515.5015791999976,513.3211843999998,515.5015791999976,515.5015791999976,515.5015791999976,0.00620849999904749,0.013160599999537226,50,shock,1,[0.1667892999976175],[0.16679289999956382],515.6751944999996,515.6751944999996,0.007428000000800239,0.007428000000800239,0.018316200003027916,0.05294470000080764,0.05995230000189622,0.1015285000030417,0.10848530000293977,1.0043183000016143,519.1681159,523.445771499999,,,,,,,,,,,,,,,,,,,,,,,,,,,,,8,C,2023-12-07_14h52.31.762,gca_avoidance_task,2022.2.4,143.94350505194188,
positions.xlsx,stimuli.xlsx,stimuli/Social1.png,stimuli/Social2.png,stimuli/Nonsocial2.png,stimuli/Nonsocial1.png,,"(-0.7, 0.5)",cs_plus_ns,,,,,0,0,0,0,,,,,1,4,20,8,,,,,,,,,,,,,,,,,,,,,,,,,,,,,,,,,,,,,,,,,,,,,,,,,,,,,,,,,,,,,,523.9526141999995,525.5914443000001,523.445771499999,525.5914443000001,525.5914443000001,525.5914443000001,0.006895200000144541,0.013298300000315066,50,shock,1,[0.236504700002115],[0.23650840000118478],525.8344722999973,525.8344722999973,0.008116900000459282,0.008116900000459282,0.01830559999871184,0.05297459999928833,0.059953100000711856,0.10161169999992126,0.10860849999880884,1.0043693999978132,529.3274773999983,533.8203028999997,,,,,,,,,,,,,,,,,,,,,,,,,,,,,8,C,2023-12-07_14h52.31.762,gca_avoidance_task,2022.2.4,143.94350505194188,
positions.xlsx,stimuli.xlsx,stimuli/Social1.png,stimuli/Social2.png,stimuli/Nonsocial2.png,stimuli/Nonsocial1.png,,"(0.7, 0.5)",cs_minus_ns,,,,,0,0,0,0,,,,,1,5,21,14,,,,,,,,,,,,,,,,,,,,,,,,,,,,,,,,,,,,,,,,,,,,,,,,,,,,,,,,,,,,,,534.3271997999982,535.4591234999971,533.8203028999997,535.4591234999971,535.4591234999971,535.4591234999971,0.006560599998920225,0.013073399997665547,55,reward,1,[0.21533529999942402],[0.21533879999697092],535.6813098999992,535.6813098999992,0.007512100000894861,0.007512100000894861,0.018498199999157805,0.0531528999999864,0.06015629999819794,0.10176080000019283,0.10874319999857107,1.0045086999998603,539.1743164,542.7088298999988,,,,,,,,,,,,,,,,,,,,,,,,,,,,,8,C,2023-12-07_14h52.31.762,gca_avoidance_task,2022.2.4,143.94350505194188,
positions.xlsx,stimuli.xlsx,stimuli/Social1.png,stimuli/Social2.png,stimuli/Nonsocial2.png,stimuli/Nonsocial1.png,,"(0.7, 0.5)",cs_minus_s,,,,,0,0,0,0,,,,,1,6,22,6,,,,,,,,,,,,,,,,,,,,,,,,,,,,,,,,,,,,,,,,,,,,,,,,,,,,,,,,,,,,,,543.2157421999982,544.6254076999976,542.7088298999988,544.6254076999976,544.6254076999976,544.6254076999976,0.005815599997731624,0.012961399999767309,60,reward,1,[0.22229080000033719],[0.22229439999864553],544.8546549999992,544.8546549999992,0.006881599998450838,0.006881599998450838,0.018314900000405032,0.0529285999982676,0.0598675999972329,0.10155949999898439,0.1085066999985429,1.0042254999971192,548.347564599997,552.8056402999973,,,,,,,,,,,,,,,,,,,,,,,,,,,,,8,C,2023-12-07_14h52.31.762,gca_avoidance_task,2022.2.4,143.94350505194188,
positions.xlsx,stimuli.xlsx,stimuli/Social1.png,stimuli/Social2.png,stimuli/Nonsocial2.png,stimuli/Nonsocial1.png,,"(-0.7, 0.5)",cs_minus_s,,,,,0,0,0,0,,,,,1,7,23,4,,,,,,,,,,,,,,,,,,,,,,,,,,,,,,,,,,,,,,,,,,,,,,,,,,,,,,,,,,,,,,553.3125615999998,554.3611506999987,552.8056402999973,554.3611506999987,554.3611506999987,554.3611506999987,0.005815600001369603,0.013158100002328865,65,reward,1,[0.24313460000121268],[0.24313790000087465],554.6111270999972,554.6111270999972,0.006878000000142492,0.006878000000142492,0.018227699998533353,0.05283950000011828,0.059815900000103284,0.10144869999930961,0.1083835999997973,1.0041873000009218,558.1041059999989,561.9997550999979,,,,,,,,,,,,,,,,,,,,,,,,,,,,,8,C,2023-12-07_14h52.31.762,gca_avoidance_task,2022.2.4,143.94350505194188,
positions.xlsx,stimuli.xlsx,stimuli/Social1.png,stimuli/Social2.png,stimuli/Nonsocial2.png,stimuli/Nonsocial1.png,,"(0.7, -0.5)",cs_minus_s,,,,,0,0,0,0,,,,,1,8,24,7,,,,,,,,,,,,,,,,,,,,,,,,,,,,,,,,,,,,,,,,,,,,,,,,,,,,,,,,,,,,,,562.5066461999995,563.7496642999977,561.9997550999979,563.7496642999977,563.7496642999977,563.7496642999977,0.005562999998801388,0.013124400000378955,70,reward,1,[0.24323519999961718],[0.2432388000015635],563.9996434999994,563.9996434999994,0.006903800000145566,0.006903800000145566,0.018041600000287872,0.05274899999858462,0.059680099999241065,0.10134399999878951,0.10831410000173491,1.004093700001249,567.4925775999982,571.6312994999971,,,,,,,,,,,,,,,,,,,,,,,,,,,,,8,C,2023-12-07_14h52.31.762,gca_avoidance_task,2022.2.4,143.94350505194188,
positions.xlsx,stimuli.xlsx,stimuli/Social1.png,stimuli/Social2.png,stimuli/Nonsocial2.png,stimuli/Nonsocial1.png,,"(-0.7, 0.5)",cs_plus_s,,,,,0,0,0,0,,,,,1,9,25,0,,,,,,,,,,,,,,,,,,,,,,,,,,,,,,,,,,,,,,,,,,,,,,,,,,,,,,,,,,,,,,572.1382114999979,574.033958699998,571.6312994999971,574.033958699998,574.033958699998,574.033958699998,0.005770200001279591,0.012918899999931455,70,shock,1,[0.22908440000173869],[0.2290878000021621],574.2700450999982,574.2700450999982,0.007476700000552228,0.007476700000552228,0.018259100001159823,0.052934700001060264,0.05992390000028536,0.10158380000211764,0.10858530000041355,1.0042530999999144,577.7629717999989,581.9155900999976,,,,,,,,,,,,,,,,,,,,,,,,,,,,,8,C,2023-12-07_14h52.31.762,gca_avoidance_task,2022.2.4,143.94350505194188,
positions.xlsx,stimuli.xlsx,stimuli/Social1.png,stimuli/Social2.png,stimuli/Nonsocial2.png,stimuli/Nonsocial1.png,,"(-0.7, -0.5)",cs_plus_s,,,,,0,0,0,0,,,,,1,10,26,1,,,,,,,,,,,,,,,,,,,,,,,,,,,,,,,,,,,,,,,,,,,,,,,,,,,,,,,,,,,,,,582.4225022999999,583.7766179999999,581.9155900999976,583.7766179999999,583.7766179999999,583.7766179999999,0.006441400000767317,0.013380500000494067,70,shock,1,[0.16011129999969853],[0.16011499999876833],583.9363195999977,583.9363195999977,0.007300799999939045,0.007300799999939045,0.011829600000055507,0.05343880000145873,0.060398900001018774,0.10203449999971781,0.10899630000130855,1.0048148999994737,587.4362602999972,591.7069166999972,,,,,,,,,,,,,,,,,,,,,,,,,,,,,8,C,2023-12-07_14h52.31.762,gca_avoidance_task,2022.2.4,143.94350505194188,
positions.xlsx,stimuli.xlsx,stimuli/Social1.png,stimuli/Social2.png,stimuli/Nonsocial2.png,stimuli/Nonsocial1.png,,"(-0.7, -0.5)",cs_minus_s,,,,,0,0,0,0,,,,,1,11,27,5,,,,,,,,,,,,,,,,,,,,,,,,,,,,,,,,,,,,,,,,,,,,,,,,,,,,,,,,,,,,,,592.2137736999975,593.4151371999978,591.7069166999972,593.4151371999978,593.4151371999978,593.4151371999978,0.006350299998302944,0.012949399999342859,75,reward,1,[0.22905949999767472],[0.22906339999826741],593.6512578000002,593.6512578000002,0.006797699999879114,0.006797699999879114,0.018757699999696342,0.05346060000010766,0.06035820000033709,0.1020250000001397,0.10900039999978617,1.0047780999993847,597.1442027999983,600.8384974,,,,,,,,,,,,,,,,,,,,,,,,,,,,,8,C,2023-12-07_14h52.31.762,gca_avoidance_task,2022.2.4,143.94350505194188,
positions.xlsx,stimuli.xlsx,stimuli/Social1.png,stimuli/Social2.png,stimuli/Nonsocial2.png,stimuli/Nonsocial1.png,,"(-0.7, 0.5)",cs_minus_ns,,,,,0,0,0,0,,,,,1,12,28,12,,,,,,,,,,,,,,,,,,,,,,,,,,,,,,,,,,,,,,,,,,,,,,,,,,,,,,,,,,,,,,601.3453489999993,602.6508697999998,600.8384974,602.6508697999998,602.6508697999998,602.6508697999998,0.006450700002460508,0.013458100002026185,80,reward,1,[0.1949482000018179],[0.1949516999993648],602.8523056999984,602.8523056999984,0.0075013000023318455,0.0075013000023318455,0.018307300000742543,0.05297190000055707,0.05992010000045411,0.10157379999873228,0.10847980000107782,1.004293099998904,606.345188299998,610.2270313999979,,,,,,,,,,,,,,,,,,,,,,,,,,,,,8,C,2023-12-07_14h52.31.762,gca_avoidance_task,2022.2.4,143.94350505194188,
positions.xlsx,stimuli.xlsx,stimuli/Social1.png,stimuli/Social2.png,stimuli/Nonsocial2.png,stimuli/Nonsocial1.png,,"(0.7, -0.5)",cs_plus_ns,,,,,0,0,0,0,,,,,1,13,29,11,,,,,,,,,,,,,,,,,,,,,,,,,,,,,,,,,,,,,,,,,,,,,,,,,,,,,,,,,,,,,,610.7338304999976,612.4004685999971,610.2270313999979,612.4004685999971,612.4004685999971,612.4004685999971,0.006471299999248004,0.013024899999436457,80,shock,1,[0.24300869999933639],[0.2430123000012827],612.6504750999993,612.6504750999993,0.008125299998937408,0.008125299998937408,0.018616800000017975,0.05322339999838732,0.06017530000099214,0.10189589999936288,0.1088543000005302,1.0046198999989429,616.1433883999998,619.9696779999977,,,,,,,,,,,,,,,,,,,,,,,,,,,,,8,C,2023-12-07_14h52.31.762,gca_avoidance_task,2022.2.4,143.94350505194188,
positions.xlsx,stimuli.xlsx,stimuli/Social1.png,stimuli/Social2.png,stimuli/Nonsocial2.png,stimuli/Nonsocial1.png,,"(0.7, 0.5)",cs_plus_s,,,,,0,0,0,0,,,,,1,14,30,2,,,,,,,,,,,,,,,,,,,,,,,,,,,,,,,,,,,,,,,,,,,,,,,,,,,,,,,,,,,,,,620.4765583999979,621.5945471999985,619.9696779999977,621.5945471999985,621.5945471999985,621.5945471999985,0.006032000001141569,0.012953299999935552,80,shock,1,[0.18750120000186143],[0.18750490000093123],621.7890208999997,621.7890208999997,0.0075111000005563255,0.0075111000005563255,0.018380099998466903,0.05300110000098357,0.060028100000636186,0.10165229999984149,0.10863949999838951,1.0044472000008682,625.2819691999975,629.3789608999978,,,,,,,,,,,,,,,,,,,,,,,,,,,,,8,C,2023-12-07_14h52.31.762,gca_avoidance_task,2022.2.4,143.94350505194188,
positions.xlsx,stimuli.xlsx,stimuli/Social1.png,stimuli/Social2.png,stimuli/Nonsocial2.png,stimuli/Nonsocial1.png,,"(0.7, 0.5)",cs_plus_ns,,,,,0,0,0,0,,,,,1,15,31,10,,,,,,,,,,,,,,,,,,,,,,,,,,,,,,,,,,,,,,,,,,,,,,,,,,,,,,,,,,,,,,629.8858516,630.9622466999972,629.3789608999978,630.9622466999972,630.9622466999972,630.9622466999972,0.006908200000907527,0.013424699998722645,80,shock,1,[0.1739503999997396],[0.1739540999988094],631.1427757999991,631.1427757999991,0.008000699999684002,0.008000699999684002,0.01851890000034473,0.05318520000218996,0.06015690000276663,0.10181630000079167,0.1087933000017074,1.0045269000002008,634.6357332999978,637.9967075999994,,,,,,,,,,,,,,,,,,,,,,,,,,,,,8,C,2023-12-07_14h52.31.762,gca_avoidance_task,2022.2.4,143.94350505194188,
positions.xlsx,stimuli.xlsx,stimuli/Social1.png,stimuli/Social2.png,stimuli/Nonsocial2.png,stimuli/Nonsocial1.png,,"(-0.7, 0.5)",cs_plus_s,,,,,0,0,0,0,,,,,,,,,0,0,0,0,,,,,,,,,,,,,,,,,,,,,,,,,,,,,,,,,,,,,,,,,,,,,,,,,,,,,,,,,,666.4747112999976,668.2385192999973,665.9747726999994,668.2385192999973,668.2385192999973,668.2385192999973,0.005682999999407912,0.0131811999999627,80,none,0,,,673.2452663999975,673.2452663999975,0.013520500000595348,0.013520500000595348,0.01991439999983413,0.05461750000176835,0.06161470000006375,0.10323780000180705,0.11015509999924689,1.012908900000184,676.7382589999979,680.2519785999975,637.9967075999994,637.9967075999994,637.9967075999994,637.9967075999994,space,25.597746800001914,,,,,,,,,,,,,,,,,,,,,,,8,C,2023-12-07_14h52.31.762,gca_avoidance_task,2022.2.4,143.94350505194188,
positions.xlsx,stimuli.xlsx,stimuli/Social1.png,stimuli/Social2.png,stimuli/Nonsocial2.png,stimuli/Nonsocial1.png,,"(-0.7, -0.5)",cs_plus_ns,,,,,0,0,0,0,,,,,,,,,0,1,1,9,,,,,,,,,,,,,,,,,,,,,,,,,,,,,,,,,,,,,,,,,,,,,,,,,,,,,,,,,,680.7588996999984,682.6129540999973,680.2519785999975,682.6129540999973,682.6129540999973,682.6129540999973,0.007112800001777941,0.013196700001572026,80,shock,1,[0.44475900000179536],[0.44476270000086515],683.0643670999998,683.0643670999998,0.00835209999786457,0.00835209999786457,0.01810029999978724,0.052760700000362704,0.05971059999865247,0.10137369999938528,0.10837339999852702,1.0040917999976955,686.5572460999974,690.4668151000005,,,,,,,,,,,,,,,,,,,,,,,,,,,,,8,C,2023-12-07_14h52.31.762,gca_avoidance_task,2022.2.4,143.94350505194188,
positions.xlsx,stimuli.xlsx,stimuli/Social1.png,stimuli/Social2.png,stimuli/Nonsocial2.png,stimuli/Nonsocial1.png,,"(-0.7, -0.5)",cs_minus_s,,,,,0,0,0,0,,,,,,,,,0,2,2,5,,,,,,,,,,,,,,,,,,,,,,,,,,,,,,,,,,,,,,,,,,,,,,,,,,,,,,,,,,690.9737330999997,692.973654999998,690.4668151000005,692.973654999998,692.973654999998,692.973654999998,0.00674309999885736,0.013276599998789607,85,reward,1,[0.5141048000004957],[0.514108600000327],693.4944654999999,693.4944654999999,0.007650199997442542,0.007650199997442542,0.018392300000414252,0.05300519999946118,0.05996500000037486,0.10165779999806546,0.10860329999923124,1.0043687999968824,696.9874376999978,701.2789092999992,,,,,,,,,,,,,,,,,,,,,,,,,,,,,8,C,2023-12-07_14h52.31.762,gca_avoidance_task,2022.2.4,143.94350505194188,
positions.xlsx,stimuli.xlsx,stimuli/Social1.png,stimuli/Social2.png,stimuli/Nonsocial2.png,stimuli/Nonsocial1.png,,"(0.7, 0.5)",cs_minus_ns,,,,,0,0,0,0,,,,,,,,,0,3,3,14,,,,,,,,,,,,,,,,,,,,,,,,,,,,,,,,,,,,,,,,,,,,,,,,,,,,,,,,,,701.7858104999978,702.9315809999971,701.2789092999992,702.9315809999971,702.9315809999971,702.9315809999971,0.006996000000071945,0.013204899998527253,90,reward,1,[0.4167830000005779],[0.4167866999996477],703.3551855999976,703.3551855999976,0.007030799999483861,0.007030799999483861,0.018631500002811663,0.05335950000153389,0.0602790000011737,0.10192910000114352,0.10888759999943431,1.0046905000017432,706.8481648999987,711.0424101999997,,,,,,,,,,,,,,,,,,,,,,,,,,,,,8,C,2023-12-07_14h52.31.762,gca_avoidance_task,2022.2.4,143.94350505194188,
positions.xlsx,stimuli.xlsx,stimuli/Social1.png,stimuli/Social2.png,stimuli/Nonsocial2.png,stimuli/Nonsocial1.png,,"(0.7, 0.5)",cs_plus_ns,,,,,0,0,0,0,,,,,,,,,0,4,4,10,,,,,,,,,,,,,,,,,,,,,,,,,,,,,,,,,,,,,,,,,,,,,,,,,,,,,,,,,,711.5493069000004,713.4450562999991,711.0424101999997,713.4450562999991,713.4450562999991,713.4450562999991,0.006215900000825059,0.013003200001548976,90,none,0,,,718.4517806999975,718.4517806999975,0.013941200002591358,0.013941200002591358,0.019749600000068313,0.054427700000815094,0.061366800000541843,0.10308470000018133,0.1100296000004164,1.012712300002022,721.9447466999991,726.180732599998,,,,,,,,,,,,,,,,,,,,,,,,,,,,,8,C,2023-12-07_14h52.31.762,gca_avoidance_task,2022.2.4,143.94350505194188,
positions.xlsx,stimuli.xlsx,stimuli/Social1.png,stimuli/Social2.png,stimuli/Nonsocial2.png,stimuli/Nonsocial1.png,,"(-0.7, 0.5)",cs_plus_ns,,,,,0,0,0,0,,,,,,,,,0,5,5,8,,,,,,,,,,,,,,,,,,,,,,,,,,,,,,,,,,,,,,,,,,,,,,,,,,,,,,,,,,726.6875722999976,728.6319492000002,726.180732599998,728.6319492000002,728.6319492000002,728.6319492000002,0.0067942999994556885,0.012926399998832494,90,none,0,,,733.6386992999978,733.6386992999978,0.01551140000083251,0.01551140000083251,0.019690299999638228,0.05435339999894495,0.061337899998761714,0.10298099999999977,0.10993270000108168,1.0126769000016793,737.1316522999987,740.9162175999991,,,,,,,,,,,,,,,,,,,,,,,,,,,,,8,C,2023-12-07_14h52.31.762,gca_avoidance_task,2022.2.4,143.94350505194188,
positions.xlsx,stimuli.xlsx,stimuli/Social1.png,stimuli/Social2.png,stimuli/Nonsocial2.png,stimuli/Nonsocial1.png,,"(0.7, 0.5)",cs_plus_s,,,,,0,0,0,0,,,,,,,,,0,6,6,2,,,,,,,,,,,,,,,,,,,,,,,,,,,,,,,,,,,,,,,,,,,,,,,,,,,,,,,,,,741.4231550000004,742.4647095999971,740.9162175999991,742.4647095999971,742.4647095999971,742.4647095999971,0.006376500001351815,0.013153799998690374,90,shock,1,[0.3473081000011007],[0.3473121999995783],742.8188818999988,742.8188818999988,0.007330399999773363,0.007330399999773363,0.018618800000695046,0.05326939999940805,0.060243600000831066,0.10184590000062599,0.1088300999981584,1.0046388000009756,746.3118360999979,750.3880651,,,,,,,,,,,,,,,,,,,,,,,,,,,,,8,C,2023-12-07_14h52.31.762,gca_avoidance_task,2022.2.4,143.94350505194188,
positions.xlsx,stimuli.xlsx,stimuli/Social1.png,stimuli/Social2.png,stimuli/Nonsocial2.png,stimuli/Nonsocial1.png,,"(0.7, -0.5)",cs_plus_ns,,,,,0,0,0,0,,,,,,,,,0,7,7,11,,,,,,,,,,,,,,,,,,,,,,,,,,,,,,,,,,,,,,,,,,,,,,,,,,,,,,,,,,750.8949515999993,752.7282080000004,750.3880651,752.7282080000004,752.7282080000004,752.7282080000004,0.007727499996690312,0.012711199997283984,90,none,0,,,757.7349600999987,757.7349600999987,0.014234399997803848,0.014234399997803848,0.01949359999707667,0.05417709999892395,0.06115219999992405,0.10274279999794089,0.10970329999690875,1.0124312999978429,761.2279334999985,765.4082720000006,,,,,,,,,,,,,,,,,,,,,,,,,,,,,8,C,2023-12-07_14h52.31.762,gca_avoidance_task,2022.2.4,143.94350505194188,
positions.xlsx,stimuli.xlsx,stimuli/Social1.png,stimuli/Social2.png,stimuli/Nonsocial2.png,stimuli/Nonsocial1.png,,"(0.7, 0.5)",cs_minus_s,,,,,0,0,0,0,,,,,,,,,0,8,8,6,,,,,,,,,,,,,,,,,,,,,,,,,,,,,,,,,,,,,,,,,,,,,,,,,,,,,,,,,,765.9151839999977,767.4776129999991,765.4082720000006,767.4776129999991,767.4776129999991,767.4776129999991,0.0061386999987007584,0.013446799999655923,95,reward,1,[0.43135289999918314],[0.43135659999825293],767.9151168999997,767.9151168999997,0.008438700002443511,0.008438700002443511,0.017709899999317713,0.05235080000056769,0.059370400002080714,0.10096880000128294,0.1079000999998243,1.0037215000011201,771.4080476999989,775.3801323999978,,,,,,,,,,,,,,,,,,,,,,,,,,,,,8,C,2023-12-07_14h52.31.762,gca_avoidance_task,2022.2.4,143.94350505194188,
positions.xlsx,stimuli.xlsx,stimuli/Social1.png,stimuli/Social2.png,stimuli/Nonsocial2.png,stimuli/Nonsocial1.png,,"(0.7, -0.5)",cs_plus_s,,,,,0,0,0,0,,,,,,,,,0,9,9,3,,,,,,,,,,,,,,,,,,,,,,,,,,,,,,,,,,,,,,,,,,,,,,,,,,,,,,,,,,775.8870141999978,777.5397281999976,775.3801323999978,777.5397281999976,777.5397281999976,777.5397281999976,0.00642130000051111,0.013041999998677056,95,none,0,,,782.5464900999978,782.5464900999978,0.013214299997343915,0.013214299997343915,0.019785199998295866,0.054412899997259956,0.06145479999759118,0.10306829999899492,0.11009899999771733,1.0127594999976282,786.0394674999989,789.7267864999994,,,,,,,,,,,,,,,,,,,,,,,,,,,,,8,C,2023-12-07_14h52.31.762,gca_avoidance_task,2022.2.4,143.94350505194188,
positions.xlsx,stimuli.xlsx,stimuli/Social1.png,stimuli/Social2.png,stimuli/Nonsocial2.png,stimuli/Nonsocial1.png,,"(-0.7, 0.5)",cs_minus_s,,,,,0,0,0,0,,,,,,,,,0,10,10,4,,,,,,,,,,,,,,,,,,,,,,,,,,,,,,,,,,,,,,,,,,,,,,,,,,,,,,,,,,790.233672899998,791.9002811999999,789.7267864999994,791.9002811999999,791.9002811999999,791.9002811999999,0.0068978999988758005,0.013144600001396611,100,reward,1,[0.4792651999996451],[0.47926860000006855],792.3863872999973,792.3863872999973,0.007675700002437225,0.007675700002437225,0.01841650000278605,0.053101800000149524,0.060089000002335524,0.10170049999942421,0.10863420000168844,1.0044565999996848,795.8793444000003,800.1638991,,,,,,,,,,,,,,,,,,,,,,,,,,,,,8,C,2023-12-07_14h52.31.762,gca_avoidance_task,2022.2.4,143.94350505194188,
positions.xlsx,stimuli.xlsx,stimuli/Social1.png,stimuli/Social2.png,stimuli/Nonsocial2.png,stimuli/Nonsocial1.png,,"(-0.7, 0.5)",cs_minus_ns,,,,,0,0,0,0,,,,,,,,,0,11,11,12,,,,,,,,,,,,,,,,,,,,,,,,,,,,,,,,,,,,,,,,,,,,,,,,,,,,,,,,,,800.6707497999996,802.1776561999977,800.1638991,802.1776561999977,802.1776561999977,802.1776561999977,0.006807100002333755,0.013248300001578173,105,reward,1,[0.5905198000000382],[0.5905234000019846],802.7748762999981,802.7748762999981,0.007410499998513842,0.007410499998513842,0.018245899998873938,0.05292889999691397,0.05988470000011148,0.10151849999965634,0.1084564999982831,1.004236900000251,806.2678051999974,810.2190031999999,,,,,,,,,,,,,,,,,,,,,,,,,,,,,8,C,2023-12-07_14h52.31.762,gca_avoidance_task,2022.2.4,143.94350505194188,
positions.xlsx,stimuli.xlsx,stimuli/Social1.png,stimuli/Social2.png,stimuli/Nonsocial2.png,stimuli/Nonsocial1.png,,"(-0.7, -0.5)",cs_plus_s,,,,,0,0,0,0,,,,,,,,,0,12,12,1,,,,,,,,,,,,,,,,,,,,,,,,,,,,,,,,,,,,,,,,,,,,,,,,,,,,,,,,,,810.7259070999971,812.1494916999982,810.2190031999999,812.1494916999982,812.1494916999982,812.1494916999982,0.005815100001200335,0.013286900000821333,105,none,0,,,817.1562508999996,817.1562508999996,0.013119100000039907,0.013119100000039907,0.02006940000137547,0.05468670000118436,0.061666300000069896,0.10332420000122511,0.11031370000273455,1.0129898000013782,820.6492010000002,825.1142894999975,,,,,,,,,,,,,,,,,,,,,,,,,,,,,8,C,2023-12-07_14h52.31.762,gca_avoidance_task,2022.2.4,143.94350505194188,
positions.xlsx,stimuli.xlsx,stimuli/Social1.png,stimuli/Social2.png,stimuli/Nonsocial2.png,stimuli/Nonsocial1.png,,"(0.7, -0.5)",cs_minus_s,,,,,0,0,0,0,,,,,,,,,0,13,13,7,,,,,,,,,,,,,,,,,,,,,,,,,,,,,,,,,,,,,,,,,,,,,,,,,,,,,,,,,,825.6211815999995,827.2877709999993,825.1142894999975,827.2877709999993,827.2877709999993,827.2877709999993,0.006503900000097929,0.013023200001043733,110,reward,1,[0.6599150000001828],[0.6599189000007755],827.954472999998,827.954472999998,0.007900299999164417,0.007900299999164417,0.01847559999805526,0.0530808999974397,0.06004919999759295,0.10173639999993611,0.10864909999872907,1.0044491999979073,831.447328899998,835.7110491999993,,,,,,,,,,,,,,,,,,,,,,,,,,,,,8,C,2023-12-07_14h52.31.762,gca_avoidance_task,2022.2.4,143.94350505194188,
positions.xlsx,stimuli.xlsx,stimuli/Social1.png,stimuli/Social2.png,stimuli/Nonsocial2.png,stimuli/Nonsocial1.png,,"(0.7, -0.5)",cs_minus_ns,,,,,0,0,0,0,,,,,,,,,0,14,14,15,,,,,,,,,,,,,,,,,,,,,,,,,,,,,,,,,,,,,,,,,,,,,,,,,,,,,,,,,,836.2179819999983,837.6692965000002,835.7110491999993,837.6692965000002,837.6692965000002,837.6692965000002,0.006605699996725889,0.013123999997333158,115,reward,1,[0.3820650999987265],[0.3820689999993192],838.0581959999981,838.0581959999981,0.007846000000427011,0.007846000000427011,0.01822810000157915,0.05292539999936707,0.05990620000011404,0.10149649999948451,0.10847690000082366,1.0043342000026314,841.5510998999998,846.0023499999988,,,,,,,,,,,,,,,,,,,,,,,,,,,,,8,C,2023-12-07_14h52.31.762,gca_avoidance_task,2022.2.4,143.94350505194188,
positions.xlsx,stimuli.xlsx,stimuli/Social1.png,stimuli/Social2.png,stimuli/Nonsocial2.png,stimuli/Nonsocial1.png,,"(-0.7, -0.5)",cs_minus_ns,,,,,0,0,0,0,,,,,,,,,0,15,15,13,,,,,,,,,,,,,,,,,,,,,,,,,,,,,,,,,,,,,,,,,,,,,,,,,,,,,,,,,,846.5092183999986,847.8702926999977,846.0023499999988,847.8702926999977,847.8702926999977,847.8702926999977,0.007235900000523543,0.012991499999770895,120,reward,1,[0.3957379999992554],[0.39574139999967883],848.2730505,848.2730505,0.007487700000638142,0.007487700000638142,0.018530499997723382,0.05324629999813624,0.06016939999972237,0.10184819999994943,0.10880249999900116,1.0045594999974128,851.7659786999975,856.001931499999,,,,,,,,,,,,,,,,,,,,,,,,,,,,,8,C,2023-12-07_14h52.31.762,gca_avoidance_task,2022.2.4,143.94350505194188,
positions.xlsx,stimuli.xlsx,stimuli/Social1.png,stimuli/Social2.png,stimuli/Nonsocial2.png,stimuli/Nonsocial1.png,,"(0.7, -0.5)",cs_minus_s,,,,,0,0,0,0,,,,,,,,,1,0,16,7,,,,,,,,,,,,,,,,,,,,,,,,,,,,,,,,,,,,,,,,,,,,,,,,,,,,,,,,,,856.5088080999994,858.4879416999975,856.001931499999,858.4879416999975,858.4879416999975,858.4879416999975,0.005806000001030043,0.01329009999972186,125,reward,1,[0.8058591000008164],[0.8127991000001202],859.3073253000002,859.3073253000002,0.007064000001264503,0.007064000001264503,0.018231400001241127,0.05289510000147857,0.059972600000037346,0.10150400000202353,0.10846400000082213,1.0042846000033023,862.8002734999973,866.5571055999972,,,,,,,,,,,,,,,,,,,,,,,,,,,,,8,C,2023-12-07_14h52.31.762,gca_avoidance_task,2022.2.4,143.94350505194188,
positions.xlsx,stimuli.xlsx,stimuli/Social1.png,stimuli/Social2.png,stimuli/Nonsocial2.png,stimuli/Nonsocial1.png,,"(-0.7, 0.5)",cs_plus_ns,,,,,0,0,0,0,,,,,,,,,1,1,17,8,,,,,,,,,,,,,,,,,,,,,,,,,,,,,,,,,,,,,,,,,,,,,,,,,,,,,,,,,,867.0639843999998,868.9736257000004,866.5571055999972,868.9736257000004,868.9736257000004,868.9736257000004,0.006379800001013791,0.013496100000338629,125,none,0,,,873.9803710999986,873.9803710999986,0.014051199999812525,0.014051199999812525,0.020226299999194453,0.054920800001127645,0.061835699998482596,0.10350180000023101,0.11050279999835766,1.013160999998945,877.4732914999986,881.3690255000001,,,,,,,,,,,,,,,,,,,,,,,,,,,,,8,C,2023-12-07_14h52.31.762,gca_avoidance_task,2022.2.4,143.94350505194188,
positions.xlsx,stimuli.xlsx,stimuli/Social1.png,stimuli/Social2.png,stimuli/Nonsocial2.png,stimuli/Nonsocial1.png,,"(-0.7, 0.5)",cs_minus_ns,,,,,0,0,0,0,,,,,,,,,1,2,18,12,,,,,,,,,,,,,,,,,,,,,,,,,,,,,,,,,,,,,,,,,,,,,,,,,,,,,,,,,,881.8758922999987,883.7855417999999,881.3690255000001,883.7855417999999,883.7855417999999,883.7855417999999,0.006753500001650536,0.013353900001675356,130,reward,1,[0.6601165000029141],[0.6601201000012225],884.4521913999997,884.4521913999997,0.0076431000015873,0.0076431000015873,0.01844359999813605,0.05308309999963967,0.06012149999878602,0.10173009999925853,0.10872190000009141,1.0044927999988431,887.945114099999,891.8824762000004,,,,,,,,,,,,,,,,,,,,,,,,,,,,,8,C,2023-12-07_14h52.31.762,gca_avoidance_task,2022.2.4,143.94350505194188,
positions.xlsx,stimuli.xlsx,stimuli/Social1.png,stimuli/Social2.png,stimuli/Nonsocial2.png,stimuli/Nonsocial1.png,,"(0.7, 0.5)",cs_minus_ns,,,,,0,0,0,0,,,,,,,,,1,3,19,14,,,,,,,,,,,,,,,,,,,,,,,,,,,,,,,,,,,,,,,,,,,,,,,,,,,,,,,,,,892.3893366999982,894.1115150000005,891.8824762000004,894.1115150000005,894.1115150000005,894.1115150000005,0.0067922000016551465,0.013468400000419933,135,reward,1,[0.5213150000017777],[0.521318600000086],894.6392916999976,894.6392916999976,0.007762100001855288,0.007762100001855288,0.018378700002358528,0.0530882000020938,0.05998420000105398,0.10161610000068322,0.10856600000261096,1.0043767999995907,898.1321882999982,902.3195369999994,,,,,,,,,,,,,,,,,,,,,,,,,,,,,8,C,2023-12-07_14h52.31.762,gca_avoidance_task,2022.2.4,143.94350505194188,
positions.xlsx,stimuli.xlsx,stimuli/Social1.png,stimuli/Social2.png,stimuli/Nonsocial2.png,stimuli/Nonsocial1.png,,"(-0.7, -0.5)",cs_minus_s,,,,,0,0,0,0,,,,,,,,,1,4,20,5,,,,,,,,,,,,,,,,,,,,,,,,,,,,,,,,,,,,,,,,,,,,,,,,,,,,,,,,,,902.8264697999984,903.9722397999976,902.3195369999994,903.9722397999976,903.9722397999976,903.9722397999976,0.0058409000012034085,0.013080700002319645,140,reward,1,[0.38193669999964186],[0.3819403000015882],904.3611394999971,904.3611394999971,0.007205800000519957,0.007205800000519957,0.018563900001026923,0.053186099998129066,0.060142399997857865,0.10181870000087656,0.1087772999999288,1.004526500000793,907.854059199999,911.9372377,,,,,,,,,,,,,,,,,,,,,,,,,,,,,8,C,2023-12-07_14h52.31.762,gca_avoidance_task,2022.2.4,143.94350505194188,
positions.xlsx,stimuli.xlsx,stimuli/Social1.png,stimuli/Social2.png,stimuli/Nonsocial2.png,stimuli/Nonsocial1.png,,"(0.7, 0.5)",cs_plus_ns,,,,,0,0,0,0,,,,,,,,,1,5,21,10,,,,,,,,,,,,,,,,,,,,,,,,,,,,,,,,,,,,,,,,,,,,,,,,,,,,,,,,,,912.4441241999994,913.5482764999979,911.9372377,913.5482764999979,913.5482764999979,913.5482764999979,0.006964899999729823,0.01302410000062082,140,none,0,,,918.554991099998,918.554991099998,0.013369500000408152,0.013369500000408152,0.019697499999892898,0.054468599999381695,0.061346899998170557,0.10303149999890593,0.10993260000032024,1.0126803999992262,922.0479689999993,925.9853054999985,,,,,,,,,,,,,,,,,,,,,,,,,,,,,8,C,2023-12-07_14h52.31.762,gca_avoidance_task,2022.2.4,143.94350505194188,
positions.xlsx,stimuli.xlsx,stimuli/Social1.png,stimuli/Social2.png,stimuli/Nonsocial2.png,stimuli/Nonsocial1.png,,"(0.7, 0.5)",cs_plus_s,,,,,0,0,0,0,,,,,,,,,1,6,22,2,,,,,,,,,,,,,,,,,,,,,,,,,,,,,,,,,,,,,,,,,,,,,,,,,,,,,,,,,,926.4921570000006,928.3879425999985,925.9853054999985,928.3879425999985,928.3879425999985,928.3879425999985,0.0059841999973286875,0.01307710000037332,140,none,0,,,933.3947026999995,933.3947026999995,0.01322969999819179,0.01322969999819179,0.019872099997883197,0.054487800000060815,0.06144800000038231,0.10311299999739276,0.1100665999983903,1.012835300000006,936.8876534999981,940.5889083999973,,,,,,,,,,,,,,,,,,,,,,,,,,,,,8,C,2023-12-07_14h52.31.762,gca_avoidance_task,2022.2.4,143.94350505194188,
positions.xlsx,stimuli.xlsx,stimuli/Social1.png,stimuli/Social2.png,stimuli/Nonsocial2.png,stimuli/Nonsocial1.png,,"(0.7, -0.5)",cs_minus_ns,,,,,0,0,0,0,,,,,,,,,1,7,23,15,,,,,,,,,,,,,,,,,,,,,,,,,,,,,,,,,,,,,,,,,,,,,,,,,,,,,,,,,,941.0957500999975,942.9151299000005,940.5889083999973,942.9151299000005,942.9151299000005,942.9151299000005,0.006560199999512406,0.013448499998048646,145,reward,1,[0.6670496000006096],[0.6670536999990873],943.5887120999978,943.5887120999978,0.008085399997071363,0.008085399997071363,0.01871939999909955,0.05338560000018333,0.06038099999932456,0.1020502999999735,0.10896069999944302,1.0047522999993816,947.0817026999975,950.7204144999996,,,,,,,,,,,,,,,,,,,,,,,,,,,,,8,C,2023-12-07_14h52.31.762,gca_avoidance_task,2022.2.4,143.94350505194188,
positions.xlsx,stimuli.xlsx,stimuli/Social1.png,stimuli/Social2.png,stimuli/Nonsocial2.png,stimuli/Nonsocial1.png,,"(-0.7, 0.5)",cs_minus_s,,,,,0,0,0,0,,,,,,,,,1,8,24,4,,,,,,,,,,,,,,,,,,,,,,,,,,,,,,,,,,,,,,,,,,,,,,,,,,,,,,,,,,951.227310299997,952.7897391000006,950.7204144999996,952.7897391000006,952.7897391000006,952.7897391000006,0.006766800001059892,0.013100100000883685,150,reward,1,[0.6598673000007693],[0.6598707000011927],953.4563731999988,953.4563731999988,0.006695899999613175,0.006695899999613175,0.018321900002774782,0.05300759999954607,0.05995500000062748,0.10160760000144364,0.1086040000009234,1.004343600001448,956.9493618999986,961.2200367000005,,,,,,,,,,,,,,,,,,,,,,,,,,,,,8,C,2023-12-07_14h52.31.762,gca_avoidance_task,2022.2.4,143.94350505194188,
positions.xlsx,stimuli.xlsx,stimuli/Social1.png,stimuli/Social2.png,stimuli/Nonsocial2.png,stimuli/Nonsocial1.png,,"(-0.7, -0.5)",cs_minus_ns,,,,,0,0,0,0,,,,,,,,,1,9,25,13,,,,,,,,,,,,,,,,,,,,,,,,,,,,,,,,,,,,,,,,,,,,,,,,,,,,,,,,,,961.7268886999991,963.254600799999,961.2200367000005,963.254600799999,963.254600799999,963.254600799999,0.006657800000539282,0.013063899998087436,155,reward,1,[0.5971648999984609],[0.5971683999996458],963.858765099998,963.858765099998,0.007506000001740176,0.007506000001740176,0.018580600000859704,0.05329790000178036,0.060183300000062445,0.101835099998425,0.10880900000120164,1.0046297000008053,967.3517245999974,971.2473879999998,,,,,,,,,,,,,,,,,,,,,,,,,,,,,8,C,2023-12-07_14h52.31.762,gca_avoidance_task,2022.2.4,143.94350505194188,
positions.xlsx,stimuli.xlsx,stimuli/Social1.png,stimuli/Social2.png,stimuli/Nonsocial2.png,stimuli/Nonsocial1.png,,"(0.7, -0.5)",cs_plus_s,,,,,0,0,0,0,,,,,,,,,1,10,26,3,,,,,,,,,,,,,,,,,,,,,,,,,,,,,,,,,,,,,,,,,,,,,,,,,,,,,,,,,,971.7542687999994,973.3514608000005,971.2473879999998,973.3514608000005,973.3514608000005,973.3514608000005,0.005984300001728116,0.013108999999531079,155,none,0,,,978.3581980999988,978.3581980999988,0.01361900000119931,0.01361900000119931,0.01983219999965513,0.05449180000141496,0.06143710000105784,0.10310309999840683,0.11005980000118143,1.01281260000178,981.8511328999994,985.8023859999994,,,,,,,,,,,,,,,,,,,,,,,,,,,,,8,C,2023-12-07_14h52.31.762,gca_avoidance_task,2022.2.4,143.94350505194188,
positions.xlsx,stimuli.xlsx,stimuli/Social1.png,stimuli/Social2.png,stimuli/Nonsocial2.png,stimuli/Nonsocial1.png,,"(0.7, 0.5)",cs_minus_s,,,,,0,0,0,0,,,,,,,,,1,11,27,6,,,,,,,,,,,,,,,,,,,,,,,,,,,,,,,,,,,,,,,,,,,,,,,,,,,,,,,,,,986.3092617000002,988.0106086999986,985.8023859999994,988.0106086999986,988.0106086999986,988.0106086999986,0.007106499997462379,0.013132999996742,160,reward,1,[0.4652476999981445],[0.4652513999972143],988.4827912000001,988.4827912000001,0.006867899999633664,0.006867899999633664,0.01886930000182474,0.05359440000029281,0.06052980000094976,0.1021681999991415,0.10912820000157808,1.0048839000010048,991.9757594999974,995.8714187999976,,,,,,,,,,,,,,,,,,,,,,,,,,,,,8,C,2023-12-07_14h52.31.762,gca_avoidance_task,2022.2.4,143.94350505194188,
positions.xlsx,stimuli.xlsx,stimuli/Social1.png,stimuli/Social2.png,stimuli/Nonsocial2.png,stimuli/Nonsocial1.png,,"(-0.7, -0.5)",cs_plus_s,,,,,0,0,0,0,,,,,,,,,1,12,28,1,,,,,,,,,,,,,,,,,,,,,,,,,,,,,,,,,,,,,,,,,,,,,,,,,,,,,,,,,,996.3782857000006,997.531044899999,995.8714187999976,997.531044899999,997.531044899999,997.531044899999,0.005707000000256812,0.013543499997467734,160,none,0,,,1002.5377698999982,1002.5377698999982,0.01374759999816888,0.01374759999816888,0.020276299997931346,0.054921299997658934,0.061864600000262726,0.10352760000023409,0.11051989999759826,1.0132858999968448,1006.0307469999971,1010.343052199998,,,,,,,,,,,,,,,,,,,,,,,,,,,,,8,C,2023-12-07_14h52.31.762,gca_avoidance_task,2022.2.4,143.94350505194188,
positions.xlsx,stimuli.xlsx,stimuli/Social1.png,stimuli/Social2.png,stimuli/Nonsocial2.png,stimuli/Nonsocial1.png,,"(-0.7, 0.5)",cs_plus_s,,,,,0,0,0,0,,,,,,,,,1,13,29,0,,,,,,,,,,,,,,,,,,,,,,,,,,,,,,,,,,,,,,,,,,,,,,,,,,,,,,,,,,1010.849948799998,1012.190180499998,1010.343052199998,1012.190180499998,1012.190180499998,1012.190180499998,0.00552139999854262,0.013146499997674255,160,shock,1,[0.2779320999979973],[0.27793589999782853],1012.4748680999983,1012.4748680999983,0.0076093999996373896,0.0076093999996373896,0.01854250000178581,0.053275599999324186,0.060212200001842575,0.10182809999969322,0.10878840000077616,1.0046542000018235,1015.9678234999992,1019.564936499999,,,,,,,,,,,,,,,,,,,,,,,,,,,,,8,C,2023-12-07_14h52.31.762,gca_avoidance_task,2022.2.4,143.94350505194188,
positions.xlsx,stimuli.xlsx,stimuli/Social1.png,stimuli/Social2.png,stimuli/Nonsocial2.png,stimuli/Nonsocial1.png,,"(-0.7, -0.5)",cs_plus_ns,,,,,0,0,0,0,,,,,,,,,1,14,30,9,,,,,,,,,,,,,,,,,,,,,,,,,,,,,,,,,,,,,,,,,,,,,,,,,,,,,,,,,,1020.0717879000003,1022.0161934999996,1019.564936499999,1022.0161934999996,1022.0161934999996,1022.0161934999996,0.007405799999105511,0.01341129999855184,160,none,0,,,1027.0229166999998,1027.0229166999998,0.015013600001111627,0.015013600001111627,0.020187499998428393,0.05485430000044289,0.061830999999074265,0.10343619999912335,0.11038550000012037,1.0131312000012258,1030.5158838999996,1034.6129201000003,,,,,,,,,,,,,,,,,,,,,,,,,,,,,8,C,2023-12-07_14h52.31.762,gca_avoidance_task,2022.2.4,143.94350505194188,
positions.xlsx,stimuli.xlsx,stimuli/Social1.png,stimuli/Social2.png,stimuli/Nonsocial2.png,stimuli/Nonsocial1.png,,"(0.7, -0.5)",cs_plus_ns,,,,,0,0,0,0,,,,,,,,,1,15,31,11,,,,,,,,,,,,,,,,,,,,,,,,,,,,,,,,,,,,,,,,,,,,,,,,,,,,,,,,,,1035.1198540999976,1036.6544799999974,1034.6129201000003,1036.6544799999974,1036.6544799999974,1036.6544799999974,0.006686199998512166,0.013141499999619555,160,none,0,,,1041.6612610999982,1041.6612610999982,0.013854600001650397,0.013854600001650397,0.01992919999975129,0.05459139999948093,0.06160250000175438,0.10325179999927059,0.1101712999989104,1.0129140999997617,1045.1541951,1049.5150995000004,,,,,,,,,,,,,,,,,,,,,,,,,,,,,8,C,2023-12-07_14h52.31.762,gca_avoidance_task,2022.2.4,143.94350505194188,
positions.xlsx,stimuli.xlsx,stimuli/Social1.png,stimuli/Social2.png,stimuli/Nonsocial2.png,stimuli/Nonsocial1.png,,"(0.7, 0.5)",cs_minus_s,,,,,0,0,0,0,,,,,,,,,2,0,32,6,,,,,,,,,,,,,,,,,,,,,,,,,,,,,,,,,,,,,,,,,,,,,,,,,,,,,,,,,,1050.0219990000005,1051.6261059999997,1049.5150995000004,1051.6261059999997,1051.6261059999997,1051.6261059999997,0.006255000000237487,0.013109100000292528,165,reward,1,[0.5002100999990944],[0.5002136999974027],1052.1330755999988,1052.1330755999988,0.007724600000074133,0.007724600000074133,0.018343499999900814,0.05302490000030957,0.059972899998683715,0.10162029999992228,0.10857110000142711,1.0043483000008564,1055.6259806999988,1059.8619104999998,,,,,,,,,,,,,,,,,,,,,,,,,,,,,8,C,2023-12-07_14h52.31.762,gca_avoidance_task,2022.2.4,143.94350505194188,
positions.xlsx,stimuli.xlsx,stimuli/Social1.png,stimuli/Social2.png,stimuli/Nonsocial2.png,stimuli/Nonsocial1.png,,"(0.7, -0.5)",cs_minus_s,,,,,0,0,0,0,,,,,,,,,2,1,33,7,,,,,,,,,,,,,,,,,,,,,,,,,,,,,,,,,,,,,,,,,,,,,,,,,,,,,,,,,,1060.3688032999999,1062.2507101999981,1059.8619104999998,1062.2507101999981,1062.2507101999981,1062.2507101999981,0.006251799997698981,0.013074499998765532,170,reward,1,[0.6182647999994515],[0.6182684999985213],1062.8756565999975,1062.8756565999975,0.0066903999977512285,0.0066903999977512285,0.01854749999984051,0.053239299999404466,0.06021809999947436,0.10183060000053956,0.10879370000111521,1.004587999999785,1066.3686153999988,1070.694852499997,,,,,,,,,,,,,,,,,,,,,,,,,,,,,8,C,2023-12-07_14h52.31.762,gca_avoidance_task,2022.2.4,143.94350505194188,
positions.xlsx,stimuli.xlsx,stimuli/Social1.png,stimuli/Social2.png,stimuli/Nonsocial2.png,stimuli/Nonsocial1.png,,"(0.7, -0.5)",cs_plus_ns,,,,,0,0,0,0,,,,,,,,,2,2,34,11,,,,,,,,,,,,,,,,,,,,,,,,,,,,,,,,,,,,,,,,,,,,,,,,,,,,,,,,,,1071.201741599998,1072.5975112999986,1070.694852499997,1072.5975112999986,1072.5975112999986,1072.5975112999986,0.006374500000674743,0.013391699998464901,170,shock,1,[0.22950249999848893],[0.22950610000043525],1072.8336524000006,1072.8336524000006,0.008195700000214856,0.008195700000214856,0.018636299999343464,0.05326439999771537,0.06020969999735826,0.10188170000037644,0.10881709999739542,1.0045840999991924,1076.3265633999981,1080.020866699997,,,,,,,,,,,,,,,,,,,,,,,,,,,,,8,C,2023-12-07_14h52.31.762,gca_avoidance_task,2022.2.4,143.94350505194188,
positions.xlsx,stimuli.xlsx,stimuli/Social1.png,stimuli/Social2.png,stimuli/Nonsocial2.png,stimuli/Nonsocial1.png,,"(-0.7, -0.5)",cs_minus_ns,,,,,0,0,0,0,,,,,,,,,2,3,35,13,,,,,,,,,,,,,,,,,,,,,,,,,,,,,,,,,,,,,,,,,,,,,,,,,,,,,,,,,,1080.5277951999997,1082.3888514999999,1080.020866699997,1082.3888514999999,1082.3888514999999,1082.3888514999999,0.006978400000662077,0.01321989999996731,175,reward,1,[0.7014630999983638],[0.7014667000003101],1083.0970753000001,1083.0970753000001,0.007832100000086939,0.007832100000086939,0.01850190000186558,0.05321860000185552,0.06026209999981802,0.10179979999884381,0.10876529999950435,1.0045291999995243,1086.5900755000002,1090.6732693999984,,,,,,,,,,,,,,,,,,,,,,,,,,,,,8,C,2023-12-07_14h52.31.762,gca_avoidance_task,2022.2.4,143.94350505194188,
positions.xlsx,stimuli.xlsx,stimuli/Social1.png,stimuli/Social2.png,stimuli/Nonsocial2.png,stimuli/Nonsocial1.png,,"(0.7, 0.5)",cs_plus_s,,,,,0,0,0,0,,,,,,,,,2,4,36,2,,,,,,,,,,,,,,,,,,,,,,,,,,,,,,,,,,,,,,,,,,,,,,,,,,,,,,,,,,1091.1800957999985,1093.0619912000002,1090.6732693999984,1093.0619912000002,1093.0619912000002,1093.0619912000002,0.006402200000593439,0.013137000001734123,175,none,0,,,1098.0687550999974,1098.0687550999974,0.013107800001307623,0.013107800001307623,0.01988350000101491,0.05452440000226488,0.06149890000233427,0.1031327999990026,0.11009700000067824,1.012836599998991,1101.5616421999985,1105.3462579999978,,,,,,,,,,,,,,,,,,,,,,,,,,,,,8,C,2023-12-07_14h52.31.762,gca_avoidance_task,2022.2.4,143.94350505194188,
positions.xlsx,stimuli.xlsx,stimuli/Social1.png,stimuli/Social2.png,stimuli/Nonsocial2.png,stimuli/Nonsocial1.png,,"(-0.7, 0.5)",cs_plus_ns,,,,,0,0,0,0,,,,,,,,,2,5,37,8,,,,,,,,,,,,,,,,,,,,,,,,,,,,,,,,,,,,,,,,,,,,,,,,,,,,,,,,,,1105.8531455999982,1107.2836481999984,1105.3462579999978,1107.2836481999984,1107.2836481999984,1107.2836481999984,0.006915500001923647,0.013429900001938222,175,none,0,,,1112.2903967999991,1112.2903967999991,0.015405599999212427,0.015405599999212427,0.02022910000232514,0.054889200000616256,0.06185610000102315,0.10347209999963525,0.11047690000123112,1.0131465000013122,1115.7833482999995,1119.3665595999992,,,,,,,,,,,,,,,,,,,,,,,,,,,,,8,C,2023-12-07_14h52.31.762,gca_avoidance_task,2022.2.4,143.94350505194188,
positions.xlsx,stimuli.xlsx,stimuli/Social1.png,stimuli/Social2.png,stimuli/Nonsocial2.png,stimuli/Nonsocial1.png,,"(0.7, 0.5)",cs_plus_ns,,,,,0,0,0,0,,,,,,,,,2,6,38,10,,,,,,,,,,,,,,,,,,,,,,,,,,,,,,,,,,,,,,,,,,,,,,,,,,,,,,,,,,1119.8734014999973,1120.9358646,1119.3665595999992,1120.9358646,1120.9358646,1120.9358646,0.007240000002639135,0.013083699999697274,175,shock,1,[0.18755109999983688],[0.1875545000002603],1121.1303718999989,1121.1303718999989,0.00867629999993369,0.00867629999993369,0.018750499999441672,0.05327659999966272,0.0602736000000732,0.10189739999987069,0.10887949999960256,1.0046733999988646,1124.6232506999986,1128.2480977999985,,,,,,,,,,,,,,,,,,,,,,,,,,,,,8,C,2023-12-07_14h52.31.762,gca_avoidance_task,2022.2.4,143.94350505194188,
positions.xlsx,stimuli.xlsx,stimuli/Social1.png,stimuli/Social2.png,stimuli/Nonsocial2.png,stimuli/Nonsocial1.png,,"(-0.7, 0.5)",cs_plus_s,,,,,0,0,0,0,,,,,,,,,2,7,39,0,,,,,,,,,,,,,,,,,,,,,,,,,,,,,,,,,,,,,,,,,,,,,,,,,,,,,,,,,,1128.7550043999981,1130.3799712999971,1128.2480977999985,1130.3799712999971,1130.3799712999971,1130.3799712999971,0.006021199998940574,0.013452799998049159,175,none,0,,,1135.3867025,1135.3867025,0.014348499997140607,0.014348499997140607,0.02016209999783314,0.054875099998753285,0.061819699996704,0.10343649999776972,0.11041579999800888,1.0131591999997909,1138.8796060999994,1142.6503309,,,,,,,,,,,,,,,,,,,,,,,,,,,,,8,C,2023-12-07_14h52.31.762,gca_avoidance_task,2022.2.4,143.94350505194188,
positions.xlsx,stimuli.xlsx,stimuli/Social1.png,stimuli/Social2.png,stimuli/Nonsocial2.png,stimuli/Nonsocial1.png,,"(0.7, -0.5)",cs_minus_ns,,,,,0,0,0,0,,,,,,,,,2,8,40,15,,,,,,,,,,,,,,,,,,,,,,,,,,,,,,,,,,,,,,,,,,,,,,,,,,,,,,,,,,1143.1572280999972,1144.3030039000005,1142.6503309,1144.3030039000005,1144.3030039000005,1144.3030039000005,0.0064452999977220315,0.01326639999751933,180,reward,1,[0.21564799999759998],[0.2156515999995463],1144.5252317999984,1144.5252317999984,0.007342699998844182,0.007342699998844182,0.018403899997792905,0.053046000000904314,0.05997849999766913,0.10166119999848888,0.10858469999948284,1.0043691999999282,1148.0182055000005,1151.5319713999997,,,,,,,,,,,,,,,,,,,,,,,,,,,,,8,C,2023-12-07_14h52.31.762,gca_avoidance_task,2022.2.4,143.94350505194188,
positions.xlsx,stimuli.xlsx,stimuli/Social1.png,stimuli/Social2.png,stimuli/Nonsocial2.png,stimuli/Nonsocial1.png,,"(-0.7, 0.5)",cs_minus_ns,,,,,0,0,0,0,,,,,,,,,2,9,41,12,,,,,,,,,,,,,,,,,,,,,,,,,,,,,,,,,,,,,,,,,,,,,,,,,,,,,,,,,,1152.0388404999976,1153.108212799998,1151.5319713999997,1153.108212799998,1153.108212799998,1153.108212799998,0.006582800000614952,0.013276099998620339,185,reward,1,[0.5073195000004489],[0.5073230999987572],1153.6220942999971,1153.6220942999971,0.007558699999208329,0.007558699999208329,0.017907599998579826,0.05260389999966719,0.05957259999922826,0.10127449999708915,0.10824119999961113,1.0039388999975927,1157.1150520999981,1160.8718812999978,,,,,,,,,,,,,,,,,,,,,,,,,,,,,8,C,2023-12-07_14h52.31.762,gca_avoidance_task,2022.2.4,143.94350505194188,
positions.xlsx,stimuli.xlsx,stimuli/Social1.png,stimuli/Social2.png,stimuli/Nonsocial2.png,stimuli/Nonsocial1.png,,"(-0.7, -0.5)",cs_plus_ns,,,,,0,0,0,0,,,,,,,,,2,10,42,9,,,,,,,,,,,,,,,,,,,,,,,,,,,,,,,,,,,,,,,,,,,,,,,,,,,,,,,,,,1161.3787255999996,1163.2189362999998,1160.8718812999978,1163.2189362999998,1163.2189362999998,1163.2189362999998,0.006654500000877306,0.013078399999358226,185,none,0,,,1168.2257228999988,1168.2257228999988,0.013658200001373189,0.013658200001373189,0.019855099999404047,0.05452040000091074,0.06147860000055516,0.10311600000204635,0.11007700000118348,1.012862600000517,1171.7186293999985,1175.4893608999992,,,,,,,,,,,,,,,,,,,,,,,,,,,,,8,C,2023-12-07_14h52.31.762,gca_avoidance_task,2022.2.4,143.94350505194188,
positions.xlsx,stimuli.xlsx,stimuli/Social1.png,stimuli/Social2.png,stimuli/Nonsocial2.png,stimuli/Nonsocial1.png,,"(-0.7, -0.5)",cs_plus_s,,,,,0,0,0,0,,,,,,,,,2,11,43,1,,,,,,,,,,,,,,,,,,,,,,,,,,,,,,,,,,,,,,,,,,,,,,,,,,,,,,,,,,1175.9962324999979,1177.9683815999997,1175.4893608999992,1177.9683815999997,1177.9683815999997,1177.9683815999997,0.006154599999717902,0.013250600000901613,185,none,0,,,1182.9751701999994,1182.9751701999994,0.015035399999760557,0.015035399999760557,0.020034400000440655,0.054720000000088476,0.06167490000007092,0.10327060000054189,0.11026130000027479,1.012991299998248,1186.4680635999975,1190.1831650999993,,,,,,,,,,,,,,,,,,,,,,,,,,,,,8,C,2023-12-07_14h52.31.762,gca_avoidance_task,2022.2.4,143.94350505194188,
positions.xlsx,stimuli.xlsx,stimuli/Social1.png,stimuli/Social2.png,stimuli/Nonsocial2.png,stimuli/Nonsocial1.png,,"(0.7, 0.5)",cs_minus_ns,,,,,0,0,0,0,,,,,,,,,2,12,44,14,,,,,,,,,,,,,,,,,,,,,,,,,,,,,,,,,,,,,,,,,,,,,,,,,,,,,,,,,,1190.6901302999977,1191.9747551,1190.1831650999993,1191.9747551,1191.9747551,1191.9747551,0.007273100000020349,0.012933599999087164,190,reward,1,[0.6179659000008542],[0.6179693999984011],1192.5997050999977,1192.5997050999977,0.009035699997184565,0.009035699997184565,0.01846529999966151,0.05318819999956759,0.060110599999461556,0.10175729999900796,0.10875929999747314,1.0044902999979968,1196.0927092999991,1200.2939246999995,,,,,,,,,,,,,,,,,,,,,,,,,,,,,8,C,2023-12-07_14h52.31.762,gca_avoidance_task,2022.2.4,143.94350505194188,
positions.xlsx,stimuli.xlsx,stimuli/Social1.png,stimuli/Social2.png,stimuli/Nonsocial2.png,stimuli/Nonsocial1.png,,"(-0.7, 0.5)",cs_minus_s,,,,,0,0,0,0,,,,,,,,,2,13,45,4,,,,,,,,,,,,,,,,,,,,,,,,,,,,,,,,,,,,,,,,,,,,,,,,,,,,,,,,,,1200.8007615999995,1202.2660149000003,1200.2939246999995,1202.2660149000003,1202.2660149000003,1202.2660149000003,0.006511800002044765,0.013415200002782512,195,reward,1,[0.18084790000284556],[0.180851299999631],1202.453544,1202.453544,0.007215699999505887,0.007215699999505887,0.01866610000070068,0.05335159999958705,0.06033000000024913,0.1019207000026654,0.10887880000154837,1.0046829000020807,1205.9464899999984,1209.939390399999,,,,,,,,,,,,,,,,,,,,,,,,,,,,,8,C,2023-12-07_14h52.31.762,gca_avoidance_task,2022.2.4,143.94350505194188,
positions.xlsx,stimuli.xlsx,stimuli/Social1.png,stimuli/Social2.png,stimuli/Nonsocial2.png,stimuli/Nonsocial1.png,,"(0.7, -0.5)",cs_plus_s,,,,,0,0,0,0,,,,,,,,,2,14,46,3,,,,,,,,,,,,,,,,,,,,,,,,,,,,,,,,,,,,,,,,,,,,,,,,,,,,,,,,,,1210.4462800999972,1211.4809251999977,1209.939390399999,1211.4809251999977,1211.4809251999977,1211.4809251999977,0.005997600001137471,0.013114100001985207,195,none,0,,,1216.487698599998,1216.487698599998,0.0141490000023623,0.0141490000023623,0.019894100001693005,0.05466240000168909,0.061550000002171146,0.10319340000205557,0.11011599999983446,1.012890800000605,1219.9806391999991,1223.515229499997,,,,,,,,,,,,,,,,,,,,,,,,,,,,,8,C,2023-12-07_14h52.31.762,gca_avoidance_task,2022.2.4,143.94350505194188,
positions.xlsx,stimuli.xlsx,stimuli/Social1.png,stimuli/Social2.png,stimuli/Nonsocial2.png,stimuli/Nonsocial1.png,,"(-0.7, -0.5)",cs_minus_s,,,,,0,0,0,0,,,,,,,,,2,15,47,5,,,,,,,,,,,,,,,,,,,,,,,,,,,,,,,,,,,,,,,,,,,,,,,,,,,,,,,,,,1224.022087999998,1225.5289860999983,1223.515229499997,1225.5289860999983,1225.5289860999983,1225.5289860999983,0.005572300000494579,0.013489299999491777,200,reward,1,[0.5629881999993813],[0.5629918999984511],1226.0984069000006,1226.0984069000006,0.00750530000004801,0.00750530000004801,0.01833039999837638,0.05302730000039446,0.05994070000087959,0.10164979999899515,0.10858970000117552,1.0043451000019559,1229.5913705999992,1234.0078133999996,,,,,,,,,,,,,,,,,,,,,,,,,,,,,8,C,2023-12-07_14h52.31.762,gca_avoidance_task,2022.2.4,143.94350505194188,
positions.xlsx,stimuli.xlsx,stimuli/Social1.png,stimuli/Social2.png,stimuli/Nonsocial2.png,stimuli/Nonsocial1.png,,"(0.7, 0.5)",cs_plus_ns,,,,,0,0,0,0,,,,,,,,,3,0,48,10,,,,,,,,,,,,,,,,,,,,,,,,,,,,,,,,,,,,,,,,,,,,,,,,,,,,,,,,,,1234.5147569,1235.667508999999,1234.0078133999996,1235.667508999999,1235.667508999999,1235.667508999999,0.006854899998870678,0.01332399999955669,200,none,0,,,1240.6742209999975,1240.6742209999975,0.014343700000608806,0.014343700000608806,0.020083100000192644,0.054696100000001024,0.06171859999813023,0.10335399999894435,0.11033479999969131,1.013040899997577,1244.167188299998,1247.8822846000003,,,,,,,,,,,,,,,,,,,,,,,,,,,,,8,C,2023-12-07_14h52.31.762,gca_avoidance_task,2022.2.4,143.94350505194188,
positions.xlsx,stimuli.xlsx,stimuli/Social1.png,stimuli/Social2.png,stimuli/Nonsocial2.png,stimuli/Nonsocial1.png,,"(0.7, -0.5)",cs_minus_s,,,,,0,0,0,0,,,,,,,,,3,1,49,7,,,,,,,,,,,,,,,,,,,,,,,,,,,,,,,,,,,,,,,,,,,,,,,,,,,,,,,,,,1248.3891898000002,1250.2849824999976,1247.8822846000003,1250.2849824999976,1250.2849824999976,1250.2849824999976,0.006285100000241073,0.013463999999657972,205,reward,1,[0.5143862000004447],[0.5143900000002759],1250.8057899999985,1250.8057899999985,0.007527199999458389,0.007527199999458389,0.018357799999648705,0.052976099999796133,0.05993089999901713,0.10157029999754741,0.10852099999829079,1.0042861000001722,1254.2987090999995,1258.0347008999997,,,,,,,,,,,,,,,,,,,,,,,,,,,,,8,C,2023-12-07_14h52.31.762,gca_avoidance_task,2022.2.4,143.94350505194188,
positions.xlsx,stimuli.xlsx,stimuli/Social1.png,stimuli/Social2.png,stimuli/Nonsocial2.png,stimuli/Nonsocial1.png,,"(0.7, 0.5)",cs_plus_s,,,,,0,0,0,0,,,,,,,,,3,2,50,2,,,,,,,,,,,,,,,,,,,,,,,,,,,,,,,,,,,,,,,,,,,,,,,,,,,,,,,,,,1258.541564199997,1259.5970858,1258.0347008999997,1259.5970858,1259.5970858,1259.5970858,0.006347099999402417,0.013381199998548254,205,none,0,,,1264.6038496999972,1264.6038496999972,0.014449499998590909,0.014449499998590909,0.02015709999977844,0.05484189999697264,0.061842399998568,0.10339509999903385,0.11037349999969592,1.0131975999975111,1268.0967560999998,1272.0480327000005,,,,,,,,,,,,,,,,,,,,,,,,,,,,,8,C,2023-12-07_14h52.31.762,gca_avoidance_task,2022.2.4,143.94350505194188,
positions.xlsx,stimuli.xlsx,stimuli/Social1.png,stimuli/Social2.png,stimuli/Nonsocial2.png,stimuli/Nonsocial1.png,,"(-0.7, 0.5)",cs_minus_s,,,,,0,0,0,0,,,,,,,,,3,3,51,4,,,,,,,,,,,,,,,,,,,,,,,,,,,,,,,,,,,,,,,,,,,,,,,,,,,,,,,,,,1272.5549304999986,1273.777134699998,1272.0480327000005,1273.777134699998,1273.777134699998,1273.777134699998,0.007614400001330068,0.013145900000381516,210,reward,1,[0.45151240000268444],[0.4515157999994699],1274.2354000999985,1274.2354000999985,0.0082336999985273,0.0082336999985273,0.018464099997800076,0.05313100000057602,0.060088899997936096,0.10174980000010692,0.10871229999975185,1.0044826999983343,1277.7283838000003,1282.2073631999992,,,,,,,,,,,,,,,,,,,,,,,,,,,,,8,C,2023-12-07_14h52.31.762,gca_avoidance_task,2022.2.4,143.94350505194188,
positions.xlsx,stimuli.xlsx,stimuli/Social1.png,stimuli/Social2.png,stimuli/Nonsocial2.png,stimuli/Nonsocial1.png,,"(-0.7, 0.5)",cs_minus_ns,,,,,0,0,0,0,,,,,,,,,3,4,52,12,,,,,,,,,,,,,,,,,,,,,,,,,,,,,,,,,,,,,,,,,,,,,,,,,,,,,,,,,,1282.7142735999987,1284.2141932999984,1282.2073631999992,1284.2141932999984,1284.2141932999984,1284.2141932999984,0.007636400001501897,0.013105699999869103,215,reward,1,[0.7084630000026664],[0.7084668000024976],1284.9294306999982,1284.9294306999982,0.00763800000277115,0.00763800000277115,0.018181400002504233,0.052891000003000954,0.05985270000019227,0.10149200000159908,0.10843870000098832,1.0042293000005884,1288.4224302000002,1292.7277417000005,,,,,,,,,,,,,,,,,,,,,,,,,,,,,8,C,2023-12-07_14h52.31.762,gca_avoidance_task,2022.2.4,143.94350505194188,
positions.xlsx,stimuli.xlsx,stimuli/Social1.png,stimuli/Social2.png,stimuli/Nonsocial2.png,stimuli/Nonsocial1.png,,"(-0.7, -0.5)",cs_minus_s,,,,,0,0,0,0,,,,,,,,,3,5,53,5,,,,,,,,,,,,,,,,,,,,,,,,,,,,,,,,,,,,,,,,,,,,,,,,,,,,,,,,,,1293.234670599999,1294.748493799998,1292.7277417000005,1294.748493799998,1294.748493799998,1294.748493799998,0.007430400000885129,0.013248799998109462,220,reward,1,[0.4030918999997084],[0.4030955999987782],1295.1582353999984,1295.1582353999984,0.007566000000224449,0.007566000000224449,0.018561100001534214,0.05317769999965094,0.06016960000124527,0.10179349999816623,0.10874820000026375,1.0045833000003768,1298.6511704000004,1302.2968445000006,,,,,,,,,,,,,,,,,,,,,,,,,,,,,8,C,2023-12-07_14h52.31.762,gca_avoidance_task,2022.2.4,143.94350505194188,
positions.xlsx,stimuli.xlsx,stimuli/Social1.png,stimuli/Social2.png,stimuli/Nonsocial2.png,stimuli/Nonsocial1.png,,"(-0.7, 0.5)",cs_plus_ns,,,,,0,0,0,0,,,,,,,,,3,6,54,8,,,,,,,,,,,,,,,,,,,,,,,,,,,,,,,,,,,,,,,,,,,,,,,,,,,,,,,,,,1302.803728699997,1303.824524399999,1302.2968445000006,1303.824524399999,1303.824524399999,1303.824524399999,0.007466700000804849,0.013208500000473578,220,none,0,,,1308.8312802999972,1308.8312802999972,0.014389700001629535,0.014389700001629535,0.020038700000441168,0.05463810000219382,0.0616321000015887,0.10327279999910388,0.11026530000162893,1.012924099999509,1312.3242514999984,1316.7685093,,,,,,,,,,,,,,,,,,,,,,,,,,,,,8,C,2023-12-07_14h52.31.762,gca_avoidance_task,2022.2.4,143.94350505194188,
positions.xlsx,stimuli.xlsx,stimuli/Social1.png,stimuli/Social2.png,stimuli/Nonsocial2.png,stimuli/Nonsocial1.png,,"(0.7, -0.5)",cs_plus_ns,,,,,0,0,0,0,,,,,,,,,3,7,55,11,,,,,,,,,,,,,,,,,,,,,,,,,,,,,,,,,,,,,,,,,,,,,,,,,,,,,,,,,,1317.2753746999988,1318.976726099998,1316.7685093,1318.976726099998,1318.976726099998,1318.976726099998,0.006535900000017136,0.012977200000023004,220,none,0,,,1323.983450599997,1323.983450599997,0.014385899998160312,0.014385899998160312,0.019782799998210976,0.054381399997510016,0.06135039999935543,0.10299189999932423,0.10996529999829363,1.0127037999991444,1327.4764247999992,1331.3651481999987,,,,,,,,,,,,,,,,,,,,,,,,,,,,,8,C,2023-12-07_14h52.31.762,gca_avoidance_task,2022.2.4,143.94350505194188,
positions.xlsx,stimuli.xlsx,stimuli/Social1.png,stimuli/Social2.png,stimuli/Nonsocial2.png,stimuli/Nonsocial1.png,,"(-0.7, 0.5)",cs_plus_s,,,,,0,0,0,0,,,,,,,,,3,8,56,0,,,,,,,,,,,,,,,,,,,,,,,,,,,,,,,,,,,,,,,,,,,,,,,,,,,,,,,,,,1331.8720116000004,1333.2608987999993,1331.3651481999987,1333.2608987999993,1333.2608987999993,1333.2608987999993,0.006491899999673478,0.012868099998740945,220,none,0,,,1338.2675989999989,1338.2675989999989,0.013891099999455037,0.013891099999455037,0.019577499999286374,0.05433239999911166,0.06122020000111661,0.10286619999897084,0.10983190000115428,1.0125636000011582,1341.760565499997,1345.5868267999977,,,,,,,,,,,,,,,,,,,,,,,,,,,,,8,C,2023-12-07_14h52.31.762,gca_avoidance_task,2022.2.4,143.94350505194188,
positions.xlsx,stimuli.xlsx,stimuli/Social1.png,stimuli/Social2.png,stimuli/Nonsocial2.png,stimuli/Nonsocial1.png,,"(0.7, -0.5)",cs_minus_ns,,,,,0,0,0,0,,,,,,,,,3,9,57,15,,,,,,,,,,,,,,,,,,,,,,,,,,,,,,,,,,,,,,,,,,,,,,,,,,,,,,,,,,1346.0936765999977,1347.1908636999979,1345.5868267999977,1347.1908636999979,1347.1908636999979,1347.1908636999979,0.007506200003263075,0.01312310000139405,225,reward,1,[0.7362948000009055],[0.7362984999999753],1347.933898299998,1347.933898299998,0.009003300001495518,0.009003300001495518,0.018566200000350364,0.053202899998723296,0.06020910000006552,0.10178570000061882,0.10884319999968284,1.0046207000013965,1351.4268911,1355.4197253999992,,,,,,,,,,,,,,,,,,,,,,,,,,,,,8,C,2023-12-07_14h52.31.762,gca_avoidance_task,2022.2.4,143.94350505194188,
positions.xlsx,stimuli.xlsx,stimuli/Social1.png,stimuli/Social2.png,stimuli/Nonsocial2.png,stimuli/Nonsocial1.png,,"(0.7, 0.5)",cs_minus_ns,,,,,0,0,0,0,,,,,,,,,3,10,58,14,,,,,,,,,,,,,,,,,,,,,,,,,,,,,,,,,,,,,,,,,,,,,,,,,,,,,,,,,,1355.9266497999997,1357.3641021999974,1355.4197253999992,1357.3641021999974,1357.3641021999974,1357.3641021999974,0.00673109999843291,0.013290799997776048,230,reward,1,[0.3682599999992817],[0.3682635000004666],1357.7390747999998,1357.7390747999998,0.007869200002460275,0.007869200002460275,0.018309800001588883,0.05298700000275858,0.05992859999969369,0.10163330000068527,0.10853960000167717,1.004313400000683,1361.2320502999974,1365.3013118999988,,,,,,,,,,,,,,,,,,,,,,,,,,,,,8,C,2023-12-07_14h52.31.762,gca_avoidance_task,2022.2.4,143.94350505194188,
positions.xlsx,stimuli.xlsx,stimuli/Social1.png,stimuli/Social2.png,stimuli/Nonsocial2.png,stimuli/Nonsocial1.png,,"(0.7, 0.5)",cs_minus_s,,,,,0,0,0,0,,,,,,,,,3,11,59,6,,,,,,,,,,,,,,,,,,,,,,,,,,,,,,,,,,,,,,,,,,,,,,,,,,,,,,,,,,1365.8082154000003,1367.7733945999971,1365.3013118999988,1367.7733945999971,1367.7733945999971,1367.7733945999971,0.006312800000159768,0.013301200000569224,235,reward,1,[0.6878254000002926],[0.6878290999993624],1368.4678129999993,1368.4678129999993,0.007379000002401881,0.007379000002401881,0.018575600002805004,0.05322660000092583,0.06021330000294256,0.1019274000027508,0.10886160000154632,1.0046202000012272,1371.9607378999972,1376.4328199999982,,,,,,,,,,,,,,,,,,,,,,,,,,,,,8,C,2023-12-07_14h52.31.762,gca_avoidance_task,2022.2.4,143.94350505194188,
positions.xlsx,stimuli.xlsx,stimuli/Social1.png,stimuli/Social2.png,stimuli/Nonsocial2.png,stimuli/Nonsocial1.png,,"(-0.7, -0.5)",cs_plus_s,,,,,0,0,0,0,,,,,,,,,3,12,60,1,,,,,,,,,,,,,,,,,,,,,,,,,,,,,,,,,,,,,,,,,,,,,,,,,,,,,,,,,,1376.9396947999994,1378.2174739999973,1376.4328199999982,1378.2174739999973,1378.2174739999973,1378.2174739999973,0.006158300002425676,0.013163200001145015,235,none,0,,,1383.2241799000003,1383.2241799000003,0.013135900000634138,0.013135900000634138,0.019947100001445506,0.05458329999964917,0.061522200001491,0.10317729999951553,0.11012040000059642,1.0128590000022086,1386.717174999998,1391.0850248999996,,,,,,,,,,,,,,,,,,,,,,,,,,,,,8,C,2023-12-07_14h52.31.762,gca_avoidance_task,2022.2.4,143.94350505194188,
positions.xlsx,stimuli.xlsx,stimuli/Social1.png,stimuli/Social2.png,stimuli/Nonsocial2.png,stimuli/Nonsocial1.png,,"(-0.7, -0.5)",cs_plus_ns,,,,,0,0,0,0,,,,,,,,,3,13,61,9,,,,,,,,,,,,,,,,,,,,,,,,,,,,,,,,,,,,,,,,,,,,,,,,,,,,,,,,,,1391.5919804999976,1392.925152599997,1391.0850248999996,1392.925152599997,1392.925152599997,1392.925152599997,0.007668700000067474,0.012969200000952696,235,none,0,,,1397.931952699997,1397.931952699997,0.014752800001588184,0.014752800001588184,0.019754200002353173,0.0544134000010672,0.06140860000232351,0.10303870000279858,0.11000220000278205,1.012712300002022,1401.4248579999985,1405.6886145999997,,,,,,,,,,,,,,,,,,,,,,,,,,,,,8,C,2023-12-07_14h52.31.762,gca_avoidance_task,2022.2.4,143.94350505194188,
positions.xlsx,stimuli.xlsx,stimuli/Social1.png,stimuli/Social2.png,stimuli/Nonsocial2.png,stimuli/Nonsocial1.png,,"(-0.7, -0.5)",cs_minus_ns,,,,,0,0,0,0,,,,,,,,,3,14,62,13,,,,,,,,,,,,,,,,,,,,,,,,,,,,,,,,,,,,,,,,,,,,,,,,,,,,,,,,,,1406.1955122,1407.6259906999985,1405.6886145999997,1407.6259906999985,1407.6259906999985,1407.6259906999985,0.007248100002470892,0.013383100002101855,240,reward,1,[0.40300760000172886],[0.40301130000079866],1408.0357398999986,1408.0357398999986,0.007917999999335734,0.007917999999335734,0.019044100001337938,0.05367449999903329,0.06065469999884954,0.10229350000008708,0.1092648999983794,1.005071899999166,1411.5286545999988,1415.6604690999993,,,,,,,,,,,,,,,,,,,,,,,,,,,,,8,C,2023-12-07_14h52.31.762,gca_avoidance_task,2022.2.4,143.94350505194188,
positions.xlsx,stimuli.xlsx,stimuli/Social1.png,stimuli/Social2.png,stimuli/Nonsocial2.png,stimuli/Nonsocial1.png,,"(0.7, -0.5)",cs_plus_s,,,,,0,0,0,0,,,,,,,,,3,15,63,3,,,,,,,,,,,,,,,,,,,,,,,,,,,,,,,,,,,,,,,,,,,,,,,,,,,,,,,,,,1416.167324099999,1418.0561450999994,1415.6604690999993,1418.0561450999994,1418.0561450999994,1418.0561450999994,0.006114899999374757,0.013420299997960683,240,none,0,,,1423.062922099998,1423.062922099998,0.01393629999802215,0.01393629999802215,0.02023389999885694,0.05483769999773358,0.06179329999940819,0.1034306999972614,0.1103923999980907,1.0131632999982685,1426.5558216999998,1430.694577899998,,,,,,,,,,,,,,,,,,,,,,,,,,,,,8,C,2023-12-07_14h52.31.762,gca_avoidance_task,2022.2.4,143.94350505194188,
positions.xlsx,stimuli.xlsx,stimuli/Social1.png,stimuli/Social2.png,stimuli/Nonsocial2.png,stimuli/Nonsocial1.png,,"(-0.7, 0.5)",cs_minus_s,,,,,0,0,0,0,,,,,,,,,4,0,64,4,,,,,,,,,,,,,,,,,,,,,,,,,,,,,,,,,,,,,,,,,,,,,,,,,,,,,,,,,,1431.2014519999975,1432.3819844999998,1430.694577899998,1432.3819844999998,1432.3819844999998,1432.3819844999998,0.006290099998295773,0.012863799998740433,245,reward,1,[0.5553531999976258],[0.5553568999966956],1432.9444401999972,1432.9444401999972,0.007588500000565546,0.007588500000565546,0.018161699998017866,0.052873799999360926,0.059788700000353856,0.10144899999795598,0.1084073999991233,1.0042259999972885,1436.4373693999987,1440.0692457000005,,,,,,,,,,,,,,,,,,,,,,,,,,,,,8,C,2023-12-07_14h52.31.762,gca_avoidance_task,2022.2.4,143.94350505194188,
positions.xlsx,stimuli.xlsx,stimuli/Social1.png,stimuli/Social2.png,stimuli/Nonsocial2.png,stimuli/Nonsocial1.png,,"(-0.7, 0.5)",cs_minus_ns,,,,,0,0,0,0,,,,,,,,,4,1,65,12,,,,,,,,,,,,,,,,,,,,,,,,,,,,,,,,,,,,,,,,,,,,,,,,,,,,,,,,,,1440.576112499999,1441.7357649999976,1440.0692457000005,1441.7357649999976,1441.7357649999976,1441.7357649999976,0.0068278999970061705,0.012958399998751702,250,reward,1,[0.45136060000004363],[0.4513643999998749],1442.194126399998,1442.194126399998,0.007910899999842513,0.007910899999842513,0.018382500002189772,0.05303900000217254,0.060011500001564855,0.10165340000094147,0.10861750000185566,1.0044460000026447,1445.6870135999998,1449.7355274999973,,,,,,,,,,,,,,,,,,,,,,,,,,,,,8,C,2023-12-07_14h52.31.762,gca_avoidance_task,2022.2.4,143.94350505194188,
positions.xlsx,stimuli.xlsx,stimuli/Social1.png,stimuli/Social2.png,stimuli/Nonsocial2.png,stimuli/Nonsocial1.png,,"(0.7, -0.5)",cs_plus_s,,,,,0,0,0,0,,,,,,,,,4,2,66,3,,,,,,,,,,,,,,,,,,,,,,,,,,,,,,,,,,,,,,,,,,,,,,,,,,,,,,,,,,1450.2423691999975,1451.9437018999997,1449.7355274999973,1451.9437018999997,1451.9437018999997,1451.9437018999997,0.0060501999978441745,0.013032299997576047,250,none,0,,,1456.9504433999973,1456.9504433999973,0.013471499998559011,0.013471499998559011,0.019809699999314034,0.05445060000056401,0.06140719999893918,0.10306949999721837,0.11003969999728724,1.012773999998899,1460.4433948000005,1463.9571937999972,,,,,,,,,,,,,,,,,,,,,,,,,,,,,8,C,2023-12-07_14h52.31.762,gca_avoidance_task,2022.2.4,143.94350505194188,
positions.xlsx,stimuli.xlsx,stimuli/Social1.png,stimuli/Social2.png,stimuli/Nonsocial2.png,stimuli/Nonsocial1.png,,"(0.7, -0.5)",cs_minus_s,,,,,0,0,0,0,,,,,,,,,4,3,67,7,,,,,,,,,,,,,,,,,,,,,,,,,,,,,,,,,,,,,,,,,,,,,,,,,,,,,,,,,,1464.4640411,1466.3111898999996,1463.9571937999972,1466.3111898999996,1466.3111898999996,1466.3111898999996,0.006448700001783436,0.013076800001726951,255,reward,1,[0.5140589000002365],[0.5140626000029442],1466.8320423999976,1466.8320423999976,0.00797930000044289,0.00797930000044289,0.01809069999944768,0.052731299998413306,0.05970529999831342,0.10145120000015595,0.1083851000003051,1.004104699997697,1470.3249324999997,1474.637319999998,,,,,,,,,,,,,,,,,,,,,,,,,,,,,8,C,2023-12-07_14h52.31.762,gca_avoidance_task,2022.2.4,143.94350505194188,
positions.xlsx,stimuli.xlsx,stimuli/Social1.png,stimuli/Social2.png,stimuli/Nonsocial2.png,stimuli/Nonsocial1.png,,"(-0.7, 0.5)",cs_plus_ns,,,,,0,0,0,0,,,,,,,,,4,4,68,8,,,,,,,,,,,,,,,,,,,,,,,,,,,,,,,,,,,,,,,,,,,,,,,,,,,,,,,,,,1475.1441644999977,1476.8593935999997,1474.637319999998,1476.8593935999997,1476.8593935999997,1476.8593935999997,0.006445099999837112,0.012907000000268454,255,none,0,,,1481.8661577999992,1481.8661577999992,0.013641400000778958,0.013641400000778958,0.019654499999887776,0.05431970000063302,0.06126150000272901,0.10292450000270037,0.1099398000005749,1.0126502000020992,1485.359072799998,1488.9006482000004,,,,,,,,,,,,,,,,,,,,,,,,,,,,,8,C,2023-12-07_14h52.31.762,gca_avoidance_task,2022.2.4,143.94350505194188,
positions.xlsx,stimuli.xlsx,stimuli/Social1.png,stimuli/Social2.png,stimuli/Nonsocial2.png,stimuli/Nonsocial1.png,,"(0.7, 0.5)",cs_plus_ns,,,,,0,0,0,0,,,,,,,,,4,5,69,10,,,,,,,,,,,,,,,,,,,,,,,,,,,,,,,,,,,,,,,,,,,,,,,,,,,,,,,,,,1489.4075147999974,1490.9838356999971,1488.9006482000004,1490.9838356999971,1490.9838356999971,1490.9838356999971,0.007329399999434827,0.01319119999971008,255,none,0,,,1495.9905851999974,1495.9905851999974,0.015001299998402828,0.015001299998402828,0.0200312999986636,0.05465369999728864,0.06157619999794406,0.10321560000011232,0.1102857000005315,1.0129051000003528,1499.4835308999973,1503.3167426,,,,,,,,,,,,,,,,,,,,,,,,,,,,,8,C,2023-12-07_14h52.31.762,gca_avoidance_task,2022.2.4,143.94350505194188,
positions.xlsx,stimuli.xlsx,stimuli/Social1.png,stimuli/Social2.png,stimuli/Nonsocial2.png,stimuli/Nonsocial1.png,,"(0.7, 0.5)",cs_plus_s,,,,,0,0,0,0,,,,,,,,,4,6,70,2,,,,,,,,,,,,,,,,,,,,,,,,,,,,,,,,,,,,,,,,,,,,,,,,,,,,,,,,,,1503.8235911999982,1505.4624239999976,1503.3167426,1505.4624239999976,1505.4624239999976,1505.4624239999976,0.0063971000017772894,0.01300450000053388,255,none,0,,,1510.4691768999983,1510.4691768999983,0.014148300000670133,0.014148300000670133,0.01976719999947818,0.05448009999963688,0.06146160000207601,0.10306950000085635,0.11003030000210856,1.0127850000026228,1513.9621574999983,1517.7953557999972,,,,,,,,,,,,,,,,,,,,,,,,,,,,,8,C,2023-12-07_14h52.31.762,gca_avoidance_task,2022.2.4,143.94350505194188,
positions.xlsx,stimuli.xlsx,stimuli/Social1.png,stimuli/Social2.png,stimuli/Nonsocial2.png,stimuli/Nonsocial1.png,,"(-0.7, -0.5)",cs_minus_ns,,,,,0,0,0,0,,,,,,,,,4,7,71,13,,,,,,,,,,,,,,,,,,,,,,,,,,,,,,,,,,,,,,,,,,,,,,,,,,,,,,,,,,1518.3022375999972,1520.2951758999989,1517.7953557999972,1520.2951758999989,1520.2951758999989,1520.2951758999989,0.007100999999238411,0.013103699999192031,260,reward,1,[0.645984300001146],[0.6459880000002158],1520.9479704999976,1520.9479704999976,0.009041099998285063,0.009041099998285063,0.01819650000106776,0.052830600001470884,0.05974630000127945,0.10145750000083353,0.10839459999988321,1.0041627999999037,1524.4408535000002,1528.1699365999993,,,,,,,,,,,,,,,,,,,,,,,,,,,,,8,C,2023-12-07_14h52.31.762,gca_avoidance_task,2022.2.4,143.94350505194188,
positions.xlsx,stimuli.xlsx,stimuli/Social1.png,stimuli/Social2.png,stimuli/Nonsocial2.png,stimuli/Nonsocial1.png,,"(-0.7, -0.5)",cs_plus_ns,,,,,0,0,0,0,,,,,,,,,4,8,72,9,,,,,,,,,,,,,,,,,,,,,,,,,,,,,,,,,,,,,,,,,,,,,,,,,,,,,,,,,,1528.6768520999976,1530.3434583999988,1528.1699365999993,1530.3434583999988,1530.3434583999988,1530.3434583999988,0.006388199999491917,0.013445200002024649,260,none,0,,,1535.3501441999979,1535.3501441999979,0.013965800000732997,0.013965800000732997,0.020167300001048716,0.054862700002558995,0.061792200001946185,0.10343180000199936,0.11040200000206823,1.01314690000072,1538.8431091999992,1542.9401440999973,,,,,,,,,,,,,,,,,,,,,,,,,,,,,8,C,2023-12-07_14h52.31.762,gca_avoidance_task,2022.2.4,143.94350505194188,
positions.xlsx,stimuli.xlsx,stimuli/Social1.png,stimuli/Social2.png,stimuli/Nonsocial2.png,stimuli/Nonsocial1.png,,"(-0.7, -0.5)",cs_minus_s,,,,,0,0,0,0,,,,,,,,,4,9,73,5,,,,,,,,,,,,,,,,,,,,,,,,,,,,,,,,,,,,,,,,,,,,,,,,,,,,,,,,,,1543.447041899999,1544.912296999999,1542.9401440999973,1544.912296999999,1544.912296999999,1544.912296999999,0.006471599997894373,0.013036999996984378,265,reward,1,[0.4374723000000813],[0.4374759999991511],1545.356694799997,1545.356694799997,0.008501100001012674,0.008501100001012674,0.01880919999894104,0.05350859999816748,0.06047449999823584,0.10211079999862704,0.10902989999885904,1.0047683999982837,1548.8496769999983,1552.8495086000003,,,,,,,,,,,,,,,,,,,,,,,,,,,,,8,C,2023-12-07_14h52.31.762,gca_avoidance_task,2022.2.4,143.94350505194188,
positions.xlsx,stimuli.xlsx,stimuli/Social1.png,stimuli/Social2.png,stimuli/Nonsocial2.png,stimuli/Nonsocial1.png,,"(-0.7, 0.5)",cs_plus_s,,,,,0,0,0,0,,,,,,,,,4,10,74,0,,,,,,,,,,,,,,,,,,,,,,,,,,,,,,,,,,,,,,,,,,,,,,,,,,,,,,,,,,1553.356373999999,1554.9952240999992,1552.8495086000003,1554.9952240999992,1554.9952240999992,1554.9952240999992,0.005802200001198798,0.013458500001434004,265,none,0,,,1560.0019943999978,1560.0019943999978,0.01355899999907706,0.01355899999907706,0.02032110000072862,0.05493249999926775,0.061837900000682566,0.10350390000166954,0.11046129999886034,1.0131787999998778,1563.494938599997,1567.5711544000005,,,,,,,,,,,,,,,,,,,,,,,,,,,,,8,C,2023-12-07_14h52.31.762,gca_avoidance_task,2022.2.4,143.94350505194188,
positions.xlsx,stimuli.xlsx,stimuli/Social1.png,stimuli/Social2.png,stimuli/Nonsocial2.png,stimuli/Nonsocial1.png,,"(0.7, 0.5)",cs_minus_ns,,,,,0,0,0,0,,,,,,,,,4,11,75,14,,,,,,,,,,,,,,,,,,,,,,,,,,,,,,,,,,,,,,,,,,,,,,,,,,,,,,,,,,1568.0780358999982,1569.2446447999973,1567.5711544000005,1569.2446447999973,1569.2446447999973,1569.2446447999973,0.006669099999271566,0.013172200000553858,270,reward,1,[0.5764359999993758],[0.5764398999999685],1569.8279812,1569.8279812,0.008235299999796553,0.008235299999796553,0.018698700001550606,0.05331389999992098,0.060251399998378474,0.10192950000055134,0.10890830000062124,1.0046752000016568,1573.3209494999974,1577.7651960999974,,,,,,,,,,,,,,,,,,,,,,,,,,,,,8,C,2023-12-07_14h52.31.762,gca_avoidance_task,2022.2.4,143.94350505194188,
positions.xlsx,stimuli.xlsx,stimuli/Social1.png,stimuli/Social2.png,stimuli/Nonsocial2.png,stimuli/Nonsocial1.png,,"(0.7, -0.5)",cs_plus_ns,,,,,0,0,0,0,,,,,,,,,4,12,76,11,,,,,,,,,,,,,,,,,,,,,,,,,,,,,,,,,,,,,,,,,,,,,,,,,,,,,,,,,,1578.2720684999986,1580.1470169999993,1577.7651960999974,1580.1470169999993,1580.1470169999993,1580.1470169999993,0.0066654999973252416,0.012911699999676785,270,none,0,,,1585.1537427000003,1585.1537427000003,0.013470899997628294,0.013470899997628294,0.01967279999735183,0.05434589999640593,0.06125719999909052,0.10292029999982333,0.1099313999984588,1.0126574999994773,1588.6467105999982,1592.1812925999984,,,,,,,,,,,,,,,,,,,,,,,,,,,,,8,C,2023-12-07_14h52.31.762,gca_avoidance_task,2022.2.4,143.94350505194188,
positions.xlsx,stimuli.xlsx,stimuli/Social1.png,stimuli/Social2.png,stimuli/Nonsocial2.png,stimuli/Nonsocial1.png,,"(-0.7, -0.5)",cs_plus_s,,,,,0,0,0,0,,,,,,,,,4,13,77,1,,,,,,,,,,,,,,,,,,,,,,,,,,,,,,,,,,,,,,,,,,,,,,,,,,,,,,,,,,1592.6882117999994,1593.7853579000002,1592.1812925999984,1593.7853579000002,1593.7853579000002,1593.7853579000002,0.006552399998327019,0.013141699997504475,270,none,0,,,1598.7921265000004,1598.7921265000004,0.015252199998940341,0.015252199998940341,0.019879600000422215,0.054529099998035235,0.061480599997594254,0.10312789999807137,0.11012339999797405,1.0128626999976404,1602.2850594999982,1605.8404391999975,,,,,,,,,,,,,,,,,,,,,,,,,,,,,8,C,2023-12-07_14h52.31.762,gca_avoidance_task,2022.2.4,143.94350505194188,
positions.xlsx,stimuli.xlsx,stimuli/Social1.png,stimuli/Social2.png,stimuli/Nonsocial2.png,stimuli/Nonsocial1.png,,"(0.7, -0.5)",cs_minus_ns,,,,,0,0,0,0,,,,,,,,,4,14,78,15,,,,,,,,,,,,,,,,,,,,,,,,,,,,,,,,,,,,,,,,,,,,,,,,,,,,,,,,,,1606.3473844999971,1607.8681703000002,1605.8404391999975,1607.8681703000002,1607.8681703000002,1607.8681703000002,0.007434400002239272,0.013156799999705981,275,reward,1,[0.23623850000149105],[0.2362423000013223],1608.1111944000004,1608.1111944000004,0.008509600000252249,0.008509600000252249,0.017788900000596186,0.05243089999930817,0.05943720000141184,0.1010749000015494,0.10800740000195219,1.0038378999997803,1611.6041293999988,1615.7428914999982,,,,,,,,,,,,,,,,,,,,,,,,,,,,,8,C,2023-12-07_14h52.31.762,gca_avoidance_task,2022.2.4,143.94350505194188,
positions.xlsx,stimuli.xlsx,stimuli/Social1.png,stimuli/Social2.png,stimuli/Nonsocial2.png,stimuli/Nonsocial1.png,,"(0.7, 0.5)",cs_minus_s,,,,,0,0,0,0,,,,,,,,,4,15,79,6,,,,,,,,,,,,,,,,,,,,,,,,,,,,,,,,,,,,,,,,,,,,,,,,,,,,,,,,,,1616.2497375999992,1617.2844650999978,1615.7428914999982,1617.2844650999978,1617.2844650999978,1617.2844650999978,0.006631300002482021,0.013165899999876274,280,reward,1,[0.4586082999994687],[0.45861190000141505],1617.7497459000006,1617.7497459000006,0.007441199999448145,0.007441199999448145,0.018461799998476636,0.053108500000234926,0.06004879999818513,0.10171469999841065,0.10868850000042585,1.0044549000012921,1621.2426627999994,1624.6730505999985,,,,,,,,,,,,,,,,,,,,,,,,,,,,,8,C,2023-12-07_14h52.31.762,gca_avoidance_task,2022.2.4,143.94350505194188,
positions.xlsx,stimuli.xlsx,stimuli/Social1.png,stimuli/Social2.png,stimuli/Nonsocial2.png,stimuli/Nonsocial1.png,cs_minus_ns,,,,,,,0,0,0,0,,,,,,,,,,,,,0,0,0,3,,,,,,,,,,,,,,,,,,,,,,,,,,,,,,,,,,,,,,,,,,,1633.2491076000006,1633.2491076000006,1637.1517332000003,9.0,6.27236719999928,space,3.011341100002028,,,,,,,,,,,,,,,,,,,,,,,,,,,,,,,,,,,,1624.6730505999985,1624.6730505999985,1624.6730505999985,1624.6730505999985,1624.6730505999985,1624.6730505999985,1631.9088617999987,6.0,7.229590300001291,space,1.2945596000026853,,,,,,,,,,,,8,C,2023-12-07_14h52.31.762,gca_avoidance_task,2022.2.4,143.94350505194188,
positions.xlsx,stimuli.xlsx,stimuli/Social1.png,stimuli/Social2.png,stimuli/Nonsocial2.png,stimuli/Nonsocial1.png,cs_plus_s,,,,,,,0,0,0,0,,,,,,,,,,,,,0,1,1,0,,,,,,,,,,,,,,,,,,,,,,,,,,,,,,,,,,,,,,,,,,,1640.1932701999976,1640.1932701999976,1642.1029224999984,1.0,1.8962533999983862,space,0.9491323000002012,,,,,,,,,,,,,,,,,,,,,,,,,,,,,,,,,,,,,,,,,,,,,,,,,,,,,,,,,,8,C,2023-12-07_14h52.31.762,gca_avoidance_task,2022.2.4,143.94350505194188,
positions.xlsx,stimuli.xlsx,stimuli/Social1.png,stimuli/Social2.png,stimuli/Nonsocial2.png,stimuli/Nonsocial1.png,cs_minus_s,,,,,,,0,0,0,0,,,,,,,,,,,,,0,2,2,2,,,,,,,,,,,,,,,,,,,,,,,,,,,,,,,,,,,,,,,,,,,1643.0820344999993,1643.0820344999993,1645.3250107999993,10.0,2.2296489000000292,space,0.8544396000033885,,,,,,,,,,,,,,,,,,,,,,,,,,,,,,,,,,,,,,,,,,,,,,,,,,,,,,,,,,8,C,2023-12-07_14h52.31.762,gca_avoidance_task,2022.2.4,143.94350505194188,
positions.xlsx,stimuli.xlsx,stimuli/Social1.png,stimuli/Social2.png,stimuli/Nonsocial2.png,stimuli/Nonsocial1.png,cs_plus_ns,,,,,,,0,0,0,0,,,,,,,,,,,,,0,3,3,1,,,,,,,,,,,,,,,,,,,,,,,,,,,,,,,,,,,,,,,,,,,1646.2138835999976,1646.2138835999976,1648.4984831999973,1.0,2.263020400001551,space,0.5443091000015556,,,,,,,,,,,,,,,,,,,,,,,,,,,,,,,,,,,,,,,,,,,,,,,,,,,,,,,,,,8,C,2023-12-07_14h52.31.762,gca_avoidance_task,2022.2.4,143.94350505194188,
positions.xlsx,stimuli.xlsx,stimuli/Social1.png,stimuli/Social2.png,stimuli/Nonsocial2.png,stimuli/Nonsocial1.png,cs_minus_ns,,,,,,,0,0,0,0,,,,,,,,,,,,,,,,,0,0,0,3,,,,,,,,,,,,,,,,,,,,,,,,,,,,,,,,,,,,,,,,,,,,,,,,,,,,1653.3733030999974,,,,,,,,,,,,,,,,,,,,,1664.3729544999987,1668.1296841999974,,,,,,,,,,,,,,,,,,1649.0540091999974,1649.0540091999974,space,3.8048506999984966,1653.8871927,1653.8871927,0.022637399997620378,0.02676190000056522,2,"[0.023388499997963663, 3.221817400000873]","[3.0687784000001557, 9.999191099999734]",8,C,2023-12-07_14h52.31.762,gca_avoidance_task,2022.2.4,143.94350505194188,
positions.xlsx,stimuli.xlsx,stimuli/Social1.png,stimuli/Social2.png,stimuli/Nonsocial2.png,stimuli/Nonsocial1.png,cs_plus_s,,,,,,,0,0,0,0,,,,,,,,,,,,,,,,,0,1,1,0,,,,,,,,,,,,,,,,,,,,,,,,,,,,,,,,,,,,,,,,,,,,,,,,,,,,1668.1296841999974,,,,,,,,,,,,,,,,,,,,,1679.1362606999974,1683.545812799999,,,,,,,,,,,,,,,,,,,,,,1668.6435349999992,1668.6435349999992,0.013559200000599958,0.02056050000101095,2,"[0.015030999998998595, 2.965630200000305]","[2.819526200000837, 10.000049400001444]",8,C,2023-12-07_14h52.31.762,gca_avoidance_task,2022.2.4,143.94350505194188,
positions.xlsx,stimuli.xlsx,stimuli/Social1.png,stimuli/Social2.png,stimuli/Nonsocial2.png,stimuli/Nonsocial1.png,cs_plus_ns,,,,,,,0,0,0,0,,,,,,,,,,,,,,,,,0,2,2,1,,,,,,,,,,,,,,,,,,,,,,,,,,,,,,,,,,,,,,,,,,,,,,,,,,,,1683.545812799999,,,,,,,,,,,,,,,,,,,,,1694.5523267999997,1698.5382591999987,,,,,,,,,,,,,,,,,,,,,,1684.0596035999988,1684.0596035999988,0.014199400000507012,0.020519199999398552,4,"[0.014999499999248656, 4.31965560000026, 7.798646300001565, 9.090392400001292]","[4.0840090999990935, 7.645778400001291, 8.930628099999012, 9.999897900001088]",8,C,2023-12-07_14h52.31.762,gca_avoidance_task,2022.2.4,143.94350505194188,
