posFile,stimFile,cs_plus_s,cs_minus_s,cs_plus_ns,cs_minus_ns,stimtype,position,trialtype,trials_threshold.thisRepN,trials_threshold.thisTrialN,trials_threshold.thisN,trials_threshold.thisIndex,blocks.thisRepN,blocks.thisTrialN,blocks.thisN,blocks.thisIndex,ratingtrials1.thisRepN,ratingtrials1.thisTrialN,ratingtrials1.thisN,ratingtrials1.thisIndex,learning_trials.thisRepN,learning_trials.thisTrialN,learning_trials.thisN,learning_trials.thisIndex,trials.thisRepN,trials.thisTrialN,trials.thisN,trials.thisIndex,ratingtrials2.thisRepN,ratingtrials2.thisTrialN,ratingtrials2.thisN,ratingtrials2.thisIndex,testtrials.thisRepN,testtrials.thisTrialN,testtrials.thisN,testtrials.thisIndex,ratingtrials3.thisRepN,ratingtrials3.thisTrialN,ratingtrials3.thisN,ratingtrials3.thisIndex,textStart.started,sliderPainT.response,sliderPainT.rt,textStartExp.started,imageRating.started,sliderStim.response,sliderStim.rt,textStartTask.started,image.started,score,outcome,roi.numLooks,roi.timesOn,roi.timesOff,imageFeedback.started,sliderPain.response,sliderPain.rt,textTestInstr.started,imageTest.started,roiTest.numLooks,roiTest.timesOn,roiTest.timesOff,participant,group,date,expName,psychopyVersion,frameRate,
,,,,,,,,,0,0,0,0,,,,,,,,,,,,,,,,,,,,,,,,,,,,,15.912374699953943,None,None,,,,,,,,,,,,,,,,,,,,27,B,2023-12-14_11h53.12.286,gca_avoidance_task,2022.2.4,143.96961660847217,
,,,,,,,,,1,0,1,0,,,,,,,,,,,,,,,,,,,,,,,,,,,,,,None,None,,,,,,,,,,,,,,,,,,,,27,B,2023-12-14_11h53.12.286,gca_avoidance_task,2022.2.4,143.96961660847217,
,,,,,,,,,2,0,2,0,,,,,,,,,,,,,,,,,,,,,,,,,,,,,,1.0,12.744054300012067,,,,,,,,,,,,,,,,,,,,27,B,2023-12-14_11h53.12.286,gca_avoidance_task,2022.2.4,143.96961660847217,
,,,,,,,,,3,0,3,0,,,,,,,,,,,,,,,,,,,,,,,,,,,,,,2.0,4.429838699987158,,,,,,,,,,,,,,,,,,,,27,B,2023-12-14_11h53.12.286,gca_avoidance_task,2022.2.4,143.96961660847217,
,,,,,,,,,4,0,4,0,,,,,,,,,,,,,,,,,,,,,,,,,,,,,,2.0,2.5482417000457644,,,,,,,,,,,,,,,,,,,,27,B,2023-12-14_11h53.12.286,gca_avoidance_task,2022.2.4,143.96961660847217,
,,,,,,,,,5,0,5,0,,,,,,,,,,,,,,,,,,,,,,,,,,,,,,3.0,2.79970420000609,,,,,,,,,,,,,,,,,,,,27,B,2023-12-14_11h53.12.286,gca_avoidance_task,2022.2.4,143.96961660847217,
,,,,,,,,,6,0,6,0,,,,,,,,,,,,,,,,,,,,,,,,,,,,,,4.0,5.1974560000235215,,,,,,,,,,,,,,,,,,,,27,B,2023-12-14_11h53.12.286,gca_avoidance_task,2022.2.4,143.96961660847217,
,,,,,,,,,7,0,7,0,,,,,,,,,,,,,,,,,,,,,,,,,,,,,,4.0,2.650988500099629,,,,,,,,,,,,,,,,,,,,27,B,2023-12-14_11h53.12.286,gca_avoidance_task,2022.2.4,143.96961660847217,
,,,,,,,,,8,0,8,0,,,,,,,,,,,,,,,,,,,,,,,,,,,,,,5.0,3.139031399972737,,,,,,,,,,,,,,,,,,,,27,B,2023-12-14_11h53.12.286,gca_avoidance_task,2022.2.4,143.96961660847217,
,,,,,,,,,9,0,9,0,,,,,,,,,,,,,,,,,,,,,,,,,,,,,,6.0,5.7172598000615835,,,,,,,,,,,,,,,,,,,,27,B,2023-12-14_11h53.12.286,gca_avoidance_task,2022.2.4,143.96961660847217,
,,,,,,,,,10,0,10,0,,,,,,,,,,,,,,,,,,,,,,,,,,,,,,8.0,3.013229800038971,,,,,,,,,,,,,,,,,,,,27,B,2023-12-14_11h53.12.286,gca_avoidance_task,2022.2.4,143.96961660847217,
,,,,,,,,,11,0,11,0,,,,,,,,,,,,,,,,,,,,,,,,,,,,,,8.0,1.8874862999655306,,,,,,,,,,,,,,,,,,,,27,B,2023-12-14_11h53.12.286,gca_avoidance_task,2022.2.4,143.96961660847217,
,,,,,,,,,12,0,12,0,,,,,,,,,,,,,,,,,,,,,,,,,,,,,,8.0,2.3436193999368697,,,,,,,,,,,,,,,,,,,,27,B,2023-12-14_11h53.12.286,gca_avoidance_task,2022.2.4,143.96961660847217,
,,,,,,,,,13,0,13,0,,,,,,,,,,,,,,,,,,,,,,,,,,,,,,8.0,3.978494100039825,,,,,,,,,,,,,,,,,,,,27,B,2023-12-14_11h53.12.286,gca_avoidance_task,2022.2.4,143.96961660847217,
,,,,,,,,,14,0,14,0,,,,,,,,,,,,,,,,,,,,,,,,,,,,,,5.0,2.4738911000313237,,,,,,,,,,,,,,,,,,,,27,B,2023-12-14_11h53.12.286,gca_avoidance_task,2022.2.4,143.96961660847217,
,,,,,,,,,15,0,15,0,,,,,,,,,,,,,,,,,,,,,,,,,,,,,,6.0,2.6688836000394076,,,,,,,,,,,,,,,,,,,,27,B,2023-12-14_11h53.12.286,gca_avoidance_task,2022.2.4,143.96961660847217,
,,,,,,,,,16,0,16,0,,,,,,,,,,,,,,,,,,,,,,,,,,,,,,6.0,2.1470055000390857,,,,,,,,,,,,,,,,,,,,27,B,2023-12-14_11h53.12.286,gca_avoidance_task,2022.2.4,143.96961660847217,
,,,,,,,,,17,0,17,0,,,,,,,,,,,,,,,,,,,,,,,,,,,,,,7.0,1.50868139998056,,,,,,,,,,,,,,,,,,,,27,B,2023-12-14_11h53.12.286,gca_avoidance_task,2022.2.4,143.96961660847217,
,,,,,,,,,18,0,18,0,,,,,,,,,,,,,,,,,,,,,,,,,,,,,,7.0,3.055578300030902,,,,,,,,,,,,,,,,,,,,27,B,2023-12-14_11h53.12.286,gca_avoidance_task,2022.2.4,143.96961660847217,
,,,,,,,,,19,0,19,0,,,,,,,,,,,,,,,,,,,,,,,,,,,,,,7.0,1.4426449000602588,,,,,,,,,,,,,,,,,,,,27,B,2023-12-14_11h53.12.286,gca_avoidance_task,2022.2.4,143.96961660847217,
,,,,,,,,,20,0,20,0,,,,,,,,,,,,,,,,,,,,,,,,,,,,,,5.0,1.736907200072892,,,,,,,,,,,,,,,,,,,,27,B,2023-12-14_11h53.12.286,gca_avoidance_task,2022.2.4,143.96961660847217,
,,,,,,,,,21,0,21,0,,,,,,,,,,,,,,,,,,,,,,,,,,,,,,5.0,3.5281798999058083,,,,,,,,,,,,,,,,,,,,27,B,2023-12-14_11h53.12.286,gca_avoidance_task,2022.2.4,143.96961660847217,
,,,,,,,,,22,0,22,0,,,,,,,,,,,,,,,,,,,,,,,,,,,,,,6.0,1.6748565000016242,,,,,,,,,,,,,,,,,,,,27,B,2023-12-14_11h53.12.286,gca_avoidance_task,2022.2.4,143.96961660847217,
positions.xlsx,stimuli.xlsx,stimuli/Social2.png,stimuli/Social1.png,stimuli/Nonsocial1.png,stimuli/Nonsocial2.png,cs_plus_ns,,,,,,,0,0,0,0,0,0,0,1,,,,,,,,,,,,,,,,,,,,,,,,363.86682849994395,373.5301418999443,4.0,9.91756189998705,,,,,,,,,,,,,,,,27,B,2023-12-14_11h53.12.286,gca_avoidance_task,2022.2.4,143.96961660847217,
positions.xlsx,stimuli.xlsx,stimuli/Social2.png,stimuli/Social1.png,stimuli/Nonsocial1.png,stimuli/Nonsocial2.png,cs_plus_s,,,,,,,0,0,0,0,0,1,1,0,,,,,,,,,,,,,,,,,,,,,,,,,385.7032532999292,7.0,3.31232240004465,,,,,,,,,,,,,,,,27,B,2023-12-14_11h53.12.286,gca_avoidance_task,2022.2.4,143.96961660847217,
positions.xlsx,stimuli.xlsx,stimuli/Social2.png,stimuli/Social1.png,stimuli/Nonsocial1.png,stimuli/Nonsocial2.png,cs_minus_s,,,,,,,0,0,0,0,0,2,2,2,,,,,,,,,,,,,,,,,,,,,,,,,390.1753369999351,7.0,2.6182785000419244,,,,,,,,,,,,,,,,27,B,2023-12-14_11h53.12.286,gca_avoidance_task,2022.2.4,143.96961660847217,
positions.xlsx,stimuli.xlsx,stimuli/Social2.png,stimuli/Social1.png,stimuli/Nonsocial1.png,stimuli/Nonsocial2.png,cs_minus_ns,,,,,,,0,0,0,0,0,3,3,3,,,,,,,,,,,,,,,,,,,,,,,,,393.85583809996024,4.0,3.2074577000457793,,,,,,,,,,,,,,,,27,B,2023-12-14_11h53.12.286,gca_avoidance_task,2022.2.4,143.96961660847217,
positions.xlsx,stimuli.xlsx,stimuli/Social2.png,stimuli/Social1.png,stimuli/Nonsocial1.png,stimuli/Nonsocial2.png,,"(-0.7, -0.5)",cs_plus_ns,,,,,0,0,0,0,,,,,0,0,0,9,,,,,,,,,,,,,,,,,,,,,,,,398.53608959994745,426.77799689990934,0,shock,1,0.25699050002731383,0.25699420005548745,427.0349401999265,,,,,,,,27,B,2023-12-14_11h53.12.286,gca_avoidance_task,2022.2.4,143.96961660847217,
positions.xlsx,stimuli.xlsx,stimuli/Social2.png,stimuli/Social1.png,stimuli/Nonsocial1.png,stimuli/Nonsocial2.png,,"(-0.7, -0.5)",cs_minus_s,,,,,0,0,0,0,,,,,0,1,1,5,,,,,,,,,,,,,,,,,,,,,,,,,436.4790115999058,5,reward,1,0.39614239998627454,0.39614610001444817,436.8817732000025,,,,,,,,27,B,2023-12-14_11h53.12.286,gca_avoidance_task,2022.2.4,143.96961660847217,
positions.xlsx,stimuli.xlsx,stimuli/Social2.png,stimuli/Social1.png,stimuli/Nonsocial1.png,stimuli/Nonsocial2.png,,"(-0.7, 0.5)",cs_plus_ns,,,,,0,0,0,0,,,,,0,2,2,8,,,,,,,,,,,,,,,,,,,,,,,,,447.0341474999441,5,shock,1,2.041634500026703,2.041638300055638,449.0826417999342,,,,,,,,27,B,2023-12-14_11h53.12.286,gca_avoidance_task,2022.2.4,143.96961660847217,
positions.xlsx,stimuli.xlsx,stimuli/Social2.png,stimuli/Social1.png,stimuli/Nonsocial1.png,stimuli/Nonsocial2.png,,"(0.7, 0.5)",cs_minus_ns,,,,,0,0,0,0,,,,,0,3,3,14,,,,,,,,,,,,,,,,,,,,,,,,,458.21424959995784,10,reward,1,1.5486391000449657,1.5486428000731394,459.7697688000044,,,,,,,,27,B,2023-12-14_11h53.12.286,gca_avoidance_task,2022.2.4,143.96961660847217,
positions.xlsx,stimuli.xlsx,stimuli/Social2.png,stimuli/Social1.png,stimuli/Nonsocial1.png,stimuli/Nonsocial2.png,,"(-0.7, 0.5)",cs_minus_ns,,,,,0,0,0,0,,,,,0,4,4,12,,,,,,,,,,,,,,,,,,,,,,,,,468.6235712999478,15,reward,1,1.291862600017339,1.2918663000455126,469.9221339999931,,,,,,,,27,B,2023-12-14_11h53.12.286,gca_avoidance_task,2022.2.4,143.96961660847217,
positions.xlsx,stimuli.xlsx,stimuli/Social2.png,stimuli/Social1.png,stimuli/Nonsocial1.png,stimuli/Nonsocial2.png,,"(0.7, 0.5)",cs_minus_s,,,,,0,0,0,0,,,,,0,5,5,6,,,,,,,,,,,,,,,,,,,,,,,,,479.17871020000894,20,reward,1,0.20862629998009652,0.20863000000827014,479.3940145999659,,,,,,,,27,B,2023-12-14_11h53.12.286,gca_avoidance_task,2022.2.4,143.96961660847217,
positions.xlsx,stimuli.xlsx,stimuli/Social2.png,stimuli/Social1.png,stimuli/Nonsocial1.png,stimuli/Nonsocial2.png,,"(-0.7, 0.5)",cs_plus_s,,,,,0,0,0,0,,,,,0,6,6,0,,,,,,,,,,,,,,,,,,,,,,,,,489.1644510999322,20,shock,1,0.5274031000444666,0.5274066999554634,489.6991749999579,,,,,,,,27,B,2023-12-14_11h53.12.286,gca_avoidance_task,2022.2.4,143.96961660847217,
positions.xlsx,stimuli.xlsx,stimuli/Social2.png,stimuli/Social1.png,stimuli/Nonsocial1.png,stimuli/Nonsocial2.png,,"(0.7, -0.5)",cs_minus_s,,,,,0,0,0,0,,,,,0,7,7,7,,,,,,,,,,,,,,,,,,,,,,,,,499.7473679999821,25,reward,1,0.6110814999556169,0.6110849999822676,500.36537189991213,,,,,,,,27,B,2023-12-14_11h53.12.286,gca_avoidance_task,2022.2.4,143.96961660847217,
positions.xlsx,stimuli.xlsx,stimuli/Social2.png,stimuli/Social1.png,stimuli/Nonsocial1.png,stimuli/Nonsocial2.png,,"(-0.7, 0.5)",cs_minus_s,,,,,0,0,0,0,,,,,0,8,8,4,,,,,,,,,,,,,,,,,,,,,,,,,510.53166609990876,30,reward,1,0.7224786999868229,0.7224824998993427,511.2608002999332,,,,,,,,27,B,2023-12-14_11h53.12.286,gca_avoidance_task,2022.2.4,143.96961660847217,
positions.xlsx,stimuli.xlsx,stimuli/Social2.png,stimuli/Social1.png,stimuli/Nonsocial1.png,stimuli/Nonsocial2.png,,"(0.7, -0.5)",cs_plus_s,,,,,0,0,0,0,,,,,0,9,9,3,,,,,,,,,,,,,,,,,,,,,,,,,520.7951195999049,30,shock,1,1.090204400010407,1.0902080000378191,521.8923154999502,,,,,,,,27,B,2023-12-14_11h53.12.286,gca_avoidance_task,2022.2.4,143.96961660847217,
positions.xlsx,stimuli.xlsx,stimuli/Social2.png,stimuli/Social1.png,stimuli/Nonsocial1.png,stimuli/Nonsocial2.png,,"(-0.7, -0.5)",cs_plus_s,,,,,0,0,0,0,,,,,0,10,10,1,,,,,,,,,,,,,,,,,,,,,,,,,531.8919277999084,30,shock,1,0.7224712999304757,0.7224749999586493,532.6141205999302,,,,,,,,27,B,2023-12-14_11h53.12.286,gca_avoidance_task,2022.2.4,143.96961660847217,
positions.xlsx,stimuli.xlsx,stimuli/Social2.png,stimuli/Social1.png,stimuli/Nonsocial1.png,stimuli/Nonsocial2.png,,"(0.7, -0.5)",cs_plus_ns,,,,,0,0,0,0,,,,,0,11,11,11,,,,,,,,,,,,,,,,,,,,,,,,,541.3082254999317,30,shock,1,2.2643338999478146,2.2710688000079244,543.5859264999162,,,,,,,,27,B,2023-12-14_11h53.12.286,gca_avoidance_task,2022.2.4,143.96961660847217,
positions.xlsx,stimuli.xlsx,stimuli/Social2.png,stimuli/Social1.png,stimuli/Nonsocial1.png,stimuli/Nonsocial2.png,,"(0.7, 0.5)",cs_plus_ns,,,,,0,0,0,0,,,,,0,12,12,10,,,,,,,,,,,,,,,,,,,,,,,,,553.2869132999331,30,shock,1,2.757620000047609,2.7576239000773057,556.0507211999502,,,,,,,,27,B,2023-12-14_11h53.12.286,gca_avoidance_task,2022.2.4,143.96961660847217,
positions.xlsx,stimuli.xlsx,stimuli/Social2.png,stimuli/Social1.png,stimuli/Nonsocial1.png,stimuli/Nonsocial2.png,,"(0.7, 0.5)",cs_plus_s,,,,,0,0,0,0,,,,,0,13,13,2,,,,,,,,,,,,,,,,,,,,,,,,,565.1475304999622,30,shock,1,2.7847160000819713,2.7847198999952525,567.9391318999697,,,,,,,,27,B,2023-12-14_11h53.12.286,gca_avoidance_task,2022.2.4,143.96961660847217,
positions.xlsx,stimuli.xlsx,stimuli/Social2.png,stimuli/Social1.png,stimuli/Nonsocial1.png,stimuli/Nonsocial2.png,,"(-0.7, -0.5)",cs_minus_ns,,,,,0,0,0,0,,,,,0,14,14,13,,,,,,,,,,,,,,,,,,,,,,,,,576.6817943999777,35,reward,1,1.0486846999265254,1.0486880999524146,577.737332599936,,,,,,,,27,B,2023-12-14_11h53.12.286,gca_avoidance_task,2022.2.4,143.96961660847217,
positions.xlsx,stimuli.xlsx,stimuli/Social2.png,stimuli/Social1.png,stimuli/Nonsocial1.png,stimuli/Nonsocial2.png,,"(0.7, -0.5)",cs_minus_ns,,,,,0,0,0,0,,,,,0,15,15,15,,,,,,,,,,,,,,,,,,,,,,,,,587.1397106999066,40,reward,1,0.7224069000221789,0.7224106000503525,587.8689044999192,,,,,,,,27,B,2023-12-14_11h53.12.286,gca_avoidance_task,2022.2.4,143.96961660847217,
positions.xlsx,stimuli.xlsx,stimuli/Social2.png,stimuli/Social1.png,stimuli/Nonsocial1.png,stimuli/Nonsocial2.png,,"(0.7, 0.5)",cs_minus_ns,,,,,0,0,0,0,,,,,1,0,16,14,,,,,,,,,,,,,,,,,,,,,,,,,597.1115544999484,45,reward,1,1.7016293000197038,1.7016332000494003,598.8198585999198,,,,,,,,27,B,2023-12-14_11h53.12.286,gca_avoidance_task,2022.2.4,143.96961660847217,
positions.xlsx,stimuli.xlsx,stimuli/Social2.png,stimuli/Social1.png,stimuli/Nonsocial1.png,stimuli/Nonsocial2.png,,"(-0.7, -0.5)",cs_plus_s,,,,,0,0,0,0,,,,,1,1,17,1,,,,,,,,,,,,,,,,,,,,,,,,,608.729159599985,45,shock,1,0.4940092000178993,0.4940130999311805,609.2291283999803,,,,,,,,27,B,2023-12-14_11h53.12.286,gca_avoidance_task,2022.2.4,143.96961660847217,
positions.xlsx,stimuli.xlsx,stimuli/Social2.png,stimuli/Social1.png,stimuli/Nonsocial1.png,stimuli/Nonsocial2.png,,"(-0.7, 0.5)",cs_plus_s,,,,,0,0,0,0,,,,,1,2,18,0,,,,,,,,,,,,,,,,,,,,,,,,,618.9579070999753,45,shock,1,0.583829200011678,0.5838329999241978,619.5481703999685,,,,,,,,27,B,2023-12-14_11h53.12.286,gca_avoidance_task,2022.2.4,143.96961660847217,
positions.xlsx,stimuli.xlsx,stimuli/Social2.png,stimuli/Social1.png,stimuli/Nonsocial1.png,stimuli/Nonsocial2.png,,"(-0.7, 0.5)",cs_minus_s,,,,,0,0,0,0,,,,,1,3,19,4,,,,,,,,,,,,,,,,,,,,,,,,,629.1866484999191,50,reward,1,0.5488323000026867,0.5488357999129221,629.7422649000073,,,,,,,,27,B,2023-12-14_11h53.12.286,gca_avoidance_task,2022.2.4,143.96961660847217,
positions.xlsx,stimuli.xlsx,stimuli/Social2.png,stimuli/Social1.png,stimuli/Nonsocial1.png,stimuli/Nonsocial2.png,,"(0.7, -0.5)",cs_plus_ns,,,,,0,0,0,0,,,,,1,4,20,11,,,,,,,,,,,,,,,,,,,,,,,,,639.5265527999727,50,shock,1,1.645757699967362,1.6457611999940127,641.1792462999001,,,,,,,,27,B,2023-12-14_11h53.12.286,gca_avoidance_task,2022.2.4,143.96961660847217,
positions.xlsx,stimuli.xlsx,stimuli/Social2.png,stimuli/Social1.png,stimuli/Nonsocial1.png,stimuli/Nonsocial2.png,,"(-0.7, -0.5)",cs_plus_ns,,,,,0,0,0,0,,,,,1,5,21,9,,,,,,,,,,,,,,,,,,,,,,,,,651.046915999963,50,shock,1,0.5349368000170216,0.5349404999287799,651.5885825000005,,,,,,,,27,B,2023-12-14_11h53.12.286,gca_avoidance_task,2022.2.4,143.96961660847217,
positions.xlsx,stimuli.xlsx,stimuli/Social2.png,stimuli/Social1.png,stimuli/Nonsocial1.png,stimuli/Nonsocial2.png,,"(0.7, -0.5)",cs_plus_s,,,,,0,0,0,0,,,,,1,6,22,3,,,,,,,,,,,,,,,,,,,,,,,,,661.4423562999582,50,shock,1,0.20839099993463606,0.20839459996204823,661.6576157999225,,,,,,,,27,B,2023-12-14_11h53.12.286,gca_avoidance_task,2022.2.4,143.96961660847217,
positions.xlsx,stimuli.xlsx,stimuli/Social2.png,stimuli/Social1.png,stimuli/Nonsocial1.png,stimuli/Nonsocial2.png,,"(0.7, -0.5)",cs_minus_s,,,,,0,0,0,0,,,,,1,7,23,7,,,,,,,,,,,,,,,,,,,,,,,,,670.7197376999538,55,reward,1,0.5558954998850822,0.555898999911733,671.2822804999305,,,,,,,,27,B,2023-12-14_11h53.12.286,gca_avoidance_task,2022.2.4,143.96961660847217,
positions.xlsx,stimuli.xlsx,stimuli/Social2.png,stimuli/Social1.png,stimuli/Nonsocial1.png,stimuli/Nonsocial2.png,,"(0.7, 0.5)",cs_minus_s,,,,,0,0,0,0,,,,,1,8,24,6,,,,,,,,,,,,,,,,,,,,,,,,,680.8235429999186,60,reward,1,0.5831964999670163,0.5832000999944285,681.4138083999278,,,,,,,,27,B,2023-12-14_11h53.12.286,gca_avoidance_task,2022.2.4,143.96961660847217,
positions.xlsx,stimuli.xlsx,stimuli/Social2.png,stimuli/Social1.png,stimuli/Nonsocial1.png,stimuli/Nonsocial2.png,,"(0.7, 0.5)",cs_plus_ns,,,,,0,0,0,0,,,,,1,9,25,10,,,,,,,,,,,,,,,,,,,,,,,,,690.6634281999432,60,shock,1,2.125411599990912,2.1254153000190854,692.7952954999637,,,,,,,,27,B,2023-12-14_11h53.12.286,gca_avoidance_task,2022.2.4,143.96961660847217,
positions.xlsx,stimuli.xlsx,stimuli/Social2.png,stimuli/Social1.png,stimuli/Nonsocial1.png,stimuli/Nonsocial2.png,,"(-0.7, -0.5)",cs_minus_ns,,,,,0,0,0,0,,,,,1,10,26,13,,,,,,,,,,,,,,,,,,,,,,,,,702.5101679000072,65,reward,1,0.5276721999980509,0.5276758000254631,703.0448719999986,,,,,,,,27,B,2023-12-14_11h53.12.286,gca_avoidance_task,2022.2.4,143.96961660847217,
positions.xlsx,stimuli.xlsx,stimuli/Social2.png,stimuli/Social1.png,stimuli/Nonsocial1.png,stimuli/Nonsocial2.png,,"(0.7, -0.5)",cs_minus_ns,,,,,0,0,0,0,,,,,1,11,27,15,,,,,,,,,,,,,,,,,,,,,,,,,713.1833377999719,70,reward,1,0.3961050999350846,0.39610889996401966,713.5861063000048,,,,,,,,27,B,2023-12-14_11h53.12.286,gca_avoidance_task,2022.2.4,143.96961660847217,
positions.xlsx,stimuli.xlsx,stimuli/Social2.png,stimuli/Social1.png,stimuli/Nonsocial1.png,stimuli/Nonsocial2.png,,"(-0.7, 0.5)",cs_minus_ns,,,,,0,0,0,0,,,,,1,12,28,12,,,,,,,,,,,,,,,,,,,,,,,,,723.2662926999619,75,reward,1,0.3197508999146521,0.31975459994282573,723.5926743999589,,,,,,,,27,B,2023-12-14_11h53.12.286,gca_avoidance_task,2022.2.4,143.96961660847217,
positions.xlsx,stimuli.xlsx,stimuli/Social2.png,stimuli/Social1.png,stimuli/Nonsocial1.png,stimuli/Nonsocial2.png,,"(-0.7, 0.5)",cs_plus_ns,,,,,0,0,0,0,,,,,1,13,29,8,,,,,,,,,,,,,,,,,,,,,,,,,733.2033939999528,75,shock,1,0.22940059995744377,0.2294042999856174,733.4394792999374,,,,,,,,27,B,2023-12-14_11h53.12.286,gca_avoidance_task,2022.2.4,143.96961660847217,
positions.xlsx,stimuli.xlsx,stimuli/Social2.png,stimuli/Social1.png,stimuli/Nonsocial1.png,stimuli/Nonsocial2.png,,"(-0.7, -0.5)",cs_minus_s,,,,,0,0,0,0,,,,,1,14,30,5,,,,,,,,,,,,,,,,,,,,,,,,,743.0502264999086,80,reward,1,0.3891699999803677,0.3891738000093028,743.4460681999335,,,,,,,,27,B,2023-12-14_11h53.12.286,gca_avoidance_task,2022.2.4,143.96961660847217,
positions.xlsx,stimuli.xlsx,stimuli/Social2.png,stimuli/Social1.png,stimuli/Nonsocial1.png,stimuli/Nonsocial2.png,,"(0.7, 0.5)",cs_plus_s,,,,,0,0,0,0,,,,,1,15,31,2,,,,,,,,,,,,,,,,,,,,,,,,,752.980402899906,80,shock,1,0.3344883000245318,0.33449210005346686,753.3206657000119,,,,,,,,27,B,2023-12-14_11h53.12.286,gca_avoidance_task,2022.2.4,143.96961660847217,
positions.xlsx,stimuli.xlsx,stimuli/Social2.png,stimuli/Social1.png,stimuli/Nonsocial1.png,stimuli/Nonsocial2.png,,"(0.7, -0.5)",cs_minus_s,,,,,0,0,0,0,,,,,,,,,0,0,0,7,,,,,,,,,,,,,,,,,,,,,787.4443192000035,85,reward,1,0.5143576000118628,0.5143613000400364,787.9651153999148,,,,,,,,27,B,2023-12-14_11h53.12.286,gca_avoidance_task,2022.2.4,143.96961660847217,
positions.xlsx,stimuli.xlsx,stimuli/Social2.png,stimuli/Social1.png,stimuli/Nonsocial1.png,stimuli/Nonsocial2.png,,"(-0.7, -0.5)",cs_plus_s,,,,,0,0,0,0,,,,,,,,,0,1,1,1,,,,,,,,,,,,,,,,,,,,,796.7772847999586,85,none,0,,,801.7840435999678,,,,,,,,27,B,2023-12-14_11h53.12.286,gca_avoidance_task,2022.2.4,143.96961660847217,
positions.xlsx,stimuli.xlsx,stimuli/Social2.png,stimuli/Social1.png,stimuli/Nonsocial1.png,stimuli/Nonsocial2.png,,"(0.7, 0.5)",cs_minus_ns,,,,,0,0,0,0,,,,,,,,,0,2,2,14,,,,,,,,,,,,,,,,,,,,,811.6031386000104,90,reward,1,1.1042465000646189,1.1042498999740928,812.7141653998988,,,,,,,,27,B,2023-12-14_11h53.12.286,gca_avoidance_task,2022.2.4,143.96961660847217,
positions.xlsx,stimuli.xlsx,stimuli/Social2.png,stimuli/Social1.png,stimuli/Nonsocial1.png,stimuli/Nonsocial2.png,,"(-0.7, 0.5)",cs_plus_s,,,,,0,0,0,0,,,,,,,,,0,3,3,0,,,,,,,,,,,,,,,,,,,,,821.8180011999793,90,none,0,,,826.8247408999596,,,,,,,,27,B,2023-12-14_11h53.12.286,gca_avoidance_task,2022.2.4,143.96961660847217,
positions.xlsx,stimuli.xlsx,stimuli/Social2.png,stimuli/Social1.png,stimuli/Nonsocial1.png,stimuli/Nonsocial2.png,,"(-0.7, 0.5)",cs_plus_ns,,,,,0,0,0,0,,,,,,,,,0,4,4,8,,,,,,,,,,,,,,,,,,,,,835.5188091999153,90,none,0,,,840.5255601999816,,,,,,,,27,B,2023-12-14_11h53.12.286,gca_avoidance_task,2022.2.4,143.96961660847217,
positions.xlsx,stimuli.xlsx,stimuli/Social2.png,stimuli/Social1.png,stimuli/Nonsocial1.png,stimuli/Nonsocial2.png,,"(-0.7, -0.5)",cs_minus_s,,,,,0,0,0,0,,,,,,,,,0,5,5,5,,,,,,,,,,,,,,,,,,,,,850.1571177999722,95,reward,1,0.45875649992376566,0.4587599999504164,850.6224117999664,,,,,,,,27,B,2023-12-14_11h53.12.286,gca_avoidance_task,2022.2.4,143.96961660847217,
positions.xlsx,stimuli.xlsx,stimuli/Social2.png,stimuli/Social1.png,stimuli/Nonsocial1.png,stimuli/Nonsocial2.png,,"(0.7, 0.5)",cs_minus_s,,,,,0,0,0,0,,,,,,,,,0,6,6,6,,,,,,,,,,,,,,,,,,,,,860.3928367999615,100,reward,1,0.5560093000531197,0.563412299961783,860.9622534000082,,,,,,,,27,B,2023-12-14_11h53.12.286,gca_avoidance_task,2022.2.4,143.96961660847217,
positions.xlsx,stimuli.xlsx,stimuli/Social2.png,stimuli/Social1.png,stimuli/Nonsocial1.png,stimuli/Nonsocial2.png,,"(-0.7, -0.5)",cs_plus_ns,,,,,0,0,0,0,,,,,,,,,0,7,7,9,,,,,,,,,,,,,,,,,,,,,870.4480310999788,100,none,0,,,875.4547353999224,,,,,,,,27,B,2023-12-14_11h53.12.286,gca_avoidance_task,2022.2.4,143.96961660847217,
positions.xlsx,stimuli.xlsx,stimuli/Social2.png,stimuli/Social1.png,stimuli/Nonsocial1.png,stimuli/Nonsocial2.png,,"(0.7, -0.5)",cs_plus_ns,,,,,0,0,0,0,,,,,,,,,0,8,8,11,,,,,,,,,,,,,,,,,,,,,884.4266204999294,100,none,0,,,889.4333762999158,,,,,,,,27,B,2023-12-14_11h53.12.286,gca_avoidance_task,2022.2.4,143.96961660847217,
positions.xlsx,stimuli.xlsx,stimuli/Social2.png,stimuli/Social1.png,stimuli/Nonsocial1.png,stimuli/Nonsocial2.png,,"(0.7, -0.5)",cs_minus_ns,,,,,0,0,0,0,,,,,,,,,0,9,9,15,,,,,,,,,,,,,,,,,,,,,899.0997003999073,105,reward,1,0.7990734000923112,0.7990771000040695,899.9051897999598,,,,,,,,27,B,2023-12-14_11h53.12.286,gca_avoidance_task,2022.2.4,143.96961660847217,
positions.xlsx,stimuli.xlsx,stimuli/Social2.png,stimuli/Social1.png,stimuli/Nonsocial1.png,stimuli/Nonsocial2.png,,"(0.7, 0.5)",cs_plus_ns,,,,,0,0,0,0,,,,,,,,,0,10,10,10,,,,,,,,,,,,,,,,,,,,,909.4256384999026,105,none,0,,,914.4324052999727,,,,,,,,27,B,2023-12-14_11h53.12.286,gca_avoidance_task,2022.2.4,143.96961660847217,
positions.xlsx,stimuli.xlsx,stimuli/Social2.png,stimuli/Social1.png,stimuli/Nonsocial1.png,stimuli/Nonsocial2.png,,"(-0.7, 0.5)",cs_minus_ns,,,,,0,0,0,0,,,,,,,,,0,11,11,12,,,,,,,,,,,,,,,,,,,,,923.3834191999631,110,reward,1,0.6248510000295937,0.624854699941352,924.0153551999247,,,,,,,,27,B,2023-12-14_11h53.12.286,gca_avoidance_task,2022.2.4,143.96961660847217,
positions.xlsx,stimuli.xlsx,stimuli/Social2.png,stimuli/Social1.png,stimuli/Nonsocial1.png,stimuli/Nonsocial2.png,,"(-0.7, -0.5)",cs_minus_ns,,,,,0,0,0,0,,,,,,,,,0,12,12,13,,,,,,,,,,,,,,,,,,,,,933.9524482999695,115,reward,1,0.4927418999141082,0.49274559994228184,934.4524270999245,,,,,,,,27,B,2023-12-14_11h53.12.286,gca_avoidance_task,2022.2.4,143.96961660847217,
positions.xlsx,stimuli.xlsx,stimuli/Social2.png,stimuli/Social1.png,stimuli/Nonsocial1.png,stimuli/Nonsocial2.png,,"(0.7, -0.5)",cs_plus_s,,,,,0,0,0,0,,,,,,,,,0,13,13,3,,,,,,,,,,,,,,,,,,,,,944.2992772998987,115,none,0,,,949.306044899975,,,,,,,,27,B,2023-12-14_11h53.12.286,gca_avoidance_task,2022.2.4,143.96961660847217,
positions.xlsx,stimuli.xlsx,stimuli/Social2.png,stimuli/Social1.png,stimuli/Nonsocial1.png,stimuli/Nonsocial2.png,,"(0.7, 0.5)",cs_plus_s,,,,,0,0,0,0,,,,,,,,,0,14,14,2,,,,,,,,,,,,,,,,,,,,,959.2084337999113,115,none,0,,,964.2151794999372,,,,,,,,27,B,2023-12-14_11h53.12.286,gca_avoidance_task,2022.2.4,143.96961660847217,
positions.xlsx,stimuli.xlsx,stimuli/Social2.png,stimuli/Social1.png,stimuli/Nonsocial1.png,stimuli/Nonsocial2.png,,"(-0.7, 0.5)",cs_minus_s,,,,,0,0,0,0,,,,,,,,,0,15,15,4,,,,,,,,,,,,,,,,,,,,,973.9578513999004,120,reward,1,0.7153463000431657,0.7153501999564469,974.6800587999169,,,,,,,,27,B,2023-12-14_11h53.12.286,gca_avoidance_task,2022.2.4,143.96961660847217,
positions.xlsx,stimuli.xlsx,stimuli/Social2.png,stimuli/Social1.png,stimuli/Nonsocial1.png,stimuli/Nonsocial2.png,,"(0.7, -0.5)",cs_minus_s,,,,,0,0,0,0,,,,,,,,,1,0,16,7,,,,,,,,,,,,,,,,,,,,,984.4088339000009,125,reward,1,0.6043633999070153,0.6043670999351889,985.0199430999346,,,,,,,,27,B,2023-12-14_11h53.12.286,gca_avoidance_task,2022.2.4,143.96961660847217,
positions.xlsx,stimuli.xlsx,stimuli/Social2.png,stimuli/Social1.png,stimuli/Nonsocial1.png,stimuli/Nonsocial2.png,,"(0.7, 0.5)",cs_plus_ns,,,,,0,0,0,0,,,,,,,,,1,1,17,10,,,,,,,,,,,,,,,,,,,,,994.6654047999764,125,none,0,,,999.6721456999658,,,,,,,,27,B,2023-12-14_11h53.12.286,gca_avoidance_task,2022.2.4,143.96961660847217,
positions.xlsx,stimuli.xlsx,stimuli/Social2.png,stimuli/Social1.png,stimuli/Nonsocial1.png,stimuli/Nonsocial2.png,,"(-0.7, -0.5)",cs_plus_s,,,,,0,0,0,0,,,,,,,,,1,2,18,1,,,,,,,,,,,,,,,,,,,,,1009.4009349999251,125,none,0,,,1014.4076235999819,,,,,,,,27,B,2023-12-14_11h53.12.286,gca_avoidance_task,2022.2.4,143.96961660847217,
positions.xlsx,stimuli.xlsx,stimuli/Social2.png,stimuli/Social1.png,stimuli/Nonsocial1.png,stimuli/Nonsocial2.png,,"(0.7, -0.5)",cs_plus_ns,,,,,0,0,0,0,,,,,,,,,1,3,19,11,,,,,,,,,,,,,,,,,,,,,1023.6989554999163,125,none,0,,,1028.705742299906,,,,,,,,27,B,2023-12-14_11h53.12.286,gca_avoidance_task,2022.2.4,143.96961660847217,
positions.xlsx,stimuli.xlsx,stimuli/Social2.png,stimuli/Social1.png,stimuli/Nonsocial1.png,stimuli/Nonsocial2.png,,"(-0.7, 0.5)",cs_minus_s,,,,,0,0,0,0,,,,,,,,,1,4,20,4,,,,,,,,,,,,,,,,,,,,,1038.4830886999844,130,reward,1,0.5140911000780761,0.5140948999905959,1039.0039423999842,,,,,,,,27,B,2023-12-14_11h53.12.286,gca_avoidance_task,2022.2.4,143.96961660847217,
positions.xlsx,stimuli.xlsx,stimuli/Social2.png,stimuli/Social1.png,stimuli/Nonsocial1.png,stimuli/Nonsocial2.png,,"(0.7, -0.5)",cs_plus_s,,,,,0,0,0,0,,,,,,,,,1,5,21,3,,,,,,,,,,,,,,,,,,,,,1048.8229294999037,130,none,0,,,1053.8297470000107,,,,,,,,27,B,2023-12-14_11h53.12.286,gca_avoidance_task,2022.2.4,143.96961660847217,
positions.xlsx,stimuli.xlsx,stimuli/Social2.png,stimuli/Social1.png,stimuli/Nonsocial1.png,stimuli/Nonsocial2.png,,"(0.7, -0.5)",cs_minus_ns,,,,,0,0,0,0,,,,,,,,,1,6,22,15,,,,,,,,,,,,,,,,,,,,,1063.4751736999024,135,reward,1,0.5487620000494644,0.548765700077638,1064.0307220999384,,,,,,,,27,B,2023-12-14_11h53.12.286,gca_avoidance_task,2022.2.4,143.96961660847217,
positions.xlsx,stimuli.xlsx,stimuli/Social2.png,stimuli/Social1.png,stimuli/Nonsocial1.png,stimuli/Nonsocial2.png,,"(-0.7, -0.5)",cs_minus_ns,,,,,0,0,0,0,,,,,,,,,1,7,23,13,,,,,,,,,,,,,,,,,,,,,1074.141435700003,140,reward,1,0.4861614000983536,0.4861652000108734,1074.6344659999013,,,,,,,,27,B,2023-12-14_11h53.12.286,gca_avoidance_task,2022.2.4,143.96961660847217,
positions.xlsx,stimuli.xlsx,stimuli/Social2.png,stimuli/Social1.png,stimuli/Nonsocial1.png,stimuli/Nonsocial2.png,,"(-0.7, -0.5)",cs_plus_ns,,,,,0,0,0,0,,,,,,,,,1,8,24,9,,,,,,,,,,,,,,,,,,,,,1083.9535452999407,140,none,0,,,1088.9602926999796,,,,,,,,27,B,2023-12-14_11h53.12.286,gca_avoidance_task,2022.2.4,143.96961660847217,
positions.xlsx,stimuli.xlsx,stimuli/Social2.png,stimuli/Social1.png,stimuli/Nonsocial1.png,stimuli/Nonsocial2.png,,"(-0.7, -0.5)",cs_minus_s,,,,,0,0,0,0,,,,,,,,,1,9,25,5,,,,,,,,,,,,,,,,,,,,,1098.7238180999411,145,reward,1,0.5350818999577314,0.5350852999836206,1099.2655290999683,,,,,,,,27,B,2023-12-14_11h53.12.286,gca_avoidance_task,2022.2.4,143.96961660847217,
positions.xlsx,stimuli.xlsx,stimuli/Social2.png,stimuli/Social1.png,stimuli/Nonsocial1.png,stimuli/Nonsocial2.png,,"(0.7, 0.5)",cs_plus_s,,,,,0,0,0,0,,,,,,,,,1,10,26,2,,,,,,,,,,,,,,,,,,,,,1108.9386878999649,145,none,0,,,1113.9454368998995,,,,,,,,27,B,2023-12-14_11h53.12.286,gca_avoidance_task,2022.2.4,143.96961660847217,
positions.xlsx,stimuli.xlsx,stimuli/Social2.png,stimuli/Social1.png,stimuli/Nonsocial1.png,stimuli/Nonsocial2.png,,"(-0.7, 0.5)",cs_minus_ns,,,,,0,0,0,0,,,,,,,,,1,11,27,12,,,,,,,,,,,,,,,,,,,,,1123.8478709999472,150,reward,1,0.9929447000613436,0.9929487000918016,1124.8478128999704,,,,,,,,27,B,2023-12-14_11h53.12.286,gca_avoidance_task,2022.2.4,143.96961660847217,
positions.xlsx,stimuli.xlsx,stimuli/Social2.png,stimuli/Social1.png,stimuli/Nonsocial1.png,stimuli/Nonsocial2.png,,"(-0.7, 0.5)",cs_plus_s,,,,,0,0,0,0,,,,,,,,,1,12,28,0,,,,,,,,,,,,,,,,,,,,,1134.8474120999454,150,none,0,,,1139.854167399928,,,,,,,,27,B,2023-12-14_11h53.12.286,gca_avoidance_task,2022.2.4,143.96961660847217,
positions.xlsx,stimuli.xlsx,stimuli/Social2.png,stimuli/Social1.png,stimuli/Nonsocial1.png,stimuli/Nonsocial2.png,,"(0.7, 0.5)",cs_minus_ns,,,,,0,0,0,0,,,,,,,,,1,13,29,14,,,,,,,,,,,,,,,,,,,,,1149.1871184000047,155,reward,1,0.7709144999971613,0.7709183000260964,1149.9649024999235,,,,,,,,27,B,2023-12-14_11h53.12.286,gca_avoidance_task,2022.2.4,143.96961660847217,
positions.xlsx,stimuli.xlsx,stimuli/Social2.png,stimuli/Social1.png,stimuli/Nonsocial1.png,stimuli/Nonsocial2.png,,"(0.7, 0.5)",cs_minus_s,,,,,0,0,0,0,,,,,,,,,1,14,30,6,,,,,,,,,,,,,,,,,,,,,1158.7701307999669,160,reward,1,0.5491048999829218,0.549108500010334,1159.3256849999307,,,,,,,,27,B,2023-12-14_11h53.12.286,gca_avoidance_task,2022.2.4,143.96961660847217,
positions.xlsx,stimuli.xlsx,stimuli/Social2.png,stimuli/Social1.png,stimuli/Nonsocial1.png,stimuli/Nonsocial2.png,,"(-0.7, 0.5)",cs_plus_ns,,,,,0,0,0,0,,,,,,,,,1,15,31,8,,,,,,,,,,,,,,,,,,,,,1168.9155145999976,160,none,0,,,1173.9222910999088,,,,,,,,27,B,2023-12-14_11h53.12.286,gca_avoidance_task,2022.2.4,143.96961660847217,
positions.xlsx,stimuli.xlsx,stimuli/Social2.png,stimuli/Social1.png,stimuli/Nonsocial1.png,stimuli/Nonsocial2.png,,"(0.7, -0.5)",cs_minus_ns,,,,,0,0,0,0,,,,,,,,,2,0,32,15,,,,,,,,,,,,,,,,,,,,,1183.6788661999162,165,reward,1,0.556289599975571,0.5562935000052676,1184.2413091999479,,,,,,,,27,B,2023-12-14_11h53.12.286,gca_avoidance_task,2022.2.4,143.96961660847217,
positions.xlsx,stimuli.xlsx,stimuli/Social2.png,stimuli/Social1.png,stimuli/Nonsocial1.png,stimuli/Nonsocial2.png,,"(-0.7, -0.5)",cs_plus_ns,,,,,0,0,0,0,,,,,,,,,2,1,33,9,,,,,,,,,,,,,,,,,,,,,1193.7409646000015,165,none,0,,,1198.747689699987,,,,,,,,27,B,2023-12-14_11h53.12.286,gca_avoidance_task,2022.2.4,143.96961660847217,
positions.xlsx,stimuli.xlsx,stimuli/Social2.png,stimuli/Social1.png,stimuli/Nonsocial1.png,stimuli/Nonsocial2.png,,"(0.7, 0.5)",cs_minus_ns,,,,,0,0,0,0,,,,,,,,,2,2,34,14,,,,,,,,,,,,,,,,,,,,,1207.955671899952,170,reward,1,0.6045930000254884,0.6045965999364853,1208.56676159997,,,,,,,,27,B,2023-12-14_11h53.12.286,gca_avoidance_task,2022.2.4,143.96961660847217,
positions.xlsx,stimuli.xlsx,stimuli/Social2.png,stimuli/Social1.png,stimuli/Nonsocial1.png,stimuli/Nonsocial2.png,,"(-0.7, -0.5)",cs_plus_s,,,,,0,0,0,0,,,,,,,,,2,3,35,1,,,,,,,,,,,,,,,,,,,,,1218.3094404999865,170,none,0,,,1223.3162015000125,,,,,,,,27,B,2023-12-14_11h53.12.286,gca_avoidance_task,2022.2.4,143.96961660847217,
positions.xlsx,stimuli.xlsx,stimuli/Social2.png,stimuli/Social1.png,stimuli/Nonsocial1.png,stimuli/Nonsocial2.png,,"(0.7, 0.5)",cs_minus_s,,,,,0,0,0,0,,,,,,,,,2,4,36,6,,,,,,,,,,,,,,,,,,,,,1232.19777530001,175,reward,1,0.49998690001666546,0.49999050004407763,1232.7047169998987,,,,,,,,27,B,2023-12-14_11h53.12.286,gca_avoidance_task,2022.2.4,143.96961660847217,
positions.xlsx,stimuli.xlsx,stimuli/Social2.png,stimuli/Social1.png,stimuli/Nonsocial1.png,stimuli/Nonsocial2.png,,"(-0.7, 0.5)",cs_minus_s,,,,,0,0,0,0,,,,,,,,,2,5,37,4,,,,,,,,,,,,,,,,,,,,,1242.0376587999053,180,reward,1,0.4930498000467196,0.4930532000726089,1242.537678499939,,,,,,,,27,B,2023-12-14_11h53.12.286,gca_avoidance_task,2022.2.4,143.96961660847217,
positions.xlsx,stimuli.xlsx,stimuli/Social2.png,stimuli/Social1.png,stimuli/Nonsocial1.png,stimuli/Nonsocial2.png,,"(-0.7, -0.5)",cs_minus_ns,,,,,0,0,0,0,,,,,,,,,2,6,38,13,,,,,,,,,,,,,,,,,,,,,1252.6483722999692,185,reward,1,0.48628409998491406,0.4862876998959109,1253.1414168999763,,,,,,,,27,B,2023-12-14_11h53.12.286,gca_avoidance_task,2022.2.4,143.96961660847217,
positions.xlsx,stimuli.xlsx,stimuli/Social2.png,stimuli/Social1.png,stimuli/Nonsocial1.png,stimuli/Nonsocial2.png,,"(-0.7, -0.5)",cs_minus_s,,,,,0,0,0,0,,,,,,,,,2,7,39,5,,,,,,,,,,,,,,,,,,,,,1263.0576822999865,190,reward,1,0.4720262000337243,0.4720296999439597,1263.5368551999563,,,,,,,,27,B,2023-12-14_11h53.12.286,gca_avoidance_task,2022.2.4,143.96961660847217,
positions.xlsx,stimuli.xlsx,stimuli/Social2.png,stimuli/Social1.png,stimuli/Nonsocial1.png,stimuli/Nonsocial2.png,,"(-0.7, 0.5)",cs_minus_ns,,,,,0,0,0,0,,,,,,,,,2,8,40,12,,,,,,,,,,,,,,,,,,,,,1272.6198187000118,195,reward,1,0.7432497000554577,0.743253399967216,1273.3697917999234,,,,,,,,27,B,2023-12-14_11h53.12.286,gca_avoidance_task,2022.2.4,143.96961660847217,
positions.xlsx,stimuli.xlsx,stimuli/Social2.png,stimuli/Social1.png,stimuli/Nonsocial1.png,stimuli/Nonsocial2.png,,"(-0.7, 0.5)",cs_plus_s,,,,,0,0,0,0,,,,,,,,,2,9,41,0,,,,,,,,,,,,,,,,,,,,,1282.5916662999662,195,none,0,,,1287.5983999999007,,,,,,,,27,B,2023-12-14_11h53.12.286,gca_avoidance_task,2022.2.4,143.96961660847217,
positions.xlsx,stimuli.xlsx,stimuli/Social2.png,stimuli/Social1.png,stimuli/Nonsocial1.png,stimuli/Nonsocial2.png,,"(-0.7, 0.5)",cs_plus_ns,,,,,0,0,0,0,,,,,,,,,2,10,42,8,,,,,,,,,,,,,,,,,,,,,1297.785461399937,195,none,0,,,1302.7922162999166,,,,,,,,27,B,2023-12-14_11h53.12.286,gca_avoidance_task,2022.2.4,143.96961660847217,
positions.xlsx,stimuli.xlsx,stimuli/Social2.png,stimuli/Social1.png,stimuli/Nonsocial1.png,stimuli/Nonsocial2.png,,"(0.7, -0.5)",cs_minus_s,,,,,0,0,0,0,,,,,,,,,2,11,43,7,,,,,,,,,,,,,,,,,,,,,1312.3335376000032,200,reward,1,0.45232210005633533,0.4523253000807017,1312.791900399956,,,,,,,,27,B,2023-12-14_11h53.12.286,gca_avoidance_task,2022.2.4,143.96961660847217,
positions.xlsx,stimuli.xlsx,stimuli/Social2.png,stimuli/Social1.png,stimuli/Nonsocial1.png,stimuli/Nonsocial2.png,,"(0.7, 0.5)",cs_plus_s,,,,,0,0,0,0,,,,,,,,,2,12,44,2,,,,,,,,,,,,,,,,,,,,,1321.999850199907,200,none,0,,,1327.0065990999574,,,,,,,,27,B,2023-12-14_11h53.12.286,gca_avoidance_task,2022.2.4,143.96961660847217,
positions.xlsx,stimuli.xlsx,stimuli/Social2.png,stimuli/Social1.png,stimuli/Nonsocial1.png,stimuli/Nonsocial2.png,,"(0.7, -0.5)",cs_plus_s,,,,,0,0,0,0,,,,,,,,,2,13,45,3,,,,,,,,,,,,,,,,,,,,,1336.6728701000102,200,none,0,,,1341.6796788999345,,,,,,,,27,B,2023-12-14_11h53.12.286,gca_avoidance_task,2022.2.4,143.96961660847217,
positions.xlsx,stimuli.xlsx,stimuli/Social2.png,stimuli/Social1.png,stimuli/Nonsocial1.png,stimuli/Nonsocial2.png,,"(0.7, 0.5)",cs_plus_ns,,,,,0,0,0,0,,,,,,,,,2,14,46,10,,,,,,,,,,,,,,,,,,,,,1351.8737008000026,200,none,0,,,1356.8804181999294,,,,,,,,27,B,2023-12-14_11h53.12.286,gca_avoidance_task,2022.2.4,143.96961660847217,
positions.xlsx,stimuli.xlsx,stimuli/Social2.png,stimuli/Social1.png,stimuli/Nonsocial1.png,stimuli/Nonsocial2.png,,"(0.7, -0.5)",cs_plus_ns,,,,,0,0,0,0,,,,,,,,,2,15,47,11,,,,,,,,,,,,,,,,,,,,,1366.8522487999871,200,none,0,,,1371.8589995999355,,,,,,,,27,B,2023-12-14_11h53.12.286,gca_avoidance_task,2022.2.4,143.96961660847217,
positions.xlsx,stimuli.xlsx,stimuli/Social2.png,stimuli/Social1.png,stimuli/Nonsocial1.png,stimuli/Nonsocial2.png,,"(0.7, 0.5)",cs_minus_s,,,,,0,0,0,0,,,,,,,,,3,0,48,6,,,,,,,,,,,,,,,,,,,,,1381.539168599993,205,reward,1,0.4865681999363005,0.4865717999637127,1382.032279899926,,,,,,,,27,B,2023-12-14_11h53.12.286,gca_avoidance_task,2022.2.4,143.96961660847217,
positions.xlsx,stimuli.xlsx,stimuli/Social2.png,stimuli/Social1.png,stimuli/Nonsocial1.png,stimuli/Nonsocial2.png,,"(-0.7, -0.5)",cs_plus_s,,,,,0,0,0,0,,,,,,,,,3,1,49,1,,,,,,,,,,,,,,,,,,,,,1392.1012475999305,205,none,0,,,1397.1080527999438,,,,,,,,27,B,2023-12-14_11h53.12.286,gca_avoidance_task,2022.2.4,143.96961660847217,
positions.xlsx,stimuli.xlsx,stimuli/Social2.png,stimuli/Social1.png,stimuli/Nonsocial1.png,stimuli/Nonsocial2.png,,"(0.7, -0.5)",cs_minus_s,,,,,0,0,0,0,,,,,,,,,3,2,50,7,,,,,,,,,,,,,,,,,,,,,1406.8784863000037,210,reward,1,0.5626247000182047,0.5626286000479013,1407.4479216999607,,,,,,,,27,B,2023-12-14_11h53.12.286,gca_avoidance_task,2022.2.4,143.96961660847217,
positions.xlsx,stimuli.xlsx,stimuli/Social2.png,stimuli/Social1.png,stimuli/Nonsocial1.png,stimuli/Nonsocial2.png,,"(-0.7, -0.5)",cs_minus_s,,,,,0,0,0,0,,,,,,,,,3,3,51,5,,,,,,,,,,,,,,,,,,,,,1416.9613885999424,215,reward,1,0.5350866001099348,0.535090500023216,1417.503059300012,,,,,,,,27,B,2023-12-14_11h53.12.286,gca_avoidance_task,2022.2.4,143.96961660847217,
positions.xlsx,stimuli.xlsx,stimuli/Social2.png,stimuli/Social1.png,stimuli/Nonsocial1.png,stimuli/Nonsocial2.png,,"(0.7, 0.5)",cs_plus_ns,,,,,0,0,0,0,,,,,,,,,3,4,52,10,,,,,,,,,,,,,,,,,,,,,1427.4610002000118,215,none,0,,,1432.4677504999563,,,,,,,,27,B,2023-12-14_11h53.12.286,gca_avoidance_task,2022.2.4,143.96961660847217,
positions.xlsx,stimuli.xlsx,stimuli/Social2.png,stimuli/Social1.png,stimuli/Nonsocial1.png,stimuli/Nonsocial2.png,,"(0.7, 0.5)",cs_plus_s,,,,,0,0,0,0,,,,,,,,,3,5,53,2,,,,,,,,,,,,,,,,,,,,,1442.4048797999276,215,none,0,,,1447.411611199961,,,,,,,,27,B,2023-12-14_11h53.12.286,gca_avoidance_task,2022.2.4,143.96961660847217,
positions.xlsx,stimuli.xlsx,stimuli/Social2.png,stimuli/Social1.png,stimuli/Nonsocial1.png,stimuli/Nonsocial2.png,,"(-0.7, 0.5)",cs_minus_ns,,,,,0,0,0,0,,,,,,,,,3,6,54,12,,,,,,,,,,,,,,,,,,,,,1457.3973594999406,220,reward,1,0.5837572999298573,0.5837611999595538,1457.9876614999957,,,,,,,,27,B,2023-12-14_11h53.12.286,gca_avoidance_task,2022.2.4,143.96961660847217,
positions.xlsx,stimuli.xlsx,stimuli/Social2.png,stimuli/Social1.png,stimuli/Nonsocial1.png,stimuli/Nonsocial2.png,,"(0.7, -0.5)",cs_plus_s,,,,,0,0,0,0,,,,,,,,,3,7,55,3,,,,,,,,,,,,,,,,,,,,,1468.1677754999837,220,none,0,,,1473.181432100013,,,,,,,,27,B,2023-12-14_11h53.12.286,gca_avoidance_task,2022.2.4,143.96961660847217,
positions.xlsx,stimuli.xlsx,stimuli/Social2.png,stimuli/Social1.png,stimuli/Nonsocial1.png,stimuli/Nonsocial2.png,,"(0.7, -0.5)",cs_plus_ns,,,,,0,0,0,0,,,,,,,,,3,8,56,11,,,,,,,,,,,,,,,,,,,,,1482.6324735999806,220,none,0,,,1487.6461783999112,,,,,,,,27,B,2023-12-14_11h53.12.286,gca_avoidance_task,2022.2.4,143.96961660847217,
positions.xlsx,stimuli.xlsx,stimuli/Social2.png,stimuli/Social1.png,stimuli/Nonsocial1.png,stimuli/Nonsocial2.png,,"(0.7, -0.5)",cs_minus_ns,,,,,0,0,0,0,,,,,,,,,3,9,57,15,,,,,,,,,,,,,,,,,,,,,1497.4305108999833,225,reward,1,0.5145295000402257,0.5145333000691608,1497.9513157999609,,,,,,,,27,B,2023-12-14_11h53.12.286,gca_avoidance_task,2022.2.4,143.96961660847217,
positions.xlsx,stimuli.xlsx,stimuli/Social2.png,stimuli/Social1.png,stimuli/Nonsocial1.png,stimuli/Nonsocial2.png,,"(-0.7, -0.5)",cs_plus_ns,,,,,0,0,0,0,,,,,,,,,3,10,58,9,,,,,,,,,,,,,,,,,,,,,1507.0134635999566,225,none,0,,,1512.0271553999046,,,,,,,,27,B,2023-12-14_11h53.12.286,gca_avoidance_task,2022.2.4,143.96961660847217,
positions.xlsx,stimuli.xlsx,stimuli/Social2.png,stimuli/Social1.png,stimuli/Nonsocial1.png,stimuli/Nonsocial2.png,,"(-0.7, 0.5)",cs_plus_s,,,,,0,0,0,0,,,,,,,,,3,11,59,0,,,,,,,,,,,,,,,,,,,,,1522.165666099987,225,shock,1,0.3403086999896914,0.34031250001862645,1522.5059230999323,,,,,,,,27,B,2023-12-14_11h53.12.286,gca_avoidance_task,2022.2.4,143.96961660847217,
positions.xlsx,stimuli.xlsx,stimuli/Social2.png,stimuli/Social1.png,stimuli/Nonsocial1.png,stimuli/Nonsocial2.png,,"(-0.7, 0.5)",cs_minus_s,,,,,0,0,0,0,,,,,,,,,3,12,60,4,,,,,,,,,,,,,,,,,,,,,1531.415305399918,230,reward,1,0.5904972000280395,0.5905008000554517,1532.0124876999762,,,,,,,,27,B,2023-12-14_11h53.12.286,gca_avoidance_task,2022.2.4,143.96961660847217,
positions.xlsx,stimuli.xlsx,stimuli/Social2.png,stimuli/Social1.png,stimuli/Nonsocial1.png,stimuli/Nonsocial2.png,,"(0.7, 0.5)",cs_minus_ns,,,,,0,0,0,0,,,,,,,,,3,13,61,14,,,,,,,,,,,,,,,,,,,,,1542.2134759000037,235,reward,1,0.680494699976407,0.6804983000038192,1542.9009941999102,,,,,,,,27,B,2023-12-14_11h53.12.286,gca_avoidance_task,2022.2.4,143.96961660847217,
positions.xlsx,stimuli.xlsx,stimuli/Social2.png,stimuli/Social1.png,stimuli/Nonsocial1.png,stimuli/Nonsocial2.png,,"(-0.7, 0.5)",cs_plus_ns,,,,,0,0,0,0,,,,,,,,,3,14,62,8,,,,,,,,,,,,,,,,,,,,,1552.5394700999605,235,none,0,,,1557.546290999977,,,,,,,,27,B,2023-12-14_11h53.12.286,gca_avoidance_task,2022.2.4,143.96961660847217,
positions.xlsx,stimuli.xlsx,stimuli/Social2.png,stimuli/Social1.png,stimuli/Nonsocial1.png,stimuli/Nonsocial2.png,,"(-0.7, -0.5)",cs_minus_ns,,,,,0,0,0,0,,,,,,,,,3,15,63,13,,,,,,,,,,,,,,,,,,,,,1567.2889056999702,240,reward,1,0.5212747999466956,0.5212785999756306,1567.8166283000028,,,,,,,,27,B,2023-12-14_11h53.12.286,gca_avoidance_task,2022.2.4,143.96961660847217,
positions.xlsx,stimuli.xlsx,stimuli/Social2.png,stimuli/Social1.png,stimuli/Nonsocial1.png,stimuli/Nonsocial2.png,,"(0.7, 0.5)",cs_minus_ns,,,,,0,0,0,0,,,,,,,,,4,0,64,14,,,,,,,,,,,,,,,,,,,,,1577.1287860999582,245,reward,1,0.5911133999470621,0.5972145999548957,1577.7329469999531,,,,,,,,27,B,2023-12-14_11h53.12.286,gca_avoidance_task,2022.2.4,143.96961660847217,
positions.xlsx,stimuli.xlsx,stimuli/Social2.png,stimuli/Social1.png,stimuli/Nonsocial1.png,stimuli/Nonsocial2.png,,"(0.7, -0.5)",cs_plus_s,,,,,0,0,0,0,,,,,,,,,4,1,65,3,,,,,,,,,,,,,,,,,,,,,1587.177029100014,245,none,0,,,1592.183820599923,,,,,,,,27,B,2023-12-14_11h53.12.286,gca_avoidance_task,2022.2.4,143.96961660847217,
positions.xlsx,stimuli.xlsx,stimuli/Social2.png,stimuli/Social1.png,stimuli/Nonsocial1.png,stimuli/Nonsocial2.png,,"(-0.7, -0.5)",cs_plus_s,,,,,0,0,0,0,,,,,,,,,4,2,66,1,,,,,,,,,,,,,,,,,,,,,1601.8847428999143,245,none,0,,,1606.8915126000065,,,,,,,,27,B,2023-12-14_11h53.12.286,gca_avoidance_task,2022.2.4,143.96961660847217,
positions.xlsx,stimuli.xlsx,stimuli/Social2.png,stimuli/Social1.png,stimuli/Nonsocial1.png,stimuli/Nonsocial2.png,,"(-0.7, 0.5)",cs_minus_s,,,,,0,0,0,0,,,,,,,,,4,3,67,4,,,,,,,,,,,,,,,,,,,,,1615.932853300008,250,reward,1,0.5553034000331536,0.555307500064373,1616.4953040999826,,,,,,,,27,B,2023-12-14_11h53.12.286,gca_avoidance_task,2022.2.4,143.96961660847217,
positions.xlsx,stimuli.xlsx,stimuli/Social2.png,stimuli/Social1.png,stimuli/Nonsocial1.png,stimuli/Nonsocial2.png,,"(-0.7, -0.5)",cs_plus_ns,,,,,0,0,0,0,,,,,,,,,4,4,68,9,,,,,,,,,,,,,,,,,,,,,1626.9046352999285,250,none,0,,,1631.9183200999396,,,,,,,,27,B,2023-12-14_11h53.12.286,gca_avoidance_task,2022.2.4,143.96961660847217,
positions.xlsx,stimuli.xlsx,stimuli/Social2.png,stimuli/Social1.png,stimuli/Nonsocial1.png,stimuli/Nonsocial2.png,,"(0.7, -0.5)",cs_minus_s,,,,,0,0,0,0,,,,,,,,,4,5,69,7,,,,,,,,,,,,,,,,,,,,,1641.598507699906,255,reward,1,0.5212674998911098,0.5212711999192834,1642.126234299969,,,,,,,,27,B,2023-12-14_11h53.12.286,gca_avoidance_task,2022.2.4,143.96961660847217,
positions.xlsx,stimuli.xlsx,stimuli/Social2.png,stimuli/Social1.png,stimuli/Nonsocial1.png,stimuli/Nonsocial2.png,,"(-0.7, 0.5)",cs_plus_ns,,,,,0,0,0,0,,,,,,,,,4,6,70,8,,,,,,,,,,,,,,,,,,,,,1651.3550590999657,255,none,0,,,1656.3687495999038,,,,,,,,27,B,2023-12-14_11h53.12.286,gca_avoidance_task,2022.2.4,143.96961660847217,
positions.xlsx,stimuli.xlsx,stimuli/Social2.png,stimuli/Social1.png,stimuli/Nonsocial1.png,stimuli/Nonsocial2.png,,"(-0.7, 0.5)",cs_minus_ns,,,,,0,0,0,0,,,,,,,,,4,7,71,12,,,,,,,,,,,,,,,,,,,,,1666.173952299985,260,reward,1,0.5626541000092402,0.5626579000381753,1666.7433921999764,,,,,,,,27,B,2023-12-14_11h53.12.286,gca_avoidance_task,2022.2.4,143.96961660847217,
positions.xlsx,stimuli.xlsx,stimuli/Social2.png,stimuli/Social1.png,stimuli/Nonsocial1.png,stimuli/Nonsocial2.png,,"(-0.7, -0.5)",cs_minus_s,,,,,0,0,0,0,,,,,,,,,4,8,72,5,,,,,,,,,,,,,,,,,,,,,1676.0694401999936,265,reward,1,0.4931766000809148,0.49318039999343455,1676.5694164999295,,,,,,,,27,B,2023-12-14_11h53.12.286,gca_avoidance_task,2022.2.4,143.96961660847217,
positions.xlsx,stimuli.xlsx,stimuli/Social2.png,stimuli/Social1.png,stimuli/Nonsocial1.png,stimuli/Nonsocial2.png,,"(0.7, 0.5)",cs_minus_s,,,,,0,0,0,0,,,,,,,,,4,9,73,6,,,,,,,,,,,,,,,,,,,,,1686.3050911999308,270,reward,1,0.4240681000519544,0.4240713999606669,1686.7356267999858,,,,,,,,27,B,2023-12-14_11h53.12.286,gca_avoidance_task,2022.2.4,143.96961660847217,
positions.xlsx,stimuli.xlsx,stimuli/Social2.png,stimuli/Social1.png,stimuli/Nonsocial1.png,stimuli/Nonsocial2.png,,"(-0.7, 0.5)",cs_plus_s,,,,,0,0,0,0,,,,,,,,,4,10,74,0,,,,,,,,,,,,,,,,,,,,,1696.2352570999647,270,none,0,,,1701.242002599989,,,,,,,,27,B,2023-12-14_11h53.12.286,gca_avoidance_task,2022.2.4,143.96961660847217,
positions.xlsx,stimuli.xlsx,stimuli/Social2.png,stimuli/Social1.png,stimuli/Nonsocial1.png,stimuli/Nonsocial2.png,,"(0.7, 0.5)",cs_plus_s,,,,,0,0,0,0,,,,,,,,,4,11,75,2,,,,,,,,,,,,,,,,,,,,,1710.3736061999807,270,none,0,,,1715.3803669000044,,,,,,,,27,B,2023-12-14_11h53.12.286,gca_avoidance_task,2022.2.4,143.96961660847217,
positions.xlsx,stimuli.xlsx,stimuli/Social2.png,stimuli/Social1.png,stimuli/Nonsocial1.png,stimuli/Nonsocial2.png,,"(0.7, -0.5)",cs_minus_ns,,,,,0,0,0,0,,,,,,,,,4,12,76,15,,,,,,,,,,,,,,,,,,,,,1724.56055439997,275,reward,1,0.395992900012061,0.3959967000409961,1724.9633144999389,,,,,,,,27,B,2023-12-14_11h53.12.286,gca_avoidance_task,2022.2.4,143.96961660847217,
positions.xlsx,stimuli.xlsx,stimuli/Social2.png,stimuli/Social1.png,stimuli/Nonsocial1.png,stimuli/Nonsocial2.png,,"(0.7, -0.5)",cs_plus_ns,,,,,0,0,0,0,,,,,,,,,4,13,77,11,,,,,,,,,,,,,,,,,,,,,1734.2059667999856,275,none,0,,,1739.219726099982,,,,,,,,27,B,2023-12-14_11h53.12.286,gca_avoidance_task,2022.2.4,143.96961660847217,
positions.xlsx,stimuli.xlsx,stimuli/Social2.png,stimuli/Social1.png,stimuli/Nonsocial1.png,stimuli/Nonsocial2.png,,"(0.7, 0.5)",cs_plus_ns,,,,,0,0,0,0,,,,,,,,,4,14,78,10,,,,,,,,,,,,,,,,,,,,,1748.6221214999678,275,none,0,,,1753.6288829999976,,,,,,,,27,B,2023-12-14_11h53.12.286,gca_avoidance_task,2022.2.4,143.96961660847217,
positions.xlsx,stimuli.xlsx,stimuli/Social2.png,stimuli/Social1.png,stimuli/Nonsocial1.png,stimuli/Nonsocial2.png,,"(-0.7, -0.5)",cs_minus_ns,,,,,0,0,0,0,,,,,,,,,4,15,79,13,,,,,,,,,,,,,,,,,,,,,1763.8159749999177,280,reward,1,0.4167961999773979,0.416800000006333,1764.239593999926,,,,,,,,27,B,2023-12-14_11h53.12.286,gca_avoidance_task,2022.2.4,143.96961660847217,
positions.xlsx,stimuli.xlsx,stimuli/Social2.png,stimuli/Social1.png,stimuli/Nonsocial1.png,stimuli/Nonsocial2.png,cs_minus_ns,,,,,,,0,0,0,0,,,,,,,,,,,,,0,0,0,3,,,,,,,,,,,,,1787.5719997999258,6.0,6.370997400023043,,,,,,,,,6.0,14.868027899996378,,,,,,27,B,2023-12-14_11h53.12.286,gca_avoidance_task,2022.2.4,143.96961660847217,
positions.xlsx,stimuli.xlsx,stimuli/Social2.png,stimuli/Social1.png,stimuli/Nonsocial1.png,stimuli/Nonsocial2.png,cs_minus_s,,,,,,,0,0,0,0,,,,,,,,,,,,,0,1,1,2,,,,,,,,,,,,,1794.8633995999116,7.0,2.667787100072019,,,,,,,,,,,,,,,,27,B,2023-12-14_11h53.12.286,gca_avoidance_task,2022.2.4,143.96961660847217,
positions.xlsx,stimuli.xlsx,stimuli/Social2.png,stimuli/Social1.png,stimuli/Nonsocial1.png,stimuli/Nonsocial2.png,cs_plus_s,,,,,,,0,0,0,0,,,,,,,,,,,,,0,2,2,0,,,,,,,,,,,,,1798.3216007999144,4.0,6.917378899990581,,,,,,,,,,,,,,,,27,B,2023-12-14_11h53.12.286,gca_avoidance_task,2022.2.4,143.96961660847217,
positions.xlsx,stimuli.xlsx,stimuli/Social2.png,stimuli/Social1.png,stimuli/Nonsocial1.png,stimuli/Nonsocial2.png,cs_plus_ns,,,,,,,0,0,0,0,,,,,,,,,,,,,0,3,3,1,,,,,,,,,,,,,1806.189334099996,3.0,1.3407011000672355,,,,,,,,,,,,,,,,27,B,2023-12-14_11h53.12.286,gca_avoidance_task,2022.2.4,143.96961660847217,
positions.xlsx,stimuli.xlsx,stimuli/Social2.png,stimuli/Social1.png,stimuli/Nonsocial1.png,stimuli/Nonsocial2.png,cs_minus_s,,,,,,,0,0,0,0,,,,,,,,,,,,,,,,,0,0,0,2,,,,,,,,,,,,,,,,,,,,,,1808.0226054999512,1818.2652636999264,5,0.021472600055858493,0.11105810001026839,27,B,2023-12-14_11h53.12.286,gca_avoidance_task,2022.2.4,143.96961660847217,
positions.xlsx,stimuli.xlsx,stimuli/Social2.png,stimuli/Social1.png,stimuli/Nonsocial1.png,stimuli/Nonsocial2.png,cs_plus_s,,,,,,,0,0,0,0,,,,,,,,,,,,,,,,,0,1,1,0,,,,,,,,,,,,,,,,,,,,,,,1832.917486099992,6,0.013706499943509698,1.5004030000418425,27,B,2023-12-14_11h53.12.286,gca_avoidance_task,2022.2.4,143.96961660847217,
positions.xlsx,stimuli.xlsx,stimuli/Social2.png,stimuli/Social1.png,stimuli/Nonsocial1.png,stimuli/Nonsocial2.png,cs_minus_ns,,,,,,,0,0,0,0,,,,,,,,,,,,,,,,,0,2,2,3,,,,,,,,,,,,,,,,,,,,,,,1847.5696907999227,4,0.014112800010479987,0.6878853000234812,27,B,2023-12-14_11h53.12.286,gca_avoidance_task,2022.2.4,143.96961660847217,
positions.xlsx,stimuli.xlsx,stimuli/Social2.png,stimuli/Social1.png,stimuli/Nonsocial1.png,stimuli/Nonsocial2.png,cs_plus_ns,,,,,,,0,0,0,0,,,,,,,,,,,,,,,,,0,3,3,1,,,,,,,,,,,,,,,,,,,,,,,1863.0135619000066,7,0.014167999965138733,0.7850288999034092,27,B,2023-12-14_11h53.12.286,gca_avoidance_task,2022.2.4,143.96961660847217,
positions.xlsx,stimuli.xlsx,stimuli/Social2.png,stimuli/Social1.png,stimuli/Nonsocial1.png,stimuli/Nonsocial2.png,cs_plus_ns,,,,,,,0,0,0,0,,,,,,,,,,,,,,,,,1,0,4,1,,,,,,,,,,,,,,,,,,,,,,,1878.4018520999234,5,0.014102900051511824,1.3683729000622407,27,B,2023-12-14_11h53.12.286,gca_avoidance_task,2022.2.4,143.96961660847217,
positions.xlsx,stimuli.xlsx,stimuli/Social2.png,stimuli/Social1.png,stimuli/Nonsocial1.png,stimuli/Nonsocial2.png,cs_minus_ns,,,,,,,0,0,0,0,,,,,,,,,,,,,,,,,1,1,5,3,,,,,,,,,,,,,,,,,,,,,,,1893.4568009999348,7,0.014383099973201752,0.8058013999834657,27,B,2023-12-14_11h53.12.286,gca_avoidance_task,2022.2.4,143.96961660847217,
positions.xlsx,stimuli.xlsx,stimuli/Social2.png,stimuli/Social1.png,stimuli/Nonsocial1.png,stimuli/Nonsocial2.png,cs_plus_s,,,,,,,0,0,0,0,,,,,,,,,,,,,,,,,1,2,6,0,,,,,,,,,,,,,,,,,,,,,,,1908.8867562999949,5,0.013817200087942183,0.4865756999934092,27,B,2023-12-14_11h53.12.286,gca_avoidance_task,2022.2.4,143.96961660847217,
positions.xlsx,stimuli.xlsx,stimuli/Social2.png,stimuli/Social1.png,stimuli/Nonsocial1.png,stimuli/Nonsocial2.png,cs_minus_s,,,,,,,0,0,0,0,,,,,,,,,,,,,,,,,1,3,7,2,,,,,,,,,,,,,,,,,,,,,,,1924.150078299921,6,0.16008840000722557,1.7294366999994963,27,B,2023-12-14_11h53.12.286,gca_avoidance_task,2022.2.4,143.96961660847217,
positions.xlsx,stimuli.xlsx,stimuli/Social2.png,stimuli/Social1.png,stimuli/Nonsocial1.png,stimuli/Nonsocial2.png,cs_minus_ns,,,,,,,0,0,0,0,,,,,,,,,,,,,,,,,2,0,8,3,,,,,,,,,,,,,,,,,,,,,,,1939.482799599995,6,0.014311100007034838,0.5975144000258297,27,B,2023-12-14_11h53.12.286,gca_avoidance_task,2022.2.4,143.96961660847217,
positions.xlsx,stimuli.xlsx,stimuli/Social2.png,stimuli/Social1.png,stimuli/Nonsocial1.png,stimuli/Nonsocial2.png,cs_plus_ns,,,,,,,0,0,0,0,,,,,,,,,,,,,,,,,2,1,9,1,,,,,,,,,,,,,,,,,,,,,,,1954.829415599932,1,0.01557749998755753,9.999997799983248,27,B,2023-12-14_11h53.12.286,gca_avoidance_task,2022.2.4,143.96961660847217,
positions.xlsx,stimuli.xlsx,stimuli/Social2.png,stimuli/Social1.png,stimuli/Nonsocial1.png,stimuli/Nonsocial2.png,cs_plus_s,,,,,,,0,0,0,0,,,,,,,,,,,,,,,,,2,2,10,0,,,,,,,,,,,,,,,,,,,,,,,1970.1691159999464,6,0.01369439996778965,1.1462986998958513,27,B,2023-12-14_11h53.12.286,gca_avoidance_task,2022.2.4,143.96961660847217,
positions.xlsx,stimuli.xlsx,stimuli/Social2.png,stimuli/Social1.png,stimuli/Nonsocial1.png,stimuli/Nonsocial2.png,cs_minus_s,,,,,,,0,0,0,0,,,,,,,,,,,,,,,,,2,3,11,2,,,,,,,,,,,,,,,,,,,,,,,1985.4254603999434,3,0.013893199968151748,0.7157629999564961,27,B,2023-12-14_11h53.12.286,gca_avoidance_task,2022.2.4,143.96961660847217,
positions.xlsx,stimuli.xlsx,stimuli/Social2.png,stimuli/Social1.png,stimuli/Nonsocial1.png,stimuli/Nonsocial2.png,cs_plus_s,,,,,,,0,0,0,0,,,,,,,,,,,,,,,,,3,0,12,0,,,,,,,,,,,,,,,,,,,,,,,2000.091561499983,9,0.014145600027404726,0.535500800004229,27,B,2023-12-14_11h53.12.286,gca_avoidance_task,2022.2.4,143.96961660847217,
positions.xlsx,stimuli.xlsx,stimuli/Social2.png,stimuli/Social1.png,stimuli/Nonsocial1.png,stimuli/Nonsocial2.png,cs_minus_s,,,,,,,0,0,0,0,,,,,,,,,,,,,,,,,3,1,13,2,,,,,,,,,,,,,,,,,,,,,,,2014.9312751999823,7,0.013903799932450056,0.3754260999849066,27,B,2023-12-14_11h53.12.286,gca_avoidance_task,2022.2.4,143.96961660847217,
positions.xlsx,stimuli.xlsx,stimuli/Social2.png,stimuli/Social1.png,stimuli/Nonsocial1.png,stimuli/Nonsocial2.png,cs_plus_ns,,,,,,,0,0,0,0,,,,,,,,,,,,,,,,,3,2,14,1,,,,,,,,,,,,,,,,,,,,,,,2029.7154328000033,1,0.015508299926295877,9.999973199912347,27,B,2023-12-14_11h53.12.286,gca_avoidance_task,2022.2.4,143.96961660847217,
positions.xlsx,stimuli.xlsx,stimuli/Social2.png,stimuli/Social1.png,stimuli/Nonsocial1.png,stimuli/Nonsocial2.png,cs_minus_ns,,,,,,,0,0,0,0,,,,,,,,,,,,,,,,,3,3,15,3,,,,,,,,,,,,,,,,,,,,,,,2044.2565193999326,4,0.014040300040505826,0.9170569000998512,27,B,2023-12-14_11h53.12.286,gca_avoidance_task,2022.2.4,143.96961660847217,
positions.xlsx,stimuli.xlsx,stimuli/Social2.png,stimuli/Social1.png,stimuli/Nonsocial1.png,stimuli/Nonsocial2.png,cs_minus_s,,,,,,,0,0,0,0,,,,,,,,,,,,,,,,,4,0,16,2,,,,,,,,,,,,,,,,,,,,,,,2059.214258999913,2,0.013544299989007413,2.8475150000303984,27,B,2023-12-14_11h53.12.286,gca_avoidance_task,2022.2.4,143.96961660847217,
positions.xlsx,stimuli.xlsx,stimuli/Social2.png,stimuli/Social1.png,stimuli/Nonsocial1.png,stimuli/Nonsocial2.png,cs_minus_ns,,,,,,,0,0,0,0,,,,,,,,,,,,,,,,,4,1,17,3,,,,,,,,,,,,,,,,,,,,,,,2074.0331298999954,2,0.014260899974033237,2.278048099949956,27,B,2023-12-14_11h53.12.286,gca_avoidance_task,2022.2.4,143.96961660847217,
positions.xlsx,stimuli.xlsx,stimuli/Social2.png,stimuli/Social1.png,stimuli/Nonsocial1.png,stimuli/Nonsocial2.png,cs_plus_s,,,,,,,0,0,0,0,,,,,,,,,,,,,,,,,4,2,18,0,,,,,,,,,,,,,,,,,,,,,,,2088.59506089997,11,0.013226900016888976,0.5216763000935316,27,B,2023-12-14_11h53.12.286,gca_avoidance_task,2022.2.4,143.96961660847217,
positions.xlsx,stimuli.xlsx,stimuli/Social2.png,stimuli/Social1.png,stimuli/Nonsocial1.png,stimuli/Nonsocial2.png,cs_plus_ns,,,,,,,0,0,0,0,,,,,,,,,,,,,,,,,4,3,19,1,,,,,,,,,,,,,,,,,,,,,,,2103.7958727999358,8,0.014224499929696321,1.5697705999482423,27,B,2023-12-14_11h53.12.286,gca_avoidance_task,2022.2.4,143.96961660847217,
positions.xlsx,stimuli.xlsx,stimuli/Social2.png,stimuli/Social1.png,stimuli/Nonsocial1.png,stimuli/Nonsocial2.png,cs_minus_s,,,,,,,0,0,0,0,,,,,,,,,,,,,,,,,5,0,20,2,,,,,,,,,,,,,,,,,,,,,,,2118.371700199903,3,0.013742699986323714,8.076463900040835,27,B,2023-12-14_11h53.12.286,gca_avoidance_task,2022.2.4,143.96961660847217,
positions.xlsx,stimuli.xlsx,stimuli/Social2.png,stimuli/Social1.png,stimuli/Nonsocial1.png,stimuli/Nonsocial2.png,cs_plus_s,,,,,,,0,0,0,0,,,,,,,,,,,,,,,,,5,1,21,0,,,,,,,,,,,,,,,,,,,,,,,2133.8086144999834,7,0.01330609992146492,0.3197920999955386,27,B,2023-12-14_11h53.12.286,gca_avoidance_task,2022.2.4,143.96961660847217,
positions.xlsx,stimuli.xlsx,stimuli/Social2.png,stimuli/Social1.png,stimuli/Nonsocial1.png,stimuli/Nonsocial2.png,cs_minus_ns,,,,,,,0,0,0,0,,,,,,,,,,,,,,,,,5,2,22,3,,,,,,,,,,,,,,,,,,,,,,,2148.4330377998995,1,0.20870290009770542,10.000116200069897,27,B,2023-12-14_11h53.12.286,gca_avoidance_task,2022.2.4,143.96961660847217,
positions.xlsx,stimuli.xlsx,stimuli/Social2.png,stimuli/Social1.png,stimuli/Nonsocial1.png,stimuli/Nonsocial2.png,cs_plus_ns,,,,,,,0,0,0,0,,,,,,,,,,,,,,,,,5,3,23,1,,,,,,,,,,,,,,,,,,,,,,,2163.4671820999356,5,0.014409500057809055,3.479417599970475,27,B,2023-12-14_11h53.12.286,gca_avoidance_task,2022.2.4,143.96961660847217,
positions.xlsx,stimuli.xlsx,stimuli/Social2.png,stimuli/Social1.png,stimuli/Nonsocial1.png,stimuli/Nonsocial2.png,cs_plus_ns,,,,,,,0,0,0,0,,,,,,,,,,,,,,,,,6,0,24,1,,,,,,,,,,,,,,,,,,,,,,,2178.3763410999672,7,0.014074799953959882,0.5905026999535039,27,B,2023-12-14_11h53.12.286,gca_avoidance_task,2022.2.4,143.96961660847217,
positions.xlsx,stimuli.xlsx,stimuli/Social2.png,stimuli/Social1.png,stimuli/Nonsocial1.png,stimuli/Nonsocial2.png,cs_minus_ns,,,,,,,0,0,0,0,,,,,,,,,,,,,,,,,6,1,25,3,,,,,,,,,,,,,,,,,,,,,,,2193.486835299991,7,0.01443990005645901,0.41724350000731647,27,B,2023-12-14_11h53.12.286,gca_avoidance_task,2022.2.4,143.96961660847217,
positions.xlsx,stimuli.xlsx,stimuli/Social2.png,stimuli/Social1.png,stimuli/Nonsocial1.png,stimuli/Nonsocial2.png,cs_plus_s,,,,,,,0,0,0,0,,,,,,,,,,,,,,,,,6,2,26,0,,,,,,,,,,,,,,,,,,,,,,,2208.6807038999395,5,0.013273400021716952,1.0350617000367492,27,B,2023-12-14_11h53.12.286,gca_avoidance_task,2022.2.4,143.96961660847217,
positions.xlsx,stimuli.xlsx,stimuli/Social2.png,stimuli/Social1.png,stimuli/Nonsocial1.png,stimuli/Nonsocial2.png,cs_minus_s,,,,,,,0,0,0,0,,,,,,,,,,,,,,,,,6,3,27,2,,,,,,,,,,,,,,,,,,,,,,,2223.2634792999597,3,0.013514199992641807,7.70849350001663,27,B,2023-12-14_11h53.12.286,gca_avoidance_task,2022.2.4,143.96961660847217,
positions.xlsx,stimuli.xlsx,stimuli/Social2.png,stimuli/Social1.png,stimuli/Nonsocial1.png,stimuli/Nonsocial2.png,cs_plus_s,,,,,,,0,0,0,0,,,,,,,,,,,,,,,,,7,0,28,0,,,,,,,,,,,,,,,,,,,,,,,2238.026817500009,9,0.013335700030438602,0.5211304000113159,27,B,2023-12-14_11h53.12.286,gca_avoidance_task,2022.2.4,143.96961660847217,
positions.xlsx,stimuli.xlsx,stimuli/Social2.png,stimuli/Social1.png,stimuli/Nonsocial1.png,stimuli/Nonsocial2.png,cs_plus_ns,,,,,,,0,0,0,0,,,,,,,,,,,,,,,,,7,1,29,1,,,,,,,,,,,,,,,,,,,,,,,2253.1859325999394,9,0.15317110007163137,0.8474993000272661,27,B,2023-12-14_11h53.12.286,gca_avoidance_task,2022.2.4,143.96961660847217,
positions.xlsx,stimuli.xlsx,stimuli/Social2.png,stimuli/Social1.png,stimuli/Nonsocial1.png,stimuli/Nonsocial2.png,cs_minus_ns,,,,,,,0,0,0,0,,,,,,,,,,,,,,,,,7,2,30,3,,,,,,,,,,,,,,,,,,,,,,,2268.546465299907,6,0.015486499993130565,0.3545041000470519,27,B,2023-12-14_11h53.12.286,gca_avoidance_task,2022.2.4,143.96961660847217,
positions.xlsx,stimuli.xlsx,stimuli/Social2.png,stimuli/Social1.png,stimuli/Nonsocial1.png,stimuli/Nonsocial2.png,cs_minus_s,,,,,,,0,0,0,0,,,,,,,,,,,,,,,,,7,3,31,2,,,,,,,,,,,,,,,,,,,,,,,2283.170870599919,5,0.013599999947473407,2.1739599999273196,27,B,2023-12-14_11h53.12.286,gca_avoidance_task,2022.2.4,143.96961660847217,
positions.xlsx,stimuli.xlsx,stimuli/Social2.png,stimuli/Social1.png,stimuli/Nonsocial1.png,stimuli/Nonsocial2.png,cs_plus_ns,,,,,,,0,0,0,0,,,,,,,,,,,,,,,,,8,0,32,1,,,,,,,,,,,,,,,,,,,,,,,2298.503617499955,6,0.014042699942365289,0.4864581999136135,27,B,2023-12-14_11h53.12.286,gca_avoidance_task,2022.2.4,143.96961660847217,
positions.xlsx,stimuli.xlsx,stimuli/Social2.png,stimuli/Social1.png,stimuli/Nonsocial1.png,stimuli/Nonsocial2.png,cs_minus_s,,,,,,,0,0,0,0,,,,,,,,,,,,,,,,,8,1,33,2,,,,,,,,,,,,,,,,,,,,,,,2314.003024799982,4,0.013654300011694431,0.5422373999608681,27,B,2023-12-14_11h53.12.286,gca_avoidance_task,2022.2.4,143.96961660847217,
positions.xlsx,stimuli.xlsx,stimuli/Social2.png,stimuli/Social1.png,stimuli/Nonsocial1.png,stimuli/Nonsocial2.png,cs_plus_s,,,,,,,0,0,0,0,,,,,,,,,,,,,,,,,8,2,34,0,,,,,,,,,,,,,,,,,,,,,,,2328.7524473000085,7,0.013710100087337196,0.9032103000208735,27,B,2023-12-14_11h53.12.286,gca_avoidance_task,2022.2.4,143.96961660847217,
positions.xlsx,stimuli.xlsx,stimuli/Social2.png,stimuli/Social1.png,stimuli/Nonsocial1.png,stimuli/Nonsocial2.png,cs_minus_ns,,,,,,,0,0,0,0,,,,,,,,,,,,,,,,,8,3,35,3,,,,,,,,,,,,,,,,,,,,,,,2344.071292700013,7,0.18785360001493245,1.21551140001975,27,B,2023-12-14_11h53.12.286,gca_avoidance_task,2022.2.4,143.96961660847217,
positions.xlsx,stimuli.xlsx,stimuli/Social2.png,stimuli/Social1.png,stimuli/Nonsocial1.png,stimuli/Nonsocial2.png,cs_plus_ns,,,,,,,0,0,0,0,,,,,,,,,,,,,,,,,9,0,36,1,,,,,,,,,,,,,,,,,,,,,,,2359.1818175999215,8,0.01439230004325509,0.8475096001056954,27,B,2023-12-14_11h53.12.286,gca_avoidance_task,2022.2.4,143.96961660847217,
positions.xlsx,stimuli.xlsx,stimuli/Social2.png,stimuli/Social1.png,stimuli/Nonsocial1.png,stimuli/Nonsocial2.png,cs_minus_s,,,,,,,0,0,0,0,,,,,,,,,,,,,,,,,9,1,37,2,,,,,,,,,,,,,,,,,,,,,,,2374.174300799961,5,0.014013799955137074,0.5489203999750316,27,B,2023-12-14_11h53.12.286,gca_avoidance_task,2022.2.4,143.96961660847217,
positions.xlsx,stimuli.xlsx,stimuli/Social2.png,stimuli/Social1.png,stimuli/Nonsocial1.png,stimuli/Nonsocial2.png,cs_minus_ns,,,,,,,0,0,0,0,,,,,,,,,,,,,,,,,9,2,38,3,,,,,,,,,,,,,,,,,,,,,,,2389.534820299945,3,0.01418930001091212,0.3963982999557629,27,B,2023-12-14_11h53.12.286,gca_avoidance_task,2022.2.4,143.96961660847217,
positions.xlsx,stimuli.xlsx,stimuli/Social2.png,stimuli/Social1.png,stimuli/Nonsocial1.png,stimuli/Nonsocial2.png,cs_plus_s,,,,,,,0,0,0,0,,,,,,,,,,,,,,,,,9,3,39,0,,,,,,,,,,,,,,,,,,,,,,,2404.784253699938,3,0.013839300023391843,0.6947725999634713,27,B,2023-12-14_11h53.12.286,gca_avoidance_task,2022.2.4,143.96961660847217,
positions.xlsx,stimuli.xlsx,stimuli/Social2.png,stimuli/Social1.png,stimuli/Nonsocial1.png,stimuli/Nonsocial2.png,cs_plus_s,,,,,,,0,0,0,0,,,,,,,,,,,,,,,,,,,,,0,0,0,0,,,,,2418.6934245999437,6.0,5.535635899985209,,,,,,,,,,,,,,,,27,B,2023-12-14_11h53.12.286,gca_avoidance_task,2022.2.4,143.96961660847217,
positions.xlsx,stimuli.xlsx,stimuli/Social2.png,stimuli/Social1.png,stimuli/Nonsocial1.png,stimuli/Nonsocial2.png,cs_minus_s,,,,,,,0,0,0,0,,,,,,,,,,,,,,,,,,,,,0,1,1,2,,,,,2425.5334555999143,7.0,2.9648751999484375,,,,,,,,,,,,,,,,27,B,2023-12-14_11h53.12.286,gca_avoidance_task,2022.2.4,143.96961660847217,
positions.xlsx,stimuli.xlsx,stimuli/Social2.png,stimuli/Social1.png,stimuli/Nonsocial1.png,stimuli/Nonsocial2.png,cs_minus_ns,,,,,,,0,0,0,0,,,,,,,,,,,,,,,,,,,,,0,2,2,3,,,,,2429.7763646999374,6.0,5.25027359998785,,,,,,,,,,,,,,,,27,B,2023-12-14_11h53.12.286,gca_avoidance_task,2022.2.4,143.96961660847217,
positions.xlsx,stimuli.xlsx,stimuli/Social2.png,stimuli/Social1.png,stimuli/Nonsocial1.png,stimuli/Nonsocial2.png,cs_plus_ns,,,,,,,0,0,0,0,,,,,,,,,,,,,,,,,,,,,0,3,3,1,,,,,2436.373286899994,4.0,3.104257500031963,,,,,,,,,,,,,,,,27,B,2023-12-14_11h53.12.286,gca_avoidance_task,2022.2.4,143.96961660847217,
