posFile,stimFile,cs_plus_s,cs_minus_s,cs_plus_ns,cs_minus_ns,stimtype,position,trialtype,trials_threshold.thisRepN,trials_threshold.thisTrialN,trials_threshold.thisN,trials_threshold.thisIndex,blocks.thisRepN,blocks.thisTrialN,blocks.thisN,blocks.thisIndex,ratingtrials1.thisRepN,ratingtrials1.thisTrialN,ratingtrials1.thisN,ratingtrials1.thisIndex,learning_trials.thisRepN,learning_trials.thisTrialN,learning_trials.thisN,learning_trials.thisIndex,trials.thisRepN,trials.thisTrialN,trials.thisN,trials.thisIndex,ratingtrials2.thisRepN,ratingtrials2.thisTrialN,ratingtrials2.thisN,ratingtrials2.thisIndex,testtrials.thisRepN,testtrials.thisTrialN,testtrials.thisN,testtrials.thisIndex,ratingtrials3.thisRepN,ratingtrials3.thisTrialN,ratingtrials3.thisN,ratingtrials3.thisIndex,textStart.started,sliderPainT.response,sliderPainT.rt,textStartExp.started,imageRating.started,sliderStim.response,sliderStim.rt,textStartTask.started,image.started,score,outcome,roi.numLooks,roi.timesOn,roi.timesOff,imageFeedback.started,sliderPain.response,sliderPain.rt,textTestInstr.started,imageTest.started,roiTest.numLooks,roiTest.timesOn,roiTest.timesOff,participant,group,date,expName,psychopyVersion,frameRate,
,,,,,,,,,0,0,0,0,,,,,,,,,,,,,,,,,,,,,,,,,,,,,28.509655700065196,None,None,,,,,,,,,,,,,,,,,,,,52,C,2024-01-16_08h33.52.269,gca_avoidance_task,2022.2.4,144.12793992699036,
,,,,,,,,,1,0,1,0,,,,,,,,,,,,,,,,,,,,,,,,,,,,,,0.0,1.0892505999654531,,,,,,,,,,,,,,,,,,,,52,C,2024-01-16_08h33.52.269,gca_avoidance_task,2022.2.4,144.12793992699036,
,,,,,,,,,2,0,2,0,,,,,,,,,,,,,,,,,,,,,,,,,,,,,,2.0,2.8927831002511084,,,,,,,,,,,,,,,,,,,,52,C,2024-01-16_08h33.52.269,gca_avoidance_task,2022.2.4,144.12793992699036,
,,,,,,,,,3,0,3,0,,,,,,,,,,,,,,,,,,,,,,,,,,,,,,3.0,1.4338682000525296,,,,,,,,,,,,,,,,,,,,52,C,2024-01-16_08h33.52.269,gca_avoidance_task,2022.2.4,144.12793992699036,
,,,,,,,,,4,0,4,0,,,,,,,,,,,,,,,,,,,,,,,,,,,,,,3.0,3.464750099927187,,,,,,,,,,,,,,,,,,,,52,C,2024-01-16_08h33.52.269,gca_avoidance_task,2022.2.4,144.12793992699036,
,,,,,,,,,5,0,5,0,,,,,,,,,,,,,,,,,,,,,,,,,,,,,,4.0,2.224801099859178,,,,,,,,,,,,,,,,,,,,52,C,2024-01-16_08h33.52.269,gca_avoidance_task,2022.2.4,144.12793992699036,
,,,,,,,,,6,0,6,0,,,,,,,,,,,,,,,,,,,,,,,,,,,,,,6.0,1.3260176996700466,,,,,,,,,,,,,,,,,,,,52,C,2024-01-16_08h33.52.269,gca_avoidance_task,2022.2.4,144.12793992699036,
,,,,,,,,,7,0,7,0,,,,,,,,,,,,,,,,,,,,,,,,,,,,,,5.0,2.5974802998825908,,,,,,,,,,,,,,,,,,,,52,C,2024-01-16_08h33.52.269,gca_avoidance_task,2022.2.4,144.12793992699036,
,,,,,,,,,8,0,8,0,,,,,,,,,,,,,,,,,,,,,,,,,,,,,,5.0,1.1892948998138309,,,,,,,,,,,,,,,,,,,,52,C,2024-01-16_08h33.52.269,gca_avoidance_task,2022.2.4,144.12793992699036,
,,,,,,,,,9,0,9,0,,,,,,,,,,,,,,,,,,,,,,,,,,,,,,5.0,4.191834500059485,,,,,,,,,,,,,,,,,,,,52,C,2024-01-16_08h33.52.269,gca_avoidance_task,2022.2.4,144.12793992699036,
,,,,,,,,,10,0,10,0,,,,,,,,,,,,,,,,,,,,,,,,,,,,,,4.0,4.473718699999154,,,,,,,,,,,,,,,,,,,,52,C,2024-01-16_08h33.52.269,gca_avoidance_task,2022.2.4,144.12793992699036,
,,,,,,,,,11,0,11,0,,,,,,,,,,,,,,,,,,,,,,,,,,,,,,5.0,1.133587900083512,,,,,,,,,,,,,,,,,,,,52,C,2024-01-16_08h33.52.269,gca_avoidance_task,2022.2.4,144.12793992699036,
,,,,,,,,,12,0,12,0,,,,,,,,,,,,,,,,,,,,,,,,,,,,,,5.0,3.258040000218898,,,,,,,,,,,,,,,,,,,,52,C,2024-01-16_08h33.52.269,gca_avoidance_task,2022.2.4,144.12793992699036,
,,,,,,,,,13,0,13,0,,,,,,,,,,,,,,,,,,,,,,,,,,,,,,6.0,0.8154894998297095,,,,,,,,,,,,,,,,,,,,52,C,2024-01-16_08h33.52.269,gca_avoidance_task,2022.2.4,144.12793992699036,
,,,,,,,,,14,0,14,0,,,,,,,,,,,,,,,,,,,,,,,,,,,,,,7.0,0.7263825996778905,,,,,,,,,,,,,,,,,,,,52,C,2024-01-16_08h33.52.269,gca_avoidance_task,2022.2.4,144.12793992699036,
,,,,,,,,,15,0,15,0,,,,,,,,,,,,,,,,,,,,,,,,,,,,,,6.0,2.529432900249958,,,,,,,,,,,,,,,,,,,,52,C,2024-01-16_08h33.52.269,gca_avoidance_task,2022.2.4,144.12793992699036,
,,,,,,,,,16,0,16,0,,,,,,,,,,,,,,,,,,,,,,,,,,,,,,7.0,0.7963706003502011,,,,,,,,,,,,,,,,,,,,52,C,2024-01-16_08h33.52.269,gca_avoidance_task,2022.2.4,144.12793992699036,
,,,,,,,,,17,0,17,0,,,,,,,,,,,,,,,,,,,,,,,,,,,,,,6.0,2.0281879999674857,,,,,,,,,,,,,,,,,,,,52,C,2024-01-16_08h33.52.269,gca_avoidance_task,2022.2.4,144.12793992699036,
positions.xlsx,stimuli.xlsx,stimuli/Social1.png,stimuli/Social2.png,stimuli/Nonsocial2.png,stimuli/Nonsocial1.png,cs_plus_ns,,,,,,,0,0,0,0,0,0,0,1,,,,,,,,,,,,,,,,,,,,,,,,1981.322586900089,2032.6846882998943,8.0,6.75980049977079,,,,,,,,,,,,,,,,52,C,2024-01-16_08h33.52.269,gca_avoidance_task,2022.2.4,144.12793992699036,
positions.xlsx,stimuli.xlsx,stimuli/Social1.png,stimuli/Social2.png,stimuli/Nonsocial2.png,stimuli/Nonsocial1.png,cs_plus_s,,,,,,,0,0,0,0,0,1,1,0,,,,,,,,,,,,,,,,,,,,,,,,,2042.1773538002744,7.0,7.00660640001297,,,,,,,,,,,,,,,,52,C,2024-01-16_08h33.52.269,gca_avoidance_task,2022.2.4,144.12793992699036,
positions.xlsx,stimuli.xlsx,stimuli/Social1.png,stimuli/Social2.png,stimuli/Nonsocial2.png,stimuli/Nonsocial1.png,cs_minus_ns,,,,,,,0,0,0,0,0,2,2,3,,,,,,,,,,,,,,,,,,,,,,,,,2052.8644131999463,7.0,5.059247600380331,,,,,,,,,,,,,,,,52,C,2024-01-16_08h33.52.269,gca_avoidance_task,2022.2.4,144.12793992699036,
positions.xlsx,stimuli.xlsx,stimuli/Social1.png,stimuli/Social2.png,stimuli/Nonsocial2.png,stimuli/Nonsocial1.png,cs_minus_s,,,,,,,0,0,0,0,0,3,3,2,,,,,,,,,,,,,,,,,,,,,,,,,2061.968194700312,6.0,3.0075085000135005,,,,,,,,,,,,,,,,52,C,2024-01-16_08h33.52.269,gca_avoidance_task,2022.2.4,144.12793992699036,
positions.xlsx,stimuli.xlsx,stimuli/Social1.png,stimuli/Social2.png,stimuli/Nonsocial2.png,stimuli/Nonsocial1.png,,"(0.7, 0.5)",cs_plus_s,,,,,0,0,0,0,,,,,0,0,0,2,,,,,,,,,,,,,,,,,,,,,,,,2066.0166521999054,2083.314593200106,0,shock,1,0.31928229983896017,0.3192857000976801,2083.647894900292,,,,,,,,52,C,2024-01-16_08h33.52.269,gca_avoidance_task,2022.2.4,144.12793992699036,
positions.xlsx,stimuli.xlsx,stimuli/Social1.png,stimuli/Social2.png,stimuli/Nonsocial2.png,stimuli/Nonsocial1.png,,"(-0.7, -0.5)",cs_plus_s,,,,,0,0,0,0,,,,,0,1,1,1,,,,,,,,,,,,,,,,,,,,,,,,,2093.9738540002145,0,shock,1,0.4584634001366794,0.45846719993278384,2094.4391677998938,,,,,,,,52,C,2024-01-16_08h33.52.269,gca_avoidance_task,2022.2.4,144.12793992699036,
positions.xlsx,stimuli.xlsx,stimuli/Social1.png,stimuli/Social2.png,stimuli/Nonsocial2.png,stimuli/Nonsocial1.png,,"(-0.7, 0.5)",cs_plus_s,,,,,0,0,0,0,,,,,0,2,2,0,,,,,,,,,,,,,,,,,,,,,,,,,2104.0776396999136,0,none,0,,,2109.091308100149,,,,,,,,52,C,2024-01-16_08h33.52.269,gca_avoidance_task,2022.2.4,144.12793992699036,
positions.xlsx,stimuli.xlsx,stimuli/Social1.png,stimuli/Social2.png,stimuli/Nonsocial2.png,stimuli/Nonsocial1.png,,"(-0.7, 0.5)",cs_plus_ns,,,,,0,0,0,0,,,,,0,3,3,8,,,,,,,,,,,,,,,,,,,,,,,,,2118.4867703001946,0,shock,1,0.5355370999313891,0.5355407996103168,2119.0284505998716,,,,,,,,52,C,2024-01-16_08h33.52.269,gca_avoidance_task,2022.2.4,144.12793992699036,
positions.xlsx,stimuli.xlsx,stimuli/Social1.png,stimuli/Social2.png,stimuli/Nonsocial2.png,stimuli/Nonsocial1.png,,"(0.7, 0.5)",cs_plus_ns,,,,,0,0,0,0,,,,,0,4,4,10,,,,,,,,,,,,,,,,,,,,,,,,,2128.0489020003006,0,none,0,,,2133.0556771000847,,,,,,,,52,C,2024-01-16_08h33.52.269,gca_avoidance_task,2022.2.4,144.12793992699036,
positions.xlsx,stimuli.xlsx,stimuli/Social1.png,stimuli/Social2.png,stimuli/Nonsocial2.png,stimuli/Nonsocial1.png,,"(-0.7, -0.5)",cs_plus_ns,,,,,0,0,0,0,,,,,0,5,5,9,,,,,,,,,,,,,,,,,,,,,,,,,2142.9024120001122,0,none,0,,,2147.9092135000974,,,,,,,,52,C,2024-01-16_08h33.52.269,gca_avoidance_task,2022.2.4,144.12793992699036,
positions.xlsx,stimuli.xlsx,stimuli/Social1.png,stimuli/Social2.png,stimuli/Nonsocial2.png,stimuli/Nonsocial1.png,,"(0.7, 0.5)",cs_minus_ns,,,,,0,0,0,0,,,,,0,6,6,14,,,,,,,,,,,,,,,,,,,,,,,,,2158.2351732999086,5,reward,1,1.791545799933374,1.7915494996123016,2160.040690300055,,,,,,,,52,C,2024-01-16_08h33.52.269,gca_avoidance_task,2022.2.4,144.12793992699036,
positions.xlsx,stimuli.xlsx,stimuli/Social1.png,stimuli/Social2.png,stimuli/Nonsocial2.png,stimuli/Nonsocial1.png,,"(-0.7, 0.5)",cs_minus_s,,,,,0,0,0,0,,,,,0,7,7,4,,,,,,,,,,,,,,,,,,,,,,,,,2169.4013924002647,10,reward,1,0.26354499999433756,0.2635487001389265,2169.6722027002834,,,,,,,,52,C,2024-01-16_08h33.52.269,gca_avoidance_task,2022.2.4,144.12793992699036,
positions.xlsx,stimuli.xlsx,stimuli/Social1.png,stimuli/Social2.png,stimuli/Nonsocial2.png,stimuli/Nonsocial1.png,,"(0.7, -0.5)",cs_plus_s,,,,,0,0,0,0,,,,,0,8,8,3,,,,,,,,,,,,,,,,,,,,,,,,,2179.7065914999694,10,shock,1,0.24327650014311075,0.2432802002876997,2179.9565260000527,,,,,,,,52,C,2024-01-16_08h33.52.269,gca_avoidance_task,2022.2.4,144.12793992699036,
positions.xlsx,stimuli.xlsx,stimuli/Social1.png,stimuli/Social2.png,stimuli/Nonsocial2.png,stimuli/Nonsocial1.png,,"(0.7, -0.5)",cs_minus_s,,,,,0,0,0,0,,,,,0,9,9,7,,,,,,,,,,,,,,,,,,,,,,,,,2188.5742143001407,15,reward,1,0.5488712000660598,0.5488744000904262,2189.1297681001015,,,,,,,,52,C,2024-01-16_08h33.52.269,gca_avoidance_task,2022.2.4,144.12793992699036,
positions.xlsx,stimuli.xlsx,stimuli/Social1.png,stimuli/Social2.png,stimuli/Nonsocial2.png,stimuli/Nonsocial1.png,,"(0.7, -0.5)",cs_minus_ns,,,,,0,0,0,0,,,,,0,10,10,15,,,,,,,,,,,,,,,,,,,,,,,,,2198.747419900261,20,reward,1,0.4445329001173377,0.44453660026192665,2199.2057741000317,,,,,,,,52,C,2024-01-16_08h33.52.269,gca_avoidance_task,2022.2.4,144.12793992699036,
positions.xlsx,stimuli.xlsx,stimuli/Social1.png,stimuli/Social2.png,stimuli/Nonsocial2.png,stimuli/Nonsocial1.png,,"(-0.7, -0.5)",cs_minus_s,,,,,0,0,0,0,,,,,0,11,11,5,,,,,,,,,,,,,,,,,,,,,,,,,2208.566472799983,25,reward,1,0.507156299892813,0.5071596000343561,2209.080363200046,,,,,,,,52,C,2024-01-16_08h33.52.269,gca_avoidance_task,2022.2.4,144.12793992699036,
positions.xlsx,stimuli.xlsx,stimuli/Social1.png,stimuli/Social2.png,stimuli/Nonsocial2.png,stimuli/Nonsocial1.png,,"(0.7, 0.5)",cs_minus_s,,,,,0,0,0,0,,,,,0,12,12,6,,,,,,,,,,,,,,,,,,,,,,,,,2218.6147023001686,30,reward,1,0.5072753001004457,0.5072785001248121,2219.1285490002483,,,,,,,,52,C,2024-01-16_08h33.52.269,gca_avoidance_task,2022.2.4,144.12793992699036,
positions.xlsx,stimuli.xlsx,stimuli/Social1.png,stimuli/Social2.png,stimuli/Nonsocial2.png,stimuli/Nonsocial1.png,,"(-0.7, -0.5)",cs_minus_ns,,,,,0,0,0,0,,,,,0,13,13,13,,,,,,,,,,,,,,,,,,,,,,,,,2229.2948044999503,35,reward,1,0.5004328000359237,0.5004365001805127,2229.801734500099,,,,,,,,52,C,2024-01-16_08h33.52.269,gca_avoidance_task,2022.2.4,144.12793992699036,
positions.xlsx,stimuli.xlsx,stimuli/Social1.png,stimuli/Social2.png,stimuli/Nonsocial2.png,stimuli/Nonsocial1.png,,"(0.7, -0.5)",cs_plus_ns,,,,,0,0,0,0,,,,,0,14,14,11,,,,,,,,,,,,,,,,,,,,,,,,,2239.0999648999423,35,shock,1,0.45843200013041496,0.4584353999234736,2239.565259099938,,,,,,,,52,C,2024-01-16_08h33.52.269,gca_avoidance_task,2022.2.4,144.12793992699036,
positions.xlsx,stimuli.xlsx,stimuli/Social1.png,stimuli/Social2.png,stimuli/Nonsocial2.png,stimuli/Nonsocial1.png,,"(-0.7, 0.5)",cs_minus_ns,,,,,0,0,0,0,,,,,0,15,15,12,,,,,,,,,,,,,,,,,,,,,,,,,2249.7662073001266,40,reward,1,0.4168972000479698,0.41690100030973554,2250.189805299975,,,,,,,,52,C,2024-01-16_08h33.52.269,gca_avoidance_task,2022.2.4,144.12793992699036,
positions.xlsx,stimuli.xlsx,stimuli/Social1.png,stimuli/Social2.png,stimuli/Nonsocial2.png,stimuli/Nonsocial1.png,,"(-0.7, 0.5)",cs_plus_ns,,,,,0,0,0,0,,,,,1,0,16,8,,,,,,,,,,,,,,,,,,,,,,,,,2260.335192200262,40,shock,1,0.40974800009280443,0.41807839972898364,2260.7588332998566,,,,,,,,52,C,2024-01-16_08h33.52.269,gca_avoidance_task,2022.2.4,144.12793992699036,
positions.xlsx,stimuli.xlsx,stimuli/Social1.png,stimuli/Social2.png,stimuli/Nonsocial2.png,stimuli/Nonsocial1.png,,"(-0.7, 0.5)",cs_plus_s,,,,,0,0,0,0,,,,,1,1,17,0,,,,,,,,,,,,,,,,,,,,,,,,,2270.6126008001156,40,none,0,,,2275.619339399971,,,,,,,,52,C,2024-01-16_08h33.52.269,gca_avoidance_task,2022.2.4,144.12793992699036,
positions.xlsx,stimuli.xlsx,stimuli/Social1.png,stimuli/Social2.png,stimuli/Nonsocial2.png,stimuli/Nonsocial1.png,,"(-0.7, -0.5)",cs_minus_s,,,,,0,0,0,0,,,,,1,2,18,5,,,,,,,,,,,,,,,,,,,,,,,,,2285.542543699965,45,reward,1,0.555377600248903,0.5553810000419617,2286.105057900306,,,,,,,,52,C,2024-01-16_08h33.52.269,gca_avoidance_task,2022.2.4,144.12793992699036,
positions.xlsx,stimuli.xlsx,stimuli/Social1.png,stimuli/Social2.png,stimuli/Nonsocial2.png,stimuli/Nonsocial1.png,,"(0.7, -0.5)",cs_minus_ns,,,,,0,0,0,0,,,,,1,3,19,15,,,,,,,,,,,,,,,,,,,,,,,,,2296.215718900319,50,reward,1,0.5974218999035656,0.5974252000451088,2296.8199105001986,,,,,,,,52,C,2024-01-16_08h33.52.269,gca_avoidance_task,2022.2.4,144.12793992699036,
positions.xlsx,stimuli.xlsx,stimuli/Social1.png,stimuli/Social2.png,stimuli/Nonsocial2.png,stimuli/Nonsocial1.png,,"(-0.7, 0.5)",cs_minus_s,,,,,0,0,0,0,,,,,1,4,20,4,,,,,,,,,,,,,,,,,,,,,,,,,2305.875078700017,55,reward,1,0.5696558998897672,0.5696594999171793,2306.451456800103,,,,,,,,52,C,2024-01-16_08h33.52.269,gca_avoidance_task,2022.2.4,144.12793992699036,
positions.xlsx,stimuli.xlsx,stimuli/Social1.png,stimuli/Social2.png,stimuli/Nonsocial2.png,stimuli/Nonsocial1.png,,"(0.7, -0.5)",cs_plus_s,,,,,0,0,0,0,,,,,1,5,21,3,,,,,,,,,,,,,,,,,,,,,,,,,2316.069124100264,55,none,0,,,2321.0758521999232,,,,,,,,52,C,2024-01-16_08h33.52.269,gca_avoidance_task,2022.2.4,144.12793992699036,
positions.xlsx,stimuli.xlsx,stimuli/Social1.png,stimuli/Social2.png,stimuli/Nonsocial2.png,stimuli/Nonsocial1.png,,"(0.7, -0.5)",cs_minus_s,,,,,0,0,0,0,,,,,1,6,22,7,,,,,,,,,,,,,,,,,,,,,,,,,2330.38103820011,60,reward,1,0.5077251000329852,0.5077285999432206,2330.8949424000457,,,,,,,,52,C,2024-01-16_08h33.52.269,gca_avoidance_task,2022.2.4,144.12793992699036,
positions.xlsx,stimuli.xlsx,stimuli/Social1.png,stimuli/Social2.png,stimuli/Nonsocial2.png,stimuli/Nonsocial1.png,,"(0.7, 0.5)",cs_minus_s,,,,,0,0,0,0,,,,,1,7,23,6,,,,,,,,,,,,,,,,,,,,,,,,,2340.9361633001827,65,reward,1,0.5005493997596204,0.5005530999042094,2341.4430877999403,,,,,,,,52,C,2024-01-16_08h33.52.269,gca_avoidance_task,2022.2.4,144.12793992699036,
positions.xlsx,stimuli.xlsx,stimuli/Social1.png,stimuli/Social2.png,stimuli/Nonsocial2.png,stimuli/Nonsocial1.png,,"(-0.7, -0.5)",cs_plus_s,,,,,0,0,0,0,,,,,1,8,24,1,,,,,,,,,,,,,,,,,,,,,,,,,2350.4913516002707,65,none,0,,,2355.4980593998916,,,,,,,,52,C,2024-01-16_08h33.52.269,gca_avoidance_task,2022.2.4,144.12793992699036,
positions.xlsx,stimuli.xlsx,stimuli/Social1.png,stimuli/Social2.png,stimuli/Nonsocial2.png,stimuli/Nonsocial1.png,,"(0.7, -0.5)",cs_plus_ns,,,,,0,0,0,0,,,,,1,9,25,11,,,,,,,,,,,,,,,,,,,,,,,,,2364.4977501998655,65,none,0,,,2369.504449199885,,,,,,,,52,C,2024-01-16_08h33.52.269,gca_avoidance_task,2022.2.4,144.12793992699036,
positions.xlsx,stimuli.xlsx,stimuli/Social1.png,stimuli/Social2.png,stimuli/Nonsocial2.png,stimuli/Nonsocial1.png,,"(-0.7, -0.5)",cs_minus_ns,,,,,0,0,0,0,,,,,1,10,26,13,,,,,,,,,,,,,,,,,,,,,,,,,2378.476350700017,70,reward,1,0.6251918999478221,0.6251955996267498,2379.1152164000086,,,,,,,,52,C,2024-01-16_08h33.52.269,gca_avoidance_task,2022.2.4,144.12793992699036,
positions.xlsx,stimuli.xlsx,stimuli/Social1.png,stimuli/Social2.png,stimuli/Nonsocial2.png,stimuli/Nonsocial1.png,,"(-0.7, 0.5)",cs_minus_ns,,,,,0,0,0,0,,,,,1,11,27,12,,,,,,,,,,,,,,,,,,,,,,,,,2389.1425688001327,75,reward,1,0.4653336997143924,0.4653372997418046,2389.6147718001157,,,,,,,,52,C,2024-01-16_08h33.52.269,gca_avoidance_task,2022.2.4,144.12793992699036,
positions.xlsx,stimuli.xlsx,stimuli/Social1.png,stimuli/Social2.png,stimuli/Nonsocial2.png,stimuli/Nonsocial1.png,,"(0.7, 0.5)",cs_plus_ns,,,,,0,0,0,0,,,,,1,12,28,10,,,,,,,,,,,,,,,,,,,,,,,,,2399.3574383002706,75,none,0,,,2404.364186500199,,,,,,,,52,C,2024-01-16_08h33.52.269,gca_avoidance_task,2022.2.4,144.12793992699036,
positions.xlsx,stimuli.xlsx,stimuli/Social1.png,stimuli/Social2.png,stimuli/Nonsocial2.png,stimuli/Nonsocial1.png,,"(0.7, 0.5)",cs_minus_ns,,,,,0,0,0,0,,,,,1,13,29,14,,,,,,,,,,,,,,,,,,,,,,,,,2414.620717300102,80,reward,1,0.5417284001596272,0.5417325999587774,2415.169309400022,,,,,,,,52,C,2024-01-16_08h33.52.269,gca_avoidance_task,2022.2.4,144.12793992699036,
positions.xlsx,stimuli.xlsx,stimuli/Social1.png,stimuli/Social2.png,stimuli/Nonsocial2.png,stimuli/Nonsocial1.png,,"(-0.7, -0.5)",cs_plus_ns,,,,,0,0,0,0,,,,,1,14,30,9,,,,,,,,,,,,,,,,,,,,,,,,,2424.898097800091,80,none,0,,,2429.911774000153,,,,,,,,52,C,2024-01-16_08h33.52.269,gca_avoidance_task,2022.2.4,144.12793992699036,
positions.xlsx,stimuli.xlsx,stimuli/Social1.png,stimuli/Social2.png,stimuli/Nonsocial2.png,stimuli/Nonsocial1.png,,"(0.7, 0.5)",cs_plus_s,,,,,0,0,0,0,,,,,1,15,31,2,,,,,,,,,,,,,,,,,,,,,,,,,2439.6683356002904,80,none,0,,,2444.6750691002235,,,,,,,,52,C,2024-01-16_08h33.52.269,gca_avoidance_task,2022.2.4,144.12793992699036,
positions.xlsx,stimuli.xlsx,stimuli/Social1.png,stimuli/Social2.png,stimuli/Nonsocial2.png,stimuli/Nonsocial1.png,,"(0.7, -0.5)",cs_minus_ns,,,,,0,0,0,0,,,,,,,,,0,0,0,15,,,,,,,,,,,,,,,,,,,,,2468.7366158002988,85,reward,1,0.5062552001327276,0.5062585999257863,2469.2504827002995,,,,,,,,52,C,2024-01-16_08h33.52.269,gca_avoidance_task,2022.2.4,144.12793992699036,
positions.xlsx,stimuli.xlsx,stimuli/Social1.png,stimuli/Social2.png,stimuli/Nonsocial2.png,stimuli/Nonsocial1.png,,"(0.7, 0.5)",cs_minus_ns,,,,,0,0,0,0,,,,,,,,,0,1,1,14,,,,,,,,,,,,,,,,,,,,,2478.3543104003184,90,reward,1,0.4307295000180602,0.43073289981111884,2478.791777000297,,,,,,,,52,C,2024-01-16_08h33.52.269,gca_avoidance_task,2022.2.4,144.12793992699036,
positions.xlsx,stimuli.xlsx,stimuli/Social1.png,stimuli/Social2.png,stimuli/Nonsocial2.png,stimuli/Nonsocial1.png,,"(0.7, -0.5)",cs_plus_ns,,,,,0,0,0,0,,,,,,,,,0,2,2,11,,,,,,,,,,,,,,,,,,,,,2488.2427823999897,90,shock,1,1.0001960997469723,1.0001996997743845,2489.2497074999847,,,,,,,,52,C,2024-01-16_08h33.52.269,gca_avoidance_task,2022.2.4,144.12793992699036,
positions.xlsx,stimuli.xlsx,stimuli/Social1.png,stimuli/Social2.png,stimuli/Nonsocial2.png,stimuli/Nonsocial1.png,,"(-0.7, -0.5)",cs_minus_ns,,,,,0,0,0,0,,,,,,,,,0,3,3,13,,,,,,,,,,,,,,,,,,,,,2499.388177399989,95,reward,1,0.45118190022185445,0.4511855002492666,2499.8464919002727,,,,,,,,52,C,2024-01-16_08h33.52.269,gca_avoidance_task,2022.2.4,144.12793992699036,
positions.xlsx,stimuli.xlsx,stimuli/Social1.png,stimuli/Social2.png,stimuli/Nonsocial2.png,stimuli/Nonsocial1.png,,"(0.7, -0.5)",cs_minus_s,,,,,0,0,0,0,,,,,,,,,0,4,4,7,,,,,,,,,,,,,,,,,,,,,2509.478084300179,100,reward,1,0.6672837003134191,0.6740946001373231,2510.1586162000895,,,,,,,,52,C,2024-01-16_08h33.52.269,gca_avoidance_task,2022.2.4,144.12793992699036,
positions.xlsx,stimuli.xlsx,stimuli/Social1.png,stimuli/Social2.png,stimuli/Nonsocial2.png,stimuli/Nonsocial1.png,,"(-0.7, 0.5)",cs_minus_ns,,,,,0,0,0,0,,,,,,,,,0,5,5,12,,,,,,,,,,,,,,,,,,,,,2520.2901254002936,105,reward,1,0.3890677997842431,0.3960040998645127,2520.692880500108,,,,,,,,52,C,2024-01-16_08h33.52.269,gca_avoidance_task,2022.2.4,144.12793992699036,
positions.xlsx,stimuli.xlsx,stimuli/Social1.png,stimuli/Social2.png,stimuli/Nonsocial2.png,stimuli/Nonsocial1.png,,"(0.7, -0.5)",cs_plus_s,,,,,0,0,0,0,,,,,,,,,0,6,6,3,,,,,,,,,,,,,,,,,,,,,2529.9980660001747,105,none,0,,,2535.0048437002115,,,,,,,,52,C,2024-01-16_08h33.52.269,gca_avoidance_task,2022.2.4,144.12793992699036,
positions.xlsx,stimuli.xlsx,stimuli/Social1.png,stimuli/Social2.png,stimuli/Nonsocial2.png,stimuli/Nonsocial1.png,,"(0.7, 0.5)",cs_plus_s,,,,,0,0,0,0,,,,,,,,,0,7,7,2,,,,,,,,,,,,,,,,,,,,,2544.3933426998556,105,none,0,,,2549.4000996001996,,,,,,,,52,C,2024-01-16_08h33.52.269,gca_avoidance_task,2022.2.4,144.12793992699036,
positions.xlsx,stimuli.xlsx,stimuli/Social1.png,stimuli/Social2.png,stimuli/Nonsocial2.png,stimuli/Nonsocial1.png,,"(-0.7, 0.5)",cs_minus_s,,,,,0,0,0,0,,,,,,,,,0,8,8,4,,,,,,,,,,,,,,,,,,,,,2558.9830392999575,110,reward,1,0.5278314999304712,0.5278352000750601,2559.517778799869,,,,,,,,52,C,2024-01-16_08h33.52.269,gca_avoidance_task,2022.2.4,144.12793992699036,
positions.xlsx,stimuli.xlsx,stimuli/Social1.png,stimuli/Social2.png,stimuli/Nonsocial2.png,stimuli/Nonsocial1.png,,"(0.7, 0.5)",cs_minus_s,,,,,0,0,0,0,,,,,,,,,0,9,9,6,,,,,,,,,,,,,,,,,,,,,2569.6214907001704,115,reward,1,0.5139961000531912,0.5140022998675704,2570.142302600201,,,,,,,,52,C,2024-01-16_08h33.52.269,gca_avoidance_task,2022.2.4,144.12793992699036,
positions.xlsx,stimuli.xlsx,stimuli/Social1.png,stimuli/Social2.png,stimuli/Nonsocial2.png,stimuli/Nonsocial1.png,,"(-0.7, 0.5)",cs_plus_s,,,,,0,0,0,0,,,,,,,,,0,10,10,0,,,,,,,,,,,,,,,,,,,,,2579.6558094001375,115,none,0,,,2584.662595400121,,,,,,,,52,C,2024-01-16_08h33.52.269,gca_avoidance_task,2022.2.4,144.12793992699036,
positions.xlsx,stimuli.xlsx,stimuli/Social1.png,stimuli/Social2.png,stimuli/Nonsocial2.png,stimuli/Nonsocial1.png,,"(-0.7, -0.5)",cs_plus_s,,,,,0,0,0,0,,,,,,,,,0,11,11,1,,,,,,,,,,,,,,,,,,,,,2594.6343801999465,115,none,0,,,2599.6411096001975,,,,,,,,52,C,2024-01-16_08h33.52.269,gca_avoidance_task,2022.2.4,144.12793992699036,
positions.xlsx,stimuli.xlsx,stimuli/Social1.png,stimuli/Social2.png,stimuli/Nonsocial2.png,stimuli/Nonsocial1.png,,"(-0.7, -0.5)",cs_minus_s,,,,,0,0,0,0,,,,,,,,,0,12,12,5,,,,,,,,,,,,,,,,,,,,,2609.404624800198,120,reward,1,0.5557516003027558,0.5626861001364887,2609.97407440003,,,,,,,,52,C,2024-01-16_08h33.52.269,gca_avoidance_task,2022.2.4,144.12793992699036,
positions.xlsx,stimuli.xlsx,stimuli/Social1.png,stimuli/Social2.png,stimuli/Nonsocial2.png,stimuli/Nonsocial1.png,,"(-0.7, -0.5)",cs_plus_ns,,,,,0,0,0,0,,,,,,,,,0,13,13,9,,,,,,,,,,,,,,,,,,,,,2618.6959871002473,120,none,0,,,2623.7026873999275,,,,,,,,52,C,2024-01-16_08h33.52.269,gca_avoidance_task,2022.2.4,144.12793992699036,
positions.xlsx,stimuli.xlsx,stimuli/Social1.png,stimuli/Social2.png,stimuli/Nonsocial2.png,stimuli/Nonsocial1.png,,"(-0.7, 0.5)",cs_plus_ns,,,,,0,0,0,0,,,,,,,,,0,14,14,8,,,,,,,,,,,,,,,,,,,,,2633.355089900084,120,none,0,,,2638.3618089002557,,,,,,,,52,C,2024-01-16_08h33.52.269,gca_avoidance_task,2022.2.4,144.12793992699036,
positions.xlsx,stimuli.xlsx,stimuli/Social1.png,stimuli/Social2.png,stimuli/Nonsocial2.png,stimuli/Nonsocial1.png,,"(0.7, 0.5)",cs_plus_ns,,,,,0,0,0,0,,,,,,,,,0,15,15,10,,,,,,,,,,,,,,,,,,,,,2647.5281159002334,120,none,0,,,2652.53489660006,,,,,,,,52,C,2024-01-16_08h33.52.269,gca_avoidance_task,2022.2.4,144.12793992699036,
positions.xlsx,stimuli.xlsx,stimuli/Social1.png,stimuli/Social2.png,stimuli/Nonsocial2.png,stimuli/Nonsocial1.png,,"(-0.7, -0.5)",cs_plus_ns,,,,,0,0,0,0,,,,,,,,,1,0,16,9,,,,,,,,,,,,,,,,,,,,,2662.340017300099,120,none,0,,,2667.3468110002577,,,,,,,,52,C,2024-01-16_08h33.52.269,gca_avoidance_task,2022.2.4,144.12793992699036,
positions.xlsx,stimuli.xlsx,stimuli/Social1.png,stimuli/Social2.png,stimuli/Nonsocial2.png,stimuli/Nonsocial1.png,,"(0.7, 0.5)",cs_plus_s,,,,,0,0,0,0,,,,,,,,,1,1,17,2,,,,,,,,,,,,,,,,,,,,,2676.3880533999763,120,none,0,,,2681.394820000045,,,,,,,,52,C,2024-01-16_08h33.52.269,gca_avoidance_task,2022.2.4,144.12793992699036,
positions.xlsx,stimuli.xlsx,stimuli/Social1.png,stimuli/Social2.png,stimuli/Nonsocial2.png,stimuli/Nonsocial1.png,,"(0.7, 0.5)",cs_minus_s,,,,,0,0,0,0,,,,,,,,,1,2,18,6,,,,,,,,,,,,,,,,,,,,,2690.595841200091,125,reward,1,0.7227466995827854,0.7227503997273743,2691.32500840025,,,,,,,,52,C,2024-01-16_08h33.52.269,gca_avoidance_task,2022.2.4,144.12793992699036,
positions.xlsx,stimuli.xlsx,stimuli/Social1.png,stimuli/Social2.png,stimuli/Nonsocial2.png,stimuli/Nonsocial1.png,,"(0.7, -0.5)",cs_plus_s,,,,,0,0,0,0,,,,,,,,,1,3,19,3,,,,,,,,,,,,,,,,,,,,,2700.5607234998606,125,none,0,,,2705.5674709999003,,,,,,,,52,C,2024-01-16_08h33.52.269,gca_avoidance_task,2022.2.4,144.12793992699036,
positions.xlsx,stimuli.xlsx,stimuli/Social1.png,stimuli/Social2.png,stimuli/Nonsocial2.png,stimuli/Nonsocial1.png,,"(-0.7, -0.5)",cs_plus_s,,,,,0,0,0,0,,,,,,,,,1,4,20,1,,,,,,,,,,,,,,,,,,,,,2714.1921887001954,125,none,0,,,2719.198930799961,,,,,,,,52,C,2024-01-16_08h33.52.269,gca_avoidance_task,2022.2.4,144.12793992699036,
positions.xlsx,stimuli.xlsx,stimuli/Social1.png,stimuli/Social2.png,stimuli/Nonsocial2.png,stimuli/Nonsocial1.png,,"(0.7, 0.5)",cs_plus_ns,,,,,0,0,0,0,,,,,,,,,1,5,21,10,,,,,,,,,,,,,,,,,,,,,2728.7887690998614,125,none,0,,,2733.7955893999897,,,,,,,,52,C,2024-01-16_08h33.52.269,gca_avoidance_task,2022.2.4,144.12793992699036,
positions.xlsx,stimuli.xlsx,stimuli/Social1.png,stimuli/Social2.png,stimuli/Nonsocial2.png,stimuli/Nonsocial1.png,,"(0.7, -0.5)",cs_minus_s,,,,,0,0,0,0,,,,,,,,,1,6,22,7,,,,,,,,,,,,,,,,,,,,,2743.9131693001837,130,reward,1,0.49324729992076755,0.4932508999481797,2744.4131527999416,,,,,,,,52,C,2024-01-16_08h33.52.269,gca_avoidance_task,2022.2.4,144.12793992699036,
positions.xlsx,stimuli.xlsx,stimuli/Social1.png,stimuli/Social2.png,stimuli/Nonsocial2.png,stimuli/Nonsocial1.png,,"(-0.7, 0.5)",cs_minus_s,,,,,0,0,0,0,,,,,,,,,1,7,23,4,,,,,,,,,,,,,,,,,,,,,2753.9961069999263,135,reward,1,0.5141754001379013,0.5141787002794445,2754.516907500103,,,,,,,,52,C,2024-01-16_08h33.52.269,gca_avoidance_task,2022.2.4,144.12793992699036,
positions.xlsx,stimuli.xlsx,stimuli/Social1.png,stimuli/Social2.png,stimuli/Nonsocial2.png,stimuli/Nonsocial1.png,,"(0.7, -0.5)",cs_plus_ns,,,,,0,0,0,0,,,,,,,,,1,8,24,11,,,,,,,,,,,,,,,,,,,,,2764.4192936001346,135,none,0,,,2769.432980200276,,,,,,,,52,C,2024-01-16_08h33.52.269,gca_avoidance_task,2022.2.4,144.12793992699036,
positions.xlsx,stimuli.xlsx,stimuli/Social1.png,stimuli/Social2.png,stimuli/Nonsocial2.png,stimuli/Nonsocial1.png,,"(-0.7, 0.5)",cs_minus_ns,,,,,0,0,0,0,,,,,,,,,1,9,25,12,,,,,,,,,,,,,,,,,,,,,2778.6062234002165,140,reward,1,0.5695700999349356,0.5695735001936555,2779.1825903002173,,,,,,,,52,C,2024-01-16_08h33.52.269,gca_avoidance_task,2022.2.4,144.12793992699036,
positions.xlsx,stimuli.xlsx,stimuli/Social1.png,stimuli/Social2.png,stimuli/Nonsocial2.png,stimuli/Nonsocial1.png,,"(-0.7, 0.5)",cs_plus_s,,,,,0,0,0,0,,,,,,,,,1,10,26,0,,,,,,,,,,,,,,,,,,,,,2788.4391908999532,140,none,0,,,2793.445966599975,,,,,,,,52,C,2024-01-16_08h33.52.269,gca_avoidance_task,2022.2.4,144.12793992699036,
positions.xlsx,stimuli.xlsx,stimuli/Social1.png,stimuli/Social2.png,stimuli/Nonsocial2.png,stimuli/Nonsocial1.png,,"(-0.7, 0.5)",cs_plus_ns,,,,,0,0,0,0,,,,,,,,,1,11,27,8,,,,,,,,,,,,,,,,,,,,,2802.54285359988,140,none,0,,,2807.549560100306,,,,,,,,52,C,2024-01-16_08h33.52.269,gca_avoidance_task,2022.2.4,144.12793992699036,
positions.xlsx,stimuli.xlsx,stimuli/Social1.png,stimuli/Social2.png,stimuli/Nonsocial2.png,stimuli/Nonsocial1.png,,"(0.7, 0.5)",cs_minus_ns,,,,,0,0,0,0,,,,,,,,,1,12,28,14,,,,,,,,,,,,,,,,,,,,,2817.160259800032,145,reward,1,0.5974153000861406,0.5974186998791993,2817.76447049994,,,,,,,,52,C,2024-01-16_08h33.52.269,gca_avoidance_task,2022.2.4,144.12793992699036,
positions.xlsx,stimuli.xlsx,stimuli/Social1.png,stimuli/Social2.png,stimuli/Nonsocial2.png,stimuli/Nonsocial1.png,,"(-0.7, -0.5)",cs_minus_ns,,,,,0,0,0,0,,,,,,,,,1,13,29,13,,,,,,,,,,,,,,,,,,,,,2826.923739899881,150,reward,1,0.5556113999336958,0.5556151000782847,2827.4862601999193,,,,,,,,52,C,2024-01-16_08h33.52.269,gca_avoidance_task,2022.2.4,144.12793992699036,
positions.xlsx,stimuli.xlsx,stimuli/Social1.png,stimuli/Social2.png,stimuli/Nonsocial2.png,stimuli/Nonsocial1.png,,"(0.7, -0.5)",cs_minus_ns,,,,,0,0,0,0,,,,,,,,,1,14,30,15,,,,,,,,,,,,,,,,,,,,,2836.6733842999674,155,reward,1,0.45148329995572567,0.4514870997518301,2837.1316677001305,,,,,,,,52,C,2024-01-16_08h33.52.269,gca_avoidance_task,2022.2.4,144.12793992699036,
positions.xlsx,stimuli.xlsx,stimuli/Social1.png,stimuli/Social2.png,stimuli/Nonsocial2.png,stimuli/Nonsocial1.png,,"(-0.7, -0.5)",cs_minus_s,,,,,0,0,0,0,,,,,,,,,1,15,31,5,,,,,,,,,,,,,,,,,,,,,2846.6174038001336,160,reward,1,0.7363470001146197,0.7363507999107242,2847.3604473001324,,,,,,,,52,C,2024-01-16_08h33.52.269,gca_avoidance_task,2022.2.4,144.12793992699036,
positions.xlsx,stimuli.xlsx,stimuli/Social1.png,stimuli/Social2.png,stimuli/Nonsocial2.png,stimuli/Nonsocial1.png,,"(-0.7, 0.5)",cs_minus_ns,,,,,0,0,0,0,,,,,,,,,2,0,32,12,,,,,,,,,,,,,,,,,,,,,2857.103106699884,165,reward,1,0.486714799888432,0.4867180995643139,2857.5962028000504,,,,,,,,52,C,2024-01-16_08h33.52.269,gca_avoidance_task,2022.2.4,144.12793992699036,
positions.xlsx,stimuli.xlsx,stimuli/Social1.png,stimuli/Social2.png,stimuli/Nonsocial2.png,stimuli/Nonsocial1.png,,"(-0.7, 0.5)",cs_plus_s,,,,,0,0,0,0,,,,,,,,,2,1,33,0,,,,,,,,,,,,,,,,,,,,,2867.8665793002583,165,none,0,,,2872.8733051000163,,,,,,,,52,C,2024-01-16_08h33.52.269,gca_avoidance_task,2022.2.4,144.12793992699036,
positions.xlsx,stimuli.xlsx,stimuli/Social1.png,stimuli/Social2.png,stimuli/Nonsocial2.png,stimuli/Nonsocial1.png,,"(-0.7, -0.5)",cs_plus_ns,,,,,0,0,0,0,,,,,,,,,2,2,34,9,,,,,,,,,,,,,,,,,,,,,2883.1367599000223,165,none,0,,,2888.143534100149,,,,,,,,52,C,2024-01-16_08h33.52.269,gca_avoidance_task,2022.2.4,144.12793992699036,
positions.xlsx,stimuli.xlsx,stimuli/Social1.png,stimuli/Social2.png,stimuli/Nonsocial2.png,stimuli/Nonsocial1.png,,"(0.7, -0.5)",cs_plus_ns,,,,,0,0,0,0,,,,,,,,,2,3,35,11,,,,,,,,,,,,,,,,,,,,,2898.2195435999893,165,none,0,,,2903.226270100102,,,,,,,,52,C,2024-01-16_08h33.52.269,gca_avoidance_task,2022.2.4,144.12793992699036,
positions.xlsx,stimuli.xlsx,stimuli/Social1.png,stimuli/Social2.png,stimuli/Nonsocial2.png,stimuli/Nonsocial1.png,,"(-0.7, -0.5)",cs_plus_s,,,,,0,0,0,0,,,,,,,,,2,4,36,1,,,,,,,,,,,,,,,,,,,,,2912.434278199915,165,none,0,,,2917.441039700061,,,,,,,,52,C,2024-01-16_08h33.52.269,gca_avoidance_task,2022.2.4,144.12793992699036,
positions.xlsx,stimuli.xlsx,stimuli/Social1.png,stimuli/Social2.png,stimuli/Nonsocial2.png,stimuli/Nonsocial1.png,,"(0.7, 0.5)",cs_plus_ns,,,,,0,0,0,0,,,,,,,,,2,5,37,10,,,,,,,,,,,,,,,,,,,,,2927.093387800269,165,none,0,,,2932.1001412998885,,,,,,,,52,C,2024-01-16_08h33.52.269,gca_avoidance_task,2022.2.4,144.12793992699036,
positions.xlsx,stimuli.xlsx,stimuli/Social1.png,stimuli/Social2.png,stimuli/Nonsocial2.png,stimuli/Nonsocial1.png,,"(-0.7, 0.5)",cs_plus_ns,,,,,0,0,0,0,,,,,,,,,2,6,38,8,,,,,,,,,,,,,,,,,,,,,2941.8358777998947,165,none,0,,,2946.8426075000316,,,,,,,,52,C,2024-01-16_08h33.52.269,gca_avoidance_task,2022.2.4,144.12793992699036,
positions.xlsx,stimuli.xlsx,stimuli/Social1.png,stimuli/Social2.png,stimuli/Nonsocial2.png,stimuli/Nonsocial1.png,,"(0.7, -0.5)",cs_minus_ns,,,,,0,0,0,0,,,,,,,,,2,7,39,15,,,,,,,,,,,,,,,,,,,,,2956.2311089001596,170,reward,1,0.6807524999603629,0.6807560999877751,2956.918641900178,,,,,,,,52,C,2024-01-16_08h33.52.269,gca_avoidance_task,2022.2.4,144.12793992699036,
positions.xlsx,stimuli.xlsx,stimuli/Social1.png,stimuli/Social2.png,stimuli/Nonsocial2.png,stimuli/Nonsocial1.png,,"(0.7, -0.5)",cs_minus_s,,,,,0,0,0,0,,,,,,,,,2,8,40,7,,,,,,,,,,,,,,,,,,,,,2966.1335016000085,175,reward,1,0.5421319999732077,0.5421357001177967,2966.682078999933,,,,,,,,52,C,2024-01-16_08h33.52.269,gca_avoidance_task,2022.2.4,144.12793992699036,
positions.xlsx,stimuli.xlsx,stimuli/Social1.png,stimuli/Social2.png,stimuli/Nonsocial2.png,stimuli/Nonsocial1.png,,"(-0.7, -0.5)",cs_minus_ns,,,,,0,0,0,0,,,,,,,,,2,9,41,13,,,,,,,,,,,,,,,,,,,,,2975.69565720018,180,reward,1,0.528269300237298,0.5282731000334024,2976.2303333003074,,,,,,,,52,C,2024-01-16_08h33.52.269,gca_avoidance_task,2022.2.4,144.12793992699036,
positions.xlsx,stimuli.xlsx,stimuli/Social1.png,stimuli/Social2.png,stimuli/Nonsocial2.png,stimuli/Nonsocial1.png,,"(-0.7, 0.5)",cs_minus_s,,,,,0,0,0,0,,,,,,,,,2,10,42,4,,,,,,,,,,,,,,,,,,,,,2985.2507822001353,185,reward,1,0.49346650019288063,0.49347029998898506,2985.75081650028,,,,,,,,52,C,2024-01-16_08h33.52.269,gca_avoidance_task,2022.2.4,144.12793992699036,
positions.xlsx,stimuli.xlsx,stimuli/Social1.png,stimuli/Social2.png,stimuli/Nonsocial2.png,stimuli/Nonsocial1.png,,"(0.7, 0.5)",cs_plus_s,,,,,0,0,0,0,,,,,,,,,2,11,43,2,,,,,,,,,,,,,,,,,,,,,2995.3962111002766,185,none,0,,,3000.402950000018,,,,,,,,52,C,2024-01-16_08h33.52.269,gca_avoidance_task,2022.2.4,144.12793992699036,
positions.xlsx,stimuli.xlsx,stimuli/Social1.png,stimuli/Social2.png,stimuli/Nonsocial2.png,stimuli/Nonsocial1.png,,"(-0.7, -0.5)",cs_minus_s,,,,,0,0,0,0,,,,,,,,,2,12,44,5,,,,,,,,,,,,,,,,,,,,,3009.569288900122,190,reward,1,0.5347862998023629,0.5347899999469519,3010.110965,,,,,,,,52,C,2024-01-16_08h33.52.269,gca_avoidance_task,2022.2.4,144.12793992699036,
positions.xlsx,stimuli.xlsx,stimuli/Social1.png,stimuli/Social2.png,stimuli/Nonsocial2.png,stimuli/Nonsocial1.png,,"(0.7, 0.5)",cs_minus_ns,,,,,0,0,0,0,,,,,,,,,2,13,45,14,,,,,,,,,,,,,,,,,,,,,3020.096623700112,195,reward,1,0.5208783000707626,0.5208817003294826,3020.624434399884,,,,,,,,52,C,2024-01-16_08h33.52.269,gca_avoidance_task,2022.2.4,144.12793992699036,
positions.xlsx,stimuli.xlsx,stimuli/Social1.png,stimuli/Social2.png,stimuli/Nonsocial2.png,stimuli/Nonsocial1.png,,"(0.7, 0.5)",cs_minus_s,,,,,0,0,0,0,,,,,,,,,2,14,46,6,,,,,,,,,,,,,,,,,,,,,3029.776795099955,200,reward,1,0.4583461997099221,0.458349899854511,3030.242098700255,,,,,,,,52,C,2024-01-16_08h33.52.269,gca_avoidance_task,2022.2.4,144.12793992699036,
positions.xlsx,stimuli.xlsx,stimuli/Social1.png,stimuli/Social2.png,stimuli/Nonsocial2.png,stimuli/Nonsocial1.png,,"(0.7, -0.5)",cs_plus_s,,,,,0,0,0,0,,,,,,,,,2,15,47,3,,,,,,,,,,,,,,,,,,,,,3039.4083847999573,200,none,0,,,3044.4150990000926,,,,,,,,52,C,2024-01-16_08h33.52.269,gca_avoidance_task,2022.2.4,144.12793992699036,
positions.xlsx,stimuli.xlsx,stimuli/Social1.png,stimuli/Social2.png,stimuli/Nonsocial2.png,stimuli/Nonsocial1.png,,"(0.7, 0.5)",cs_plus_s,,,,,0,0,0,0,,,,,,,,,3,0,48,2,,,,,,,,,,,,,,,,,,,,,3053.9077837001532,200,none,0,,,3058.914501800202,,,,,,,,52,C,2024-01-16_08h33.52.269,gca_avoidance_task,2022.2.4,144.12793992699036,
positions.xlsx,stimuli.xlsx,stimuli/Social1.png,stimuli/Social2.png,stimuli/Nonsocial2.png,stimuli/Nonsocial1.png,,"(0.7, -0.5)",cs_plus_s,,,,,0,0,0,0,,,,,,,,,3,1,49,3,,,,,,,,,,,,,,,,,,,,,3068.2891551000066,200,none,0,,,3073.295881900005,,,,,,,,52,C,2024-01-16_08h33.52.269,gca_avoidance_task,2022.2.4,144.12793992699036,
positions.xlsx,stimuli.xlsx,stimuli/Social1.png,stimuli/Social2.png,stimuli/Nonsocial2.png,stimuli/Nonsocial1.png,,"(0.7, -0.5)",cs_minus_ns,,,,,0,0,0,0,,,,,,,,,3,2,50,15,,,,,,,,,,,,,,,,,,,,,3083.219136300031,205,reward,1,0.5138841001316905,0.5138874002732337,3083.7399432002567,,,,,,,,52,C,2024-01-16_08h33.52.269,gca_avoidance_task,2022.2.4,144.12793992699036,
positions.xlsx,stimuli.xlsx,stimuli/Social1.png,stimuli/Social2.png,stimuli/Nonsocial2.png,stimuli/Nonsocial1.png,,"(-0.7, -0.5)",cs_minus_s,,,,,0,0,0,0,,,,,,,,,3,3,51,5,,,,,,,,,,,,,,,,,,,,,3093.489562100265,210,reward,1,0.4724603998474777,0.4724636999890208,3093.968737500254,,,,,,,,52,C,2024-01-16_08h33.52.269,gca_avoidance_task,2022.2.4,144.12793992699036,
positions.xlsx,stimuli.xlsx,stimuli/Social1.png,stimuli/Social2.png,stimuli/Nonsocial2.png,stimuli/Nonsocial1.png,,"(-0.7, -0.5)",cs_plus_s,,,,,0,0,0,0,,,,,,,,,3,4,52,1,,,,,,,,,,,,,,,,,,,,,3104.100246500224,210,none,0,,,3109.1069877999835,,,,,,,,52,C,2024-01-16_08h33.52.269,gca_avoidance_task,2022.2.4,144.12793992699036,
positions.xlsx,stimuli.xlsx,stimuli/Social1.png,stimuli/Social2.png,stimuli/Nonsocial2.png,stimuli/Nonsocial1.png,,"(-0.7, 0.5)",cs_minus_s,,,,,0,0,0,0,,,,,,,,,3,5,53,4,,,,,,,,,,,,,,,,,,,,,3117.87056499999,215,reward,1,0.5348879001103342,0.5349044003523886,3118.4121631002054,,,,,,,,52,C,2024-01-16_08h33.52.269,gca_avoidance_task,2022.2.4,144.12793992699036,
positions.xlsx,stimuli.xlsx,stimuli/Social1.png,stimuli/Social2.png,stimuli/Nonsocial2.png,stimuli/Nonsocial1.png,,"(-0.7, -0.5)",cs_minus_ns,,,,,0,0,0,0,,,,,,,,,3,6,54,13,,,,,,,,,,,,,,,,,,,,,3127.9673617002554,220,reward,1,0.520958200097084,0.5284289000555873,3128.5020360001363,,,,,,,,52,C,2024-01-16_08h33.52.269,gca_avoidance_task,2022.2.4,144.12793992699036,
positions.xlsx,stimuli.xlsx,stimuli/Social1.png,stimuli/Social2.png,stimuli/Nonsocial2.png,stimuli/Nonsocial1.png,,"(0.7, 0.5)",cs_minus_ns,,,,,0,0,0,0,,,,,,,,,3,7,55,14,,,,,,,,,,,,,,,,,,,,,3137.52252150001,225,reward,1,0.4997507999651134,0.49975410010665655,3138.0295017999597,,,,,,,,52,C,2024-01-16_08h33.52.269,gca_avoidance_task,2022.2.4,144.12793992699036,
positions.xlsx,stimuli.xlsx,stimuli/Social1.png,stimuli/Social2.png,stimuli/Nonsocial2.png,stimuli/Nonsocial1.png,,"(-0.7, 0.5)",cs_plus_ns,,,,,0,0,0,0,,,,,,,,,3,8,56,8,,,,,,,,,,,,,,,,,,,,,3147.3346283002757,225,none,0,,,3152.341396499891,,,,,,,,52,C,2024-01-16_08h33.52.269,gca_avoidance_task,2022.2.4,144.12793992699036,
positions.xlsx,stimuli.xlsx,stimuli/Social1.png,stimuli/Social2.png,stimuli/Nonsocial2.png,stimuli/Nonsocial1.png,,"(0.7, -0.5)",cs_minus_s,,,,,0,0,0,0,,,,,,,,,3,9,57,7,,,,,,,,,,,,,,,,,,,,,3161.368822600227,230,reward,1,0.7290424001403153,0.7290458003990352,3162.104885800276,,,,,,,,52,C,2024-01-16_08h33.52.269,gca_avoidance_task,2022.2.4,144.12793992699036,
positions.xlsx,stimuli.xlsx,stimuli/Social1.png,stimuli/Social2.png,stimuli/Nonsocial2.png,stimuli/Nonsocial1.png,,"(0.7, 0.5)",cs_plus_ns,,,,,0,0,0,0,,,,,,,,,3,10,58,10,,,,,,,,,,,,,,,,,,,,,3172.1183870001696,230,none,0,,,3177.1251693000086,,,,,,,,52,C,2024-01-16_08h33.52.269,gca_avoidance_task,2022.2.4,144.12793992699036,
positions.xlsx,stimuli.xlsx,stimuli/Social1.png,stimuli/Social2.png,stimuli/Nonsocial2.png,stimuli/Nonsocial1.png,,"(-0.7, -0.5)",cs_plus_ns,,,,,0,0,0,0,,,,,,,,,3,11,59,9,,,,,,,,,,,,,,,,,,,,,3186.492823800072,230,none,0,,,3191.4995528999716,,,,,,,,52,C,2024-01-16_08h33.52.269,gca_avoidance_task,2022.2.4,144.12793992699036,
positions.xlsx,stimuli.xlsx,stimuli/Social1.png,stimuli/Social2.png,stimuli/Nonsocial2.png,stimuli/Nonsocial1.png,,"(0.7, -0.5)",cs_plus_ns,,,,,0,0,0,0,,,,,,,,,3,12,60,11,,,,,,,,,,,,,,,,,,,,,3200.5686193001457,230,none,0,,,3205.5754275000654,,,,,,,,52,C,2024-01-16_08h33.52.269,gca_avoidance_task,2022.2.4,144.12793992699036,
positions.xlsx,stimuli.xlsx,stimuli/Social1.png,stimuli/Social2.png,stimuli/Nonsocial2.png,stimuli/Nonsocial1.png,,"(-0.7, 0.5)",cs_minus_ns,,,,,0,0,0,0,,,,,,,,,3,13,61,12,,,,,,,,,,,,,,,,,,,,,3214.943053500261,235,reward,1,0.5558015997521579,0.5558051997795701,3215.5055581000634,,,,,,,,52,C,2024-01-16_08h33.52.269,gca_avoidance_task,2022.2.4,144.12793992699036,
positions.xlsx,stimuli.xlsx,stimuli/Social1.png,stimuli/Social2.png,stimuli/Nonsocial2.png,stimuli/Nonsocial1.png,,"(-0.7, 0.5)",cs_plus_s,,,,,0,0,0,0,,,,,,,,,3,14,62,0,,,,,,,,,,,,,,,,,,,,,3225.5260060001165,235,none,0,,,3230.532715199981,,,,,,,,52,C,2024-01-16_08h33.52.269,gca_avoidance_task,2022.2.4,144.12793992699036,
positions.xlsx,stimuli.xlsx,stimuli/Social1.png,stimuli/Social2.png,stimuli/Nonsocial2.png,stimuli/Nonsocial1.png,,"(0.7, 0.5)",cs_minus_s,,,,,0,0,0,0,,,,,,,,,3,15,63,6,,,,,,,,,,,,,,,,,,,,,3239.5184666998684,240,reward,1,0.5000851997174323,0.5000890996307135,3240.0254093999974,,,,,,,,52,C,2024-01-16_08h33.52.269,gca_avoidance_task,2022.2.4,144.12793992699036,
positions.xlsx,stimuli.xlsx,stimuli/Social1.png,stimuli/Social2.png,stimuli/Nonsocial2.png,stimuli/Nonsocial1.png,,"(-0.7, 0.5)",cs_minus_ns,,,,,0,0,0,0,,,,,,,,,4,0,64,12,,,,,,,,,,,,,,,,,,,,,3249.4972258000635,245,reward,1,0.5554738999344409,0.5554773998446763,3250.0597163001075,,,,,,,,52,C,2024-01-16_08h33.52.269,gca_avoidance_task,2022.2.4,144.12793992699036,
positions.xlsx,stimuli.xlsx,stimuli/Social1.png,stimuli/Social2.png,stimuli/Nonsocial2.png,stimuli/Nonsocial1.png,,"(0.7, 0.5)",cs_minus_s,,,,,0,0,0,0,,,,,,,,,4,1,65,6,,,,,,,,,,,,,,,,,,,,,3258.948269800283,250,reward,1,0.45143499970436096,0.4514383999630809,3259.406584400218,,,,,,,,52,C,2024-01-16_08h33.52.269,gca_avoidance_task,2022.2.4,144.12793992699036,
positions.xlsx,stimuli.xlsx,stimuli/Social1.png,stimuli/Social2.png,stimuli/Nonsocial2.png,stimuli/Nonsocial1.png,,"(0.7, -0.5)",cs_plus_s,,,,,0,0,0,0,,,,,,,,,4,2,66,3,,,,,,,,,,,,,,,,,,,,,3269.288127500098,250,none,0,,,3274.2948374999687,,,,,,,,52,C,2024-01-16_08h33.52.269,gca_avoidance_task,2022.2.4,144.12793992699036,
positions.xlsx,stimuli.xlsx,stimuli/Social1.png,stimuli/Social2.png,stimuli/Nonsocial2.png,stimuli/Nonsocial1.png,,"(-0.7, -0.5)",cs_plus_s,,,,,0,0,0,0,,,,,,,,,4,3,67,1,,,,,,,,,,,,,,,,,,,,,3283.8708756999113,250,none,0,,,3288.877680900041,,,,,,,,52,C,2024-01-16_08h33.52.269,gca_avoidance_task,2022.2.4,144.12793992699036,
positions.xlsx,stimuli.xlsx,stimuli/Social1.png,stimuli/Social2.png,stimuli/Nonsocial2.png,stimuli/Nonsocial1.png,,"(-0.7, -0.5)",cs_plus_ns,,,,,0,0,0,0,,,,,,,,,4,4,68,9,,,,,,,,,,,,,,,,,,,,,3298.5091760000214,250,none,0,,,3303.5159501000308,,,,,,,,52,C,2024-01-16_08h33.52.269,gca_avoidance_task,2022.2.4,144.12793992699036,
positions.xlsx,stimuli.xlsx,stimuli/Social1.png,stimuli/Social2.png,stimuli/Nonsocial2.png,stimuli/Nonsocial1.png,,"(0.7, -0.5)",cs_minus_s,,,,,0,0,0,0,,,,,,,,,4,5,69,7,,,,,,,,,,,,,,,,,,,,,3312.161426300183,255,reward,1,0.500488099642098,0.5004917997866869,3312.668385399971,,,,,,,,52,C,2024-01-16_08h33.52.269,gca_avoidance_task,2022.2.4,144.12793992699036,
positions.xlsx,stimuli.xlsx,stimuli/Social1.png,stimuli/Social2.png,stimuli/Nonsocial2.png,stimuli/Nonsocial1.png,,"(0.7, 0.5)",cs_minus_ns,,,,,0,0,0,0,,,,,,,,,4,6,70,14,,,,,,,,,,,,,,,,,,,,,3321.4041444999166,260,reward,1,0.4931832002475858,0.4931869003921747,3321.9041319000535,,,,,,,,52,C,2024-01-16_08h33.52.269,gca_avoidance_task,2022.2.4,144.12793992699036,
positions.xlsx,stimuli.xlsx,stimuli/Social1.png,stimuli/Social2.png,stimuli/Nonsocial2.png,stimuli/Nonsocial1.png,,"(0.7, 0.5)",cs_plus_ns,,,,,0,0,0,0,,,,,,,,,4,7,71,10,,,,,,,,,,,,,,,,,,,,,3331.341272999998,260,none,0,,,3336.348002300132,,,,,,,,52,C,2024-01-16_08h33.52.269,gca_avoidance_task,2022.2.4,144.12793992699036,
positions.xlsx,stimuli.xlsx,stimuli/Social1.png,stimuli/Social2.png,stimuli/Nonsocial2.png,stimuli/Nonsocial1.png,,"(0.7, 0.5)",cs_plus_s,,,,,0,0,0,0,,,,,,,,,4,8,72,2,,,,,,,,,,,,,,,,,,,,,3346.3475732002407,260,none,0,,,3351.3543527000584,,,,,,,,52,C,2024-01-16_08h33.52.269,gca_avoidance_task,2022.2.4,144.12793992699036,
positions.xlsx,stimuli.xlsx,stimuli/Social1.png,stimuli/Social2.png,stimuli/Nonsocial2.png,stimuli/Nonsocial1.png,,"(-0.7, 0.5)",cs_minus_s,,,,,0,0,0,0,,,,,,,,,4,9,73,4,,,,,,,,,,,,,,,,,,,,,3360.478982999921,265,reward,1,0.5561067997477949,0.5561102000065148,3361.0414582001977,,,,,,,,52,C,2024-01-16_08h33.52.269,gca_avoidance_task,2022.2.4,144.12793992699036,
positions.xlsx,stimuli.xlsx,stimuli/Social1.png,stimuli/Social2.png,stimuli/Nonsocial2.png,stimuli/Nonsocial1.png,,"(-0.7, 0.5)",cs_plus_ns,,,,,0,0,0,0,,,,,,,,,4,10,74,8,,,,,,,,,,,,,,,,,,,,,3370.388280100189,265,none,0,,,3375.3950221003033,,,,,,,,52,C,2024-01-16_08h33.52.269,gca_avoidance_task,2022.2.4,144.12793992699036,
positions.xlsx,stimuli.xlsx,stimuli/Social1.png,stimuli/Social2.png,stimuli/Nonsocial2.png,stimuli/Nonsocial1.png,,"(0.7, -0.5)",cs_minus_ns,,,,,0,0,0,0,,,,,,,,,4,11,75,15,,,,,,,,,,,,,,,,,,,,,3385.1932459999807,270,reward,1,0.5629254998639226,0.562929299660027,3385.762680400163,,,,,,,,52,C,2024-01-16_08h33.52.269,gca_avoidance_task,2022.2.4,144.12793992699036,
positions.xlsx,stimuli.xlsx,stimuli/Social1.png,stimuli/Social2.png,stimuli/Nonsocial2.png,stimuli/Nonsocial1.png,,"(-0.7, -0.5)",cs_minus_s,,,,,0,0,0,0,,,,,,,,,4,12,76,5,,,,,,,,,,,,,,,,,,,,,3395.9705989998765,275,reward,1,0.6600595996715128,0.660063199698925,3396.637240299955,,,,,,,,52,C,2024-01-16_08h33.52.269,gca_avoidance_task,2022.2.4,144.12793992699036,
positions.xlsx,stimuli.xlsx,stimuli/Social1.png,stimuli/Social2.png,stimuli/Nonsocial2.png,stimuli/Nonsocial1.png,,"(-0.7, -0.5)",cs_minus_ns,,,,,0,0,0,0,,,,,,,,,4,13,77,13,,,,,,,,,,,,,,,,,,,,,3405.393836500123,280,reward,1,0.4653020999394357,0.46530550019815564,3405.8660682002082,,,,,,,,52,C,2024-01-16_08h33.52.269,gca_avoidance_task,2022.2.4,144.12793992699036,
positions.xlsx,stimuli.xlsx,stimuli/Social1.png,stimuli/Social2.png,stimuli/Nonsocial2.png,stimuli/Nonsocial1.png,,"(-0.7, 0.5)",cs_plus_s,,,,,0,0,0,0,,,,,,,,,4,14,78,0,,,,,,,,,,,,,,,,,,,,,3414.969870300032,280,none,0,,,3419.976617100183,,,,,,,,52,C,2024-01-16_08h33.52.269,gca_avoidance_task,2022.2.4,144.12793992699036,
positions.xlsx,stimuli.xlsx,stimuli/Social1.png,stimuli/Social2.png,stimuli/Nonsocial2.png,stimuli/Nonsocial1.png,,"(0.7, -0.5)",cs_plus_ns,,,,,0,0,0,0,,,,,,,,,4,15,79,11,,,,,,,,,,,,,,,,,,,,,3429.0387277002446,280,none,0,,,3434.0455366000533,,,,,,,,52,C,2024-01-16_08h33.52.269,gca_avoidance_task,2022.2.4,144.12793992699036,
positions.xlsx,stimuli.xlsx,stimuli/Social1.png,stimuli/Social2.png,stimuli/Nonsocial2.png,stimuli/Nonsocial1.png,cs_plus_s,,,,,,,0,0,0,0,,,,,,,,,,,,,0,0,0,0,,,,,,,,,,,,,3449.2393459002487,4.0,4.447554899845272,,,,,,,,,4.0,7.64584599994123,,,,,,52,C,2024-01-16_08h33.52.269,gca_avoidance_task,2022.2.4,144.12793992699036,
positions.xlsx,stimuli.xlsx,stimuli/Social1.png,stimuli/Social2.png,stimuli/Nonsocial2.png,stimuli/Nonsocial1.png,cs_plus_ns,,,,,,,0,0,0,0,,,,,,,,,,,,,0,1,1,1,,,,,,,,,,,,,3454.3989093001,3.0,6.965729899704456,,,,,,,,,,,,,,,,52,C,2024-01-16_08h33.52.269,gca_avoidance_task,2022.2.4,144.12793992699036,
positions.xlsx,stimuli.xlsx,stimuli/Social1.png,stimuli/Social2.png,stimuli/Nonsocial2.png,stimuli/Nonsocial1.png,cs_minus_s,,,,,,,0,0,0,0,,,,,,,,,,,,,0,2,2,2,,,,,,,,,,,,,3462.0305009000003,7.0,1.681784300133586,,,,,,,,,,,,,,,,52,C,2024-01-16_08h33.52.269,gca_avoidance_task,2022.2.4,144.12793992699036,
positions.xlsx,stimuli.xlsx,stimuli/Social1.png,stimuli/Social2.png,stimuli/Nonsocial2.png,stimuli/Nonsocial1.png,cs_minus_ns,,,,,,,0,0,0,0,,,,,,,,,,,,,0,3,3,3,,,,,,,,,,,,,3465.1554032000713,8.0,1.7577696000225842,,,,,,,,,,,,,,,,52,C,2024-01-16_08h33.52.269,gca_avoidance_task,2022.2.4,144.12793992699036,
positions.xlsx,stimuli.xlsx,stimuli/Social1.png,stimuli/Social2.png,stimuli/Nonsocial2.png,stimuli/Nonsocial1.png,cs_minus_s,,,,,,,0,0,0,0,,,,,,,,,,,,,,,,,0,0,0,2,,,,,,,,,,,,,,,,,,,,,,3467.69695150014,3472.175971900113,5,0.021929699927568436,2.02076099999249,52,C,2024-01-16_08h33.52.269,gca_avoidance_task,2022.2.4,144.12793992699036,
positions.xlsx,stimuli.xlsx,stimuli/Social1.png,stimuli/Social2.png,stimuli/Nonsocial2.png,stimuli/Nonsocial1.png,cs_plus_s,,,,,,,0,0,0,0,,,,,,,,,,,,,,,,,0,1,1,0,,,,,,,,,,,,,,,,,,,,,,,3486.869790600147,6,0.013647499959915876,2.354178899899125,52,C,2024-01-16_08h33.52.269,gca_avoidance_task,2022.2.4,144.12793992699036,
positions.xlsx,stimuli.xlsx,stimuli/Social1.png,stimuli/Social2.png,stimuli/Nonsocial2.png,stimuli/Nonsocial1.png,cs_plus_ns,,,,,,,0,0,0,0,,,,,,,,,,,,,,,,,0,2,2,1,,,,,,,,,,,,,,,,,,,,,,,3501.487288699951,7,0.01372959977015853,0.22272289963439107,52,C,2024-01-16_08h33.52.269,gca_avoidance_task,2022.2.4,144.12793992699036,
positions.xlsx,stimuli.xlsx,stimuli/Social1.png,stimuli/Social2.png,stimuli/Nonsocial2.png,stimuli/Nonsocial1.png,cs_minus_ns,,,,,,,0,0,0,0,,,,,,,,,,,,,,,,,0,3,3,3,,,,,,,,,,,,,,,,,,,,,,,3516.458929500077,6,0.01405119989067316,0.4100261996500194,52,C,2024-01-16_08h33.52.269,gca_avoidance_task,2022.2.4,144.12793992699036,
positions.xlsx,stimuli.xlsx,stimuli/Social1.png,stimuli/Social2.png,stimuli/Nonsocial2.png,stimuli/Nonsocial1.png,cs_plus_ns,,,,,,,0,0,0,0,,,,,,,,,,,,,,,,,1,0,4,1,,,,,,,,,,,,,,,,,,,,,,,3531.520829900168,8,0.013944400008767843,0.5419664001092315,52,C,2024-01-16_08h33.52.269,gca_avoidance_task,2022.2.4,144.12793992699036,
positions.xlsx,stimuli.xlsx,stimuli/Social1.png,stimuli/Social2.png,stimuli/Nonsocial2.png,stimuli/Nonsocial1.png,cs_minus_ns,,,,,,,0,0,0,0,,,,,,,,,,,,,,,,,1,1,5,3,,,,,,,,,,,,,,,,,,,,,,,3546.2841491000727,7,0.08382649999111891,1.132311400026083,52,C,2024-01-16_08h33.52.269,gca_avoidance_task,2022.2.4,144.12793992699036,
positions.xlsx,stimuli.xlsx,stimuli/Social1.png,stimuli/Social2.png,stimuli/Nonsocial2.png,stimuli/Nonsocial1.png,cs_minus_s,,,,,,,0,0,0,0,,,,,,,,,,,,,,,,,1,2,6,2,,,,,,,,,,,,,,,,,,,,,,,3561.2696485002525,6,0.04897240037098527,1.1459930003620684,52,C,2024-01-16_08h33.52.269,gca_avoidance_task,2022.2.4,144.12793992699036,
positions.xlsx,stimuli.xlsx,stimuli/Social1.png,stimuli/Social2.png,stimuli/Nonsocial2.png,stimuli/Nonsocial1.png,cs_plus_s,,,,,,,0,0,0,0,,,,,,,,,,,,,,,,,1,3,7,0,,,,,,,,,,,,,,,,,,,,,,,3575.8385228002444,8,0.013507199939340353,0.29963909974321723,52,C,2024-01-16_08h33.52.269,gca_avoidance_task,2022.2.4,144.12793992699036,
positions.xlsx,stimuli.xlsx,stimuli/Social1.png,stimuli/Social2.png,stimuli/Nonsocial2.png,stimuli/Nonsocial1.png,cs_plus_ns,,,,,,,0,0,0,0,,,,,,,,,,,,,,,,,2,0,8,1,,,,,,,,,,,,,,,,,,,,,,,3590.969840799924,6,0.013838100247085094,0.847513500135392,52,C,2024-01-16_08h33.52.269,gca_avoidance_task,2022.2.4,144.12793992699036,
positions.xlsx,stimuli.xlsx,stimuli/Social1.png,stimuli/Social2.png,stimuli/Nonsocial2.png,stimuli/Nonsocial1.png,cs_minus_s,,,,,,,0,0,0,0,,,,,,,,,,,,,,,,,2,1,9,2,,,,,,,,,,,,,,,,,,,,,,,3606.149816399906,5,0.013644099701195955,0.41678639966994524,52,C,2024-01-16_08h33.52.269,gca_avoidance_task,2022.2.4,144.12793992699036,
positions.xlsx,stimuli.xlsx,stimuli/Social1.png,stimuli/Social2.png,stimuli/Nonsocial2.png,stimuli/Nonsocial1.png,cs_plus_s,,,,,,,0,0,0,0,,,,,,,,,,,,,,,,,2,2,10,0,,,,,,,,,,,,,,,,,,,,,,,3621.503367099911,6,0.014101599808782339,0.5629527997225523,52,C,2024-01-16_08h33.52.269,gca_avoidance_task,2022.2.4,144.12793992699036,
positions.xlsx,stimuli.xlsx,stimuli/Social1.png,stimuli/Social2.png,stimuli/Nonsocial2.png,stimuli/Nonsocial1.png,cs_minus_ns,,,,,,,0,0,0,0,,,,,,,,,,,,,,,,,2,3,11,3,,,,,,,,,,,,,,,,,,,,,,,3636.884710700251,6,0.01431840006262064,0.4585787998512387,52,C,2024-01-16_08h33.52.269,gca_avoidance_task,2022.2.4,144.12793992699036,
positions.xlsx,stimuli.xlsx,stimuli/Social1.png,stimuli/Social2.png,stimuli/Nonsocial2.png,stimuli/Nonsocial1.png,cs_plus_ns,,,,,,,0,0,0,0,,,,,,,,,,,,,,,,,3,0,12,1,,,,,,,,,,,,,,,,,,,,,,,3652.1757570998743,8,0.013868999667465687,1.520994700025767,52,C,2024-01-16_08h33.52.269,gca_avoidance_task,2022.2.4,144.12793992699036,
positions.xlsx,stimuli.xlsx,stimuli/Social1.png,stimuli/Social2.png,stimuli/Nonsocial2.png,stimuli/Nonsocial1.png,cs_minus_ns,,,,,,,0,0,0,0,,,,,,,,,,,,,,,,,3,1,13,3,,,,,,,,,,,,,,,,,,,,,,,3667.6543348999694,7,0.014805700164288282,0.3266854998655617,52,C,2024-01-16_08h33.52.269,gca_avoidance_task,2022.2.4,144.12793992699036,
positions.xlsx,stimuli.xlsx,stimuli/Social1.png,stimuli/Social2.png,stimuli/Nonsocial2.png,stimuli/Nonsocial1.png,cs_plus_s,,,,,,,0,0,0,0,,,,,,,,,,,,,,,,,3,2,14,0,,,,,,,,,,,,,,,,,,,,,,,3682.7787239002064,7,0.013976899906992912,0.36827970016747713,52,C,2024-01-16_08h33.52.269,gca_avoidance_task,2022.2.4,144.12793992699036,
positions.xlsx,stimuli.xlsx,stimuli/Social1.png,stimuli/Social2.png,stimuli/Nonsocial2.png,stimuli/Nonsocial1.png,cs_minus_s,,,,,,,0,0,0,0,,,,,,,,,,,,,,,,,3,3,15,2,,,,,,,,,,,,,,,,,,,,,,,3698.26421280019,5,0.013497699983417988,0.5768180000595748,52,C,2024-01-16_08h33.52.269,gca_avoidance_task,2022.2.4,144.12793992699036,
positions.xlsx,stimuli.xlsx,stimuli/Social1.png,stimuli/Social2.png,stimuli/Nonsocial2.png,stimuli/Nonsocial1.png,cs_minus_s,,,,,,,0,0,0,0,,,,,,,,,,,,,,,,,4,0,16,2,,,,,,,,,,,,,,,,,,,,,,,3713.3816770999692,6,0.013678200077265501,0.458593999966979,52,C,2024-01-16_08h33.52.269,gca_avoidance_task,2022.2.4,144.12793992699036,
positions.xlsx,stimuli.xlsx,stimuli/Social1.png,stimuli/Social2.png,stimuli/Nonsocial2.png,stimuli/Nonsocial1.png,cs_plus_s,,,,,,,0,0,0,0,,,,,,,,,,,,,,,,,4,1,17,0,,,,,,,,,,,,,,,,,,,,,,,3728.388013199903,5,0.01402790006250143,0.5419191997498274,52,C,2024-01-16_08h33.52.269,gca_avoidance_task,2022.2.4,144.12793992699036,
positions.xlsx,stimuli.xlsx,stimuli/Social1.png,stimuli/Social2.png,stimuli/Nonsocial2.png,stimuli/Nonsocial1.png,cs_minus_ns,,,,,,,0,0,0,0,,,,,,,,,,,,,,,,,4,2,18,3,,,,,,,,,,,,,,,,,,,,,,,3743.5124363000505,8,0.014614200219511986,0.20882780011743307,52,C,2024-01-16_08h33.52.269,gca_avoidance_task,2022.2.4,144.12793992699036,
positions.xlsx,stimuli.xlsx,stimuli/Social1.png,stimuli/Social2.png,stimuli/Nonsocial2.png,stimuli/Nonsocial1.png,cs_plus_ns,,,,,,,0,0,0,0,,,,,,,,,,,,,,,,,4,3,19,1,,,,,,,,,,,,,,,,,,,,,,,3758.984041400254,7,0.014361999928951263,0.31963529996573925,52,C,2024-01-16_08h33.52.269,gca_avoidance_task,2022.2.4,144.12793992699036,
positions.xlsx,stimuli.xlsx,stimuli/Social1.png,stimuli/Social2.png,stimuli/Nonsocial2.png,stimuli/Nonsocial1.png,cs_plus_s,,,,,,,0,0,0,0,,,,,,,,,,,,,,,,,5,0,20,0,,,,,,,,,,,,,,,,,,,,,,,3773.525130300317,9,0.01366889989003539,0.3962902999483049,52,C,2024-01-16_08h33.52.269,gca_avoidance_task,2022.2.4,144.12793992699036,
positions.xlsx,stimuli.xlsx,stimuli/Social1.png,stimuli/Social2.png,stimuli/Nonsocial2.png,stimuli/Nonsocial1.png,cs_minus_ns,,,,,,,0,0,0,0,,,,,,,,,,,,,,,,,5,1,21,3,,,,,,,,,,,,,,,,,,,,,,,3788.7328332001343,6,0.01456440007314086,0.3197973002679646,52,C,2024-01-16_08h33.52.269,gca_avoidance_task,2022.2.4,144.12793992699036,
positions.xlsx,stimuli.xlsx,stimuli/Social1.png,stimuli/Social2.png,stimuli/Nonsocial2.png,stimuli/Nonsocial1.png,cs_minus_s,,,,,,,0,0,0,0,,,,,,,,,,,,,,,,,5,2,22,2,,,,,,,,,,,,,,,,,,,,,,,3803.905882900115,8,0.013926800340414047,0.4655666002072394,52,C,2024-01-16_08h33.52.269,gca_avoidance_task,2022.2.4,144.12793992699036,
positions.xlsx,stimuli.xlsx,stimuli/Social1.png,stimuli/Social2.png,stimuli/Nonsocial2.png,stimuli/Nonsocial1.png,cs_plus_ns,,,,,,,0,0,0,0,,,,,,,,,,,,,,,,,5,3,23,1,,,,,,,,,,,,,,,,,,,,,,,3818.50950299995,7,0.014034499879926443,0.5421139998361468,52,C,2024-01-16_08h33.52.269,gca_avoidance_task,2022.2.4,144.12793992699036,
positions.xlsx,stimuli.xlsx,stimuli/Social1.png,stimuli/Social2.png,stimuli/Nonsocial2.png,stimuli/Nonsocial1.png,cs_minus_s,,,,,,,0,0,0,0,,,,,,,,,,,,,,,,,6,0,24,2,,,,,,,,,,,,,,,,,,,,,,,3833.793584499974,7,0.013775300234556198,0.37534329993650317,52,C,2024-01-16_08h33.52.269,gca_avoidance_task,2022.2.4,144.12793992699036,
positions.xlsx,stimuli.xlsx,stimuli/Social1.png,stimuli/Social2.png,stimuli/Nonsocial2.png,stimuli/Nonsocial1.png,cs_minus_ns,,,,,,,0,0,0,0,,,,,,,,,,,,,,,,,6,1,25,3,,,,,,,,,,,,,,,,,,,,,,,3848.487463899888,7,0.014014099724590778,0.36134569998830557,52,C,2024-01-16_08h33.52.269,gca_avoidance_task,2022.2.4,144.12793992699036,
positions.xlsx,stimuli.xlsx,stimuli/Social1.png,stimuli/Social2.png,stimuli/Nonsocial2.png,stimuli/Nonsocial1.png,cs_plus_ns,,,,,,,0,0,0,0,,,,,,,,,,,,,,,,,6,2,26,1,,,,,,,,,,,,,,,,,,,,,,,3863.3965968000703,7,0.01411089999601245,0.4240323998965323,52,C,2024-01-16_08h33.52.269,gca_avoidance_task,2022.2.4,144.12793992699036,
positions.xlsx,stimuli.xlsx,stimuli/Social1.png,stimuli/Social2.png,stimuli/Nonsocial2.png,stimuli/Nonsocial1.png,cs_plus_s,,,,,,,0,0,0,0,,,,,,,,,,,,,,,,,6,3,27,0,,,,,,,,,,,,,,,,,,,,,,,3878.1252053002827,8,0.014204900246113539,0.4861538000404835,52,C,2024-01-16_08h33.52.269,gca_avoidance_task,2022.2.4,144.12793992699036,
positions.xlsx,stimuli.xlsx,stimuli/Social1.png,stimuli/Social2.png,stimuli/Nonsocial2.png,stimuli/Nonsocial1.png,cs_plus_ns,,,,,,,0,0,0,0,,,,,,,,,,,,,,,,,7,0,28,1,,,,,,,,,,,,,,,,,,,,,,,3893.5898376000114,6,0.014064399991184473,0.5697381999343634,52,C,2024-01-16_08h33.52.269,gca_avoidance_task,2022.2.4,144.12793992699036,
positions.xlsx,stimuli.xlsx,stimuli/Social1.png,stimuli/Social2.png,stimuli/Nonsocial2.png,stimuli/Nonsocial1.png,cs_minus_ns,,,,,,,0,0,0,0,,,,,,,,,,,,,,,,,7,1,29,3,,,,,,,,,,,,,,,,,,,,,,,3908.242033000104,7,0.013539500068873167,0.3055632999166846,52,C,2024-01-16_08h33.52.269,gca_avoidance_task,2022.2.4,144.12793992699036,
positions.xlsx,stimuli.xlsx,stimuli/Social1.png,stimuli/Social2.png,stimuli/Nonsocial2.png,stimuli/Nonsocial1.png,cs_minus_s,,,,,,,0,0,0,0,,,,,,,,,,,,,,,,,7,2,30,2,,,,,,,,,,,,,,,,,,,,,,,3923.2483856999315,7,0.013673600275069475,0.3195573999546468,52,C,2024-01-16_08h33.52.269,gca_avoidance_task,2022.2.4,144.12793992699036,
positions.xlsx,stimuli.xlsx,stimuli/Social1.png,stimuli/Social2.png,stimuli/Nonsocial2.png,stimuli/Nonsocial1.png,cs_plus_s,,,,,,,0,0,0,0,,,,,,,,,,,,,,,,,7,3,31,0,,,,,,,,,,,,,,,,,,,,,,,3937.9283628999256,7,0.0353023000061512,0.6461378000676632,52,C,2024-01-16_08h33.52.269,gca_avoidance_task,2022.2.4,144.12793992699036,
positions.xlsx,stimuli.xlsx,stimuli/Social1.png,stimuli/Social2.png,stimuli/Nonsocial2.png,stimuli/Nonsocial1.png,cs_minus_ns,,,,,,,0,0,0,0,,,,,,,,,,,,,,,,,8,0,32,3,,,,,,,,,,,,,,,,,,,,,,,3952.948590100277,6,0.01418810011819005,0.36120419995859265,52,C,2024-01-16_08h33.52.269,gca_avoidance_task,2022.2.4,144.12793992699036,
positions.xlsx,stimuli.xlsx,stimuli/Social1.png,stimuli/Social2.png,stimuli/Nonsocial2.png,stimuli/Nonsocial1.png,cs_plus_s,,,,,,,0,0,0,0,,,,,,,,,,,,,,,,,8,1,33,0,,,,,,,,,,,,,,,,,,,,,,,3968.2188335000537,8,0.014042400289326906,0.4028337001800537,52,C,2024-01-16_08h33.52.269,gca_avoidance_task,2022.2.4,144.12793992699036,
positions.xlsx,stimuli.xlsx,stimuli/Social1.png,stimuli/Social2.png,stimuli/Nonsocial2.png,stimuli/Nonsocial1.png,cs_plus_ns,,,,,,,0,0,0,0,,,,,,,,,,,,,,,,,8,2,34,1,,,,,,,,,,,,,,,,,,,,,,,3983.2113163000904,7,0.015146099962294102,0.26421230006963015,52,C,2024-01-16_08h33.52.269,gca_avoidance_task,2022.2.4,144.12793992699036,
positions.xlsx,stimuli.xlsx,stimuli/Social1.png,stimuli/Social2.png,stimuli/Nonsocial2.png,stimuli/Nonsocial1.png,cs_minus_s,,,,,,,0,0,0,0,,,,,,,,,,,,,,,,,8,3,35,2,,,,,,,,,,,,,,,,,,,,,,,3997.8496528002433,8,0.013636899646371603,0.2848650999367237,52,C,2024-01-16_08h33.52.269,gca_avoidance_task,2022.2.4,144.12793992699036,
positions.xlsx,stimuli.xlsx,stimuli/Social1.png,stimuli/Social2.png,stimuli/Nonsocial2.png,stimuli/Nonsocial1.png,cs_plus_s,,,,,,,0,0,0,0,,,,,,,,,,,,,,,,,9,0,36,0,,,,,,,,,,,,,,,,,,,,,,,4013.0920649999753,6,0.013374699745327234,0.4585504997521639,52,C,2024-01-16_08h33.52.269,gca_avoidance_task,2022.2.4,144.12793992699036,
positions.xlsx,stimuli.xlsx,stimuli/Social1.png,stimuli/Social2.png,stimuli/Nonsocial2.png,stimuli/Nonsocial1.png,cs_minus_s,,,,,,,0,0,0,0,,,,,,,,,,,,,,,,,9,1,37,2,,,,,,,,,,,,,,,,,,,,,,,4027.6956485998817,8,0.013914699666202068,0.43795259995386004,52,C,2024-01-16_08h33.52.269,gca_avoidance_task,2022.2.4,144.12793992699036,
positions.xlsx,stimuli.xlsx,stimuli/Social1.png,stimuli/Social2.png,stimuli/Nonsocial2.png,stimuli/Nonsocial1.png,cs_minus_ns,,,,,,,0,0,0,0,,,,,,,,,,,,,,,,,9,2,38,3,,,,,,,,,,,,,,,,,,,,,,,4042.215933899861,8,0.014332300052046776,0.06981590017676353,52,C,2024-01-16_08h33.52.269,gca_avoidance_task,2022.2.4,144.12793992699036,
positions.xlsx,stimuli.xlsx,stimuli/Social1.png,stimuli/Social2.png,stimuli/Nonsocial2.png,stimuli/Nonsocial1.png,cs_plus_ns,,,,,,,0,0,0,0,,,,,,,,,,,,,,,,,9,3,39,1,,,,,,,,,,,,,,,,,,,,,,,4057.60419559991,7,0.014802400022745132,0.38897710014134645,52,C,2024-01-16_08h33.52.269,gca_avoidance_task,2022.2.4,144.12793992699036,
positions.xlsx,stimuli.xlsx,stimuli/Social1.png,stimuli/Social2.png,stimuli/Nonsocial2.png,stimuli/Nonsocial1.png,cs_minus_ns,,,,,,,0,0,0,0,,,,,,,,,,,,,,,,,,,,,0,0,0,3,,,,,4071.3189173000865,7.0,4.67372789978981,,,,,,,,,,,,,,,,52,C,2024-01-16_08h33.52.269,gca_avoidance_task,2022.2.4,144.12793992699036,
positions.xlsx,stimuli.xlsx,stimuli/Social1.png,stimuli/Social2.png,stimuli/Nonsocial2.png,stimuli/Nonsocial1.png,cs_minus_s,,,,,,,0,0,0,0,,,,,,,,,,,,,,,,,,,,,0,1,1,2,,,,,4077.103435799945,7.0,4.702645799610764,,,,,,,,,,,,,,,,52,C,2024-01-16_08h33.52.269,gca_avoidance_task,2022.2.4,144.12793992699036,
positions.xlsx,stimuli.xlsx,stimuli/Social1.png,stimuli/Social2.png,stimuli/Nonsocial2.png,stimuli/Nonsocial1.png,cs_plus_ns,,,,,,,0,0,0,0,,,,,,,,,,,,,,,,,,,,,0,2,2,1,,,,,4082.957360900007,6.0,3.166737799998373,,,,,,,,,,,,,,,,52,C,2024-01-16_08h33.52.269,gca_avoidance_task,2022.2.4,144.12793992699036,
positions.xlsx,stimuli.xlsx,stimuli/Social1.png,stimuli/Social2.png,stimuli/Nonsocial2.png,stimuli/Nonsocial1.png,cs_plus_s,,,,,,,0,0,0,0,,,,,,,,,,,,,,,,,,,,,0,3,3,0,,,,,4086.7905894001015,4.0,1.8137902999296784,,,,,,,,,,,,,,,,52,C,2024-01-16_08h33.52.269,gca_avoidance_task,2022.2.4,144.12793992699036,
