posFile,stimFile,cs_plus_s,cs_minus_s,cs_plus_ns,cs_minus_ns,stimtype,position,trialtype,trials_threshold.thisRepN,trials_threshold.thisTrialN,trials_threshold.thisN,trials_threshold.thisIndex,blocks.thisRepN,blocks.thisTrialN,blocks.thisN,blocks.thisIndex,ratingtrials1.thisRepN,ratingtrials1.thisTrialN,ratingtrials1.thisN,ratingtrials1.thisIndex,learning_trials.thisRepN,learning_trials.thisTrialN,learning_trials.thisN,learning_trials.thisIndex,trials.thisRepN,trials.thisTrialN,trials.thisN,trials.thisIndex,ratingtrials2.thisRepN,ratingtrials2.thisTrialN,ratingtrials2.thisN,ratingtrials2.thisIndex,testtrials.thisRepN,testtrials.thisTrialN,testtrials.thisN,testtrials.thisIndex,ratingtrials3.thisRepN,ratingtrials3.thisTrialN,ratingtrials3.thisN,ratingtrials3.thisIndex,textStart.started,spaceStart.started,spaceStart.keys,spaceStart.rt,textPainThreshold.started,spacePainThreshold.started,spacePainThreshold.keys,spacePainThreshold.rt,textRateT.started,text_noPainT.started,text_slightPainT.started,text_highPainT.started,sliderPainT.started,keys_PainT.started,sliderPainT.response,sliderPainT.rt,keys_PainT.keys,keys_PainT.rt,fixcrossT.started,portShock1T.started,portShock1T.stopped,portShock2T.started,portShock2T.stopped,portShock3T.started,portShock3T.stopped,fixcrossT.stopped,text_ETCalibration.started,spaceETCalibration.started,spaceETCalibration.keys,spaceETCalibration.rt,textStartExp.started,spaceStartExp.started,spaceStartExp.keys,spaceStartExp.rt,imageRating.started,sliderStim.started,spaceStim.started,sliderStim.response,sliderStim.rt,spaceStim.keys,spaceStim.rt,textStartTask.started,spaceStartTask.started,spaceStartTask.keys,spaceStartTask.rt,blankScreen.started,blankScreen.stopped,fixcross.started,image.started,roi.started,gazeCursor.started,portImage.started,portImage.stopped,score,outcome,roi.numLooks,roi.timesOn,roi.timesOff,imageFeedback.started,gazeCursor_Feedback.started,soundFeedback.started,portShock1.started,portShock1.stopped,portShock2.started,portShock2.stopped,portShock3.started,portShock3.stopped,soundFeedback.stopped,fixcrossE.started,fixcrossE.stopped,textRepeatTask.started,textboxRepeatInstruction.started,textRepeatSpace.started,spaceRepeatTask.started,spaceRepeatTask.keys,spaceRepeatTask.rt,textRate.started,text_noPain.started,text_slightPain.started,text_highPain.started,sliderPain.started,textSpacePain.started,spacePain.started,sliderPain.response,sliderPain.rt,spacePain.keys,spacePain.rt,textTestInstr.started,spaceTestInstr.started,spaceTestInstr.keys,spaceTestInstr.rt,imageTest.started,roiTest.started,portTestImage.started,portTestImage.stopped,roiTest.numLooks,roiTest.timesOn,roiTest.timesOff,participant,group,date,expName,psychopyVersion,frameRate,
,,,,,,,,,,,,,,,,,,,,,,,,,,,,,,,,,,,,,,,,,14.646000700071454,14.646000700071454,space,4.055657799821347,,,,,,,,,,,,,,,,,,,,,,,,,,,,,,,,,,,,,,,,,,,,,,,,,,,,,,,,,,,,,,,,,,,,,,,,,,,,,,,,,,,,,,,,,,,,,,,4,A,2023-12-06_14h45.01.682,gca_avoidance_task,2022.2.4,143.73206051684534,
,,,,,,,,,,,,,,,,,,,,,,,,,,,,,,,,,,,,,,,,,,,,,18.71526119997725,18.71526119997725,space,3.03431209968403,,,,,,,,,,,,,,,,,,,,,,,,,,,,,,,,,,,,,,,,,,,,,,,,,,,,,,,,,,,,,,,,,,,,,,,,,,,,,,,,,,,,,,,,,,,4,A,2023-12-06_14h45.01.682,gca_avoidance_task,2022.2.4,143.73206051684534,
,,,,,,,,,0,0,0,0,,,,,,,,,,,,,,,,,,,,,,,,,,,,,,,,,,,,,23.013688400154933,23.013688400154933,23.013688400154933,23.013688400154933,23.013688400154933,23.013688400154933,None,None,s,9.216122499899939,32.82576579996385,0.09978429996408522,0.10669229994527996,0.15531400009058416,0.16225449997000396,0.20391679997555912,0.21084380010142922,33.589664000086486,,,,,,,,,,,,,,,,,,,,,,,,,,,,,,,,,,,,,,,,,,,,,,,,,,,,,,,,,,,,,,,,,,,,,,,,,4,A,2023-12-06_14h45.01.682,gca_avoidance_task,2022.2.4,143.73206051684534,
,,,,,,,,,1,0,1,0,,,,,,,,,,,,,,,,,,,,,,,,,,,,,,,,,,,,,33.589664000086486,33.589664000086486,33.589664000086486,33.589664000086486,33.589664000086486,33.589664000086486,2.0,7.473752900026739,s,13.600079099880531,47.69324170006439,0.10481210006400943,0.11172360018827021,0.1533828000538051,0.16034890012815595,0.20199359999969602,0.20896600000560284,,,,,,,,,,,,,,,,,,,,,,,,,,,,,,,,,,,,,,,,,,,,,,,,,,,,,,,,,,,,,,,,,,,,,,,,,,4,A,2023-12-06_14h45.01.682,gca_avoidance_task,2022.2.4,143.73206051684534,
,,,,,,,,,2,0,2,0,,,,,,,,,,,,,,,,,,,,,,,,,,,,,,,,,,,,,48.470956000033766,48.470956000033766,48.470956000033766,48.470956000033766,48.470956000033766,48.470956000033766,3.0,1.5944217999931425,s,7.862795899854973,56.83866770006716,0.10512150009162724,0.11213229992426932,0.15375769999809563,0.1607055999338627,0.202353399945423,0.2093124999664724,,,,,,,,,,,,,,,,,,,,,,,,,,,,,,,,,,,,,,,,,,,,,,,,,,,,,,,,,,,,,,,,,,,,,,,,,,4,A,2023-12-06_14h45.01.682,gca_avoidance_task,2022.2.4,143.73206051684534,
,,,,,,,,,3,0,3,0,,,,,,,,,,,,,,,,,,,,,,,,,,,,,,,,,,,,,57.595555200008675,57.595555200008675,57.595555200008675,57.595555200008675,57.595555200008675,57.595555200008675,4.0,0.9535747000481933,s,5.88190389983356,63.98417609999888,0.10532260010950267,0.11225380003452301,0.15391160012222826,0.1608838001266122,0.20256790006533265,0.2094708001241088,,,,,,,,,,,,,,,,,,,,,,,,,,,,,,,,,,,,,,,,,,,,,,,,,,,,,,,,,,,,,,,,,,,,,,,,,,4,A,2023-12-06_14h45.01.682,gca_avoidance_task,2022.2.4,143.73206051684534,
,,,,,,,,,4,0,4,0,,,,,,,,,,,,,,,,,,,,,,,,,,,,,,,,,,,,,64.7341466001235,64.7341466001235,64.7341466001235,64.7341466001235,64.7341466001235,64.7341466001235,6.0,3.001687099924311,s,9.271483599906787,74.53236930002458,0.10565629997290671,0.11265760008245707,0.15425539994612336,0.16121489997021854,0.20288849994540215,0.20981850009411573,,,,,,,,,,,,,,,,,,,,,,,,,,,,,,,,,,,,,,,,,,,,,,,,,,,,,,,,,,,,,,,,,,,,,,,,,,4,A,2023-12-06_14h45.01.682,gca_avoidance_task,2022.2.4,143.73206051684534,
,,,,,,,,,5,0,5,0,,,,,,,,,,,,,,,,,,,,,,,,,,,,,,,,,,,,,75.28926630015485,75.28926630015485,75.28926630015485,75.28926630015485,75.28926630015485,75.28926630015485,7.0,2.832106899935752,s,12.10770809976384,87.91372780012898,0.10380599997006357,0.11075489991344512,0.15239359997212887,0.1593396000098437,0.20103519991971552,0.20794939994812012,88.67066609999165,,,,,,,,,,,,,,,,,,,,,,,,,,,,,,,,,,,,,,,,,,,,,,,,,,,,,,,,,,,,,,,,,,,,,,,,,4,A,2023-12-06_14h45.01.682,gca_avoidance_task,2022.2.4,143.73206051684534,
,,,,,,,,,6,0,6,0,,,,,,,,,,,,,,,,,,,,,,,,,,,,,,,,,,,,,88.67066609999165,88.67066609999165,88.67066609999165,88.67066609999165,88.67066609999165,88.67066609999165,7.0,1.4558582999743521,s,6.903076800052077,96.14255870017223,0.1007254000287503,0.10767120006494224,0.14933440019376576,0.1563410002272576,0.20488820015452802,0.21183520019985735,96.8994321001228,,,,,,,,,,,,,,,,,,,,,,,,,,,,,,,,,,,,,,,,,,,,,,,,,,,,,,,,,,,,,,,,,,,,,,,,,4,A,2023-12-06_14h45.01.682,gca_avoidance_task,2022.2.4,143.73206051684534,
,,,,,,,,,7,0,7,0,,,,,,,,,,,,,,,,,,,,,,,,,,,,,,,,,,,,,96.8994321001228,96.8994321001228,96.8994321001228,96.8994321001228,96.8994321001228,96.8994321001228,7.0,1.1151196998544037,s,5.53743560006842,102.9409406001214,0.10535619989968836,0.11231520003639162,0.15394390001893044,0.16088479990139604,0.20254319999367,0.2095385999418795,,,,,,,,,,,,,,,,,,,,,,,,,,,,,,,,,,,,,,,,,,,,,,,,,,,,,,,,,,,,,,,,,,,,,,,,,,4,A,2023-12-06_14h45.01.682,gca_avoidance_task,2022.2.4,143.73206051684534,
,,,,,,,,,8,0,8,0,,,,,,,,,,,,,,,,,,,,,,,,,,,,,,,,,,,,,103.69781380007043,103.69781380007043,103.69781380007043,103.69781380007043,103.69781380007043,103.69781380007043,None,None,s,11.747753499774262,115.96117880009115,0.10265010013245046,0.10959700006060302,0.15124760009348392,0.15820530010387301,0.1998603001702577,0.2068614000454545,116.7180463001132,,,,,,,,,,,,,,,,,,,,,,,,,,,,,,,,,,,,,,,,,,,,,,,,,,,,,,,,,,,,,,,,,,,,,,,,,4,A,2023-12-06_14h45.01.682,gca_avoidance_task,2022.2.4,143.73206051684534,
,,,,,,,,,9,0,9,0,,,,,,,,,,,,,,,,,,,,,,,,,,,,,,,,,,,,,116.7180463001132,116.7180463001132,116.7180463001132,116.7180463001132,116.7180463001132,116.7180463001132,5.0,1.399368700105697,s,10.95100269978866,128.1690024000127,0.10386099992319942,0.11082320008426905,0.15249109989963472,0.1594916998874396,0.20110270008444786,0.20810130005702376,128.92588390014134,,,,,,,,,,,,,,,,,,,,,,,,,,,,,,,,,,,,,,,,,,,,,,,,,,,,,,,,,,,,,,,,,,,,,,,,,4,A,2023-12-06_14h45.01.682,gca_avoidance_task,2022.2.4,143.73206051684534,
,,,,,,,,,10,0,10,0,,,,,,,,,,,,,,,,,,,,,,,,,,,,,,,,,,,,,128.92588390014134,128.92588390014134,128.92588390014134,128.92588390014134,128.92588390014134,128.92588390014134,6.0,1.909468299942091,s,5.695516400039196,135.2590157999657,0.10554470005445182,0.11251070001162589,0.15418580011464655,0.16114410012960434,0.20279340003617108,0.20972959999926388,,,,,,,,,,,,,,,,,,,,,,,,,,,,,,,,,,,,,,,,,,,,,,,,,,,,,,,,,,,,,,,,,,,,,,,,,,4,A,2023-12-06_14h45.01.682,gca_avoidance_task,2022.2.4,143.73206051684534,
,,,,,,,,,11,0,11,0,,,,,,,,,,,,,,,,,,,,,,,,,,,,,,,,,,,,,136.01588020008057,136.01588020008057,136.01588020008057,136.01588020008057,136.01588020008057,136.01588020008057,7.0,0.8211311001796275,s,6.5970403999090195,143.1197471001651,0.10132599994540215,0.10831629997119308,0.1499451999552548,0.1568940000142902,0.20551900006830692,0.2125224000774324,143.87665780005045,,,,,,,,,,,,,,,,,,,,,,,,,,,,,,,,,,,,,,,,,,,,,,,,,,,,,,,,,,,,,,,,,,,,,,,,,4,A,2023-12-06_14h45.01.682,gca_avoidance_task,2022.2.4,143.73206051684534,
,,,,,,,,,12,0,12,0,,,,,,,,,,,,,,,,,,,,,,,,,,,,,,,,,,,,,143.87665780005045,143.87665780005045,143.87665780005045,143.87665780005045,143.87665780005045,143.87665780005045,8.0,0.8115950000938028,s,5.920417599845678,150.2930699000135,0.09997420012950897,0.10692060017026961,0.1555316001176834,0.16245740000158548,0.204126900061965,0.2110771001316607,151.04997800011188,,,,,,,,,,,,,,,,,,,,,,,,,,,,,,,,,,,,,,,,,,,,,,,,,,,,,,,,,,,,,,,,,,,,,,,,,4,A,2023-12-06_14h45.01.682,gca_avoidance_task,2022.2.4,143.73206051684534,
,,,,,,,,,13,0,13,0,,,,,,,,,,,,,,,,,,,,,,,,,,,,,,,,,,,,,151.04997800011188,151.04997800011188,151.04997800011188,151.04997800011188,151.04997800011188,151.04997800011188,8.0,1.0493870999198407,s,8.011114099761471,159.57046740013175,0.10469449986703694,0.11167199979536235,0.15330339991487563,0.16027299989946187,0.20193579979240894,0.20884469989687204,,,,,,,,,,,,,,,,,,,,,,,,,,,,,,,,,,,,,,,,,,,,,,,,,,,,,,,,,,,,,,,,,,,,,,,,,,4,A,2023-12-06_14h45.01.682,gca_avoidance_task,2022.2.4,143.73206051684534,
,,,,,,,,,14,0,14,0,,,,,,,,,,,,,,,,,,,,,,,,,,,,,,,,,,,,,160.3273631001357,160.3273631001357,160.3273631001357,160.3273631001357,160.3273631001357,160.3273631001357,5.0,1.637513300171122,s,7.653464799979702,168.50063610007055,0.10362370009534061,0.11053020018152893,0.15218710014596581,0.15917110000737011,0.20079490006901324,0.20776759996078908,169.25748230004683,,,,,,,,,,,,,,,,,,,,,,,,,,,,,,,,,,,,,,,,,,,,,,,,,,,,,,,,,,,,,,,,,,,,,,,,,4,A,2023-12-06_14h45.01.682,gca_avoidance_task,2022.2.4,143.73206051684534,
,,,,,,,,,15,0,15,0,,,,,,,,,,,,,,,,,,,,,,,,,,,,,,,,,,,,,169.25748230004683,169.25748230004683,169.25748230004683,169.25748230004683,169.25748230004683,169.25748230004683,6.0,1.1945223999209702,g,26.45158199989237,196.21473990008235,,,,,,,,,,,,,,,,,,,,,,,,,,,,,,,,,,,,,,,,,,,,,,,,,,,,,,,,,,,,,,,,,,,,,,,,,,,,,,,,4,A,2023-12-06_14h45.01.682,gca_avoidance_task,2022.2.4,143.73206051684534,
,,,,,,,,,,,,,,,,,,,,,,,,,,,,,,,,,,,,,,,,,,,,,,,,,,,,,,,,,,,,,,,,,,,196.21473990008235,196.21473990008235,space,1.64588399999775,,,,,,,,,,,,,,,,,,,,,,,,,,,,,,,,,,,,,,,,,,,,,,,,,,,,,,,,,,,,,,,,,,,,,4,A,2023-12-06_14h45.01.682,gca_avoidance_task,2022.2.4,143.73206051684534,
positions.xlsx,stimuli.xlsx,stimuli/Social1.png,stimuli/Social2.png,stimuli/Nonsocial1.png,stimuli/Nonsocial2.png,cs_plus_s,,,,,,,0,0,0,0,0,0,0,0,,,,,,,,,,,,,,,,,,,,,,,,,,,,,,,,,,,,,,,,,,,,,,,,,,,327.16608350002207,327.16608350002207,space,14.278904099948704,341.4933639999945,341.4933639999945,348.24306610017084,5.0,6.737881099805236,space,2.178550399839878,,,,,,,,,,,,,,,,,,,,,,,,,,,,,,,,,,,,,,,,,,,,,,,,,,,,,,,,,,4,A,2023-12-06_14h45.01.682,gca_avoidance_task,2022.2.4,143.73206051684534,
positions.xlsx,stimuli.xlsx,stimuli/Social1.png,stimuli/Social2.png,stimuli/Nonsocial1.png,stimuli/Nonsocial2.png,cs_minus_s,,,,,,,0,0,0,0,0,1,1,2,,,,,,,,,,,,,,,,,,,,,,,,,,,,,,,,,,,,,,,,,,,,,,,,,,,,,,,350.46521569998004,350.46521569998004,353.4789780001156,4.0,2.9973158000502735,space,1.7735352998133749,,,,,,,,,,,,,,,,,,,,,,,,,,,,,,,,,,,,,,,,,,,,,,,,,,,,,,,,,,4,A,2023-12-06_14h45.01.682,gca_avoidance_task,2022.2.4,143.73206051684534,
positions.xlsx,stimuli.xlsx,stimuli/Social1.png,stimuli/Social2.png,stimuli/Nonsocial1.png,stimuli/Nonsocial2.png,cs_minus_ns,,,,,,,0,0,0,0,0,2,2,3,,,,,,,,,,,,,,,,,,,,,,,,,,,,,,,,,,,,,,,,,,,,,,,,,,,,,,,355.28445970010944,355.28445970010944,359.0273443001788,3.0,3.7305024000816047,space,1.3291494997683913,,,,,,,,,,,,,,,,,,,,,,,,,,,,,,,,,,,,,,,,,,,,,,,,,,,,,,,,,,4,A,2023-12-06_14h45.01.682,gca_avoidance_task,2022.2.4,143.73206051684534,
positions.xlsx,stimuli.xlsx,stimuli/Social1.png,stimuli/Social2.png,stimuli/Nonsocial1.png,stimuli/Nonsocial2.png,cs_plus_ns,,,,,,,0,0,0,0,0,3,3,1,,,,,,,,,,,,,,,,,,,,,,,,,,,,,,,,,,,,,,,,,,,,,,,,,,,,,,,360.3884003001731,360.3884003001731,363.5063365001697,3.0,3.1071695000864565,space,1.203091399744153,,,,,,,,,,,,,,,,,,,,,,,,,,,,,,,,,,,,,,,,,,,,,,,,,,,,,,,,,,4,A,2023-12-06_14h45.01.682,gca_avoidance_task,2022.2.4,143.73206051684534,
positions.xlsx,stimuli.xlsx,stimuli/Social1.png,stimuli/Social2.png,stimuli/Nonsocial1.png,stimuli/Nonsocial2.png,,"(0.7, -0.5)",cs_plus_ns,,,,,0,0,0,0,,,,,0,0,0,11,,,,,,,,,,,,,,,,,,,,,,,,,,,,,,,,,,,,,,,,,,,,,,,,,,,,,,,,,,364.7215434999671,364.7215434999671,space,24.211056499974802,391.0676583000459,393.04671759996563,390.56773180002347,393.04671759996563,393.04671759996563,393.04671759996563,0.016845399979501963,0.027044699992984533,0,shock,1,[0.1877801998052746],[0.18778399983420968],393.241208499996,393.241208499996,0.020643600029870868,0.020643600029870868,0.03185879997909069,0.05259420000948012,0.059597000014036894,0.10121429990977049,0.10816560010425746,1.0178890000097454,396.7201960000675,400.8659224000294,,,,,,,,,,,,,,,,,,,,,,,,,,,,,4,A,2023-12-06_14h45.01.682,gca_avoidance_task,2022.2.4,143.73206051684534,
positions.xlsx,stimuli.xlsx,stimuli/Social1.png,stimuli/Social2.png,stimuli/Nonsocial1.png,stimuli/Nonsocial2.png,,"(-0.7, -0.5)",cs_plus_ns,,,,,0,0,0,0,,,,,0,1,1,9,,,,,,,,,,,,,,,,,,,,,,,,,,,,,,,,,,,,,,,,,,,,,,,,,,,,,,,,,,,,,,401.37282859999686,403.2754900001455,400.8659224000294,403.2754900001455,403.2754900001455,403.2754900001455,0.007747999858111143,0.013263999950140715,0,none,0,,,408.2892186001409,408.2892186001409,0.01773729990236461,0.01773729990236461,0.027026599971577525,0.05474319984205067,0.06163089978508651,0.10334959998726845,0.11026079999282956,1.0130233999807388,411.7751601000782,416.1499818000011,,,,,,,,,,,,,,,,,,,,,,,,,,,,,4,A,2023-12-06_14h45.01.682,gca_avoidance_task,2022.2.4,143.73206051684534,
positions.xlsx,stimuli.xlsx,stimuli/Social1.png,stimuli/Social2.png,stimuli/Nonsocial1.png,stimuli/Nonsocial2.png,,"(-0.7, -0.5)",cs_minus_s,,,,,0,0,0,0,,,,,0,2,2,5,,,,,,,,,,,,,,,,,,,,,,,,,,,,,,,,,,,,,,,,,,,,,,,,,,,,,,,,,,,,,,416.6568650000263,417.79571690014564,416.1499818000011,417.79571690014564,417.79571690014564,417.79571690014564,0.006293399957939982,0.013228799914941192,5,reward,1,[0.5974097999278456],[0.5974138998426497],418.3998471000232,418.3998471000232,0.00778320012614131,0.00778320012614131,0.018389000091701746,0.05307260015979409,0.06001999997533858,0.1017031001392752,0.10867870016954839,1.0044354000128806,421.89276499999687,425.60790010006167,,,,,,,,,,,,,,,,,,,,,,,,,,,,,4,A,2023-12-06_14h45.01.682,gca_avoidance_task,2022.2.4,143.73206051684534,
positions.xlsx,stimuli.xlsx,stimuli/Social1.png,stimuli/Social2.png,stimuli/Nonsocial1.png,stimuli/Nonsocial2.png,,"(-0.7, -0.5)",cs_plus_s,,,,,0,0,0,0,,,,,0,3,3,1,,,,,,,,,,,,,,,,,,,,,,,,,,,,,,,,,,,,,,,,,,,,,,,,,,,,,,,,,,,,,,426.11481920001097,427.28837339999154,425.60790010006167,427.28837339999154,427.28837339999154,427.28837339999154,0.0057159001007676125,0.013383100042119622,5,shock,1,[0.396199099952355],[0.3962028999812901],427.6911005000584,427.6911005000584,0.0075078001245856285,0.0075078001245856285,0.018384600058197975,0.053055400028824806,0.060005800100043416,0.10165510000661016,0.10862590000033379,1.0044138999655843,431.1841025000904,434.767229600111,,,,,,,,,,,,,,,,,,,,,,,,,,,,,4,A,2023-12-06_14h45.01.682,gca_avoidance_task,2022.2.4,143.73206051684534,
positions.xlsx,stimuli.xlsx,stimuli/Social1.png,stimuli/Social2.png,stimuli/Nonsocial1.png,stimuli/Nonsocial2.png,,"(0.7, 0.5)",cs_minus_ns,,,,,0,0,0,0,,,,,0,4,4,14,,,,,,,,,,,,,,,,,,,,,,,,,,,,,,,,,,,,,,,,,,,,,,,,,,,,,,,,,,,,,,435.27414760016836,437.0865724000614,434.767229600111,437.0865724000614,437.0865724000614,437.0865724000614,0.006402299972251058,0.013158499961718917,10,reward,1,[0.16675660014152527],[0.16676030005328357],437.26017020014115,437.26017020014115,0.007511399919167161,0.007511399919167161,0.01856719981878996,0.05324089992791414,0.06019470002502203,0.10186459985561669,0.10881679994054139,1.0045990999788046,440.75319409999065,444.384876600001,,,,,,,,,,,,,,,,,,,,,,,,,,,,,4,A,2023-12-06_14h45.01.682,gca_avoidance_task,2022.2.4,143.73206051684534,
positions.xlsx,stimuli.xlsx,stimuli/Social1.png,stimuli/Social2.png,stimuli/Nonsocial1.png,stimuli/Nonsocial2.png,,"(0.7, 0.5)",cs_plus_ns,,,,,0,0,0,0,,,,,0,5,5,10,,,,,,,,,,,,,,,,,,,,,,,,,,,,,,,,,,,,,,,,,,,,,,,,,,,,,,,,,,,,,,444.8918316999916,446.4889511000365,444.384876600001,446.4889511000365,446.4889511000365,446.4889511000365,0.006507599959149957,0.013520399807021022,10,shock,1,[0.6115604999940842],[0.6115640997886658],447.1069690999575,447.1069690999575,0.007776699960231781,0.007776699960231781,0.018528300104662776,0.05322019988670945,0.060168599942699075,0.10180810000747442,0.10877300007268786,1.0045485000591725,450.5999329001643,455.0095119001344,,,,,,,,,,,,,,,,,,,,,,,,,,,,,4,A,2023-12-06_14h45.01.682,gca_avoidance_task,2022.2.4,143.73206051684534,
positions.xlsx,stimuli.xlsx,stimuli/Social1.png,stimuli/Social2.png,stimuli/Nonsocial1.png,stimuli/Nonsocial2.png,,"(0.7, 0.5)",cs_minus_s,,,,,0,0,0,0,,,,,0,6,6,6,,,,,,,,,,,,,,,,,,,,,,,,,,,,,,,,,,,,,,,,,,,,,,,,,,,,,,,,,,,,,,455.51633980008774,457.02322240010835,455.0095119001344,457.02322240010835,457.02322240010835,457.02322240010835,0.005810500122606754,0.013401100179180503,15,reward,1,[0.43113140016794205],[0.43113530008122325],457.4607653999701,457.4607653999701,0.007252100156620145,0.007252100156620145,0.01830080011859536,0.052917700028046966,0.059872700134292245,0.10154850012622774,0.10844149999320507,1.0043053000699729,460.95370960002765,465.2243186000269,,,,,,,,,,,,,,,,,,,,,,,,,,,,,4,A,2023-12-06_14h45.01.682,gca_avoidance_task,2022.2.4,143.73206051684534,
positions.xlsx,stimuli.xlsx,stimuli/Social1.png,stimuli/Social2.png,stimuli/Nonsocial1.png,stimuli/Nonsocial2.png,,"(-0.7, 0.5)",cs_plus_ns,,,,,0,0,0,0,,,,,0,7,7,8,,,,,,,,,,,,,,,,,,,,,,,,,,,,,,,,,,,,,,,,,,,,,,,,,,,,,,,,,,,,,,465.73120549996383,467.72415370005183,465.2243186000269,467.72415370005183,467.72415370005183,467.72415370005183,0.006566999945789576,0.01341310003772378,15,none,0,,,472.73090670001693,472.73090670001693,0.014266700018197298,0.014266700018197298,0.020218600053340197,0.05486849998123944,0.061823599971830845,0.10345069994218647,0.11042420007288456,1.013198700034991,476.2239359000232,480.23754450003617,,,,,,,,,,,,,,,,,,,,,,,,,,,,,4,A,2023-12-06_14h45.01.682,gca_avoidance_task,2022.2.4,143.73206051684534,
positions.xlsx,stimuli.xlsx,stimuli/Social1.png,stimuli/Social2.png,stimuli/Nonsocial1.png,stimuli/Nonsocial2.png,,"(-0.7, 0.5)",cs_plus_s,,,,,0,0,0,0,,,,,0,8,8,0,,,,,,,,,,,,,,,,,,,,,,,,,,,,,,,,,,,,,,,,,,,,,,,,,,,,,,,,,,,,,,480.7444494999945,482.10550669999793,480.23754450003617,482.10550669999793,482.10550669999793,482.10550669999793,0.00676789996214211,0.012926900060847402,15,shock,1,[0.6525381000246853],[0.6525418001692742],482.76522210007533,482.76522210007533,0.007567399879917502,0.007567399879917502,0.01857299986295402,0.05324389995075762,0.06018609995953739,0.10182109987363219,0.10879349987953901,1.0045853999909014,486.2581246001646,489.8830154000316,,,,,,,,,,,,,,,,,,,,,,,,,,,,,4,A,2023-12-06_14h45.01.682,gca_avoidance_task,2022.2.4,143.73206051684534,
positions.xlsx,stimuli.xlsx,stimuli/Social1.png,stimuli/Social2.png,stimuli/Nonsocial1.png,stimuli/Nonsocial2.png,,"(0.7, -0.5)",cs_minus_ns,,,,,0,0,0,0,,,,,0,9,9,15,,,,,,,,,,,,,,,,,,,,,,,,,,,,,,,,,,,,,,,,,,,,,,,,,,,,,,,,,,,,,,490.38987980014645,492.36896690004505,489.8830154000316,492.36896690004505,492.36896690004505,492.36896690004505,0.006930199917405844,0.01333869993686676,20,reward,1,[0.6046400000341237],[0.604643699945882],492.98701100004837,492.98701100004837,0.007176599930971861,0.007176599930971861,0.02567889983765781,0.053381099831312895,0.06032889988273382,0.10197729989886284,0.10892000002786517,1.0047389999963343,496.4730534001719,500.1047914000228,,,,,,,,,,,,,,,,,,,,,,,,,,,,,4,A,2023-12-06_14h45.01.682,gca_avoidance_task,2022.2.4,143.73206051684534,
positions.xlsx,stimuli.xlsx,stimuli/Social1.png,stimuli/Social2.png,stimuli/Nonsocial1.png,stimuli/Nonsocial2.png,,"(0.7, -0.5)",cs_plus_s,,,,,0,0,0,0,,,,,0,10,10,3,,,,,,,,,,,,,,,,,,,,,,,,,,,,,,,,,,,,,,,,,,,,,,,,,,,,,,,,,,,,,,500.61169900000095,502.50744660012424,500.1047914000228,502.50744660012424,502.50744660012424,502.50744660012424,0.006652299780398607,0.012982299784198403,20,none,0,,,507.514211300062,507.514211300062,0.01296399999409914,0.01296399999409914,0.019839399959892035,0.05448389984667301,0.06136769987642765,0.10299849999137223,0.10994719993323088,1.0127002999652177,511.0071326000616,515.3541531001683,,,,,,,,,,,,,,,,,,,,,,,,,,,,,4,A,2023-12-06_14h45.01.682,gca_avoidance_task,2022.2.4,143.73206051684534,
positions.xlsx,stimuli.xlsx,stimuli/Social1.png,stimuli/Social2.png,stimuli/Nonsocial1.png,stimuli/Nonsocial2.png,,"(0.7, 0.5)",cs_plus_s,,,,,0,0,0,0,,,,,0,11,11,2,,,,,,,,,,,,,,,,,,,,,,,,,,,,,,,,,,,,,,,,,,,,,,,,,,,,,,,,,,,,,,515.8610739000142,517.0554102000315,515.3541531001683,517.0554102000315,517.0554102000315,517.0554102000315,0.006428099935874343,0.013253499986603856,20,none,0,,,522.0621678000316,522.0621678000316,0.012943499954417348,0.012943499954417348,0.019976899959146976,0.05464469990693033,0.061645800014957786,0.10325510008260608,0.1102748999837786,1.0060419999063015,525.5551541000605,529.4368593001273,,,,,,,,,,,,,,,,,,,,,,,,,,,,,4,A,2023-12-06_14h45.01.682,gca_avoidance_task,2022.2.4,143.73206051684534,
positions.xlsx,stimuli.xlsx,stimuli/Social1.png,stimuli/Social2.png,stimuli/Nonsocial1.png,stimuli/Nonsocial2.png,,"(-0.7, 0.5)",cs_minus_ns,,,,,0,0,0,0,,,,,0,12,12,12,,,,,,,,,,,,,,,,,,,,,,,,,,,,,,,,,,,,,,,,,,,,,,,,,,,,,,,,,,,,,,529.9437975001056,531.6242810001131,529.4368593001273,531.6242810001131,531.6242810001131,531.6242810001131,0.007079599890857935,0.013407999882474542,25,reward,1,[0.5976700999308378],[0.597673999844119],532.228437700076,532.228437700076,0.00731510017067194,0.00731510017067194,0.01846850011497736,0.05303990002721548,0.060020700097084045,0.10170760005712509,0.10866970010101795,1.0044319999869913,535.7214093999937,539.4295499001164,,,,,,,,,,,,,,,,,,,,,,,,,,,,,4,A,2023-12-06_14h45.01.682,gca_avoidance_task,2022.2.4,143.73206051684534,
positions.xlsx,stimuli.xlsx,stimuli/Social1.png,stimuli/Social2.png,stimuli/Nonsocial1.png,stimuli/Nonsocial2.png,,"(0.7, -0.5)",cs_minus_s,,,,,0,0,0,0,,,,,0,13,13,7,,,,,,,,,,,,,,,,,,,,,,,,,,,,,,,,,,,,,,,,,,,,,,,,,,,,,,,,,,,,,,539.9364157000091,541.3044237000868,539.4295499001164,541.3044237000868,541.3044237000868,541.3044237000868,0.006797899957746267,0.013025199994444847,30,reward,1,[0.49319260008633137],[0.49319649999961257],541.8044257999863,541.8044257999863,0.0077501998748630285,0.0077501998748630285,0.017869099974632263,0.05258799996227026,0.05946110002696514,0.10122009995393455,0.10810930002480745,1.00383870000951,545.2973941999953,549.4221382001415,,,,,,,,,,,,,,,,,,,,,,,,,,,,,4,A,2023-12-06_14h45.01.682,gca_avoidance_task,2022.2.4,143.73206051684534,
positions.xlsx,stimuli.xlsx,stimuli/Social1.png,stimuli/Social2.png,stimuli/Nonsocial1.png,stimuli/Nonsocial2.png,,"(-0.7, -0.5)",cs_minus_ns,,,,,0,0,0,0,,,,,0,14,14,13,,,,,,,,,,,,,,,,,,,,,,,,,,,,,,,,,,,,,,,,,,,,,,,,,,,,,,,,,,,,,,549.9290573999751,551.1929335000459,549.4221382001415,551.1929335000459,551.1929335000459,551.1929335000459,0.006989500019699335,0.013132799882441759,35,reward,1,[0.46539789997041225],[0.46540139988064766],551.665117100114,551.665117100114,0.007191400043666363,0.007191400043666363,0.018725400092080235,0.053368200082331896,0.06040640012361109,0.10202080011367798,0.10898320004343987,1.0047321000602096,555.158096899977,559.1370588000864,,,,,,,,,,,,,,,,,,,,,,,,,,,,,4,A,2023-12-06_14h45.01.682,gca_avoidance_task,2022.2.4,143.73206051684534,
positions.xlsx,stimuli.xlsx,stimuli/Social1.png,stimuli/Social2.png,stimuli/Nonsocial1.png,stimuli/Nonsocial2.png,,"(-0.7, 0.5)",cs_minus_s,,,,,0,0,0,0,,,,,0,15,15,4,,,,,,,,,,,,,,,,,,,,,,,,,,,,,,,,,,,,,,,,,,,,,,,,,,,,,,,,,,,,,,559.6439362000674,560.8591382000595,559.1370588000864,560.8591382000595,560.8591382000595,560.8591382000595,0.006615999853238463,0.013119200011715293,40,reward,1,[0.4659354998730123],[0.4659523998852819],561.331389100058,561.331389100058,0.007484399946406484,0.007484399946406484,0.01822949992492795,0.05289630009792745,0.059869399992749095,0.10149780008941889,0.1084531000815332,1.0042795999906957,564.8243166999891,568.9283213000745,,,,,,,,,,,,,,,,,,,,,,,,,,,,,4,A,2023-12-06_14h45.01.682,gca_avoidance_task,2022.2.4,143.73206051684534,
positions.xlsx,stimuli.xlsx,stimuli/Social1.png,stimuli/Social2.png,stimuli/Nonsocial1.png,stimuli/Nonsocial2.png,,"(-0.7, -0.5)",cs_minus_s,,,,,0,0,0,0,,,,,1,0,16,5,,,,,,,,,,,,,,,,,,,,,,,,,,,,,,,,,,,,,,,,,,,,,,,,,,,,,,,,,,,,,,569.4351531001739,570.7754140000325,568.9283213000745,570.7754140000325,570.7754140000325,570.7754140000325,0.006639500148594379,0.013146300101652741,45,reward,1,[0.7223505999427289],[0.722354399971664],571.5045148001518,571.5045148001518,0.006711600115522742,0.006711600115522742,0.01825159997679293,0.05290560005232692,0.0598600001540035,0.1015112001914531,0.10846880008466542,1.0042958001140505,574.9974625001196,579.4626164000947,,,,,,,,,,,,,,,,,,,,,,,,,,,,,4,A,2023-12-06_14h45.01.682,gca_avoidance_task,2022.2.4,143.73206051684534,
positions.xlsx,stimuli.xlsx,stimuli/Social1.png,stimuli/Social2.png,stimuli/Nonsocial1.png,stimuli/Nonsocial2.png,,"(0.7, 0.5)",cs_plus_ns,,,,,0,0,0,0,,,,,1,1,17,10,,,,,,,,,,,,,,,,,,,,,,,,,,,,,,,,,,,,,,,,,,,,,,,,,,,,,,,,,,,,,,579.9694835001137,581.4902056001592,579.4626164000947,581.4902056001592,581.4902056001592,581.4902056001592,0.0070090999361127615,0.013470300007611513,45,none,0,,,586.4969679999631,586.4969679999631,0.014511199900880456,0.014511199900880456,0.020198100013658404,0.054882700089365244,0.061855999985709786,0.10352830006740987,0.11048200004734099,1.0132265000138432,589.9899089999963,594.392548999982,,,,,,,,,,,,,,,,,,,,,,,,,,,,,4,A,2023-12-06_14h45.01.682,gca_avoidance_task,2022.2.4,143.73206051684534,
positions.xlsx,stimuli.xlsx,stimuli/Social1.png,stimuli/Social2.png,stimuli/Nonsocial1.png,stimuli/Nonsocial2.png,,"(-0.7, -0.5)",cs_plus_s,,,,,0,0,0,0,,,,,1,2,18,1,,,,,,,,,,,,,,,,,,,,,,,,,,,,,,,,,,,,,,,,,,,,,,,,,,,,,,,,,,,,,,594.8994049001485,596.399319200078,594.392548999982,596.399319200078,596.399319200078,596.399319200078,0.006736899958923459,0.01304550003260374,45,none,0,,,601.4060486999806,601.4060486999806,0.013462200062349439,0.013462200062349439,0.01980419992469251,0.05448310007341206,0.061439899960532784,0.1031072000041604,0.11011569993570447,1.0128152000252157,604.8990631999914,609.2738310999703,,,,,,,,,,,,,,,,,,,,,,,,,,,,,4,A,2023-12-06_14h45.01.682,gca_avoidance_task,2022.2.4,143.73206051684534,
positions.xlsx,stimuli.xlsx,stimuli/Social1.png,stimuli/Social2.png,stimuli/Nonsocial1.png,stimuli/Nonsocial2.png,,"(-0.7, -0.5)",cs_plus_ns,,,,,0,0,0,0,,,,,1,3,19,9,,,,,,,,,,,,,,,,,,,,,,,,,,,,,,,,,,,,,,,,,,,,,,,,,,,,,,,,,,,,,,609.7807333001401,611.2181586001534,609.2738310999703,611.2181586001534,611.2181586001534,611.2181586001534,0.007534299977123737,0.013073300011456013,45,none,0,,,616.2248939001001,616.2248939001001,0.013931999914348125,0.013931999914348125,0.01984299998730421,0.05453499988652766,0.0614376999437809,0.1031275000423193,0.11007819999940693,1.0128124000038952,619.7178150999825,623.467690099962,,,,,,,,,,,,,,,,,,,,,,,,,,,,,4,A,2023-12-06_14h45.01.682,gca_avoidance_task,2022.2.4,143.73206051684534,
positions.xlsx,stimuli.xlsx,stimuli/Social1.png,stimuli/Social2.png,stimuli/Nonsocial1.png,stimuli/Nonsocial2.png,,"(-0.7, -0.5)",cs_minus_ns,,,,,0,0,0,0,,,,,1,4,20,13,,,,,,,,,,,,,,,,,,,,,,,,,,,,,,,,,,,,,,,,,,,,,,,,,,,,,,,,,,,,,,623.9745879000984,625.5509063000791,623.467690099962,625.5509063000791,625.5509063000791,625.5509063000791,0.007596499985083938,0.013050199951976538,50,reward,1,[0.49308199994266033],[0.4930855000857264],626.050852100132,626.050852100132,0.00777659984305501,0.00777659984305501,0.01868900004774332,0.053413799963891506,0.060341899981722236,0.10196239990182221,0.10895049991086125,1.004700900055468,629.5438578999601,633.6200488000177,,,,,,,,,,,,,,,,,,,,,,,,,,,,,4,A,2023-12-06_14h45.01.682,gca_avoidance_task,2022.2.4,143.73206051684534,
positions.xlsx,stimuli.xlsx,stimuli/Social1.png,stimuli/Social2.png,stimuli/Nonsocial1.png,stimuli/Nonsocial2.png,,"(-0.7, 0.5)",cs_minus_s,,,,,0,0,0,0,,,,,1,5,21,4,,,,,,,,,,,,,,,,,,,,,,,,,,,,,,,,,,,,,,,,,,,,,,,,,,,,,,,,,,,,,,634.126910299994,636.0782433999702,633.6200488000177,636.0782433999702,636.0782433999702,636.0782433999702,0.006244900170713663,0.01320160017348826,55,reward,1,[0.9169142001774162],[0.9169179000891745],637.0017615000252,637.0017615000252,0.00746740004979074,0.00746740004979074,0.018360000103712082,0.05308050010353327,0.060009000124409795,0.10168080008588731,0.10866990010254085,1.0044493000023067,640.4947500000708,644.7515368000604,,,,,,,,,,,,,,,,,,,,,,,,,,,,,4,A,2023-12-06_14h45.01.682,gca_avoidance_task,2022.2.4,143.73206051684534,
positions.xlsx,stimuli.xlsx,stimuli/Social1.png,stimuli/Social2.png,stimuli/Nonsocial1.png,stimuli/Nonsocial2.png,,"(-0.7, 0.5)",cs_plus_ns,,,,,0,0,0,0,,,,,1,6,22,8,,,,,,,,,,,,,,,,,,,,,,,,,,,,,,,,,,,,,,,,,,,,,,,,,,,,,,,,,,,,,,645.258404100081,646.2722207000479,644.7515368000604,646.2722207000479,646.2722207000479,646.2722207000479,0.0073194000869989395,0.013006499968469143,55,none,0,,,651.2789682999719,651.2789682999719,0.014098000014200807,0.014098000014200807,0.01977230003103614,0.05446060001850128,0.06140340003184974,0.10309499991126359,0.11003859993070364,1.0127079000230879,654.771967299981,658.3412522000726,,,,,,,,,,,,,,,,,,,,,,,,,,,,,4,A,2023-12-06_14h45.01.682,gca_avoidance_task,2022.2.4,143.73206051684534,
positions.xlsx,stimuli.xlsx,stimuli/Social1.png,stimuli/Social2.png,stimuli/Nonsocial1.png,stimuli/Nonsocial2.png,,"(0.7, 0.5)",cs_plus_s,,,,,0,0,0,0,,,,,1,7,23,2,,,,,,,,,,,,,,,,,,,,,,,,,,,,,,,,,,,,,,,,,,,,,,,,,,,,,,,,,,,,,,658.8480764001142,660.5981128001586,658.3412522000726,660.5981128001586,660.5981128001586,660.5981128001586,0.006286300020292401,0.013229000149294734,55,none,0,,,665.6048081000336,665.6048081000336,0.013347100000828505,0.013347100000828505,0.019931400194764137,0.054633800173178315,0.06156380008906126,0.10320690018124878,0.1102267000824213,1.0128874001093209,669.097699600039,672.8198176000733,,,,,,,,,,,,,,,,,,,,,,,,,,,,,4,A,2023-12-06_14h45.01.682,gca_avoidance_task,2022.2.4,143.73206051684534,
positions.xlsx,stimuli.xlsx,stimuli/Social1.png,stimuli/Social2.png,stimuli/Nonsocial1.png,stimuli/Nonsocial2.png,,"(0.7, -0.5)",cs_plus_s,,,,,0,0,0,0,,,,,1,8,24,3,,,,,,,,,,,,,,,,,,,,,,,,,,,,,,,,,,,,,,,,,,,,,,,,,,,,,,,,,,,,,,673.3266759000253,674.694678200176,672.8198176000733,674.694678200176,674.694678200176,674.694678200176,0.005851400084793568,0.01322960015386343,55,none,0,,,679.7014204000589,679.7014204000589,0.01366350008174777,0.01366350008174777,0.02002000017091632,0.05472020013257861,0.06166950007900596,0.10330840013921261,0.11023900005966425,1.0129303000867367,683.1943561001681,686.9303460000083,,,,,,,,,,,,,,,,,,,,,,,,,,,,,4,A,2023-12-06_14h45.01.682,gca_avoidance_task,2022.2.4,143.73206051684534,
positions.xlsx,stimuli.xlsx,stimuli/Social1.png,stimuli/Social2.png,stimuli/Nonsocial1.png,stimuli/Nonsocial2.png,,"(0.7, 0.5)",cs_minus_ns,,,,,0,0,0,0,,,,,1,9,25,14,,,,,,,,,,,,,,,,,,,,,,,,,,,,,,,,,,,,,,,,,,,,,,,,,,,,,,,,,,,,,,687.4371990000363,689.1385234000627,686.9303460000083,689.1385234000627,689.1385234000627,689.1385234000627,0.006951299961656332,0.013513199985027313,60,reward,1,[0.4588307000230998],[0.45883430005051196],689.6037721000612,689.6037721000612,0.007449399912729859,0.007449399912729859,0.018381099915131927,0.053105799946933985,0.060019199969246984,0.10166379995644093,0.10860619996674359,1.0044583999551833,693.0966954999603,697.117442100076,,,,,,,,,,,,,,,,,,,,,,,,,,,,,4,A,2023-12-06_14h45.01.682,gca_avoidance_task,2022.2.4,143.73206051684534,
positions.xlsx,stimuli.xlsx,stimuli/Social1.png,stimuli/Social2.png,stimuli/Nonsocial1.png,stimuli/Nonsocial2.png,,"(0.7, -0.5)",cs_minus_ns,,,,,0,0,0,0,,,,,1,10,26,15,,,,,,,,,,,,,,,,,,,,,,,,,,,,,,,,,,,,,,,,,,,,,,,,,,,,,,,,,,,,,,697.6243009001482,698.9714752000291,697.117442100076,698.9714752000291,698.9714752000291,698.9714752000291,0.007632200140506029,0.013176999986171722,65,reward,1,[0.6111869001761079],[0.6111904000863433],699.589478299953,699.589478299953,0.00761400000192225,0.00761400000192225,0.01844160002656281,0.05313729983754456,0.06014069984667003,0.10178379993885756,0.10871689999476075,1.0044275999534875,703.0823858000804,706.651764600072,,,,,,,,,,,,,,,,,,,,,,,,,,,,,4,A,2023-12-06_14h45.01.682,gca_avoidance_task,2022.2.4,143.73206051684534,
positions.xlsx,stimuli.xlsx,stimuli/Social1.png,stimuli/Social2.png,stimuli/Nonsocial1.png,stimuli/Nonsocial2.png,,"(0.7, -0.5)",cs_plus_ns,,,,,0,0,0,0,,,,,1,11,27,11,,,,,,,,,,,,,,,,,,,,,,,,,,,,,,,,,,,,,,,,,,,,,,,,,,,,,,,,,,,,,,707.158610300161,708.873831700068,706.651764600072,708.873831700068,708.873831700068,708.873831700068,0.00752329989336431,0.013275600038468838,65,none,0,,,713.8874586001039,713.8874586001039,0.014291799860075116,0.014291799860075116,0.026940099895000458,0.054659799905493855,0.06161189987324178,0.10330590000376105,0.11024859989993274,1.0129768999759108,717.3734591000248,720.9149967001285,,,,,,,,,,,,,,,,,,,,,,,,,,,,,4,A,2023-12-06_14h45.01.682,gca_avoidance_task,2022.2.4,143.73206051684534,
positions.xlsx,stimuli.xlsx,stimuli/Social1.png,stimuli/Social2.png,stimuli/Nonsocial1.png,stimuli/Nonsocial2.png,,"(-0.7, 0.5)",cs_minus_ns,,,,,0,0,0,0,,,,,1,12,28,12,,,,,,,,,,,,,,,,,,,,,,,,,,,,,,,,,,,,,,,,,,,,,,,,,,,,,,,,,,,,,,721.4218564999755,722.796831500018,720.9149967001285,722.796831500018,722.796831500018,722.796831500018,0.007100400049239397,0.01304679992608726,70,reward,1,[0.4931751999538392],[0.49317899998277426],723.296812799992,723.296812799992,0.0074085998348891735,0.0074085998348891735,0.01804409991018474,0.05274489987641573,0.059674100019037724,0.10133049986325204,0.10826759994961321,1.0040988000109792,726.7897922999691,730.6437564999796,,,,,,,,,,,,,,,,,,,,,,,,,,,,,4,A,2023-12-06_14h45.01.682,gca_avoidance_task,2022.2.4,143.73206051684534,
positions.xlsx,stimuli.xlsx,stimuli/Social1.png,stimuli/Social2.png,stimuli/Nonsocial1.png,stimuli/Nonsocial2.png,,"(-0.7, 0.5)",cs_plus_s,,,,,0,0,0,0,,,,,1,13,29,0,,,,,,,,,,,,,,,,,,,,,,,,,,,,,,,,,,,,,,,,,,,,,,,,,,,,,,,,,,,,,,731.1506829999853,732.2200462999754,730.6437564999796,732.2200462999754,732.2200462999754,732.2200462999754,0.006370399845764041,0.012939499923959374,70,none,0,,,737.2267877999693,737.2267877999693,0.013323700055480003,0.013323700055480003,0.019690999994054437,0.054359500063583255,0.06132499990053475,0.10296639986336231,0.10995620000176132,1.0126533000729978,740.719751900062,745.1084600000177,,,,,,,,,,,,,,,,,,,,,,,,,,,,,4,A,2023-12-06_14h45.01.682,gca_avoidance_task,2022.2.4,143.73206051684534,
positions.xlsx,stimuli.xlsx,stimuli/Social1.png,stimuli/Social2.png,stimuli/Nonsocial1.png,stimuli/Nonsocial2.png,,"(0.7, -0.5)",cs_minus_s,,,,,0,0,0,0,,,,,1,14,30,7,,,,,,,,,,,,,,,,,,,,,,,,,,,,,,,,,,,,,,,,,,,,,,,,,,,,,,,,,,,,,,745.6153239000123,747.4138705001678,745.1084600000177,747.4138705001678,747.4138705001678,747.4138705001678,0.006747599923983216,0.013290199916809797,75,reward,1,[0.5488440999761224],[0.5488479998894036],747.9694209001027,747.9694209001027,0.006976299919188023,0.006976299919188023,0.0183271998539567,0.053006500005722046,0.059915499994531274,0.10164629993960261,0.10856299987062812,1.0043409999925643,751.4623698000796,755.3788700001314,,,,,,,,,,,,,,,,,,,,,,,,,,,,,4,A,2023-12-06_14h45.01.682,gca_avoidance_task,2022.2.4,143.73206051684534,
positions.xlsx,stimuli.xlsx,stimuli/Social1.png,stimuli/Social2.png,stimuli/Nonsocial1.png,stimuli/Nonsocial2.png,,"(0.7, 0.5)",cs_minus_s,,,,,0,0,0,0,,,,,1,15,31,6,,,,,,,,,,,,,,,,,,,,,,,,,,,,,,,,,,,,,,,,,,,,,,,,,,,,,,,,,,,,,,755.885695700068,757.281510700006,755.3788700001314,757.281510700006,757.281510700006,757.281510700006,0.0061339999083429575,0.013085199985653162,80,reward,1,[0.4722110000438988],[0.4722148000728339],757.760670900112,757.760670900112,0.00838460004888475,0.00838460004888475,0.0187389999628067,0.05339240003377199,0.060365699930116534,0.10201029991731048,0.10901080002076924,1.0047933999449015,761.253615600057,764.5728426000569,,,,,,,,,,,,,,,,,,,,,,,,,,,,,4,A,2023-12-06_14h45.01.682,gca_avoidance_task,2022.2.4,143.73206051684534,
positions.xlsx,stimuli.xlsx,stimuli/Social1.png,stimuli/Social2.png,stimuli/Nonsocial1.png,stimuli/Nonsocial2.png,,"(0.7, -0.5)",cs_minus_ns,,,,,0,0,0,0,,,,,,,,,0,0,0,15,,,,,,,,,,,,,,,,,,,,,,,,,,,,,,,,,,,,,,,,,,,,,,,,,,,,,,,,,,780.3847280000336,781.8499437000137,779.8848001000006,781.8499437000137,781.8499437000137,781.8499437000137,0.006477500079199672,0.013524800073355436,85,reward,1,[0.5351219000294805],[0.5351260001771152],782.3915931000374,782.3915931000374,0.007688799872994423,0.007688799872994423,0.01864129980094731,0.05332439998164773,0.06025270000100136,0.10190459992736578,0.10887879994697869,1.0046423999592662,785.8845426000189,789.7732345000841,764.5728426000569,764.5728426000569,764.5728426000569,764.5728426000569,space,13.66375539987348,,,,,,,,,,,,,,,,,,,,,,,4,A,2023-12-06_14h45.01.682,gca_avoidance_task,2022.2.4,143.73206051684534,
positions.xlsx,stimuli.xlsx,stimuli/Social1.png,stimuli/Social2.png,stimuli/Nonsocial1.png,stimuli/Nonsocial2.png,,"(-0.7, -0.5)",cs_plus_ns,,,,,0,0,0,0,,,,,,,,,0,1,1,9,,,,,,,,,,,,,,,,,,,,,,,,,,,,,,,,,,,,,,,,,,,,,,,,,,,,,,,,,,790.2801234000362,791.509237700142,789.7732345000841,791.509237700142,791.509237700142,791.509237700142,0.006823500152677298,0.013416800182312727,85,none,0,,,796.5159835000522,796.5159835000522,0.014344700146466494,0.014344700146466494,0.02018520003184676,0.05484540015459061,0.06180749996565282,0.10345460008829832,0.11038070009090006,1.013149700127542,800.0089428001083,803.7865490999538,,,,,,,,,,,,,,,,,,,,,,,,,,,,,4,A,2023-12-06_14h45.01.682,gca_avoidance_task,2022.2.4,143.73206051684534,
positions.xlsx,stimuli.xlsx,stimuli/Social1.png,stimuli/Social2.png,stimuli/Nonsocial1.png,stimuli/Nonsocial2.png,,"(-0.7, 0.5)",cs_minus_ns,,,,,0,0,0,0,,,,,,,,,0,2,2,12,,,,,,,,,,,,,,,,,,,,,,,,,,,,,,,,,,,,,,,,,,,,,,,,,,,,,,,,,,804.2934298999608,805.6753144001123,803.7865490999538,805.6753144001123,805.6753144001123,805.6753144001123,0.006399499950930476,0.013484800001606345,90,reward,1,[0.5422609997913241],[0.542264899937436],806.2239433000796,806.2239433000796,0.0072124002035707235,0.0072124002035707235,0.018200800055637956,0.05283410008996725,0.059803200187161565,0.10144210001453757,0.10841620014980435,1.004215900087729,809.7168753000442,813.6333634001203,,,,,,,,,,,,,,,,,,,,,,,,,,,,,4,A,2023-12-06_14h45.01.682,gca_avoidance_task,2022.2.4,143.73206051684534,
positions.xlsx,stimuli.xlsx,stimuli/Social1.png,stimuli/Social2.png,stimuli/Nonsocial1.png,stimuli/Nonsocial2.png,,"(-0.7, -0.5)",cs_minus_ns,,,,,0,0,0,0,,,,,,,,,0,3,3,13,,,,,,,,,,,,,,,,,,,,,,,,,,,,,,,,,,,,,,,,,,,,,,,,,,,,,,,,,,814.1402368999552,815.8970825001597,813.6333634001203,815.8970825001597,815.8970825001597,815.8970825001597,0.006506199948489666,0.013472599908709526,95,reward,1,[0.5283623000141233],[0.5283659999258816],816.4318313000258,816.4318313000258,0.007367599988356233,0.007367599988356233,0.017934199888259172,0.052602099953219295,0.05949019989930093,0.10114689986221492,0.10809109988622367,1.003931500017643,819.924768100027,824.0426569001283,,,,,,,,,,,,,,,,,,,,,,,,,,,,,4,A,2023-12-06_14h45.01.682,gca_avoidance_task,2022.2.4,143.73206051684534,
positions.xlsx,stimuli.xlsx,stimuli/Social1.png,stimuli/Social2.png,stimuli/Nonsocial1.png,stimuli/Nonsocial2.png,,"(0.7, 0.5)",cs_plus_ns,,,,,0,0,0,0,,,,,,,,,0,4,4,10,,,,,,,,,,,,,,,,,,,,,,,,,,,,,,,,,,,,,,,,,,,,,,,,,,,,,,,,,,824.5495229000226,825.8689317000099,824.0426569001283,825.8689317000099,825.8689317000099,825.8689317000099,0.006799600087106228,0.013437099987640977,95,none,0,,,830.8756598001346,830.8756598001346,0.014249900123104453,0.014249900123104453,0.020213000010699034,0.05487760016694665,0.06184830004349351,0.10350290010683239,0.11043870006687939,1.0131710001733154,834.3686190000735,838.05598750012,,,,,,,,,,,,,,,,,,,,,,,,,,,,,4,A,2023-12-06_14h45.01.682,gca_avoidance_task,2022.2.4,143.73206051684534,
positions.xlsx,stimuli.xlsx,stimuli/Social1.png,stimuli/Social2.png,stimuli/Nonsocial1.png,stimuli/Nonsocial2.png,,"(0.7, -0.5)",cs_minus_s,,,,,0,0,0,0,,,,,,,,,0,5,5,7,,,,,,,,,,,,,,,,,,,,,,,,,,,,,,,,,,,,,,,,,,,,,,,,,,,,,,,,,,838.5628545000218,840.2016779000405,838.05598750012,840.2016779000405,840.2016779000405,840.2016779000405,0.006484600016847253,0.013161000097170472,100,reward,1,[0.8056068001314998],[0.805610700044781],841.014091799967,841.014091799967,0.007904900005087256,0.007904900005087256,0.01875000004656613,0.05348200001753867,0.060423400020226836,0.10204400005750358,0.10899350000545382,1.0047655999660492,844.507101500174,848.1041755999904,,,,,,,,,,,,,,,,,,,,,,,,,,,,,4,A,2023-12-06_14h45.01.682,gca_avoidance_task,2022.2.4,143.73206051684534,
positions.xlsx,stimuli.xlsx,stimuli/Social1.png,stimuli/Social2.png,stimuli/Nonsocial1.png,stimuli/Nonsocial2.png,,"(-0.7, 0.5)",cs_minus_s,,,,,0,0,0,0,,,,,,,,,0,6,6,4,,,,,,,,,,,,,,,,,,,,,,,,,,,,,,,,,,,,,,,,,,,,,,,,,,,,,,,,,,848.6110968999565,849.6387775000185,848.1041755999904,849.6387775000185,849.6387775000185,849.6387775000185,0.005843799794092774,0.013062499929219484,105,reward,1,[0.4859878998249769],[0.485991699853912],850.1317829000764,850.1317829000764,0.007672100095078349,0.007672100095078349,0.018361900001764297,0.053023300133645535,0.05993590014986694,0.1016582001466304,0.10862080007791519,1.004365400178358,853.6247376000974,857.9926477000117,,,,,,,,,,,,,,,,,,,,,,,,,,,,,4,A,2023-12-06_14h45.01.682,gca_avoidance_task,2022.2.4,143.73206051684534,
positions.xlsx,stimuli.xlsx,stimuli/Social1.png,stimuli/Social2.png,stimuli/Nonsocial1.png,stimuli/Nonsocial2.png,,"(-0.7, 0.5)",cs_plus_ns,,,,,0,0,0,0,,,,,,,,,0,7,7,8,,,,,,,,,,,,,,,,,,,,,,,,,,,,,,,,,,,,,,,,,,,,,,,,,,,,,,,,,,858.4994984001387,860.0272226999514,857.9926477000117,860.0272226999514,860.0272226999514,860.0272226999514,0.006378700025379658,0.013453799998387694,105,none,0,,,865.0339534999803,865.0339534999803,0.014470499940216541,0.014470499940216541,0.02021929994225502,0.05489090015180409,0.061842700000852346,0.1034661999437958,0.11045960010960698,1.0131695999298245,868.526938199997,872.0893008001149,,,,,,,,,,,,,,,,,,,,,,,,,,,,,4,A,2023-12-06_14h45.01.682,gca_avoidance_task,2022.2.4,143.73206051684534,
positions.xlsx,stimuli.xlsx,stimuli/Social1.png,stimuli/Social2.png,stimuli/Nonsocial1.png,stimuli/Nonsocial2.png,,"(-0.7, 0.5)",cs_plus_s,,,,,0,0,0,0,,,,,,,,,0,8,8,0,,,,,,,,,,,,,,,,,,,,,,,,,,,,,,,,,,,,,,,,,,,,,,,,,,,,,,,,,,872.596106900135,873.8391307001002,872.0893008001149,873.8391307001002,873.8391307001002,873.8391307001002,0.006007299991324544,0.013411400141194463,105,none,0,,,878.8459091000259,878.8459091000259,0.013999200193211436,0.013999200193211436,0.02014390006661415,0.054808299988508224,0.061757200164720416,0.10344210010953248,0.11036620009690523,1.0131286000832915,882.3388272000011,886.6580712001305,,,,,,,,,,,,,,,,,,,,,,,,,,,,,4,A,2023-12-06_14h45.01.682,gca_avoidance_task,2022.2.4,143.73206051684534,
positions.xlsx,stimuli.xlsx,stimuli/Social1.png,stimuli/Social2.png,stimuli/Nonsocial1.png,stimuli/Nonsocial2.png,,"(-0.7, -0.5)",cs_plus_s,,,,,0,0,0,0,,,,,,,,,0,9,9,1,,,,,,,,,,,,,,,,,,,,,,,,,,,,,,,,,,,,,,,,,,,,,,,,,,,,,,,,,,887.1649736000691,888.8663053000346,886.6580712001305,888.8663053000346,888.8663053000346,888.8663053000346,0.006120000034570694,0.013496599858626723,105,none,0,,,893.8730834999587,893.8730834999587,0.01414350001141429,0.01414350001141429,0.02029179991222918,0.054975299863144755,0.061886899871751666,0.10357829998247325,0.11054020002484322,1.0132465998176485,897.3660298001487,901.1505548001733,,,,,,,,,,,,,,,,,,,,,,,,,,,,,4,A,2023-12-06_14h45.01.682,gca_avoidance_task,2022.2.4,143.73206051684534,
positions.xlsx,stimuli.xlsx,stimuli/Social1.png,stimuli/Social2.png,stimuli/Nonsocial1.png,stimuli/Nonsocial2.png,,"(0.7, 0.5)",cs_plus_s,,,,,0,0,0,0,,,,,,,,,0,10,10,2,,,,,,,,,,,,,,,,,,,,,,,,,,,,,,,,,,,,,,,,,,,,,,,,,,,,,,,,,,901.6574538000859,903.3726773001254,901.1505548001733,903.3726773001254,903.3726773001254,903.3726773001254,0.005912399850785732,0.01345139998011291,105,none,0,,,908.3793570001144,908.3793570001144,0.013546000001952052,0.013546000001952052,0.020133999874815345,0.05482689989730716,0.06180339981801808,0.10341069987043738,0.11047569988295436,1.013156599830836,911.8723679000977,916.1082395999692,,,,,,,,,,,,,,,,,,,,,,,,,,,,,4,A,2023-12-06_14h45.01.682,gca_avoidance_task,2022.2.4,143.73206051684534,
positions.xlsx,stimuli.xlsx,stimuli/Social1.png,stimuli/Social2.png,stimuli/Nonsocial1.png,stimuli/Nonsocial2.png,,"(0.7, 0.5)",cs_minus_ns,,,,,0,0,0,0,,,,,,,,,0,11,11,14,,,,,,,,,,,,,,,,,,,,,,,,,,,,,,,,,,,,,,,,,,,,,,,,,,,,,,,,,,916.615169600118,917.9206628000829,916.1082395999692,917.9206628000829,917.9206628000829,917.9206628000829,0.007120499853044748,0.01305549987591803,110,reward,1,[0.4652432999573648],[0.4652469998691231],918.3928879001178,918.3928879001178,0.008457500021904707,0.008457500021904707,0.018614600179716945,0.0533056000713259,0.060208900133147836,0.10188070009462535,0.10882039996795356,1.0046008999925107,921.8858414001297,926.2328306999989,,,,,,,,,,,,,,,,,,,,,,,,,,,,,4,A,2023-12-06_14h45.01.682,gca_avoidance_task,2022.2.4,143.73206051684534,
positions.xlsx,stimuli.xlsx,stimuli/Social1.png,stimuli/Social2.png,stimuli/Nonsocial1.png,stimuli/Nonsocial2.png,,"(0.7, -0.5)",cs_plus_s,,,,,0,0,0,0,,,,,,,,,0,12,12,3,,,,,,,,,,,,,,,,,,,,,,,,,,,,,,,,,,,,,,,,,,,,,,,,,,,,,,,,,,926.7397004000377,928.3716260001529,926.2328306999989,928.3716260001529,928.3716260001529,928.3716260001529,0.00596800004132092,0.012954600155353546,110,none,0,,,933.3783503000159,933.3783503000159,0.012683599954470992,0.012683599954470992,0.01963140000589192,0.054306100122630596,0.061259400099515915,0.10290880012325943,0.10987429996021092,1.012630700133741,936.8712726000231,940.885031200014,,,,,,,,,,,,,,,,,,,,,,,,,,,,,4,A,2023-12-06_14h45.01.682,gca_avoidance_task,2022.2.4,143.73206051684534,
positions.xlsx,stimuli.xlsx,stimuli/Social1.png,stimuli/Social2.png,stimuli/Nonsocial1.png,stimuli/Nonsocial2.png,,"(0.7, 0.5)",cs_minus_s,,,,,0,0,0,0,,,,,,,,,0,13,13,6,,,,,,,,,,,,,,,,,,,,,,,,,,,,,,,,,,,,,,,,,,,,,,,,,,,,,,,,,,941.3919412000105,943.0585474001709,940.885031200014,943.0585474001709,943.0585474001709,943.0585474001709,0.005925399949774146,0.013120800023898482,115,reward,1,[0.583282999927178],[0.5833004000596702],943.6487265001051,943.6487265001051,0.006976100150495768,0.006976100150495768,0.01871400000527501,0.05343120009638369,0.06034780014306307,0.1019704001955688,0.10896740015596151,1.00477150012739,947.141733800061,950.9749058000743,,,,,,,,,,,,,,,,,,,,,,,,,,,,,4,A,2023-12-06_14h45.01.682,gca_avoidance_task,2022.2.4,143.73206051684534,
positions.xlsx,stimuli.xlsx,stimuli/Social1.png,stimuli/Social2.png,stimuli/Nonsocial1.png,stimuli/Nonsocial2.png,,"(-0.7, -0.5)",cs_minus_s,,,,,0,0,0,0,,,,,,,,,0,14,14,5,,,,,,,,,,,,,,,,,,,,,,,,,,,,,,,,,,,,,,,,,,,,,,,,,,,,,,,,,,951.4817699999548,953.190029800171,950.9749058000743,953.190029800171,953.190029800171,953.190029800171,0.006315200123935938,0.01292379992082715,120,reward,1,[0.49988640006631613],[0.49989029997959733],953.6969809001312,953.6969809001312,0.0077287000603973866,0.0077287000603973866,0.01847740006633103,0.05314540001563728,0.060073599917814136,0.10174329997971654,0.10868910001590848,1.0044573999475688,957.1898787999526,961.6619696000125,,,,,,,,,,,,,,,,,,,,,,,,,,,,,4,A,2023-12-06_14h45.01.682,gca_avoidance_task,2022.2.4,143.73206051684534,
positions.xlsx,stimuli.xlsx,stimuli/Social1.png,stimuli/Social2.png,stimuli/Nonsocial1.png,stimuli/Nonsocial2.png,,"(0.7, -0.5)",cs_plus_ns,,,,,0,0,0,0,,,,,,,,,0,15,15,11,,,,,,,,,,,,,,,,,,,,,,,,,,,,,,,,,,,,,,,,,,,,,,,,,,,,,,,,,,962.1688300000969,963.3632418999914,961.6619696000125,963.3632418999914,963.3632418999914,963.3632418999914,0.006649099988862872,0.013231600169092417,120,none,0,,,968.3769146001432,968.3769146001432,0.014747000066563487,0.014747000066563487,0.02696670009754598,0.05470840004272759,0.06159189995378256,0.10326350014656782,0.11027609999291599,1.0129504001233727,971.862870800076,975.4530595999677,,,,,,,,,,,,,,,,,,,,,,,,,,,,,4,A,2023-12-06_14h45.01.682,gca_avoidance_task,2022.2.4,143.73206051684534,
positions.xlsx,stimuli.xlsx,stimuli/Social1.png,stimuli/Social2.png,stimuli/Nonsocial1.png,stimuli/Nonsocial2.png,,"(0.7, -0.5)",cs_plus_s,,,,,0,0,0,0,,,,,,,,,1,0,16,3,,,,,,,,,,,,,,,,,,,,,,,,,,,,,,,,,,,,,,,,,,,,,,,,,,,,,,,,,,975.959917700151,977.8626282000914,975.4530595999677,977.8626282000914,977.8626282000914,977.8626282000914,0.006018799962475896,0.013108399929478765,120,none,0,,,982.8694031001069,982.8694031001069,0.013287399895489216,0.013287399895489216,0.019926399923861027,0.054516199976205826,0.061478500021621585,0.10318399989046156,0.1100834000390023,1.0128476000390947,986.3623363000806,990.2094088001177,,,,,,,,,,,,,,,,,,,,,,,,,,,,,4,A,2023-12-06_14h45.01.682,gca_avoidance_task,2022.2.4,143.73206051684534,
positions.xlsx,stimuli.xlsx,stimuli/Social1.png,stimuli/Social2.png,stimuli/Nonsocial1.png,stimuli/Nonsocial2.png,,"(0.7, 0.5)",cs_plus_ns,,,,,0,0,0,0,,,,,,,,,1,1,17,10,,,,,,,,,,,,,,,,,,,,,,,,,,,,,,,,,,,,,,,,,,,,,,,,,,,,,,,,,,990.716255000094,992.3342416000087,990.2094088001177,992.3342416000087,992.3342416000087,992.3342416000087,0.006836699787527323,0.01295029977336526,120,none,0,,,997.3410086000804,997.3410086000804,0.013900599908083677,0.013900599908083677,0.019725099904462695,0.05440059979446232,0.06134429993107915,0.10297879995778203,0.10994169977493584,1.0126931997947395,1000.8339744999539,1005.0351661001332,,,,,,,,,,,,,,,,,,,,,,,,,,,,,4,A,2023-12-06_14h45.01.682,gca_avoidance_task,2022.2.4,143.73206051684534,
positions.xlsx,stimuli.xlsx,stimuli/Social1.png,stimuli/Social2.png,stimuli/Nonsocial1.png,stimuli/Nonsocial2.png,,"(0.7, 0.5)",cs_plus_s,,,,,0,0,0,0,,,,,,,,,1,2,18,2,,,,,,,,,,,,,,,,,,,,,,,,,,,,,,,,,,,,,,,,,,,,,,,,,,,,,,,,,,1005.5420184000395,1007.0558735001832,1005.0351661001332,1007.0558735001832,1007.0558735001832,1007.0558735001832,0.005894700065255165,0.013185200048610568,120,none,0,,,1012.062615300063,1012.062615300063,0.01361760008148849,0.01361760008148849,0.01996810012497008,0.05462960014119744,0.06158720003440976,0.10321840015240014,0.11019660020247102,1.0129321001004428,1015.5555757000111,1019.5692909001373,,,,,,,,,,,,,,,,,,,,,,,,,,,,,4,A,2023-12-06_14h45.01.682,gca_avoidance_task,2022.2.4,143.73206051684534,
positions.xlsx,stimuli.xlsx,stimuli/Social1.png,stimuli/Social2.png,stimuli/Nonsocial1.png,stimuli/Nonsocial2.png,,"(0.7, -0.5)",cs_plus_ns,,,,,0,0,0,0,,,,,,,,,1,3,19,11,,,,,,,,,,,,,,,,,,,,,,,,,,,,,,,,,,,,,,,,,,,,,,,,,,,,,,,,,,1020.0761690000072,1021.5483132000081,1019.5692909001373,1021.5483132000081,1021.5483132000081,1021.5483132000081,0.006628399947658181,0.013038599863648415,120,none,0,,,1026.5550900001545,1026.5550900001545,0.013769699959084392,0.013769699959084392,0.01982970000244677,0.05448070005513728,0.061448900029063225,0.10307399998418987,0.11003910005092621,1.0127759999595582,1030.0480450000614,1034.263141100062,,,,,,,,,,,,,,,,,,,,,,,,,,,,,4,A,2023-12-06_14h45.01.682,gca_avoidance_task,2022.2.4,143.73206051684534,
positions.xlsx,stimuli.xlsx,stimuli/Social1.png,stimuli/Social2.png,stimuli/Nonsocial1.png,stimuli/Nonsocial2.png,,"(-0.7, 0.5)",cs_minus_ns,,,,,0,0,0,0,,,,,,,,,1,4,20,12,,,,,,,,,,,,,,,,,,,,,,,,,,,,,,,,,,,,,,,,,,,,,,,,,,,,,,,,,,1034.7700478001498,1035.978279700037,1034.263141100062,1035.978279700037,1035.978279700037,1035.978279700037,0.00683439988642931,0.01300989999435842,125,reward,1,[1.1804909999482334],[1.1804946998599917],1037.1657330000307,1037.1657330000307,0.00775930006057024,0.00775930006057024,0.018057400127872825,0.052707300055772066,0.05966860009357333,0.10132300015538931,0.10825409996323287,1.0040156000759453,1040.658674000064,1044.6376694999635,,,,,,,,,,,,,,,,,,,,,,,,,,,,,4,A,2023-12-06_14h45.01.682,gca_avoidance_task,2022.2.4,143.73206051684534,
positions.xlsx,stimuli.xlsx,stimuli/Social1.png,stimuli/Social2.png,stimuli/Nonsocial1.png,stimuli/Nonsocial2.png,,"(0.7, 0.5)",cs_minus_ns,,,,,0,0,0,0,,,,,,,,,1,5,21,14,,,,,,,,,,,,,,,,,,,,,,,,,,,,,,,,,,,,,,,,,,,,,,,,,,,,,,,,,,1045.1445709001273,1047.1097562001087,1044.6376694999635,1047.1097562001087,1047.1097562001087,1047.1097562001087,0.006580899935215712,0.013196900021284819,130,reward,1,[0.5143277999013662],[0.5143315999303013],1047.6305629001,1047.6305629001,0.007966100005432963,0.007966100005432963,0.017769699916243553,0.05249139992520213,0.059431100031360984,0.10110859991982579,0.10802539996802807,1.0038278000429273,1051.1235595000908,1054.8664516999852,,,,,,,,,,,,,,,,,,,,,,,,,,,,,4,A,2023-12-06_14h45.01.682,gca_avoidance_task,2022.2.4,143.73206051684534,
positions.xlsx,stimuli.xlsx,stimuli/Social1.png,stimuli/Social2.png,stimuli/Nonsocial1.png,stimuli/Nonsocial2.png,,"(-0.7, -0.5)",cs_minus_ns,,,,,0,0,0,0,,,,,,,,,1,6,22,13,,,,,,,,,,,,,,,,,,,,,,,,,,,,,,,,,,,,,,,,,,,,,,,,,,,,,,,,,,1055.3733085000422,1056.9079730000813,1054.8664516999852,1056.9079730000813,1056.9079730000813,1056.9079730000813,0.0069101001136004925,0.013065900187939405,135,reward,1,[0.548689000075683],[0.5486929002217948],1057.463497800054,1057.463497800054,0.007462899899110198,0.007462899899110198,0.018425399903208017,0.053120499942451715,0.060092000057920814,0.10172230005264282,0.10865679988637567,1.004473099950701,1060.9564598000143,1064.7687820000574,,,,,,,,,,,,,,,,,,,,,,,,,,,,,4,A,2023-12-06_14h45.01.682,gca_avoidance_task,2022.2.4,143.73206051684534,
positions.xlsx,stimuli.xlsx,stimuli/Social1.png,stimuli/Social2.png,stimuli/Nonsocial1.png,stimuli/Nonsocial2.png,,"(-0.7, -0.5)",cs_minus_s,,,,,0,0,0,0,,,,,,,,,1,7,23,5,,,,,,,,,,,,,,,,,,,,,,,,,,,,,,,,,,,,,,,,,,,,,,,,,,,,,,,,,,1065.2756354000885,1066.64366660011,1064.7687820000574,1066.64366660011,1066.64366660011,1066.64366660011,0.006990799913182855,0.013088899897411466,140,reward,1,[0.6460299999453127],[0.6460340998601168],1067.2964345000219,1067.2964345000219,0.00826239981688559,0.00826239981688559,0.01822809991426766,0.052966399816796184,0.05992789985612035,0.10149499983526766,0.10845869989134371,1.0042659000027925,1070.789414800005,1074.6433590999804,,,,,,,,,,,,,,,,,,,,,,,,,,,,,4,A,2023-12-06_14h45.01.682,gca_avoidance_task,2022.2.4,143.73206051684534,
positions.xlsx,stimuli.xlsx,stimuli/Social1.png,stimuli/Social2.png,stimuli/Nonsocial1.png,stimuli/Nonsocial2.png,,"(-0.7, 0.5)",cs_plus_s,,,,,0,0,0,0,,,,,,,,,1,8,24,0,,,,,,,,,,,,,,,,,,,,,,,,,,,,,,,,,,,,,,,,,,,,,,,,,,,,,,,,,,1075.1502798001748,1076.9141035999637,1074.6433590999804,1076.9141035999637,1076.9141035999637,1076.9141035999637,0.005894300062209368,0.013412800151854753,140,none,0,,,1081.920823500026,1081.920823500026,0.014227800071239471,0.014227800071239471,0.020154100144281983,0.05479700001887977,0.06173539999872446,0.10340819996781647,0.11035780003294349,1.0130921001546085,1085.413792700041,1089.1775160001125,,,,,,,,,,,,,,,,,,,,,,,,,,,,,4,A,2023-12-06_14h45.01.682,gca_avoidance_task,2022.2.4,143.73206051684534,
positions.xlsx,stimuli.xlsx,stimuli/Social1.png,stimuli/Social2.png,stimuli/Nonsocial1.png,stimuli/Nonsocial2.png,,"(0.7, -0.5)",cs_minus_ns,,,,,0,0,0,0,,,,,,,,,1,9,25,15,,,,,,,,,,,,,,,,,,,,,,,,,,,,,,,,,,,,,,,,,,,,,,,,,,,,,,,,,,1089.6843803999946,1090.9690660000779,1089.1775160001125,1090.9690660000779,1090.9690660000779,1090.9690660000779,0.006086600013077259,0.013570399954915047,145,reward,1,[0.5005721999332309],[0.5005760998465121],1091.4759850001428,1091.4759850001428,0.007581100100651383,0.007581100100651383,0.018322800053283572,0.05298639996908605,0.05995299993082881,0.10163490008562803,0.10860739997588098,1.0043629999272525,1094.9689013999887,1099.1215472000185,,,,,,,,,,,,,,,,,,,,,,,,,,,,,4,A,2023-12-06_14h45.01.682,gca_avoidance_task,2022.2.4,143.73206051684534,
positions.xlsx,stimuli.xlsx,stimuli/Social1.png,stimuli/Social2.png,stimuli/Nonsocial1.png,stimuli/Nonsocial2.png,,"(-0.7, 0.5)",cs_minus_s,,,,,0,0,0,0,,,,,,,,,1,10,26,4,,,,,,,,,,,,,,,,,,,,,,,,,,,,,,,,,,,,,,,,,,,,,,,,,,,,,,,,,,1099.628445000155,1100.7325600001495,1099.1215472000185,1100.7325600001495,1100.7325600001495,1100.7325600001495,0.00618280004709959,0.013081100070849061,150,reward,1,[0.5416107999626547],[0.5487112000118941],1101.2881185000297,1101.2881185000297,0.007296999916434288,0.007296999916434288,0.01854659989476204,0.05323989992029965,0.06016339990310371,0.10178550006821752,0.10874120006337762,1.0045427998993546,1104.7810017999727,1108.5377959001344,,,,,,,,,,,,,,,,,,,,,,,,,,,,,4,A,2023-12-06_14h45.01.682,gca_avoidance_task,2022.2.4,143.73206051684534,
positions.xlsx,stimuli.xlsx,stimuli/Social1.png,stimuli/Social2.png,stimuli/Nonsocial1.png,stimuli/Nonsocial2.png,,"(-0.7, 0.5)",cs_plus_ns,,,,,0,0,0,0,,,,,,,,,1,11,27,8,,,,,,,,,,,,,,,,,,,,,,,,,,,,,,,,,,,,,,,,,,,,,,,,,,,,,,,,,,1109.0447057001293,1110.6974639000837,1108.5377959001344,1110.6974639000837,1110.6974639000837,1110.6974639000837,0.0065281998831778765,0.01319670001976192,150,none,0,,,1115.7041541000362,1115.7041541000362,0.014131800038740039,0.014131800038740039,0.019868100062012672,0.054554800037294626,0.06150549999438226,0.10314609995111823,0.11007589986547828,1.012853099964559,1119.197140000062,1122.8011157000437,,,,,,,,,,,,,,,,,,,,,,,,,,,,,4,A,2023-12-06_14h45.01.682,gca_avoidance_task,2022.2.4,143.73206051684534,
positions.xlsx,stimuli.xlsx,stimuli/Social1.png,stimuli/Social2.png,stimuli/Nonsocial1.png,stimuli/Nonsocial2.png,,"(-0.7, -0.5)",cs_plus_ns,,,,,0,0,0,0,,,,,,,,,1,12,28,9,,,,,,,,,,,,,,,,,,,,,,,,,,,,,,,,,,,,,,,,,,,,,,,,,,,,,,,,,,1123.3080263000447,1124.5648809999693,1122.8011157000437,1124.5648809999693,1124.5648809999693,1124.5648809999693,0.007195499958470464,0.01315209991298616,150,none,0,,,1129.5716662001796,1129.5716662001796,0.014097899897024035,0.014097899897024035,0.019918999867513776,0.054559099953621626,0.0615817999932915,0.1031982998829335,0.11017829994671047,1.0129120000638068,1133.0646100000013,1137.4810872001108,,,,,,,,,,,,,,,,,,,,,,,,,,,,,4,A,2023-12-06_14h45.01.682,gca_avoidance_task,2022.2.4,143.73206051684534,
positions.xlsx,stimuli.xlsx,stimuli/Social1.png,stimuli/Social2.png,stimuli/Nonsocial1.png,stimuli/Nonsocial2.png,,"(0.7, 0.5)",cs_minus_s,,,,,0,0,0,0,,,,,,,,,1,13,29,6,,,,,,,,,,,,,,,,,,,,,,,,,,,,,,,,,,,,,,,,,,,,,,,,,,,,,,,,,,1137.9879624999594,1139.5503871000838,1137.4810872001108,1139.5503871000838,1139.5503871000838,1139.5503871000838,0.0062766000628471375,0.012902999995276332,155,reward,1,[0.507147700060159],[0.5071513000875711],1140.0642570001073,1140.0642570001073,0.007846799911931157,0.007846799911931157,0.01857650000602007,0.05324409995228052,0.06024369993247092,0.1018590999301523,0.10880140005610883,1.00459220004268,1143.557241300121,1147.598718299996,,,,,,,,,,,,,,,,,,,,,,,,,,,,,4,A,2023-12-06_14h45.01.682,gca_avoidance_task,2022.2.4,143.73206051684534,
positions.xlsx,stimuli.xlsx,stimuli/Social1.png,stimuli/Social2.png,stimuli/Nonsocial1.png,stimuli/Nonsocial2.png,,"(-0.7, -0.5)",cs_plus_s,,,,,0,0,0,0,,,,,,,,,1,14,30,1,,,,,,,,,,,,,,,,,,,,,,,,,,,,,,,,,,,,,,,,,,,,,,,,,,,,,,,,,,1148.1055932999589,1149.6680624000728,1147.598718299996,1149.6680624000728,1149.6680624000728,1149.6680624000728,0.0063958000391721725,0.013269999995827675,155,none,0,,,1154.6748167001642,1154.6748167001642,0.01409139996394515,0.01409139996394515,0.02003300003707409,0.05465349997393787,0.0615962001029402,0.1032761000096798,0.11028919997625053,1.0129847000353038,1158.1676813999657,1162.209224200109,,,,,,,,,,,,,,,,,,,,,,,,,,,,,4,A,2023-12-06_14h45.01.682,gca_avoidance_task,2022.2.4,143.73206051684534,
positions.xlsx,stimuli.xlsx,stimuli/Social1.png,stimuli/Social2.png,stimuli/Nonsocial1.png,stimuli/Nonsocial2.png,,"(0.7, -0.5)",cs_minus_s,,,,,0,0,0,0,,,,,,,,,1,15,31,7,,,,,,,,,,,,,,,,,,,,,,,,,,,,,,,,,,,,,,,,,,,,,,,,,,,,,,,,,,1162.7160922000185,1164.0077296001837,1162.209224200109,1164.0077296001837,1164.0077296001837,1164.0077296001837,0.007084599928930402,0.013020399957895279,160,reward,1,[0.4513697999063879],[0.45137329981662333],1164.4660410999786,1164.4660410999786,0.006954000098630786,0.006954000098630786,0.018503700150176883,0.05315260007046163,0.06013430003076792,0.10182150010950863,0.10875670006498694,1.0045282000210136,1167.9590203999542,1171.729673200054,,,,,,,,,,,,,,,,,,,,,,,,,,,,,4,A,2023-12-06_14h45.01.682,gca_avoidance_task,2022.2.4,143.73206051684534,
positions.xlsx,stimuli.xlsx,stimuli/Social1.png,stimuli/Social2.png,stimuli/Nonsocial1.png,stimuli/Nonsocial2.png,,"(0.7, -0.5)",cs_plus_s,,,,,0,0,0,0,,,,,,,,,2,0,32,3,,,,,,,,,,,,,,,,,,,,,,,,,,,,,,,,,,,,,,,,,,,,,,,,,,,,,,,,,,1172.2365294999909,1173.5351407001726,1171.729673200054,1173.5351407001726,1173.5351407001726,1173.5351407001726,0.007240999955683947,0.013336499920114875,160,none,0,,,1178.5418351001572,1178.5418351001572,0.013179600005969405,0.013179600005969405,0.01999470009468496,0.054650899954140186,0.06163939996622503,0.10325770010240376,0.11021770001389086,1.0130253999959677,1182.0348100999836,1185.6110050000716,,,,,,,,,,,,,,,,,,,,,,,,,,,,,4,A,2023-12-06_14h45.01.682,gca_avoidance_task,2022.2.4,143.73206051684534,
positions.xlsx,stimuli.xlsx,stimuli/Social1.png,stimuli/Social2.png,stimuli/Nonsocial1.png,stimuli/Nonsocial2.png,,"(0.7, -0.5)",cs_plus_ns,,,,,0,0,0,0,,,,,,,,,2,1,33,11,,,,,,,,,,,,,,,,,,,,,,,,,,,,,,,,,,,,,,,,,,,,,,,,,,,,,,,,,,1186.1179039999843,1187.2706461001653,1185.6110050000716,1187.2706461001653,1187.2706461001653,1187.2706461001653,0.0066380000207573175,0.013409500010311604,160,none,0,,,1192.2773532001302,1192.2773532001302,0.014599200105294585,0.014599200105294585,0.020130400080233812,0.05485530011355877,0.06180830020457506,0.10344770015217364,0.11046460014767945,1.0131228000391275,1195.7703258001711,1200.2145645001438,,,,,,,,,,,,,,,,,,,,,,,,,,,,,4,A,2023-12-06_14h45.01.682,gca_avoidance_task,2022.2.4,143.73206051684534,
positions.xlsx,stimuli.xlsx,stimuli/Social1.png,stimuli/Social2.png,stimuli/Nonsocial1.png,stimuli/Nonsocial2.png,,"(0.7, -0.5)",cs_minus_ns,,,,,0,0,0,0,,,,,,,,,2,2,34,15,,,,,,,,,,,,,,,,,,,,,,,,,,,,,,,,,,,,,,,,,,,,,,,,,,,,,,,,,,1200.7214643000625,1202.1519808000885,1200.2145645001438,1202.1519808000885,1202.1519808000885,1202.1519808000885,0.006690999958664179,0.013026499887928367,165,reward,1,[0.6875495000276715],[0.6875534998252988],1202.8463771999814,1202.8463771999814,0.008466500090435147,0.008466500090435147,0.018539499957114458,0.053147600032389164,0.06012320006266236,0.10181730007752776,0.10879410011693835,1.0045225999783725,1206.3393411999568,1210.7211067001335,,,,,,,,,,,,,,,,,,,,,,,,,,,,,4,A,2023-12-06_14h45.01.682,gca_avoidance_task,2022.2.4,143.73206051684534,
positions.xlsx,stimuli.xlsx,stimuli/Social1.png,stimuli/Social2.png,stimuli/Nonsocial1.png,stimuli/Nonsocial2.png,,"(-0.7, -0.5)",cs_minus_s,,,,,0,0,0,0,,,,,,,,,2,3,35,5,,,,,,,,,,,,,,,,,,,,,,,,,,,,,,,,,,,,,,,,,,,,,,,,,,,,,,,,,,1211.227954900125,1212.8459501001053,1210.7211067001335,1212.8459501001053,1212.8459501001053,1212.8459501001053,0.0058830000925809145,0.013019900070503354,170,reward,1,[0.6179961999878287],[0.6179998000152409],1213.4709700001404,1213.4709700001404,0.006932300049811602,0.006932300049811602,0.018757399870082736,0.0533958999440074,0.060378999914973974,0.10202490002848208,0.10899970005266368,1.004761999938637,1216.9638502001762,1221.2275937001687,,,,,,,,,,,,,,,,,,,,,,,,,,,,,4,A,2023-12-06_14h45.01.682,gca_avoidance_task,2022.2.4,143.73206051684534,
positions.xlsx,stimuli.xlsx,stimuli/Social1.png,stimuli/Social2.png,stimuli/Nonsocial1.png,stimuli/Nonsocial2.png,,"(-0.7, 0.5)",cs_minus_s,,,,,0,0,0,0,,,,,,,,,2,4,36,4,,,,,,,,,,,,,,,,,,,,,,,,,,,,,,,,,,,,,,,,,,,,,,,,,,,,,,,,,,1221.734486100031,1223.3316482000519,1221.2275937001687,1223.3316482000519,1223.3316482000519,1223.3316482000519,0.006278699962422252,0.013323199935257435,175,reward,1,[0.5350482000503689],[0.5350526000838727],1223.8733250000514,1223.8733250000514,0.0069160000421106815,0.0069160000421106815,0.01876630005426705,0.05341599998064339,0.06038430007174611,0.10199430002830923,0.10895709996111691,1.0047464000526816,1227.3662801999599,1231.7966214001644,,,,,,,,,,,,,,,,,,,,,,,,,,,,,4,A,2023-12-06_14h45.01.682,gca_avoidance_task,2022.2.4,143.73206051684534,
positions.xlsx,stimuli.xlsx,stimuli/Social1.png,stimuli/Social2.png,stimuli/Nonsocial1.png,stimuli/Nonsocial2.png,,"(-0.7, -0.5)",cs_plus_ns,,,,,0,0,0,0,,,,,,,,,2,5,37,9,,,,,,,,,,,,,,,,,,,,,,,,,,,,,,,,,,,,,,,,,,,,,,,,,,,,,,,,,,1232.3035055999644,1233.4840088000055,1231.7966214001644,1233.4840088000055,1233.4840088000055,1233.4840088000055,0.006780700059607625,0.013437500223517418,175,none,0,,,1238.4907925999723,1238.4907925999723,0.014744500163942575,0.014744500163942575,0.02018570015206933,0.054835000075399876,0.061829400015994906,0.10346950008533895,0.11044650012627244,1.0131461001001298,1241.9837347001303,1246.421043700073,,,,,,,,,,,,,,,,,,,,,,,,,,,,,4,A,2023-12-06_14h45.01.682,gca_avoidance_task,2022.2.4,143.73206051684534,
positions.xlsx,stimuli.xlsx,stimuli/Social1.png,stimuli/Social2.png,stimuli/Nonsocial1.png,stimuli/Nonsocial2.png,,"(0.7, 0.5)",cs_minus_s,,,,,0,0,0,0,,,,,,,,,2,6,38,6,,,,,,,,,,,,,,,,,,,,,,,,,,,,,,,,,,,,,,,,,,,,,,,,,,,,,,,,,,1246.9278949999716,1248.7820085999556,1246.421043700073,1248.7820085999556,1248.7820085999556,1248.7820085999556,0.0063374999444931746,0.013189399847760797,180,reward,1,[0.5626769000664353],[0.5626806998625398],1249.3513903000858,1249.3513903000858,0.00815889984369278,0.00815889984369278,0.018128399970009923,0.05281769996508956,0.05980079993605614,0.10143529996275902,0.10839720000512898,1.0041561999823898,1252.8443820001557,1257.1428349001799,,,,,,,,,,,,,,,,,,,,,,,,,,,,,4,A,2023-12-06_14h45.01.682,gca_avoidance_task,2022.2.4,143.73206051684534,
positions.xlsx,stimuli.xlsx,stimuli/Social1.png,stimuli/Social2.png,stimuli/Nonsocial1.png,stimuli/Nonsocial2.png,,"(-0.7, -0.5)",cs_plus_s,,,,,0,0,0,0,,,,,,,,,2,7,39,1,,,,,,,,,,,,,,,,,,,,,,,,,,,,,,,,,,,,,,,,,,,,,,,,,,,,,,,,,,1257.6496906999964,1258.7815750001464,1257.1428349001799,1258.7815750001464,1258.7815750001464,1258.7815750001464,0.006155000068247318,0.012950599892064929,180,none,0,,,1263.788370900089,1263.788370900089,0.012850899947807193,0.012850899947807193,0.019769900012761354,0.05439310008659959,0.061392399948090315,0.10299689997918904,0.10996929998509586,1.0127188998740166,1267.2812823001295,1271.6352530999575,,,,,,,,,,,,,,,,,,,,,,,,,,,,,4,A,2023-12-06_14h45.01.682,gca_avoidance_task,2022.2.4,143.73206051684534,
positions.xlsx,stimuli.xlsx,stimuli/Social1.png,stimuli/Social2.png,stimuli/Nonsocial1.png,stimuli/Nonsocial2.png,,"(-0.7, 0.5)",cs_plus_ns,,,,,0,0,0,0,,,,,,,,,2,8,40,8,,,,,,,,,,,,,,,,,,,,,,,,,,,,,,,,,,,,,,,,,,,,,,,,,,,,,,,,,,1272.1421555001289,1274.1281976001337,1271.6352530999575,1274.1281976001337,1274.1281976001337,1274.1281976001337,0.007033000001683831,0.01339250011369586,180,none,0,,,1279.134909800021,1279.134909800021,0.013922500191256404,0.013922500191256404,0.02008080016821623,0.05481090000830591,0.06174320005811751,0.10339370020665228,0.1103517001029104,1.013044600142166,1282.6278578001074,1286.9054761000443,,,,,,,,,,,,,,,,,,,,,,,,,,,,,4,A,2023-12-06_14h45.01.682,gca_avoidance_task,2022.2.4,143.73206051684534,
positions.xlsx,stimuli.xlsx,stimuli/Social1.png,stimuli/Social2.png,stimuli/Nonsocial1.png,stimuli/Nonsocial2.png,,"(0.7, 0.5)",cs_minus_ns,,,,,0,0,0,0,,,,,,,,,2,9,41,14,,,,,,,,,,,,,,,,,,,,,,,,,,,,,,,,,,,,,,,,,,,,,,,,,,,,,,,,,,1287.4123331001028,1288.8776082999539,1286.9054761000443,1288.8776082999539,1288.8776082999539,1288.8776082999539,0.006925299996510148,0.013409700011834502,185,reward,1,[0.43789179995656013],[0.4378955001011491],1289.321970200166,1289.321970200166,0.009256700053811073,0.009256700053811073,0.018217700067907572,0.05287509993650019,0.05986399995163083,0.10154430009424686,0.1084793999325484,1.0042663000058383,1292.814921400044,1296.9744846001267,,,,,,,,,,,,,,,,,,,,,,,,,,,,,4,A,2023-12-06_14h45.01.682,gca_avoidance_task,2022.2.4,143.73206051684534,
positions.xlsx,stimuli.xlsx,stimuli/Social1.png,stimuli/Social2.png,stimuli/Nonsocial1.png,stimuli/Nonsocial2.png,,"(0.7, 0.5)",cs_plus_s,,,,,0,0,0,0,,,,,,,,,2,10,42,2,,,,,,,,,,,,,,,,,,,,,,,,,,,,,,,,,,,,,,,,,,,,,,,,,,,,,,,,,,1297.4813829001505,1299.2590673000086,1296.9744846001267,1299.2590673000086,1299.2590673000086,1299.2590673000086,0.0067276000045239925,0.013130800100043416,185,none,0,,,1304.2658520000987,1304.2658520000987,0.014224400045350194,0.014224400045350194,0.01992470002733171,0.054638300091028214,0.06152050010859966,0.10317180003039539,0.11015140009112656,1.0128142999019474,1307.758795300033,1312.0016165999696,,,,,,,,,,,,,,,,,,,,,,,,,,,,,4,A,2023-12-06_14h45.01.682,gca_avoidance_task,2022.2.4,143.73206051684534,
positions.xlsx,stimuli.xlsx,stimuli/Social1.png,stimuli/Social2.png,stimuli/Nonsocial1.png,stimuli/Nonsocial2.png,,"(0.7, -0.5)",cs_minus_s,,,,,0,0,0,0,,,,,,,,,2,11,43,7,,,,,,,,,,,,,,,,,,,,,,,,,,,,,,,,,,,,,,,,,,,,,,,,,,,,,,,,,,1312.508581600152,1314.216805800097,1312.0016165999696,1314.216805800097,1314.216805800097,1314.216805800097,0.006797299953177571,0.013244800036773086,190,reward,1,[0.5767536999192089],[0.5767576000653207],1314.800082199974,1314.800082199974,0.007348499959334731,0.007348499959334731,0.018104400020092726,0.05278070014901459,0.05977940000593662,0.10142090008594096,0.10835470003075898,1.0041416001040488,1318.2930918000638,1322.0776362000033,,,,,,,,,,,,,,,,,,,,,,,,,,,,,4,A,2023-12-06_14h45.01.682,gca_avoidance_task,2022.2.4,143.73206051684534,
positions.xlsx,stimuli.xlsx,stimuli/Social1.png,stimuli/Social2.png,stimuli/Nonsocial1.png,stimuli/Nonsocial2.png,,"(0.7, 0.5)",cs_plus_ns,,,,,0,0,0,0,,,,,,,,,2,12,44,10,,,,,,,,,,,,,,,,,,,,,,,,,,,,,,,,,,,,,,,,,,,,,,,,,,,,,,,,,,1322.5845233001746,1323.8066766001284,1322.0776362000033,1323.8066766001284,1323.8066766001284,1323.8066766001284,0.006319199921563268,0.013146599987521768,190,none,0,,,1328.813412599964,1328.813412599964,0.014046699972823262,0.014046699972823262,0.01997029990889132,0.05456930003128946,0.06156609999015927,0.10319539997726679,0.11020080000162125,1.0128766000270844,1332.3063968999777,1336.2923405000474,,,,,,,,,,,,,,,,,,,,,,,,,,,,,4,A,2023-12-06_14h45.01.682,gca_avoidance_task,2022.2.4,143.73206051684534,
positions.xlsx,stimuli.xlsx,stimuli/Social1.png,stimuli/Social2.png,stimuli/Nonsocial1.png,stimuli/Nonsocial2.png,,"(-0.7, 0.5)",cs_minus_ns,,,,,0,0,0,0,,,,,,,,,2,13,45,12,,,,,,,,,,,,,,,,,,,,,,,,,,,,,,,,,,,,,,,,,,,,,,,,,,,,,,,,,,1336.799195999978,1338.1394607000984,1336.2923405000474,1338.1394607000984,1338.1394607000984,1338.1394607000984,0.006967599969357252,0.01313590002246201,195,reward,1,[0.4515811000019312],[0.45848649996332824],1338.604699100135,1338.604699100135,0.008891900070011616,0.008891900070011616,0.018451400101184845,0.05320210009813309,0.06007700017653406,0.10175390006043017,0.10867840005084872,1.0044474001042545,1342.0976212001406,1346.3127234999556,,,,,,,,,,,,,,,,,,,,,,,,,,,,,4,A,2023-12-06_14h45.01.682,gca_avoidance_task,2022.2.4,143.73206051684534,
positions.xlsx,stimuli.xlsx,stimuli/Social1.png,stimuli/Social2.png,stimuli/Nonsocial1.png,stimuli/Nonsocial2.png,,"(-0.7, -0.5)",cs_minus_ns,,,,,0,0,0,0,,,,,,,,,2,14,46,13,,,,,,,,,,,,,,,,,,,,,,,,,,,,,,,,,,,,,,,,,,,,,,,,,,,,,,,,,,1346.8196321001742,1348.2778648000676,1346.3127234999556,1348.2778648000676,1348.2778648000676,1348.2778648000676,0.006597300060093403,0.013511300086975098,200,reward,1,[0.5839537000283599],[0.5839579000603408],1348.8681823001243,1348.8681823001243,0.0072051000315696,0.0072051000315696,0.018341900082305074,0.0530139000620693,0.059939400060102344,0.10159029997885227,0.10859000007621944,1.004396100062877,1352.361138700042,1356.5137688000686,,,,,,,,,,,,,,,,,,,,,,,,,,,,,4,A,2023-12-06_14h45.01.682,gca_avoidance_task,2022.2.4,143.73206051684534,
positions.xlsx,stimuli.xlsx,stimuli/Social1.png,stimuli/Social2.png,stimuli/Nonsocial1.png,stimuli/Nonsocial2.png,,"(-0.7, 0.5)",cs_plus_s,,,,,0,0,0,0,,,,,,,,,2,15,47,0,,,,,,,,,,,,,,,,,,,,,,,,,,,,,,,,,,,,,,,,,,,,,,,,,,,,,,,,,,1357.0205934999976,1358.5899767000228,1356.5137688000686,1358.5899767000228,1358.5899767000228,1358.5899767000228,0.0062478999607264996,0.012740900041535497,200,none,0,,,1363.596747300122,1363.596747300122,0.012724499916657805,0.012724499916657805,0.01951529993675649,0.05419549997895956,0.0611654999665916,0.10283280001021922,0.10980050009675324,1.0124947999138385,1367.0896346000955,1370.8117206001189,,,,,,,,,,,,,,,,,,,,,,,,,,,,,4,A,2023-12-06_14h45.01.682,gca_avoidance_task,2022.2.4,143.73206051684534,
positions.xlsx,stimuli.xlsx,stimuli/Social1.png,stimuli/Social2.png,stimuli/Nonsocial1.png,stimuli/Nonsocial2.png,,"(-0.7, 0.5)",cs_plus_s,,,,,0,0,0,0,,,,,,,,,3,0,48,0,,,,,,,,,,,,,,,,,,,,,,,,,,,,,,,,,,,,,,,,,,,,,,,,,,,,,,,,,,1371.3186233001761,1373.0824118000455,1370.8117206001189,1373.0824118000455,1373.0824118000455,1373.0824118000455,0.005957500077784061,0.01346739986911416,200,none,0,,,1378.0891772999894,1378.0891772999894,0.013986399862915277,0.013986399862915277,0.02020630007609725,0.054894400062039495,0.06186480005271733,0.10350780002772808,0.1104796000290662,1.01321109989658,1381.5821046000347,1386.0749780000187,,,,,,,,,,,,,,,,,,,,,,,,,,,,,4,A,2023-12-06_14h45.01.682,gca_avoidance_task,2022.2.4,143.73206051684534,
positions.xlsx,stimuli.xlsx,stimuli/Social1.png,stimuli/Social2.png,stimuli/Nonsocial1.png,stimuli/Nonsocial2.png,,"(-0.7, -0.5)",cs_minus_ns,,,,,0,0,0,0,,,,,,,,,3,1,49,13,,,,,,,,,,,,,,,,,,,,,,,,,,,,,,,,,,,,,,,,,,,,,,,,,,,,,,,,,,1386.5818877001293,1387.9220996000804,1386.0749780000187,1387.9220996000804,1387.9220996000804,1387.9220996000804,0.00692980014719069,0.01304410002194345,205,reward,1,[0.4723195999395102],[0.4723235999699682],1388.4012702000327,1388.4012702000327,0.0075783999636769295,0.0075783999636769295,0.018433900084346533,0.05308910016901791,0.06007010000757873,0.10175390006043017,0.10869559994898736,1.004446200095117,1391.8941775001585,1395.6579394000582,,,,,,,,,,,,,,,,,,,,,,,,,,,,,4,A,2023-12-06_14h45.01.682,gca_avoidance_task,2022.2.4,143.73206051684534,
positions.xlsx,stimuli.xlsx,stimuli/Social1.png,stimuli/Social2.png,stimuli/Nonsocial1.png,stimuli/Nonsocial2.png,,"(0.7, -0.5)",cs_plus_ns,,,,,0,0,0,0,,,,,,,,,3,2,50,11,,,,,,,,,,,,,,,,,,,,,,,,,,,,,,,,,,,,,,,,,,,,,,,,,,,,,,,,,,1396.1648220000789,1397.6856160999741,1395.6579394000582,1397.6856160999741,1397.6856160999741,1397.6856160999741,0.006880499888211489,0.013134300010278821,205,none,0,,,1402.6923307001125,1402.6923307001125,0.014144799904897809,0.014144799904897809,0.019830900011584163,0.05452029989100993,0.06148070003837347,0.10312079987488687,0.11008509993553162,1.012794499984011,1406.1852296001744,1410.5045577001292,,,,,,,,,,,,,,,,,,,,,,,,,,,,,4,A,2023-12-06_14h45.01.682,gca_avoidance_task,2022.2.4,143.73206051684534,
positions.xlsx,stimuli.xlsx,stimuli/Social1.png,stimuli/Social2.png,stimuli/Nonsocial1.png,stimuli/Nonsocial2.png,,"(0.7, 0.5)",cs_minus_s,,,,,0,0,0,0,,,,,,,,,3,3,51,6,,,,,,,,,,,,,,,,,,,,,,,,,,,,,,,,,,,,,,,,,,,,,,,,,,,,,,,,,,1411.011425100034,1412.4002678000834,1410.5045577001292,1412.4002678000834,1412.4002678000834,1412.4002678000834,0.0059380000457167625,0.013079300057142973,210,reward,1,[0.5208343998529017],[0.5208379998803139],1412.9280787000898,1412.9280787000898,0.006723199971020222,0.006723199971020222,0.018437799997627735,0.053129500010982156,0.06004779995419085,0.10163049981929362,0.10864149988628924,1.0043969999533147,1416.4210043000057,1420.094461800065,,,,,,,,,,,,,,,,,,,,,,,,,,,,,4,A,2023-12-06_14h45.01.682,gca_avoidance_task,2022.2.4,143.73206051684534,
positions.xlsx,stimuli.xlsx,stimuli/Social1.png,stimuli/Social2.png,stimuli/Nonsocial1.png,stimuli/Nonsocial2.png,,"(-0.7, -0.5)",cs_plus_s,,,,,0,0,0,0,,,,,,,,,3,4,52,1,,,,,,,,,,,,,,,,,,,,,,,,,,,,,,,,,,,,,,,,,,,,,,,,,,,,,,,,,,1420.6013356000185,1422.392929499969,1420.094461800065,1422.392929499969,1422.392929499969,1422.392929499969,0.005925199948251247,0.013140700059011579,210,none,0,,,1427.3996624001302,1427.3996624001302,0.013427600031718612,0.013427600031718612,0.0198639000300318,0.05457040015608072,0.06147750001400709,0.1031702000182122,0.11013839999213815,1.0128212999552488,1430.8925736001693,1434.8924163000192,,,,,,,,,,,,,,,,,,,,,,,,,,,,,4,A,2023-12-06_14h45.01.682,gca_avoidance_task,2022.2.4,143.73206051684534,
positions.xlsx,stimuli.xlsx,stimuli/Social1.png,stimuli/Social2.png,stimuli/Nonsocial1.png,stimuli/Nonsocial2.png,,"(0.7, -0.5)",cs_plus_s,,,,,0,0,0,0,,,,,,,,,3,5,53,3,,,,,,,,,,,,,,,,,,,,,,,,,,,,,,,,,,,,,,,,,,,,,,,,,,,,,,,,,,1435.399310000008,1437.3575929000508,1434.8924163000192,1437.3575929000508,1437.3575929000508,1437.3575929000508,0.006140100071206689,0.01339410012587905,210,none,0,,,1442.3643543999642,1442.3643543999642,0.014078200096264482,0.014078200096264482,0.020167200127616525,0.05478860018774867,0.061763300094753504,0.10340140014886856,0.1103751000482589,1.0131257001776248,1445.857229599962,1449.8085042999592,,,,,,,,,,,,,,,,,,,,,,,,,,,,,4,A,2023-12-06_14h45.01.682,gca_avoidance_task,2022.2.4,143.73206051684534,
positions.xlsx,stimuli.xlsx,stimuli/Social1.png,stimuli/Social2.png,stimuli/Nonsocial1.png,stimuli/Nonsocial2.png,,"(-0.7, -0.5)",cs_plus_ns,,,,,0,0,0,0,,,,,,,,,3,6,54,9,,,,,,,,,,,,,,,,,,,,,,,,,,,,,,,,,,,,,,,,,,,,,,,,,,,,,,,,,,1450.3153860999737,1451.8708805001806,1449.8085042999592,1451.8708805001806,1451.8708805001806,1451.8708805001806,0.007079399889335036,0.013339299941435456,210,none,0,,,1456.8776011001319,1456.8776011001319,0.014451299794018269,0.014451299794018269,0.020051399944350123,0.0547537999227643,0.06169849983416498,0.1033365000039339,0.11033599986694753,1.013053699862212,1460.370591700077,1464.405115300091,,,,,,,,,,,,,,,,,,,,,,,,,,,,,4,A,2023-12-06_14h45.01.682,gca_avoidance_task,2022.2.4,143.73206051684534,
positions.xlsx,stimuli.xlsx,stimuli/Social1.png,stimuli/Social2.png,stimuli/Nonsocial1.png,stimuli/Nonsocial2.png,,"(0.7, 0.5)",cs_plus_s,,,,,0,0,0,0,,,,,,,,,3,7,55,2,,,,,,,,,,,,,,,,,,,,,,,,,,,,,,,,,,,,,,,,,,,,,,,,,,,,,,,,,,1464.911993399961,1466.6341403000988,1464.405115300091,1466.6341403000988,1466.6341403000988,1466.6341403000988,0.005889900028705597,0.013461499940603971,210,none,0,,,1471.6409072000533,1471.6409072000533,0.014278399990871549,0.014278399990871549,0.02023419993929565,0.054909100057557225,0.06187639990821481,0.10353740002028644,0.11047849990427494,1.0132138000335544,1475.1338178000879,1478.9253848001827,,,,,,,,,,,,,,,,,,,,,,,,,,,,,4,A,2023-12-06_14h45.01.682,gca_avoidance_task,2022.2.4,143.73206051684534,
positions.xlsx,stimuli.xlsx,stimuli/Social1.png,stimuli/Social2.png,stimuli/Nonsocial1.png,stimuli/Nonsocial2.png,,"(0.7, 0.5)",cs_minus_ns,,,,,0,0,0,0,,,,,,,,,3,8,56,14,,,,,,,,,,,,,,,,,,,,,,,,,,,,,,,,,,,,,,,,,,,,,,,,,,,,,,,,,,1479.4322433001362,1481.2168309001718,1478.9253848001827,1481.2168309001718,1481.2168309001718,1481.2168309001718,0.007311200024560094,0.013099899981170893,215,reward,1,[0.48615110013633966],[0.4861552999354899],1481.7098832000047,1481.7098832000047,0.007248899899423122,0.007248899899423122,0.018539499957114458,0.05324959987774491,0.060199799947440624,0.10182689991779625,0.1087863000575453,1.004573700018227,1485.202890299959,1489.2582902000286,,,,,,,,,,,,,,,,,,,,,,,,,,,,,4,A,2023-12-06_14h45.01.682,gca_avoidance_task,2022.2.4,143.73206051684534,
positions.xlsx,stimuli.xlsx,stimuli/Social1.png,stimuli/Social2.png,stimuli/Nonsocial1.png,stimuli/Nonsocial2.png,,"(-0.7, -0.5)",cs_minus_s,,,,,0,0,0,0,,,,,,,,,3,9,57,5,,,,,,,,,,,,,,,,,,,,,,,,,,,,,,,,,,,,,,,,,,,,,,,,,,,,,,,,,,1489.7651377001312,1491.640064400155,1489.2582902000286,1491.640064400155,1491.640064400155,1491.640064400155,0.0058639999479055405,0.013436899986118078,220,reward,1,[0.5353721999563277],[0.535375899868086],1492.1817698001396,1492.1817698001396,0.006931900046765804,0.006931900046765804,0.018543099984526634,0.053152000065892935,0.06011299998499453,0.10178779996931553,0.1087680000346154,1.004585700109601,1495.6746504001785,1499.9175591999665,,,,,,,,,,,,,,,,,,,,,,,,,,,,,4,A,2023-12-06_14h45.01.682,gca_avoidance_task,2022.2.4,143.73206051684534,
positions.xlsx,stimuli.xlsx,stimuli/Social1.png,stimuli/Social2.png,stimuli/Nonsocial1.png,stimuli/Nonsocial2.png,,"(0.7, -0.5)",cs_minus_s,,,,,0,0,0,0,,,,,,,,,3,10,58,7,,,,,,,,,,,,,,,,,,,,,,,,,,,,,,,,,,,,,,,,,,,,,,,,,,,,,,,,,,1500.42444480001,1501.9243638000917,1499.9175591999665,1501.9243638000917,1501.9243638000917,1501.9243638000917,0.0061246000695973635,0.013351600151509047,225,reward,1,[0.43779260013252497],[0.43779610004276037],1502.3688096001279,1502.3688096001279,0.00677659991197288,0.00677659991197288,0.018553599948063493,0.05321859987452626,0.060167100047692657,0.10181759996339679,0.10880100005306304,1.004586299881339,1505.8617802001536,1509.597719399957,,,,,,,,,,,,,,,,,,,,,,,,,,,,,4,A,2023-12-06_14h45.01.682,gca_avoidance_task,2022.2.4,143.73206051684534,
positions.xlsx,stimuli.xlsx,stimuli/Social1.png,stimuli/Social2.png,stimuli/Nonsocial1.png,stimuli/Nonsocial2.png,,"(-0.7, 0.5)",cs_minus_ns,,,,,0,0,0,0,,,,,,,,,3,11,59,12,,,,,,,,,,,,,,,,,,,,,,,,,,,,,,,,,,,,,,,,,,,,,,,,,,,,,,,,,,1510.1045482000336,1511.4656471000053,1509.597719399957,1511.4656471000053,1511.4656471000053,1511.4656471000053,0.006414399947971106,0.012819800060242414,230,reward,1,[0.4997233999893069],[0.4997270000167191],1511.9725776000414,1511.9725776000414,0.007311700144782662,0.007311700144782662,0.018509200075641274,0.05318420007824898,0.060140900081023574,0.1018123000394553,0.10871780011802912,1.004545700037852,1515.465507300105,1519.2986799001228,,,,,,,,,,,,,,,,,,,,,,,,,,,,,4,A,2023-12-06_14h45.01.682,gca_avoidance_task,2022.2.4,143.73206051684534,
positions.xlsx,stimuli.xlsx,stimuli/Social1.png,stimuli/Social2.png,stimuli/Nonsocial1.png,stimuli/Nonsocial2.png,,"(0.7, -0.5)",cs_minus_ns,,,,,0,0,0,0,,,,,,,,,3,12,60,15,,,,,,,,,,,,,,,,,,,,,,,,,,,,,,,,,,,,,,,,,,,,,,,,,,,,,,,,,,1519.8055946000386,1520.881937700091,1519.2986799001228,1520.881937700091,1520.881937700091,1520.881937700091,0.0061342001426965,0.013185600051656365,235,reward,1,[0.5140242001507431],[0.5140283000655472],1521.4027544001583,1521.4027544001583,0.007183900102972984,0.007183900102972984,0.018058399902656674,0.052769399946555495,0.059713799972087145,0.10133720003068447,0.10834409995004535,1.0041028999257833,1524.8956790000666,1528.9371925999876,,,,,,,,,,,,,,,,,,,,,,,,,,,,,4,A,2023-12-06_14h45.01.682,gca_avoidance_task,2022.2.4,143.73206051684534,
positions.xlsx,stimuli.xlsx,stimuli/Social1.png,stimuli/Social2.png,stimuli/Nonsocial1.png,stimuli/Nonsocial2.png,,"(-0.7, 0.5)",cs_plus_ns,,,,,0,0,0,0,,,,,,,,,3,13,61,8,,,,,,,,,,,,,,,,,,,,,,,,,,,,,,,,,,,,,,,,,,,,,,,,,,,,,,,,,,1529.444070900092,1531.3884376001079,1528.9371925999876,1531.3884376001079,1531.3884376001079,1531.3884376001079,0.007155100116506219,0.013043000129982829,235,none,0,,,1536.3951707000379,1536.3951707000379,0.013782600173726678,0.013782600173726678,0.019792500184848905,0.05441840016283095,0.06145110004581511,0.1030366001650691,0.10998510010540485,1.012721600010991,1539.888092600042,1543.492110399995,,,,,,,,,,,,,,,,,,,,,,,,,,,,,4,A,2023-12-06_14h45.01.682,gca_avoidance_task,2022.2.4,143.73206051684534,
positions.xlsx,stimuli.xlsx,stimuli/Social1.png,stimuli/Social2.png,stimuli/Nonsocial1.png,stimuli/Nonsocial2.png,,"(0.7, 0.5)",cs_plus_ns,,,,,0,0,0,0,,,,,,,,,3,14,62,10,,,,,,,,,,,,,,,,,,,,,,,,,,,,,,,,,,,,,,,,,,,,,,,,,,,,,,,,,,1543.9990415000357,1545.3114689001814,1543.492110399995,1545.3114689001814,1545.3114689001814,1545.3114689001814,0.0069506000727415085,0.013553400058299303,235,none,0,,,1550.31826560013,1550.31826560013,0.014740000013262033,0.014740000013262033,0.020442399894818664,0.055042400024831295,0.06195769994519651,0.10363680007867515,0.11054409993812442,1.0133261000737548,1553.8112002001144,1558.199894899968,,,,,,,,,,,,,,,,,,,,,,,,,,,,,4,A,2023-12-06_14h45.01.682,gca_avoidance_task,2022.2.4,143.73206051684534,
positions.xlsx,stimuli.xlsx,stimuli/Social1.png,stimuli/Social2.png,stimuli/Nonsocial1.png,stimuli/Nonsocial2.png,,"(-0.7, 0.5)",cs_minus_s,,,,,0,0,0,0,,,,,,,,,3,15,63,4,,,,,,,,,,,,,,,,,,,,,,,,,,,,,,,,,,,,,,,,,,,,,,,,,,,,,,,,,,1558.7067525000311,1560.4011302001309,1558.199894899968,1560.4011302001309,1560.4011302001309,1560.4011302001309,0.006658400176092982,0.013081399956718087,240,reward,1,[0.5280003000516444],[0.5280041000805795],1560.9358522000257,1560.9358522000257,0.007816399913281202,0.007816399913281202,0.01816409989260137,0.05281769996508956,0.05979879992082715,0.10146999987773597,0.10843069991096854,1.0041916000191122,1564.4288319000043,1568.018904000055,,,,,,,,,,,,,,,,,,,,,,,,,,,,,4,A,2023-12-06_14h45.01.682,gca_avoidance_task,2022.2.4,143.73206051684534,
positions.xlsx,stimuli.xlsx,stimuli/Social1.png,stimuli/Social2.png,stimuli/Nonsocial1.png,stimuli/Nonsocial2.png,,"(0.7, -0.5)",cs_plus_ns,,,,,0,0,0,0,,,,,,,,,4,0,64,11,,,,,,,,,,,,,,,,,,,,,,,,,,,,,,,,,,,,,,,,,,,,,,,,,,,,,,,,,,1568.5258065001108,1570.0257535001729,1568.018904000055,1570.0257535001729,1570.0257535001729,1570.0257535001729,0.006454699905589223,0.013425899902358651,240,none,0,,,1575.0394566000905,1575.0394566000905,0.014764399966225028,0.014764399966225028,0.027165799867361784,0.0548783999402076,0.061828200006857514,0.10343119991011918,0.11040370003320277,1.0131838999222964,1578.52545429999,1582.462766099954,,,,,,,,,,,,,,,,,,,,,,,,,,,,,4,A,2023-12-06_14h45.01.682,gca_avoidance_task,2022.2.4,143.73206051684534,
positions.xlsx,stimuli.xlsx,stimuli/Social1.png,stimuli/Social2.png,stimuli/Nonsocial1.png,stimuli/Nonsocial2.png,,"(0.7, 0.5)",cs_minus_ns,,,,,0,0,0,0,,,,,,,,,4,1,65,14,,,,,,,,,,,,,,,,,,,,,,,,,,,,,,,,,,,,,,,,,,,,,,,,,,,,,,,,,,1582.969654600136,1584.330684900051,1582.462766099954,1584.330684900051,1584.330684900051,1584.330684900051,0.006552800070494413,0.01314650010317564,245,reward,1,[0.18067639996297657],[0.18067999999038875],1584.5182294000406,1584.5182294000406,0.0075928999576717615,0.0075928999576717615,0.01870219991542399,0.053356700111180544,0.06030429992824793,0.10195740009658039,0.10891850013285875,1.0047339000739157,1588.0111468001269,1592.3512675999664,,,,,,,,,,,,,,,,,,,,,,,,,,,,,4,A,2023-12-06_14h45.01.682,gca_avoidance_task,2022.2.4,143.73206051684534,
positions.xlsx,stimuli.xlsx,stimuli/Social1.png,stimuli/Social2.png,stimuli/Nonsocial1.png,stimuli/Nonsocial2.png,,"(0.7, -0.5)",cs_plus_s,,,,,0,0,0,0,,,,,,,,,4,2,66,3,,,,,,,,,,,,,,,,,,,,,,,,,,,,,,,,,,,,,,,,,,,,,,,,,,,,,,,,,,1592.858129600063,1594.2608754001558,1592.3512675999664,1594.2608754001558,1594.2608754001558,1594.2608754001558,0.00558239989914,0.013133900007233024,245,none,0,,,1599.2676176000386,1599.2676176000386,0.013516000006347895,0.013516000006347895,0.01995099987834692,0.05459539988078177,0.06154550006613135,0.1032362999394536,0.1101261000148952,1.0128379000816494,1602.7605494000018,1606.5659777000546,,,,,,,,,,,,,,,,,,,,,,,,,,,,,4,A,2023-12-06_14h45.01.682,gca_avoidance_task,2022.2.4,143.73206051684534,
positions.xlsx,stimuli.xlsx,stimuli/Social1.png,stimuli/Social2.png,stimuli/Nonsocial1.png,stimuli/Nonsocial2.png,,"(-0.7, 0.5)",cs_plus_ns,,,,,0,0,0,0,,,,,,,,,4,3,67,8,,,,,,,,,,,,,,,,,,,,,,,,,,,,,,,,,,,,,,,,,,,,,,,,,,,,,,,,,,1607.072826600168,1608.5658513000235,1606.5659777000546,1608.5658513000235,1608.5658513000235,1608.5658513000235,0.006722299847751856,0.013260899810120463,245,shock,1,[2.562619199976325],[2.5626228998880833],1611.1282091999892,1611.1282091999892,0.0077864001505076885,0.0077864001505076885,0.011754400096833706,0.0534296000842005,0.060427699936553836,0.10203800001181662,0.10898820008151233,1.0047130000311881,1614.6281461999752,1618.3432446001098,,,,,,,,,,,,,,,,,,,,,,,,,,,,,4,A,2023-12-06_14h45.01.682,gca_avoidance_task,2022.2.4,143.73206051684534,
positions.xlsx,stimuli.xlsx,stimuli/Social1.png,stimuli/Social2.png,stimuli/Nonsocial1.png,stimuli/Nonsocial2.png,,"(-0.7, -0.5)",cs_minus_s,,,,,0,0,0,0,,,,,,,,,4,4,68,5,,,,,,,,,,,,,,,,,,,,,,,,,,,,,,,,,,,,,,,,,,,,,,,,,,,,,,,,,,1618.8501410000026,1620.1417380999774,1618.3432446001098,1620.1417380999774,1620.1417380999774,1620.1417380999774,0.005816700169816613,0.013257100014016032,250,reward,1,[0.5419840000104159],[0.541987800039351],1620.6903570999857,1620.6903570999857,0.00692980014719069,0.00692980014719069,0.018532900139689445,0.053194599924609065,0.06017310009337962,0.10185130010358989,0.10875539993867278,1.0045602000318468,1624.1832586000673,1628.2942500000354,,,,,,,,,,,,,,,,,,,,,,,,,,,,,4,A,2023-12-06_14h45.01.682,gca_avoidance_task,2022.2.4,143.73206051684534,
positions.xlsx,stimuli.xlsx,stimuli/Social1.png,stimuli/Social2.png,stimuli/Nonsocial1.png,stimuli/Nonsocial2.png,,"(-0.7, 0.5)",cs_minus_s,,,,,0,0,0,0,,,,,,,,,4,5,69,4,,,,,,,,,,,,,,,,,,,,,,,,,,,,,,,,,,,,,,,,,,,,,,,,,,,,,,,,,,1628.8011400001124,1629.9816233001184,1628.2942500000354,1629.9816233001184,1629.9816233001184,1629.9816233001184,0.006136300042271614,0.013037499971687794,255,reward,1,[0.7639768000226468],[0.7639802000485361],1630.7524256999604,1630.7524256999604,0.007368899881839752,0.007368899881839752,0.018570699961856008,0.05319110001437366,0.060177299892529845,0.10186399985104799,0.1087757998611778,1.0045328999403864,1634.2453783999663,1637.793844900094,,,,,,,,,,,,,,,,,,,,,,,,,,,,,4,A,2023-12-06_14h45.01.682,gca_avoidance_task,2022.2.4,143.73206051684534,
positions.xlsx,stimuli.xlsx,stimuli/Social1.png,stimuli/Social2.png,stimuli/Nonsocial1.png,stimuli/Nonsocial2.png,,"(0.7, 0.5)",cs_plus_s,,,,,0,0,0,0,,,,,,,,,4,6,70,2,,,,,,,,,,,,,,,,,,,,,,,,,,,,,,,,,,,,,,,,,,,,,,,,,,,,,,,,,,1638.3007026000414,1639.9256558001507,1637.793844900094,1639.9256558001507,1639.9256558001507,1639.9256558001507,0.005922799929976463,0.013434999855235219,255,none,0,,,1644.9324170001782,1644.9324170001782,0.013934799935668707,0.013934799935668707,0.02020409982651472,0.05484759993851185,0.0618340999353677,0.10346199991181493,0.11047849990427494,1.013130199862644,1648.425301700132,1652.7654761001468,,,,,,,,,,,,,,,,,,,,,,,,,,,,,4,A,2023-12-06_14h45.01.682,gca_avoidance_task,2022.2.4,143.73206051684534,
positions.xlsx,stimuli.xlsx,stimuli/Social1.png,stimuli/Social2.png,stimuli/Nonsocial1.png,stimuli/Nonsocial2.png,,"(-0.7, -0.5)",cs_plus_ns,,,,,0,0,0,0,,,,,,,,,4,7,71,9,,,,,,,,,,,,,,,,,,,,,,,,,,,,,,,,,,,,,,,,,,,,,,,,,,,,,,,,,,1653.2723185999785,1655.0083920999896,1652.7654761001468,1655.0083920999896,1655.0083920999896,1655.0083920999896,0.007114300038665533,0.013232399942353368,255,none,0,,,1660.0150737001095,1660.0150737001095,0.013875799952074885,0.013875799952074885,0.019946099957451224,0.054621299961581826,0.0615809999871999,0.1032316000200808,0.11019739997573197,1.0128919000271708,1663.5081092000473,1667.1815174999647,,,,,,,,,,,,,,,,,,,,,,,,,,,,,4,A,2023-12-06_14h45.01.682,gca_avoidance_task,2022.2.4,143.73206051684534,
positions.xlsx,stimuli.xlsx,stimuli/Social1.png,stimuli/Social2.png,stimuli/Nonsocial1.png,stimuli/Nonsocial2.png,,"(-0.7, 0.5)",cs_plus_s,,,,,0,0,0,0,,,,,,,,,4,8,72,0,,,,,,,,,,,,,,,,,,,,,,,,,,,,,,,,,,,,,,,,,,,,,,,,,,,,,,,,,,1667.6884143000934,1668.7925317999907,1667.1815174999647,1668.7925317999907,1668.7925317999907,1668.7925317999907,0.005842400016263127,0.013107800157740712,255,none,0,,,1673.7992906,1673.7992906,0.01343400008045137,0.01343400008045137,0.019874100107699633,0.05450189998373389,0.06148410006426275,0.10321760014630854,0.11006740015000105,1.01286660018377,1677.29217660008,1680.9170679000672,,,,,,,,,,,,,,,,,,,,,,,,,,,,,4,A,2023-12-06_14h45.01.682,gca_avoidance_task,2022.2.4,143.73206051684534,
positions.xlsx,stimuli.xlsx,stimuli/Social1.png,stimuli/Social2.png,stimuli/Nonsocial1.png,stimuli/Nonsocial2.png,,"(0.7, 0.5)",cs_plus_ns,,,,,0,0,0,0,,,,,,,,,4,9,73,10,,,,,,,,,,,,,,,,,,,,,,,,,,,,,,,,,,,,,,,,,,,,,,,,,,,,,,,,,,1681.4239644000772,1683.2224655000027,1680.9170679000672,1683.2224655000027,1683.2224655000027,1683.2224655000027,0.006405800115317106,0.01312860008329153,255,none,0,,,1688.2292123001534,1688.2292123001534,0.01387120014987886,0.01387120014987886,0.019882900174707174,0.05457950010895729,0.06151739996857941,0.10320480004884303,0.11015740013681352,1.012911600060761,1691.7221423001029,1695.867858499987,,,,,,,,,,,,,,,,,,,,,,,,,,,,,4,A,2023-12-06_14h45.01.682,gca_avoidance_task,2022.2.4,143.73206051684534,
positions.xlsx,stimuli.xlsx,stimuli/Social1.png,stimuli/Social2.png,stimuli/Nonsocial1.png,stimuli/Nonsocial2.png,,"(0.7, -0.5)",cs_minus_s,,,,,0,0,0,0,,,,,,,,,4,10,74,7,,,,,,,,,,,,,,,,,,,,,,,,,,,,,,,,,,,,,,,,,,,,,,,,,,,,,,,,,,1696.374743100023,1697.7079980999697,1695.867858499987,1697.7079980999697,1697.7079980999697,1697.7079980999697,0.005702099995687604,0.013509399956092238,260,reward,1,[0.424256999976933],[0.4310407000593841],1698.145505100023,1698.145505100023,0.007062699878588319,0.007062699878588319,0.018169899936765432,0.05284469993785024,0.05978569993749261,0.10143429995514452,0.1084320000372827,1.0042055000085384,1701.6384523001034,1705.2979943000246,,,,,,,,,,,,,,,,,,,,,,,,,,,,,4,A,2023-12-06_14h45.01.682,gca_avoidance_task,2022.2.4,143.73206051684534,
positions.xlsx,stimuli.xlsx,stimuli/Social1.png,stimuli/Social2.png,stimuli/Nonsocial1.png,stimuli/Nonsocial2.png,,"(0.7, 0.5)",cs_minus_s,,,,,0,0,0,0,,,,,,,,,4,11,75,6,,,,,,,,,,,,,,,,,,,,,,,,,,,,,,,,,,,,,,,,,,,,,,,,,,,,,,,,,,1705.8048859001137,1706.888203999959,1705.2979943000246,1706.888203999959,1706.888203999959,1706.888203999959,0.006165500031784177,0.01336560002528131,265,reward,1,[0.5003366000019014],[0.5003403001464903],1707.3951356001198,1707.3951356001198,0.0069407999981194735,0.0069407999981194735,0.01843989989720285,0.053161999909207225,0.06007279991172254,0.10170569992624223,0.10866090003401041,1.0044556998182088,1710.8880229999777,1714.5893270000815,,,,,,,,,,,,,,,,,,,,,,,,,,,,,4,A,2023-12-06_14h45.01.682,gca_avoidance_task,2022.2.4,143.73206051684534,
positions.xlsx,stimuli.xlsx,stimuli/Social1.png,stimuli/Social2.png,stimuli/Nonsocial1.png,stimuli/Nonsocial2.png,,"(-0.7, -0.5)",cs_minus_ns,,,,,0,0,0,0,,,,,,,,,4,12,76,13,,,,,,,,,,,,,,,,,,,,,,,,,,,,,,,,,,,,,,,,,,,,,,,,,,,,,,,,,,1715.0961939999834,1717.0891519000288,1714.5893270000815,1717.0891519000288,1717.0891519000288,1717.0891519000288,0.006154799833893776,0.013000999810174108,270,reward,1,[0.4305327998008579],[0.43053669994696975],1717.5266256001778,1717.5266256001778,0.00706279999576509,0.00706279999576509,0.018290499923750758,0.05297009996138513,0.059937800047919154,0.10164660005830228,0.10856329998932779,1.0043190999422222,1721.0195506000891,1725.269415100105,,,,,,,,,,,,,,,,,,,,,,,,,,,,,4,A,2023-12-06_14h45.01.682,gca_avoidance_task,2022.2.4,143.73206051684534,
positions.xlsx,stimuli.xlsx,stimuli/Social1.png,stimuli/Social2.png,stimuli/Nonsocial1.png,stimuli/Nonsocial2.png,,"(-0.7, -0.5)",cs_plus_s,,,,,0,0,0,0,,,,,,,,,4,13,77,1,,,,,,,,,,,,,,,,,,,,,,,,,,,,,,,,,,,,,,,,,,,,,,,,,,,,,,,,,,1725.7763151000254,1726.8943123000208,1725.269415100105,1726.8943123000208,1726.8943123000208,1726.8943123000208,0.005847400054335594,0.013221299974247813,270,none,0,,,1731.9010378001258,1731.9010378001258,0.013420799979940057,0.013420799979940057,0.019971400033682585,0.054614700144156814,0.06158239999786019,0.10323190013878047,0.11016280017793179,1.012919600121677,1735.3940183999948,1739.393817299977,,,,,,,,,,,,,,,,,,,,,,,,,,,,,4,A,2023-12-06_14h45.01.682,gca_avoidance_task,2022.2.4,143.73206051684534,
positions.xlsx,stimuli.xlsx,stimuli/Social1.png,stimuli/Social2.png,stimuli/Nonsocial1.png,stimuli/Nonsocial2.png,,"(0.7, -0.5)",cs_minus_ns,,,,,0,0,0,0,,,,,,,,,4,14,78,15,,,,,,,,,,,,,,,,,,,,,,,,,,,,,,,,,,,,,,,,,,,,,,,,,,,,,,,,,,1739.90072340006,1741.115908100037,1739.393817299977,1741.115908100037,1741.115908100037,1741.115908100037,0.006835700012743473,0.013489600038155913,275,reward,1,[0.5559727000072598],[0.5559763999190181],1741.6784564000554,1741.6784564000554,0.007127600023522973,0.007127600023522973,0.018540299963206053,0.053194399923086166,0.06020649988204241,0.10177359986118972,0.10875110002234578,1.0045268000103533,1745.1713980999775,1748.7128361000214,,,,,,,,,,,,,,,,,,,,,,,,,,,,,4,A,2023-12-06_14h45.01.682,gca_avoidance_task,2022.2.4,143.73206051684534,
positions.xlsx,stimuli.xlsx,stimuli/Social1.png,stimuli/Social2.png,stimuli/Nonsocial1.png,stimuli/Nonsocial2.png,,"(-0.7, 0.5)",cs_minus_ns,,,,,0,0,0,0,,,,,,,,,4,15,79,12,,,,,,,,,,,,,,,,,,,,,,,,,,,,,,,,,,,,,,,,,,,,,,,,,,,,,,,,,,1749.219761900138,1751.1641550001223,1748.7128361000214,1751.1641550001223,1751.1641550001223,1751.1641550001223,0.0062494000885635614,0.013364800019189715,280,reward,1,[0.42397719994187355],[0.4239813999738544],1751.5947116999887,1751.5947116999887,0.007232900010421872,0.007232900010421872,0.018713400000706315,0.053365400061011314,0.06033470015972853,0.10194219998084009,0.10891830013133585,1.004706900101155,1755.0876283999532,1759.0596525000874,,,,,,,,,,,,,,,,,,,,,,,,,,,,,4,A,2023-12-06_14h45.01.682,gca_avoidance_task,2022.2.4,143.73206051684534,
positions.xlsx,stimuli.xlsx,stimuli/Social1.png,stimuli/Social2.png,stimuli/Nonsocial1.png,stimuli/Nonsocial2.png,cs_plus_ns,,,,,,,0,0,0,0,,,,,,,,,,,,,0,0,0,1,,,,,,,,,,,,,,,,,,,,,,,,,,,,,,,,,,,,,,,,,,,1766.6496284001041,1766.6496284001041,1772.0313703999855,2.0,5.370682199951261,space,1.1711390998680145,,,,,,,,,,,,,,,,,,,,,,,,,,,,,,,,,,,,1759.0596525000874,1759.0596525000874,1759.0596525000874,1759.0596525000874,1759.0596525000874,1759.0596525000874,1763.50391520001,5.0,4.430963299935684,space,3.099342199973762,,,,,,,,,,,,4,A,2023-12-06_14h45.01.682,gca_avoidance_task,2022.2.4,143.73206051684534,
positions.xlsx,stimuli.xlsx,stimuli/Social1.png,stimuli/Social2.png,stimuli/Nonsocial1.png,stimuli/Nonsocial2.png,cs_plus_s,,,,,,,0,0,0,0,,,,,,,,,,,,,0,1,1,0,,,,,,,,,,,,,,,,,,,,,,,,,,,,,,,,,,,,,,,,,,,1773.2396442999598,1773.2396442999598,1777.642258600099,4.0,5.417021099943668,space,2.1207560999318957,,,,,,,,,,,,,,,,,,,,,,,,,,,,,,,,,,,,,,,,,,,,,,,,,,,,,,,,,,4,A,2023-12-06_14h45.01.682,gca_avoidance_task,2022.2.4,143.73206051684534,
positions.xlsx,stimuli.xlsx,stimuli/Social1.png,stimuli/Social2.png,stimuli/Nonsocial1.png,stimuli/Nonsocial2.png,cs_minus_s,,,,,,,0,0,0,0,,,,,,,,,,,,,0,2,2,2,,,,,,,,,,,,,,,,,,,,,,,,,,,,,,,,,,,,,,,,,,,1779.7879745999817,1779.7879745999817,1783.5378199999686,6.0,7.695410399930552,space,4.625125499907881,,,,,,,,,,,,,,,,,,,,,,,,,,,,,,,,,,,,,,,,,,,,,,,,,,,,,,,,,,4,A,2023-12-06_14h45.01.682,gca_avoidance_task,2022.2.4,143.73206051684534,
positions.xlsx,stimuli.xlsx,stimuli/Social1.png,stimuli/Social2.png,stimuli/Nonsocial1.png,stimuli/Nonsocial2.png,cs_minus_ns,,,,,,,0,0,0,0,,,,,,,,,,,,,0,3,3,3,,,,,,,,,,,,,,,,,,,,,,,,,,,,,,,,,,,,,,,,,,,1788.2043042001314,1788.2043042001314,1791.5722354999743,6.0,3.354625799925998,space,1.311215799767524,,,,,,,,,,,,,,,,,,,,,,,,,,,,,,,,,,,,,,,,,,,,,,,,,,,,,,,,,,4,A,2023-12-06_14h45.01.682,gca_avoidance_task,2022.2.4,143.73206051684534,
