posFile,stimFile,cs_plus_s,cs_minus_s,cs_plus_ns,cs_minus_ns,stimtype,position,trialtype,trials_threshold.thisRepN,trials_threshold.thisTrialN,trials_threshold.thisN,trials_threshold.thisIndex,blocks.thisRepN,blocks.thisTrialN,blocks.thisN,blocks.thisIndex,ratingtrials1.thisRepN,ratingtrials1.thisTrialN,ratingtrials1.thisN,ratingtrials1.thisIndex,learning_trials.thisRepN,learning_trials.thisTrialN,learning_trials.thisN,learning_trials.thisIndex,trials.thisRepN,trials.thisTrialN,trials.thisN,trials.thisIndex,ratingtrials2.thisRepN,ratingtrials2.thisTrialN,ratingtrials2.thisN,ratingtrials2.thisIndex,testtrials.thisRepN,testtrials.thisTrialN,testtrials.thisN,testtrials.thisIndex,ratingtrials3.thisRepN,ratingtrials3.thisTrialN,ratingtrials3.thisN,ratingtrials3.thisIndex,textStart.started,spaceStart.started,spaceStart.keys,spaceStart.rt,textPainThreshold.started,spacePainThreshold.started,spacePainThreshold.keys,spacePainThreshold.rt,textRateT.started,text_noPainT.started,text_slightPainT.started,text_highPainT.started,sliderPainT.started,keys_PainT.started,sliderPainT.response,sliderPainT.rt,keys_PainT.keys,keys_PainT.rt,fixcrossT.started,portShock1T.started,portShock1T.stopped,portShock2T.started,portShock2T.stopped,portShock3T.started,portShock3T.stopped,fixcrossT.stopped,text_ETCalibration.started,spaceETCalibration.started,spaceETCalibration.keys,spaceETCalibration.rt,textStartExp.started,spaceStartExp.started,spaceStartExp.keys,spaceStartExp.rt,imageRating.started,sliderStim.started,spaceStim.started,sliderStim.response,sliderStim.rt,spaceStim.keys,spaceStim.rt,textStartTask.started,spaceStartTask.started,spaceStartTask.keys,spaceStartTask.rt,blankScreen.started,blankScreen.stopped,fixcross.started,image.started,roi.started,gazeCursor.started,portImage.started,portImage.stopped,score,outcome,roi.numLooks,roi.timesOn,roi.timesOff,imageFeedback.started,gazeCursor_Feedback.started,soundFeedback.started,portShock1.started,portShock1.stopped,portShock2.started,portShock2.stopped,portShock3.started,portShock3.stopped,soundFeedback.stopped,fixcrossE.started,fixcrossE.stopped,textRepeatTask.started,textboxRepeatInstruction.started,textRepeatSpace.started,spaceRepeatTask.started,spaceRepeatTask.keys,spaceRepeatTask.rt,textRate.started,text_noPain.started,text_slightPain.started,text_highPain.started,sliderPain.started,textSpacePain.started,spacePain.started,sliderPain.response,sliderPain.rt,spacePain.keys,spacePain.rt,textTestInstr.started,spaceTestInstr.started,spaceTestInstr.keys,spaceTestInstr.rt,imageTest.started,roiTest.started,portTestImage.started,portTestImage.stopped,roiTest.numLooks,roiTest.timesOn,roiTest.timesOff,participant,group,date,expName,psychopyVersion,frameRate,
,,,,,,,,,,,,,,,,,,,,,,,,,,,,,,,,,,,,,,,,,14.391661400033627,14.391661400033627,space,27.80213140003616,,,,,,,,,,,,,,,,,,,,,,,,,,,,,,,,,,,,,,,,,,,,,,,,,,,,,,,,,,,,,,,,,,,,,,,,,,,,,,,,,,,,,,,,,,,,,,,19,A,2023-12-11_16h14.17.291,gca_avoidance_task,2022.2.4,144.02767639466035,
,,,,,,,,,,,,,,,,,,,,,,,,,,,,,,,,,,,,,,,,,,,,,42.203007799980696,42.203007799980696,space,4.68673250003485,,,,,,,,,,,,,,,,,,,,,,,,,,,,,,,,,,,,,,,,,,,,,,,,,,,,,,,,,,,,,,,,,,,,,,,,,,,,,,,,,,,,,,,,,,,19,A,2023-12-11_16h14.17.291,gca_avoidance_task,2022.2.4,144.02767639466035,
,,,,,,,,,0,0,0,0,,,,,,,,,,,,,,,,,,,,,,,,,,,,,,,,,,,,,48.16458490001969,48.16458490001969,48.16458490001969,48.16458490001969,48.16458490001969,48.16458490001969,None,None,s,9.269617400015704,58.04775319999317,0.1013334000017494,0.10855679999804124,0.14982269995380193,0.15688609995413572,0.2055331000010483,0.21259879996068776,58.86578390002251,,,,,,,,,,,,,,,,,,,,,,,,,,,,,,,,,,,,,,,,,,,,,,,,,,,,,,,,,,,,,,,,,,,,,,,,,19,A,2023-12-11_16h14.17.291,gca_avoidance_task,2022.2.4,144.02767639466035,
,,,,,,,,,1,0,1,0,,,,,,,,,,,,,,,,,,,,,,,,,,,,,,,,,,,,,58.86578390002251,58.86578390002251,58.86578390002251,58.86578390002251,58.86578390002251,58.86578390002251,None,None,s,8.704515400051605,68.06525189999957,0.10416610003449023,0.11112290003802627,0.15292610001051798,0.1597116999910213,0.20164560002740473,0.20843290002085268,,,,,,,,,,,,,,,,,,,,,,,,,,,,,,,,,,,,,,,,,,,,,,,,,,,,,,,,,,,,,,,,,,,,,,,,,,19,A,2023-12-11_16h14.17.291,gca_avoidance_task,2022.2.4,144.02767639466035,
,,,,,,,,,2,0,2,0,,,,,,,,,,,,,,,,,,,,,,,,,,,,,,,,,,,,,68.82222800003365,68.82222800003365,68.82222800003365,68.82222800003365,68.82222800003365,68.82222800003365,0.0,3.0200710999779403,s,7.155472000013106,76.48634679999668,0.09933799999998882,0.10627970000496134,0.15487889997893944,0.16189350001513958,0.20350800000596792,0.21046289999503642,77.250231300015,,,,,,,,,,,,,,,,,,,,,,,,,,,,,,,,,,,,,,,,,,,,,,,,,,,,,,,,,,,,,,,,,,,,,,,,,19,A,2023-12-11_16h14.17.291,gca_avoidance_task,2022.2.4,144.02767639466035,
,,,,,,,,,3,0,3,0,,,,,,,,,,,,,,,,,,,,,,,,,,,,,,,,,,,,,77.250231300015,77.250231300015,77.250231300015,77.250231300015,77.250231300015,77.250231300015,0.0,3.132913999957964,s,7.335336400021333,85.1040609999909,0.10521989996777847,0.112197499955073,0.153841299994383,0.16078019997803494,0.20246449997648597,0.20939509995514527,,,,,,,,,,,,,,,,,,,,,,,,,,,,,,,,,,,,,,,,,,,,,,,,,,,,,,,,,,,,,,,,,,,,,,,,,,19,A,2023-12-11_16h14.17.291,gca_avoidance_task,2022.2.4,144.02767639466035,
,,,,,,,,,4,0,4,0,,,,,,,,,,,,,,,,,,,,,,,,,,,,,,,,,,,,,85.97904429998016,85.97904429998016,85.97904429998016,85.97904429998016,85.97904429998016,85.97904429998016,0.0,3.284268899995368,s,7.774710999976378,94.25646730000153,0.09948810003697872,0.1064642000128515,0.15503520000493154,0.16199250001227483,0.20364300004439428,0.21056219999445602,95.02032529999269,,,,,,,,,,,,,,,,,,,,,,,,,,,,,,,,,,,,,,,,,,,,,,,,,,,,,,,,,,,,,,,,,,,,,,,,,19,A,2023-12-11_16h14.17.291,gca_avoidance_task,2022.2.4,144.02767639466035,
,,,,,,,,,5,0,5,0,,,,,,,,,,,,,,,,,,,,,,,,,,,,,,,,,,,,,95.02032529999269,95.02032529999269,95.02032529999269,95.02032529999269,95.02032529999269,95.02032529999269,0.0,5.326746899983846,s,9.198133500001859,104.72829190001357,0.10483959998236969,0.11177959997439757,0.15344789996743202,0.16039319999981672,0.20205019996501505,0.20901210000738502,,,,,,,,,,,,,,,,,,,,,,,,,,,,,,,,,,,,,,,,,,,,,,,,,,,,,,,,,,,,,,,,,,,,,,,,,,19,A,2023-12-11_16h14.17.291,gca_avoidance_task,2022.2.4,144.02767639466035,
,,,,,,,,,6,0,6,0,,,,,,,,,,,,,,,,,,,,,,,,,,,,,,,,,,,,,105.48521610000171,105.48521610000171,105.48521610000171,105.48521610000171,105.48521610000171,105.48521610000171,0.0,4.065128699992783,s,8.949128100008238,114.93622269999469,0.10420619999058545,0.1111428999574855,0.15278659999603406,0.15974099998129532,0.20145819999743253,0.20834529999410734,,,,,,,,,,,,,,,,,,,,,,,,,,,,,,,,,,,,,,,,,,,,,,,,,,,,,,,,,,,,,,,,,,,,,,,,,,19,A,2023-12-11_16h14.17.291,gca_avoidance_task,2022.2.4,144.02767639466035,
,,,,,,,,,7,0,7,0,,,,,,,,,,,,,,,,,,,,,,,,,,,,,,,,,,,,,115.68622600001981,115.68622600001981,115.68622600001981,115.68622600001981,115.68622600001981,115.68622600001981,0.0,2.4831806999864057,s,15.307566900039092,131.60220090002986,0.10166500002378598,0.10861679998924956,0.15029140003025532,0.15724089997820556,0.20583549997536466,0.2127811000100337,132.35913539998,,,,,,,,,,,,,,,,,,,,,,,,,,,,,,,,,,,,,,,,,,,,,,,,,,,,,,,,,,,,,,,,,,,,,,,,,19,A,2023-12-11_16h14.17.291,gca_avoidance_task,2022.2.4,144.02767639466035,
,,,,,,,,,8,0,8,0,,,,,,,,,,,,,,,,,,,,,,,,,,,,,,,,,,,,,132.35913539998,132.35913539998,132.35913539998,132.35913539998,132.35913539998,132.35913539998,1.0,2.548295699991286,s,7.227098599949386,140.10187000001315,0.10571039997739717,0.11265480000292882,0.15428519999841228,0.16126389999408275,0.20293650001985952,0.20989240001654252,,,,,,,,,,,,,,,,,,,,,,,,,,,,,,,,,,,,,,,,,,,,,,,,,,,,,,,,,,,,,,,,,,,,,,,,,,19,A,2023-12-11_16h14.17.291,gca_avoidance_task,2022.2.4,144.02767639466035,
,,,,,,,,,9,0,9,0,,,,,,,,,,,,,,,,,,,,,,,,,,,,,,,,,,,,,140.8588008999941,140.8588008999941,140.8588008999941,140.8588008999941,140.8588008999941,140.8588008999941,1.0,2.0907987999962643,s,6.375653200026136,147.74738960003015,0.10481180000351742,0.11172530002659187,0.153418599977158,0.1603828999795951,0.2020149999880232,0.20901799999410287,,,,,,,,,,,,,,,,,,,,,,,,,,,,,,,,,,,,,,,,,,,,,,,,,,,,,,,,,,,,,,,,,,,,,,,,,,19,A,2023-12-11_16h14.17.291,gca_avoidance_task,2022.2.4,144.02767639466035,
,,,,,,,,,10,0,10,0,,,,,,,,,,,,,,,,,,,,,,,,,,,,,,,,,,,,,148.49736989999656,148.49736989999656,148.49736989999656,148.49736989999656,148.49736989999656,148.49736989999656,1.0,1.65681970003061,s,6.1447521999944,155.14292830001796,0.10299340001074597,0.10993060003966093,0.15159500000299886,0.1585579999955371,0.2002034000470303,0.20718330005183816,155.89983990002656,,,,,,,,,,,,,,,,,,,,,,,,,,,,,,,,,,,,,,,,,,,,,,,,,,,,,,,,,,,,,,,,,,,,,,,,,19,A,2023-12-11_16h14.17.291,gca_avoidance_task,2022.2.4,144.02767639466035,
,,,,,,,,,11,0,11,0,,,,,,,,,,,,,,,,,,,,,,,,,,,,,,,,,,,,,155.89983990002656,155.89983990002656,155.89983990002656,155.89983990002656,155.89983990002656,155.89983990002656,1.0,1.5417738999822177,s,4.61503410001751,161.0246749999933,0.10218730004271492,0.10914930002763867,0.15079159999731928,0.1577448000316508,0.19941490003839135,0.20636980002745986,161.78153500001645,,,,,,,,,,,,,,,,,,,,,,,,,,,,,,,,,,,,,,,,,,,,,,,,,,,,,,,,,,,,,,,,,,,,,,,,,19,A,2023-12-11_16h14.17.291,gca_avoidance_task,2022.2.4,144.02767639466035,
,,,,,,,,,12,0,12,0,,,,,,,,,,,,,,,,,,,,,,,,,,,,,,,,,,,,,161.78153500001645,161.78153500001645,161.78153500001645,161.78153500001645,161.78153500001645,161.78153500001645,1.0,1.4028139000292867,s,6.412433699995745,168.70488939998904,0.10390899999765679,0.11082050000550225,0.15250240004388615,0.15941910003311932,0.201071800023783,0.2080287000280805,169.46181910001906,,,,,,,,,,,,,,,,,,,,,,,,,,,,,,,,,,,,,,,,,,,,,,,,,,,,,,,,,,,,,,,,,,,,,,,,,19,A,2023-12-11_16h14.17.291,gca_avoidance_task,2022.2.4,144.02767639466035,
,,,,,,,,,13,0,13,0,,,,,,,,,,,,,,,,,,,,,,,,,,,,,,,,,,,,,169.46181910001906,169.46181910001906,169.46181910001906,169.46181910001906,169.46181910001906,169.46181910001906,1.0,1.3322935000178404,s,5.812472300021909,175.76711230003275,0.1019724000361748,0.10897930001374334,0.15064399997936562,0.15758070000447333,0.19922990002669394,0.20619330002227798,176.51708700001473,,,,,,,,,,,,,,,,,,,,,,,,,,,,,,,,,,,,,,,,,,,,,,,,,,,,,,,,,,,,,,,,,,,,,,,,,19,A,2023-12-11_16h14.17.291,gca_avoidance_task,2022.2.4,144.02767639466035,
,,,,,,,,,14,0,14,0,,,,,,,,,,,,,,,,,,,,,,,,,,,,,,,,,,,,,176.51708700001473,176.51708700001473,176.51708700001473,176.51708700001473,176.51708700001473,176.51708700001473,1.0,1.2473114000167698,s,6.853070500015747,183.88483090000227,0.10299360001226887,0.10994990001199767,0.15159239998320118,0.15857550001237541,0.20019990002037957,0.20718089997535571,184.64176319999387,,,,,,,,,,,,,,,,,,,,,,,,,,,,,,,,,,,,,,,,,,,,,,,,,,,,,,,,,,,,,,,,,,,,,,,,,19,A,2023-12-11_16h14.17.291,gca_avoidance_task,2022.2.4,144.02767639466035,
,,,,,,,,,15,0,15,0,,,,,,,,,,,,,,,,,,,,,,,,,,,,,,,,,,,,,184.64176319999387,184.64176319999387,184.64176319999387,184.64176319999387,184.64176319999387,184.64176319999387,1.0,2.7332074999576434,s,6.288631499977782,191.44006390002323,0.10481769999023527,0.11182719998760149,0.1534261999768205,0.16035849996842444,0.20199499995214865,0.20896999997785315,,,,,,,,,,,,,,,,,,,,,,,,,,,,,,,,,,,,,,,,,,,,,,,,,,,,,,,,,,,,,,,,,,,,,,,,,,19,A,2023-12-11_16h14.17.291,gca_avoidance_task,2022.2.4,144.02767639466035,
,,,,,,,,,16,0,16,0,,,,,,,,,,,,,,,,,,,,,,,,,,,,,,,,,,,,,192.1969834000338,192.1969834000338,192.1969834000338,192.1969834000338,192.1969834000338,192.1969834000338,1.0,1.4866999000078067,s,23.46193199994741,216.15436350001255,0.1006374999997206,0.10758459998760372,0.1492580000194721,0.15622240002267063,0.20478329999605194,0.21175130002666265,216.91822069999762,,,,,,,,,,,,,,,,,,,,,,,,,,,,,,,,,,,,,,,,,,,,,,,,,,,,,,,,,,,,,,,,,,,,,,,,,19,A,2023-12-11_16h14.17.291,gca_avoidance_task,2022.2.4,144.02767639466035,
,,,,,,,,,17,0,17,0,,,,,,,,,,,,,,,,,,,,,,,,,,,,,,,,,,,,,216.91822069999762,216.91822069999762,216.91822069999762,216.91822069999762,216.91822069999762,216.91822069999762,2.0,1.6924427000340074,s,6.259495200007223,223.69572590000462,0.10310339997522533,0.11001270002452657,0.15168720000656322,0.15864919999148697,0.2003499999991618,0.20725199999287724,224.45267670002067,,,,,,,,,,,,,,,,,,,,,,,,,,,,,,,,,,,,,,,,,,,,,,,,,,,,,,,,,,,,,,,,,,,,,,,,,19,A,2023-12-11_16h14.17.291,gca_avoidance_task,2022.2.4,144.02767639466035,
,,,,,,,,,18,0,18,0,,,,,,,,,,,,,,,,,,,,,,,,,,,,,,,,,,,,,224.45267670002067,224.45267670002067,224.45267670002067,224.45267670002067,224.45267670002067,224.45267670002067,2.0,2.049435299995821,s,5.709829600004014,230.68853300000774,0.10203139996156096,0.10904459998710081,0.15065289998892695,0.15760419995058328,0.19925769994733855,0.2062283999985084,231.44541709998157,,,,,,,,,,,,,,,,,,,,,,,,,,,,,,,,,,,,,,,,,,,,,,,,,,,,,,,,,,,,,,,,,,,,,,,,,19,A,2023-12-11_16h14.17.291,gca_avoidance_task,2022.2.4,144.02767639466035,
,,,,,,,,,19,0,19,0,,,,,,,,,,,,,,,,,,,,,,,,,,,,,,,,,,,,,231.44541709998157,231.44541709998157,231.44541709998157,231.44541709998157,231.44541709998157,231.44541709998157,3.0,1.124116899969522,s,5.228288300044369,237.36882309999783,0.09950790001312271,0.10646150005050004,0.1550645000534132,0.16205210000043735,0.20363040000665933,0.2105851000524126,238.12572720000753,,,,,,,,,,,,,,,,,,,,,,,,,,,,,,,,,,,,,,,,,,,,,,,,,,,,,,,,,,,,,,,,,,,,,,,,,19,A,2023-12-11_16h14.17.291,gca_avoidance_task,2022.2.4,144.02767639466035,
,,,,,,,,,20,0,20,0,,,,,,,,,,,,,,,,,,,,,,,,,,,,,,,,,,,,,238.12572720000753,238.12572720000753,238.12572720000753,238.12572720000753,238.12572720000753,238.12572720000753,3.0,2.14350479998393,s,6.788418399984948,245.43098790000658,0.10534660000121221,0.11230709997471422,0.1539653000072576,0.1609026999794878,0.2025842000148259,0.20957319997251034,,,,,,,,,,,,,,,,,,,,,,,,,,,,,,,,,,,,,,,,,,,,,,,,,,,,,,,,,,,,,,,,,,,,,,,,,,19,A,2023-12-11_16h14.17.291,gca_avoidance_task,2022.2.4,144.02767639466035,
,,,,,,,,,21,0,21,0,,,,,,,,,,,,,,,,,,,,,,,,,,,,,,,,,,,,,246.1879362000036,246.1879362000036,246.1879362000036,246.1879362000036,246.1879362000036,246.1879362000036,4.0,1.2986202000174671,s,5.647103000024799,252.3473828000133,0.10416549997171387,0.11113189999014139,0.15277099999366328,0.15972619998501614,0.20142619998659939,0.20837150001898408,,,,,,,,,,,,,,,,,,,,,,,,,,,,,,,,,,,,,,,,,,,,,,,,,,,,,,,,,,,,,,,,,,,,,,,,,,19,A,2023-12-11_16h14.17.291,gca_avoidance_task,2022.2.4,144.02767639466035,
,,,,,,,,,22,0,22,0,,,,,,,,,,,,,,,,,,,,,,,,,,,,,,,,,,,,,253.1528959000134,253.1528959000134,253.1528959000134,253.1528959000134,253.1528959000134,253.1528959000134,5.0,2.7424442000337876,s,7.657208500022534,261.31228329997975,0.10479539999505505,0.11173050000797957,0.15337439998984337,0.16035289998399094,0.20198090001940727,0.20893690001685172,,,,,,,,,,,,,,,,,,,,,,,,,,,,,,,,,,,,,,,,,,,,,,,,,,,,,,,,,,,,,,,,,,,,,,,,,,19,A,2023-12-11_16h14.17.291,gca_avoidance_task,2022.2.4,144.02767639466035,
,,,,,,,,,23,0,23,0,,,,,,,,,,,,,,,,,,,,,,,,,,,,,,,,,,,,,262.0692204000079,262.0692204000079,262.0692204000079,262.0692204000079,262.0692204000079,262.0692204000079,4.0,3.4999171000090428,s,7.997411000018474,270.7355197999859,0.09932430001208559,0.10625489999074489,0.15482280001742765,0.1617610999965109,0.20345369999995455,0.21042620000662282,271.49244350002846,,,,,,,,,,,,,,,,,,,,,,,,,,,,,,,,,,,,,,,,,,,,,,,,,,,,,,,,,,,,,,,,,,,,,,,,,19,A,2023-12-11_16h14.17.291,gca_avoidance_task,2022.2.4,144.02767639466035,
,,,,,,,,,24,0,24,0,,,,,,,,,,,,,,,,,,,,,,,,,,,,,,,,,,,,,271.49244350002846,271.49244350002846,271.49244350002846,271.49244350002846,271.49244350002846,271.49244350002846,5.0,1.061857599997893,s,5.638363699952606,277.6311013000086,0.09935819997917861,0.10631599999032915,0.15492090000770986,0.16184299997985363,0.20356729999184608,0.21051290002651513,278.3879976000171,,,,,,,,,,,,,,,,,,,,,,,,,,,,,,,,,,,,,,,,,,,,,,,,,,,,,,,,,,,,,,,,,,,,,,,,,19,A,2023-12-11_16h14.17.291,gca_avoidance_task,2022.2.4,144.02767639466035,
,,,,,,,,,25,0,25,0,,,,,,,,,,,,,,,,,,,,,,,,,,,,,,,,,,,,,278.3879976000171,278.3879976000171,278.3879976000171,278.3879976000171,278.3879976000171,278.3879976000171,6.0,3.100551399984397,s,7.749790799978655,286.6376771000214,0.10003079997841269,0.10699830000521615,0.15563350002048537,0.16255619999719784,0.20423370000207797,0.21120580000570044,287.3945664999774,,,,,,,,,,,,,,,,,,,,,,,,,,,,,,,,,,,,,,,,,,,,,,,,,,,,,,,,,,,,,,,,,,,,,,,,,19,A,2023-12-11_16h14.17.291,gca_avoidance_task,2022.2.4,144.02767639466035,
,,,,,,,,,26,0,26,0,,,,,,,,,,,,,,,,,,,,,,,,,,,,,,,,,,,,,287.3945664999774,287.3945664999774,287.3945664999774,287.3945664999774,287.3945664999774,287.3945664999774,6.0,2.1161591000272892,s,6.775798400049098,294.679025200021,0.10063689999515191,0.1075820000260137,0.14921609999146312,0.15619280003011227,0.2048083000117913,0.21174330002395436,295.4359336000052,,,,,,,,,,,,,,,,,,,,,,,,,,,,,,,,,,,,,,,,,,,,,,,,,,,,,,,,,,,,,,,,,,,,,,,,,19,A,2023-12-11_16h14.17.291,gca_avoidance_task,2022.2.4,144.02767639466035,
,,,,,,,,,27,0,27,0,,,,,,,,,,,,,,,,,,,,,,,,,,,,,,,,,,,,,295.4359336000052,295.4359336000052,295.4359336000052,295.4359336000052,295.4359336000052,295.4359336000052,7.0,1.505759899970144,s,6.606592099997215,302.53981779998867,0.10002080001868308,0.1070293000084348,0.1555847999989055,0.1625289000221528,0.20423329999903217,0.21114979998674244,303.2967035000329,,,,,,,,,,,,,,,,,,,,,,,,,,,,,,,,,,,,,,,,,,,,,,,,,,,,,,,,,,,,,,,,,,,,,,,,,19,A,2023-12-11_16h14.17.291,gca_avoidance_task,2022.2.4,144.02767639466035,
,,,,,,,,,28,0,28,0,,,,,,,,,,,,,,,,,,,,,,,,,,,,,,,,,,,,,303.2967035000329,303.2967035000329,303.2967035000329,303.2967035000329,303.2967035000329,303.2967035000329,6.0,2.690888399956748,s,6.898312499979511,310.7061416999786,0.10429039999144152,0.11120169999776408,0.15285249997396022,0.15980389999458566,0.20146319997729734,0.2084237999515608,,,,,,,,,,,,,,,,,,,,,,,,,,,,,,,,,,,,,,,,,,,,,,,,,,,,,,,,,,,,,,,,,,,,,,,,,,19,A,2023-12-11_16h14.17.291,gca_avoidance_task,2022.2.4,144.02767639466035,
,,,,,,,,,29,0,29,0,,,,,,,,,,,,,,,,,,,,,,,,,,,,,,,,,,,,,311.463067899982,311.463067899982,311.463067899982,311.463067899982,311.463067899982,311.463067899982,6.0,2.5627930000191554,s,7.148100399994291,319.1919166999869,0.10534390003886074,0.11235240002861246,0.153961900039576,0.16093890002230182,0.20266460004495457,0.20953600003849715,,,,,,,,,,,,,,,,,,,,,,,,,,,,,,,,,,,,,,,,,,,,,,,,,,,,,,,,,,,,,,,,,,,,,,,,,,19,A,2023-12-11_16h14.17.291,gca_avoidance_task,2022.2.4,144.02767639466035,
,,,,,,,,,30,0,30,0,,,,,,,,,,,,,,,,,,,,,,,,,,,,,,,,,,,,,319.94884159998037,319.94884159998037,319.94884159998037,319.94884159998037,319.94884159998037,319.94884159998037,6.0,2.0255484999506734,s,7.269502499955706,327.7263069000328,0.10309320001397282,0.11005439999280497,0.15171730000292882,0.15868130000308156,0.20034350000787526,0.20725460001267493,328.47628679999616,,,,,,,,,,,,,,,,,,,,,,,,,,,,,,,,,,,,,,,,,,,,,,,,,,,,,,,,,,,,,,,,,,,,,,,,,19,A,2023-12-11_16h14.17.291,gca_avoidance_task,2022.2.4,144.02767639466035,
,,,,,,,,,31,0,31,0,,,,,,,,,,,,,,,,,,,,,,,,,,,,,,,,,,,,,328.47628679999616,328.47628679999616,328.47628679999616,328.47628679999616,328.47628679999616,328.47628679999616,5.0,4.815598400018644,s,9.373871900024824,338.35089559998596,0.09956519998377189,0.1065400000079535,0.1551519999629818,0.16207749996101484,0.2037193999858573,0.2106629000045359,339.1077905999846,,,,,,,,,,,,,,,,,,,,,,,,,,,,,,,,,,,,,,,,,,,,,,,,,,,,,,,,,,,,,,,,,,,,,,,,,19,A,2023-12-11_16h14.17.291,gca_avoidance_task,2022.2.4,144.02767639466035,
,,,,,,,,,32,0,32,0,,,,,,,,,,,,,,,,,,,,,,,,,,,,,,,,,,,,,339.1077905999846,339.1077905999846,339.1077905999846,339.1077905999846,339.1077905999846,339.1077905999846,5.0,4.764320500020403,s,8.326268100005109,347.9199530000333,0.10024510003859177,0.10719539999263361,0.15579109999816865,0.16277540003648028,0.2044049000251107,0.2113921000272967,348.67685119999805,,,,,,,,,,,,,,,,,,,,,,,,,,,,,,,,,,,,,,,,,,,,,,,,,,,,,,,,,,,,,,,,,,,,,,,,,19,A,2023-12-11_16h14.17.291,gca_avoidance_task,2022.2.4,144.02767639466035,
,,,,,,,,,33,0,33,0,,,,,,,,,,,,,,,,,,,,,,,,,,,,,,,,,,,,,348.67685119999805,348.67685119999805,348.67685119999805,348.67685119999805,348.67685119999805,348.67685119999805,6.0,0.8201365999993868,s,10.790056699945126,359.9750015999889,0.10043089999817312,0.10738949995720759,0.1490650000050664,0.15600580000318587,0.20459989999653772,0.2116074999794364,360.7319143000059,,,,,,,,,,,,,,,,,,,,,,,,,,,,,,,,,,,,,,,,,,,,,,,,,,,,,,,,,,,,,,,,,,,,,,,,,19,A,2023-12-11_16h14.17.291,gca_avoidance_task,2022.2.4,144.02767639466035,
,,,,,,,,,34,0,34,0,,,,,,,,,,,,,,,,,,,,,,,,,,,,,,,,,,,,,360.7319143000059,360.7319143000059,360.7319143000059,360.7319143000059,360.7319143000059,360.7319143000059,6.0,1.9336343999602832,s,5.453921100008301,366.69003850000445,0.10273649997543544,0.10968589998083189,0.15137500001583248,0.1583328999695368,0.1999711999669671,0.20689729996956885,367.44697879999876,,,,,,,,,,,,,,,,,,,,,,,,,,,,,,,,,,,,,,,,,,,,,,,,,,,,,,,,,,,,,,,,,,,,,,,,,19,A,2023-12-11_16h14.17.291,gca_avoidance_task,2022.2.4,144.02767639466035,
,,,,,,,,,35,0,35,0,,,,,,,,,,,,,,,,,,,,,,,,,,,,,,,,,,,,,367.44697879999876,367.44697879999876,367.44697879999876,367.44697879999876,367.44697879999876,367.44697879999876,None,None,s,9.739610799995717,377.68965449999087,0.10552759998245165,0.11248730000806972,0.15415060002123937,0.16108960000565276,0.20276760001434013,0.2097230000072159,,,,,,,,,,,,,,,,,,,,,,,,,,,,,,,,,,,,,,,,,,,,,,,,,,,,,,,,,,,,,,,,,,,,,,,,,,19,A,2023-12-11_16h14.17.291,gca_avoidance_task,2022.2.4,144.02767639466035,
,,,,,,,,,36,0,36,0,,,,,,,,,,,,,,,,,,,,,,,,,,,,,,,,,,,,,378.5437223999761,378.5437223999761,378.5437223999761,378.5437223999761,378.5437223999761,378.5437223999761,7.0,2.5858985999948345,s,7.490874600014649,386.5433915000176,0.10034360003191978,0.1072909000213258,0.15585370000917464,0.16287820000434294,0.2045106000150554,0.21148910000920296,387.3003351999796,,,,,,,,,,,,,,,,,,,,,,,,,,,,,,,,,,,,,,,,,,,,,,,,,,,,,,,,,,,,,,,,,,,,,,,,,19,A,2023-12-11_16h14.17.291,gca_avoidance_task,2022.2.4,144.02767639466035,
,,,,,,,,,37,0,37,0,,,,,,,,,,,,,,,,,,,,,,,,,,,,,,,,,,,,,387.3003351999796,387.3003351999796,387.3003351999796,387.3003351999796,387.3003351999796,387.3003351999796,6.0,1.983141999982763,g,28.965693099948112,416.771371299983,,,,,,,,,,,,,,,,,,,,,,,,,,,,,,,,,,,,,,,,,,,,,,,,,,,,,,,,,,,,,,,,,,,,,,,,,,,,,,,,19,A,2023-12-11_16h14.17.291,gca_avoidance_task,2022.2.4,144.02767639466035,
,,,,,,,,,,,,,,,,,,,,,,,,,,,,,,,,,,,,,,,,,,,,,,,,,,,,,,,,,,,,,,,,,,,416.771371299983,416.771371299983,space,1.2229305999935605,,,,,,,,,,,,,,,,,,,,,,,,,,,,,,,,,,,,,,,,,,,,,,,,,,,,,,,,,,,,,,,,,,,,,19,A,2023-12-11_16h14.17.291,gca_avoidance_task,2022.2.4,144.02767639466035,
positions.xlsx,stimuli.xlsx,stimuli/Social1.png,stimuli/Social2.png,stimuli/Nonsocial1.png,stimuli/Nonsocial2.png,cs_plus_ns,,,,,,,0,0,0,0,0,0,0,1,,,,,,,,,,,,,,,,,,,,,,,,,,,,,,,,,,,,,,,,,,,,,,,,,,,534.6749664000235,534.6749664000235,space,13.55123189999722,548.2800003000302,548.2800003000302,561.5502673999872,4.0,14.481836699997075,space,2.1961190999718383,,,,,,,,,,,,,,,,,,,,,,,,,,,,,,,,,,,,,,,,,,,,,,,,,,,,,,,,,,19,A,2023-12-11_16h14.17.291,gca_avoidance_task,2022.2.4,144.02767639466035,
positions.xlsx,stimuli.xlsx,stimuli/Social1.png,stimuli/Social2.png,stimuli/Nonsocial1.png,stimuli/Nonsocial2.png,cs_plus_s,,,,,,,0,0,0,0,0,1,1,0,,,,,,,,,,,,,,,,,,,,,,,,,,,,,,,,,,,,,,,,,,,,,,,,,,,,,,,563.7932792999782,563.7932792999782,569.1819591000094,9.0,5.378120200010017,space,1.0358972999965772,,,,,,,,,,,,,,,,,,,,,,,,,,,,,,,,,,,,,,,,,,,,,,,,,,,,,,,,,,19,A,2023-12-11_16h14.17.291,gca_avoidance_task,2022.2.4,144.02767639466035,
positions.xlsx,stimuli.xlsx,stimuli/Social1.png,stimuli/Social2.png,stimuli/Nonsocial1.png,stimuli/Nonsocial2.png,cs_minus_ns,,,,,,,0,0,0,0,0,2,2,3,,,,,,,,,,,,,,,,,,,,,,,,,,,,,,,,,,,,,,,,,,,,,,,,,,,,,,,570.2582950000069,570.2582950000069,575.7928003999987,5.0,5.524720999994315,space,0.6816701000207104,,,,,,,,,,,,,,,,,,,,,,,,,,,,,,,,,,,,,,,,,,,,,,,,,,,,,,,,,,19,A,2023-12-11_16h14.17.291,gca_avoidance_task,2022.2.4,144.02767639466035,
positions.xlsx,stimuli.xlsx,stimuli/Social1.png,stimuli/Social2.png,stimuli/Nonsocial1.png,stimuli/Nonsocial2.png,cs_minus_s,,,,,,,0,0,0,0,0,3,3,2,,,,,,,,,,,,,,,,,,,,,,,,,,,,,,,,,,,,,,,,,,,,,,,,,,,,,,,576.5080795999966,576.5080795999966,579.8481626000139,9.0,3.3305628999951296,space,1.4025427000015043,,,,,,,,,,,,,,,,,,,,,,,,,,,,,,,,,,,,,,,,,,,,,,,,,,,,,,,,,,19,A,2023-12-11_16h14.17.291,gca_avoidance_task,2022.2.4,144.02767639466035,
positions.xlsx,stimuli.xlsx,stimuli/Social1.png,stimuli/Social2.png,stimuli/Nonsocial1.png,stimuli/Nonsocial2.png,,"(-0.7, -0.5)",cs_minus_s,,,,,0,0,0,0,,,,,0,0,0,5,,,,,,,,,,,,,,,,,,,,,,,,,,,,,,,,,,,,,,,,,,,,,,,,,,,,,,,,,,581.2648101000232,581.2648101000232,space,27.98605999996653,611.3469180000247,613.0065709999762,610.847009900026,613.0065709999762,613.0065709999762,613.0065709999762,0.01442329998826608,0.020141899993177503,5,reward,1,[0.2849290000158362],[0.2849328999873251],613.3051486000186,613.3051486000186,0.02124780003214255,0.02124780003214255,0.0321121999877505,0.05291520000901073,0.05989740003133193,0.10154220002004877,0.10849589999997988,1.0181772999931127,616.7842120000278,621.2076617000275,,,,,,,,,,,,,,,,,,,,,,,,,,,,,19,A,2023-12-11_16h14.17.291,gca_avoidance_task,2022.2.4,144.02767639466035,
positions.xlsx,stimuli.xlsx,stimuli/Social1.png,stimuli/Social2.png,stimuli/Nonsocial1.png,stimuli/Nonsocial2.png,,"(0.7, 0.5)",cs_plus_s,,,,,0,0,0,0,,,,,0,1,1,2,,,,,,,,,,,,,,,,,,,,,,,,,,,,,,,,,,,,,,,,,,,,,,,,,,,,,,,,,,,,,,621.7145526999957,623.047868099995,621.2076617000275,623.047868099995,623.047868099995,623.047868099995,0.007045099977403879,0.01347220002207905,5,shock,1,[0.3337183999828994],[0.33372210001107305],623.3881245999946,623.3881245999946,0.012319200031924993,0.012319200031924993,0.018800400022882968,0.05341180000687018,0.06037230003857985,0.10206450003897771,0.10897560004377738,1.0118042000103742,626.8810636000126,630.9642152999877,,,,,,,,,,,,,,,,,,,,,,,,,,,,,19,A,2023-12-11_16h14.17.291,gca_avoidance_task,2022.2.4,144.02767639466035,
positions.xlsx,stimuli.xlsx,stimuli/Social1.png,stimuli/Social2.png,stimuli/Nonsocial1.png,stimuli/Nonsocial2.png,,"(-0.7, 0.5)",cs_minus_s,,,,,0,0,0,0,,,,,0,2,2,4,,,,,,,,,,,,,,,,,,,,,,,,,,,,,,,,,,,,,,,,,,,,,,,,,,,,,,,,,,,,,,631.4711054000072,632.8391108000069,630.9642152999877,632.8391108000069,632.8391108000069,632.8391108000069,0.007110800012014806,0.013215699989814311,10,reward,1,[0.34055379999335855],[0.3405578999663703],633.1863726000302,633.1863726000302,0.00725260004401207,0.00725260004401207,0.018218500015791506,0.05282660003285855,0.059865100018214434,0.10143260000040755,0.10838940000394359,1.0042044000001624,636.679322800017,641.1582814999856,,,,,,,,,,,,,,,,,,,,,,,,,,,,,19,A,2023-12-11_16h14.17.291,gca_avoidance_task,2022.2.4,144.02767639466035,
positions.xlsx,stimuli.xlsx,stimuli/Social1.png,stimuli/Social2.png,stimuli/Nonsocial1.png,stimuli/Nonsocial2.png,,"(0.7, -0.5)",cs_plus_s,,,,,0,0,0,0,,,,,0,3,3,3,,,,,,,,,,,,,,,,,,,,,,,,,,,,,,,,,,,,,,,,,,,,,,,,,,,,,,,,,,,,,,641.6651448000339,643.0817541999859,641.1582814999856,643.0817541999859,643.0817541999859,643.0817541999859,0.007555700023658574,0.013272000011056662,10,shock,1,[0.38916290004272014],[0.38916670001344755],643.4775536999805,643.4775536999805,0.007942299998831004,0.007942299998831004,0.017985899990890175,0.05266350001329556,0.05962279997766018,0.10129109997069463,0.10822279995772988,1.0040556999738328,646.9705634000129,650.9078934999998,,,,,,,,,,,,,,,,,,,,,,,,,,,,,19,A,2023-12-11_16h14.17.291,gca_avoidance_task,2022.2.4,144.02767639466035,
positions.xlsx,stimuli.xlsx,stimuli/Social1.png,stimuli/Social2.png,stimuli/Nonsocial1.png,stimuli/Nonsocial2.png,,"(-0.7, -0.5)",cs_plus_ns,,,,,0,0,0,0,,,,,0,4,4,9,,,,,,,,,,,,,,,,,,,,,,,,,,,,,,,,,,,,,,,,,,,,,,,,,,,,,,,,,,,,,,651.41476840002,652.5814041999984,650.9078934999998,652.5814041999984,652.5814041999984,652.5814041999984,0.007094700005836785,0.013113899971358478,10,shock,1,[0.2916835999931209],[0.2916873999638483],652.879976199998,652.879976199998,0.008207000035326928,0.008207000035326928,0.018565800040960312,0.053307400026824325,0.0602223000023514,0.10188269999343902,0.10882640001364052,1.0046287000295706,656.3729044999927,660.4283201000071,,,,,,,,,,,,,,,,,,,,,,,,,,,,,19,A,2023-12-11_16h14.17.291,gca_avoidance_task,2022.2.4,144.02767639466035,
positions.xlsx,stimuli.xlsx,stimuli/Social1.png,stimuli/Social2.png,stimuli/Nonsocial1.png,stimuli/Nonsocial2.png,,"(0.7, 0.5)",cs_minus_s,,,,,0,0,0,0,,,,,0,5,5,6,,,,,,,,,,,,,,,,,,,,,,,,,,,,,,,,,,,,,,,,,,,,,,,,,,,,,,,,,,,,,,660.9352330000256,662.4212714000023,660.4283201000071,662.4212714000023,662.4212714000023,662.4212714000023,0.006493800028692931,0.012982700020074844,15,reward,1,[0.38195660000201315],[0.38196039997274056],662.8101673999918,662.8101673999918,0.006763099983800203,0.006763099983800203,0.01827569998567924,0.052899999951478094,0.05983589997049421,0.10150389996124431,0.10843869997188449,1.0042262999922968,666.3031464000233,670.4279597999994,,,,,,,,,,,,,,,,,,,,,,,,,,,,,19,A,2023-12-11_16h14.17.291,gca_avoidance_task,2022.2.4,144.02767639466035,
positions.xlsx,stimuli.xlsx,stimuli/Social1.png,stimuli/Social2.png,stimuli/Nonsocial1.png,stimuli/Nonsocial2.png,,"(0.7, 0.5)",cs_plus_ns,,,,,0,0,0,0,,,,,0,6,6,10,,,,,,,,,,,,,,,,,,,,,,,,,,,,,,,,,,,,,,,,,,,,,,,,,,,,,,,,,,,,,,670.9348485000082,671.9972644000081,670.4279597999994,671.9972644000081,671.9972644000081,671.9972644000081,0.006885599985253066,0.013129199971444905,15,shock,1,[0.23654920002445579],[0.2365527999936603],672.2403629000182,672.2403629000182,0.008460399985779077,0.008460399985779077,0.018437599996104836,0.05310930003179237,0.060063600016292185,0.10168860002886504,0.10867260000668466,1.0044463999802247,675.7333197999978,679.8094711999875,,,,,,,,,,,,,,,,,,,,,,,,,,,,,19,A,2023-12-11_16h14.17.291,gca_avoidance_task,2022.2.4,144.02767639466035,
positions.xlsx,stimuli.xlsx,stimuli/Social1.png,stimuli/Social2.png,stimuli/Nonsocial1.png,stimuli/Nonsocial2.png,,"(-0.7, 0.5)",cs_plus_ns,,,,,0,0,0,0,,,,,0,7,7,8,,,,,,,,,,,,,,,,,,,,,,,,,,,,,,,,,,,,,,,,,,,,,,,,,,,,,,,,,,,,,,680.3163897999912,681.8857755999779,679.8094711999875,681.8857755999779,681.8857755999779,681.8857755999779,0.006949600006919354,0.013275700039230287,15,shock,1,[0.22943990002386272],[0.2294437000527978],682.1218958999962,682.1218958999962,0.008128600020427257,0.008128600020427257,0.018396800034679472,0.05308420001529157,0.06001370004378259,0.10168700001668185,0.10863420000532642,1.004498300026171,685.6148021999979,690.1077191000222,,,,,,,,,,,,,,,,,,,,,,,,,,,,,19,A,2023-12-11_16h14.17.291,gca_avoidance_task,2022.2.4,144.02767639466035,
positions.xlsx,stimuli.xlsx,stimuli/Social1.png,stimuli/Social2.png,stimuli/Nonsocial1.png,stimuli/Nonsocial2.png,,"(-0.7, 0.5)",cs_plus_s,,,,,0,0,0,0,,,,,0,8,8,0,,,,,,,,,,,,,,,,,,,,,,,,,,,,,,,,,,,,,,,,,,,,,,,,,,,,,,,,,,,,,,690.6146211000159,691.9756376000005,690.1077191000222,691.9756376000005,691.9756376000005,691.9756376000005,0.006793000036850572,0.013053700036834925,15,shock,1,[0.20144720003008842],[0.2014511000015773],692.1839936000179,692.1839936000179,0.00799020001431927,0.00799020001431927,0.01866390003124252,0.05332850001286715,0.060284200008027256,0.10194169997703284,0.1088776999968104,1.0047612999915145,695.6769009000272,699.6281873999978,,,,,,,,,,,,,,,,,,,,,,,,,,,,,19,A,2023-12-11_16h14.17.291,gca_avoidance_task,2022.2.4,144.02767639466035,
positions.xlsx,stimuli.xlsx,stimuli/Social1.png,stimuli/Social2.png,stimuli/Nonsocial1.png,stimuli/Nonsocial2.png,,"(0.7, -0.5)",cs_plus_ns,,,,,0,0,0,0,,,,,0,9,9,11,,,,,,,,,,,,,,,,,,,,,,,,,,,,,,,,,,,,,,,,,,,,,,,,,,,,,,,,,,,,,,700.135062300018,701.9405221000197,699.6281873999978,701.9405221000197,701.9405221000197,701.9405221000197,0.007135200023185462,0.013301400002092123,15,shock,1,[0.7849297000211664],[0.7922982000163756],702.7390982999932,702.7390982999932,0.009434500010684133,0.009434500010684133,0.018089800025336444,0.05277210002532229,0.059727100015152246,0.10134350002044812,0.10832380002830178,1.0040965999942273,706.2320399000309,710.1485890999902,,,,,,,,,,,,,,,,,,,,,,,,,,,,,19,A,2023-12-11_16h14.17.291,gca_avoidance_task,2022.2.4,144.02767639466035,
positions.xlsx,stimuli.xlsx,stimuli/Social1.png,stimuli/Social2.png,stimuli/Nonsocial1.png,stimuli/Nonsocial2.png,,"(0.7, -0.5)",cs_minus_ns,,,,,0,0,0,0,,,,,0,10,10,15,,,,,,,,,,,,,,,,,,,,,,,,,,,,,,,,,,,,,,,,,,,,,,,,,,,,,,,,,,,,,,710.6554471999989,711.7040437000105,710.1485890999902,711.7040437000105,711.7040437000105,711.7040437000105,0.007218600017949939,0.012980500003322959,20,reward,1,[0.36793549999129027],[0.3679543000180274],712.0859812999843,712.0859812999843,0.007797600002959371,0.007797600002959371,0.02548359998036176,0.05317470000591129,0.06011329998727888,0.10178749996703118,0.10877549997530878,1.0045655999565497,715.5719977000263,720.0371023000334,,,,,,,,,,,,,,,,,,,,,,,,,,,,,19,A,2023-12-11_16h14.17.291,gca_avoidance_task,2022.2.4,144.02767639466035,
positions.xlsx,stimuli.xlsx,stimuli/Social1.png,stimuli/Social2.png,stimuli/Nonsocial1.png,stimuli/Nonsocial2.png,,"(-0.7, -0.5)",cs_minus_ns,,,,,0,0,0,0,,,,,0,11,11,13,,,,,,,,,,,,,,,,,,,,,,,,,,,,,,,,,,,,,,,,,,,,,,,,,,,,,,,,,,,,,,720.5439485000097,722.3216361000086,720.0371023000334,722.3216361000086,722.3216361000086,722.3216361000086,0.007969199970830232,0.013165200012736022,25,reward,1,[0.27088010002626106],[0.270883799996227],722.5994251000229,722.5994251000229,0.007967099954839796,0.007967099954839796,0.018495499971322715,0.05317440000362694,0.06015899998601526,0.10175519995391369,0.10871279996354133,1.0045112999505363,726.0923715999816,730.4880332000321,,,,,,,,,,,,,,,,,,,,,,,,,,,,,19,A,2023-12-11_16h14.17.291,gca_avoidance_task,2022.2.4,144.02767639466035,
positions.xlsx,stimuli.xlsx,stimuli/Social1.png,stimuli/Social2.png,stimuli/Nonsocial1.png,stimuli/Nonsocial2.png,,"(0.7, 0.5)",cs_minus_ns,,,,,0,0,0,0,,,,,0,12,12,14,,,,,,,,,,,,,,,,,,,,,,,,,,,,,,,,,,,,,,,,,,,,,,,,,,,,,,,,,,,,,,730.9949852999998,732.2379276999854,730.4880332000321,732.2379276999854,732.2379276999854,732.2379276999854,0.007484600006137043,0.013496799976564944,30,reward,1,[0.26433560001896694],[0.26433939998969436],732.5087614000076,732.5087614000076,0.008386900008190423,0.008386900008190423,0.018475099990610033,0.0531671000062488,0.060100400005467236,0.10177120001753792,0.10867759998654947,1.0045406999997795,736.0017026999849,740.1265227000113,,,,,,,,,,,,,,,,,,,,,,,,,,,,,19,A,2023-12-11_16h14.17.291,gca_avoidance_task,2022.2.4,144.02767639466035,
positions.xlsx,stimuli.xlsx,stimuli/Social1.png,stimuli/Social2.png,stimuli/Nonsocial1.png,stimuli/Nonsocial2.png,,"(-0.7, 0.5)",cs_minus_ns,,,,,0,0,0,0,,,,,0,13,13,12,,,,,,,,,,,,,,,,,,,,,,,,,,,,,,,,,,,,,,,,,,,,,,,,,,,,,,,,,,,,,,740.6334406000096,742.1195328999893,740.1265227000113,742.1195328999893,742.1195328999893,742.1195328999893,0.007060700037982315,0.013038700039032847,35,reward,1,[0.20148470002459362],[0.2083081000018865],742.3347871000296,742.3347871000296,0.007610599976032972,0.007610599976032972,0.018522600003052503,0.05318079999415204,0.060099099995568395,0.10176970000611618,0.10872690001269802,1.0044754999689758,745.8276940999785,749.820608399983,,,,,,,,,,,,,,,,,,,,,,,,,,,,,19,A,2023-12-11_16h14.17.291,gca_avoidance_task,2022.2.4,144.02767639466035,
positions.xlsx,stimuli.xlsx,stimuli/Social1.png,stimuli/Social2.png,stimuli/Nonsocial1.png,stimuli/Nonsocial2.png,,"(0.7, -0.5)",cs_minus_s,,,,,0,0,0,0,,,,,0,14,14,7,,,,,,,,,,,,,,,,,,,,,,,,,,,,,,,,,,,,,,,,,,,,,,,,,,,,,,,,,,,,,,750.3274559000274,752.0149191999808,749.820608399983,752.0149191999808,752.0149191999808,752.0149191999808,0.005965999967884272,0.013088700012303889,40,reward,1,[0.29872550000436604],[0.29872929997509345],752.3204679000191,752.3204679000191,0.007076299982145429,0.007076299982145429,0.018349999969359487,0.05295410001417622,0.05996779998531565,0.10164969996549189,0.10854499996639788,1.0043531999690458,755.8134024000028,759.7230057999841,,,,,,,,,,,,,,,,,,,,,,,,,,,,,19,A,2023-12-11_16h14.17.291,gca_avoidance_task,2022.2.4,144.02767639466035,
positions.xlsx,stimuli.xlsx,stimuli/Social1.png,stimuli/Social2.png,stimuli/Nonsocial1.png,stimuli/Nonsocial2.png,,"(-0.7, -0.5)",cs_plus_s,,,,,0,0,0,0,,,,,0,15,15,1,,,,,,,,,,,,,,,,,,,,,,,,,,,,,,,,,,,,,,,,,,,,,,,,,,,,,,,,,,,,,,760.2299316999852,761.9798069000244,759.7230057999841,761.9798069000244,761.9798069000244,761.9798069000244,0.0059554000035859644,0.013253399985842407,40,shock,1,[0.34061729995300993],[0.34062099998118356],762.3270446999813,762.3270446999813,0.007496299978811294,0.007496299978811294,0.018336799985263497,0.05299840000225231,0.05992009997135028,0.1016179000143893,0.10856869997223839,1.0042792999884114,765.8199892999837,769.9100725000026,,,,,,,,,,,,,,,,,,,,,,,,,,,,,19,A,2023-12-11_16h14.17.291,gca_avoidance_task,2022.2.4,144.02767639466035,
positions.xlsx,stimuli.xlsx,stimuli/Social1.png,stimuli/Social2.png,stimuli/Nonsocial1.png,stimuli/Nonsocial2.png,,"(-0.7, 0.5)",cs_minus_s,,,,,0,0,0,0,,,,,1,0,16,4,,,,,,,,,,,,,,,,,,,,,,,,,,,,,,,,,,,,,,,,,,,,,,,,,,,,,,,,,,,,,,770.416976700013,771.4377727999818,769.9100725000026,771.4377727999818,771.4377727999818,771.4377727999818,0.006517400033771992,0.0133048000279814,45,reward,1,[0.22948570002336055],[0.22948949999408796],771.6738672999782,771.6738672999782,0.007450300035998225,0.007450300035998225,0.018192299990914762,0.05284920003032312,0.059780600015074015,0.10147380002308637,0.10842860001139343,1.0042080000275746,775.1668498999788,779.4930422999896,,,,,,,,,,,,,,,,,,,,,,,,,,,,,19,A,2023-12-11_16h14.17.291,gca_avoidance_task,2022.2.4,144.02767639466035,
positions.xlsx,stimuli.xlsx,stimuli/Social1.png,stimuli/Social2.png,stimuli/Nonsocial1.png,stimuli/Nonsocial2.png,,"(-0.7, 0.5)",cs_plus_s,,,,,0,0,0,0,,,,,1,1,17,0,,,,,,,,,,,,,,,,,,,,,,,,,,,,,,,,,,,,,,,,,,,,,,,,,,,,,,,,,,,,,,779.9999571000226,781.6040533999912,779.4930422999896,781.6040533999912,781.6040533999912,781.6040533999912,0.005826100008562207,0.013512899982742965,45,shock,1,[0.2088635999825783],[0.20886720000999048],781.8193180999951,781.8193180999951,0.007754300022497773,0.007754300022497773,0.018123700050637126,0.05282230000011623,0.05974430002970621,0.10137990000657737,0.10833380004623905,1.004128300002776,785.3122394999955,789.5135156000033,,,,,,,,,,,,,,,,,,,,,,,,,,,,,19,A,2023-12-11_16h14.17.291,gca_avoidance_task,2022.2.4,144.02767639466035,
positions.xlsx,stimuli.xlsx,stimuli/Social1.png,stimuli/Social2.png,stimuli/Nonsocial1.png,stimuli/Nonsocial2.png,,"(-0.7, -0.5)",cs_plus_ns,,,,,0,0,0,0,,,,,1,2,18,9,,,,,,,,,,,,,,,,,,,,,,,,,,,,,,,,,,,,,,,,,,,,,,,,,,,,,,,,,,,,,,790.0203553999891,791.1383676999831,789.5135156000033,791.1383676999831,791.1383676999831,791.1383676999831,0.007407700002659112,0.013160899979993701,45,shock,1,[0.2849333999911323],[0.28493699996033683],791.4300537999952,791.4300537999952,0.007929800020065159,0.007929800020065159,0.01833320001605898,0.05296040000393987,0.05993230000603944,0.10160090000135824,0.10854099999414757,1.004362499981653,794.9230032999767,799.1519806000288,,,,,,,,,,,,,,,,,,,,,,,,,,,,,19,A,2023-12-11_16h14.17.291,gca_avoidance_task,2022.2.4,144.02767639466035,
positions.xlsx,stimuli.xlsx,stimuli/Social1.png,stimuli/Social2.png,stimuli/Nonsocial1.png,stimuli/Nonsocial2.png,,"(0.7, -0.5)",cs_minus_s,,,,,0,0,0,0,,,,,1,3,19,7,,,,,,,,,,,,,,,,,,,,,,,,,,,,,,,,,,,,,,,,,,,,,,,,,,,,,,,,,,,,,,799.65885539999,800.9088183999993,799.1519806000288,800.9088183999993,800.9088183999993,800.9088183999993,0.007038199983071536,0.013192499987781048,50,reward,1,[0.36137779999990016],[0.361381699971389],801.2768454999896,801.2768454999896,0.007201100001111627,0.007201100001111627,0.018153699988033623,0.05288550001569092,0.05980930000077933,0.10144940001191571,0.10839289997238666,1.004191100015305,804.769832800026,808.9432599000284,,,,,,,,,,,,,,,,,,,,,,,,,,,,,19,A,2023-12-11_16h14.17.291,gca_avoidance_task,2022.2.4,144.02767639466035,
positions.xlsx,stimuli.xlsx,stimuli/Social1.png,stimuli/Social2.png,stimuli/Nonsocial1.png,stimuli/Nonsocial2.png,,"(0.7, 0.5)",cs_plus_s,,,,,0,0,0,0,,,,,1,4,20,2,,,,,,,,,,,,,,,,,,,,,,,,,,,,,,,,,,,,,,,,,,,,,,,,,,,,,,,,,,,,,,809.4501540000201,811.311169099994,808.9432599000284,811.311169099994,811.311169099994,811.311169099994,0.006239600013941526,0.013497899984940886,50,shock,1,[0.2853095000027679],[0.28531350003322586],811.6028462999966,811.6028462999966,0.0074569000280462205,0.0074569000280462205,0.018329999991692603,0.053061600017827004,0.06000060000224039,0.10164110001642257,0.1085865999921225,1.0043807000038214,815.0957878000336,818.6303717999835,,,,,,,,,,,,,,,,,,,,,,,,,,,,,19,A,2023-12-11_16h14.17.291,gca_avoidance_task,2022.2.4,144.02767639466035,
positions.xlsx,stimuli.xlsx,stimuli/Social1.png,stimuli/Social2.png,stimuli/Nonsocial1.png,stimuli/Nonsocial2.png,,"(0.7, 0.5)",cs_plus_ns,,,,,0,0,0,0,,,,,1,5,21,10,,,,,,,,,,,,,,,,,,,,,,,,,,,,,,,,,,,,,,,,,,,,,,,,,,,,,,,,,,,,,,819.1372442999855,820.5538715000148,818.6303717999835,820.5538715000148,820.5538715000148,820.5538715000148,0.007648600032553077,0.013092900044284761,50,shock,1,[0.25029630004428327],[0.25030040001729503],820.810802699998,820.810802699998,0.008619400032330304,0.008619400032330304,0.01848440000321716,0.053184600023087114,0.06020110001554713,0.10177310003200546,0.10875730001134798,1.0044905000249855,824.3037482000072,827.9563846000237,,,,,,,,,,,,,,,,,,,,,,,,,,,,,19,A,2023-12-11_16h14.17.291,gca_avoidance_task,2022.2.4,144.02767639466035,
positions.xlsx,stimuli.xlsx,stimuli/Social1.png,stimuli/Social2.png,stimuli/Nonsocial1.png,stimuli/Nonsocial2.png,,"(0.7, 0.5)",cs_minus_s,,,,,0,0,0,0,,,,,1,6,22,6,,,,,,,,,,,,,,,,,,,,,,,,,,,,,,,,,,,,,,,,,,,,,,,,,,,,,,,,,,,,,,828.4633112000301,830.0396143000107,827.9563846000237,830.0396143000107,830.0396143000107,830.0396143000107,0.006504200049676001,0.013019100006204098,55,reward,1,[0.263959200005047],[0.2639630000339821],830.3104357999982,830.3104357999982,0.007258800033014268,0.007258800033014268,0.017978200048673898,0.052656900021247566,0.05961250001564622,0.10127400001510978,0.10826680000172928,1.0040182000375353,833.8033667000127,837.8517874000245,,,,,,,,,,,,,,,,,,,,,,,,,,,,,19,A,2023-12-11_16h14.17.291,gca_avoidance_task,2022.2.4,144.02767639466035,
positions.xlsx,stimuli.xlsx,stimuli/Social1.png,stimuli/Social2.png,stimuli/Nonsocial1.png,stimuli/Nonsocial2.png,,"(-0.7, 0.5)",cs_plus_ns,,,,,0,0,0,0,,,,,1,7,23,8,,,,,,,,,,,,,,,,,,,,,,,,,,,,,,,,,,,,,,,,,,,,,,,,,,,,,,,,,,,,,,838.3587198000168,839.636438400019,837.8517874000245,839.636438400019,839.636438400019,839.636438400019,0.0069126999587751925,0.012691599957179278,55,shock,1,[0.27047879999736324],[0.27048259996809065],839.9141985999886,839.9141985999886,0.008418100012931973,0.008418100012931973,0.018507700006011873,0.05322120001073927,0.06018450000556186,0.1018043999793008,0.10876809997716919,1.004578299995046,843.4071353999898,847.2889313999913,,,,,,,,,,,,,,,,,,,,,,,,,,,,,19,A,2023-12-11_16h14.17.291,gca_avoidance_task,2022.2.4,144.02767639466035,
positions.xlsx,stimuli.xlsx,stimuli/Social1.png,stimuli/Social2.png,stimuli/Nonsocial1.png,stimuli/Nonsocial2.png,,"(-0.7, -0.5)",cs_minus_s,,,,,0,0,0,0,,,,,1,8,24,5,,,,,,,,,,,,,,,,,,,,,,,,,,,,,,,,,,,,,,,,,,,,,,,,,,,,,,,,,,,,,,847.7958492999896,849.6152069999953,847.2889313999913,849.6152069999953,849.6152069999953,849.6152069999953,0.006896300008520484,0.013377800001762807,60,reward,1,[0.2295233000186272],[0.22952719999011606],849.8513208000222,849.8513208000222,0.0076003000140190125,0.0076003000140190125,0.018467499990947545,0.05315250001149252,0.060118500026874244,0.10177830001339316,0.10876339999958873,1.004544600029476,853.3443005000008,857.5594103999902,,,,,,,,,,,,,,,,,,,,,,,,,,,,,19,A,2023-12-11_16h14.17.291,gca_avoidance_task,2022.2.4,144.02767639466035,
positions.xlsx,stimuli.xlsx,stimuli/Social1.png,stimuli/Social2.png,stimuli/Nonsocial1.png,stimuli/Nonsocial2.png,,"(-0.7, -0.5)",cs_minus_ns,,,,,0,0,0,0,,,,,1,9,25,13,,,,,,,,,,,,,,,,,,,,,,,,,,,,,,,,,,,,,,,,,,,,,,,,,,,,,,,,,,,,,,858.0662742999848,859.4828893999802,857.5594103999902,859.4828893999802,859.4828893999802,859.4828893999802,0.0067523999605327845,0.01329289999557659,65,reward,1,[0.3059101999970153],[0.3059139999677427],859.7953801000258,859.7953801000258,0.007641499978490174,0.007641499978490174,0.01844159996835515,0.05312619998585433,0.06009350001113489,0.10173140000551939,0.10866430000169203,1.0044850999838673,863.2882880999823,867.017333500029,,,,,,,,,,,,,,,,,,,,,,,,,,,,,19,A,2023-12-11_16h14.17.291,gca_avoidance_task,2022.2.4,144.02767639466035,
positions.xlsx,stimuli.xlsx,stimuli/Social1.png,stimuli/Social2.png,stimuli/Nonsocial1.png,stimuli/Nonsocial2.png,,"(0.7, -0.5)",cs_minus_ns,,,,,0,0,0,0,,,,,1,10,26,15,,,,,,,,,,,,,,,,,,,,,,,,,,,,,,,,,,,,,,,,,,,,,,,,,,,,,,,,,,,,,,867.5242610999849,868.8991852999898,867.017333500029,868.8991852999898,868.8991852999898,868.8991852999898,0.007396600034553558,0.013384099991526455,70,reward,1,[0.40341010002885014],[0.4034137999988161],869.3158339000074,869.3158339000074,0.007913800014648587,0.007913800014648587,0.025353700038976967,0.053078000026289374,0.06004529999336228,0.1017056000418961,0.10862140002427623,1.0044123000116087,872.8018379000132,876.8295041000238,,,,,,,,,,,,,,,,,,,,,,,,,,,,,19,A,2023-12-11_16h14.17.291,gca_avoidance_task,2022.2.4,144.02767639466035,
positions.xlsx,stimuli.xlsx,stimuli/Social1.png,stimuli/Social2.png,stimuli/Nonsocial1.png,stimuli/Nonsocial2.png,,"(-0.7, -0.5)",cs_plus_s,,,,,0,0,0,0,,,,,1,11,27,1,,,,,,,,,,,,,,,,,,,,,,,,,,,,,,,,,,,,,,,,,,,,,,,,,,,,,,,,,,,,,,877.336346200027,878.933461299981,876.8295041000238,878.933461299981,878.933461299981,878.933461299981,0.006534999993164092,0.013038599980063736,70,shock,1,[0.25007670000195503],[0.25008040003012866],879.1904275999987,879.1904275999987,0.007428099983371794,0.007428099983371794,0.018605399993248284,0.05332629999611527,0.060222000000067055,0.10187760001281276,0.1088525999803096,1.0046939000021666,882.6834092999925,886.8082216000184,,,,,,,,,,,,,,,,,,,,,,,,,,,,,19,A,2023-12-11_16h14.17.291,gca_avoidance_task,2022.2.4,144.02767639466035,
positions.xlsx,stimuli.xlsx,stimuli/Social1.png,stimuli/Social2.png,stimuli/Nonsocial1.png,stimuli/Nonsocial2.png,,"(-0.7, 0.5)",cs_minus_ns,,,,,0,0,0,0,,,,,1,12,28,12,,,,,,,,,,,,,,,,,,,,,,,,,,,,,,,,,,,,,,,,,,,,,,,,,,,,,,,,,,,,,,887.3150927000097,888.5650823999895,886.8082216000184,888.5650823999895,888.5650823999895,888.5650823999895,0.006883300025947392,0.013393300003372133,75,reward,1,[0.41701520001515746],[0.4242501999833621],888.9956131000072,888.9956131000072,0.0075823000515811145,0.0075823000515811145,0.018598299997393042,0.053248000040184706,0.060251799994148314,0.10184680001111701,0.1088041000184603,1.0046163000515662,892.488514000026,896.7036650999798,,,,,,,,,,,,,,,,,,,,,,,,,,,,,19,A,2023-12-11_16h14.17.291,gca_avoidance_task,2022.2.4,144.02767639466035,
positions.xlsx,stimuli.xlsx,stimuli/Social1.png,stimuli/Social2.png,stimuli/Nonsocial1.png,stimuli/Nonsocial2.png,,"(0.7, 0.5)",cs_minus_ns,,,,,0,0,0,0,,,,,1,13,29,14,,,,,,,,,,,,,,,,,,,,,,,,,,,,,,,,,,,,,,,,,,,,,,,,,,,,,,,,,,,,,,897.2105450999807,898.7868689000024,896.7036650999798,898.7868689000024,898.7868689000024,898.7868689000024,0.0069561999989673495,0.013226700015366077,80,reward,1,[0.2919730999856256],[0.2919770000153221],899.0855113000143,899.0855113000143,0.007896199997048825,0.007896199997048825,0.018504500039853156,0.05316290003247559,0.060134900035336614,0.10171730001457036,0.10876710002776235,1.0045311000430956,902.5784667999833,906.8352146000252,,,,,,,,,,,,,,,,,,,,,,,,,,,,,19,A,2023-12-11_16h14.17.291,gca_avoidance_task,2022.2.4,144.02767639466035,
positions.xlsx,stimuli.xlsx,stimuli/Social1.png,stimuli/Social2.png,stimuli/Nonsocial1.png,stimuli/Nonsocial2.png,,"(0.7, -0.5)",cs_plus_s,,,,,0,0,0,0,,,,,1,14,30,3,,,,,,,,,,,,,,,,,,,,,,,,,,,,,,,,,,,,,,,,,,,,,,,,,,,,,,,,,,,,,,907.3420809999807,909.0781225999817,906.8352146000252,909.0781225999817,909.0781225999817,909.0781225999817,0.006671499984804541,0.012734899995848536,80,shock,1,[0.3955544999917038],[0.3955582000198774],909.4808872999856,909.4808872999856,0.007418499968480319,0.007418499968480319,0.01827729999786243,0.0530428999918513,0.05996799998683855,0.10157259996049106,0.10854579997248948,1.0043674999615178,912.9738404999953,916.8903922000318,,,,,,,,,,,,,,,,,,,,,,,,,,,,,19,A,2023-12-11_16h14.17.291,gca_avoidance_task,2022.2.4,144.02767639466035,
positions.xlsx,stimuli.xlsx,stimuli/Social1.png,stimuli/Social2.png,stimuli/Nonsocial1.png,stimuli/Nonsocial2.png,,"(0.7, -0.5)",cs_plus_ns,,,,,0,0,0,0,,,,,1,15,31,11,,,,,,,,,,,,,,,,,,,,,,,,,,,,,,,,,,,,,,,,,,,,,,,,,,,,,,,,,,,,,,917.3972315000137,918.9736036999966,916.8903922000318,918.9736036999966,918.9736036999966,918.9736036999966,0.007076999987475574,0.013240000000223517,80,shock,1,[0.49314530001720414],[0.49314889998640865],919.473556699988,919.473556699988,0.008274100022390485,0.008274100022390485,0.01831549999769777,0.052941300033126026,0.059903500019572675,0.1015501000219956,0.10850840003695339,1.0042815000051633,922.9665329999989,926.5218825999764,,,,,,,,,,,,,,,,,,,,,,,,,,,,,19,A,2023-12-11_16h14.17.291,gca_avoidance_task,2022.2.4,144.02767639466035,
positions.xlsx,stimuli.xlsx,stimuli/Social1.png,stimuli/Social2.png,stimuli/Nonsocial1.png,stimuli/Nonsocial2.png,,"(0.7, -0.5)",cs_minus_ns,,,,,0,0,0,0,,,,,,,,,0,0,0,15,,,,,,,,,,,,,,,,,,,,,,,,,,,,,,,,,,,,,,,,,,,,,,,,,,,,,,,,,,957.5762197999866,958.5970185999759,957.0762728999835,958.5970185999759,958.5970185999759,958.5970185999759,0.007047099992632866,0.013025699998252094,85,reward,1,[0.5903480999986641],[0.5903518999693915],959.1942531000241,959.1942531000241,0.007741899986285716,0.007741899986285716,0.01839560002554208,0.05307199998060241,0.059984899999108166,0.10163920000195503,0.10858940001344308,1.004409699991811,962.6871363000246,967.0897642999771,926.5218825999764,926.5218825999764,926.5218825999764,926.5218825999764,space,28.63358059996972,,,,,,,,,,,,,,,,,,,,,,,19,A,2023-12-11_16h14.17.291,gca_avoidance_task,2022.2.4,144.02767639466035,
positions.xlsx,stimuli.xlsx,stimuli/Social1.png,stimuli/Social2.png,stimuli/Nonsocial1.png,stimuli/Nonsocial2.png,,"(-0.7, -0.5)",cs_minus_ns,,,,,0,0,0,0,,,,,,,,,0,1,1,13,,,,,,,,,,,,,,,,,,,,,,,,,,,,,,,,,,,,,,,,,,,,,,,,,,,,,,,,,,967.5966710000066,969.1105030000326,967.0897642999771,969.1105030000326,969.1105030000326,969.1105030000326,0.007334399968385696,0.013059599965345114,90,reward,1,[0.4793472000164911],[0.47935109998798],969.596632700006,969.596632700006,0.007992699975147843,0.007992699975147843,0.01874550001230091,0.05342239997116849,0.06040479999501258,0.10200660000555217,0.10894980002194643,1.004693299997598,973.0895945000229,977.3879699999816,,,,,,,,,,,,,,,,,,,,,,,,,,,,,19,A,2023-12-11_16h14.17.291,gca_avoidance_task,2022.2.4,144.02767639466035,
positions.xlsx,stimuli.xlsx,stimuli/Social1.png,stimuli/Social2.png,stimuli/Nonsocial1.png,stimuli/Nonsocial2.png,,"(-0.7, -0.5)",cs_plus_ns,,,,,0,0,0,0,,,,,,,,,0,2,2,9,,,,,,,,,,,,,,,,,,,,,,,,,,,,,,,,,,,,,,,,,,,,,,,,,,,,,,,,,,977.8948394000181,979.4573004000122,977.3879699999816,979.4573004000122,979.4573004000122,979.4573004000122,0.0076074000098742545,0.013191300036851317,90,shock,1,[0.20851870003389195],[0.20852230000309646],979.6725974000292,979.6725974000292,0.008196899958420545,0.008196899958420545,0.018666399992071092,0.05336849996820092,0.06028639996657148,0.10192569997161627,0.10888849996263161,1.004710300010629,983.1655896999873,987.262613800005,,,,,,,,,,,,,,,,,,,,,,,,,,,,,19,A,2023-12-11_16h14.17.291,gca_avoidance_task,2022.2.4,144.02767639466035,
positions.xlsx,stimuli.xlsx,stimuli/Social1.png,stimuli/Social2.png,stimuli/Nonsocial1.png,stimuli/Nonsocial2.png,,"(-0.7, -0.5)",cs_minus_s,,,,,0,0,0,0,,,,,,,,,0,3,3,5,,,,,,,,,,,,,,,,,,,,,,,,,,,,,,,,,,,,,,,,,,,,,,,,,,,,,,,,,,987.7695172000094,989.4499708000221,987.262613800005,989.4499708000221,989.4499708000221,989.4499708000221,0.006350100040435791,0.013345200044568628,95,reward,1,[0.3754831000114791],[0.37548730004346],989.8318822000292,989.8318822000292,0.007501700019929558,0.007501700019929558,0.018344599986448884,0.05306349997408688,0.060064999968744814,0.10167479998199269,0.10863390000304207,1.0044063000241295,993.3248862000182,996.9288903999841,,,,,,,,,,,,,,,,,,,,,,,,,,,,,19,A,2023-12-11_16h14.17.291,gca_avoidance_task,2022.2.4,144.02767639466035,
positions.xlsx,stimuli.xlsx,stimuli/Social1.png,stimuli/Social2.png,stimuli/Nonsocial1.png,stimuli/Nonsocial2.png,,"(-0.7, 0.5)",cs_minus_s,,,,,0,0,0,0,,,,,,,,,0,4,4,4,,,,,,,,,,,,,,,,,,,,,,,,,,,,,,,,,,,,,,,,,,,,,,,,,,,,,,,,,,997.4357904000208,998.8801763000083,996.9288903999841,998.8801763000083,998.8801763000083,998.8801763000083,0.007042600016575307,0.013095100002828985,100,reward,1,[0.4168245000182651],[0.4237779999966733],999.3107137000188,999.3107137000188,0.00727320002624765,0.00727320002624765,0.018217000004369766,0.05286619998514652,0.05983909999486059,0.10150230000726879,0.10841980000259355,1.0042693000286818,1002.8036687999847,1007.0326639999985,,,,,,,,,,,,,,,,,,,,,,,,,,,,,19,A,2023-12-11_16h14.17.291,gca_avoidance_task,2022.2.4,144.02767639466035,
positions.xlsx,stimuli.xlsx,stimuli/Social1.png,stimuli/Social2.png,stimuli/Nonsocial1.png,stimuli/Nonsocial2.png,,"(0.7, -0.5)",cs_plus_ns,,,,,0,0,0,0,,,,,,,,,0,5,5,11,,,,,,,,,,,,,,,,,,,,,,,,,,,,,,,,,,,,,,,,,,,,,,,,,,,,,,,,,,1007.539564799983,1009.3658778999816,1007.0326639999985,1009.3658778999816,1009.3658778999816,1009.3658778999816,0.007606699946336448,0.013529399991966784,100,none,0,,,1014.3795353000169,1014.3795353000169,0.019227899960242212,0.019227899960242212,0.027155199961271137,0.05491229996550828,0.06190749997040257,0.10354959999676794,0.1104975999915041,1.0132412999519147,1017.8656091000303,1022.0945491000311,,,,,,,,,,,,,,,,,,,,,,,,,,,,,19,A,2023-12-11_16h14.17.291,gca_avoidance_task,2022.2.4,144.02767639466035,
positions.xlsx,stimuli.xlsx,stimuli/Social1.png,stimuli/Social2.png,stimuli/Nonsocial1.png,stimuli/Nonsocial2.png,,"(0.7, 0.5)",cs_plus_ns,,,,,0,0,0,0,,,,,,,,,0,6,6,10,,,,,,,,,,,,,,,,,,,,,,,,,,,,,,,,,,,,,,,,,,,,,,,,,,,,,,,,,,1022.6014555000002,1023.7750347999972,1022.0945491000311,1023.7750347999972,1023.7750347999972,1023.7750347999972,0.007687599980272353,0.013120099960360676,100,none,0,,,1028.7817841999931,1028.7817841999931,0.015125999983865768,0.015125999983865768,0.019838400010485202,0.05452800000784919,0.06151179998414591,0.10312320000957698,0.11011089995736256,1.0128083999734372,1032.2747356999898,1036.5731617999845,,,,,,,,,,,,,,,,,,,,,,,,,,,,,19,A,2023-12-11_16h14.17.291,gca_avoidance_task,2022.2.4,144.02767639466035,
positions.xlsx,stimuli.xlsx,stimuli/Social1.png,stimuli/Social2.png,stimuli/Nonsocial1.png,stimuli/Nonsocial2.png,,"(-0.7, 0.5)",cs_plus_s,,,,,0,0,0,0,,,,,,,,,0,7,7,0,,,,,,,,,,,,,,,,,,,,,,,,,,,,,,,,,,,,,,,,,,,,,,,,,,,,,,,,,,1037.0800434999983,1038.8299868000322,1036.5731617999845,1038.8299868000322,1038.8299868000322,1038.8299868000322,0.006362300016917288,0.013381400029174984,100,shock,1,[1.0630282000056468],[1.0698534999974072],1039.906383100024,1039.906383100024,0.007405599986668676,0.007405599986668676,0.018235899973660707,0.05292539997026324,0.05987429997185245,0.10149199998704717,0.10842129995580763,1.0042427000007592,1043.3993134000339,1047.8088628000114,,,,,,,,,,,,,,,,,,,,,,,,,,,,,19,A,2023-12-11_16h14.17.291,gca_avoidance_task,2022.2.4,144.02767639466035,
positions.xlsx,stimuli.xlsx,stimuli/Social1.png,stimuli/Social2.png,stimuli/Nonsocial1.png,stimuli/Nonsocial2.png,,"(0.7, 0.5)",cs_minus_ns,,,,,0,0,0,0,,,,,,,,,0,8,8,14,,,,,,,,,,,,,,,,,,,,,,,,,,,,,,,,,,,,,,,,,,,,,,,,,,,,,,,,,,1048.3157142000273,1049.7045584000298,1047.8088628000114,1049.7045584000298,1049.7045584000298,1049.7045584000298,0.006733200047165155,0.01293600001372397,105,reward,1,[0.2707185000181198],[0.27072220004629344],1049.9823396999855,1049.9823396999855,0.008608800009824336,0.008608800009824336,0.018562000012025237,0.053239300032146275,0.06016680004540831,0.10180830000899732,0.10878310003317893,1.0045689000398852,1053.4752448999789,1057.1626784999971,,,,,,,,,,,,,,,,,,,,,,,,,,,,,19,A,2023-12-11_16h14.17.291,gca_avoidance_task,2022.2.4,144.02767639466035,
positions.xlsx,stimuli.xlsx,stimuli/Social1.png,stimuli/Social2.png,stimuli/Nonsocial1.png,stimuli/Nonsocial2.png,,"(0.7, 0.5)",cs_minus_s,,,,,0,0,0,0,,,,,,,,,0,9,9,6,,,,,,,,,,,,,,,,,,,,,,,,,,,,,,,,,,,,,,,,,,,,,,,,,,,,,,,,,,1057.6695196999935,1059.2666787999915,1057.1626784999971,1059.2666787999915,1059.2666787999915,1059.2666787999915,0.0065457000164315104,0.013410800020210445,110,reward,1,[0.4101754000294022],[0.4101793000008911],1059.68332489999,1059.68332489999,0.0076160000171512365,0.0076160000171512365,0.018472200026735663,0.0531421999912709,0.06008900003507733,0.101792800007388,0.10868320002919063,1.004547199991066,1063.176290399977,1067.3844673000276,,,,,,,,,,,,,,,,,,,,,,,,,,,,,19,A,2023-12-11_16h14.17.291,gca_avoidance_task,2022.2.4,144.02767639466035,
positions.xlsx,stimuli.xlsx,stimuli/Social1.png,stimuli/Social2.png,stimuli/Nonsocial1.png,stimuli/Nonsocial2.png,,"(0.7, -0.5)",cs_minus_s,,,,,0,0,0,0,,,,,,,,,0,10,10,7,,,,,,,,,,,,,,,,,,,,,,,,,,,,,,,,,,,,,,,,,,,,,,,,,,,,,,,,,,1067.8913372000097,1069.8426515000174,1067.3844673000276,1069.8426515000174,1069.8426515000174,1069.8426515000174,0.005957000015769154,0.013077000039629638,115,reward,1,[0.6391257999930531],[0.6391299000242725],1070.488477499981,1070.488477499981,0.007943499949760735,0.007943499949760735,0.01794819999486208,0.05260999995516613,0.059605599963106215,0.10123440000461414,0.10821839998243377,1.0040617999620736,1073.9814263000153,1078.0576711000176,,,,,,,,,,,,,,,,,,,,,,,,,,,,,19,A,2023-12-11_16h14.17.291,gca_avoidance_task,2022.2.4,144.02767639466035,
positions.xlsx,stimuli.xlsx,stimuli/Social1.png,stimuli/Social2.png,stimuli/Nonsocial1.png,stimuli/Nonsocial2.png,,"(0.7, -0.5)",cs_plus_s,,,,,0,0,0,0,,,,,,,,,0,11,11,3,,,,,,,,,,,,,,,,,,,,,,,,,,,,,,,,,,,,,,,,,,,,,,,,,,,,,,,,,,1078.5645240999875,1080.0714324000292,1078.0576711000176,1080.0714324000292,1080.0714324000292,1080.0714324000292,0.007496099977288395,0.013487399963196367,115,none,0,,,1085.0781909999787,1085.0781909999787,0.015068899956531823,0.015068899956531823,0.02023699996061623,0.0549176000058651,0.061865099996794015,0.1035291999578476,0.11051239998778328,1.0132376999827102,1088.5711458000005,1093.0570569999982,,,,,,,,,,,,,,,,,,,,,,,,,,,,,19,A,2023-12-11_16h14.17.291,gca_avoidance_task,2022.2.4,144.02767639466035,
positions.xlsx,stimuli.xlsx,stimuli/Social1.png,stimuli/Social2.png,stimuli/Nonsocial1.png,stimuli/Nonsocial2.png,,"(0.7, 0.5)",cs_plus_s,,,,,0,0,0,0,,,,,,,,,0,12,12,2,,,,,,,,,,,,,,,,,,,,,,,,,,,,,,,,,,,,,,,,,,,,,,,,,,,,,,,,,,1093.5639625000185,1094.8277956999955,1093.0570569999982,1094.8277956999955,1094.8277956999955,1094.8277956999955,0.007123299990780652,0.01311810000333935,115,none,0,,,1099.8346389000071,1099.8346389000071,0.014626999967731535,0.014626999967731535,0.019979899981990457,0.054486699984408915,0.06148639996536076,0.10316120000788942,0.11010389996226877,1.0128132000099868,1103.3274827999994,1107.757880499994,,,,,,,,,,,,,,,,,,,,,,,,,,,,,19,A,2023-12-11_16h14.17.291,gca_avoidance_task,2022.2.4,144.02767639466035,
positions.xlsx,stimuli.xlsx,stimuli/Social1.png,stimuli/Social2.png,stimuli/Nonsocial1.png,stimuli/Nonsocial2.png,,"(-0.7, -0.5)",cs_plus_s,,,,,0,0,0,0,,,,,,,,,0,13,13,1,,,,,,,,,,,,,,,,,,,,,,,,,,,,,,,,,,,,,,,,,,,,,,,,,,,,,,,,,,1108.2647410000209,1109.618888600031,1107.757880499994,1109.618888600031,1109.618888600031,1109.618888600031,0.007534699980169535,0.013074200018309057,115,none,0,,,1114.625606800022,1114.625606800022,0.014247699989937246,0.014247699989937246,0.019795500033069402,0.05454330000793561,0.06147910002619028,0.10313150001456961,0.11005070002283901,1.012807100021746,1118.1185419000103,1122.2434186000028,,,,,,,,,,,,,,,,,,,,,,,,,,,,,19,A,2023-12-11_16h14.17.291,gca_avoidance_task,2022.2.4,144.02767639466035,
positions.xlsx,stimuli.xlsx,stimuli/Social1.png,stimuli/Social2.png,stimuli/Nonsocial1.png,stimuli/Nonsocial2.png,,"(-0.7, 0.5)",cs_minus_ns,,,,,0,0,0,0,,,,,,,,,0,14,14,12,,,,,,,,,,,,,,,,,,,,,,,,,,,,,,,,,,,,,,,,,,,,,,,,,,,,,,,,,,1122.7503027999774,1123.9516252999892,1122.2434186000028,1123.9516252999892,1123.9516252999892,1123.9516252999892,0.007957499998155981,0.013107099977787584,120,reward,1,[0.7156270999694243],[0.7156310999998823],1124.680800799979,1124.680800799979,0.010106600006110966,0.010106600006110966,0.024929100007284433,0.05252019996987656,0.059613100020214915,0.10118709999369457,0.10817469999892637,1.0039069000049494,1128.166810100025,1131.9374638000154,,,,,,,,,,,,,,,,,,,,,,,,,,,,,19,A,2023-12-11_16h14.17.291,gca_avoidance_task,2022.2.4,144.02767639466035,
positions.xlsx,stimuli.xlsx,stimuli/Social1.png,stimuli/Social2.png,stimuli/Nonsocial1.png,stimuli/Nonsocial2.png,,"(-0.7, 0.5)",cs_plus_ns,,,,,0,0,0,0,,,,,,,,,0,15,15,8,,,,,,,,,,,,,,,,,,,,,,,,,,,,,,,,,,,,,,,,,,,,,,,,,,,,,,,,,,1132.44435960002,1134.0415406000102,1131.9374638000154,1134.0415406000102,1134.0415406000102,1134.0415406000102,0.006943099957425147,0.013167799974326044,120,none,0,,,1139.0552075000014,1139.0552075000014,0.014334200008306652,0.014334200008306652,0.026858999975956976,0.054560799966566265,0.06151129998033866,0.10317919997032732,0.11015899997437373,1.0129164999816567,1142.541243100015,1146.5271745999926,,,,,,,,,,,,,,,,,,,,,,,,,,,,,19,A,2023-12-11_16h14.17.291,gca_avoidance_task,2022.2.4,144.02767639466035,
positions.xlsx,stimuli.xlsx,stimuli/Social1.png,stimuli/Social2.png,stimuli/Nonsocial1.png,stimuli/Nonsocial2.png,,"(0.7, -0.5)",cs_plus_s,,,,,0,0,0,0,,,,,,,,,1,0,16,3,,,,,,,,,,,,,,,,,,,,,,,,,,,,,,,,,,,,,,,,,,,,,,,,,,,,,,,,,,1147.0340496000135,1149.027020599984,1146.5271745999926,1149.027020599984,1149.027020599984,1149.027020599984,0.006399799953214824,0.012686499976553023,120,shock,1,[0.6176561999600381],[0.6176597999874502],1149.6450779000297,1149.6450779000297,0.007340600015595555,0.007340600015595555,0.01194320002105087,0.05350490001728758,0.060519899998325855,0.10215089999837801,0.10913029999937862,1.00491299998248,1153.1449554000283,1157.332326499978,,,,,,,,,,,,,,,,,,,,,,,,,,,,,19,A,2023-12-11_16h14.17.291,gca_avoidance_task,2022.2.4,144.02767639466035,
positions.xlsx,stimuli.xlsx,stimuli/Social1.png,stimuli/Social2.png,stimuli/Nonsocial1.png,stimuli/Nonsocial2.png,,"(-0.7, 0.5)",cs_plus_s,,,,,0,0,0,0,,,,,,,,,1,1,17,0,,,,,,,,,,,,,,,,,,,,,,,,,,,,,,,,,,,,,,,,,,,,,,,,,,,,,,,,,,1157.8391622999916,1158.936389199982,1157.332326499978,1158.936389199982,1158.936389199982,1158.936389199982,0.006010000011883676,0.013021600025240332,120,none,0,,,1163.9430950999958,1163.9430950999958,0.014497300027869642,0.014497300027869642,0.019745900004636496,0.05439689999911934,0.06138989998726174,0.10301780002191663,0.10998900001868606,1.0127169000334106,1167.4360504000215,1171.498425800004,,,,,,,,,,,,,,,,,,,,,,,,,,,,,19,A,2023-12-11_16h14.17.291,gca_avoidance_task,2022.2.4,144.02767639466035,
positions.xlsx,stimuli.xlsx,stimuli/Social1.png,stimuli/Social2.png,stimuli/Nonsocial1.png,stimuli/Nonsocial2.png,,"(-0.7, 0.5)",cs_minus_s,,,,,0,0,0,0,,,,,,,,,1,2,18,4,,,,,,,,,,,,,,,,,,,,,,,,,,,,,,,,,,,,,,,,,,,,,,,,,,,,,,,,,,1172.005284200015,1173.1302599000046,1171.498425800004,1173.1302599000046,1173.1302599000046,1173.1302599000046,0.006596599996555597,0.013402000011410564,125,reward,1,[0.5838508000015281],[0.583854699973017],1173.7205338000203,1173.7205338000203,0.0074133999878540635,0.0074133999878540635,0.018682499998249114,0.053329499962273985,0.06029120000312105,0.10192929999902844,0.10891829995671287,1.0047195999650285,1177.2134311000118,1180.789726099989,,,,,,,,,,,,,,,,,,,,,,,,,,,,,19,A,2023-12-11_16h14.17.291,gca_avoidance_task,2022.2.4,144.02767639466035,
positions.xlsx,stimuli.xlsx,stimuli/Social1.png,stimuli/Social2.png,stimuli/Nonsocial1.png,stimuli/Nonsocial2.png,,"(0.7, 0.5)",cs_plus_ns,,,,,0,0,0,0,,,,,,,,,1,3,19,10,,,,,,,,,,,,,,,,,,,,,,,,,,,,,,,,,,,,,,,,,,,,,,,,,,,,,,,,,,1181.2965989999939,1182.3243281000177,1180.789726099989,1182.3243281000177,1182.3243281000177,1182.3243281000177,0.00696939998306334,0.013096799957565963,125,none,0,,,1187.338030599989,1187.338030599989,0.014615299995057285,0.014615299995057285,0.026809200004208833,0.054556399991270155,0.061482699995394796,0.10314239998115227,0.11017840000567958,1.0128824999555945,1190.8240413999883,1194.7891322000069,,,,,,,,,,,,,,,,,,,,,,,,,,,,,19,A,2023-12-11_16h14.17.291,gca_avoidance_task,2022.2.4,144.02767639466035,
positions.xlsx,stimuli.xlsx,stimuli/Social1.png,stimuli/Social2.png,stimuli/Nonsocial1.png,stimuli/Nonsocial2.png,,"(0.7, -0.5)",cs_minus_ns,,,,,0,0,0,0,,,,,,,,,1,4,20,15,,,,,,,,,,,,,,,,,,,,,,,,,,,,,,,,,,,,,,,,,,,,,,,,,,,,,,,,,,1195.2960971000139,1197.0390558000072,1194.7891322000069,1197.0390558000072,1197.0390558000072,1197.0390558000072,0.006850200006738305,0.013050800014752895,130,reward,1,[0.5903072999790311],[0.5903110000072047],1197.6362580999848,1197.6362580999848,0.007960199960507452,0.007960199960507452,0.01878969999961555,0.053357700002379715,0.060312399989925325,0.10197889996925369,0.10897969995858148,1.0047596999793313,1201.1291856000316,1204.7540467000217,,,,,,,,,,,,,,,,,,,,,,,,,,,,,19,A,2023-12-11_16h14.17.291,gca_avoidance_task,2022.2.4,144.02767639466035,
positions.xlsx,stimuli.xlsx,stimuli/Social1.png,stimuli/Social2.png,stimuli/Nonsocial1.png,stimuli/Nonsocial2.png,,"(0.7, -0.5)",cs_plus_ns,,,,,0,0,0,0,,,,,,,,,1,5,21,11,,,,,,,,,,,,,,,,,,,,,,,,,,,,,,,,,,,,,,,,,,,,,,,,,,,,,,,,,,1205.2609206999769,1206.4484096000087,1204.7540467000217,1206.4484096000087,1206.4484096000087,1206.4484096000087,0.00682579999556765,0.013059300021268427,130,none,0,,,1211.4551477999776,1211.4551477999776,0.013697799993678927,0.013697799993678927,0.019803899980615824,0.05453010002383962,0.061447200016118586,0.10310110001591966,0.11007150000659749,1.0128075000247918,1214.9480751000228,1219.4409383999882,,,,,,,,,,,,,,,,,,,,,,,,,,,,,19,A,2023-12-11_16h14.17.291,gca_avoidance_task,2022.2.4,144.02767639466035,
positions.xlsx,stimuli.xlsx,stimuli/Social1.png,stimuli/Social2.png,stimuli/Nonsocial1.png,stimuli/Nonsocial2.png,,"(-0.7, 0.5)",cs_plus_ns,,,,,0,0,0,0,,,,,,,,,1,6,22,8,,,,,,,,,,,,,,,,,,,,,,,,,,,,,,,,,,,,,,,,,,,,,,,,,,,,,,,,,,1219.9478660000023,1221.3783717000042,1219.4409383999882,1221.3783717000042,1221.3783717000042,1221.3783717000042,0.007585500017739832,0.013070099987089634,130,none,0,,,1226.392054099997,1226.392054099997,0.01583109999774024,0.01583109999774024,0.026724199997261167,0.05446950002806261,0.06141279998701066,0.10304760001599789,0.10999680001987144,1.0127530000172555,1229.8780613000272,1234.12789589999,,,,,,,,,,,,,,,,,,,,,,,,,,,,,19,A,2023-12-11_16h14.17.291,gca_avoidance_task,2022.2.4,144.02767639466035,
positions.xlsx,stimuli.xlsx,stimuli/Social1.png,stimuli/Social2.png,stimuli/Nonsocial1.png,stimuli/Nonsocial2.png,,"(-0.7, -0.5)",cs_plus_s,,,,,0,0,0,0,,,,,,,,,1,7,23,1,,,,,,,,,,,,,,,,,,,,,,,,,,,,,,,,,,,,,,,,,,,,,,,,,,,,,,,,,,1234.6347988999914,1235.9819467000198,1234.12789589999,1235.9819467000198,1235.9819467000198,1235.9819467000198,0.007017199997790158,0.013401800009887666,130,none,0,,,1240.9887132000295,1240.9887132000295,0.014569599996320903,0.014569599996320903,0.020163499983027577,0.05483229999663308,0.061843000003136694,0.10347750002983958,0.11041660001501441,1.0131857999949716,1244.4816669999855,1248.0787124999915,,,,,,,,,,,,,,,,,,,,,,,,,,,,,19,A,2023-12-11_16h14.17.291,gca_avoidance_task,2022.2.4,144.02767639466035,
positions.xlsx,stimuli.xlsx,stimuli/Social1.png,stimuli/Social2.png,stimuli/Nonsocial1.png,stimuli/Nonsocial2.png,,"(0.7, 0.5)",cs_minus_ns,,,,,0,0,0,0,,,,,,,,,1,8,24,14,,,,,,,,,,,,,,,,,,,,,,,,,,,,,,,,,,,,,,,,,,,,,,,,,,,,,,,,,,1248.5856312999967,1249.8911185000325,1248.0787124999915,1249.8911185000325,1249.8911185000325,1249.8911185000325,0.007199199986644089,0.013170799997169524,135,reward,1,[0.5418663999880664],[0.5418704000185244],1250.4397285000305,1250.4397285000305,0.008421900041867048,0.008421900041867048,0.018753000011201948,0.053288400056771934,0.06022550002671778,0.10187980002956465,0.10884950001491234,1.0046477000578307,1253.9326627000119,1257.6200545000029,,,,,,,,,,,,,,,,,,,,,,,,,,,,,19,A,2023-12-11_16h14.17.291,gca_avoidance_task,2022.2.4,144.02767639466035,
positions.xlsx,stimuli.xlsx,stimuli/Social1.png,stimuli/Social2.png,stimuli/Nonsocial1.png,stimuli/Nonsocial2.png,,"(-0.7, 0.5)",cs_minus_ns,,,,,0,0,0,0,,,,,,,,,1,9,25,12,,,,,,,,,,,,,,,,,,,,,,,,,,,,,,,,,,,,,,,,,,,,,,,,,,,,,,,,,,1258.1269087999826,1259.6615839999868,1257.6200545000029,1259.6615839999868,1259.6615839999868,1259.6615839999868,0.006267799995839596,0.013161599985323846,140,reward,1,[0.19459379999898374],[0.19459739996818826],1259.862949399976,1259.862949399976,0.007730600016657263,0.007730600016657263,0.018464599968865514,0.05316179996589199,0.060152199992444366,0.10176079999655485,0.10871389997191727,1.0045420000096783,1263.3559033999918,1267.612732300011,,,,,,,,,,,,,,,,,,,,,,,,,,,,,19,A,2023-12-11_16h14.17.291,gca_avoidance_task,2022.2.4,144.02767639466035,
positions.xlsx,stimuli.xlsx,stimuli/Social1.png,stimuli/Social2.png,stimuli/Nonsocial1.png,stimuli/Nonsocial2.png,,"(0.7, 0.5)",cs_minus_s,,,,,0,0,0,0,,,,,,,,,1,10,26,6,,,,,,,,,,,,,,,,,,,,,,,,,,,,,,,,,,,,,,,,,,,,,,,,,,,,,,,,,,1268.1196480999934,1269.2584121000255,1267.612732300011,1269.2584121000255,1269.2584121000255,1269.2584121000255,0.006326699978671968,0.01328249997459352,145,reward,1,[0.22945769998477772],[0.22946180001599714],1269.494557500002,1269.494557500002,0.007388300029560924,0.007388300029560924,0.018534200033172965,0.053228900011163205,0.060171600023750216,0.10182530002202839,0.10875080002006143,1.0045270000118762,1272.9874445000314,1276.6123362000217,,,,,,,,,,,,,,,,,,,,,,,,,,,,,19,A,2023-12-11_16h14.17.291,gca_avoidance_task,2022.2.4,144.02767639466035,
positions.xlsx,stimuli.xlsx,stimuli/Social1.png,stimuli/Social2.png,stimuli/Nonsocial1.png,stimuli/Nonsocial2.png,,"(-0.7, -0.5)",cs_minus_ns,,,,,0,0,0,0,,,,,,,,,1,11,27,13,,,,,,,,,,,,,,,,,,,,,,,,,,,,,,,,,,,,,,,,,,,,,,,,,,,,,,,,,,1277.1192356999964,1278.7649906000006,1276.6123362000217,1278.7649906000006,1278.7649906000006,1278.7649906000006,0.00647760002175346,0.0131744000245817,150,reward,1,[0.3474978000158444],[0.34750149998581037],1279.1191581999883,1279.1191581999883,0.007712899998296052,0.007712899998296052,0.018052600033115596,0.05271499999798834,0.059695900010410696,0.10133789997780696,0.10827000002609566,1.0040501999901608,1282.6121219000197,1286.7369578999933,,,,,,,,,,,,,,,,,,,,,,,,,,,,,19,A,2023-12-11_16h14.17.291,gca_avoidance_task,2022.2.4,144.02767639466035,
positions.xlsx,stimuli.xlsx,stimuli/Social1.png,stimuli/Social2.png,stimuli/Nonsocial1.png,stimuli/Nonsocial2.png,,"(0.7, 0.5)",cs_plus_s,,,,,0,0,0,0,,,,,,,,,1,12,28,2,,,,,,,,,,,,,,,,,,,,,,,,,,,,,,,,,,,,,,,,,,,,,,,,,,,,,,,,,,1287.2437954000197,1288.632657499984,1286.7369578999933,1288.632657499984,1288.632657499984,1288.632657499984,0.0062141999951563776,0.012828500010073185,150,shock,1,[0.3609751000185497],[0.3609785999869928],1289.0007276000106,1289.0007276000106,0.007325600017793477,0.007325600017793477,0.018569300009403378,0.05323580000549555,0.06018440000480041,0.10183520003920421,0.1087979000294581,1.0045982000301592,1292.4936311999918,1296.312934799993,,,,,,,,,,,,,,,,,,,,,,,,,,,,,19,A,2023-12-11_16h14.17.291,gca_avoidance_task,2022.2.4,144.02767639466035,
positions.xlsx,stimuli.xlsx,stimuli/Social1.png,stimuli/Social2.png,stimuli/Nonsocial1.png,stimuli/Nonsocial2.png,,"(0.7, -0.5)",cs_minus_s,,,,,0,0,0,0,,,,,,,,,1,13,29,7,,,,,,,,,,,,,,,,,,,,,,,,,,,,,,,,,,,,,,,,,,,,,,,,,,,,,,,,,,1296.8198560000164,1297.9447973999777,1296.312934799993,1297.9447973999777,1297.9447973999777,1297.9447973999777,0.006834500003606081,0.013267099973745644,155,reward,1,[0.4862975999712944],[0.4863014000002295],1298.4378492999822,1298.4378492999822,0.007978000037837774,0.007978000037837774,0.01824170001782477,0.05292929999995977,0.05991190002532676,0.10155210003722459,0.10847079998347908,1.0042688000248745,1301.9307824000134,1305.8889400000335,,,,,,,,,,,,,,,,,,,,,,,,,,,,,19,A,2023-12-11_16h14.17.291,gca_avoidance_task,2022.2.4,144.02767639466035,
positions.xlsx,stimuli.xlsx,stimuli/Social1.png,stimuli/Social2.png,stimuli/Nonsocial1.png,stimuli/Nonsocial2.png,,"(-0.7, -0.5)",cs_plus_ns,,,,,0,0,0,0,,,,,,,,,1,14,30,9,,,,,,,,,,,,,,,,,,,,,,,,,,,,,,,,,,,,,,,,,,,,,,,,,,,,,,,,,,1306.3958240000065,1308.256901899993,1305.8889400000335,1308.256901899993,1308.256901899993,1308.256901899993,0.006673500000033528,0.013268399983644485,155,none,0,,,1313.2636154000065,1313.2636154000065,0.01449599995976314,0.01449599995976314,0.020027599995955825,0.05471870000474155,0.06168539996724576,0.10332920000655577,0.11025949998293072,1.0130153999780305,1316.7565827000071,1321.096698599984,,,,,,,,,,,,,,,,,,,,,,,,,,,,,19,A,2023-12-11_16h14.17.291,gca_avoidance_task,2022.2.4,144.02767639466035,
positions.xlsx,stimuli.xlsx,stimuli/Social1.png,stimuli/Social2.png,stimuli/Nonsocial1.png,stimuli/Nonsocial2.png,,"(-0.7, -0.5)",cs_minus_s,,,,,0,0,0,0,,,,,,,,,1,15,31,5,,,,,,,,,,,,,,,,,,,,,,,,,,,,,,,,,,,,,,,,,,,,,,,,,,,,,,,,,,1321.603581000003,1322.846624800004,1321.096698599984,1322.846624800004,1322.846624800004,1322.846624800004,0.006129400047939271,0.013412400032393634,160,reward,1,[0.4100827000220306],[0.41008649999275804],1323.263309700007,1323.263309700007,0.007391899998765439,0.007391899998765439,0.018781799997668713,0.053470600047148764,0.06040920002851635,0.1020657000481151,0.10900840000249445,1.00473610003246,1326.7561687999987,1330.4366171000293,,,,,,,,,,,,,,,,,,,,,,,,,,,,,19,A,2023-12-11_16h14.17.291,gca_avoidance_task,2022.2.4,144.02767639466035,
positions.xlsx,stimuli.xlsx,stimuli/Social1.png,stimuli/Social2.png,stimuli/Nonsocial1.png,stimuli/Nonsocial2.png,,"(-0.7, -0.5)",cs_plus_ns,,,,,0,0,0,0,,,,,,,,,2,0,32,9,,,,,,,,,,,,,,,,,,,,,,,,,,,,,,,,,,,,,,,,,,,,,,,,,,,,,,,,,,1330.9434972000308,1332.8878654,1330.4366171000293,1332.8878654,1332.8878654,1332.8878654,0.006486099970061332,0.012951000011526048,160,shock,1,[0.17349959997227415],[0.17350330000044778],1333.0684037000174,1333.0684037000174,0.0076793000334873796,0.0076793000334873796,0.01852020004298538,0.053175500012002885,0.060184800007846206,0.10178230004385114,0.10876540001481771,1.0045091000501998,1336.561361400003,1340.1931575000053,,,,,,,,,,,,,,,,,,,,,,,,,,,,,19,A,2023-12-11_16h14.17.291,gca_avoidance_task,2022.2.4,144.02767639466035,
positions.xlsx,stimuli.xlsx,stimuli/Social1.png,stimuli/Social2.png,stimuli/Nonsocial1.png,stimuli/Nonsocial2.png,,"(-0.7, -0.5)",cs_minus_ns,,,,,0,0,0,0,,,,,,,,,2,1,33,13,,,,,,,,,,,,,,,,,,,,,,,,,,,,,,,,,,,,,,,,,,,,,,,,,,,,,,,,,,1340.7000510999933,1342.4430791999912,1340.1931575000053,1342.4430791999912,1342.4430791999912,1342.4430791999912,0.00621680001495406,0.013150100014172494,165,reward,1,[0.5419591999961995],[0.541963100025896],1342.991641599976,1342.991641599976,0.007637500006239861,0.007637500006239861,0.018093899998348206,0.0527338000247255,0.059721500030718744,0.10137889999896288,0.10835320001933724,1.0040931000257842,1346.484620400006,1350.9774753000238,,,,,,,,,,,,,,,,,,,,,,,,,,,,,19,A,2023-12-11_16h14.17.291,gca_avoidance_task,2022.2.4,144.02767639466035,
positions.xlsx,stimuli.xlsx,stimuli/Social1.png,stimuli/Social2.png,stimuli/Nonsocial1.png,stimuli/Nonsocial2.png,,"(-0.7, 0.5)",cs_minus_s,,,,,0,0,0,0,,,,,,,,,2,2,34,4,,,,,,,,,,,,,,,,,,,,,,,,,,,,,,,,,,,,,,,,,,,,,,,,,,,,,,,,,,1351.4843695000163,1353.4564711999847,1350.9774753000238,1353.4564711999847,1353.4564711999847,1353.4564711999847,0.006261100003030151,0.013258700026199222,170,reward,1,[0.18794309999793768],[0.18794690002687275],1353.6509318000171,1353.6509318000171,0.007498100050725043,0.007498100050725043,0.01820000004954636,0.05288030003430322,0.05983420001575723,0.10149060003459454,0.10841260000597686,1.0042286000098102,1357.143881099997,1361.372880799987,,,,,,,,,,,,,,,,,,,,,,,,,,,,,19,A,2023-12-11_16h14.17.291,gca_avoidance_task,2022.2.4,144.02767639466035,
positions.xlsx,stimuli.xlsx,stimuli/Social1.png,stimuli/Social2.png,stimuli/Nonsocial1.png,stimuli/Nonsocial2.png,,"(0.7, -0.5)",cs_plus_s,,,,,0,0,0,0,,,,,,,,,2,3,35,3,,,,,,,,,,,,,,,,,,,,,,,,,,,,,,,,,,,,,,,,,,,,,,,,,,,,,,,,,,1361.8797765999916,1363.6713709000032,1361.372880799987,1363.6713709000032,1363.6713709000032,1363.6713709000032,0.006055600009858608,0.013021700026001781,170,shock,1,[0.2987589000258595],[0.2987628999981098],1363.976939300017,1363.976939300017,0.007781099993735552,0.007781099993735552,0.01853349996963516,0.05320159997791052,0.06016079999972135,0.1018282999866642,0.10880309995263815,1.0045550999930128,1367.4698763000197,1371.1016987999901,,,,,,,,,,,,,,,,,,,,,,,,,,,,,19,A,2023-12-11_16h14.17.291,gca_avoidance_task,2022.2.4,144.02767639466035,
positions.xlsx,stimuli.xlsx,stimuli/Social1.png,stimuli/Social2.png,stimuli/Nonsocial1.png,stimuli/Nonsocial2.png,,"(-0.7, -0.5)",cs_minus_s,,,,,0,0,0,0,,,,,,,,,2,4,36,5,,,,,,,,,,,,,,,,,,,,,,,,,,,,,,,,,,,,,,,,,,,,,,,,,,,,,,,,,,1371.6085951999994,1373.184880500019,1371.1016987999901,1373.184880500019,1373.184880500019,1373.184880500019,0.006092499999795109,0.01311070000519976,175,reward,1,[0.3681470000301488],[0.3681510000023991],1373.5598746000323,1373.5598746000323,0.007329700049012899,0.007329700049012899,0.018762400024570525,0.05343560001347214,0.06039769999915734,0.10205070005031303,0.1090280000353232,1.004797400033567,1377.0528308000066,1381.2124155000201,,,,,,,,,,,,,,,,,,,,,,,,,,,,,19,A,2023-12-11_16h14.17.291,gca_avoidance_task,2022.2.4,144.02767639466035,
positions.xlsx,stimuli.xlsx,stimuli/Social1.png,stimuli/Social2.png,stimuli/Nonsocial1.png,stimuli/Nonsocial2.png,,"(-0.7, 0.5)",cs_plus_s,,,,,0,0,0,0,,,,,,,,,2,5,37,0,,,,,,,,,,,,,,,,,,,,,,,,,,,,,,,,,,,,,,,,,,,,,,,,,,,,,,,,,,1381.7192611999926,1382.837297799997,1381.2124155000201,1382.837297799997,1382.837297799997,1382.837297799997,0.005780500010587275,0.013428499980363995,175,none,0,,,1387.8440233999863,1387.8440233999863,0.014273500011768192,0.014273500011768192,0.020183100015856326,0.054890999977942556,0.06180389999644831,0.1034924000268802,0.11045099998591468,1.0131698999903165,1391.337002300017,1394.8785533999908,,,,,,,,,,,,,,,,,,,,,,,,,,,,,19,A,2023-12-11_16h14.17.291,gca_avoidance_task,2022.2.4,144.02767639466035,
positions.xlsx,stimuli.xlsx,stimuli/Social1.png,stimuli/Social2.png,stimuli/Nonsocial1.png,stimuli/Nonsocial2.png,,"(-0.7, 0.5)",cs_minus_ns,,,,,0,0,0,0,,,,,,,,,2,6,38,12,,,,,,,,,,,,,,,,,,,,,,,,,,,,,,,,,,,,,,,,,,,,,,,,,,,,,,,,,,1395.3854017999838,1396.4617560000042,1394.8785533999908,1396.4617560000042,1396.4617560000042,1396.4617560000042,0.006616000027861446,0.013412700034677982,180,reward,1,[0.6045864000334404],[0.604590000002645],1397.0728787999833,1397.0728787999833,0.00843769998755306,0.00843769998755306,0.01866679999511689,0.05331109999679029,0.060282999998889863,0.10186880000401288,0.10883280000416562,1.0046408000052907,1400.565814200032,1404.5864967000089,,,,,,,,,,,,,,,,,,,,,,,,,,,,,19,A,2023-12-11_16h14.17.291,gca_avoidance_task,2022.2.4,144.02767639466035,
positions.xlsx,stimuli.xlsx,stimuli/Social1.png,stimuli/Social2.png,stimuli/Nonsocial1.png,stimuli/Nonsocial2.png,,"(0.7, -0.5)",cs_minus_s,,,,,0,0,0,0,,,,,,,,,2,7,39,7,,,,,,,,,,,,,,,,,,,,,,,,,,,,,,,,,,,,,,,,,,,,,,,,,,,,,,,,,,1405.0933674999978,1406.7738321999786,1404.5864967000089,1406.7738321999786,1406.7738321999786,1406.7738321999786,0.006553499959409237,0.013487099960912019,185,reward,1,[0.6185257000033744],[0.6185293999733403],1407.3989030999946,1407.3989030999946,0.007327399973291904,0.007327399973291904,0.018236399977467954,0.052825599967036396,0.05979169998317957,0.10140519996639341,0.10835349996341392,1.0041184999863617,1410.8918106000056,1414.8499375000247,,,,,,,,,,,,,,,,,,,,,,,,,,,,,19,A,2023-12-11_16h14.17.291,gca_avoidance_task,2022.2.4,144.02767639466035,
positions.xlsx,stimuli.xlsx,stimuli/Social1.png,stimuli/Social2.png,stimuli/Nonsocial1.png,stimuli/Nonsocial2.png,,"(0.7, 0.5)",cs_plus_s,,,,,0,0,0,0,,,,,,,,,2,8,40,2,,,,,,,,,,,,,,,,,,,,,,,,,,,,,,,,,,,,,,,,,,,,,,,,,,,,,,,,,,1415.356856700033,1417.2387245999998,1414.8499375000247,1417.2387245999998,1417.2387245999998,1417.2387245999998,0.006831799983046949,0.013084499980323017,185,none,0,,,1422.2454699000227,1422.2454699000227,0.013324600004125386,0.013324600004125386,0.019864500034600496,0.05450790002942085,0.06148780003422871,0.10308989998884499,0.11009510001167655,1.0127925000269897,1425.738376400026,1429.9049355000025,,,,,,,,,,,,,,,,,,,,,,,,,,,,,19,A,2023-12-11_16h14.17.291,gca_avoidance_task,2022.2.4,144.02767639466035,
positions.xlsx,stimuli.xlsx,stimuli/Social1.png,stimuli/Social2.png,stimuli/Nonsocial1.png,stimuli/Nonsocial2.png,,"(0.7, 0.5)",cs_plus_ns,,,,,0,0,0,0,,,,,,,,,2,9,41,10,,,,,,,,,,,,,,,,,,,,,,,,,,,,,,,,,,,,,,,,,,,,,,,,,,,,,,,,,,1430.4118014000123,1432.245073899976,1429.9049355000025,1432.245073899976,1432.245073899976,1432.245073899976,0.006905200018081814,0.013184600044041872,185,none,0,,,1437.25180800003,1437.25180800003,0.014087999996263534,0.014087999996263534,0.01988170004915446,0.054586200043559074,0.061554200015962124,0.10321060003479943,0.11015150003368035,1.0128871000488289,1440.7447934999946,1444.8071029999992,,,,,,,,,,,,,,,,,,,,,,,,,,,,,19,A,2023-12-11_16h14.17.291,gca_avoidance_task,2022.2.4,144.02767639466035,
positions.xlsx,stimuli.xlsx,stimuli/Social1.png,stimuli/Social2.png,stimuli/Nonsocial1.png,stimuli/Nonsocial2.png,,"(0.7, 0.5)",cs_minus_s,,,,,0,0,0,0,,,,,,,,,2,10,42,6,,,,,,,,,,,,,,,,,,,,,,,,,,,,,,,,,,,,,,,,,,,,,,,,,,,,,,,,,,1445.314022400009,1446.5431040999829,1444.8071029999992,1446.5431040999829,1446.5431040999829,1446.5431040999829,0.006972200004383922,0.013505999988410622,190,reward,1,[0.757597399991937],[0.7576014999649487],1447.3069791999878,1447.3069791999878,0.008116699988022447,0.008116699988022447,0.018677599960938096,0.05328449996886775,0.06030119996285066,0.1019275999860838,0.10888029995840043,1.0046463999897242,1450.7999826000305,1454.8900840000133,,,,,,,,,,,,,,,,,,,,,,,,,,,,,19,A,2023-12-11_16h14.17.291,gca_avoidance_task,2022.2.4,144.02767639466035,
positions.xlsx,stimuli.xlsx,stimuli/Social1.png,stimuli/Social2.png,stimuli/Nonsocial1.png,stimuli/Nonsocial2.png,,"(-0.7, -0.5)",cs_plus_s,,,,,0,0,0,0,,,,,,,,,2,11,43,1,,,,,,,,,,,,,,,,,,,,,,,,,,,,,,,,,,,,,,,,,,,,,,,,,,,,,,,,,,1455.3969643000164,1457.1121434000088,1454.8900840000133,1457.1121434000088,1457.1121434000088,1457.1121434000088,0.006697300006635487,0.013040599995292723,190,shock,1,[0.5421834999579005],[0.5421876999898814],1457.6607547000167,1457.6607547000167,0.007596799987368286,0.007596799987368286,0.018225399951916188,0.052907400007825345,0.059851599973626435,0.1014809999614954,0.10846949997358024,1.0042728999978863,1461.1536707999767,1465.2438520999858,,,,,,,,,,,,,,,,,,,,,,,,,,,,,19,A,2023-12-11_16h14.17.291,gca_avoidance_task,2022.2.4,144.02767639466035,
positions.xlsx,stimuli.xlsx,stimuli/Social1.png,stimuli/Social2.png,stimuli/Nonsocial1.png,stimuli/Nonsocial2.png,,"(0.7, 0.5)",cs_minus_ns,,,,,0,0,0,0,,,,,,,,,2,12,44,14,,,,,,,,,,,,,,,,,,,,,,,,,,,,,,,,,,,,,,,,,,,,,,,,,,,,,,,,,,1465.750688,1467.6812090000021,1465.2438520999858,1467.6812090000021,1467.6812090000021,1467.6812090000021,0.00682280003093183,0.013197900028899312,195,reward,1,[0.48630320001393557],[0.48632000002544373],1468.1742506999872,1468.1742506999872,0.008266099961474538,0.008266099961474538,0.018545900005847216,0.053282200009562075,0.06016330001875758,0.10186260001501068,0.10882989998208359,1.004613299970515,1471.6672164999763,1475.5281743999803,,,,,,,,,,,,,,,,,,,,,,,,,,,,,19,A,2023-12-11_16h14.17.291,gca_avoidance_task,2022.2.4,144.02767639466035,
positions.xlsx,stimuli.xlsx,stimuli/Social1.png,stimuli/Social2.png,stimuli/Nonsocial1.png,stimuli/Nonsocial2.png,,"(0.7, -0.5)",cs_minus_ns,,,,,0,0,0,0,,,,,,,,,2,13,45,15,,,,,,,,,,,,,,,,,,,,,,,,,,,,,,,,,,,,,,,,,,,,,,,,,,,,,,,,,,1476.0350021999911,1477.2363697999972,1475.5281743999803,1477.2363697999972,1477.2363697999972,1477.2363697999972,0.0073231999995186925,0.013053499977104366,200,reward,1,[0.6320356999640353],[0.6320393999922089],1477.8752337999758,1477.8752337999758,0.008206100028473884,0.008206100028473884,0.01837910001631826,0.05310379998991266,0.06005590001586825,0.10170870000729337,0.10866840003291145,1.0044069000286981,1481.3682176999864,1485.0347381000174,,,,,,,,,,,,,,,,,,,,,,,,,,,,,19,A,2023-12-11_16h14.17.291,gca_avoidance_task,2022.2.4,144.02767639466035,
positions.xlsx,stimuli.xlsx,stimuli/Social1.png,stimuli/Social2.png,stimuli/Nonsocial1.png,stimuli/Nonsocial2.png,,"(-0.7, 0.5)",cs_plus_ns,,,,,0,0,0,0,,,,,,,,,2,14,46,8,,,,,,,,,,,,,,,,,,,,,,,,,,,,,,,,,,,,,,,,,,,,,,,,,,,,,,,,,,1485.5415959000238,1486.8124072999926,1485.0347381000174,1486.8124072999926,1486.8124072999926,1486.8124072999926,0.0078184999874793,0.013490699988324195,200,none,0,,,1491.8260829999927,1491.8260829999927,0.015259600011631846,0.015259600011631846,0.027187699975911528,0.054873500019311905,0.06189810001524165,0.10349810001207516,0.11047930002678186,1.013260599982459,1495.3120891000144,1499.520250600006,,,,,,,,,,,,,,,,,,,,,,,,,,,,,19,A,2023-12-11_16h14.17.291,gca_avoidance_task,2022.2.4,144.02767639466035,
positions.xlsx,stimuli.xlsx,stimuli/Social1.png,stimuli/Social2.png,stimuli/Nonsocial1.png,stimuli/Nonsocial2.png,,"(0.7, -0.5)",cs_plus_ns,,,,,0,0,0,0,,,,,,,,,2,15,47,11,,,,,,,,,,,,,,,,,,,,,,,,,,,,,,,,,,,,,,,,,,,,,,,,,,,,,,,,,,1500.0271273999824,1501.284049800015,1499.520250600006,1501.284049800015,1501.284049800015,1501.284049800015,0.007288200024049729,0.013052100024651736,200,none,0,,,1506.2977518999833,1506.2977518999833,0.01565600000321865,0.01565600000321865,0.026805599976796657,0.05449309997493401,0.06147179997060448,0.10310990002471954,0.11009510001167655,1.012767200008966,1509.7837410999928,1513.4780886999797,,,,,,,,,,,,,,,,,,,,,,,,,,,,,19,A,2023-12-11_16h14.17.291,gca_avoidance_task,2022.2.4,144.02767639466035,
positions.xlsx,stimuli.xlsx,stimuli/Social1.png,stimuli/Social2.png,stimuli/Nonsocial1.png,stimuli/Nonsocial2.png,,"(-0.7, 0.5)",cs_minus_ns,,,,,0,0,0,0,,,,,,,,,3,0,48,12,,,,,,,,,,,,,,,,,,,,,,,,,,,,,,,,,,,,,,,,,,,,,,,,,,,,,,,,,,1513.9849451999762,1515.845985700027,1513.4780886999797,1515.845985700027,1515.845985700027,1515.845985700027,0.007949499995447695,0.013143800024408847,205,reward,1,[0.743130500020925],[0.7431340999901295],1516.5959962999914,1516.5959962999914,0.00829259998863563,0.00829259998863563,0.018554500013124198,0.0531734999967739,0.06010589998913929,0.10177080001449212,0.10872369998833165,1.0045598999713548,1520.0889031999977,1524.241486600018,,,,,,,,,,,,,,,,,,,,,,,,,,,,,19,A,2023-12-11_16h14.17.291,gca_avoidance_task,2022.2.4,144.02767639466035,
positions.xlsx,stimuli.xlsx,stimuli/Social1.png,stimuli/Social2.png,stimuli/Nonsocial1.png,stimuli/Nonsocial2.png,,"(0.7, 0.5)",cs_plus_ns,,,,,0,0,0,0,,,,,,,,,3,1,49,10,,,,,,,,,,,,,,,,,,,,,,,,,,,,,,,,,,,,,,,,,,,,,,,,,,,,,,,,,,1524.7484116000123,1526.2066820000182,1524.241486600018,1526.2066820000182,1526.2066820000182,1526.2066820000182,0.007480399974156171,0.01359230000525713,205,none,0,,,1531.2203922999906,1531.2203922999906,0.01530789997195825,0.01530789997195825,0.02727199997752905,0.05497840000316501,0.0619536999729462,0.10361059999559075,0.11053880001418293,1.0133023000089452,1534.7064010000322,1538.37988209998,,,,,,,,,,,,,,,,,,,,,,,,,,,,,19,A,2023-12-11_16h14.17.291,gca_avoidance_task,2022.2.4,144.02767639466035,
positions.xlsx,stimuli.xlsx,stimuli/Social1.png,stimuli/Social2.png,stimuli/Nonsocial1.png,stimuli/Nonsocial2.png,,"(-0.7, 0.5)",cs_plus_ns,,,,,0,0,0,0,,,,,,,,,3,2,50,8,,,,,,,,,,,,,,,,,,,,,,,,,,,,,,,,,,,,,,,,,,,,,,,,,,,,,,,,,,1538.8867446000222,1540.3797529999865,1538.37988209998,1540.3797529999865,1540.3797529999865,1540.3797529999865,0.0072188000194728374,0.012896300002466887,205,none,0,,,1545.3865250999806,1545.3865250999806,0.014304600015748292,0.014304600015748292,0.01970519998576492,0.05436270002974197,0.0612894999794662,0.10303649998968467,0.10993480001343414,1.0126226000138558,1548.879410499998,1552.5320760000031,,,,,,,,,,,,,,,,,,,,,,,,,,,,,19,A,2023-12-11_16h14.17.291,gca_avoidance_task,2022.2.4,144.02767639466035,
positions.xlsx,stimuli.xlsx,stimuli/Social1.png,stimuli/Social2.png,stimuli/Nonsocial1.png,stimuli/Nonsocial2.png,,"(0.7, 0.5)",cs_minus_s,,,,,0,0,0,0,,,,,,,,,3,3,51,6,,,,,,,,,,,,,,,,,,,,,,,,,,,,,,,,,,,,,,,,,,,,,,,,,,,,,,,,,,1553.0389448999777,1554.434735500021,1552.5320760000031,1554.434735500021,1554.434735500021,1554.434735500021,0.006128200038801879,0.013458500034175813,210,reward,1,[0.6535519000026397],[0.6535556000308134],1555.0944872000255,1555.0944872000255,0.006680899998173118,0.006680899998173118,0.018549299973528832,0.05316599999787286,0.06015480001224205,0.10176140000112355,0.10874539997894317,1.0045082999859005,1558.5873775000218,1562.8094749000156,,,,,,,,,,,,,,,,,,,,,,,,,,,,,19,A,2023-12-11_16h14.17.291,gca_avoidance_task,2022.2.4,144.02767639466035,
positions.xlsx,stimuli.xlsx,stimuli/Social1.png,stimuli/Social2.png,stimuli/Nonsocial1.png,stimuli/Nonsocial2.png,,"(0.7, 0.5)",cs_minus_ns,,,,,0,0,0,0,,,,,,,,,3,4,52,14,,,,,,,,,,,,,,,,,,,,,,,,,,,,,,,,,,,,,,,,,,,,,,,,,,,,,,,,,,1563.3163181000273,1564.9135454000207,1562.8094749000156,1564.9135454000207,1564.9135454000207,1564.9135454000207,0.0069931999896653,0.0131182000041008,215,reward,1,[0.3819722000043839],[0.3819758000317961],1565.3023760999786,1565.3023760999786,0.008931300020776689,0.008931300020776689,0.018432100012432784,0.053085200022906065,0.06004539999412373,0.10173940000822768,0.10868699999991804,1.0044247000478208,1568.795321499987,1572.5521193000022,,,,,,,,,,,,,,,,,,,,,,,,,,,,,19,A,2023-12-11_16h14.17.291,gca_avoidance_task,2022.2.4,144.02767639466035,
positions.xlsx,stimuli.xlsx,stimuli/Social1.png,stimuli/Social2.png,stimuli/Nonsocial1.png,stimuli/Nonsocial2.png,,"(0.7, -0.5)",cs_plus_s,,,,,0,0,0,0,,,,,,,,,3,5,53,3,,,,,,,,,,,,,,,,,,,,,,,,,,,,,,,,,,,,,,,,,,,,,,,,,,,,,,,,,,1573.059015900013,1574.6353271999978,1572.5521193000022,1574.6353271999978,1574.6353271999978,1574.6353271999978,0.006480099982582033,0.013258100021630526,215,shock,1,[0.3683442000183277],[0.368348199990578],1575.0103559999843,1575.0103559999843,0.007438300002831966,0.007438300002831966,0.018384800001513213,0.053021500003524125,0.060004099970683455,0.10162619996117428,0.10857769998256117,1.0044028999982402,1578.503322100034,1582.1489846000331,,,,,,,,,,,,,,,,,,,,,,,,,,,,,19,A,2023-12-11_16h14.17.291,gca_avoidance_task,2022.2.4,144.02767639466035,
positions.xlsx,stimuli.xlsx,stimuli/Social1.png,stimuli/Social2.png,stimuli/Nonsocial1.png,stimuli/Nonsocial2.png,,"(0.7, -0.5)",cs_plus_ns,,,,,0,0,0,0,,,,,,,,,3,6,54,11,,,,,,,,,,,,,,,,,,,,,,,,,,,,,,,,,,,,,,,,,,,,,,,,,,,,,,,,,,1582.6558834000025,1584.4891157000093,1582.1489846000331,1584.4891157000093,1584.4891157000093,1584.4891157000093,0.007678500027395785,0.013374100031796843,215,none,0,,,1589.495888400008,1589.495888400008,0.015357900003436953,0.015357900003436953,0.020196900004521012,0.054805400024633855,0.061779199982993305,0.10346660000504926,0.1104190000332892,1.013122599979397,1592.9888596999808,1596.7664831000147,,,,,,,,,,,,,,,,,,,,,,,,,,,,,19,A,2023-12-11_16h14.17.291,gca_avoidance_task,2022.2.4,144.02767639466035,
positions.xlsx,stimuli.xlsx,stimuli/Social1.png,stimuli/Social2.png,stimuli/Nonsocial1.png,stimuli/Nonsocial2.png,,"(-0.7, -0.5)",cs_minus_ns,,,,,0,0,0,0,,,,,,,,,3,7,55,13,,,,,,,,,,,,,,,,,,,,,,,,,,,,,,,,,,,,,,,,,,,,,,,,,,,,,,,,,,1597.273325600021,1599.2454881999874,1596.7664831000147,1599.2454881999874,1599.2454881999874,1599.2454881999874,0.0069561999989673495,0.01333579997299239,220,reward,1,[0.7364162999438122],[0.7364200999727473],1599.988529400027,1599.988529400027,0.009184599970467389,0.009184599970467389,0.018806499952916056,0.05340029997751117,0.06038769998122007,0.10204699996393174,0.10899819998303428,1.0047656999668106,1603.4814648000174,1607.1202668999904,,,,,,,,,,,,,,,,,,,,,,,,,,,,,19,A,2023-12-11_16h14.17.291,gca_avoidance_task,2022.2.4,144.02767639466035,
positions.xlsx,stimuli.xlsx,stimuli/Social1.png,stimuli/Social2.png,stimuli/Nonsocial1.png,stimuli/Nonsocial2.png,,"(-0.7, -0.5)",cs_plus_s,,,,,0,0,0,0,,,,,,,,,3,8,56,1,,,,,,,,,,,,,,,,,,,,,,,,,,,,,,,,,,,,,,,,,,,,,,,,,,,,,,,,,,1607.627109299996,1608.8840120999957,1607.1202668999904,1608.8840120999957,1608.8840120999957,1608.8840120999957,0.007811799994669855,0.01285890000872314,220,shock,1,[0.30546260002302006],[0.3054663999937475],1609.1964954999858,1609.1964954999858,0.007759600004646927,0.007759600004646927,0.01870979997329414,0.053325099986977875,0.06029970000963658,0.10189869999885559,0.10884920001262799,1.0046676999772899,1612.689462099981,1616.397603599995,,,,,,,,,,,,,,,,,,,,,,,,,,,,,19,A,2023-12-11_16h14.17.291,gca_avoidance_task,2022.2.4,144.02767639466035,
positions.xlsx,stimuli.xlsx,stimuli/Social1.png,stimuli/Social2.png,stimuli/Nonsocial1.png,stimuli/Nonsocial2.png,,"(-0.7, 0.5)",cs_plus_s,,,,,0,0,0,0,,,,,,,,,3,9,57,0,,,,,,,,,,,,,,,,,,,,,,,,,,,,,,,,,,,,,,,,,,,,,,,,,,,,,,,,,,1616.9045377000002,1618.286438799987,1616.397603599995,1618.286438799987,1618.286438799987,1618.286438799987,0.006542499992065132,0.0129935999866575,220,none,0,,,1623.293142199982,1623.293142199982,0.01479669997934252,0.01479669997934252,0.019719299976713955,0.054436600010376424,0.061387899972032756,0.10301760002039373,0.11002989998087287,1.0127330999821424,1626.7861458000261,1630.4526651999913,,,,,,,,,,,,,,,,,,,,,,,,,,,,,19,A,2023-12-11_16h14.17.291,gca_avoidance_task,2022.2.4,144.02767639466035,
positions.xlsx,stimuli.xlsx,stimuli/Social1.png,stimuli/Social2.png,stimuli/Nonsocial1.png,stimuli/Nonsocial2.png,,"(-0.7, 0.5)",cs_minus_s,,,,,0,0,0,0,,,,,,,,,3,10,58,4,,,,,,,,,,,,,,,,,,,,,,,,,,,,,,,,,,,,,,,,,,,,,,,,,,,,,,,,,,1630.9595146999927,1632.4108465000172,1630.4526651999913,1632.4108465000172,1632.4108465000172,1632.4108465000172,0.00713379995431751,0.013094900001306087,225,reward,1,[0.5070451999781653],[0.5070488999481313],1632.9247411999968,1632.9247411999968,0.008158600016031414,0.008158600016031414,0.018528099986724555,0.053194599982816726,0.06012610002653673,0.10178969998378307,0.10873460001312196,1.004509299993515,1636.4177155999932,1640.7508437000215,,,,,,,,,,,,,,,,,,,,,,,,,,,,,19,A,2023-12-11_16h14.17.291,gca_avoidance_task,2022.2.4,144.02767639466035,
positions.xlsx,stimuli.xlsx,stimuli/Social1.png,stimuli/Social2.png,stimuli/Nonsocial1.png,stimuli/Nonsocial2.png,,"(-0.7, -0.5)",cs_minus_s,,,,,0,0,0,0,,,,,,,,,3,11,59,5,,,,,,,,,,,,,,,,,,,,,,,,,,,,,,,,,,,,,,,,,,,,,,,,,,,,,,,,,,1641.257734599989,1642.4034845000133,1640.7508437000215,1642.4034845000133,1642.4034845000133,1642.4034845000133,0.005855499999597669,0.013108799990732223,230,reward,1,[0.4654601999791339],[0.46546410000883043],1642.8757754000253,1642.8757754000253,0.007472799974493682,0.007472799974493682,0.018569999956525862,0.05316050001420081,0.060122900002170354,0.1017547000083141,0.10873320000246167,1.0045595999690704,1646.3686518000322,1650.2157411000226,,,,,,,,,,,,,,,,,,,,,,,,,,,,,19,A,2023-12-11_16h14.17.291,gca_avoidance_task,2022.2.4,144.02767639466035,
positions.xlsx,stimuli.xlsx,stimuli/Social1.png,stimuli/Social2.png,stimuli/Nonsocial1.png,stimuli/Nonsocial2.png,,"(0.7, 0.5)",cs_plus_s,,,,,0,0,0,0,,,,,,,,,3,12,60,2,,,,,,,,,,,,,,,,,,,,,,,,,,,,,,,,,,,,,,,,,,,,,,,,,,,,,,,,,,1650.7226580000133,1652.403134000022,1650.2157411000226,1652.403134000022,1652.403134000022,1652.403134000022,0.005746500042732805,0.013188200013246387,230,none,0,,,1657.4098644999904,1657.4098644999904,0.013396500027738512,0.013396500027738512,0.019922900013625622,0.05463980004424229,0.06159050000132993,0.10323430004063994,0.11016850004671142,1.0129449000232853,1660.9028523000306,1664.819354599982,,,,,,,,,,,,,,,,,,,,,,,,,,,,,19,A,2023-12-11_16h14.17.291,gca_avoidance_task,2022.2.4,144.02767639466035,
positions.xlsx,stimuli.xlsx,stimuli/Social1.png,stimuli/Social2.png,stimuli/Nonsocial1.png,stimuli/Nonsocial2.png,,"(0.7, -0.5)",cs_minus_ns,,,,,0,0,0,0,,,,,,,,,3,13,61,15,,,,,,,,,,,,,,,,,,,,,,,,,,,,,,,,,,,,,,,,,,,,,,,,,,,,,,,,,,1665.3262220000033,1667.145599999989,1664.819354599982,1667.145599999989,1667.145599999989,1667.145599999989,0.007353799999691546,0.013332400005310774,235,reward,1,[0.7156665000366047],[0.7156701000058092],1667.8678401000216,1667.8678401000216,0.007865399995353073,0.007865399995353073,0.018395099963527173,0.053030299954116344,0.05998899997211993,0.10164670000085607,0.10862659994745627,1.0043775999802165,1671.360755599977,1675.7286185999983,,,,,,,,,,,,,,,,,,,,,,,,,,,,,19,A,2023-12-11_16h14.17.291,gca_avoidance_task,2022.2.4,144.02767639466035,
positions.xlsx,stimuli.xlsx,stimuli/Social1.png,stimuli/Social2.png,stimuli/Nonsocial1.png,stimuli/Nonsocial2.png,,"(-0.7, -0.5)",cs_plus_ns,,,,,0,0,0,0,,,,,,,,,3,14,62,9,,,,,,,,,,,,,,,,,,,,,,,,,,,,,,,,,,,,,,,,,,,,,,,,,,,,,,,,,,1676.235548000026,1677.4368615000276,1675.7286185999983,1677.4368615000276,1677.4368615000276,1677.4368615000276,0.0064857000252231956,0.013003500003833324,235,none,0,,,1682.4436609999975,1682.4436609999975,0.013916200026869774,0.013916200026869774,0.019811100035440177,0.05448510003043339,0.06145990005461499,0.10307599999941885,0.11005510005634278,1.012776900024619,1685.936537200003,1690.3947222999996,,,,,,,,,,,,,,,,,,,,,,,,,,,,,19,A,2023-12-11_16h14.17.291,gca_avoidance_task,2022.2.4,144.02767639466035,
positions.xlsx,stimuli.xlsx,stimuli/Social1.png,stimuli/Social2.png,stimuli/Nonsocial1.png,stimuli/Nonsocial2.png,,"(0.7, -0.5)",cs_minus_s,,,,,0,0,0,0,,,,,,,,,3,15,63,7,,,,,,,,,,,,,,,,,,,,,,,,,,,,,,,,,,,,,,,,,,,,,,,,,,,,,,,,,,1690.901621600031,1692.7001486999798,1690.3947222999996,1692.7001486999798,1692.7001486999798,1692.7001486999798,0.006032100005540997,0.013167700031772256,240,reward,1,[0.521171200030949],[0.5279546999954619],1693.2348739000154,1693.2348739000154,0.007406799995806068,0.007406799995806068,0.018471600022166967,0.05313930002739653,0.06009530002484098,0.10176799999317154,0.10877120000077412,1.0045355000183918,1696.7278481000103,1701.1026523000328,,,,,,,,,,,,,,,,,,,,,,,,,,,,,19,A,2023-12-11_16h14.17.291,gca_avoidance_task,2022.2.4,144.02767639466035,
positions.xlsx,stimuli.xlsx,stimuli/Social1.png,stimuli/Social2.png,stimuli/Nonsocial1.png,stimuli/Nonsocial2.png,,"(0.7, -0.5)",cs_plus_ns,,,,,0,0,0,0,,,,,,,,,4,0,64,11,,,,,,,,,,,,,,,,,,,,,,,,,,,,,,,,,,,,,,,,,,,,,,,,,,,,,,,,,,1701.6095399999758,1703.0469971999992,1701.1026523000328,1703.0469971999992,1703.0469971999992,1703.0469971999992,0.007424099952913821,0.013132099993526936,240,shock,1,[0.34089979995042086],[0.3409036999801174],1703.3941933999886,1703.3941933999886,0.007782300002872944,0.007782300002872944,0.01840330002596602,0.053049699985422194,0.05999189999420196,0.10168269998393953,0.10870320000685751,1.0043703999835998,1706.8871747999801,1711.0675411000266,,,,,,,,,,,,,,,,,,,,,,,,,,,,,19,A,2023-12-11_16h14.17.291,gca_avoidance_task,2022.2.4,144.02767639466035,
positions.xlsx,stimuli.xlsx,stimuli/Social1.png,stimuli/Social2.png,stimuli/Nonsocial1.png,stimuli/Nonsocial2.png,,"(0.7, -0.5)",cs_minus_ns,,,,,0,0,0,0,,,,,,,,,4,1,65,15,,,,,,,,,,,,,,,,,,,,,,,,,,,,,,,,,,,,,,,,,,,,,,,,,,,,,,,,,,1711.5744568000082,1712.9007590999827,1711.0675411000266,1712.9007590999827,1712.9007590999827,1712.9007590999827,0.006487200036644936,0.013246800052002072,245,reward,1,[0.7297183000482619],[0.7297221000189893],1713.6368174999952,1713.6368174999952,0.0076228000107221305,0.0076228000107221305,0.017777000030037016,0.05247980001149699,0.05944790004286915,0.10107140004402027,0.1080426000407897,1.0038287000497803,1717.1297756999847,1720.8588239999954,,,,,,,,,,,,,,,,,,,,,,,,,,,,,19,A,2023-12-11_16h14.17.291,gca_avoidance_task,2022.2.4,144.02767639466035,
