posFile,stimFile,cs_plus_s,cs_minus_s,cs_plus_ns,cs_minus_ns,stimtype,position,trialtype,trials_threshold.thisRepN,trials_threshold.thisTrialN,trials_threshold.thisN,trials_threshold.thisIndex,blocks.thisRepN,blocks.thisTrialN,blocks.thisN,blocks.thisIndex,ratingtrials1.thisRepN,ratingtrials1.thisTrialN,ratingtrials1.thisN,ratingtrials1.thisIndex,learning_trials.thisRepN,learning_trials.thisTrialN,learning_trials.thisN,learning_trials.thisIndex,trials.thisRepN,trials.thisTrialN,trials.thisN,trials.thisIndex,ratingtrials2.thisRepN,ratingtrials2.thisTrialN,ratingtrials2.thisN,ratingtrials2.thisIndex,testtrials.thisRepN,testtrials.thisTrialN,testtrials.thisN,testtrials.thisIndex,ratingtrials3.thisRepN,ratingtrials3.thisTrialN,ratingtrials3.thisN,ratingtrials3.thisIndex,textStart.started,spaceStart.started,spaceStart.keys,spaceStart.rt,textPainThreshold.started,spacePainThreshold.started,spacePainThreshold.keys,spacePainThreshold.rt,textRateT.started,text_noPainT.started,text_slightPainT.started,text_highPainT.started,sliderPainT.started,keys_PainT.started,sliderPainT.response,sliderPainT.rt,keys_PainT.keys,keys_PainT.rt,fixcrossT.started,portShock1T.started,portShock1T.stopped,portShock2T.started,portShock2T.stopped,portShock3T.started,portShock3T.stopped,fixcrossT.stopped,text_ETCalibration.started,spaceETCalibration.started,spaceETCalibration.keys,spaceETCalibration.rt,textStartExp.started,spaceStartExp.started,spaceStartExp.keys,spaceStartExp.rt,imageRating.started,sliderStim.started,spaceStim.started,sliderStim.response,sliderStim.rt,spaceStim.keys,spaceStim.rt,textStartTask.started,spaceStartTask.started,spaceStartTask.keys,spaceStartTask.rt,blankScreen.started,blankScreen.stopped,fixcross.started,image.started,roi.started,gazeCursor.started,portImage.started,portImage.stopped,score,outcome,roi.numLooks,roi.timesOn,roi.timesOff,imageFeedback.started,gazeCursor_Feedback.started,soundFeedback.started,portShock1.started,portShock1.stopped,portShock2.started,portShock2.stopped,portShock3.started,portShock3.stopped,soundFeedback.stopped,fixcrossE.started,fixcrossE.stopped,textRepeatTask.started,textboxRepeatInstruction.started,textRepeatSpace.started,spaceRepeatTask.started,spaceRepeatTask.keys,spaceRepeatTask.rt,textRate.started,text_noPain.started,text_slightPain.started,text_highPain.started,sliderPain.started,textSpacePain.started,spacePain.started,sliderPain.response,sliderPain.rt,spacePain.keys,spacePain.rt,textTestInstr.started,spaceTestInstr.started,spaceTestInstr.keys,spaceTestInstr.rt,imageTest.started,roiTest.started,portTestImage.started,portTestImage.stopped,roiTest.numLooks,roiTest.timesOn,roiTest.timesOff,participant,group,date,expName,psychopyVersion,frameRate,
,,,,,,,,,,,,,,,,,,,,,,,,,,,,,,,,,,,,,,,,,33.9205750000001,33.9205750000001,space,3.659209400000691,,,,,,,,,,,,,,,,,,,,,,,,,,,,,,,,,,,,,,,,,,,,,,,,,,,,,,,,,,,,,,,,,,,,,,,,,,,,,,,,,,,,,,,,,,,,,,,6,B,2023-12-07_11h41.32.656,gca_avoidance_task,2022.2.4,143.82591311443406,
,,,,,,,,,,,,,,,,,,,,,,,,,,,,,,,,,,,,,,,,,,,,,37.58699099999831,37.58699099999831,space,2.2566483999999036,,,,,,,,,,,,,,,,,,,,,,,,,,,,,,,,,,,,,,,,,,,,,,,,,,,,,,,,,,,,,,,,,,,,,,,,,,,,,,,,,,,,,,,,,,,6,B,2023-12-07_11h41.32.656,gca_avoidance_task,2022.2.4,143.82591311443406,
,,,,,,,,,0,0,0,0,,,,,,,,,,,,,,,,,,,,,,,,,,,,,,,,,,,,,40.88547519999884,40.88547519999884,40.88547519999884,40.88547519999884,40.88547519999884,40.88547519999884,None,None,s,13.342478800001118,54.822431999999026,0.10494099999959872,0.11187429999881715,0.1535076999989542,0.16047769999931916,0.20216059999984282,0.2091067999990628,,,,,,,,,,,,,,,,,,,,,,,,,,,,,,,,,,,,,,,,,,,,,,,,,,,,,,,,,,,,,,,,,,,,,,,,,,6,B,2023-12-07_11h41.32.656,gca_avoidance_task,2022.2.4,143.82591311443406,
,,,,,,,,,1,0,1,0,,,,,,,,,,,,,,,,,,,,,,,,,,,,,,,,,,,,,55.58626279999953,55.58626279999953,55.58626279999953,55.58626279999953,55.58626279999953,55.58626279999953,1.0,6.3784350999994786,s,13.234336100000291,69.34265830000004,0.09924430000137363,0.10622330000114744,0.15478020000045944,0.16176439999981085,0.20341259999986505,0.21036989999993239,70.09955669999908,,,,,,,,,,,,,,,,,,,,,,,,,,,,,,,,,,,,,,,,,,,,,,,,,,,,,,,,,,,,,,,,,,,,,,,,,6,B,2023-12-07_11h41.32.656,gca_avoidance_task,2022.2.4,143.82591311443406,
,,,,,,,,,2,0,2,0,,,,,,,,,,,,,,,,,,,,,,,,,,,,,,,,,,,,,70.09955669999908,70.09955669999908,70.09955669999908,70.09955669999908,70.09955669999908,70.09955669999908,2.0,4.07481320000079,s,9.520007600000099,80.12695929999973,0.0996303000010812,0.10657800000080897,0.15517159999944852,0.1621173000003182,0.20378460000029008,0.21074039999984961,80.89084829999956,,,,,,,,,,,,,,,,,,,,,,,,,,,,,,,,,,,,,,,,,,,,,,,,,,,,,,,,,,,,,,,,,,,,,,,,,6,B,2023-12-07_11h41.32.656,gca_avoidance_task,2022.2.4,143.82591311443406,
,,,,,,,,,3,0,3,0,,,,,,,,,,,,,,,,,,,,,,,,,,,,,,,,,,,,,80.89084829999956,80.89084829999956,80.89084829999956,80.89084829999956,80.89084829999956,80.89084829999956,4.0,2.799699799999871,s,9.297437700000955,90.69597739999881,0.10395919999973557,0.11092309999912686,0.15254149999964284,0.15953300000001036,0.20112580000022717,0.20811399999911373,91.5223747,,,,,,,,,,,,,,,,,,,,,,,,,,,,,,,,,,,,,,,,,,,,,,,,,,,,,,,,,,,,,,,,,,,,,,,,,6,B,2023-12-07_11h41.32.656,gca_avoidance_task,2022.2.4,143.82591311443406,
,,,,,,,,,4,0,4,0,,,,,,,,,,,,,,,,,,,,,,,,,,,,,,,,,,,,,91.5223747,91.5223747,91.5223747,91.5223747,91.5223747,91.5223747,7.0,7.101483899999948,s,12.361587000001236,104.3898709999994,0.10152820000075735,0.10847280000052706,0.15019240000037826,0.1571168000009493,0.20574450000094657,0.2127013999997871,105.26485929999944,,,,,,,,,,,,,,,,,,,,,,,,,,,,,,,,,,,,,,,,,,,,,,,,,,,,,,,,,,,,,,,,,,,,,,,,,6,B,2023-12-07_11h41.32.656,gca_avoidance_task,2022.2.4,143.82591311443406,
,,,,,,,,,5,0,5,0,,,,,,,,,,,,,,,,,,,,,,,,,,,,,,,,,,,,,105.26485929999944,105.26485929999944,105.26485929999944,105.26485929999944,105.26485929999944,105.26485929999944,8.0,3.7555327999998553,s,9.731478800000332,115.52137229999971,0.1037741999989521,0.11074329999973997,0.1523682999995799,0.15932359999897017,0.20096279999961553,0.20798110000032466,116.27826359999926,,,,,,,,,,,,,,,,,,,,,,,,,,,,,,,,,,,,,,,,,,,,,,,,,,,,,,,,,,,,,,,,,,,,,,,,,6,B,2023-12-07_11h41.32.656,gca_avoidance_task,2022.2.4,143.82591311443406,
,,,,,,,,,6,0,6,0,,,,,,,,,,,,,,,,,,,,,,,,,,,,,,,,,,,,,116.27826359999926,116.27826359999926,116.27826359999926,116.27826359999926,116.27826359999926,116.27826359999926,8.0,5.916479400000753,s,13.750356599999577,130.5485811999988,0.10483690000000934,0.111797800000204,0.15349020000030578,0.1604378000010911,0.20206789999974717,0.20904880000125559,,,,,,,,,,,,,,,,,,,,,,,,,,,,,,,,,,,,,,,,,,,,,,,,,,,,,,,,,,,,,,,,,,,,,,,,,,6,B,2023-12-07_11h41.32.656,gca_avoidance_task,2022.2.4,143.82591311443406,
,,,,,,,,,7,0,7,0,,,,,,,,,,,,,,,,,,,,,,,,,,,,,,,,,,,,,131.30548219999946,131.30548219999946,131.30548219999946,131.30548219999946,131.30548219999946,131.30548219999946,7.0,4.373565300000337,s,9.290297100000316,141.10370069999954,0.10571100000015576,0.11272199999984878,0.15435719999914,0.16129969999929017,0.20294970000031753,0.2099289999987377,,,,,,,,,,,,,,,,,,,,,,,,,,,,,,,,,,,,,,,,,,,,,,,,,,,,,,,,,,,,,,,,,,,,,,,,,,6,B,2023-12-07_11h41.32.656,gca_avoidance_task,2022.2.4,143.82591311443406,
,,,,,,,,,8,0,8,0,,,,,,,,,,,,,,,,,,,,,,,,,,,,,,,,,,,,,141.85366889999932,141.85366889999932,141.85366889999932,141.85366889999932,141.85366889999932,141.85366889999932,6.0,3.3706192999998166,s,7.950784400001794,150.29776989999846,0.10188080000079935,0.10882710000078077,0.15045269999973243,0.15741549999984272,0.19908920000125363,0.2060434000013629,151.05470969999988,,,,,,,,,,,,,,,,,,,,,,,,,,,,,,,,,,,,,,,,,,,,,,,,,,,,,,,,,,,,,,,,,,,,,,,,,6,B,2023-12-07_11h41.32.656,gca_avoidance_task,2022.2.4,143.82591311443406,
,,,,,,,,,9,0,9,0,,,,,,,,,,,,,,,,,,,,,,,,,,,,,,,,,,,,,151.05470969999988,151.05470969999988,151.05470969999988,151.05470969999988,151.05470969999988,151.05470969999988,6.0,2.7703590000000986,s,7.021310400001312,158.58915249999882,0.09903219999978319,0.10599889999866718,0.1546106999994663,0.1615762999990693,0.20324389999950654,0.21020940000016708,,,,,,,,,,,,,,,,,,,,,,,,,,,,,,,,,,,,,,,,,,,,,,,,,,,,,,,,,,,,,,,,,,,,,,,,,,6,B,2023-12-07_11h41.32.656,gca_avoidance_task,2022.2.4,143.82591311443406,
,,,,,,,,,10,0,10,0,,,,,,,,,,,,,,,,,,,,,,,,,,,,,,,,,,,,,159.33906209999986,159.33906209999986,159.33906209999986,159.33906209999986,159.33906209999986,159.33906209999986,5.0,3.5300250999989657,s,8.92150120000042,168.77622410000004,0.10484340000039083,0.11179860000083863,0.1534330000013142,0.16036020000137796,0.20201780000024883,0.20901240000057442,,,,,,,,,,,,,,,,,,,,,,,,,,,,,,,,,,,,,,,,,,,,,,,,,,,,,,,,,,,,,,,,,,,,,,,,,,6,B,2023-12-07_11h41.32.656,gca_avoidance_task,2022.2.4,143.82591311443406,
,,,,,,,,,11,0,11,0,,,,,,,,,,,,,,,,,,,,,,,,,,,,,,,,,,,,,169.53311369999938,169.53311369999938,169.53311369999938,169.53311369999938,169.53311369999938,169.53311369999938,5.0,2.226253500000894,s,7.942175500000303,178.1438980999992,0.10018490000038582,0.10706430000027467,0.15571960000124818,0.16261090000080003,0.20428880000145,0.21124800000143296,178.90078399999948,,,,,,,,,,,,,,,,,,,,,,,,,,,,,,,,,,,,,,,,,,,,,,,,,,,,,,,,,,,,,,,,,,,,,,,,,6,B,2023-12-07_11h41.32.656,gca_avoidance_task,2022.2.4,143.82591311443406,
,,,,,,,,,12,0,12,0,,,,,,,,,,,,,,,,,,,,,,,,,,,,,,,,,,,,,178.90078399999948,178.90078399999948,178.90078399999948,178.90078399999948,178.90078399999948,178.90078399999948,5.0,4.221901200000502,s,8.886561300001631,188.2893239999994,0.09949090000009164,0.10638830000061716,0.15507640000032552,0.16198900000017602,0.20365619999938644,0.2106636000007711,189.04623729999912,,,,,,,,,,,,,,,,,,,,,,,,,,,,,,,,,,,,,,,,,,,,,,,,,,,,,,,,,,,,,,,,,,,,,,,,,6,B,2023-12-07_11h41.32.656,gca_avoidance_task,2022.2.4,143.82591311443406,
,,,,,,,,,13,0,13,0,,,,,,,,,,,,,,,,,,,,,,,,,,,,,,,,,,,,,189.04623729999912,189.04623729999912,189.04623729999912,189.04623729999912,189.04623729999912,189.04623729999912,6.0,3.5945047000004706,s,8.645489599999564,198.2055617999995,0.10232899999937217,0.10925889999998617,0.15091399999982968,0.15790729999935138,0.1995284000004176,0.20649029999913182,198.9694230999994,,,,,,,,,,,,,,,,,,,,,,,,,,,,,,,,,,,,,,,,,,,,,,,,,,,,,,,,,,,,,,,,,,,,,,,,,6,B,2023-12-07_11h41.32.656,gca_avoidance_task,2022.2.4,143.82591311443406,
,,,,,,,,,14,0,14,0,,,,,,,,,,,,,,,,,,,,,,,,,,,,,,,,,,,,,198.9694230999994,198.9694230999994,198.9694230999994,198.9694230999994,198.9694230999994,198.9694230999994,7.0,2.063804400000663,s,6.8348461000005045,206.33026829999835,0.10042090000024473,0.1073897999995097,0.14903469999990193,0.15599930000098539,0.20459920000030252,0.2115250000006199,207.0941049999983,,,,,,,,,,,,,,,,,,,,,,,,,,,,,,,,,,,,,,,,,,,,,,,,,,,,,,,,,,,,,,,,,,,,,,,,,6,B,2023-12-07_11h41.32.656,gca_avoidance_task,2022.2.4,143.82591311443406,
,,,,,,,,,15,0,15,0,,,,,,,,,,,,,,,,,,,,,,,,,,,,,,,,,,,,,207.0941049999983,207.0941049999983,207.0941049999983,207.0941049999983,207.0941049999983,207.0941049999983,8.0,3.897203599999557,s,8.517498400000477,216.11458199999834,0.09928629999922123,0.10629410000001371,0.1548386999984359,0.1618440999991435,0.2034616000000824,0.21041159999913361,216.87150479999946,,,,,,,,,,,,,,,,,,,,,,,,,,,,,,,,,,,,,,,,,,,,,,,,,,,,,,,,,,,,,,,,,,,,,,,,,6,B,2023-12-07_11h41.32.656,gca_avoidance_task,2022.2.4,143.82591311443406,
,,,,,,,,,16,0,16,0,,,,,,,,,,,,,,,,,,,,,,,,,,,,,,,,,,,,,216.87150479999946,216.87150479999946,216.87150479999946,216.87150479999946,216.87150479999946,216.87150479999946,6.0,2.5753648999998404,s,18.565244300001723,235.9471195999995,0.10284660000070289,0.1097994000010658,0.15148779999981343,0.1583717000012257,0.1999974000009388,0.20700920000126644,236.7040423999988,,,,,,,,,,,,,,,,,,,,,,,,,,,,,,,,,,,,,,,,,,,,,,,,,,,,,,,,,,,,,,,,,,,,,,,,,6,B,2023-12-07_11h41.32.656,gca_avoidance_task,2022.2.4,143.82591311443406,
,,,,,,,,,17,0,17,0,,,,,,,,,,,,,,,,,,,,,,,,,,,,,,,,,,,,,236.7040423999988,236.7040423999988,236.7040423999988,236.7040423999988,236.7040423999988,236.7040423999988,None,None,g,5.188009200001034,242.3982519000001,,,,,,,,,,,,,,,,,,,,,,,,,,,,,,,,,,,,,,,,,,,,,,,,,,,,,,,,,,,,,,,,,,,,,,,,,,,,,,,,6,B,2023-12-07_11h41.32.656,gca_avoidance_task,2022.2.4,143.82591311443406,
,,,,,,,,,,,,,,,,,,,,,,,,,,,,,,,,,,,,,,,,,,,,,,,,,,,,,,,,,,,,,,,,,,,242.3982519000001,242.3982519000001,space,2.318312600000354,,,,,,,,,,,,,,,,,,,,,,,,,,,,,,,,,,,,,,,,,,,,,,,,,,,,,,,,,,,,,,,,,,,,,6,B,2023-12-07_11h41.32.656,gca_avoidance_task,2022.2.4,143.82591311443406,
positions.xlsx,stimuli.xlsx,stimuli/Social2.png,stimuli/Social1.png,stimuli/Nonsocial1.png,stimuli/Nonsocial2.png,cs_minus_s,,,,,,,0,0,0,0,0,0,0,2,,,,,,,,,,,,,,,,,,,,,,,,,,,,,,,,,,,,,,,,,,,,,,,,,,,335.48858909999944,335.48858909999944,space,34.058757999999216,369.59459759999845,369.59459759999845,375.31655539999883,5.0,5.716684199998781,space,2.28758949999974,,,,,,,,,,,,,,,,,,,,,,,,,,,,,,,,,,,,,,,,,,,,,,,,,,,,,,,,,,6,B,2023-12-07_11h41.32.656,gca_avoidance_task,2022.2.4,143.82591311443406,
positions.xlsx,stimuli.xlsx,stimuli/Social2.png,stimuli/Social1.png,stimuli/Nonsocial1.png,stimuli/Nonsocial2.png,cs_plus_ns,,,,,,,0,0,0,0,0,1,1,1,,,,,,,,,,,,,,,,,,,,,,,,,,,,,,,,,,,,,,,,,,,,,,,,,,,,,,,377.6358873999998,377.6358873999998,382.7537420999997,4.0,5.110061199999109,space,2.1140011999996204,,,,,,,,,,,,,,,,,,,,,,,,,,,,,,,,,,,,,,,,,,,,,,,,,,,,,,,,,,6,B,2023-12-07_11h41.32.656,gca_avoidance_task,2022.2.4,143.82591311443406,
positions.xlsx,stimuli.xlsx,stimuli/Social2.png,stimuli/Social1.png,stimuli/Nonsocial1.png,stimuli/Nonsocial2.png,cs_plus_s,,,,,,,0,0,0,0,0,2,2,0,,,,,,,,,,,,,,,,,,,,,,,,,,,,,,,,,,,,,,,,,,,,,,,,,,,,,,,384.8995215999985,384.8995215999985,388.02436579999994,5.0,3.111863899999662,space,1.17933819999962,,,,,,,,,,,,,,,,,,,,,,,,,,,,,,,,,,,,,,,,,,,,,,,,,,,,,,,,,,6,B,2023-12-07_11h41.32.656,gca_avoidance_task,2022.2.4,143.82591311443406,
positions.xlsx,stimuli.xlsx,stimuli/Social2.png,stimuli/Social1.png,stimuli/Nonsocial1.png,stimuli/Nonsocial2.png,cs_minus_ns,,,,,,,0,0,0,0,0,3,3,3,,,,,,,,,,,,,,,,,,,,,,,,,,,,,,,,,,,,,,,,,,,,,,,,,,,,,,,389.23959419999846,389.23959419999846,391.607533299999,6.0,2.361620400000902,space,1.4122868000013113,,,,,,,,,,,,,,,,,,,,,,,,,,,,,,,,,,,,,,,,,,,,,,,,,,,,,,,,,,6,B,2023-12-07_11h41.32.656,gca_avoidance_task,2022.2.4,143.82591311443406,
positions.xlsx,stimuli.xlsx,stimuli/Social2.png,stimuli/Social1.png,stimuli/Nonsocial1.png,stimuli/Nonsocial2.png,,"(0.7, 0.5)",cs_minus_ns,,,,,0,0,0,0,,,,,0,0,0,14,,,,,,,,,,,,,,,,,,,,,,,,,,,,,,,,,,,,,,,,,,,,,,,,,,,,,,,,,,393.03110149999884,393.03110149999884,space,25.716878299999735,421.0299684999991,422.77296549999846,420.5300389999993,422.77296549999846,422.77296549999846,422.77296549999846,0.015288000000509783,0.020051600000442704,5,reward,1,[0.2082711000002746],[0.20827439999993658],422.9951836,422.9951836,0.01652529999955732,0.01652529999955732,0.03251099999943108,0.053237199999784934,0.060212000000319676,0.10186190000058559,0.1088581999993039,1.0115790999989258,426.47422860000006,430.71021289999953,,,,,,,,,,,,,,,,,,,,,,,,,,,,,6,B,2023-12-07_11h41.32.656,gca_avoidance_task,2022.2.4,143.82591311443406,
positions.xlsx,stimuli.xlsx,stimuli/Social2.png,stimuli/Social1.png,stimuli/Nonsocial1.png,stimuli/Nonsocial2.png,,"(-0.7, 0.5)",cs_minus_ns,,,,,0,0,0,0,,,,,0,1,1,12,,,,,,,,,,,,,,,,,,,,,,,,,,,,,,,,,,,,,,,,,,,,,,,,,,,,,,,,,,,,,,431.21706769999946,433.14060959999915,430.71021289999953,433.14060959999915,433.14060959999915,433.14060959999915,0.007498600001781597,0.01323210000009567,10,reward,1,[0.24322420000135025],[0.2432282000008854],433.39064009999856,433.39064009999856,0.007999100000233739,0.007999100000233739,0.01852150000013353,0.05319489999965299,0.06016239999917161,0.10179880000032426,0.10875879999912286,1.0045329999993555,436.8835550999993,441.05005659999915,,,,,,,,,,,,,,,,,,,,,,,,,,,,,6,B,2023-12-07_11h41.32.656,gca_avoidance_task,2022.2.4,143.82591311443406,
positions.xlsx,stimuli.xlsx,stimuli/Social2.png,stimuli/Social1.png,stimuli/Nonsocial1.png,stimuli/Nonsocial2.png,,"(-0.7, -0.5)",cs_minus_ns,,,,,0,0,0,0,,,,,0,2,2,13,,,,,,,,,,,,,,,,,,,,,,,,,,,,,,,,,,,,,,,,,,,,,,,,,,,,,,,,,,,,,,441.55694009999934,443.44573499999933,441.05005659999915,443.44573499999933,443.44573499999933,443.44573499999933,0.006990600000790437,0.013146600000254693,15,reward,1,[0.2575078999998368],[0.2575116000007256],443.70963689999917,443.70963689999917,0.007857000000512926,0.007857000000512926,0.018256400000609574,0.05287700000008044,0.05986470000061672,0.10156319999987318,0.10848129999976663,1.0042195999994874,447.2025762999983,450.7649447999993,,,,,,,,,,,,,,,,,,,,,,,,,,,,,6,B,2023-12-07_11h41.32.656,gca_avoidance_task,2022.2.4,143.82591311443406,
positions.xlsx,stimuli.xlsx,stimuli/Social2.png,stimuli/Social1.png,stimuli/Nonsocial1.png,stimuli/Nonsocial2.png,,"(-0.7, -0.5)",cs_plus_s,,,,,0,0,0,0,,,,,0,3,3,1,,,,,,,,,,,,,,,,,,,,,,,,,,,,,,,,,,,,,,,,,,,,,,,,,,,,,,,,,,,,,,451.27183609999884,452.3481819999997,450.7649447999993,452.3481819999997,452.3481819999997,452.3481819999997,0.00659300000006624,0.01315210000029765,15,shock,1,[0.3961385999991762],[0.3961447000001499],452.7509111999989,452.7509111999989,0.007395000000542495,0.007395000000542495,0.01843670000016573,0.053118699999686214,0.06007789999966917,0.10172380000039993,0.10868140000093263,1.0044331999997667,456.243934099999,460.67426389999855,,,,,,,,,,,,,,,,,,,,,,,,,,,,,6,B,2023-12-07_11h41.32.656,gca_avoidance_task,2022.2.4,143.82591311443406,
positions.xlsx,stimuli.xlsx,stimuli/Social2.png,stimuli/Social1.png,stimuli/Nonsocial1.png,stimuli/Nonsocial2.png,,"(-0.7, -0.5)",cs_plus_ns,,,,,0,0,0,0,,,,,0,4,4,9,,,,,,,,,,,,,,,,,,,,,,,,,,,,,,,,,,,,,,,,,,,,,,,,,,,,,,,,,,,,,,461.1811401999985,462.29221939999843,460.67426389999855,462.29221939999843,462.29221939999843,462.29221939999843,0.007013099999312544,0.013244099998701131,15,shock,1,[0.229457999999795],[0.22946379999848432],462.52835439999944,462.52835439999944,0.008217300000978867,0.008217300000978867,0.01848740000059479,0.05301520000102755,0.059967999999571475,0.10165469999992638,0.10863319999953092,1.0044558000008692,466.0212746999987,470.2780806999999,,,,,,,,,,,,,,,,,,,,,,,,,,,,,6,B,2023-12-07_11h41.32.656,gca_avoidance_task,2022.2.4,143.82591311443406,
positions.xlsx,stimuli.xlsx,stimuli/Social2.png,stimuli/Social1.png,stimuli/Nonsocial1.png,stimuli/Nonsocial2.png,,"(-0.7, -0.5)",cs_minus_s,,,,,0,0,0,0,,,,,0,5,5,5,,,,,,,,,,,,,,,,,,,,,,,,,,,,,,,,,,,,,,,,,,,,,,,,,,,,,,,,,,,,,,470.7849188,472.29875489999904,470.2780806999999,472.29875489999904,472.29875489999904,472.29875489999904,0.00616489999993064,0.013507300000128453,20,reward,1,[0.24384350000036648],[0.24384719999943627],472.54875829999946,472.54875829999946,0.007148500000766944,0.007148500000766944,0.018544100001236075,0.053149800000028335,0.06012809999992896,0.10178280000036466,0.10876070000085747,1.0044836000015493,476.04173919999994,479.93043119999857,,,,,,,,,,,,,,,,,,,,,,,,,,,,,6,B,2023-12-07_11h41.32.656,gca_avoidance_task,2022.2.4,143.82591311443406,
positions.xlsx,stimuli.xlsx,stimuli/Social2.png,stimuli/Social1.png,stimuli/Nonsocial1.png,stimuli/Nonsocial2.png,,"(0.7, -0.5)",cs_plus_ns,,,,,0,0,0,0,,,,,0,6,6,11,,,,,,,,,,,,,,,,,,,,,,,,,,,,,,,,,,,,,,,,,,,,,,,,,,,,,,,,,,,,,,480.43733339999926,482.38872159999846,479.93043119999857,482.38872159999846,482.38872159999846,482.38872159999846,0.006999100000030012,0.013251299998955801,20,shock,1,[0.27100769999924523],[0.2710116999987804],482.66640000000007,482.66640000000007,0.008079499999439577,0.008079499999439577,0.017987600000196835,0.05269070000031206,0.05958970000028785,0.10127230000034615,0.10821749999922758,1.0040033999994193,486.15935849999914,489.7842036999991,,,,,,,,,,,,,,,,,,,,,,,,,,,,,6,B,2023-12-07_11h41.32.656,gca_avoidance_task,2022.2.4,143.82591311443406,
positions.xlsx,stimuli.xlsx,stimuli/Social2.png,stimuli/Social1.png,stimuli/Nonsocial1.png,stimuli/Nonsocial2.png,,"(0.7, -0.5)",cs_plus_s,,,,,0,0,0,0,,,,,0,7,7,3,,,,,,,,,,,,,,,,,,,,,,,,,,,,,,,,,,,,,,,,,,,,,,,,,,,,,,,,,,,,,,490.2910849,492.0896353999997,489.7842036999991,492.0896353999997,492.0896353999997,492.0896353999997,0.005886099999770522,0.01337729999977455,20,shock,1,[0.22962039999947592],[0.236480899999151],492.33272079999915,492.33272079999915,0.007796699999744305,0.007796699999744305,0.018409000000247033,0.05305869999938295,0.06001560000004247,0.10169949999908567,0.10862839999936114,1.0044471999990492,495.825601999999,499.40881519999857,,,,,,,,,,,,,,,,,,,,,,,,,,,,,6,B,2023-12-07_11h41.32.656,gca_avoidance_task,2022.2.4,143.82591311443406,
positions.xlsx,stimuli.xlsx,stimuli/Social2.png,stimuli/Social1.png,stimuli/Nonsocial1.png,stimuli/Nonsocial2.png,,"(0.7, 0.5)",cs_minus_s,,,,,0,0,0,0,,,,,0,8,8,6,,,,,,,,,,,,,,,,,,,,,,,,,,,,,,,,,,,,,,,,,,,,,,,,,,,,,,,,,,,,,,499.91572709999855,501.5337107999985,499.40881519999857,501.5337107999985,501.5337107999985,501.5337107999985,0.006406000000424683,0.012658999999985099,25,reward,1,[0.2774230000013631],[0.27742680000119435],501.81845169999906,501.81845169999906,0.007142800001020078,0.007142800001020078,0.01845360000152141,0.053067300001202966,0.06004140000004554,0.10168119999980263,0.10865840000042226,1.0043813000011141,505.3114130999984,508.87373449999905,,,,,,,,,,,,,,,,,,,,,,,,,,,,,6,B,2023-12-07_11h41.32.656,gca_avoidance_task,2022.2.4,143.82591311443406,
positions.xlsx,stimuli.xlsx,stimuli/Social2.png,stimuli/Social1.png,stimuli/Nonsocial1.png,stimuli/Nonsocial2.png,,"(-0.7, 0.5)",cs_plus_s,,,,,0,0,0,0,,,,,0,9,9,0,,,,,,,,,,,,,,,,,,,,,,,,,,,,,,,,,,,,,,,,,,,,,,,,,,,,,,,,,,,,,,509.38061389999893,510.9430728999996,508.87373449999905,510.9430728999996,510.9430728999996,510.9430728999996,0.006201899999723537,0.01322240000081365,25,shock,1,[0.2849213999998028],[0.2849248999991687],511.2347011999991,511.2347011999991,0.007373000000370666,0.007373000000370666,0.018291799999133218,0.05300679999891145,0.05999530000008235,0.1016072999991593,0.10854049999943527,1.004332999998951,514.7276501999986,519.1441939999986,,,,,,,,,,,,,,,,,,,,,,,,,,,,,6,B,2023-12-07_11h41.32.656,gca_avoidance_task,2022.2.4,143.82591311443406,
positions.xlsx,stimuli.xlsx,stimuli/Social2.png,stimuli/Social1.png,stimuli/Nonsocial1.png,stimuli/Nonsocial2.png,,"(0.7, 0.5)",cs_plus_ns,,,,,0,0,0,0,,,,,0,10,10,10,,,,,,,,,,,,,,,,,,,,,,,,,,,,,,,,,,,,,,,,,,,,,,,,,,,,,,,,,,,,,,519.6510116999998,520.7760018999998,519.1441939999986,520.7760018999998,520.7760018999998,520.7760018999998,0.006980499998462619,0.013108999999531079,25,shock,1,[0.23700060000010126],[0.23700449999887496],521.019068399999,521.019068399999,0.00809530000151426,0.00809530000151426,0.017780100000891252,0.05242780000116909,0.059385000000474975,0.10104710000086925,0.1079877000011038,1.0038049000013416,524.5119559999985,528.9145852999991,,,,,,,,,,,,,,,,,,,,,,,,,,,,,6,B,2023-12-07_11h41.32.656,gca_avoidance_task,2022.2.4,143.82591311443406,
positions.xlsx,stimuli.xlsx,stimuli/Social2.png,stimuli/Social1.png,stimuli/Nonsocial1.png,stimuli/Nonsocial2.png,,"(0.7, 0.5)",cs_plus_s,,,,,0,0,0,0,,,,,0,11,11,2,,,,,,,,,,,,,,,,,,,,,,,,,,,,,,,,,,,,,,,,,,,,,,,,,,,,,,,,,,,,,,529.4215025999983,531.0533913999989,528.9145852999991,531.0533913999989,531.0533913999989,531.0533913999989,0.006144699998912984,0.013274499999170075,25,shock,1,[0.23627490000035323],[0.2362783999997191],531.2964154000001,531.2964154000001,0.007899800000814139,0.007899800000814139,0.018550700000560028,0.05327910000050906,0.060210300000107964,0.10185880000062753,0.10881660000086413,1.0045495000013034,534.7893693999995,538.3378467999992,,,,,,,,,,,,,,,,,,,,,,,,,,,,,6,B,2023-12-07_11h41.32.656,gca_avoidance_task,2022.2.4,143.82591311443406,
positions.xlsx,stimuli.xlsx,stimuli/Social2.png,stimuli/Social1.png,stimuli/Nonsocial1.png,stimuli/Nonsocial2.png,,"(0.7, -0.5)",cs_minus_ns,,,,,0,0,0,0,,,,,0,12,12,15,,,,,,,,,,,,,,,,,,,,,,,,,,,,,,,,,,,,,,,,,,,,,,,,,,,,,,,,,,,,,,538.8447074999985,540.212708699999,538.3378467999992,540.212708699999,540.212708699999,540.212708699999,0.006867600000987295,0.013348600001336308,30,reward,1,[0.22959260000061477],[0.2365581000012753],540.4557741999997,540.4557741999997,0.007331799999519717,0.007331799999519717,0.01848210000025574,0.05317379999905825,0.06016819999967993,0.10176219999993918,0.10869499999898835,1.0045272999996087,543.9487066999991,547.9277367999985,,,,,,,,,,,,,,,,,,,,,,,,,,,,,6,B,2023-12-07_11h41.32.656,gca_avoidance_task,2022.2.4,143.82591311443406,
positions.xlsx,stimuli.xlsx,stimuli/Social2.png,stimuli/Social1.png,stimuli/Nonsocial1.png,stimuli/Nonsocial2.png,,"(-0.7, 0.5)",cs_plus_ns,,,,,0,0,0,0,,,,,0,13,13,8,,,,,,,,,,,,,,,,,,,,,,,,,,,,,,,,,,,,,,,,,,,,,,,,,,,,,,,,,,,,,,548.4346067999995,549.5873726999998,547.9277367999985,549.5873726999998,549.5873726999998,549.5873726999998,0.006769399999029702,0.013104999999995925,30,shock,1,[0.22227549999843177],[0.222279300000082],549.816491399999,549.816491399999,0.007864100000006147,0.007864100000006147,0.018355400001382804,0.05304030000115745,0.059989800000039395,0.10166710000157764,0.10864780000156316,1.0044506000012916,553.3094839999994,556.975997399999,,,,,,,,,,,,,,,,,,,,,,,,,,,,,6,B,2023-12-07_11h41.32.656,gca_avoidance_task,2022.2.4,143.82591311443406,
positions.xlsx,stimuli.xlsx,stimuli/Social2.png,stimuli/Social1.png,stimuli/Nonsocial1.png,stimuli/Nonsocial2.png,,"(-0.7, 0.5)",cs_minus_s,,,,,0,0,0,0,,,,,0,14,14,4,,,,,,,,,,,,,,,,,,,,,,,,,,,,,,,,,,,,,,,,,,,,,,,,,,,,,,,,,,,,,,557.4828492999986,559.1286513999985,556.975997399999,559.1286513999985,559.1286513999985,559.1286513999985,0.006166699999084813,0.013274099999762257,35,reward,1,[0.27817770000001474],[0.27818159999878844],559.4133549999988,559.4133549999988,0.006854500001281849,0.006854500001281849,0.018300300000191783,0.05295190000106231,0.059902900000452064,0.10151700000096753,0.10848249999980908,1.0043445000010252,562.9063267999991,567.0172199999997,,,,,,,,,,,,,,,,,,,,,,,,,,,,,6,B,2023-12-07_11h41.32.656,gca_avoidance_task,2022.2.4,143.82591311443406,
positions.xlsx,stimuli.xlsx,stimuli/Social2.png,stimuli/Social1.png,stimuli/Nonsocial1.png,stimuli/Nonsocial2.png,,"(0.7, -0.5)",cs_minus_s,,,,,0,0,0,0,,,,,0,15,15,7,,,,,,,,,,,,,,,,,,,,,,,,,,,,,,,,,,,,,,,,,,,,,,,,,,,,,,,,,,,,,,567.5241412999985,569.2115743999984,567.0172199999997,569.2115743999984,569.2115743999984,569.2115743999984,0.006235299999389099,0.01288609999937762,40,reward,1,[0.28450429999975313],[0.28450789999988046],569.5032460999992,569.5032460999992,0.006639600000198698,0.006639600000198698,0.018507599999793456,0.05316730000049574,0.06011760000001232,0.10182630000053905,0.10874660000081349,1.0045442000009643,572.996167199999,577.2043025999992,,,,,,,,,,,,,,,,,,,,,,,,,,,,,6,B,2023-12-07_11h41.32.656,gca_avoidance_task,2022.2.4,143.82591311443406,
positions.xlsx,stimuli.xlsx,stimuli/Social2.png,stimuli/Social1.png,stimuli/Nonsocial1.png,stimuli/Nonsocial2.png,,"(0.7, -0.5)",cs_plus_ns,,,,,0,0,0,0,,,,,1,0,16,11,,,,,,,,,,,,,,,,,,,,,,,,,,,,,,,,,,,,,,,,,,,,,,,,,,,,,,,,,,,,,,577.7112022000001,578.780617299999,577.2043025999992,578.780617299999,578.780617299999,578.780617299999,0.006644700000833836,0.0134330000000773,40,shock,1,[0.3129136000006838],[0.3129174999994575],579.1000461999993,579.1000461999993,0.007581099998787977,0.007581099998787977,0.018680199998925673,0.05335759999979928,0.06029159999889089,0.10193559999970603,0.10887819999879866,1.00468009999895,582.5930378999983,586.1414802999989,,,,,,,,,,,,,,,,,,,,,,,,,,,,,6,B,2023-12-07_11h41.32.656,gca_avoidance_task,2022.2.4,143.82591311443406,
positions.xlsx,stimuli.xlsx,stimuli/Social2.png,stimuli/Social1.png,stimuli/Nonsocial1.png,stimuli/Nonsocial2.png,,"(-0.7, -0.5)",cs_plus_ns,,,,,0,0,0,0,,,,,1,1,17,9,,,,,,,,,,,,,,,,,,,,,,,,,,,,,,,,,,,,,,,,,,,,,,,,,,,,,,,,,,,,,,586.6483773999989,588.3844155999996,586.1414802999989,588.3844155999996,588.3844155999996,588.3844155999996,0.0065470000008645,0.013161599999875762,40,shock,1,[0.2708216999999422],[0.27082549999977346],588.6621645999985,588.6621645999985,0.0077485000001615845,0.0077485000001615845,0.018657900000107475,0.05329709999932675,0.06024939999952039,0.10188860000016575,0.1088075999996363,1.0046109999984765,592.1550919000001,595.9952519999988,,,,,,,,,,,,,,,,,,,,,,,,,,,,,6,B,2023-12-07_11h41.32.656,gca_avoidance_task,2022.2.4,143.82591311443406,
positions.xlsx,stimuli.xlsx,stimuli/Social2.png,stimuli/Social1.png,stimuli/Nonsocial1.png,stimuli/Nonsocial2.png,,"(-0.7, 0.5)",cs_plus_ns,,,,,0,0,0,0,,,,,1,2,18,8,,,,,,,,,,,,,,,,,,,,,,,,,,,,,,,,,,,,,,,,,,,,,,,,,,,,,,,,,,,,,,596.5021441999997,597.9951599999986,595.9952519999988,597.9951599999986,597.9951599999986,597.9951599999986,0.006530900000143447,0.013119400000505266,40,shock,1,[0.7638497999996616],[0.7638535999994929],598.7659753999997,598.7659753999997,0.008510899999237154,0.008510899999237154,0.018772199999148143,0.0533543000001373,0.06033380000008037,0.10201899999992747,0.10894480000024487,1.0047584000003553,602.2588844999991,606.6128476999984,,,,,,,,,,,,,,,,,,,,,,,,,,,,,6,B,2023-12-07_11h41.32.656,gca_avoidance_task,2022.2.4,143.82591311443406,
positions.xlsx,stimuli.xlsx,stimuli/Social2.png,stimuli/Social1.png,stimuli/Nonsocial1.png,stimuli/Nonsocial2.png,,"(-0.7, -0.5)",cs_plus_s,,,,,0,0,0,0,,,,,1,3,19,1,,,,,,,,,,,,,,,,,,,,,,,,,,,,,,,,,,,,,,,,,,,,,,,,,,,,,,,,,,,,,,607.1197646,608.4253329999992,606.6128476999984,608.4253329999992,608.4253329999992,608.4253329999992,0.006893400000990368,0.013432300000204123,40,shock,1,[0.3337381000001187],[0.33374170000024606],608.7656229999993,608.7656229999993,0.007920699999885983,0.007920699999885983,0.018549499998698593,0.05313609999939217,0.06014080000022659,0.10176139999930456,0.10872399999971094,1.0044820999992226,612.2584857999991,615.8694665999992,,,,,,,,,,,,,,,,,,,,,,,,,,,,,6,B,2023-12-07_11h41.32.656,gca_avoidance_task,2022.2.4,143.82591311443406,
positions.xlsx,stimuli.xlsx,stimuli/Social2.png,stimuli/Social1.png,stimuli/Nonsocial1.png,stimuli/Nonsocial2.png,,"(0.7, -0.5)",cs_minus_s,,,,,0,0,0,0,,,,,1,4,20,7,,,,,,,,,,,,,,,,,,,,,,,,,,,,,,,,,,,,,,,,,,,,,,,,,,,,,,,,,,,,,,616.3763319999998,617.7026785999988,615.8694665999992,617.7026785999988,617.7026785999988,617.7026785999988,0.006674100000964245,0.013073699999949895,45,reward,1,[0.29158450000068115],[0.29158840000127384],618.0012915999996,618.0012915999996,0.007120700000086799,0.007120700000086799,0.01876269999957003,0.05346000000099593,0.060379399999874295,0.10201960000085819,0.10899570000037784,1.0047465000006923,621.494268299999,625.535738999999,,,,,,,,,,,,,,,,,,,,,,,,,,,,,6,B,2023-12-07_11h41.32.656,gca_avoidance_task,2022.2.4,143.82591311443406,
positions.xlsx,stimuli.xlsx,stimuli/Social2.png,stimuli/Social1.png,stimuli/Nonsocial1.png,stimuli/Nonsocial2.png,,"(0.7, 0.5)",cs_plus_s,,,,,0,0,0,0,,,,,1,5,21,2,,,,,,,,,,,,,,,,,,,,,,,,,,,,,,,,,,,,,,,,,,,,,,,,,,,,,,,,,,,,,,626.0426160999996,628.0494932999991,625.535738999999,628.0494932999991,628.0494932999991,628.0494932999991,0.006222199999683653,0.013180699999793433,45,shock,1,[0.22249740000006568],[0.22924419999981183],628.285647499999,628.285647499999,0.007128999999622465,0.007128999999622465,0.01857639999980165,0.05320690000007744,0.0601728000001458,0.1018024000004516,0.10877280000022438,1.0045982999999978,631.7785272000001,635.2992228999992,,,,,,,,,,,,,,,,,,,,,,,,,,,,,6,B,2023-12-07_11h41.32.656,gca_avoidance_task,2022.2.4,143.82591311443406,
positions.xlsx,stimuli.xlsx,stimuli/Social2.png,stimuli/Social1.png,stimuli/Nonsocial1.png,stimuli/Nonsocial2.png,,"(-0.7, -0.5)",cs_minus_ns,,,,,0,0,0,0,,,,,1,6,22,13,,,,,,,,,,,,,,,,,,,,,,,,,,,,,,,,,,,,,,,,,,,,,,,,,,,,,,,,,,,,,,635.8061342000001,637.1394038999988,635.2992228999992,637.1394038999988,637.1394038999988,637.1394038999988,0.006307199999355362,0.013055899999017129,50,reward,1,[0.30553669999972044],[0.3055402999998478],637.451906799999,637.451906799999,0.00791919999937818,0.00791919999937818,0.018802499998855637,0.05346329999883892,0.060442199999670265,0.10207470000023022,0.10899199999948905,1.0047651999993832,640.9448125999988,644.5905829999992,,,,,,,,,,,,,,,,,,,,,,,,,,,,,6,B,2023-12-07_11h41.32.656,gca_avoidance_task,2022.2.4,143.82591311443406,
positions.xlsx,stimuli.xlsx,stimuli/Social2.png,stimuli/Social1.png,stimuli/Nonsocial1.png,stimuli/Nonsocial2.png,,"(-0.7, 0.5)",cs_plus_s,,,,,0,0,0,0,,,,,1,7,23,0,,,,,,,,,,,,,,,,,,,,,,,,,,,,,,,,,,,,,,,,,,,,,,,,,,,,,,,,,,,,,,645.0974235999984,646.264089799999,644.5905829999992,646.264089799999,646.264089799999,646.264089799999,0.006173300000227755,0.013253499999336782,50,shock,1,[0.23632829999951355],[0.2363320999993448],646.5070516999986,646.5070516999986,0.00776409999889438,0.00776409999889438,0.01848519999839482,0.053181199999016826,0.060171499999341904,0.10183709999910207,0.10874729999886767,1.0045252999989316,650.0000081999988,654.3818121999993,,,,,,,,,,,,,,,,,,,,,,,,,,,,,6,B,2023-12-07_11h41.32.656,gca_avoidance_task,2022.2.4,143.82591311443406,
positions.xlsx,stimuli.xlsx,stimuli/Social2.png,stimuli/Social1.png,stimuli/Nonsocial1.png,stimuli/Nonsocial2.png,,"(-0.7, -0.5)",cs_minus_s,,,,,0,0,0,0,,,,,1,8,24,5,,,,,,,,,,,,,,,,,,,,,,,,,,,,,,,,,,,,,,,,,,,,,,,,,,,,,,,,,,,,,,654.8886633999991,655.9511716999987,654.3818121999993,655.9511716999987,655.9511716999987,655.9511716999987,0.006438399999751709,0.013421600000583567,55,reward,1,[0.29205539999929897],[0.2920591999991302],656.2497672999998,656.2497672999998,0.006998299999395385,0.006998299999395385,0.01852609999878041,0.05320269999901939,0.06015869999828283,0.10184909999952652,0.10877699999946344,1.0045441999991453,659.7426784999989,664.1661527999986,,,,,,,,,,,,,,,,,,,,,,,,,,,,,6,B,2023-12-07_11h41.32.656,gca_avoidance_task,2022.2.4,143.82591311443406,
positions.xlsx,stimuli.xlsx,stimuli/Social2.png,stimuli/Social1.png,stimuli/Nonsocial1.png,stimuli/Nonsocial2.png,,"(0.7, -0.5)",cs_minus_ns,,,,,0,0,0,0,,,,,1,9,25,15,,,,,,,,,,,,,,,,,,,,,,,,,,,,,,,,,,,,,,,,,,,,,,,,,,,,,,,,,,,,,,664.6730340999984,666.6243687999995,664.1661527999986,666.6243687999995,666.6243687999995,666.6243687999995,0.007155199999033357,0.013212300000304822,60,reward,1,[0.25711889999911364],[0.2571226999989449],666.8882225999987,666.8882225999987,0.008001900001545437,0.008001900001545437,0.018244300001242664,0.05291800000122748,0.05992550000155461,0.10154049999982817,0.10849180000150227,1.004258099999788,670.3812058999993,674.7699175999987,,,,,,,,,,,,,,,,,,,,,,,,,,,,,6,B,2023-12-07_11h41.32.656,gca_avoidance_task,2022.2.4,143.82591311443406,
positions.xlsx,stimuli.xlsx,stimuli/Social2.png,stimuli/Social1.png,stimuli/Nonsocial1.png,stimuli/Nonsocial2.png,,"(-0.7, 0.5)",cs_minus_s,,,,,0,0,0,0,,,,,1,10,26,4,,,,,,,,,,,,,,,,,,,,,,,,,,,,,,,,,,,,,,,,,,,,,,,,,,,,,,,,,,,,,,675.2767660999998,676.6378314999984,674.7699175999987,676.6378314999984,676.6378314999984,676.6378314999984,0.006080500001189648,0.012716200000795652,65,reward,1,[0.23571609999999055],[0.23571960000117542],676.8808750999997,676.8808750999997,0.006693499999528285,0.006693499999528285,0.018747500000245054,0.05342510000082257,0.060386200000721146,0.10205350000069302,0.10900260000016715,1.004813199999262,680.3737938999984,684.1237291999987,,,,,,,,,,,,,,,,,,,,,,,,,,,,,6,B,2023-12-07_11h41.32.656,gca_avoidance_task,2022.2.4,143.82591311443406,
positions.xlsx,stimuli.xlsx,stimuli/Social2.png,stimuli/Social1.png,stimuli/Nonsocial1.png,stimuli/Nonsocial2.png,,"(-0.7, 0.5)",cs_minus_ns,,,,,0,0,0,0,,,,,1,11,27,12,,,,,,,,,,,,,,,,,,,,,,,,,,,,,,,,,,,,,,,,,,,,,,,,,,,,,,,,,,,,,,684.6305628999999,686.1026959999999,684.1237291999987,686.1026959999999,686.1026959999999,686.1026959999999,0.00680599999941478,0.01325610000094457,70,reward,1,[0.23631120000027295],[0.23631469999963883],686.3458365999995,686.3458365999995,0.007125099999029771,0.007125099999029771,0.018474299999070354,0.05314679999901273,0.06010309999874153,0.10176060000048892,0.10870049999903131,1.0044622000004892,689.8387012999992,694.0399836999986,,,,,,,,,,,,,,,,,,,,,,,,,,,,,6,B,2023-12-07_11h41.32.656,gca_avoidance_task,2022.2.4,143.82591311443406,
positions.xlsx,stimuli.xlsx,stimuli/Social2.png,stimuli/Social1.png,stimuli/Nonsocial1.png,stimuli/Nonsocial2.png,,"(0.7, 0.5)",cs_plus_ns,,,,,0,0,0,0,,,,,1,12,28,10,,,,,,,,,,,,,,,,,,,,,,,,,,,,,,,,,,,,,,,,,,,,,,,,,,,,,,,,,,,,,,694.5468380999991,695.5607112999987,694.0399836999986,695.5607112999987,695.5607112999987,695.5607112999987,0.006523100000777049,0.013355099999898812,70,shock,1,[0.21574320000036096],[0.22253530000125465],695.7898901999997,695.7898901999997,0.007717600001342362,0.007717600001342362,0.018488000001525506,0.053164700000706944,0.06009810000068683,0.10177870000006806,0.10871140000017476,1.0044981000010011,699.2828678999995,703.7131747999993,,,,,,,,,,,,,,,,,,,,,,,,,,,,,6,B,2023-12-07_11h41.32.656,gca_avoidance_task,2022.2.4,143.82591311443406,
positions.xlsx,stimuli.xlsx,stimuli/Social2.png,stimuli/Social1.png,stimuli/Nonsocial1.png,stimuli/Nonsocial2.png,,"(0.7, -0.5)",cs_plus_s,,,,,0,0,0,0,,,,,1,13,29,3,,,,,,,,,,,,,,,,,,,,,,,,,,,,,,,,,,,,,,,,,,,,,,,,,,,,,,,,,,,,,,704.2200759999996,705.9630641999993,703.7131747999993,705.9630641999993,705.9630641999993,705.9630641999993,0.005851299998539616,0.013126799998644856,70,shock,1,[0.23627969999870402],[0.23628379999900062],706.206146999999,706.206146999999,0.007404299998597708,0.007404299998597708,0.01877799999965646,0.05337449999933597,0.06033249999927648,0.10198279999895021,0.10889700000006997,1.0046901999994589,709.6990534999986,714.094729299999,,,,,,,,,,,,,,,,,,,,,,,,,,,,,6,B,2023-12-07_11h41.32.656,gca_avoidance_task,2022.2.4,143.82591311443406,
positions.xlsx,stimuli.xlsx,stimuli/Social2.png,stimuli/Social1.png,stimuli/Nonsocial1.png,stimuli/Nonsocial2.png,,"(0.7, 0.5)",cs_minus_ns,,,,,0,0,0,0,,,,,1,14,30,14,,,,,,,,,,,,,,,,,,,,,,,,,,,,,,,,,,,,,,,,,,,,,,,,,,,,,,,,,,,,,,714.6016044999997,716.0598620000001,714.094729299999,716.0598620000001,716.0598620000001,716.0598620000001,0.006714500001180568,0.012956700000358978,75,reward,1,[0.22914889999992738],[0.22915260000081616],716.2959701999989,716.2959701999989,0.00731400000040594,0.00731400000040594,0.018485399999917718,0.05314189999990049,0.06015120000120078,0.10180340000079013,0.10873290000017732,1.004521200000454,719.7889570999996,723.5735089999998,,,,,,,,,,,,,,,,,,,,,,,,,,,,,6,B,2023-12-07_11h41.32.656,gca_avoidance_task,2022.2.4,143.82591311443406,
positions.xlsx,stimuli.xlsx,stimuli/Social2.png,stimuli/Social1.png,stimuli/Nonsocial1.png,stimuli/Nonsocial2.png,,"(0.7, 0.5)",cs_minus_s,,,,,0,0,0,0,,,,,1,15,31,6,,,,,,,,,,,,,,,,,,,,,,,,,,,,,,,,,,,,,,,,,,,,,,,,,,,,,,,,,,,,,,724.0803796,725.4344709999987,723.5735089999998,725.4344709999987,725.4344709999987,725.4344709999987,0.005561300000408664,0.01305800000045565,80,reward,1,[0.2083797000013874],[0.2083836000001611],725.6497461999988,725.6497461999988,0.0068721999996341765,0.0068721999996341765,0.018456499999956577,0.05317269999977725,0.06013340000026801,0.1017468000009103,0.10866470000109985,1.0045353999994404,729.1427037999983,732.7259058999989,,,,,,,,,,,,,,,,,,,,,,,,,,,,,6,B,2023-12-07_11h41.32.656,gca_avoidance_task,2022.2.4,143.82591311443406,
positions.xlsx,stimuli.xlsx,stimuli/Social2.png,stimuli/Social1.png,stimuli/Nonsocial1.png,stimuli/Nonsocial2.png,,"(0.7, 0.5)",cs_plus_s,,,,,0,0,0,0,,,,,,,,,0,0,0,2,,,,,,,,,,,,,,,,,,,,,,,,,,,,,,,,,,,,,,,,,,,,,,,,,,,,,,,,,,750.6695930999995,752.6487186999984,750.1696849,752.6487186999984,752.6487186999984,752.6487186999984,0.005752900000516092,0.01322220000110974,80,none,0,,,757.6554476000001,757.6554476000001,0.013928000000305474,0.013928000000305474,0.019930600001316634,0.05466400000113936,0.06156350000128441,0.10327150000011898,0.11018450000119628,1.012915700001031,761.1484089999994,764.7663151999986,732.7259058999989,732.7259058999989,732.7259058999989,732.7259058999989,space,15.301973199999338,,,,,,,,,,,,,,,,,,,,,,,6,B,2023-12-07_11h41.32.656,gca_avoidance_task,2022.2.4,143.82591311443406,
positions.xlsx,stimuli.xlsx,stimuli/Social2.png,stimuli/Social1.png,stimuli/Nonsocial1.png,stimuli/Nonsocial2.png,,"(0.7, -0.5)",cs_minus_s,,,,,0,0,0,0,,,,,,,,,0,1,1,7,,,,,,,,,,,,,,,,,,,,,,,,,,,,,,,,,,,,,,,,,,,,,,,,,,,,,,,,,,765.2731982999994,766.6620040999987,764.7663151999986,766.6620040999987,766.6620040999987,766.6620040999987,0.00599060000058671,0.013102300001264666,85,reward,1,[0.49307020000014745],[0.4930737000013323],767.1620016999987,767.1620016999987,0.007249000000228989,0.007249000000228989,0.018624199999976554,0.05329859999983455,0.060255999998844345,0.10188419999940379,0.10887170000023616,1.0046361000004254,770.654917599999,775.1547795999995,,,,,,,,,,,,,,,,,,,,,,,,,,,,,6,B,2023-12-07_11h41.32.656,gca_avoidance_task,2022.2.4,143.82591311443406,
positions.xlsx,stimuli.xlsx,stimuli/Social2.png,stimuli/Social1.png,stimuli/Nonsocial1.png,stimuli/Nonsocial2.png,,"(-0.7, 0.5)",cs_minus_ns,,,,,0,0,0,0,,,,,,,,,0,2,2,12,,,,,,,,,,,,,,,,,,,,,,,,,,,,,,,,,,,,,,,,,,,,,,,,,,,,,,,,,,775.6616495999988,777.2727139999988,775.1547795999995,777.2727139999988,777.2727139999988,777.2727139999988,0.0066882999999506865,0.013181600001189508,90,reward,1,[0.46533480000107375],[0.47218229999998584],777.7518782999996,777.7518782999996,0.007843299999876763,0.007843299999876763,0.019084100000327453,0.05369029999928898,0.06066079999982321,0.1023339000003034,0.10932639999919047,1.0050415999994584,781.2447837,784.9321873999997,,,,,,,,,,,,,,,,,,,,,,,,,,,,,6,B,2023-12-07_11h41.32.656,gca_avoidance_task,2022.2.4,143.82591311443406,
positions.xlsx,stimuli.xlsx,stimuli/Social2.png,stimuli/Social1.png,stimuli/Nonsocial1.png,stimuli/Nonsocial2.png,,"(-0.7, -0.5)",cs_plus_ns,,,,,0,0,0,0,,,,,,,,,0,3,3,9,,,,,,,,,,,,,,,,,,,,,,,,,,,,,,,,,,,,,,,,,,,,,,,,,,,,,,,,,,785.4390465999986,787.2653817999999,784.9321873999997,787.2653817999999,787.2653817999999,787.2653817999999,0.00674310000067635,0.013364300000830553,90,none,0,,,792.2721122999992,792.2721122999992,0.014234100000976468,0.014234100000976468,0.020074899999599438,0.05478380000022298,0.06172300000071118,0.1033967000003031,0.11033359999964887,1.0130533000010473,795.7650381999993,799.6607758999999,,,,,,,,,,,,,,,,,,,,,,,,,,,,,6,B,2023-12-07_11h41.32.656,gca_avoidance_task,2022.2.4,143.82591311443406,
positions.xlsx,stimuli.xlsx,stimuli/Social2.png,stimuli/Social1.png,stimuli/Nonsocial1.png,stimuli/Nonsocial2.png,,"(0.7, -0.5)",cs_plus_s,,,,,0,0,0,0,,,,,,,,,0,4,4,3,,,,,,,,,,,,,,,,,,,,,,,,,,,,,,,,,,,,,,,,,,,,,,,,,,,,,,,,,,800.1676312999989,801.8273014999995,799.6607758999999,801.8273014999995,801.8273014999995,801.8273014999995,0.006352599999445374,0.013279899998451583,90,none,0,,,806.8340381999988,806.8340381999988,0.013757699998677708,0.013757699998677708,0.01995349999924656,0.054656899999827147,0.06160499999896274,0.10326720000011846,0.11023719999866444,1.0129278999993403,810.3270322999997,814.2852034999996,,,,,,,,,,,,,,,,,,,,,,,,,,,,,6,B,2023-12-07_11h41.32.656,gca_avoidance_task,2022.2.4,143.82591311443406,
positions.xlsx,stimuli.xlsx,stimuli/Social2.png,stimuli/Social1.png,stimuli/Nonsocial1.png,stimuli/Nonsocial2.png,,"(-0.7, 0.5)",cs_minus_s,,,,,0,0,0,0,,,,,,,,,0,5,5,4,,,,,,,,,,,,,,,,,,,,,,,,,,,,,,,,,,,,,,,,,,,,,,,,,,,,,,,,,,814.7920418999984,816.4517026999983,814.2852034999996,816.4517026999983,816.4517026999983,816.4517026999983,0.006479899999249028,0.013402599999608356,95,reward,1,[0.5628453999997873],[0.5628493999993225],817.0211245999999,817.0211245999999,0.006935200000953046,0.006935200000953046,0.018698699999731616,0.05334399999992456,0.0603012999999919,0.10196100000030128,0.10892940000121598,1.0047475000010309,820.5141201999995,824.6528183999999,,,,,,,,,,,,,,,,,,,,,,,,,,,,,6,B,2023-12-07_11h41.32.656,gca_avoidance_task,2022.2.4,143.82591311443406,
positions.xlsx,stimuli.xlsx,stimuli/Social2.png,stimuli/Social1.png,stimuli/Nonsocial1.png,stimuli/Nonsocial2.png,,"(-0.7, -0.5)",cs_minus_ns,,,,,0,0,0,0,,,,,,,,,0,6,6,13,,,,,,,,,,,,,,,,,,,,,,,,,,,,,,,,,,,,,,,,,,,,,,,,,,,,,,,,,,825.159694,826.9096270999999,824.6528183999999,826.9096270999999,826.9096270999999,826.9096270999999,0.006564700001035817,0.013289900000017951,100,reward,1,[0.4796368999996048],[0.47964090000095894],827.3956968999992,827.3956968999992,0.007309399999940069,0.007309399999940069,0.01790219999929832,0.052636899999924935,0.05961429999842949,0.10120219999953406,0.10815919999913604,1.0039954999992915,830.8886505999999,834.9857435999984,,,,,,,,,,,,,,,,,,,,,,,,,,,,,6,B,2023-12-07_11h41.32.656,gca_avoidance_task,2022.2.4,143.82591311443406,
positions.xlsx,stimuli.xlsx,stimuli/Social2.png,stimuli/Social1.png,stimuli/Nonsocial1.png,stimuli/Nonsocial2.png,,"(0.7, -0.5)",cs_minus_ns,,,,,0,0,0,0,,,,,,,,,0,7,7,15,,,,,,,,,,,,,,,,,,,,,,,,,,,,,,,,,,,,,,,,,,,,,,,,,,,,,,,,,,835.4926340999991,836.5759333999995,834.9857435999984,836.5759333999995,836.5759333999995,836.5759333999995,0.006045400001312373,0.013129300001310185,105,reward,1,[0.6528218000003108],[0.6528259000006074],837.2355954999985,837.2355954999985,0.007568600000013248,0.007568600000013248,0.01834239999880083,0.05298219999895082,0.05998319999889645,0.10161799999877985,0.10860529999990831,1.0043834999996761,840.7285588999985,844.6520610999996,,,,,,,,,,,,,,,,,,,,,,,,,,,,,6,B,2023-12-07_11h41.32.656,gca_avoidance_task,2022.2.4,143.82591311443406,
positions.xlsx,stimuli.xlsx,stimuli/Social2.png,stimuli/Social1.png,stimuli/Nonsocial1.png,stimuli/Nonsocial2.png,,"(0.7, 0.5)",cs_minus_s,,,,,0,0,0,0,,,,,,,,,0,8,8,6,,,,,,,,,,,,,,,,,,,,,,,,,,,,,,,,,,,,,,,,,,,,,,,,,,,,,,,,,,845.1589146999995,846.2005375999997,844.6520610999996,846.2005375999997,846.2005375999997,846.2005375999997,0.005692599999747472,0.01320069999928819,110,reward,1,[0.5417209999995976],[0.5417247999994288],846.7490967999984,846.7490967999984,0.0065520999996806495,0.0065520999996806495,0.01872460000049614,0.05342030000065279,0.060345400001097005,0.10196980000000622,0.10894200000075216,1.0047054000006028,850.2420822999993,854.4502764999997,,,,,,,,,,,,,,,,,,,,,,,,,,,,,6,B,2023-12-07_11h41.32.656,gca_avoidance_task,2022.2.4,143.82591311443406,
positions.xlsx,stimuli.xlsx,stimuli/Social2.png,stimuli/Social1.png,stimuli/Nonsocial1.png,stimuli/Nonsocial2.png,,"(-0.7, -0.5)",cs_minus_s,,,,,0,0,0,0,,,,,,,,,0,9,9,5,,,,,,,,,,,,,,,,,,,,,,,,,,,,,,,,,,,,,,,,,,,,,,,,,,,,,,,,,,854.9571397,856.8668019999986,854.4502764999997,856.8668019999986,856.8668019999986,856.8668019999986,0.005860900000698166,0.013245399999505025,115,reward,1,[0.5279449999998178],[0.5279491000001144],857.4014904999985,857.4014904999985,0.007079599999997299,0.007079599999997299,0.018386200001259567,0.05310950000057346,0.060021500001312234,0.10168590000102995,0.10862199999974109,1.0044305000010354,860.8944652999999,864.9776152999984,,,,,,,,,,,,,,,,,,,,,,,,,,,,,6,B,2023-12-07_11h41.32.656,gca_avoidance_task,2022.2.4,143.82591311443406,
positions.xlsx,stimuli.xlsx,stimuli/Social2.png,stimuli/Social1.png,stimuli/Nonsocial1.png,stimuli/Nonsocial2.png,,"(0.7, -0.5)",cs_plus_ns,,,,,0,0,0,0,,,,,,,,,0,10,10,11,,,,,,,,,,,,,,,,,,,,,,,,,,,,,,,,,,,,,,,,,,,,,,,,,,,,,,,,,,865.4845353000001,867.421902099999,864.9776152999984,867.421902099999,867.421902099999,867.421902099999,0.006418200000553043,0.013401100000919541,115,none,0,,,872.4286941999999,872.4286941999999,0.014548099999956321,0.014548099999956321,0.02021430000058899,0.05479900000136695,0.06176919999961683,0.10346610000124201,0.11041880000084348,1.013079899999866,875.9216074999986,880.143688099999,,,,,,,,,,,,,,,,,,,,,,,,,,,,,6,B,2023-12-07_11h41.32.656,gca_avoidance_task,2022.2.4,143.82591311443406,
positions.xlsx,stimuli.xlsx,stimuli/Social2.png,stimuli/Social1.png,stimuli/Nonsocial1.png,stimuli/Nonsocial2.png,,"(-0.7, 0.5)",cs_plus_s,,,,,0,0,0,0,,,,,,,,,0,11,11,0,,,,,,,,,,,,,,,,,,,,,,,,,,,,,,,,,,,,,,,,,,,,,,,,,,,,,,,,,,880.6506059999992,882.3449752999986,880.143688099999,882.3449752999986,882.3449752999986,882.3449752999986,0.0060296999999991385,0.01333149999845773,115,shock,1,[0.5072805999989214],[0.5072845999984565],882.8588639999998,882.8588639999998,0.007263800000146148,0.007263800000146148,0.01848249999966356,0.05317110000032699,0.0601358000003529,0.1017243000005692,0.10868389999995998,1.004503800000748,886.3517631999985,890.4904634999984,,,,,,,,,,,,,,,,,,,,,,,,,,,,,6,B,2023-12-07_11h41.32.656,gca_avoidance_task,2022.2.4,143.82591311443406,
positions.xlsx,stimuli.xlsx,stimuli/Social2.png,stimuli/Social1.png,stimuli/Nonsocial1.png,stimuli/Nonsocial2.png,,"(-0.7, -0.5)",cs_plus_s,,,,,0,0,0,0,,,,,,,,,0,12,12,1,,,,,,,,,,,,,,,,,,,,,,,,,,,,,,,,,,,,,,,,,,,,,,,,,,,,,,,,,,890.9973540999999,892.3653721999999,890.4904634999984,892.3653721999999,892.3653721999999,892.3653721999999,0.00579219999963243,0.013421900001048925,115,none,0,,,897.3721111999985,897.3721111999985,0.013349200000448036,0.013349200000448036,0.02016619999994873,0.05484740000065358,0.06186359999992419,0.10347750000073574,0.11041130000012345,1.013160100001187,900.8650554999986,904.4482787999987,,,,,,,,,,,,,,,,,,,,,,,,,,,,,6,B,2023-12-07_11h41.32.656,gca_avoidance_task,2022.2.4,143.82591311443406,
positions.xlsx,stimuli.xlsx,stimuli/Social2.png,stimuli/Social1.png,stimuli/Nonsocial1.png,stimuli/Nonsocial2.png,,"(0.7, 0.5)",cs_plus_ns,,,,,0,0,0,0,,,,,,,,,0,13,13,10,,,,,,,,,,,,,,,,,,,,,,,,,,,,,,,,,,,,,,,,,,,,,,,,,,,,,,,,,,904.9551426999988,906.3439810999989,904.4482787999987,906.3439810999989,906.3439810999989,906.3439810999989,0.006986200000028475,0.013096000000587082,115,none,0,,,911.3507593999984,911.3507593999984,0.013927200001489837,0.013927200001489837,0.0199244000014005,0.054548400001294794,0.06151570000110951,0.10313550000137184,0.11012810000102036,1.0128658000012365,914.8436979999988,918.9199391999991,,,,,,,,,,,,,,,,,,,,,,,,,,,,,6,B,2023-12-07_11h41.32.656,gca_avoidance_task,2022.2.4,143.82591311443406,
positions.xlsx,stimuli.xlsx,stimuli/Social2.png,stimuli/Social1.png,stimuli/Nonsocial1.png,stimuli/Nonsocial2.png,,"(-0.7, 0.5)",cs_plus_ns,,,,,0,0,0,0,,,,,,,,,0,14,14,8,,,,,,,,,,,,,,,,,,,,,,,,,,,,,,,,,,,,,,,,,,,,,,,,,,,,,,,,,,919.4268198999998,920.5726308999983,918.9199391999991,920.5726308999983,920.5726308999983,920.5726308999983,0.00691230000120413,0.013199700000768644,115,shock,1,[0.8820499000012205],[0.8820537000010518],921.4614614999991,921.4614614999991,0.0076188000002730405,0.0076188000002730405,0.018345399999816436,0.053070399999342044,0.060004000000844826,0.10169830000086222,0.10865089999970223,1.0043851999998878,924.9543938999996,928.5584332999988,,,,,,,,,,,,,,,,,,,,,,,,,,,,,6,B,2023-12-07_11h41.32.656,gca_avoidance_task,2022.2.4,143.82591311443406,
positions.xlsx,stimuli.xlsx,stimuli/Social2.png,stimuli/Social1.png,stimuli/Nonsocial1.png,stimuli/Nonsocial2.png,,"(0.7, 0.5)",cs_minus_ns,,,,,0,0,0,0,,,,,,,,,0,15,15,14,,,,,,,,,,,,,,,,,,,,,,,,,,,,,,,,,,,,,,,,,,,,,,,,,,,,,,,,,,929.0652953999997,930.8916206999984,928.5584332999988,930.8916206999984,930.8916206999984,930.8916206999984,0.006284299999606446,0.013320600000952254,120,reward,1,[0.6531286999997974],[0.6531324999996286],931.5513074999999,931.5513074999999,0.007533600000897422,0.007533600000897422,0.018568200001027435,0.053326600000218605,0.06022740000116755,0.10191970000050787,0.10882410000158416,1.004641100000299,935.0443242999991,938.5927729999985,,,,,,,,,,,,,,,,,,,,,,,,,,,,,6,B,2023-12-07_11h41.32.656,gca_avoidance_task,2022.2.4,143.82591311443406,
positions.xlsx,stimuli.xlsx,stimuli/Social2.png,stimuli/Social1.png,stimuli/Nonsocial1.png,stimuli/Nonsocial2.png,,"(-0.7, 0.5)",cs_plus_s,,,,,0,0,0,0,,,,,,,,,1,0,16,0,,,,,,,,,,,,,,,,,,,,,,,,,,,,,,,,,,,,,,,,,,,,,,,,,,,,,,,,,,939.0996274999998,940.6065036999989,938.5927729999985,940.6065036999989,940.6065036999989,940.6065036999989,0.006020999999236665,0.013275399998747162,120,shock,1,[0.7919033999987732],[0.791907099999662],941.4051139999992,941.4051139999992,0.007240200000524055,0.007240200000524055,0.01837580000028538,0.05301140000119631,0.05994060000011814,0.10161210000114806,0.10858970000117552,1.0043688000005204,944.8980757999998,949.0993032999995,,,,,,,,,,,,,,,,,,,,,,,,,,,,,6,B,2023-12-07_11h41.32.656,gca_avoidance_task,2022.2.4,143.82591311443406,
positions.xlsx,stimuli.xlsx,stimuli/Social2.png,stimuli/Social1.png,stimuli/Nonsocial1.png,stimuli/Nonsocial2.png,,"(-0.7, -0.5)",cs_minus_ns,,,,,0,0,0,0,,,,,,,,,1,1,17,13,,,,,,,,,,,,,,,,,,,,,,,,,,,,,,,,,,,,,,,,,,,,,,,,,,,,,,,,,,949.6061196999999,950.6686133999992,949.0993032999995,950.6686133999992,950.6686133999992,950.6686133999992,0.006625200001508347,0.01319350000085251,125,reward,1,[0.7224186000003101],[0.7293876000003365],951.4046980999992,951.4046980999992,0.008038699999815435,0.008038699999815435,0.018147399998269975,0.0529010999998718,0.059844800000064424,0.10144379999837838,0.10841489999984333,1.0042243999996572,954.8976598999998,958.5364456999996,,,,,,,,,,,,,,,,,,,,,,,,,,,,,6,B,2023-12-07_11h41.32.656,gca_avoidance_task,2022.2.4,143.82591311443406,
positions.xlsx,stimuli.xlsx,stimuli/Social2.png,stimuli/Social1.png,stimuli/Nonsocial1.png,stimuli/Nonsocial2.png,,"(-0.7, -0.5)",cs_plus_s,,,,,0,0,0,0,,,,,,,,,1,2,18,1,,,,,,,,,,,,,,,,,,,,,,,,,,,,,,,,,,,,,,,,,,,,,,,,,,,,,,,,,,959.0432776999987,960.3835503999999,958.5364456999996,960.3835503999999,960.3835503999999,960.3835503999999,0.00608990000000631,0.013387599999987287,125,none,0,,,965.3902822,965.3902822,0.0135803000011947,0.0135803000011947,0.02009840000027907,0.054792900000393274,0.06175990000156162,0.10339080000085232,0.11037790000045788,1.013099499999953,968.8832234999991,972.5983736999988,,,,,,,,,,,,,,,,,,,,,,,,,,,,,6,B,2023-12-07_11h41.32.656,gca_avoidance_task,2022.2.4,143.82591311443406,
positions.xlsx,stimuli.xlsx,stimuli/Social2.png,stimuli/Social1.png,stimuli/Nonsocial1.png,stimuli/Nonsocial2.png,,"(-0.7, 0.5)",cs_minus_s,,,,,0,0,0,0,,,,,,,,,1,3,19,4,,,,,,,,,,,,,,,,,,,,,,,,,,,,,,,,,,,,,,,,,,,,,,,,,,,,,,,,,,973.1052378999993,974.3759959999988,972.5983736999988,974.3759959999988,974.3759959999988,974.3759959999988,0.005906600001253537,0.0131548000008479,130,reward,1,[0.5070550000000367],[0.5070584000004601],974.8898690999995,974.8898690999995,0.0070976000006339746,0.0070976000006339746,0.018605299999762792,0.05336410000018077,0.060287399999651825,0.10187519999999495,0.10886920000120881,1.0046547000001738,978.3828215999984,982.6257387999995,,,,,,,,,,,,,,,,,,,,,,,,,,,,,6,B,2023-12-07_11h41.32.656,gca_avoidance_task,2022.2.4,143.82591311443406,
positions.xlsx,stimuli.xlsx,stimuli/Social2.png,stimuli/Social1.png,stimuli/Nonsocial1.png,stimuli/Nonsocial2.png,,"(0.7, -0.5)",cs_plus_ns,,,,,0,0,0,0,,,,,,,,,1,4,20,11,,,,,,,,,,,,,,,,,,,,,,,,,,,,,,,,,,,,,,,,,,,,,,,,,,,,,,,,,,983.1326493999986,984.6117514999987,982.6257387999995,984.6117514999987,984.6117514999987,984.6117514999987,0.006688399998893146,0.013409799999863026,130,none,0,,,989.6184650999985,989.6184650999985,0.014445099999647937,0.014445099999647937,0.020133099998929538,0.054853099998581456,0.06182929999886255,0.10347899999942456,0.11043969999991532,1.0131726999989041,993.1113745999992,997.0904718999991,,,,,,,,,,,,,,,,,,,,,,,,,,,,,6,B,2023-12-07_11h41.32.656,gca_avoidance_task,2022.2.4,143.82591311443406,
positions.xlsx,stimuli.xlsx,stimuli/Social2.png,stimuli/Social1.png,stimuli/Nonsocial1.png,stimuli/Nonsocial2.png,,"(0.7, -0.5)",cs_plus_s,,,,,0,0,0,0,,,,,,,,,1,5,21,3,,,,,,,,,,,,,,,,,,,,,,,,,,,,,,,,,,,,,,,,,,,,,,,,,,,,,,,,,,997.5973166999993,999.4583323999996,997.0904718999991,999.4583323999996,999.4583323999996,999.4583323999996,0.00628090000100201,0.013390000000072177,130,none,0,,,1004.4651581999988,1004.4651581999988,0.013701800000490039,0.013701800000490039,0.02018320000024687,0.05483490000005986,0.061823800000638585,0.10341470000093977,0.11041990000012447,1.0131345000008878,1007.9580580999991,1012.2495898999987,,,,,,,,,,,,,,,,,,,,,,,,,,,,,6,B,2023-12-07_11h41.32.656,gca_avoidance_task,2022.2.4,143.82591311443406,
positions.xlsx,stimuli.xlsx,stimuli/Social2.png,stimuli/Social1.png,stimuli/Nonsocial1.png,stimuli/Nonsocial2.png,,"(0.7, 0.5)",cs_minus_ns,,,,,0,0,0,0,,,,,,,,,1,6,22,14,,,,,,,,,,,,,,,,,,,,,,,,,,,,,,,,,,,,,,,,,,,,,,,,,,,,,,,,,,1012.7564550999996,1014.610532499999,1012.2495898999987,1014.610532499999,1014.610532499999,1014.610532499999,0.007232899999507936,0.012867800000094576,135,reward,1,[0.6247973999998067],[0.6248008999991725],1015.2424879999999,1015.2424879999999,0.007943900000100257,0.007943900000100257,0.018250900000566617,0.05288689999906637,0.059851899999557645,0.10147669999969366,0.10844700000052399,1.0042006999992736,1018.7354388999993,1022.4783055999997,,,,,,,,,,,,,,,,,,,,,,,,,,,,,6,B,2023-12-07_11h41.32.656,gca_avoidance_task,2022.2.4,143.82591311443406,
positions.xlsx,stimuli.xlsx,stimuli/Social2.png,stimuli/Social1.png,stimuli/Nonsocial1.png,stimuli/Nonsocial2.png,,"(-0.7, 0.5)",cs_minus_ns,,,,,0,0,0,0,,,,,,,,,1,7,23,12,,,,,,,,,,,,,,,,,,,,,,,,,,,,,,,,,,,,,,,,,,,,,,,,,,,,,,,,,,1022.985282399999,1024.3254345999994,1022.4783055999997,1024.3254345999994,1024.3254345999994,1024.3254345999994,0.007366199999523815,0.01322970000001078,140,reward,1,[0.43079219999890483],[0.4307958999997936],1024.7630270999998,1024.7630270999998,0.008028700000068056,0.008028700000068056,0.018561599999884493,0.053123499999855994,0.06008019999899261,0.10181519999969169,0.10873189999983879,1.0045124999996915,1028.2559020999997,1031.818254599999,,,,,,,,,,,,,,,,,,,,,,,,,,,,,6,B,2023-12-07_11h41.32.656,gca_avoidance_task,2022.2.4,143.82591311443406,
positions.xlsx,stimuli.xlsx,stimuli/Social2.png,stimuli/Social1.png,stimuli/Nonsocial1.png,stimuli/Nonsocial2.png,,"(-0.7, 0.5)",cs_plus_ns,,,,,0,0,0,0,,,,,,,,,1,8,24,8,,,,,,,,,,,,,,,,,,,,,,,,,,,,,,,,,,,,,,,,,,,,,,,,,,,,,,,,,,1032.3251253999988,1033.4848181999987,1031.818254599999,1033.4848181999987,1033.4848181999987,1033.4848181999987,0.006758199999239878,0.013081899998724111,140,shock,1,[0.8751138999996328],[0.8751176999994641],1034.3667134999996,1034.3667134999996,0.00785369999903196,0.00785369999903196,0.01849729999958072,0.05315359999985958,0.060101099999883445,0.10173419999955513,0.10867680000046676,1.0044928999996046,1037.859678499999,1041.9845176999988,,,,,,,,,,,,,,,,,,,,,,,,,,,,,6,B,2023-12-07_11h41.32.656,gca_avoidance_task,2022.2.4,143.82591311443406,
positions.xlsx,stimuli.xlsx,stimuli/Social2.png,stimuli/Social1.png,stimuli/Nonsocial1.png,stimuli/Nonsocial2.png,,"(-0.7, -0.5)",cs_minus_s,,,,,0,0,0,0,,,,,,,,,1,9,25,5,,,,,,,,,,,,,,,,,,,,,,,,,,,,,,,,,,,,,,,,,,,,,,,,,,,,,,,,,,1042.4914012999998,1044.4288134999988,1041.9845176999988,1044.4288134999988,1044.4288134999988,1044.4288134999988,0.006454899999880581,0.013177400000131456,145,reward,1,[0.5974353999990853],[0.5974391999989166],1045.0329770999997,1045.0329770999997,0.007225400000606896,0.007225400000606896,0.01821580000068934,0.052895900000294205,0.05984589999934542,0.10153750000063155,0.10842640000009851,1.0042274999996152,1048.5258756999992,1052.2896715999996,,,,,,,,,,,,,,,,,,,,,,,,,,,,,6,B,2023-12-07_11h41.32.656,gca_avoidance_task,2022.2.4,143.82591311443406,
positions.xlsx,stimuli.xlsx,stimuli/Social2.png,stimuli/Social1.png,stimuli/Nonsocial1.png,stimuli/Nonsocial2.png,,"(-0.7, -0.5)",cs_plus_ns,,,,,0,0,0,0,,,,,,,,,1,10,26,9,,,,,,,,,,,,,,,,,,,,,,,,,,,,,,,,,,,,,,,,,,,,,,,,,,,,,,,,,,1052.7965320999992,1054.3867615999989,1052.2896715999996,1054.3867615999989,1054.3867615999989,1054.3867615999989,0.007427000000461703,0.013203700000303797,145,none,0,,,1059.3934895999992,1059.3934895999992,0.014304900001661736,0.014304900001661736,0.019954000001234817,0.0546466000014334,0.06157650000022841,0.10327890000007756,0.11017900000115333,1.0130007000007026,1062.8864934999983,1066.434950499999,,,,,,,,,,,,,,,,,,,,,,,,,,,,,6,B,2023-12-07_11h41.32.656,gca_avoidance_task,2022.2.4,143.82591311443406,
positions.xlsx,stimuli.xlsx,stimuli/Social2.png,stimuli/Social1.png,stimuli/Nonsocial1.png,stimuli/Nonsocial2.png,,"(0.7, -0.5)",cs_minus_ns,,,,,0,0,0,0,,,,,,,,,1,11,27,15,,,,,,,,,,,,,,,,,,,,,,,,,,,,,,,,,,,,,,,,,,,,,,,,,,,,,,,,,,1066.9417980999988,1068.601466099999,1066.434950499999,1068.601466099999,1068.601466099999,1068.601466099999,0.006524500000523403,0.013052199999947334,150,reward,1,[0.4653650000000198],[0.4653684000004432],1069.0736811999996,1069.0736811999996,0.007353399998464738,0.007353399998464738,0.018827699999746983,0.05347569999867119,0.060420599998906255,0.10210430000006454,0.10903889999826788,1.004903999999442,1072.566626599999,1076.3234568999997,,,,,,,,,,,,,,,,,,,,,,,,,,,,,6,B,2023-12-07_11h41.32.656,gca_avoidance_task,2022.2.4,143.82591311443406,
positions.xlsx,stimuli.xlsx,stimuli/Social2.png,stimuli/Social1.png,stimuli/Nonsocial1.png,stimuli/Nonsocial2.png,,"(0.7, 0.5)",cs_minus_s,,,,,0,0,0,0,,,,,,,,,1,12,28,6,,,,,,,,,,,,,,,,,,,,,,,,,,,,,,,,,,,,,,,,,,,,,,,,,,,,,,,,,,1076.8303317999998,1078.8302286999988,1076.3234568999997,1078.8302286999988,1078.8302286999988,1078.8302286999988,0.005891299999348121,0.013166499998988002,155,reward,1,[0.43792169999869657],[0.4379252999988239],1079.2747175999993,1079.2747175999993,0.006988699999055825,0.006988699999055825,0.018520100000387174,0.05316569999922649,0.06013209999946412,0.10181700000066485,0.10877749999963271,1.0044882000001962,1082.7676555999988,1086.4758333999998,,,,,,,,,,,,,,,,,,,,,,,,,,,,,6,B,2023-12-07_11h41.32.656,gca_avoidance_task,2022.2.4,143.82591311443406,
positions.xlsx,stimuli.xlsx,stimuli/Social2.png,stimuli/Social1.png,stimuli/Nonsocial1.png,stimuli/Nonsocial2.png,,"(0.7, 0.5)",cs_plus_ns,,,,,0,0,0,0,,,,,,,,,1,13,29,10,,,,,,,,,,,,,,,,,,,,,,,,,,,,,,,,,,,,,,,,,,,,,,,,,,,,,,,,,,1086.9826897999992,1088.024268699999,1086.4758333999998,1088.024268699999,1088.024268699999,1088.024268699999,0.00711330000012822,0.013481099998898571,155,none,0,,,1093.0310663,1093.0310663,0.014164499998514657,0.014164499998514657,0.02027490000000398,0.054969499999060645,0.061922999999296735,0.10359319999952277,0.11052070000005187,1.0132232999985717,1096.5240067999985,1100.4961116999984,,,,,,,,,,,,,,,,,,,,,,,,,,,,,6,B,2023-12-07_11h41.32.656,gca_avoidance_task,2022.2.4,143.82591311443406,
positions.xlsx,stimuli.xlsx,stimuli/Social2.png,stimuli/Social1.png,stimuli/Nonsocial1.png,stimuli/Nonsocial2.png,,"(0.7, 0.5)",cs_plus_s,,,,,0,0,0,0,,,,,,,,,1,14,30,2,,,,,,,,,,,,,,,,,,,,,,,,,,,,,,,,,,,,,,,,,,,,,,,,,,,,,,,,,,1101.0029808999989,1102.2112676999986,1100.4961116999984,1102.2112676999986,1102.2112676999986,1102.2112676999986,0.006059899998945184,0.013153699999747914,155,none,0,,,1107.2180191999996,1107.2180191999996,0.013210799999797018,0.013210799999797018,0.019937699998990865,0.0545667999995203,0.061525999999503256,0.10316809999858378,0.11014569999861124,1.0128836999992927,1110.710927799999,1114.6066138999995,,,,,,,,,,,,,,,,,,,,,,,,,,,,,6,B,2023-12-07_11h41.32.656,gca_avoidance_task,2022.2.4,143.82591311443406,
positions.xlsx,stimuli.xlsx,stimuli/Social2.png,stimuli/Social1.png,stimuli/Nonsocial1.png,stimuli/Nonsocial2.png,,"(0.7, -0.5)",cs_minus_s,,,,,0,0,0,0,,,,,,,,,1,15,31,7,,,,,,,,,,,,,,,,,,,,,,,,,,,,,,,,,,,,,,,,,,,,,,,,,,,,,,,,,,1115.1135215999984,1116.6412732999997,1114.6066138999995,1116.6412732999997,1116.6412732999997,1116.6412732999997,0.005801600000268081,0.013445500000671018,160,reward,1,[0.2573515000003681],[0.2573551999994379],1116.9051297999995,1116.9051297999995,0.007197400000222842,0.007197400000222842,0.01844400000118185,0.05317699999977776,0.060103600000729784,0.10176049999972747,0.10869860000093468,1.0044546000008268,1120.3980495999986,1124.1062420999988,,,,,,,,,,,,,,,,,,,,,,,,,,,,,6,B,2023-12-07_11h41.32.656,gca_avoidance_task,2022.2.4,143.82591311443406,
positions.xlsx,stimuli.xlsx,stimuli/Social2.png,stimuli/Social1.png,stimuli/Nonsocial1.png,stimuli/Nonsocial2.png,,"(-0.7, 0.5)",cs_plus_s,,,,,0,0,0,0,,,,,,,,,2,0,32,0,,,,,,,,,,,,,,,,,,,,,,,,,,,,,,,,,,,,,,,,,,,,,,,,,,,,,,,,,,1124.6131728,1126.0922824999998,1124.1062420999988,1126.0922824999998,1126.0922824999998,1126.0922824999998,0.007027899999229703,0.013316599999598111,160,shock,0,,,1127.2589144999984,1127.2589144999984,0.007241899998916779,0.007241899998916779,0.01828609999938635,0.0529339999993681,0.05990559999918332,0.10151889999906416,0.1085250999985874,1.0042935999990732,1130.7518335999994,1134.7655466999986,,,,,,,,,,,,,,,,,,,,,,,,,,,,,6,B,2023-12-07_11h41.32.656,gca_avoidance_task,2022.2.4,143.82591311443406,
positions.xlsx,stimuli.xlsx,stimuli/Social2.png,stimuli/Social1.png,stimuli/Nonsocial1.png,stimuli/Nonsocial2.png,,"(-0.7, -0.5)",cs_minus_s,,,,,0,0,0,0,,,,,,,,,2,1,33,5,,,,,,,,,,,,,,,,,,,,,,,,,,,,,,,,,,,,,,,,,,,,,,,,,,,,,,,,,,1135.2724703999993,1136.4113039999993,1134.7655466999986,1136.4113039999993,1136.4113039999993,1136.4113039999993,0.005602499999440624,0.013096399999994901,165,reward,1,[0.5348360000007233],[0.534839899999497],1136.9529628,1136.9529628,0.0071482999992440455,0.0071482999992440455,0.01837870000053954,0.05307689999972354,0.06003509999936796,0.10165969999980007,0.10863249999965774,1.0044407999994291,1140.4458774999985,1144.1749592999986,,,,,,,,,,,,,,,,,,,,,,,,,,,,,6,B,2023-12-07_11h41.32.656,gca_avoidance_task,2022.2.4,143.82591311443406,
positions.xlsx,stimuli.xlsx,stimuli/Social2.png,stimuli/Social1.png,stimuli/Nonsocial1.png,stimuli/Nonsocial2.png,,"(0.7, 0.5)",cs_plus_s,,,,,0,0,0,0,,,,,,,,,2,2,34,2,,,,,,,,,,,,,,,,,,,,,,,,,,,,,,,,,,,,,,,,,,,,,,,,,,,,,,,,,,1144.6818102999987,1146.3206476999985,1144.1749592999986,1146.3206476999985,1146.3206476999985,1146.3206476999985,0.005817000001115957,0.013052600001174142,165,none,0,,,1151.3343252999985,1151.3343252999985,0.013934900000094785,0.013934900000094785,0.02670899999975518,0.05446980000124313,0.061405100001138635,0.10311379999984638,0.11009050000029674,1.0127545000013924,1154.820318099999,1158.6674411999993,,,,,,,,,,,,,,,,,,,,,,,,,,,,,6,B,2023-12-07_11h41.32.656,gca_avoidance_task,2022.2.4,143.82591311443406,
positions.xlsx,stimuli.xlsx,stimuli/Social2.png,stimuli/Social1.png,stimuli/Nonsocial1.png,stimuli/Nonsocial2.png,,"(-0.7, 0.5)",cs_plus_ns,,,,,0,0,0,0,,,,,,,,,2,3,35,8,,,,,,,,,,,,,,,,,,,,,,,,,,,,,,,,,,,,,,,,,,,,,,,,,,,,,,,,,,1159.1742921999994,1161.0561697999983,1158.6674411999993,1161.0561697999983,1161.0561697999983,1161.0561697999983,0.006422500000553555,0.013192500000513974,165,none,0,,,1166.063000799999,1166.063000799999,0.01392180000038934,0.01392180000038934,0.019986299999800394,0.05462869999973918,0.061538300000393065,0.10320700000011129,0.11017790000005334,1.0129567999993014,1169.5558613999983,1173.5487845999996,,,,,,,,,,,,,,,,,,,,,,,,,,,,,6,B,2023-12-07_11h41.32.656,gca_avoidance_task,2022.2.4,143.82591311443406,
positions.xlsx,stimuli.xlsx,stimuli/Social2.png,stimuli/Social1.png,stimuli/Nonsocial1.png,stimuli/Nonsocial2.png,,"(-0.7, -0.5)",cs_plus_ns,,,,,0,0,0,0,,,,,,,,,2,4,36,9,,,,,,,,,,,,,,,,,,,,,,,,,,,,,,,,,,,,,,,,,,,,,,,,,,,,,,,,,,1174.0556572999994,1175.9791885999985,1173.5487845999996,1175.9791885999985,1175.9791885999985,1175.9791885999985,0.006839499999841792,0.013329499999599648,165,none,0,,,1180.9859410999998,1180.9859410999998,0.014346599999043974,0.014346599999043974,0.02016439999897557,0.054807499998787534,0.06171849999918777,0.10343329999886919,0.11035059999994701,1.0130794999986392,1184.478914899999,1188.7912646999994,,,,,,,,,,,,,,,,,,,,,,,,,,,,,6,B,2023-12-07_11h41.32.656,gca_avoidance_task,2022.2.4,143.82591311443406,
positions.xlsx,stimuli.xlsx,stimuli/Social2.png,stimuli/Social1.png,stimuli/Nonsocial1.png,stimuli/Nonsocial2.png,,"(0.7, 0.5)",cs_minus_s,,,,,0,0,0,0,,,,,,,,,2,5,37,6,,,,,,,,,,,,,,,,,,,,,,,,,,,,,,,,,,,,,,,,,,,,,,,,,,,,,,,,,,1189.2981328999995,1190.7355589,1188.7912646999994,1190.7355589,1190.7355589,1190.7355589,0.006726800000251387,0.01314999999885913,170,reward,1,[0.3891124999991007],[0.3891163999996934],1191.131389099999,1191.131389099999,0.0070914999996603,0.0070914999996603,0.01848260000042501,0.05310199999985343,0.06004609999945387,0.10169560000031197,0.10870520000025863,1.004430400000274,1194.6243016999997,1198.874154699999,,,,,,,,,,,,,,,,,,,,,,,,,,,,,6,B,2023-12-07_11h41.32.656,gca_avoidance_task,2022.2.4,143.82591311443406,
positions.xlsx,stimuli.xlsx,stimuli/Social2.png,stimuli/Social1.png,stimuli/Nonsocial1.png,stimuli/Nonsocial2.png,,"(-0.7, -0.5)",cs_minus_ns,,,,,0,0,0,0,,,,,,,,,2,6,38,13,,,,,,,,,,,,,,,,,,,,,,,,,,,,,,,,,,,,,,,,,,,,,,,,,,,,,,,,,,1199.381043199999,1201.2559965,1198.874154699999,1201.2559965,1201.2559965,1201.2559965,0.006353400000080001,0.013440700000501238,175,reward,1,[0.6601444999996602],[0.6670816000005289],1201.9295618999986,1201.9295618999986,0.007895699998698547,0.007895699998698547,0.018624599999384372,0.0533302999992884,0.060282200000074226,0.10192619999907038,0.10890809999909834,1.0047020000001794,1205.4225508,1209.6097943999994,,,,,,,,,,,,,,,,,,,,,,,,,,,,,6,B,2023-12-07_11h41.32.656,gca_avoidance_task,2022.2.4,143.82591311443406,
positions.xlsx,stimuli.xlsx,stimuli/Social2.png,stimuli/Social1.png,stimuli/Nonsocial1.png,stimuli/Nonsocial2.png,,"(0.7, -0.5)",cs_minus_s,,,,,0,0,0,0,,,,,,,,,2,7,39,7,,,,,,,,,,,,,,,,,,,,,,,,,,,,,,,,,,,,,,,,,,,,,,,,,,,,,,,,,,1210.1167429999987,1211.651426299999,1209.6097943999994,1211.651426299999,1211.651426299999,1211.651426299999,0.00645520000034594,0.012990400000489899,180,reward,1,[0.5624024999997346],[0.5624062000006234],1212.220819799999,1212.220819799999,0.00706970000101137,0.00706970000101137,0.01845110000067507,0.05317970000032801,0.06015590000060911,0.10173300000133167,0.10870530000102008,1.0045165000010456,1215.7137737999983,1219.317775899999,,,,,,,,,,,,,,,,,,,,,,,,,,,,,6,B,2023-12-07_11h41.32.656,gca_avoidance_task,2022.2.4,143.82591311443406,
positions.xlsx,stimuli.xlsx,stimuli/Social2.png,stimuli/Social1.png,stimuli/Nonsocial1.png,stimuli/Nonsocial2.png,,"(0.7, -0.5)",cs_plus_s,,,,,0,0,0,0,,,,,,,,,2,8,40,3,,,,,,,,,,,,,,,,,,,,,,,,,,,,,,,,,,,,,,,,,,,,,,,,,,,,,,,,,,1219.8246991999986,1221.2482446999984,1219.317775899999,1221.2482446999984,1221.2482446999984,1221.2482446999984,0.005941199999142555,0.01325159999942116,180,none,0,,,1226.2550238999993,1226.2550238999993,0.01307249999990745,0.01307249999990745,0.02000880000014149,0.05470419999983278,0.061618399999133544,0.10329769999952987,0.1102415999994264,1.0129644999997254,1229.7479219999987,1233.9214340999988,,,,,,,,,,,,,,,,,,,,,,,,,,,,,6,B,2023-12-07_11h41.32.656,gca_avoidance_task,2022.2.4,143.82591311443406,
positions.xlsx,stimuli.xlsx,stimuli/Social2.png,stimuli/Social1.png,stimuli/Nonsocial1.png,stimuli/Nonsocial2.png,,"(0.7, -0.5)",cs_plus_ns,,,,,0,0,0,0,,,,,,,,,2,9,41,11,,,,,,,,,,,,,,,,,,,,,,,,,,,,,,,,,,,,,,,,,,,,,,,,,,,,,,,,,,1234.4282750999992,1235.7754508999988,1233.9214340999988,1235.7754508999988,1235.7754508999988,1235.7754508999988,0.006718999999066,0.013487499998518615,180,none,0,,,1240.7822115999988,1240.7822115999988,0.014247499999328284,0.014247499999328284,0.02025629999843659,0.05497519999880751,0.06190329999844835,0.10356460000002699,0.11049959999945713,1.0132168000000092,1244.275120299999,1248.5805267999986,,,,,,,,,,,,,,,,,,,,,,,,,,,,,6,B,2023-12-07_11h41.32.656,gca_avoidance_task,2022.2.4,143.82591311443406,
positions.xlsx,stimuli.xlsx,stimuli/Social2.png,stimuli/Social1.png,stimuli/Nonsocial1.png,stimuli/Nonsocial2.png,,"(-0.7, -0.5)",cs_plus_s,,,,,0,0,0,0,,,,,,,,,2,10,42,1,,,,,,,,,,,,,,,,,,,,,,,,,,,,,,,,,,,,,,,,,,,,,,,,,,,,,,,,,,1249.087438999999,1250.448483099999,1248.5805267999986,1250.448483099999,1250.448483099999,1250.448483099999,0.005729999998948188,0.013351600000532926,180,shock,1,[0.2780265999990661],[0.27803010000025097],1250.7262302999989,1250.7262302999989,0.006957600000532693,0.006957600000532693,0.011556600000403705,0.053193100000498816,0.06015130000014324,0.10186009999961243,0.10879430000022694,1.0045585999996547,1254.226176099999,1258.0940211999987,,,,,,,,,,,,,,,,,,,,,,,,,,,,,6,B,2023-12-07_11h41.32.656,gca_avoidance_task,2022.2.4,143.82591311443406,
positions.xlsx,stimuli.xlsx,stimuli/Social2.png,stimuli/Social1.png,stimuli/Nonsocial1.png,stimuli/Nonsocial2.png,,"(0.7, -0.5)",cs_minus_ns,,,,,0,0,0,0,,,,,,,,,2,11,43,15,,,,,,,,,,,,,,,,,,,,,,,,,,,,,,,,,,,,,,,,,,,,,,,,,,,,,,,,,,1258.6009462999991,1259.9064900999983,1258.0940211999987,1259.9064900999983,1259.9064900999983,1259.9064900999983,0.006899300000441144,0.013276200001200777,185,reward,0,,,1261.2119508999986,1261.2119508999986,0.007403199999316712,0.007403199999316712,0.01825020000069344,0.052890700000716606,0.05985499999951571,0.10149169999931473,0.10843059999933757,1.0042685000007623,1264.7049097,1269.0311161999998,,,,,,,,,,,,,,,,,,,,,,,,,,,,,6,B,2023-12-07_11h41.32.656,gca_avoidance_task,2022.2.4,143.82591311443406,
positions.xlsx,stimuli.xlsx,stimuli/Social2.png,stimuli/Social1.png,stimuli/Nonsocial1.png,stimuli/Nonsocial2.png,,"(0.7, 0.5)",cs_plus_ns,,,,,0,0,0,0,,,,,,,,,2,12,44,10,,,,,,,,,,,,,,,,,,,,,,,,,,,,,,,,,,,,,,,,,,,,,,,,,,,,,,,,,,1269.5380387999994,1270.6768572,1269.0311161999998,1270.6768572,1270.6768572,1270.6768572,0.006934900000487687,0.013163999999960652,185,none,0,,,1275.6905604999993,1275.6905604999993,0.015036000000691274,0.015036000000691274,0.026830200000404147,0.054584600000453065,0.06161390000124811,0.10318569999981264,0.1101730000009411,1.012869000000137,1279.1765455999994,1282.8986315999991,,,,,,,,,,,,,,,,,,,,,,,,,,,,,6,B,2023-12-07_11h41.32.656,gca_avoidance_task,2022.2.4,143.82591311443406,
positions.xlsx,stimuli.xlsx,stimuli/Social2.png,stimuli/Social1.png,stimuli/Nonsocial1.png,stimuli/Nonsocial2.png,,"(0.7, 0.5)",cs_minus_ns,,,,,0,0,0,0,,,,,,,,,2,13,45,14,,,,,,,,,,,,,,,,,,,,,,,,,,,,,,,,,,,,,,,,,,,,,,,,,,,,,,,,,,1283.4055368999998,1284.8846421999988,1282.8986315999991,1284.8846421999988,1284.8846421999988,1284.8846421999988,0.006546900000103051,0.013537799999539857,190,reward,1,[0.41724989999966056],[0.41725360000054934],1285.3082558999995,1285.3082558999995,0.007694700001593446,0.007694700001593446,0.018667100001039216,0.05331980000119074,0.060297200001514284,0.10198650000165799,0.10890110000036657,1.0046896000003471,1288.8011548999984,1293.051051999999,,,,,,,,,,,,,,,,,,,,,,,,,,,,,6,B,2023-12-07_11h41.32.656,gca_avoidance_task,2022.2.4,143.82591311443406,
positions.xlsx,stimuli.xlsx,stimuli/Social2.png,stimuli/Social1.png,stimuli/Nonsocial1.png,stimuli/Nonsocial2.png,,"(-0.7, 0.5)",cs_minus_ns,,,,,0,0,0,0,,,,,,,,,2,14,46,12,,,,,,,,,,,,,,,,,,,,,,,,,,,,,,,,,,,,,,,,,,,,,,,,,,,,,,,,,,1293.5579022999991,1295.2523284999988,1293.051051999999,1295.2523284999988,1295.2523284999988,1295.2523284999988,0.006497099999251077,0.013470799998685834,195,reward,1,[0.38942169999972975],[0.38942580000002636],1295.6481289999992,1295.6481289999992,0.007696800001212978,0.007696800001212978,0.018042499999864958,0.052687999999761814,0.059665200000381446,0.10131639999963227,0.1082700000006298,1.0040363000007346,1299.1410252999995,1303.6270342999997,,,,,,,,,,,,,,,,,,,,,,,,,,,,,6,B,2023-12-07_11h41.32.656,gca_avoidance_task,2022.2.4,143.82591311443406,
positions.xlsx,stimuli.xlsx,stimuli/Social2.png,stimuli/Social1.png,stimuli/Nonsocial1.png,stimuli/Nonsocial2.png,,"(-0.7, 0.5)",cs_minus_s,,,,,0,0,0,0,,,,,,,,,2,15,47,4,,,,,,,,,,,,,,,,,,,,,,,,,,,,,,,,,,,,,,,,,,,,,,,,,,,,,,,,,,1304.1338649999998,1305.4810675999997,1303.6270342999997,1305.4810675999997,1305.4810675999997,1305.4810675999997,0.006135999999969499,0.01311859999987064,200,reward,1,[0.23616330000004382],[0.2430320000003121],1305.7310309999993,1305.7310309999993,0.007020600000032573,0.007020600000032573,0.01855980000073032,0.053222400001686765,0.06032070000037493,0.10187350000160222,0.10880070000166597,1.0046299000005092,1309.2240191,1313.3071387,,,,,,,,,,,,,,,,,,,,,,,,,,,,,6,B,2023-12-07_11h41.32.656,gca_avoidance_task,2022.2.4,143.82591311443406,
positions.xlsx,stimuli.xlsx,stimuli/Social2.png,stimuli/Social1.png,stimuli/Nonsocial1.png,stimuli/Nonsocial2.png,,"(0.7, -0.5)",cs_minus_ns,,,,,0,0,0,0,,,,,,,,,3,0,48,15,,,,,,,,,,,,,,,,,,,,,,,,,,,,,,,,,,,,,,,,,,,,,,,,,,,,,,,,,,1313.8140463,1315.1264955999995,1313.3071387,1315.1264955999995,1315.1264955999995,1315.1264955999995,0.006606799999644863,0.013009899999815389,205,reward,1,[0.4659430000010616],[0.46594700000059674],1315.5987071,1315.5987071,0.007487500000934233,0.007487500000934233,0.018205000000307336,0.05283970000164118,0.05986030000167375,0.10152720000041882,0.1086105000013049,1.0042131999998674,1319.0916623999983,1322.6470725999989,,,,,,,,,,,,,,,,,,,,,,,,,,,,,6,B,2023-12-07_11h41.32.656,gca_avoidance_task,2022.2.4,143.82591311443406,
positions.xlsx,stimuli.xlsx,stimuli/Social2.png,stimuli/Social1.png,stimuli/Nonsocial1.png,stimuli/Nonsocial2.png,,"(0.7, 0.5)",cs_plus_s,,,,,0,0,0,0,,,,,,,,,3,1,49,2,,,,,,,,,,,,,,,,,,,,,,,,,,,,,,,,,,,,,,,,,,,,,,,,,,,,,,,,,,1323.1539818,1324.9802767,1322.6470725999989,1324.9802767,1324.9802767,1324.9802767,0.006140899999081739,0.013016399998377892,205,none,0,,,1329.9870444999997,1329.9870444999997,0.013359999999011052,0.013359999999011052,0.019788199999311473,0.05444059999899764,0.06139399999847228,0.10304679999899236,0.11000649999914458,1.0127617999987706,1333.4800022,1337.1326133999992,,,,,,,,,,,,,,,,,,,,,,,,,,,,,6,B,2023-12-07_11h41.32.656,gca_avoidance_task,2022.2.4,143.82591311443406,
positions.xlsx,stimuli.xlsx,stimuli/Social2.png,stimuli/Social1.png,stimuli/Nonsocial1.png,stimuli/Nonsocial2.png,,"(0.7, -0.5)",cs_minus_s,,,,,0,0,0,0,,,,,,,,,3,2,50,7,,,,,,,,,,,,,,,,,,,,,,,,,,,,,,,,,,,,,,,,,,,,,,,,,,,,,,,,,,1337.6395150999997,1339.0769683999988,1337.1326133999992,1339.0769683999988,1339.0769683999988,1339.0769683999988,0.006080400000428199,0.013239899999462068,210,reward,1,[0.5627526999996917],[0.5627566000002844],1339.6463889999995,1339.6463889999995,0.007226800000353251,0.007226800000353251,0.018193899999459973,0.05280339999990247,0.05975199999920733,0.1014298999998573,0.10842289999891364,1.0041658999998617,1343.1393444999994,1347.625279599999,,,,,,,,,,,,,,,,,,,,,,,,,,,,,6,B,2023-12-07_11h41.32.656,gca_avoidance_task,2022.2.4,143.82591311443406,
positions.xlsx,stimuli.xlsx,stimuli/Social2.png,stimuli/Social1.png,stimuli/Nonsocial1.png,stimuli/Nonsocial2.png,,"(-0.7, -0.5)",cs_minus_ns,,,,,0,0,0,0,,,,,,,,,3,3,51,13,,,,,,,,,,,,,,,,,,,,,,,,,,,,,,,,,,,,,,,,,,,,,,,,,,,,,,,,,,1348.1321245999989,1350.0556542999984,1347.625279599999,1350.0556542999984,1350.0556542999984,1350.0556542999984,0.006355600000460981,0.013117399999828194,215,reward,1,[0.527842999999848],[0.5278469000004407],1350.5903925999992,1350.5903925999992,0.0074463999990257435,0.0074463999990257435,0.018770999999105697,0.053474299998924835,0.06043209999916144,0.10208299999976589,0.10903250000046683,1.0048102000000654,1354.0833304999996,1358.4443078999993,,,,,,,,,,,,,,,,,,,,,,,,,,,,,6,B,2023-12-07_11h41.32.656,gca_avoidance_task,2022.2.4,143.82591311443406,
positions.xlsx,stimuli.xlsx,stimuli/Social2.png,stimuli/Social1.png,stimuli/Nonsocial1.png,stimuli/Nonsocial2.png,,"(-0.7, -0.5)",cs_plus_ns,,,,,0,0,0,0,,,,,,,,,3,4,52,9,,,,,,,,,,,,,,,,,,,,,,,,,,,,,,,,,,,,,,,,,,,,,,,,,,,,,,,,,,1358.9511605999996,1360.201122999999,1358.4443078999993,1360.201122999999,1360.201122999999,1360.201122999999,0.007452600000760867,0.01339410000036878,215,none,0,,,1365.2148369999995,1365.2148369999995,0.01504670000031183,0.01504670000031183,0.02711749999980384,0.05484720000094967,0.06186640000123589,0.10348909999993339,0.1104008000002068,1.01312549999966,1368.7008467999985,1373.1451240999995,,,,,,,,,,,,,,,,,,,,,,,,,,,,,6,B,2023-12-07_11h41.32.656,gca_avoidance_task,2022.2.4,143.82591311443406,
positions.xlsx,stimuli.xlsx,stimuli/Social2.png,stimuli/Social1.png,stimuli/Nonsocial1.png,stimuli/Nonsocial2.png,,"(-0.7, 0.5)",cs_minus_s,,,,,0,0,0,0,,,,,,,,,3,5,53,4,,,,,,,,,,,,,,,,,,,,,,,,,,,,,,,,,,,,,,,,,,,,,,,,,,,,,,,,,,1373.6519902,1374.7630491,1373.1451240999995,1374.7630491,1374.7630491,1374.7630491,0.006228500000361237,0.013143700000000536,220,reward,1,[0.7571056000015233],[0.7640772000013385],1375.533851099999,1375.533851099999,0.0071274999991146615,0.0071274999991146615,0.0180884999990667,0.05275909999909345,0.0597288999997545,0.1014658000003692,0.1083846999990783,1.0041428999993514,1379.0268374999996,1382.9016214999992,,,,,,,,,,,,,,,,,,,,,,,,,,,,,6,B,2023-12-07_11h41.32.656,gca_avoidance_task,2022.2.4,143.82591311443406,
positions.xlsx,stimuli.xlsx,stimuli/Social2.png,stimuli/Social1.png,stimuli/Nonsocial1.png,stimuli/Nonsocial2.png,,"(0.7, 0.5)",cs_minus_ns,,,,,0,0,0,0,,,,,,,,,3,6,54,14,,,,,,,,,,,,,,,,,,,,,,,,,,,,,,,,,,,,,,,,,,,,,,,,,,,,,,,,,,1383.4085858999988,1385.4015165,1382.9016214999992,1385.4015165,1385.4015165,1385.4015165,0.006567200000063167,0.013216499999543885,225,reward,1,[0.514714200000526],[0.5147180999992997],1385.9223450999998,1385.9223450999998,0.007791699999870616,0.007791699999870616,0.017900200000440236,0.05257560000063677,0.059539500000028056,0.10119440000016766,0.1081493000001501,1.0039378000001307,1389.4152638999985,1393.5748342999996,,,,,,,,,,,,,,,,,,,,,,,,,,,,,6,B,2023-12-07_11h41.32.656,gca_avoidance_task,2022.2.4,143.82591311443406,
positions.xlsx,stimuli.xlsx,stimuli/Social2.png,stimuli/Social1.png,stimuli/Nonsocial1.png,stimuli/Nonsocial2.png,,"(0.7, 0.5)",cs_plus_ns,,,,,0,0,0,0,,,,,,,,,3,7,55,10,,,,,,,,,,,,,,,,,,,,,,,,,,,,,,,,,,,,,,,,,,,,,,,,,,,,,,,,,,1394.0817591999985,1395.3108592999997,1393.5748342999996,1395.3108592999997,1395.3108592999997,1395.3108592999997,0.007163000000218744,0.013129699998899014,225,none,0,,,1400.3176034999997,1400.3176034999997,0.014472599999862723,0.014472599999862723,0.019882700000380282,0.05456369999956223,0.06154950000018289,0.10314389999984996,0.11013959999945655,1.0128227999994124,1403.8105797999997,1407.8242789999986,,,,,,,,,,,,,,,,,,,,,,,,,,,,,6,B,2023-12-07_11h41.32.656,gca_avoidance_task,2022.2.4,143.82591311443406,
positions.xlsx,stimuli.xlsx,stimuli/Social2.png,stimuli/Social1.png,stimuli/Nonsocial1.png,stimuli/Nonsocial2.png,,"(-0.7, 0.5)",cs_plus_ns,,,,,0,0,0,0,,,,,,,,,3,8,56,8,,,,,,,,,,,,,,,,,,,,,,,,,,,,,,,,,,,,,,,,,,,,,,,,,,,,,,,,,,1408.3311797999995,1410.2408227999986,1407.8242789999986,1410.2408227999986,1410.2408227999986,1410.2408227999986,0.007549400001153117,0.013141600000381004,225,shock,1,[3.13192220000019],[3.1319258000003174],1413.3795919999993,1413.3795919999993,0.008856800001012743,0.008856800001012743,0.018757100000584614,0.05349039999964589,0.06040260000008857,0.10203569999976025,0.10903250000046683,1.0048643999998603,1416.8725118999992,1420.802977899999,,,,,,,,,,,,,,,,,,,,,,,,,,,,,6,B,2023-12-07_11h41.32.656,gca_avoidance_task,2022.2.4,143.82591311443406,
positions.xlsx,stimuli.xlsx,stimuli/Social2.png,stimuli/Social1.png,stimuli/Nonsocial1.png,stimuli/Nonsocial2.png,,"(-0.7, 0.5)",cs_plus_s,,,,,0,0,0,0,,,,,,,,,3,9,57,0,,,,,,,,,,,,,,,,,,,,,,,,,,,,,,,,,,,,,,,,,,,,,,,,,,,,,,,,,,1421.309827699999,1423.2125438999992,1420.802977899999,1423.2125438999992,1423.2125438999992,1423.2125438999992,0.006629100000282051,0.013268000000607572,225,none,0,,,1428.2193689999986,1428.2193689999986,0.014691599999423488,0.014691599999423488,0.02005710000048566,0.054672000000209664,0.061627799999769195,0.10327940000024682,0.11026399999900605,1.0130004999991797,1431.7122483999992,1435.5871136999995,,,,,,,,,,,,,,,,,,,,,,,,,,,,,6,B,2023-12-07_11h41.32.656,gca_avoidance_task,2022.2.4,143.82591311443406,
positions.xlsx,stimuli.xlsx,stimuli/Social2.png,stimuli/Social1.png,stimuli/Nonsocial1.png,stimuli/Nonsocial2.png,,"(-0.7, -0.5)",cs_plus_s,,,,,0,0,0,0,,,,,,,,,3,10,58,1,,,,,,,,,,,,,,,,,,,,,,,,,,,,,,,,,,,,,,,,,,,,,,,,,,,,,,,,,,1436.093981,1437.8439418999988,1435.5871136999995,1437.8439418999988,1437.8439418999988,1437.8439418999988,0.006567399999767076,0.01301690000036615,225,shock,1,[0.27076839999972435],[0.2707723999992595],1438.1216546999985,1438.1216546999985,0.009251400000721333,0.009251400000721333,0.018188000000009197,0.052929400000721216,0.059847000000445405,0.1014883000007103,0.10844160000124248,1.0042350000003353,1441.6146738999996,1445.2603511999987,,,,,,,,,,,,,,,,,,,,,,,,,,,,,6,B,2023-12-07_11h41.32.656,gca_avoidance_task,2022.2.4,143.82591311443406,
positions.xlsx,stimuli.xlsx,stimuli/Social2.png,stimuli/Social1.png,stimuli/Nonsocial1.png,stimuli/Nonsocial2.png,,"(-0.7, 0.5)",cs_minus_ns,,,,,0,0,0,0,,,,,,,,,3,11,59,12,,,,,,,,,,,,,,,,,,,,,,,,,,,,,,,,,,,,,,,,,,,,,,,,,,,,,,,,,,1445.7672198,1447.3782618999994,1445.2603511999987,1447.3782618999994,1447.3782618999994,1447.3782618999994,0.006338199998936034,0.012858799998866743,230,reward,1,[0.5205977999994502],[0.5206018999997468],1447.9060605999985,1447.9060605999985,0.007618699999511591,0.007618699999511591,0.018519899998864275,0.05314139999973122,0.06018249999942782,0.1018222999991849,0.10876049999933457,1.0045216999988043,1451.3989852999985,1455.093297899999,,,,,,,,,,,,,,,,,,,,,,,,,,,,,6,B,2023-12-07_11h41.32.656,gca_avoidance_task,2022.2.4,143.82591311443406,
positions.xlsx,stimuli.xlsx,stimuli/Social2.png,stimuli/Social1.png,stimuli/Nonsocial1.png,stimuli/Nonsocial2.png,,"(0.7, 0.5)",cs_minus_s,,,,,0,0,0,0,,,,,,,,,3,12,60,6,,,,,,,,,,,,,,,,,,,,,,,,,,,,,,,,,,,,,,,,,,,,,,,,,,,,,,,,,,1455.6001508999998,1457.1348183999999,1455.093297899999,1457.1348183999999,1457.1348183999999,1457.1348183999999,0.005725400000301306,0.013595599999462138,235,reward,1,[0.6256616000009672],[0.625665100000333],1457.7667551999984,1457.7667551999984,0.006827200000770972,0.006827200000770972,0.01877520000016375,0.05344930000137538,0.06034340000041993,0.10200460000123712,0.10896560000037425,1.0047481000001426,1461.2597033999991,1464.9748302999997,,,,,,,,,,,,,,,,,,,,,,,,,,,,,6,B,2023-12-07_11h41.32.656,gca_avoidance_task,2022.2.4,143.82591311443406,
positions.xlsx,stimuli.xlsx,stimuli/Social2.png,stimuli/Social1.png,stimuli/Nonsocial1.png,stimuli/Nonsocial2.png,,"(-0.7, -0.5)",cs_minus_s,,,,,0,0,0,0,,,,,,,,,3,13,61,5,,,,,,,,,,,,,,,,,,,,,,,,,,,,,,,,,,,,,,,,,,,,,,,,,,,,,,,,,,1465.4816819999996,1466.6830732999988,1464.9748302999997,1466.6830732999988,1466.6830732999988,1466.6830732999988,0.005738699999710661,0.0132804999993823,240,reward,1,[0.5279389999996056],[0.527942400000029],1467.2177619999984,1467.2177619999984,0.0070601000006718095,0.0070601000006718095,0.01874580000003334,0.05336609999903885,0.06033380000008037,0.10199389999979758,0.10895949999940058,1.0047632999994676,1470.7107147999996,1474.2314139999999,,,,,,,,,,,,,,,,,,,,,,,,,,,,,6,B,2023-12-07_11h41.32.656,gca_avoidance_task,2022.2.4,143.82591311443406,
positions.xlsx,stimuli.xlsx,stimuli/Social2.png,stimuli/Social1.png,stimuli/Nonsocial1.png,stimuli/Nonsocial2.png,,"(0.7, -0.5)",cs_plus_s,,,,,0,0,0,0,,,,,,,,,3,14,62,3,,,,,,,,,,,,,,,,,,,,,,,,,,,,,,,,,,,,,,,,,,,,,,,,,,,,,,,,,,1474.7383059999993,1476.377128099999,1474.2314139999999,1476.377128099999,1476.377128099999,1476.377128099999,0.0061455000013665995,0.013171200000215322,240,shock,0,,,1480.3283897000001,1480.3283897000001,0.007456199999069213,0.007456199999069213,0.018483099998775288,0.05314170000019658,0.06013189999976021,0.10176849999879778,0.1087377000003471,1.0044954999993934,1483.821318299999,1487.6684091999996,,,,,,,,,,,,,,,,,,,,,,,,,,,,,6,B,2023-12-07_11h41.32.656,gca_avoidance_task,2022.2.4,143.82591311443406,
positions.xlsx,stimuli.xlsx,stimuli/Social2.png,stimuli/Social1.png,stimuli/Nonsocial1.png,stimuli/Nonsocial2.png,,"(0.7, -0.5)",cs_plus_ns,,,,,0,0,0,0,,,,,,,,,3,15,63,11,,,,,,,,,,,,,,,,,,,,,,,,,,,,,,,,,,,,,,,,,,,,,,,,,,,,,,,,,,1488.175271099999,1489.522431899999,1487.6684091999996,1489.522431899999,1489.522431899999,1489.522431899999,0.00705750000088301,0.01297580000027665,240,none,0,,,1494.5291886999985,1494.5291886999985,0.014946200000849785,0.014946200000849785,0.01977900000019872,0.054432300001280964,0.06141560000105528,0.10306000000127824,0.11002290000033099,1.0127507000015612,1498.022105,1501.8205814999983,,,,,,,,,,,,,,,,,,,,,,,,,,,,,6,B,2023-12-07_11h41.32.656,gca_avoidance_task,2022.2.4,143.82591311443406,
positions.xlsx,stimuli.xlsx,stimuli/Social2.png,stimuli/Social1.png,stimuli/Nonsocial1.png,stimuli/Nonsocial2.png,,"(0.7, -0.5)",cs_plus_ns,,,,,0,0,0,0,,,,,,,,,4,0,64,11,,,,,,,,,,,,,,,,,,,,,,,,,,,,,,,,,,,,,,,,,,,,,,,,,,,,,,,,,,1502.327484899999,1503.4941135999998,1501.8205814999983,1503.4941135999998,1503.4941135999998,1503.4941135999998,0.006478399998741224,0.013533999999708612,240,none,0,,,1508.5008724,1508.5008724,0.01496919999954116,0.01496919999954116,0.020301099999414873,0.05491979999897012,0.06191869999929622,0.10361059999922873,0.1105422999989969,1.0132450000000972,1511.9938472999984,1515.7992461999984,,,,,,,,,,,,,,,,,,,,,,,,,,,,,6,B,2023-12-07_11h41.32.656,gca_avoidance_task,2022.2.4,143.82591311443406,
positions.xlsx,stimuli.xlsx,stimuli/Social2.png,stimuli/Social1.png,stimuli/Nonsocial1.png,stimuli/Nonsocial2.png,,"(0.7, 0.5)",cs_plus_ns,,,,,0,0,0,0,,,,,,,,,4,1,65,10,,,,,,,,,,,,,,,,,,,,,,,,,,,,,,,,,,,,,,,,,,,,,,,,,,,,,,,,,,1516.3061215999987,1517.743569799999,1515.7992461999984,1517.743569799999,1517.743569799999,1517.743569799999,0.0069981000015104655,0.01316920000135724,240,none,0,,,1522.7502964999985,1522.7502964999985,0.014930900000763359,0.014930900000763359,0.01991980000093463,0.05457580000074813,0.06147910000072443,0.10315280000031635,0.11014140000042971,1.0128949000009015,1526.2432267999993,1530.2708696999998,,,,,,,,,,,,,,,,,,,,,,,,,,,,,6,B,2023-12-07_11h41.32.656,gca_avoidance_task,2022.2.4,143.82591311443406,
positions.xlsx,stimuli.xlsx,stimuli/Social2.png,stimuli/Social1.png,stimuli/Nonsocial1.png,stimuli/Nonsocial2.png,,"(0.7, 0.5)",cs_minus_s,,,,,0,0,0,0,,,,,,,,,4,2,66,6,,,,,,,,,,,,,,,,,,,,,,,,,,,,,,,,,,,,,,,,,,,,,,,,,,,,,,,,,,1530.7777609999994,1532.7568610999988,1530.2708696999998,1532.7568610999988,1532.7568610999988,1532.7568610999988,0.006390000000465079,0.013189299999794457,245,reward,1,[0.5765541000000667],[0.5765582000003633],1533.3402086999995,1533.3402086999995,0.006769099998564343,0.006769099998564343,0.01852869999856921,0.05315589999918302,0.06011999999827822,0.10176609999871289,0.10877519999849028,1.0044738999986293,1536.8330954999983,1540.8677229999994,,,,,,,,,,,,,,,,,,,,,,,,,,,,,6,B,2023-12-07_11h41.32.656,gca_avoidance_task,2022.2.4,143.82591311443406,
positions.xlsx,stimuli.xlsx,stimuli/Social2.png,stimuli/Social1.png,stimuli/Nonsocial1.png,stimuli/Nonsocial2.png,,"(-0.7, -0.5)",cs_plus_ns,,,,,0,0,0,0,,,,,,,,,4,3,67,9,,,,,,,,,,,,,,,,,,,,,,,,,,,,,,,,,,,,,,,,,,,,,,,,,,,,,,,,,,1541.374568199999,1543.2842208999991,1540.8677229999994,1543.2842208999991,1543.2842208999991,1543.2842208999991,0.006638599999860162,0.013435599999866099,245,none,0,,,1548.2979233999995,1548.2979233999995,0.014581600000383332,0.014581600000383332,0.027145600000949344,0.054904000000533415,0.06184960000064166,0.10346530000060739,0.11041719999957422,1.013212100000601,1551.7839427999988,1555.742134099999,,,,,,,,,,,,,,,,,,,,,,,,,,,,,6,B,2023-12-07_11h41.32.656,gca_avoidance_task,2022.2.4,143.82591311443406,
positions.xlsx,stimuli.xlsx,stimuli/Social2.png,stimuli/Social1.png,stimuli/Nonsocial1.png,stimuli/Nonsocial2.png,,"(-0.7, 0.5)",cs_plus_s,,,,,0,0,0,0,,,,,,,,,4,4,68,0,,,,,,,,,,,,,,,,,,,,,,,,,,,,,,,,,,,,,,,,,,,,,,,,,,,,,,,,,,1556.248978399999,1557.9989342999997,1555.742134099999,1557.9989342999997,1557.9989342999997,1557.9989342999997,0.005668200001309742,0.01300440000159142,245,none,0,,,1563.0056833999988,1563.0056833999988,0.01318610000089393,0.01318610000089393,0.01979360000041197,0.05444140000145126,0.061400600001434213,0.1030668000003061,0.11003840000012133,1.0127391000005446,1566.4986523999996,1570.2693608999998,,,,,,,,,,,,,,,,,,,,,,,,,,,,,6,B,2023-12-07_11h41.32.656,gca_avoidance_task,2022.2.4,143.82591311443406,
positions.xlsx,stimuli.xlsx,stimuli/Social2.png,stimuli/Social1.png,stimuli/Nonsocial1.png,stimuli/Nonsocial2.png,,"(-0.7, -0.5)",cs_minus_s,,,,,0,0,0,0,,,,,,,,,4,5,69,5,,,,,,,,,,,,,,,,,,,,,,,,,,,,,,,,,,,,,,,,,,,,,,,,,,,,,,,,,,1570.7762323999996,1572.1511352999987,1570.2693608999998,1572.1511352999987,1572.1511352999987,1572.1511352999987,0.0055387000011251075,0.013037200000326266,250,reward,1,[0.3264902000009897],[0.32649380000111705],1572.4844686999986,1572.4844686999986,0.0069965000002412125,0.0069965000002412125,0.01816090000102122,0.05282520000037039,0.059834900001078495,0.10143280000011146,0.10842000000047847,1.0042262000006303,1575.9774468999985,1579.4841934999986,,,,,,,,,,,,,,,,,,,,,,,,,,,,,6,B,2023-12-07_11h41.32.656,gca_avoidance_task,2022.2.4,143.82591311443406,
positions.xlsx,stimuli.xlsx,stimuli/Social2.png,stimuli/Social1.png,stimuli/Nonsocial1.png,stimuli/Nonsocial2.png,,"(-0.7, 0.5)",cs_plus_ns,,,,,0,0,0,0,,,,,,,,,4,6,70,8,,,,,,,,,,,,,,,,,,,,,,,,,,,,,,,,,,,,,,,,,,,,,,,,,,,,,,,,,,1579.9911122999983,1581.3591099999994,1579.4841934999986,1581.3591099999994,1581.3591099999994,1581.3591099999994,0.006770399999368237,0.013078800000585034,250,none,0,,,1586.3658634999993,1586.3658634999993,0.01385630000004312,0.01385630000004312,0.019813999999314547,0.05451299999913317,0.06140950000008161,0.10307909999937692,0.11009290000038163,1.012752000000546,1589.8588525999985,1593.7753675999993,,,,,,,,,,,,,,,,,,,,,,,,,,,,,6,B,2023-12-07_11h41.32.656,gca_avoidance_task,2022.2.4,143.82591311443406,
positions.xlsx,stimuli.xlsx,stimuli/Social2.png,stimuli/Social1.png,stimuli/Nonsocial1.png,stimuli/Nonsocial2.png,,"(0.7, -0.5)",cs_plus_s,,,,,0,0,0,0,,,,,,,,,4,7,71,3,,,,,,,,,,,,,,,,,,,,,,,,,,,,,,,,,,,,,,,,,,,,,,,,,,,,,,,,,,1594.2822348999998,1595.7544148999987,1593.7753675999993,1595.7544148999987,1595.7544148999987,1595.7544148999987,0.006435100000089733,0.01304849999905855,250,none,0,,,1600.7611597999985,1600.7611597999985,0.01363630000014382,0.01363630000014382,0.01978169999892998,0.05444249999891326,0.061395799999445444,0.10309789999882923,0.11005309999927704,1.0127392999984295,1604.2540864999992,1608.6844793,,,,,,,,,,,,,,,,,,,,,,,,,,,,,6,B,2023-12-07_11h41.32.656,gca_avoidance_task,2022.2.4,143.82591311443406,
positions.xlsx,stimuli.xlsx,stimuli/Social2.png,stimuli/Social1.png,stimuli/Nonsocial1.png,stimuli/Nonsocial2.png,,"(0.7, -0.5)",cs_minus_ns,,,,,0,0,0,0,,,,,,,,,4,8,72,15,,,,,,,,,,,,,,,,,,,,,,,,,,,,,,,,,,,,,,,,,,,,,,,,,,,,,,,,,,1609.1913864999988,1610.4968629999985,1608.6844793,1610.4968629999985,1610.4968629999985,1610.4968629999985,0.00651319999997213,0.013247200000478188,255,reward,1,[0.4308493999997154],[0.43085319999954663],1610.9343573999995,1610.9343573999995,0.00802780000049097,0.00802780000049097,0.01827880000018922,0.05290710000008403,0.05987500000082946,0.10154990000046382,0.10854160000053525,1.0043294000006426,1614.4272746999995,1618.8576594999995,,,,,,,,,,,,,,,,,,,,,,,,,,,,,6,B,2023-12-07_11h41.32.656,gca_avoidance_task,2022.2.4,143.82591311443406,
positions.xlsx,stimuli.xlsx,stimuli/Social2.png,stimuli/Social1.png,stimuli/Nonsocial1.png,stimuli/Nonsocial2.png,,"(-0.7, 0.5)",cs_minus_ns,,,,,0,0,0,0,,,,,,,,,4,9,73,12,,,,,,,,,,,,,,,,,,,,,,,,,,,,,,,,,,,,,,,,,,,,,,,,,,,,,,,,,,1619.3645951999988,1621.3575654999986,1618.8576594999995,1621.3575654999986,1621.3575654999986,1621.3575654999986,0.006441700001232675,0.013054799999736133,260,reward,1,[0.055538000000524335],[0.05554180000035558],1621.4200623999986,1621.4200623999986,0.007756699998935801,0.007756699998935801,0.018623100000695558,0.05331830000068294,0.06025950000002922,0.10189949999949022,0.10883769999963988,1.0047001999992062,1624.9129960999999,1628.7045098999988,,,,,,,,,,,,,,,,,,,,,,,,,,,,,6,B,2023-12-07_11h41.32.656,gca_avoidance_task,2022.2.4,143.82591311443406,
positions.xlsx,stimuli.xlsx,stimuli/Social2.png,stimuli/Social1.png,stimuli/Nonsocial1.png,stimuli/Nonsocial2.png,,"(-0.7, -0.5)",cs_plus_s,,,,,0,0,0,0,,,,,,,,,4,10,74,1,,,,,,,,,,,,,,,,,,,,,,,,,,,,,,,,,,,,,,,,,,,,,,,,,,,,,,,,,,1629.2114017999993,1631.051618399999,1628.7045098999988,1631.051618399999,1631.051618399999,1631.051618399999,0.006187200000567827,0.013237300001492258,260,none,0,,,1636.0583541999986,1636.0583541999986,0.01377640000100655,0.01377640000100655,0.01994330000161426,0.054577000000790576,0.06155360000047949,0.10323130000142555,0.11018050000166113,1.0129187000002275,1639.5513287999984,1643.5650366999998,,,,,,,,,,,,,,,,,,,,,,,,,,,,,6,B,2023-12-07_11h41.32.656,gca_avoidance_task,2022.2.4,143.82591311443406,
positions.xlsx,stimuli.xlsx,stimuli/Social2.png,stimuli/Social1.png,stimuli/Nonsocial1.png,stimuli/Nonsocial2.png,,"(0.7, 0.5)",cs_plus_s,,,,,0,0,0,0,,,,,,,,,4,11,75,2,,,,,,,,,,,,,,,,,,,,,,,,,,,,,,,,,,,,,,,,,,,,,,,,,,,,,,,,,,1644.0719384999993,1645.495481,1643.5650366999998,1645.495481,1645.495481,1645.495481,0.005898499999602791,0.013388800000029732,260,none,0,,,1650.5022567999986,1650.5022567999986,0.013506700001016725,0.013506700001016725,0.02013009999973292,0.05483450000065204,0.06179020000126911,0.10342529999979888,0.11037840000062715,1.0130994000010105,1653.9951662999993,1658.3283635999996,,,,,,,,,,,,,,,,,,,,,,,,,,,,,6,B,2023-12-07_11h41.32.656,gca_avoidance_task,2022.2.4,143.82591311443406,
positions.xlsx,stimuli.xlsx,stimuli/Social2.png,stimuli/Social1.png,stimuli/Nonsocial1.png,stimuli/Nonsocial2.png,,"(-0.7, 0.5)",cs_minus_s,,,,,0,0,0,0,,,,,,,,,4,12,76,4,,,,,,,,,,,,,,,,,,,,,,,,,,,,,,,,,,,,,,,,,,,,,,,,,,,,,,,,,,1658.8352491999995,1660.1963175,1658.3283635999996,1660.1963175,1660.1963175,1660.1963175,0.0065907999996852595,0.013109699999404256,265,reward,1,[0.5626219000005221],[0.5626257999992959],1660.7657224999984,1660.7657224999984,0.007093000000168104,0.007093000000168104,0.018319400000109454,0.05304769999929704,0.05998859999999695,0.10167279999950551,0.10861449999902106,1.0043403999989096,1664.2586586999987,1668.2030086999985,,,,,,,,,,,,,,,,,,,,,,,,,,,,,6,B,2023-12-07_11h41.32.656,gca_avoidance_task,2022.2.4,143.82591311443406,
positions.xlsx,stimuli.xlsx,stimuli/Social2.png,stimuli/Social1.png,stimuli/Nonsocial1.png,stimuli/Nonsocial2.png,,"(-0.7, -0.5)",cs_minus_ns,,,,,0,0,0,0,,,,,,,,,4,13,77,13,,,,,,,,,,,,,,,,,,,,,,,,,,,,,,,,,,,,,,,,,,,,,,,,,,,,,,,,,,1668.7099020999995,1670.619503599999,1668.2030086999985,1670.619503599999,1670.619503599999,1670.619503599999,0.006588099999135011,0.013284399999974994,270,reward,1,[0.48640119999981835],[0.48640489999888814],1671.1125732,1671.1125732,0.007782000000588596,0.007782000000588596,0.018447200000082375,0.053101299999980256,0.06008320000000822,0.10170049999942421,0.10865689999991446,1.0044367000009515,1674.6054925999997,1678.4108768999995,,,,,,,,,,,,,,,,,,,,,,,,,,,,,6,B,2023-12-07_11h41.32.656,gca_avoidance_task,2022.2.4,143.82591311443406,
positions.xlsx,stimuli.xlsx,stimuli/Social2.png,stimuli/Social1.png,stimuli/Nonsocial1.png,stimuli/Nonsocial2.png,,"(0.7, 0.5)",cs_minus_ns,,,,,0,0,0,0,,,,,,,,,4,14,78,14,,,,,,,,,,,,,,,,,,,,,,,,,,,,,,,,,,,,,,,,,,,,,,,,,,,,,,,,,,1678.9177935999996,1680.2580297999993,1678.4108768999995,1680.2580297999993,1680.2580297999993,1680.2580297999993,0.006388699999661185,0.013296400000399444,275,reward,1,[0.49326169999949343],[0.49326509999991686],1680.7579943,1680.7579943,0.007712700000411132,0.007712700000411132,0.01843189999999595,0.053157000000283006,0.0600773999994999,0.10172459999921557,0.10874350000085542,1.0044887000003655,1684.2509922999998,1687.924481099999,,,,,,,,,,,,,,,,,,,,,,,,,,,,,6,B,2023-12-07_11h41.32.656,gca_avoidance_task,2022.2.4,143.82591311443406,
positions.xlsx,stimuli.xlsx,stimuli/Social2.png,stimuli/Social1.png,stimuli/Nonsocial1.png,stimuli/Nonsocial2.png,,"(0.7, -0.5)",cs_minus_s,,,,,0,0,0,0,,,,,,,,,4,15,79,7,,,,,,,,,,,,,,,,,,,,,,,,,,,,,,,,,,,,,,,,,,,,,,,,,,,,,,,,,,1688.431348099999,1689.6604320999995,1687.924481099999,1689.6604320999995,1689.6604320999995,1689.6604320999995,0.005694399998901645,0.013414999999440624,280,reward,1,[0.6252813999999489],[0.6252848999993148],1690.2923722999985,1690.2923722999985,0.006564200000866549,0.006564200000866549,0.018950100000438397,0.053616900000633905,0.060568000000785105,0.10221170000113489,0.10916600000018661,1.0050145000004704,1693.7852773999984,1697.2990921,,,,,,,,,,,,,,,,,,,,,,,,,,,,,6,B,2023-12-07_11h41.32.656,gca_avoidance_task,2022.2.4,143.82591311443406,
positions.xlsx,stimuli.xlsx,stimuli/Social2.png,stimuli/Social1.png,stimuli/Nonsocial1.png,stimuli/Nonsocial2.png,cs_minus_ns,,,,,,,0,0,0,0,,,,,,,,,,,,,0,0,0,3,,,,,,,,,,,,,,,,,,,,,,,,,,,,,,,,,,,,,,,,,,,1706.6667261999992,1706.6667261999992,1709.4999540999997,9.0,2.8224704999993264,space,1.0886527999991813,,,,,,,,,,,,,,,,,,,,,,,,,,,,,,,,,,,,1697.2990921,1697.2990921,1697.2990921,1697.2990921,1697.2990921,1697.2990921,1702.6252015999999,7.0,5.31298550000065,space,3.9954324000009365,,,,,,,,,,,,6,B,2023-12-07_11h41.32.656,gca_avoidance_task,2022.2.4,143.82591311443406,
