posFile,stimFile,cs_plus_s,cs_minus_s,cs_plus_ns,cs_minus_ns,stimtype,position,trialtype,trials_threshold.thisRepN,trials_threshold.thisTrialN,trials_threshold.thisN,trials_threshold.thisIndex,blocks.thisRepN,blocks.thisTrialN,blocks.thisN,blocks.thisIndex,ratingtrials1.thisRepN,ratingtrials1.thisTrialN,ratingtrials1.thisN,ratingtrials1.thisIndex,learning_trials.thisRepN,learning_trials.thisTrialN,learning_trials.thisN,learning_trials.thisIndex,trials.thisRepN,trials.thisTrialN,trials.thisN,trials.thisIndex,ratingtrials2.thisRepN,ratingtrials2.thisTrialN,ratingtrials2.thisN,ratingtrials2.thisIndex,testtrials.thisRepN,testtrials.thisTrialN,testtrials.thisN,testtrials.thisIndex,ratingtrials3.thisRepN,ratingtrials3.thisTrialN,ratingtrials3.thisN,ratingtrials3.thisIndex,textStart.started,sliderPainT.response,sliderPainT.rt,textStartExp.started,imageRating.started,sliderStim.response,sliderStim.rt,textStartTask.started,image.started,score,outcome,roi.numLooks,roi.timesOn,roi.timesOff,imageFeedback.started,sliderPain.response,sliderPain.rt,textTestInstr.started,imageTest.started,roiTest.numLooks,roiTest.timesOn,roiTest.timesOff,participant,group,date,expName,psychopyVersion,frameRate,
,,,,,,,,,0,0,0,0,,,,,,,,,,,,,,,,,,,,,,,,,,,,,16.14718970004469,None,None,,,,,,,,,,,,,,,,,,,,46,D,2024-01-09_08h29.52.313,gca_avoidance_task,2022.2.4,143.89358743278314,
,,,,,,,,,1,0,1,0,,,,,,,,,,,,,,,,,,,,,,,,,,,,,,1.0,11.367204800015315,,,,,,,,,,,,,,,,,,,,46,D,2024-01-09_08h29.52.313,gca_avoidance_task,2022.2.4,143.89358743278314,
,,,,,,,,,2,0,2,0,,,,,,,,,,,,,,,,,,,,,,,,,,,,,,1.0,2.1570590999908745,,,,,,,,,,,,,,,,,,,,46,D,2024-01-09_08h29.52.313,gca_avoidance_task,2022.2.4,143.89358743278314,
,,,,,,,,,3,0,3,0,,,,,,,,,,,,,,,,,,,,,,,,,,,,,,1.0,2.0994300998281687,,,,,,,,,,,,,,,,,,,,46,D,2024-01-09_08h29.52.313,gca_avoidance_task,2022.2.4,143.89358743278314,
,,,,,,,,,4,0,4,0,,,,,,,,,,,,,,,,,,,,,,,,,,,,,,1.0,5.219124200055376,,,,,,,,,,,,,,,,,,,,46,D,2024-01-09_08h29.52.313,gca_avoidance_task,2022.2.4,143.89358743278314,
,,,,,,,,,5,0,5,0,,,,,,,,,,,,,,,,,,,,,,,,,,,,,,2.0,1.6613539999816567,,,,,,,,,,,,,,,,,,,,46,D,2024-01-09_08h29.52.313,gca_avoidance_task,2022.2.4,143.89358743278314,
,,,,,,,,,6,0,6,0,,,,,,,,,,,,,,,,,,,,,,,,,,,,,,2.0,2.5652006999589503,,,,,,,,,,,,,,,,,,,,46,D,2024-01-09_08h29.52.313,gca_avoidance_task,2022.2.4,143.89358743278314,
,,,,,,,,,7,0,7,0,,,,,,,,,,,,,,,,,,,,,,,,,,,,,,3.0,1.7150263001676649,,,,,,,,,,,,,,,,,,,,46,D,2024-01-09_08h29.52.313,gca_avoidance_task,2022.2.4,143.89358743278314,
,,,,,,,,,8,0,8,0,,,,,,,,,,,,,,,,,,,,,,,,,,,,,,3.0,2.9377901998814195,,,,,,,,,,,,,,,,,,,,46,D,2024-01-09_08h29.52.313,gca_avoidance_task,2022.2.4,143.89358743278314,
,,,,,,,,,9,0,9,0,,,,,,,,,,,,,,,,,,,,,,,,,,,,,,3.0,4.875962199876085,,,,,,,,,,,,,,,,,,,,46,D,2024-01-09_08h29.52.313,gca_avoidance_task,2022.2.4,143.89358743278314,
,,,,,,,,,10,0,10,0,,,,,,,,,,,,,,,,,,,,,,,,,,,,,,4.0,1.4357171999290586,,,,,,,,,,,,,,,,,,,,46,D,2024-01-09_08h29.52.313,gca_avoidance_task,2022.2.4,143.89358743278314,
,,,,,,,,,11,0,11,0,,,,,,,,,,,,,,,,,,,,,,,,,,,,,,4.0,2.333622899837792,,,,,,,,,,,,,,,,,,,,46,D,2024-01-09_08h29.52.313,gca_avoidance_task,2022.2.4,143.89358743278314,
,,,,,,,,,12,0,12,0,,,,,,,,,,,,,,,,,,,,,,,,,,,,,,5.0,1.6863003000617027,,,,,,,,,,,,,,,,,,,,46,D,2024-01-09_08h29.52.313,gca_avoidance_task,2022.2.4,143.89358743278314,
,,,,,,,,,13,0,13,0,,,,,,,,,,,,,,,,,,,,,,,,,,,,,,5.0,1.8376875000540167,,,,,,,,,,,,,,,,,,,,46,D,2024-01-09_08h29.52.313,gca_avoidance_task,2022.2.4,143.89358743278314,
,,,,,,,,,14,0,14,0,,,,,,,,,,,,,,,,,,,,,,,,,,,,,,6.0,3.336166099878028,,,,,,,,,,,,,,,,,,,,46,D,2024-01-09_08h29.52.313,gca_avoidance_task,2022.2.4,143.89358743278314,
,,,,,,,,,15,0,15,0,,,,,,,,,,,,,,,,,,,,,,,,,,,,,,6.0,2.9286078000441194,,,,,,,,,,,,,,,,,,,,46,D,2024-01-09_08h29.52.313,gca_avoidance_task,2022.2.4,143.89358743278314,
,,,,,,,,,16,0,16,0,,,,,,,,,,,,,,,,,,,,,,,,,,,,,,6.0,1.7044615000486374,,,,,,,,,,,,,,,,,,,,46,D,2024-01-09_08h29.52.313,gca_avoidance_task,2022.2.4,143.89358743278314,
,,,,,,,,,17,0,17,0,,,,,,,,,,,,,,,,,,,,,,,,,,,,,,6.0,2.741767799947411,,,,,,,,,,,,,,,,,,,,46,D,2024-01-09_08h29.52.313,gca_avoidance_task,2022.2.4,143.89358743278314,
,,,,,,,,,18,0,18,0,,,,,,,,,,,,,,,,,,,,,,,,,,,,,,5.0,1.8687881999649107,,,,,,,,,,,,,,,,,,,,46,D,2024-01-09_08h29.52.313,gca_avoidance_task,2022.2.4,143.89358743278314,
,,,,,,,,,19,0,19,0,,,,,,,,,,,,,,,,,,,,,,,,,,,,,,6.0,1.9622355999890715,,,,,,,,,,,,,,,,,,,,46,D,2024-01-09_08h29.52.313,gca_avoidance_task,2022.2.4,143.89358743278314,
,,,,,,,,,20,0,20,0,,,,,,,,,,,,,,,,,,,,,,,,,,,,,,6.0,1.5626006999518722,,,,,,,,,,,,,,,,,,,,46,D,2024-01-09_08h29.52.313,gca_avoidance_task,2022.2.4,143.89358743278314,
,,,,,,,,,21,0,21,0,,,,,,,,,,,,,,,,,,,,,,,,,,,,,,6.0,1.512180299963802,,,,,,,,,,,,,,,,,,,,46,D,2024-01-09_08h29.52.313,gca_avoidance_task,2022.2.4,143.89358743278314,
,,,,,,,,,22,0,22,0,,,,,,,,,,,,,,,,,,,,,,,,,,,,,,6.0,3.08086089999415,,,,,,,,,,,,,,,,,,,,46,D,2024-01-09_08h29.52.313,gca_avoidance_task,2022.2.4,143.89358743278314,
,,,,,,,,,23,0,23,0,,,,,,,,,,,,,,,,,,,,,,,,,,,,,,6.0,1.4586566998623312,,,,,,,,,,,,,,,,,,,,46,D,2024-01-09_08h29.52.313,gca_avoidance_task,2022.2.4,143.89358743278314,
,,,,,,,,,24,0,24,0,,,,,,,,,,,,,,,,,,,,,,,,,,,,,,7.0,3.1397528999950737,,,,,,,,,,,,,,,,,,,,46,D,2024-01-09_08h29.52.313,gca_avoidance_task,2022.2.4,143.89358743278314,
,,,,,,,,,25,0,25,0,,,,,,,,,,,,,,,,,,,,,,,,,,,,,,7.0,2.3362898000050336,,,,,,,,,,,,,,,,,,,,46,D,2024-01-09_08h29.52.313,gca_avoidance_task,2022.2.4,143.89358743278314,
,,,,,,,,,26,0,26,0,,,,,,,,,,,,,,,,,,,,,,,,,,,,,,7.0,1.1930902998428792,,,,,,,,,,,,,,,,,,,,46,D,2024-01-09_08h29.52.313,gca_avoidance_task,2022.2.4,143.89358743278314,
,,,,,,,,,27,0,27,0,,,,,,,,,,,,,,,,,,,,,,,,,,,,,,7.0,2.07640100014396,,,,,,,,,,,,,,,,,,,,46,D,2024-01-09_08h29.52.313,gca_avoidance_task,2022.2.4,143.89358743278314,
,,,,,,,,,28,0,28,0,,,,,,,,,,,,,,,,,,,,,,,,,,,,,,6.0,0.7643776000477374,,,,,,,,,,,,,,,,,,,,46,D,2024-01-09_08h29.52.313,gca_avoidance_task,2022.2.4,143.89358743278314,
positions.xlsx,stimuli.xlsx,stimuli/Social2.png,stimuli/Social1.png,stimuli/Nonsocial2.png,stimuli/Nonsocial1.png,cs_plus_s,,,,,,,0,0,0,0,0,0,0,0,,,,,,,,,,,,,,,,,,,,,,,,420.4247057000175,516.7519088999834,6.0,8.674596100114286,,,,,,,,,,,,,,,,46,D,2024-01-09_08h29.52.313,gca_avoidance_task,2022.2.4,143.89358743278314,
positions.xlsx,stimuli.xlsx,stimuli/Social2.png,stimuli/Social1.png,stimuli/Nonsocial2.png,stimuli/Nonsocial1.png,cs_minus_ns,,,,,,,0,0,0,0,0,1,1,3,,,,,,,,,,,,,,,,,,,,,,,,,526.6959444000386,4.0,4.885390899842605,,,,,,,,,,,,,,,,46,D,2024-01-09_08h29.52.313,gca_avoidance_task,2022.2.4,143.89358743278314,
positions.xlsx,stimuli.xlsx,stimuli/Social2.png,stimuli/Social1.png,stimuli/Nonsocial2.png,stimuli/Nonsocial1.png,cs_plus_ns,,,,,,,0,0,0,0,0,2,2,1,,,,,,,,,,,,,,,,,,,,,,,,,533.5290349000134,5.0,3.5827993999700993,,,,,,,,,,,,,,,,46,D,2024-01-09_08h29.52.313,gca_avoidance_task,2022.2.4,143.89358743278314,
positions.xlsx,stimuli.xlsx,stimuli/Social2.png,stimuli/Social1.png,stimuli/Nonsocial2.png,stimuli/Nonsocial1.png,cs_minus_s,,,,,,,0,0,0,0,0,3,3,2,,,,,,,,,,,,,,,,,,,,,,,,,538.54267539992,7.0,4.986290300032124,,,,,,,,,,,,,,,,46,D,2024-01-09_08h29.52.313,gca_avoidance_task,2022.2.4,143.89358743278314,
positions.xlsx,stimuli.xlsx,stimuli/Social2.png,stimuli/Social1.png,stimuli/Nonsocial2.png,stimuli/Nonsocial1.png,,"(-0.7, -0.5)",cs_minus_ns,,,,,0,0,0,0,,,,,0,0,0,13,,,,,,,,,,,,,,,,,,,,,,,,544.8201947000343,574.7426315001212,5,reward,1,0.3683189998846501,0.3683229999151081,575.1315260000993,,,,,,,,46,D,2024-01-09_08h29.52.313,gca_avoidance_task,2022.2.4,143.89358743278314,
positions.xlsx,stimuli.xlsx,stimuli/Social2.png,stimuli/Social1.png,stimuli/Nonsocial2.png,stimuli/Nonsocial1.png,,"(0.7, 0.5)",cs_plus_s,,,,,0,0,0,0,,,,,0,1,1,2,,,,,,,,,,,,,,,,,,,,,,,,,583.9713892999571,5,shock,1,0.3265799998771399,0.32658390002325177,584.3047525000293,,,,,,,,46,D,2024-01-09_08h29.52.313,gca_avoidance_task,2022.2.4,143.89358743278314,
positions.xlsx,stimuli.xlsx,stimuli/Social2.png,stimuli/Social1.png,stimuli/Nonsocial2.png,stimuli/Nonsocial1.png,,"(0.7, -0.5)",cs_minus_ns,,,,,0,0,0,0,,,,,0,2,2,15,,,,,,,,,,,,,,,,,,,,,,,,,593.8598990000319,10,reward,1,0.3056687999051064,0.3056727999355644,594.1724030999467,,,,,,,,46,D,2024-01-09_08h29.52.313,gca_avoidance_task,2022.2.4,143.89358743278314,
positions.xlsx,stimuli.xlsx,stimuli/Social2.png,stimuli/Social1.png,stimuli/Nonsocial2.png,stimuli/Nonsocial1.png,,"(-0.7, -0.5)",cs_plus_s,,,,,0,0,0,0,,,,,0,3,3,1,,,,,,,,,,,,,,,,,,,,,,,,,603.803957400145,10,none,0,,,608.8245703999419,,,,,,,,46,D,2024-01-09_08h29.52.313,gca_avoidance_task,2022.2.4,143.89358743278314,
positions.xlsx,stimuli.xlsx,stimuli/Social2.png,stimuli/Social1.png,stimuli/Nonsocial2.png,stimuli/Nonsocial1.png,,"(-0.7, -0.5)",cs_plus_ns,,,,,0,0,0,0,,,,,0,4,4,9,,,,,,,,,,,,,,,,,,,,,,,,,617.5881042000838,10,shock,1,0.541862899903208,0.5418666999321431,618.1367079999764,,,,,,,,46,D,2024-01-09_08h29.52.313,gca_avoidance_task,2022.2.4,143.89358743278314,
positions.xlsx,stimuli.xlsx,stimuli/Social2.png,stimuli/Social1.png,stimuli/Nonsocial2.png,stimuli/Nonsocial1.png,,"(0.7, 0.5)",cs_minus_s,,,,,0,0,0,0,,,,,0,5,5,6,,,,,,,,,,,,,,,,,,,,,,,,,628.1154912000056,15,reward,1,0.507026799954474,0.5070304998662323,628.6293468000367,,,,,,,,46,D,2024-01-09_08h29.52.313,gca_avoidance_task,2022.2.4,143.89358743278314,
positions.xlsx,stimuli.xlsx,stimuli/Social2.png,stimuli/Social1.png,stimuli/Nonsocial2.png,stimuli/Nonsocial1.png,,"(0.7, -0.5)",cs_plus_ns,,,,,0,0,0,0,,,,,0,6,6,11,,,,,,,,,,,,,,,,,,,,,,,,,638.878899600124,15,none,0,,,643.8856572001241,,,,,,,,46,D,2024-01-09_08h29.52.313,gca_avoidance_task,2022.2.4,143.89358743278314,
positions.xlsx,stimuli.xlsx,stimuli/Social2.png,stimuli/Social1.png,stimuli/Nonsocial2.png,stimuli/Nonsocial1.png,,"(0.7, 0.5)",cs_plus_ns,,,,,0,0,0,0,,,,,0,7,7,10,,,,,,,,,,,,,,,,,,,,,,,,,653.5241461000405,15,none,0,,,658.5309123999905,,,,,,,,46,D,2024-01-09_08h29.52.313,gca_avoidance_task,2022.2.4,143.89358743278314,
positions.xlsx,stimuli.xlsx,stimuli/Social2.png,stimuli/Social1.png,stimuli/Nonsocial2.png,stimuli/Nonsocial1.png,,"(0.7, 0.5)",cs_minus_ns,,,,,0,0,0,0,,,,,0,8,8,14,,,,,,,,,,,,,,,,,,,,,,,,,667.801364300074,20,reward,1,0.4377823998220265,0.43778639985248446,668.2457928999793,,,,,,,,46,D,2024-01-09_08h29.52.313,gca_avoidance_task,2022.2.4,143.89358743278314,
positions.xlsx,stimuli.xlsx,stimuli/Social2.png,stimuli/Social1.png,stimuli/Nonsocial2.png,stimuli/Nonsocial1.png,,"(-0.7, -0.5)",cs_minus_s,,,,,0,0,0,0,,,,,0,9,9,5,,,,,,,,,,,,,,,,,,,,,,,,,677.8981822000351,25,reward,1,0.7297372999601066,0.7297410999890417,678.6342367001344,,,,,,,,46,D,2024-01-09_08h29.52.313,gca_avoidance_task,2022.2.4,143.89358743278314,
positions.xlsx,stimuli.xlsx,stimuli/Social2.png,stimuli/Social1.png,stimuli/Nonsocial2.png,stimuli/Nonsocial1.png,,"(0.7, -0.5)",cs_minus_s,,,,,0,0,0,0,,,,,0,10,10,7,,,,,,,,,,,,,,,,,,,,,,,,,688.3630165001377,30,reward,1,0.4241821002215147,0.42418590001761913,688.7935500999447,,,,,,,,46,D,2024-01-09_08h29.52.313,gca_avoidance_task,2022.2.4,143.89358743278314,
positions.xlsx,stimuli.xlsx,stimuli/Social2.png,stimuli/Social1.png,stimuli/Nonsocial2.png,stimuli/Nonsocial1.png,,"(-0.7, 0.5)",cs_minus_ns,,,,,0,0,0,0,,,,,0,11,11,12,,,,,,,,,,,,,,,,,,,,,,,,,698.2792883999646,35,reward,1,0.5418674000538886,0.5418712999671698,698.8279274001252,,,,,,,,46,D,2024-01-09_08h29.52.313,gca_avoidance_task,2022.2.4,143.89358743278314,
positions.xlsx,stimuli.xlsx,stimuli/Social2.png,stimuli/Social1.png,stimuli/Nonsocial2.png,stimuli/Nonsocial1.png,,"(-0.7, 0.5)",cs_plus_ns,,,,,0,0,0,0,,,,,0,12,12,8,,,,,,,,,,,,,,,,,,,,,,,,,708.4733240001369,35,none,0,,,713.480081600137,,,,,,,,46,D,2024-01-09_08h29.52.313,gca_avoidance_task,2022.2.4,143.89358743278314,
positions.xlsx,stimuli.xlsx,stimuli/Social2.png,stimuli/Social1.png,stimuli/Nonsocial2.png,stimuli/Nonsocial1.png,,"(-0.7, 0.5)",cs_plus_s,,,,,0,0,0,0,,,,,0,13,13,0,,,,,,,,,,,,,,,,,,,,,,,,,723.6324905001093,35,none,0,,,728.6392087999266,,,,,,,,46,D,2024-01-09_08h29.52.313,gca_avoidance_task,2022.2.4,143.89358743278314,
positions.xlsx,stimuli.xlsx,stimuli/Social2.png,stimuli/Social1.png,stimuli/Nonsocial2.png,stimuli/Nonsocial1.png,,"(0.7, -0.5)",cs_plus_s,,,,,0,0,0,0,,,,,0,14,14,3,,,,,,,,,,,,,,,,,,,,,,,,,737.6596423999872,35,none,0,,,742.6664269000757,,,,,,,,46,D,2024-01-09_08h29.52.313,gca_avoidance_task,2022.2.4,143.89358743278314,
positions.xlsx,stimuli.xlsx,stimuli/Social2.png,stimuli/Social1.png,stimuli/Nonsocial2.png,stimuli/Nonsocial1.png,,"(-0.7, 0.5)",cs_minus_s,,,,,0,0,0,0,,,,,0,15,15,4,,,,,,,,,,,,,,,,,,,,,,,,,752.1104673000518,40,reward,1,0.4796744999475777,0.4796782999765128,752.5965768001042,,,,,,,,46,D,2024-01-09_08h29.52.313,gca_avoidance_task,2022.2.4,143.89358743278314,
positions.xlsx,stimuli.xlsx,stimuli/Social2.png,stimuli/Social1.png,stimuli/Nonsocial2.png,stimuli/Nonsocial1.png,,"(-0.7, 0.5)",cs_minus_s,,,,,0,0,0,0,,,,,1,0,16,4,,,,,,,,,,,,,,,,,,,,,,,,,761.7767296000384,45,reward,1,0.5276172999292612,0.5276213998440653,762.3114553999621,,,,,,,,46,D,2024-01-09_08h29.52.313,gca_avoidance_task,2022.2.4,143.89358743278314,
positions.xlsx,stimuli.xlsx,stimuli/Social2.png,stimuli/Social1.png,stimuli/Nonsocial2.png,stimuli/Nonsocial1.png,,"(0.7, 0.5)",cs_minus_s,,,,,0,0,0,0,,,,,1,1,17,6,,,,,,,,,,,,,,,,,,,,,,,,,772.5124181001447,50,reward,1,0.465574000030756,0.46557800006121397,772.9846312999725,,,,,,,,46,D,2024-01-09_08h29.52.313,gca_avoidance_task,2022.2.4,143.89358743278314,
positions.xlsx,stimuli.xlsx,stimuli/Social2.png,stimuli/Social1.png,stimuli/Nonsocial2.png,stimuli/Nonsocial1.png,,"(0.7, 0.5)",cs_plus_s,,,,,0,0,0,0,,,,,1,2,18,2,,,,,,,,,,,,,,,,,,,,,,,,,782.0328766000457,50,none,0,,,787.0396134001203,,,,,,,,46,D,2024-01-09_08h29.52.313,gca_avoidance_task,2022.2.4,143.89358743278314,
positions.xlsx,stimuli.xlsx,stimuli/Social2.png,stimuli/Social1.png,stimuli/Nonsocial2.png,stimuli/Nonsocial1.png,,"(0.7, 0.5)",cs_minus_ns,,,,,0,0,0,0,,,,,1,3,19,14,,,,,,,,,,,,,,,,,,,,,,,,,796.8655828000046,55,reward,1,0.34764729999005795,0.3476513000205159,797.2197569999844,,,,,,,,46,D,2024-01-09_08h29.52.313,gca_avoidance_task,2022.2.4,143.89358743278314,
positions.xlsx,stimuli.xlsx,stimuli/Social2.png,stimuli/Social1.png,stimuli/Nonsocial2.png,stimuli/Nonsocial1.png,,"(-0.7, 0.5)",cs_plus_s,,,,,0,0,0,0,,,,,1,4,20,0,,,,,,,,,,,,,,,,,,,,,,,,,807.6221362000797,55,none,0,,,812.6288817999884,,,,,,,,46,D,2024-01-09_08h29.52.313,gca_avoidance_task,2022.2.4,143.89358743278314,
positions.xlsx,stimuli.xlsx,stimuli/Social2.png,stimuli/Social1.png,stimuli/Nonsocial2.png,stimuli/Nonsocial1.png,,"(0.7, -0.5)",cs_minus_ns,,,,,0,0,0,0,,,,,1,5,21,15,,,,,,,,,,,,,,,,,,,,,,,,,821.1493417001329,60,reward,1,0.4100556999910623,0.41005970002152026,821.5659863001201,,,,,,,,46,D,2024-01-09_08h29.52.313,gca_avoidance_task,2022.2.4,143.89358743278314,
positions.xlsx,stimuli.xlsx,stimuli/Social2.png,stimuli/Social1.png,stimuli/Nonsocial2.png,stimuli/Nonsocial1.png,,"(-0.7, 0.5)",cs_plus_ns,,,,,0,0,0,0,,,,,1,6,22,8,,,,,,,,,,,,,,,,,,,,,,,,,830.5239842999727,60,none,0,,,835.530735099921,,,,,,,,46,D,2024-01-09_08h29.52.313,gca_avoidance_task,2022.2.4,143.89358743278314,
positions.xlsx,stimuli.xlsx,stimuli/Social2.png,stimuli/Social1.png,stimuli/Nonsocial2.png,stimuli/Nonsocial1.png,,"(-0.7, -0.5)",cs_minus_s,,,,,0,0,0,0,,,,,1,7,23,5,,,,,,,,,,,,,,,,,,,,,,,,,845.419172800146,65,reward,1,0.3962165000848472,0.3962203999981284,845.8219703000505,,,,,,,,46,D,2024-01-09_08h29.52.313,gca_avoidance_task,2022.2.4,143.89358743278314,
positions.xlsx,stimuli.xlsx,stimuli/Social2.png,stimuli/Social1.png,stimuli/Nonsocial2.png,stimuli/Nonsocial1.png,,"(0.7, -0.5)",cs_minus_s,,,,,0,0,0,0,,,,,1,8,24,7,,,,,,,,,,,,,,,,,,,,,,,,,855.0090946999844,70,reward,1,0.44457629998214543,0.44458019989542663,855.4605018999428,,,,,,,,46,D,2024-01-09_08h29.52.313,gca_avoidance_task,2022.2.4,143.89358743278314,
positions.xlsx,stimuli.xlsx,stimuli/Social2.png,stimuli/Social1.png,stimuli/Nonsocial2.png,stimuli/Nonsocial1.png,,"(-0.7, 0.5)",cs_minus_ns,,,,,0,0,0,0,,,,,1,9,25,12,,,,,,,,,,,,,,,,,,,,,,,,,864.8212240999565,75,reward,1,0.42378610000014305,0.423789800144732,865.2517568999901,,,,,,,,46,D,2024-01-09_08h29.52.313,gca_avoidance_task,2022.2.4,143.89358743278314,
positions.xlsx,stimuli.xlsx,stimuli/Social2.png,stimuli/Social1.png,stimuli/Nonsocial2.png,stimuli/Nonsocial1.png,,"(0.7, -0.5)",cs_plus_s,,,,,0,0,0,0,,,,,1,10,26,3,,,,,,,,,,,,,,,,,,,,,,,,,875.0707801999524,75,none,0,,,880.0775343000423,,,,,,,,46,D,2024-01-09_08h29.52.313,gca_avoidance_task,2022.2.4,143.89358743278314,
positions.xlsx,stimuli.xlsx,stimuli/Social2.png,stimuli/Social1.png,stimuli/Nonsocial2.png,stimuli/Nonsocial1.png,,"(0.7, 0.5)",cs_plus_ns,,,,,0,0,0,0,,,,,1,11,27,10,,,,,,,,,,,,,,,,,,,,,,,,,889.9799101001117,75,none,0,,,894.9866919999477,,,,,,,,46,D,2024-01-09_08h29.52.313,gca_avoidance_task,2022.2.4,143.89358743278314,
positions.xlsx,stimuli.xlsx,stimuli/Social2.png,stimuli/Social1.png,stimuli/Nonsocial2.png,stimuli/Nonsocial1.png,,"(-0.7, -0.5)",cs_plus_s,,,,,0,0,0,0,,,,,1,12,28,1,,,,,,,,,,,,,,,,,,,,,,,,,904.250164499972,75,none,0,,,909.2569200999569,,,,,,,,46,D,2024-01-09_08h29.52.313,gca_avoidance_task,2022.2.4,143.89358743278314,
positions.xlsx,stimuli.xlsx,stimuli/Social2.png,stimuli/Social1.png,stimuli/Nonsocial2.png,stimuli/Nonsocial1.png,,"(-0.7, -0.5)",cs_minus_ns,,,,,0,0,0,0,,,,,1,13,29,13,,,,,,,,,,,,,,,,,,,,,,,,,918.1524217000697,80,reward,1,0.4308478001039475,0.4308518001344055,918.5899118001107,,,,,,,,46,D,2024-01-09_08h29.52.313,gca_avoidance_task,2022.2.4,143.89358743278314,
positions.xlsx,stimuli.xlsx,stimuli/Social2.png,stimuli/Social1.png,stimuli/Nonsocial2.png,stimuli/Nonsocial1.png,,"(-0.7, -0.5)",cs_plus_ns,,,,,0,0,0,0,,,,,1,14,30,9,,,,,,,,,,,,,,,,,,,,,,,,,928.2631161999889,80,none,0,,,933.2698534999508,,,,,,,,46,D,2024-01-09_08h29.52.313,gca_avoidance_task,2022.2.4,143.89358743278314,
positions.xlsx,stimuli.xlsx,stimuli/Social2.png,stimuli/Social1.png,stimuli/Nonsocial2.png,stimuli/Nonsocial1.png,,"(0.7, -0.5)",cs_plus_ns,,,,,0,0,0,0,,,,,1,15,31,11,,,,,,,,,,,,,,,,,,,,,,,,,942.9986165000591,80,none,0,,,948.0053644999862,,,,,,,,46,D,2024-01-09_08h29.52.313,gca_avoidance_task,2022.2.4,143.89358743278314,
positions.xlsx,stimuli.xlsx,stimuli/Social2.png,stimuli/Social1.png,stimuli/Nonsocial2.png,stimuli/Nonsocial1.png,,"(0.7, 0.5)",cs_minus_ns,,,,,0,0,0,0,,,,,,,,,0,0,0,14,,,,,,,,,,,,,,,,,,,,,976.1987030999735,85,reward,1,0.437944799894467,0.43794890004210174,976.643113899976,,,,,,,,46,D,2024-01-09_08h29.52.313,gca_avoidance_task,2022.2.4,143.89358743278314,
positions.xlsx,stimuli.xlsx,stimuli/Social2.png,stimuli/Social1.png,stimuli/Nonsocial2.png,stimuli/Nonsocial1.png,,"(0.7, -0.5)",cs_plus_s,,,,,0,0,0,0,,,,,,,,,0,1,1,3,,,,,,,,,,,,,,,,,,,,,986.4830211000517,85,none,0,,,991.4897566,,,,,,,,46,D,2024-01-09_08h29.52.313,gca_avoidance_task,2022.2.4,143.89358743278314,
positions.xlsx,stimuli.xlsx,stimuli/Social2.png,stimuli/Social1.png,stimuli/Nonsocial2.png,stimuli/Nonsocial1.png,,"(-0.7, 0.5)",cs_minus_s,,,,,0,0,0,0,,,,,,,,,0,2,2,4,,,,,,,,,,,,,,,,,,,,,1000.961570699932,90,reward,1,0.38225989998318255,0.3822637000121176,1001.3504468000028,,,,,,,,46,D,2024-01-09_08h29.52.313,gca_avoidance_task,2022.2.4,143.89358743278314,
positions.xlsx,stimuli.xlsx,stimuli/Social2.png,stimuli/Social1.png,stimuli/Nonsocial2.png,stimuli/Nonsocial1.png,,"(0.7, -0.5)",cs_minus_s,,,,,0,0,0,0,,,,,,,,,0,3,3,7,,,,,,,,,,,,,,,,,,,,,1010.9958842000924,95,reward,1,0.396274299826473,0.39627799997106194,1011.3986589999404,,,,,,,,46,D,2024-01-09_08h29.52.313,gca_avoidance_task,2022.2.4,143.89358743278314,
positions.xlsx,stimuli.xlsx,stimuli/Social2.png,stimuli/Social1.png,stimuli/Nonsocial2.png,stimuli/Nonsocial1.png,,"(-0.7, 0.5)",cs_plus_s,,,,,0,0,0,0,,,,,,,,,0,4,4,0,,,,,,,,,,,,,,,,,,,,,1021.432995500043,95,none,0,,,1026.439735500142,,,,,,,,46,D,2024-01-09_08h29.52.313,gca_avoidance_task,2022.2.4,143.89358743278314,
positions.xlsx,stimuli.xlsx,stimuli/Social2.png,stimuli/Social1.png,stimuli/Nonsocial2.png,stimuli/Nonsocial1.png,,"(0.7, 0.5)",cs_plus_s,,,,,0,0,0,0,,,,,,,,,0,5,5,2,,,,,,,,,,,,,,,,,,,,,1035.6546338000335,95,none,0,,,1040.6613988999743,,,,,,,,46,D,2024-01-09_08h29.52.313,gca_avoidance_task,2022.2.4,143.89358743278314,
positions.xlsx,stimuli.xlsx,stimuli/Social2.png,stimuli/Social1.png,stimuli/Nonsocial2.png,stimuli/Nonsocial1.png,,"(-0.7, 0.5)",cs_plus_ns,,,,,0,0,0,0,,,,,,,,,0,6,6,8,,,,,,,,,,,,,,,,,,,,,1050.7373878001235,95,none,0,,,1055.7441104999743,,,,,,,,46,D,2024-01-09_08h29.52.313,gca_avoidance_task,2022.2.4,143.89358743278314,
positions.xlsx,stimuli.xlsx,stimuli/Social2.png,stimuli/Social1.png,stimuli/Nonsocial2.png,stimuli/Nonsocial1.png,,"(-0.7, -0.5)",cs_plus_s,,,,,0,0,0,0,,,,,,,,,0,7,7,1,,,,,,,,,,,,,,,,,,,,,1064.924316599965,95,none,0,,,1069.931071399944,,,,,,,,46,D,2024-01-09_08h29.52.313,gca_avoidance_task,2022.2.4,143.89358743278314,
positions.xlsx,stimuli.xlsx,stimuli/Social2.png,stimuli/Social1.png,stimuli/Nonsocial2.png,stimuli/Nonsocial1.png,,"(-0.7, 0.5)",cs_minus_ns,,,,,0,0,0,0,,,,,,,,,0,8,8,12,,,,,,,,,,,,,,,,,,,,,1079.2014989999589,100,reward,1,0.40310600004158914,0.40310949995182455,1079.6112212999724,,,,,,,,46,D,2024-01-09_08h29.52.313,gca_avoidance_task,2022.2.4,143.89358743278314,
positions.xlsx,stimuli.xlsx,stimuli/Social2.png,stimuli/Social1.png,stimuli/Nonsocial2.png,stimuli/Nonsocial1.png,,"(-0.7, -0.5)",cs_minus_ns,,,,,0,0,0,0,,,,,,,,,0,9,9,13,,,,,,,,,,,,,,,,,,,,,1088.3122916999273,105,reward,1,0.3750374000519514,0.3820546001661569,1088.7011460999493,,,,,,,,46,D,2024-01-09_08h29.52.313,gca_avoidance_task,2022.2.4,143.89358743278314,
positions.xlsx,stimuli.xlsx,stimuli/Social2.png,stimuli/Social1.png,stimuli/Nonsocial2.png,stimuli/Nonsocial1.png,,"(0.7, 0.5)",cs_minus_s,,,,,0,0,0,0,,,,,,,,,0,10,10,6,,,,,,,,,,,,,,,,,,,,,1098.5410120000597,110,reward,1,0.569388700183481,0.5762122001033276,1099.1243309001438,,,,,,,,46,D,2024-01-09_08h29.52.313,gca_avoidance_task,2022.2.4,143.89358743278314,
positions.xlsx,stimuli.xlsx,stimuli/Social2.png,stimuli/Social1.png,stimuli/Nonsocial2.png,stimuli/Nonsocial1.png,,"(-0.7, -0.5)",cs_plus_ns,,,,,0,0,0,0,,,,,,,,,0,11,11,9,,,,,,,,,,,,,,,,,,,,,1108.6378172000404,110,shock,1,0.39631350012496114,0.3963171001523733,1109.0406068000011,,,,,,,,46,D,2024-01-09_08h29.52.313,gca_avoidance_task,2022.2.4,143.89358743278314,
positions.xlsx,stimuli.xlsx,stimuli/Social2.png,stimuli/Social1.png,stimuli/Nonsocial2.png,stimuli/Nonsocial1.png,,"(0.7, 0.5)",cs_plus_ns,,,,,0,0,0,0,,,,,,,,,0,12,12,10,,,,,,,,,,,,,,,,,,,,,1118.2624335000291,110,none,0,,,1123.2691814000718,,,,,,,,46,D,2024-01-09_08h29.52.313,gca_avoidance_task,2022.2.4,143.89358743278314,
positions.xlsx,stimuli.xlsx,stimuli/Social2.png,stimuli/Social1.png,stimuli/Nonsocial2.png,stimuli/Nonsocial1.png,,"(0.7, -0.5)",cs_minus_ns,,,,,0,0,0,0,,,,,,,,,0,13,13,15,,,,,,,,,,,,,,,,,,,,,1133.109077299945,115,reward,1,0.3749975000973791,0.37500130012631416,1133.491015000036,,,,,,,,46,D,2024-01-09_08h29.52.313,gca_avoidance_task,2022.2.4,143.89358743278314,
positions.xlsx,stimuli.xlsx,stimuli/Social2.png,stimuli/Social1.png,stimuli/Nonsocial2.png,stimuli/Nonsocial1.png,,"(-0.7, -0.5)",cs_minus_s,,,,,0,0,0,0,,,,,,,,,0,14,14,5,,,,,,,,,,,,,,,,,,,,,1142.449031200027,120,reward,1,0.5139343000482768,0.5139382001943886,1142.9698081000242,,,,,,,,46,D,2024-01-09_08h29.52.313,gca_avoidance_task,2022.2.4,143.89358743278314,
positions.xlsx,stimuli.xlsx,stimuli/Social2.png,stimuli/Social1.png,stimuli/Nonsocial2.png,stimuli/Nonsocial1.png,,"(0.7, -0.5)",cs_plus_ns,,,,,0,0,0,0,,,,,,,,,0,15,15,11,,,,,,,,,,,,,,,,,,,,,1153.2263279999606,120,none,0,,,1158.2330581001006,,,,,,,,46,D,2024-01-09_08h29.52.313,gca_avoidance_task,2022.2.4,143.89358743278314,
positions.xlsx,stimuli.xlsx,stimuli/Social2.png,stimuli/Social1.png,stimuli/Nonsocial2.png,stimuli/Nonsocial1.png,,"(0.7, -0.5)",cs_plus_ns,,,,,0,0,0,0,,,,,,,,,1,0,16,11,,,,,,,,,,,,,,,,,,,,,1167.4826895999722,120,none,0,,,1172.4894835001323,,,,,,,,46,D,2024-01-09_08h29.52.313,gca_avoidance_task,2022.2.4,143.89358743278314,
positions.xlsx,stimuli.xlsx,stimuli/Social2.png,stimuli/Social1.png,stimuli/Nonsocial2.png,stimuli/Nonsocial1.png,,"(-0.7, 0.5)",cs_minus_s,,,,,0,0,0,0,,,,,,,,,1,1,17,4,,,,,,,,,,,,,,,,,,,,,1182.3293328001164,125,reward,1,0.5069208000786602,0.5069387999828905,1182.8431818999816,,,,,,,,46,D,2024-01-09_08h29.52.313,gca_avoidance_task,2022.2.4,143.89358743278314,
positions.xlsx,stimuli.xlsx,stimuli/Social2.png,stimuli/Social1.png,stimuli/Nonsocial2.png,stimuli/Nonsocial1.png,,"(0.7, 0.5)",cs_plus_ns,,,,,0,0,0,0,,,,,,,,,1,2,18,10,,,,,,,,,,,,,,,,,,,,,1192.8914151999634,125,none,0,,,1197.9051194000058,,,,,,,,46,D,2024-01-09_08h29.52.313,gca_avoidance_task,2022.2.4,143.89358743278314,
positions.xlsx,stimuli.xlsx,stimuli/Social2.png,stimuli/Social1.png,stimuli/Nonsocial2.png,stimuli/Nonsocial1.png,,"(-0.7, 0.5)",cs_plus_s,,,,,0,0,0,0,,,,,,,,,1,3,19,0,,,,,,,,,,,,,,,,,,,,,1207.0575000001118,125,none,0,,,1212.0642677999567,,,,,,,,46,D,2024-01-09_08h29.52.313,gca_avoidance_task,2022.2.4,143.89358743278314,
positions.xlsx,stimuli.xlsx,stimuli/Social2.png,stimuli/Social1.png,stimuli/Nonsocial2.png,stimuli/Nonsocial1.png,,"(-0.7, 0.5)",cs_minus_ns,,,,,0,0,0,0,,,,,,,,,1,4,20,12,,,,,,,,,,,,,,,,,,,,,1221.9874569000676,130,reward,1,0.44467779994010925,0.4446815999690443,1222.438888499979,,,,,,,,46,D,2024-01-09_08h29.52.313,gca_avoidance_task,2022.2.4,143.89358743278314,
positions.xlsx,stimuli.xlsx,stimuli/Social2.png,stimuli/Social1.png,stimuli/Nonsocial2.png,stimuli/Nonsocial1.png,,"(0.7, -0.5)",cs_plus_s,,,,,0,0,0,0,,,,,,,,,1,5,21,3,,,,,,,,,,,,,,,,,,,,,1231.9037321999203,130,none,0,,,1236.9104993001092,,,,,,,,46,D,2024-01-09_08h29.52.313,gca_avoidance_task,2022.2.4,143.89358743278314,
positions.xlsx,stimuli.xlsx,stimuli/Social2.png,stimuli/Social1.png,stimuli/Nonsocial2.png,stimuli/Nonsocial1.png,,"(0.7, -0.5)",cs_minus_s,,,,,0,0,0,0,,,,,,,,,1,6,22,7,,,,,,,,,,,,,,,,,,,,,1245.8893095001113,135,reward,1,0.4517671000212431,0.4517710998188704,1246.3476130999625,,,,,,,,46,D,2024-01-09_08h29.52.313,gca_avoidance_task,2022.2.4,143.89358743278314,
positions.xlsx,stimuli.xlsx,stimuli/Social2.png,stimuli/Social1.png,stimuli/Nonsocial2.png,stimuli/Nonsocial1.png,,"(-0.7, -0.5)",cs_plus_s,,,,,0,0,0,0,,,,,,,,,1,7,23,1,,,,,,,,,,,,,,,,,,,,,1256.562524100067,135,none,0,,,1261.5692511999514,,,,,,,,46,D,2024-01-09_08h29.52.313,gca_avoidance_task,2022.2.4,143.89358743278314,
positions.xlsx,stimuli.xlsx,stimuli/Social2.png,stimuli/Social1.png,stimuli/Nonsocial2.png,stimuli/Nonsocial1.png,,"(0.7, 0.5)",cs_minus_ns,,,,,0,0,0,0,,,,,,,,,1,8,24,14,,,,,,,,,,,,,,,,,,,,,1270.8674864999484,140,reward,1,0.4167444999329746,0.41674829996190965,1271.2910695001483,,,,,,,,46,D,2024-01-09_08h29.52.313,gca_avoidance_task,2022.2.4,143.89358743278314,
positions.xlsx,stimuli.xlsx,stimuli/Social2.png,stimuli/Social1.png,stimuli/Nonsocial2.png,stimuli/Nonsocial1.png,,"(0.7, -0.5)",cs_minus_ns,,,,,0,0,0,0,,,,,,,,,1,9,25,15,,,,,,,,,,,,,,,,,,,,,1280.3740375000052,145,reward,1,0.4306709999218583,0.43067490006797016,1280.811524900142,,,,,,,,46,D,2024-01-09_08h29.52.313,gca_avoidance_task,2022.2.4,143.89358743278314,
positions.xlsx,stimuli.xlsx,stimuli/Social2.png,stimuli/Social1.png,stimuli/Nonsocial2.png,stimuli/Nonsocial1.png,,"(-0.7, -0.5)",cs_minus_s,,,,,0,0,0,0,,,,,,,,,1,10,26,5,,,,,,,,,,,,,,,,,,,,,1290.65139740007,150,reward,1,0.5763369000051171,0.5763408001512289,1291.2347424000036,,,,,,,,46,D,2024-01-09_08h29.52.313,gca_avoidance_task,2022.2.4,143.89358743278314,
positions.xlsx,stimuli.xlsx,stimuli/Social2.png,stimuli/Social1.png,stimuli/Nonsocial2.png,stimuli/Nonsocial1.png,,"(-0.7, -0.5)",cs_plus_ns,,,,,0,0,0,0,,,,,,,,,1,11,27,9,,,,,,,,,,,,,,,,,,,,,1300.9287934999447,150,none,0,,,1305.9355149001349,,,,,,,,46,D,2024-01-09_08h29.52.313,gca_avoidance_task,2022.2.4,143.89358743278314,
positions.xlsx,stimuli.xlsx,stimuli/Social2.png,stimuli/Social1.png,stimuli/Nonsocial2.png,stimuli/Nonsocial1.png,,"(0.7, 0.5)",cs_minus_s,,,,,0,0,0,0,,,,,,,,,1,12,28,6,,,,,,,,,,,,,,,,,,,,,1315.8309798000846,155,reward,1,0.5905973999761045,0.5906014000065625,1316.4281959999353,,,,,,,,46,D,2024-01-09_08h29.52.313,gca_avoidance_task,2022.2.4,143.89358743278314,
positions.xlsx,stimuli.xlsx,stimuli/Social2.png,stimuli/Social1.png,stimuli/Nonsocial2.png,stimuli/Nonsocial1.png,,"(-0.7, -0.5)",cs_minus_ns,,,,,0,0,0,0,,,,,,,,,1,13,29,13,,,,,,,,,,,,,,,,,,,,,1325.795840299921,160,reward,1,0.36812060000374913,0.36812419979833066,1326.170825399924,,,,,,,,46,D,2024-01-09_08h29.52.313,gca_avoidance_task,2022.2.4,143.89358743278314,
positions.xlsx,stimuli.xlsx,stimuli/Social2.png,stimuli/Social1.png,stimuli/Nonsocial2.png,stimuli/Nonsocial1.png,,"(-0.7, 0.5)",cs_plus_ns,,,,,0,0,0,0,,,,,,,,,1,14,30,8,,,,,,,,,,,,,,,,,,,,,1335.7676570001058,160,none,0,,,1340.7813860001042,,,,,,,,46,D,2024-01-09_08h29.52.313,gca_avoidance_task,2022.2.4,143.89358743278314,
positions.xlsx,stimuli.xlsx,stimuli/Social2.png,stimuli/Social1.png,stimuli/Nonsocial2.png,stimuli/Nonsocial1.png,,"(0.7, 0.5)",cs_plus_s,,,,,0,0,0,0,,,,,,,,,1,15,31,2,,,,,,,,,,,,,,,,,,,,,1350.1559914001264,160,none,0,,,1355.162701100111,,,,,,,,46,D,2024-01-09_08h29.52.313,gca_avoidance_task,2022.2.4,143.89358743278314,
positions.xlsx,stimuli.xlsx,stimuli/Social2.png,stimuli/Social1.png,stimuli/Nonsocial2.png,stimuli/Nonsocial1.png,,"(-0.7, 0.5)",cs_plus_ns,,,,,0,0,0,0,,,,,,,,,2,0,32,8,,,,,,,,,,,,,,,,,,,,,1365.5234272999223,160,none,0,,,1370.5301854000427,,,,,,,,46,D,2024-01-09_08h29.52.313,gca_avoidance_task,2022.2.4,143.89358743278314,
positions.xlsx,stimuli.xlsx,stimuli/Social2.png,stimuli/Social1.png,stimuli/Nonsocial2.png,stimuli/Nonsocial1.png,,"(-0.7, -0.5)",cs_minus_ns,,,,,0,0,0,0,,,,,,,,,2,1,33,13,,,,,,,,,,,,,,,,,,,,,1380.106181500014,165,reward,1,0.38933879998512566,0.38934280001558363,1380.5019734001253,,,,,,,,46,D,2024-01-09_08h29.52.313,gca_avoidance_task,2022.2.4,143.89358743278314,
positions.xlsx,stimuli.xlsx,stimuli/Social2.png,stimuli/Social1.png,stimuli/Nonsocial2.png,stimuli/Nonsocial1.png,,"(0.7, 0.5)",cs_minus_s,,,,,0,0,0,0,,,,,,,,,2,2,34,6,,,,,,,,,,,,,,,,,,,,,1390.1682830001228,170,reward,1,0.49301129998639226,0.49301510001532733,1390.6682573999278,,,,,,,,46,D,2024-01-09_08h29.52.313,gca_avoidance_task,2022.2.4,143.89358743278314,
positions.xlsx,stimuli.xlsx,stimuli/Social2.png,stimuli/Social1.png,stimuli/Nonsocial2.png,stimuli/Nonsocial1.png,,"(-0.7, -0.5)",cs_minus_s,,,,,0,0,0,0,,,,,,,,,2,3,35,5,,,,,,,,,,,,,,,,,,,,,1399.5429039001465,175,reward,1,0.36785089992918074,0.3678546999581158,1399.9179086999502,,,,,,,,46,D,2024-01-09_08h29.52.313,gca_avoidance_task,2022.2.4,143.89358743278314,
positions.xlsx,stimuli.xlsx,stimuli/Social2.png,stimuli/Social1.png,stimuli/Nonsocial2.png,stimuli/Nonsocial1.png,,"(-0.7, 0.5)",cs_plus_s,,,,,0,0,0,0,,,,,,,,,2,4,36,0,,,,,,,,,,,,,,,,,,,,,1409.820259399945,175,none,0,,,1414.8270330000669,,,,,,,,46,D,2024-01-09_08h29.52.313,gca_avoidance_task,2022.2.4,143.89358743278314,
positions.xlsx,stimuli.xlsx,stimuli/Social2.png,stimuli/Social1.png,stimuli/Nonsocial2.png,stimuli/Nonsocial1.png,,"(-0.7, 0.5)",cs_minus_s,,,,,0,0,0,0,,,,,,,,,2,5,37,4,,,,,,,,,,,,,,,,,,,,,1423.930828700075,180,reward,1,0.3830238999798894,0.38302780012600124,1424.3197492000181,,,,,,,,46,D,2024-01-09_08h29.52.313,gca_avoidance_task,2022.2.4,143.89358743278314,
positions.xlsx,stimuli.xlsx,stimuli/Social2.png,stimuli/Social1.png,stimuli/Nonsocial2.png,stimuli/Nonsocial1.png,,"(0.7, 0.5)",cs_minus_ns,,,,,0,0,0,0,,,,,,,,,2,6,38,14,,,,,,,,,,,,,,,,,,,,,1434.0832044000272,185,reward,1,0.45162390009500086,0.4516313001513481,1434.5415233999956,,,,,,,,46,D,2024-01-09_08h29.52.313,gca_avoidance_task,2022.2.4,143.89358743278314,
positions.xlsx,stimuli.xlsx,stimuli/Social2.png,stimuli/Social1.png,stimuli/Nonsocial2.png,stimuli/Nonsocial1.png,,"(0.7, -0.5)",cs_plus_ns,,,,,0,0,0,0,,,,,,,,,2,7,39,11,,,,,,,,,,,,,,,,,,,,,1444.7008442000952,185,none,0,,,1449.7076014999766,,,,,,,,46,D,2024-01-09_08h29.52.313,gca_avoidance_task,2022.2.4,143.89358743278314,
positions.xlsx,stimuli.xlsx,stimuli/Social2.png,stimuli/Social1.png,stimuli/Nonsocial2.png,stimuli/Nonsocial1.png,,"(-0.7, -0.5)",cs_plus_s,,,,,0,0,0,0,,,,,,,,,2,8,40,1,,,,,,,,,,,,,,,,,,,,,1459.3252662001178,185,none,0,,,1464.3320442000404,,,,,,,,46,D,2024-01-09_08h29.52.313,gca_avoidance_task,2022.2.4,143.89358743278314,
positions.xlsx,stimuli.xlsx,stimuli/Social2.png,stimuli/Social1.png,stimuli/Nonsocial2.png,stimuli/Nonsocial1.png,,"(0.7, -0.5)",cs_minus_s,,,,,0,0,0,0,,,,,,,,,2,9,41,7,,,,,,,,,,,,,,,,,,,,,1474.1858177001122,190,reward,1,0.3960118000395596,0.3960156999528408,1474.588569500018,,,,,,,,46,D,2024-01-09_08h29.52.313,gca_avoidance_task,2022.2.4,143.89358743278314,
positions.xlsx,stimuli.xlsx,stimuli/Social2.png,stimuli/Social1.png,stimuli/Nonsocial2.png,stimuli/Nonsocial1.png,,"(0.7, -0.5)",cs_minus_ns,,,,,0,0,0,0,,,,,,,,,2,10,42,15,,,,,,,,,,,,,,,,,,,,,1484.1159828000236,195,reward,1,0.38898759987205267,0.38899159990251064,1484.5117828999646,,,,,,,,46,D,2024-01-09_08h29.52.313,gca_avoidance_task,2022.2.4,143.89358743278314,
positions.xlsx,stimuli.xlsx,stimuli/Social2.png,stimuli/Social1.png,stimuli/Nonsocial2.png,stimuli/Nonsocial1.png,,"(-0.7, 0.5)",cs_minus_ns,,,,,0,0,0,0,,,,,,,,,2,11,43,12,,,,,,,,,,,,,,,,,,,,,1494.254442699952,200,reward,1,0.3825226998887956,0.3825264999177307,1494.6433508000337,,,,,,,,46,D,2024-01-09_08h29.52.313,gca_avoidance_task,2022.2.4,143.89358743278314,
positions.xlsx,stimuli.xlsx,stimuli/Social2.png,stimuli/Social1.png,stimuli/Nonsocial2.png,stimuli/Nonsocial1.png,,"(0.7, -0.5)",cs_plus_s,,,,,0,0,0,0,,,,,,,,,2,12,44,3,,,,,,,,,,,,,,,,,,,,,1504.0665688000154,200,none,0,,,1509.0733298000414,,,,,,,,46,D,2024-01-09_08h29.52.313,gca_avoidance_task,2022.2.4,143.89358743278314,
positions.xlsx,stimuli.xlsx,stimuli/Social2.png,stimuli/Social1.png,stimuli/Nonsocial2.png,stimuli/Nonsocial1.png,,"(0.7, 0.5)",cs_plus_s,,,,,0,0,0,0,,,,,,,,,2,13,45,2,,,,,,,,,,,,,,,,,,,,,1518.8437838000245,200,none,0,,,1523.850495000137,,,,,,,,46,D,2024-01-09_08h29.52.313,gca_avoidance_task,2022.2.4,143.89358743278314,
positions.xlsx,stimuli.xlsx,stimuli/Social2.png,stimuli/Social1.png,stimuli/Nonsocial2.png,stimuli/Nonsocial1.png,,"(0.7, 0.5)",cs_plus_ns,,,,,0,0,0,0,,,,,,,,,2,14,46,10,,,,,,,,,,,,,,,,,,,,,1532.523788599996,200,none,0,,,1537.5305298999883,,,,,,,,46,D,2024-01-09_08h29.52.313,gca_avoidance_task,2022.2.4,143.89358743278314,
positions.xlsx,stimuli.xlsx,stimuli/Social2.png,stimuli/Social1.png,stimuli/Nonsocial2.png,stimuli/Nonsocial1.png,,"(-0.7, -0.5)",cs_plus_ns,,,,,0,0,0,0,,,,,,,,,2,15,47,9,,,,,,,,,,,,,,,,,,,,,1546.210739800008,200,none,0,,,1551.2174969001208,,,,,,,,46,D,2024-01-09_08h29.52.313,gca_avoidance_task,2022.2.4,143.89358743278314,
positions.xlsx,stimuli.xlsx,stimuli/Social2.png,stimuli/Social1.png,stimuli/Nonsocial2.png,stimuli/Nonsocial1.png,,"(0.7, 0.5)",cs_plus_s,,,,,0,0,0,0,,,,,,,,,3,0,48,2,,,,,,,,,,,,,,,,,,,,,1560.599077800056,200,none,0,,,1565.6058267001063,,,,,,,,46,D,2024-01-09_08h29.52.313,gca_avoidance_task,2022.2.4,143.89358743278314,
positions.xlsx,stimuli.xlsx,stimuli/Social2.png,stimuli/Social1.png,stimuli/Nonsocial2.png,stimuli/Nonsocial1.png,,"(-0.7, -0.5)",cs_plus_ns,,,,,0,0,0,0,,,,,,,,,3,1,49,9,,,,,,,,,,,,,,,,,,,,,1575.84150650003,200,shock,1,0.37486290000379086,0.37486690003424883,1576.2234298000112,,,,,,,,46,D,2024-01-09_08h29.52.313,gca_avoidance_task,2022.2.4,143.89358743278314,
positions.xlsx,stimuli.xlsx,stimuli/Social2.png,stimuli/Social1.png,stimuli/Nonsocial2.png,stimuli/Nonsocial1.png,,"(-0.7, -0.5)",cs_minus_ns,,,,,0,0,0,0,,,,,,,,,3,2,50,13,,,,,,,,,,,,,,,,,,,,,1586.3619325000327,205,reward,1,0.5487499998416752,0.548753899987787,1586.917455200106,,,,,,,,46,D,2024-01-09_08h29.52.313,gca_avoidance_task,2022.2.4,143.89358743278314,
positions.xlsx,stimuli.xlsx,stimuli/Social2.png,stimuli/Social1.png,stimuli/Nonsocial2.png,stimuli/Nonsocial1.png,,"(-0.7, 0.5)",cs_plus_s,,,,,0,0,0,0,,,,,,,,,3,3,51,0,,,,,,,,,,,,,,,,,,,,,1595.9240310001187,205,none,0,,,1600.9308142999653,,,,,,,,46,D,2024-01-09_08h29.52.313,gca_avoidance_task,2022.2.4,143.89358743278314,
positions.xlsx,stimuli.xlsx,stimuli/Social2.png,stimuli/Social1.png,stimuli/Nonsocial2.png,stimuli/Nonsocial1.png,,"(-0.7, 0.5)",cs_minus_ns,,,,,0,0,0,0,,,,,,,,,3,4,52,12,,,,,,,,,,,,,,,,,,,,,1609.847120200051,210,reward,1,0.500523200025782,0.5005270000547171,1610.3540128001478,,,,,,,,46,D,2024-01-09_08h29.52.313,gca_avoidance_task,2022.2.4,143.89358743278314,
positions.xlsx,stimuli.xlsx,stimuli/Social2.png,stimuli/Social1.png,stimuli/Nonsocial2.png,stimuli/Nonsocial1.png,,"(-0.7, 0.5)",cs_minus_s,,,,,0,0,0,0,,,,,,,,,3,5,53,4,,,,,,,,,,,,,,,,,,,,,1619.5758903999813,215,reward,1,0.5765301999635994,0.5765340998768806,1620.1592518999241,,,,,,,,46,D,2024-01-09_08h29.52.313,gca_avoidance_task,2022.2.4,143.89358743278314,
positions.xlsx,stimuli.xlsx,stimuli/Social2.png,stimuli/Social1.png,stimuli/Nonsocial2.png,stimuli/Nonsocial1.png,,"(0.7, -0.5)",cs_plus_s,,,,,0,0,0,0,,,,,,,,,3,6,54,3,,,,,,,,,,,,,,,,,,,,,1629.4782829000615,215,none,0,,,1634.485039900057,,,,,,,,46,D,2024-01-09_08h29.52.313,gca_avoidance_task,2022.2.4,143.89358743278314,
positions.xlsx,stimuli.xlsx,stimuli/Social2.png,stimuli/Social1.png,stimuli/Nonsocial2.png,stimuli/Nonsocial1.png,,"(0.7, -0.5)",cs_plus_ns,,,,,0,0,0,0,,,,,,,,,3,7,55,11,,,,,,,,,,,,,,,,,,,,,1644.10963800014,215,none,0,,,1649.1163781001233,,,,,,,,46,D,2024-01-09_08h29.52.313,gca_avoidance_task,2022.2.4,143.89358743278314,
positions.xlsx,stimuli.xlsx,stimuli/Social2.png,stimuli/Social1.png,stimuli/Nonsocial2.png,stimuli/Nonsocial1.png,,"(0.7, 0.5)",cs_minus_s,,,,,0,0,0,0,,,,,,,,,3,8,56,6,,,,,,,,,,,,,,,,,,,,,1659.5882190000266,220,reward,1,0.5143204999621958,0.5143244001083076,1660.1090385999996,,,,,,,,46,D,2024-01-09_08h29.52.313,gca_avoidance_task,2022.2.4,143.89358743278314,
positions.xlsx,stimuli.xlsx,stimuli/Social2.png,stimuli/Social1.png,stimuli/Nonsocial2.png,stimuli/Nonsocial1.png,,"(-0.7, -0.5)",cs_minus_s,,,,,0,0,0,0,,,,,,,,,3,9,57,5,,,,,,,,,,,,,,,,,,,,,1669.5044883000664,225,reward,1,0.4311027000658214,0.4311067000962794,1669.941986599937,,,,,,,,46,D,2024-01-09_08h29.52.313,gca_avoidance_task,2022.2.4,143.89358743278314,
positions.xlsx,stimuli.xlsx,stimuli/Social2.png,stimuli/Social1.png,stimuli/Nonsocial2.png,stimuli/Nonsocial1.png,,"(0.7, 0.5)",cs_minus_ns,,,,,0,0,0,0,,,,,,,,,3,10,58,14,,,,,,,,,,,,,,,,,,,,,1679.2888138000853,230,reward,1,0.47933209990151227,0.4793360000476241,1679.7748964000493,,,,,,,,46,D,2024-01-09_08h29.52.313,gca_avoidance_task,2022.2.4,143.89358743278314,
positions.xlsx,stimuli.xlsx,stimuli/Social2.png,stimuli/Social1.png,stimuli/Nonsocial2.png,stimuli/Nonsocial1.png,,"(0.7, -0.5)",cs_minus_s,,,,,0,0,0,0,,,,,,,,,3,11,59,7,,,,,,,,,,,,,,,,,,,,,1689.7536615999416,235,reward,1,0.43054379988461733,0.4305475999135524,1690.1911859000102,,,,,,,,46,D,2024-01-09_08h29.52.313,gca_avoidance_task,2022.2.4,143.89358743278314,
positions.xlsx,stimuli.xlsx,stimuli/Social2.png,stimuli/Social1.png,stimuli/Nonsocial2.png,stimuli/Nonsocial1.png,,"(0.7, 0.5)",cs_plus_ns,,,,,0,0,0,0,,,,,,,,,3,12,60,10,,,,,,,,,,,,,,,,,,,,,1700.378251099959,235,none,0,,,1705.384995700093,,,,,,,,46,D,2024-01-09_08h29.52.313,gca_avoidance_task,2022.2.4,143.89358743278314,
positions.xlsx,stimuli.xlsx,stimuli/Social2.png,stimuli/Social1.png,stimuli/Nonsocial2.png,stimuli/Nonsocial1.png,,"(-0.7, -0.5)",cs_plus_s,,,,,0,0,0,0,,,,,,,,,3,13,61,1,,,,,,,,,,,,,,,,,,,,,1715.301265400136,235,none,0,,,1720.308037100127,,,,,,,,46,D,2024-01-09_08h29.52.313,gca_avoidance_task,2022.2.4,143.89358743278314,
positions.xlsx,stimuli.xlsx,stimuli/Social2.png,stimuli/Social1.png,stimuli/Nonsocial2.png,stimuli/Nonsocial1.png,,"(-0.7, 0.5)",cs_plus_ns,,,,,0,0,0,0,,,,,,,,,3,14,62,8,,,,,,,,,,,,,,,,,,,,,1729.488218500046,235,none,0,,,1734.4949670999777,,,,,,,,46,D,2024-01-09_08h29.52.313,gca_avoidance_task,2022.2.4,143.89358743278314,
positions.xlsx,stimuli.xlsx,stimuli/Social2.png,stimuli/Social1.png,stimuli/Nonsocial2.png,stimuli/Nonsocial1.png,,"(0.7, -0.5)",cs_minus_ns,,,,,0,0,0,0,,,,,,,,,3,15,63,15,,,,,,,,,,,,,,,,,,,,,1743.7584812999703,240,reward,1,0.4376435000449419,0.437647300073877,1744.2029079999775,,,,,,,,46,D,2024-01-09_08h29.52.313,gca_avoidance_task,2022.2.4,143.89358743278314,
positions.xlsx,stimuli.xlsx,stimuli/Social2.png,stimuli/Social1.png,stimuli/Nonsocial2.png,stimuli/Nonsocial1.png,,"(-0.7, 0.5)",cs_minus_ns,,,,,0,0,0,0,,,,,,,,,4,0,64,12,,,,,,,,,,,,,,,,,,,,,1753.883048699936,245,reward,1,0.41727519989944994,0.4172791000455618,1754.3066400000826,,,,,,,,46,D,2024-01-09_08h29.52.313,gca_avoidance_task,2022.2.4,143.89358743278314,
positions.xlsx,stimuli.xlsx,stimuli/Social2.png,stimuli/Social1.png,stimuli/Nonsocial2.png,stimuli/Nonsocial1.png,,"(0.7, -0.5)",cs_minus_ns,,,,,0,0,0,0,,,,,,,,,4,1,65,15,,,,,,,,,,,,,,,,,,,,,1763.6118696001358,250,reward,1,0.4102189999539405,0.4102228998672217,1764.0285614000168,,,,,,,,46,D,2024-01-09_08h29.52.313,gca_avoidance_task,2022.2.4,143.89358743278314,
positions.xlsx,stimuli.xlsx,stimuli/Social2.png,stimuli/Social1.png,stimuli/Nonsocial2.png,stimuli/Nonsocial1.png,,"(0.7, 0.5)",cs_minus_s,,,,,0,0,0,0,,,,,,,,,4,2,66,6,,,,,,,,,,,,,,,,,,,,,1773.965653100051,255,reward,1,0.4929118000436574,0.49291559983976185,1774.4656136999838,,,,,,,,46,D,2024-01-09_08h29.52.313,gca_avoidance_task,2022.2.4,143.89358743278314,
positions.xlsx,stimuli.xlsx,stimuli/Social2.png,stimuli/Social1.png,stimuli/Nonsocial2.png,stimuli/Nonsocial1.png,,"(0.7, 0.5)",cs_plus_ns,,,,,0,0,0,0,,,,,,,,,4,3,67,10,,,,,,,,,,,,,,,,,,,,,1784.0346709999721,255,none,0,,,1789.041429300094,,,,,,,,46,D,2024-01-09_08h29.52.313,gca_avoidance_task,2022.2.4,143.89358743278314,
positions.xlsx,stimuli.xlsx,stimuli/Social2.png,stimuli/Social1.png,stimuli/Nonsocial2.png,stimuli/Nonsocial1.png,,"(-0.7, 0.5)",cs_minus_s,,,,,0,0,0,0,,,,,,,,,4,4,68,4,,,,,,,,,,,,,,,,,,,,,1798.5896503000986,260,reward,1,0.4929873999208212,0.4929910998325795,1799.0896608000621,,,,,,,,46,D,2024-01-09_08h29.52.313,gca_avoidance_task,2022.2.4,143.89358743278314,
positions.xlsx,stimuli.xlsx,stimuli/Social2.png,stimuli/Social1.png,stimuli/Nonsocial2.png,stimuli/Nonsocial1.png,,"(0.7, -0.5)",cs_plus_s,,,,,0,0,0,0,,,,,,,,,4,5,69,3,,,,,,,,,,,,,,,,,,,,,1808.3045300999656,260,none,0,,,1813.3112914999947,,,,,,,,46,D,2024-01-09_08h29.52.313,gca_avoidance_task,2022.2.4,143.89358743278314,
positions.xlsx,stimuli.xlsx,stimuli/Social2.png,stimuli/Social1.png,stimuli/Nonsocial2.png,stimuli/Nonsocial1.png,,"(0.7, -0.5)",cs_plus_ns,,,,,0,0,0,0,,,,,,,,,4,6,70,11,,,,,,,,,,,,,,,,,,,,,1822.9498064999934,260,none,0,,,1827.9565530000255,,,,,,,,46,D,2024-01-09_08h29.52.313,gca_avoidance_task,2022.2.4,143.89358743278314,
positions.xlsx,stimuli.xlsx,stimuli/Social2.png,stimuli/Social1.png,stimuli/Nonsocial2.png,stimuli/Nonsocial1.png,,"(-0.7, 0.5)",cs_plus_ns,,,,,0,0,0,0,,,,,,,,,4,7,71,8,,,,,,,,,,,,,,,,,,,,,1837.4145025000907,260,none,0,,,1842.4212648000102,,,,,,,,46,D,2024-01-09_08h29.52.313,gca_avoidance_task,2022.2.4,143.89358743278314,
positions.xlsx,stimuli.xlsx,stimuli/Social2.png,stimuli/Social1.png,stimuli/Nonsocial2.png,stimuli/Nonsocial1.png,,"(-0.7, -0.5)",cs_minus_ns,,,,,0,0,0,0,,,,,,,,,4,8,72,13,,,,,,,,,,,,,,,,,,,,,1851.4695178000256,265,reward,1,0.4095244000200182,0.4095280000474304,1851.886177700013,,,,,,,,46,D,2024-01-09_08h29.52.313,gca_avoidance_task,2022.2.4,143.89358743278314,
positions.xlsx,stimuli.xlsx,stimuli/Social2.png,stimuli/Social1.png,stimuli/Nonsocial2.png,stimuli/Nonsocial1.png,,"(0.7, 0.5)",cs_minus_ns,,,,,0,0,0,0,,,,,,,,,4,9,73,14,,,,,,,,,,,,,,,,,,,,,1861.3302382000256,270,reward,1,0.43069340009242296,0.43069730000570416,1861.7677396999206,,,,,,,,46,D,2024-01-09_08h29.52.313,gca_avoidance_task,2022.2.4,143.89358743278314,
positions.xlsx,stimuli.xlsx,stimuli/Social2.png,stimuli/Social1.png,stimuli/Nonsocial2.png,stimuli/Nonsocial1.png,,"(-0.7, 0.5)",cs_plus_s,,,,,0,0,0,0,,,,,,,,,4,10,74,0,,,,,,,,,,,,,,,,,,,,,1871.0451126999687,270,none,0,,,1876.0519000000786,,,,,,,,46,D,2024-01-09_08h29.52.313,gca_avoidance_task,2022.2.4,143.89358743278314,
positions.xlsx,stimuli.xlsx,stimuli/Social2.png,stimuli/Social1.png,stimuli/Nonsocial2.png,stimuli/Nonsocial1.png,,"(0.7, -0.5)",cs_minus_s,,,,,0,0,0,0,,,,,,,,,4,11,75,7,,,,,,,,,,,,,,,,,,,,,1885.7042893001344,275,reward,1,0.4653469000477344,0.4653507999610156,1886.1764644000214,,,,,,,,46,D,2024-01-09_08h29.52.313,gca_avoidance_task,2022.2.4,143.89358743278314,
positions.xlsx,stimuli.xlsx,stimuli/Social2.png,stimuli/Social1.png,stimuli/Nonsocial2.png,stimuli/Nonsocial1.png,,"(-0.7, -0.5)",cs_plus_ns,,,,,0,0,0,0,,,,,,,,,4,12,76,9,,,,,,,,,,,,,,,,,,,,,1895.8288799000438,275,none,0,,,1900.8356993000489,,,,,,,,46,D,2024-01-09_08h29.52.313,gca_avoidance_task,2022.2.4,143.89358743278314,
positions.xlsx,stimuli.xlsx,stimuli/Social2.png,stimuli/Social1.png,stimuli/Nonsocial2.png,stimuli/Nonsocial1.png,,"(0.7, 0.5)",cs_plus_s,,,,,0,0,0,0,,,,,,,,,4,13,77,2,,,,,,,,,,,,,,,,,,,,,1909.9116861000657,275,none,0,,,1914.9184115000535,,,,,,,,46,D,2024-01-09_08h29.52.313,gca_avoidance_task,2022.2.4,143.89358743278314,
positions.xlsx,stimuli.xlsx,stimuli/Social2.png,stimuli/Social1.png,stimuli/Nonsocial2.png,stimuli/Nonsocial1.png,,"(-0.7, -0.5)",cs_minus_s,,,,,0,0,0,0,,,,,,,,,4,14,78,5,,,,,,,,,,,,,,,,,,,,,1923.9180580999237,280,reward,1,0.44487249990925193,0.44487680005840957,1924.369428700069,,,,,,,,46,D,2024-01-09_08h29.52.313,gca_avoidance_task,2022.2.4,143.89358743278314,
positions.xlsx,stimuli.xlsx,stimuli/Social2.png,stimuli/Social1.png,stimuli/Nonsocial2.png,stimuli/Nonsocial1.png,,"(-0.7, -0.5)",cs_plus_s,,,,,0,0,0,0,,,,,,,,,4,15,79,1,,,,,,,,,,,,,,,,,,,,,1933.341292400146,280,none,0,,,1938.3480913001113,,,,,,,,46,D,2024-01-09_08h29.52.313,gca_avoidance_task,2022.2.4,143.89358743278314,
positions.xlsx,stimuli.xlsx,stimuli/Social2.png,stimuli/Social1.png,stimuli/Nonsocial2.png,stimuli/Nonsocial1.png,cs_minus_s,,,,,,,0,0,0,0,,,,,,,,,,,,,0,0,0,2,,,,,,,,,,,,,1956.6112602001522,8.0,3.524895600043237,,,,,,,,,5.0,9.069727099966258,,,,,,46,D,2024-01-09_08h29.52.313,gca_avoidance_task,2022.2.4,143.89358743278314,
positions.xlsx,stimuli.xlsx,stimuli/Social2.png,stimuli/Social1.png,stimuli/Nonsocial2.png,stimuli/Nonsocial1.png,cs_minus_ns,,,,,,,0,0,0,0,,,,,,,,,,,,,0,1,1,3,,,,,,,,,,,,,1961.3680382000748,7.0,2.514166200067848,,,,,,,,,,,,,,,,46,D,2024-01-09_08h29.52.313,gca_avoidance_task,2022.2.4,143.89358743278314,
positions.xlsx,stimuli.xlsx,stimuli/Social2.png,stimuli/Social1.png,stimuli/Nonsocial2.png,stimuli/Nonsocial1.png,cs_plus_ns,,,,,,,0,0,0,0,,,,,,,,,,,,,0,2,2,1,,,,,,,,,,,,,1965.0553284999914,3.0,2.0005340999923646,,,,,,,,,,,,,,,,46,D,2024-01-09_08h29.52.313,gca_avoidance_task,2022.2.4,143.89358743278314,
positions.xlsx,stimuli.xlsx,stimuli/Social2.png,stimuli/Social1.png,stimuli/Nonsocial2.png,stimuli/Nonsocial1.png,cs_plus_s,,,,,,,0,0,0,0,,,,,,,,,,,,,0,3,3,0,,,,,,,,,,,,,1968.1524336000439,5.0,1.6401881000492722,,,,,,,,,,,,,,,,46,D,2024-01-09_08h29.52.313,gca_avoidance_task,2022.2.4,143.89358743278314,
positions.xlsx,stimuli.xlsx,stimuli/Social2.png,stimuli/Social1.png,stimuli/Nonsocial2.png,stimuli/Nonsocial1.png,cs_plus_s,,,,,,,0,0,0,0,,,,,,,,,,,,,,,,,0,0,0,0,,,,,,,,,,,,,,,,,,,,,,1972.5272564000916,1984.047632599948,5,0.02149169985204935,0.6108920997940004,46,D,2024-01-09_08h29.52.313,gca_avoidance_task,2022.2.4,143.89358743278314,
positions.xlsx,stimuli.xlsx,stimuli/Social2.png,stimuli/Social1.png,stimuli/Nonsocial2.png,stimuli/Nonsocial1.png,cs_minus_s,,,,,,,0,0,0,0,,,,,,,,,,,,,,,,,0,1,1,2,,,,,,,,,,,,,,,,,,,,,,,1999.4220426999964,6,0.01301559992134571,1.576600099913776,46,D,2024-01-09_08h29.52.313,gca_avoidance_task,2022.2.4,143.89358743278314,
positions.xlsx,stimuli.xlsx,stimuli/Social2.png,stimuli/Social1.png,stimuli/Nonsocial2.png,stimuli/Nonsocial1.png,cs_plus_ns,,,,,,,0,0,0,0,,,,,,,,,,,,,,,,,0,2,2,1,,,,,,,,,,,,,,,,,,,,,,,2014.0672931999434,8,0.014377499930560589,1.2987462999299169,46,D,2024-01-09_08h29.52.313,gca_avoidance_task,2022.2.4,143.89358743278314,
positions.xlsx,stimuli.xlsx,stimuli/Social2.png,stimuli/Social1.png,stimuli/Nonsocial2.png,stimuli/Nonsocial1.png,cs_minus_ns,,,,,,,0,0,0,0,,,,,,,,,,,,,,,,,0,3,3,3,,,,,,,,,,,,,,,,,,,,,,,2029.2542082001455,10,0.014622400049120188,1.0698706000111997,46,D,2024-01-09_08h29.52.313,gca_avoidance_task,2022.2.4,143.89358743278314,
positions.xlsx,stimuli.xlsx,stimuli/Social2.png,stimuli/Social1.png,stimuli/Nonsocial2.png,stimuli/Nonsocial1.png,cs_minus_ns,,,,,,,0,0,0,0,,,,,,,,,,,,,,,,,1,0,4,3,,,,,,,,,,,,,,,,,,,,,,,2044.6008047999348,7,0.01449030009098351,1.965408300049603,46,D,2024-01-09_08h29.52.313,gca_avoidance_task,2022.2.4,143.89358743278314,
positions.xlsx,stimuli.xlsx,stimuli/Social2.png,stimuli/Social1.png,stimuli/Nonsocial2.png,stimuli/Nonsocial1.png,cs_minus_s,,,,,,,0,0,0,0,,,,,,,,,,,,,,,,,1,1,5,2,,,,,,,,,,,,,,,,,,,,,,,2059.20444030012,8,0.013646099949255586,0.7431475999765098,46,D,2024-01-09_08h29.52.313,gca_avoidance_task,2022.2.4,143.89358743278314,
positions.xlsx,stimuli.xlsx,stimuli/Social2.png,stimuli/Social1.png,stimuli/Nonsocial2.png,stimuli/Nonsocial1.png,cs_plus_ns,,,,,,,0,0,0,0,,,,,,,,,,,,,,,,,1,2,6,1,,,,,,,,,,,,,,,,,,,,,,,2074.606601800071,9,0.013986099977046251,0.45840090001001954,46,D,2024-01-09_08h29.52.313,gca_avoidance_task,2022.2.4,143.89358743278314,
positions.xlsx,stimuli.xlsx,stimuli/Social2.png,stimuli/Social1.png,stimuli/Nonsocial2.png,stimuli/Nonsocial1.png,cs_plus_s,,,,,,,0,0,0,0,,,,,,,,,,,,,,,,,1,3,7,0,,,,,,,,,,,,,,,,,,,,,,,2089.717110400088,5,0.013463999843224883,2.6811812999658287,46,D,2024-01-09_08h29.52.313,gca_avoidance_task,2022.2.4,143.89358743278314,
positions.xlsx,stimuli.xlsx,stimuli/Social2.png,stimuli/Social1.png,stimuli/Nonsocial2.png,stimuli/Nonsocial1.png,cs_plus_ns,,,,,,,0,0,0,0,,,,,,,,,,,,,,,,,2,0,8,1,,,,,,,,,,,,,,,,,,,,,,,2105.1609261000995,6,0.2921077001374215,1.5073464999441057,46,D,2024-01-09_08h29.52.313,gca_avoidance_task,2022.2.4,143.89358743278314,
positions.xlsx,stimuli.xlsx,stimuli/Social2.png,stimuli/Social1.png,stimuli/Nonsocial2.png,stimuli/Nonsocial1.png,cs_minus_s,,,,,,,0,0,0,0,,,,,,,,,,,,,,,,,2,1,9,2,,,,,,,,,,,,,,,,,,,,,,,2120.1811796000693,4,0.014501799829304218,0.47238019993528724,46,D,2024-01-09_08h29.52.313,gca_avoidance_task,2022.2.4,143.89358743278314,
positions.xlsx,stimuli.xlsx,stimuli/Social2.png,stimuli/Social1.png,stimuli/Nonsocial2.png,stimuli/Nonsocial1.png,cs_minus_ns,,,,,,,0,0,0,0,,,,,,,,,,,,,,,,,2,2,10,3,,,,,,,,,,,,,,,,,,,,,,,2135.041703999974,5,0.014817799907177687,1.145811199909076,46,D,2024-01-09_08h29.52.313,gca_avoidance_task,2022.2.4,143.89358743278314,
positions.xlsx,stimuli.xlsx,stimuli/Social2.png,stimuli/Social1.png,stimuli/Nonsocial2.png,stimuli/Nonsocial1.png,cs_plus_s,,,,,,,0,0,0,0,,,,,,,,,,,,,,,,,2,3,11,0,,,,,,,,,,,,,,,,,,,,,,,2149.5550404000096,8,0.013678000075742602,0.7084568999707699,46,D,2024-01-09_08h29.52.313,gca_avoidance_task,2022.2.4,143.89358743278314,
positions.xlsx,stimuli.xlsx,stimuli/Social2.png,stimuli/Social1.png,stimuli/Nonsocial2.png,stimuli/Nonsocial1.png,cs_minus_s,,,,,,,0,0,0,0,,,,,,,,,,,,,,,,,3,0,12,2,,,,,,,,,,,,,,,,,,,,,,,2164.075292600086,5,0.01386220008134842,0.541882700053975,46,D,2024-01-09_08h29.52.313,gca_avoidance_task,2022.2.4,143.89358743278314,
positions.xlsx,stimuli.xlsx,stimuli/Social2.png,stimuli/Social1.png,stimuli/Nonsocial2.png,stimuli/Nonsocial1.png,cs_plus_s,,,,,,,0,0,0,0,,,,,,,,,,,,,,,,,3,1,13,0,,,,,,,,,,,,,,,,,,,,,,,2179.0330445000436,5,0.013041300000622869,1.8268069999758154,46,D,2024-01-09_08h29.52.313,gca_avoidance_task,2022.2.4,143.89358743278314,
positions.xlsx,stimuli.xlsx,stimuli/Social2.png,stimuli/Social1.png,stimuli/Nonsocial2.png,stimuli/Nonsocial1.png,cs_minus_ns,,,,,,,0,0,0,0,,,,,,,,,,,,,,,,,3,2,14,3,,,,,,,,,,,,,,,,,,,,,,,2193.6713424001355,9,0.013962900033220649,0.756972000002861,46,D,2024-01-09_08h29.52.313,gca_avoidance_task,2022.2.4,143.89358743278314,
positions.xlsx,stimuli.xlsx,stimuli/Social2.png,stimuli/Social1.png,stimuli/Nonsocial2.png,stimuli/Nonsocial1.png,cs_plus_ns,,,,,,,0,0,0,0,,,,,,,,,,,,,,,,,3,3,15,1,,,,,,,,,,,,,,,,,,,,,,,2208.462469100021,7,0.013966399943456054,1.5210597000550479,46,D,2024-01-09_08h29.52.313,gca_avoidance_task,2022.2.4,143.89358743278314,
positions.xlsx,stimuli.xlsx,stimuli/Social2.png,stimuli/Social1.png,stimuli/Nonsocial2.png,stimuli/Nonsocial1.png,cs_plus_s,,,,,,,0,0,0,0,,,,,,,,,,,,,,,,,4,0,16,0,,,,,,,,,,,,,,,,,,,,,,,2223.774314499926,7,0.013676000060513616,1.4725550999864936,46,D,2024-01-09_08h29.52.313,gca_avoidance_task,2022.2.4,143.89358743278314,
positions.xlsx,stimuli.xlsx,stimuli/Social2.png,stimuli/Social1.png,stimuli/Nonsocial2.png,stimuli/Nonsocial1.png,cs_minus_ns,,,,,,,0,0,0,0,,,,,,,,,,,,,,,,,4,1,17,3,,,,,,,,,,,,,,,,,,,,,,,2238.926519700093,7,0.014118999941274524,0.32656920002773404,46,D,2024-01-09_08h29.52.313,gca_avoidance_task,2022.2.4,143.89358743278314,
positions.xlsx,stimuli.xlsx,stimuli/Social2.png,stimuli/Social1.png,stimuli/Nonsocial2.png,stimuli/Nonsocial1.png,cs_plus_ns,,,,,,,0,0,0,0,,,,,,,,,,,,,,,,,4,2,18,1,,,,,,,,,,,,,,,,,,,,,,,2254.189798800042,7,0.014194099931046367,0.6043320000171661,46,D,2024-01-09_08h29.52.313,gca_avoidance_task,2022.2.4,143.89358743278314,
positions.xlsx,stimuli.xlsx,stimuli/Social2.png,stimuli/Social1.png,stimuli/Nonsocial2.png,stimuli/Nonsocial1.png,cs_minus_s,,,,,,,0,0,0,0,,,,,,,,,,,,,,,,,4,3,19,2,,,,,,,,,,,,,,,,,,,,,,,2269.6197351000737,9,0.013873599935323,0.4171138999518007,46,D,2024-01-09_08h29.52.313,gca_avoidance_task,2022.2.4,143.89358743278314,
positions.xlsx,stimuli.xlsx,stimuli/Social2.png,stimuli/Social1.png,stimuli/Nonsocial2.png,stimuli/Nonsocial1.png,cs_minus_s,,,,,,,0,0,0,0,,,,,,,,,,,,,,,,,5,0,20,2,,,,,,,,,,,,,,,,,,,,,,,2284.785825900035,7,0.013157599838450551,0.2851473998744041,46,D,2024-01-09_08h29.52.313,gca_avoidance_task,2022.2.4,143.89358743278314,
positions.xlsx,stimuli.xlsx,stimuli/Social2.png,stimuli/Social1.png,stimuli/Nonsocial2.png,stimuli/Nonsocial1.png,cs_plus_s,,,,,,,0,0,0,0,,,,,,,,,,,,,,,,,5,1,21,0,,,,,,,,,,,,,,,,,,,,,,,2299.3338506999426,8,0.12527289986610413,1.5072876999620348,46,D,2024-01-09_08h29.52.313,gca_avoidance_task,2022.2.4,143.89358743278314,
positions.xlsx,stimuli.xlsx,stimuli/Social2.png,stimuli/Social1.png,stimuli/Nonsocial2.png,stimuli/Nonsocial1.png,cs_minus_ns,,,,,,,0,0,0,0,,,,,,,,,,,,,,,,,5,2,22,3,,,,,,,,,,,,,,,,,,,,,,,2314.3332456999924,9,0.01443250011652708,1.3127069000620395,46,D,2024-01-09_08h29.52.313,gca_avoidance_task,2022.2.4,143.89358743278314,
positions.xlsx,stimuli.xlsx,stimuli/Social2.png,stimuli/Social1.png,stimuli/Nonsocial2.png,stimuli/Nonsocial1.png,cs_plus_ns,,,,,,,0,0,0,0,,,,,,,,,,,,,,,,,5,3,23,1,,,,,,,,,,,,,,,,,,,,,,,2329.2562814999837,5,0.11850359989330173,2.312884399900213,46,D,2024-01-09_08h29.52.313,gca_avoidance_task,2022.2.4,143.89358743278314,
positions.xlsx,stimuli.xlsx,stimuli/Social2.png,stimuli/Social1.png,stimuli/Nonsocial2.png,stimuli/Nonsocial1.png,cs_plus_ns,,,,,,,0,0,0,0,,,,,,,,,,,,,,,,,6,0,24,1,,,,,,,,,,,,,,,,,,,,,,,2344.283501100028,9,0.013521899934858084,1.7711839000694454,46,D,2024-01-09_08h29.52.313,gca_avoidance_task,2022.2.4,143.89358743278314,
positions.xlsx,stimuli.xlsx,stimuli/Social2.png,stimuli/Social1.png,stimuli/Nonsocial2.png,stimuli/Nonsocial1.png,cs_plus_s,,,,,,,0,0,0,0,,,,,,,,,,,,,,,,,6,1,25,0,,,,,,,,,,,,,,,,,,,,,,,2359.6092926999554,7,0.013732000021263957,0.09763109986670315,46,D,2024-01-09_08h29.52.313,gca_avoidance_task,2022.2.4,143.89358743278314,
positions.xlsx,stimuli.xlsx,stimuli/Social2.png,stimuli/Social1.png,stimuli/Nonsocial2.png,stimuli/Nonsocial1.png,cs_minus_ns,,,,,,,0,0,0,0,,,,,,,,,,,,,,,,,6,2,26,3,,,,,,,,,,,,,,,,,,,,,,,2374.164255700074,7,0.014405299909412861,0.8821624999400228,46,D,2024-01-09_08h29.52.313,gca_avoidance_task,2022.2.4,143.89358743278314,
positions.xlsx,stimuli.xlsx,stimuli/Social2.png,stimuli/Social1.png,stimuli/Nonsocial2.png,stimuli/Nonsocial1.png,cs_minus_s,,,,,,,0,0,0,0,,,,,,,,,,,,,,,,,6,3,27,2,,,,,,,,,,,,,,,,,,,,,,,2389.0456249001436,6,0.1810457999818027,0.7434626999311149,46,D,2024-01-09_08h29.52.313,gca_avoidance_task,2022.2.4,143.89358743278314,
positions.xlsx,stimuli.xlsx,stimuli/Social2.png,stimuli/Social1.png,stimuli/Nonsocial2.png,stimuli/Nonsocial1.png,cs_plus_s,,,,,,,0,0,0,0,,,,,,,,,,,,,,,,,7,0,28,0,,,,,,,,,,,,,,,,,,,,,,,2403.642277600011,8,0.013551499927416444,1.590685199946165,46,D,2024-01-09_08h29.52.313,gca_avoidance_task,2022.2.4,143.89358743278314,
positions.xlsx,stimuli.xlsx,stimuli/Social2.png,stimuli/Social1.png,stimuli/Nonsocial2.png,stimuli/Nonsocial1.png,cs_minus_ns,,,,,,,0,0,0,0,,,,,,,,,,,,,,,,,7,1,29,3,,,,,,,,,,,,,,,,,,,,,,,2418.8777795000933,9,0.014499600045382977,0.7504829000681639,46,D,2024-01-09_08h29.52.313,gca_avoidance_task,2022.2.4,143.89358743278314,
positions.xlsx,stimuli.xlsx,stimuli/Social2.png,stimuli/Social1.png,stimuli/Nonsocial2.png,stimuli/Nonsocial1.png,cs_plus_ns,,,,,,,0,0,0,0,,,,,,,,,,,,,,,,,7,2,30,1,,,,,,,,,,,,,,,,,,,,,,,2434.1619053999893,8,0.014614199986681342,0.826793699990958,46,D,2024-01-09_08h29.52.313,gca_avoidance_task,2022.2.4,143.89358743278314,
positions.xlsx,stimuli.xlsx,stimuli/Social2.png,stimuli/Social1.png,stimuli/Nonsocial2.png,stimuli/Nonsocial1.png,cs_minus_s,,,,,,,0,0,0,0,,,,,,,,,,,,,,,,,7,3,31,2,,,,,,,,,,,,,,,,,,,,,,,2449.4460349001456,7,0.014736899873241782,0.09758790000341833,46,D,2024-01-09_08h29.52.313,gca_avoidance_task,2022.2.4,143.89358743278314,
positions.xlsx,stimuli.xlsx,stimuli/Social2.png,stimuli/Social1.png,stimuli/Nonsocial2.png,stimuli/Nonsocial1.png,cs_minus_ns,,,,,,,0,0,0,0,,,,,,,,,,,,,,,,,8,0,32,3,,,,,,,,,,,,,,,,,,,,,,,2464.091283600079,9,0.015025400090962648,0.06985970004461706,46,D,2024-01-09_08h29.52.313,gca_avoidance_task,2022.2.4,143.89358743278314,
positions.xlsx,stimuli.xlsx,stimuli/Social2.png,stimuli/Social1.png,stimuli/Nonsocial2.png,stimuli/Nonsocial1.png,cs_plus_s,,,,,,,0,0,0,0,,,,,,,,,,,,,,,,,8,1,33,0,,,,,,,,,,,,,,,,,,,,,,,2479.4865117999725,6,0.014171399874612689,0.6115635000169277,46,D,2024-01-09_08h29.52.313,gca_avoidance_task,2022.2.4,143.89358743278314,
positions.xlsx,stimuli.xlsx,stimuli/Social2.png,stimuli/Social1.png,stimuli/Nonsocial2.png,stimuli/Nonsocial1.png,cs_plus_ns,,,,,,,0,0,0,0,,,,,,,,,,,,,,,,,8,2,34,1,,,,,,,,,,,,,,,,,,,,,,,2494.791483500041,7,0.013841900043189526,0.6602457000408322,46,D,2024-01-09_08h29.52.313,gca_avoidance_task,2022.2.4,143.89358743278314,
positions.xlsx,stimuli.xlsx,stimuli/Social2.png,stimuli/Social1.png,stimuli/Nonsocial2.png,stimuli/Nonsocial1.png,cs_minus_s,,,,,,,0,0,0,0,,,,,,,,,,,,,,,,,8,3,35,2,,,,,,,,,,,,,,,,,,,,,,,2510.2422601999715,9,0.014481799909844995,0.08384369988925755,46,D,2024-01-09_08h29.52.313,gca_avoidance_task,2022.2.4,143.89358743278314,
positions.xlsx,stimuli.xlsx,stimuli/Social2.png,stimuli/Social1.png,stimuli/Nonsocial2.png,stimuli/Nonsocial1.png,cs_plus_ns,,,,,,,0,0,0,0,,,,,,,,,,,,,,,,,9,0,36,1,,,,,,,,,,,,,,,,,,,,,,,2525.4013594000135,8,0.013918899931013584,0.028032700065523386,46,D,2024-01-09_08h29.52.313,gca_avoidance_task,2022.2.4,143.89358743278314,
positions.xlsx,stimuli.xlsx,stimuli/Social2.png,stimuli/Social1.png,stimuli/Nonsocial2.png,stimuli/Nonsocial1.png,cs_minus_ns,,,,,,,0,0,0,0,,,,,,,,,,,,,,,,,9,1,37,3,,,,,,,,,,,,,,,,,,,,,,,2540.3521958000492,6,0.014064599992707372,0.7293421998620033,46,D,2024-01-09_08h29.52.313,gca_avoidance_task,2022.2.4,143.89358743278314,
positions.xlsx,stimuli.xlsx,stimuli/Social2.png,stimuli/Social1.png,stimuli/Nonsocial2.png,stimuli/Nonsocial1.png,cs_minus_s,,,,,,,0,0,0,0,,,,,,,,,,,,,,,,,9,2,38,2,,,,,,,,,,,,,,,,,,,,,,,2555.41411709995,6,0.013511199969798326,0.5561627999413759,46,D,2024-01-09_08h29.52.313,gca_avoidance_task,2022.2.4,143.89358743278314,
positions.xlsx,stimuli.xlsx,stimuli/Social2.png,stimuli/Social1.png,stimuli/Nonsocial2.png,stimuli/Nonsocial1.png,cs_plus_s,,,,,,,0,0,0,0,,,,,,,,,,,,,,,,,9,3,39,0,,,,,,,,,,,,,,,,,,,,,,,2570.830139900092,7,0.013686700025573373,1.993379000108689,46,D,2024-01-09_08h29.52.313,gca_avoidance_task,2022.2.4,143.89358743278314,
positions.xlsx,stimuli.xlsx,stimuli/Social2.png,stimuli/Social1.png,stimuli/Nonsocial2.png,stimuli/Nonsocial1.png,cs_plus_ns,,,,,,,0,0,0,0,,,,,,,,,,,,,,,,,,,,,0,0,0,1,,,,,2585.051814300008,5.0,10.932265799958259,,,,,,,,,,,,,,,,46,D,2024-01-09_08h29.52.313,gca_avoidance_task,2022.2.4,143.89358743278314,
positions.xlsx,stimuli.xlsx,stimuli/Social2.png,stimuli/Social1.png,stimuli/Nonsocial2.png,stimuli/Nonsocial1.png,cs_plus_s,,,,,,,0,0,0,0,,,,,,,,,,,,,,,,,,,,,0,1,1,0,,,,,2597.704141800059,6.0,4.438686100067571,,,,,,,,,,,,,,,,46,D,2024-01-09_08h29.52.313,gca_avoidance_task,2022.2.4,143.89358743278314,
positions.xlsx,stimuli.xlsx,stimuli/Social2.png,stimuli/Social1.png,stimuli/Nonsocial2.png,stimuli/Nonsocial1.png,cs_minus_s,,,,,,,0,0,0,0,,,,,,,,,,,,,,,,,,,,,0,2,2,2,,,,,2602.988636800088,7.0,3.341473500011489,,,,,,,,,,,,,,,,46,D,2024-01-09_08h29.52.313,gca_avoidance_task,2022.2.4,143.89358743278314,
positions.xlsx,stimuli.xlsx,stimuli/Social2.png,stimuli/Social1.png,stimuli/Nonsocial2.png,stimuli/Nonsocial1.png,cs_minus_ns,,,,,,,0,0,0,0,,,,,,,,,,,,,,,,,,,,,0,3,3,3,,,,,2607.169011000078,5.0,2.0909654998686165,,,,,,,,,,,,,,,,46,D,2024-01-09_08h29.52.313,gca_avoidance_task,2022.2.4,143.89358743278314,
