posFile,stimFile,cs_plus_s,cs_minus_s,cs_plus_ns,cs_minus_ns,stimtype,position,trialtype,trials_threshold.thisRepN,trials_threshold.thisTrialN,trials_threshold.thisN,trials_threshold.thisIndex,blocks.thisRepN,blocks.thisTrialN,blocks.thisN,blocks.thisIndex,ratingtrials1.thisRepN,ratingtrials1.thisTrialN,ratingtrials1.thisN,ratingtrials1.thisIndex,learning_trials.thisRepN,learning_trials.thisTrialN,learning_trials.thisN,learning_trials.thisIndex,trials.thisRepN,trials.thisTrialN,trials.thisN,trials.thisIndex,ratingtrials2.thisRepN,ratingtrials2.thisTrialN,ratingtrials2.thisN,ratingtrials2.thisIndex,testtrials.thisRepN,testtrials.thisTrialN,testtrials.thisN,testtrials.thisIndex,ratingtrials3.thisRepN,ratingtrials3.thisTrialN,ratingtrials3.thisN,ratingtrials3.thisIndex,textStart.started,spaceStart.started,spaceStart.keys,spaceStart.rt,textPainThreshold.started,spacePainThreshold.started,spacePainThreshold.keys,spacePainThreshold.rt,textRateT.started,text_noPainT.started,text_slightPainT.started,text_highPainT.started,sliderPainT.started,keys_PainT.started,sliderPainT.response,sliderPainT.rt,keys_PainT.keys,keys_PainT.rt,fixcrossT.started,portShock1T.started,portShock1T.stopped,portShock2T.started,portShock2T.stopped,portShock3T.started,portShock3T.stopped,fixcrossT.stopped,text_ETCalibration.started,spaceETCalibration.started,spaceETCalibration.keys,spaceETCalibration.rt,textStartExp.started,spaceStartExp.started,spaceStartExp.keys,spaceStartExp.rt,imageRating.started,sliderStim.started,spaceStim.started,sliderStim.response,sliderStim.rt,spaceStim.keys,spaceStim.rt,textStartTask.started,spaceStartTask.started,spaceStartTask.keys,spaceStartTask.rt,blankScreen.started,blankScreen.stopped,fixcross.started,image.started,roi.started,gazeCursor.started,portImage.started,portImage.stopped,score,outcome,roi.numLooks,roi.timesOn,roi.timesOff,imageFeedback.started,gazeCursor_Feedback.started,soundFeedback.started,portShock1.started,portShock1.stopped,portShock2.started,portShock2.stopped,portShock3.started,portShock3.stopped,soundFeedback.stopped,fixcrossE.started,fixcrossE.stopped,textRepeatTask.started,textboxRepeatInstruction.started,textRepeatSpace.started,spaceRepeatTask.started,spaceRepeatTask.keys,spaceRepeatTask.rt,textRate.started,text_noPain.started,text_slightPain.started,text_highPain.started,sliderPain.started,textSpacePain.started,spacePain.started,sliderPain.response,sliderPain.rt,spacePain.keys,spacePain.rt,textTestInstr.started,spaceTestInstr.started,spaceTestInstr.keys,spaceTestInstr.rt,imageTest.started,roiTest.started,portTestImage.started,portTestImage.stopped,roiTest.numLooks,roiTest.timesOn,roiTest.timesOff,participant,group,date,expName,psychopyVersion,frameRate,
,,,,,,,,,,,,,,,,,,,,,,,,,,,,,,,,,,,,,,,,,13.533440899998823,13.533440899998823,space,66.01794719999816,,,,,,,,,,,,,,,,,,,,,,,,,,,,,,,,,,,,,,,,,,,,,,,,,,,,,,,,,,,,,,,,,,,,,,,,,,,,,,,,,,,,,,,,,,,,,,,9,D,2023-12-07_16h27.21.527,gca_avoidance_task,2022.2.4,143.97666425720658,
,,,,,,,,,,,,,,,,,,,,,,,,,,,,,,,,,,,,,,,,,,,,,79.55854819999877,79.55854819999877,space,2.8175812999979826,,,,,,,,,,,,,,,,,,,,,,,,,,,,,,,,,,,,,,,,,,,,,,,,,,,,,,,,,,,,,,,,,,,,,,,,,,,,,,,,,,,,,,,,,,,9,D,2023-12-07_16h27.21.527,gca_avoidance_task,2022.2.4,143.97666425720658,
,,,,,,,,,0,0,0,0,,,,,,,,,,,,,,,,,,,,,,,,,,,,,,,,,,,,,83.44033480000144,83.44033480000144,83.44033480000144,83.44033480000144,83.44033480000144,83.44033480000144,None,None,s,4.814852199997404,89.00957149999886,0.10503099999914411,0.11197719999836409,0.1536296999984188,0.16059129999848665,0.2022356999987096,0.2091623999986041,,,,,,,,,,,,,,,,,,,,,,,,,,,,,,,,,,,,,,,,,,,,,,,,,,,,,,,,,,,,,,,,,,,,,,,,,,9,D,2023-12-07_16h27.21.527,gca_avoidance_task,2022.2.4,143.97666425720658,
,,,,,,,,,1,0,1,0,,,,,,,,,,,,,,,,,,,,,,,,,,,,,,,,,,,,,89.76648639999985,89.76648639999985,89.76648639999985,89.76648639999985,89.76648639999985,89.76648639999985,3.0,12.622561600001063,s,17.505056300000433,107.77266679999957,0.10251080000307411,0.10946770000009565,0.15106720000039786,0.1580353000026662,0.1996766000011121,0.2066250999996555,108.529645300001,,,,,,,,,,,,,,,,,,,,,,,,,,,,,,,,,,,,,,,,,,,,,,,,,,,,,,,,,,,,,,,,,,,,,,,,,9,D,2023-12-07_16h27.21.527,gca_avoidance_task,2022.2.4,143.97666425720658,
,,,,,,,,,2,0,2,0,,,,,,,,,,,,,,,,,,,,,,,,,,,,,,,,,,,,,108.529645300001,108.529645300001,108.529645300001,108.529645300001,108.529645300001,108.529645300001,5.0,2.1350918999996793,s,8.445909899997787,117.48758090000047,0.1027118000019982,0.1097090000002936,0.15134340000076918,0.15829780000058236,0.19997670000157086,0.20690580000155023,118.24451100000078,,,,,,,,,,,,,,,,,,,,,,,,,,,,,,,,,,,,,,,,,,,,,,,,,,,,,,,,,,,,,,,,,,,,,,,,,9,D,2023-12-07_16h27.21.527,gca_avoidance_task,2022.2.4,143.97666425720658,
,,,,,,,,,3,0,3,0,,,,,,,,,,,,,,,,,,,,,,,,,,,,,,,,,,,,,118.24451100000078,118.24451100000078,118.24451100000078,118.24451100000078,118.24451100000078,118.24451100000078,7.0,3.9948702000001504,s,11.426931300000433,130.1746004000015,0.10167970000111382,0.1086591999992379,0.15024629999970784,0.15719000000171945,0.20584990000133985,0.2127476999994542,130.9314817000013,,,,,,,,,,,,,,,,,,,,,,,,,,,,,,,,,,,,,,,,,,,,,,,,,,,,,,,,,,,,,,,,,,,,,,,,,9,D,2023-12-07_16h27.21.527,gca_avoidance_task,2022.2.4,143.97666425720658,
,,,,,,,,,4,0,4,0,,,,,,,,,,,,,,,,,,,,,,,,,,,,,,,,,,,,,130.9314817000013,130.9314817000013,130.9314817000013,130.9314817000013,130.9314817000013,130.9314817000013,8.0,2.603698399998393,s,8.132168199997977,139.5977989000021,0.09938340000007884,0.10635969999930239,0.1549431999992521,0.16186449999804609,0.20353120000072522,0.2104747999983374,140.36169449999943,,,,,,,,,,,,,,,,,,,,,,,,,,,,,,,,,,,,,,,,,,,,,,,,,,,,,,,,,,,,,,,,,,,,,,,,,9,D,2023-12-07_16h27.21.527,gca_avoidance_task,2022.2.4,143.97666425720658,
,,,,,,,,,5,0,5,0,,,,,,,,,,,,,,,,,,,,,,,,,,,,,,,,,,,,,140.36169449999943,140.36169449999943,140.36169449999943,140.36169449999943,140.36169449999943,140.36169449999943,8.0,3.750211800001125,s,7.629851599998801,148.50021800000104,0.10181689999808441,0.10877009999967413,0.15043899999727728,0.15738879999844357,0.19901059999756399,0.2059579999986454,149.25712980000026,,,,,,,,,,,,,,,,,,,,,,,,,,,,,,,,,,,,,,,,,,,,,,,,,,,,,,,,,,,,,,,,,,,,,,,,,9,D,2023-12-07_16h27.21.527,gca_avoidance_task,2022.2.4,143.97666425720658,
,,,,,,,,,6,0,6,0,,,,,,,,,,,,,,,,,,,,,,,,,,,,,,,,,,,,,149.25712980000026,149.25712980000026,149.25712980000026,149.25712980000026,149.25712980000026,149.25712980000026,7.0,3.8563491999993857,s,8.183019999996759,157.95125420000113,0.10198419999869657,0.10894449999977951,0.1505673999999999,0.15752340000108234,0.19918260000122245,0.2061786000012944,158.70814090000204,,,,,,,,,,,,,,,,,,,,,,,,,,,,,,,,,,,,,,,,,,,,,,,,,,,,,,,,,,,,,,,,,,,,,,,,,9,D,2023-12-07_16h27.21.527,gca_avoidance_task,2022.2.4,143.97666425720658,
,,,,,,,,,7,0,7,0,,,,,,,,,,,,,,,,,,,,,,,,,,,,,,,,,,,,,158.70814090000204,158.70814090000204,158.70814090000204,158.70814090000204,158.70814090000204,158.70814090000204,7.0,2.6518339999965974,s,6.892394799997419,166.11062279999896,0.10379819999798201,0.11075499999788008,0.1524202000000514,0.15934999999808497,0.2010164999992412,0.20798970000032568,166.87449059999926,,,,,,,,,,,,,,,,,,,,,,,,,,,,,,,,,,,,,,,,,,,,,,,,,,,,,,,,,,,,,,,,,,,,,,,,,9,D,2023-12-07_16h27.21.527,gca_avoidance_task,2022.2.4,143.97666425720658,
,,,,,,,,,8,0,8,0,,,,,,,,,,,,,,,,,,,,,,,,,,,,,,,,,,,,,166.87449059999926,166.87449059999926,166.87449059999926,166.87449059999926,166.87449059999926,166.87449059999926,6.0,0.9292731000023196,s,4.8140759999951115,172.19373429999905,0.09911170000123093,0.10603960000298684,0.1547011000002385,0.16156650000266382,0.20326910000221687,0.21023430000059307,,,,,,,,,,,,,,,,,,,,,,,,,,,,,,,,,,,,,,,,,,,,,,,,,,,,,,,,,,,,,,,,,,,,,,,,,,9,D,2023-12-07_16h27.21.527,gca_avoidance_task,2022.2.4,143.97666425720658,
,,,,,,,,,9,0,9,0,,,,,,,,,,,,,,,,,,,,,,,,,,,,,,,,,,,,,172.95062289999987,172.95062289999987,172.95062289999987,172.95062289999987,172.95062289999987,172.95062289999987,6.0,2.3989490999992995,s,6.641831799999636,180.09617910000088,0.10210789999837289,0.10903590000089025,0.1506967999994231,0.1576844000010169,0.1993317999986175,0.20626269999775104,180.86005260000093,,,,,,,,,,,,,,,,,,,,,,,,,,,,,,,,,,,,,,,,,,,,,,,,,,,,,,,,,,,,,,,,,,,,,,,,,9,D,2023-12-07_16h27.21.527,gca_avoidance_task,2022.2.4,143.97666425720658,
,,,,,,,,,10,0,10,0,,,,,,,,,,,,,,,,,,,,,,,,,,,,,,,,,,,,,180.86005260000093,180.86005260000093,180.86005260000093,180.86005260000093,180.86005260000093,180.86005260000093,6.0,1.3626584999983606,s,6.74853179999991,188.11667709999892,0.10227849999864702,0.10921270000108052,0.1508600999986811,0.15785089999917545,0.19942639999862877,0.20638989999861224,188.8736186999995,,,,,,,,,,,,,,,,,,,,,,,,,,,,,,,,,,,,,,,,,,,,,,,,,,,,,,,,,,,,,,,,,,,,,,,,,9,D,2023-12-07_16h27.21.527,gca_avoidance_task,2022.2.4,143.97666425720658,
,,,,,,,,,11,0,11,0,,,,,,,,,,,,,,,,,,,,,,,,,,,,,,,,,,,,,188.8736186999995,188.8736186999995,188.8736186999995,188.8736186999995,188.8736186999995,188.8736186999995,5.0,1.5588027999983751,s,6.437921399996412,195.9288669000016,0.10417030000098748,0.11107540000011795,0.152707700002793,0.15966390000176034,0.20136220000131289,0.2083154000029026,196.68580460000157,,,,,,,,,,,,,,,,,,,,,,,,,,,,,,,,,,,,,,,,,,,,,,,,,,,,,,,,,,,,,,,,,,,,,,,,,9,D,2023-12-07_16h27.21.527,gca_avoidance_task,2022.2.4,143.97666425720658,
,,,,,,,,,12,0,12,0,,,,,,,,,,,,,,,,,,,,,,,,,,,,,,,,,,,,,196.68580460000157,196.68580460000157,196.68580460000157,196.68580460000157,196.68580460000157,196.68580460000157,6.0,1.047014699997817,s,6.370002999999997,203.56745460000093,0.10020500000246102,0.10716880000109086,0.15574310000010883,0.16270970000186935,0.20436610000251676,0.21127210000122432,204.3312917000003,,,,,,,,,,,,,,,,,,,,,,,,,,,,,,,,,,,,,,,,,,,,,,,,,,,,,,,,,,,,,,,,,,,,,,,,,9,D,2023-12-07_16h27.21.527,gca_avoidance_task,2022.2.4,143.97666425720658,
,,,,,,,,,13,0,13,0,,,,,,,,,,,,,,,,,,,,,,,,,,,,,,,,,,,,,204.3312917000003,204.3312917000003,204.3312917000003,204.3312917000003,204.3312917000003,204.3312917000003,8.0,1.2411518000008073,s,5.940525999998499,210.77551220000169,0.10146199999871897,0.1084311999984493,0.15006129999892437,0.15700959999958286,0.2056174999997893,0.21257189999960246,211.5324127999993,,,,,,,,,,,,,,,,,,,,,,,,,,,,,,,,,,,,,,,,,,,,,,,,,,,,,,,,,,,,,,,,,,,,,,,,,9,D,2023-12-07_16h27.21.527,gca_avoidance_task,2022.2.4,143.97666425720658,
,,,,,,,,,14,0,14,0,,,,,,,,,,,,,,,,,,,,,,,,,,,,,,,,,,,,,211.5324127999993,211.5324127999993,211.5324127999993,211.5324127999993,211.5324127999993,211.5324127999993,7.0,1.2318656999996165,s,6.820223299997451,218.87934419999874,0.10413709999920684,0.11110800000096788,0.15273829999932786,0.15969200000108685,0.20136769999953685,0.20832289999816567,219.65709160000188,,,,,,,,,,,,,,,,,,,,,,,,,,,,,,,,,,,,,,,,,,,,,,,,,,,,,,,,,,,,,,,,,,,,,,,,,9,D,2023-12-07_16h27.21.527,gca_avoidance_task,2022.2.4,143.97666425720658,
,,,,,,,,,15,0,15,0,,,,,,,,,,,,,,,,,,,,,,,,,,,,,,,,,,,,,219.65709160000188,219.65709160000188,219.65709160000188,219.65709160000188,219.65709160000188,219.65709160000188,6.0,0.962390199998481,g,26.1752267999982,246.35047699999996,,,,,,,,,,,,,,,,,,,,,,,,,,,,,,,,,,,,,,,,,,,,,,,,,,,,,,,,,,,,,,,,,,,,,,,,,,,,,,,,9,D,2023-12-07_16h27.21.527,gca_avoidance_task,2022.2.4,143.97666425720658,
,,,,,,,,,,,,,,,,,,,,,,,,,,,,,,,,,,,,,,,,,,,,,,,,,,,,,,,,,,,,,,,,,,,246.35047699999996,246.35047699999996,space,2.169628899999225,,,,,,,,,,,,,,,,,,,,,,,,,,,,,,,,,,,,,,,,,,,,,,,,,,,,,,,,,,,,,,,,,,,,,9,D,2023-12-07_16h27.21.527,gca_avoidance_task,2022.2.4,143.97666425720658,
positions.xlsx,stimuli.xlsx,stimuli/Social2.png,stimuli/Social1.png,stimuli/Nonsocial2.png,stimuli/Nonsocial1.png,cs_minus_ns,,,,,,,0,0,0,0,0,0,0,3,,,,,,,,,,,,,,,,,,,,,,,,,,,,,,,,,,,,,,,,,,,,,,,,,,,344.6521044000001,344.6521044000001,space,12.835334299998067,357.5404171000009,357.5404171000009,364.7762509999993,4.0,7.236446999999316,space,1.8077084999968065,,,,,,,,,,,,,,,,,,,,,,,,,,,,,,,,,,,,,,,,,,,,,,,,,,,,,,,,,,9,D,2023-12-07_16h27.21.527,gca_avoidance_task,2022.2.4,143.97666425720658,
positions.xlsx,stimuli.xlsx,stimuli/Social2.png,stimuli/Social1.png,stimuli/Nonsocial2.png,stimuli/Nonsocial1.png,cs_plus_s,,,,,,,0,0,0,0,0,1,1,0,,,,,,,,,,,,,,,,,,,,,,,,,,,,,,,,,,,,,,,,,,,,,,,,,,,,,,,366.62341000000015,366.62341000000015,369.88022479999927,5.0,3.249711500000558,space,1.5358953999966616,,,,,,,,,,,,,,,,,,,,,,,,,,,,,,,,,,,,,,,,,,,,,,,,,,,,,,,,,,9,D,2023-12-07_16h27.21.527,gca_avoidance_task,2022.2.4,143.97666425720658,
positions.xlsx,stimuli.xlsx,stimuli/Social2.png,stimuli/Social1.png,stimuli/Nonsocial2.png,stimuli/Nonsocial1.png,cs_plus_ns,,,,,,,0,0,0,0,0,2,2,1,,,,,,,,,,,,,,,,,,,,,,,,,,,,,,,,,,,,,,,,,,,,,,,,,,,,,,,371.4496145000012,371.4496145000012,380.0187045999992,6.0,8.549192300000868,space,0.7971029999971506,,,,,,,,,,,,,,,,,,,,,,,,,,,,,,,,,,,,,,,,,,,,,,,,,,,,,,,,,,9,D,2023-12-07_16h27.21.527,gca_avoidance_task,2022.2.4,143.97666425720658,
positions.xlsx,stimuli.xlsx,stimuli/Social2.png,stimuli/Social1.png,stimuli/Nonsocial2.png,stimuli/Nonsocial1.png,cs_minus_s,,,,,,,0,0,0,0,0,3,3,2,,,,,,,,,,,,,,,,,,,,,,,,,,,,,,,,,,,,,,,,,,,,,,,,,,,,,,,380.84506580000016,380.84506580000016,383.0116178999997,7.0,2.153976599998714,space,1.1327278999960981,,,,,,,,,,,,,,,,,,,,,,,,,,,,,,,,,,,,,,,,,,,,,,,,,,,,,,,,,,9,D,2023-12-07_16h27.21.527,gca_avoidance_task,2022.2.4,143.97666425720658,
positions.xlsx,stimuli.xlsx,stimuli/Social2.png,stimuli/Social1.png,stimuli/Nonsocial2.png,stimuli/Nonsocial1.png,,"(-0.7, -0.5)",cs_plus_ns,,,,,0,0,0,0,,,,,0,0,0,9,,,,,,,,,,,,,,,,,,,,,,,,,,,,,,,,,,,,,,,,,,,,,,,,,,,,,,,,,,384.16439040000114,384.16439040000114,space,18.85163989999637,405.2051739000017,406.25374450000163,404.70524450000084,406.25374450000163,406.25374450000163,406.25374450000163,0.01559129999805009,0.020331499999883818,0,shock,1,[0.34082289999787463],[0.3408266000005824],406.6010113000011,406.6010113000011,0.017232500002137385,0.017232500002137385,0.025062100001377985,0.05275130000154604,0.05972269999983837,0.10137560000293888,0.1083284000014828,1.0109823000020697,410.0869915000003,414.3853979000014,,,,,,,,,,,,,,,,,,,,,,,,,,,,,9,D,2023-12-07_16h27.21.527,gca_avoidance_task,2022.2.4,143.97666425720658,
positions.xlsx,stimuli.xlsx,stimuli/Social2.png,stimuli/Social1.png,stimuli/Nonsocial2.png,stimuli/Nonsocial1.png,,"(-0.7, -0.5)",cs_minus_s,,,,,0,0,0,0,,,,,0,1,1,5,,,,,,,,,,,,,,,,,,,,,,,,,,,,,,,,,,,,,,,,,,,,,,,,,,,,,,,,,,,,,,414.8922848000002,415.96169720000034,414.3853979000014,415.96169720000034,415.96169720000034,415.96169720000034,0.007327299997996306,0.013103699999192031,5,reward,1,[0.4028906999992614],[0.40289449999909266],416.3713953000006,416.3713953000006,0.00798410000061267,0.00798410000061267,0.01842649999889545,0.0531048999982886,0.06006189999970957,0.10175279999748454,0.10865499999999884,1.004484199998842,419.8643493999989,423.64201279999907,,,,,,,,,,,,,,,,,,,,,,,,,,,,,9,D,2023-12-07_16h27.21.527,gca_avoidance_task,2022.2.4,143.97666425720658,
positions.xlsx,stimuli.xlsx,stimuli/Social2.png,stimuli/Social1.png,stimuli/Nonsocial2.png,stimuli/Nonsocial1.png,,"(-0.7, 0.5)",cs_minus_ns,,,,,0,0,0,0,,,,,0,2,2,12,,,,,,,,,,,,,,,,,,,,,,,,,,,,,,,,,,,,,,,,,,,,,,,,,,,,,,,,,,,,,,424.14888110000174,426.00992810000025,423.64201279999907,426.00992810000025,426.00992810000025,426.00992810000025,0.007049100000585895,0.013287000001582783,10,reward,1,[0.6461517999996431],[0.6461557000002358],426.66265550000026,426.66265550000026,0.007896200000686804,0.007896200000686804,0.01858879999781493,0.053224999999656575,0.060168899999553105,0.10185709999859682,0.10882560000027297,1.0045995000000403,430.15559740000026,433.6693443000004,,,,,,,,,,,,,,,,,,,,,,,,,,,,,9,D,2023-12-07_16h27.21.527,gca_avoidance_task,2022.2.4,143.97666425720658,
positions.xlsx,stimuli.xlsx,stimuli/Social2.png,stimuli/Social1.png,stimuli/Nonsocial2.png,stimuli/Nonsocial1.png,,"(0.7, -0.5)",cs_plus_s,,,,,0,0,0,0,,,,,0,3,3,3,,,,,,,,,,,,,,,,,,,,,,,,,,,,,,,,,,,,,,,,,,,,,,,,,,,,,,,,,,,,,,434.17626010000095,435.7248154000008,433.6693443000004,435.7248154000008,435.7248154000008,435.7248154000008,0.006639899998845067,0.013313799998286413,10,shock,1,[0.20917460000055144],[0.20917819999885978],435.940073400001,435.940073400001,0.00747869999759132,0.00747869999759132,0.018210099999123486,0.05291829999987385,0.05981889999748091,0.10152620000008028,0.10849469999811845,1.004237599998305,439.4330192999987,443.73839249999946,,,,,,,,,,,,,,,,,,,,,,,,,,,,,9,D,2023-12-07_16h27.21.527,gca_avoidance_task,2022.2.4,143.97666425720658,
positions.xlsx,stimuli.xlsx,stimuli/Social2.png,stimuli/Social1.png,stimuli/Nonsocial2.png,stimuli/Nonsocial1.png,,"(0.7, 0.5)",cs_plus_ns,,,,,0,0,0,0,,,,,0,4,4,10,,,,,,,,,,,,,,,,,,,,,,,,,,,,,,,,,,,,,,,,,,,,,,,,,,,,,,,,,,,,,,444.2452850000009,446.07159369999863,443.73839249999946,446.07159369999863,446.07159369999863,446.07159369999863,0.007325899998249952,0.013288800000736956,10,shock,1,[0.6322279999985767],[0.632231600000523],446.7105154000019,446.7105154000019,0.0075539999997999985,0.0075539999997999985,0.01810979999936535,0.0527403999985836,0.05971949999729986,0.10138019999794778,0.10834559999784688,1.0041169999967678,450.2034195000015,454.5712858000006,,,,,,,,,,,,,,,,,,,,,,,,,,,,,9,D,2023-12-07_16h27.21.527,gca_avoidance_task,2022.2.4,143.97666425720658,
positions.xlsx,stimuli.xlsx,stimuli/Social2.png,stimuli/Social1.png,stimuli/Nonsocial2.png,stimuli/Nonsocial1.png,,"(-0.7, 0.5)",cs_plus_ns,,,,,0,0,0,0,,,,,0,5,5,8,,,,,,,,,,,,,,,,,,,,,,,,,,,,,,,,,,,,,,,,,,,,,,,,,,,,,,,,,,,,,,455.07819519999975,456.8142508000019,454.5712858000006,456.8142508000019,456.8142508000019,456.8142508000019,0.007671199997275835,0.01355159999729949,10,shock,1,[0.45200459999978193],[0.4520082999988517],457.2725787999989,457.2725787999989,0.007684000000153901,0.007684000000153901,0.01812210000207415,0.052832699999271426,0.05969810000169673,0.10138849999930244,0.10836449999987963,1.0040967000022647,460.765460300001,465.0500804000003,,,,,,,,,,,,,,,,,,,,,,,,,,,,,9,D,2023-12-07_16h27.21.527,gca_avoidance_task,2022.2.4,143.97666425720658,
positions.xlsx,stimuli.xlsx,stimuli/Social2.png,stimuli/Social1.png,stimuli/Nonsocial2.png,stimuli/Nonsocial1.png,,"(0.7, 0.5)",cs_minus_s,,,,,0,0,0,0,,,,,0,6,6,6,,,,,,,,,,,,,,,,,,,,,,,,,,,,,,,,,,,,,,,,,,,,,,,,,,,,,,,,,,,,,,465.5569316000001,466.99438790000204,465.0500804000003,466.99438790000204,466.99438790000204,466.99438790000204,0.0066544000001158565,0.013557099999161437,15,reward,1,[0.3685645999976259],[0.3685680999988108],467.3693596000012,467.3693596000012,0.007905100002972176,0.007905100002972176,0.018403900001430884,0.05314800000269315,0.0601040000001376,0.10172330000204965,0.1086594000007608,1.0044460999997682,470.8623074999996,474.93851240000004,,,,,,,,,,,,,,,,,,,,,,,,,,,,,9,D,2023-12-07_16h27.21.527,gca_avoidance_task,2022.2.4,143.97666425720658,
positions.xlsx,stimuli.xlsx,stimuli/Social2.png,stimuli/Social1.png,stimuli/Nonsocial2.png,stimuli/Nonsocial1.png,,"(-0.7, -0.5)",cs_plus_s,,,,,0,0,0,0,,,,,0,7,7,1,,,,,,,,,,,,,,,,,,,,,,,,,,,,,,,,,,,,,,,,,,,,,,,,,,,,,,,,,,,,,,475.4454043000005,476.7995324000003,474.93851240000004,476.7995324000003,476.7995324000003,476.7995324000003,0.006751099997927668,0.013452199997118441,15,shock,1,[0.5281549999999697],[0.528172899998026],477.3343442000005,477.3343442000005,0.007212000000436092,0.007212000000436092,0.018597700000100303,0.05321149999872432,0.06010439999954542,0.10174149999875226,0.10869190000084927,1.0045332000008784,480.82719590000124,484.722865300002,,,,,,,,,,,,,,,,,,,,,,,,,,,,,9,D,2023-12-07_16h27.21.527,gca_avoidance_task,2022.2.4,143.97666425720658,
positions.xlsx,stimuli.xlsx,stimuli/Social2.png,stimuli/Social1.png,stimuli/Nonsocial2.png,stimuli/Nonsocial1.png,,"(-0.7, 0.5)",cs_plus_s,,,,,0,0,0,0,,,,,0,8,8,0,,,,,,,,,,,,,,,,,,,,,,,,,,,,,,,,,,,,,,,,,,,,,,,,,,,,,,,,,,,,,,485.2297280999992,487.0699609000003,484.722865300002,487.0699609000003,487.0699609000003,487.0699609000003,0.006969999998545973,0.013069000000541564,15,shock,1,[0.39567039999747067],[0.39567410000017844],487.4657651999987,487.4657651999987,0.007176400002208538,0.007176400002208538,0.011535400000866503,0.05321940000067116,0.060123100000055274,0.10176810000120895,0.10869920000186539,1.0044812000014645,490.9656565000005,495.43078479999895,,,,,,,,,,,,,,,,,,,,,,,,,,,,,9,D,2023-12-07_16h27.21.527,gca_avoidance_task,2022.2.4,143.97666425720658,
positions.xlsx,stimuli.xlsx,stimuli/Social2.png,stimuli/Social1.png,stimuli/Nonsocial2.png,stimuli/Nonsocial1.png,,"(0.7, 0.5)",cs_minus_ns,,,,,0,0,0,0,,,,,0,9,9,14,,,,,,,,,,,,,,,,,,,,,,,,,,,,,,,,,,,,,,,,,,,,,,,,,,,,,,,,,,,,,,495.93762440000137,497.11122890000115,495.43078479999895,497.11122890000115,497.11122890000115,497.11122890000115,0.007441199999448145,0.013141600000381004,20,reward,1,[0.437684900000022],[0.4376885999990918],497.55566929999986,497.55566929999986,0.008624000001873355,0.008624000001873355,0.018492800001695286,0.053132600001845276,0.06010210000022198,0.10174120000010589,0.10870340000110446,1.0044522999996843,501.04860349999944,505.1734398000008,,,,,,,,,,,,,,,,,,,,,,,,,,,,,9,D,2023-12-07_16h27.21.527,gca_avoidance_task,2022.2.4,143.97666425720658,
positions.xlsx,stimuli.xlsx,stimuli/Social2.png,stimuli/Social1.png,stimuli/Nonsocial2.png,stimuli/Nonsocial1.png,,"(-0.7, 0.5)",cs_minus_s,,,,,0,0,0,0,,,,,0,10,10,4,,,,,,,,,,,,,,,,,,,,,,,,,,,,,,,,,,,,,,,,,,,,,,,,,,,,,,,,,,,,,,505.6803127000021,507.1316506000003,505.1734398000008,507.1316506000003,507.1316506000003,507.1316506000003,0.0062890000008337665,0.012880400001449743,25,reward,1,[0.40951879999920493],[0.40952260000267415],507.5483133000016,507.5483133000016,0.006832499999291031,0.006832499999291031,0.018619599999510683,0.05321469999762485,0.060192799999640556,0.10186350000003586,0.10882809999748133,1.0045968999984325,511.0412270000015,515.3744172000006,,,,,,,,,,,,,,,,,,,,,,,,,,,,,9,D,2023-12-07_16h27.21.527,gca_avoidance_task,2022.2.4,143.97666425720658,
positions.xlsx,stimuli.xlsx,stimuli/Social2.png,stimuli/Social1.png,stimuli/Nonsocial2.png,stimuli/Nonsocial1.png,,"(0.7, 0.5)",cs_plus_s,,,,,0,0,0,0,,,,,0,11,11,2,,,,,,,,,,,,,,,,,,,,,,,,,,,,,,,,,,,,,,,,,,,,,,,,,,,,,,,,,,,,,,515.8813068999989,516.9576711000009,515.3744172000006,516.9576711000009,516.9576711000009,516.9576711000009,0.006294999999227002,0.013363500002014916,25,none,0,,,521.9643904000004,521.9643904000004,0.013945099999546073,0.013945099999546073,0.020121300000027986,0.05481109999891487,0.061790100000507664,0.10338580000097863,0.11039130000062869,1.01310039999953,525.4573148999989,529.7210096999988,,,,,,,,,,,,,,,,,,,,,,,,,,,,,9,D,2023-12-07_16h27.21.527,gca_avoidance_task,2022.2.4,143.97666425720658,
positions.xlsx,stimuli.xlsx,stimuli/Social2.png,stimuli/Social1.png,stimuli/Nonsocial2.png,stimuli/Nonsocial1.png,,"(0.7, -0.5)",cs_minus_s,,,,,0,0,0,0,,,,,0,12,12,7,,,,,,,,,,,,,,,,,,,,,,,,,,,,,,,,,,,,,,,,,,,,,,,,,,,,,,,,,,,,,,530.2279457000004,531.6653681999996,529.7210096999988,531.6653681999996,531.6653681999996,531.6653681999996,0.005994099999952596,0.01309160000164411,30,reward,1,[0.4791376000030141],[0.47914140000284533],532.1514754999989,532.1514754999989,0.006453699999838136,0.006453699999838136,0.01877550000062911,0.0534356000025582,0.06043359999966924,0.10209709999980987,0.10901400000147987,1.0048525999991398,535.6444832000016,539.2762155000019,,,,,,,,,,,,,,,,,,,,,,,,,,,,,9,D,2023-12-07_16h27.21.527,gca_avoidance_task,2022.2.4,143.97666425720658,
positions.xlsx,stimuli.xlsx,stimuli/Social2.png,stimuli/Social1.png,stimuli/Nonsocial2.png,stimuli/Nonsocial1.png,,"(0.7, -0.5)",cs_minus_ns,,,,,0,0,0,0,,,,,0,13,13,15,,,,,,,,,,,,,,,,,,,,,,,,,,,,,,,,,,,,,,,,,,,,,,,,,,,,,,,,,,,,,,539.7831217000021,541.1580606999996,539.2762155000019,541.1580606999996,541.1580606999996,541.1580606999996,0.0062686000019311905,0.013451800001348602,35,reward,1,[0.5558869000014965],[0.5558905000034429],541.7205242000018,541.7205242000018,0.007933100001537241,0.007933100001537241,0.01873619999969378,0.05339589999857708,0.060383700001693796,0.10208010000133072,0.10904160000063712,1.0047368999985338,545.2134990000013,549.0674618000012,,,,,,,,,,,,,,,,,,,,,,,,,,,,,9,D,2023-12-07_16h27.21.527,gca_avoidance_task,2022.2.4,143.97666425720658,
positions.xlsx,stimuli.xlsx,stimuli/Social2.png,stimuli/Social1.png,stimuli/Nonsocial2.png,stimuli/Nonsocial1.png,,"(-0.7, -0.5)",cs_minus_ns,,,,,0,0,0,0,,,,,0,14,14,13,,,,,,,,,,,,,,,,,,,,,,,,,,,,,,,,,,,,,,,,,,,,,,,,,,,,,,,,,,,,,,549.574429100001,551.1924079000019,549.0674618000012,551.1924079000019,551.1924079000019,551.1924079000019,0.007042799999908311,0.013371099998039426,40,reward,1,[0.48668759999782196],[0.4866911999997683],551.6854581000007,551.6854581000007,0.007872199999837903,0.007872199999837903,0.018535100000008242,0.05318269999770564,0.06014419999701204,0.1018261999997776,0.10873829999763984,1.00452999999834,555.1784002999993,559.3587129000007,,,,,,,,,,,,,,,,,,,,,,,,,,,,,9,D,2023-12-07_16h27.21.527,gca_avoidance_task,2022.2.4,143.97666425720658,
positions.xlsx,stimuli.xlsx,stimuli/Social2.png,stimuli/Social1.png,stimuli/Nonsocial2.png,stimuli/Nonsocial1.png,,"(0.7, -0.5)",cs_plus_ns,,,,,0,0,0,0,,,,,0,15,15,11,,,,,,,,,,,,,,,,,,,,,,,,,,,,,,,,,,,,,,,,,,,,,,,,,,,,,,,,,,,,,,559.8656555000016,561.8586353999999,559.3587129000007,561.8586353999999,561.8586353999999,561.8586353999999,0.006925999998202315,0.013456000000587665,40,shock,1,[0.49346849999710685],[0.49347230000057607],562.3586217000011,562.3586217000011,0.00773750000007567,0.00773750000007567,0.018669900000531925,0.05330590000085067,0.06029769999804557,0.10188560000096913,0.10887029999867082,1.0046838999987813,565.851529399999,570.0250072000017,,,,,,,,,,,,,,,,,,,,,,,,,,,,,9,D,2023-12-07_16h27.21.527,gca_avoidance_task,2022.2.4,143.97666425720658,
positions.xlsx,stimuli.xlsx,stimuli/Social2.png,stimuli/Social1.png,stimuli/Nonsocial2.png,stimuli/Nonsocial1.png,,"(0.7, -0.5)",cs_minus_s,,,,,0,0,0,0,,,,,1,0,16,7,,,,,,,,,,,,,,,,,,,,,,,,,,,,,,,,,,,,,,,,,,,,,,,,,,,,,,,,,,,,,,570.5318789000012,571.9762765000014,570.0250072000017,571.9762765000014,571.9762765000014,571.9762765000014,0.005811399998492561,0.013302600000315579,45,reward,1,[0.5073229000008723],[0.5073267000007036],572.490172400001,572.490172400001,0.006894300000567455,0.006894300000567455,0.018230000001494773,0.05290640000021085,0.05986090000078548,0.10149470000033034,0.10844340000039665,1.0042407000000821,575.983148700001,579.719082399999,,,,,,,,,,,,,,,,,,,,,,,,,,,,,9,D,2023-12-07_16h27.21.527,gca_avoidance_task,2022.2.4,143.97666425720658,
positions.xlsx,stimuli.xlsx,stimuli/Social2.png,stimuli/Social1.png,stimuli/Nonsocial2.png,stimuli/Nonsocial1.png,,"(-0.7, -0.5)",cs_minus_ns,,,,,0,0,0,0,,,,,1,1,17,13,,,,,,,,,,,,,,,,,,,,,,,,,,,,,,,,,,,,,,,,,,,,,,,,,,,,,,,,,,,,,,580.2259267000009,582.1703067999988,579.719082399999,582.1703067999988,582.1703067999988,582.1703067999988,0.006770700001652585,0.013542300002882257,50,reward,1,[1.5005442000001494],[1.5005479000028572],583.6772254999996,583.6772254999996,0.00762879999820143,0.00762879999820143,0.018207499997515697,0.05282989999977872,0.059784599998238264,0.10146589999931166,0.10844899999938207,1.004173899997113,587.1701458999996,590.7672085000013,,,,,,,,,,,,,,,,,,,,,,,,,,,,,9,D,2023-12-07_16h27.21.527,gca_avoidance_task,2022.2.4,143.97666425720658,
positions.xlsx,stimuli.xlsx,stimuli/Social2.png,stimuli/Social1.png,stimuli/Nonsocial2.png,stimuli/Nonsocial1.png,,"(0.7, 0.5)",cs_plus_s,,,,,0,0,0,0,,,,,1,2,18,2,,,,,,,,,,,,,,,,,,,,,,,,,,,,,,,,,,,,,,,,,,,,,,,,,,,,,,,,,,,,,,591.2741056000013,592.6421355999992,590.7672085000013,592.6421355999992,592.6421355999992,592.6421355999992,0.006034699999872828,0.013283799999044277,50,none,0,,,597.6488988000019,597.6488988000019,0.013076100000034785,0.013076100000034785,0.020111699999688426,0.05469299999822397,0.06168039999829489,0.10327209999741171,0.11026919999858364,1.0130013999987568,601.1418955000008,605.3083028000001,,,,,,,,,,,,,,,,,,,,,,,,,,,,,9,D,2023-12-07_16h27.21.527,gca_avoidance_task,2022.2.4,143.97666425720658,
positions.xlsx,stimuli.xlsx,stimuli/Social2.png,stimuli/Social1.png,stimuli/Nonsocial2.png,stimuli/Nonsocial1.png,,"(0.7, 0.5)",cs_plus_ns,,,,,0,0,0,0,,,,,1,3,19,10,,,,,,,,,,,,,,,,,,,,,,,,,,,,,,,,,,,,,,,,,,,,,,,,,,,,,,,,,,,,,,605.8151991000013,607.7526188000011,605.3083028000001,607.7526188000011,607.7526188000011,607.7526188000011,0.006449100001191255,0.013140700000803918,50,none,0,,,612.7593596000006,612.7593596000006,0.013755700001638616,0.013755700001638616,0.01989010000033886,0.054642900002363604,0.06158969999887631,0.10321720000138157,0.11018419999891194,1.0129185000005236,616.2523488000006,619.8355063999988,,,,,,,,,,,,,,,,,,,,,,,,,,,,,9,D,2023-12-07_16h27.21.527,gca_avoidance_task,2022.2.4,143.97666425720658,
positions.xlsx,stimuli.xlsx,stimuli/Social2.png,stimuli/Social1.png,stimuli/Nonsocial2.png,stimuli/Nonsocial1.png,,"(0.7, -0.5)",cs_plus_s,,,,,0,0,0,0,,,,,1,4,20,3,,,,,,,,,,,,,,,,,,,,,,,,,,,,,,,,,,,,,,,,,,,,,,,,,,,,,,,,,,,,,,620.3424096999988,621.3701619999993,619.8355063999988,621.3701619999993,621.3701619999993,621.3701619999993,0.005894599999010097,0.013226399998529814,50,none,0,,,626.3768756999998,626.3768756999998,0.013503900001524016,0.013503900001524016,0.019966399999248097,0.054685999999492196,0.06162440000116476,0.10333420000097249,0.11025829999925918,1.0129640999984986,629.8698296000002,633.6266748999988,,,,,,,,,,,,,,,,,,,,,,,,,,,,,9,D,2023-12-07_16h27.21.527,gca_avoidance_task,2022.2.4,143.97666425720658,
positions.xlsx,stimuli.xlsx,stimuli/Social2.png,stimuli/Social1.png,stimuli/Nonsocial2.png,stimuli/Nonsocial1.png,,"(-0.7, -0.5)",cs_plus_s,,,,,0,0,0,0,,,,,1,5,21,1,,,,,,,,,,,,,,,,,,,,,,,,,,,,,,,,,,,,,,,,,,,,,,,,,,,,,,,,,,,,,,634.1335184999989,635.3140348999987,633.6266748999988,635.3140348999987,635.3140348999987,635.3140348999987,0.006089399998018052,0.013066199997410877,50,none,0,,,640.3207665000009,640.3207665000009,0.013467299999319948,0.013467299999319948,0.01979129999745055,0.054502399998455076,0.06147860000055516,0.10309290000077453,0.11005379999915021,1.012803099998564,643.8136951000015,648.2510313999992,,,,,,,,,,,,,,,,,,,,,,,,,,,,,9,D,2023-12-07_16h27.21.527,gca_avoidance_task,2022.2.4,143.97666425720658,
positions.xlsx,stimuli.xlsx,stimuli/Social2.png,stimuli/Social1.png,stimuli/Nonsocial2.png,stimuli/Nonsocial1.png,,"(-0.7, 0.5)",cs_plus_s,,,,,0,0,0,0,,,,,1,6,22,0,,,,,,,,,,,,,,,,,,,,,,,,,,,,,,,,,,,,,,,,,,,,,,,,,,,,,,,,,,,,,,648.7579470000019,649.7926028000002,648.2510313999992,649.7926028000002,649.7926028000002,649.7926028000002,0.006461799999669893,0.012637200001336168,50,none,0,,,654.7993964999987,654.7993964999987,0.012598400000570109,0.012598400000570109,0.019479999999020947,0.05408790000001318,0.061049100000673207,0.10268020000148681,0.10967019999952754,1.012357300001895,658.2923445999986,662.3824348999988,,,,,,,,,,,,,,,,,,,,,,,,,,,,,9,D,2023-12-07_16h27.21.527,gca_avoidance_task,2022.2.4,143.97666425720658,
positions.xlsx,stimuli.xlsx,stimuli/Social2.png,stimuli/Social1.png,stimuli/Nonsocial2.png,stimuli/Nonsocial1.png,,"(0.7, -0.5)",cs_minus_ns,,,,,0,0,0,0,,,,,1,7,23,15,,,,,,,,,,,,,,,,,,,,,,,,,,,,,,,,,,,,,,,,,,,,,,,,,,,,,,,,,,,,,,662.8893176999991,664.3753791999989,662.3824348999988,664.3753791999989,664.3753791999989,664.3753791999989,0.006739500000549015,0.013192700000217883,55,reward,1,[0.38204529999711667],[0.3820491000005859],664.7642457000002,664.7642457000002,0.007520399998611538,0.007520399998611538,0.018454699998983415,0.053133299999899464,0.060084299999289215,0.10175299999900744,0.1086847000005946,1.004511499999353,668.2572103999992,672.0556638000016,,,,,,,,,,,,,,,,,,,,,,,,,,,,,9,D,2023-12-07_16h27.21.527,gca_avoidance_task,2022.2.4,143.97666425720658,
positions.xlsx,stimuli.xlsx,stimuli/Social2.png,stimuli/Social1.png,stimuli/Nonsocial2.png,stimuli/Nonsocial1.png,,"(-0.7, -0.5)",cs_minus_s,,,,,0,0,0,0,,,,,1,8,24,5,,,,,,,,,,,,,,,,,,,,,,,,,,,,,,,,,,,,,,,,,,,,,,,,,,,,,,,,,,,,,,672.5625139000003,673.6944342999996,672.0556638000016,673.6944342999996,673.6944342999996,673.6944342999996,0.006157200001325691,0.012842200001614401,60,reward,1,[0.45140170000013313],[0.45834110000214423],674.1596882000013,674.1596882000013,0.00735779999740771,0.00735779999740771,0.017990799999097362,0.052644399998825975,0.05958999999711523,0.10121929999877466,0.10819229999833624,1.0040305000002263,677.6526655999987,682.0413455999987,,,,,,,,,,,,,,,,,,,,,,,,,,,,,9,D,2023-12-07_16h27.21.527,gca_avoidance_task,2022.2.4,143.97666425720658,
positions.xlsx,stimuli.xlsx,stimuli/Social2.png,stimuli/Social1.png,stimuli/Nonsocial2.png,stimuli/Nonsocial1.png,,"(0.7, -0.5)",cs_plus_ns,,,,,0,0,0,0,,,,,1,9,25,11,,,,,,,,,,,,,,,,,,,,,,,,,,,,,,,,,,,,,,,,,,,,,,,,,,,,,,,,,,,,,,682.5482149000018,684.5342737999999,682.0413455999987,684.5342737999999,684.5342737999999,684.5342737999999,0.006405500000255415,0.013390800002525793,60,shock,1,[0.5351649000003817],[0.5351685999994515],685.0759343999998,685.0759343999998,0.00817789999928209,0.00817789999928209,0.018641099999513244,0.0532506999988982,0.060241799998038914,0.10188130000096862,0.10889060000044992,1.004638200000045,688.5688990999988,692.2770390000005,,,,,,,,,,,,,,,,,,,,,,,,,,,,,9,D,2023-12-07_16h27.21.527,gca_avoidance_task,2022.2.4,143.97666425720658,
positions.xlsx,stimuli.xlsx,stimuli/Social2.png,stimuli/Social1.png,stimuli/Nonsocial2.png,stimuli/Nonsocial1.png,,"(-0.7, -0.5)",cs_plus_ns,,,,,0,0,0,0,,,,,1,10,26,9,,,,,,,,,,,,,,,,,,,,,,,,,,,,,,,,,,,,,,,,,,,,,,,,,,,,,,,,,,,,,,692.7839695000002,693.9783353999992,692.2770390000005,693.9783353999992,693.9783353999992,693.9783353999992,0.007133399998565437,0.013306000000739004,60,none,0,,,698.9851353000013,698.9851353000013,0.014046799999050563,0.014046799999050563,0.02017809999961173,0.05478859999857377,0.061758100000588456,0.10336069999902975,0.11034220000146888,1.0130755999998655,702.4780749999991,706.5057005999988,,,,,,,,,,,,,,,,,,,,,,,,,,,,,9,D,2023-12-07_16h27.21.527,gca_avoidance_task,2022.2.4,143.97666425720658,
positions.xlsx,stimuli.xlsx,stimuli/Social2.png,stimuli/Social1.png,stimuli/Nonsocial2.png,stimuli/Nonsocial1.png,,"(0.7, 0.5)",cs_minus_s,,,,,0,0,0,0,,,,,1,11,27,6,,,,,,,,,,,,,,,,,,,,,,,,,,,,,,,,,,,,,,,,,,,,,,,,,,,,,,,,,,,,,,707.0125781999996,708.2972230000014,706.5057005999988,708.2972230000014,708.2972230000014,708.2972230000014,0.006078000002162298,0.01335300000209827,65,reward,1,[0.410040000002482],[0.4100433999992674],708.7138658000003,708.7138658000003,0.007213400000182446,0.007213400000182446,0.01825010000175098,0.05294580000190763,0.0598695000007865,0.10160340000220458,0.1085220000022673,1.0042804000004253,712.2068561999986,716.4496805999988,,,,,,,,,,,,,,,,,,,,,,,,,,,,,9,D,2023-12-07_16h27.21.527,gca_avoidance_task,2022.2.4,143.97666425720658,
positions.xlsx,stimuli.xlsx,stimuli/Social2.png,stimuli/Social1.png,stimuli/Nonsocial2.png,stimuli/Nonsocial1.png,,"(-0.7, 0.5)",cs_plus_ns,,,,,0,0,0,0,,,,,1,12,28,8,,,,,,,,,,,,,,,,,,,,,,,,,,,,,,,,,,,,,,,,,,,,,,,,,,,,,,,,,,,,,,716.9565923000009,718.6995643000009,716.4496805999988,718.6995643000009,718.6995643000009,718.6995643000009,0.006235999997443287,0.013188099997933023,65,none,0,,,723.7063264999997,723.7063264999997,0.014365299997734837,0.014365299997734837,0.019967399999586632,0.054674199996952666,0.061618299998372095,0.10324009999749251,0.11019219999798224,1.0129221999995934,727.1992777000014,731.1713936999986,,,,,,,,,,,,,,,,,,,,,,,,,,,,,9,D,2023-12-07_16h27.21.527,gca_avoidance_task,2022.2.4,143.97666425720658,
positions.xlsx,stimuli.xlsx,stimuli/Social2.png,stimuli/Social1.png,stimuli/Nonsocial2.png,stimuli/Nonsocial1.png,,"(0.7, 0.5)",cs_minus_ns,,,,,0,0,0,0,,,,,1,13,29,14,,,,,,,,,,,,,,,,,,,,,,,,,,,,,,,,,,,,,,,,,,,,,,,,,,,,,,,,,,,,,,731.6782330999995,732.7754131000002,731.1713936999986,732.7754131000002,732.7754131000002,732.7754131000002,0.006520200000522891,0.013431299998046597,70,reward,1,[0.3268386999989161],[0.32684209999933955],733.108713900001,733.108713900001,0.007993499999429332,0.007993499999429332,0.01830820000031963,0.05304679999971995,0.05999860000156332,0.10166700000263518,0.10860210000100778,1.0044044999995094,736.6017228000019,741.0251496000019,,,,,,,,,,,,,,,,,,,,,,,,,,,,,9,D,2023-12-07_16h27.21.527,gca_avoidance_task,2022.2.4,143.97666425720658,
positions.xlsx,stimuli.xlsx,stimuli/Social2.png,stimuli/Social1.png,stimuli/Nonsocial2.png,stimuli/Nonsocial1.png,,"(-0.7, 0.5)",cs_minus_ns,,,,,0,0,0,0,,,,,1,14,30,12,,,,,,,,,,,,,,,,,,,,,,,,,,,,,,,,,,,,,,,,,,,,,,,,,,,,,,,,,,,,,,741.5320052999996,743.0944535999988,741.0251496000019,743.0944535999988,743.0944535999988,743.0944535999988,0.0066894000010506716,0.01336029999947641,75,reward,1,[0.5210819000021729],[0.5210855000004813],743.6222000000016,743.6222000000016,0.007321500001125969,0.007321500001125969,0.01860339999984717,0.05330070000127307,0.060239099999307655,0.10190259999944828,0.10883910000120522,1.0046977000019979,747.1151544999993,750.865016300002,,,,,,,,,,,,,,,,,,,,,,,,,,,,,9,D,2023-12-07_16h27.21.527,gca_avoidance_task,2022.2.4,143.97666425720658,
positions.xlsx,stimuli.xlsx,stimuli/Social2.png,stimuli/Social1.png,stimuli/Nonsocial2.png,stimuli/Nonsocial1.png,,"(-0.7, 0.5)",cs_minus_s,,,,,0,0,0,0,,,,,1,15,31,4,,,,,,,,,,,,,,,,,,,,,,,,,,,,,,,,,,,,,,,,,,,,,,,,,,,,,,,,,,,,,,751.371938799999,752.7607396000021,750.865016300002,752.7607396000021,752.7607396000021,752.7607396000021,0.005740999997215113,0.013359699998545693,80,reward,1,[0.4793385999983002],[0.4793424999988929],753.2468273000013,753.2468273000013,0.006676500001049135,0.006676500001049135,0.018553600002633175,0.053249000000505475,0.060187900002347305,0.10183260000121663,0.10878710000179126,1.0046072000004642,756.7398090999995,760.1493579000016,,,,,,,,,,,,,,,,,,,,,,,,,,,,,9,D,2023-12-07_16h27.21.527,gca_avoidance_task,2022.2.4,143.97666425720658,
positions.xlsx,stimuli.xlsx,stimuli/Social2.png,stimuli/Social1.png,stimuli/Nonsocial2.png,stimuli/Nonsocial1.png,,"(-0.7, -0.5)",cs_plus_s,,,,,0,0,0,0,,,,,,,,,0,0,0,1,,,,,,,,,,,,,,,,,,,,,,,,,,,,,,,,,,,,,,,,,,,,,,,,,,,,,,,,,,778.884691700001,780.3499340999988,778.3847593999999,780.3499340999988,780.3499340999988,780.3499340999988,0.005820900001708651,0.013244099998701131,80,shock,1,[0.43080579999877955],[0.4308095000014873],780.7873948999986,780.7873948999986,0.007400599999527913,0.007400599999527913,0.017953900001884904,0.052668300002551405,0.05962830000135,0.10124609999911627,0.1082432000002882,1.003996700001153,784.2803480000002,787.8010083000008,760.1493579000016,760.1493579000016,760.1493579000016,760.1493579000016,space,16.26696230000016,,,,,,,,,,,,,,,,,,,,,,,9,D,2023-12-07_16h27.21.527,gca_avoidance_task,2022.2.4,143.97666425720658,
positions.xlsx,stimuli.xlsx,stimuli/Social2.png,stimuli/Social1.png,stimuli/Nonsocial2.png,stimuli/Nonsocial1.png,,"(-0.7, 0.5)",cs_plus_s,,,,,0,0,0,0,,,,,,,,,0,1,1,0,,,,,,,,,,,,,,,,,,,,,,,,,,,,,,,,,,,,,,,,,,,,,,,,,,,,,,,,,,788.3079313000017,789.6828673999989,787.8010083000008,789.6828673999989,789.6828673999989,789.6828673999989,0.005800700000690995,0.013163999999960652,80,none,0,,,794.6895879000003,794.6895879000003,0.0133748000007472,0.0133748000007472,0.019921099999919534,0.054667000000335975,0.061610300002939766,0.10325730000113253,0.11018080000212649,1.0128596000031393,798.1825676000008,802.6546176000011,,,,,,,,,,,,,,,,,,,,,,,,,,,,,9,D,2023-12-07_16h27.21.527,gca_avoidance_task,2022.2.4,143.97666425720658,
positions.xlsx,stimuli.xlsx,stimuli/Social2.png,stimuli/Social1.png,stimuli/Nonsocial2.png,stimuli/Nonsocial1.png,,"(0.7, 0.5)",cs_minus_ns,,,,,0,0,0,0,,,,,,,,,0,2,2,14,,,,,,,,,,,,,,,,,,,,,,,,,,,,,,,,,,,,,,,,,,,,,,,,,,,,,,,,,,803.1615110000021,804.571167099999,802.6546176000011,804.571167099999,804.571167099999,804.571167099999,0.006482100001448998,0.012764600000082282,85,reward,1,[0.5622303999989526],[0.5622341000016604],805.1405826000009,805.1405826000009,0.00738890000138781,0.00738890000138781,0.01876339999944321,0.05343580000044312,0.060452199999417644,0.10209150000082445,0.1090492000002996,1.0047991999999795,808.6335128999999,813.0917270999998,,,,,,,,,,,,,,,,,,,,,,,,,,,,,9,D,2023-12-07_16h27.21.527,gca_avoidance_task,2022.2.4,143.97666425720658,
positions.xlsx,stimuli.xlsx,stimuli/Social2.png,stimuli/Social1.png,stimuli/Nonsocial2.png,stimuli/Nonsocial1.png,,"(-0.7, -0.5)",cs_plus_ns,,,,,0,0,0,0,,,,,,,,,0,3,3,9,,,,,,,,,,,,,,,,,,,,,,,,,,,,,,,,,,,,,,,,,,,,,,,,,,,,,,,,,,813.5985798000002,815.522119600002,813.0917270999998,815.522119600002,815.522119600002,815.522119600002,0.006707500000629807,0.01315709999835235,85,none,0,,,820.5289091000013,820.5289091000013,0.014031700000487035,0.014031700000487035,0.019981900000857422,0.0546530999999959,0.06157159999929718,0.10323509999943781,0.11017089999950258,1.0129052999982378,824.0218268999997,828.1119669,,,,,,,,,,,,,,,,,,,,,,,,,,,,,9,D,2023-12-07_16h27.21.527,gca_avoidance_task,2022.2.4,143.97666425720658,
positions.xlsx,stimuli.xlsx,stimuli/Social2.png,stimuli/Social1.png,stimuli/Nonsocial2.png,stimuli/Nonsocial1.png,,"(-0.7, -0.5)",cs_minus_ns,,,,,0,0,0,0,,,,,,,,,0,4,4,13,,,,,,,,,,,,,,,,,,,,,,,,,,,,,,,,,,,,,,,,,,,,,,,,,,,,,,,,,,828.6188284999989,830.3549153000022,828.1119669,830.3549153000022,830.3549153000022,830.3549153000022,0.006271799997193739,0.013588300000265008,90,reward,1,[0.5426611999973829],[0.5426650999979756],830.9034867000009,830.9034867000009,0.007862599999498343,0.007862599999498343,0.018368100001680432,0.05302520000259392,0.05996640000012121,0.10167500000170548,0.10854599999947823,1.0043545000007725,834.3964143000012,838.1462487999997,,,,,,,,,,,,,,,,,,,,,,,,,,,,,9,D,2023-12-07_16h27.21.527,gca_avoidance_task,2022.2.4,143.97666425720658,
positions.xlsx,stimuli.xlsx,stimuli/Social2.png,stimuli/Social1.png,stimuli/Nonsocial2.png,stimuli/Nonsocial1.png,,"(0.7, 0.5)",cs_plus_s,,,,,0,0,0,0,,,,,,,,,0,5,5,2,,,,,,,,,,,,,,,,,,,,,,,,,,,,,,,,,,,,,,,,,,,,,,,,,,,,,,,,,,838.6531336000007,840.333633000002,838.1462487999997,840.333633000002,840.333633000002,840.333633000002,0.005910300002142321,0.01312080000207061,90,none,0,,,845.3403916999996,845.3403916999996,0.013768600001640152,0.013768600001640152,0.01989809999940917,0.05457380000007106,0.06153690000064671,0.10315280000213534,0.11012480000135838,1.0128394000021217,848.8333576000005,852.4304066000004,,,,,,,,,,,,,,,,,,,,,,,,,,,,,9,D,2023-12-07_16h27.21.527,gca_avoidance_task,2022.2.4,143.97666425720658,
positions.xlsx,stimuli.xlsx,stimuli/Social2.png,stimuli/Social1.png,stimuli/Nonsocial2.png,stimuli/Nonsocial1.png,,"(0.7, -0.5)",cs_minus_s,,,,,0,0,0,0,,,,,,,,,0,6,6,7,,,,,,,,,,,,,,,,,,,,,,,,,,,,,,,,,,,,,,,,,,,,,,,,,,,,,,,,,,852.9372766999986,854.7150199999996,852.4304066000004,854.7150199999996,854.7150199999996,854.7150199999996,0.0058030000000144355,0.0134451000012632,95,reward,1,[0.19469590000153403],[0.19469980000212672],854.9163853999999,854.9163853999999,0.007131300000764895,0.007131300000764895,0.018570500000350876,0.053268200001184596,0.06017979999887757,0.10182110000096145,0.10883610000018962,1.0045365000005404,858.4093762000011,862.3883709000002,,,,,,,,,,,,,,,,,,,,,,,,,,,,,9,D,2023-12-07_16h27.21.527,gca_avoidance_task,2022.2.4,143.97666425720658,
positions.xlsx,stimuli.xlsx,stimuli/Social2.png,stimuli/Social1.png,stimuli/Nonsocial2.png,stimuli/Nonsocial1.png,,"(0.7, -0.5)",cs_plus_s,,,,,0,0,0,0,,,,,,,,,0,7,7,3,,,,,,,,,,,,,,,,,,,,,,,,,,,,,,,,,,,,,,,,,,,,,,,,,,,,,,,,,,862.8952272999995,864.5548851999993,862.3883709000002,864.5548851999993,864.5548851999993,864.5548851999993,0.006142099999124184,0.01315709999835235,95,none,0,,,869.5616813999986,869.5616813999986,0.013467799999489216,0.013467799999489216,0.01992199999949662,0.054577200000494486,0.06158119999963674,0.10318819999883999,0.11013800000000629,1.012846499997977,873.0545968000006,876.748900999999,,,,,,,,,,,,,,,,,,,,,,,,,,,,,9,D,2023-12-07_16h27.21.527,gca_avoidance_task,2022.2.4,143.97666425720658,
positions.xlsx,stimuli.xlsx,stimuli/Social2.png,stimuli/Social1.png,stimuli/Nonsocial2.png,stimuli/Nonsocial1.png,,"(0.7, 0.5)",cs_minus_s,,,,,0,0,0,0,,,,,,,,,0,8,8,6,,,,,,,,,,,,,,,,,,,,,,,,,,,,,,,,,,,,,,,,,,,,,,,,,,,,,,,,,,877.2557661999999,878.3529533000001,876.748900999999,878.3529533000001,878.3529533000001,878.3529533000001,0.005996899999445304,0.013383099998463877,100,reward,1,[0.5212652000009257],[0.5212688999999955],878.8807234000014,878.8807234000014,0.007117100001778454,0.007117100001778454,0.018372099999396596,0.053084700000908924,0.060062399999878835,0.10165670000060345,0.1086420999999973,1.004396700001962,882.3736351000007,886.672108499999,,,,,,,,,,,,,,,,,,,,,,,,,,,,,9,D,2023-12-07_16h27.21.527,gca_avoidance_task,2022.2.4,143.97666425720658,
positions.xlsx,stimuli.xlsx,stimuli/Social2.png,stimuli/Social1.png,stimuli/Nonsocial2.png,stimuli/Nonsocial1.png,,"(-0.7, 0.5)",cs_minus_ns,,,,,0,0,0,0,,,,,,,,,0,9,9,12,,,,,,,,,,,,,,,,,,,,,,,,,,,,,,,,,,,,,,,,,,,,,,,,,,,,,,,,,,887.1790005000003,888.9428059999991,886.672108499999,888.9428059999991,888.9428059999991,888.9428059999991,0.006607599996641511,0.013110500000038883,105,reward,1,[0.49312349999672733],[0.4931272999965586],889.4428650000009,889.4428650000009,0.0075200999999651685,0.0075200999999651685,0.018833699999959208,0.05349030000070343,0.060417900000174996,0.10205660000065109,0.10902669999995851,1.0047770999990462,892.9356914000018,897.0050517999989,,,,,,,,,,,,,,,,,,,,,,,,,,,,,9,D,2023-12-07_16h27.21.527,gca_avoidance_task,2022.2.4,143.97666425720658,
positions.xlsx,stimuli.xlsx,stimuli/Social2.png,stimuli/Social1.png,stimuli/Nonsocial2.png,stimuli/Nonsocial1.png,,"(0.7, -0.5)",cs_minus_ns,,,,,0,0,0,0,,,,,,,,,0,10,10,15,,,,,,,,,,,,,,,,,,,,,,,,,,,,,,,,,,,,,,,,,,,,,,,,,,,,,,,,,,897.5119072999987,898.991019000001,897.0050517999989,898.991019000001,898.991019000001,898.991019000001,0.006648099999438273,0.013191999998525716,110,reward,1,[0.50030279999919],[0.5003064000011364],899.4979473999992,899.4979473999992,0.008087400001386413,0.008087400001386413,0.01843860000008135,0.053154300003370736,0.060096000001067296,0.10174970000298345,0.10870000000068103,1.0044733000031556,902.9908686999988,906.6643511000002,,,,,,,,,,,,,,,,,,,,,,,,,,,,,9,D,2023-12-07_16h27.21.527,gca_avoidance_task,2022.2.4,143.97666425720658,
positions.xlsx,stimuli.xlsx,stimuli/Social2.png,stimuli/Social1.png,stimuli/Nonsocial2.png,stimuli/Nonsocial1.png,,"(-0.7, 0.5)",cs_minus_s,,,,,0,0,0,0,,,,,,,,,0,11,11,4,,,,,,,,,,,,,,,,,,,,,,,,,,,,,,,,,,,,,,,,,,,,,,,,,,,,,,,,,,907.1712503000017,908.9489795000009,906.6643511000002,908.9489795000009,908.9489795000009,908.9489795000009,0.0056640999973751605,0.013146999997843523,115,reward,1,[0.534825799997634],[0.5348440999987361],909.4906382000008,909.4906382000008,0.006665099997917423,0.006665099997917423,0.018096799998602364,0.05270859999654931,0.059651199997460935,0.10131609999734792,0.1083167999968282,1.003990999997768,912.9835230999997,916.6153488000018,,,,,,,,,,,,,,,,,,,,,,,,,,,,,9,D,2023-12-07_16h27.21.527,gca_avoidance_task,2022.2.4,143.97666425720658,
positions.xlsx,stimuli.xlsx,stimuli/Social2.png,stimuli/Social1.png,stimuli/Nonsocial2.png,stimuli/Nonsocial1.png,,"(-0.7, 0.5)",cs_plus_ns,,,,,0,0,0,0,,,,,,,,,0,12,12,8,,,,,,,,,,,,,,,,,,,,,,,,,,,,,,,,,,,,,,,,,,,,,,,,,,,,,,,,,,917.1222468000014,918.8582891000005,916.6153488000018,918.8582891000005,918.8582891000005,918.8582891000005,0.006388600002537714,0.013081799999781651,115,none,0,,,923.8650994999989,923.8650994999989,0.013778399999864632,0.013778399999864632,0.019909200000256533,0.05452070000319509,0.061487200000556186,0.10312720000001718,0.11006489999999758,1.0128046000027098,927.3580091000003,931.3300936999985,,,,,,,,,,,,,,,,,,,,,,,,,,,,,9,D,2023-12-07_16h27.21.527,gca_avoidance_task,2022.2.4,143.97666425720658,
positions.xlsx,stimuli.xlsx,stimuli/Social2.png,stimuli/Social1.png,stimuli/Nonsocial2.png,stimuli/Nonsocial1.png,,"(-0.7, -0.5)",cs_minus_s,,,,,0,0,0,0,,,,,,,,,0,13,13,5,,,,,,,,,,,,,,,,,,,,,,,,,,,,,,,,,,,,,,,,,,,,,,,,,,,,,,,,,,931.836954800001,933.3924398000017,931.3300936999985,933.3924398000017,933.3924398000017,933.3924398000017,0.005502700001670746,0.013036300002568169,120,reward,1,[0.451427899999544],[0.45143150000149035],933.8507642000004,933.8507642000004,0.006624199999350822,0.006624199999350822,0.01863769999908982,0.05331970000042929,0.060253200001170626,0.10196250000080909,0.10895990000062739,1.004679000001488,937.343686799999,940.8713372999991,,,,,,,,,,,,,,,,,,,,,,,,,,,,,9,D,2023-12-07_16h27.21.527,gca_avoidance_task,2022.2.4,143.97666425720658,
positions.xlsx,stimuli.xlsx,stimuli/Social2.png,stimuli/Social1.png,stimuli/Nonsocial2.png,stimuli/Nonsocial1.png,,"(0.7, 0.5)",cs_plus_ns,,,,,0,0,0,0,,,,,,,,,0,14,14,10,,,,,,,,,,,,,,,,,,,,,,,,,,,,,,,,,,,,,,,,,,,,,,,,,,,,,,,,,,941.3782216,943.3156567000005,940.8713372999991,943.3156567000005,943.3156567000005,943.3156567000005,0.006577399999514455,0.013324899999133777,120,none,0,,,948.3224546999991,948.3224546999991,0.013738499997998588,0.013738499997998588,0.02013200000146753,0.05481349999899976,0.06175660000008065,0.10339209999801824,0.11036700000113342,1.0130233999989287,951.8154007000012,956.3012836999987,,,,,,,,,,,,,,,,,,,,,,,,,,,,,9,D,2023-12-07_16h27.21.527,gca_avoidance_task,2022.2.4,143.97666425720658,
positions.xlsx,stimuli.xlsx,stimuli/Social2.png,stimuli/Social1.png,stimuli/Nonsocial2.png,stimuli/Nonsocial1.png,,"(0.7, -0.5)",cs_plus_ns,,,,,0,0,0,0,,,,,,,,,0,15,15,11,,,,,,,,,,,,,,,,,,,,,,,,,,,,,,,,,,,,,,,,,,,,,,,,,,,,,,,,,,956.8081726000019,958.0234272000016,956.3012836999987,958.0234272000016,958.0234272000016,958.0234272000016,0.006341100001009181,0.013182800001231954,120,none,0,,,963.030159599999,963.030159599999,0.013676300000952324,0.013676300000952324,0.01990270000169403,0.05458590000125696,0.06156140000166488,0.10324620000028517,0.11018600000170409,1.0128479000013613,966.5231200000017,970.1479962000012,,,,,,,,,,,,,,,,,,,,,,,,,,,,,9,D,2023-12-07_16h27.21.527,gca_avoidance_task,2022.2.4,143.97666425720658,
positions.xlsx,stimuli.xlsx,stimuli/Social2.png,stimuli/Social1.png,stimuli/Nonsocial2.png,stimuli/Nonsocial1.png,,"(-0.7, 0.5)",cs_plus_ns,,,,,0,0,0,0,,,,,,,,,1,0,16,8,,,,,,,,,,,,,,,,,,,,,,,,,,,,,,,,,,,,,,,,,,,,,,,,,,,,,,,,,,970.6548519999997,972.2311703000014,970.1479962000012,972.2311703000014,972.2311703000014,972.2311703000014,0.006366000001435168,0.013335400002688402,120,none,0,,,977.2379427000014,977.2379427000014,0.014239000000088708,0.014239000000088708,0.0201563000009628,0.054821700003230944,0.061785000001691515,0.10340500000165775,0.11036880000028759,1.0130989999997837,980.7309033999991,984.4877293999998,,,,,,,,,,,,,,,,,,,,,,,,,,,,,9,D,2023-12-07_16h27.21.527,gca_avoidance_task,2022.2.4,143.97666425720658,
positions.xlsx,stimuli.xlsx,stimuli/Social2.png,stimuli/Social1.png,stimuli/Nonsocial2.png,stimuli/Nonsocial1.png,,"(-0.7, 0.5)",cs_minus_ns,,,,,0,0,0,0,,,,,,,,,1,1,17,12,,,,,,,,,,,,,,,,,,,,,,,,,,,,,,,,,,,,,,,,,,,,,,,,,,,,,,,,,,984.9945399999997,986.9042384999993,984.4877293999998,986.9042384999993,986.9042384999993,986.9042384999993,0.00667289999910281,0.013329399997019209,125,reward,1,[0.5419198999989021],[0.5419235999979719],987.4527990999995,987.4527990999995,0.008090200000879122,0.008090200000879122,0.018572799999674316,0.053263599998899736,0.06021689999761293,0.10183580000011716,0.10883349999858183,1.0046622000008938,990.9457928000011,994.980320900002,,,,,,,,,,,,,,,,,,,,,,,,,,,,,9,D,2023-12-07_16h27.21.527,gca_avoidance_task,2022.2.4,143.97666425720658,
positions.xlsx,stimuli.xlsx,stimuli/Social2.png,stimuli/Social1.png,stimuli/Nonsocial2.png,stimuli/Nonsocial1.png,,"(0.7, -0.5)",cs_minus_ns,,,,,0,0,0,0,,,,,,,,,1,2,18,15,,,,,,,,,,,,,,,,,,,,,,,,,,,,,,,,,,,,,,,,,,,,,,,,,,,,,,,,,,995.4872149000003,997.0010254000008,994.980320900002,997.0010254000008,997.0010254000008,997.0010254000008,0.0067172000017308164,0.01324640000166255,130,reward,1,[0.46559370000250055],[0.46559720000004745],997.4732532000016,997.4732532000016,0.007982799997989787,0.007982799997989787,0.01819229999819072,0.05292389999885927,0.05984289999832981,0.10148489999846788,0.10841569999683998,1.004222799998388,1000.9662224999993,1005.2230114000013,,,,,,,,,,,,,,,,,,,,,,,,,,,,,9,D,2023-12-07_16h27.21.527,gca_avoidance_task,2022.2.4,143.97666425720658,
positions.xlsx,stimuli.xlsx,stimuli/Social2.png,stimuli/Social1.png,stimuli/Nonsocial2.png,stimuli/Nonsocial1.png,,"(0.7, -0.5)",cs_plus_ns,,,,,0,0,0,0,,,,,,,,,1,3,19,11,,,,,,,,,,,,,,,,,,,,,,,,,,,,,,,,,,,,,,,,,,,,,,,,,,,,,,,,,,1005.7298497000011,1007.0909591000018,1005.2230114000013,1007.0909591000018,1007.0909591000018,1007.0909591000018,0.006613800000195624,0.013071400000626454,130,none,0,,,1012.0976898000008,1012.0976898000008,0.013715699999011122,0.013715699999011122,0.019777800000156276,0.054444000001240056,0.061376099998597056,0.10308369999984279,0.10998190000100294,1.012721999999485,1015.5906185000022,1019.8821277999996,,,,,,,,,,,,,,,,,,,,,,,,,,,,,9,D,2023-12-07_16h27.21.527,gca_avoidance_task,2022.2.4,143.97666425720658,
positions.xlsx,stimuli.xlsx,stimuli/Social2.png,stimuli/Social1.png,stimuli/Nonsocial2.png,stimuli/Nonsocial1.png,,"(-0.7, 0.5)",cs_minus_s,,,,,0,0,0,0,,,,,,,,,1,4,20,4,,,,,,,,,,,,,,,,,,,,,,,,,,,,,,,,,,,,,,,,,,,,,,,,,,,,,,,,,,1020.3889889999991,1021.5833999999995,1019.8821277999996,1021.5833999999995,1021.5833999999995,1021.5833999999995,0.005989400000544265,0.012968099999852711,135,reward,1,[0.5137618000007933],[0.5137654999998631],1022.1043054000002,1022.1043054000002,0.006996799998887582,0.006996799998887582,0.018508499997551553,0.053147300001000986,0.06007749999844236,0.10169089999908465,0.10869559999991907,1.004439899999852,1025.5971931999993,1030.0622602000003,,,,,,,,,,,,,,,,,,,,,,,,,,,,,9,D,2023-12-07_16h27.21.527,gca_avoidance_task,2022.2.4,143.97666425720658,
positions.xlsx,stimuli.xlsx,stimuli/Social2.png,stimuli/Social1.png,stimuli/Nonsocial2.png,stimuli/Nonsocial1.png,,"(0.7, -0.5)",cs_plus_s,,,,,0,0,0,0,,,,,,,,,1,5,21,3,,,,,,,,,,,,,,,,,,,,,,,,,,,,,,,,,,,,,,,,,,,,,,,,,,,,,,,,,,1030.5691694999987,1032.131592400001,1030.0622602000003,1032.131592400001,1032.131592400001,1032.131592400001,0.006368599999404978,0.013124599998263875,135,none,0,,,1037.138376400002,1037.138376400002,0.013178099998185644,0.013178099998185644,0.019930299997213297,0.05456259999846225,0.06149100000038743,0.10322090000045137,0.11011759999746573,1.0128707000003487,1040.6313193999995,1044.8950059000017,,,,,,,,,,,,,,,,,,,,,,,,,,,,,9,D,2023-12-07_16h27.21.527,gca_avoidance_task,2022.2.4,143.97666425720658,
positions.xlsx,stimuli.xlsx,stimuli/Social2.png,stimuli/Social1.png,stimuli/Nonsocial2.png,stimuli/Nonsocial1.png,,"(0.7, 0.5)",cs_minus_s,,,,,0,0,0,0,,,,,,,,,1,6,22,6,,,,,,,,,,,,,,,,,,,,,,,,,,,,,,,,,,,,,,,,,,,,,,,,,,,,,,,,,,1045.4019301000008,1047.249055700002,1044.8950059000017,1047.249055700002,1047.249055700002,1047.249055700002,0.005928400001721457,0.012947700000950135,140,reward,1,[0.4929464000015287],[0.492949999999837],1047.7490280999991,1047.7490280999991,0.006856200001493562,0.006856200001493562,0.018413500001770444,0.0531394999998156,0.060052799999539275,0.10171270000137156,0.10864489999949001,1.004459700001462,1051.2420203000001,1054.8113120999988,,,,,,,,,,,,,,,,,,,,,,,,,,,,,9,D,2023-12-07_16h27.21.527,gca_avoidance_task,2022.2.4,143.97666425720658,
positions.xlsx,stimuli.xlsx,stimuli/Social2.png,stimuli/Social1.png,stimuli/Nonsocial2.png,stimuli/Nonsocial1.png,,"(-0.7, -0.5)",cs_minus_ns,,,,,0,0,0,0,,,,,,,,,1,7,23,13,,,,,,,,,,,,,,,,,,,,,,,,,,,,,,,,,,,,,,,,,,,,,,,,,,,,,,,,,,1055.3181882999997,1056.3737213999993,1054.8113120999988,1056.3737213999993,1056.3737213999993,1056.3737213999993,0.007282299997314112,0.013380399999732617,145,reward,1,[0.5212445999968622],[0.5212481999988086],1056.9014434000019,1056.9014434000019,0.007853300001443131,0.007853300001443131,0.01830580000023474,0.05295320000004722,0.059899800002312986,0.10154719999991357,0.10853100000167615,1.004324200002884,1060.3943989,1064.5123242000009,,,,,,,,,,,,,,,,,,,,,,,,,,,,,9,D,2023-12-07_16h27.21.527,gca_avoidance_task,2022.2.4,143.97666425720658,
positions.xlsx,stimuli.xlsx,stimuli/Social2.png,stimuli/Social1.png,stimuli/Nonsocial2.png,stimuli/Nonsocial1.png,,"(0.7, 0.5)",cs_minus_ns,,,,,0,0,0,0,,,,,,,,,1,8,24,14,,,,,,,,,,,,,,,,,,,,,,,,,,,,,,,,,,,,,,,,,,,,,,,,,,,,,,,,,,1065.0191812000012,1066.0677657000015,1064.5123242000009,1066.0677657000015,1066.0677657000015,1066.0677657000015,0.0065002000010281336,0.01348839999991469,150,reward,1,[0.4866855000000214],[0.4866891999990912],1066.5608060000013,1066.5608060000013,0.007931899999675807,0.007931899999675807,0.018011699998169206,0.05274319999807631,0.05963869999686722,0.10128959999929066,0.10823549999986426,1.004060599996592,1070.0537670000012,1074.0258295999993,,,,,,,,,,,,,,,,,,,,,,,,,,,,,9,D,2023-12-07_16h27.21.527,gca_avoidance_task,2022.2.4,143.97666425720658,
positions.xlsx,stimuli.xlsx,stimuli/Social2.png,stimuli/Social1.png,stimuli/Nonsocial2.png,stimuli/Nonsocial1.png,,"(0.7, 0.5)",cs_plus_ns,,,,,0,0,0,0,,,,,,,,,1,9,25,10,,,,,,,,,,,,,,,,,,,,,,,,,,,,,,,,,,,,,,,,,,,,,,,,,,,,,,,,,,1074.5327060000018,1075.9771022999994,1074.0258295999993,1075.9771022999994,1075.9771022999994,1075.9771022999994,0.006914099998539314,0.012956999999005347,150,none,0,,,1080.9908122999987,1080.9908122999987,0.014539899999363115,0.014539899999363115,0.02669170000081067,0.054372099999454804,0.06133620000036899,0.10297319999881438,0.10993519999829005,1.0127366999986407,1084.4767610000017,1088.0808063000004,,,,,,,,,,,,,,,,,,,,,,,,,,,,,9,D,2023-12-07_16h27.21.527,gca_avoidance_task,2022.2.4,143.97666425720658,
positions.xlsx,stimuli.xlsx,stimuli/Social2.png,stimuli/Social1.png,stimuli/Nonsocial2.png,stimuli/Nonsocial1.png,,"(0.7, 0.5)",cs_plus_s,,,,,0,0,0,0,,,,,,,,,1,10,26,2,,,,,,,,,,,,,,,,,,,,,,,,,,,,,,,,,,,,,,,,,,,,,,,,,,,,,,,,,,1088.5876869000022,1089.893194100001,1088.0808063000004,1089.893194100001,1089.893194100001,1089.893194100001,0.006122599999798695,0.013251299998955801,150,none,0,,,1094.8999930999998,1094.8999930999998,0.01373299999977462,0.01373299999977462,0.020126999999774853,0.054689000000507804,0.06165120000150637,0.10331909999877098,0.11028390000137733,1.0130309000014677,1098.3928655000018,1102.635779799999,,,,,,,,,,,,,,,,,,,,,,,,,,,,,9,D,2023-12-07_16h27.21.527,gca_avoidance_task,2022.2.4,143.97666425720658,
positions.xlsx,stimuli.xlsx,stimuli/Social2.png,stimuli/Social1.png,stimuli/Nonsocial2.png,stimuli/Nonsocial1.png,,"(-0.7, -0.5)",cs_plus_ns,,,,,0,0,0,0,,,,,,,,,1,11,27,9,,,,,,,,,,,,,,,,,,,,,,,,,,,,,,,,,,,,,,,,,,,,,,,,,,,,,,,,,,1103.1426701000019,1104.7259422999996,1102.635779799999,1104.7259422999996,1104.7259422999996,1104.7259422999996,0.0062789000003249384,0.012959900002897484,150,none,0,,,1109.7327189999996,1109.7327189999996,0.013841200001479592,0.013841200001479592,0.01978910000252654,0.05443540000123903,0.06136090000291006,0.1030218000014429,0.10999920000176644,1.0127212000006693,1113.225637800002,1116.746353800001,,,,,,,,,,,,,,,,,,,,,,,,,,,,,9,D,2023-12-07_16h27.21.527,gca_avoidance_task,2022.2.4,143.97666425720658,
positions.xlsx,stimuli.xlsx,stimuli/Social2.png,stimuli/Social1.png,stimuli/Nonsocial2.png,stimuli/Nonsocial1.png,,"(-0.7, 0.5)",cs_plus_s,,,,,0,0,0,0,,,,,,,,,1,12,28,0,,,,,,,,,,,,,,,,,,,,,,,,,,,,,,,,,,,,,,,,,,,,,,,,,,,,,,,,,,1117.2532303000007,1119.2392776999986,1116.746353800001,1119.2392776999986,1119.2392776999986,1119.2392776999986,0.00607769999987795,0.013383500001509674,150,none,0,,,1124.2460433999986,1124.2460433999986,0.013654500002303394,0.013654500002303394,0.020114499999181135,0.05473820000042906,0.061734200000501005,0.10338599999886355,0.11031170000205748,1.0130599000003713,1127.7389340000009,1131.8985532000006,,,,,,,,,,,,,,,,,,,,,,,,,,,,,9,D,2023-12-07_16h27.21.527,gca_avoidance_task,2022.2.4,143.97666425720658,
positions.xlsx,stimuli.xlsx,stimuli/Social2.png,stimuli/Social1.png,stimuli/Nonsocial2.png,stimuli/Nonsocial1.png,,"(-0.7, -0.5)",cs_minus_s,,,,,0,0,0,0,,,,,,,,,1,13,29,5,,,,,,,,,,,,,,,,,,,,,,,,,,,,,,,,,,,,,,,,,,,,,,,,,,,,,,,,,,1132.4054049000006,1134.2317511,1131.8985532000006,1134.2317511,1134.2317511,1134.2317511,0.006014900001900969,0.012983200002054218,155,reward,1,[0.437438299999485],[0.43744190000143135],1134.676170499999,1134.676170499999,0.007285200001206249,0.007285200001206249,0.018868600000132574,0.0535267000013846,0.06050609999874723,0.10221240000100806,0.10909539999920526,1.004872500001511,1138.1691366000014,1141.9606273999998,,,,,,,,,,,,,,,,,,,,,,,,,,,,,9,D,2023-12-07_16h27.21.527,gca_avoidance_task,2022.2.4,143.97666425720658,
positions.xlsx,stimuli.xlsx,stimuli/Social2.png,stimuli/Social1.png,stimuli/Nonsocial2.png,stimuli/Nonsocial1.png,,"(-0.7, -0.5)",cs_plus_s,,,,,0,0,0,0,,,,,,,,,1,14,30,1,,,,,,,,,,,,,,,,,,,,,,,,,,,,,,,,,,,,,,,,,,,,,,,,,,,,,,,,,,1142.4675026000004,1144.1271788000013,1141.9606273999998,1144.1271788000013,1144.1271788000013,1144.1271788000013,0.005978299999696901,0.01315210000029765,155,none,0,,,1149.133944000001,1149.133944000001,0.013651699999172706,0.013651699999172706,0.01992429999882006,0.05461690000083763,0.06156899999768939,0.1031775999981619,0.11013879999882192,1.012869199999841,1152.6268407999996,1156.9600501999994,,,,,,,,,,,,,,,,,,,,,,,,,,,,,9,D,2023-12-07_16h27.21.527,gca_avoidance_task,2022.2.4,143.97666425720658,
positions.xlsx,stimuli.xlsx,stimuli/Social2.png,stimuli/Social1.png,stimuli/Nonsocial2.png,stimuli/Nonsocial1.png,,"(0.7, -0.5)",cs_minus_s,,,,,0,0,0,0,,,,,,,,,1,15,31,7,,,,,,,,,,,,,,,,,,,,,,,,,,,,,,,,,,,,,,,,,,,,,,,,,,,,,,,,,,1157.4669189999986,1159.369636800002,1156.9600501999994,1159.369636800002,1159.369636800002,1159.369636800002,0.0060554999981832225,0.013030499998421874,160,reward,1,[0.5070736999987275],[0.5070774999985588],1159.8834800000004,1159.8834800000004,0.00687629999811179,0.00687629999811179,0.018461299998307368,0.05313509999905364,0.06011979999675532,0.10175749999689288,0.10871169999882113,1.004515900000115,1163.3764587000005,1167.292955500001,,,,,,,,,,,,,,,,,,,,,,,,,,,,,9,D,2023-12-07_16h27.21.527,gca_avoidance_task,2022.2.4,143.97666425720658,
positions.xlsx,stimuli.xlsx,stimuli/Social2.png,stimuli/Social1.png,stimuli/Nonsocial2.png,stimuli/Nonsocial1.png,,"(-0.7, -0.5)",cs_plus_s,,,,,0,0,0,0,,,,,,,,,2,0,32,1,,,,,,,,,,,,,,,,,,,,,,,,,,,,,,,,,,,,,,,,,,,,,,,,,,,,,,,,,,1167.7998451999993,1169.7581218000014,1167.292955500001,1169.7581218000014,1169.7581218000014,1169.7581218000014,0.005932100000791252,0.01348850000067614,160,none,0,,,1174.764809799999,1174.764809799999,0.013245900001493283,0.013245900001493283,0.020186300000204938,0.05489560000205529,0.0618611999998393,0.10351430000082473,0.11044279999987339,1.013205300001573,1178.2577630999986,1182.6951678000005,,,,,,,,,,,,,,,,,,,,,,,,,,,,,9,D,2023-12-07_16h27.21.527,gca_avoidance_task,2022.2.4,143.97666425720658,
positions.xlsx,stimuli.xlsx,stimuli/Social2.png,stimuli/Social1.png,stimuli/Nonsocial2.png,stimuli/Nonsocial1.png,,"(-0.7, 0.5)",cs_plus_s,,,,,0,0,0,0,,,,,,,,,2,1,33,0,,,,,,,,,,,,,,,,,,,,,,,,,,,,,,,,,,,,,,,,,,,,,,,,,,,,,,,,,,1183.202025999999,1185.0838814999988,1182.6951678000005,1185.0838814999988,1185.0838814999988,1185.0838814999988,0.00587469999663881,0.013320899997779634,160,none,0,,,1190.090645700002,1190.090645700002,0.013288699999975506,0.013288699999975506,0.02013299999816809,0.05473919999712962,0.06174349999855622,0.10336889999962295,0.1103581999996095,1.0130868999985978,1193.5835695999995,1197.1598053999987,,,,,,,,,,,,,,,,,,,,,,,,,,,,,9,D,2023-12-07_16h27.21.527,gca_avoidance_task,2022.2.4,143.97666425720658,
positions.xlsx,stimuli.xlsx,stimuli/Social2.png,stimuli/Social1.png,stimuli/Nonsocial2.png,stimuli/Nonsocial1.png,,"(0.7, -0.5)",cs_minus_s,,,,,0,0,0,0,,,,,,,,,2,2,34,7,,,,,,,,,,,,,,,,,,,,,,,,,,,,,,,,,,,,,,,,,,,,,,,,,,,,,,,,,,1197.666702800001,1199.3749762000007,1197.1598053999987,1199.3749762000007,1199.3749762000007,1199.3749762000007,0.005935400000453228,0.013149200000043493,165,reward,1,[0.5000928000008571],[0.5000961999976425],1199.8819181,1199.8819181,0.007451299999956973,0.007451299999956973,0.01855749999958789,0.05318339999939781,0.060154400001920294,0.10179400000197347,0.10875310000119498,1.0045482000023185,1203.3748922000013,1207.1732952999992,,,,,,,,,,,,,,,,,,,,,,,,,,,,,9,D,2023-12-07_16h27.21.527,gca_avoidance_task,2022.2.4,143.97666425720658,
positions.xlsx,stimuli.xlsx,stimuli/Social2.png,stimuli/Social1.png,stimuli/Nonsocial2.png,stimuli/Nonsocial1.png,,"(-0.7, 0.5)",cs_minus_ns,,,,,0,0,0,0,,,,,,,,,2,3,35,12,,,,,,,,,,,,,,,,,,,,,,,,,,,,,,,,,,,,,,,,,,,,,,,,,,,,,,,,,,1207.6802116,1209.3260009000005,1207.1732952999992,1209.3260009000005,1209.3260009000005,1209.3260009000005,0.00652049999916926,0.013042599999607773,170,reward,1,[0.7706849999995029],[0.7706889000000956],1210.1037479000006,1210.1037479000006,0.00696569999854546,0.00696569999854546,0.018946100000903243,0.0536154000001261,0.06056380000154604,0.10220580000168411,0.10923159999947529,1.0049714000015229,1213.5966558,1217.1660102999995,,,,,,,,,,,,,,,,,,,,,,,,,,,,,9,D,2023-12-07_16h27.21.527,gca_avoidance_task,2022.2.4,143.97666425720658,
positions.xlsx,stimuli.xlsx,stimuli/Social2.png,stimuli/Social1.png,stimuli/Nonsocial2.png,stimuli/Nonsocial1.png,,"(-0.7, -0.5)",cs_plus_ns,,,,,0,0,0,0,,,,,,,,,2,4,36,9,,,,,,,,,,,,,,,,,,,,,,,,,,,,,,,,,,,,,,,,,,,,,,,,,,,,,,,,,,1217.6728748999994,1219.4158620000017,1217.1660102999995,1219.4158620000017,1219.4158620000017,1219.4158620000017,0.00620830000116257,0.013297000001330161,170,none,0,,,1224.4226249000021,1224.4226249000021,0.014181599999574246,0.014181599999574246,0.02011549999951967,0.054722400000173366,0.06169899999804329,0.10333879999961937,0.11031659999935073,1.013003000000026,1227.9155625000021,1232.304286900002,,,,,,,,,,,,,,,,,,,,,,,,,,,,,9,D,2023-12-07_16h27.21.527,gca_avoidance_task,2022.2.4,143.97666425720658,
positions.xlsx,stimuli.xlsx,stimuli/Social2.png,stimuli/Social1.png,stimuli/Nonsocial2.png,stimuli/Nonsocial1.png,,"(0.7, 0.5)",cs_minus_ns,,,,,0,0,0,0,,,,,,,,,2,5,37,14,,,,,,,,,,,,,,,,,,,,,,,,,,,,,,,,,,,,,,,,,,,,,,,,,,,,,,,,,,1232.811177800002,1233.825026800001,1232.304286900002,1233.825026800001,1233.825026800001,1233.825026800001,0.006661899999016896,0.013459999998303829,175,reward,1,[0.528289699999732],[0.5282933999988018],1234.3597560999988,1234.3597560999988,0.007862799997383263,0.007862799997383263,0.018414299996948102,0.05306719999862253,0.059994399998686276,0.10167019999789773,0.10858279999956721,1.0044119999984105,1237.852705199999,1242.1650235000016,,,,,,,,,,,,,,,,,,,,,,,,,,,,,9,D,2023-12-07_16h27.21.527,gca_avoidance_task,2022.2.4,143.97666425720658,
positions.xlsx,stimuli.xlsx,stimuli/Social2.png,stimuli/Social1.png,stimuli/Nonsocial2.png,stimuli/Nonsocial1.png,,"(-0.7, -0.5)",cs_minus_ns,,,,,0,0,0,0,,,,,,,,,2,6,38,13,,,,,,,,,,,,,,,,,,,,,,,,,,,,,,,,,,,,,,,,,,,,,,,,,,,,,,,,,,1242.6718805000019,1244.491283899999,1242.1650235000016,1244.491283899999,1244.491283899999,1244.491283899999,0.006349399998725858,0.012985800000024028,180,reward,1,[0.5834120999970764],[0.5834156999990228],1245.0815293999985,1245.0815293999985,0.00774230000024545,0.00774230000024545,0.01846500000101514,0.05310470000040368,0.06012449999980163,0.10178369999994175,0.10873410000203876,1.0045003000013821,1248.5744999000017,1253.0257200999986,,,,,,,,,,,,,,,,,,,,,,,,,,,,,9,D,2023-12-07_16h27.21.527,gca_avoidance_task,2022.2.4,143.97666425720658,
positions.xlsx,stimuli.xlsx,stimuli/Social2.png,stimuli/Social1.png,stimuli/Nonsocial2.png,stimuli/Nonsocial1.png,,"(-0.7, 0.5)",cs_minus_s,,,,,0,0,0,0,,,,,,,,,2,7,39,4,,,,,,,,,,,,,,,,,,,,,,,,,,,,,,,,,,,,,,,,,,,,,,,,,,,,,,,,,,1253.5325660000017,1255.1922488000018,1253.0257200999986,1255.1922488000018,1255.1922488000018,1255.1922488000018,0.006042400000296766,0.013392799999564886,185,reward,1,[0.5907595999997284],[0.5907630000001518],1255.7894115000017,1255.7894115000017,0.0075126999981876,0.0075126999981876,0.018585099998745136,0.053236799998558126,0.06021669999972801,0.10190979999970295,0.1088168999995105,1.004607599999872,1259.2824260999987,1263.6919587000011,,,,,,,,,,,,,,,,,,,,,,,,,,,,,9,D,2023-12-07_16h27.21.527,gca_avoidance_task,2022.2.4,143.97666425720658,
positions.xlsx,stimuli.xlsx,stimuli/Social2.png,stimuli/Social1.png,stimuli/Nonsocial2.png,stimuli/Nonsocial1.png,,"(0.7, -0.5)",cs_minus_ns,,,,,0,0,0,0,,,,,,,,,2,8,40,15,,,,,,,,,,,,,,,,,,,,,,,,,,,,,,,,,,,,,,,,,,,,,,,,,,,,,,,,,,1264.1988201999993,1265.4765608999987,1263.6919587000011,1265.4765608999987,1265.4765608999987,1265.4765608999987,0.006434899998566834,0.01308219999918947,190,reward,1,[0.38184719999844674],[0.381850999998278],1265.8653866999994,1265.8653866999994,0.007360499999776948,0.007360499999776948,0.01868319999994128,0.05342430000018794,0.06031259999872418,0.10234459999992396,0.10892020000028424,1.0048324999988836,1269.358369900001,1273.3651901000012,,,,,,,,,,,,,,,,,,,,,,,,,,,,,9,D,2023-12-07_16h27.21.527,gca_avoidance_task,2022.2.4,143.97666425720658,
positions.xlsx,stimuli.xlsx,stimuli/Social2.png,stimuli/Social1.png,stimuli/Nonsocial2.png,stimuli/Nonsocial1.png,,"(0.7, 0.5)",cs_minus_s,,,,,0,0,0,0,,,,,,,,,2,9,41,6,,,,,,,,,,,,,,,,,,,,,,,,,,,,,,,,,,,,,,,,,,,,,,,,,,,,,,,,,,1273.872064700001,1275.6497529000007,1273.3651901000012,1275.6497529000007,1275.6497529000007,1275.6497529000007,0.005923200002143858,0.013116300000547199,195,reward,1,[0.5071563000019523],[0.5071600000010221],1276.1636284000015,1276.1636284000015,0.006990800000494346,0.006990800000494346,0.01842969999779598,0.053130299998883856,0.060096499997598585,0.10172719999900437,0.1086762999984785,1.0044913999990968,1279.656586600002,1283.1980920999995,,,,,,,,,,,,,,,,,,,,,,,,,,,,,9,D,2023-12-07_16h27.21.527,gca_avoidance_task,2022.2.4,143.97666425720658,
positions.xlsx,stimuli.xlsx,stimuli/Social2.png,stimuli/Social1.png,stimuli/Nonsocial2.png,stimuli/Nonsocial1.png,,"(-0.7, 0.5)",cs_plus_ns,,,,,0,0,0,0,,,,,,,,,2,10,42,8,,,,,,,,,,,,,,,,,,,,,,,,,,,,,,,,,,,,,,,,,,,,,,,,,,,,,,,,,,1283.7050124999987,1285.5451964999993,1283.1980920999995,1285.5451964999993,1285.5451964999993,1285.5451964999993,0.006220999999641208,0.01329470000200672,195,none,0,,,1290.5589422000012,1290.5589422000012,0.014697099999466445,0.014697099999466445,0.027049000000261003,0.05479190000187373,0.0617141000002448,0.10332760000164853,0.11033450000104494,1.013081000000966,1294.0449312000019,1297.8850380000003,,,,,,,,,,,,,,,,,,,,,,,,,,,,,9,D,2023-12-07_16h27.21.527,gca_avoidance_task,2022.2.4,143.97666425720658,
positions.xlsx,stimuli.xlsx,stimuli/Social2.png,stimuli/Social1.png,stimuli/Nonsocial2.png,stimuli/Nonsocial1.png,,"(0.7, -0.5)",cs_plus_ns,,,,,0,0,0,0,,,,,,,,,2,11,43,11,,,,,,,,,,,,,,,,,,,,,,,,,,,,,,,,,,,,,,,,,,,,,,,,,,,,,,,,,,1298.3919007000004,1299.5238453999991,1297.8850380000003,1299.5238453999991,1299.5238453999991,1299.5238453999991,0.006761100001313025,0.013570900002378039,195,none,0,,,1304.5305764000004,1304.5305764000004,0.014791200002946425,0.014791200002946425,0.02031139999962761,0.05494900000121561,0.06189950000043609,0.10358540000015637,0.11053090000132215,1.0132634000001417,1308.023518099999,1312.2038670000002,,,,,,,,,,,,,,,,,,,,,,,,,,,,,9,D,2023-12-07_16h27.21.527,gca_avoidance_task,2022.2.4,143.97666425720658,
positions.xlsx,stimuli.xlsx,stimuli/Social2.png,stimuli/Social1.png,stimuli/Nonsocial2.png,stimuli/Nonsocial1.png,,"(0.7, -0.5)",cs_plus_s,,,,,0,0,0,0,,,,,,,,,2,12,44,3,,,,,,,,,,,,,,,,,,,,,,,,,,,,,,,,,,,,,,,,,,,,,,,,,,,,,,,,,,1312.7107944999989,1314.5093454000016,1312.2038670000002,1314.5093454000016,1314.5093454000016,1314.5093454000016,0.006225799999810988,0.013289699996676063,195,none,0,,,1319.5161165999998,1319.5161165999998,0.013583999996626517,0.013583999996626517,0.020083299998077564,0.054708099996787496,0.0616950999974506,0.10332539999944856,0.11027949999697739,1.012978299997485,1323.0090831999987,1327.4671729000002,,,,,,,,,,,,,,,,,,,,,,,,,,,,,9,D,2023-12-07_16h27.21.527,gca_avoidance_task,2022.2.4,143.97666425720658,
positions.xlsx,stimuli.xlsx,stimuli/Social2.png,stimuli/Social1.png,stimuli/Nonsocial2.png,stimuli/Nonsocial1.png,,"(0.7, 0.5)",cs_plus_ns,,,,,0,0,0,0,,,,,,,,,2,13,45,10,,,,,,,,,,,,,,,,,,,,,,,,,,,,,,,,,,,,,,,,,,,,,,,,,,,,,,,,,,1327.9741084999987,1329.3768039999995,1327.4671729000002,1329.3768039999995,1329.3768039999995,1329.3768039999995,0.006654500000877306,0.013143100000888808,195,none,0,,,1334.3835488000004,1334.3835488000004,0.01398699999845121,0.01398699999845121,0.019893900000170106,0.054625900000246475,0.06157189999794355,0.10318489999917801,0.11013230000025942,1.012887500000943,1337.8764900999995,1342.3138438999995,,,,,,,,,,,,,,,,,,,,,,,,,,,,,9,D,2023-12-07_16h27.21.527,gca_avoidance_task,2022.2.4,143.97666425720658,
positions.xlsx,stimuli.xlsx,stimuli/Social2.png,stimuli/Social1.png,stimuli/Nonsocial2.png,stimuli/Nonsocial1.png,,"(0.7, 0.5)",cs_plus_s,,,,,0,0,0,0,,,,,,,,,2,14,46,2,,,,,,,,,,,,,,,,,,,,,,,,,,,,,,,,,,,,,,,,,,,,,,,,,,,,,,,,,,1342.8207174999989,1344.077614400001,1342.3138438999995,1344.077614400001,1344.077614400001,1344.077614400001,0.005817400000523776,0.013160900001821574,195,none,0,,,1349.084402700002,1349.084402700002,0.013621099998999853,0.013621099998999853,0.019955100000515813,0.05462460000126157,0.06156539999938104,0.10327630000028876,0.1102007000008598,1.0129058999991685,1352.5773558,1357.0007589000015,,,,,,,,,,,,,,,,,,,,,,,,,,,,,9,D,2023-12-07_16h27.21.527,gca_avoidance_task,2022.2.4,143.97666425720658,
positions.xlsx,stimuli.xlsx,stimuli/Social2.png,stimuli/Social1.png,stimuli/Nonsocial2.png,stimuli/Nonsocial1.png,,"(-0.7, -0.5)",cs_minus_s,,,,,0,0,0,0,,,,,,,,,2,15,47,5,,,,,,,,,,,,,,,,,,,,,,,,,,,,,,,,,,,,,,,,,,,,,,,,,,,,,,,,,,1357.5076536999986,1359.3478503000006,1357.0007589000015,1359.3478503000006,1359.3478503000006,1359.3478503000006,0.005754599998908816,0.013076799998088973,200,reward,1,[0.40285429999858025],[0.402858000001288],1359.7575561000012,1359.7575561000012,0.006925000001501758,0.006925000001501758,0.0187147000033292,0.05347830000027898,0.060400800000934396,0.10199500000089756,0.10900480000054813,1.0047314000003098,1363.2505375,1366.7573178999992,,,,,,,,,,,,,,,,,,,,,,,,,,,,,9,D,2023-12-07_16h27.21.527,gca_avoidance_task,2022.2.4,143.97666425720658,
positions.xlsx,stimuli.xlsx,stimuli/Social2.png,stimuli/Social1.png,stimuli/Nonsocial2.png,stimuli/Nonsocial1.png,,"(-0.7, -0.5)",cs_plus_s,,,,,0,0,0,0,,,,,,,,,3,0,48,1,,,,,,,,,,,,,,,,,,,,,,,,,,,,,,,,,,,,,,,,,,,,,,,,,,,,,,,,,,1367.2642018000006,1368.8266437999991,1366.7573178999992,1368.8266437999991,1368.8266437999991,1368.8266437999991,0.00629789999948116,0.013356200000998797,200,none,0,,,1373.8334106000002,1373.8334106000002,0.013444600001093931,0.013444600001093931,0.020174299999780487,0.05480779999925289,0.061782200002198806,0.1033932000027562,0.11042920000181766,1.0131049000010535,1377.326337800001,1381.7220211999993,,,,,,,,,,,,,,,,,,,,,,,,,,,,,9,D,2023-12-07_16h27.21.527,gca_avoidance_task,2022.2.4,143.97666425720658,
positions.xlsx,stimuli.xlsx,stimuli/Social2.png,stimuli/Social1.png,stimuli/Nonsocial2.png,stimuli/Nonsocial1.png,,"(-0.7, -0.5)",cs_minus_s,,,,,0,0,0,0,,,,,,,,,3,1,49,5,,,,,,,,,,,,,,,,,,,,,,,,,,,,,,,,,,,,,,,,,,,,,,,,,,,,,,,,,,1382.2288899000014,1384.201047999999,1381.7220211999993,1384.201047999999,1384.201047999999,1384.201047999999,0.005842599999596132,0.013056799998594215,205,reward,1,[0.4652739000011934],[0.4652773999987403],1384.673276100002,1384.673276100002,0.007522799998696428,0.007522799998696428,0.01827459999913117,0.05289629999970202,0.05987710000044899,0.10151399999813293,0.10848790000090958,1.0042671999981394,1388.166231700001,1392.159105499999,,,,,,,,,,,,,,,,,,,,,,,,,,,,,9,D,2023-12-07_16h27.21.527,gca_avoidance_task,2022.2.4,143.97666425720658,
positions.xlsx,stimuli.xlsx,stimuli/Social2.png,stimuli/Social1.png,stimuli/Nonsocial2.png,stimuli/Nonsocial1.png,,"(0.7, 0.5)",cs_minus_ns,,,,,0,0,0,0,,,,,,,,,3,2,50,14,,,,,,,,,,,,,,,,,,,,,,,,,,,,,,,,,,,,,,,,,,,,,,,,,,,,,,,,,,1392.6659848999989,1394.047875700002,1392.159105499999,1394.047875700002,1394.047875700002,1394.047875700002,0.006120700003521051,0.013537800001358846,210,reward,1,[0.528202000001329],[0.5282059000019217],1394.5825785000015,1394.5825785000015,0.007360300001892028,0.007360300001892028,0.018209900001238566,0.052837400002317736,0.059789099999761675,0.10149440000168397,0.10845180000251275,1.0042051000018546,1398.0755448000018,1402.5406484000014,,,,,,,,,,,,,,,,,,,,,,,,,,,,,9,D,2023-12-07_16h27.21.527,gca_avoidance_task,2022.2.4,143.97666425720658,
positions.xlsx,stimuli.xlsx,stimuli/Social2.png,stimuli/Social1.png,stimuli/Nonsocial2.png,stimuli/Nonsocial1.png,,"(-0.7, 0.5)",cs_minus_s,,,,,0,0,0,0,,,,,,,,,3,3,51,4,,,,,,,,,,,,,,,,,,,,,,,,,,,,,,,,,,,,,,,,,,,,,,,,,,,,,,,,,,1403.0475322999991,1404.491916400002,1402.5406484000014,1404.491916400002,1404.491916400002,1404.491916400002,0.005654199998389231,0.013082599998597289,215,reward,1,[0.46561649999785004],[0.4723259999991569],1404.971072299999,1404.971072299999,0.006737499999871943,0.006737499999871943,0.018123199999536155,0.05280539999876055,0.059767299997474765,0.10144700000091689,0.10835360000055516,1.0041536999997334,1408.4639850000021,1412.908316000001,,,,,,,,,,,,,,,,,,,,,,,,,,,,,9,D,2023-12-07_16h27.21.527,gca_avoidance_task,2022.2.4,143.97666425720658,
positions.xlsx,stimuli.xlsx,stimuli/Social2.png,stimuli/Social1.png,stimuli/Nonsocial2.png,stimuli/Nonsocial1.png,,"(-0.7, -0.5)",cs_plus_ns,,,,,0,0,0,0,,,,,,,,,3,4,52,9,,,,,,,,,,,,,,,,,,,,,,,,,,,,,,,,,,,,,,,,,,,,,,,,,,,,,,,,,,1413.4151540999992,1414.9429051000006,1412.908316000001,1414.9429051000006,1414.9429051000006,1414.9429051000006,0.006292300000495743,0.013327500000741566,215,none,0,,,1419.9496757000015,1419.9496757000015,0.014206200001353864,0.014206200001353864,0.02008650000061607,0.0547714000022097,0.061714800001936965,0.10335480000139796,0.11030240000036429,1.01310370000283,1423.442620599999,1427.8729939000004,,,,,,,,,,,,,,,,,,,,,,,,,,,,,9,D,2023-12-07_16h27.21.527,gca_avoidance_task,2022.2.4,143.97666425720658,
positions.xlsx,stimuli.xlsx,stimuli/Social2.png,stimuli/Social1.png,stimuli/Nonsocial2.png,stimuli/Nonsocial1.png,,"(0.7, -0.5)",cs_plus_ns,,,,,0,0,0,0,,,,,,,,,3,5,53,11,,,,,,,,,,,,,,,,,,,,,,,,,,,,,,,,,,,,,,,,,,,,,,,,,,,,,,,,,,1428.3798502999998,1430.3589456000009,1427.8729939000004,1430.3589456000009,1430.3589456000009,1430.3589456000009,0.006466200000431854,0.012992200001463061,215,none,0,,,1435.365679999999,1435.365679999999,0.013555900000937982,0.013555900000937982,0.01973790000192821,0.054454299999633804,0.06140940000113915,0.10304970000288449,0.11000840000269818,1.01270900000236,1438.858637100002,1442.5737812000007,,,,,,,,,,,,,,,,,,,,,,,,,,,,,9,D,2023-12-07_16h27.21.527,gca_avoidance_task,2022.2.4,143.97666425720658,
positions.xlsx,stimuli.xlsx,stimuli/Social2.png,stimuli/Social1.png,stimuli/Nonsocial2.png,stimuli/Nonsocial1.png,,"(0.7, 0.5)",cs_plus_ns,,,,,0,0,0,0,,,,,,,,,3,6,54,10,,,,,,,,,,,,,,,,,,,,,,,,,,,,,,,,,,,,,,,,,,,,,,,,,,,,,,,,,,1443.0806647999998,1444.9555862999987,1442.5737812000007,1444.9555862999987,1444.9555862999987,1444.9555862999987,0.006508299997221911,0.01338249999753316,215,shock,1,[0.2851872999999614],[0.28519109999979264],1445.2472792000008,1445.2472792000008,0.008563400002458366,0.008563400002458366,0.01839269999982207,0.053023899999971036,0.06006650000199443,0.10181989999910002,0.1086646000003384,1.0043901999997615,1448.740171100002,1452.4692266999991,,,,,,,,,,,,,,,,,,,,,,,,,,,,,9,D,2023-12-07_16h27.21.527,gca_avoidance_task,2022.2.4,143.97666425720658,
positions.xlsx,stimuli.xlsx,stimuli/Social2.png,stimuli/Social1.png,stimuli/Nonsocial2.png,stimuli/Nonsocial1.png,,"(0.7, 0.5)",cs_minus_s,,,,,0,0,0,0,,,,,,,,,3,7,55,6,,,,,,,,,,,,,,,,,,,,,,,,,,,,,,,,,,,,,,,,,,,,,,,,,,,,,,,,,,1452.9761123999997,1454.5385677000013,1452.4692266999991,1454.5385677000013,1454.5385677000013,1454.5385677000013,0.0059395000025688205,0.012942900000780355,220,reward,1,[0.590642500003014],[0.5906463000028452],1455.1357887000013,1455.1357887000013,0.0067702000014833175,0.0067702000014833175,0.01837610000075074,0.05306180000116001,0.059989599998516496,0.101632800000516,0.10860070000126143,1.0043551999988267,1458.6287178999992,1462.3021397000011,,,,,,,,,,,,,,,,,,,,,,,,,,,,,9,D,2023-12-07_16h27.21.527,gca_avoidance_task,2022.2.4,143.97666425720658,
positions.xlsx,stimuli.xlsx,stimuli/Social2.png,stimuli/Social1.png,stimuli/Nonsocial2.png,stimuli/Nonsocial1.png,,"(-0.7, 0.5)",cs_plus_s,,,,,0,0,0,0,,,,,,,,,3,8,56,0,,,,,,,,,,,,,,,,,,,,,,,,,,,,,,,,,,,,,,,,,,,,,,,,,,,,,,,,,,1462.809072600001,1464.2395593,1462.3021397000011,1464.2395593,1464.2395593,1464.2395593,0.006072799998946721,0.012909299999591894,220,none,0,,,1469.246324300002,1469.246324300002,0.012991299998247996,0.012991299998247996,0.01968259999921429,0.054366899999877205,0.06131850000019767,0.10295240000050399,0.10988939999879221,1.012662499997532,1472.7392628000016,1476.523857600001,,,,,,,,,,,,,,,,,,,,,,,,,,,,,9,D,2023-12-07_16h27.21.527,gca_avoidance_task,2022.2.4,143.97666425720658,
positions.xlsx,stimuli.xlsx,stimuli/Social2.png,stimuli/Social1.png,stimuli/Nonsocial2.png,stimuli/Nonsocial1.png,,"(-0.7, 0.5)",cs_minus_ns,,,,,0,0,0,0,,,,,,,,,3,9,57,12,,,,,,,,,,,,,,,,,,,,,,,,,,,,,,,,,,,,,,,,,,,,,,,,,,,,,,,,,,1477.0307289000011,1478.3640250999997,1476.523857600001,1478.3640250999997,1478.3640250999997,1478.3640250999997,0.006467300001531839,0.013050199999270262,225,reward,1,[0.5000108999993245],[0.5000145000012708],1478.8709412999997,1478.8709412999997,0.007911199998488883,0.007911199998488883,0.018399699998553842,0.053077500000654254,0.06002209999860497,0.10166299999764306,0.10863199999948847,1.0043975999979011,1482.3638777999986,1485.9817963999994,,,,,,,,,,,,,,,,,,,,,,,,,,,,,9,D,2023-12-07_16h27.21.527,gca_avoidance_task,2022.2.4,143.97666425720658,
positions.xlsx,stimuli.xlsx,stimuli/Social2.png,stimuli/Social1.png,stimuli/Nonsocial2.png,stimuli/Nonsocial1.png,,"(0.7, -0.5)",cs_minus_ns,,,,,0,0,0,0,,,,,,,,,3,10,58,15,,,,,,,,,,,,,,,,,,,,,,,,,,,,,,,,,,,,,,,,,,,,,,,,,,,,,,,,,,1486.4886783000002,1488.0997682000016,1485.9817963999994,1488.0997682000016,1488.0997682000016,1488.0997682000016,0.00656899999739835,0.013366299997869646,230,reward,1,[0.5281071999997948],[0.5281107999981032],1488.6345011000012,1488.6345011000012,0.008179899999959162,0.008179899999959162,0.018489299996872433,0.05307379999794648,0.06010169999717618,0.10171749999790336,0.10868209999898681,1.004455099999177,1492.1273908000003,1496.425841799999,,,,,,,,,,,,,,,,,,,,,,,,,,,,,9,D,2023-12-07_16h27.21.527,gca_avoidance_task,2022.2.4,143.97666425720658,
positions.xlsx,stimuli.xlsx,stimuli/Social2.png,stimuli/Social1.png,stimuli/Nonsocial2.png,stimuli/Nonsocial1.png,,"(0.7, -0.5)",cs_minus_s,,,,,0,0,0,0,,,,,,,,,3,11,59,7,,,,,,,,,,,,,,,,,,,,,,,,,,,,,,,,,,,,,,,,,,,,,,,,,,,,,,,,,,1496.9326805000019,1497.9674182000017,1496.425841799999,1497.9674182000017,1497.9674182000017,1497.9674182000017,0.005865799997991417,0.013129899998602923,235,reward,1,[0.49335489999793936],[0.49335860000064713],1498.4673642000016,1498.4673642000016,0.007172400000854395,0.007172400000854395,0.018108500000380445,0.052835300000879215,0.05979740000111633,0.10142030000133673,0.10838259999945876,1.004164400001173,1501.9603506999993,1505.9810467999996,,,,,,,,,,,,,,,,,,,,,,,,,,,,,9,D,2023-12-07_16h27.21.527,gca_avoidance_task,2022.2.4,143.97666425720658,
positions.xlsx,stimuli.xlsx,stimuli/Social2.png,stimuli/Social1.png,stimuli/Nonsocial2.png,stimuli/Nonsocial1.png,,"(-0.7, 0.5)",cs_plus_ns,,,,,0,0,0,0,,,,,,,,,3,12,60,8,,,,,,,,,,,,,,,,,,,,,,,,,,,,,,,,,,,,,,,,,,,,,,,,,,,,,,,,,,1506.4878953000007,1507.9808914999994,1505.9810467999996,1507.9808914999994,1507.9808914999994,1507.9808914999994,0.006576899999345187,0.013112599997839425,235,none,0,,,1512.987643299999,1512.987643299999,0.01355879999755416,0.01355879999755416,0.019914299999072682,0.05457559999922523,0.0615615999995498,0.1031896999993478,0.11016279999967082,1.0128533999995852,1516.4805712000016,1520.4040676000004,,,,,,,,,,,,,,,,,,,,,,,,,,,,,9,D,2023-12-07_16h27.21.527,gca_avoidance_task,2022.2.4,143.97666425720658,
positions.xlsx,stimuli.xlsx,stimuli/Social2.png,stimuli/Social1.png,stimuli/Nonsocial2.png,stimuli/Nonsocial1.png,,"(-0.7, -0.5)",cs_minus_ns,,,,,0,0,0,0,,,,,,,,,3,13,61,13,,,,,,,,,,,,,,,,,,,,,,,,,,,,,,,,,,,,,,,,,,,,,,,,,,,,,,,,,,1520.910938500001,1522.501172799999,1520.4040676000004,1522.501172799999,1522.501172799999,1522.501172799999,0.006778699997084914,0.012976699999853736,240,reward,1,[0.4303902999999991],[0.430393799997546],1522.9386403999997,1522.9386403999997,0.007622499997523846,0.007622499997523846,0.018466999998054234,0.05321509999703267,0.06014549999963492,0.10174779999942984,0.10875339999984135,1.004526499997155,1526.4316003000022,1530.3133952999997,,,,,,,,,,,,,,,,,,,,,,,,,,,,,9,D,2023-12-07_16h27.21.527,gca_avoidance_task,2022.2.4,143.97666425720658,
positions.xlsx,stimuli.xlsx,stimuli/Social2.png,stimuli/Social1.png,stimuli/Nonsocial2.png,stimuli/Nonsocial1.png,,"(0.7, -0.5)",cs_plus_s,,,,,0,0,0,0,,,,,,,,,3,14,62,3,,,,,,,,,,,,,,,,,,,,,,,,,,,,,,,,,,,,,,,,,,,,,,,,,,,,,,,,,,1530.8202719,1532.486882600002,1530.3133952999997,1532.486882600002,1532.486882600002,1532.486882600002,0.006219999999302672,0.012968799997906899,240,none,0,,,1537.4936601000009,1537.4936601000009,0.01312809999944875,0.01312809999944875,0.019778499998210464,0.05446730000039679,0.061443299997336,0.10308339999755844,0.1100135999986378,1.0126817999989726,1540.9866048000004,1544.743387300001,,,,,,,,,,,,,,,,,,,,,,,,,,,,,9,D,2023-12-07_16h27.21.527,gca_avoidance_task,2022.2.4,143.97666425720658,
positions.xlsx,stimuli.xlsx,stimuli/Social2.png,stimuli/Social1.png,stimuli/Nonsocial2.png,stimuli/Nonsocial1.png,,"(0.7, 0.5)",cs_plus_s,,,,,0,0,0,0,,,,,,,,,3,15,63,2,,,,,,,,,,,,,,,,,,,,,,,,,,,,,,,,,,,,,,,,,,,,,,,,,,,,,,,,,,1545.2502612999997,1547.1876936000008,1544.743387300001,1547.1876936000008,1547.1876936000008,1547.1876936000008,0.00621070000124746,0.01347620000160532,240,none,0,,,1552.1944808000007,1552.1944808000007,0.014080500001000473,0.014080500001000473,0.02022669999860227,0.05487300000095274,0.06189000000085798,0.10351539999828674,0.11050130000148783,1.013177100001485,1555.6874315999994,1559.326175000002,,,,,,,,,,,,,,,,,,,,,,,,,,,,,9,D,2023-12-07_16h27.21.527,gca_avoidance_task,2022.2.4,143.97666425720658,
positions.xlsx,stimuli.xlsx,stimuli/Social2.png,stimuli/Social1.png,stimuli/Nonsocial2.png,stimuli/Nonsocial1.png,,"(0.7, -0.5)",cs_plus_ns,,,,,0,0,0,0,,,,,,,,,4,0,64,11,,,,,,,,,,,,,,,,,,,,,,,,,,,,,,,,,,,,,,,,,,,,,,,,,,,,,,,,,,1559.833073400001,1561.1801908000016,1559.326175000002,1561.1801908000016,1561.1801908000016,1561.1801908000016,0.006488399998488603,0.01320800000030431,240,none,0,,,1566.1870043000017,1566.1870043000017,0.013845800000126474,0.013845800000126474,0.020042000000103144,0.054673800001182826,0.06162369999947259,0.103257399998256,0.11022389999925508,1.0129807999983313,1569.6799124999998,1573.6728256999995,,,,,,,,,,,,,,,,,,,,,,,,,,,,,9,D,2023-12-07_16h27.21.527,gca_avoidance_task,2022.2.4,143.97666425720658,
positions.xlsx,stimuli.xlsx,stimuli/Social2.png,stimuli/Social1.png,stimuli/Nonsocial2.png,stimuli/Nonsocial1.png,,"(-0.7, 0.5)",cs_minus_ns,,,,,0,0,0,0,,,,,,,,,4,1,65,12,,,,,,,,,,,,,,,,,,,,,,,,,,,,,,,,,,,,,,,,,,,,,,,,,,,,,,,,,,1574.1796665000002,1575.3671464,1573.6728256999995,1575.3671464,1575.3671464,1575.3671464,0.006738599997333949,0.013125099998433143,245,reward,1,[0.6810522999985551],[0.6810560999983863],1576.054640000002,1576.054640000002,0.007900299999164417,0.007900299999164417,0.01837140000134241,0.0530006000008143,0.05995729999995092,0.1015953999994963,0.1086076999999932,1.0043366999998398,1579.5475803000008,1583.7418475000013,,,,,,,,,,,,,,,,,,,,,,,,,,,,,9,D,2023-12-07_16h27.21.527,gca_avoidance_task,2022.2.4,143.97666425720658,
positions.xlsx,stimuli.xlsx,stimuli/Social2.png,stimuli/Social1.png,stimuli/Nonsocial2.png,stimuli/Nonsocial1.png,,"(-0.7, -0.5)",cs_plus_s,,,,,0,0,0,0,,,,,,,,,4,2,66,1,,,,,,,,,,,,,,,,,,,,,,,,,,,,,,,,,,,,,,,,,,,,,,,,,,,,,,,,,,1584.2487278000008,1585.3459153000003,1583.7418475000013,1585.3459153000003,1585.3459153000003,1585.3459153000003,0.005917499998759013,0.013071400000626454,245,none,0,,,1590.3526746999996,1590.3526746999996,0.013040099998761434,0.013040099998761434,0.0198393999999098,0.05458879999787314,0.06150279999928898,0.10315129999798955,0.11009529999864753,1.0128565999984858,1593.845616300001,1598.1510024999989,,,,,,,,,,,,,,,,,,,,,,,,,,,,,9,D,2023-12-07_16h27.21.527,gca_avoidance_task,2022.2.4,143.97666425720658,
positions.xlsx,stimuli.xlsx,stimuli/Social2.png,stimuli/Social1.png,stimuli/Nonsocial2.png,stimuli/Nonsocial1.png,,"(-0.7, -0.5)",cs_minus_s,,,,,0,0,0,0,,,,,,,,,4,3,67,5,,,,,,,,,,,,,,,,,,,,,,,,,,,,,,,,,,,,,,,,,,,,,,,,,,,,,,,,,,1598.6579151000005,1600.0397827000015,1598.1510024999989,1600.0397827000015,1600.0397827000015,1600.0397827000015,0.0064501000015297905,0.013068399999610847,250,reward,1,[0.4861708999997063],[0.4931002000012086],1600.539775000001,1600.539775000001,0.006775900001230184,0.006775900001230184,0.018154900000808993,0.052841199998511,0.05978120000145282,0.10142439999981434,0.10841380000056233,1.0041872000001604,1604.0327584000006,1608.2339404000013,,,,,,,,,,,,,,,,,,,,,,,,,,,,,9,D,2023-12-07_16h27.21.527,gca_avoidance_task,2022.2.4,143.97666425720658,
positions.xlsx,stimuli.xlsx,stimuli/Social2.png,stimuli/Social1.png,stimuli/Nonsocial2.png,stimuli/Nonsocial1.png,,"(0.7, 0.5)",cs_minus_ns,,,,,0,0,0,0,,,,,,,,,4,4,68,14,,,,,,,,,,,,,,,,,,,,,,,,,,,,,,,,,,,,,,,,,,,,,,,,,,,,,,,,,,1608.7408312000007,1610.4005216000005,1608.2339404000013,1610.4005216000005,1610.4005216000005,1610.4005216000005,0.006589099997654557,0.013112000000546686,255,reward,1,[0.5140447999983735],[0.5140486999989662],1610.9213070000005,1610.9213070000005,0.007492599997931393,0.007492599997931393,0.018235100000310922,0.05288500000096974,0.05986019999909331,0.1015557999999146,0.10851790000015171,1.0042878999993263,1614.4142318000013,1618.8238309000008,,,,,,,,,,,,,,,,,,,,,,,,,,,,,9,D,2023-12-07_16h27.21.527,gca_avoidance_task,2022.2.4,143.97666425720658,
positions.xlsx,stimuli.xlsx,stimuli/Social2.png,stimuli/Social1.png,stimuli/Nonsocial2.png,stimuli/Nonsocial1.png,,"(0.7, -0.5)",cs_plus_s,,,,,0,0,0,0,,,,,,,,,4,5,69,3,,,,,,,,,,,,,,,,,,,,,,,,,,,,,,,,,,,,,,,,,,,,,,,,,,,,,,,,,,1619.3307067999995,1620.6014744999993,1618.8238309000008,1620.6014744999993,1620.6014744999993,1620.6014744999993,0.0057756999995035585,0.013264199998957338,255,none,0,,,1625.608222499999,1625.608222499999,0.013191999998525716,0.013191999998525716,0.01999239999713609,0.05467549999957555,0.06162179999955697,0.10332059999927878,0.11026549999951385,1.012977399997908,1629.101198700002,1633.5801796999986,,,,,,,,,,,,,,,,,,,,,,,,,,,,,9,D,2023-12-07_16h27.21.527,gca_avoidance_task,2022.2.4,143.97666425720658,
positions.xlsx,stimuli.xlsx,stimuli/Social2.png,stimuli/Social1.png,stimuli/Nonsocial2.png,stimuli/Nonsocial1.png,,"(-0.7, 0.5)",cs_plus_s,,,,,0,0,0,0,,,,,,,,,4,6,70,0,,,,,,,,,,,,,,,,,,,,,,,,,,,,,,,,,,,,,,,,,,,,,,,,,,,,,,,,,,1634.0870531,1635.4828531999992,1633.5801796999986,1635.4828531999992,1635.4828531999992,1635.4828531999992,0.005768600000010338,0.013021499999013031,255,none,0,,,1640.4895762999986,1640.4895762999986,0.013060199999017641,0.013060199999017641,0.019778899997618282,0.054572799999732524,0.06143320000046515,0.10315099999934318,0.11005899999872781,1.012793399997463,1643.9825745999988,1648.3573585000013,,,,,,,,,,,,,,,,,,,,,,,,,,,,,9,D,2023-12-07_16h27.21.527,gca_avoidance_task,2022.2.4,143.97666425720658,
positions.xlsx,stimuli.xlsx,stimuli/Social2.png,stimuli/Social1.png,stimuli/Nonsocial2.png,stimuli/Nonsocial1.png,,"(-0.7, 0.5)",cs_plus_ns,,,,,0,0,0,0,,,,,,,,,4,7,71,8,,,,,,,,,,,,,,,,,,,,,,,,,,,,,,,,,,,,,,,,,,,,,,,,,,,,,,,,,,1648.8642335000004,1650.8225316999997,1648.3573585000013,1650.8225316999997,1650.8225316999997,1650.8225316999997,0.006412299997464288,0.013366399998631096,255,none,0,,,1655.8292793,1655.8292793,0.014128499999060296,0.014128499999060296,0.02016179999918677,0.054853499997989275,0.061753300000418676,0.10339939999903436,0.11035809999884805,1.013085599999613,1659.3221999999987,1663.4679182,,,,,,,,,,,,,,,,,,,,,,,,,,,,,9,D,2023-12-07_16h27.21.527,gca_avoidance_task,2022.2.4,143.97666425720658,
positions.xlsx,stimuli.xlsx,stimuli/Social2.png,stimuli/Social1.png,stimuli/Nonsocial2.png,stimuli/Nonsocial1.png,,"(-0.7, -0.5)",cs_plus_ns,,,,,0,0,0,0,,,,,,,,,4,8,72,9,,,,,,,,,,,,,,,,,,,,,,,,,,,,,,,,,,,,,,,,,,,,,,,,,,,,,,,,,,1663.9747754000018,1665.9260504000013,1663.4679182,1665.9260504000013,1665.9260504000013,1665.9260504000013,0.0061814000000595115,0.013397200000326848,255,none,0,,,1670.9328090999988,1670.9328090999988,0.01432569999815314,0.01432569999815314,0.020201499999529915,0.054896599998755846,0.06185099999856902,0.10358269999778713,0.1104693999986921,1.0132123000003048,1674.4258071000004,1678.4465106999996,,,,,,,,,,,,,,,,,,,,,,,,,,,,,9,D,2023-12-07_16h27.21.527,gca_avoidance_task,2022.2.4,143.97666425720658,
positions.xlsx,stimuli.xlsx,stimuli/Social2.png,stimuli/Social1.png,stimuli/Nonsocial2.png,stimuli/Nonsocial1.png,,"(0.7, -0.5)",cs_minus_ns,,,,,0,0,0,0,,,,,,,,,4,9,73,15,,,,,,,,,,,,,,,,,,,,,,,,,,,,,,,,,,,,,,,,,,,,,,,,,,,,,,,,,,1678.9533795999996,1680.6269107000007,1678.4465106999996,1680.6269107000007,1680.6269107000007,1680.6269107000007,0.006398199999239296,0.013296999997692183,260,reward,1,[0.4795080000003509],[0.47951169999942067],1681.1129932000003,1681.1129932000003,0.007828300000255695,0.007828300000255695,0.01832300000023679,0.05302329999904032,0.05997469999783789,0.10168209999756073,0.10858569999982137,1.0043710999998439,1684.6059386000015,1688.7933152000005,,,,,,,,,,,,,,,,,,,,,,,,,,,,,9,D,2023-12-07_16h27.21.527,gca_avoidance_task,2022.2.4,143.97666425720658,
positions.xlsx,stimuli.xlsx,stimuli/Social2.png,stimuli/Social1.png,stimuli/Nonsocial2.png,stimuli/Nonsocial1.png,,"(-0.7, 0.5)",cs_minus_s,,,,,0,0,0,0,,,,,,,,,4,10,74,4,,,,,,,,,,,,,,,,,,,,,,,,,,,,,,,,,,,,,,,,,,,,,,,,,,,,,,,,,,1689.3001963999995,1690.591789099999,1688.7933152000005,1690.591789099999,1690.591789099999,1690.591789099999,0.006002400001307251,0.013177900000300724,265,reward,1,[0.4724446000000171],[0.4794575000014447],1691.0778909,1691.0778909,0.007054999998217681,0.007054999998217681,0.01841999999669497,0.053123799996683374,0.060069999999541324,0.10170159999688622,0.10871399999814457,1.0044155999967188,1694.5708517999992,1698.1887653000013,,,,,,,,,,,,,,,,,,,,,,,,,,,,,9,D,2023-12-07_16h27.21.527,gca_avoidance_task,2022.2.4,143.97666425720658,
positions.xlsx,stimuli.xlsx,stimuli/Social2.png,stimuli/Social1.png,stimuli/Nonsocial2.png,stimuli/Nonsocial1.png,,"(0.7, 0.5)",cs_plus_s,,,,,0,0,0,0,,,,,,,,,4,11,75,2,,,,,,,,,,,,,,,,,,,,,,,,,,,,,,,,,,,,,,,,,,,,,,,,,,,,,,,,,,1698.6956510000018,1699.924754399999,1698.1887653000013,1699.924754399999,1699.924754399999,1699.924754399999,0.006726800002070377,0.013164400003006449,265,none,0,,,1704.931521800001,1704.931521800001,0.013446500001009554,0.013446500001009554,0.01998440000170376,0.054616200002783444,0.06157069999972009,0.10322640000231331,0.11019959999975981,1.0129454000016267,1708.4244624999992,1712.729868800001,,,,,,,,,,,,,,,,,,,,,,,,,,,,,9,D,2023-12-07_16h27.21.527,gca_avoidance_task,2022.2.4,143.97666425720658,
positions.xlsx,stimuli.xlsx,stimuli/Social2.png,stimuli/Social1.png,stimuli/Nonsocial2.png,stimuli/Nonsocial1.png,,"(0.7, 0.5)",cs_minus_s,,,,,0,0,0,0,,,,,,,,,4,12,76,6,,,,,,,,,,,,,,,,,,,,,,,,,,,,,,,,,,,,,,,,,,,,,,,,,,,,,,,,,,1713.2367212999998,1714.2852974000016,1712.729868800001,1714.2852974000016,1714.2852974000016,1714.2852974000016,0.005784599998150952,0.013140899998688838,270,reward,1,[0.5697198000016215],[0.5697236000014527],1714.8617095000009,1714.8617095000009,0.006768700000975514,0.006768700000975514,0.0185092000028817,0.05309580000175629,0.06005070000173873,0.10173130000111996,0.10866750000059255,1.0044825000004494,1718.3546609000005,1722.069789699999,,,,,,,,,,,,,,,,,,,,,,,,,,,,,9,D,2023-12-07_16h27.21.527,gca_avoidance_task,2022.2.4,143.97666425720658,
positions.xlsx,stimuli.xlsx,stimuli/Social2.png,stimuli/Social1.png,stimuli/Nonsocial2.png,stimuli/Nonsocial1.png,,"(0.7, -0.5)",cs_minus_s,,,,,0,0,0,0,,,,,,,,,4,13,77,7,,,,,,,,,,,,,,,,,,,,,,,,,,,,,,,,,,,,,,,,,,,,,,,,,,,,,,,,,,1722.5766350000013,1723.7224887000011,1722.069789699999,1723.7224887000011,1723.7224887000011,1723.7224887000011,0.005699000001186505,0.013531100001273444,275,reward,1,[0.4588567000027979],[0.4588605000026291],1724.1877181000018,1724.1877181000018,0.006782500000554137,0.006782500000554137,0.018299399998795707,0.05297449999852688,0.05987169999934849,0.10157420000177808,0.10849890000099549,1.0043121999988216,1727.6806776000012,1731.7291226999987,,,,,,,,,,,,,,,,,,,,,,,,,,,,,9,D,2023-12-07_16h27.21.527,gca_avoidance_task,2022.2.4,143.97666425720658,
positions.xlsx,stimuli.xlsx,stimuli/Social2.png,stimuli/Social1.png,stimuli/Nonsocial2.png,stimuli/Nonsocial1.png,,"(0.7, 0.5)",cs_plus_ns,,,,,0,0,0,0,,,,,,,,,4,14,78,10,,,,,,,,,,,,,,,,,,,,,,,,,,,,,,,,,,,,,,,,,,,,,,,,,,,,,,,,,,1732.2360050999996,1733.9789949000005,1731.7291226999987,1733.9789949000005,1733.9789949000005,1733.9789949000005,0.006362500000250293,0.013040100002399413,275,none,0,,,1738.9857284999998,1738.9857284999998,0.014287300000432879,0.014287300000432879,0.019753100001253188,0.05443790000208537,0.06137740000121994,0.10307180000017979,0.11002420000295388,1.0127792000021145,1742.4786710000008,1746.6174567000016,,,,,,,,,,,,,,,,,,,,,,,,,,,,,9,D,2023-12-07_16h27.21.527,gca_avoidance_task,2022.2.4,143.97666425720658,
positions.xlsx,stimuli.xlsx,stimuli/Social2.png,stimuli/Social1.png,stimuli/Nonsocial2.png,stimuli/Nonsocial1.png,,"(-0.7, -0.5)",cs_minus_ns,,,,,0,0,0,0,,,,,,,,,4,15,79,13,,,,,,,,,,,,,,,,,,,,,,,,,,,,,,,,,,,,,,,,,,,,,,,,,,,,,,,,,,1747.124313700002,1748.304802900002,1746.6174567000016,1748.304802900002,1748.304802900002,1748.304802900002,0.0065313999984937254,0.013084800000797259,280,reward,1,[0.5487519000016619],[0.5487557999986166],1748.8603675000013,1748.8603675000013,0.0074564999995345715,0.0074564999995345715,0.018568700001196703,0.053253500002028886,0.06018160000166972,0.10183750000214786,0.10877809999874444,1.0045210999996925,1752.3533079000008,1755.9503397000008,,,,,,,,,,,,,,,,,,,,,,,,,,,,,9,D,2023-12-07_16h27.21.527,gca_avoidance_task,2022.2.4,143.97666425720658,
positions.xlsx,stimuli.xlsx,stimuli/Social2.png,stimuli/Social1.png,stimuli/Nonsocial2.png,stimuli/Nonsocial1.png,cs_minus_s,,,,,,,0,0,0,0,,,,,,,,,,,,,0,0,0,2,,,,,,,,,,,,,,,,,,,,,,,,,,,,,,,,,,,,,,,,,,,1775.4773760999997,1775.4773760999997,1781.164610300002,6.0,5.676941599998827,space,1.7080777999981365,,,,,,,,,,,,,,,,,,,,,,,,,,,,,,,,,,,,1755.9503397000008,1755.9503397000008,1755.9503397000008,1755.9503397000008,1755.9503397000008,1755.9503397000008,1768.4429152000012,6.0,12.486556899999414,space,6.997435699995549,,,,,,,,,,,,9,D,2023-12-07_16h27.21.527,gca_avoidance_task,2022.2.4,143.97666425720658,
positions.xlsx,stimuli.xlsx,stimuli/Social2.png,stimuli/Social1.png,stimuli/Nonsocial2.png,stimuli/Nonsocial1.png,cs_minus_ns,,,,,,,0,0,0,0,,,,,,,,,,,,,0,1,1,3,,,,,,,,,,,,,,,,,,,,,,,,,,,,,,,,,,,,,,,,,,,1782.9007141000002,1782.9007141000002,1784.9978448000002,6.0,2.0902060999978858,space,1.2191799999964132,,,,,,,,,,,,,,,,,,,,,,,,,,,,,,,,,,,,,,,,,,,,,,,,,,,,,,,,,,9,D,2023-12-07_16h27.21.527,gca_avoidance_task,2022.2.4,143.97666425720658,
positions.xlsx,stimuli.xlsx,stimuli/Social2.png,stimuli/Social1.png,stimuli/Nonsocial2.png,stimuli/Nonsocial1.png,cs_plus_s,,,,,,,0,0,0,0,,,,,,,,,,,,,0,2,2,0,,,,,,,,,,,,,,,,,,,,,,,,,,,,,,,,,,,,,,,,,,,1786.2408415999998,1786.2408415999998,1789.2060106999998,5.0,2.952328600000328,space,3.9470451999986835,,,,,,,,,,,,,,,,,,,,,,,,,,,,,,,,,,,,,,,,,,,,,,,,,,,,,,,,,,9,D,2023-12-07_16h27.21.527,gca_avoidance_task,2022.2.4,143.97666425720658,
positions.xlsx,stimuli.xlsx,stimuli/Social2.png,stimuli/Social1.png,stimuli/Nonsocial2.png,stimuli/Nonsocial1.png,cs_plus_ns,,,,,,,0,0,0,0,,,,,,,,,,,,,0,3,3,1,,,,,,,,,,,,,,,,,,,,,,,,,,,,,,,,,,,,,,,,,,,1793.1780736,1793.1780736,1795.1085657000003,5.0,1.9174972000000707,space,1.3965844999947876,,,,,,,,,,,,,,,,,,,,,,,,,,,,,,,,,,,,,,,,,,,,,,,,,,,,,,,,,,9,D,2023-12-07_16h27.21.527,gca_avoidance_task,2022.2.4,143.97666425720658,
