posFile,stimFile,cs_plus_s,cs_minus_s,cs_plus_ns,cs_minus_ns,stimtype,position,trialtype,trials_threshold.thisRepN,trials_threshold.thisTrialN,trials_threshold.thisN,trials_threshold.thisIndex,blocks.thisRepN,blocks.thisTrialN,blocks.thisN,blocks.thisIndex,ratingtrials1.thisRepN,ratingtrials1.thisTrialN,ratingtrials1.thisN,ratingtrials1.thisIndex,learning_trials.thisRepN,learning_trials.thisTrialN,learning_trials.thisN,learning_trials.thisIndex,trials.thisRepN,trials.thisTrialN,trials.thisN,trials.thisIndex,ratingtrials2.thisRepN,ratingtrials2.thisTrialN,ratingtrials2.thisN,ratingtrials2.thisIndex,testtrials.thisRepN,testtrials.thisTrialN,testtrials.thisN,testtrials.thisIndex,ratingtrials3.thisRepN,ratingtrials3.thisTrialN,ratingtrials3.thisN,ratingtrials3.thisIndex,textStart.started,spaceStart.started,spaceStart.keys,spaceStart.rt,textPainThreshold.started,spacePainThreshold.started,spacePainThreshold.keys,spacePainThreshold.rt,textRateT.started,text_noPainT.started,text_slightPainT.started,text_highPainT.started,sliderPainT.started,keys_PainT.started,sliderPainT.response,sliderPainT.rt,keys_PainT.keys,keys_PainT.rt,fixcrossT.started,portShock1T.started,portShock1T.stopped,portShock2T.started,portShock2T.stopped,portShock3T.started,portShock3T.stopped,fixcrossT.stopped,text_ETCalibration.started,spaceETCalibration.started,spaceETCalibration.keys,spaceETCalibration.rt,textStartExp.started,spaceStartExp.started,spaceStartExp.keys,spaceStartExp.rt,imageRating.started,sliderStim.started,spaceStim.started,sliderStim.response,sliderStim.rt,spaceStim.keys,spaceStim.rt,textStartTask.started,spaceStartTask.started,spaceStartTask.keys,spaceStartTask.rt,blankScreen.started,blankScreen.stopped,fixcross.started,image.started,roi.started,gazeCursor.started,portImage.started,portImage.stopped,score,outcome,roi.numLooks,roi.timesOn,roi.timesOff,imageFeedback.started,gazeCursor_Feedback.started,soundFeedback.started,portShock1.started,portShock1.stopped,portShock2.started,portShock2.stopped,portShock3.started,portShock3.stopped,soundFeedback.stopped,fixcrossE.started,fixcrossE.stopped,textRepeatTask.started,textboxRepeatInstruction.started,textRepeatSpace.started,spaceRepeatTask.started,spaceRepeatTask.keys,spaceRepeatTask.rt,textRate.started,text_noPain.started,text_slightPain.started,text_highPain.started,sliderPain.started,textSpacePain.started,spacePain.started,sliderPain.response,sliderPain.rt,spacePain.keys,spacePain.rt,textTestInstr.started,spaceTestInstr.started,spaceTestInstr.keys,spaceTestInstr.rt,imageTest.started,roiTest.started,portTestImage.started,portTestImage.stopped,roiTest.numLooks,roiTest.timesOn,roiTest.timesOff,participant,group,date,expName,psychopyVersion,frameRate,
,,,,,,,,,,,,,,,,,,,,,,,,,,,,,,,,,,,,,,,,,12.590956300031394,12.590956300031394,space,6.364701300044544,,,,,,,,,,,,,,,,,,,,,,,,,,,,,,,,,,,,,,,,,,,,,,,,,,,,,,,,,,,,,,,,,,,,,,,,,,,,,,,,,,,,,,,,,,,,,,,3,D,2023-12-05_11h11.55.285,gca_avoidance_task,2022.2.4,143.90911849160275,
,,,,,,,,,,,,,,,,,,,,,,,,,,,,,,,,,,,,,,,,,,,,,18.965644899988547,18.965644899988547,space,2.4450586999300867,,,,,,,,,,,,,,,,,,,,,,,,,,,,,,,,,,,,,,,,,,,,,,,,,,,,,,,,,,,,,,,,,,,,,,,,,,,,,,,,,,,,,,,,,,,3,D,2023-12-05_11h11.55.285,gca_avoidance_task,2022.2.4,143.90911849160275,
,,,,,,,,,0,0,0,0,,,,,,,,,,,,,,,,,,,,,,,,,,,,,,,,,,,,,22.659968100022525,22.659968100022525,22.659968100022525,22.659968100022525,22.659968100022525,22.659968100022525,None,None,s,61.38351199997123,84.64348560001235,0.10215110005810857,0.10911279998254031,0.1507780000101775,0.1577199000166729,0.19940450007561594,0.20632360002491623,85.40038500004448,,,,,,,,,,,,,,,,,,,,,,,,,,,,,,,,,,,,,,,,,,,,,,,,,,,,,,,,,,,,,,,,,,,,,,,,,3,D,2023-12-05_11h11.55.285,gca_avoidance_task,2022.2.4,143.90911849160275,
,,,,,,,,,1,0,1,0,,,,,,,,,,,,,,,,,,,,,,,,,,,,,,,,,,,,,85.40038500004448,85.40038500004448,85.40038500004448,85.40038500004448,85.40038500004448,85.40038500004448,0.0,4.863573599955998,s,9.746876499964856,95.67080020008143,0.10335659992415458,0.11036219995003194,0.15204710001125932,0.15894819993991405,0.20060240000020713,0.20754590001888573,96.43466510006692,,,,,,,,,,,,,,,,,,,,,,,,,,,,,,,,,,,,,,,,,,,,,,,,,,,,,,,,,,,,,,,,,,,,,,,,,3,D,2023-12-05_11h11.55.285,gca_avoidance_task,2022.2.4,143.90911849160275,
,,,,,,,,,2,0,2,0,,,,,,,,,,,,,,,,,,,,,,,,,,,,,,,,,,,,,96.43466510006692,96.43466510006692,96.43466510006692,96.43466510006692,96.43466510006692,96.43466510006692,1.0,2.417539900052361,s,7.463743899948895,104.42041750007775,0.10560889996122569,0.11248290003277361,0.15420460002496839,0.1611278000054881,0.20278239995241165,0.20974920003209263,,,,,,,,,,,,,,,,,,,,,,,,,,,,,,,,,,,,,,,,,,,,,,,,,,,,,,,,,,,,,,,,,,,,,,,,,,3,D,2023-12-05_11h11.55.285,gca_avoidance_task,2022.2.4,143.90911849160275,
,,,,,,,,,3,0,3,0,,,,,,,,,,,,,,,,,,,,,,,,,,,,,,,,,,,,,105.184270100086,105.184270100086,105.184270100086,105.184270100086,105.184270100086,105.184270100086,1.0,3.22096559999045,s,7.6588653000071645,113.3505791000789,0.1030701999552548,0.11002310004550964,0.15167759999167174,0.15868049999698997,0.2003687999676913,0.20728610001970083,114.1074995000381,,,,,,,,,,,,,,,,,,,,,,,,,,,,,,,,,,,,,,,,,,,,,,,,,,,,,,,,,,,,,,,,,,,,,,,,,3,D,2023-12-05_11h11.55.285,gca_avoidance_task,2022.2.4,143.90911849160275,
,,,,,,,,,4,0,4,0,,,,,,,,,,,,,,,,,,,,,,,,,,,,,,,,,,,,,114.1074995000381,114.1074995000381,114.1074995000381,114.1074995000381,114.1074995000381,114.1074995000381,2.0,2.356050100061111,s,6.895727699971758,121.52384000003804,0.10571709997020662,0.11262379994150251,0.1542153999907896,0.16124239994678646,0.20285050000529736,0.20980449998751283,,,,,,,,,,,,,,,,,,,,,,,,,,,,,,,,,,,,,,,,,,,,,,,,,,,,,,,,,,,,,,,,,,,,,,,,,,3,D,2023-12-05_11h11.55.285,gca_avoidance_task,2022.2.4,143.90911849160275,
,,,,,,,,,5,0,5,0,,,,,,,,,,,,,,,,,,,,,,,,,,,,,,,,,,,,,122.28773490001913,122.28773490001913,122.28773490001913,122.28773490001913,122.28773490001913,122.28773490001913,2.0,3.7770410999655724,s,8.899628999992274,131.70399599999655,0.10202489991206676,0.10897439997643232,0.15062530001159757,0.15757969999685884,0.19924420001916587,0.2061944999732077,132.4678494000109,,,,,,,,,,,,,,,,,,,,,,,,,,,,,,,,,,,,,,,,,,,,,,,,,,,,,,,,,,,,,,,,,,,,,,,,,3,D,2023-12-05_11h11.55.285,gca_avoidance_task,2022.2.4,143.90911849160275,
,,,,,,,,,6,0,6,0,,,,,,,,,,,,,,,,,,,,,,,,,,,,,,,,,,,,,132.4678494000109,132.4678494000109,132.4678494000109,132.4678494000109,132.4678494000109,132.4678494000109,3.0,2.6365333000430837,s,7.815815699985251,140.8563844000455,0.10475259996019304,0.11169259995222092,0.15339230000972748,0.16030520002823323,0.2019589999690652,0.2089435999514535,,,,,,,,,,,,,,,,,,,,,,,,,,,,,,,,,,,,,,,,,,,,,,,,,,,,,,,,,,,,,,,,,,,,,,,,,,3,D,2023-12-05_11h11.55.285,gca_avoidance_task,2022.2.4,143.90911849160275,
,,,,,,,,,7,0,7,0,,,,,,,,,,,,,,,,,,,,,,,,,,,,,,,,,,,,,141.7105142000364,141.7105142000364,141.7105142000364,141.7105142000364,141.7105142000364,141.7105142000364,3.0,2.797037999960594,s,6.675947500043549,148.89773339999374,0.09993759996723384,0.10689459997229278,0.15550830005668104,0.16244540002662688,0.20413980004377663,0.21109630004502833,149.65462690009736,,,,,,,,,,,,,,,,,,,,,,,,,,,,,,,,,,,,,,,,,,,,,,,,,,,,,,,,,,,,,,,,,,,,,,,,,3,D,2023-12-05_11h11.55.285,gca_avoidance_task,2022.2.4,143.90911849160275,
,,,,,,,,,8,0,8,0,,,,,,,,,,,,,,,,,,,,,,,,,,,,,,,,,,,,,149.65462690009736,149.65462690009736,149.65462690009736,149.65462690009736,149.65462690009736,149.65462690009736,4.0,3.010687300004065,s,8.819834199966863,158.9945105999941,0.09926359995733947,0.10623369994573295,0.15479549998417497,0.16177379991859198,0.2033987999893725,0.21035849989857525,159.75142600003164,,,,,,,,,,,,,,,,,,,,,,,,,,,,,,,,,,,,,,,,,,,,,,,,,,,,,,,,,,,,,,,,,,,,,,,,,3,D,2023-12-05_11h11.55.285,gca_avoidance_task,2022.2.4,143.90911849160275,
,,,,,,,,,9,0,9,0,,,,,,,,,,,,,,,,,,,,,,,,,,,,,,,,,,,,,159.75142600003164,159.75142600003164,159.75142600003164,159.75142600003164,159.75142600003164,159.75142600003164,4.0,4.329125300049782,s,8.802835899987258,169.07046630000696,0.09987879998516291,0.10681810008827597,0.15541240002494305,0.1623696000315249,0.20403350004926324,0.2109629000769928,169.82740090007428,,,,,,,,,,,,,,,,,,,,,,,,,,,,,,,,,,,,,,,,,,,,,,,,,,,,,,,,,,,,,,,,,,,,,,,,,3,D,2023-12-05_11h11.55.285,gca_avoidance_task,2022.2.4,143.90911849160275,
,,,,,,,,,10,0,10,0,,,,,,,,,,,,,,,,,,,,,,,,,,,,,,,,,,,,,169.82740090007428,169.82740090007428,169.82740090007428,169.82740090007428,169.82740090007428,169.82740090007428,5.0,3.4976594999898225,s,6.911215799977072,177.32708770001773,0.10170190001372248,0.10863210004754364,0.15029830008279532,0.1572082000784576,0.20580080000218004,0.2127684000879526,178.08399439998902,,,,,,,,,,,,,,,,,,,,,,,,,,,,,,,,,,,,,,,,,,,,,,,,,,,,,,,,,,,,,,,,,,,,,,,,,3,D,2023-12-05_11h11.55.285,gca_avoidance_task,2022.2.4,143.90911849160275,
,,,,,,,,,11,0,11,0,,,,,,,,,,,,,,,,,,,,,,,,,,,,,,,,,,,,,178.08399439998902,178.08399439998902,178.08399439998902,178.08399439998902,178.08399439998902,178.08399439998902,5.0,2.9614474000409245,s,6.87892540008761,185.5003620000789,0.10323599993716925,0.11009769991505891,0.15181519999168813,0.15875890001188964,0.20038940000813454,0.20733269990887493,186.25724070006981,,,,,,,,,,,,,,,,,,,,,,,,,,,,,,,,,,,,,,,,,,,,,,,,,,,,,,,,,,,,,,,,,,,,,,,,,3,D,2023-12-05_11h11.55.285,gca_avoidance_task,2022.2.4,143.90911849160275,
,,,,,,,,,12,0,12,0,,,,,,,,,,,,,,,,,,,,,,,,,,,,,,,,,,,,,186.25724070006981,186.25724070006981,186.25724070006981,186.25724070006981,186.25724070006981,186.25724070006981,6.0,2.0180923000443727,s,6.201092900009826,192.97227240004577,0.10532099998090416,0.1122981000225991,0.15391670004464686,0.16092850000131875,0.20259989995975047,0.209492800058797,,,,,,,,,,,,,,,,,,,,,,,,,,,,,,,,,,,,,,,,,,,,,,,,,,,,,,,,,,,,,,,,,,,,,,,,,,3,D,2023-12-05_11h11.55.285,gca_avoidance_task,2022.2.4,143.90911849160275,
,,,,,,,,,13,0,13,0,,,,,,,,,,,,,,,,,,,,,,,,,,,,,,,,,,,,,193.7361082000425,193.7361082000425,193.7361082000425,193.7361082000425,193.7361082000425,193.7361082000425,6.0,2.742636700044386,s,7.010362399974838,201.25662500003818,0.09990000003017485,0.10685060010291636,0.15544660005252808,0.16238640004303306,0.20402800000738353,0.21100240002851933,202.02048860001378,,,,,,,,,,,,,,,,,,,,,,,,,,,,,,,,,,,,,,,,,,,,,,,,,,,,,,,,,,,,,,,,,,,,,,,,,3,D,2023-12-05_11h11.55.285,gca_avoidance_task,2022.2.4,143.90911849160275,
,,,,,,,,,14,0,14,0,,,,,,,,,,,,,,,,,,,,,,,,,,,,,,,,,,,,,202.02048860001378,202.02048860001378,202.02048860001378,202.02048860001378,202.02048860001378,202.02048860001378,6.0,2.2137901999522,s,7.2303949999623,209.76321510004345,0.10247150005307049,0.10945270000956953,0.15111420000903308,0.1580359999788925,0.1996993999928236,0.2066255999961868,210.52011979999952,,,,,,,,,,,,,,,,,,,,,,,,,,,,,,,,,,,,,,,,,,,,,,,,,,,,,,,,,,,,,,,,,,,,,,,,,3,D,2023-12-05_11h11.55.285,gca_avoidance_task,2022.2.4,143.90911849160275,
,,,,,,,,,15,0,15,0,,,,,,,,,,,,,,,,,,,,,,,,,,,,,,,,,,,,,210.52011979999952,210.52011979999952,210.52011979999952,210.52011979999952,210.52011979999952,210.52011979999952,7.0,3.7949308999814093,s,8.786893400014378,219.82531540002674,0.10382600000593811,0.11069849994964898,0.15237209992483258,0.1593226999975741,0.20096039993222803,0.20791160000953823,220.7002454000758,,,,,,,,,,,,,,,,,,,,,,,,,,,,,,,,,,,,,,,,,,,,,,,,,,,,,,,,,,,,,,,,,,,,,,,,,3,D,2023-12-05_11h11.55.285,gca_avoidance_task,2022.2.4,143.90911849160275,
,,,,,,,,,16,0,16,0,,,,,,,,,,,,,,,,,,,,,,,,,,,,,,,,,,,,,220.7002454000758,220.7002454000758,220.7002454000758,220.7002454000758,220.7002454000758,220.7002454000758,7.0,1.5285865999758244,s,5.34208889992442,226.55418360000476,0.10176410002168268,0.10864700004458427,0.15035880007781088,0.1573066000128165,0.2059350999770686,0.21284080005716532,227.34580520004965,,,,,,,,,,,,,,,,,,,,,,,,,,,,,,,,,,,,,,,,,,,,,,,,,,,,,,,,,,,,,,,,,,,,,,,,,3,D,2023-12-05_11h11.55.285,gca_avoidance_task,2022.2.4,143.90911849160275,
,,,,,,,,,17,0,17,0,,,,,,,,,,,,,,,,,,,,,,,,,,,,,,,,,,,,,227.34580520004965,227.34580520004965,227.34580520004965,227.34580520004965,227.34580520004965,227.34580520004965,6.0,2.224500799900852,s,6.816698299953714,234.80384030006826,0.1011350000044331,0.10811299993656576,0.1497565999161452,0.15673409996088594,0.20531889994163066,0.21225069998763502,235.56770290003624,,,,,,,,,,,,,,,,,,,,,,,,,,,,,,,,,,,,,,,,,,,,,,,,,,,,,,,,,,,,,,,,,,,,,,,,,3,D,2023-12-05_11h11.55.285,gca_avoidance_task,2022.2.4,143.90911849160275,
,,,,,,,,,18,0,18,0,,,,,,,,,,,,,,,,,,,,,,,,,,,,,,,,,,,,,235.56770290003624,235.56770290003624,235.56770290003624,235.56770290003624,235.56770290003624,235.56770290003624,5.0,5.455958100035787,s,9.346778900013305,245.4284291000804,0.10447339992970228,0.1114768999395892,0.15315409994218498,0.1601162999868393,0.20177619997411966,0.20866250002291054,,,,,,,,,,,,,,,,,,,,,,,,,,,,,,,,,,,,,,,,,,,,,,,,,,,,,,,,,,,,,,,,,,,,,,,,,,3,D,2023-12-05_11h11.55.285,gca_avoidance_task,2022.2.4,143.90911849160275,
,,,,,,,,,19,0,19,0,,,,,,,,,,,,,,,,,,,,,,,,,,,,,,,,,,,,,246.19223120005336,246.19223120005336,246.19223120005336,246.19223120005336,246.19223120005336,246.19223120005336,5.0,5.022656199987978,s,8.522718799998984,255.2404556000838,0.10123470006510615,0.10815220000222325,0.14981930004432797,0.1568098000716418,0.2054094000486657,0.21232570009306073,256.01128660002723,,,,,,,,,,,,,,,,,,,,,,,,,,,,,,,,,,,,,,,,,,,,,,,,,,,,,,,,,,,,,,,,,,,,,,,,,3,D,2023-12-05_11h11.55.285,gca_avoidance_task,2022.2.4,143.90911849160275,
,,,,,,,,,20,0,20,0,,,,,,,,,,,,,,,,,,,,,,,,,,,,,,,,,,,,,256.01128660002723,256.01128660002723,256.01128660002723,256.01128660002723,256.01128660002723,256.01128660002723,4.0,2.0784795000217855,s,6.623230900033377,263.14292760007083,0.09925050009042025,0.10620790009852499,0.1548368000658229,0.16179870010819286,0.20341110008303076,0.2103667000774294,263.906802100013,,,,,,,,,,,,,,,,,,,,,,,,,,,,,,,,,,,,,,,,,,,,,,,,,,,,,,,,,,,,,,,,,,,,,,,,,3,D,2023-12-05_11h11.55.285,gca_avoidance_task,2022.2.4,143.90911849160275,
,,,,,,,,,21,0,21,0,,,,,,,,,,,,,,,,,,,,,,,,,,,,,,,,,,,,,263.906802100013,263.906802100013,263.906802100013,263.906802100013,263.906802100013,263.906802100013,4.0,2.007077799993567,s,6.48030340007972,270.90648590005003,0.10468810005113482,0.11163940001279116,0.1532925000647083,0.16023490007501096,0.2018718000035733,0.20882410008925945,,,,,,,,,,,,,,,,,,,,,,,,,,,,,,,,,,,,,,,,,,,,,,,,,,,,,,,,,,,,,,,,,,,,,,,,,,3,D,2023-12-05_11h11.55.285,gca_avoidance_task,2022.2.4,143.90911849160275,
,,,,,,,,,22,0,22,0,,,,,,,,,,,,,,,,,,,,,,,,,,,,,,,,,,,,,271.6703772000037,271.6703772000037,271.6703772000037,271.6703772000037,271.6703772000037,271.6703772000037,5.0,4.104501800029539,s,7.268481599981897,279.5311455000192,0.10260659991763532,0.10954530001617968,0.15115359995979816,0.15810889995191246,0.19987599994055927,0.20674689998850226,280.30191000003833,,,,,,,,,,,,,,,,,,,,,,,,,,,,,,,,,,,,,,,,,,,,,,,,,,,,,,,,,,,,,,,,,,,,,,,,,3,D,2023-12-05_11h11.55.285,gca_avoidance_task,2022.2.4,143.90911849160275,
,,,,,,,,,23,0,23,0,,,,,,,,,,,,,,,,,,,,,,,,,,,,,,,,,,,,,280.30191000003833,280.30191000003833,280.30191000003833,280.30191000003833,280.30191000003833,280.30191000003833,5.0,4.633574899984524,s,7.740766700007953,288.55850670009386,0.10109919996466488,0.10808919998817146,0.14968729997053742,0.1566565000684932,0.2052459999686107,0.21221480006352067,289.3223717000801,,,,,,,,,,,,,,,,,,,,,,,,,,,,,,,,,,,,,,,,,,,,,,,,,,,,,,,,,,,,,,,,,,,,,,,,,3,D,2023-12-05_11h11.55.285,gca_avoidance_task,2022.2.4,143.90911849160275,
,,,,,,,,,24,0,24,0,,,,,,,,,,,,,,,,,,,,,,,,,,,,,,,,,,,,,289.3223717000801,289.3223717000801,289.3223717000801,289.3223717000801,289.3223717000801,289.3223717000801,5.0,4.374350399943069,s,7.896499400027096,297.73874679999426,0.09976210002787411,0.1066767000593245,0.15531250007916242,0.16224990005139261,0.20387960004154593,0.21095239999704063,298.5025519999908,,,,,,,,,,,,,,,,,,,,,,,,,,,,,,,,,,,,,,,,,,,,,,,,,,,,,,,,,,,,,,,,,,,,,,,,,3,D,2023-12-05_11h11.55.285,gca_avoidance_task,2022.2.4,143.90911849160275,
,,,,,,,,,25,0,25,0,,,,,,,,,,,,,,,,,,,,,,,,,,,,,,,,,,,,,298.5025519999908,298.5025519999908,298.5025519999908,298.5025519999908,298.5025519999908,298.5025519999908,6.0,1.457616199972108,s,5.2356147998943925,304.252312000026,0.10319689998868853,0.11019040003884584,0.151819400023669,0.15884229994844645,0.2004415999399498,0.20736360002774745,305.01615760009736,,,,,,,,,,,,,,,,,,,,,,,,,,,,,,,,,,,,,,,,,,,,,,,,,,,,,,,,,,,,,,,,,,,,,,,,,3,D,2023-12-05_11h11.55.285,gca_avoidance_task,2022.2.4,143.90911849160275,
,,,,,,,,,26,0,26,0,,,,,,,,,,,,,,,,,,,,,,,,,,,,,,,,,,,,,305.01615760009736,305.01615760009736,305.01615760009736,305.01615760009736,305.01615760009736,305.01615760009736,7.0,1.1332565000047907,s,5.891297399997711,311.49503150000237,0.10099259996786714,0.10801029996946454,0.14963170001283288,0.15655950002837926,0.20520460000261664,0.21211279998533428,312.30752949998714,,,,,,,,,,,,,,,,,,,,,,,,,,,,,,,,,,,,,,,,,,,,,,,,,,,,,,,,,,,,,,,,,,,,,,,,,3,D,2023-12-05_11h11.55.285,gca_avoidance_task,2022.2.4,143.90911849160275,
,,,,,,,,,27,0,27,0,,,,,,,,,,,,,,,,,,,,,,,,,,,,,,,,,,,,,312.30752949998714,312.30752949998714,312.30752949998714,312.30752949998714,312.30752949998714,312.30752949998714,6.0,2.7334549999795854,g,21.51075219991617,334.3274068000028,,,,,,,,,,,,,,,,,,,,,,,,,,,,,,,,,,,,,,,,,,,,,,,,,,,,,,,,,,,,,,,,,,,,,,,,,,,,,,,,3,D,2023-12-05_11h11.55.285,gca_avoidance_task,2022.2.4,143.90911849160275,
,,,,,,,,,,,,,,,,,,,,,,,,,,,,,,,,,,,,,,,,,,,,,,,,,,,,,,,,,,,,,,,,,,,334.3274068000028,334.3274068000028,space,3.627077699988149,,,,,,,,,,,,,,,,,,,,,,,,,,,,,,,,,,,,,,,,,,,,,,,,,,,,,,,,,,,,,,,,,,,,,3,D,2023-12-05_11h11.55.285,gca_avoidance_task,2022.2.4,143.90911849160275,
positions.xlsx,stimuli.xlsx,stimuli/Social2.png,stimuli/Social1.png,stimuli/Nonsocial2.png,stimuli/Nonsocial1.png,cs_plus_ns,,,,,,,0,0,0,0,0,0,0,1,,,,,,,,,,,,,,,,,,,,,,,,,,,,,,,,,,,,,,,,,,,,,,,,,,,485.9111550000962,485.9111550000962,space,9.963731400086544,495.91787830006797,495.91787830006797,501.92454879998695,8.0,6.001075500040315,space,3.1174303999869153,,,,,,,,,,,,,,,,,,,,,,,,,,,,,,,,,,,,,,,,,,,,,,,,,,,,,,,,,,3,D,2023-12-05_11h11.55.285,gca_avoidance_task,2022.2.4,143.90911849160275,
positions.xlsx,stimuli.xlsx,stimuli/Social2.png,stimuli/Social1.png,stimuli/Nonsocial2.png,stimuli/Nonsocial1.png,cs_plus_s,,,,,,,0,0,0,0,0,1,1,0,,,,,,,,,,,,,,,,,,,,,,,,,,,,,,,,,,,,,,,,,,,,,,,,,,,,,,,505.0702500999905,505.0702500999905,509.7436539999908,7.0,4.666032899986021,space,1.274458899977617,,,,,,,,,,,,,,,,,,,,,,,,,,,,,,,,,,,,,,,,,,,,,,,,,,,,,,,,,,3,D,2023-12-05_11h11.55.285,gca_avoidance_task,2022.2.4,143.90911849160275,
positions.xlsx,stimuli.xlsx,stimuli/Social2.png,stimuli/Social1.png,stimuli/Nonsocial2.png,stimuli/Nonsocial1.png,cs_minus_s,,,,,,,0,0,0,0,0,2,2,2,,,,,,,,,,,,,,,,,,,,,,,,,,,,,,,,,,,,,,,,,,,,,,,,,,,,,,,511.0422255001031,511.0422255001031,515.7364795000758,8.0,4.681378100067377,space,2.122195600066334,,,,,,,,,,,,,,,,,,,,,,,,,,,,,,,,,,,,,,,,,,,,,,,,,,,,,,,,,,3,D,2023-12-05_11h11.55.285,gca_avoidance_task,2022.2.4,143.90911849160275,
positions.xlsx,stimuli.xlsx,stimuli/Social2.png,stimuli/Social1.png,stimuli/Nonsocial2.png,stimuli/Nonsocial1.png,cs_minus_ns,,,,,,,0,0,0,0,0,3,3,3,,,,,,,,,,,,,,,,,,,,,,,,,,,,,,,,,,,,,,,,,,,,,,,,,,,,,,,517.8891398000997,517.8891398000997,522.861134900013,8.0,4.9653158999281,space,1.1093905000016093,,,,,,,,,,,,,,,,,,,,,,,,,,,,,,,,,,,,,,,,,,,,,,,,,,,,,,,,,,3,D,2023-12-05_11h11.55.285,gca_avoidance_task,2022.2.4,143.90911849160275,
positions.xlsx,stimuli.xlsx,stimuli/Social2.png,stimuli/Social1.png,stimuli/Nonsocial2.png,stimuli/Nonsocial1.png,,"(-0.7, -0.5)",cs_plus_ns,,,,,0,0,0,0,,,,,0,0,0,9,,,,,,,,,,,,,,,,,,,,,,,,,,,,,,,,,,,,,,,,,,,,,,,,,,,,,,,,,,523.9861295000883,523.9861295000883,space,19.46472829999402,545.6310479000676,546.9087470000377,545.1310963000869,546.9087470000377,546.9087470000377,546.9087470000377,0.01467830000910908,0.020104399998672307,0,shock,1,[0.16688470006920397],[0.16688869998324662],547.0823424000992,547.0823424000992,0.016635200008749962,0.016635200008749962,0.025350000010803342,0.053040900034829974,0.06002850004006177,0.10169210005551577,0.10864600003696978,1.011367900064215,550.5683943000622,554.8112230000552,,,,,,,,,,,,,,,,,,,,,,,,,,,,,3,D,2023-12-05_11h11.55.285,gca_avoidance_task,2022.2.4,143.90911849160275,
positions.xlsx,stimuli.xlsx,stimuli/Social2.png,stimuli/Social1.png,stimuli/Nonsocial2.png,stimuli/Nonsocial1.png,,"(-0.7, 0.5)",cs_minus_ns,,,,,0,0,0,0,,,,,0,1,1,12,,,,,,,,,,,,,,,,,,,,,,,,,,,,,,,,,,,,,,,,,,,,,,,,,,,,,,,,,,,,,,555.3181266000029,556.4152880000183,554.8112230000552,556.4152880000183,556.4152880000183,556.4152880000183,0.006899600033648312,0.01332120003644377,5,reward,1,[0.15309309994336218],[0.1530971999745816],556.5749785000226,556.5749785000226,0.00827780005056411,0.00827780005056411,0.01843719999305904,0.05313460004981607,0.060056200018152595,0.10171620000619441,0.10871199995744973,1.0044445999665186,560.0680337999947,563.7483598000836,,,,,,,,,,,,,,,,,,,,,,,,,,,,,3,D,2023-12-05_11h11.55.285,gca_avoidance_task,2022.2.4,143.90911849160275,
positions.xlsx,stimuli.xlsx,stimuli/Social2.png,stimuli/Social1.png,stimuli/Nonsocial2.png,stimuli/Nonsocial1.png,,"(0.7, 0.5)",cs_minus_s,,,,,0,0,0,0,,,,,0,2,2,6,,,,,,,,,,,,,,,,,,,,,,,,,,,,,,,,,,,,,,,,,,,,,,,,,,,,,,,,,,,,,,564.2552302000113,565.4912678000983,563.7483598000836,565.4912678000983,565.4912678000983,565.4912678000983,0.006607900024391711,0.01317310007289052,10,reward,1,[0.4239169000647962],[0.4239209000952542],565.9218637000304,565.9218637000304,0.007839000085368752,0.007839000085368752,0.01877070008777082,0.05338669999036938,0.06036380003206432,0.10204650007653981,0.10899540001992136,1.0047895000316203,569.4147791001014,573.6298816000344,,,,,,,,,,,,,,,,,,,,,,,,,,,,,3,D,2023-12-05_11h11.55.285,gca_avoidance_task,2022.2.4,143.90911849160275,
positions.xlsx,stimuli.xlsx,stimuli/Social2.png,stimuli/Social1.png,stimuli/Nonsocial2.png,stimuli/Nonsocial1.png,,"(0.7, -0.5)",cs_plus_s,,,,,0,0,0,0,,,,,0,3,3,3,,,,,,,,,,,,,,,,,,,,,,,,,,,,,,,,,,,,,,,,,,,,,,,,,,,,,,,,,,,,,,574.136794900056,575.3797848999966,573.6298816000344,575.3797848999966,575.3797848999966,575.3797848999966,0.006142799975350499,0.013282099971547723,10,shock,1,[0.4378575999289751],[0.43786169996019453],575.8242643000558,575.8242643000558,0.007756400038488209,0.007756400038488209,0.018290100037120283,0.052975600003264844,0.05987919995095581,0.1015236999373883,0.10848439997062087,1.0042851000325754,579.3171954000136,583.8169654000085,,,,,,,,,,,,,,,,,,,,,,,,,,,,,3,D,2023-12-05_11h11.55.285,gca_avoidance_task,2022.2.4,143.90911849160275,
positions.xlsx,stimuli.xlsx,stimuli/Social2.png,stimuli/Social1.png,stimuli/Nonsocial2.png,stimuli/Nonsocial1.png,,"(0.7, -0.5)",cs_minus_s,,,,,0,0,0,0,,,,,0,4,4,7,,,,,,,,,,,,,,,,,,,,,,,,,,,,,,,,,,,,,,,,,,,,,,,,,,,,,,,,,,,,,,584.3238588999957,585.65714200004,583.8169654000085,585.65714200004,585.65714200004,585.65714200004,0.006175899994559586,0.013142599957063794,15,reward,1,[0.49322369997389615],[0.49322800000663847],586.1571181000909,586.1571181000909,0.007560099940747023,0.007560099940747023,0.018668500008061528,0.05337610002607107,0.060312599991448224,0.101916000014171,0.10891319997608662,1.0047603000421077,589.6500596000114,593.983217400033,,,,,,,,,,,,,,,,,,,,,,,,,,,,,3,D,2023-12-05_11h11.55.285,gca_avoidance_task,2022.2.4,143.90911849160275,
positions.xlsx,stimuli.xlsx,stimuli/Social2.png,stimuli/Social1.png,stimuli/Nonsocial2.png,stimuli/Nonsocial1.png,,"(-0.7, -0.5)",cs_minus_ns,,,,,0,0,0,0,,,,,0,5,5,13,,,,,,,,,,,,,,,,,,,,,,,,,,,,,,,,,,,,,,,,,,,,,,,,,,,,,,,,,,,,,,594.4900786000071,595.7122197001008,593.983217400033,595.7122197001008,595.7122197001008,595.7122197001008,0.007231600000523031,0.013136899913661182,15,none,0,,,600.7189947000006,600.7189947000006,0.014028699952177703,0.014028699952177703,0.019932699971832335,0.054527999949641526,0.06148359994404018,0.10315549990627915,0.11010179994627833,1.0128963999450207,604.2119298999896,608.1909234999912,,,,,,,,,,,,,,,,,,,,,,,,,,,,,3,D,2023-12-05_11h11.55.285,gca_avoidance_task,2022.2.4,143.90911849160275,
positions.xlsx,stimuli.xlsx,stimuli/Social2.png,stimuli/Social1.png,stimuli/Nonsocial2.png,stimuli/Nonsocial1.png,,"(0.7, -0.5)",cs_plus_ns,,,,,0,0,0,0,,,,,0,6,6,11,,,,,,,,,,,,,,,,,,,,,,,,,,,,,,,,,,,,,,,,,,,,,,,,,,,,,,,,,,,,,,608.6978037999943,609.7463736000936,608.1909234999912,609.7463736000936,609.7463736000936,609.7463736000936,0.006753399968147278,0.013532000011764467,15,shock,1,[0.4035073999548331],[0.4035114999860525],610.1560930000851,610.1560930000851,0.007892800029367208,0.007892800029367208,0.01879440003540367,0.05346670001745224,0.060457299929112196,0.1021269999910146,0.10909179993905127,1.0048571999650449,613.6490665000165,617.4058392000152,,,,,,,,,,,,,,,,,,,,,,,,,,,,,3,D,2023-12-05_11h11.55.285,gca_avoidance_task,2022.2.4,143.90911849160275,
positions.xlsx,stimuli.xlsx,stimuli/Social2.png,stimuli/Social1.png,stimuli/Nonsocial2.png,stimuli/Nonsocial1.png,,"(-0.7, 0.5)",cs_minus_s,,,,,0,0,0,0,,,,,0,7,7,4,,,,,,,,,,,,,,,,,,,,,,,,,,,,,,,,,,,,,,,,,,,,,,,,,,,,,,,,,,,,,,617.9127215000335,619.5862259001005,617.4058392000152,619.5862259001005,619.5862259001005,619.5862259001005,0.0060900000389665365,0.013037799973972142,20,reward,1,[0.4376013999572024],[0.4376054999884218],620.0306786000729,620.0306786000729,0.00730719999410212,0.00730719999410212,0.01845209999009967,0.05316350003704429,0.06021979998331517,0.1017417999682948,0.10871040006168187,1.0045053000794724,623.5236354999943,628.0164364000084,,,,,,,,,,,,,,,,,,,,,,,,,,,,,3,D,2023-12-05_11h11.55.285,gca_avoidance_task,2022.2.4,143.90911849160275,
positions.xlsx,stimuli.xlsx,stimuli/Social2.png,stimuli/Social1.png,stimuli/Nonsocial2.png,stimuli/Nonsocial1.png,,"(-0.7, 0.5)",cs_plus_s,,,,,0,0,0,0,,,,,0,8,8,0,,,,,,,,,,,,,,,,,,,,,,,,,,,,,,,,,,,,,,,,,,,,,,,,,,,,,,,,,,,,,,628.5233821000438,629.5372102000983,628.0164364000084,629.5372102000983,629.5372102000983,629.5372102000983,0.006046000053174794,0.013532300014048815,20,shock,1,[0.3268557999981567],[0.3268602000316605],629.8705484000966,629.8705484000966,0.007820300059393048,0.007820300059393048,0.018304800032638013,0.05297499999869615,0.059925900073722005,0.10156570002436638,0.10854800010565668,1.0042645001085475,633.3635170999914,637.1272156999912,,,,,,,,,,,,,,,,,,,,,,,,,,,,,3,D,2023-12-05_11h11.55.285,gca_avoidance_task,2022.2.4,143.90911849160275,
positions.xlsx,stimuli.xlsx,stimuli/Social2.png,stimuli/Social1.png,stimuli/Nonsocial2.png,stimuli/Nonsocial1.png,,"(0.7, 0.5)",cs_minus_ns,,,,,0,0,0,0,,,,,0,9,9,14,,,,,,,,,,,,,,,,,,,,,,,,,,,,,,,,,,,,,,,,,,,,,,,,,,,,,,,,,,,,,,637.6340903000673,638.8076286000432,637.1272156999912,638.8076286000432,638.8076286000432,638.8076286000432,0.007173300022259355,0.013581600040197372,25,reward,1,[0.7088502000551671],[0.708854699973017],639.5229809000157,639.5229809000157,0.007459999993443489,0.007459999993443489,0.01888630003668368,0.05356130003929138,0.060521399951539934,0.10220269998535514,0.10913919995073229,1.004865700029768,643.015887800022,647.3004014000762,,,,,,,,,,,,,,,,,,,,,,,,,,,,,3,D,2023-12-05_11h11.55.285,gca_avoidance_task,2022.2.4,143.90911849160275,
positions.xlsx,stimuli.xlsx,stimuli/Social2.png,stimuli/Social1.png,stimuli/Nonsocial2.png,stimuli/Nonsocial1.png,,"(-0.7, 0.5)",cs_plus_ns,,,,,0,0,0,0,,,,,0,10,10,8,,,,,,,,,,,,,,,,,,,,,,,,,,,,,,,,,,,,,,,,,,,,,,,,,,,,,,,,,,,,,,647.8072830000892,649.328023500042,647.3004014000762,649.328023500042,649.328023500042,649.328023500042,0.007331199944019318,0.019796299980953336,25,shock,1,[0.4789698999375105],[0.4789739999687299],649.8071877000621,649.8071877000621,0.00804680003784597,0.00804680003784597,0.01825080008711666,0.0529437999939546,0.05986760009545833,0.10152840008959174,0.10848560009617358,1.0043089999817312,653.3001145999879,657.2860726000508,,,,,,,,,,,,,,,,,,,,,,,,,,,,,3,D,2023-12-05_11h11.55.285,gca_avoidance_task,2022.2.4,143.90911849160275,
positions.xlsx,stimuli.xlsx,stimuli/Social2.png,stimuli/Social1.png,stimuli/Nonsocial2.png,stimuli/Nonsocial1.png,,"(-0.7, -0.5)",cs_minus_s,,,,,0,0,0,0,,,,,0,11,11,5,,,,,,,,,,,,,,,,,,,,,,,,,,,,,,,,,,,,,,,,,,,,,,,,,,,,,,,,,,,,,,657.7929341000272,659.7026314000832,657.2860726000508,659.7026314000832,659.7026314000832,659.7026314000832,0.006074800039641559,0.01317589997779578,30,reward,1,[0.35419260000344366],[0.35419680003542453],660.0636712000705,660.0636712000705,0.0073596000438556075,0.0073596000438556075,0.018774299998767674,0.05348420003429055,0.06042420002631843,0.10204660007730126,0.10901850007940084,1.0048785000108182,663.5566934000235,667.7509665000252,,,,,,,,,,,,,,,,,,,,,,,,,,,,,3,D,2023-12-05_11h11.55.285,gca_avoidance_task,2022.2.4,143.90911849160275,
positions.xlsx,stimuli.xlsx,stimuli/Social2.png,stimuli/Social1.png,stimuli/Nonsocial2.png,stimuli/Nonsocial1.png,,"(0.7, -0.5)",cs_minus_ns,,,,,0,0,0,0,,,,,0,12,12,15,,,,,,,,,,,,,,,,,,,,,,,,,,,,,,,,,,,,,,,,,,,,,,,,,,,,,,,,,,,,,,668.2578244000906,670.0563433000352,667.7509665000252,670.0563433000352,670.0563433000352,670.0563433000352,0.006960300030186772,0.013124600052833557,35,reward,1,[0.5140260000480339],[0.520894999965094],670.5841054000193,670.5841054000193,0.007476300001144409,0.007476300001144409,0.018604199984110892,0.05330919998232275,0.060251599992625415,0.10190709994640201,0.10887859994545579,1.00471349991858,674.0770585000282,678.5491022000788,,,,,,,,,,,,,,,,,,,,,,,,,,,,,3,D,2023-12-05_11h11.55.285,gca_avoidance_task,2022.2.4,143.90911849160275,
positions.xlsx,stimuli.xlsx,stimuli/Social2.png,stimuli/Social1.png,stimuli/Nonsocial2.png,stimuli/Nonsocial1.png,,"(-0.7, -0.5)",cs_plus_s,,,,,0,0,0,0,,,,,0,13,13,1,,,,,,,,,,,,,,,,,,,,,,,,,,,,,,,,,,,,,,,,,,,,,,,,,,,,,,,,,,,,,,679.055966700078,680.3753705000272,678.5491022000788,680.3753705000272,680.3753705000272,680.3753705000272,0.005879900068975985,0.013018600060604513,35,shock,1,[1.0484160999767482],[1.0484204000094905],681.4308480999898,681.4308480999898,0.0072119999676942825,0.0072119999676942825,0.018512899987399578,0.05324279994238168,0.06018379994202405,0.10175749997142702,0.1087415999500081,1.0046218000352383,684.9238579000812,688.6111626999918,,,,,,,,,,,,,,,,,,,,,,,,,,,,,3,D,2023-12-05_11h11.55.285,gca_avoidance_task,2022.2.4,143.90911849160275,
positions.xlsx,stimuli.xlsx,stimuli/Social2.png,stimuli/Social1.png,stimuli/Nonsocial2.png,stimuli/Nonsocial1.png,,"(0.7, 0.5)",cs_plus_ns,,,,,0,0,0,0,,,,,0,14,14,10,,,,,,,,,,,,,,,,,,,,,,,,,,,,,,,,,,,,,,,,,,,,,,,,,,,,,,,,,,,,,,689.1180622000247,690.7846318000229,688.6111626999918,690.7846318000229,690.7846318000229,690.7846318000229,0.006767999962903559,0.012770900037139654,35,shock,1,[0.44420310005079955],[0.44420699996408075],691.2360358000733,691.2360358000733,0.007786799920722842,0.007786799920722842,0.018709299969486892,0.053372599999420345,0.06034169998019934,0.10195059992838651,0.10888509999495,1.004682199913077,694.7289795000106,699.1454229000956,,,,,,,,,,,,,,,,,,,,,,,,,,,,,3,D,2023-12-05_11h11.55.285,gca_avoidance_task,2022.2.4,143.90911849160275,
positions.xlsx,stimuli.xlsx,stimuli/Social2.png,stimuli/Social1.png,stimuli/Nonsocial2.png,stimuli/Nonsocial1.png,,"(0.7, 0.5)",cs_plus_s,,,,,0,0,0,0,,,,,0,15,15,2,,,,,,,,,,,,,,,,,,,,,,,,,,,,,,,,,,,,,,,,,,,,,,,,,,,,,,,,,,,,,,699.6523103000363,701.5481145000085,699.1454229000956,701.5481145000085,701.5481145000085,701.5481145000085,0.006314199999906123,0.013273300020955503,35,shock,1,[4.354658199939877],[4.354662299971096],705.9090135000879,705.9090135000879,0.007289000088348985,0.007289000088348985,0.018312300089746714,0.05292879999615252,0.059911200078204274,0.10158300003968179,0.10851600009482354,1.0043331000488251,709.4019178000744,713.832339100074,,,,,,,,,,,,,,,,,,,,,,,,,,,,,3,D,2023-12-05_11h11.55.285,gca_avoidance_task,2022.2.4,143.90911849160275,
positions.xlsx,stimuli.xlsx,stimuli/Social2.png,stimuli/Social1.png,stimuli/Nonsocial2.png,stimuli/Nonsocial1.png,,"(0.7, -0.5)",cs_plus_s,,,,,0,0,0,0,,,,,1,0,16,3,,,,,,,,,,,,,,,,,,,,,,,,,,,,,,,,,,,,,,,,,,,,,,,,,,,,,,,,,,,,,,714.3392007000512,715.4224669000832,713.832339100074,715.4224669000832,715.4224669000832,715.4224669000832,0.006133000017143786,0.013406099984422326,35,none,0,,,720.4292716000928,720.4292716000928,0.013689800049178302,0.013689800049178302,0.02017949998844415,0.05485239997506142,0.061782000004313886,0.1034940000390634,0.11040210002101958,1.013128999969922,723.9222039000597,728.3456095000729,,,,,,,,,,,,,,,,,,,,,,,,,,,,,3,D,2023-12-05_11h11.55.285,gca_avoidance_task,2022.2.4,143.90911849160275,
positions.xlsx,stimuli.xlsx,stimuli/Social2.png,stimuli/Social1.png,stimuli/Nonsocial2.png,stimuli/Nonsocial1.png,,"(-0.7, -0.5)",cs_minus_ns,,,,,0,0,0,0,,,,,1,1,17,13,,,,,,,,,,,,,,,,,,,,,,,,,,,,,,,,,,,,,,,,,,,,,,,,,,,,,,,,,,,,,,728.852517100051,729.9427226000698,728.3456095000729,729.9427226000698,729.9427226000698,729.9427226000698,0.007142600021325052,0.013340699952095747,40,reward,1,[0.38227209995966405],[0.382276099990122],730.3316142000258,730.3316142000258,0.007210399955511093,0.007210399955511093,0.018425900023430586,0.05314229999203235,0.06005860003642738,0.10177900001872331,0.10867180000059307,1.0044151999754831,733.8245663000271,737.5952344000107,,,,,,,,,,,,,,,,,,,,,,,,,,,,,3,D,2023-12-05_11h11.55.285,gca_avoidance_task,2022.2.4,143.90911849160275,
positions.xlsx,stimuli.xlsx,stimuli/Social2.png,stimuli/Social1.png,stimuli/Nonsocial2.png,stimuli/Nonsocial1.png,,"(-0.7, -0.5)",cs_minus_s,,,,,0,0,0,0,,,,,1,2,18,5,,,,,,,,,,,,,,,,,,,,,,,,,,,,,,,,,,,,,,,,,,,,,,,,,,,,,,,,,,,,,,738.102088100044,739.3659269000636,737.5952344000107,739.3659269000636,739.3659269000636,739.3659269000636,0.005598700023256242,0.013241400010883808,45,reward,1,[0.4655151000479236],[0.4655191000783816],739.8381487000734,739.8381487000734,0.006921399966813624,0.006921399966813624,0.017999099916778505,0.05270050000399351,0.059639799990691245,0.10136119998060167,0.10828679997939616,1.004042699933052,743.3310730000958,746.8934587000404,,,,,,,,,,,,,,,,,,,,,,,,,,,,,3,D,2023-12-05_11h11.55.285,gca_avoidance_task,2022.2.4,143.90911849160275,
positions.xlsx,stimuli.xlsx,stimuli/Social2.png,stimuli/Social1.png,stimuli/Nonsocial2.png,stimuli/Nonsocial1.png,,"(-0.7, 0.5)",cs_minus_ns,,,,,0,0,0,0,,,,,1,3,19,12,,,,,,,,,,,,,,,,,,,,,,,,,,,,,,,,,,,,,,,,,,,,,,,,,,,,,,,,,,,,,,747.400314400089,748.5530508999946,746.8934587000404,748.5530508999946,748.5530508999946,748.5530508999946,0.006204099976457655,0.013060100027360022,50,reward,1,[0.7985631000483409],[0.7985669999616221],749.35857390007,749.35857390007,0.007664699922315776,0.007664699922315776,0.018755999975837767,0.053430199972353876,0.060371699975803494,0.10205939994193614,0.10898089990951121,1.0047535999910906,752.8515399000607,757.0041360000614,,,,,,,,,,,,,,,,,,,,,,,,,,,,,3,D,2023-12-05_11h11.55.285,gca_avoidance_task,2022.2.4,143.90911849160275,
positions.xlsx,stimuli.xlsx,stimuli/Social2.png,stimuli/Social1.png,stimuli/Nonsocial2.png,stimuli/Nonsocial1.png,,"(0.7, -0.5)",cs_minus_ns,,,,,0,0,0,0,,,,,1,4,20,15,,,,,,,,,,,,,,,,,,,,,,,,,,,,,,,,,,,,,,,,,,,,,,,,,,,,,,,,,,,,,,757.5109947000165,759.3095178999938,757.0041360000614,759.3095178999938,759.3095178999938,759.3095178999938,0.006498200003989041,0.013119900017045438,55,reward,1,[0.625590999959968],[0.625594999990426],759.9414487000322,759.9414487000322,0.00734140002168715,0.00734140002168715,0.01829370006453246,0.05297810002230108,0.05992920009884983,0.10159120010212064,0.10858400003053248,1.0043285000137985,763.4344301000237,767.1008970000548,,,,,,,,,,,,,,,,,,,,,,,,,,,,,3,D,2023-12-05_11h11.55.285,gca_avoidance_task,2022.2.4,143.90911849160275,
positions.xlsx,stimuli.xlsx,stimuli/Social2.png,stimuli/Social1.png,stimuli/Nonsocial2.png,stimuli/Nonsocial1.png,,"(-0.7, 0.5)",cs_plus_ns,,,,,0,0,0,0,,,,,1,5,21,8,,,,,,,,,,,,,,,,,,,,,,,,,,,,,,,,,,,,,,,,,,,,,,,,,,,,,,,,,,,,,,767.6078490000218,769.2188402999891,767.1008970000548,769.2188402999891,769.2188402999891,769.2188402999891,0.006504999939352274,0.012941899942234159,55,shock,1,[0.35404439992271364],[0.35404849995393306],769.5799608000088,769.5799608000088,0.007675300003029406,0.007675300003029406,0.018461299943737686,0.053128100000321865,0.060081099974922836,0.10171169997192919,0.10869319993071258,1.0044640999985859,773.0728808999993,777.2949399000499,,,,,,,,,,,,,,,,,,,,,,,,,,,,,3,D,2023-12-05_11h11.55.285,gca_avoidance_task,2022.2.4,143.90911849160275,
positions.xlsx,stimuli.xlsx,stimuli/Social2.png,stimuli/Social1.png,stimuli/Nonsocial2.png,stimuli/Nonsocial1.png,,"(-0.7, 0.5)",cs_minus_s,,,,,0,0,0,0,,,,,1,6,22,4,,,,,,,,,,,,,,,,,,,,,,,,,,,,,,,,,,,,,,,,,,,,,,,,,,,,,,,,,,,,,,777.8018336000387,779.3573362000752,777.2949399000499,779.3573362000752,779.3573362000752,779.3573362000752,0.006020999979227781,0.013005899963900447,60,reward,1,[0.40270229999441653],[0.40270640002563596],779.7670386000536,779.7670386000536,0.007078499998897314,0.007078499998897314,0.018444200046360493,0.053101500030606985,0.06005670002195984,0.10171700001228601,0.10868619999382645,1.004469700041227,783.25997870008,787.0584296000889,,,,,,,,,,,,,,,,,,,,,,,,,,,,,3,D,2023-12-05_11h11.55.285,gca_avoidance_task,2022.2.4,143.90911849160275,
positions.xlsx,stimuli.xlsx,stimuli/Social2.png,stimuli/Social1.png,stimuli/Nonsocial2.png,stimuli/Nonsocial1.png,,"(0.7, 0.5)",cs_plus_ns,,,,,0,0,0,0,,,,,1,7,23,10,,,,,,,,,,,,,,,,,,,,,,,,,,,,,,,,,,,,,,,,,,,,,,,,,,,,,,,,,,,,,,787.5652675000019,789.2249526000815,787.0584296000889,789.2249526000815,789.2249526000815,789.2249526000815,0.006438100012019277,0.013051499961875379,60,shock,1,[0.6318486999953166],[0.6318526000250131],789.8638062000973,789.8638062000973,0.008140799938701093,0.008140799938701093,0.018631799961440265,0.05332319997251034,0.060284500010311604,0.1019092999631539,0.10892499994952232,1.0047037999611348,793.3568076000083,797.0232881000265,,,,,,,,,,,,,,,,,,,,,,,,,,,,,3,D,2023-12-05_11h11.55.285,gca_avoidance_task,2022.2.4,143.90911849160275,
positions.xlsx,stimuli.xlsx,stimuli/Social2.png,stimuli/Social1.png,stimuli/Nonsocial2.png,stimuli/Nonsocial1.png,,"(0.7, 0.5)",cs_plus_s,,,,,0,0,0,0,,,,,1,8,24,2,,,,,,,,,,,,,,,,,,,,,,,,,,,,,,,,,,,,,,,,,,,,,,,,,,,,,,,,,,,,,,797.5301237000385,798.800993300043,797.0232881000265,798.800993300043,798.800993300043,798.800993300043,0.00628049997612834,0.013212500023655593,60,none,0,,,803.8077005000087,803.8077005000087,0.012969600036740303,0.012969600036740303,0.019915299955755472,0.05455849994905293,0.061515199951827526,0.10312540002632886,0.11011609993875027,1.0128636000445113,807.3006367000053,811.4810276000062,,,,,,,,,,,,,,,,,,,,,,,,,,,,,3,D,2023-12-05_11h11.55.285,gca_avoidance_task,2022.2.4,143.90911849160275,
positions.xlsx,stimuli.xlsx,stimuli/Social2.png,stimuli/Social1.png,stimuli/Nonsocial2.png,stimuli/Nonsocial1.png,,"(0.7, 0.5)",cs_minus_ns,,,,,0,0,0,0,,,,,1,9,25,14,,,,,,,,,,,,,,,,,,,,,,,,,,,,,,,,,,,,,,,,,,,,,,,,,,,,,,,,,,,,,,811.9878788000206,813.4392079000827,811.4810276000062,813.4392079000827,813.4392079000827,813.4392079000827,0.0064740999368950725,0.013000099919736385,65,reward,1,[0.45822229993063956],[0.4582261999603361],813.9045042000944,813.9045042000944,0.007555900025181472,0.007555900025181472,0.018788699992001057,0.053475999971851707,0.06037740001920611,0.10203039995394647,0.10900399996899068,1.0047775999410078,817.3973946000915,821.5014363999944,,,,,,,,,,,,,,,,,,,,,,,,,,,,,3,D,2023-12-05_11h11.55.285,gca_avoidance_task,2022.2.4,143.90911849160275,
positions.xlsx,stimuli.xlsx,stimuli/Social2.png,stimuli/Social1.png,stimuli/Nonsocial2.png,stimuli/Nonsocial1.png,,"(-0.7, -0.5)",cs_plus_ns,,,,,0,0,0,0,,,,,1,10,26,9,,,,,,,,,,,,,,,,,,,,,,,,,,,,,,,,,,,,,,,,,,,,,,,,,,,,,,,,,,,,,,822.0083303001011,823.1749157001032,821.5014363999944,823.1749157001032,823.1749157001032,823.1749157001032,0.006575699895620346,0.013372099958360195,65,none,0,,,828.1816093000816,828.1816093000816,0.014068099902942777,0.014068099902942777,0.020062799914740026,0.054720699903555214,0.06167349999304861,0.1033620999660343,0.11029389989562333,1.013040899997577,831.6746028000489,835.3063768000575,,,,,,,,,,,,,,,,,,,,,,,,,,,,,3,D,2023-12-05_11h11.55.285,gca_avoidance_task,2022.2.4,143.90911849160275,
positions.xlsx,stimuli.xlsx,stimuli/Social2.png,stimuli/Social1.png,stimuli/Nonsocial2.png,stimuli/Nonsocial1.png,,"(0.7, -0.5)",cs_plus_ns,,,,,0,0,0,0,,,,,1,11,27,11,,,,,,,,,,,,,,,,,,,,,,,,,,,,,,,,,,,,,,,,,,,,,,,,,,,,,,,,,,,,,,835.8132398000453,837.2715363000752,835.3063768000575,837.2715363000752,837.2715363000752,837.2715363000752,0.006128799985162914,0.013293499941937625,65,none,0,,,842.2783173000207,842.2783173000207,0.013926299987360835,0.013926299987360835,0.020070399972610176,0.05474529997445643,0.06168030004482716,0.10333860001992434,0.1102828000439331,1.0129960000049323,845.7711898999987,850.0766198000638,,,,,,,,,,,,,,,,,,,,,,,,,,,,,3,D,2023-12-05_11h11.55.285,gca_avoidance_task,2022.2.4,143.90911849160275,
positions.xlsx,stimuli.xlsx,stimuli/Social2.png,stimuli/Social1.png,stimuli/Nonsocial2.png,stimuli/Nonsocial1.png,,"(0.7, 0.5)",cs_minus_s,,,,,0,0,0,0,,,,,1,12,28,6,,,,,,,,,,,,,,,,,,,,,,,,,,,,,,,,,,,,,,,,,,,,,,,,,,,,,,,,,,,,,,850.5834949000273,852.5208998000016,850.0766198000638,852.5208998000016,852.5208998000016,852.5208998000016,0.0064691000152379274,0.013076100032776594,70,reward,1,[0.3680981000652537],[0.3681019999785349],852.8958834999939,852.8958834999939,0.006956900004297495,0.006956900004297495,0.01884889998473227,0.05351240001618862,0.06046900001820177,0.10214039997663349,0.10911279998254031,1.0049122999189422,856.3888125000522,860.5900757000782,,,,,,,,,,,,,,,,,,,,,,,,,,,,,3,D,2023-12-05_11h11.55.285,gca_avoidance_task,2022.2.4,143.90911849160275,
positions.xlsx,stimuli.xlsx,stimuli/Social2.png,stimuli/Social1.png,stimuli/Nonsocial2.png,stimuli/Nonsocial1.png,,"(-0.7, 0.5)",cs_plus_s,,,,,0,0,0,0,,,,,1,13,29,0,,,,,,,,,,,,,,,,,,,,,,,,,,,,,,,,,,,,,,,,,,,,,,,,,,,,,,,,,,,,,,861.0969477000181,862.117727200035,860.5900757000782,862.117727200035,862.117727200035,862.117727200035,0.006035400088876486,0.013082600082270801,70,none,0,,,867.1244904000778,867.1244904000778,0.0130871000001207,0.0130871000001207,0.01982710009906441,0.054497100063599646,0.06146890006493777,0.10310940002091229,0.11007040005642921,1.0127878000494093,870.6174493000144,874.2075737999985,,,,,,,,,,,,,,,,,,,,,,,,,,,,,3,D,2023-12-05_11h11.55.285,gca_avoidance_task,2022.2.4,143.90911849160275,
positions.xlsx,stimuli.xlsx,stimuli/Social2.png,stimuli/Social1.png,stimuli/Nonsocial2.png,stimuli/Nonsocial1.png,,"(-0.7, -0.5)",cs_plus_s,,,,,0,0,0,0,,,,,1,14,30,1,,,,,,,,,,,,,,,,,,,,,,,,,,,,,,,,,,,,,,,,,,,,,,,,,,,,,,,,,,,,,,874.7144336000783,876.0199535000138,874.2075737999985,876.0199535000138,876.0199535000138,876.0199535000138,0.006128899985924363,0.013353000045754015,70,none,0,,,881.0266543000471,881.0266543000471,0.013458700035698712,0.013458700035698712,0.02006390003953129,0.054784800042398274,0.06173289997968823,0.10337020002771169,0.11033950001001358,1.0130606000311673,884.5196044000331,888.2139180999948,,,,,,,,,,,,,,,,,,,,,,,,,,,,,3,D,2023-12-05_11h11.55.285,gca_avoidance_task,2022.2.4,143.90911849160275,
positions.xlsx,stimuli.xlsx,stimuli/Social2.png,stimuli/Social1.png,stimuli/Nonsocial2.png,stimuli/Nonsocial1.png,,"(0.7, -0.5)",cs_minus_s,,,,,0,0,0,0,,,,,1,15,31,7,,,,,,,,,,,,,,,,,,,,,,,,,,,,,,,,,,,,,,,,,,,,,,,,,,,,,,,,,,,,,,888.7207846000092,890.442905300064,888.2139180999948,890.442905300064,890.442905300064,890.442905300064,0.0066835000179708,0.013215099927037954,75,reward,1,[0.4793877999763936],[0.47939180000685155],890.9290038000327,890.9290038000327,0.006794000044465065,0.006794000044465065,0.018379900022409856,0.05307430005632341,0.06002880004234612,0.10167690005619079,0.1086051999591291,1.004357900004834,894.4219398000278,898.1926062999992,,,,,,,,,,,,,,,,,,,,,,,,,,,,,3,D,2023-12-05_11h11.55.285,gca_avoidance_task,2022.2.4,143.90911849160275,
positions.xlsx,stimuli.xlsx,stimuli/Social2.png,stimuli/Social1.png,stimuli/Nonsocial2.png,stimuli/Nonsocial1.png,,"(-0.7, -0.5)",cs_plus_s,,,,,0,0,0,0,,,,,,,,,0,0,0,1,,,,,,,,,,,,,,,,,,,,,,,,,,,,,,,,,,,,,,,,,,,,,,,,,,,,,,,,,,921.6707895,923.2332199000521,921.170827300055,923.2332199000521,923.2332199000521,923.2332199000521,0.0059853000566363335,0.013098199968226254,75,shock,1,[0.1459436999866739],[0.14594770001713187],923.3860008000629,923.3860008000629,0.007018700009211898,0.007018700009211898,0.018128500087186694,0.052843900048173964,0.05977240006905049,0.10143290006089956,0.10844270000234246,1.0042187999933958,926.8789310000138,930.9829545000102,898.1926062999992,898.1926062999992,898.1926062999992,898.1926062999992,space,20.913575399899855,,,,,,,,,,,,,,,,,,,,,,,3,D,2023-12-05_11h11.55.285,gca_avoidance_task,2022.2.4,143.90911849160275,
positions.xlsx,stimuli.xlsx,stimuli/Social2.png,stimuli/Social1.png,stimuli/Nonsocial2.png,stimuli/Nonsocial1.png,,"(-0.7, -0.5)",cs_minus_s,,,,,0,0,0,0,,,,,,,,,0,1,1,5,,,,,,,,,,,,,,,,,,,,,,,,,,,,,,,,,,,,,,,,,,,,,,,,,,,,,,,,,,931.4898019999964,933.2328133000992,930.9829545000102,933.2328133000992,933.2328133000992,933.2328133000992,0.006205799989402294,0.01305429998319596,80,reward,1,[0.3891081999754533],[0.3891126000089571],933.6286971000955,933.6286971000955,0.007335099973715842,0.007335099973715842,0.01806509995367378,0.05277760000899434,0.05974259995855391,0.1013242999324575,0.10829789994750172,1.0040440999437124,937.1215996000683,941.4616779000498,,,,,,,,,,,,,,,,,,,,,,,,,,,,,3,D,2023-12-05_11h11.55.285,gca_avoidance_task,2022.2.4,143.90911849160275,
positions.xlsx,stimuli.xlsx,stimuli/Social2.png,stimuli/Social1.png,stimuli/Nonsocial2.png,stimuli/Nonsocial1.png,,"(0.7, -0.5)",cs_plus_s,,,,,0,0,0,0,,,,,,,,,0,2,2,3,,,,,,,,,,,,,,,,,,,,,,,,,,,,,,,,,,,,,,,,,,,,,,,,,,,,,,,,,,941.968568500015,943.6282423000084,941.4616779000498,943.6282423000084,943.6282423000084,943.6282423000084,0.00605379999615252,0.013116799993440509,80,shock,1,[0.18058629997540265],[0.18059060000814497],943.8157631000504,943.8157631000504,0.00816810003016144,0.00816810003016144,0.018614300061017275,0.05327570007648319,0.06017549999523908,0.10185900004580617,0.10885530000086874,1.0046401000581682,947.3086860000622,951.0237694000825,,,,,,,,,,,,,,,,,,,,,,,,,,,,,3,D,2023-12-05_11h11.55.285,gca_avoidance_task,2022.2.4,143.90911849160275,
positions.xlsx,stimuli.xlsx,stimuli/Social2.png,stimuli/Social1.png,stimuli/Nonsocial2.png,stimuli/Nonsocial1.png,,"(-0.7, 0.5)",cs_plus_s,,,,,0,0,0,0,,,,,,,,,0,3,3,0,,,,,,,,,,,,,,,,,,,,,,,,,,,,,,,,,,,,,,,,,,,,,,,,,,,,,,,,,,951.5306405000156,953.1347923000576,951.0237694000825,953.1347923000576,953.1347923000576,953.1347923000576,0.0058723000111058354,0.01319369999691844,80,none,0,,,958.1415318000363,958.1415318000363,0.013127700076438487,0.013127700076438487,0.019937200006097555,0.054620100068859756,0.061577900080010295,0.10327720001805574,0.11019200005102903,1.0129413000540808,961.6344604000915,965.3565235000569,,,,,,,,,,,,,,,,,,,,,,,,,,,,,3,D,2023-12-05_11h11.55.285,gca_avoidance_task,2022.2.4,143.90911849160275,
positions.xlsx,stimuli.xlsx,stimuli/Social2.png,stimuli/Social1.png,stimuli/Nonsocial2.png,stimuli/Nonsocial1.png,,"(0.7, 0.5)",cs_minus_s,,,,,0,0,0,0,,,,,,,,,0,4,4,6,,,,,,,,,,,,,,,,,,,,,,,,,,,,,,,,,,,,,,,,,,,,,,,,,,,,,,,,,,965.8634268000023,967.5646969000809,965.3565235000569,967.5646969000809,967.5646969000809,967.5646969000809,0.006369300070218742,0.013305500033311546,85,reward,1,[0.3265417000511661],[0.32654580008238554],967.8980496000731,967.8980496000731,0.007463500020094216,0.007463500020094216,0.018514399998821318,0.05318700009956956,0.06012560008093715,0.10180610010866076,0.10877600009553134,1.0045585000189021,971.3910287000472,975.0991874000756,,,,,,,,,,,,,,,,,,,,,,,,,,,,,3,D,2023-12-05_11h11.55.285,gca_avoidance_task,2022.2.4,143.90911849160275,
positions.xlsx,stimuli.xlsx,stimuli/Social2.png,stimuli/Social1.png,stimuli/Nonsocial2.png,stimuli/Nonsocial1.png,,"(0.7, 0.5)",cs_plus_ns,,,,,0,0,0,0,,,,,,,,,0,5,5,10,,,,,,,,,,,,,,,,,,,,,,,,,,,,,,,,,,,,,,,,,,,,,,,,,,,,,,,,,,975.6060459000291,976.6685181000503,975.0991874000756,976.6685181000503,976.6685181000503,976.6685181000503,0.006975800031796098,0.01338340004440397,85,shock,1,[1.0073683999944478],[1.0073726000264287],977.6823754000943,977.6823754000943,0.007484600064344704,0.007484600064344704,0.0184548000106588,0.053140300093218684,0.06011040008161217,0.10178510006517172,0.10872070002369583,1.0044969000155106,981.1753268000903,985.3626173000084,,,,,,,,,,,,,,,,,,,,,,,,,,,,,3,D,2023-12-05_11h11.55.285,gca_avoidance_task,2022.2.4,143.90911849160275,
positions.xlsx,stimuli.xlsx,stimuli/Social2.png,stimuli/Social1.png,stimuli/Nonsocial2.png,stimuli/Nonsocial1.png,,"(0.7, -0.5)",cs_minus_s,,,,,0,0,0,0,,,,,,,,,0,6,6,7,,,,,,,,,,,,,,,,,,,,,,,,,,,,,,,,,,,,,,,,,,,,,,,,,,,,,,,,,,985.8695358000696,986.9181089000776,985.3626173000084,986.9181089000776,986.9181089000776,986.9181089000776,0.006024500005878508,0.013537700055167079,90,reward,1,[0.4106601000530645],[0.4106641999678686],987.3347618000116,987.3347618000116,0.007416500011458993,0.007416500011458993,0.018406499992124736,0.05304779997095466,0.059988100081682205,0.10168890003114939,0.1086440000217408,1.0044204000150785,990.8276618000818,994.6747481999919,,,,,,,,,,,,,,,,,,,,,,,,,,,,,3,D,2023-12-05_11h11.55.285,gca_avoidance_task,2022.2.4,143.90911849160275,
positions.xlsx,stimuli.xlsx,stimuli/Social2.png,stimuli/Social1.png,stimuli/Nonsocial2.png,stimuli/Nonsocial1.png,,"(-0.7, 0.5)",cs_plus_ns,,,,,0,0,0,0,,,,,,,,,0,7,7,8,,,,,,,,,,,,,,,,,,,,,,,,,,,,,,,,,,,,,,,,,,,,,,,,,,,,,,,,,,995.1816427999875,996.5080149000278,994.6747481999919,996.5080149000278,996.5080149000278,996.5080149000278,0.007227599970065057,0.012996800011023879,90,shock,1,[0.4444014999317005],[0.44440559996291995],996.959333900013,996.959333900013,0.008342399960383773,0.008342399960383773,0.018314799992367625,0.05300159996841103,0.05994730000384152,0.10163039993494749,0.10852549993433058,1.004338699975051,1000.4522650000872,1004.6048866000492,,,,,,,,,,,,,,,,,,,,,,,,,,,,,3,D,2023-12-05_11h11.55.285,gca_avoidance_task,2022.2.4,143.90911849160275,
positions.xlsx,stimuli.xlsx,stimuli/Social2.png,stimuli/Social1.png,stimuli/Nonsocial2.png,stimuli/Nonsocial1.png,,"(-0.7, -0.5)",cs_minus_ns,,,,,0,0,0,0,,,,,,,,,0,8,8,13,,,,,,,,,,,,,,,,,,,,,,,,,,,,,,,,,,,,,,,,,,,,,,,,,,,,,,,,,,1005.1117426001001,1006.3756103999913,1004.6048866000492,1006.3756103999913,1006.3756103999913,1006.3756103999913,0.0072619999991729856,0.0130751000251621,95,reward,1,[0.45144560001790524],[0.45144950004760176],1006.8339244000381,1006.8339244000381,0.007500699954107404,0.007500699954107404,0.0183926000026986,0.053062899969518185,0.06001979997381568,0.10173719993326813,0.10868079995270818,1.0044529000297189,1010.3268730000127,1014.7919942000881,,,,,,,,,,,,,,,,,,,,,,,,,,,,,3,D,2023-12-05_11h11.55.285,gca_avoidance_task,2022.2.4,143.90911849160275,
positions.xlsx,stimuli.xlsx,stimuli/Social2.png,stimuli/Social1.png,stimuli/Nonsocial2.png,stimuli/Nonsocial1.png,,"(0.7, 0.5)",cs_plus_s,,,,,0,0,0,0,,,,,,,,,0,9,9,2,,,,,,,,,,,,,,,,,,,,,,,,,,,,,,,,,,,,,,,,,,,,,,,,,,,,,,,,,,1015.2988298001001,1016.6946241999976,1014.7919942000881,1016.6946241999976,1016.6946241999976,1016.6946241999976,0.0056850999826565385,0.013315499993041158,95,shock,1,[0.3474362000124529],[0.3474407000467181],1017.0487934000557,1017.0487934000557,0.007290699984878302,0.007290699984878302,0.018514900002628565,0.053147600032389164,0.06013290002010763,0.1017619000049308,0.10869939997792244,1.0044973000185564,1020.5417527999962,1024.7915723000187,,,,,,,,,,,,,,,,,,,,,,,,,,,,,3,D,2023-12-05_11h11.55.285,gca_avoidance_task,2022.2.4,143.90911849160275,
positions.xlsx,stimuli.xlsx,stimuli/Social2.png,stimuli/Social1.png,stimuli/Nonsocial2.png,stimuli/Nonsocial1.png,,"(-0.7, -0.5)",cs_plus_ns,,,,,0,0,0,0,,,,,,,,,0,10,10,9,,,,,,,,,,,,,,,,,,,,,,,,,,,,,,,,,,,,,,,,,,,,,,,,,,,,,,,,,,1025.2984308000887,1026.9928021000233,1024.7915723000187,1026.9928021000233,1026.9928021000233,1026.9928021000233,0.006533400039188564,0.013098600087687373,95,shock,1,[0.4306974000064656],[0.4307012000354007],1027.430308500072,1027.430308500072,0.007904099998995662,0.007904099998995662,0.018534200033172965,0.053142799995839596,0.06011409999337047,0.10181430005468428,0.10879510000813752,1.0044954000040889,1030.9232443000656,1034.9786102999933,,,,,,,,,,,,,,,,,,,,,,,,,,,,,3,D,2023-12-05_11h11.55.285,gca_avoidance_task,2022.2.4,143.90911849160275,
positions.xlsx,stimuli.xlsx,stimuli/Social2.png,stimuli/Social1.png,stimuli/Nonsocial2.png,stimuli/Nonsocial1.png,,"(-0.7, 0.5)",cs_minus_s,,,,,0,0,0,0,,,,,,,,,0,11,11,4,,,,,,,,,,,,,,,,,,,,,,,,,,,,,,,,,,,,,,,,,,,,,,,,,,,,,,,,,,1035.4854957000352,1037.2076905000722,1034.9786102999933,1037.2076905000722,1037.2076905000722,1037.2076905000722,0.006663199979811907,0.013206499977968633,100,reward,1,[0.423811599961482],[0.4238154999911785],1037.6382222000975,1037.6382222000975,0.007198499981313944,0.007198499981313944,0.01834810001309961,0.053027700050733984,0.05999610002618283,0.10165359999518842,0.10861450002994388,1.0043743000132963,1041.1311784000136,1045.5962482000468,,,,,,,,,,,,,,,,,,,,,,,,,,,,,3,D,2023-12-05_11h11.55.285,gca_avoidance_task,2022.2.4,143.90911849160275,
positions.xlsx,stimuli.xlsx,stimuli/Social2.png,stimuli/Social1.png,stimuli/Nonsocial2.png,stimuli/Nonsocial1.png,,"(0.7, -0.5)",cs_minus_ns,,,,,0,0,0,0,,,,,,,,,0,12,12,15,,,,,,,,,,,,,,,,,,,,,,,,,,,,,,,,,,,,,,,,,,,,,,,,,,,,,,,,,,1046.103108500014,1047.8183320000535,1045.5962482000468,1047.8183320000535,1047.8183320000535,1047.8183320000535,0.006745100021362305,0.013474000035785139,105,reward,1,[0.3892407000530511],[0.38924489996861666],1048.2141149000963,1048.2141149000963,0.008112500072456896,0.008112500072456896,0.018556199967861176,0.05322380003053695,0.0602107000304386,0.10186729999259114,0.10878340003546327,1.0046728000743315,1051.707133000018,1056.0194152999902,,,,,,,,,,,,,,,,,,,,,,,,,,,,,3,D,2023-12-05_11h11.55.285,gca_avoidance_task,2022.2.4,143.90911849160275,
positions.xlsx,stimuli.xlsx,stimuli/Social2.png,stimuli/Social1.png,stimuli/Nonsocial2.png,stimuli/Nonsocial1.png,,"(0.7, -0.5)",cs_plus_ns,,,,,0,0,0,0,,,,,,,,,0,13,13,11,,,,,,,,,,,,,,,,,,,,,,,,,,,,,,,,,,,,,,,,,,,,,,,,,,,,,,,,,,1056.52632360009,1058.1234552999958,1056.0194152999902,1058.1234552999958,1058.1234552999958,1058.1234552999958,0.006412100046873093,0.01341150002554059,105,none,0,,,1063.1301829000004,1063.1301829000004,0.014525900012813509,0.014525900012813509,0.02018680004402995,0.05486379994545132,0.06184690003283322,0.10346240003127605,0.11044349998701364,1.0131405999418348,1066.6231387000298,1070.4493679000298,,,,,,,,,,,,,,,,,,,,,,,,,,,,,3,D,2023-12-05_11h11.55.285,gca_avoidance_task,2022.2.4,143.90911849160275,
positions.xlsx,stimuli.xlsx,stimuli/Social2.png,stimuli/Social1.png,stimuli/Nonsocial2.png,stimuli/Nonsocial1.png,,"(0.7, 0.5)",cs_minus_ns,,,,,0,0,0,0,,,,,,,,,0,14,14,14,,,,,,,,,,,,,,,,,,,,,,,,,,,,,,,,,,,,,,,,,,,,,,,,,,,,,,,,,,1070.9562268001027,1072.775631400058,1070.4493679000298,1072.775631400058,1072.775631400058,1072.775631400058,0.006442600046284497,0.012986000045202672,110,reward,1,[0.8472224000142887],[0.847226700047031],1073.6297543999972,1073.6297543999972,0.007889200001955032,0.007889200001955032,0.018183199921622872,0.052865599980577826,0.0597948000067845,0.10155729996040463,0.10845469997730106,1.0042422999395058,1077.1226851000683,1081.0808726000832,,,,,,,,,,,,,,,,,,,,,,,,,,,,,3,D,2023-12-05_11h11.55.285,gca_avoidance_task,2022.2.4,143.90911849160275,
positions.xlsx,stimuli.xlsx,stimuli/Social2.png,stimuli/Social1.png,stimuli/Nonsocial2.png,stimuli/Nonsocial1.png,,"(-0.7, 0.5)",cs_minus_ns,,,,,0,0,0,0,,,,,,,,,0,15,15,12,,,,,,,,,,,,,,,,,,,,,,,,,,,,,,,,,,,,,,,,,,,,,,,,,,,,,,,,,,1081.5877700001001,1083.1988189000404,1081.0808726000832,1083.1988189000404,1083.1988189000404,1083.1988189000404,0.006706199957989156,0.013364600017666817,115,reward,1,[0.409987699938938],[0.40999139996711165],1083.615455900086,1083.615455900086,0.0076182999182492495,0.0076182999182492495,0.018590099993161857,0.05326960003003478,0.06026429997291416,0.10193190001882613,0.1088466999353841,1.0046634000027552,1087.1084208000684,1091.5804192000069,,,,,,,,,,,,,,,,,,,,,,,,,,,,,3,D,2023-12-05_11h11.55.285,gca_avoidance_task,2022.2.4,143.90911849160275,
positions.xlsx,stimuli.xlsx,stimuli/Social2.png,stimuli/Social1.png,stimuli/Nonsocial2.png,stimuli/Nonsocial1.png,,"(0.7, 0.5)",cs_plus_ns,,,,,0,0,0,0,,,,,,,,,1,0,16,10,,,,,,,,,,,,,,,,,,,,,,,,,,,,,,,,,,,,,,,,,,,,,,,,,,,,,,,,,,1092.0873167000245,1094.073354799999,1091.5804192000069,1094.073354799999,1094.073354799999,1094.073354799999,0.006637200014665723,0.012937900028191507,115,none,0,,,1099.0800823000027,1099.0800823000027,0.013735200045630336,0.013735200045630336,0.019703099969774485,0.0544031000463292,0.0613163000671193,0.10299899999517947,0.1099209999665618,1.0126859999727458,1102.5730613000924,1107.045072000008,,,,,,,,,,,,,,,,,,,,,,,,,,,,,3,D,2023-12-05_11h11.55.285,gca_avoidance_task,2022.2.4,143.90911849160275,
positions.xlsx,stimuli.xlsx,stimuli/Social2.png,stimuli/Social1.png,stimuli/Nonsocial2.png,stimuli/Nonsocial1.png,,"(-0.7, -0.5)",cs_minus_s,,,,,0,0,0,0,,,,,,,,,1,1,17,5,,,,,,,,,,,,,,,,,,,,,,,,,,,,,,,,,,,,,,,,,,,,,,,,,,,,,,,,,,1107.551952400012,1109.2046640000772,1107.045072000008,1109.2046640000772,1109.2046640000772,1109.2046640000772,0.006202999968081713,0.01299049996305257,120,reward,1,[0.4513543000211939],[0.45135840005241334],1109.6629983000457,1109.6629983000457,0.006588999996893108,0.006588999996893108,0.018818399985320866,0.0535005999263376,0.06049079995136708,0.10218469996470958,0.10905359999742359,1.0048405999550596,1113.1559609000105,1116.6974789000815,,,,,,,,,,,,,,,,,,,,,,,,,,,,,3,D,2023-12-05_11h11.55.285,gca_avoidance_task,2022.2.4,143.90911849160275,
positions.xlsx,stimuli.xlsx,stimuli/Social2.png,stimuli/Social1.png,stimuli/Nonsocial2.png,stimuli/Nonsocial1.png,,"(0.7, -0.5)",cs_plus_s,,,,,0,0,0,0,,,,,,,,,1,2,18,3,,,,,,,,,,,,,,,,,,,,,,,,,,,,,,,,,,,,,,,,,,,,,,,,,,,,,,,,,,1117.2043606000952,1118.954257400008,1116.6974789000815,1118.954257400008,1118.954257400008,1118.954257400008,0.0061178000178188086,0.013410500017926097,120,none,0,,,1123.961022600066,1123.961022600066,0.013585199951194227,0.013585199951194227,0.020171700045466423,0.05487120000179857,0.061786700040102005,0.10348389996215701,0.11042010004166514,1.0131784999975935,1127.4538913000142,1131.5231968000298,,,,,,,,,,,,,,,,,,,,,,,,,,,,,3,D,2023-12-05_11h11.55.285,gca_avoidance_task,2022.2.4,143.90911849160275,
positions.xlsx,stimuli.xlsx,stimuli/Social2.png,stimuli/Social1.png,stimuli/Nonsocial2.png,stimuli/Nonsocial1.png,,"(-0.7, -0.5)",cs_plus_ns,,,,,0,0,0,0,,,,,,,,,1,3,19,9,,,,,,,,,,,,,,,,,,,,,,,,,,,,,,,,,,,,,,,,,,,,,,,,,,,,,,,,,,1132.0300944000483,1133.3633905000752,1131.5231968000298,1133.3633905000752,1133.3633905000752,1133.3633905000752,0.007285999949090183,0.012976999976672232,120,none,0,,,1138.370125800022,1138.370125800022,0.013402999960817397,0.013402999960817397,0.019728099927306175,0.05440249992534518,0.06133509997744113,0.10306419990956783,0.10995969991199672,1.0127093999180943,1141.86307880003,1145.953210900072,,,,,,,,,,,,,,,,,,,,,,,,,,,,,3,D,2023-12-05_11h11.55.285,gca_avoidance_task,2022.2.4,143.90911849160275,
positions.xlsx,stimuli.xlsx,stimuli/Social2.png,stimuli/Social1.png,stimuli/Nonsocial2.png,stimuli/Nonsocial1.png,,"(0.7, 0.5)",cs_minus_ns,,,,,0,0,0,0,,,,,,,,,1,4,20,14,,,,,,,,,,,,,,,,,,,,,,,,,,,,,,,,,,,,,,,,,,,,,,,,,,,,,,,,,,1146.4600256000413,1148.2725038999924,1145.953210900072,1148.2725038999924,1148.2725038999924,1148.2725038999924,0.006602399982511997,0.01292110001668334,125,reward,1,[0.5763266000431031],[0.5763306999579072],1148.8558465000242,1148.8558465000242,0.007898599957115948,0.007898599957115948,0.018502900027669966,0.05312150006648153,0.06009679997805506,0.10177060007117689,0.10872869996819645,1.004520499962382,1152.3487747000763,1156.549926500069,,,,,,,,,,,,,,,,,,,,,,,,,,,,,3,D,2023-12-05_11h11.55.285,gca_avoidance_task,2022.2.4,143.90911849160275,
positions.xlsx,stimuli.xlsx,stimuli/Social2.png,stimuli/Social1.png,stimuli/Nonsocial2.png,stimuli/Nonsocial1.png,,"(-0.7, 0.5)",cs_plus_s,,,,,0,0,0,0,,,,,,,,,1,5,21,0,,,,,,,,,,,,,,,,,,,,,,,,,,,,,,,,,,,,,,,,,,,,,,,,,,,,,,,,,,1157.0568013000302,1158.2304023000179,1156.549926500069,1158.2304023000179,1158.2304023000179,1158.2304023000179,0.005863000056706369,0.012929500080645084,125,none,0,,,1163.2371346000582,1163.2371346000582,0.013092200038954616,0.013092200038954616,0.01967120007611811,0.054371400037780404,0.061339400010183454,0.10295270010828972,0.10992570000234991,1.0126639000372961,1166.7301126000239,1170.7160528000677,,,,,,,,,,,,,,,,,,,,,,,,,,,,,3,D,2023-12-05_11h11.55.285,gca_avoidance_task,2022.2.4,143.90911849160275,
positions.xlsx,stimuli.xlsx,stimuli/Social2.png,stimuli/Social1.png,stimuli/Nonsocial2.png,stimuli/Nonsocial1.png,,"(0.7, 0.5)",cs_minus_s,,,,,0,0,0,0,,,,,,,,,1,6,22,6,,,,,,,,,,,,,,,,,,,,,,,,,,,,,,,,,,,,,,,,,,,,,,,,,,,,,,,,,,1171.2229303000495,1172.2576167000225,1170.7160528000677,1172.2576167000225,1172.2576167000225,1172.2576167000225,0.006195900030434132,0.013276500045321882,130,reward,1,[0.5008202999597415],[0.500824399990961],1172.7645358000882,1172.7645358000882,0.006644900073297322,0.006644900073297322,0.018219100078567863,0.052824200014583766,0.059765900019556284,0.10149160004220903,0.10844199999701232,1.0041895000031218,1176.257453200058,1180.090651400038,,,,,,,,,,,,,,,,,,,,,,,,,,,,,3,D,2023-12-05_11h11.55.285,gca_avoidance_task,2022.2.4,143.90911849160275,
positions.xlsx,stimuli.xlsx,stimuli/Social2.png,stimuli/Social1.png,stimuli/Nonsocial2.png,stimuli/Nonsocial1.png,,"(-0.7, 0.5)",cs_plus_ns,,,,,0,0,0,0,,,,,,,,,1,7,23,8,,,,,,,,,,,,,,,,,,,,,,,,,,,,,,,,,,,,,,,,,,,,,,,,,,,,,,,,,,1180.5975269000046,1181.9933061000193,1180.090651400038,1181.9933061000193,1181.9933061000193,1181.9933061000193,0.006250599981285632,0.013185700052417815,130,shock,1,[0.5071933000581339],[0.5140265000518411],1182.514193000039,1182.514193000039,0.007688000099733472,0.007688000099733472,0.01853970007505268,0.05316560005303472,0.06012909999117255,0.10180110007058829,0.1087483000010252,1.0045075000962242,1186.0071113000158,1190.1249869000167,,,,,,,,,,,,,,,,,,,,,,,,,,,,,3,D,2023-12-05_11h11.55.285,gca_avoidance_task,2022.2.4,143.90911849160275,
positions.xlsx,stimuli.xlsx,stimuli/Social2.png,stimuli/Social1.png,stimuli/Nonsocial2.png,stimuli/Nonsocial1.png,,"(-0.7, 0.5)",cs_minus_s,,,,,0,0,0,0,,,,,,,,,1,8,24,4,,,,,,,,,,,,,,,,,,,,,,,,,,,,,,,,,,,,,,,,,,,,,,,,,,,,,,,,,,1190.6318492999999,1192.12483049999,1190.1249869000167,1192.12483049999,1192.12483049999,1192.12483049999,0.005570500041358173,0.013341200072318316,135,reward,1,[0.5350935000460595],[0.535111700068228],1192.6665099000093,1192.6665099000093,0.007478600018657744,0.007478600018657744,0.018366199918091297,0.053055199910886586,0.05997209995985031,0.10161649994552135,0.10862179996911436,1.004406000021845,1196.159426700091,1199.7842873000773,,,,,,,,,,,,,,,,,,,,,,,,,,,,,3,D,2023-12-05_11h11.55.285,gca_avoidance_task,2022.2.4,143.90911849160275,
positions.xlsx,stimuli.xlsx,stimuli/Social2.png,stimuli/Social1.png,stimuli/Nonsocial2.png,stimuli/Nonsocial1.png,,"(0.7, -0.5)",cs_minus_s,,,,,0,0,0,0,,,,,,,,,1,9,25,7,,,,,,,,,,,,,,,,,,,,,,,,,,,,,,,,,,,,,,,,,,,,,,,,,,,,,,,,,,1200.2911608000286,1201.5272488000337,1199.7842873000773,1201.5272488000337,1201.5272488000337,1201.5272488000337,0.006383800064213574,0.013158700079657137,140,reward,1,[0.43070480006281286],[0.4307091000955552],1201.964715900016,1201.964715900016,0.006982800085097551,0.006982800085097551,0.01841520005837083,0.05306440009735525,0.060111300088465214,0.10167940007522702,0.10864079999737442,1.0044584000715986,1205.457625500043,1209.888087600004,,,,,,,,,,,,,,,,,,,,,,,,,,,,,3,D,2023-12-05_11h11.55.285,gca_avoidance_task,2022.2.4,143.90911849160275,
positions.xlsx,stimuli.xlsx,stimuli/Social2.png,stimuli/Social1.png,stimuli/Nonsocial2.png,stimuli/Nonsocial1.png,,"(-0.7, -0.5)",cs_plus_s,,,,,0,0,0,0,,,,,,,,,1,10,26,1,,,,,,,,,,,,,,,,,,,,,,,,,,,,,,,,,,,,,,,,,,,,,,,,,,,,,,,,,,1210.3949098000303,1211.9156896000495,1209.888087600004,1211.9156896000495,1211.9156896000495,1211.9156896000495,0.00574709998909384,0.013194500003010035,140,none,0,,,1216.922390700085,1216.922390700085,0.013287800014950335,0.013287800014950335,0.0199454000685364,0.05464139999821782,0.061563000082969666,0.10323530004825443,0.1101964000845328,1.0129464000929147,1220.4153568000766,1224.345758200041,,,,,,,,,,,,,,,,,,,,,,,,,,,,,3,D,2023-12-05_11h11.55.285,gca_avoidance_task,2022.2.4,143.90911849160275,
positions.xlsx,stimuli.xlsx,stimuli/Social2.png,stimuli/Social1.png,stimuli/Nonsocial2.png,stimuli/Nonsocial1.png,,"(-0.7, -0.5)",cs_minus_ns,,,,,0,0,0,0,,,,,,,,,1,11,27,13,,,,,,,,,,,,,,,,,,,,,,,,,,,,,,,,,,,,,,,,,,,,,,,,,,,,,,,,,,1224.8526828000322,1226.7345469000284,1224.345758200041,1226.7345469000284,1226.7345469000284,1226.7345469000284,0.006737699965015054,0.013075600028969347,145,reward,1,[0.5903219999745488],[0.5903262000065297],1227.33174100006,1227.33174100006,0.0073850000044330955,0.0073850000044330955,0.0183572000823915,0.05303529999218881,0.05995460005942732,0.10158840008080006,0.10856950003653765,1.0043647000566125,1230.8246637000702,1235.053664600011,,,,,,,,,,,,,,,,,,,,,,,,,,,,,3,D,2023-12-05_11h11.55.285,gca_avoidance_task,2022.2.4,143.90911849160275,
positions.xlsx,stimuli.xlsx,stimuli/Social2.png,stimuli/Social1.png,stimuli/Nonsocial2.png,stimuli/Nonsocial1.png,,"(0.7, -0.5)",cs_plus_ns,,,,,0,0,0,0,,,,,,,,,1,12,28,11,,,,,,,,,,,,,,,,,,,,,,,,,,,,,,,,,,,,,,,,,,,,,,,,,,,,,,,,,,1235.5605543000856,1236.671606500051,1235.053664600011,1236.671606500051,1236.671606500051,1236.671606500051,0.006579899927601218,0.013117099995724857,145,none,0,,,1241.6783564999932,1241.6783564999932,0.013706599944271147,0.013706599944271147,0.019850699929520488,0.05451719998382032,0.06152449990622699,0.1031736999284476,0.11012149997986853,1.0128032999346033,1245.171297300025,1249.4350283000385,,,,,,,,,,,,,,,,,,,,,,,,,,,,,3,D,2023-12-05_11h11.55.285,gca_avoidance_task,2022.2.4,143.90911849160275,
positions.xlsx,stimuli.xlsx,stimuli/Social2.png,stimuli/Social1.png,stimuli/Nonsocial2.png,stimuli/Nonsocial1.png,,"(-0.7, 0.5)",cs_minus_ns,,,,,0,0,0,0,,,,,,,,,1,13,29,12,,,,,,,,,,,,,,,,,,,,,,,,,,,,,,,,,,,,,,,,,,,,,,,,,,,,,,,,,,1249.9418713999912,1251.6779109000927,1249.4350283000385,1251.6779109000927,1251.6779109000927,1251.6779109000927,0.0066862000385299325,0.013228200026787817,150,reward,1,[0.6945740000810474],[0.694578199996613],1252.379269600031,1252.379269600031,0.007718099979683757,0.007718099979683757,0.018619999988004565,0.05328430002555251,0.06029950000811368,0.10190040001180023,0.10889739997219294,1.0046834000386298,1255.8722673000302,1259.6776473000646,,,,,,,,,,,,,,,,,,,,,,,,,,,,,3,D,2023-12-05_11h11.55.285,gca_avoidance_task,2022.2.4,143.90911849160275,
positions.xlsx,stimuli.xlsx,stimuli/Social2.png,stimuli/Social1.png,stimuli/Nonsocial2.png,stimuli/Nonsocial1.png,,"(0.7, 0.5)",cs_plus_s,,,,,0,0,0,0,,,,,,,,,1,14,30,2,,,,,,,,,,,,,,,,,,,,,,,,,,,,,,,,,,,,,,,,,,,,,,,,,,,,,,,,,,1260.1845184999984,1262.1080753999995,1259.6776473000646,1262.1080753999995,1262.1080753999995,1262.1080753999995,0.005930299987085164,0.013450299971736968,150,none,0,,,1267.1147797000594,1267.1147797000594,0.013619699981063604,0.013619699981063604,0.020187399932183325,0.054855499998666346,0.061798300012014806,0.10346709995064884,0.11044949991628528,1.0131589999655262,1270.6077547000023,1274.322852000012,,,,,,,,,,,,,,,,,,,,,,,,,,,,,3,D,2023-12-05_11h11.55.285,gca_avoidance_task,2022.2.4,143.90911849160275,
positions.xlsx,stimuli.xlsx,stimuli/Social2.png,stimuli/Social1.png,stimuli/Nonsocial2.png,stimuli/Nonsocial1.png,,"(0.7, -0.5)",cs_minus_ns,,,,,0,0,0,0,,,,,,,,,1,15,31,15,,,,,,,,,,,,,,,,,,,,,,,,,,,,,,,,,,,,,,,,,,,,,,,,,,,,,,,,,,1274.829730700003,1276.4477401000913,1274.322852000012,1276.4477401000913,1276.4477401000913,1276.4477401000913,0.007164799957536161,0.013185499934479594,155,reward,1,[0.5764607999008149],[0.5764646999305114],1277.031043300056,1277.031043300056,0.007490699994377792,0.007490699994377792,0.018466299981810153,0.053097199997864664,0.060063399956561625,0.10172529995907098,0.10872439993545413,1.0045022999402136,1280.5239876999985,1284.433543000021,,,,,,,,,,,,,,,,,,,,,,,,,,,,,3,D,2023-12-05_11h11.55.285,gca_avoidance_task,2022.2.4,143.90911849160275,
positions.xlsx,stimuli.xlsx,stimuli/Social2.png,stimuli/Social1.png,stimuli/Nonsocial2.png,stimuli/Nonsocial1.png,,"(-0.7, 0.5)",cs_plus_s,,,,,0,0,0,0,,,,,,,,,2,0,32,0,,,,,,,,,,,,,,,,,,,,,,,,,,,,,,,,,,,,,,,,,,,,,,,,,,,,,,,,,,1284.9404314000858,1286.1903610000154,1284.433543000021,1286.1903610000154,1286.1903610000154,1286.1903610000154,0.00606869999319315,0.01343199994880706,155,none,0,,,1291.1971359000308,1291.1971359000308,0.013929200009442866,0.013929200009442866,0.02024450001772493,0.05490870005451143,0.061842399998568,0.1034804000519216,0.11045160004869103,1.013156200060621,1294.6900583000388,1298.4121388000203,,,,,,,,,,,,,,,,,,,,,,,,,,,,,3,D,2023-12-05_11h11.55.285,gca_avoidance_task,2022.2.4,143.90911849160275,
positions.xlsx,stimuli.xlsx,stimuli/Social2.png,stimuli/Social1.png,stimuli/Nonsocial2.png,stimuli/Nonsocial1.png,,"(-0.7, -0.5)",cs_plus_s,,,,,0,0,0,0,,,,,,,,,2,1,33,1,,,,,,,,,,,,,,,,,,,,,,,,,,,,,,,,,,,,,,,,,,,,,,,,,,,,,,,,,,1298.9190292001003,1300.7453398000216,1298.4121388000203,1300.7453398000216,1300.7453398000216,1300.7453398000216,0.0066850000293925405,0.013051900081336498,155,none,0,,,1305.7521007000469,1305.7521007000469,0.013738500070758164,0.013738500070758164,0.019848100026138127,0.054474900010973215,0.06142260006163269,0.1031145000597462,0.11003020009957254,1.012763800099492,1309.2450288000982,1313.6961895000422,,,,,,,,,,,,,,,,,,,,,,,,,,,,,3,D,2023-12-05_11h11.55.285,gca_avoidance_task,2022.2.4,143.90911849160275,
positions.xlsx,stimuli.xlsx,stimuli/Social2.png,stimuli/Social1.png,stimuli/Nonsocial2.png,stimuli/Nonsocial1.png,,"(0.7, 0.5)",cs_plus_ns,,,,,0,0,0,0,,,,,,,,,2,2,34,10,,,,,,,,,,,,,,,,,,,,,,,,,,,,,,,,,,,,,,,,,,,,,,,,,,,,,,,,,,1314.2031016000547,1315.5780434000771,1313.6961895000422,1315.5780434000771,1315.5780434000771,1315.5780434000771,0.006678599980659783,0.013141999952495098,155,shock,1,[0.3889682999579236],[0.388972399989143],1315.9738876000047,1315.9738876000047,0.007948999991640449,0.007948999991640449,0.018970699980854988,0.05357480002567172,0.06057079997844994,0.10223519999999553,0.10915829997975379,1.0049451000522822,1319.4668366000988,1323.7791422000155,,,,,,,,,,,,,,,,,,,,,,,,,,,,,3,D,2023-12-05_11h11.55.285,gca_avoidance_task,2022.2.4,143.90911849160275,
positions.xlsx,stimuli.xlsx,stimuli/Social2.png,stimuli/Social1.png,stimuli/Nonsocial2.png,stimuli/Nonsocial1.png,,"(-0.7, 0.5)",cs_minus_ns,,,,,0,0,0,0,,,,,,,,,2,3,35,12,,,,,,,,,,,,,,,,,,,,,,,,,,,,,,,,,,,,,,,,,,,,,,,,,,,,,,,,,,1324.2859846000792,1325.8831720000599,1323.7791422000155,1325.8831720000599,1325.8831720000599,1325.8831720000599,0.007072400068864226,0.013360599987208843,160,reward,1,[0.4516805000603199],[0.45168489997740835],1326.341511500068,1326.341511500068,0.008103600004687905,0.008103600004687905,0.018756200093775988,0.053421700024046004,0.06038190005347133,0.10201150004286319,0.10895000002346933,1.0047495000762865,1329.8344059000956,1333.8412161000306,,,,,,,,,,,,,,,,,,,,,,,,,,,,,3,D,2023-12-05_11h11.55.285,gca_avoidance_task,2022.2.4,143.90911849160275,
positions.xlsx,stimuli.xlsx,stimuli/Social2.png,stimuli/Social1.png,stimuli/Nonsocial2.png,stimuli/Nonsocial1.png,,"(0.7, -0.5)",cs_minus_s,,,,,0,0,0,0,,,,,,,,,2,4,36,7,,,,,,,,,,,,,,,,,,,,,,,,,,,,,,,,,,,,,,,,,,,,,,,,,,,,,,,,,,1334.3481118000345,1335.764752899995,1333.8412161000306,1335.764752899995,1335.764752899995,1335.764752899995,0.006109699956141412,0.013124099932610989,165,reward,1,[0.5763238999061286],[0.5763279999373481],1336.3480232000584,1336.3480232000584,0.006794199929572642,0.006794199929572642,0.01862369989976287,0.05331799993291497,0.06024199991952628,0.10194399999454618,0.10894860001280904,1.0046686999266967,1339.8409745000536,1344.0074960000347,,,,,,,,,,,,,,,,,,,,,,,,,,,,,3,D,2023-12-05_11h11.55.285,gca_avoidance_task,2022.2.4,143.90911849160275,
positions.xlsx,stimuli.xlsx,stimuli/Social2.png,stimuli/Social1.png,stimuli/Nonsocial2.png,stimuli/Nonsocial1.png,,"(-0.7, 0.5)",cs_minus_s,,,,,0,0,0,0,,,,,,,,,2,5,37,4,,,,,,,,,,,,,,,,,,,,,,,,,,,,,,,,,,,,,,,,,,,,,,,,,,,,,,,,,,1344.5143139000284,1345.7295988000697,1344.0074960000347,1345.7295988000697,1345.7295988000697,1345.7295988000697,0.005672500003129244,0.013082899968139827,170,reward,1,[0.2984645999968052],[0.2984683000249788],1346.035125500057,1346.035125500057,0.0070312999887391925,0.0070312999887391925,0.01874779991339892,0.053410999942570925,0.06033869995735586,0.10198009992018342,0.1089471000013873,1.0047189999604598,1349.5280904000392,1353.5834962000372,,,,,,,,,,,,,,,,,,,,,,,,,,,,,3,D,2023-12-05_11h11.55.285,gca_avoidance_task,2022.2.4,143.90911849160275,
positions.xlsx,stimuli.xlsx,stimuli/Social2.png,stimuli/Social1.png,stimuli/Nonsocial2.png,stimuli/Nonsocial1.png,,"(0.7, 0.5)",cs_minus_ns,,,,,0,0,0,0,,,,,,,,,2,6,38,14,,,,,,,,,,,,,,,,,,,,,,,,,,,,,,,,,,,,,,,,,,,,,,,,,,,,,,,,,,1354.0903454000363,1355.7500124000944,1353.5834962000372,1355.7500124000944,1355.7500124000944,1355.7500124000944,0.006417900091037154,0.01320130005478859,175,reward,1,[0.38232269999571145],[0.38232720002997667],1356.1388993000146,1356.1388993000146,0.00855309993494302,0.00855309993494302,0.01860289997421205,0.053231599973514676,0.06017579999752343,0.1018344999756664,0.10883589996956289,1.0046118999598548,1359.6318300000858,1363.2497189000715,,,,,,,,,,,,,,,,,,,,,,,,,,,,,3,D,2023-12-05_11h11.55.285,gca_avoidance_task,2022.2.4,143.90911849160275,
positions.xlsx,stimuli.xlsx,stimuli/Social2.png,stimuli/Social1.png,stimuli/Nonsocial2.png,stimuli/Nonsocial1.png,,"(0.7, -0.5)",cs_minus_ns,,,,,0,0,0,0,,,,,,,,,2,7,39,15,,,,,,,,,,,,,,,,,,,,,,,,,,,,,,,,,,,,,,,,,,,,,,,,,,,,,,,,,,1363.756627600058,1365.0482669000048,1363.2497189000715,1365.0482669000048,1365.0482669000048,1365.0482669000048,0.006433699978515506,0.013050999958068132,180,reward,1,[0.5276243999833241],[0.5276285000145435],1365.582946300041,1365.582946300041,0.007305499981157482,0.007305499981157482,0.018472100025974214,0.05312260007485747,0.06006480008363724,0.10175040003377944,0.1086619000416249,1.0044894000748172,1369.0758967000293,1373.1104073000606,,,,,,,,,,,,,,,,,,,,,,,,,,,,,3,D,2023-12-05_11h11.55.285,gca_avoidance_task,2022.2.4,143.90911849160275,
positions.xlsx,stimuli.xlsx,stimuli/Social2.png,stimuli/Social1.png,stimuli/Nonsocial2.png,stimuli/Nonsocial1.png,,"(-0.7, -0.5)",cs_minus_s,,,,,0,0,0,0,,,,,,,,,2,8,40,5,,,,,,,,,,,,,,,,,,,,,,,,,,,,,,,,,,,,,,,,,,,,,,,,,,,,,,,,,,1373.6173155000433,1375.2630865999963,1373.1104073000606,1375.2630865999963,1375.2630865999963,1375.2630865999963,0.005760099971666932,0.013551099924370646,185,reward,1,[0.45203659997787327],[0.45204069989267737],1375.7214304000372,1375.7214304000372,0.006671300041489303,0.006671300041489303,0.017990400083363056,0.052690300042741,0.05963060003705323,0.10129280004184693,0.10825160006061196,1.0040206999983639,1379.2143868000712,1382.7420055000111,,,,,,,,,,,,,,,,,,,,,,,,,,,,,3,D,2023-12-05_11h11.55.285,gca_avoidance_task,2022.2.4,143.90911849160275,
positions.xlsx,stimuli.xlsx,stimuli/Social2.png,stimuli/Social1.png,stimuli/Nonsocial2.png,stimuli/Nonsocial1.png,,"(-0.7, 0.5)",cs_plus_ns,,,,,0,0,0,0,,,,,,,,,2,9,41,8,,,,,,,,,,,,,,,,,,,,,,,,,,,,,,,,,,,,,,,,,,,,,,,,,,,,,,,,,,1383.2488589000423,1384.4085629000328,1382.7420055000111,1384.4085629000328,1384.4085629000328,1384.4085629000328,0.007079600007273257,0.01292689994443208,185,none,0,,,1389.4153376000468,1389.4153376000468,0.01367509993724525,0.01367509993724525,0.019655999960377812,0.05430819990579039,0.06128659995738417,0.1029084000037983,0.10990709997713566,1.0125692998990417,1392.9081814000383,1397.130299600074,,,,,,,,,,,,,,,,,,,,,,,,,,,,,3,D,2023-12-05_11h11.55.285,gca_avoidance_task,2022.2.4,143.90911849160275,
positions.xlsx,stimuli.xlsx,stimuli/Social2.png,stimuli/Social1.png,stimuli/Nonsocial2.png,stimuli/Nonsocial1.png,,"(-0.7, -0.5)",cs_minus_ns,,,,,0,0,0,0,,,,,,,,,2,10,42,13,,,,,,,,,,,,,,,,,,,,,,,,,,,,,,,,,,,,,,,,,,,,,,,,,,,,,,,,,,1397.637157900026,1399.5051099000266,1397.130299600074,1399.5051099000266,1399.5051099000266,1399.5051099000266,0.0065530999563634396,0.012972100055776536,190,reward,1,[0.40296860004309565],[0.4029729999601841],1399.914863300044,1399.914863300044,0.007268899935297668,0.007268899935297668,0.018489999929443002,0.05316200002562255,0.060112199978902936,0.10185999993700534,0.10875729995314032,1.0045129000209272,1403.4077955000103,1407.803459900082,,,,,,,,,,,,,,,,,,,,,,,,,,,,,3,D,2023-12-05_11h11.55.285,gca_avoidance_task,2022.2.4,143.90911849160275,
positions.xlsx,stimuli.xlsx,stimuli/Social2.png,stimuli/Social1.png,stimuli/Nonsocial2.png,stimuli/Nonsocial1.png,,"(0.7, 0.5)",cs_minus_s,,,,,0,0,0,0,,,,,,,,,2,11,43,6,,,,,,,,,,,,,,,,,,,,,,,,,,,,,,,,,,,,,,,,,,,,,,,,,,,,,,,,,,1408.3102980999975,1409.345023300033,1407.803459900082,1409.345023300033,1409.345023300033,1409.345023300033,0.006035099970176816,0.01310490001924336,195,reward,1,[0.40312369994353503],[0.4031278999755159],1409.7547907000408,1409.7547907000408,0.007187500013969839,0.007187500013969839,0.017965700011700392,0.052573699969798326,0.059565800009295344,0.10114809998776764,0.10810650000348687,1.003963700029999,1413.2476950000273,1416.816962000099,,,,,,,,,,,,,,,,,,,,,,,,,,,,,3,D,2023-12-05_11h11.55.285,gca_avoidance_task,2022.2.4,143.90911849160275,
positions.xlsx,stimuli.xlsx,stimuli/Social2.png,stimuli/Social1.png,stimuli/Nonsocial2.png,stimuli/Nonsocial1.png,,"(0.7, -0.5)",cs_plus_ns,,,,,0,0,0,0,,,,,,,,,2,12,44,11,,,,,,,,,,,,,,,,,,,,,,,,,,,,,,,,,,,,,,,,,,,,,,,,,,,,,,,,,,1417.3238435999956,1418.5321299000643,1416.816962000099,1418.5321299000643,1418.5321299000643,1418.5321299000643,0.006289399927482009,0.013462099945172668,195,none,0,,,1423.5458629000932,1423.5458629000932,0.014545099926181138,0.014545099926181138,0.027284599957056344,0.054894199944101274,0.06191869999747723,0.10348459996748716,0.11049470002762973,1.0132081999909133,1427.0318376000505,1430.9066480000038,,,,,,,,,,,,,,,,,,,,,,,,,,,,,3,D,2023-12-05_11h11.55.285,gca_avoidance_task,2022.2.4,143.90911849160275,
positions.xlsx,stimuli.xlsx,stimuli/Social2.png,stimuli/Social1.png,stimuli/Nonsocial2.png,stimuli/Nonsocial1.png,,"(0.7, 0.5)",cs_plus_s,,,,,0,0,0,0,,,,,,,,,2,13,45,2,,,,,,,,,,,,,,,,,,,,,,,,,,,,,,,,,,,,,,,,,,,,,,,,,,,,,,,,,,1431.413562300033,1432.5593440000666,1430.9066480000038,1432.5593440000666,1432.5593440000666,1432.5593440000666,0.0058293999172747135,0.013225899892859161,195,shock,1,[0.34809069999028],[0.3480972999241203],1432.9134731000522,1432.9134731000522,0.00974010000936687,0.00974010000936687,0.01688430004287511,0.051476199994795024,0.05840740003623068,0.10008530004415661,0.10708780004642904,1.0028433999978006,1436.4064321999904,1440.2188025000505,,,,,,,,,,,,,,,,,,,,,,,,,,,,,3,D,2023-12-05_11h11.55.285,gca_avoidance_task,2022.2.4,143.90911849160275,
positions.xlsx,stimuli.xlsx,stimuli/Social2.png,stimuli/Social1.png,stimuli/Nonsocial2.png,stimuli/Nonsocial1.png,,"(-0.7, -0.5)",cs_plus_ns,,,,,0,0,0,0,,,,,,,,,2,14,46,9,,,,,,,,,,,,,,,,,,,,,,,,,,,,,,,,,,,,,,,,,,,,,,,,,,,,,,,,,,1440.72564780002,1442.2950490000658,1440.2188025000505,1442.2950490000658,1442.2950490000658,1442.2950490000658,0.006643400061875582,0.013054799987003207,195,none,0,,,1447.3017910000635,1447.3017910000635,0.01446790003683418,0.01446790003683418,0.019833800033666193,0.054530899971723557,0.061432700022123754,0.10309890005737543,0.11007400008384138,1.0128010000335053,1450.7947152000852,1454.475122700096,,,,,,,,,,,,,,,,,,,,,,,,,,,,,3,D,2023-12-05_11h11.55.285,gca_avoidance_task,2022.2.4,143.90911849160275,
positions.xlsx,stimuli.xlsx,stimuli/Social2.png,stimuli/Social1.png,stimuli/Nonsocial2.png,stimuli/Nonsocial1.png,,"(0.7, -0.5)",cs_plus_s,,,,,0,0,0,0,,,,,,,,,2,15,47,3,,,,,,,,,,,,,,,,,,,,,,,,,,,,,,,,,,,,,,,,,,,,,,,,,,,,,,,,,,1454.9820297000697,1456.1347068999894,1454.475122700096,1456.1347068999894,1456.1347068999894,1456.1347068999894,0.00584200001321733,0.013416900066658854,195,none,0,,,1461.1414690000238,1461.1414690000238,0.01354620000347495,0.01354620000347495,0.02015720005147159,0.054840700002387166,0.06180570006836206,0.10346440004650503,0.11041670001577586,1.0131343000102788,1464.6343948000576,1468.9536858000793,,,,,,,,,,,,,,,,,,,,,,,,,,,,,3,D,2023-12-05_11h11.55.285,gca_avoidance_task,2022.2.4,143.90911849160275,
positions.xlsx,stimuli.xlsx,stimuli/Social2.png,stimuli/Social1.png,stimuli/Nonsocial2.png,stimuli/Nonsocial1.png,,"(-0.7, 0.5)",cs_plus_s,,,,,0,0,0,0,,,,,,,,,3,0,48,0,,,,,,,,,,,,,,,,,,,,,,,,,,,,,,,,,,,,,,,,,,,,,,,,,,,,,,,,,,1469.460573600023,1471.37021860003,1468.9536858000793,1471.37021860003,1471.37021860003,1471.37021860003,0.005992299993522465,0.013446700060740113,195,none,0,,,1476.3769543000963,1476.3769543000963,0.013555800076574087,0.013555800076574087,0.02021980006247759,0.05491529998835176,0.06184780003968626,0.1034808000549674,0.11049150000326335,1.0132238999940455,1479.8698941000039,1483.480860700016,,,,,,,,,,,,,,,,,,,,,,,,,,,,,3,D,2023-12-05_11h11.55.285,gca_avoidance_task,2022.2.4,143.90911849160275,
positions.xlsx,stimuli.xlsx,stimuli/Social2.png,stimuli/Social1.png,stimuli/Nonsocial2.png,stimuli/Nonsocial1.png,,"(0.7, -0.5)",cs_plus_ns,,,,,0,0,0,0,,,,,,,,,3,1,49,11,,,,,,,,,,,,,,,,,,,,,,,,,,,,,,,,,,,,,,,,,,,,,,,,,,,,,,,,,,1483.9877665000968,1485.2307597000618,1483.480860700016,1485.2307597000618,1485.2307597000618,1485.2307597000618,0.006416299962438643,0.013245899928733706,195,none,0,,,1490.2375085999956,1490.2375085999956,0.014589500031434,0.014589500031434,0.02005049993749708,0.054717799997888505,0.06161720003001392,0.10333319997880608,0.1102732999715954,1.0129963000072166,1493.7304663000396,1497.271941700019,,,,,,,,,,,,,,,,,,,,,,,,,,,,,3,D,2023-12-05_11h11.55.285,gca_avoidance_task,2022.2.4,143.90911849160275,
positions.xlsx,stimuli.xlsx,stimuli/Social2.png,stimuli/Social1.png,stimuli/Nonsocial2.png,stimuli/Nonsocial1.png,,"(0.7, 0.5)",cs_minus_ns,,,,,0,0,0,0,,,,,,,,,3,2,50,14,,,,,,,,,,,,,,,,,,,,,,,,,,,,,,,,,,,,,,,,,,,,,,,,,,,,,,,,,,1497.7788444000762,1499.5774589000503,1497.271941700019,1499.5774589000503,1499.5774589000503,1499.5774589000503,0.006434399983845651,0.01339069998357445,200,reward,1,[0.3752506000455469],[0.3752545000752434],1499.9593544000527,1499.9593544000527,0.008031300036236644,0.008031300036236644,0.018421899992972612,0.053085300023667514,0.06003099994268268,0.10170849994756281,0.10863369994331151,1.0043875999981537,1503.452301000012,1507.903435699991,,,,,,,,,,,,,,,,,,,,,,,,,,,,,3,D,2023-12-05_11h11.55.285,gca_avoidance_task,2022.2.4,143.90911849160275,
positions.xlsx,stimuli.xlsx,stimuli/Social2.png,stimuli/Social1.png,stimuli/Nonsocial2.png,stimuli/Nonsocial1.png,,"(0.7, -0.5)",cs_minus_s,,,,,0,0,0,0,,,,,,,,,3,3,51,7,,,,,,,,,,,,,,,,,,,,,,,,,,,,,,,,,,,,,,,,,,,,,,,,,,,,,,,,,,1508.4103325000033,1509.6464365000138,1507.903435699991,1509.6464365000138,1509.6464365000138,1509.6464365000138,0.006271400023251772,0.012894900050014257,205,reward,1,[0.4025129000656307],[0.4025167999789119],1510.0560892000794,1510.0560892000794,0.007374699926003814,0.007374699926003814,0.018443999928422272,0.05313919996842742,0.0601340999128297,0.10182139999233186,0.10877239995170385,1.0045141999144107,1513.5490407000761,1518.0002829000587,,,,,,,,,,,,,,,,,,,,,,,,,,,,,3,D,2023-12-05_11h11.55.285,gca_avoidance_task,2022.2.4,143.90911849160275,
positions.xlsx,stimuli.xlsx,stimuli/Social2.png,stimuli/Social1.png,stimuli/Nonsocial2.png,stimuli/Nonsocial1.png,,"(0.7, 0.5)",cs_minus_s,,,,,0,0,0,0,,,,,,,,,3,4,52,6,,,,,,,,,,,,,,,,,,,,,,,,,,,,,,,,,,,,,,,,,,,,,,,,,,,,,,,,,,1518.5071533999871,1520.0140361000085,1518.0002829000587,1520.0140361000085,1520.0140361000085,1520.0140361000085,0.005660700029693544,0.013486000010743737,210,reward,1,[0.41018859995529056],[0.4101930999895558],1520.4306705000345,1520.4306705000345,0.007935900008305907,0.007935900008305907,0.018052999977953732,0.05279250000603497,0.059710799949243665,0.10134059994015843,0.10832210001535714,1.0041127000004053,1523.9236907000886,1528.3470607000636,,,,,,,,,,,,,,,,,,,,,,,,,,,,,3,D,2023-12-05_11h11.55.285,gca_avoidance_task,2022.2.4,143.90911849160275,
positions.xlsx,stimuli.xlsx,stimuli/Social2.png,stimuli/Social1.png,stimuli/Nonsocial2.png,stimuli/Nonsocial1.png,,"(-0.7, 0.5)",cs_minus_s,,,,,0,0,0,0,,,,,,,,,3,5,53,4,,,,,,,,,,,,,,,,,,,,,,,,,,,,,,,,,,,,,,,,,,,,,,,,,,,,,,,,,,1528.8539122000802,1530.2983341000509,1528.3470607000636,1530.2983341000509,1530.2983341000509,1530.2983341000509,0.005937699927017093,0.013076799921691418,215,reward,1,[0.5071476999437436],[0.5071516999742016],1530.8122303000418,1530.8122303000418,0.00771009991876781,0.00771009991876781,0.018669300014153123,0.053302999935112894,0.06029189995024353,0.10193050000816584,0.10886379994917661,1.0047159999376163,1534.305208900012,1538.3328105000546,,,,,,,,,,,,,,,,,,,,,,,,,,,,,3,D,2023-12-05_11h11.55.285,gca_avoidance_task,2022.2.4,143.90911849160275,
positions.xlsx,stimuli.xlsx,stimuli/Social2.png,stimuli/Social1.png,stimuli/Nonsocial2.png,stimuli/Nonsocial1.png,,"(0.7, -0.5)",cs_plus_s,,,,,0,0,0,0,,,,,,,,,3,6,54,3,,,,,,,,,,,,,,,,,,,,,,,,,,,,,,,,,,,,,,,,,,,,,,,,,,,,,,,,,,1538.8396771000698,1540.2076418000506,1538.3328105000546,1540.2076418000506,1540.2076418000506,1540.2076418000506,0.0063541000708937645,0.013046800042502582,215,none,0,,,1545.214381900034,1545.214381900034,0.012778999982401729,0.012778999982401729,0.019746600068174303,0.054531199974007905,0.061383399995975196,0.10305360006168485,0.10998770000878721,1.0127510000020266,1548.7073749999981,1553.1307644000044,,,,,,,,,,,,,,,,,,,,,,,,,,,,,3,D,2023-12-05_11h11.55.285,gca_avoidance_task,2022.2.4,143.90911849160275,
positions.xlsx,stimuli.xlsx,stimuli/Social2.png,stimuli/Social1.png,stimuli/Nonsocial2.png,stimuli/Nonsocial1.png,,"(-0.7, 0.5)",cs_plus_ns,,,,,0,0,0,0,,,,,,,,,3,7,55,8,,,,,,,,,,,,,,,,,,,,,,,,,,,,,,,,,,,,,,,,,,,,,,,,,,,,,,,,,,1553.6376601000084,1555.2139390000375,1553.1307644000044,1555.2139390000375,1555.2139390000375,1555.2139390000375,0.0063603000016883016,0.013505100039765239,215,shock,1,[0.3477027000626549],[0.347706799977459],1555.5681243001018,1555.5681243001018,0.0074148999992758036,0.0074148999992758036,0.018496999982744455,0.053209800040349364,0.06019760004710406,0.1017932000104338,0.1087678000330925,1.004559800028801,1559.0611073999899,1562.8664649000857,,,,,,,,,,,,,,,,,,,,,,,,,,,,,3,D,2023-12-05_11h11.55.285,gca_avoidance_task,2022.2.4,143.90911849160275,
positions.xlsx,stimuli.xlsx,stimuli/Social2.png,stimuli/Social1.png,stimuli/Nonsocial2.png,stimuli/Nonsocial1.png,,"(-0.7, -0.5)",cs_plus_ns,,,,,0,0,0,0,,,,,,,,,3,8,56,9,,,,,,,,,,,,,,,,,,,,,,,,,,,,,,,,,,,,,,,,,,,,,,,,,,,,,,,,,,1563.3733577000676,1565.2899480999913,1562.8664649000857,1565.2899480999913,1565.2899480999913,1565.2899480999913,0.00649529998190701,0.013289199909195304,215,none,0,,,1570.2966920000035,1570.2966920000035,0.014505899976938963,0.014505899976938963,0.02001629990991205,0.05466399993747473,0.06164679990615696,0.10331399994902313,0.11029049998614937,1.012983899912797,1573.789659400005,1578.136665500002,,,,,,,,,,,,,,,,,,,,,,,,,,,,,3,D,2023-12-05_11h11.55.285,gca_avoidance_task,2022.2.4,143.90911849160275,
positions.xlsx,stimuli.xlsx,stimuli/Social2.png,stimuli/Social1.png,stimuli/Nonsocial2.png,stimuli/Nonsocial1.png,,"(-0.7, -0.5)",cs_plus_s,,,,,0,0,0,0,,,,,,,,,3,9,57,1,,,,,,,,,,,,,,,,,,,,,,,,,,,,,,,,,,,,,,,,,,,,,,,,,,,,,,,,,,1578.6435984000564,1580.525440700003,1578.136665500002,1580.525440700003,1580.525440700003,1580.525440700003,0.005634900066070259,0.013230700045824051,215,none,0,,,1585.532200400019,1585.532200400019,0.013333500013686717,0.013333500013686717,0.020001100027002394,0.0546755000250414,0.06161870004143566,0.10327249998226762,0.11028780008200556,1.0129971000133082,1589.025092100026,1593.3443480000133,,,,,,,,,,,,,,,,,,,,,,,,,,,,,3,D,2023-12-05_11h11.55.285,gca_avoidance_task,2022.2.4,143.90911849160275,
positions.xlsx,stimuli.xlsx,stimuli/Social2.png,stimuli/Social1.png,stimuli/Nonsocial2.png,stimuli/Nonsocial1.png,,"(0.7, 0.5)",cs_plus_s,,,,,0,0,0,0,,,,,,,,,3,10,58,2,,,,,,,,,,,,,,,,,,,,,,,,,,,,,,,,,,,,,,,,,,,,,,,,,,,,,,,,,,1593.8512308000354,1594.955440800055,1593.3443480000133,1594.955440800055,1594.955440800055,1594.955440800055,0.005943299969658256,0.01315189991146326,215,none,0,,,1599.9621239000699,1599.9621239000699,0.01318159990478307,0.01318159990478307,0.019812399987131357,0.0544817999470979,0.061459099990315735,0.10311849997378886,0.11005809996277094,1.01280789996963,1603.45510380005,1607.614601700101,,,,,,,,,,,,,,,,,,,,,,,,,,,,,3,D,2023-12-05_11h11.55.285,gca_avoidance_task,2022.2.4,143.90911849160275,
positions.xlsx,stimuli.xlsx,stimuli/Social2.png,stimuli/Social1.png,stimuli/Nonsocial2.png,stimuli/Nonsocial1.png,,"(0.7, -0.5)",cs_minus_ns,,,,,0,0,0,0,,,,,,,,,3,11,59,15,,,,,,,,,,,,,,,,,,,,,,,,,,,,,,,,,,,,,,,,,,,,,,,,,,,,,,,,,,1608.1215051000472,1609.892289899988,1607.614601700101,1609.892289899988,1609.892289899988,1609.892289899988,0.006391800008714199,0.013044700026512146,220,reward,1,[0.5902384000364691],[0.5902423000661656],1610.489516200032,1610.489516200032,0.007840199978090823,0.007840199978090823,0.018190299975685775,0.052812400041148067,0.05976009997539222,0.10146719997283071,0.10841999994590878,1.0041807999368757,1613.9824247000506,1618.239157000091,,,,,,,,,,,,,,,,,,,,,,,,,,,,,3,D,2023-12-05_11h11.55.285,gca_avoidance_task,2022.2.4,143.90911849160275,
positions.xlsx,stimuli.xlsx,stimuli/Social2.png,stimuli/Social1.png,stimuli/Nonsocial2.png,stimuli/Nonsocial1.png,,"(-0.7, -0.5)",cs_minus_ns,,,,,0,0,0,0,,,,,,,,,3,12,60,13,,,,,,,,,,,,,,,,,,,,,,,,,,,,,,,,,,,,,,,,,,,,,,,,,,,,,,,,,,1618.7460641000653,1620.627937000012,1618.239157000091,1620.627937000012,1620.627937000012,1620.627937000012,0.006764099933207035,0.013067499967291951,225,reward,1,[0.42424079996999353],[0.4242448000004515],1621.0585509000812,1621.0585509000812,0.007889000000432134,0.007889000000432134,0.018190299975685775,0.052746000001206994,0.059691700036637485,0.10137469996698201,0.10835490003228188,1.0041866999818012,1624.551454700064,1628.7596059000352,,,,,,,,,,,,,,,,,,,,,,,,,,,,,3,D,2023-12-05_11h11.55.285,gca_avoidance_task,2022.2.4,143.90911849160275,
positions.xlsx,stimuli.xlsx,stimuli/Social2.png,stimuli/Social1.png,stimuli/Nonsocial2.png,stimuli/Nonsocial1.png,,"(0.7, 0.5)",cs_plus_ns,,,,,0,0,0,0,,,,,,,,,3,13,61,10,,,,,,,,,,,,,,,,,,,,,,,,,,,,,,,,,,,,,,,,,,,,,,,,,,,,,,,,,,1629.2664903000696,1631.113648800063,1628.7596059000352,1631.113648800063,1631.113648800063,1631.113648800063,0.00638890010304749,0.013206500094383955,225,shock,1,[0.38197020010557026],[0.3819742000196129],1631.5024890000932,1631.5024890000932,0.007784000015817583,0.007784000015817583,0.01855529996100813,0.053195100044831634,0.06012479995843023,0.10179230000358075,0.1088230999885127,1.004546600044705,1634.9954750000034,1639.0022241000552,,,,,,,,,,,,,,,,,,,,,,,,,,,,,3,D,2023-12-05_11h11.55.285,gca_avoidance_task,2022.2.4,143.90911849160275,
positions.xlsx,stimuli.xlsx,stimuli/Social2.png,stimuli/Social1.png,stimuli/Nonsocial2.png,stimuli/Nonsocial1.png,,"(-0.7, -0.5)",cs_minus_s,,,,,0,0,0,0,,,,,,,,,3,14,62,5,,,,,,,,,,,,,,,,,,,,,,,,,,,,,,,,,,,,,,,,,,,,,,,,,,,,,,,,,,1639.5090668000048,1640.7034929000074,1639.0022241000552,1640.7034929000074,1640.7034929000074,1640.7034929000074,0.005888800020329654,0.013231800054199994,230,reward,1,[0.5281273999717087],[0.5281316000036895],1641.2381961999927,1641.2381961999927,0.007049700012430549,0.007049700012430549,0.018169199931435287,0.05285350000485778,0.05977249995339662,0.10142379999160767,0.10838610003702343,1.0041889999993145,1644.7311114000622,1648.5990345000755,,,,,,,,,,,,,,,,,,,,,,,,,,,,,3,D,2023-12-05_11h11.55.285,gca_avoidance_task,2022.2.4,143.90911849160275,
positions.xlsx,stimuli.xlsx,stimuli/Social2.png,stimuli/Social1.png,stimuli/Nonsocial2.png,stimuli/Nonsocial1.png,,"(-0.7, 0.5)",cs_minus_ns,,,,,0,0,0,0,,,,,,,,,3,15,63,12,,,,,,,,,,,,,,,,,,,,,,,,,,,,,,,,,,,,,,,,,,,,,,,,,,,,,,,,,,1649.1058960000519,1651.0920108000282,1648.5990345000755,1651.0920108000282,1651.0920108000282,1651.0920108000282,0.0062608999432995915,0.01316259999293834,235,reward,1,[0.3890160999726504],[0.38902049988973886],1651.4877666000975,1651.4877666000975,0.00738279998768121,0.00738279998768121,0.018597999936901033,0.053278999985195696,0.06025229999795556,0.10190140001941472,0.10880489996634424,1.0046037000138313,1654.980738800019,1659.1611132000107,,,,,,,,,,,,,,,,,,,,,,,,,,,,,3,D,2023-12-05_11h11.55.285,gca_avoidance_task,2022.2.4,143.90911849160275,
positions.xlsx,stimuli.xlsx,stimuli/Social2.png,stimuli/Social1.png,stimuli/Nonsocial2.png,stimuli/Nonsocial1.png,,"(0.7, -0.5)",cs_minus_ns,,,,,0,0,0,0,,,,,,,,,4,0,64,15,,,,,,,,,,,,,,,,,,,,,,,,,,,,,,,,,,,,,,,,,,,,,,,,,,,,,,,,,,1659.6679998000618,1661.0845815000357,1659.1611132000107,1661.0845815000357,1661.0845815000357,1661.0845815000357,0.007097200024873018,0.013258600025437772,240,reward,1,[0.5840316999237984],[0.5840358999557793],1661.6748529000906,1661.6748529000906,0.007466200040653348,0.007466200040653348,0.018254399998113513,0.052929800003767014,0.05984070000704378,0.10153210000135005,0.10847480001393706,1.004289700067602,1665.1677827000385,1669.306530800066,,,,,,,,,,,,,,,,,,,,,,,,,,,,,3,D,2023-12-05_11h11.55.285,gca_avoidance_task,2022.2.4,143.90911849160275,
positions.xlsx,stimuli.xlsx,stimuli/Social2.png,stimuli/Social1.png,stimuli/Nonsocial2.png,stimuli/Nonsocial1.png,,"(0.7, -0.5)",cs_plus_ns,,,,,0,0,0,0,,,,,,,,,4,1,65,11,,,,,,,,,,,,,,,,,,,,,,,,,,,,,,,,,,,,,,,,,,,,,,,,,,,,,,,,,,1669.8134377000388,1671.702253800002,1669.306530800066,1671.702253800002,1671.702253800002,1671.702253800002,0.00642859993968159,0.01289579994045198,240,none,0,,,1676.7089457000839,1676.7089457000839,0.013376699993386865,0.013376699993386865,0.019615099998191,0.05428269994445145,0.061218899907544255,0.1028833999298513,0.10988399991765618,1.0125458999536932,1680.2018674000865,1684.2364831999876,,,,,,,,,,,,,,,,,,,,,,,,,,,,,3,D,2023-12-05_11h11.55.285,gca_avoidance_task,2022.2.4,143.90911849160275,
positions.xlsx,stimuli.xlsx,stimuli/Social2.png,stimuli/Social1.png,stimuli/Nonsocial2.png,stimuli/Nonsocial1.png,,"(-0.7, 0.5)",cs_plus_s,,,,,0,0,0,0,,,,,,,,,4,2,66,0,,,,,,,,,,,,,,,,,,,,,,,,,,,,,,,,,,,,,,,,,,,,,,,,,,,,,,,,,,1684.7433677000226,1686.0418673000531,1684.2364831999876,1686.0418673000531,1686.0418673000531,1686.0418673000531,0.005942299962043762,0.013258300023153424,240,none,0,,,1691.0486439000815,1691.0486439000815,0.01335209992248565,0.01335209992248565,0.020030700019560754,0.0546801999444142,0.06165269995108247,0.10329649993218482,0.1102435999782756,1.013024099986069,1694.5416405000724,1698.2150050000055,,,,,,,,,,,,,,,,,,,,,,,,,,,,,3,D,2023-12-05_11h11.55.285,gca_avoidance_task,2022.2.4,143.90911849160275,
positions.xlsx,stimuli.xlsx,stimuli/Social2.png,stimuli/Social1.png,stimuli/Nonsocial2.png,stimuli/Nonsocial1.png,,"(0.7, -0.5)",cs_minus_s,,,,,0,0,0,0,,,,,,,,,4,3,67,7,,,,,,,,,,,,,,,,,,,,,,,,,,,,,,,,,,,,,,,,,,,,,,,,,,,,,,,,,,1698.7218977999873,1699.881600700086,1698.2150050000055,1699.881600700086,1699.881600700086,1699.881600700086,0.0057351000141352415,0.01316400000359863,245,reward,1,[0.5281455999938771],[0.5281646000221372],1700.4163029000629,1700.4163029000629,0.007432399899698794,0.007432399899698794,0.018188899965025485,0.05281349993310869,0.05975569994188845,0.10148449998814613,0.10844859993085265,1.0042240999173373,1703.9092723000795,1707.4994077000301,,,,,,,,,,,,,,,,,,,,,,,,,,,,,3,D,2023-12-05_11h11.55.285,gca_avoidance_task,2022.2.4,143.90911849160275,
positions.xlsx,stimuli.xlsx,stimuli/Social2.png,stimuli/Social1.png,stimuli/Nonsocial2.png,stimuli/Nonsocial1.png,,"(-0.7, 0.5)",cs_plus_ns,,,,,0,0,0,0,,,,,,,,,4,4,68,8,,,,,,,,,,,,,,,,,,,,,,,,,,,,,,,,,,,,,,,,,,,,,,,,,,,,,,,,,,1708.006277800072,1709.7561847000616,1707.4994077000301,1709.7561847000616,1709.7561847000616,1709.7561847000616,0.006369700073264539,0.013053799979388714,245,none,0,,,1714.7629246000433,1714.7629246000433,0.013557799975387752,0.013557799975387752,0.019843699992634356,0.05449550005141646,0.061474099988117814,0.10309510002844036,0.11007090006023645,1.0128330000443384,1718.2558712000027,1721.8876681000693,,,,,,,,,,,,,,,,,,,,,,,,,,,,,3,D,2023-12-05_11h11.55.285,gca_avoidance_task,2022.2.4,143.90911849160275,
positions.xlsx,stimuli.xlsx,stimuli/Social2.png,stimuli/Social1.png,stimuli/Nonsocial2.png,stimuli/Nonsocial1.png,,"(-0.7, -0.5)",cs_plus_s,,,,,0,0,0,0,,,,,,,,,4,5,69,1,,,,,,,,,,,,,,,,,,,,,,,,,,,,,,,,,,,,,,,,,,,,,,,,,,,,,,,,,,1722.3945381999947,1723.998643500032,1721.8876681000693,1723.998643500032,1723.998643500032,1723.998643500032,0.005631100037135184,0.013341200072318316,245,none,0,,,1729.0053612000775,1729.0053612000775,0.01349470007698983,0.01349470007698983,0.020163899986073375,0.0547763000940904,0.06170910003129393,0.10339430009480566,0.11033580009825528,1.013067900086753,1732.498369900044,1736.5051476000808,,,,,,,,,,,,,,,,,,,,,,,,,,,,,3,D,2023-12-05_11h11.55.285,gca_avoidance_task,2022.2.4,143.90911849160275,
positions.xlsx,stimuli.xlsx,stimuli/Social2.png,stimuli/Social1.png,stimuli/Nonsocial2.png,stimuli/Nonsocial1.png,,"(-0.7, 0.5)",cs_minus_s,,,,,0,0,0,0,,,,,,,,,4,6,70,4,,,,,,,,,,,,,,,,,,,,,,,,,,,,,,,,,,,,,,,,,,,,,,,,,,,,,,,,,,1737.0120183000108,1738.720300200046,1736.5051476000808,1738.720300200046,1738.720300200046,1738.720300200046,0.0057339000049978495,0.012918799999170005,250,reward,1,[0.42344170005526394],[0.4234461000887677],1739.1508716000244,1739.1508716000244,0.007230299990624189,0.007230299990624189,0.018852800014428794,0.05354370002169162,0.06045410002116114,0.102146300021559,0.10915209993254393,1.004890999989584,1742.6437308000168,1746.9630410000682,,,,,,,,,,,,,,,,,,,,,,,,,,,,,3,D,2023-12-05_11h11.55.285,gca_avoidance_task,2022.2.4,143.90911849160275,
positions.xlsx,stimuli.xlsx,stimuli/Social2.png,stimuli/Social1.png,stimuli/Nonsocial2.png,stimuli/Nonsocial1.png,,"(-0.7, -0.5)",cs_minus_s,,,,,0,0,0,0,,,,,,,,,4,7,71,5,,,,,,,,,,,,,,,,,,,,,,,,,,,,,,,,,,,,,,,,,,,,,,,,,,,,,,,,,,1747.4698984000133,1748.6365275999997,1746.9630410000682,1748.6365275999997,1748.6365275999997,1748.6365275999997,0.005625199992209673,0.013165000011213124,255,reward,1,[0.38913769996725023],[0.3891418999992311],1749.0323639000999,1749.0323639000999,0.007044000085443258,0.007044000085443258,0.01807250001002103,0.05274830001872033,0.05974330008029938,0.1013954000081867,0.10828599997330457,1.0041000000201166,1752.5253207000205,1756.552904900047,,,,,,,,,,,,,,,,,,,,,,,,,,,,,3,D,2023-12-05_11h11.55.285,gca_avoidance_task,2022.2.4,143.90911849160275,
positions.xlsx,stimuli.xlsx,stimuli/Social2.png,stimuli/Social1.png,stimuli/Nonsocial2.png,stimuli/Nonsocial1.png,,"(0.7, 0.5)",cs_minus_ns,,,,,0,0,0,0,,,,,,,,,4,8,72,14,,,,,,,,,,,,,,,,,,,,,,,,,,,,,,,,,,,,,,,,,,,,,,,,,,,,,,,,,,1757.0597601000918,1758.5666663000593,1756.552904900047,1758.5666663000593,1758.5666663000593,1758.5666663000593,0.0064798000967130065,0.013437700108624995,260,reward,1,[0.4797384000848979],[0.4797456000233069],1759.0527949000243,1759.0527949000243,0.007290399982593954,0.007290399982593954,0.01818949996959418,0.05284689995460212,0.05981339991558343,0.10148089996073395,0.10841879993677139,1.0041662999428809,1762.545735700056,1766.8719712999882,,,,,,,,,,,,,,,,,,,,,,,,,,,,,3,D,2023-12-05_11h11.55.285,gca_avoidance_task,2022.2.4,143.90911849160275,
