posFile,stimFile,cs_plus_s,cs_minus_s,cs_plus_ns,cs_minus_ns,stimtype,position,trialtype,trials_threshold.thisRepN,trials_threshold.thisTrialN,trials_threshold.thisN,trials_threshold.thisIndex,blocks.thisRepN,blocks.thisTrialN,blocks.thisN,blocks.thisIndex,ratingtrials1.thisRepN,ratingtrials1.thisTrialN,ratingtrials1.thisN,ratingtrials1.thisIndex,learning_trials.thisRepN,learning_trials.thisTrialN,learning_trials.thisN,learning_trials.thisIndex,trials.thisRepN,trials.thisTrialN,trials.thisN,trials.thisIndex,ratingtrials2.thisRepN,ratingtrials2.thisTrialN,ratingtrials2.thisN,ratingtrials2.thisIndex,testtrials.thisRepN,testtrials.thisTrialN,testtrials.thisN,testtrials.thisIndex,ratingtrials3.thisRepN,ratingtrials3.thisTrialN,ratingtrials3.thisN,ratingtrials3.thisIndex,textStart.started,sliderPainT.response,sliderPainT.rt,textStartExp.started,imageRating.started,sliderStim.response,sliderStim.rt,textStartTask.started,image.started,score,outcome,roi.numLooks,roi.timesOn,roi.timesOff,imageFeedback.started,sliderPain.response,sliderPain.rt,textTestInstr.started,imageTest.started,roiTest.numLooks,roiTest.timesOn,roiTest.timesOff,participant,group,date,expName,psychopyVersion,frameRate,
,,,,,,,,,0,0,0,0,,,,,,,,,,,,,,,,,,,,,,,,,,,,,14.384439899935387,None,None,,,,,,,,,,,,,,,,,,,,24,A,2023-12-13_16h00.52.951,gca_avoidance_task,2022.2.4,143.99324973279747,
,,,,,,,,,1,0,1,0,,,,,,,,,,,,,,,,,,,,,,,,,,,,,,1.0,21.648323399946094,,,,,,,,,,,,,,,,,,,,24,A,2023-12-13_16h00.52.951,gca_avoidance_task,2022.2.4,143.99324973279747,
,,,,,,,,,2,0,2,0,,,,,,,,,,,,,,,,,,,,,,,,,,,,,,1.0,2.2984837000258267,,,,,,,,,,,,,,,,,,,,24,A,2023-12-13_16h00.52.951,gca_avoidance_task,2022.2.4,143.99324973279747,
,,,,,,,,,3,0,3,0,,,,,,,,,,,,,,,,,,,,,,,,,,,,,,1.0,2.2709751999937,,,,,,,,,,,,,,,,,,,,24,A,2023-12-13_16h00.52.951,gca_avoidance_task,2022.2.4,143.99324973279747,
,,,,,,,,,4,0,4,0,,,,,,,,,,,,,,,,,,,,,,,,,,,,,,3.0,4.45538449997548,,,,,,,,,,,,,,,,,,,,24,A,2023-12-13_16h00.52.951,gca_avoidance_task,2022.2.4,143.99324973279747,
,,,,,,,,,5,0,5,0,,,,,,,,,,,,,,,,,,,,,,,,,,,,,,3.0,1.5284601000603288,,,,,,,,,,,,,,,,,,,,24,A,2023-12-13_16h00.52.951,gca_avoidance_task,2022.2.4,143.99324973279747,
,,,,,,,,,6,0,6,0,,,,,,,,,,,,,,,,,,,,,,,,,,,,,,4.0,2.3121028000023216,,,,,,,,,,,,,,,,,,,,24,A,2023-12-13_16h00.52.951,gca_avoidance_task,2022.2.4,143.99324973279747,
,,,,,,,,,7,0,7,0,,,,,,,,,,,,,,,,,,,,,,,,,,,,,,5.0,1.1516370000317693,,,,,,,,,,,,,,,,,,,,24,A,2023-12-13_16h00.52.951,gca_avoidance_task,2022.2.4,143.99324973279747,
,,,,,,,,,8,0,8,0,,,,,,,,,,,,,,,,,,,,,,,,,,,,,,7.0,1.024523599888198,,,,,,,,,,,,,,,,,,,,24,A,2023-12-13_16h00.52.951,gca_avoidance_task,2022.2.4,143.99324973279747,
,,,,,,,,,9,0,9,0,,,,,,,,,,,,,,,,,,,,,,,,,,,,,,7.0,3.974911500001326,,,,,,,,,,,,,,,,,,,,24,A,2023-12-13_16h00.52.951,gca_avoidance_task,2022.2.4,143.99324973279747,
,,,,,,,,,10,0,10,0,,,,,,,,,,,,,,,,,,,,,,,,,,,,,,5.0,3.164066500030458,,,,,,,,,,,,,,,,,,,,24,A,2023-12-13_16h00.52.951,gca_avoidance_task,2022.2.4,143.99324973279747,
,,,,,,,,,11,0,11,0,,,,,,,,,,,,,,,,,,,,,,,,,,,,,,6.0,2.202266500098631,,,,,,,,,,,,,,,,,,,,24,A,2023-12-13_16h00.52.951,gca_avoidance_task,2022.2.4,143.99324973279747,
,,,,,,,,,12,0,12,0,,,,,,,,,,,,,,,,,,,,,,,,,,,,,,8.0,1.4216149999992922,,,,,,,,,,,,,,,,,,,,24,A,2023-12-13_16h00.52.951,gca_avoidance_task,2022.2.4,143.99324973279747,
,,,,,,,,,13,0,13,0,,,,,,,,,,,,,,,,,,,,,,,,,,,,,,5.0,3.476136599900201,,,,,,,,,,,,,,,,,,,,24,A,2023-12-13_16h00.52.951,gca_avoidance_task,2022.2.4,143.99324973279747,
,,,,,,,,,14,0,14,0,,,,,,,,,,,,,,,,,,,,,,,,,,,,,,7.0,1.0459988999646157,,,,,,,,,,,,,,,,,,,,24,A,2023-12-13_16h00.52.951,gca_avoidance_task,2022.2.4,143.99324973279747,
,,,,,,,,,15,0,15,0,,,,,,,,,,,,,,,,,,,,,,,,,,,,,,5.0,1.2600259999744594,,,,,,,,,,,,,,,,,,,,24,A,2023-12-13_16h00.52.951,gca_avoidance_task,2022.2.4,143.99324973279747,
,,,,,,,,,16,0,16,0,,,,,,,,,,,,,,,,,,,,,,,,,,,,,,8.0,1.7500559999607503,,,,,,,,,,,,,,,,,,,,24,A,2023-12-13_16h00.52.951,gca_avoidance_task,2022.2.4,143.99324973279747,
,,,,,,,,,17,0,17,0,,,,,,,,,,,,,,,,,,,,,,,,,,,,,,7.0,1.7341636000201106,,,,,,,,,,,,,,,,,,,,24,A,2023-12-13_16h00.52.951,gca_avoidance_task,2022.2.4,143.99324973279747,
,,,,,,,,,18,0,18,0,,,,,,,,,,,,,,,,,,,,,,,,,,,,,,6.0,2.653352199937217,,,,,,,,,,,,,,,,,,,,24,A,2023-12-13_16h00.52.951,gca_avoidance_task,2022.2.4,143.99324973279747,
,,,,,,,,,19,0,19,0,,,,,,,,,,,,,,,,,,,,,,,,,,,,,,None,None,,,,,,,,,,,,,,,,,,,,24,A,2023-12-13_16h00.52.951,gca_avoidance_task,2022.2.4,143.99324973279747,
positions.xlsx,stimuli.xlsx,stimuli/Social1.png,stimuli/Social2.png,stimuli/Nonsocial1.png,stimuli/Nonsocial2.png,cs_plus_s,,,,,,,0,0,0,0,0,0,0,0,,,,,,,,,,,,,,,,,,,,,,,,552.2550104999682,565.1265864999732,6.0,5.4470662999665365,,,,,,,,,,,,,,,,24,A,2023-12-13_16h00.52.951,gca_avoidance_task,2022.2.4,143.99324973279747,
positions.xlsx,stimuli.xlsx,stimuli/Social1.png,stimuli/Social2.png,stimuli/Nonsocial1.png,stimuli/Nonsocial2.png,cs_minus_ns,,,,,,,0,0,0,0,0,1,1,3,,,,,,,,,,,,,,,,,,,,,,,,,572.3624420999549,10.0,5.437885700026527,,,,,,,,,,,,,,,,24,A,2023-12-13_16h00.52.951,gca_avoidance_task,2022.2.4,143.99324973279747,
positions.xlsx,stimuli.xlsx,stimuli/Social1.png,stimuli/Social2.png,stimuli/Nonsocial1.png,stimuli/Nonsocial2.png,cs_minus_s,,,,,,,0,0,0,0,0,2,2,2,,,,,,,,,,,,,,,,,,,,,,,,,579.3065836000023,7.0,3.944819299969822,,,,,,,,,,,,,,,,24,A,2023-12-13_16h00.52.951,gca_avoidance_task,2022.2.4,143.99324973279747,
positions.xlsx,stimuli.xlsx,stimuli/Social1.png,stimuli/Social2.png,stimuli/Nonsocial1.png,stimuli/Nonsocial2.png,cs_plus_ns,,,,,,,0,0,0,0,0,3,3,1,,,,,,,,,,,,,,,,,,,,,,,,,584.320284599904,10.0,3.0910902000032365,,,,,,,,,,,,,,,,24,A,2023-12-13_16h00.52.951,gca_avoidance_task,2022.2.4,143.99324973279747,
positions.xlsx,stimuli.xlsx,stimuli/Social1.png,stimuli/Social2.png,stimuli/Nonsocial1.png,stimuli/Nonsocial2.png,,"(0.7, 0.5)",cs_plus_ns,,,,,0,0,0,0,,,,,0,0,0,10,,,,,,,,,,,,,,,,,,,,,,,,588.3826832999475,613.1455259999493,0,shock,1,0.2849985999055207,0.2850022999336943,613.4371750999708,,,,,,,,24,A,2023-12-13_16h00.52.951,gca_avoidance_task,2022.2.4,143.99324973279747,
positions.xlsx,stimuli.xlsx,stimuli/Social1.png,stimuli/Social2.png,stimuli/Nonsocial1.png,stimuli/Nonsocial2.png,,"(-0.7, -0.5)",cs_minus_ns,,,,,0,0,0,0,,,,,0,1,1,13,,,,,,,,,,,,,,,,,,,,,,,,,623.1729425999802,5,reward,1,0.027972099953331053,0.02797579998150468,623.2076216998976,,,,,,,,24,A,2023-12-13_16h00.52.951,gca_avoidance_task,2022.2.4,143.99324973279747,
positions.xlsx,stimuli.xlsx,stimuli/Social1.png,stimuli/Social2.png,stimuli/Nonsocial1.png,stimuli/Nonsocial2.png,,"(-0.7, 0.5)",cs_minus_ns,,,,,0,0,0,0,,,,,0,2,2,12,,,,,,,,,,,,,,,,,,,,,,,,,633.2211376999039,10,reward,1,0.25723039999138564,0.25723410001955926,633.4850424999604,,,,,,,,24,A,2023-12-13_16h00.52.951,gca_avoidance_task,2022.2.4,143.99324973279747,
positions.xlsx,stimuli.xlsx,stimuli/Social1.png,stimuli/Social2.png,stimuli/Nonsocial1.png,stimuli/Nonsocial2.png,,"(-0.7, -0.5)",cs_minus_s,,,,,0,0,0,0,,,,,0,3,3,5,,,,,,,,,,,,,,,,,,,,,,,,,642.9082669999916,15,reward,1,0.22256360005121678,0.22256709996145219,643.1374211999355,,,,,,,,24,A,2023-12-13_16h00.52.951,gca_avoidance_task,2022.2.4,143.99324973279747,
positions.xlsx,stimuli.xlsx,stimuli/Social1.png,stimuli/Social2.png,stimuli/Nonsocial1.png,stimuli/Nonsocial2.png,,"(0.7, -0.5)",cs_plus_s,,,,,0,0,0,0,,,,,0,4,4,3,,,,,,,,,,,,,,,,,,,,,,,,,653.0328424999025,15,shock,1,0.2291735999751836,0.22917720000259578,653.2689498999389,,,,,,,,24,A,2023-12-13_16h00.52.951,gca_avoidance_task,2022.2.4,143.99324973279747,
positions.xlsx,stimuli.xlsx,stimuli/Social1.png,stimuli/Social2.png,stimuli/Nonsocial1.png,stimuli/Nonsocial2.png,,"(0.7, -0.5)",cs_minus_ns,,,,,0,0,0,0,,,,,0,5,5,15,,,,,,,,,,,,,,,,,,,,,,,,,662.3102506999858,20,reward,1,0.236475299927406,0.23647899995557964,662.5533394999802,,,,,,,,24,A,2023-12-13_16h00.52.951,gca_avoidance_task,2022.2.4,143.99324973279747,
positions.xlsx,stimuli.xlsx,stimuli/Social1.png,stimuli/Social2.png,stimuli/Nonsocial1.png,stimuli/Nonsocial2.png,,"(0.7, -0.5)",cs_minus_s,,,,,0,0,0,0,,,,,0,6,6,7,,,,,,,,,,,,,,,,,,,,,,,,,672.0737810999854,25,reward,1,0.20125909999478608,0.2012628000229597,672.2820879999781,,,,,,,,24,A,2023-12-13_16h00.52.951,gca_avoidance_task,2022.2.4,143.99324973279747,
positions.xlsx,stimuli.xlsx,stimuli/Social1.png,stimuli/Social2.png,stimuli/Nonsocial1.png,stimuli/Nonsocial2.png,,"(-0.7, -0.5)",cs_plus_ns,,,,,0,0,0,0,,,,,0,7,7,9,,,,,,,,,,,,,,,,,,,,,,,,,681.7122717999155,25,shock,1,0.29880560003221035,0.298809300060384,682.0177921999712,,,,,,,,24,A,2023-12-13_16h00.52.951,gca_avoidance_task,2022.2.4,143.99324973279747,
positions.xlsx,stimuli.xlsx,stimuli/Social1.png,stimuli/Social2.png,stimuli/Nonsocial1.png,stimuli/Nonsocial2.png,,"(0.7, 0.5)",cs_minus_ns,,,,,0,0,0,0,,,,,0,8,8,14,,,,,,,,,,,,,,,,,,,,,,,,,691.4480057999026,30,reward,1,0.38885270000901073,0.3888563000364229,691.8438562999945,,,,,,,,24,A,2023-12-13_16h00.52.951,gca_avoidance_task,2022.2.4,143.99324973279747,
positions.xlsx,stimuli.xlsx,stimuli/Social1.png,stimuli/Social2.png,stimuli/Nonsocial1.png,stimuli/Nonsocial2.png,,"(0.7, 0.5)",cs_minus_s,,,,,0,0,0,0,,,,,0,9,9,6,,,,,,,,,,,,,,,,,,,,,,,,,701.2184612998972,35,reward,1,0.23648850002791733,0.23649220005609095,701.4615303999744,,,,,,,,24,A,2023-12-13_16h00.52.951,gca_avoidance_task,2022.2.4,143.99324973279747,
positions.xlsx,stimuli.xlsx,stimuli/Social1.png,stimuli/Social2.png,stimuli/Nonsocial1.png,stimuli/Nonsocial2.png,,"(-0.7, -0.5)",cs_plus_s,,,,,0,0,0,0,,,,,0,10,10,1,,,,,,,,,,,,,,,,,,,,,,,,,710.8292212999659,35,shock,1,0.22965069999918342,0.22965460002887994,711.0652918999549,,,,,,,,24,A,2023-12-13_16h00.52.951,gca_avoidance_task,2022.2.4,143.99324973279747,
positions.xlsx,stimuli.xlsx,stimuli/Social1.png,stimuli/Social2.png,stimuli/Nonsocial1.png,stimuli/Nonsocial2.png,,"(-0.7, 0.5)",cs_plus_ns,,,,,0,0,0,0,,,,,0,11,11,8,,,,,,,,,,,,,,,,,,,,,,,,,721.2107343999669,35,shock,1,0.07684460002928972,0.0768484000582248,721.2940896999789,,,,,,,,24,A,2023-12-13_16h00.52.951,gca_avoidance_task,2022.2.4,143.99324973279747,
positions.xlsx,stimuli.xlsx,stimuli/Social1.png,stimuli/Social2.png,stimuli/Nonsocial1.png,stimuli/Nonsocial2.png,,"(0.7, 0.5)",cs_plus_s,,,,,0,0,0,0,,,,,0,12,12,2,,,,,,,,,,,,,,,,,,,,,,,,,730.3978592999047,35,shock,1,0.18782819993793964,0.18783199996687472,730.5923390999669,,,,,,,,24,A,2023-12-13_16h00.52.951,gca_avoidance_task,2022.2.4,143.99324973279747,
positions.xlsx,stimuli.xlsx,stimuli/Social1.png,stimuli/Social2.png,stimuli/Nonsocial1.png,stimuli/Nonsocial2.png,,"(-0.7, 0.5)",cs_minus_s,,,,,0,0,0,0,,,,,0,13,13,4,,,,,,,,,,,,,,,,,,,,,,,,,740.59190879995,40,reward,1,0.18771900003775954,0.18772280006669462,740.7863592999056,,,,,,,,24,A,2023-12-13_16h00.52.951,gca_avoidance_task,2022.2.4,143.99324973279747,
positions.xlsx,stimuli.xlsx,stimuli/Social1.png,stimuli/Social2.png,stimuli/Nonsocial1.png,stimuli/Nonsocial2.png,,"(-0.7, 0.5)",cs_plus_s,,,,,0,0,0,0,,,,,0,14,14,0,,,,,,,,,,,,,,,,,,,,,,,,,750.549806999974,40,shock,1,0.007318400079384446,0.0073219999903813004,750.549806999974,,,,,,,,24,A,2023-12-13_16h00.52.951,gca_avoidance_task,2022.2.4,143.99324973279747,
positions.xlsx,stimuli.xlsx,stimuli/Social1.png,stimuli/Social2.png,stimuli/Nonsocial1.png,stimuli/Nonsocial2.png,,"(0.7, -0.5)",cs_plus_ns,,,,,0,0,0,0,,,,,0,15,15,11,,,,,,,,,,,,,,,,,,,,,,,,,760.4036508999998,40,shock,1,0.25011290004476905,0.25011859997175634,760.6605858999537,,,,,,,,24,A,2023-12-13_16h00.52.951,gca_avoidance_task,2022.2.4,143.99324973279747,
positions.xlsx,stimuli.xlsx,stimuli/Social1.png,stimuli/Social2.png,stimuli/Nonsocial1.png,stimuli/Nonsocial2.png,,"(-0.7, -0.5)",cs_minus_s,,,,,0,0,0,0,,,,,1,0,16,5,,,,,,,,,,,,,,,,,,,,,,,,,770.576833399944,45,reward,1,0.2437136999797076,0.24371740000788122,770.8268377999775,,,,,,,,24,A,2023-12-13_16h00.52.951,gca_avoidance_task,2022.2.4,143.99324973279747,
positions.xlsx,stimuli.xlsx,stimuli/Social1.png,stimuli/Social2.png,stimuli/Nonsocial1.png,stimuli/Nonsocial2.png,,"(0.7, -0.5)",cs_minus_s,,,,,0,0,0,0,,,,,1,1,17,7,,,,,,,,,,,,,,,,,,,,,,,,,781.0833653999725,50,reward,1,0.4236335000023246,0.42363710002973676,781.5139166999143,,,,,,,,24,A,2023-12-13_16h00.52.951,gca_avoidance_task,2022.2.4,143.99324973279747,
positions.xlsx,stimuli.xlsx,stimuli/Social1.png,stimuli/Social2.png,stimuli/Nonsocial1.png,stimuli/Nonsocial2.png,,"(-0.7, 0.5)",cs_plus_ns,,,,,0,0,0,0,,,,,1,2,18,8,,,,,,,,,,,,,,,,,,,,,,,,,791.7912855999311,50,shock,1,0.2502096000825986,0.25021309999283403,792.0481987999519,,,,,,,,24,A,2023-12-13_16h00.52.951,gca_avoidance_task,2022.2.4,143.99324973279747,
positions.xlsx,stimuli.xlsx,stimuli/Social1.png,stimuli/Social2.png,stimuli/Nonsocial1.png,stimuli/Nonsocial2.png,,"(-0.7, 0.5)",cs_minus_ns,,,,,0,0,0,0,,,,,1,3,19,12,,,,,,,,,,,,,,,,,,,,,,,,,800.9576403999235,55,reward,1,0.27152029995340854,0.2715240999823436,801.2354023999069,,,,,,,,24,A,2023-12-13_16h00.52.951,gca_avoidance_task,2022.2.4,143.99324973279747,
positions.xlsx,stimuli.xlsx,stimuli/Social1.png,stimuli/Social2.png,stimuli/Nonsocial1.png,stimuli/Nonsocial2.png,,"(0.7, 0.5)",cs_minus_s,,,,,0,0,0,0,,,,,1,4,20,6,,,,,,,,,,,,,,,,,,,,,,,,,810.3947156999493,60,reward,1,0.2014796999283135,0.20148339995648712,810.6030525999377,,,,,,,,24,A,2023-12-13_16h00.52.951,gca_avoidance_task,2022.2.4,143.99324973279747,
positions.xlsx,stimuli.xlsx,stimuli/Social1.png,stimuli/Social2.png,stimuli/Nonsocial1.png,stimuli/Nonsocial2.png,,"(-0.7, 0.5)",cs_minus_s,,,,,0,0,0,0,,,,,1,5,21,4,,,,,,,,,,,,,,,,,,,,,,,,,820.0887780999765,65,reward,1,0.18790769996121526,0.18791159999091178,820.2832129999297,,,,,,,,24,A,2023-12-13_16h00.52.951,gca_avoidance_task,2022.2.4,143.99324973279747,
positions.xlsx,stimuli.xlsx,stimuli/Social1.png,stimuli/Social2.png,stimuli/Nonsocial1.png,stimuli/Nonsocial2.png,,"(0.7, -0.5)",cs_plus_s,,,,,0,0,0,0,,,,,1,6,22,3,,,,,,,,,,,,,,,,,,,,,,,,,830.3800360999303,65,shock,1,0.22273109992966056,0.22273479995783418,830.609206699999,,,,,,,,24,A,2023-12-13_16h00.52.951,gca_avoidance_task,2022.2.4,143.99324973279747,
positions.xlsx,stimuli.xlsx,stimuli/Social1.png,stimuli/Social2.png,stimuli/Nonsocial1.png,stimuli/Nonsocial2.png,,"(0.7, -0.5)",cs_minus_ns,,,,,0,0,0,0,,,,,1,7,23,15,,,,,,,,,,,,,,,,,,,,,,,,,840.5740831999574,70,reward,1,0.31964929995592684,0.3196530999848619,840.9004571000114,,,,,,,,24,A,2023-12-13_16h00.52.951,gca_avoidance_task,2022.2.4,143.99324973279747,
positions.xlsx,stimuli.xlsx,stimuli/Social1.png,stimuli/Social2.png,stimuli/Nonsocial1.png,stimuli/Nonsocial2.png,,"(0.7, 0.5)",cs_minus_ns,,,,,0,0,0,0,,,,,1,8,24,14,,,,,,,,,,,,,,,,,,,,,,,,,850.3861906999955,75,reward,1,0.30559580004774034,0.30559930007439107,850.698713199934,,,,,,,,24,A,2023-12-13_16h00.52.951,gca_avoidance_task,2022.2.4,143.99324973279747,
positions.xlsx,stimuli.xlsx,stimuli/Social1.png,stimuli/Social2.png,stimuli/Nonsocial1.png,stimuli/Nonsocial2.png,,"(0.7, 0.5)",cs_plus_ns,,,,,0,0,0,0,,,,,1,9,25,10,,,,,,,,,,,,,,,,,,,,,,,,,860.4899934999412,75,shock,1,0.2915067001013085,0.29866080009378493,860.7955509999301,,,,,,,,24,A,2023-12-13_16h00.52.951,gca_avoidance_task,2022.2.4,143.99324973279747,
positions.xlsx,stimuli.xlsx,stimuli/Social1.png,stimuli/Social2.png,stimuli/Nonsocial1.png,stimuli/Nonsocial2.png,,"(-0.7, -0.5)",cs_minus_ns,,,,,0,0,0,0,,,,,1,10,26,13,,,,,,,,,,,,,,,,,,,,,,,,,870.4201372999232,80,reward,1,0.2989724000217393,0.2989760999334976,870.7256671999348,,,,,,,,24,A,2023-12-13_16h00.52.951,gca_avoidance_task,2022.2.4,143.99324973279747,
positions.xlsx,stimuli.xlsx,stimuli/Social1.png,stimuli/Social2.png,stimuli/Nonsocial1.png,stimuli/Nonsocial2.png,,"(0.7, -0.5)",cs_plus_ns,,,,,0,0,0,0,,,,,1,11,27,11,,,,,,,,,,,,,,,,,,,,,,,,,879.9197634999873,80,shock,1,0.23638529994059354,0.23638889996800572,880.1628644999582,,,,,,,,24,A,2023-12-13_16h00.52.951,gca_avoidance_task,2022.2.4,143.99324973279747,
positions.xlsx,stimuli.xlsx,stimuli/Social1.png,stimuli/Social2.png,stimuli/Nonsocial1.png,stimuli/Nonsocial2.png,,"(-0.7, -0.5)",cs_plus_s,,,,,0,0,0,0,,,,,1,12,28,1,,,,,,,,,,,,,,,,,,,,,,,,,889.3360816999339,80,shock,1,0.19481279992032796,0.19481659994926304,889.5374461999163,,,,,,,,24,A,2023-12-13_16h00.52.951,gca_avoidance_task,2022.2.4,143.99324973279747,
positions.xlsx,stimuli.xlsx,stimuli/Social1.png,stimuli/Social2.png,stimuli/Nonsocial1.png,stimuli/Nonsocial2.png,,"(-0.7, 0.5)",cs_plus_s,,,,,0,0,0,0,,,,,1,13,29,0,,,,,,,,,,,,,,,,,,,,,,,,,899.28706709994,80,shock,1,0.22939019999466836,0.22939399990718812,899.5231827999232,,,,,,,,24,A,2023-12-13_16h00.52.951,gca_avoidance_task,2022.2.4,143.99324973279747,
positions.xlsx,stimuli.xlsx,stimuli/Social1.png,stimuli/Social2.png,stimuli/Nonsocial1.png,stimuli/Nonsocial2.png,,"(0.7, 0.5)",cs_plus_s,,,,,0,0,0,0,,,,,1,14,30,2,,,,,,,,,,,,,,,,,,,,,,,,,908.6339155999012,80,shock,1,0.2922402999829501,0.29224390001036227,908.932603299967,,,,,,,,24,A,2023-12-13_16h00.52.951,gca_avoidance_task,2022.2.4,143.99324973279747,
positions.xlsx,stimuli.xlsx,stimuli/Social1.png,stimuli/Social2.png,stimuli/Nonsocial1.png,stimuli/Nonsocial2.png,,"(-0.7, -0.5)",cs_plus_ns,,,,,0,0,0,0,,,,,1,15,31,9,,,,,,,,,,,,,,,,,,,,,,,,,919.1821098999353,80,shock,1,0.22921650006901473,0.22922019998077303,919.4182155999588,,,,,,,,24,A,2023-12-13_16h00.52.951,gca_avoidance_task,2022.2.4,143.99324973279747,
positions.xlsx,stimuli.xlsx,stimuli/Social1.png,stimuli/Social2.png,stimuli/Nonsocial1.png,stimuli/Nonsocial2.png,,"(0.7, 0.5)",cs_minus_ns,,,,,0,0,0,0,,,,,,,,,0,0,0,14,,,,,,,,,,,,,,,,,,,,,954.403027299908,80,none,0,,,959.4097331999801,,,,,,,,24,A,2023-12-13_16h00.52.951,gca_avoidance_task,2022.2.4,143.99324973279747,
positions.xlsx,stimuli.xlsx,stimuli/Social1.png,stimuli/Social2.png,stimuli/Nonsocial1.png,stimuli/Nonsocial2.png,,"(0.7, 0.5)",cs_plus_ns,,,,,0,0,0,0,,,,,,,,,0,1,1,10,,,,,,,,,,,,,,,,,,,,,968.7357470999705,80,none,0,,,973.742482899921,,,,,,,,24,A,2023-12-13_16h00.52.951,gca_avoidance_task,2022.2.4,143.99324973279747,
positions.xlsx,stimuli.xlsx,stimuli/Social1.png,stimuli/Social2.png,stimuli/Nonsocial1.png,stimuli/Nonsocial2.png,,"(-0.7, 0.5)",cs_plus_ns,,,,,0,0,0,0,,,,,,,,,0,2,2,8,,,,,,,,,,,,,,,,,,,,,982.5685439999215,80,none,0,,,987.5753692999715,,,,,,,,24,A,2023-12-13_16h00.52.951,gca_avoidance_task,2022.2.4,143.99324973279747,
positions.xlsx,stimuli.xlsx,stimuli/Social1.png,stimuli/Social2.png,stimuli/Nonsocial1.png,stimuli/Nonsocial2.png,,"(0.7, -0.5)",cs_minus_ns,,,,,0,0,0,0,,,,,,,,,0,3,3,15,,,,,,,,,,,,,,,,,,,,,997.4429639999289,80,none,0,,,1002.4497131999815,,,,,,,,24,A,2023-12-13_16h00.52.951,gca_avoidance_task,2022.2.4,143.99324973279747,
positions.xlsx,stimuli.xlsx,stimuli/Social1.png,stimuli/Social2.png,stimuli/Nonsocial1.png,stimuli/Nonsocial2.png,,"(-0.7, -0.5)",cs_minus_ns,,,,,0,0,0,0,,,,,,,,,0,4,4,13,,,,,,,,,,,,,,,,,,,,,1011.4632301999955,80,none,0,,,1016.4700284999562,,,,,,,,24,A,2023-12-13_16h00.52.951,gca_avoidance_task,2022.2.4,143.99324973279747,
positions.xlsx,stimuli.xlsx,stimuli/Social1.png,stimuli/Social2.png,stimuli/Nonsocial1.png,stimuli/Nonsocial2.png,,"(0.7, -0.5)",cs_plus_ns,,,,,0,0,0,0,,,,,,,,,0,5,5,11,,,,,,,,,,,,,,,,,,,,,1025.9974729999667,80,none,0,,,1031.0041684999596,,,,,,,,24,A,2023-12-13_16h00.52.951,gca_avoidance_task,2022.2.4,143.99324973279747,
positions.xlsx,stimuli.xlsx,stimuli/Social1.png,stimuli/Social2.png,stimuli/Nonsocial1.png,stimuli/Nonsocial2.png,,"(0.7, -0.5)",cs_plus_s,,,,,0,0,0,0,,,,,,,,,0,6,6,3,,,,,,,,,,,,,,,,,,,,,1040.8301643999293,80,none,0,,,1045.8369501999114,,,,,,,,24,A,2023-12-13_16h00.52.951,gca_avoidance_task,2022.2.4,143.99324973279747,
positions.xlsx,stimuli.xlsx,stimuli/Social1.png,stimuli/Social2.png,stimuli/Nonsocial1.png,stimuli/Nonsocial2.png,,"(0.7, 0.5)",cs_minus_s,,,,,0,0,0,0,,,,,,,,,0,7,7,6,,,,,,,,,,,,,,,,,,,,,1055.3643144000089,85,reward,1,0.8683454000856727,0.8683491999981925,1056.2393089999678,,,,,,,,24,A,2023-12-13_16h00.52.951,gca_avoidance_task,2022.2.4,143.99324973279747,
positions.xlsx,stimuli.xlsx,stimuli/Social1.png,stimuli/Social2.png,stimuli/Nonsocial1.png,stimuli/Nonsocial2.png,,"(-0.7, 0.5)",cs_plus_s,,,,,0,0,0,0,,,,,,,,,0,8,8,0,,,,,,,,,,,,,,,,,,,,,1065.6555708999513,85,shock,1,2.82644870004151,2.826452400069684,1068.4888435999164,,,,,,,,24,A,2023-12-13_16h00.52.951,gca_avoidance_task,2022.2.4,143.99324973279747,
positions.xlsx,stimuli.xlsx,stimuli/Social1.png,stimuli/Social2.png,stimuli/Nonsocial1.png,stimuli/Nonsocial2.png,,"(0.7, 0.5)",cs_plus_s,,,,,0,0,0,0,,,,,,,,,0,9,9,2,,,,,,,,,,,,,,,,,,,,,1077.4537460999563,85,none,0,,,1082.4605039999587,,,,,,,,24,A,2023-12-13_16h00.52.951,gca_avoidance_task,2022.2.4,143.99324973279747,
positions.xlsx,stimuli.xlsx,stimuli/Social1.png,stimuli/Social2.png,stimuli/Nonsocial1.png,stimuli/Nonsocial2.png,,"(-0.7, 0.5)",cs_minus_ns,,,,,0,0,0,0,,,,,,,,,0,10,10,12,,,,,,,,,,,,,,,,,,,,,1092.4323292999761,90,reward,1,0.6050862000556663,0.6050897999666631,1093.043425599928,,,,,,,,24,A,2023-12-13_16h00.52.951,gca_avoidance_task,2022.2.4,143.99324973279747,
positions.xlsx,stimuli.xlsx,stimuli/Social1.png,stimuli/Social2.png,stimuli/Nonsocial1.png,stimuli/Nonsocial2.png,,"(0.7, -0.5)",cs_minus_s,,,,,0,0,0,0,,,,,,,,,0,11,11,7,,,,,,,,,,,,,,,,,,,,,1102.1333529999247,95,reward,1,0.6184779000468552,0.6184818000765517,1102.7583279999672,,,,,,,,24,A,2023-12-13_16h00.52.951,gca_avoidance_task,2022.2.4,143.99324973279747,
positions.xlsx,stimuli.xlsx,stimuli/Social1.png,stimuli/Social2.png,stimuli/Nonsocial1.png,stimuli/Nonsocial2.png,,"(-0.7, -0.5)",cs_plus_s,,,,,0,0,0,0,,,,,,,,,0,12,12,1,,,,,,,,,,,,,,,,,,,,,1112.598221299937,95,none,0,,,1117.6049998999806,,,,,,,,24,A,2023-12-13_16h00.52.951,gca_avoidance_task,2022.2.4,143.99324973279747,
positions.xlsx,stimuli.xlsx,stimuli/Social1.png,stimuli/Social2.png,stimuli/Nonsocial1.png,stimuli/Nonsocial2.png,,"(-0.7, -0.5)",cs_plus_ns,,,,,0,0,0,0,,,,,,,,,0,13,13,9,,,,,,,,,,,,,,,,,,,,,1126.5629429999972,95,none,0,,,1131.5696909999242,,,,,,,,24,A,2023-12-13_16h00.52.951,gca_avoidance_task,2022.2.4,143.99324973279747,
positions.xlsx,stimuli.xlsx,stimuli/Social1.png,stimuli/Social2.png,stimuli/Nonsocial1.png,stimuli/Nonsocial2.png,,"(-0.7, -0.5)",cs_minus_s,,,,,0,0,0,0,,,,,,,,,0,14,14,5,,,,,,,,,,,,,,,,,,,,,1141.2151760999113,100,reward,1,0.4237140999175608,0.4237178999464959,1141.6457168000052,,,,,,,,24,A,2023-12-13_16h00.52.951,gca_avoidance_task,2022.2.4,143.99324973279747,
positions.xlsx,stimuli.xlsx,stimuli/Social1.png,stimuli/Social2.png,stimuli/Nonsocial1.png,stimuli/Nonsocial2.png,,"(-0.7, 0.5)",cs_minus_s,,,,,0,0,0,0,,,,,,,,,0,15,15,4,,,,,,,,,,,,,,,,,,,,,1151.034225099953,105,reward,1,0.43052340007852763,0.43052749999333173,1151.4716908999253,,,,,,,,24,A,2023-12-13_16h00.52.951,gca_avoidance_task,2022.2.4,143.99324973279747,
positions.xlsx,stimuli.xlsx,stimuli/Social1.png,stimuli/Social2.png,stimuli/Nonsocial1.png,stimuli/Nonsocial2.png,,"(0.7, 0.5)",cs_plus_s,,,,,0,0,0,0,,,,,,,,,1,0,16,2,,,,,,,,,,,,,,,,,,,,,1160.9435626999475,105,none,0,,,1165.9503386999713,,,,,,,,24,A,2023-12-13_16h00.52.951,gca_avoidance_task,2022.2.4,143.99324973279747,
positions.xlsx,stimuli.xlsx,stimuli/Social1.png,stimuli/Social2.png,stimuli/Nonsocial1.png,stimuli/Nonsocial2.png,,"(0.7, -0.5)",cs_minus_ns,,,,,0,0,0,0,,,,,,,,,1,1,17,15,,,,,,,,,,,,,,,,,,,,,1175.352740500006,110,reward,1,0.6735753000248224,0.6735788000514731,1176.0332556999056,,,,,,,,24,A,2023-12-13_16h00.52.951,gca_avoidance_task,2022.2.4,143.99324973279747,
positions.xlsx,stimuli.xlsx,stimuli/Social1.png,stimuli/Social2.png,stimuli/Nonsocial1.png,stimuli/Nonsocial2.png,,"(-0.7, 0.5)",cs_plus_ns,,,,,0,0,0,0,,,,,,,,,1,2,18,8,,,,,,,,,,,,,,,,,,,,,1186.2064583000029,110,none,0,,,1191.2132203999208,,,,,,,,24,A,2023-12-13_16h00.52.951,gca_avoidance_task,2022.2.4,143.99324973279747,
positions.xlsx,stimuli.xlsx,stimuli/Social1.png,stimuli/Social2.png,stimuli/Nonsocial1.png,stimuli/Nonsocial2.png,,"(0.7, 0.5)",cs_minus_s,,,,,0,0,0,0,,,,,,,,,1,3,19,6,,,,,,,,,,,,,,,,,,,,,1200.5322871999815,115,reward,1,0.5283107999712229,0.5283144999993965,1201.0670431999024,,,,,,,,24,A,2023-12-13_16h00.52.951,gca_avoidance_task,2022.2.4,143.99324973279747,
positions.xlsx,stimuli.xlsx,stimuli/Social1.png,stimuli/Social2.png,stimuli/Nonsocial1.png,stimuli/Nonsocial2.png,,"(-0.7, -0.5)",cs_minus_ns,,,,,0,0,0,0,,,,,,,,,1,4,20,13,,,,,,,,,,,,,,,,,,,,,1210.88605979993,120,reward,1,0.6598468000302091,0.6598506000591442,1211.5527272999752,,,,,,,,24,A,2023-12-13_16h00.52.951,gca_avoidance_task,2022.2.4,143.99324973279747,
positions.xlsx,stimuli.xlsx,stimuli/Social1.png,stimuli/Social2.png,stimuli/Nonsocial1.png,stimuli/Nonsocial2.png,,"(0.7, 0.5)",cs_minus_ns,,,,,0,0,0,0,,,,,,,,,1,5,21,14,,,,,,,,,,,,,,,,,,,,,1220.5106816999614,125,reward,1,0.4931603000732139,0.49316370009910315,1221.0106732998975,,,,,,,,24,A,2023-12-13_16h00.52.951,gca_avoidance_task,2022.2.4,143.99324973279747,
positions.xlsx,stimuli.xlsx,stimuli/Social1.png,stimuli/Social2.png,stimuli/Nonsocial1.png,stimuli/Nonsocial2.png,,"(0.7, -0.5)",cs_minus_s,,,,,0,0,0,0,,,,,,,,,1,6,22,7,,,,,,,,,,,,,,,,,,,,,1231.426929899957,130,reward,1,0.4097368000075221,0.40974070003721863,1231.8436240999727,,,,,,,,24,A,2023-12-13_16h00.52.951,gca_avoidance_task,2022.2.4,143.99324973279747,
positions.xlsx,stimuli.xlsx,stimuli/Social1.png,stimuli/Social2.png,stimuli/Nonsocial1.png,stimuli/Nonsocial2.png,,"(0.7, 0.5)",cs_plus_ns,,,,,0,0,0,0,,,,,,,,,1,7,23,10,,,,,,,,,,,,,,,,,,,,,1241.5515548000112,130,none,0,,,1246.5582857999252,,,,,,,,24,A,2023-12-13_16h00.52.951,gca_avoidance_task,2022.2.4,143.99324973279747,
positions.xlsx,stimuli.xlsx,stimuli/Social1.png,stimuli/Social2.png,stimuli/Nonsocial1.png,stimuli/Nonsocial2.png,,"(-0.7, 0.5)",cs_minus_s,,,,,0,0,0,0,,,,,,,,,1,8,24,4,,,,,,,,,,,,,,,,,,,,,1256.0857238000026,135,reward,1,0.5416184000205249,0.5416219999315217,1256.634275099961,,,,,,,,24,A,2023-12-13_16h00.52.951,gca_avoidance_task,2022.2.4,143.99324973279747,
positions.xlsx,stimuli.xlsx,stimuli/Social1.png,stimuli/Social2.png,stimuli/Nonsocial1.png,stimuli/Nonsocial2.png,,"(0.7, -0.5)",cs_plus_ns,,,,,0,0,0,0,,,,,,,,,1,9,25,11,,,,,,,,,,,,,,,,,,,,,1266.7033413999015,135,none,0,,,1271.7101011999184,,,,,,,,24,A,2023-12-13_16h00.52.951,gca_avoidance_task,2022.2.4,143.99324973279747,
positions.xlsx,stimuli.xlsx,stimuli/Social1.png,stimuli/Social2.png,stimuli/Nonsocial1.png,stimuli/Nonsocial2.png,,"(-0.7, -0.5)",cs_plus_ns,,,,,0,0,0,0,,,,,,,,,1,10,26,9,,,,,,,,,,,,,,,,,,,,,1281.0361040999414,135,none,0,,,1286.0428849000018,,,,,,,,24,A,2023-12-13_16h00.52.951,gca_avoidance_task,2022.2.4,143.99324973279747,
positions.xlsx,stimuli.xlsx,stimuli/Social1.png,stimuli/Social2.png,stimuli/Nonsocial1.png,stimuli/Nonsocial2.png,,"(-0.7, 0.5)",cs_plus_s,,,,,0,0,0,0,,,,,,,,,1,11,27,0,,,,,,,,,,,,,,,,,,,,,1295.938358199899,135,none,0,,,1300.945081999991,,,,,,,,24,A,2023-12-13_16h00.52.951,gca_avoidance_task,2022.2.4,143.99324973279747,
positions.xlsx,stimuli.xlsx,stimuli/Social1.png,stimuli/Social2.png,stimuli/Nonsocial1.png,stimuli/Nonsocial2.png,,"(0.7, -0.5)",cs_plus_s,,,,,0,0,0,0,,,,,,,,,1,12,28,3,,,,,,,,,,,,,,,,,,,,,1309.7780563000124,135,none,0,,,1314.7848053999478,,,,,,,,24,A,2023-12-13_16h00.52.951,gca_avoidance_task,2022.2.4,143.99324973279747,
positions.xlsx,stimuli.xlsx,stimuli/Social1.png,stimuli/Social2.png,stimuli/Nonsocial1.png,stimuli/Nonsocial2.png,,"(-0.7, 0.5)",cs_minus_ns,,,,,0,0,0,0,,,,,,,,,1,13,29,12,,,,,,,,,,,,,,,,,,,,,1324.1316886999412,140,reward,1,0.5902373000280932,0.5902408000547439,1324.7288672999712,,,,,,,,24,A,2023-12-13_16h00.52.951,gca_avoidance_task,2022.2.4,143.99324973279747,
positions.xlsx,stimuli.xlsx,stimuli/Social1.png,stimuli/Social2.png,stimuli/Nonsocial1.png,stimuli/Nonsocial2.png,,"(-0.7, -0.5)",cs_minus_s,,,,,0,0,0,0,,,,,,,,,1,14,30,5,,,,,,,,,,,,,,,,,,,,,1333.6243527999613,145,reward,1,0.5765486999880522,0.583316900068894,1334.2146521999966,,,,,,,,24,A,2023-12-13_16h00.52.951,gca_avoidance_task,2022.2.4,143.99324973279747,
positions.xlsx,stimuli.xlsx,stimuli/Social1.png,stimuli/Social2.png,stimuli/Nonsocial1.png,stimuli/Nonsocial2.png,,"(-0.7, -0.5)",cs_plus_s,,,,,0,0,0,0,,,,,,,,,1,15,31,1,,,,,,,,,,,,,,,,,,,,,1343.596202799934,145,none,0,,,1348.60296249995,,,,,,,,24,A,2023-12-13_16h00.52.951,gca_avoidance_task,2022.2.4,143.99324973279747,
positions.xlsx,stimuli.xlsx,stimuli/Social1.png,stimuli/Social2.png,stimuli/Nonsocial1.png,stimuli/Nonsocial2.png,,"(0.7, -0.5)",cs_minus_ns,,,,,0,0,0,0,,,,,,,,,2,0,32,15,,,,,,,,,,,,,,,,,,,,,1358.796991799958,150,reward,1,0.6811237999936566,0.6811274000210688,1359.4844912999542,,,,,,,,24,A,2023-12-13_16h00.52.951,gca_avoidance_task,2022.2.4,143.99324973279747,
positions.xlsx,stimuli.xlsx,stimuli/Social1.png,stimuli/Social2.png,stimuli/Nonsocial1.png,stimuli/Nonsocial2.png,,"(0.7, -0.5)",cs_plus_s,,,,,0,0,0,0,,,,,,,,,2,1,33,3,,,,,,,,,,,,,,,,,,,,,1368.5257765999995,150,none,0,,,1373.5394436999923,,,,,,,,24,A,2023-12-13_16h00.52.951,gca_avoidance_task,2022.2.4,143.99324973279747,
positions.xlsx,stimuli.xlsx,stimuli/Social1.png,stimuli/Social2.png,stimuli/Nonsocial1.png,stimuli/Nonsocial2.png,,"(0.7, 0.5)",cs_minus_s,,,,,0,0,0,0,,,,,,,,,2,2,34,6,,,,,,,,,,,,,,,,,,,,,1382.44190659991,155,reward,1,0.3680925000226125,0.3680963000515476,1382.8168873999966,,,,,,,,24,A,2023-12-13_16h00.52.951,gca_avoidance_task,2022.2.4,143.99324973279747,
positions.xlsx,stimuli.xlsx,stimuli/Social1.png,stimuli/Social2.png,stimuli/Nonsocial1.png,stimuli/Nonsocial2.png,,"(-0.7, -0.5)",cs_plus_s,,,,,0,0,0,0,,,,,,,,,2,3,35,1,,,,,,,,,,,,,,,,,,,,,1392.281810299959,155,none,0,,,1397.288573400001,,,,,,,,24,A,2023-12-13_16h00.52.951,gca_avoidance_task,2022.2.4,143.99324973279747,
positions.xlsx,stimuli.xlsx,stimuli/Social1.png,stimuli/Social2.png,stimuli/Nonsocial1.png,stimuli/Nonsocial2.png,,"(0.7, 0.5)",cs_plus_s,,,,,0,0,0,0,,,,,,,,,2,4,36,2,,,,,,,,,,,,,,,,,,,,,1406.7604573999997,155,shock,1,0.35447510005906224,0.36134569998830557,1407.1284672999755,,,,,,,,24,A,2023-12-13_16h00.52.951,gca_avoidance_task,2022.2.4,143.99324973279747,
positions.xlsx,stimuli.xlsx,stimuli/Social1.png,stimuli/Social2.png,stimuli/Nonsocial1.png,stimuli/Nonsocial2.png,,"(0.7, 0.5)",cs_minus_ns,,,,,0,0,0,0,,,,,,,,,2,5,37,14,,,,,,,,,,,,,,,,,,,,,1416.5586557999486,160,reward,1,0.7848746000090614,0.7848782999208197,1417.3503077999922,,,,,,,,24,A,2023-12-13_16h00.52.951,gca_avoidance_task,2022.2.4,143.99324973279747,
positions.xlsx,stimuli.xlsx,stimuli/Social1.png,stimuli/Social2.png,stimuli/Nonsocial1.png,stimuli/Nonsocial2.png,,"(0.7, 0.5)",cs_plus_ns,,,,,0,0,0,0,,,,,,,,,2,6,38,10,,,,,,,,,,,,,,,,,,,,,1425.870833199937,160,none,0,,,1430.877539100009,,,,,,,,24,A,2023-12-13_16h00.52.951,gca_avoidance_task,2022.2.4,143.99324973279747,
positions.xlsx,stimuli.xlsx,stimuli/Social1.png,stimuli/Social2.png,stimuli/Nonsocial1.png,stimuli/Nonsocial2.png,,"(-0.7, -0.5)",cs_minus_s,,,,,0,0,0,0,,,,,,,,,2,7,39,5,,,,,,,,,,,,,,,,,,,,,1440.779950600001,165,reward,1,0.5625267999712378,0.5625304999994114,1441.3493154000025,,,,,,,,24,A,2023-12-13_16h00.52.951,gca_avoidance_task,2022.2.4,143.99324973279747,
positions.xlsx,stimuli.xlsx,stimuli/Social1.png,stimuli/Social2.png,stimuli/Nonsocial1.png,stimuli/Nonsocial2.png,,"(-0.7, 0.5)",cs_plus_s,,,,,0,0,0,0,,,,,,,,,2,8,40,0,,,,,,,,,,,,,,,,,,,,,1451.1267733999994,165,none,0,,,1456.1335154999979,,,,,,,,24,A,2023-12-13_16h00.52.951,gca_avoidance_task,2022.2.4,143.99324973279747,
positions.xlsx,stimuli.xlsx,stimuli/Social1.png,stimuli/Social2.png,stimuli/Nonsocial1.png,stimuli/Nonsocial2.png,,"(-0.7, 0.5)",cs_plus_ns,,,,,0,0,0,0,,,,,,,,,2,9,41,8,,,,,,,,,,,,,,,,,,,,,1465.5706251999363,165,none,0,,,1470.577364699915,,,,,,,,24,A,2023-12-13_16h00.52.951,gca_avoidance_task,2022.2.4,143.99324973279747,
positions.xlsx,stimuli.xlsx,stimuli/Social1.png,stimuli/Social2.png,stimuli/Nonsocial1.png,stimuli/Nonsocial2.png,,"(0.7, -0.5)",cs_plus_ns,,,,,0,0,0,0,,,,,,,,,2,10,42,11,,,,,,,,,,,,,,,,,,,,,1479.958959099953,165,none,0,,,1484.9657087000087,,,,,,,,24,A,2023-12-13_16h00.52.951,gca_avoidance_task,2022.2.4,143.99324973279747,
positions.xlsx,stimuli.xlsx,stimuli/Social1.png,stimuli/Social2.png,stimuli/Nonsocial1.png,stimuli/Nonsocial2.png,,"(-0.7, 0.5)",cs_minus_s,,,,,0,0,0,0,,,,,,,,,2,11,43,4,,,,,,,,,,,,,,,,,,,,,1494.4515120999422,170,reward,1,0.6250096999574453,0.6250132999848574,1495.0833971999818,,,,,,,,24,A,2023-12-13_16h00.52.951,gca_avoidance_task,2022.2.4,143.99324973279747,
positions.xlsx,stimuli.xlsx,stimuli/Social1.png,stimuli/Social2.png,stimuli/Nonsocial1.png,stimuli/Nonsocial2.png,,"(0.7, -0.5)",cs_minus_s,,,,,0,0,0,0,,,,,,,,,2,12,44,7,,,,,,,,,,,,,,,,,,,,,1504.7427295999369,175,reward,1,0.5972823000047356,0.5972861000336707,1505.3468562999042,,,,,,,,24,A,2023-12-13_16h00.52.951,gca_avoidance_task,2022.2.4,143.99324973279747,
positions.xlsx,stimuli.xlsx,stimuli/Social1.png,stimuli/Social2.png,stimuli/Nonsocial1.png,stimuli/Nonsocial2.png,,"(-0.7, -0.5)",cs_minus_ns,,,,,0,0,0,0,,,,,,,,,2,13,45,13,,,,,,,,,,,,,,,,,,,,,1515.471477199928,180,reward,1,0.632029400090687,0.6320332000032067,1516.1103399998974,,,,,,,,24,A,2023-12-13_16h00.52.951,gca_avoidance_task,2022.2.4,143.99324973279747,
positions.xlsx,stimuli.xlsx,stimuli/Social1.png,stimuli/Social2.png,stimuli/Nonsocial1.png,stimuli/Nonsocial2.png,,"(-0.7, 0.5)",cs_minus_ns,,,,,0,0,0,0,,,,,,,,,2,14,46,12,,,,,,,,,,,,,,,,,,,,,1525.4016462999862,185,reward,1,0.5142654000082985,0.514269300037995,1525.9224550999934,,,,,,,,24,A,2023-12-13_16h00.52.951,gca_avoidance_task,2022.2.4,143.99324973279747,
positions.xlsx,stimuli.xlsx,stimuli/Social1.png,stimuli/Social2.png,stimuli/Nonsocial1.png,stimuli/Nonsocial2.png,,"(-0.7, -0.5)",cs_plus_ns,,,,,0,0,0,0,,,,,,,,,2,15,47,9,,,,,,,,,,,,,,,,,,,,,1535.2207034999738,185,none,0,,,1540.234435499995,,,,,,,,24,A,2023-12-13_16h00.52.951,gca_avoidance_task,2022.2.4,143.99324973279747,
positions.xlsx,stimuli.xlsx,stimuli/Social1.png,stimuli/Social2.png,stimuli/Nonsocial1.png,stimuli/Nonsocial2.png,,"(0.7, -0.5)",cs_plus_ns,,,,,0,0,0,0,,,,,,,,,3,0,48,11,,,,,,,,,,,,,,,,,,,,,1549.435427099932,185,none,0,,,1554.4422043999657,,,,,,,,24,A,2023-12-13_16h00.52.951,gca_avoidance_task,2022.2.4,143.99324973279747,
positions.xlsx,stimuli.xlsx,stimuli/Social1.png,stimuli/Social2.png,stimuli/Nonsocial1.png,stimuli/Nonsocial2.png,,"(0.7, -0.5)",cs_minus_ns,,,,,0,0,0,0,,,,,,,,,3,1,49,15,,,,,,,,,,,,,,,,,,,,,1563.7543265999993,190,reward,1,0.5141074999701232,0.5141112999990582,1564.2751432999503,,,,,,,,24,A,2023-12-13_16h00.52.951,gca_avoidance_task,2022.2.4,143.99324973279747,
positions.xlsx,stimuli.xlsx,stimuli/Social1.png,stimuli/Social2.png,stimuli/Nonsocial1.png,stimuli/Nonsocial2.png,,"(-0.7, 0.5)",cs_plus_ns,,,,,0,0,0,0,,,,,,,,,3,2,50,8,,,,,,,,,,,,,,,,,,,,,1573.7400661999127,190,none,0,,,1578.7468315999722,,,,,,,,24,A,2023-12-13_16h00.52.951,gca_avoidance_task,2022.2.4,143.99324973279747,
positions.xlsx,stimuli.xlsx,stimuli/Social1.png,stimuli/Social2.png,stimuli/Nonsocial1.png,stimuli/Nonsocial2.png,,"(-0.7, 0.5)",cs_plus_s,,,,,0,0,0,0,,,,,,,,,3,3,51,0,,,,,,,,,,,,,,,,,,,,,1587.8922702999553,190,none,0,,,1592.906003799988,,,,,,,,24,A,2023-12-13_16h00.52.951,gca_avoidance_task,2022.2.4,143.99324973279747,
positions.xlsx,stimuli.xlsx,stimuli/Social1.png,stimuli/Social2.png,stimuli/Nonsocial1.png,stimuli/Nonsocial2.png,,"(0.7, 0.5)",cs_minus_ns,,,,,0,0,0,0,,,,,,,,,3,4,52,14,,,,,,,,,,,,,,,,,,,,,1601.7945120999357,195,reward,1,0.6114049999741837,0.6114089000038803,1602.412572799949,,,,,,,,24,A,2023-12-13_16h00.52.951,gca_avoidance_task,2022.2.4,143.99324973279747,
positions.xlsx,stimuli.xlsx,stimuli/Social1.png,stimuli/Social2.png,stimuli/Nonsocial1.png,stimuli/Nonsocial2.png,,"(-0.7, -0.5)",cs_plus_s,,,,,0,0,0,0,,,,,,,,,3,5,53,1,,,,,,,,,,,,,,,,,,,,,1611.7177453999175,195,none,0,,,1616.7244990000036,,,,,,,,24,A,2023-12-13_16h00.52.951,gca_avoidance_task,2022.2.4,143.99324973279747,
positions.xlsx,stimuli.xlsx,stimuli/Social1.png,stimuli/Social2.png,stimuli/Nonsocial1.png,stimuli/Nonsocial2.png,,"(0.7, -0.5)",cs_minus_s,,,,,0,0,0,0,,,,,,,,,3,6,54,7,,,,,,,,,,,,,,,,,,,,,1625.5158129999181,200,reward,1,0.5556344999931753,0.555638000019826,1626.0782954999013,,,,,,,,24,A,2023-12-13_16h00.52.951,gca_avoidance_task,2022.2.4,143.99324973279747,
positions.xlsx,stimuli.xlsx,stimuli/Social1.png,stimuli/Social2.png,stimuli/Nonsocial1.png,stimuli/Nonsocial2.png,,"(0.7, 0.5)",cs_minus_s,,,,,0,0,0,0,,,,,,,,,3,7,55,6,,,,,,,,,,,,,,,,,,,,,1634.8349391999654,205,reward,1,0.5140554000390694,0.514072300051339,1635.3557066000067,,,,,,,,24,A,2023-12-13_16h00.52.951,gca_avoidance_task,2022.2.4,143.99324973279747,
positions.xlsx,stimuli.xlsx,stimuli/Social1.png,stimuli/Social2.png,stimuli/Nonsocial1.png,stimuli/Nonsocial2.png,,"(0.7, 0.5)",cs_plus_s,,,,,0,0,0,0,,,,,,,,,3,8,56,2,,,,,,,,,,,,,,,,,,,,,1644.9456455999753,205,none,0,,,1649.9523898999905,,,,,,,,24,A,2023-12-13_16h00.52.951,gca_avoidance_task,2022.2.4,143.99324973279747,
positions.xlsx,stimuli.xlsx,stimuli/Social1.png,stimuli/Social2.png,stimuli/Nonsocial1.png,stimuli/Nonsocial2.png,,"(-0.7, 0.5)",cs_minus_ns,,,,,0,0,0,0,,,,,,,,,3,9,57,12,,,,,,,,,,,,,,,,,,,,,1659.4103380999295,210,reward,1,0.4865936000132933,0.4865973999258131,1659.9033719999716,,,,,,,,24,A,2023-12-13_16h00.52.951,gca_avoidance_task,2022.2.4,143.99324973279747,
positions.xlsx,stimuli.xlsx,stimuli/Social1.png,stimuli/Social2.png,stimuli/Nonsocial1.png,stimuli/Nonsocial2.png,,"(0.7, 0.5)",cs_plus_ns,,,,,0,0,0,0,,,,,,,,,3,10,58,10,,,,,,,,,,,,,,,,,,,,,1668.951633199933,210,none,0,,,1673.9653254000004,,,,,,,,24,A,2023-12-13_16h00.52.951,gca_avoidance_task,2022.2.4,143.99324973279747,
positions.xlsx,stimuli.xlsx,stimuli/Social1.png,stimuli/Social2.png,stimuli/Nonsocial1.png,stimuli/Nonsocial2.png,,"(-0.7, -0.5)",cs_minus_ns,,,,,0,0,0,0,,,,,,,,,3,11,59,13,,,,,,,,,,,,,,,,,,,,,1683.485836399952,215,reward,1,0.47218909999355674,0.47920110006816685,1683.9719121999806,,,,,,,,24,A,2023-12-13_16h00.52.951,gca_avoidance_task,2022.2.4,143.99324973279747,
positions.xlsx,stimuli.xlsx,stimuli/Social1.png,stimuli/Social2.png,stimuli/Nonsocial1.png,stimuli/Nonsocial2.png,,"(-0.7, -0.5)",cs_plus_ns,,,,,0,0,0,0,,,,,,,,,3,12,60,9,,,,,,,,,,,,,,,,,,,,,1693.5409746000078,215,none,0,,,1698.5546508999541,,,,,,,,24,A,2023-12-13_16h00.52.951,gca_avoidance_task,2022.2.4,143.99324973279747,
positions.xlsx,stimuli.xlsx,stimuli/Social1.png,stimuli/Social2.png,stimuli/Nonsocial1.png,stimuli/Nonsocial2.png,,"(0.7, -0.5)",cs_plus_s,,,,,0,0,0,0,,,,,,,,,3,13,61,3,,,,,,,,,,,,,,,,,,,,,1707.9223494000034,215,shock,1,0.36829100002069026,0.36829460004810244,1708.297324999934,,,,,,,,24,A,2023-12-13_16h00.52.951,gca_avoidance_task,2022.2.4,143.99324973279747,
positions.xlsx,stimuli.xlsx,stimuli/Social1.png,stimuli/Social2.png,stimuli/Nonsocial1.png,stimuli/Nonsocial2.png,,"(-0.7, -0.5)",cs_minus_s,,,,,0,0,0,0,,,,,,,,,3,14,62,5,,,,,,,,,,,,,,,,,,,,,1717.033140799962,220,reward,1,0.4723236000863835,0.47933990007732064,1717.519186199992,,,,,,,,24,A,2023-12-13_16h00.52.951,gca_avoidance_task,2022.2.4,143.99324973279747,
positions.xlsx,stimuli.xlsx,stimuli/Social1.png,stimuli/Social2.png,stimuli/Nonsocial1.png,stimuli/Nonsocial2.png,,"(-0.7, 0.5)",cs_minus_s,,,,,0,0,0,0,,,,,,,,,3,15,63,4,,,,,,,,,,,,,,,,,,,,,1727.5743634999963,225,reward,1,0.5836110000964254,0.5836150000104681,1728.1646356999408,,,,,,,,24,A,2023-12-13_16h00.52.951,gca_avoidance_task,2022.2.4,143.99324973279747,
positions.xlsx,stimuli.xlsx,stimuli/Social1.png,stimuli/Social2.png,stimuli/Nonsocial1.png,stimuli/Nonsocial2.png,,"(-0.7, -0.5)",cs_plus_s,,,,,0,0,0,0,,,,,,,,,4,0,64,1,,,,,,,,,,,,,,,,,,,,,1737.511476799962,225,none,0,,,1742.5182175999507,,,,,,,,24,A,2023-12-13_16h00.52.951,gca_avoidance_task,2022.2.4,143.99324973279747,
positions.xlsx,stimuli.xlsx,stimuli/Social1.png,stimuli/Social2.png,stimuli/Nonsocial1.png,stimuli/Nonsocial2.png,,"(0.7, -0.5)",cs_plus_ns,,,,,0,0,0,0,,,,,,,,,4,1,65,11,,,,,,,,,,,,,,,,,,,,,1752.4622909999453,225,none,0,,,1757.4690391999902,,,,,,,,24,A,2023-12-13_16h00.52.951,gca_avoidance_task,2022.2.4,143.99324973279747,
positions.xlsx,stimuli.xlsx,stimuli/Social1.png,stimuli/Social2.png,stimuli/Nonsocial1.png,stimuli/Nonsocial2.png,,"(0.7, -0.5)",cs_minus_ns,,,,,0,0,0,0,,,,,,,,,4,2,66,15,,,,,,,,,,,,,,,,,,,,,1766.6353744999506,230,reward,1,0.4861070999177173,0.49372599995695055,1767.1353325999808,,,,,,,,24,A,2023-12-13_16h00.52.951,gca_avoidance_task,2022.2.4,143.99324973279747,
positions.xlsx,stimuli.xlsx,stimuli/Social1.png,stimuli/Social2.png,stimuli/Nonsocial1.png,stimuli/Nonsocial2.png,,"(-0.7, 0.5)",cs_plus_s,,,,,0,0,0,0,,,,,,,,,4,3,67,0,,,,,,,,,,,,,,,,,,,,,1776.7808344999794,230,none,0,,,1781.7875573999481,,,,,,,,24,A,2023-12-13_16h00.52.951,gca_avoidance_task,2022.2.4,143.99324973279747,
positions.xlsx,stimuli.xlsx,stimuli/Social1.png,stimuli/Social2.png,stimuli/Nonsocial1.png,stimuli/Nonsocial2.png,,"(0.7, -0.5)",cs_plus_s,,,,,0,0,0,0,,,,,,,,,4,4,68,3,,,,,,,,,,,,,,,,,,,,,1790.7316451999359,230,none,0,,,1795.7384556999896,,,,,,,,24,A,2023-12-13_16h00.52.951,gca_avoidance_task,2022.2.4,143.99324973279747,
positions.xlsx,stimuli.xlsx,stimuli/Social1.png,stimuli/Social2.png,stimuli/Nonsocial1.png,stimuli/Nonsocial2.png,,"(0.7, 0.5)",cs_minus_ns,,,,,0,0,0,0,,,,,,,,,4,5,69,14,,,,,,,,,,,,,,,,,,,,,1804.8699895999162,235,reward,1,0.6251346999779344,0.6251382000045851,1805.5018676999025,,,,,,,,24,A,2023-12-13_16h00.52.951,gca_avoidance_task,2022.2.4,143.99324973279747,
positions.xlsx,stimuli.xlsx,stimuli/Social1.png,stimuli/Social2.png,stimuli/Nonsocial1.png,stimuli/Nonsocial2.png,,"(-0.7, -0.5)",cs_plus_ns,,,,,0,0,0,0,,,,,,,,,4,6,70,9,,,,,,,,,,,,,,,,,,,,,1815.1265275999904,235,none,0,,,1820.1332967999624,,,,,,,,24,A,2023-12-13_16h00.52.951,gca_avoidance_task,2022.2.4,143.99324973279747,
positions.xlsx,stimuli.xlsx,stimuli/Social1.png,stimuli/Social2.png,stimuli/Nonsocial1.png,stimuli/Nonsocial2.png,,"(-0.7, -0.5)",cs_minus_ns,,,,,0,0,0,0,,,,,,,,,4,7,71,13,,,,,,,,,,,,,,,,,,,,,1829.5148865999654,240,reward,1,0.5695832000346854,0.5695869000628591,1830.0912598998984,,,,,,,,24,A,2023-12-13_16h00.52.951,gca_avoidance_task,2022.2.4,143.99324973279747,
positions.xlsx,stimuli.xlsx,stimuli/Social1.png,stimuli/Social2.png,stimuli/Nonsocial1.png,stimuli/Nonsocial2.png,,"(0.7, -0.5)",cs_minus_s,,,,,0,0,0,0,,,,,,,,,4,8,72,7,,,,,,,,,,,,,,,,,,,,,1839.7644748999737,245,reward,1,0.7638269000453874,0.7638306000735611,1840.5352623999352,,,,,,,,24,A,2023-12-13_16h00.52.951,gca_avoidance_task,2022.2.4,143.99324973279747,
positions.xlsx,stimuli.xlsx,stimuli/Social1.png,stimuli/Social2.png,stimuli/Nonsocial1.png,stimuli/Nonsocial2.png,,"(0.7, 0.5)",cs_minus_s,,,,,0,0,0,0,,,,,,,,,4,9,73,6,,,,,,,,,,,,,,,,,,,,,1850.1946182999527,250,reward,1,0.68127259996254,0.6812762999907136,1850.882111899904,,,,,,,,24,A,2023-12-13_16h00.52.951,gca_avoidance_task,2022.2.4,143.99324973279747,
positions.xlsx,stimuli.xlsx,stimuli/Social1.png,stimuli/Social2.png,stimuli/Nonsocial1.png,stimuli/Nonsocial2.png,,"(-0.7, 0.5)",cs_minus_ns,,,,,0,0,0,0,,,,,,,,,4,10,74,12,,,,,,,,,,,,,,,,,,,,,1860.6317255999893,255,reward,1,0.5767971000168473,0.5768005999270827,1861.2150766999694,,,,,,,,24,A,2023-12-13_16h00.52.951,gca_avoidance_task,2022.2.4,143.99324973279747,
positions.xlsx,stimuli.xlsx,stimuli/Social1.png,stimuli/Social2.png,stimuli/Nonsocial1.png,stimuli/Nonsocial2.png,,"(-0.7, -0.5)",cs_minus_s,,,,,0,0,0,0,,,,,,,,,4,11,75,5,,,,,,,,,,,,,,,,,,,,,1870.3049909999827,260,reward,1,0.799074099981226,0.7990778000093997,1871.1104714999674,,,,,,,,24,A,2023-12-13_16h00.52.951,gca_avoidance_task,2022.2.4,143.99324973279747,
positions.xlsx,stimuli.xlsx,stimuli/Social1.png,stimuli/Social2.png,stimuli/Nonsocial1.png,stimuli/Nonsocial2.png,,"(0.7, 0.5)",cs_plus_s,,,,,0,0,0,0,,,,,,,,,4,12,76,2,,,,,,,,,,,,,,,,,,,,,1880.096232599928,260,none,0,,,1885.109959299909,,,,,,,,24,A,2023-12-13_16h00.52.951,gca_avoidance_task,2022.2.4,143.99324973279747,
positions.xlsx,stimuli.xlsx,stimuli/Social1.png,stimuli/Social2.png,stimuli/Nonsocial1.png,stimuli/Nonsocial2.png,,"(0.7, 0.5)",cs_plus_ns,,,,,0,0,0,0,,,,,,,,,4,13,77,10,,,,,,,,,,,,,,,,,,,,,1894.2068135999143,260,none,0,,,1899.2135619999608,,,,,,,,24,A,2023-12-13_16h00.52.951,gca_avoidance_task,2022.2.4,143.99324973279747,
positions.xlsx,stimuli.xlsx,stimuli/Social1.png,stimuli/Social2.png,stimuli/Nonsocial1.png,stimuli/Nonsocial2.png,,"(-0.7, 0.5)",cs_plus_ns,,,,,0,0,0,0,,,,,,,,,4,14,78,8,,,,,,,,,,,,,,,,,,,,,1908.4424012999516,260,none,0,,,1913.4491435999516,,,,,,,,24,A,2023-12-13_16h00.52.951,gca_avoidance_task,2022.2.4,143.99324973279747,
positions.xlsx,stimuli.xlsx,stimuli/Social1.png,stimuli/Social2.png,stimuli/Nonsocial1.png,stimuli/Nonsocial2.png,,"(-0.7, 0.5)",cs_minus_s,,,,,0,0,0,0,,,,,,,,,4,15,79,4,,,,,,,,,,,,,,,,,,,,,1923.7126127999509,265,reward,1,0.5767560000531375,0.5767596000805497,1924.2959303999087,,,,,,,,24,A,2023-12-13_16h00.52.951,gca_avoidance_task,2022.2.4,143.99324973279747,
positions.xlsx,stimuli.xlsx,stimuli/Social1.png,stimuli/Social2.png,stimuli/Nonsocial1.png,stimuli/Nonsocial2.png,cs_plus_s,,,,,,,0,0,0,0,,,,,,,,,,,,,0,0,0,0,,,,,,,,,,,,,1942.3438329999335,4.0,9.301617400022224,,,,,,,,,5.0,8.486247700056992,,,,,,24,A,2023-12-13_16h00.52.951,gca_avoidance_task,2022.2.4,143.99324973279747,
positions.xlsx,stimuli.xlsx,stimuli/Social1.png,stimuli/Social2.png,stimuli/Nonsocial1.png,stimuli/Nonsocial2.png,cs_minus_ns,,,,,,,0,0,0,0,,,,,,,,,,,,,0,1,1,3,,,,,,,,,,,,,1953.1559197999304,10.0,3.381377000012435,,,,,,,,,,,,,,,,24,A,2023-12-13_16h00.52.951,gca_avoidance_task,2022.2.4,143.99324973279747,
positions.xlsx,stimuli.xlsx,stimuli/Social1.png,stimuli/Social2.png,stimuli/Nonsocial1.png,stimuli/Nonsocial2.png,cs_minus_s,,,,,,,0,0,0,0,,,,,,,,,,,,,0,2,2,2,,,,,,,,,,,,,1957.2668982999166,7.0,3.077572099980898,,,,,,,,,,,,,,,,24,A,2023-12-13_16h00.52.951,gca_avoidance_task,2022.2.4,143.99324973279747,
positions.xlsx,stimuli.xlsx,stimuli/Social1.png,stimuli/Social2.png,stimuli/Nonsocial1.png,stimuli/Nonsocial2.png,cs_plus_ns,,,,,,,0,0,0,0,,,,,,,,,,,,,0,3,3,1,,,,,,,,,,,,,1961.0514777000062,8.0,4.854534500045702,,,,,,,,,,,,,,,,24,A,2023-12-13_16h00.52.951,gca_avoidance_task,2022.2.4,143.99324973279747,
positions.xlsx,stimuli.xlsx,stimuli/Social1.png,stimuli/Social2.png,stimuli/Nonsocial1.png,stimuli/Nonsocial2.png,cs_plus_s,,,,,,,0,0,0,0,,,,,,,,,,,,,,,,,0,0,0,0,,,,,,,,,,,,,,,,,,,,,,1966.6693111999193,1972.36353829992,7,0.022053199936635792,0.12499779998324811,24,A,2023-12-13_16h00.52.951,gca_avoidance_task,2022.2.4,143.99324973279747,
positions.xlsx,stimuli.xlsx,stimuli/Social1.png,stimuli/Social2.png,stimuli/Nonsocial1.png,stimuli/Nonsocial2.png,cs_minus_ns,,,,,,,0,0,0,0,,,,,,,,,,,,,,,,,0,1,1,3,,,,,,,,,,,,,,,,,,,,,,,1987.7726738000056,6,0.013869900023564696,0.05590569996275008,24,A,2023-12-13_16h00.52.951,gca_avoidance_task,2022.2.4,143.99324973279747,
positions.xlsx,stimuli.xlsx,stimuli/Social1.png,stimuli/Social2.png,stimuli/Nonsocial1.png,stimuli/Nonsocial2.png,cs_minus_s,,,,,,,0,0,0,0,,,,,,,,,,,,,,,,,0,2,2,2,,,,,,,,,,,,,,,,,,,,,,,2002.8971064999932,5,0.013478499953635037,1.5003872000379488,24,A,2023-12-13_16h00.52.951,gca_avoidance_task,2022.2.4,143.99324973279747,
positions.xlsx,stimuli.xlsx,stimuli/Social1.png,stimuli/Social2.png,stimuli/Nonsocial1.png,stimuli/Nonsocial2.png,cs_plus_ns,,,,,,,0,0,0,0,,,,,,,,,,,,,,,,,0,3,3,1,,,,,,,,,,,,,,,,,,,,,,,2018.3825865999097,6,0.014784500002861023,1.694791099987924,24,A,2023-12-13_16h00.52.951,gca_avoidance_task,2022.2.4,143.99324973279747,
positions.xlsx,stimuli.xlsx,stimuli/Social1.png,stimuli/Social2.png,stimuli/Nonsocial1.png,stimuli/Nonsocial2.png,cs_plus_ns,,,,,,,0,0,0,0,,,,,,,,,,,,,,,,,1,0,4,1,,,,,,,,,,,,,,,,,,,,,,,2033.486192499986,8,0.014311700011603534,0.8129084999673069,24,A,2023-12-13_16h00.52.951,gca_avoidance_task,2022.2.4,143.99324973279747,
positions.xlsx,stimuli.xlsx,stimuli/Social1.png,stimuli/Social2.png,stimuli/Nonsocial1.png,stimuli/Nonsocial2.png,cs_minus_s,,,,,,,0,0,0,0,,,,,,,,,,,,,,,,,1,1,5,2,,,,,,,,,,,,,,,,,,,,,,,2048.2772754000034,8,0.013542299973778427,0.6255655999993905,24,A,2023-12-13_16h00.52.951,gca_avoidance_task,2022.2.4,143.99324973279747,
positions.xlsx,stimuli.xlsx,stimuli/Social1.png,stimuli/Social2.png,stimuli/Nonsocial1.png,stimuli/Nonsocial2.png,cs_plus_s,,,,,,,0,0,0,0,,,,,,,,,,,,,,,,,1,2,6,0,,,,,,,,,,,,,,,,,,,,,,,2063.6239166999003,6,0.013728799996897578,1.236175199970603,24,A,2023-12-13_16h00.52.951,gca_avoidance_task,2022.2.4,143.99324973279747,
positions.xlsx,stimuli.xlsx,stimuli/Social1.png,stimuli/Social2.png,stimuli/Nonsocial1.png,stimuli/Nonsocial2.png,cs_minus_ns,,,,,,,0,0,0,0,,,,,,,,,,,,,,,,,1,3,7,3,,,,,,,,,,,,,,,,,,,,,,,2078.283077699947,5,0.013877099961973727,0.9935248999390751,24,A,2023-12-13_16h00.52.951,gca_avoidance_task,2022.2.4,143.99324973279747,
positions.xlsx,stimuli.xlsx,stimuli/Social1.png,stimuli/Social2.png,stimuli/Nonsocial1.png,stimuli/Nonsocial2.png,cs_minus_ns,,,,,,,0,0,0,0,,,,,,,,,,,,,,,,,2,0,8,3,,,,,,,,,,,,,,,,,,,,,,,2093.7338537999894,5,0.014868599944747984,0.5281347000272945,24,A,2023-12-13_16h00.52.951,gca_avoidance_task,2022.2.4,143.99324973279747,
positions.xlsx,stimuli.xlsx,stimuli/Social1.png,stimuli/Social2.png,stimuli/Nonsocial1.png,stimuli/Nonsocial2.png,cs_plus_ns,,,,,,,0,0,0,0,,,,,,,,,,,,,,,,,2,1,9,1,,,,,,,,,,,,,,,,,,,,,,,2108.7749642999843,8,0.014706599991768599,0.021233499981462955,24,A,2023-12-13_16h00.52.951,gca_avoidance_task,2022.2.4,143.99324973279747,
positions.xlsx,stimuli.xlsx,stimuli/Social1.png,stimuli/Social2.png,stimuli/Nonsocial1.png,stimuli/Nonsocial2.png,cs_minus_s,,,,,,,0,0,0,0,,,,,,,,,,,,,,,,,2,2,10,2,,,,,,,,,,,,,,,,,,,,,,,2123.441039999947,6,0.013337800046429038,1.2293279999867082,24,A,2023-12-13_16h00.52.951,gca_avoidance_task,2022.2.4,143.99324973279747,
positions.xlsx,stimuli.xlsx,stimuli/Social1.png,stimuli/Social2.png,stimuli/Nonsocial1.png,stimuli/Nonsocial2.png,cs_plus_s,,,,,,,0,0,0,0,,,,,,,,,,,,,,,,,2,3,11,0,,,,,,,,,,,,,,,,,,,,,,,2138.489093699958,6,0.013722000061534345,0.5627184000331908,24,A,2023-12-13_16h00.52.951,gca_avoidance_task,2022.2.4,143.99324973279747,
positions.xlsx,stimuli.xlsx,stimuli/Social1.png,stimuli/Social2.png,stimuli/Nonsocial1.png,stimuli/Nonsocial2.png,cs_plus_s,,,,,,,0,0,0,0,,,,,,,,,,,,,,,,,3,0,12,0,,,,,,,,,,,,,,,,,,,,,,,2153.1760039000073,6,0.014213899965398014,0.9725539999781176,24,A,2023-12-13_16h00.52.951,gca_avoidance_task,2022.2.4,143.99324973279747,
positions.xlsx,stimuli.xlsx,stimuli/Social1.png,stimuli/Social2.png,stimuli/Nonsocial1.png,stimuli/Nonsocial2.png,cs_minus_s,,,,,,,0,0,0,0,,,,,,,,,,,,,,,,,3,1,13,2,,,,,,,,,,,,,,,,,,,,,,,2168.446243899991,9,0.013637900003232062,1.757379100075923,24,A,2023-12-13_16h00.52.951,gca_avoidance_task,2022.2.4,143.99324973279747,
positions.xlsx,stimuli.xlsx,stimuli/Social1.png,stimuli/Social2.png,stimuli/Nonsocial1.png,stimuli/Nonsocial2.png,cs_plus_ns,,,,,,,0,0,0,0,,,,,,,,,,,,,,,,,3,2,14,1,,,,,,,,,,,,,,,,,,,,,,,2183.3970833999338,8,0.01590659993235022,0.6531490000197664,24,A,2023-12-13_16h00.52.951,gca_avoidance_task,2022.2.4,143.99324973279747,
positions.xlsx,stimuli.xlsx,stimuli/Social1.png,stimuli/Social2.png,stimuli/Nonsocial1.png,stimuli/Nonsocial2.png,cs_minus_ns,,,,,,,0,0,0,0,,,,,,,,,,,,,,,,,3,3,15,3,,,,,,,,,,,,,,,,,,,,,,,2198.7298588999547,6,0.013870500028133392,1.7431494999909773,24,A,2023-12-13_16h00.52.951,gca_avoidance_task,2022.2.4,143.99324973279747,
positions.xlsx,stimuli.xlsx,stimuli/Social1.png,stimuli/Social2.png,stimuli/Nonsocial1.png,stimuli/Nonsocial2.png,cs_minus_ns,,,,,,,0,0,0,0,,,,,,,,,,,,,,,,,4,0,16,3,,,,,,,,,,,,,,,,,,,,,,,2213.7222675000085,8,0.013954099966213107,0.9103105999529362,24,A,2023-12-13_16h00.52.951,gca_avoidance_task,2022.2.4,143.99324973279747,
positions.xlsx,stimuli.xlsx,stimuli/Social1.png,stimuli/Social2.png,stimuli/Nonsocial1.png,stimuli/Nonsocial2.png,cs_minus_s,,,,,,,0,0,0,0,,,,,,,,,,,,,,,,,4,1,17,2,,,,,,,,,,,,,,,,,,,,,,,2228.284230099991,8,0.07676800002809614,0.7918410999700427,24,A,2023-12-13_16h00.52.951,gca_avoidance_task,2022.2.4,143.99324973279747,
positions.xlsx,stimuli.xlsx,stimuli/Social1.png,stimuli/Social2.png,stimuli/Nonsocial1.png,stimuli/Nonsocial2.png,cs_plus_s,,,,,,,0,0,0,0,,,,,,,,,,,,,,,,,4,2,18,0,,,,,,,,,,,,,,,,,,,,,,,2242.818395899958,6,0.01353579992428422,0.04197499994188547,24,A,2023-12-13_16h00.52.951,gca_avoidance_task,2022.2.4,143.99324973279747,
positions.xlsx,stimuli.xlsx,stimuli/Social1.png,stimuli/Social2.png,stimuli/Nonsocial1.png,stimuli/Nonsocial2.png,cs_plus_ns,,,,,,,0,0,0,0,,,,,,,,,,,,,,,,,4,3,19,1,,,,,,,,,,,,,,,,,,,,,,,2257.366433499963,8,0.014133400050923228,0.6741591000463814,24,A,2023-12-13_16h00.52.951,gca_avoidance_task,2022.2.4,143.99324973279747,
positions.xlsx,stimuli.xlsx,stimuli/Social1.png,stimuli/Social2.png,stimuli/Nonsocial1.png,stimuli/Nonsocial2.png,cs_plus_s,,,,,,,0,0,0,0,,,,,,,,,,,,,,,,,5,0,20,0,,,,,,,,,,,,,,,,,,,,,,,2272.032529399963,7,0.09824450011365116,2.1739342000801116,24,A,2023-12-13_16h00.52.951,gca_avoidance_task,2022.2.4,143.99324973279747,
positions.xlsx,stimuli.xlsx,stimuli/Social1.png,stimuli/Social2.png,stimuli/Nonsocial1.png,stimuli/Nonsocial2.png,cs_minus_s,,,,,,,0,0,0,0,,,,,,,,,,,,,,,,,5,1,21,2,,,,,,,,,,,,,,,,,,,,,,,2286.906976999948,6,0.013234500074759126,0.8683957000030205,24,A,2023-12-13_16h00.52.951,gca_avoidance_task,2022.2.4,143.99324973279747,
positions.xlsx,stimuli.xlsx,stimuli/Social1.png,stimuli/Social2.png,stimuli/Nonsocial1.png,stimuli/Nonsocial2.png,cs_plus_ns,,,,,,,0,0,0,0,,,,,,,,,,,,,,,,,5,2,22,1,,,,,,,,,,,,,,,,,,,,,,,2301.7397371999687,7,0.014011500054039061,0.416875800001435,24,A,2023-12-13_16h00.52.951,gca_avoidance_task,2022.2.4,143.99324973279747,
positions.xlsx,stimuli.xlsx,stimuli/Social1.png,stimuli/Social2.png,stimuli/Nonsocial1.png,stimuli/Nonsocial2.png,cs_minus_ns,,,,,,,0,0,0,0,,,,,,,,,,,,,,,,,5,3,23,3,,,,,,,,,,,,,,,,,,,,,,,2317.0516344999196,6,0.013978500035591424,0.7434182000579312,24,A,2023-12-13_16h00.52.951,gca_avoidance_task,2022.2.4,143.99324973279747,
positions.xlsx,stimuli.xlsx,stimuli/Social1.png,stimuli/Social2.png,stimuli/Nonsocial1.png,stimuli/Nonsocial2.png,cs_minus_ns,,,,,,,0,0,0,0,,,,,,,,,,,,,,,,,6,0,24,3,,,,,,,,,,,,,,,,,,,,,,,2332.3635587999597,6,0.014646800002083182,0.31284569995477796,24,A,2023-12-13_16h00.52.951,gca_avoidance_task,2022.2.4,143.99324973279747,
positions.xlsx,stimuli.xlsx,stimuli/Social1.png,stimuli/Social2.png,stimuli/Nonsocial1.png,stimuli/Nonsocial2.png,cs_plus_ns,,,,,,,0,0,0,0,,,,,,,,,,,,,,,,,6,1,25,1,,,,,,,,,,,,,,,,,,,,,,,2347.328240899951,10,0.015029700007289648,0.3406624000053853,24,A,2023-12-13_16h00.52.951,gca_avoidance_task,2022.2.4,143.99324973279747,
positions.xlsx,stimuli.xlsx,stimuli/Social1.png,stimuli/Social2.png,stimuli/Nonsocial1.png,stimuli/Nonsocial2.png,cs_minus_s,,,,,,,0,0,0,0,,,,,,,,,,,,,,,,,6,2,26,2,,,,,,,,,,,,,,,,,,,,,,,2361.9596252999036,8,0.013445999938994646,0.48655259993392974,24,A,2023-12-13_16h00.52.951,gca_avoidance_task,2022.2.4,143.99324973279747,
positions.xlsx,stimuli.xlsx,stimuli/Social1.png,stimuli/Social2.png,stimuli/Nonsocial1.png,stimuli/Nonsocial2.png,cs_plus_s,,,,,,,0,0,0,0,,,,,,,,,,,,,,,,,6,3,27,0,,,,,,,,,,,,,,,,,,,,,,,2376.8270797999576,8,0.013803500100038946,0.5767040000064299,24,A,2023-12-13_16h00.52.951,gca_avoidance_task,2022.2.4,143.99324973279747,
positions.xlsx,stimuli.xlsx,stimuli/Social1.png,stimuli/Social2.png,stimuli/Nonsocial1.png,stimuli/Nonsocial2.png,cs_plus_ns,,,,,,,0,0,0,0,,,,,,,,,,,,,,,,,7,0,28,1,,,,,,,,,,,,,,,,,,,,,,,2391.548766699969,8,0.014217899995855987,0.5836945000337437,24,A,2023-12-13_16h00.52.951,gca_avoidance_task,2022.2.4,143.99324973279747,
positions.xlsx,stimuli.xlsx,stimuli/Social1.png,stimuli/Social2.png,stimuli/Nonsocial1.png,stimuli/Nonsocial2.png,cs_plus_s,,,,,,,0,0,0,0,,,,,,,,,,,,,,,,,7,1,29,0,,,,,,,,,,,,,,,,,,,,,,,2406.145426800009,7,0.11152620008215308,0.6046484999824315,24,A,2023-12-13_16h00.52.951,gca_avoidance_task,2022.2.4,143.99324973279747,
positions.xlsx,stimuli.xlsx,stimuli/Social1.png,stimuli/Social2.png,stimuli/Nonsocial1.png,stimuli/Nonsocial2.png,cs_minus_s,,,,,,,0,0,0,0,,,,,,,,,,,,,,,,,7,2,30,2,,,,,,,,,,,,,,,,,,,,,,,2421.005945199984,8,0.014024500036612153,0.45943839999381453,24,A,2023-12-13_16h00.52.951,gca_avoidance_task,2022.2.4,143.99324973279747,
positions.xlsx,stimuli.xlsx,stimuli/Social1.png,stimuli/Social2.png,stimuli/Nonsocial1.png,stimuli/Nonsocial2.png,cs_minus_ns,,,,,,,0,0,0,0,,,,,,,,,,,,,,,,,7,3,31,3,,,,,,,,,,,,,,,,,,,,,,,2436.2484275999013,8,0.014260599971748888,0.7640874999342486,24,A,2023-12-13_16h00.52.951,gca_avoidance_task,2022.2.4,143.99324973279747,
positions.xlsx,stimuli.xlsx,stimuli/Social1.png,stimuli/Social2.png,stimuli/Nonsocial1.png,stimuli/Nonsocial2.png,cs_minus_ns,,,,,,,0,0,0,0,,,,,,,,,,,,,,,,,8,0,32,3,,,,,,,,,,,,,,,,,,,,,,,2450.7964808999095,7,0.013975200010463595,0.34768530004657805,24,A,2023-12-13_16h00.52.951,gca_avoidance_task,2022.2.4,143.99324973279747,
positions.xlsx,stimuli.xlsx,stimuli/Social1.png,stimuli/Social2.png,stimuli/Nonsocial1.png,stimuli/Nonsocial2.png,cs_plus_ns,,,,,,,0,0,0,0,,,,,,,,,,,,,,,,,8,1,33,1,,,,,,,,,,,,,,,,,,,,,,,2466.122276899987,7,0.014413699973374605,0.6046080000232905,24,A,2023-12-13_16h00.52.951,gca_avoidance_task,2022.2.4,143.99324973279747,
positions.xlsx,stimuli.xlsx,stimuli/Social1.png,stimuli/Social2.png,stimuli/Nonsocial1.png,stimuli/Nonsocial2.png,cs_plus_s,,,,,,,0,0,0,0,,,,,,,,,,,,,,,,,8,2,34,0,,,,,,,,,,,,,,,,,,,,,,,2481.170314499992,9,0.013605099986307323,0.1812074000481516,24,A,2023-12-13_16h00.52.951,gca_avoidance_task,2022.2.4,143.99324973279747,
positions.xlsx,stimuli.xlsx,stimuli/Social1.png,stimuli/Social2.png,stimuli/Nonsocial1.png,stimuli/Nonsocial2.png,cs_minus_s,,,,,,,0,0,0,0,,,,,,,,,,,,,,,,,8,3,35,2,,,,,,,,,,,,,,,,,,,,,,,2495.989201499964,9,0.013827500049956143,0.16700889996718615,24,A,2023-12-13_16h00.52.951,gca_avoidance_task,2022.2.4,143.99324973279747,
positions.xlsx,stimuli.xlsx,stimuli/Social1.png,stimuli/Social2.png,stimuli/Nonsocial1.png,stimuli/Nonsocial2.png,cs_minus_s,,,,,,,0,0,0,0,,,,,,,,,,,,,,,,,9,0,36,2,,,,,,,,,,,,,,,,,,,,,,,2511.1969346000114,8,0.014692400000058115,0.6393719000043347,24,A,2023-12-13_16h00.52.951,gca_avoidance_task,2022.2.4,143.99324973279747,
positions.xlsx,stimuli.xlsx,stimuli/Social1.png,stimuli/Social2.png,stimuli/Nonsocial1.png,stimuli/Nonsocial2.png,cs_plus_s,,,,,,,0,0,0,0,,,,,,,,,,,,,,,,,9,1,37,0,,,,,,,,,,,,,,,,,,,,,,,2526.6685535999713,5,0.08380589995067567,1.88908240001183,24,A,2023-12-13_16h00.52.951,gca_avoidance_task,2022.2.4,143.99324973279747,
positions.xlsx,stimuli.xlsx,stimuli/Social1.png,stimuli/Social2.png,stimuli/Nonsocial1.png,stimuli/Nonsocial2.png,cs_minus_ns,,,,,,,0,0,0,0,,,,,,,,,,,,,,,,,9,2,38,3,,,,,,,,,,,,,,,,,,,,,,,2541.30692439992,8,0.013874300057068467,0.4170266001019627,24,A,2023-12-13_16h00.52.951,gca_avoidance_task,2022.2.4,143.99324973279747,
positions.xlsx,stimuli.xlsx,stimuli/Social1.png,stimuli/Social2.png,stimuli/Nonsocial1.png,stimuli/Nonsocial2.png,cs_plus_ns,,,,,,,0,0,0,0,,,,,,,,,,,,,,,,,9,3,39,1,,,,,,,,,,,,,,,,,,,,,,,2556.042407699977,6,0.014250699896365404,2.194819699972868,24,A,2023-12-13_16h00.52.951,gca_avoidance_task,2022.2.4,143.99324973279747,
positions.xlsx,stimuli.xlsx,stimuli/Social1.png,stimuli/Social2.png,stimuli/Nonsocial1.png,stimuli/Nonsocial2.png,cs_plus_s,,,,,,,0,0,0,0,,,,,,,,,,,,,,,,,,,,,0,0,0,0,,,,,2570.458549199975,6.0,5.1078255999600515,,,,,,,,,,,,,,,,24,A,2023-12-13_16h00.52.951,gca_avoidance_task,2022.2.4,143.99324973279747,
positions.xlsx,stimuli.xlsx,stimuli/Social1.png,stimuli/Social2.png,stimuli/Nonsocial1.png,stimuli/Nonsocial2.png,cs_minus_ns,,,,,,,0,0,0,0,,,,,,,,,,,,,,,,,,,,,0,1,1,3,,,,,2577.388830599957,10.0,2.6523307999596,,,,,,,,,,,,,,,,24,A,2023-12-13_16h00.52.951,gca_avoidance_task,2022.2.4,143.99324973279747,
positions.xlsx,stimuli.xlsx,stimuli/Social1.png,stimuli/Social2.png,stimuli/Nonsocial1.png,stimuli/Nonsocial2.png,cs_plus_ns,,,,,,,0,0,0,0,,,,,,,,,,,,,,,,,,,,,0,2,2,1,,,,,2580.8331485999515,8.0,2.2644140999764204,,,,,,,,,,,,,,,,24,A,2023-12-13_16h00.52.951,gca_avoidance_task,2022.2.4,143.99324973279747,
positions.xlsx,stimuli.xlsx,stimuli/Social1.png,stimuli/Social2.png,stimuli/Nonsocial1.png,stimuli/Nonsocial2.png,cs_minus_s,,,,,,,0,0,0,0,,,,,,,,,,,,,,,,,,,,,0,3,3,2,,,,,2583.9649794999277,7.0,2.6949085000669584,,,,,,,,,,,,,,,,24,A,2023-12-13_16h00.52.951,gca_avoidance_task,2022.2.4,143.99324973279747,
