posFile,stimFile,cs_plus_s,cs_minus_s,cs_plus_ns,cs_minus_ns,stimtype,position,trialtype,trials_threshold.thisRepN,trials_threshold.thisTrialN,trials_threshold.thisN,trials_threshold.thisIndex,blocks.thisRepN,blocks.thisTrialN,blocks.thisN,blocks.thisIndex,ratingtrials1.thisRepN,ratingtrials1.thisTrialN,ratingtrials1.thisN,ratingtrials1.thisIndex,learning_trials.thisRepN,learning_trials.thisTrialN,learning_trials.thisN,learning_trials.thisIndex,trials.thisRepN,trials.thisTrialN,trials.thisN,trials.thisIndex,ratingtrials2.thisRepN,ratingtrials2.thisTrialN,ratingtrials2.thisN,ratingtrials2.thisIndex,testtrials.thisRepN,testtrials.thisTrialN,testtrials.thisN,testtrials.thisIndex,ratingtrials3.thisRepN,ratingtrials3.thisTrialN,ratingtrials3.thisN,ratingtrials3.thisIndex,textStart.started,spaceStart.started,spaceStart.keys,spaceStart.rt,textPainThreshold.started,spacePainThreshold.started,spacePainThreshold.keys,spacePainThreshold.rt,textRateT.started,text_noPainT.started,text_slightPainT.started,text_highPainT.started,sliderPainT.started,keys_PainT.started,sliderPainT.response,sliderPainT.rt,keys_PainT.keys,keys_PainT.rt,fixcrossT.started,portShock1T.started,portShock1T.stopped,portShock2T.started,portShock2T.stopped,portShock3T.started,portShock3T.stopped,fixcrossT.stopped,text_ETCalibration.started,spaceETCalibration.started,spaceETCalibration.keys,spaceETCalibration.rt,textStartExp.started,spaceStartExp.started,spaceStartExp.keys,spaceStartExp.rt,imageRating.started,sliderStim.started,spaceStim.started,sliderStim.response,sliderStim.rt,spaceStim.keys,spaceStim.rt,textStartTask.started,spaceStartTask.started,spaceStartTask.keys,spaceStartTask.rt,blankScreen.started,blankScreen.stopped,fixcross.started,image.started,roi.started,gazeCursor.started,portImage.started,portImage.stopped,score,outcome,roi.numLooks,roi.timesOn,roi.timesOff,imageFeedback.started,gazeCursor_Feedback.started,soundFeedback.started,portShock1.started,portShock1.stopped,portShock2.started,portShock2.stopped,portShock3.started,portShock3.stopped,soundFeedback.stopped,fixcrossE.started,fixcrossE.stopped,textRepeatTask.started,textboxRepeatInstruction.started,textRepeatSpace.started,spaceRepeatTask.started,spaceRepeatTask.keys,spaceRepeatTask.rt,textRate.started,text_noPain.started,text_slightPain.started,text_highPain.started,sliderPain.started,textSpacePain.started,spacePain.started,sliderPain.response,sliderPain.rt,spacePain.keys,spacePain.rt,textTestInstr.started,spaceTestInstr.started,spaceTestInstr.keys,spaceTestInstr.rt,imageTest.started,roiTest.started,portTestImage.started,portTestImage.stopped,roiTest.numLooks,roiTest.timesOn,roiTest.timesOff,participant,group,date,expName,psychopyVersion,frameRate,
,,,,,,,,,,,,,,,,,,,,,,,,,,,,,,,,,,,,,,,,,23.54746100003831,23.54746100003831,space,740.4038543000352,,,,,,,,,,,,,,,,,,,,,,,,,,,,,,,,,,,,,,,,,,,,,,,,,,,,,,,,,,,,,,,,,,,,,,,,,,,,,,,,,,,,,,,,,,,,,,,22,D,2023-12-12_15h44.26.704,gca_avoidance_task,2022.2.4,143.84577441283983,
,,,,,,,,,,,,,,,,,,,,,,,,,,,,,,,,,,,,,,,,,,,,,763.9624817000004,763.9624817000004,space,17.141328700003214,,,,,,,,,,,,,,,,,,,,,,,,,,,,,,,,,,,,,,,,,,,,,,,,,,,,,,,,,,,,,,,,,,,,,,,,,,,,,,,,,,,,,,,,,,,22,D,2023-12-12_15h44.26.704,gca_avoidance_task,2022.2.4,143.84577441283983,
,,,,,,,,,0,0,0,0,,,,,,,,,,,,,,,,,,,,,,,,,,,,,,,,,,,,,782.267316500016,782.267316500016,782.267316500016,782.267316500016,782.267316500016,782.267316500016,None,None,s,15.04474109999137,797.9680976000382,0.10572659998433664,0.11263190000317991,0.15435169998090714,0.16131830000085756,0.20290530001511797,0.20990930002881214,,,,,,,,,,,,,,,,,,,,,,,,,,,,,,,,,,,,,,,,,,,,,,,,,,,,,,,,,,,,,,,,,,,,,,,,,,22,D,2023-12-12_15h44.26.704,gca_avoidance_task,2022.2.4,143.84577441283983,
,,,,,,,,,1,0,1,0,,,,,,,,,,,,,,,,,,,,,,,,,,,,,,,,,,,,,798.8013950000168,798.8013950000168,798.8013950000168,798.8013950000168,798.8013950000168,798.8013950000168,0.0,11.191075899987482,s,15.909879699989688,815.2174262000481,0.10007129999576136,0.1070297000114806,0.15565699996659532,0.16259249998256564,0.2042183000012301,0.2111554999719374,815.9673645000439,,,,,,,,,,,,,,,,,,,,,,,,,,,,,,,,,,,,,,,,,,,,,,,,,,,,,,,,,,,,,,,,,,,,,,,,,22,D,2023-12-12_15h44.26.704,gca_avoidance_task,2022.2.4,143.84577441283983,
,,,,,,,,,2,0,2,0,,,,,,,,,,,,,,,,,,,,,,,,,,,,,,,,,,,,,815.9673645000439,815.9673645000439,815.9673645000439,815.9673645000439,815.9673645000439,815.9673645000439,3.0,6.502509800018743,s,12.576630699972156,829.0571735000121,0.10538199997972697,0.11235489998944104,0.15402479999465868,0.16098719998262823,0.2026522999512963,0.20964039996033534,,,,,,,,,,,,,,,,,,,,,,,,,,,,,,,,,,,,,,,,,,,,,,,,,,,,,,,,,,,,,,,,,,,,,,,,,,22,D,2023-12-12_15h44.26.704,gca_avoidance_task,2022.2.4,143.84577441283983,
,,,,,,,,,3,0,3,0,,,,,,,,,,,,,,,,,,,,,,,,,,,,,,,,,,,,,829.807126300002,829.807126300002,829.807126300002,829.807126300002,829.807126300002,829.807126300002,6.0,2.030313099967316,s,11.496835500001907,841.7927734000259,0.09998440003255382,0.10693449998507276,0.15557689999695867,0.1625472999876365,0.20413480000570416,0.21114730002591386,842.6052473000018,,,,,,,,,,,,,,,,,,,,,,,,,,,,,,,,,,,,,,,,,,,,,,,,,,,,,,,,,,,,,,,,,,,,,,,,,22,D,2023-12-12_15h44.26.704,gca_avoidance_task,2022.2.4,143.84577441283983,
,,,,,,,,,4,0,4,0,,,,,,,,,,,,,,,,,,,,,,,,,,,,,,,,,,,,,842.6052473000018,842.6052473000018,842.6052473000018,842.6052473000018,842.6052473000018,842.6052473000018,8.0,2.390978300012648,s,10.322814300016034,853.4242861000239,0.09908770001493394,0.10608240001602098,0.15464500000234693,0.16163210000377148,0.20328950003022328,0.21023010002681985,854.1742419000366,,,,,,,,,,,,,,,,,,,,,,,,,,,,,,,,,,,,,,,,,,,,,,,,,,,,,,,,,,,,,,,,,,,,,,,,,22,D,2023-12-12_15h44.26.704,gca_avoidance_task,2022.2.4,143.84577441283983,
,,,,,,,,,5,0,5,0,,,,,,,,,,,,,,,,,,,,,,,,,,,,,,,,,,,,,854.1742419000366,854.1742419000366,854.1742419000366,854.1742419000366,854.1742419000366,854.1742419000366,0.0,5.2167291000369005,s,11.266072000027634,865.9446068000398,0.10333600000012666,0.11028419999638572,0.151931100001093,0.15887679997831583,0.2005428000120446,0.2075059000053443,866.7779319999972,,,,,,,,,,,,,,,,,,,,,,,,,,,,,,,,,,,,,,,,,,,,,,,,,,,,,,,,,,,,,,,,,,,,,,,,,22,D,2023-12-12_15h44.26.704,gca_avoidance_task,2022.2.4,143.84577441283983,
,,,,,,,,,6,0,6,0,,,,,,,,,,,,,,,,,,,,,,,,,,,,,,,,,,,,,866.7779319999972,866.7779319999972,866.7779319999972,866.7779319999972,866.7779319999972,866.7779319999972,2.0,4.074760799994692,s,11.24657620000653,878.5275045000017,0.10352270002476871,0.11045330000342801,0.1520818000426516,0.15909060003468767,0.20071180001832545,0.20765630004461855,879.2774529000162,,,,,,,,,,,,,,,,,,,,,,,,,,,,,,,,,,,,,,,,,,,,,,,,,,,,,,,,,,,,,,,,,,,,,,,,,22,D,2023-12-12_15h44.26.704,gca_avoidance_task,2022.2.4,143.84577441283983,
,,,,,,,,,7,0,7,0,,,,,,,,,,,,,,,,,,,,,,,,,,,,,,,,,,,,,879.2774529000162,879.2774529000162,879.2774529000162,879.2774529000162,879.2774529000162,879.2774529000162,4.0,1.6496532000019215,s,7.1549283000058495,886.929956500011,0.09968949999893084,0.10670939995907247,0.1552456999779679,0.16219130001263693,0.20384289999492466,0.21081059996504337,887.6799095000024,,,,,,,,,,,,,,,,,,,,,,,,,,,,,,,,,,,,,,,,,,,,,,,,,,,,,,,,,,,,,,,,,,,,,,,,,22,D,2023-12-12_15h44.26.704,gca_avoidance_task,2022.2.4,143.84577441283983,
,,,,,,,,,8,0,8,0,,,,,,,,,,,,,,,,,,,,,,,,,,,,,,,,,,,,,887.6799095000024,887.6799095000024,887.6799095000024,887.6799095000024,887.6799095000024,887.6799095000024,5.0,4.240180200024042,s,9.271946699998807,897.4503386000288,0.10359389998484403,0.11053760000504553,0.15221490000840276,0.15910569997504354,0.20082580001326278,0.20775150001281872,898.2072454000008,,,,,,,,,,,,,,,,,,,,,,,,,,,,,,,,,,,,,,,,,,,,,,,,,,,,,,,,,,,,,,,,,,,,,,,,,22,D,2023-12-12_15h44.26.704,gca_avoidance_task,2022.2.4,143.84577441283983,
,,,,,,,,,9,0,9,0,,,,,,,,,,,,,,,,,,,,,,,,,,,,,,,,,,,,,898.2072454000008,898.2072454000008,898.2072454000008,898.2072454000008,898.2072454000008,898.2072454000008,6.0,1.8344074999913573,s,7.9683475000201724,906.6653061000397,0.10030109999934211,0.10722040000837296,0.1558031999738887,0.1627895999699831,0.20441279996884987,0.21136149996891618,907.4152450000402,,,,,,,,,,,,,,,,,,,,,,,,,,,,,,,,,,,,,,,,,,,,,,,,,,,,,,,,,,,,,,,,,,,,,,,,,22,D,2023-12-12_15h44.26.704,gca_avoidance_task,2022.2.4,143.84577441283983,
,,,,,,,,,10,0,10,0,,,,,,,,,,,,,,,,,,,,,,,,,,,,,,,,,,,,,907.4152450000402,907.4152450000402,907.4152450000402,907.4152450000402,907.4152450000402,907.4152450000402,7.0,3.1825816000346094,s,8.785405600036029,916.71350730001,0.105427399976179,0.1123420000076294,0.15402780001750216,0.1609782999730669,0.2026338999858126,0.20958849997259676,,,,,,,,,,,,,,,,,,,,,,,,,,,,,,,,,,,,,,,,,,,,,,,,,,,,,,,,,,,,,,,,,,,,,,,,,,22,D,2023-12-12_15h44.26.704,gca_avoidance_task,2022.2.4,143.84577441283983,
,,,,,,,,,11,0,11,0,,,,,,,,,,,,,,,,,,,,,,,,,,,,,,,,,,,,,917.4703978000325,917.4703978000325,917.4703978000325,917.4703978000325,917.4703978000325,917.4703978000325,6.0,2.7584220999851823,s,17.120840799994767,935.0947572000441,0.10506729996996,0.11196559999370947,0.15365679998649284,0.1605818999814801,0.20224009995581582,0.20921109995106235,,,,,,,,,,,,,,,,,,,,,,,,,,,,,,,,,,,,,,,,,,,,,,,,,,,,,,,,,,,,,,,,,,,,,,,,,,22,D,2023-12-12_15h44.26.704,gca_avoidance_task,2022.2.4,143.84577441283983,
,,,,,,,,,12,0,12,0,,,,,,,,,,,,,,,,,,,,,,,,,,,,,,,,,,,,,935.8377360000159,935.8377360000159,935.8377360000159,935.8377360000159,935.8377360000159,935.8377360000159,None,None,g,3.8899962000432424,940.2333673000103,,,,,,,,,,,,,,,,,,,,,,,,,,,,,,,,,,,,,,,,,,,,,,,,,,,,,,,,,,,,,,,,,,,,,,,,,,,,,,,,22,D,2023-12-12_15h44.26.704,gca_avoidance_task,2022.2.4,143.84577441283983,
,,,,,,,,,,,,,,,,,,,,,,,,,,,,,,,,,,,,,,,,,,,,,,,,,,,,,,,,,,,,,,,,,,,940.2333673000103,940.2333673000103,space,45.486038300034124,,,,,,,,,,,,,,,,,,,,,,,,,,,,,,,,,,,,,,,,,,,,,,,,,,,,,,,,,,,,,,,,,,,,,22,D,2023-12-12_15h44.26.704,gca_avoidance_task,2022.2.4,143.84577441283983,
positions.xlsx,stimuli.xlsx,stimuli/Social2.png,stimuli/Social1.png,stimuli/Nonsocial2.png,stimuli/Nonsocial1.png,cs_minus_s,,,,,,,0,0,0,0,0,0,0,2,,,,,,,,,,,,,,,,,,,,,,,,,,,,,,,,,,,,,,,,,,,,,,,,,,,1079.6795058000134,1079.6795058000134,space,35.59190599998692,1115.3168083000346,1115.3168083000346,1121.497137700033,6.0,8.188109000038821,space,4.063600399997085,,,,,,,,,,,,,,,,,,,,,,,,,,,,,,,,,,,,,,,,,,,,,,,,,,,,,,,,,,22,D,2023-12-12_15h44.26.704,gca_avoidance_task,2022.2.4,143.84577441283983,
positions.xlsx,stimuli.xlsx,stimuli/Social2.png,stimuli/Social1.png,stimuli/Nonsocial2.png,stimuli/Nonsocial1.png,cs_plus_ns,,,,,,,0,0,0,0,0,1,1,1,,,,,,,,,,,,,,,,,,,,,,,,,,,,,,,,,,,,,,,,,,,,,,,,,,,,,,,1125.6011295000208,1125.6011295000208,1130.1565214000293,4.0,4.547677800001111,space,0.41151939996052533,,,,,,,,,,,,,,,,,,,,,,,,,,,,,,,,,,,,,,,,,,,,,,,,,,,,,,,,,,22,D,2023-12-12_15h44.26.704,gca_avoidance_task,2022.2.4,143.84577441283983,
positions.xlsx,stimuli.xlsx,stimuli/Social2.png,stimuli/Social1.png,stimuli/Nonsocial2.png,stimuli/Nonsocial1.png,cs_minus_ns,,,,,,,0,0,0,0,0,2,2,3,,,,,,,,,,,,,,,,,,,,,,,,,,,,,,,,,,,,,,,,,,,,,,,,,,,,,,,1130.6009457000182,1130.6009457000182,1132.9272310000379,4.0,2.318560999992769,space,0.24031269998522475,,,,,,,,,,,,,,,,,,,,,,,,,,,,,,,,,,,,,,,,,,,,,,,,,,,,,,,,,,22,D,2023-12-12_15h44.26.704,gca_avoidance_task,2022.2.4,143.84577441283983,
positions.xlsx,stimuli.xlsx,stimuli/Social2.png,stimuli/Social1.png,stimuli/Nonsocial2.png,stimuli/Nonsocial1.png,cs_plus_s,,,,,,,0,0,0,0,0,3,3,0,,,,,,,,,,,,,,,,,,,,,,,,,,,,,,,,,,,,,,,,,,,,,,,,,,,,,,,1133.1980852000415,1133.1980852000415,1136.0104258999927,5.0,2.8052848000079393,space,0.15756239998154342,,,,,,,,,,,,,,,,,,,,,,,,,,,,,,,,,,,,,,,,,,,,,,,,,,,,,,,,,,22,D,2023-12-12_15h44.26.704,gca_avoidance_task,2022.2.4,143.84577441283983,
positions.xlsx,stimuli.xlsx,stimuli/Social2.png,stimuli/Social1.png,stimuli/Nonsocial2.png,stimuli/Nonsocial1.png,,"(-0.7, 0.5)",cs_plus_s,,,,,0,0,0,0,,,,,0,0,0,0,,,,,,,,,,,,,,,,,,,,,,,,,,,,,,,,,,,,,,,,,,,,,,,,,,,,,,,,,,1136.1840380000067,1136.1840380000067,space,18.97598940000171,1158.1692710000207,1159.6553335000062,1157.669329299999,1159.6553335000062,1159.6553335000062,1159.6553335000062,0.015491199970711023,0.027128499990794808,0,shock,1,[0.3682705999817699],[0.36827459995402023],1160.0233742000419,1160.0233742000419,0.01613030000589788,0.01613030000589788,0.02542750001884997,0.05312910000793636,0.06007360003422946,0.10175339999841526,0.10868560004746541,1.011444300005678,1163.5093584000133,1167.1828796000336,,,,,,,,,,,,,,,,,,,,,,,,,,,,,22,D,2023-12-12_15h44.26.704,gca_avoidance_task,2022.2.4,143.84577441283983,
positions.xlsx,stimuli.xlsx,stimuli/Social2.png,stimuli/Social1.png,stimuli/Nonsocial2.png,stimuli/Nonsocial1.png,,"(-0.7, 0.5)",cs_minus_ns,,,,,0,0,0,0,,,,,0,1,1,12,,,,,,,,,,,,,,,,,,,,,,,,,,,,,,,,,,,,,,,,,,,,,,,,,,,,,,,,,,,,,,1167.6897252000053,1169.2174625000334,1167.1828796000336,1169.2174625000334,1169.2174625000334,1169.2174625000334,0.007514800003264099,0.01304699998581782,5,reward,1,[0.19453430001158267],[0.1945378999807872],1169.425817600044,1169.425817600044,0.008398599980864674,0.008398599980864674,0.025449200009461492,0.05310359998838976,0.06006570003228262,0.1017244000104256,0.10868150001624599,1.0044645000016317,1172.9117754000472,1177.376900400035,,,,,,,,,,,,,,,,,,,,,,,,,,,,,22,D,2023-12-12_15h44.26.704,gca_avoidance_task,2022.2.4,143.84577441283983,
positions.xlsx,stimuli.xlsx,stimuli/Social2.png,stimuli/Social1.png,stimuli/Nonsocial2.png,stimuli/Nonsocial1.png,,"(-0.7, -0.5)",cs_minus_ns,,,,,0,0,0,0,,,,,0,2,2,13,,,,,,,,,,,,,,,,,,,,,,,,,,,,,,,,,,,,,,,,,,,,,,,,,,,,,,,,,,,,,,1177.8838126000483,1179.4948210000293,1177.376900400035,1179.4948210000293,1179.4948210000293,1179.4948210000293,0.006651400006376207,0.013527999981306493,10,reward,1,[0.2159899999969639],[0.21599360002437606],1179.7170348000363,1179.7170348000363,0.007596599985845387,0.007596599985845387,0.018340100010391325,0.052984400012064725,0.05995039996923879,0.1016179000143893,0.1085435000131838,1.004310499993153,1183.2099930000259,1187.5153992000269,,,,,,,,,,,,,,,,,,,,,,,,,,,,,22,D,2023-12-12_15h44.26.704,gca_avoidance_task,2022.2.4,143.84577441283983,
positions.xlsx,stimuli.xlsx,stimuli/Social2.png,stimuli/Social1.png,stimuli/Nonsocial2.png,stimuli/Nonsocial1.png,,"(0.7, -0.5)",cs_minus_s,,,,,0,0,0,0,,,,,0,3,3,7,,,,,,,,,,,,,,,,,,,,,,,,,,,,,,,,,,,,,,,,,,,,,,,,,,,,,,,,,,,,,,1188.0222797000315,1189.3417031000135,1187.5153992000269,1189.3417031000135,1189.3417031000135,1189.3417031000135,0.006176900002174079,0.013466100033838302,15,reward,1,[0.20226869999896735],[0.20227250002790242],1189.5500129000284,1189.5500129000284,0.007059100025799125,0.007059100025799125,0.01822690002154559,0.052824400016106665,0.0597832000348717,0.10145170002942905,0.10843870003009215,1.0041833000141196,1193.0428968000342,1196.7303291000426,,,,,,,,,,,,,,,,,,,,,,,,,,,,,22,D,2023-12-12_15h44.26.704,gca_avoidance_task,2022.2.4,143.84577441283983,
positions.xlsx,stimuli.xlsx,stimuli/Social2.png,stimuli/Social1.png,stimuli/Nonsocial2.png,stimuli/Nonsocial1.png,,"(-0.7, -0.5)",cs_plus_s,,,,,0,0,0,0,,,,,0,4,4,1,,,,,,,,,,,,,,,,,,,,,,,,,,,,,,,,,,,,,,,,,,,,,,,,,,,,,,,,,,,,,,1197.23718440003,1199.0218535000458,1196.7303291000426,1199.0218535000458,1199.0218535000458,1199.0218535000458,0.006017900013830513,0.013095400005113333,15,shock,1,[0.27800550003303215],[0.278009400004521],1199.3065525999991,1199.3065525999991,0.007518399972468615,0.007518399972468615,0.018175399978645146,0.052883800002746284,0.059870800003409386,0.10144779999973252,0.10843099997146055,1.004252600017935,1202.7995230000233,1206.4868922000169,,,,,,,,,,,,,,,,,,,,,,,,,,,,,22,D,2023-12-12_15h44.26.704,gca_avoidance_task,2022.2.4,143.84577441283983,
positions.xlsx,stimuli.xlsx,stimuli/Social2.png,stimuli/Social1.png,stimuli/Nonsocial2.png,stimuli/Nonsocial1.png,,"(-0.7, 0.5)",cs_minus_s,,,,,0,0,0,0,,,,,0,5,5,4,,,,,,,,,,,,,,,,,,,,,,,,,,,,,,,,,,,,,,,,,,,,,,,,,,,,,,,,,,,,,,1206.9937166000018,1208.1603860000032,1206.4868922000169,1208.1603860000032,1208.1603860000032,1208.1603860000032,0.005945199984125793,,20,reward,1,[0.006867800024338067],[0.006871399993542582],1208.1603860000032,1208.1603860000032,0.006686799984890968,0.006686799984890968,0.018302000011317432,0.05289160000393167,0.05983290000585839,0.10154150001471862,0.10849080001935363,1.0042759000207298,1211.6533160000108,1215.9934146000305,,,,,,,,,,,,,,,,,,,,,,,,,,,,,22,D,2023-12-12_15h44.26.704,gca_avoidance_task,2022.2.4,143.84577441283983,
positions.xlsx,stimuli.xlsx,stimuli/Social2.png,stimuli/Social1.png,stimuli/Nonsocial2.png,stimuli/Nonsocial1.png,,"(-0.7, 0.5)",cs_plus_ns,,,,,0,0,0,0,,,,,0,6,6,8,,,,,,,,,,,,,,,,,,,,,,,,,,,,,,,,,,,,,,,,,,,,,,,,,,,,,,,,,,,,,,1216.500305900001,1217.8127380000078,1215.9934146000305,1217.8127380000078,1217.8127380000078,1217.8127380000078,0.00678730005165562,0.013426700024865568,20,shock,1,[0.33382380002876744],[0.3338274999987334],1218.1530496000196,1218.1530496000196,0.007926199992652982,0.007926199992652982,0.018363300012424588,0.05305159999988973,0.05997689999639988,0.10164459998486564,0.10861529997782782,1.004346199973952,1221.6459506000392,1225.861103800009,,,,,,,,,,,,,,,,,,,,,,,,,,,,,22,D,2023-12-12_15h44.26.704,gca_avoidance_task,2022.2.4,143.84577441283983,
positions.xlsx,stimuli.xlsx,stimuli/Social2.png,stimuli/Social1.png,stimuli/Nonsocial2.png,stimuli/Nonsocial1.png,,"(0.7, 0.5)",cs_plus_s,,,,,0,0,0,0,,,,,0,7,7,2,,,,,,,,,,,,,,,,,,,,,,,,,,,,,,,,,,,,,,,,,,,,,,,,,,,,,,,,,,,,,,1226.36799910001,1227.4443252000492,1225.861103800009,1227.4443252000492,1227.4443252000492,1227.4443252000492,0.0065750000067055225,0.013232700002845377,20,shock,1,[0.19475750002311543],[0.1947613999946043],1227.6457894000341,1227.6457894000341,0.00769400002900511,0.00769400002900511,0.01840749999973923,0.05302759999176487,0.059990899986587465,0.1016255000140518,0.1085812000092119,1.0043973000138067,1231.1386670000502,1235.4579265000066,,,,,,,,,,,,,,,,,,,,,,,,,,,,,22,D,2023-12-12_15h44.26.704,gca_avoidance_task,2022.2.4,143.84577441283983,
positions.xlsx,stimuli.xlsx,stimuli/Social2.png,stimuli/Social1.png,stimuli/Nonsocial2.png,stimuli/Nonsocial1.png,,"(0.7, 0.5)",cs_minus_s,,,,,0,0,0,0,,,,,0,8,8,6,,,,,,,,,,,,,,,,,,,,,,,,,,,,,,,,,,,,,,,,,,,,,,,,,,,,,,,,,,,,,,1235.9648944000364,1237.5758759000455,1235.4579265000066,1237.5758759000455,1237.5758759000455,1237.5758759000455,0.005757400009315461,,25,reward,1,[0.007446400006301701],[0.0074501000344753265],1237.5758759000455,1237.5758759000455,0.006764399993699044,0.006764399993699044,0.018272899964358658,0.052917799970600754,0.05988369998522103,0.10153260000515729,0.10850889998255298,1.0042891000048257,1241.0688484000275,1244.7492427999969,,,,,,,,,,,,,,,,,,,,,,,,,,,,,22,D,2023-12-12_15h44.26.704,gca_avoidance_task,2022.2.4,143.84577441283983,
positions.xlsx,stimuli.xlsx,stimuli/Social2.png,stimuli/Social1.png,stimuli/Nonsocial2.png,stimuli/Nonsocial1.png,,"(0.7, 0.5)",cs_plus_ns,,,,,0,0,0,0,,,,,0,9,9,10,,,,,,,,,,,,,,,,,,,,,,,,,,,,,,,,,,,,,,,,,,,,,,,,,,,,,,,,,,,,,,1245.256141400023,1246.7282932000235,1244.7492427999969,1246.7282932000235,1246.7282932000235,1246.7282932000235,0.007149399956688285,0.013343899976462126,25,shock,1,[0.32694349996745586],[0.32694729999639094],1247.0616397000267,1247.0616397000267,0.00868809997336939,0.00868809997336939,0.018083899980410933,0.05275360000086948,0.05968649999704212,0.10143450001487508,0.10834619996603578,1.0041157999658026,1250.5545572999981,1254.7002488000435,,,,,,,,,,,,,,,,,,,,,,,,,,,,,22,D,2023-12-12_15h44.26.704,gca_avoidance_task,2022.2.4,143.84577441283983,
positions.xlsx,stimuli.xlsx,stimuli/Social2.png,stimuli/Social1.png,stimuli/Nonsocial2.png,stimuli/Nonsocial1.png,,"(-0.7, -0.5)",cs_plus_ns,,,,,0,0,0,0,,,,,0,10,10,9,,,,,,,,,,,,,,,,,,,,,,,,,,,,,,,,,,,,,,,,,,,,,,,,,,,,,,,,,,,,,,1255.20714220003,1257.1306601000251,1254.7002488000435,1257.1306601000251,1257.1306601000251,1257.1306601000251,0.006617699982598424,0.013022200029809028,25,shock,1,[0.2223006000276655],[0.22230429999763146],1257.3598424000083,1257.3598424000083,0.008784000005107373,0.008784000005107373,0.018190099974162877,0.05280849995324388,0.05974539997987449,0.10144319996470585,0.10843019996536896,1.0041892000008374,1260.85278190003,1265.2554019000381,,,,,,,,,,,,,,,,,,,,,,,,,,,,,22,D,2023-12-12_15h44.26.704,gca_avoidance_task,2022.2.4,143.84577441283983,
positions.xlsx,stimuli.xlsx,stimuli/Social2.png,stimuli/Social1.png,stimuli/Nonsocial2.png,stimuli/Nonsocial1.png,,"(0.7, 0.5)",cs_minus_ns,,,,,0,0,0,0,,,,,0,11,11,14,,,,,,,,,,,,,,,,,,,,,,,,,,,,,,,,,,,,,,,,,,,,,,,,,,,,,,,,,,,,,,1265.762254500005,1267.345532700012,1265.2554019000381,1267.345532700012,1267.345532700012,1267.345532700012,0.007783100008964539,0.012966700014658272,30,reward,1,[0.3264902000082657],[0.32649389997823164],1267.6789243000094,1267.6789243000094,0.008012000005692244,0.008012000005692244,0.01869350002380088,0.053282100008800626,0.06021859997417778,0.10189390002051368,0.10888120002346113,1.0046328000025824,1271.1717783000204,1274.9494662000216,,,,,,,,,,,,,,,,,,,,,,,,,,,,,22,D,2023-12-12_15h44.26.704,gca_avoidance_task,2022.2.4,143.84577441283983,
positions.xlsx,stimuli.xlsx,stimuli/Social2.png,stimuli/Social1.png,stimuli/Nonsocial2.png,stimuli/Nonsocial1.png,,"(0.7, -0.5)",cs_minus_ns,,,,,0,0,0,0,,,,,0,12,12,15,,,,,,,,,,,,,,,,,,,,,,,,,,,,,,,,,,,,,,,,,,,,,,,,,,,,,,,,,,,,,,1275.4563377000159,1276.727108000021,1274.9494662000216,1276.727108000021,1276.727108000021,1276.727108000021,0.006837500026449561,0.01309449999826029,35,reward,1,[0.4725989999715239],[0.47260280000045896],1277.2062806000467,1277.2062806000467,0.007875900017097592,0.007875900017097592,0.017784200026653707,0.05243250000057742,0.05943800002569333,0.10103479999816045,0.10807240003487095,1.003794000018388,1280.699211500003,1284.6226875000284,,,,,,,,,,,,,,,,,,,,,,,,,,,,,22,D,2023-12-12_15h44.26.704,gca_avoidance_task,2022.2.4,143.84577441283983,
positions.xlsx,stimuli.xlsx,stimuli/Social2.png,stimuli/Social1.png,stimuli/Nonsocial2.png,stimuli/Nonsocial1.png,,"(-0.7, -0.5)",cs_minus_s,,,,,0,0,0,0,,,,,0,13,13,5,,,,,,,,,,,,,,,,,,,,,,,,,,,,,,,,,,,,,,,,,,,,,,,,,,,,,,,,,,,,,,1285.1295807000133,1286.247585300007,1284.6226875000284,1286.247585300007,1286.247585300007,1286.247585300007,0.006689900008495897,0.013194500003010035,40,reward,1,[0.2641249999869615],[0.2641287000151351],1286.5184292000486,1286.5184292000486,0.007153299986384809,0.007153299986384809,0.018548499967437238,0.05321230000117794,0.06015779997687787,0.10180770000442863,0.10876019997522235,1.0045883999555372,1290.0113715000334,1294.4972856999957,,,,,,,,,,,,,,,,,,,,,,,,,,,,,22,D,2023-12-12_15h44.26.704,gca_avoidance_task,2022.2.4,143.84577441283983,
positions.xlsx,stimuli.xlsx,stimuli/Social2.png,stimuli/Social1.png,stimuli/Nonsocial2.png,stimuli/Nonsocial1.png,,"(0.7, -0.5)",cs_plus_ns,,,,,0,0,0,0,,,,,0,14,14,11,,,,,,,,,,,,,,,,,,,,,,,,,,,,,,,,,,,,,,,,,,,,,,,,,,,,,,,,,,,,,,1295.0041612000205,1296.2332774000242,1294.4972856999957,1296.2332774000242,1296.2332774000242,1296.2332774000242,0.006576000014320016,,40,shock,1,[0.007668100006412715],[0.007671799976378679],1296.2332774000242,1296.2332774000242,0.007839000027161092,0.007839000027161092,0.01684140000725165,0.051443800039123744,0.05839780002133921,0.10008730000117794,0.10705869999947026,1.0028739999979734,1299.7262426000088,1303.8233214000356,,,,,,,,,,,,,,,,,,,,,,,,,,,,,22,D,2023-12-12_15h44.26.704,gca_avoidance_task,2022.2.4,143.84577441283983,
positions.xlsx,stimuli.xlsx,stimuli/Social2.png,stimuli/Social1.png,stimuli/Nonsocial2.png,stimuli/Nonsocial1.png,,"(0.7, -0.5)",cs_plus_s,,,,,0,0,0,0,,,,,0,15,15,3,,,,,,,,,,,,,,,,,,,,,,,,,,,,,,,,,,,,,,,,,,,,,,,,,,,,,,,,,,,,,,1304.3301638000412,1306.3092963999952,1303.8233214000356,1306.3092963999952,1306.3092963999952,1306.3092963999952,0.006360900006256998,0.01314180000917986,40,shock,1,[0.4654249000013806],[0.4654282000265084],1306.7815237000468,1306.7815237000468,0.007470299955457449,0.007470299955457449,0.0183792999596335,0.05303949996596202,0.059978999954182655,0.10163269995246083,0.10856609995244071,1.0043665999546647,1310.2744624000043,1313.8715522999992,,,,,,,,,,,,,,,,,,,,,,,,,,,,,22,D,2023-12-12_15h44.26.704,gca_avoidance_task,2022.2.4,143.84577441283983,
positions.xlsx,stimuli.xlsx,stimuli/Social2.png,stimuli/Social1.png,stimuli/Nonsocial2.png,stimuli/Nonsocial1.png,,"(0.7, 0.5)",cs_plus_ns,,,,,0,0,0,0,,,,,1,0,16,10,,,,,,,,,,,,,,,,,,,,,,,,,,,,,,,,,,,,,,,,,,,,,,,,,,,,,,,,,,,,,,1314.3784142000368,1315.8505880000303,1313.8715522999992,1315.8505880000303,1315.8505880000303,1315.8505880000303,0.00794730003690347,0.012977800040971488,40,shock,1,[0.3122832000372],[0.31228710000868887],1316.1699777000467,1316.1699777000467,0.008636699989438057,0.008636699989438057,0.018423899949993938,0.05313719995319843,0.06007739994674921,0.10176379996119067,0.108692699985113,1.0044820999610238,1319.6629312000005,1323.725289300026,,,,,,,,,,,,,,,,,,,,,,,,,,,,,22,D,2023-12-12_15h44.26.704,gca_avoidance_task,2022.2.4,143.84577441283983,
positions.xlsx,stimuli.xlsx,stimuli/Social2.png,stimuli/Social1.png,stimuli/Nonsocial2.png,stimuli/Nonsocial1.png,,"(-0.7, 0.5)",cs_plus_ns,,,,,0,0,0,0,,,,,1,1,17,8,,,,,,,,,,,,,,,,,,,,,,,,,,,,,,,,,,,,,,,,,,,,,,,,,,,,,,,,,,,,,,1324.232178300037,1326.2042974000215,1323.725289300026,1326.2042974000215,1326.2042974000215,1326.2042974000215,0.007524099957663566,0.01335069997003302,40,shock,1,[0.2295779999694787],[0.22958169999765232],1326.4404646000476,1326.4404646000476,0.008585200004745275,0.008585200004745275,0.018603299977257848,0.05320869997376576,0.0602233000099659,0.10185039998032153,0.10886350000509992,1.0045996999833733,1329.9334042000119,1333.738790900039,,,,,,,,,,,,,,,,,,,,,,,,,,,,,22,D,2023-12-12_15h44.26.704,gca_avoidance_task,2022.2.4,143.84577441283983,
positions.xlsx,stimuli.xlsx,stimuli/Social2.png,stimuli/Social1.png,stimuli/Nonsocial2.png,stimuli/Nonsocial1.png,,"(0.7, 0.5)",cs_plus_s,,,,,0,0,0,0,,,,,1,2,18,2,,,,,,,,,,,,,,,,,,,,,,,,,,,,,,,,,,,,,,,,,,,,,,,,,,,,,,,,,,,,,,1334.2456746000098,1335.5303667000262,1333.738790900039,1335.5303667000262,1335.5303667000262,1335.5303667000262,0.006308900017756969,0.01325740001630038,40,shock,1,[0.2780856000026688],[0.2850454999716021],1335.8220723000122,1335.8220723000122,0.007742599991615862,0.007742599991615862,0.018307299993466586,0.05295270000351593,0.059888800024054945,0.1015567000140436,0.10851029999321327,1.0043224000255577,1339.3149946000194,1343.432819800044,,,,,,,,,,,,,,,,,,,,,,,,,,,,,22,D,2023-12-12_15h44.26.704,gca_avoidance_task,2022.2.4,143.84577441283983,
positions.xlsx,stimuli.xlsx,stimuli/Social2.png,stimuli/Social1.png,stimuli/Nonsocial2.png,stimuli/Nonsocial1.png,,"(-0.7, 0.5)",cs_plus_s,,,,,0,0,0,0,,,,,1,3,19,0,,,,,,,,,,,,,,,,,,,,,,,,,,,,,,,,,,,,,,,,,,,,,,,,,,,,,,,,,,,,,,1343.9398063000408,1345.8841124000028,1343.432819800044,1345.8841124000028,1345.8841124000028,1345.8841124000028,0.006269600009545684,0.01320839999243617,40,shock,1,[0.2710411000298336],[0.2710450000013225],1346.161941200029,1346.161941200029,0.007527200039476156,0.007527200039476156,0.018431500007864088,0.05302950000623241,0.06000520003726706,0.10169690003385767,0.10865510004805401,1.004347400041297,1349.6548058000044,1353.2797187000397,,,,,,,,,,,,,,,,,,,,,,,,,,,,,22,D,2023-12-12_15h44.26.704,gca_avoidance_task,2022.2.4,143.84577441283983,
positions.xlsx,stimuli.xlsx,stimuli/Social2.png,stimuli/Social1.png,stimuli/Nonsocial2.png,stimuli/Nonsocial1.png,,"(0.7, 0.5)",cs_minus_s,,,,,0,0,0,0,,,,,1,4,20,6,,,,,,,,,,,,,,,,,,,,,,,,,,,,,,,,,,,,,,,,,,,,,,,,,,,,,,,,,,,,,,1353.7865741000278,1355.2101651999983,1353.2797187000397,1355.2101651999983,1355.2101651999983,1355.2101651999983,0.006828899960964918,0.013418999966233969,45,reward,1,[0.2991004000068642],[0.2991040999768302],1355.515711200016,1355.515711200016,0.008204600017052144,0.008204600017052144,0.01791679998859763,0.05264320003334433,0.05957859999034554,0.10121500003151596,0.10814910003682598,1.0039492000360042,1359.0086584000383,1363.4946206000168,,,,,,,,,,,,,,,,,,,,,,,,,,,,,22,D,2023-12-12_15h44.26.704,gca_avoidance_task,2022.2.4,143.84577441283983,
positions.xlsx,stimuli.xlsx,stimuli/Social2.png,stimuli/Social1.png,stimuli/Nonsocial2.png,stimuli/Nonsocial1.png,,"(-0.7, -0.5)",cs_minus_ns,,,,,0,0,0,0,,,,,1,5,21,13,,,,,,,,,,,,,,,,,,,,,,,,,,,,,,,,,,,,,,,,,,,,,,,,,,,,,,,,,,,,,,1364.0014530000044,1365.431956000044,1363.4946206000168,1365.431956000044,1365.431956000044,1365.431956000044,0.006839899986516684,0.013153300038538873,50,reward,1,[0.26397090003592893],[0.263974400004372],1365.7028242000379,1365.7028242000379,0.0074875999707728624,0.0074875999707728624,0.01835869997739792,0.05301360000157729,0.059974699979647994,0.10161909996531904,0.10870819998672232,1.0043933999841101,1369.1957236000453,1373.2233562000329,,,,,,,,,,,,,,,,,,,,,,,,,,,,,22,D,2023-12-12_15h44.26.704,gca_avoidance_task,2022.2.4,143.84577441283983,
positions.xlsx,stimuli.xlsx,stimuli/Social2.png,stimuli/Social1.png,stimuli/Nonsocial2.png,stimuli/Nonsocial1.png,,"(-0.7, -0.5)",cs_plus_s,,,,,0,0,0,0,,,,,1,6,22,1,,,,,,,,,,,,,,,,,,,,,,,,,,,,,,,,,,,,,,,,,,,,,,,,,,,,,,,,,,,,,,1373.7302794000134,1374.9385463000508,1373.2233562000329,1374.9385463000508,1374.9385463000508,1374.9385463000508,0.006446099956519902,0.013050499954260886,50,shock,1,[0.17372510000132024],[0.1737435999675654],1375.1191019000253,1375.1191019000253,0.007679999980609864,0.007679999980609864,0.01831979997223243,0.05298239999683574,0.05994449998252094,0.10161489999154583,0.1085985999670811,1.0043151999707334,1378.6120307000238,1382.6118649000418,,,,,,,,,,,,,,,,,,,,,,,,,,,,,22,D,2023-12-12_15h44.26.704,gca_avoidance_task,2022.2.4,143.84577441283983,
positions.xlsx,stimuli.xlsx,stimuli/Social2.png,stimuli/Social1.png,stimuli/Nonsocial2.png,stimuli/Nonsocial1.png,,"(-0.7, -0.5)",cs_plus_ns,,,,,0,0,0,0,,,,,1,7,23,9,,,,,,,,,,,,,,,,,,,,,,,,,,,,,,,,,,,,,,,,,,,,,,,,,,,,,,,,,,,,,,1383.1187734000268,1385.0353787000058,1382.6118649000418,1385.0353787000058,1385.0353787000058,1385.0353787000058,0.00679020001552999,0.01336839998839423,50,shock,1,[0.23654290003469214],[0.2365464000031352],1385.2784127000486,1385.2784127000486,0.007730499957688153,0.007730499957688153,0.018453900003805757,0.053114899958018214,0.06012739997822791,0.10174419998656958,0.10875849996227771,1.0045053999638185,1388.771368900023,1392.8823325000121,,,,,,,,,,,,,,,,,,,,,,,,,,,,,22,D,2023-12-12_15h44.26.704,gca_avoidance_task,2022.2.4,143.84577441283983,
positions.xlsx,stimuli.xlsx,stimuli/Social2.png,stimuli/Social1.png,stimuli/Nonsocial2.png,stimuli/Nonsocial1.png,,"(0.7, -0.5)",cs_minus_ns,,,,,0,0,0,0,,,,,1,8,24,15,,,,,,,,,,,,,,,,,,,,,,,,,,,,,,,,,,,,,,,,,,,,,,,,,,,,,,,,,,,,,,1393.3891870999942,1394.5836168000242,1392.8823325000121,1394.5836168000242,1394.5836168000242,1394.5836168000242,0.006756399990990758,0.013510400021914393,55,reward,1,[0.1741592999896966],[0.17416310001863167],1394.7641530000255,1394.7641530000255,0.008619400032330304,0.008619400032330304,0.01839590002782643,0.05312890000641346,0.0600498000276275,0.1016685000504367,0.10862720001023263,1.0044283000170253,1398.2571073000436,1402.3125070999959,,,,,,,,,,,,,,,,,,,,,,,,,,,,,22,D,2023-12-12_15h44.26.704,gca_avoidance_task,2022.2.4,143.84577441283983,
positions.xlsx,stimuli.xlsx,stimuli/Social2.png,stimuli/Social1.png,stimuli/Nonsocial2.png,stimuli/Nonsocial1.png,,"(0.7, 0.5)",cs_minus_ns,,,,,0,0,0,0,,,,,1,9,25,14,,,,,,,,,,,,,,,,,,,,,,,,,,,,,,,,,,,,,,,,,,,,,,,,,,,,,,,,,,,,,,1402.819376700034,1404.0554503000458,1402.3125070999959,1404.0554503000458,1404.0554503000458,1404.0554503000458,0.00753840000834316,0.013450599974021316,60,reward,1,[0.2642766999779269],[0.26428040000610054],1404.3262713000295,1404.3262713000295,0.00797679997049272,0.00797679997049272,0.018838799966033548,0.053498399967793375,0.060488899995107204,0.10207889997400343,0.10904129996197298,1.0048786000115797,1407.8192010000348,1411.9996653000126,,,,,,,,,,,,,,,,,,,,,,,,,,,,,22,D,2023-12-12_15h44.26.704,gca_avoidance_task,2022.2.4,143.84577441283983,
positions.xlsx,stimuli.xlsx,stimuli/Social2.png,stimuli/Social1.png,stimuli/Nonsocial2.png,stimuli/Nonsocial1.png,,"(-0.7, 0.5)",cs_minus_s,,,,,0,0,0,0,,,,,1,10,26,4,,,,,,,,,,,,,,,,,,,,,,,,,,,,,,,,,,,,,,,,,,,,,,,,,,,,,,,,,,,,,,1412.5065178000368,1414.0828832000261,1411.9996653000126,1414.0828832000261,1414.0828832000261,1414.0828832000261,0.005931299994699657,,65,reward,1,[0.0077059000032022595],[0.007709399971645325],1414.0828832000261,1414.0828832000261,0.006873800011817366,0.006873800011817366,0.018460299994330853,0.05295570002635941,0.059980800026096404,0.10154040000634268,0.1085379000287503,1.0043920999742113,1417.57579240005,1421.9784064000123,,,,,,,,,,,,,,,,,,,,,,,,,,,,,22,D,2023-12-12_15h44.26.704,gca_avoidance_task,2022.2.4,143.84577441283983,
positions.xlsx,stimuli.xlsx,stimuli/Social2.png,stimuli/Social1.png,stimuli/Nonsocial2.png,stimuli/Nonsocial1.png,,"(-0.7, 0.5)",cs_minus_ns,,,,,0,0,0,0,,,,,1,11,27,12,,,,,,,,,,,,,,,,,,,,,,,,,,,,,,,,,,,,,,,,,,,,,,,,,,,,,,,,,,,,,,1422.485280300025,1423.4991600000067,1421.9784064000123,1423.4991600000067,1423.4991600000067,1423.4991600000067,0.007581200043205172,0.01315230003092438,70,reward,1,[0.34741260000737384],[0.3474164000363089],1423.8532753000036,1423.8532753000036,0.00782879994949326,0.00782879994949326,0.018304799974430352,0.05295099999057129,0.05995019996771589,0.10155949997715652,0.10851849999744445,1.0043480999884196,1427.3462134000147,1431.3044498999952,,,,,,,,,,,,,,,,,,,,,,,,,,,,,22,D,2023-12-12_15h44.26.704,gca_avoidance_task,2022.2.4,143.84577441283983,
positions.xlsx,stimuli.xlsx,stimuli/Social2.png,stimuli/Social1.png,stimuli/Nonsocial2.png,stimuli/Nonsocial1.png,,"(0.7, -0.5)",cs_plus_ns,,,,,0,0,0,0,,,,,1,12,28,11,,,,,,,,,,,,,,,,,,,,,,,,,,,,,,,,,,,,,,,,,,,,,,,,,,,,,,,,,,,,,,1431.8113049000385,1433.5473494000034,1431.3044498999952,1433.5473494000034,1433.5473494000034,1433.5473494000034,0.006875000020954758,0.01356689998647198,70,shock,1,[0.2852277000201866],[0.28523139999015257],1433.8390075000352,1433.8390075000352,0.00830290000885725,0.00830290000885725,0.018704599991906434,0.05334500002209097,0.060328199993819,0.10195789998397231,0.10891240002820268,1.0047590999747626,1437.331990900042,1441.1999044000404,,,,,,,,,,,,,,,,,,,,,,,,,,,,,22,D,2023-12-12_15h44.26.704,gca_avoidance_task,2022.2.4,143.84577441283983,
positions.xlsx,stimuli.xlsx,stimuli/Social2.png,stimuli/Social1.png,stimuli/Nonsocial2.png,stimuli/Nonsocial1.png,,"(0.7, -0.5)",cs_minus_s,,,,,0,0,0,0,,,,,1,13,29,7,,,,,,,,,,,,,,,,,,,,,,,,,,,,,,,,,,,,,,,,,,,,,,,,,,,,,,,,,,,,,,1441.7067734000157,1443.6511207000003,1441.1999044000404,1443.6511207000003,1443.6511207000003,1443.6511207000003,0.006038099993020296,0.012988600006792694,75,reward,1,[0.20155940001131967],[0.20156320004025474],1443.8594707000302,1443.8594707000302,0.00719920004485175,0.00719920004485175,0.018195900018326938,0.052879100025165826,0.05980170000111684,0.10147410002537072,0.10844890004955232,1.0041917000198737,1447.3523750000168,1451.213389200042,,,,,,,,,,,,,,,,,,,,,,,,,,,,,22,D,2023-12-12_15h44.26.704,gca_avoidance_task,2022.2.4,143.84577441283983,
positions.xlsx,stimuli.xlsx,stimuli/Social2.png,stimuli/Social1.png,stimuli/Nonsocial2.png,stimuli/Nonsocial1.png,,"(-0.7, -0.5)",cs_minus_s,,,,,0,0,0,0,,,,,1,14,30,5,,,,,,,,,,,,,,,,,,,,,,,,,,,,,,,,,,,,,,,,,,,,,,,,,,,,,,,,,,,,,,1451.7202484000009,1453.588237100048,1451.213389200042,1453.588237100048,1453.588237100048,1453.588237100048,0.006658500002231449,0.013144899974577129,80,reward,1,[0.2432109999936074],[0.24321450002025813],1453.8382442000438,1453.8382442000438,0.006565999996382743,0.006565999996382743,0.018818299984559417,0.053446699981577694,0.06040359998587519,0.1020709999720566,0.10907309997128323,1.004813399980776,1457.3311585000483,1461.685197200044,,,,,,,,,,,,,,,,,,,,,,,,,,,,,22,D,2023-12-12_15h44.26.704,gca_avoidance_task,2022.2.4,143.84577441283983,
positions.xlsx,stimuli.xlsx,stimuli/Social2.png,stimuli/Social1.png,stimuli/Nonsocial2.png,stimuli/Nonsocial1.png,,"(0.7, -0.5)",cs_plus_s,,,,,0,0,0,0,,,,,1,15,31,3,,,,,,,,,,,,,,,,,,,,,,,,,,,,,,,,,,,,,,,,,,,,,,,,,,,,,,,,,,,,,,1462.1920897000236,1463.2128913000342,1461.685197200044,1463.2128913000342,1463.2128913000342,1463.2128913000342,0.006428799999412149,0.01308850001078099,80,shock,1,[0.2778676000307314],[0.2778714000014588],1463.497609700018,1463.497609700018,0.007052999979350716,0.007052999979350716,0.01845319999847561,0.05312239995691925,0.060082599986344576,0.10168809996685013,0.1086424999521114,1.0044209999614395,1466.9905291000032,1470.150110400049,,,,,,,,,,,,,,,,,,,,,,,,,,,,,22,D,2023-12-12_15h44.26.704,gca_avoidance_task,2022.2.4,143.84577441283983,
positions.xlsx,stimuli.xlsx,stimuli/Social2.png,stimuli/Social1.png,stimuli/Nonsocial2.png,stimuli/Nonsocial1.png,,"(0.7, 0.5)",cs_plus_s,,,,,0,0,0,0,,,,,,,,,0,0,0,2,,,,,,,,,,,,,,,,,,,,,,,,,,,,,,,,,,,,,,,,,,,,,,,,,,,,,,,,,,1485.3162110000267,1487.0244454000494,1484.8162313000066,1487.0244454000494,1487.0244454000494,1487.0244454000494,0.0067279000068083405,0.01307380001526326,80,shock,1,[0.2569467999855988],[0.25695040001301095],1487.2883453000104,1487.2883453000104,0.007518899976275861,0.007518899976275861,0.01851999998325482,0.05315130000235513,0.060127099975943565,0.10178279998945072,0.10867320001125336,1.0044709999929182,1490.7812863000436,1494.8714089000132,1470.150110400049,1470.150110400049,1470.150110400049,1470.150110400049,space,12.546374300029129,,,,,,,,,,,,,,,,,,,,,,,22,D,2023-12-12_15h44.26.704,gca_avoidance_task,2022.2.4,143.84577441283983,
positions.xlsx,stimuli.xlsx,stimuli/Social2.png,stimuli/Social1.png,stimuli/Nonsocial2.png,stimuli/Nonsocial1.png,,"(0.7, 0.5)",cs_minus_s,,,,,0,0,0,0,,,,,,,,,0,1,1,6,,,,,,,,,,,,,,,,,,,,,,,,,,,,,,,,,,,,,,,,,,,,,,,,,,,,,,,,,,1495.3782724000048,1497.2323768000351,1494.8714089000132,1497.2323768000351,1497.2323768000351,1497.2323768000351,0.005804800020996481,0.013346599997021258,85,reward,1,[0.17383079999126494],[0.17383420001715422],1497.4129822000396,1497.4129822000396,0.006791099964175373,0.006791099964175373,0.018746999965514988,0.053369399975053966,0.06030859996099025,0.10200579999946058,0.10893509996822104,1.0047181000118144,1500.9058822999941,1504.5376987000345,,,,,,,,,,,,,,,,,,,,,,,,,,,,,22,D,2023-12-12_15h44.26.704,gca_avoidance_task,2022.2.4,143.84577441283983,
positions.xlsx,stimuli.xlsx,stimuli/Social2.png,stimuli/Social1.png,stimuli/Nonsocial2.png,stimuli/Nonsocial1.png,,"(0.7, 0.5)",cs_minus_ns,,,,,0,0,0,0,,,,,,,,,0,2,2,14,,,,,,,,,,,,,,,,,,,,,,,,,,,,,,,,,,,,,,,,,,,,,,,,,,,,,,,,,,1505.044558099995,1506.1278510999982,1504.5376987000345,1506.1278510999982,1506.1278510999982,1506.1278510999982,0.007369600003585219,0.013249700015876442,90,reward,1,[0.22944660001667216],[0.2294501000433229],1506.3640063000494,1506.3640063000494,0.007334600028116256,0.007334600028116256,0.018850100052077323,0.053519300010520965,0.0604657000512816,0.10211940004955977,0.10907900001620874,1.0048711000126787,1509.8568827999989,1513.7595408000052,,,,,,,,,,,,,,,,,,,,,,,,,,,,,22,D,2023-12-12_15h44.26.704,gca_avoidance_task,2022.2.4,143.84577441283983,
positions.xlsx,stimuli.xlsx,stimuli/Social2.png,stimuli/Social1.png,stimuli/Nonsocial2.png,stimuli/Nonsocial1.png,,"(-0.7, 0.5)",cs_minus_s,,,,,0,0,0,0,,,,,,,,,0,3,3,4,,,,,,,,,,,,,,,,,,,,,,,,,,,,,,,,,,,,,,,,,,,,,,,,,,,,,,,,,,1514.2664183000452,1516.1413609000156,1513.7595408000052,1516.1413609000156,1516.1413609000156,1516.1413609000156,0.006361800013110042,0.013279800012242049,95,reward,1,[0.19484460004605353],[0.19484840001678094],1516.342745400034,1516.342745400034,0.007107799989171326,0.007107799989171326,0.01826989999972284,0.052990500000305474,0.05990110000129789,0.10156049998477101,0.10849210002925247,1.0043116000015289,1519.835709600011,1523.4883262999938,,,,,,,,,,,,,,,,,,,,,,,,,,,,,22,D,2023-12-12_15h44.26.704,gca_avoidance_task,2022.2.4,143.84577441283983,
positions.xlsx,stimuli.xlsx,stimuli/Social2.png,stimuli/Social1.png,stimuli/Nonsocial2.png,stimuli/Nonsocial1.png,,"(-0.7, -0.5)",cs_minus_ns,,,,,0,0,0,0,,,,,,,,,0,4,4,13,,,,,,,,,,,,,,,,,,,,,,,,,,,,,,,,,,,,,,,,,,,,,,,,,,,,,,,,,,1523.9952217999962,1525.7243137000478,1523.4883262999938,1525.7243137000478,1525.7243137000478,1525.7243137000478,0.007311000023037195,0.013426900026388466,100,reward,1,[0.20173490000888705],[0.20173840003553778],1525.9326537000015,1525.9326537000015,0.007889000000432134,0.007889000000432134,0.018769799964502454,0.05344260000856593,0.06039709999458864,0.10203720000572503,0.10902959998929873,1.0047976999776438,1529.4256270000478,1533.557344400033,,,,,,,,,,,,,,,,,,,,,,,,,,,,,22,D,2023-12-12_15h44.26.704,gca_avoidance_task,2022.2.4,143.84577441283983,
positions.xlsx,stimuli.xlsx,stimuli/Social2.png,stimuli/Social1.png,stimuli/Nonsocial2.png,stimuli/Nonsocial1.png,,"(-0.7, -0.5)",cs_plus_ns,,,,,0,0,0,0,,,,,,,,,0,5,5,9,,,,,,,,,,,,,,,,,,,,,,,,,,,,,,,,,,,,,,,,,,,,,,,,,,,,,,,,,,1534.064268600021,1535.126739600033,1533.557344400033,1535.126739600033,1535.126739600033,1535.126739600033,0.006521200004499406,0.013433000014629215,100,shock,1,[0.3268359000212513],[0.3268392999889329],1535.4600610000198,1535.4600610000198,0.007712299993727356,0.007712299993727356,0.018563599966000766,0.05321029998594895,0.06020800000987947,0.10187640000367537,0.1088344999589026,1.0045763999805786,1538.952996500011,1542.5084510000306,,,,,,,,,,,,,,,,,,,,,,,,,,,,,22,D,2023-12-12_15h44.26.704,gca_avoidance_task,2022.2.4,143.84577441283983,
positions.xlsx,stimuli.xlsx,stimuli/Social2.png,stimuli/Social1.png,stimuli/Nonsocial2.png,stimuli/Nonsocial1.png,,"(-0.7, -0.5)",cs_minus_s,,,,,0,0,0,0,,,,,,,,,0,6,6,5,,,,,,,,,,,,,,,,,,,,,,,,,,,,,,,,,,,,,,,,,,,,,,,,,,,,,,,,,,1543.015287999995,1544.668016200012,1542.5084510000306,1544.668016200012,1544.668016200012,1544.668016200012,0.006350699986796826,0.013120799965690821,105,reward,1,[0.21524539997335523],[0.21524910000152886],1544.8901933000307,1544.8901933000307,0.007467699993867427,0.007467699993867427,0.01833170000463724,0.0530680000083521,0.0599738999735564,0.10166250000474975,0.10860859998501837,1.004385199979879,1548.3831479999935,1551.9386393000023,,,,,,,,,,,,,,,,,,,,,,,,,,,,,22,D,2023-12-12_15h44.26.704,gca_avoidance_task,2022.2.4,143.84577441283983,
positions.xlsx,stimuli.xlsx,stimuli/Social2.png,stimuli/Social1.png,stimuli/Nonsocial2.png,stimuli/Nonsocial1.png,,"(-0.7, 0.5)",cs_minus_ns,,,,,0,0,0,0,,,,,,,,,0,7,7,12,,,,,,,,,,,,,,,,,,,,,,,,,,,,,,,,,,,,,,,,,,,,,,,,,,,,,,,,,,1552.4455076000304,1554.2579276000033,1551.9386393000023,1554.2579276000033,1554.2579276000033,1554.2579276000033,0.006602600042242557,0.012903599999845028,110,reward,1,[0.0763440000009723],[0.07634770002914593],1554.3412616000278,1554.3412616000278,0.007595200033392757,0.007595200033392757,0.0182253000093624,0.05292300001019612,0.05981800000881776,0.10155300004407763,0.10851310001453385,1.0042842000257224,1557.8342477999977,1561.7438000999973,,,,,,,,,,,,,,,,,,,,,,,,,,,,,22,D,2023-12-12_15h44.26.704,gca_avoidance_task,2022.2.4,143.84577441283983,
positions.xlsx,stimuli.xlsx,stimuli/Social2.png,stimuli/Social1.png,stimuli/Nonsocial2.png,stimuli/Nonsocial1.png,,"(-0.7, 0.5)",cs_plus_s,,,,,0,0,0,0,,,,,,,,,0,8,8,0,,,,,,,,,,,,,,,,,,,,,,,,,,,,,,,,,,,,,,,,,,,,,,,,,,,,,,,,,,1562.2506717000506,1563.8130988000194,1561.7438000999973,1563.8130988000194,1563.8130988000194,1563.8130988000194,0.0062204000423662364,0.013083900033961982,110,shock,1,[0.22239160002209246],[0.22239529999205843],1564.0422525000176,1564.0422525000176,0.008040999993681908,0.008040999993681908,0.018556399969384074,0.05326989997411147,0.06023180001648143,0.10186870000325143,0.1088095000013709,1.0046251000021584,1567.5352464000462,1571.2989828000427,,,,,,,,,,,,,,,,,,,,,,,,,,,,,22,D,2023-12-12_15h44.26.704,gca_avoidance_task,2022.2.4,143.84577441283983,
positions.xlsx,stimuli.xlsx,stimuli/Social2.png,stimuli/Social1.png,stimuli/Nonsocial2.png,stimuli/Nonsocial1.png,,"(0.7, -0.5)",cs_minus_ns,,,,,0,0,0,0,,,,,,,,,0,9,9,15,,,,,,,,,,,,,,,,,,,,,,,,,,,,,,,,,,,,,,,,,,,,,,,,,,,,,,,,,,1571.8058482000488,1573.000233400031,1571.2989828000427,1573.000233400031,1573.000233400031,1573.000233400031,0.006556700041983277,0.013490700046531856,115,reward,1,[0.3060700999922119],[0.30607380002038553],1573.3127666999935,1573.3127666999935,0.0075638999696820974,0.0075638999696820974,0.01798489998327568,0.052596099965739995,0.05961699999170378,0.10123609995935112,0.10819199995603412,1.003995599981863,1576.8057007000316,1580.8055371000082,,,,,,,,,,,,,,,,,,,,,,,,,,,,,22,D,2023-12-12_15h44.26.704,gca_avoidance_task,2022.2.4,143.84577441283983,
positions.xlsx,stimuli.xlsx,stimuli/Social2.png,stimuli/Social1.png,stimuli/Nonsocial2.png,stimuli/Nonsocial1.png,,"(0.7, 0.5)",cs_plus_ns,,,,,0,0,0,0,,,,,,,,,0,10,10,10,,,,,,,,,,,,,,,,,,,,,,,,,,,,,,,,,,,,,,,,,,,,,,,,,,,,,,,,,,1581.3124115000246,1582.7568243000424,1580.8055371000082,1582.7568243000424,1582.7568243000424,1582.7568243000424,0.0070535000413656235,0.013115600042510778,115,shock,1,[0.18062780000036582],[0.18063130002701655],1582.9442862000433,1582.9442862000433,0.007547000015620142,0.007547000015620142,0.01841050002258271,0.05311380000784993,0.06008960003964603,0.1017433000379242,0.10865290003130212,1.004501200048253,1586.4372524000355,1590.0829752000282,,,,,,,,,,,,,,,,,,,,,,,,,,,,,22,D,2023-12-12_15h44.26.704,gca_avoidance_task,2022.2.4,143.84577441283983,
positions.xlsx,stimuli.xlsx,stimuli/Social2.png,stimuli/Social1.png,stimuli/Nonsocial2.png,stimuli/Nonsocial1.png,,"(0.7, -0.5)",cs_plus_ns,,,,,0,0,0,0,,,,,,,,,0,11,11,11,,,,,,,,,,,,,,,,,,,,,,,,,,,,,,,,,,,,,,,,,,,,,,,,,,,,,,,,,,1590.5898489000392,1592.0689414000371,1590.0829752000282,1592.0689414000371,1592.0689414000371,1592.0689414000371,0.006518699985463172,0.013202900008764118,115,shock,1,[0.1808160999789834],[0.18081980000715703],1592.256471300032,1592.256471300032,0.007756899984087795,0.007756899984087795,0.018403999973088503,0.05306050000945106,0.06007449998287484,0.1016685999929905,0.10865080001531169,1.0044299999717623,1595.7494076000294,1599.9992702000309,,,,,,,,,,,,,,,,,,,,,,,,,,,,,22,D,2023-12-12_15h44.26.704,gca_avoidance_task,2022.2.4,143.84577441283983,
positions.xlsx,stimuli.xlsx,stimuli/Social2.png,stimuli/Social1.png,stimuli/Nonsocial2.png,stimuli/Nonsocial1.png,,"(0.7, -0.5)",cs_plus_s,,,,,0,0,0,0,,,,,,,,,0,12,12,3,,,,,,,,,,,,,,,,,,,,,,,,,,,,,,,,,,,,,,,,,,,,,,,,,,,,,,,,,,1600.5061164000072,1602.4713573000045,1599.9992702000309,1602.4713573000045,1602.4713573000045,1602.4713573000045,0.006623000022955239,0.013230199983809143,115,shock,1,[0.18112530000507832],[0.18112940003629774],1602.658804000006,1602.658804000006,0.0077132000005804,0.0077132000005804,0.018023099983111024,0.05262069997843355,0.059601199987810105,0.10126259998651221,0.10824510001111776,1.004024500027299,1606.1517559000058,1610.4085697000264,,,,,,,,,,,,,,,,,,,,,,,,,,,,,22,D,2023-12-12_15h44.26.704,gca_avoidance_task,2022.2.4,143.84577441283983,
positions.xlsx,stimuli.xlsx,stimuli/Social2.png,stimuli/Social1.png,stimuli/Nonsocial2.png,stimuli/Nonsocial1.png,,"(0.7, -0.5)",cs_minus_s,,,,,0,0,0,0,,,,,,,,,0,13,13,7,,,,,,,,,,,,,,,,,,,,,,,,,,,,,,,,,,,,,,,,,,,,,,,,,,,,,,,,,,1610.9154186000233,1612.3667568000383,1610.4085697000264,1612.3667568000383,1612.3667568000383,1612.3667568000383,0.005730699980631471,0.01321890001418069,120,reward,1,[0.21569370001088828],[0.21569759998237714],1612.5889876,1612.5889876,0.0069426000118255615,0.0069426000118255615,0.017933600000105798,0.052610899962019175,0.05958970001665875,0.10124399996129796,0.10822120000375435,1.0039770000148565,1616.0819564000121,1620.4290134000476,,,,,,,,,,,,,,,,,,,,,,,,,,,,,22,D,2023-12-12_15h44.26.704,gca_avoidance_task,2022.2.4,143.84577441283983,
positions.xlsx,stimuli.xlsx,stimuli/Social2.png,stimuli/Social1.png,stimuli/Nonsocial2.png,stimuli/Nonsocial1.png,,"(-0.7, -0.5)",cs_plus_s,,,,,0,0,0,0,,,,,,,,,0,14,14,1,,,,,,,,,,,,,,,,,,,,,,,,,,,,,,,,,,,,,,,,,,,,,,,,,,,,,,,,,,1620.935868200031,1622.0608449000283,1620.4290134000476,1622.0608449000283,1622.0608449000283,1622.0608449000283,0.005997100030072033,0.013358400028664619,120,shock,1,[0.16010670003015548],[0.1601105000008829],1622.227495500003,1622.227495500003,0.007749999989755452,0.007749999989755452,0.01802829996449873,0.052682099980302155,0.05964689998654649,0.10128489998169243,0.10824629996204749,1.0040925999637693,1625.7204861000064,1629.4216761999996,,,,,,,,,,,,,,,,,,,,,,,,,,,,,22,D,2023-12-12_15h44.26.704,gca_avoidance_task,2022.2.4,143.84577441283983,
positions.xlsx,stimuli.xlsx,stimuli/Social2.png,stimuli/Social1.png,stimuli/Nonsocial2.png,stimuli/Nonsocial1.png,,"(-0.7, 0.5)",cs_plus_ns,,,,,0,0,0,0,,,,,,,,,0,15,15,8,,,,,,,,,,,,,,,,,,,,,,,,,,,,,,,,,,,,,,,,,,,,,,,,,,,,,,,,,,1629.9285801000078,1631.5049397000112,1629.4216761999996,1631.5049397000112,1631.5049397000112,1631.5049397000112,0.007198200037237257,0.013092100038193166,120,shock,1,[0.18750010000076145],[0.18750370002817363],1631.6993611000362,1631.6993611000362,0.007854299969039857,0.007854299969039857,0.018533799971919507,0.053188899997621775,0.0601467999513261,0.10186139994766563,0.1087783999973908,1.0045496999518946,1635.1923115000245,1639.5948671000078,,,,,,,,,,,,,,,,,,,,,,,,,,,,,22,D,2023-12-12_15h44.26.704,gca_avoidance_task,2022.2.4,143.84577441283983,
positions.xlsx,stimuli.xlsx,stimuli/Social2.png,stimuli/Social1.png,stimuli/Nonsocial2.png,stimuli/Nonsocial1.png,,"(-0.7, 0.5)",cs_plus_s,,,,,0,0,0,0,,,,,,,,,1,0,16,0,,,,,,,,,,,,,,,,,,,,,,,,,,,,,,,,,,,,,,,,,,,,,,,,,,,,,,,,,,1640.1017968000378,1641.9350773000042,1639.5948671000078,1641.9350773000042,1641.9350773000042,1641.9350773000042,0.006724499980919063,0.013404499972239137,120,shock,1,[0.22263209999073297],[0.22263590001966804],1642.1572793000378,1642.1572793000378,0.007082199968863279,0.007082199968863279,0.01150620001135394,0.05312419997062534,0.06008470000233501,0.10176719998707995,0.10870189999695867,1.0045071999775246,1645.6572203999967,1649.9903770000092,,,,,,,,,,,,,,,,,,,,,,,,,,,,,22,D,2023-12-12_15h44.26.704,gca_avoidance_task,2022.2.4,143.84577441283983,
positions.xlsx,stimuli.xlsx,stimuli/Social2.png,stimuli/Social1.png,stimuli/Nonsocial2.png,stimuli/Nonsocial1.png,,"(0.7, 0.5)",cs_minus_ns,,,,,0,0,0,0,,,,,,,,,1,1,17,14,,,,,,,,,,,,,,,,,,,,,,,,,,,,,,,,,,,,,,,,,,,,,,,,,,,,,,,,,,1650.4972101000021,1651.684700300044,1649.9903770000092,1651.684700300044,1651.684700300044,1651.684700300044,0.006414000003132969,0.013419900031294674,125,reward,1,[0.19485710002481937],[0.1948608999955468],1651.8860798000242,1651.8860798000242,0.008374300028663129,0.008374300028663129,0.018511399975977838,0.053190400009043515,0.06017970002721995,0.10178590001305565,0.10875690000830218,1.004514200030826,1655.379042100045,1659.281630600046,,,,,,,,,,,,,,,,,,,,,,,,,,,,,22,D,2023-12-12_15h44.26.704,gca_avoidance_task,2022.2.4,143.84577441283983,
positions.xlsx,stimuli.xlsx,stimuli/Social2.png,stimuli/Social1.png,stimuli/Nonsocial2.png,stimuli/Nonsocial1.png,,"(-0.7, -0.5)",cs_plus_s,,,,,0,0,0,0,,,,,,,,,1,2,18,1,,,,,,,,,,,,,,,,,,,,,,,,,,,,,,,,,,,,,,,,,,,,,,,,,,,,,,,,,,1659.78852370003,1661.3649022000027,1659.281630600046,1661.3649022000027,1661.3649022000027,1661.3649022000027,0.005907299986574799,0.013240500004030764,125,shock,0,,,1661.5453851000057,1661.5453851000057,0.007511399977374822,0.007511399977374822,0.018612899992149323,0.05334109999239445,0.060291600006166846,0.10187569999834523,0.1088410000083968,1.0046875000116415,1665.038382300001,1669.4965489000315,,,,,,,,,,,,,,,,,,,,,,,,,,,,,22,D,2023-12-12_15h44.26.704,gca_avoidance_task,2022.2.4,143.84577441283983,
positions.xlsx,stimuli.xlsx,stimuli/Social2.png,stimuli/Social1.png,stimuli/Nonsocial2.png,stimuli/Nonsocial1.png,,"(0.7, 0.5)",cs_plus_ns,,,,,0,0,0,0,,,,,,,,,1,3,19,10,,,,,,,,,,,,,,,,,,,,,,,,,,,,,,,,,,,,,,,,,,,,,,,,,,,,,,,,,,1670.003390100028,1671.9408236000454,1669.4965489000315,1671.9408236000454,1671.9408236000454,1671.9408236000454,0.0064338999800384045,0.013254899997264147,125,shock,1,[0.20186909998301417],[0.20187270001042634],1672.1491982000298,1672.1491982000298,0.007588099979329854,0.007588099979329854,0.018054499989375472,0.052673199970740825,0.05966279999120161,0.10128599999006838,0.1082884999923408,1.0040511999977753,1675.6421249000123,1679.9127903000335,,,,,,,,,,,,,,,,,,,,,,,,,,,,,22,D,2023-12-12_15h44.26.704,gca_avoidance_task,2022.2.4,143.84577441283983,
positions.xlsx,stimuli.xlsx,stimuli/Social2.png,stimuli/Social1.png,stimuli/Nonsocial2.png,stimuli/Nonsocial1.png,,"(-0.7, -0.5)",cs_minus_ns,,,,,0,0,0,0,,,,,,,,,1,4,20,13,,,,,,,,,,,,,,,,,,,,,,,,,,,,,,,,,,,,,,,,,,,,,,,,,,,,,,,,,,1680.4196571000502,1682.273765000049,1679.9127903000335,1682.273765000049,1682.273765000049,1682.273765000049,0.007018500007688999,0.013382499979343265,130,reward,1,[0.23659059999044985],[0.23659430001862347],1682.5168083000463,1682.5168083000463,0.00790740002412349,0.00790740002412349,0.018278900010045618,0.05290220002643764,0.05988690000958741,0.10158730001421645,0.10854870005277917,1.0042701000347733,1686.009758900036,1689.7804579000222,,,,,,,,,,,,,,,,,,,,,,,,,,,,,22,D,2023-12-12_15h44.26.704,gca_avoidance_task,2022.2.4,143.84577441283983,
positions.xlsx,stimuli.xlsx,stimuli/Social2.png,stimuli/Social1.png,stimuli/Nonsocial2.png,stimuli/Nonsocial1.png,,"(0.7, -0.5)",cs_plus_ns,,,,,0,0,0,0,,,,,,,,,1,5,21,11,,,,,,,,,,,,,,,,,,,,,,,,,,,,,,,,,,,,,,,,,,,,,,,,,,,,,,,,,,1690.2873261000495,1691.960911900038,1689.7804579000222,1691.960911900038,1691.960911900038,1691.960911900038,0.006763999990653247,0.013065700011793524,130,shock,1,[0.14583689998835325],[0.14584069995908067],1692.1136743000243,1692.1136743000243,0.007859100005589426,0.007859100005589426,0.018716699967626482,0.053340999991633,0.06037199997808784,0.10198949999175966,0.10891569999512285,1.0046775999944657,1695.6065867000143,1699.502281300025,,,,,,,,,,,,,,,,,,,,,,,,,,,,,22,D,2023-12-12_15h44.26.704,gca_avoidance_task,2022.2.4,143.84577441283983,
positions.xlsx,stimuli.xlsx,stimuli/Social2.png,stimuli/Social1.png,stimuli/Nonsocial2.png,stimuli/Nonsocial1.png,,"(-0.7, 0.5)",cs_minus_s,,,,,0,0,0,0,,,,,,,,,1,6,22,4,,,,,,,,,,,,,,,,,,,,,,,,,,,,,,,,,,,,,,,,,,,,,,,,,,,,,,,,,,1700.009194900049,1701.4535988999996,1699.502281300025,1701.4535988999996,1701.4535988999996,1701.4535988999996,0.007227999973110855,0.01310320000629872,135,reward,1,[0.0975038000033237],[0.09750739997252822],1701.5577019000193,1701.5577019000193,0.00770279997959733,0.00770279997959733,0.018015599984209985,0.05270229995949194,0.059648499998729676,0.10138499998720363,0.10832030000165105,1.0040598000050522,1705.0506933000288,1709.1824840000481,,,,,,,,,,,,,,,,,,,,,,,,,,,,,22,D,2023-12-12_15h44.26.704,gca_avoidance_task,2022.2.4,143.84577441283983,
positions.xlsx,stimuli.xlsx,stimuli/Social2.png,stimuli/Social1.png,stimuli/Nonsocial2.png,stimuli/Nonsocial1.png,,"(0.7, -0.5)",cs_plus_s,,,,,0,0,0,0,,,,,,,,,1,7,23,3,,,,,,,,,,,,,,,,,,,,,,,,,,,,,,,,,,,,,,,,,,,,,,,,,,,,,,,,,,1709.689403299999,1710.9809709000401,1709.1824840000481,1710.9809709000401,1710.9809709000401,1710.9809709000401,0.006514800013974309,0.013112400018144399,135,shock,1,[0.2502024000277743],[0.25020609999774024],1711.2379268000368,1711.2379268000368,0.007238799997139722,0.007238799997139722,0.018277399998623878,0.052966699993703514,0.05995349999284372,0.10158870002487674,0.1085175999905914,1.0042796999914572,1714.7308381000184,1718.8418378000497,,,,,,,,,,,,,,,,,,,,,,,,,,,,,22,D,2023-12-12_15h44.26.704,gca_avoidance_task,2022.2.4,143.84577441283983,
positions.xlsx,stimuli.xlsx,stimuli/Social2.png,stimuli/Social1.png,stimuli/Nonsocial2.png,stimuli/Nonsocial1.png,,"(0.7, 0.5)",cs_minus_s,,,,,0,0,0,0,,,,,,,,,1,8,24,6,,,,,,,,,,,,,,,,,,,,,,,,,,,,,,,,,,,,,,,,,,,,,,,,,,,,,,,,,,1719.3487566999975,1720.8972585000447,1718.8418378000497,1720.8972585000447,1720.8972585000447,1720.8972585000447,0.005902300006709993,0.013078599993605167,140,reward,1,[0.11814350000349805],[0.11814740003319457],1721.0222565000295,1721.0222565000295,0.007026100007351488,0.007026100007351488,0.01844759995583445,0.05310109996935353,0.06003409996628761,0.10177760000806302,0.10864109999965876,1.004470499989111,1724.5152421999956,1728.1956544000423,,,,,,,,,,,,,,,,,,,,,,,,,,,,,22,D,2023-12-12_15h44.26.704,gca_avoidance_task,2022.2.4,143.84577441283983,
positions.xlsx,stimuli.xlsx,stimuli/Social2.png,stimuli/Social1.png,stimuli/Nonsocial2.png,stimuli/Nonsocial1.png,,"(-0.7, 0.5)",cs_plus_ns,,,,,0,0,0,0,,,,,,,,,1,9,25,8,,,,,,,,,,,,,,,,,,,,,,,,,,,,,,,,,,,,,,,,,,,,,,,,,,,,,,,,,,1728.7025211,1730.2719171000062,1728.1956544000423,1730.2719171000062,1730.2719171000062,1730.2719171000062,0.006136899988632649,0.013059300021268427,140,shock,1,[0.18763409997336566],[0.18763790000230074],1730.466327000002,1730.466327000002,0.007929200015496463,0.007929200015496463,0.018288700026459992,0.052956500032451004,0.05994860001374036,0.10162319999653846,0.1085564999957569,1.004355899989605,1733.959285000048,1738.417458800017,,,,,,,,,,,,,,,,,,,,,,,,,,,,,22,D,2023-12-12_15h44.26.704,gca_avoidance_task,2022.2.4,143.84577441283983,
positions.xlsx,stimuli.xlsx,stimuli/Social2.png,stimuli/Social1.png,stimuli/Nonsocial2.png,stimuli/Nonsocial1.png,,"(0.7, -0.5)",cs_minus_s,,,,,0,0,0,0,,,,,,,,,1,10,26,7,,,,,,,,,,,,,,,,,,,,,,,,,,,,,,,,,,,,,,,,,,,,,,,,,,,,,,,,,,1738.9243306000135,1740.479858000006,1738.417458800017,1740.479858000006,1740.479858000006,1740.479858000006,0.006627099995967001,0.012916099978610873,145,reward,1,[0.18055479996837676],[0.18055849999655038],1740.6673857000424,1740.6673857000424,0.007705500000156462,0.007705500000156462,0.018360999994911253,0.05295089998980984,0.05987789999926463,0.10153960000025108,0.10852469998644665,1.004256499989424,1744.160256800009,1748.6184400000493,,,,,,,,,,,,,,,,,,,,,,,,,,,,,22,D,2023-12-12_15h44.26.704,gca_avoidance_task,2022.2.4,143.84577441283983,
positions.xlsx,stimuli.xlsx,stimuli/Social2.png,stimuli/Social1.png,stimuli/Nonsocial2.png,stimuli/Nonsocial1.png,,"(-0.7, 0.5)",cs_minus_ns,,,,,0,0,0,0,,,,,,,,,1,11,27,12,,,,,,,,,,,,,,,,,,,,,,,,,,,,,,,,,,,,,,,,,,,,,,,,,,,,,,,,,,1749.1253215000033,1750.3475020000478,1748.6184400000493,1750.3475020000478,1750.3475020000478,1750.3475020000478,0.006818900001235306,0.01292839995585382,150,reward,1,[0.24306700000306591],[0.24307069997303188],1750.5975095000467,1750.5975095000467,0.00771169998915866,0.00771169998915866,0.017972800007555634,0.05264690000331029,0.05962870002258569,0.1012343000038527,0.10818719997769222,1.0040232000174,1754.0904514000285,1757.9028644000064,,,,,,,,,,,,,,,,,,,,,,,,,,,,,22,D,2023-12-12_15h44.26.704,gca_avoidance_task,2022.2.4,143.84577441283983,
positions.xlsx,stimuli.xlsx,stimuli/Social2.png,stimuli/Social1.png,stimuli/Nonsocial2.png,stimuli/Nonsocial1.png,,"(-0.7, -0.5)",cs_minus_s,,,,,0,0,0,0,,,,,,,,,1,12,28,5,,,,,,,,,,,,,,,,,,,,,,,,,,,,,,,,,,,,,,,,,,,,,,,,,,,,,,,,,,1758.4096947000362,1759.5624223000486,1757.9028644000064,1759.5624223000486,1759.5624223000486,1759.5624223000486,0.006741899996995926,0.013147199992090464,155,reward,1,[0.29196220001904294],[0.2919658999890089],1759.8610798000009,1759.8610798000009,0.00773539999499917,0.00773539999499917,0.018336599983740598,0.05290920002153143,0.059891599987167865,0.10155580000719056,0.10850939998636022,1.0043162999791093,1763.353988100018,1767.0622116000159,,,,,,,,,,,,,,,,,,,,,,,,,,,,,22,D,2023-12-12_15h44.26.704,gca_avoidance_task,2022.2.4,143.84577441283983,
positions.xlsx,stimuli.xlsx,stimuli/Social2.png,stimuli/Social1.png,stimuli/Nonsocial2.png,stimuli/Nonsocial1.png,,"(-0.7, -0.5)",cs_plus_ns,,,,,0,0,0,0,,,,,,,,,1,13,29,9,,,,,,,,,,,,,,,,,,,,,,,,,,,,,,,,,,,,,,,,,,,,,,,,,,,,,,,,,,1767.5690615000203,1768.9509711000137,1767.0622116000159,1768.9509711000137,1768.9509711000137,1768.9509711000137,0.006418799981474876,0.01303509995341301,155,shock,1,[0.11818879999918863],[0.11819259996991605],1769.0759472000063,1769.0759472000063,0.007883099955506623,0.007883099955506623,0.018133000005036592,0.05285340000409633,0.05981109995627776,0.10147709999000654,0.10840500000631437,1.0041782999760471,1772.568917000026,1776.7284651999944,,,,,,,,,,,,,,,,,,,,,,,,,,,,,22,D,2023-12-12_15h44.26.704,gca_avoidance_task,2022.2.4,143.84577441283983,
positions.xlsx,stimuli.xlsx,stimuli/Social2.png,stimuli/Social1.png,stimuli/Nonsocial2.png,stimuli/Nonsocial1.png,,"(0.7, -0.5)",cs_minus_ns,,,,,0,0,0,0,,,,,,,,,1,14,30,15,,,,,,,,,,,,,,,,,,,,,,,,,,,,,,,,,,,,,,,,,,,,,,,,,,,,,,,,,,1777.2353315000073,1778.4992074000183,1776.7284651999944,1778.4992074000183,1778.4992074000183,1778.4992074000183,0.0064341999823227525,0.013121899974066764,160,reward,1,[0.2847399999736808],[0.2847436999436468],1778.7908659999957,1778.7908659999957,0.008288800017908216,0.008288800017908216,0.01851270004408434,0.053181600000243634,0.060134700033813715,0.10177890001796186,0.10875240003224462,1.004496100009419,1782.2838362000184,1786.2975727000157,,,,,,,,,,,,,,,,,,,,,,,,,,,,,22,D,2023-12-12_15h44.26.704,gca_avoidance_task,2022.2.4,143.84577441283983,
positions.xlsx,stimuli.xlsx,stimuli/Social2.png,stimuli/Social1.png,stimuli/Nonsocial2.png,stimuli/Nonsocial1.png,,"(0.7, 0.5)",cs_plus_s,,,,,0,0,0,0,,,,,,,,,1,15,31,2,,,,,,,,,,,,,,,,,,,,,,,,,,,,,,,,,,,,,,,,,,,,,,,,,,,,,,,,,,1786.8044092000346,1788.5127217000118,1786.2975727000157,1788.5127217000118,1788.5127217000118,1788.5127217000118,0.005930399987846613,0.013139099988620728,160,shock,1,[0.1945115000125952],[0.19451509998179972],1788.7140721000032,1788.7140721000032,0.007485000009182841,0.007485000009182841,0.01856610004324466,0.05324870004551485,0.06015350000234321,0.10180840000975877,0.10876530001405627,1.004562700050883,1792.2070275000297,1795.929108900018,,,,,,,,,,,,,,,,,,,,,,,,,,,,,22,D,2023-12-12_15h44.26.704,gca_avoidance_task,2022.2.4,143.84577441283983,
positions.xlsx,stimuli.xlsx,stimuli/Social2.png,stimuli/Social1.png,stimuli/Nonsocial2.png,stimuli/Nonsocial1.png,,"(0.7, 0.5)",cs_minus_ns,,,,,0,0,0,0,,,,,,,,,2,0,32,14,,,,,,,,,,,,,,,,,,,,,,,,,,,,,,,,,,,,,,,,,,,,,,,,,,,,,,,,,,1796.4360160000506,1797.984533800045,1795.929108900018,1797.984533800045,1797.984533800045,1797.984533800045,0.006081299972720444,,165,reward,1,[0.0071161999949254096],[0.0071199999656528234],1797.984533800045,1797.984533800045,0.007956799992825836,0.007956799992825836,0.018412799981888384,0.0530291999457404,0.05998439999530092,0.10168490000069141,0.10866749996785074,1.0044313999824226,1801.4775240000454,1805.9287322000018,,,,,,,,,,,,,,,,,,,,,,,,,,,,,22,D,2023-12-12_15h44.26.704,gca_avoidance_task,2022.2.4,143.84577441283983,
positions.xlsx,stimuli.xlsx,stimuli/Social2.png,stimuli/Social1.png,stimuli/Nonsocial2.png,stimuli/Nonsocial1.png,,"(-0.7, 0.5)",cs_minus_ns,,,,,0,0,0,0,,,,,,,,,2,1,33,12,,,,,,,,,,,,,,,,,,,,,,,,,,,,,,,,,,,,,,,,,,,,,,,,,,,,,,,,,,1806.4356023000437,1808.07444940001,1805.9287322000018,1808.07444940001,1808.07444940001,1808.07444940001,0.006736500014085323,0.012759400007780641,170,reward,1,[0.16632150002988055],[0.16632509999908507],1808.2480385000235,1808.2480385000235,0.00761110003804788,0.00761110003804788,0.018794800038449466,0.05342840001685545,0.06042590003926307,0.10208070004591718,0.10904970002593473,1.0047703000018373,1811.7409696000395,1816.2061173000257,,,,,,,,,,,,,,,,,,,,,,,,,,,,,22,D,2023-12-12_15h44.26.704,gca_avoidance_task,2022.2.4,143.84577441283983,
positions.xlsx,stimuli.xlsx,stimuli/Social2.png,stimuli/Social1.png,stimuli/Nonsocial2.png,stimuli/Nonsocial1.png,,"(-0.7, 0.5)",cs_minus_s,,,,,0,0,0,0,,,,,,,,,2,2,34,4,,,,,,,,,,,,,,,,,,,,,,,,,,,,,,,,,,,,,,,,,,,,,,,,,,,,,,,,,,1816.71298750001,1818.5810215999954,1816.2061173000257,1818.5810215999954,1818.5810215999954,1818.5810215999954,0.006582999951206148,0.013199399982113391,175,reward,1,[0.04869549995055422],[0.04869899997720495],1818.6365198999993,1818.6365198999993,0.0064836000092327595,0.0064836000092327595,0.018368500052019954,0.053071800037287176,0.06002380000427365,0.1016436000354588,0.10863650002283975,1.0044360000174493,1822.1294095000485,1826.1154149000067,,,,,,,,,,,,,,,,,,,,,,,,,,,,,22,D,2023-12-12_15h44.26.704,gca_avoidance_task,2022.2.4,143.84577441283983,
positions.xlsx,stimuli.xlsx,stimuli/Social2.png,stimuli/Social1.png,stimuli/Nonsocial2.png,stimuli/Nonsocial1.png,,"(-0.7, -0.5)",cs_plus_s,,,,,0,0,0,0,,,,,,,,,2,3,35,1,,,,,,,,,,,,,,,,,,,,,,,,,,,,,,,,,,,,,,,,,,,,,,,,,,,,,,,,,,1826.6223079000483,1827.9903089000145,1826.1154149000067,1827.9903089000145,1827.9903089000145,1827.9903089000145,0.005785199988167733,0.013151399965863675,175,shock,1,[0.22918859997298568],[0.23620119999395683],1828.233360800019,1828.233360800019,0.00716949999332428,0.00716949999332428,0.018643699993845075,0.05331879999721423,0.06029639998450875,0.10194669995689765,0.10889749997295439,1.0046819999697618,1831.7263403999968,1835.6289029000327,,,,,,,,,,,,,,,,,,,,,,,,,,,,,22,D,2023-12-12_15h44.26.704,gca_avoidance_task,2022.2.4,143.84577441283983,
positions.xlsx,stimuli.xlsx,stimuli/Social2.png,stimuli/Social1.png,stimuli/Nonsocial2.png,stimuli/Nonsocial1.png,,"(0.7, 0.5)",cs_minus_s,,,,,0,0,0,0,,,,,,,,,2,4,36,6,,,,,,,,,,,,,,,,,,,,,,,,,,,,,,,,,,,,,,,,,,,,,,,,,,,,,,,,,,1836.1358299000422,1837.3927204000065,1835.6289029000327,1837.3927204000065,1837.3927204000065,1837.3927204000065,0.005719400011003017,0.01347080001141876,180,reward,1,[0.2924667000188492],[0.29247049998957664],1837.6913346000365,1837.6913346000365,0.006937500031199306,0.006937500031199306,0.018034800013992935,0.05275350000010803,0.059681100014131516,0.10132800001883879,0.10829010000452399,1.0041059000068344,1841.1843159000273,1844.8577560000122,,,,,,,,,,,,,,,,,,,,,,,,,,,,,22,D,2023-12-12_15h44.26.704,gca_avoidance_task,2022.2.4,143.84577441283983,
positions.xlsx,stimuli.xlsx,stimuli/Social2.png,stimuli/Social1.png,stimuli/Nonsocial2.png,stimuli/Nonsocial1.png,,"(0.7, -0.5)",cs_minus_ns,,,,,0,0,0,0,,,,,,,,,2,5,37,15,,,,,,,,,,,,,,,,,,,,,,,,,,,,,,,,,,,,,,,,,,,,,,,,,,,,,,,,,,1845.3646434000111,1847.3714986999985,1844.8577560000122,1847.3714986999985,1847.3714986999985,1847.3714986999985,0.007120100024621934,0.013079900003504008,185,reward,1,[0.2225054000155069],[0.22250929998699576],1847.6006690000067,1847.6006690000067,0.008180800010450184,0.008180800010450184,0.018516400014050305,0.05318019998958334,0.06018530001165345,0.10172259999671951,0.10876299999654293,1.0045258000027388,1851.0936512000044,1854.6212605000474,,,,,,,,,,,,,,,,,,,,,,,,,,,,,22,D,2023-12-12_15h44.26.704,gca_avoidance_task,2022.2.4,143.84577441283983,
positions.xlsx,stimuli.xlsx,stimuli/Social2.png,stimuli/Social1.png,stimuli/Nonsocial2.png,stimuli/Nonsocial1.png,,"(-0.7, -0.5)",cs_minus_ns,,,,,0,0,0,0,,,,,,,,,2,6,38,13,,,,,,,,,,,,,,,,,,,,,,,,,,,,,,,,,,,,,,,,,,,,,,,,,,,,,,,,,,1855.1281413999968,1856.6003155000508,1854.6212605000474,1856.6003155000508,1856.6003155000508,1856.6003155000508,0.006699199962895364,0.013222499983385205,190,reward,1,[0.17398069996852428],[0.18082569999387488],1856.787811200018,1856.787811200018,0.007599700009450316,0.007599700009450316,0.018134500016458333,0.05281590000959113,0.05976919998647645,0.10139979998348281,0.10835819999920204,1.004131299967412,1860.2807522999938,1864.0444983000052,,,,,,,,,,,,,,,,,,,,,,,,,,,,,22,D,2023-12-12_15h44.26.704,gca_avoidance_task,2022.2.4,143.84577441283983,
positions.xlsx,stimuli.xlsx,stimuli/Social2.png,stimuli/Social1.png,stimuli/Nonsocial2.png,stimuli/Nonsocial1.png,,"(-0.7, 0.5)",cs_plus_s,,,,,0,0,0,0,,,,,,,,,2,7,39,0,,,,,,,,,,,,,,,,,,,,,,,,,,,,,,,,,,,,,,,,,,,,,,,,,,,,,,,,,,1864.5514087000047,1866.0096937000053,1864.0444983000052,1866.0096937000053,1866.0096937000053,1866.0096937000053,0.005882199970073998,0.013324500003363937,190,shock,1,[0.22941239998908713],[0.2294160999590531],1866.2457356000086,1866.2457356000086,0.007341500022448599,0.007341500022448599,0.01879709999775514,0.05347959999926388,0.060461900022346526,0.10208199999760836,0.10903170000528917,1.004805699980352,1869.7387052000267,1873.4538979000063,,,,,,,,,,,,,,,,,,,,,,,,,,,,,22,D,2023-12-12_15h44.26.704,gca_avoidance_task,2022.2.4,143.84577441283983,
positions.xlsx,stimuli.xlsx,stimuli/Social2.png,stimuli/Social1.png,stimuli/Nonsocial2.png,stimuli/Nonsocial1.png,,"(-0.7, -0.5)",cs_minus_s,,,,,0,0,0,0,,,,,,,,,2,8,40,5,,,,,,,,,,,,,,,,,,,,,,,,,,,,,,,,,,,,,,,,,,,,,,,,,,,,,,,,,,1873.9607570000226,1875.5579075000132,1873.4538979000063,1875.5579075000132,1875.5579075000132,1875.5579075000132,0.006171899964101613,0.013000899984035641,195,reward,1,[0.21520380000583827],[0.2152073999750428],1875.7801083000377,1875.7801083000377,0.007830699963960797,0.007830699963960797,0.018813800008501858,0.05348489998141304,0.06048609997378662,0.10216629999922588,0.10909579996950924,1.0048802999663167,1879.2730673000333,1882.807652300049,,,,,,,,,,,,,,,,,,,,,,,,,,,,,22,D,2023-12-12_15h44.26.704,gca_avoidance_task,2022.2.4,143.84577441283983,
positions.xlsx,stimuli.xlsx,stimuli/Social2.png,stimuli/Social1.png,stimuli/Nonsocial2.png,stimuli/Nonsocial1.png,,"(-0.7, 0.5)",cs_plus_ns,,,,,0,0,0,0,,,,,,,,,2,9,41,8,,,,,,,,,,,,,,,,,,,,,,,,,,,,,,,,,,,,,,,,,,,,,,,,,,,,,,,,,,1883.3145420000073,1884.5644896000158,1882.807652300049,1884.5644896000158,1884.5644896000158,1884.5644896000158,0.006932000047527254,0.013293800002429634,195,shock,1,[0.2780618999968283],[0.27806550002424046],1884.8492085000034,1884.8492085000034,0.008042999950703233,0.008042999950703233,0.018330999999307096,0.05296399997314438,0.059921199979726225,0.10156619996996596,0.1085187999997288,1.0043477999861352,1888.3421379000065,1892.4878589000436,,,,,,,,,,,,,,,,,,,,,,,,,,,,,22,D,2023-12-12_15h44.26.704,gca_avoidance_task,2022.2.4,143.84577441283983,
positions.xlsx,stimuli.xlsx,stimuli/Social2.png,stimuli/Social1.png,stimuli/Nonsocial2.png,stimuli/Nonsocial1.png,,"(0.7, -0.5)",cs_minus_s,,,,,0,0,0,0,,,,,,,,,2,10,42,7,,,,,,,,,,,,,,,,,,,,,,,,,,,,,,,,,,,,,,,,,,,,,,,,,,,,,,,,,,1892.9947392000468,1894.0502565000206,1892.4878589000436,1894.0502565000206,1894.0502565000206,1894.0502565000206,0.006013800040818751,0.013517000013962388,200,reward,1,[0.22964320000028238],[0.22964680002769455],1894.2863768000389,1894.2863768000389,0.0066772999707609415,0.0066772999707609415,0.018404899979941547,0.0529804999823682,0.060002499958500266,0.10161989997141063,0.10859969997545704,1.0043512000120245,1897.7792596000363,1901.98054650001,,,,,,,,,,,,,,,,,,,,,,,,,,,,,22,D,2023-12-12_15h44.26.704,gca_avoidance_task,2022.2.4,143.84577441283983,
positions.xlsx,stimuli.xlsx,stimuli/Social2.png,stimuli/Social1.png,stimuli/Nonsocial2.png,stimuli/Nonsocial1.png,,"(0.7, -0.5)",cs_plus_s,,,,,0,0,0,0,,,,,,,,,2,11,43,3,,,,,,,,,,,,,,,,,,,,,,,,,,,,,,,,,,,,,,,,,,,,,,,,,,,,,,,,,,1902.4874166999944,1903.959567300044,1901.98054650001,1903.959567300044,1903.959567300044,1903.959567300044,0.006446900020819157,0.01332850003382191,200,shock,1,[0.2294868000317365],[0.22950529999798164],1904.1956584000145,1904.1956584000145,0.007236000034026802,0.007236000034026802,0.01853639999171719,0.053197700006421655,0.06016480003017932,0.1018227000022307,0.10879490000661463,1.0045893000205979,1907.6886529000476,1911.6676413000096,,,,,,,,,,,,,,,,,,,,,,,,,,,,,22,D,2023-12-12_15h44.26.704,gca_avoidance_task,2022.2.4,143.84577441283983,
positions.xlsx,stimuli.xlsx,stimuli/Social2.png,stimuli/Social1.png,stimuli/Nonsocial2.png,stimuli/Nonsocial1.png,,"(0.7, 0.5)",cs_plus_s,,,,,0,0,0,0,,,,,,,,,2,12,44,2,,,,,,,,,,,,,,,,,,,,,,,,,,,,,,,,,,,,,,,,,,,,,,,,,,,,,,,,,,1912.174518200045,1913.4869915000163,1911.6676413000096,1913.4869915000163,1913.4869915000163,1913.4869915000163,0.006060499988961965,,200,shock,1,[0.007190799980890006],[0.007194500009063631],1913.4869915000163,1913.4869915000163,0.0077414000406861305,0.0077414000406861305,0.01835890003712848,0.05298330000368878,0.059933300013653934,0.10159870004281402,0.10855330002959818,1.0043630000436679,1916.9799543000408,1920.6464742000098,,,,,,,,,,,,,,,,,,,,,,,,,,,,,22,D,2023-12-12_15h44.26.704,gca_avoidance_task,2022.2.4,143.84577441283983,
positions.xlsx,stimuli.xlsx,stimuli/Social2.png,stimuli/Social1.png,stimuli/Nonsocial2.png,stimuli/Nonsocial1.png,,"(0.7, -0.5)",cs_plus_ns,,,,,0,0,0,0,,,,,,,,,2,13,45,11,,,,,,,,,,,,,,,,,,,,,,,,,,,,,,,,,,,,,,,,,,,,,,,,,,,,,,,,,,1921.153383900004,1922.3755225000205,1920.6464742000098,1922.3755225000205,1922.3755225000205,1922.3755225000205,0.007243799977004528,0.01310779998311773,200,shock,1,[0.26400049997027963],[0.27135090000228956],1922.6533007000107,1922.6533007000107,0.007933399989269674,0.007933399989269674,0.018253899994306266,0.05290809995494783,0.059882699977606535,0.10149289999390021,0.10846079996554181,1.0042528999620117,1926.1462759000133,1930.284993600042,,,,,,,,,,,,,,,,,,,,,,,,,,,,,22,D,2023-12-12_15h44.26.704,gca_avoidance_task,2022.2.4,143.84577441283983,
positions.xlsx,stimuli.xlsx,stimuli/Social2.png,stimuli/Social1.png,stimuli/Nonsocial2.png,stimuli/Nonsocial1.png,,"(0.7, 0.5)",cs_plus_ns,,,,,0,0,0,0,,,,,,,,,2,14,46,10,,,,,,,,,,,,,,,,,,,,,,,,,,,,,,,,,,,,,,,,,,,,,,,,,,,,,,,,,,1930.7918880000361,1932.347407800029,1930.284993600042,1932.347407800029,1932.347407800029,1932.347407800029,0.0068990999716334045,0.013468699995428324,200,shock,1,[0.15309400000842288],[0.1530973999761045],1932.5070712000015,1932.5070712000015,0.007756499981041998,0.007756499981041998,0.018575699999928474,0.05328409996582195,0.06025549996411428,0.10187339998083189,0.10886469995602965,1.0045996999833733,1936.0000422000303,1939.5415850999998,,,,,,,,,,,,,,,,,,,,,,,,,,,,,22,D,2023-12-12_15h44.26.704,gca_avoidance_task,2022.2.4,143.84577441283983,
positions.xlsx,stimuli.xlsx,stimuli/Social2.png,stimuli/Social1.png,stimuli/Nonsocial2.png,stimuli/Nonsocial1.png,,"(-0.7, -0.5)",cs_plus_ns,,,,,0,0,0,0,,,,,,,,,2,15,47,9,,,,,,,,,,,,,,,,,,,,,,,,,,,,,,,,,,,,,,,,,,,,,,,,,,,,,,,,,,1940.0484924000339,1941.0970289999968,1939.5415850999998,1941.0970289999968,1941.0970289999968,1941.0970289999968,0.00702880002791062,0.013103600009344518,200,shock,1,[0.15984800003934652],[0.15985170000931248],1941.263685700018,1941.263685700018,0.008114899974316359,0.008114899974316359,0.018568400002550334,0.05324469995684922,0.06021849997341633,0.10183800000231713,0.10880549997091293,1.004603999957908,1944.756631700031,1948.6245790999965,,,,,,,,,,,,,,,,,,,,,,,,,,,,,22,D,2023-12-12_15h44.26.704,gca_avoidance_task,2022.2.4,143.84577441283983,
positions.xlsx,stimuli.xlsx,stimuli/Social2.png,stimuli/Social1.png,stimuli/Nonsocial2.png,stimuli/Nonsocial1.png,,"(0.7, 0.5)",cs_plus_s,,,,,0,0,0,0,,,,,,,,,3,0,48,2,,,,,,,,,,,,,,,,,,,,,,,,,,,,,,,,,,,,,,,,,,,,,,,,,,,,,,,,,,1949.1314237000188,1950.9230305000092,1948.6245790999965,1950.9230305000092,1950.9230305000092,1950.9230305000092,0.005890299973543733,,200,shock,1,[0.007309400010854006],[0.00731319998158142],1950.9230305000092,1950.9230305000092,0.007406099990475923,0.007406099990475923,0.01843379996716976,0.05314459995133802,0.06004079995909706,0.1016727999667637,0.10863390000304207,1.0044126999564469,1954.4159880999941,1958.429699600034,,,,,,,,,,,,,,,,,,,,,,,,,,,,,22,D,2023-12-12_15h44.26.704,gca_avoidance_task,2022.2.4,143.84577441283983,
positions.xlsx,stimuli.xlsx,stimuli/Social2.png,stimuli/Social1.png,stimuli/Nonsocial2.png,stimuli/Nonsocial1.png,,"(-0.7, -0.5)",cs_plus_ns,,,,,0,0,0,0,,,,,,,,,3,1,49,9,,,,,,,,,,,,,,,,,,,,,,,,,,,,,,,,,,,,,,,,,,,,,,,,,,,,,,,,,,1958.9366378000122,1960.742077700037,1958.429699600034,1960.742077700037,1960.742077700037,1960.742077700037,0.006888799951411784,0.013377900002524257,200,shock,1,[0.18098139995709062],[0.18098469998221844],1960.9226479000063,1960.9226479000063,0.007582999998703599,0.007582999998703599,0.011667400016449392,0.05328330001793802,0.06026589998509735,0.10194520000368357,0.10886969999410212,1.0046453999821097,1964.422568100039,1968.2488079000032,,,,,,,,,,,,,,,,,,,,,,,,,,,,,22,D,2023-12-12_15h44.26.704,gca_avoidance_task,2022.2.4,143.84577441283983,
positions.xlsx,stimuli.xlsx,stimuli/Social2.png,stimuli/Social1.png,stimuli/Nonsocial2.png,stimuli/Nonsocial1.png,,"(-0.7, -0.5)",cs_minus_ns,,,,,0,0,0,0,,,,,,,,,3,2,50,13,,,,,,,,,,,,,,,,,,,,,,,,,,,,,,,,,,,,,,,,,,,,,,,,,,,,,,,,,,1968.7556594000198,1970.2347738000099,1968.2488079000032,1970.2347738000099,1970.2347738000099,1970.2347738000099,0.006850100005976856,0.013187600008677691,205,reward,1,[0.1737163999932818],[0.17372019996400923],1970.4153423000243,1970.4153423000243,0.007853000017348677,0.007853000017348677,0.018203500017989427,0.05283669999334961,0.05978990002768114,0.10149770003044978,0.10840919998008758,1.0042167999781668,1973.908249900036,1977.8387127000024,,,,,,,,,,,,,,,,,,,,,,,,,,,,,22,D,2023-12-12_15h44.26.704,gca_avoidance_task,2022.2.4,143.84577441283983,
positions.xlsx,stimuli.xlsx,stimuli/Social2.png,stimuli/Social1.png,stimuli/Nonsocial2.png,stimuli/Nonsocial1.png,,"(-0.7, 0.5)",cs_plus_ns,,,,,0,0,0,0,,,,,,,,,3,3,51,8,,,,,,,,,,,,,,,,,,,,,,,,,,,,,,,,,,,,,,,,,,,,,,,,,,,,,,,,,,1978.3455617,1979.6996746000368,1977.8387127000024,1979.6996746000368,1979.6996746000368,1979.6996746000368,0.006760799966286868,0.013191399979405105,205,shock,1,[0.17379519995301962],[0.1737989999819547],1979.8802234000177,1979.8802234000177,0.00749389996053651,0.00749389996053651,0.018293000000994653,0.05298350000521168,0.0599423999665305,0.10158580000279471,0.10857669997494668,1.004317799990531,1983.373172099993,1987.7202539000427,,,,,,,,,,,,,,,,,,,,,,,,,,,,,22,D,2023-12-12_15h44.26.704,gca_avoidance_task,2022.2.4,143.84577441283983,
positions.xlsx,stimuli.xlsx,stimuli/Social2.png,stimuli/Social1.png,stimuli/Nonsocial2.png,stimuli/Nonsocial1.png,,"(0.7, -0.5)",cs_plus_s,,,,,0,0,0,0,,,,,,,,,3,4,52,3,,,,,,,,,,,,,,,,,,,,,,,,,,,,,,,,,,,,,,,,,,,,,,,,,,,,,,,,,,1988.2271787000354,1989.9909907000256,1987.7202539000427,1989.9909907000256,1989.9909907000256,1989.9909907000256,0.005786699999589473,0.013177599990740418,205,shock,1,[0.15293400001246482],[0.15295120002701879],1990.1506845999975,1990.1506845999975,0.007335700036492199,0.007335700036492199,0.01841930003138259,0.05307720002019778,0.060026600025594234,0.10169720003614202,0.10870610002893955,1.004467900027521,1993.6436507000471,1998.018459700048,,,,,,,,,,,,,,,,,,,,,,,,,,,,,22,D,2023-12-12_15h44.26.704,gca_avoidance_task,2022.2.4,143.84577441283983,
positions.xlsx,stimuli.xlsx,stimuli/Social2.png,stimuli/Social1.png,stimuli/Nonsocial2.png,stimuli/Nonsocial1.png,,"(-0.7, 0.5)",cs_plus_s,,,,,0,0,0,0,,,,,,,,,3,5,53,0,,,,,,,,,,,,,,,,,,,,,,,,,,,,,,,,,,,,,,,,,,,,,,,,,,,,,,,,,,1998.5252980000223,2000.421130200033,1998.018459700048,2000.421130200033,2000.421130200033,2000.421130200033,0.005990300036501139,0.013091800035908818,205,shock,1,[0.11816920002456754],[0.12503350002225488],2000.553067300003,2000.553067300003,0.007588999986182898,0.007588999986182898,0.018596399982925504,0.053230099962092936,0.06021379999583587,0.10185069998260587,0.10880960000213236,1.004700599994976,2004.0460055000149,2008.5110854000086,,,,,,,,,,,,,,,,,,,,,,,,,,,,,22,D,2023-12-12_15h44.26.704,gca_avoidance_task,2022.2.4,143.84577441283983,
positions.xlsx,stimuli.xlsx,stimuli/Social2.png,stimuli/Social1.png,stimuli/Nonsocial2.png,stimuli/Nonsocial1.png,,"(0.7, -0.5)",cs_minus_ns,,,,,0,0,0,0,,,,,,,,,3,6,54,15,,,,,,,,,,,,,,,,,,,,,,,,,,,,,,,,,,,,,,,,,,,,,,,,,,,,,,,,,,2009.017980100005,2010.7470816000132,2008.5110854000086,2010.7470816000132,2010.7470816000132,2010.7470816000132,0.0067764000268653035,0.013276899990160018,210,reward,1,[0.14619699999457225],[0.14620040002046153],2010.8998901000014,2010.8998901000014,0.008110900002066046,0.008110900002066046,0.01882950001163408,0.05343320005340502,0.060410500038415194,0.10211660002823919,0.10906730004353449,1.004843200033065,2014.3928613000317,2018.6357076000422,,,,,,,,,,,,,,,,,,,,,,,,,,,,,22,D,2023-12-12_15h44.26.704,gca_avoidance_task,2022.2.4,143.84577441283983,
positions.xlsx,stimuli.xlsx,stimuli/Social2.png,stimuli/Social1.png,stimuli/Nonsocial2.png,stimuli/Nonsocial1.png,,"(0.7, 0.5)",cs_minus_ns,,,,,0,0,0,0,,,,,,,,,3,7,55,14,,,,,,,,,,,,,,,,,,,,,,,,,,,,,,,,,,,,,,,,,,,,,,,,,,,,,,,,,,2019.1426059000078,2020.7258707000292,2018.6357076000422,2020.7258707000292,2020.7258707000292,2020.7258707000292,0.007306099985726178,,215,reward,1,[0.008915499958675355],[0.008919599989894778],2020.7258707000292,2020.7258707000292,0.007895099988672882,0.007895099988672882,0.017380099976435304,0.051978199975565076,0.058947900019120425,0.10069200000725687,0.10760430002119392,1.0033523999736644,2024.2188263999997,2028.0311791000422,,,,,,,,,,,,,,,,,,,,,,,,,,,,,22,D,2023-12-12_15h44.26.704,gca_avoidance_task,2022.2.4,143.84577441283983,
positions.xlsx,stimuli.xlsx,stimuli/Social2.png,stimuli/Social1.png,stimuli/Nonsocial2.png,stimuli/Nonsocial1.png,,"(-0.7, -0.5)",cs_minus_s,,,,,0,0,0,0,,,,,,,,,3,8,56,5,,,,,,,,,,,,,,,,,,,,,,,,,,,,,,,,,,,,,,,,,,,,,,,,,,,,,,,,,,2028.5380597000476,2030.0796428000322,2028.0311791000422,2030.0796428000322,2030.0796428000322,2030.0796428000322,0.006204300036188215,0.012890400015749037,220,reward,1,[0.17366900003980845],[0.17367290001129732],2030.2602423000499,2030.2602423000499,0.007117900007870048,0.007117900007870048,0.018270900007337332,0.0529264000360854,0.05985880002845079,0.10160480003105476,0.10853480000514537,1.0042843000264838,2033.7531428000075,2038.1280277000042,,,,,,,,,,,,,,,,,,,,,,,,,,,,,22,D,2023-12-12_15h44.26.704,gca_avoidance_task,2022.2.4,143.84577441283983,
positions.xlsx,stimuli.xlsx,stimuli/Social2.png,stimuli/Social1.png,stimuli/Nonsocial2.png,stimuli/Nonsocial1.png,,"(0.7, -0.5)",cs_minus_s,,,,,0,0,0,0,,,,,,,,,3,9,57,7,,,,,,,,,,,,,,,,,,,,,,,,,,,,,,,,,,,,,,,,,,,,,,,,,,,,,,,,,,2038.6348828000482,2039.9334376000334,2038.1280277000042,2039.9334376000334,2039.9334376000334,2039.9334376000334,0.005787600006442517,0.013490999990608543,225,reward,1,[0.15323509997688234],[0.1532389000058174],2040.0931740000378,2040.0931740000378,0.00700199999846518,0.00700199999846518,0.018435000034514815,0.0531611000187695,0.06010390003211796,0.10170120000839233,0.10868440003832802,1.0044467000407167,2043.5861416000407,2047.8706784000387,,,,,,,,,,,,,,,,,,,,,,,,,,,,,22,D,2023-12-12_15h44.26.704,gca_avoidance_task,2022.2.4,143.84577441283983,
positions.xlsx,stimuli.xlsx,stimuli/Social2.png,stimuli/Social1.png,stimuli/Nonsocial2.png,stimuli/Nonsocial1.png,,"(0.7, 0.5)",cs_plus_ns,,,,,0,0,0,0,,,,,,,,,3,10,58,10,,,,,,,,,,,,,,,,,,,,,,,,,,,,,,,,,,,,,,,,,,,,,,,,,,,,,,,,,,2048.3775726000313,2049.703899600019,2047.8706784000387,2049.703899600019,2049.703899600019,2049.703899600019,0.006953999982215464,0.013117499998770654,225,shock,1,[0.2709053999860771],[0.27090889995452017],2049.9816732000327,2049.9816732000327,0.007296499970834702,0.007296499970834702,0.018179899954702705,0.05285449995426461,0.059811699960846454,0.10145919997012243,0.10841179999988526,1.0041889999993145,2053.4746466000215,2057.4328316000174,,,,,,,,,,,,,,,,,,,,,,,,,,,,,22,D,2023-12-12_15h44.26.704,gca_avoidance_task,2022.2.4,143.84577441283983,
positions.xlsx,stimuli.xlsx,stimuli/Social2.png,stimuli/Social1.png,stimuli/Nonsocial2.png,stimuli/Nonsocial1.png,,"(-0.7, -0.5)",cs_plus_s,,,,,0,0,0,0,,,,,,,,,3,11,59,1,,,,,,,,,,,,,,,,,,,,,,,,,,,,,,,,,,,,,,,,,,,,,,,,,,,,,,,,,,2057.939696300018,2059.488243300002,2057.4328316000174,2059.488243300002,2059.488243300002,2059.488243300002,0.006333500030450523,0.01323380001122132,225,shock,1,[0.2780586000299081],[0.27806240000063553],2059.7729565000045,2059.7729565000045,0.007966200006194413,0.007966200006194413,0.018077799992170185,0.052729499991983175,0.059681100014131516,0.10132890002569184,0.10828709998168051,1.004015700018499,2063.2658586000325,2066.960248200048,,,,,,,,,,,,,,,,,,,,,,,,,,,,,22,D,2023-12-12_15h44.26.704,gca_avoidance_task,2022.2.4,143.84577441283983,
positions.xlsx,stimuli.xlsx,stimuli/Social2.png,stimuli/Social1.png,stimuli/Nonsocial2.png,stimuli/Nonsocial1.png,,"(-0.7, 0.5)",cs_minus_s,,,,,0,0,0,0,,,,,,,,,3,12,60,4,,,,,,,,,,,,,,,,,,,,,,,,,,,,,,,,,,,,,,,,,,,,,,,,,,,,,,,,,,2067.4671122000436,2069.439238300023,2066.960248200048,2069.439238300023,2069.439238300023,2069.439238300023,0.005954199994448572,0.012847300036810338,230,reward,1,[0.18051949999062344],[0.18052300001727417],2069.6267333000433,2069.6267333000433,0.007373699976596981,0.007373699976596981,0.01810960000148043,0.05277740000747144,0.05971950001548976,0.10136650002095848,0.10831769998185337,1.0040901000029407,2073.119692700042,2077.1056789000286,,,,,,,,,,,,,,,,,,,,,,,,,,,,,22,D,2023-12-12_15h44.26.704,gca_avoidance_task,2022.2.4,143.84577441283983,
positions.xlsx,stimuli.xlsx,stimuli/Social2.png,stimuli/Social1.png,stimuli/Nonsocial2.png,stimuli/Nonsocial1.png,,"(0.7, -0.5)",cs_plus_ns,,,,,0,0,0,0,,,,,,,,,3,13,61,11,,,,,,,,,,,,,,,,,,,,,,,,,,,,,,,,,,,,,,,,,,,,,,,,,,,,,,,,,,2077.6125257000094,2079.056945100019,2077.1056789000286,2079.056945100019,2079.056945100019,2079.056945100019,0.0070458000409416854,0.013144100026693195,230,shock,1,[0.3333567000227049],[0.3333600999903865],2079.3972274000407,2079.3972274000407,0.0077668000012636185,0.0077668000012636185,0.01816019997932017,0.052768099994864315,0.059739099990110844,0.10140250000404194,0.10833919997094199,1.0041549999732524,2082.890182700008,2086.7997145000263,,,,,,,,,,,,,,,,,,,,,,,,,,,,,22,D,2023-12-12_15h44.26.704,gca_avoidance_task,2022.2.4,143.84577441283983,
positions.xlsx,stimuli.xlsx,stimuli/Social2.png,stimuli/Social1.png,stimuli/Nonsocial2.png,stimuli/Nonsocial1.png,,"(-0.7, 0.5)",cs_minus_ns,,,,,0,0,0,0,,,,,,,,,3,14,62,12,,,,,,,,,,,,,,,,,,,,,,,,,,,,,,,,,,,,,,,,,,,,,,,,,,,,,,,,,,2087.306600800017,2089.2648679999984,2086.7997145000263,2089.2648679999984,2089.2648679999984,2089.2648679999984,0.007362600008491427,0.013431100000161678,235,reward,1,[0.2574462000047788],[0.25744990003295243],2089.5287522000144,2089.5287522000144,0.008102399995550513,0.008102399995550513,0.018370799953117967,0.053056899982038885,0.05996049998793751,0.1016797999618575,0.10862119996454567,1.004378599987831,2093.021735600021,2096.88960960001,,,,,,,,,,,,,,,,,,,,,,,,,,,,,22,D,2023-12-12_15h44.26.704,gca_avoidance_task,2022.2.4,143.84577441283983,
positions.xlsx,stimuli.xlsx,stimuli/Social2.png,stimuli/Social1.png,stimuli/Nonsocial2.png,stimuli/Nonsocial1.png,,"(0.7, 0.5)",cs_minus_s,,,,,0,0,0,0,,,,,,,,,3,15,63,6,,,,,,,,,,,,,,,,,,,,,,,,,,,,,,,,,,,,,,,,,,,,,,,,,,,,,,,,,,2097.396511800005,2098.9103358000284,2096.88960960001,2098.9103358000284,2098.9103358000284,2098.9103358000284,0.006009500008076429,0.013125700003001839,240,reward,1,[0.1737847999902442],[0.17378860001917928],2099.09087070002,2099.09087070002,0.007384199998341501,0.007384199998341501,0.018363999959547073,0.053050999995321035,0.060019199969246984,0.10167039994848892,0.10860089998459443,1.0044189999462105,2102.5838147000177,2106.437862300023,,,,,,,,,,,,,,,,,,,,,,,,,,,,,22,D,2023-12-12_15h44.26.704,gca_avoidance_task,2022.2.4,143.84577441283983,
positions.xlsx,stimuli.xlsx,stimuli/Social2.png,stimuli/Social1.png,stimuli/Nonsocial2.png,stimuli/Nonsocial1.png,,"(-0.7, 0.5)",cs_minus_ns,,,,,0,0,0,0,,,,,,,,,4,0,64,12,,,,,,,,,,,,,,,,,,,,,,,,,,,,,,,,,,,,,,,,,,,,,,,,,,,,,,,,,,2106.944725700014,2108.305787499994,2106.437862300023,2108.305787499994,2108.305787499994,2108.305787499994,0.006822500028647482,0.01306640001712367,245,reward,1,[0.22245480003766716],[0.22245850000763312],2108.5349349000026,2108.5349349000026,0.00780510000186041,0.00780510000186041,0.01861909998115152,0.05326770001556724,0.060241199971642345,0.10193030000664294,0.10887419997015968,1.0046580999623984,2112.0278884000145,2116.305532200029,,,,,,,,,,,,,,,,,,,,,,,,,,,,,22,D,2023-12-12_15h44.26.704,gca_avoidance_task,2022.2.4,143.84577441283983,
positions.xlsx,stimuli.xlsx,stimuli/Social2.png,stimuli/Social1.png,stimuli/Nonsocial2.png,stimuli/Nonsocial1.png,,"(0.7, 0.5)",cs_plus_ns,,,,,0,0,0,0,,,,,,,,,4,1,65,10,,,,,,,,,,,,,,,,,,,,,,,,,,,,,,,,,,,,,,,,,,,,,,,,,,,,,,,,,,2116.8123829000397,2118.8053669999936,2116.305532200029,2118.8053669999936,2118.8053669999936,2118.8053669999936,0.006540699978359044,0.01316099998075515,245,shock,1,[0.5487724000122398],[0.5487762999837287],2119.360908700037,2119.360908700037,0.007987899996805936,0.007987899996805936,0.018455899960827082,0.053184499964118004,0.06013509997865185,0.10175009997328743,0.10873059998266399,1.0044907999690622,2122.8538713000016,2126.8189856000245,,,,,,,,,,,,,,,,,,,,,,,,,,,,,22,D,2023-12-12_15h44.26.704,gca_avoidance_task,2022.2.4,143.84577441283983,
positions.xlsx,stimuli.xlsx,stimuli/Social2.png,stimuli/Social1.png,stimuli/Nonsocial2.png,stimuli/Nonsocial1.png,,"(-0.7, -0.5)",cs_minus_ns,,,,,0,0,0,0,,,,,,,,,4,2,66,13,,,,,,,,,,,,,,,,,,,,,,,,,,,,,,,,,,,,,,,,,,,,,,,,,,,,,,,,,,2127.325873200025,2128.478628700017,2126.8189856000245,2128.478628700017,2128.478628700017,2128.478628700017,0.006302199966739863,0.013136199966538697,250,reward,1,[0.29862299998058006],[0.3059303999762051],2128.7911114000017,2128.7911114000017,0.007549500034656376,0.007549500034656376,0.01813919999403879,0.05278329999418929,0.059780700015835464,0.10140370001317933,0.1083502999972552,1.004187600046862,2132.284067700035,2136.520028400002,,,,,,,,,,,,,,,,,,,,,,,,,,,,,22,D,2023-12-12_15h44.26.704,gca_avoidance_task,2022.2.4,143.84577441283983,
positions.xlsx,stimuli.xlsx,stimuli/Social2.png,stimuli/Social1.png,stimuli/Nonsocial2.png,stimuli/Nonsocial1.png,,"(-0.7, 0.5)",cs_minus_s,,,,,0,0,0,0,,,,,,,,,4,3,67,4,,,,,,,,,,,,,,,,,,,,,,,,,,,,,,,,,,,,,,,,,,,,,,,,,,,,,,,,,,2137.0269308999996,2139.0337421000004,2136.520028400002,2139.0337421000004,2139.0337421000004,2139.0337421000004,0.006195299967657775,0.013287899957504123,255,reward,1,[0.21575539995683357],[0.2157592999865301],2139.255977599998,2139.255977599998,0.007398199988529086,0.007398199988529086,0.01797929999884218,0.0526823999825865,0.0595960000064224,0.10121059999801219,0.10818229999858886,1.0040162000223063,2142.748919600039,2147.005727300013,,,,,,,,,,,,,,,,,,,,,,,,,,,,,22,D,2023-12-12_15h44.26.704,gca_avoidance_task,2022.2.4,143.84577441283983,
positions.xlsx,stimuli.xlsx,stimuli/Social2.png,stimuli/Social1.png,stimuli/Nonsocial2.png,stimuli/Nonsocial1.png,,"(-0.7, -0.5)",cs_minus_s,,,,,0,0,0,0,,,,,,,,,4,4,68,5,,,,,,,,,,,,,,,,,,,,,,,,,,,,,,,,,,,,,,,,,,,,,,,,,,,,,,,,,,2147.5125846000155,2149.179180700041,2147.005727300013,2149.179180700041,2149.179180700041,2149.179180700041,0.005753799981903285,0.013058700016699731,260,reward,1,[0.2154492000117898],[0.21545289998175576],2149.4014101000503,2149.4014101000503,0.00692650000564754,0.00692650000564754,0.01830360002350062,0.052954700018744916,0.05992760002845898,0.10155500000109896,0.10851860005641356,1.004325600049924,2152.8943436000263,2156.9358934000484,,,,,,,,,,,,,,,,,,,,,,,,,,,,,22,D,2023-12-12_15h44.26.704,gca_avoidance_task,2022.2.4,143.84577441283983,
positions.xlsx,stimuli.xlsx,stimuli/Social2.png,stimuli/Social1.png,stimuli/Nonsocial2.png,stimuli/Nonsocial1.png,,"(-0.7, 0.5)",cs_plus_ns,,,,,0,0,0,0,,,,,,,,,4,5,69,8,,,,,,,,,,,,,,,,,,,,,,,,,,,,,,,,,,,,,,,,,,,,,,,,,,,,,,,,,,2157.442775500007,2159.3037936000037,2156.9358934000484,2159.3037936000037,2159.3037936000037,2159.3037936000037,0.006869199976790696,0.01315799995791167,260,shock,1,[0.45155449997400865],[0.4515583999454975],2159.7621378000476,2159.7621378000476,0.0077485000365413725,0.0077485000365413725,0.018416900013107806,0.05304440000327304,0.059973400027956814,0.10166030004620552,0.10866120003629476,1.0043964000069536,2163.255074899993,2167.6507526000496,,,,,,,,,,,,,,,,,,,,,,,,,,,,,22,D,2023-12-12_15h44.26.704,gca_avoidance_task,2022.2.4,143.84577441283983,
positions.xlsx,stimuli.xlsx,stimuli/Social2.png,stimuli/Social1.png,stimuli/Nonsocial2.png,stimuli/Nonsocial1.png,,"(0.7, 0.5)",cs_minus_ns,,,,,0,0,0,0,,,,,,,,,4,6,70,14,,,,,,,,,,,,,,,,,,,,,,,,,,,,,,,,,,,,,,,,,,,,,,,,,,,,,,,,,,2168.157628500019,2169.9075228000293,2167.6507526000496,2169.9075228000293,2169.9075228000293,2169.9075228000293,0.007174899976234883,0.013447900011669844,265,reward,1,[0.15316950000124052],[0.15317300002789125],2170.067262800003,2170.067262800003,0.007816000026650727,0.007816000026650727,0.01849200000287965,0.053218399989418685,0.06009710003854707,0.10179450002033263,0.1087301000370644,1.0045436000218615,2173.560218400031,2177.1781567000435,,,,,,,,,,,,,,,,,,,,,,,,,,,,,22,D,2023-12-12_15h44.26.704,gca_avoidance_task,2022.2.4,143.84577441283983,
positions.xlsx,stimuli.xlsx,stimuli/Social2.png,stimuli/Social1.png,stimuli/Nonsocial2.png,stimuli/Nonsocial1.png,,"(0.7, 0.5)",cs_plus_s,,,,,0,0,0,0,,,,,,,,,4,7,71,2,,,,,,,,,,,,,,,,,,,,,,,,,,,,,,,,,,,,,,,,,,,,,,,,,,,,,,,,,,2177.6850134000415,2179.3932958000223,2177.1781567000435,2179.3932958000223,2179.3932958000223,2179.3932958000223,0.006331299955490977,0.013231599994469434,265,shock,1,[0.19468209997285157],[0.19468590000178665],2179.594695000036,2179.594695000036,0.007436799991410226,0.007436799991410226,0.018340999959036708,0.053074600000400096,0.06000609998591244,0.10162519995355979,0.10861120000481606,1.0043597999610938,2183.0876616000314,2187.3513285000226,,,,,,,,,,,,,,,,,,,,,,,,,,,,,22,D,2023-12-12_15h44.26.704,gca_avoidance_task,2022.2.4,143.84577441283983,
positions.xlsx,stimuli.xlsx,stimuli/Social2.png,stimuli/Social1.png,stimuli/Nonsocial2.png,stimuli/Nonsocial1.png,,"(-0.7, -0.5)",cs_plus_ns,,,,,0,0,0,0,,,,,,,,,4,8,72,9,,,,,,,,,,,,,,,,,,,,,,,,,,,,,,,,,,,,,,,,,,,,,,,,,,,,,,,,,,2187.858227799996,2189.0595950999996,2187.3513285000226,2189.0595950999996,2189.0595950999996,2189.0595950999996,0.006694699986837804,,265,shock,1,[0.007617799972649664],[0.0076357999932952225],2189.0595950999996,2189.0595950999996,0.007752200006507337,0.007752200006507337,0.017720700008794665,0.052356400003191084,0.059254499967209995,0.10092649998841807,0.10787569999229163,1.0036745999823324,2192.552570300002,2196.1426708000363,,,,,,,,,,,,,,,,,,,,,,,,,,,,,22,D,2023-12-12_15h44.26.704,gca_avoidance_task,2022.2.4,143.84577441283983,
positions.xlsx,stimuli.xlsx,stimuli/Social2.png,stimuli/Social1.png,stimuli/Nonsocial2.png,stimuli/Nonsocial1.png,,"(0.7, -0.5)",cs_plus_ns,,,,,0,0,0,0,,,,,,,,,4,9,73,11,,,,,,,,,,,,,,,,,,,,,,,,,,,,,,,,,,,,,,,,,,,,,,,,,,,,,,,,,,2196.6495849000057,2198.093944400025,2196.1426708000363,2198.093944400025,2198.093944400025,2198.093944400025,0.006409800029359758,0.012968100025318563,265,shock,1,[0.24343400000361726],[0.24343760003102943],2198.343912500015,2198.343912500015,0.0072966000298038125,0.0072966000298038125,0.018458300037309527,0.05316559999482706,0.06017670000437647,0.10177399998065084,0.10868190001929179,1.0045411000028253,2201.836919100024,2205.9895447000163,,,,,,,,,,,,,,,,,,,,,,,,,,,,,22,D,2023-12-12_15h44.26.704,gca_avoidance_task,2022.2.4,143.84577441283983,
positions.xlsx,stimuli.xlsx,stimuli/Social2.png,stimuli/Social1.png,stimuli/Nonsocial2.png,stimuli/Nonsocial1.png,,"(0.7, 0.5)",cs_minus_s,,,,,0,0,0,0,,,,,,,,,4,10,74,6,,,,,,,,,,,,,,,,,,,,,,,,,,,,,,,,,,,,,,,,,,,,,,,,,,,,,,,,,,2206.4963917999994,2208.0588680999936,2205.9895447000163,2208.0588680999936,2208.0588680999936,2208.0588680999936,0.005765100009739399,0.013016899989452213,270,reward,1,[0.2846815999946557],[0.2846851999638602],2208.350504000031,2208.350504000031,0.006823599978815764,0.006823599978815764,0.0182681999867782,0.05289569997694343,0.05985249998047948,0.10150489996885881,0.10849569999845698,1.0042944999877363,2211.843425500032,2215.8919063000358,,,,,,,,,,,,,,,,,,,,,,,,,,,,,22,D,2023-12-12_15h44.26.704,gca_avoidance_task,2022.2.4,143.84577441283983,
positions.xlsx,stimuli.xlsx,stimuli/Social2.png,stimuli/Social1.png,stimuli/Nonsocial2.png,stimuli/Nonsocial1.png,,"(-0.7, 0.5)",cs_plus_s,,,,,0,0,0,0,,,,,,,,,4,11,75,0,,,,,,,,,,,,,,,,,,,,,,,,,,,,,,,,,,,,,,,,,,,,,,,,,,,,,,,,,,2216.3987697000266,2217.419602900045,2215.8919063000358,2217.419602900045,2217.419602900045,2217.419602900045,0.005853699985891581,0.013419600029010326,270,shock,1,[0.2156783000100404],[0.21568189997924492],2217.6418335000053,2217.6418335000053,0.007816299970727414,0.007816299970727414,0.018383399990852922,0.05307789996732026,0.060024699952919036,0.10169759998098016,0.10861969995312393,1.0044029999990016,2221.134784099995,2224.745728900016,,,,,,,,,,,,,,,,,,,,,,,,,,,,,22,D,2023-12-12_15h44.26.704,gca_avoidance_task,2022.2.4,143.84577441283983,
positions.xlsx,stimuli.xlsx,stimuli/Social2.png,stimuli/Social1.png,stimuli/Nonsocial2.png,stimuli/Nonsocial1.png,,"(-0.7, -0.5)",cs_plus_s,,,,,0,0,0,0,,,,,,,,,4,12,76,1,,,,,,,,,,,,,,,,,,,,,,,,,,,,,,,,,,,,,,,,,,,,,,,,,,,,,,,,,,2225.252614099998,2226.9053044000175,2224.745728900016,2226.9053044000175,2226.9053044000175,2226.9053044000175,0.005675700027495623,0.012931000033859164,270,shock,1,[0.17352480004774407],[0.17352870001923293],2227.085864600027,2227.085864600027,0.007099399983417243,0.007099399983417243,0.01834080001572147,0.05300979997264221,0.05999470001552254,0.10174249997362494,0.108581000007689,1.0043576000025496,2230.5788601000095,2234.7870215000003,,,,,,,,,,,,,,,,,,,,,,,,,,,,,22,D,2023-12-12_15h44.26.704,gca_avoidance_task,2022.2.4,143.84577441283983,
positions.xlsx,stimuli.xlsx,stimuli/Social2.png,stimuli/Social1.png,stimuli/Nonsocial2.png,stimuli/Nonsocial1.png,,"(0.7, -0.5)",cs_minus_ns,,,,,0,0,0,0,,,,,,,,,4,13,77,15,,,,,,,,,,,,,,,,,,,,,,,,,,,,,,,,,,,,,,,,,,,,,,,,,,,,,,,,,,2235.2939135000343,2236.5785700000124,2234.7870215000003,2236.5785700000124,2236.5785700000124,2236.5785700000124,0.00654719996964559,0.013213599973823875,275,reward,1,[0.22981849999632686],[0.22982239996781573],2236.814685999998,2236.814685999998,0.007282900041900575,0.007282900041900575,0.018367000040598214,0.05297320004319772,0.05995190003886819,0.10160769999492913,0.10861819999990985,1.004406200023368,2240.307621200045,2244.2657854999998,,,,,,,,,,,,,,,,,,,,,,,,,,,,,22,D,2023-12-12_15h44.26.704,gca_avoidance_task,2022.2.4,143.84577441283983,
positions.xlsx,stimuli.xlsx,stimuli/Social2.png,stimuli/Social1.png,stimuli/Nonsocial2.png,stimuli/Nonsocial1.png,,"(0.7, -0.5)",cs_plus_s,,,,,0,0,0,0,,,,,,,,,4,14,78,3,,,,,,,,,,,,,,,,,,,,,,,,,,,,,,,,,,,,,,,,,,,,,,,,,,,,,,,,,,2244.7727070000255,2246.2726299000205,2244.2657854999998,2246.2726299000205,2246.2726299000205,2246.2726299000205,0.00563149998197332,0.013080600008834153,275,shock,1,[0.16686259995913133],[0.1668661999865435],2246.4462141999975,2246.4462141999975,0.007077999995090067,0.007077999995090067,0.01830830000108108,0.05299529997864738,0.0600416999659501,0.10160609998274595,0.10859129996970296,1.0043864999897778,2249.9391995000187,2254.3001256000134,,,,,,,,,,,,,,,,,,,,,,,,,,,,,22,D,2023-12-12_15h44.26.704,gca_avoidance_task,2022.2.4,143.84577441283983,
positions.xlsx,stimuli.xlsx,stimuli/Social2.png,stimuli/Social1.png,stimuli/Nonsocial2.png,stimuli/Nonsocial1.png,,"(0.7, -0.5)",cs_minus_s,,,,,0,0,0,0,,,,,,,,,4,15,79,7,,,,,,,,,,,,,,,,,,,,,,,,,,,,,,,,,,,,,,,,,,,,,,,,,,,,,,,,,,2254.8070324000437,2256.3069699000334,2254.3001256000134,2256.3069699000334,2256.3069699000334,2256.3069699000334,0.005854499991983175,0.012879099987912923,280,reward,1,[0.19440839998424053],[0.19441210001241416],2256.508347099996,2256.508347099996,0.0073170000105164945,0.0073170000105164945,0.01854509999975562,0.05324019998079166,0.06023810000624508,0.10182420001365244,0.10880049999104813,1.0046186000108719,2260.001309300016,2263.6400342000416,,,,,,,,,,,,,,,,,,,,,,,,,,,,,22,D,2023-12-12_15h44.26.704,gca_avoidance_task,2022.2.4,143.84577441283983,
positions.xlsx,stimuli.xlsx,stimuli/Social2.png,stimuli/Social1.png,stimuli/Nonsocial2.png,stimuli/Nonsocial1.png,cs_minus_s,,,,,,,0,0,0,0,,,,,,,,,,,,,0,0,0,2,,,,,,,,,,,,,,,,,,,,,,,,,,,,,,,,,,,,,,,,,,,2272.223010800022,2272.223010800022,2283.458693100023,5.0,11.217944399977569,space,3.0467639999696985,,,,,,,,,,,,,,,,,,,,,,,,,,,,,,,,,,,,2263.6400342000416,2263.6400342000416,2263.6400342000416,2263.6400342000416,2263.6400342000416,2263.6400342000416,2270.2925145000336,7.0,6.6463368000113405,space,1.8997516999952495,,,,,,,,,,,,22,D,2023-12-12_15h44.26.704,gca_avoidance_task,2022.2.4,143.84577441283983,
positions.xlsx,stimuli.xlsx,stimuli/Social2.png,stimuli/Social1.png,stimuli/Nonsocial2.png,stimuli/Nonsocial1.png,cs_plus_ns,,,,,,,0,0,0,0,,,,,,,,,,,,,0,1,1,1,,,,,,,,,,,,,,,,,,,,,,,,,,,,,,,,,,,,,,,,,,,2286.5349922000314,2286.5349922000314,2289.3820549999946,4.0,2.8336913000093773,space,1.234680900000967,,,,,,,,,,,,,,,,,,,,,,,,,,,,,,,,,,,,,,,,,,,,,,,,,,,,,,,,,,22,D,2023-12-12_15h44.26.704,gca_avoidance_task,2022.2.4,143.84577441283983,
