posFile,stimFile,cs_plus_s,cs_minus_s,cs_plus_ns,cs_minus_ns,stimtype,position,trialtype,trials_threshold.thisRepN,trials_threshold.thisTrialN,trials_threshold.thisN,trials_threshold.thisIndex,blocks.thisRepN,blocks.thisTrialN,blocks.thisN,blocks.thisIndex,ratingtrials1.thisRepN,ratingtrials1.thisTrialN,ratingtrials1.thisN,ratingtrials1.thisIndex,learning_trials.thisRepN,learning_trials.thisTrialN,learning_trials.thisN,learning_trials.thisIndex,trials.thisRepN,trials.thisTrialN,trials.thisN,trials.thisIndex,ratingtrials2.thisRepN,ratingtrials2.thisTrialN,ratingtrials2.thisN,ratingtrials2.thisIndex,testtrials.thisRepN,testtrials.thisTrialN,testtrials.thisN,testtrials.thisIndex,ratingtrials3.thisRepN,ratingtrials3.thisTrialN,ratingtrials3.thisN,ratingtrials3.thisIndex,textStart.started,spaceStart.started,spaceStart.keys,spaceStart.rt,textPainThreshold.started,spacePainThreshold.started,spacePainThreshold.keys,spacePainThreshold.rt,textRateT.started,text_noPainT.started,text_slightPainT.started,text_highPainT.started,sliderPainT.started,keys_PainT.started,sliderPainT.response,sliderPainT.rt,keys_PainT.keys,keys_PainT.rt,fixcrossT.started,portShock1T.started,portShock1T.stopped,portShock2T.started,portShock2T.stopped,portShock3T.started,portShock3T.stopped,fixcrossT.stopped,text_ETCalibration.started,spaceETCalibration.started,spaceETCalibration.keys,spaceETCalibration.rt,textStartExp.started,spaceStartExp.started,spaceStartExp.keys,spaceStartExp.rt,imageRating.started,sliderStim.started,spaceStim.started,sliderStim.response,sliderStim.rt,spaceStim.keys,spaceStim.rt,textStartTask.started,spaceStartTask.started,spaceStartTask.keys,spaceStartTask.rt,blankScreen.started,blankScreen.stopped,fixcross.started,image.started,roi.started,gazeCursor.started,portImage.started,portImage.stopped,score,outcome,roi.numLooks,roi.timesOn,roi.timesOff,imageFeedback.started,gazeCursor_Feedback.started,soundFeedback.started,portShock1.started,portShock1.stopped,portShock2.started,portShock2.stopped,portShock3.started,portShock3.stopped,soundFeedback.stopped,fixcrossE.started,fixcrossE.stopped,textRepeatTask.started,textboxRepeatInstruction.started,textRepeatSpace.started,spaceRepeatTask.started,spaceRepeatTask.keys,spaceRepeatTask.rt,textRate.started,text_noPain.started,text_slightPain.started,text_highPain.started,sliderPain.started,textSpacePain.started,spacePain.started,sliderPain.response,sliderPain.rt,spacePain.keys,spacePain.rt,textTestInstr.started,spaceTestInstr.started,spaceTestInstr.keys,spaceTestInstr.rt,imageTest.started,roiTest.started,portTestImage.started,portTestImage.stopped,roiTest.numLooks,roiTest.timesOn,roiTest.timesOff,participant,group,date,expName,psychopyVersion,frameRate,
,,,,,,,,,,,,,,,,,,,,,,,,,,,,,,,,,,,,,,,,,15.274335599999176,15.274335599999176,space,2.6342218999998295,,,,,,,,,,,,,,,,,,,,,,,,,,,,,,,,,,,,,,,,,,,,,,,,,,,,,,,,,,,,,,,,,,,,,,,,,,,,,,,,,,,,,,,,,,,,,,,7,B,2023-12-07_13h31.45.691,gca_avoidance_task,2022.2.4,144.04634835045738,
,,,,,,,,,,,,,,,,,,,,,,,,,,,,,,,,,,,,,,,,,,,,,17.920025100000203,17.920025100000203,space,2.4217836999960127,,,,,,,,,,,,,,,,,,,,,,,,,,,,,,,,,,,,,,,,,,,,,,,,,,,,,,,,,,,,,,,,,,,,,,,,,,,,,,,,,,,,,,,,,,,7,B,2023-12-07_13h31.45.691,gca_avoidance_task,2022.2.4,144.04634835045738,
,,,,,,,,,0,0,0,0,,,,,,,,,,,,,,,,,,,,,,,,,,,,,,,,,,,,,21.392152600001282,21.392152600001282,21.392152600001282,21.392152600001282,21.392152600001282,21.392152600001282,None,None,s,4.572672999998758,26.572485600001528,0.10277889999997569,0.10971250000147847,0.15135459999874,0.1582931999982975,0.1999150000010559,0.20689330000095651,27.336334200001147,,,,,,,,,,,,,,,,,,,,,,,,,,,,,,,,,,,,,,,,,,,,,,,,,,,,,,,,,,,,,,,,,,,,,,,,,7,B,2023-12-07_13h31.45.691,gca_avoidance_task,2022.2.4,144.04634835045738,
,,,,,,,,,1,0,1,0,,,,,,,,,,,,,,,,,,,,,,,,,,,,,,,,,,,,,27.336334200001147,27.336334200001147,27.336334200001147,27.336334200001147,27.336334200001147,27.336334200001147,1.0,7.172410099999979,s,16.100220399996033,44.07177869999941,0.10319880000315607,0.11014600000271457,0.15181120000124793,0.1588052000006428,0.2004313000034017,0.20739420000245445,44.8217450000011,,,,,,,,,,,,,,,,,,,,,,,,,,,,,,,,,,,,,,,,,,,,,,,,,,,,,,,,,,,,,,,,,,,,,,,,,7,B,2023-12-07_13h31.45.691,gca_avoidance_task,2022.2.4,144.04634835045738,
,,,,,,,,,2,0,2,0,,,,,,,,,,,,,,,,,,,,,,,,,,,,,,,,,,,,,44.8217450000011,44.8217450000011,44.8217450000011,44.8217450000011,44.8217450000011,44.8217450000011,1.0,4.494965400001092,s,8.919720199999574,54.25193769999896,0.10092589999840129,0.10787530000015977,0.14954299999953946,0.15652459999910207,0.20508300000074087,0.21200519999911194,55.008835100001306,,,,,,,,,,,,,,,,,,,,,,,,,,,,,,,,,,,,,,,,,,,,,,,,,,,,,,,,,,,,,,,,,,,,,,,,,7,B,2023-12-07_13h31.45.691,gca_avoidance_task,2022.2.4,144.04634835045738,
,,,,,,,,,3,0,3,0,,,,,,,,,,,,,,,,,,,,,,,,,,,,,,,,,,,,,55.008835100001306,55.008835100001306,55.008835100001306,55.008835100001306,55.008835100001306,55.008835100001306,2.0,1.1495198999982676,s,4.715684999999212,60.244749699999375,0.10072220000074594,0.10765410000021802,0.1493144999985816,0.15626909999991767,0.20487140000113868,0.2118430000009539,61.00859480000145,,,,,,,,,,,,,,,,,,,,,,,,,,,,,,,,,,,,,,,,,,,,,,,,,,,,,,,,,,,,,,,,,,,,,,,,,7,B,2023-12-07_13h31.45.691,gca_avoidance_task,2022.2.4,144.04634835045738,
,,,,,,,,,4,0,4,0,,,,,,,,,,,,,,,,,,,,,,,,,,,,,,,,,,,,,61.00859480000145,61.00859480000145,61.00859480000145,61.00859480000145,61.00859480000145,61.00859480000145,3.0,1.8334429999995336,s,7.541155899998557,69.07772929999919,0.1057083000014245,0.11269470000115689,0.1542948999995133,0.1612685000000056,0.20293949999904726,0.2098855000003823,,,,,,,,,,,,,,,,,,,,,,,,,,,,,,,,,,,,,,,,,,,,,,,,,,,,,,,,,,,,,,,,,,,,,,,,,,7,B,2023-12-07_13h31.45.691,gca_avoidance_task,2022.2.4,144.04634835045738,
,,,,,,,,,5,0,5,0,,,,,,,,,,,,,,,,,,,,,,,,,,,,,,,,,,,,,69.8624047000012,69.8624047000012,69.8624047000012,69.8624047000012,69.8624047000012,69.8624047000012,3.0,1.3800995999990846,s,7.551056799995422,77.92458930000066,0.09925990000192542,0.1062119000016537,0.15487380000195117,0.16182110000227112,0.20343440000215196,0.21042769999985467,78.68152779999946,,,,,,,,,,,,,,,,,,,,,,,,,,,,,,,,,,,,,,,,,,,,,,,,,,,,,,,,,,,,,,,,,,,,,,,,,7,B,2023-12-07_13h31.45.691,gca_avoidance_task,2022.2.4,144.04634835045738,
,,,,,,,,,6,0,6,0,,,,,,,,,,,,,,,,,,,,,,,,,,,,,,,,,,,,,78.68152779999946,78.68152779999946,78.68152779999946,78.68152779999946,78.68152779999946,78.68152779999946,4.0,1.6967927999976382,s,7.939158899996983,87.13253260000056,0.10005240000100457,0.10703980000107549,0.15555610000228626,0.16251249999913853,0.20417290000114008,0.21115149999968708,87.95886780000001,,,,,,,,,,,,,,,,,,,,,,,,,,,,,,,,,,,,,,,,,,,,,,,,,,,,,,,,,,,,,,,,,,,,,,,,,7,B,2023-12-07_13h31.45.691,gca_avoidance_task,2022.2.4,144.04634835045738,
,,,,,,,,,7,0,7,0,,,,,,,,,,,,,,,,,,,,,,,,,,,,,,,,,,,,,87.95886780000001,87.95886780000001,87.95886780000001,87.95886780000001,87.95886780000001,87.95886780000001,4.0,4.913339499998983,s,7.806995200000529,96.28493190000154,0.1052358999986609,0.11220630000025267,0.15381609999894863,0.16080460000011954,0.2024000999990676,0.20939039999939268,,,,,,,,,,,,,,,,,,,,,,,,,,,,,,,,,,,,,,,,,,,,,,,,,,,,,,,,,,,,,,,,,,,,,,,,,,7,B,2023-12-07_13h31.45.691,gca_avoidance_task,2022.2.4,144.04634835045738,
,,,,,,,,,8,0,8,0,,,,,,,,,,,,,,,,,,,,,,,,,,,,,,,,,,,,,97.0418748000011,97.0418748000011,97.0418748000011,97.0418748000011,97.0418748000011,97.0418748000011,5.0,2.0076800000024377,s,7.755932799998845,105.31241190000219,0.09918820000166306,0.10621420000097714,0.15476150000176858,0.16172899999946821,0.20340130000113277,0.21035119999942253,106.07619550000163,,,,,,,,,,,,,,,,,,,,,,,,,,,,,,,,,,,,,,,,,,,,,,,,,,,,,,,,,,,,,,,,,,,,,,,,,7,B,2023-12-07_13h31.45.691,gca_avoidance_task,2022.2.4,144.04634835045738,
,,,,,,,,,9,0,9,0,,,,,,,,,,,,,,,,,,,,,,,,,,,,,,,,,,,,,106.07619550000163,106.07619550000163,106.07619550000163,106.07619550000163,106.07619550000163,106.07619550000163,6.0,2.8701202999982343,s,8.200813099996594,114.77726990000156,0.09985290000258829,0.1068014000011317,0.1554400999993959,0.16235869999945862,0.2040703000020585,0.2110114999995858,115.5341640000006,,,,,,,,,,,,,,,,,,,,,,,,,,,,,,,,,,,,,,,,,,,,,,,,,,,,,,,,,,,,,,,,,,,,,,,,,7,B,2023-12-07_13h31.45.691,gca_avoidance_task,2022.2.4,144.04634835045738,
,,,,,,,,,10,0,10,0,,,,,,,,,,,,,,,,,,,,,,,,,,,,,,,,,,,,,115.5341640000006,115.5341640000006,115.5341640000006,115.5341640000006,115.5341640000006,115.5341640000006,7.0,2.7597691000009945,s,7.4229707999984385,123.47830439999962,0.10576600000058534,0.11275069999828702,0.15437979999842355,0.1613426999974763,0.20303559999956633,0.2099653999975999,,,,,,,,,,,,,,,,,,,,,,,,,,,,,,,,,,,,,,,,,,,,,,,,,,,,,,,,,,,,,,,,,,,,,,,,,,7,B,2023-12-07_13h31.45.691,gca_avoidance_task,2022.2.4,144.04634835045738,
,,,,,,,,,11,0,11,0,,,,,,,,,,,,,,,,,,,,,,,,,,,,,,,,,,,,,124.24217860000135,124.24217860000135,124.24217860000135,124.24217860000135,124.24217860000135,124.24217860000135,6.0,1.722516400001041,s,5.563318900000013,130.31830550000086,0.10588629999983823,0.11282990000108839,0.15445460000046296,0.16140459999951418,0.2030674999987241,0.21002890000090702,131.0752063,,,,,,,,,,,,,,,,,,,,,,,,,,,,,,,,,,,,,,,,,,,,,,,,,,,,,,,,,,,,,,,,,,,,,,,,,7,B,2023-12-07_13h31.45.691,gca_avoidance_task,2022.2.4,144.04634835045738,
,,,,,,,,,12,0,12,0,,,,,,,,,,,,,,,,,,,,,,,,,,,,,,,,,,,,,131.0752063,131.0752063,131.0752063,131.0752063,131.0752063,131.0752063,5.0,4.9219983000002685,s,8.154609499997605,139.74844569999914,0.09996759999921778,0.10690319999775966,0.1555348999972921,0.1625209999983781,0.20412569999825791,0.21109699999942677,140.567883300002,,,,,,,,,,,,,,,,,,,,,,,,,,,,,,,,,,,,,,,,,,,,,,,,,,,,,,,,,,,,,,,,,,,,,,,,,7,B,2023-12-07_13h31.45.691,gca_avoidance_task,2022.2.4,144.04634835045738,
,,,,,,,,,13,0,13,0,,,,,,,,,,,,,,,,,,,,,,,,,,,,,,,,,,,,,140.567883300002,140.567883300002,140.567883300002,140.567883300002,140.567883300002,140.567883300002,6.0,1.1476677000027848,s,4.460956499995518,145.63716380000187,0.10549840000021504,0.11243640000247979,0.15408450000177254,0.1610413000016706,0.20272150000164402,0.20970230000239098,,,,,,,,,,,,,,,,,,,,,,,,,,,,,,,,,,,,,,,,,,,,,,,,,,,,,,,,,,,,,,,,,,,,,,,,,,7,B,2023-12-07_13h31.45.691,gca_avoidance_task,2022.2.4,144.04634835045738,
,,,,,,,,,14,0,14,0,,,,,,,,,,,,,,,,,,,,,,,,,,,,,,,,,,,,,146.4010530000014,146.4010530000014,146.4010530000014,146.4010530000014,146.4010530000014,146.4010530000014,7.0,1.0038610000010522,s,4.71681819999867,151.6855284000012,0.0996926000007079,0.10669659999985015,0.15525030000208062,0.16224270000020624,0.20389060000161408,0.21087350000016158,152.44938130000082,,,,,,,,,,,,,,,,,,,,,,,,,,,,,,,,,,,,,,,,,,,,,,,,,,,,,,,,,,,,,,,,,,,,,,,,,7,B,2023-12-07_13h31.45.691,gca_avoidance_task,2022.2.4,144.04634835045738,
,,,,,,,,,15,0,15,0,,,,,,,,,,,,,,,,,,,,,,,,,,,,,,,,,,,,,152.44938130000082,152.44938130000082,152.44938130000082,152.44938130000082,152.44938130000082,152.44938130000082,7.0,3.049753999999666,s,7.219147999996494,160.18514829999913,0.10342509999827598,0.11035780000020168,0.15200800000093295,0.1590226000007533,0.20062419999885606,0.20759389999875566,160.9490087000013,,,,,,,,,,,,,,,,,,,,,,,,,,,,,,,,,,,,,,,,,,,,,,,,,,,,,,,,,,,,,,,,,,,,,,,,,7,B,2023-12-07_13h31.45.691,gca_avoidance_task,2022.2.4,144.04634835045738,
,,,,,,,,,16,0,16,0,,,,,,,,,,,,,,,,,,,,,,,,,,,,,,,,,,,,,160.9490087000013,160.9490087000013,160.9490087000013,160.9490087000013,160.9490087000013,160.9490087000013,7.0,1.049622400001681,s,4.799987099995633,166.27518490000148,0.10460629999943194,0.11157159999856958,0.15316950000124052,0.1602019999991171,0.20179669999924954,0.20876819999830332,,,,,,,,,,,,,,,,,,,,,,,,,,,,,,,,,,,,,,,,,,,,,,,,,,,,,,,,,,,,,,,,,,,,,,,,,,7,B,2023-12-07_13h31.45.691,gca_avoidance_task,2022.2.4,144.04634835045738,
,,,,,,,,,17,0,17,0,,,,,,,,,,,,,,,,,,,,,,,,,,,,,,,,,,,,,167.1570783999996,167.1570783999996,167.1570783999996,167.1570783999996,167.1570783999996,167.1570783999996,5.0,3.385207300001639,s,10.503842499998427,178.17748009999923,0.10030679999908898,0.10722199999872828,0.15585119999741437,0.16278659999807132,0.20443639999939478,0.21136789999945904,178.92746690000058,,,,,,,,,,,,,,,,,,,,,,,,,,,,,,,,,,,,,,,,,,,,,,,,,,,,,,,,,,,,,,,,,,,,,,,,,7,B,2023-12-07_13h31.45.691,gca_avoidance_task,2022.2.4,144.04634835045738,
,,,,,,,,,18,0,18,0,,,,,,,,,,,,,,,,,,,,,,,,,,,,,,,,,,,,,178.92746690000058,178.92746690000058,178.92746690000058,178.92746690000058,178.92746690000058,178.92746690000058,5.0,2.001729100000375,s,6.381715499996062,185.82996529999946,0.10481499999877997,0.1117618999996921,0.1534350000001723,0.1603618999979517,0.20201409999936004,0.208971100000781,,,,,,,,,,,,,,,,,,,,,,,,,,,,,,,,,,,,,,,,,,,,,,,,,,,,,,,,,,,,,,,,,,,,,,,,,,7,B,2023-12-07_13h31.45.691,gca_avoidance_task,2022.2.4,144.04634835045738,
,,,,,,,,,19,0,19,0,,,,,,,,,,,,,,,,,,,,,,,,,,,,,,,,,,,,,186.59382489999916,186.59382489999916,186.59382489999916,186.59382489999916,186.59382489999916,186.59382489999916,6.0,1.1267165999997815,s,6.651788099996338,193.76018699999986,0.10256490000028862,0.10953990000052727,0.15120699999897624,0.15813889999844832,0.199818500001129,0.2067466999978933,194.5171173000017,,,,,,,,,,,,,,,,,,,,,,,,,,,,,,,,,,,,,,,,,,,,,,,,,,,,,,,,,,,,,,,,,,,,,,,,,7,B,2023-12-07_13h31.45.691,gca_avoidance_task,2022.2.4,144.04634835045738,
,,,,,,,,,20,0,20,0,,,,,,,,,,,,,,,,,,,,,,,,,,,,,,,,,,,,,194.5171173000017,194.5171173000017,194.5171173000017,194.5171173000017,194.5171173000017,194.5171173000017,7.0,0.9972354999990785,s,4.551502399997844,199.5863645999998,0.10101099999883445,0.10793950000152108,0.14959860000089975,0.15652269999918644,0.20513449999998556,0.2120783999998821,200.4405383000012,,,,,,,,,,,,,,,,,,,,,,,,,,,,,,,,,,,,,,,,,,,,,,,,,,,,,,,,,,,,,,,,,,,,,,,,,7,B,2023-12-07_13h31.45.691,gca_avoidance_task,2022.2.4,144.04634835045738,
,,,,,,,,,21,0,21,0,,,,,,,,,,,,,,,,,,,,,,,,,,,,,,,,,,,,,200.4405383000012,200.4405383000012,200.4405383000012,200.4405383000012,200.4405383000012,200.4405383000012,7.0,1.7608905999986746,s,7.669303599996056,208.61376369999925,0.09983809999903315,0.10675309999714955,0.15537679999761167,0.16235469999810448,0.20397070000035455,0.21091399999932037,209.47485529999904,,,,,,,,,,,,,,,,,,,,,,,,,,,,,,,,,,,,,,,,,,,,,,,,,,,,,,,,,,,,,,,,,,,,,,,,,7,B,2023-12-07_13h31.45.691,gca_avoidance_task,2022.2.4,144.04634835045738,
,,,,,,,,,22,0,22,0,,,,,,,,,,,,,,,,,,,,,,,,,,,,,,,,,,,,,209.47485529999904,209.47485529999904,209.47485529999904,209.47485529999904,209.47485529999904,209.47485529999904,7.0,2.0130632000000332,s,6.137917999996716,216.1204297000004,0.10560050000276533,0.11256980000325711,0.1541726000032213,0.16115110000100685,0.2028003000013996,0.20974390000264975,,,,,,,,,,,,,,,,,,,,,,,,,,,,,,,,,,,,,,,,,,,,,,,,,,,,,,,,,,,,,,,,,,,,,,,,,,7,B,2023-12-07_13h31.45.691,gca_avoidance_task,2022.2.4,144.04634835045738,
,,,,,,,,,23,0,23,0,,,,,,,,,,,,,,,,,,,,,,,,,,,,,,,,,,,,,216.8842919000017,216.8842919000017,216.8842919000017,216.8842919000017,216.8842919000017,216.8842919000017,6.0,0.910797000000457,s,8.480480099999113,225.96029350000026,0.10061689999929513,0.10758390000046347,0.1492233999997552,0.15616180000142776,0.20480660000248463,0.21172830000068643,226.73108739999952,,,,,,,,,,,,,,,,,,,,,,,,,,,,,,,,,,,,,,,,,,,,,,,,,,,,,,,,,,,,,,,,,,,,,,,,,7,B,2023-12-07_13h31.45.691,gca_avoidance_task,2022.2.4,144.04634835045738,
,,,,,,,,,24,0,24,0,,,,,,,,,,,,,,,,,,,,,,,,,,,,,,,,,,,,,226.73108739999952,226.73108739999952,226.73108739999952,226.73108739999952,226.73108739999952,226.73108739999952,5.0,0.6535975999977381,g,33.826324799996655,261.06998509999903,,,,,,,,,,,,,,,,,,,,,,,,,,,,,,,,,,,,,,,,,,,,,,,,,,,,,,,,,,,,,,,,,,,,,,,,,,,,,,,,7,B,2023-12-07_13h31.45.691,gca_avoidance_task,2022.2.4,144.04634835045738,
,,,,,,,,,,,,,,,,,,,,,,,,,,,,,,,,,,,,,,,,,,,,,,,,,,,,,,,,,,,,,,,,,,,261.06998509999903,261.06998509999903,space,4.462680899996485,,,,,,,,,,,,,,,,,,,,,,,,,,,,,,,,,,,,,,,,,,,,,,,,,,,,,,,,,,,,,,,,,,,,,7,B,2023-12-07_13h31.45.691,gca_avoidance_task,2022.2.4,144.04634835045738,
positions.xlsx,stimuli.xlsx,stimuli/Social2.png,stimuli/Social1.png,stimuli/Nonsocial1.png,stimuli/Nonsocial2.png,cs_plus_ns,,,,,,,0,0,0,0,0,0,0,1,,,,,,,,,,,,,,,,,,,,,,,,,,,,,,,,,,,,,,,,,,,,,,,,,,,391.32224829999905,391.32224829999905,space,49.562651899996126,440.93777129999944,440.93777129999944,451.7984494000011,6.0,11.613623299999745,space,3.2636169999968843,,,,,,,,,,,,,,,,,,,,,,,,,,,,,,,,,,,,,,,,,,,,,,,,,,,,,,,,,,7,B,2023-12-07_13h31.45.691,gca_avoidance_task,2022.2.4,144.04634835045738,
positions.xlsx,stimuli.xlsx,stimuli/Social2.png,stimuli/Social1.png,stimuli/Nonsocial1.png,stimuli/Nonsocial2.png,cs_minus_s,,,,,,,0,0,0,0,0,1,1,2,,,,,,,,,,,,,,,,,,,,,,,,,,,,,,,,,,,,,,,,,,,,,,,,,,,,,,,455.0969640000003,455.0969640000003,460.2633855000022,4.0,5.1485068000001775,space,1.0936810999992304,,,,,,,,,,,,,,,,,,,,,,,,,,,,,,,,,,,,,,,,,,,,,,,,,,,,,,,,,,7,B,2023-12-07_13h31.45.691,gca_avoidance_task,2022.2.4,144.04634835045738,
positions.xlsx,stimuli.xlsx,stimuli/Social2.png,stimuli/Social1.png,stimuli/Nonsocial1.png,stimuli/Nonsocial2.png,cs_minus_ns,,,,,,,0,0,0,0,0,2,2,3,,,,,,,,,,,,,,,,,,,,,,,,,,,,,,,,,,,,,,,,,,,,,,,,,,,,,,,461.38832940000066,461.38832940000066,464.4576667000001,7.0,3.0582595000014408,space,1.468423199999961,,,,,,,,,,,,,,,,,,,,,,,,,,,,,,,,,,,,,,,,,,,,,,,,,,,,,,,,,,7,B,2023-12-07_13h31.45.691,gca_avoidance_task,2022.2.4,144.04634835045738,
positions.xlsx,stimuli.xlsx,stimuli/Social2.png,stimuli/Social1.png,stimuli/Nonsocial1.png,stimuli/Nonsocial2.png,cs_plus_s,,,,,,,0,0,0,0,0,3,3,0,,,,,,,,,,,,,,,,,,,,,,,,,,,,,,,,,,,,,,,,,,,,,,,,,,,,,,,465.964544800001,465.964544800001,468.9713523999999,5.0,2.9965894000015396,space,6.1853866999954334,,,,,,,,,,,,,,,,,,,,,,,,,,,,,,,,,,,,,,,,,,,,,,,,,,,,,,,,,,7,B,2023-12-07_13h31.45.691,gca_avoidance_task,2022.2.4,144.04634835045738,
positions.xlsx,stimuli.xlsx,stimuli/Social2.png,stimuli/Social1.png,stimuli/Nonsocial1.png,stimuli/Nonsocial2.png,,"(-0.7, -0.5)",cs_minus_ns,,,,,0,0,0,0,,,,,0,0,0,13,,,,,,,,,,,,,,,,,,,,,,,,,,,,,,,,,,,,,,,,,,,,,,,,,,,,,,,,,,475.1655346000007,475.1655346000007,space,29.74334699999963,507.4559064999994,509.42805840000074,506.95597270000144,509.42805840000074,509.42805840000074,509.42805840000074,0.015875699999014614,0.02745610000056331,5,reward,1,[0.2159228999989864],[0.22270109999954002],509.65724709999995,509.65724709999995,0.021462200002133613,0.021462200002133613,0.032550399999308866,0.053374800001620315,0.060296999999991385,0.1018690000018978,0.10886519999985467,1.0185630000014498,513.1363311999994,517.3375110000015,,,,,,,,,,,,,,,,,,,,,,,,,,,,,7,B,2023-12-07_13h31.45.691,gca_avoidance_task,2022.2.4,144.04634835045738,
positions.xlsx,stimuli.xlsx,stimuli/Social2.png,stimuli/Social1.png,stimuli/Nonsocial1.png,stimuli/Nonsocial2.png,,"(0.7, -0.5)",cs_plus_ns,,,,,0,0,0,0,,,,,0,1,1,11,,,,,,,,,,,,,,,,,,,,,,,,,,,,,,,,,,,,,,,,,,,,,,,,,,,,,,,,,,,,,,517.8444294000001,519.0596160999994,517.3375110000015,519.0596160999994,519.0596160999994,519.0596160999994,0.007234800003061537,0.013100800002575852,5,shock,1,[0.20849450000241632],[0.2084991000010632],519.2818485999996,519.2818485999996,0.010762699999759207,0.010762699999759207,0.025136799999017967,0.05284100000062608,0.059781500000099186,0.1014842000004137,0.10837410000021919,1.0042038999999932,522.7678102999998,527.1912742000022,,,,,,,,,,,,,,,,,,,,,,,,,,,,,7,B,2023-12-07_13h31.45.691,gca_avoidance_task,2022.2.4,144.04634835045738,
positions.xlsx,stimuli.xlsx,stimuli/Social2.png,stimuli/Social1.png,stimuli/Nonsocial1.png,stimuli/Nonsocial2.png,,"(0.7, -0.5)",cs_plus_s,,,,,0,0,0,0,,,,,0,2,2,3,,,,,,,,,,,,,,,,,,,,,,,,,,,,,,,,,,,,,,,,,,,,,,,,,,,,,,,,,,,,,,527.6981741999989,529.3092008000021,527.1912742000022,529.3092008000021,529.3092008000021,529.3092008000021,0.006100700000388315,0.013046600000961917,5,shock,1,[0.1876139999985753],[0.18761870000162162],529.5036667000022,529.5036667000022,0.007479100000637118,0.007479100000637118,0.018236899999465095,0.05292469999767491,0.05985729999883915,0.10157790000084788,0.10847110000031535,1.004284300001018,532.9965422000023,536.7464527000011,,,,,,,,,,,,,,,,,,,,,,,,,,,,,7,B,2023-12-07_13h31.45.691,gca_avoidance_task,2022.2.4,144.04634835045738,
positions.xlsx,stimuli.xlsx,stimuli/Social2.png,stimuli/Social1.png,stimuli/Nonsocial1.png,stimuli/Nonsocial2.png,,"(-0.7, 0.5)",cs_minus_ns,,,,,0,0,0,0,,,,,0,3,3,12,,,,,,,,,,,,,,,,,,,,,,,,,,,,,,,,,,,,,,,,,,,,,,,,,,,,,,,,,,,,,,537.2533084000024,539.0032678000025,536.7464527000011,539.0032678000025,539.0032678000025,539.0032678000025,0.006363000000419561,0.01309160000164411,10,reward,1,[0.21533890000137035],[0.21534350000001723],539.2254947000001,539.2254947000001,0.007432900001731468,0.007432900001731468,0.018761800001811935,0.05339760000060778,0.06035840000185999,0.10206450000259792,0.10901039999953355,1.0047717000015837,542.7184697000012,546.2599971999989,,,,,,,,,,,,,,,,,,,,,,,,,,,,,7,B,2023-12-07_13h31.45.691,gca_avoidance_task,2022.2.4,144.04634835045738,
positions.xlsx,stimuli.xlsx,stimuli/Social2.png,stimuli/Social1.png,stimuli/Nonsocial1.png,stimuli/Nonsocial2.png,,"(-0.7, -0.5)",cs_plus_ns,,,,,0,0,0,0,,,,,0,4,4,9,,,,,,,,,,,,,,,,,,,,,,,,,,,,,,,,,,,,,,,,,,,,,,,,,,,,,,,,,,,,,,546.7668540000013,548.3918111999992,546.2599971999989,548.3918111999992,548.3918111999992,548.3918111999992,0.0068697999995492864,0.01298540000061621,10,shock,1,[0.19437390000166488],[0.2013440000009723],548.600129800001,548.600129800001,0.008693700001458637,0.008693700001458637,0.0182621999992989,0.052869499999360414,0.05985009999858448,0.10151300000143237,0.10844889999862062,1.004284300001018,552.0930728999992,556.2734823999999,,,,,,,,,,,,,,,,,,,,,,,,,,,,,7,B,2023-12-07_13h31.45.691,gca_avoidance_task,2022.2.4,144.04634835045738,
positions.xlsx,stimuli.xlsx,stimuli/Social2.png,stimuli/Social1.png,stimuli/Nonsocial1.png,stimuli/Nonsocial2.png,,"(0.7, 0.5)",cs_minus_s,,,,,0,0,0,0,,,,,0,5,5,6,,,,,,,,,,,,,,,,,,,,,,,,,,,,,,,,,,,,,,,,,,,,,,,,,,,,,,,,,,,,,,556.7803299000007,558.676054399999,556.2734823999999,558.676054399999,558.676054399999,558.676054399999,0.006891299999551848,0.013011099999857834,15,reward,1,[0.20166899999821908],[0.2016736999976274],558.8844102000003,558.8844102000003,0.007390400001895614,0.007390400001895614,0.01806869999927585,0.05275110000002314,0.05969800000093528,0.10141280000243569,0.10837929999979679,1.0041315000016766,562.3774133000006,566.8563252999993,,,,,,,,,,,,,,,,,,,,,,,,,,,,,7,B,2023-12-07_13h31.45.691,gca_avoidance_task,2022.2.4,144.04634835045738,
positions.xlsx,stimuli.xlsx,stimuli/Social2.png,stimuli/Social1.png,stimuli/Nonsocial1.png,stimuli/Nonsocial2.png,,"(0.7, -0.5)",cs_minus_s,,,,,0,0,0,0,,,,,0,6,6,7,,,,,,,,,,,,,,,,,,,,,,,,,,,,,,,,,,,,,,,,,,,,,,,,,,,,,,,,,,,,,,567.3632208000017,568.4187590000001,566.8563252999993,568.4187590000001,568.4187590000001,568.4187590000001,0.0067233000008855015,0.013509500000509433,20,reward,1,[0.34084530000109226],[0.34085010000126204],568.7659647,568.7659647,0.006874199996673269,0.006874199996673269,0.01828849999947124,0.05290949999834993,0.059863999998924555,0.10156069999720785,0.10851449999972829,1.0042338999992353,572.2589284000023,576.5643220999991,,,,,,,,,,,,,,,,,,,,,,,,,,,,,7,B,2023-12-07_13h31.45.691,gca_avoidance_task,2022.2.4,144.04634835045738,
positions.xlsx,stimuli.xlsx,stimuli/Social2.png,stimuli/Social1.png,stimuli/Nonsocial1.png,stimuli/Nonsocial2.png,,"(-0.7, -0.5)",cs_plus_s,,,,,0,0,0,0,,,,,0,7,7,1,,,,,,,,,,,,,,,,,,,,,,,,,,,,,,,,,,,,,,,,,,,,,,,,,,,,,,,,,,,,,,577.0712201999995,578.8974818999995,576.5643220999991,578.8974818999995,578.8974818999995,578.8974818999995,0.006241200000658864,0.013022200000705197,20,shock,1,[0.5484949999990931],[0.5484993999998551],579.4530310000009,579.4530310000009,0.00832079999963753,0.00832079999963753,0.01877789999707602,0.05344829999739886,0.06042969999907655,0.10206759999709902,0.10898709999673883,1.0048485999977856,582.9460042999999,587.0777662,,,,,,,,,,,,,,,,,,,,,,,,,,,,,7,B,2023-12-07_13h31.45.691,gca_avoidance_task,2022.2.4,144.04634835045738,
positions.xlsx,stimuli.xlsx,stimuli/Social2.png,stimuli/Social1.png,stimuli/Nonsocial1.png,stimuli/Nonsocial2.png,,"(-0.7, 0.5)",cs_plus_s,,,,,0,0,0,0,,,,,0,8,8,0,,,,,,,,,,,,,,,,,,,,,,,,,,,,,,,,,,,,,,,,,,,,,,,,,,,,,,,,,,,,,,587.584655900002,588.6610034000005,587.0777662,588.6610034000005,588.6610034000005,588.6610034000005,0.005973999999696389,0.01322480000089854,20,shock,1,[0.5558835000010731],[0.5558884000020043],589.2234529000016,589.2234529000016,0.007628100000147242,0.007628100000147242,0.01865380000162986,0.0533806999992521,0.06033240000033402,0.10201170000073034,0.10894929999994929,1.0046789000007266,592.7164104000003,596.6954413000021,,,,,,,,,,,,,,,,,,,,,,,,,,,,,7,B,2023-12-07_13h31.45.691,gca_avoidance_task,2022.2.4,144.04634835045738,
positions.xlsx,stimuli.xlsx,stimuli/Social2.png,stimuli/Social1.png,stimuli/Nonsocial1.png,stimuli/Nonsocial2.png,,"(0.7, 0.5)",cs_plus_s,,,,,0,0,0,0,,,,,0,9,9,2,,,,,,,,,,,,,,,,,,,,,,,,,,,,,,,,,,,,,,,,,,,,,,,,,,,,,,,,,,,,,,597.2023243000003,599.0425489000008,596.6954413000021,599.0425489000008,599.0425489000008,599.0425489000008,0.00657610000052955,0.013160700000298675,20,shock,1,[0.18079930000021704],[0.18080430000190972],599.2300343000024,599.2300343000024,0.007329600000957726,0.007329600000957726,0.018191399998613633,0.05286089999935939,0.0598281999991741,0.10148879999906057,0.10847110000031535,1.0041817999990599,602.7230020999996,606.299232100002,,,,,,,,,,,,,,,,,,,,,,,,,,,,,7,B,2023-12-07_13h31.45.691,gca_avoidance_task,2022.2.4,144.04634835045738,
positions.xlsx,stimuli.xlsx,stimuli/Social2.png,stimuli/Social1.png,stimuli/Nonsocial1.png,stimuli/Nonsocial2.png,,"(-0.7, -0.5)",cs_minus_s,,,,,0,0,0,0,,,,,0,10,10,5,,,,,,,,,,,,,,,,,,,,,,,,,,,,,,,,,,,,,,,,,,,,,,,,,,,,,,,,,,,,,,606.8061066000009,608.6115785000002,606.299232100002,608.6115785000002,608.6115785000002,608.6115785000002,0.0056191000003309455,0.013416300000244519,25,reward,1,[0.33400690000053146],[0.3407794999984617],608.9588074000021,608.9588074000021,0.007027100000414066,0.007027100000414066,0.018246300001919735,0.05294230000072275,0.059897400002228096,0.10150350000185426,0.10846290000336012,1.0042532000006759,612.4517214000007,616.5696604000004,,,,,,,,,,,,,,,,,,,,,,,,,,,,,7,B,2023-12-07_13h31.45.691,gca_avoidance_task,2022.2.4,144.04634835045738,
positions.xlsx,stimuli.xlsx,stimuli/Social2.png,stimuli/Social1.png,stimuli/Nonsocial1.png,stimuli/Nonsocial2.png,,"(-0.7, 0.5)",cs_plus_ns,,,,,0,0,0,0,,,,,0,11,11,8,,,,,,,,,,,,,,,,,,,,,,,,,,,,,,,,,,,,,,,,,,,,,,,,,,,,,,,,,,,,,,617.0765320999999,618.5625731,616.5696604000004,618.5625731,618.5625731,618.5625731,0.006851899997855071,0.013157800000044517,25,shock,1,[1.0904342999965593],[1.0904391999974905],619.6597570000013,619.6597570000013,0.008004600000276696,0.008004600000276696,0.018319399998290464,0.05302469999878667,0.0599311999976635,0.1015382999976282,0.1085319999983767,1.0042838999979722,623.1527338000014,627.1664254999996,,,,,,,,,,,,,,,,,,,,,,,,,,,,,7,B,2023-12-07_13h31.45.691,gca_avoidance_task,2022.2.4,144.04634835045738,
positions.xlsx,stimuli.xlsx,stimuli/Social2.png,stimuli/Social1.png,stimuli/Nonsocial1.png,stimuli/Nonsocial2.png,,"(0.7, 0.5)",cs_minus_ns,,,,,0,0,0,0,,,,,0,12,12,14,,,,,,,,,,,,,,,,,,,,,,,,,,,,,,,,,,,,,,,,,,,,,,,,,,,,,,,,,,,,,,627.6733323000008,628.9024338000017,627.1664254999996,628.9024338000017,628.9024338000017,628.9024338000017,0.006319599997368641,0.012994599997909972,30,reward,1,[0.8194100000000617],[0.8194144999979471],629.7288277000007,629.7288277000007,0.007232800002384465,0.007232800002384465,0.018794999999954598,0.053457000001799315,0.06039729999974952,0.10207760000048438,0.10904350000055274,1.0048506000021007,633.2217602000019,637.1938131000024,,,,,,,,,,,,,,,,,,,,,,,,,,,,,7,B,2023-12-07_13h31.45.691,gca_avoidance_task,2022.2.4,144.04634835045738,
positions.xlsx,stimuli.xlsx,stimuli/Social2.png,stimuli/Social1.png,stimuli/Nonsocial1.png,stimuli/Nonsocial2.png,,"(0.7, 0.5)",cs_plus_ns,,,,,0,0,0,0,,,,,0,13,13,10,,,,,,,,,,,,,,,,,,,,,,,,,,,,,,,,,,,,,,,,,,,,,,,,,,,,,,,,,,,,,,637.7007030000022,638.8464779999995,637.1938131000024,638.8464779999995,638.8464779999995,638.8464779999995,0.006910399999469519,0.013045200001215562,30,shock,1,[4.437397400000918],[4.4374027000012575],643.2907699999996,643.2907699999996,0.008439799999905517,0.008439799999905517,0.018256799998198403,0.05289229999834788,0.059924299999693176,0.1015726999976323,0.10845879999760655,1.0042783999997482,646.7836637,651.2001853000002,,,,,,,,,,,,,,,,,,,,,,,,,,,,,7,B,2023-12-07_13h31.45.691,gca_avoidance_task,2022.2.4,144.04634835045738,
positions.xlsx,stimuli.xlsx,stimuli/Social2.png,stimuli/Social1.png,stimuli/Nonsocial1.png,stimuli/Nonsocial2.png,,"(-0.7, 0.5)",cs_minus_s,,,,,0,0,0,0,,,,,0,14,14,4,,,,,,,,,,,,,,,,,,,,,,,,,,,,,,,,,,,,,,,,,,,,,,,,,,,,,,,,,,,,,,651.7071164000008,653.137569999999,651.2001853000002,653.137569999999,653.137569999999,653.137569999999,0.006723400001646951,0.013467799999489216,35,reward,1,[0.5422136000015598],[0.5422184000017296],653.686164499999,653.686164499999,0.008248600002843887,0.008248600002843887,0.01822370000081719,0.05291700000088895,0.05982650000078138,0.10150440000143135,0.10850740000023507,1.0042177000032098,657.1791085000004,661.0539833000003,,,,,,,,,,,,,,,,,,,,,,,,,,,,,7,B,2023-12-07_13h31.45.691,gca_avoidance_task,2022.2.4,144.04634835045738,
positions.xlsx,stimuli.xlsx,stimuli/Social2.png,stimuli/Social1.png,stimuli/Nonsocial1.png,stimuli/Nonsocial2.png,,"(0.7, -0.5)",cs_minus_ns,,,,,0,0,0,0,,,,,0,15,15,15,,,,,,,,,,,,,,,,,,,,,,,,,,,,,,,,,,,,,,,,,,,,,,,,,,,,,,,,,,,,,,661.5608587999996,662.9288650000017,661.0539833000003,662.9288650000017,662.9288650000017,662.9288650000017,0.007299399996554712,0.013093499997921754,40,reward,1,[0.8057124999977532],[0.8057174999994459],663.7412858000025,663.7412858000025,0.008380100000067614,0.008380100000067614,0.01801310000155354,0.052784400002565235,0.05975079999916488,0.1013401000018348,0.10830239999995683,1.004098100002011,667.2342795000004,670.963294600002,,,,,,,,,,,,,,,,,,,,,,,,,,,,,7,B,2023-12-07_13h31.45.691,gca_avoidance_task,2022.2.4,144.04634835045738,
positions.xlsx,stimuli.xlsx,stimuli/Social2.png,stimuli/Social1.png,stimuli/Nonsocial1.png,stimuli/Nonsocial2.png,,"(-0.7, -0.5)",cs_plus_ns,,,,,0,0,0,0,,,,,1,0,16,9,,,,,,,,,,,,,,,,,,,,,,,,,,,,,,,,,,,,,,,,,,,,,,,,,,,,,,,,,,,,,,671.4701674000025,672.5187559000005,670.963294600002,672.5187559000005,672.5187559000005,672.5187559000005,0.007462099998519989,0.0130460000000312,40,none,0,,,677.5324371999995,677.5324371999995,0.017567300001246622,0.017567300001246622,0.026776999999128748,0.05450299999938579,0.061439299999619834,0.1031126999987464,0.11006099999940488,1.0127642000006745,681.0184604999995,684.5808311000001,,,,,,,,,,,,,,,,,,,,,,,,,,,,,7,B,2023-12-07_13h31.45.691,gca_avoidance_task,2022.2.4,144.04634835045738,
positions.xlsx,stimuli.xlsx,stimuli/Social2.png,stimuli/Social1.png,stimuli/Nonsocial1.png,stimuli/Nonsocial2.png,,"(-0.7, -0.5)",cs_minus_s,,,,,0,0,0,0,,,,,1,1,17,5,,,,,,,,,,,,,,,,,,,,,,,,,,,,,,,,,,,,,,,,,,,,,,,,,,,,,,,,,,,,,,685.0876788999994,686.9417878999993,684.5808311000001,686.9417878999993,686.9417878999993,686.9417878999993,0.007012899997789646,0.013065799998003058,45,reward,1,[0.18079969999962486],[0.18080449999979464],687.1292681000014,687.1292681000014,0.007705699998041382,0.007705699998041382,0.018300200001249323,0.052961599998525344,0.059914800000115065,0.1016243999983999,0.10852639999939129,1.0043330999978934,690.6222409000002,694.2401348999992,,,,,,,,,,,,,,,,,,,,,,,,,,,,,7,B,2023-12-07_13h31.45.691,gca_avoidance_task,2022.2.4,144.04634835045738,
positions.xlsx,stimuli.xlsx,stimuli/Social2.png,stimuli/Social1.png,stimuli/Nonsocial1.png,stimuli/Nonsocial2.png,,"(-0.7, 0.5)",cs_plus_s,,,,,0,0,0,0,,,,,1,2,18,0,,,,,,,,,,,,,,,,,,,,,,,,,,,,,,,,,,,,,,,,,,,,,,,,,,,,,,,,,,,,,,694.7470136000011,696.6913765999998,694.2401348999992,696.6913765999998,696.6913765999998,696.6913765999998,0.006449699998483993,0.012960299998667324,45,shock,1,[0.19437449999895762],[0.19437900000048103],696.8927956000007,696.8927956000007,0.0076192000014998484,0.0076192000014998484,0.018146599999454338,0.05283190000045579,0.05981489999976475,0.1014376999992237,0.10841000000073109,1.0041700000001583,700.3857432000004,704.3994440000024,,,,,,,,,,,,,,,,,,,,,,,,,,,,,7,B,2023-12-07_13h31.45.691,gca_avoidance_task,2022.2.4,144.04634835045738,
positions.xlsx,stimuli.xlsx,stimuli/Social2.png,stimuli/Social1.png,stimuli/Nonsocial1.png,stimuli/Nonsocial2.png,,"(-0.7, -0.5)",cs_plus_s,,,,,0,0,0,0,,,,,1,3,19,1,,,,,,,,,,,,,,,,,,,,,,,,,,,,,,,,,,,,,,,,,,,,,,,,,,,,,,,,,,,,,,704.9063448000015,706.5520653999993,704.3994440000024,706.5520653999993,706.5520653999993,706.5520653999993,0.006451599998399615,0.01321779999852879,45,shock,1,[0.7779349999982514],[0.7779396000005363],707.3298940000022,707.3298940000022,0.007667600002605468,0.007667600002605468,0.011897000000317348,0.0535146000001987,0.060543400002643466,0.10214770000311546,0.1091078000026755,1.004838100001507,710.8297708999999,714.4823510000024,,,,,,,,,,,,,,,,,,,,,,,,,,,,,7,B,2023-12-07_13h31.45.691,gca_avoidance_task,2022.2.4,144.04634835045738,
positions.xlsx,stimuli.xlsx,stimuli/Social2.png,stimuli/Social1.png,stimuli/Nonsocial1.png,stimuli/Nonsocial2.png,,"(0.7, 0.5)",cs_plus_s,,,,,0,0,0,0,,,,,1,4,20,2,,,,,,,,,,,,,,,,,,,,,,,,,,,,,,,,,,,,,,,,,,,,,,,,,,,,,,,,,,,,,,714.9892710999993,716.7461618000016,714.4823510000024,716.7461618000016,716.7461618000016,716.7461618000016,0.005818300000100862,0.013393099998211255,45,none,0,,,721.7529025000003,721.7529025000003,0.013608799999929033,0.013608799999929033,0.020189399998344015,0.05486200000086683,0.06181039999864879,0.10345740000047954,0.11037199999918812,1.013098200000968,725.2458297000012,729.273456400002,,,,,,,,,,,,,,,,,,,,,,,,,,,,,7,B,2023-12-07_13h31.45.691,gca_avoidance_task,2022.2.4,144.04634835045738,
positions.xlsx,stimuli.xlsx,stimuli/Social2.png,stimuli/Social1.png,stimuli/Nonsocial1.png,stimuli/Nonsocial2.png,,"(0.7, 0.5)",cs_minus_ns,,,,,0,0,0,0,,,,,1,5,21,14,,,,,,,,,,,,,,,,,,,,,,,,,,,,,,,,,,,,,,,,,,,,,,,,,,,,,,,,,,,,,,729.7803304000008,731.7247185000015,729.273456400002,731.7247185000015,731.7247185000015,731.7247185000015,0.0066047999971488025,0.013052299997070804,50,reward,1,[0.5763469999983499],[0.5763515999969968],732.3080241000025,732.3080241000025,0.008734900002309587,0.008734900002309587,0.018640700000105426,0.05329300000084913,0.060296900002867915,0.10196990000258666,0.10889760000281967,1.0046833000014885,735.8009411999992,739.9813136000012,,,,,,,,,,,,,,,,,,,,,,,,,,,,,7,B,2023-12-07_13h31.45.691,gca_avoidance_task,2022.2.4,144.04634835045738,
positions.xlsx,stimuli.xlsx,stimuli/Social2.png,stimuli/Social1.png,stimuli/Nonsocial1.png,stimuli/Nonsocial2.png,,"(0.7, -0.5)",cs_plus_s,,,,,0,0,0,0,,,,,1,6,22,3,,,,,,,,,,,,,,,,,,,,,,,,,,,,,,,,,,,,,,,,,,,,,,,,,,,,,,,,,,,,,,740.4882350000007,741.925679,739.9813136000012,741.925679,741.925679,741.925679,0.0065891999984160066,0.013084199999866541,50,shock,1,[1.125098499996966],[1.1251030999992508],743.0575745999995,743.0575745999995,0.0073125999988405965,0.0073125999988405965,0.018785999996907776,0.05346519999875454,0.06048439999722177,0.10213440000006813,0.1090669999975944,1.004805499997019,746.5505286000007,750.5989984000007,,,,,,,,,,,,,,,,,,,,,,,,,,,,,7,B,2023-12-07_13h31.45.691,gca_avoidance_task,2022.2.4,144.04634835045738,
positions.xlsx,stimuli.xlsx,stimuli/Social2.png,stimuli/Social1.png,stimuli/Nonsocial1.png,stimuli/Nonsocial2.png,,"(-0.7, -0.5)",cs_minus_ns,,,,,0,0,0,0,,,,,1,7,23,13,,,,,,,,,,,,,,,,,,,,,,,,,,,,,,,,,,,,,,,,,,,,,,,,,,,,,,,,,,,,,,751.1058818999991,752.2169611999998,750.5989984000007,752.2169611999998,752.2169611999998,752.2169611999998,0.006976900000154274,0.013461599999573082,55,reward,1,[0.6878426000002946],[0.6878475000012259],752.9113699000009,752.9113699000009,0.008895400002074894,0.008895400002074894,0.018667899999854853,0.05332930000076885,0.060316500002954854,0.10193950000029872,0.10892720000265399,1.004692900001828,756.4042974000004,760.5985574000006,,,,,,,,,,,,,,,,,,,,,,,,,,,,,7,B,2023-12-07_13h31.45.691,gca_avoidance_task,2022.2.4,144.04634835045738,
positions.xlsx,stimuli.xlsx,stimuli/Social2.png,stimuli/Social1.png,stimuli/Nonsocial1.png,stimuli/Nonsocial2.png,,"(-0.7, 0.5)",cs_minus_ns,,,,,0,0,0,0,,,,,1,8,24,12,,,,,,,,,,,,,,,,,,,,,,,,,,,,,,,,,,,,,,,,,,,,,,,,,,,,,,,,,,,,,,761.105449900002,763.0012184000007,760.5985574000006,763.0012184000007,763.0012184000007,763.0012184000007,0.007553100000222912,0.013346100000489969,60,reward,1,[0.5905918999997084],[0.5905964999983553],763.5984628000006,763.5984628000006,0.008399599999393104,0.008399599999393104,0.01832540000032168,0.052956799998355564,0.05986719999782508,0.10155389999999898,0.10848469999837107,1.0042589000004227,767.0913904000008,770.7856425999998,,,,,,,,,,,,,,,,,,,,,,,,,,,,,7,B,2023-12-07_13h31.45.691,gca_avoidance_task,2022.2.4,144.04634835045738,
positions.xlsx,stimuli.xlsx,stimuli/Social2.png,stimuli/Social1.png,stimuli/Nonsocial1.png,stimuli/Nonsocial2.png,,"(0.7, -0.5)",cs_minus_ns,,,,,0,0,0,0,,,,,1,9,25,15,,,,,,,,,,,,,,,,,,,,,,,,,,,,,,,,,,,,,,,,,,,,,,,,,,,,,,,,,,,,,,771.2926157000002,773.0008388999995,770.7856425999998,773.0008388999995,773.0008388999995,773.0008388999995,0.007811399998900015,0.013428800000838237,65,reward,1,[0.6185186000002432],[0.6185232999996515],773.6258290000005,773.6258290000005,0.007562299997516675,0.007562299997516675,0.018323899999813875,0.05304169999726582,0.060054800000216346,0.10159909999856609,0.10857219999888912,1.0043240999984846,777.1187748000011,781.0283275000002,,,,,,,,,,,,,,,,,,,,,,,,,,,,,7,B,2023-12-07_13h31.45.691,gca_avoidance_task,2022.2.4,144.04634835045738,
positions.xlsx,stimuli.xlsx,stimuli/Social2.png,stimuli/Social1.png,stimuli/Nonsocial1.png,stimuli/Nonsocial2.png,,"(0.7, 0.5)",cs_minus_s,,,,,0,0,0,0,,,,,1,10,26,6,,,,,,,,,,,,,,,,,,,,,,,,,,,,,,,,,,,,,,,,,,,,,,,,,,,,,,,,,,,,,,781.5352113000008,783.2434917999999,781.0283275000002,783.2434917999999,783.2434917999999,783.2434917999999,0.006704600000375649,0.012994299999263603,70,reward,1,[0.6736180999978387],[0.6736228999980085],783.9240322000005,783.9240322000005,0.008055199999944307,0.008055199999944307,0.018466199999238597,0.053142799999477575,0.06010539999988396,0.10173940000095172,0.10869539999839617,1.0044778999981645,787.4169235000008,791.0418132000013,,,,,,,,,,,,,,,,,,,,,,,,,,,,,7,B,2023-12-07_13h31.45.691,gca_avoidance_task,2022.2.4,144.04634835045738,
positions.xlsx,stimuli.xlsx,stimuli/Social2.png,stimuli/Social1.png,stimuli/Nonsocial1.png,stimuli/Nonsocial2.png,,"(-0.7, 0.5)",cs_minus_s,,,,,0,0,0,0,,,,,1,11,27,4,,,,,,,,,,,,,,,,,,,,,,,,,,,,,,,,,,,,,,,,,,,,,,,,,,,,,,,,,,,,,,791.5486968000005,792.9514362000009,791.0418132000013,792.9514362000009,792.9514362000009,792.9514362000009,0.006910799998877337,0.012981299998500617,75,reward,1,[0.6249379000000772],[0.624942700000247],793.5833655999995,793.5833655999995,0.007431599999108585,0.007431599999108585,0.018403799997031456,0.05311049999727402,0.060074400000303285,0.10173679999934393,0.1086883999996644,1.004401099999086,797.1179298000025,800.6317118000006,,,,,,,,,,,,,,,,,,,,,,,,,,,,,7,B,2023-12-07_13h31.45.691,gca_avoidance_task,2022.2.4,144.04634835045738,
positions.xlsx,stimuli.xlsx,stimuli/Social2.png,stimuli/Social1.png,stimuli/Nonsocial1.png,stimuli/Nonsocial2.png,,"(-0.7, 0.5)",cs_plus_ns,,,,,0,0,0,0,,,,,1,12,28,8,,,,,,,,,,,,,,,,,,,,,,,,,,,,,,,,,,,,,,,,,,,,,,,,,,,,,,,,,,,,,,801.1386037000011,803.0413044000015,800.6317118000006,803.0413044000015,803.0413044000015,803.0413044000015,0.007630000000062864,0.01313529999970342,75,none,0,,,808.0550078000015,808.0550078000015,0.015261699998518452,0.015261699998518452,0.026862599999731174,0.05460479999965173,0.06154919999971753,0.10315940000145929,0.11016649999874062,1.0129111999995075,811.5410209000001,815.7144913000011,,,,,,,,,,,,,,,,,,,,,,,,,,,,,7,B,2023-12-07_13h31.45.691,gca_avoidance_task,2022.2.4,144.04634835045738,
positions.xlsx,stimuli.xlsx,stimuli/Social2.png,stimuli/Social1.png,stimuli/Nonsocial1.png,stimuli/Nonsocial2.png,,"(0.7, 0.5)",cs_plus_ns,,,,,0,0,0,0,,,,,1,13,29,10,,,,,,,,,,,,,,,,,,,,,,,,,,,,,,,,,,,,,,,,,,,,,,,,,,,,,,,,,,,,,,816.2213263000012,817.4226615000007,815.7144913000011,817.4226615000007,817.4226615000007,817.4226615000007,0.007014599999820348,0.013097700000798795,75,none,0,,,822.4294560000017,822.4294560000017,0.014995500001532491,0.014995500001532491,0.019898400001693517,0.05460780000066734,0.06152250000013737,0.10317520000171498,0.110126700001274,1.0128592000000936,825.9223560999999,829.6861226000001,,,,,,,,,,,,,,,,,,,,,,,,,,,,,7,B,2023-12-07_13h31.45.691,gca_avoidance_task,2022.2.4,144.04634835045738,
positions.xlsx,stimuli.xlsx,stimuli/Social2.png,stimuli/Social1.png,stimuli/Nonsocial1.png,stimuli/Nonsocial2.png,,"(0.7, -0.5)",cs_plus_ns,,,,,0,0,0,0,,,,,1,14,30,11,,,,,,,,,,,,,,,,,,,,,,,,,,,,,,,,,,,,,,,,,,,,,,,,,,,,,,,,,,,,,,830.1929727999996,831.7832233000008,829.6861226000001,831.7832233000008,831.7832233000008,831.7832233000008,0.007608899999468122,0.013316199998371303,75,none,0,,,836.789949500002,836.789949500002,0.015312100000301143,0.015312100000301143,0.020048899998073466,0.054717799997888505,0.06165099999998347,0.10335470000063651,0.11030290000053355,1.0130548999986786,840.2828947000016,844.4910552000001,,,,,,,,,,,,,,,,,,,,,,,,,,,,,7,B,2023-12-07_13h31.45.691,gca_avoidance_task,2022.2.4,144.04634835045738,
positions.xlsx,stimuli.xlsx,stimuli/Social2.png,stimuli/Social1.png,stimuli/Nonsocial1.png,stimuli/Nonsocial2.png,,"(0.7, -0.5)",cs_minus_s,,,,,0,0,0,0,,,,,1,15,31,7,,,,,,,,,,,,,,,,,,,,,,,,,,,,,,,,,,,,,,,,,,,,,,,,,,,,,,,,,,,,,,844.9979564000023,846.0396201000003,844.4910552000001,846.0396201000003,846.0396201000003,846.0396201000003,0.006168600000819424,0.012994400000025053,80,reward,1,[0.4235060999999405],[0.4235107999993488],846.4701160000004,846.4701160000004,0.007196400001703296,0.007196400001703296,0.018169399998441804,0.05284150000079535,0.05978469999899971,0.10143949999837787,0.10839560000022175,1.004189100000076,849.9631327999996,853.7059496000002,,,,,,,,,,,,,,,,,,,,,,,,,,,,,7,B,2023-12-07_13h31.45.691,gca_avoidance_task,2022.2.4,144.04634835045738,
positions.xlsx,stimuli.xlsx,stimuli/Social2.png,stimuli/Social1.png,stimuli/Nonsocial1.png,stimuli/Nonsocial2.png,,"(0.7, -0.5)",cs_plus_s,,,,,0,0,0,0,,,,,,,,,0,0,0,3,,,,,,,,,,,,,,,,,,,,,,,,,,,,,,,,,,,,,,,,,,,,,,,,,,,,,,,,,,869.1844918999996,870.7886230000004,868.6845458000025,870.7886230000004,870.7886230000004,870.7886230000004,0.0060558000004675705,0.013475799998559523,80,shock,1,[0.16715879999901517],[0.16716340000130003],870.9622406000017,870.9622406000017,0.007572599999548402,0.007572599999548402,0.01815580000038608,0.05284899999969639,0.059820300000865245,0.10148130000015954,0.10840559999996913,1.0041361000003235,874.4551291000025,878.718883900001,853.7059496000002,853.7059496000002,853.7059496000002,853.7059496000002,space,13.035034699998505,,,,,,,,,,,,,,,,,,,,,,,7,B,2023-12-07_13h31.45.691,gca_avoidance_task,2022.2.4,144.04634835045738,
positions.xlsx,stimuli.xlsx,stimuli/Social2.png,stimuli/Social1.png,stimuli/Nonsocial1.png,stimuli/Nonsocial2.png,,"(-0.7, 0.5)",cs_plus_ns,,,,,0,0,0,0,,,,,,,,,0,1,1,8,,,,,,,,,,,,,,,,,,,,,,,,,,,,,,,,,,,,,,,,,,,,,,,,,,,,,,,,,,879.2257610000015,880.968773200002,878.718883900001,880.968773200002,880.968773200002,880.968773200002,0.007098300000507152,0.013159900001483038,80,none,0,,,885.9754874999999,885.9754874999999,0.015484399998968001,0.015484399998968001,0.019965100000263192,0.05458290000024135,0.06153279999853112,0.10321439999825088,0.11019070000111242,1.0128568000000087,889.4684605000002,893.6349231999993,,,,,,,,,,,,,,,,,,,,,,,,,,,,,7,B,2023-12-07_13h31.45.691,gca_avoidance_task,2022.2.4,144.04634835045738,
positions.xlsx,stimuli.xlsx,stimuli/Social2.png,stimuli/Social1.png,stimuli/Nonsocial1.png,stimuli/Nonsocial2.png,,"(-0.7, 0.5)",cs_plus_s,,,,,0,0,0,0,,,,,,,,,0,2,2,0,,,,,,,,,,,,,,,,,,,,,,,,,,,,,,,,,,,,,,,,,,,,,,,,,,,,,,,,,,894.1418282000013,895.7945523000017,893.6349231999993,895.7945523000017,895.7945523000017,895.7945523000017,0.006479299998318311,0.013068099997326499,80,shock,1,[1.1111889999992854],[1.1111937999994552],896.9125687000014,896.9125687000014,0.00798930000019027,0.00798930000019027,0.01842670000041835,0.05307650000031572,0.06007129999852623,0.10176179999689339,0.10869739999907324,1.0044802999982494,900.4055488000013,903.9817710999996,,,,,,,,,,,,,,,,,,,,,,,,,,,,,7,B,2023-12-07_13h31.45.691,gca_avoidance_task,2022.2.4,144.04634835045738,
positions.xlsx,stimuli.xlsx,stimuli/Social2.png,stimuli/Social1.png,stimuli/Nonsocial1.png,stimuli/Nonsocial2.png,,"(0.7, 0.5)",cs_plus_s,,,,,0,0,0,0,,,,,,,,,0,3,3,2,,,,,,,,,,,,,,,,,,,,,,,,,,,,,,,,,,,,,,,,,,,,,,,,,,,,,,,,,,904.4886488000011,905.6275036000006,903.9817710999996,905.6275036000006,905.6275036000006,905.6275036000006,0.0067033999985142145,0.013134699998772703,80,none,0,,,910.6342274000017,910.6342274000017,0.01472279999870807,0.01472279999870807,0.019856200000504032,0.054519899997103494,0.06148190000021714,0.10310659999959171,0.11010039999746368,1.0128449999974691,914.1271535000014,917.9534373000024,,,,,,,,,,,,,,,,,,,,,,,,,,,,,7,B,2023-12-07_13h31.45.691,gca_avoidance_task,2022.2.4,144.04634835045738,
positions.xlsx,stimuli.xlsx,stimuli/Social2.png,stimuli/Social1.png,stimuli/Nonsocial1.png,stimuli/Nonsocial2.png,,"(-0.7, -0.5)",cs_minus_s,,,,,0,0,0,0,,,,,,,,,0,4,4,5,,,,,,,,,,,,,,,,,,,,,,,,,,,,,,,,,,,,,,,,,,,,,,,,,,,,,,,,,,918.4602897000004,920.3838704000009,917.9534373000024,920.3838704000009,920.3838704000009,920.3838704000009,0.006870799999887822,0.013221599998360034,85,reward,1,[0.5905089999978372],[0.5905284000000393],920.9810880000005,920.9810880000005,0.007930100000521634,0.007930100000521634,0.018302399999811314,0.05293630000232952,0.05990350000138278,0.10157970000000205,0.10852870000235271,1.0043342999997549,924.4740062000019,928.6057693000002,,,,,,,,,,,,,,,,,,,,,,,,,,,,,7,B,2023-12-07_13h31.45.691,gca_avoidance_task,2022.2.4,144.04634835045738,
positions.xlsx,stimuli.xlsx,stimuli/Social2.png,stimuli/Social1.png,stimuli/Nonsocial1.png,stimuli/Nonsocial2.png,,"(-0.7, -0.5)",cs_minus_ns,,,,,0,0,0,0,,,,,,,,,0,5,5,13,,,,,,,,,,,,,,,,,,,,,,,,,,,,,,,,,,,,,,,,,,,,,,,,,,,,,,,,,,929.1126738999992,930.7167804000019,928.6057693000002,930.7167804000019,930.7167804000019,930.7167804000019,0.007389800000964897,0.013416300000244519,90,reward,1,[0.6739637999999104],[0.6739686000000802],931.3972926000024,931.3972926000024,0.008362600001419196,0.008362600001419196,0.018605100001877872,0.05331250000017462,0.0602842000007513,0.10190920000241022,0.10886070000196924,1.0046352000026673,934.8902679000021,939.0428964000021,,,,,,,,,,,,,,,,,,,,,,,,,,,,,7,B,2023-12-07_13h31.45.691,gca_avoidance_task,2022.2.4,144.04634835045738,
positions.xlsx,stimuli.xlsx,stimuli/Social2.png,stimuli/Social1.png,stimuli/Nonsocial1.png,stimuli/Nonsocial2.png,,"(0.7, -0.5)",cs_minus_ns,,,,,0,0,0,0,,,,,,,,,0,6,6,15,,,,,,,,,,,,,,,,,,,,,,,,,,,,,,,,,,,,,,,,,,,,,,,,,,,,,,,,,,939.5497452000018,941.501054100001,939.0428964000021,941.501054100001,941.501054100001,941.501054100001,0.007203799999842886,0.013064300001133233,95,reward,1,[0.5835177000008116],[0.5835225000009814],942.091341899999,942.091341899999,0.00782979999712552,0.00782979999712552,0.01791349999984959,0.05257569999957923,0.059558799999649636,0.1011856999975862,0.10818239999935031,1.0039394999985234,945.5842660000017,949.6397021000012,,,,,,,,,,,,,,,,,,,,,,,,,,,,,7,B,2023-12-07_13h31.45.691,gca_avoidance_task,2022.2.4,144.04634835045738,
positions.xlsx,stimuli.xlsx,stimuli/Social2.png,stimuli/Social1.png,stimuli/Nonsocial1.png,stimuli/Nonsocial2.png,,"(0.7, 0.5)",cs_minus_ns,,,,,0,0,0,0,,,,,,,,,0,7,7,14,,,,,,,,,,,,,,,,,,,,,,,,,,,,,,,,,,,,,,,,,,,,,,,,,,,,,,,,,,950.1465427000003,951.5076068000017,949.6397021000012,951.5076068000017,951.5076068000017,951.5076068000017,0.007031799999822397,0.012998199999856297,100,reward,1,[0.39591440000003786],[0.39593389999936335],951.9103964999995,951.9103964999995,0.008523500000592321,0.008523500000592321,0.018164500001148554,0.05281019999893033,0.0597739000004367,0.10147940000024391,0.1084021999995457,1.0042088999980479,955.4033221999998,959.6045704999997,,,,,,,,,,,,,,,,,,,,,,,,,,,,,7,B,2023-12-07_13h31.45.691,gca_avoidance_task,2022.2.4,144.04634835045738,
positions.xlsx,stimuli.xlsx,stimuli/Social2.png,stimuli/Social1.png,stimuli/Nonsocial1.png,stimuli/Nonsocial2.png,,"(-0.7, -0.5)",cs_plus_ns,,,,,0,0,0,0,,,,,,,,,0,8,8,9,,,,,,,,,,,,,,,,,,,,,,,,,,,,,,,,,,,,,,,,,,,,,,,,,,,,,,,,,,960.1114439000012,961.6391417000013,959.6045704999997,961.6391417000013,961.6391417000013,961.6391417000013,0.007417400000122143,0.013061399997241097,100,none,0,,,966.6528460000009,966.6528460000009,0.014493700000457466,0.014493700000457466,0.026893199999904027,0.05451410000023316,0.06146539999826928,0.10316059999968274,0.11013509999975213,1.0128512999981467,970.1388743000025,973.972044099999,,,,,,,,,,,,,,,,,,,,,,,,,,,,,7,B,2023-12-07_13h31.45.691,gca_avoidance_task,2022.2.4,144.04634835045738,
positions.xlsx,stimuli.xlsx,stimuli/Social2.png,stimuli/Social1.png,stimuli/Nonsocial1.png,stimuli/Nonsocial2.png,,"(0.7, -0.5)",cs_minus_s,,,,,0,0,0,0,,,,,,,,,0,9,9,7,,,,,,,,,,,,,,,,,,,,,,,,,,,,,,,,,,,,,,,,,,,,,,,,,,,,,,,,,,974.4789051000007,976.1177613,973.972044099999,976.1177613,976.1177613,976.1177613,0.006444999999075662,0.013150700000551296,105,reward,1,[0.5626163000015367],[0.5626206999986607],976.6871664999999,976.6871664999999,0.007570600002509309,0.007570600002509309,0.01852590000271448,0.05318660000193631,0.060151500001666136,0.10180210000180523,0.10871870000119088,1.0045108000012988,980.1801352000002,984.492470600002,,,,,,,,,,,,,,,,,,,,,,,,,,,,,7,B,2023-12-07_13h31.45.691,gca_avoidance_task,2022.2.4,144.04634835045738,
positions.xlsx,stimuli.xlsx,stimuli/Social2.png,stimuli/Social1.png,stimuli/Nonsocial1.png,stimuli/Nonsocial2.png,,"(0.7, 0.5)",cs_minus_s,,,,,0,0,0,0,,,,,,,,,0,10,10,6,,,,,,,,,,,,,,,,,,,,,,,,,,,,,,,,,,,,,,,,,,,,,,,,,,,,,,,,,,984.999356100001,986.7700967000019,984.492470600002,986.7700967000019,986.7700967000019,986.7700967000019,0.006743100002495339,0.013111400003253948,110,reward,1,[0.39592070000071544],[0.3959255000008852],987.1729206999989,987.1729206999989,0.0077358000016829465,0.0077358000016829465,0.018720700001722435,0.053302500000427244,0.060311299999739276,0.10194650000266847,0.10892629999943892,1.0046490000022459,990.6658601000017,994.4156371999998,,,,,,,,,,,,,,,,,,,,,,,,,,,,,7,B,2023-12-07_13h31.45.691,gca_avoidance_task,2022.2.4,144.04634835045738,
positions.xlsx,stimuli.xlsx,stimuli/Social2.png,stimuli/Social1.png,stimuli/Nonsocial1.png,stimuli/Nonsocial2.png,,"(0.7, -0.5)",cs_plus_ns,,,,,0,0,0,0,,,,,,,,,0,11,11,11,,,,,,,,,,,,,,,,,,,,,,,,,,,,,,,,,,,,,,,,,,,,,,,,,,,,,,,,,,994.9225461999995,996.5613865000014,994.4156371999998,996.5613865000014,996.5613865000014,996.5613865000014,0.006644000000960659,0.013018199999351054,110,none,0,,,1001.5750654000003,1001.5750654000003,0.01456270000198856,0.01456270000198856,0.02673290000166162,0.05447429999912856,0.061405000000377186,0.10305480000170064,0.11000509999939823,1.012774000002537,1005.0611591000015,1008.9498224000017,,,,,,,,,,,,,,,,,,,,,,,,,,,,,7,B,2023-12-07_13h31.45.691,gca_avoidance_task,2022.2.4,144.04634835045738,
positions.xlsx,stimuli.xlsx,stimuli/Social2.png,stimuli/Social1.png,stimuli/Nonsocial1.png,stimuli/Nonsocial2.png,,"(-0.7, 0.5)",cs_minus_s,,,,,0,0,0,0,,,,,,,,,0,12,12,4,,,,,,,,,,,,,,,,,,,,,,,,,,,,,,,,,,,,,,,,,,,,,,,,,,,,,,,,,,1009.4566874000011,1010.6510927000018,1008.9498224000017,1010.6510927000018,1010.6510927000018,1010.6510927000018,0.006106699998781551,0.013145699998858618,115,reward,1,[0.4444889000005787],[0.44449380000150995],1011.1024958000016,1011.1024958000016,0.007880500001192559,0.007880500001192559,0.018462500000168802,0.053109000000404194,0.06007270000191056,0.10171710000213352,0.10869630000161123,1.0044904999995197,1014.595494000001,1018.4286271000019,,,,,,,,,,,,,,,,,,,,,,,,,,,,,7,B,2023-12-07_13h31.45.691,gca_avoidance_task,2022.2.4,144.04634835045738,
positions.xlsx,stimuli.xlsx,stimuli/Social2.png,stimuli/Social1.png,stimuli/Nonsocial1.png,stimuli/Nonsocial2.png,,"(-0.7, -0.5)",cs_plus_s,,,,,0,0,0,0,,,,,,,,,0,13,13,1,,,,,,,,,,,,,,,,,,,,,,,,,,,,,,,,,,,,,,,,,,,,,,,,,,,,,,,,,,1018.9354807000018,1020.5048695000005,1018.4286271000019,1020.5048695000005,1020.5048695000005,1020.5048695000005,0.006309799999144161,0.013059000000794185,115,none,0,,,1025.511642100002,1025.511642100002,0.01432569999815314,0.01432569999815314,0.01982309999948484,0.054444699999294244,0.061400300000968855,0.10305140000127722,0.1101048999989871,1.012833100001444,1029.0046002000017,1032.5947350000024,,,,,,,,,,,,,,,,,,,,,,,,,,,,,7,B,2023-12-07_13h31.45.691,gca_avoidance_task,2022.2.4,144.04634835045738,
positions.xlsx,stimuli.xlsx,stimuli/Social2.png,stimuli/Social1.png,stimuli/Nonsocial1.png,stimuli/Nonsocial2.png,,"(-0.7, 0.5)",cs_minus_ns,,,,,0,0,0,0,,,,,,,,,0,14,14,12,,,,,,,,,,,,,,,,,,,,,,,,,,,,,,,,,,,,,,,,,,,,,,,,,,,,,,,,,,1033.1015800999994,1034.2126767000009,1032.5947350000024,1034.2126767000009,1034.2126767000009,1034.2126767000009,0.0073913000014727,0.013293500000145286,120,reward,1,[0.5072741000003589],[0.5072787999997672],1034.7265458000002,1034.7265458000002,0.008048600000620354,0.008048600000620354,0.01845569999932195,0.05310979999921983,0.060059600000386126,0.10170740000103251,0.10870779999822844,1.0044316999992589,1038.2194794999996,1042.1707535000023,,,,,,,,,,,,,,,,,,,,,,,,,,,,,7,B,2023-12-07_13h31.45.691,gca_avoidance_task,2022.2.4,144.04634835045738,
positions.xlsx,stimuli.xlsx,stimuli/Social2.png,stimuli/Social1.png,stimuli/Nonsocial1.png,stimuli/Nonsocial2.png,,"(0.7, 0.5)",cs_plus_ns,,,,,0,0,0,0,,,,,,,,,0,15,15,10,,,,,,,,,,,,,,,,,,,,,,,,,,,,,,,,,,,,,,,,,,,,,,,,,,,,,,,,,,1042.6775964000008,1043.9205918000007,1042.1707535000023,1043.9205918000007,1043.9205918000007,1043.9205918000007,0.006517100002383813,0.01303340000231401,120,shock,1,[0.2638451000020723],[0.26384970000071917],1044.1914524000022,1044.1914524000022,0.00788749999992433,0.00788749999992433,0.01852560000043013,0.05317049999939627,0.060168899999553105,0.10181680000096094,0.10876439999992726,1.0045662000011362,1047.6844039999996,1051.3022805,,,,,,,,,,,,,,,,,,,,,,,,,,,,,7,B,2023-12-07_13h31.45.691,gca_avoidance_task,2022.2.4,144.04634835045738,
positions.xlsx,stimuli.xlsx,stimuli/Social2.png,stimuli/Social1.png,stimuli/Nonsocial1.png,stimuli/Nonsocial2.png,,"(-0.7, 0.5)",cs_plus_s,,,,,0,0,0,0,,,,,,,,,1,0,16,0,,,,,,,,,,,,,,,,,,,,,,,,,,,,,,,,,,,,,,,,,,,,,,,,,,,,,,,,,,1051.8091749000014,1052.975814100002,1051.3022805,1052.975814100002,1052.975814100002,1052.975814100002,0.006654000000708038,0.013331699999980628,120,none,0,,,1057.9825478999992,1057.9825478999992,0.013582200001110323,0.013582200001110323,0.020086000000446802,0.05474810000305297,0.0617091000021901,0.10338520000004792,0.11034320000180742,1.0130423000009614,1061.4755401000002,1065.829500300002,,,,,,,,,,,,,,,,,,,,,,,,,,,,,7,B,2023-12-07_13h31.45.691,gca_avoidance_task,2022.2.4,144.04634835045738,
positions.xlsx,stimuli.xlsx,stimuli/Social2.png,stimuli/Social1.png,stimuli/Nonsocial1.png,stimuli/Nonsocial2.png,,"(-0.7, 0.5)",cs_plus_ns,,,,,0,0,0,0,,,,,,,,,1,1,17,8,,,,,,,,,,,,,,,,,,,,,,,,,,,,,,,,,,,,,,,,,,,,,,,,,,,,,,,,,,1066.3363635000023,1068.1418871999995,1065.829500300002,1068.1418871999995,1068.1418871999995,1068.1418871999995,0.006681300001218915,0.013101900000037858,120,none,0,,,1073.1485954000018,1073.1485954000018,0.01457490000029793,0.01457490000029793,0.019843900001433212,0.054502400002093054,0.06151289999979781,0.10312890000204789,0.11012360000313492,1.0128254000010202,1076.6415859000008,1080.3566904,,,,,,,,,,,,,,,,,,,,,,,,,,,,,7,B,2023-12-07_13h31.45.691,gca_avoidance_task,2022.2.4,144.04634835045738,
positions.xlsx,stimuli.xlsx,stimuli/Social2.png,stimuli/Social1.png,stimuli/Nonsocial1.png,stimuli/Nonsocial2.png,,"(-0.7, 0.5)",cs_minus_s,,,,,0,0,0,0,,,,,,,,,1,2,18,4,,,,,,,,,,,,,,,,,,,,,,,,,,,,,,,,,,,,,,,,,,,,,,,,,,,,,,,,,,1080.863577,1082.3426851000004,1080.3566904,1082.3426851000004,1082.3426851000004,1082.3426851000004,0.006849800000054529,0.0132104000003892,125,reward,1,[0.5558277999989514],[0.5558324999983597],1082.9052001000018,1082.9052001000018,0.00828900000124122,0.00828900000124122,0.01847780000025523,0.05311500000243541,0.06004960000063875,0.10171950000221841,0.10871320000296691,1.0045055000009597,1086.398122300001,1089.9327159000022,,,,,,,,,,,,,,,,,,,,,,,,,,,,,7,B,2023-12-07_13h31.45.691,gca_avoidance_task,2022.2.4,144.04634835045738,
positions.xlsx,stimuli.xlsx,stimuli/Social2.png,stimuli/Social1.png,stimuli/Nonsocial1.png,stimuli/Nonsocial2.png,,"(0.7, 0.5)",cs_minus_ns,,,,,0,0,0,0,,,,,,,,,1,3,19,14,,,,,,,,,,,,,,,,,,,,,,,,,,,,,,,,,,,,,,,,,,,,,,,,,,,,,,,,,,1090.439603400002,1092.4187383999997,1089.9327159000022,1092.4187383999997,1092.4187383999997,1092.4187383999997,0.006805400000303052,0.01356099999975413,130,reward,1,[0.4726778000003833],[0.4726824999997916],1092.897849500001,1092.897849500001,0.008315900002344279,0.008315900002344279,0.018193800002336502,0.05294540000249981,0.05978460000187624,0.10150730000168551,0.10842690000208677,1.0042391999995743,1096.390758900001,1099.9739966000016,,,,,,,,,,,,,,,,,,,,,,,,,,,,,7,B,2023-12-07_13h31.45.691,gca_avoidance_task,2022.2.4,144.04634835045738,
positions.xlsx,stimuli.xlsx,stimuli/Social2.png,stimuli/Social1.png,stimuli/Nonsocial1.png,stimuli/Nonsocial2.png,,"(0.7, 0.5)",cs_plus_s,,,,,0,0,0,0,,,,,,,,,1,4,20,2,,,,,,,,,,,,,,,,,,,,,,,,,,,,,,,,,,,,,,,,,,,,,,,,,,,,,,,,,,1100.4808678000009,1102.1266331000006,1099.9739966000016,1102.1266331000006,1102.1266331000006,1102.1266331000006,0.00630749999982072,0.01309160000164411,130,none,0,,,1107.1334126000002,1107.1334126000002,0.014443700001720572,0.014443700001720572,0.019848299998557195,0.05451879999964149,0.061487399998441106,0.10315819999959785,0.11012459999983548,1.0128175999998348,1110.6263301,1114.2373043000007,,,,,,,,,,,,,,,,,,,,,,,,,,,,,7,B,2023-12-07_13h31.45.691,gca_avoidance_task,2022.2.4,144.04634835045738,
positions.xlsx,stimuli.xlsx,stimuli/Social2.png,stimuli/Social1.png,stimuli/Nonsocial1.png,stimuli/Nonsocial2.png,,"(-0.7, -0.5)",cs_plus_s,,,,,0,0,0,0,,,,,,,,,1,5,21,1,,,,,,,,,,,,,,,,,,,,,,,,,,,,,,,,,,,,,,,,,,,,,,,,,,,,,,,,,,1114.7441944999991,1116.2927574000023,1114.2373043000007,1116.2927574000023,1116.2927574000023,1116.2927574000023,0.005941800001892261,0.013446199998725206,130,none,0,,,1121.2995381,1121.2995381,0.014029500001925044,0.014029500001925044,0.020225299998855917,0.05490550000104122,0.06181930000093416,0.1034871000010753,0.11042160000215517,1.0131637000013143,1124.7924784999996,1128.9797706999998,,,,,,,,,,,,,,,,,,,,,,,,,,,,,7,B,2023-12-07_13h31.45.691,gca_avoidance_task,2022.2.4,144.04634835045738,
positions.xlsx,stimuli.xlsx,stimuli/Social2.png,stimuli/Social1.png,stimuli/Nonsocial1.png,stimuli/Nonsocial2.png,,"(-0.7, -0.5)",cs_minus_s,,,,,0,0,0,0,,,,,,,,,1,6,22,5,,,,,,,,,,,,,,,,,,,,,,,,,,,,,,,,,,,,,,,,,,,,,,,,,,,,,,,,,,1129.4866643999994,1131.1532608000016,1128.9797706999998,1131.1532608000016,1131.1532608000016,1131.1532608000016,0.006002099999022903,0.01308670000071288,135,reward,1,[0.5763598999983515],[0.5763646999985212],1131.7365467000018,1131.7365467000018,0.007138799999665935,0.007138799999665935,0.018744900000456255,0.05341490000137128,0.06039919999966514,0.10204660000090371,0.10903359999792883,1.004787199999555,1135.2295588000015,1138.979400799999,,,,,,,,,,,,,,,,,,,,,,,,,,,,,7,B,2023-12-07_13h31.45.691,gca_avoidance_task,2022.2.4,144.04634835045738,
positions.xlsx,stimuli.xlsx,stimuli/Social2.png,stimuli/Social1.png,stimuli/Nonsocial1.png,stimuli/Nonsocial2.png,,"(0.7, -0.5)",cs_minus_s,,,,,0,0,0,0,,,,,,,,,1,7,23,7,,,,,,,,,,,,,,,,,,,,,,,,,,,,,,,,,,,,,,,,,,,,,,,,,,,,,,,,,,1139.4862663999993,1140.8473403999997,1138.979400799999,1140.8473403999997,1140.8473403999997,1140.8473403999997,0.0065092000004369766,0.013063700000202516,140,reward,1,[0.5763188999990234],[0.5763236999991932],1141.430632399999,1141.430632399999,0.0068602999999711756,0.0068602999999711756,0.01855009999781032,0.053271099997800775,0.06020449999778066,0.10188650000054622,0.10880899999756366,1.0045780000000377,1144.9235941000006,1149.0067913999992,,,,,,,,,,,,,,,,,,,,,,,,,,,,,7,B,2023-12-07_13h31.45.691,gca_avoidance_task,2022.2.4,144.04634835045738,
positions.xlsx,stimuli.xlsx,stimuli/Social2.png,stimuli/Social1.png,stimuli/Nonsocial1.png,stimuli/Nonsocial2.png,,"(-0.7, -0.5)",cs_plus_ns,,,,,0,0,0,0,,,,,,,,,1,8,24,9,,,,,,,,,,,,,,,,,,,,,,,,,,,,,,,,,,,,,,,,,,,,,,,,,,,,,,,,,,1149.5136452000006,1150.6663864000002,1149.0067913999992,1150.6663864000002,1150.6663864000002,1150.6663864000002,0.006617999999434687,0.013077799998427508,140,none,0,,,1155.6800872999993,1155.6800872999993,0.014449300000705989,0.014449300000705989,0.026814500000909902,0.05450550000023213,0.06143629999860423,0.10314179999841144,0.11010080000050948,1.0127939999983937,1159.1661172999993,1163.2006662000022,,,,,,,,,,,,,,,,,,,,,,,,,,,,,7,B,2023-12-07_13h31.45.691,gca_avoidance_task,2022.2.4,144.04634835045738,
positions.xlsx,stimuli.xlsx,stimuli/Social2.png,stimuli/Social1.png,stimuli/Nonsocial1.png,stimuli/Nonsocial2.png,,"(-0.7, 0.5)",cs_minus_ns,,,,,0,0,0,0,,,,,,,,,1,9,25,12,,,,,,,,,,,,,,,,,,,,,,,,,,,,,,,,,,,,,,,,,,,,,,,,,,,,,,,,,,1163.707540899999,1165.4852543000015,1163.2006662000022,1165.4852543000015,1165.4852543000015,1165.4852543000015,0.006433199996536132,0.012886399999842979,145,reward,1,[0.4585109999970882],[0.45851570000013453],1165.9505169000004,1165.9505169000004,0.007569199999124976,0.007569199999124976,0.018691599998419406,0.053409000000101514,0.060289199998806,0.10194169999886071,0.10893729999952484,1.0046843999989505,1169.4434836,1173.6516360999995,,,,,,,,,,,,,,,,,,,,,,,,,,,,,7,B,2023-12-07_13h31.45.691,gca_avoidance_task,2022.2.4,144.04634835045738,
positions.xlsx,stimuli.xlsx,stimuli/Social2.png,stimuli/Social1.png,stimuli/Nonsocial1.png,stimuli/Nonsocial2.png,,"(0.7, -0.5)",cs_plus_s,,,,,0,0,0,0,,,,,,,,,1,10,26,3,,,,,,,,,,,,,,,,,,,,,,,,,,,,,,,,,,,,,,,,,,,,,,,,,,,,,,,,,,1174.1585243000009,1175.6237328000025,1173.6516360999995,1175.6237328000025,1175.6237328000025,1175.6237328000025,0.00598330000138958,0.01316450000012992,145,shock,1,[2.9723349999985658],[2.972339899999497],1178.602793099999,1178.602793099999,0.00737489999664831,0.00737489999664831,0.018312099997274345,0.05303189999904134,0.05999129999690922,0.10159229999771924,0.10854159999871626,1.0043297999982315,1182.0957266000005,1185.8247439000006,,,,,,,,,,,,,,,,,,,,,,,,,,,,,7,B,2023-12-07_13h31.45.691,gca_avoidance_task,2022.2.4,144.04634835045738,
positions.xlsx,stimuli.xlsx,stimuli/Social2.png,stimuli/Social1.png,stimuli/Nonsocial1.png,stimuli/Nonsocial2.png,,"(0.7, -0.5)",cs_plus_ns,,,,,0,0,0,0,,,,,,,,,1,11,27,11,,,,,,,,,,,,,,,,,,,,,,,,,,,,,,,,,,,,,,,,,,,,,,,,,,,,,,,,,,1186.3316744000003,1188.2343660000006,1185.8247439000006,1188.2343660000006,1188.2343660000006,1188.2343660000006,0.006509499999083346,0.013259600000310456,145,none,0,,,1193.2411041000014,1193.2411041000014,0.013997199999721488,0.013997199999721488,0.02000390000102925,0.05474540000068373,0.06168370000159484,0.1033397999999579,0.11024050000196439,1.0130122000009578,1196.7340808000008,1200.9908069000012,,,,,,,,,,,,,,,,,,,,,,,,,,,,,7,B,2023-12-07_13h31.45.691,gca_avoidance_task,2022.2.4,144.04634835045738,
positions.xlsx,stimuli.xlsx,stimuli/Social2.png,stimuli/Social1.png,stimuli/Nonsocial1.png,stimuli/Nonsocial2.png,,"(0.7, -0.5)",cs_minus_ns,,,,,0,0,0,0,,,,,,,,,1,12,28,15,,,,,,,,,,,,,,,,,,,,,,,,,,,,,,,,,,,,,,,,,,,,,,,,,,,,,,,,,,1201.4977122000018,1203.0879743000005,1200.9908069000012,1203.0879743000005,1203.0879743000005,1203.0879743000005,0.006664799999271054,0.013017400000535417,150,reward,1,[0.5345832999992126],[0.5345880999993824],1203.6295592000024,1203.6295592000024,0.007201699998404365,0.007201699998404365,0.018646000000444474,0.053360400001110975,0.06031689999872469,0.10197490000064136,0.10896309999952791,1.0047143000010692,1207.1225627000022,1210.976576699999,,,,,,,,,,,,,,,,,,,,,,,,,,,,,7,B,2023-12-07_13h31.45.691,gca_avoidance_task,2022.2.4,144.04634835045738,
positions.xlsx,stimuli.xlsx,stimuli/Social2.png,stimuli/Social1.png,stimuli/Nonsocial1.png,stimuli/Nonsocial2.png,,"(-0.7, -0.5)",cs_minus_ns,,,,,0,0,0,0,,,,,,,,,1,13,29,13,,,,,,,,,,,,,,,,,,,,,,,,,,,,,,,,,,,,,,,,,,,,,,,,,,,,,,,,,,1211.4834169999995,1213.080593999999,1210.976576699999,1213.080593999999,1213.080593999999,1213.080593999999,0.006296600000496255,0.01350060000186204,155,reward,1,[0.4246151000006648],[0.4246197000029497],1213.5111397,1213.5111397,0.0075862999983655754,0.0075862999983655754,0.018115599999873666,0.05274649999773828,0.059730799999670126,0.10138390000065556,0.10834679999970831,1.0041820000005828,1217.0040757999996,1221.3511892000024,,,,,,,,,,,,,,,,,,,,,,,,,,,,,7,B,2023-12-07_13h31.45.691,gca_avoidance_task,2022.2.4,144.04634835045738,
positions.xlsx,stimuli.xlsx,stimuli/Social2.png,stimuli/Social1.png,stimuli/Nonsocial1.png,stimuli/Nonsocial2.png,,"(0.7, 0.5)",cs_plus_ns,,,,,0,0,0,0,,,,,,,,,1,14,30,10,,,,,,,,,,,,,,,,,,,,,,,,,,,,,,,,,,,,,,,,,,,,,,,,,,,,,,,,,,1221.8580261000025,1223.7468298999993,1221.3511892000024,1223.7468298999993,1223.7468298999993,1223.7468298999993,0.006780399999115616,0.013490000001183944,155,none,0,,,1228.7605569000007,1228.7605569000007,0.015268799998011673,0.015268799998011673,0.027196399998501875,0.05493429999842192,0.06189799999992829,0.10354960000040592,0.11049869999988005,1.0132071000007272,1232.246562299999,1235.753356600002,,,,,,,,,,,,,,,,,,,,,,,,,,,,,7,B,2023-12-07_13h31.45.691,gca_avoidance_task,2022.2.4,144.04634835045738,
positions.xlsx,stimuli.xlsx,stimuli/Social2.png,stimuli/Social1.png,stimuli/Nonsocial1.png,stimuli/Nonsocial2.png,,"(0.7, 0.5)",cs_minus_s,,,,,0,0,0,0,,,,,,,,,1,15,31,6,,,,,,,,,,,,,,,,,,,,,,,,,,,,,,,,,,,,,,,,,,,,,,,,,,,,,,,,,,1236.2602420000003,1237.5865519,1235.753356600002,1237.5865519,1237.5865519,1237.5865519,0.006075900000723777,0.013192300000810064,160,reward,1,[0.5834721000028367],[0.5903960000032384],1238.183780200001,1238.183780200001,0.007091200001013931,0.007091200001013931,0.018686200000956887,0.05333560000144644,0.0602446000011696,0.10196229999928619,0.10891220000121393,1.0047255999998015,1241.6767203000018,1245.6140745000012,,,,,,,,,,,,,,,,,,,,,,,,,,,,,7,B,2023-12-07_13h31.45.691,gca_avoidance_task,2022.2.4,144.04634835045738,
positions.xlsx,stimuli.xlsx,stimuli/Social2.png,stimuli/Social1.png,stimuli/Nonsocial1.png,stimuli/Nonsocial2.png,,"(-0.7, 0.5)",cs_minus_ns,,,,,0,0,0,0,,,,,,,,,2,0,32,12,,,,,,,,,,,,,,,,,,,,,,,,,,,,,,,,,,,,,,,,,,,,,,,,,,,,,,,,,,1246.120936700001,1248.1208708000013,1245.6140745000012,1248.1208708000013,1248.1208708000013,1248.1208708000013,0.007065000001603039,0.01315210000029765,165,reward,1,[0.22932570000193664],[0.22933050000210642],1248.3569936000022,1248.3569936000022,0.007799299997714115,0.007799299997714115,0.018727799997577677,0.0534507999982452,0.060388699999748496,0.10206509999989066,0.10897130000012112,1.0047758000000613,1251.8498989,1256.266376800002,,,,,,,,,,,,,,,,,,,,,,,,,,,,,7,B,2023-12-07_13h31.45.691,gca_avoidance_task,2022.2.4,144.04634835045738,
positions.xlsx,stimuli.xlsx,stimuli/Social2.png,stimuli/Social1.png,stimuli/Nonsocial1.png,stimuli/Nonsocial2.png,,"(0.7, 0.5)",cs_plus_s,,,,,0,0,0,0,,,,,,,,,2,1,33,2,,,,,,,,,,,,,,,,,,,,,,,,,,,,,,,,,,,,,,,,,,,,,,,,,,,,,,,,,,1256.7732851,1258.7177040999995,1256.266376800002,1258.7177040999995,1258.7177040999995,1258.7177040999995,0.0067299000002094544,0.01341350000075181,165,none,0,,,1263.7244374000002,1263.7244374000002,0.014071800000238,0.014071800000238,0.020201799998176284,0.054853599998750724,0.06178210000143736,0.10347399999955087,0.11053360000005341,1.0131011999983457,1267.2174054000025,1270.8352632999995,,,,,,,,,,,,,,,,,,,,,,,,,,,,,7,B,2023-12-07_13h31.45.691,gca_avoidance_task,2022.2.4,144.04634835045738,
positions.xlsx,stimuli.xlsx,stimuli/Social2.png,stimuli/Social1.png,stimuli/Nonsocial1.png,stimuli/Nonsocial2.png,,"(0.7, -0.5)",cs_plus_ns,,,,,0,0,0,0,,,,,,,,,2,2,34,11,,,,,,,,,,,,,,,,,,,,,,,,,,,,,,,,,,,,,,,,,,,,,,,,,,,,,,,,,,1271.34217,1272.515763899999,1270.8352632999995,1272.515763899999,1272.515763899999,1272.515763899999,0.00628589999905671,0.013059200002317084,165,none,0,,,1277.5225291000024,1277.5225291000024,0.014063800001167692,0.014063800001167692,0.019842500001686858,0.054483200001413934,0.06143280000105733,0.10312379999959376,0.11005500000101165,1.0127376000018558,1281.015460300001,1285.3625085999993,,,,,,,,,,,,,,,,,,,,,,,,,,,,,7,B,2023-12-07_13h31.45.691,gca_avoidance_task,2022.2.4,144.04634835045738,
positions.xlsx,stimuli.xlsx,stimuli/Social2.png,stimuli/Social1.png,stimuli/Nonsocial1.png,stimuli/Nonsocial2.png,,"(0.7, 0.5)",cs_plus_ns,,,,,0,0,0,0,,,,,,,,,2,3,35,10,,,,,,,,,,,,,,,,,,,,,,,,,,,,,,,,,,,,,,,,,,,,,,,,,,,,,,,,,,1285.8693974000016,1287.7582389000017,1285.3625085999993,1287.7582389000017,1287.7582389000017,1287.7582389000017,0.006312199999229051,0.013102200002322206,165,none,0,,,1292.7649743000002,1292.7649743000002,0.013782599999103695,0.013782599999103695,0.019873000001098262,0.054487600002175895,0.06144530000165105,0.10312160000103177,0.11005060000024969,1.0128399999994144,1296.2579108999998,1299.8966610999996,,,,,,,,,,,,,,,,,,,,,,,,,,,,,7,B,2023-12-07_13h31.45.691,gca_avoidance_task,2022.2.4,144.04634835045738,
positions.xlsx,stimuli.xlsx,stimuli/Social2.png,stimuli/Social1.png,stimuli/Nonsocial1.png,stimuli/Nonsocial2.png,,"(0.7, -0.5)",cs_minus_ns,,,,,0,0,0,0,,,,,,,,,2,4,36,15,,,,,,,,,,,,,,,,,,,,,,,,,,,,,,,,,,,,,,,,,,,,,,,,,,,,,,,,,,1300.4035441000015,1301.5632084999997,1299.8966610999996,1301.5632084999997,1301.5632084999997,1301.5632084999997,0.006568199998582713,0.012891399997897679,170,reward,1,[0.6804092999991553],[0.6804140999993251],1302.2506997000019,1302.2506997000019,0.007982800001627766,0.007982800001627766,0.01876049999918905,0.053398700001707766,0.060357199999998556,0.10204080000039539,0.10900079999919399,1.0047225000016624,1305.743674100002,1309.6948847999993,,,,,,,,,,,,,,,,,,,,,,,,,,,,,7,B,2023-12-07_13h31.45.691,gca_avoidance_task,2022.2.4,144.04634835045738,
positions.xlsx,stimuli.xlsx,stimuli/Social2.png,stimuli/Social1.png,stimuli/Nonsocial1.png,stimuli/Nonsocial2.png,,"(-0.7, -0.5)",cs_plus_ns,,,,,0,0,0,0,,,,,,,,,2,5,37,9,,,,,,,,,,,,,,,,,,,,,,,,,,,,,,,,,,,,,,,,,,,,,,,,,,,,,,,,,,1310.201744099999,1311.4378352999993,1309.6948847999993,1311.4378352999993,1311.4378352999993,1311.4378352999993,0.006337700000585755,0.013300499998877058,170,shock,1,[0.18854260000080103],[0.19474260000060895],1311.6392173999993,1311.6392173999993,0.007950100000016391,0.007950100000016391,0.01834469999812427,0.052997399998275796,0.059987399999954505,0.10167159999764408,0.10858079999889014,1.0043341999989934,1315.1321205000022,1318.6598175,,,,,,,,,,,,,,,,,,,,,,,,,,,,,7,B,2023-12-07_13h31.45.691,gca_avoidance_task,2022.2.4,144.04634835045738,
positions.xlsx,stimuli.xlsx,stimuli/Social2.png,stimuli/Social1.png,stimuli/Nonsocial1.png,stimuli/Nonsocial2.png,,"(-0.7, 0.5)",cs_plus_s,,,,,0,0,0,0,,,,,,,,,2,6,38,0,,,,,,,,,,,,,,,,,,,,,,,,,,,,,,,,,,,,,,,,,,,,,,,,,,,,,,,,,,1319.1666708000012,1320.4235552999999,1318.6598175,1320.4235552999999,1320.4235552999999,1320.4235552999999,0.006033199999365024,0.013142299998435192,170,none,0,,,1325.4303188000013,1325.4303188000013,0.013341400001081638,0.013341400001081638,0.019945799998822622,0.05460450000100536,0.0615734999992128,0.10317790000044624,0.11020619999908376,1.0129247000004398,1328.9233224000018,1332.9717335000023,,,,,,,,,,,,,,,,,,,,,,,,,,,,,7,B,2023-12-07_13h31.45.691,gca_avoidance_task,2022.2.4,144.04634835045738,
positions.xlsx,stimuli.xlsx,stimuli/Social2.png,stimuli/Social1.png,stimuli/Nonsocial1.png,stimuli/Nonsocial2.png,,"(-0.7, -0.5)",cs_minus_ns,,,,,0,0,0,0,,,,,,,,,2,7,39,13,,,,,,,,,,,,,,,,,,,,,,,,,,,,,,,,,,,,,,,,,,,,,,,,,,,,,,,,,,1333.4786286000017,1335.0618988999995,1332.9717335000023,1335.0618988999995,1335.0618988999995,1335.0618988999995,0.006703200000629295,0.013313999999809312,175,reward,1,[0.5350978999995277],[0.5351025999989361],1335.603560800002,1335.603560800002,0.0076979000004939735,0.0076979000004939735,0.018471299998054747,0.0530981999982032,0.06005540000114706,0.10169609999866225,0.10864550000042072,1.0044901000001119,1339.096510700001,1343.1241083000023,,,,,,,,,,,,,,,,,,,,,,,,,,,,,7,B,2023-12-07_13h31.45.691,gca_avoidance_task,2022.2.4,144.04634835045738,
positions.xlsx,stimuli.xlsx,stimuli/Social2.png,stimuli/Social1.png,stimuli/Nonsocial1.png,stimuli/Nonsocial2.png,,"(-0.7, -0.5)",cs_plus_s,,,,,0,0,0,0,,,,,,,,,2,8,40,1,,,,,,,,,,,,,,,,,,,,,,,,,,,,,,,,,,,,,,,,,,,,,,,,,,,,,,,,,,1343.6309500999996,1345.623960500001,1343.1241083000023,1345.623960500001,1345.623960500001,1345.623960500001,0.005891199998586671,0.012861499999416992,175,none,0,,,1350.6307635000012,1350.6307635000012,0.013082699999358738,0.013082699999358738,0.01968699999997625,0.054350200000044424,0.06128049999824725,0.1029049999997369,0.10985369999980321,1.0126100999987102,1354.1236907999992,1358.2415944000022,,,,,,,,,,,,,,,,,,,,,,,,,,,,,7,B,2023-12-07_13h31.45.691,gca_avoidance_task,2022.2.4,144.04634835045738,
positions.xlsx,stimuli.xlsx,stimuli/Social2.png,stimuli/Social1.png,stimuli/Nonsocial1.png,stimuli/Nonsocial2.png,,"(0.7, 0.5)",cs_minus_s,,,,,0,0,0,0,,,,,,,,,2,9,41,6,,,,,,,,,,,,,,,,,,,,,,,,,,,,,,,,,,,,,,,,,,,,,,,,,,,,,,,,,,1358.7484654,1360.2553289000025,1358.2415944000022,1360.2553289000025,1360.2553289000025,1360.2553289000025,0.005682900002284441,0.013068900003418094,180,reward,1,[0.5833455000029062],[0.5833501000015531],1360.8455890000005,1360.8455890000005,0.007191600001533516,0.007191600001533516,0.0187657999995281,0.0534336999990046,0.06040399999983492,0.10209499999837135,0.10906769999928656,1.0048110999996425,1364.338582299999,1368.8244981999997,,,,,,,,,,,,,,,,,,,,,,,,,,,,,7,B,2023-12-07_13h31.45.691,gca_avoidance_task,2022.2.4,144.04634835045738,
positions.xlsx,stimuli.xlsx,stimuli/Social2.png,stimuli/Social1.png,stimuli/Nonsocial1.png,stimuli/Nonsocial2.png,,"(-0.7, -0.5)",cs_minus_s,,,,,0,0,0,0,,,,,,,,,2,10,42,5,,,,,,,,,,,,,,,,,,,,,,,,,,,,,,,,,,,,,,,,,,,,,,,,,,,,,,,,,,1369.3313531000022,1370.9493442999992,1368.8244981999997,1370.9493442999992,1370.9493442999992,1370.9493442999992,0.005771199997980148,0.013420299997960683,185,reward,1,[0.5838870999978099],[0.590681499998027],1371.5465522000013,1371.5465522000013,0.007840100002795225,0.007840100002795225,0.018288100000063423,0.05297120000250288,0.059946400000626454,0.10159240000211867,0.10853839999981574,1.0042988000022888,1375.0395524000014,1378.594957600002,,,,,,,,,,,,,,,,,,,,,,,,,,,,,7,B,2023-12-07_13h31.45.691,gca_avoidance_task,2022.2.4,144.04634835045738,
positions.xlsx,stimuli.xlsx,stimuli/Social2.png,stimuli/Social1.png,stimuli/Nonsocial1.png,stimuli/Nonsocial2.png,,"(0.7, -0.5)",cs_plus_s,,,,,0,0,0,0,,,,,,,,,2,11,43,3,,,,,,,,,,,,,,,,,,,,,,,,,,,,,,,,,,,,,,,,,,,,,,,,,,,,,,,,,,1379.1018120000008,1380.8934197000017,1378.594957600002,1380.8934197000017,1380.8934197000017,1380.8934197000017,0.005714099999750033,0.01295639999807463,185,none,0,,,1385.9001486000016,1385.9001486000016,0.01355419999890728,0.01355419999890728,0.019718299998203292,0.05437090000123135,0.06132820000129868,0.1029856999994081,0.10995940000066184,1.0126901000003272,1389.3930655000004,1393.4763151000006,,,,,,,,,,,,,,,,,,,,,,,,,,,,,7,B,2023-12-07_13h31.45.691,gca_avoidance_task,2022.2.4,144.04634835045738,
positions.xlsx,stimuli.xlsx,stimuli/Social2.png,stimuli/Social1.png,stimuli/Nonsocial1.png,stimuli/Nonsocial2.png,,"(0.7, -0.5)",cs_minus_s,,,,,0,0,0,0,,,,,,,,,2,12,44,7,,,,,,,,,,,,,,,,,,,,,,,,,,,,,,,,,,,,,,,,,,,,,,,,,,,,,,,,,,1393.9831685999998,1395.726171000002,1393.4763151000006,1395.726171000002,1395.726171000002,1395.726171000002,0.006807199999457225,0.013459600002533989,190,reward,1,[0.6392660000019532],[0.6392709000028844],1396.3719735000013,1396.3719735000013,0.00803759999689646,0.00803759999689646,0.018496599997888552,0.05313709999973071,0.06008859999928973,0.10173929999655229,0.1087255999991612,1.0044787999977416,1399.8649038000003,1404.3439309000023,,,,,,,,,,,,,,,,,,,,,,,,,,,,,7,B,2023-12-07_13h31.45.691,gca_avoidance_task,2022.2.4,144.04634835045738,
positions.xlsx,stimuli.xlsx,stimuli/Social2.png,stimuli/Social1.png,stimuli/Nonsocial1.png,stimuli/Nonsocial2.png,,"(-0.7, 0.5)",cs_minus_s,,,,,0,0,0,0,,,,,,,,,2,13,45,4,,,,,,,,,,,,,,,,,,,,,,,,,,,,,,,,,,,,,,,,,,,,,,,,,,,,,,,,,,1404.8508555000008,1406.3090739,1404.3439309000023,1406.3090739,1406.3090739,1406.3090739,0.006451900000683963,0.013203500002418878,195,reward,1,[0.5486659000016516],[0.5486708000025828],1406.864585899999,1406.864585899999,0.0066404000026523136,0.0066404000026523136,0.018560900000011316,0.05325970000194502,0.0602379000010842,0.10184610000214889,0.10884860000078334,1.0046274000014819,1410.357549100001,1414.551812400001,,,,,,,,,,,,,,,,,,,,,,,,,,,,,7,B,2023-12-07_13h31.45.691,gca_avoidance_task,2022.2.4,144.04634835045738,
positions.xlsx,stimuli.xlsx,stimuli/Social2.png,stimuli/Social1.png,stimuli/Nonsocial1.png,stimuli/Nonsocial2.png,,"(0.7, 0.5)",cs_minus_ns,,,,,0,0,0,0,,,,,,,,,2,14,46,14,,,,,,,,,,,,,,,,,,,,,,,,,,,,,,,,,,,,,,,,,,,,,,,,,,,,,,,,,,1415.0587345999993,1416.5378230999995,1414.551812400001,1416.5378230999995,1416.5378230999995,1416.5378230999995,0.006385599997884128,0.012848700000176905,200,reward,1,[0.5483924000000115],[0.5483972000001813],1417.0933805000022,1417.0933805000022,0.007397000001219567,0.007397000001219567,0.018413199999486096,0.05311290000099689,0.060047599999961676,0.10169900000255438,0.10863969999991241,1.0044735000010405,1420.5863069000006,1424.5792208999992,,,,,,,,,,,,,,,,,,,,,,,,,,,,,7,B,2023-12-07_13h31.45.691,gca_avoidance_task,2022.2.4,144.04634835045738,
positions.xlsx,stimuli.xlsx,stimuli/Social2.png,stimuli/Social1.png,stimuli/Nonsocial1.png,stimuli/Nonsocial2.png,,"(-0.7, 0.5)",cs_plus_ns,,,,,0,0,0,0,,,,,,,,,2,15,47,8,,,,,,,,,,,,,,,,,,,,,,,,,,,,,,,,,,,,,,,,,,,,,,,,,,,,,,,,,,1425.0860933000004,1426.3430542999995,1424.5792208999992,1426.3430542999995,1426.3430542999995,1426.3430542999995,0.006086000001232605,0.013131700001395075,200,shock,1,[0.2500541000008525],[0.2500585999987379],1426.5999336000023,1426.5999336000023,0.00766010000006645,0.00766010000006645,0.018526899999415036,0.05325689999881433,0.06020709999938845,0.10182689999783179,0.10875989999840385,1.004533999999694,1430.092921800002,1434.0858321000014,,,,,,,,,,,,,,,,,,,,,,,,,,,,,7,B,2023-12-07_13h31.45.691,gca_avoidance_task,2022.2.4,144.04634835045738,
positions.xlsx,stimuli.xlsx,stimuli/Social2.png,stimuli/Social1.png,stimuli/Nonsocial1.png,stimuli/Nonsocial2.png,,"(0.7, -0.5)",cs_plus_s,,,,,0,0,0,0,,,,,,,,,3,0,48,3,,,,,,,,,,,,,,,,,,,,,,,,,,,,,,,,,,,,,,,,,,,,,,,,,,,,,,,,,,1434.5926747000012,1436.287067199999,1434.0858321000014,1436.287067199999,1436.287067199999,1436.287067199999,0.0067930000004707836,0.01336029999947641,200,none,0,,,1441.2938495000017,1441.2938495000017,0.014092199999140576,0.014092199999140576,0.020148300001892494,0.05479580000246642,0.06178080000245245,0.10345389999929466,0.1103599000016402,1.0131078000013076,1444.7867598000012,1449.0505054000023,,,,,,,,,,,,,,,,,,,,,,,,,,,,,7,B,2023-12-07_13h31.45.691,gca_avoidance_task,2022.2.4,144.04634835045738,
positions.xlsx,stimuli.xlsx,stimuli/Social2.png,stimuli/Social1.png,stimuli/Nonsocial1.png,stimuli/Nonsocial2.png,,"(-0.7, -0.5)",cs_minus_ns,,,,,0,0,0,0,,,,,,,,,3,1,49,13,,,,,,,,,,,,,,,,,,,,,,,,,,,,,,,,,,,,,,,,,,,,,,,,,,,,,,,,,,1449.5573666000018,1450.9392451000022,1449.0505054000023,1450.9392451000022,1450.9392451000022,1450.9392451000022,0.006727600000886014,0.012905200001114281,205,reward,1,[0.5353059000008216],[0.5353107000009913],1451.4809143999992,1451.4809143999992,0.007464599999366328,0.007464599999366328,0.018050400001811795,0.05264730000271811,0.05960540000160108,0.10127490000013495,0.10821370000121533,1.0040544000003138,1454.973849099999,1459.2930979000012,,,,,,,,,,,,,,,,,,,,,,,,,,,,,7,B,2023-12-07_13h31.45.691,gca_avoidance_task,2022.2.4,144.04634835045738,
positions.xlsx,stimuli.xlsx,stimuli/Social2.png,stimuli/Social1.png,stimuli/Nonsocial1.png,stimuli/Nonsocial2.png,,"(-0.7, 0.5)",cs_plus_ns,,,,,0,0,0,0,,,,,,,,,3,2,50,8,,,,,,,,,,,,,,,,,,,,,,,,,,,,,,,,,,,,,,,,,,,,,,,,,,,,,,,,,,1459.8000070000016,1461.3832900000016,1459.2930979000012,1461.3832900000016,1461.3832900000016,1461.3832900000016,0.0063147000000753906,0.013014199997996911,205,none,0,,,1466.3900510000021,1466.3900510000021,0.013912700000219047,0.013912700000219047,0.019790499998634914,0.05444859999988694,0.061358999999356456,0.10303409999687574,0.10997739999947953,1.0127850999997463,1469.8829695999993,1474.0147808000002,,,,,,,,,,,,,,,,,,,,,,,,,,,,,7,B,2023-12-07_13h31.45.691,gca_avoidance_task,2022.2.4,144.04634835045738,
positions.xlsx,stimuli.xlsx,stimuli/Social2.png,stimuli/Social1.png,stimuli/Nonsocial1.png,stimuli/Nonsocial2.png,,"(0.7, -0.5)",cs_plus_ns,,,,,0,0,0,0,,,,,,,,,3,3,51,11,,,,,,,,,,,,,,,,,,,,,,,,,,,,,,,,,,,,,,,,,,,,,,,,,,,,,,,,,,1474.5216426000006,1475.7785718000014,1474.0147808000002,1475.7785718000014,1475.7785718000014,1475.7785718000014,0.006332900000415975,0.013358100000914419,205,none,0,,,1480.7852988000013,1480.7852988000013,0.014439900001889328,0.014439900001889328,0.02007680000315304,0.054709900003217626,0.061699900001258356,0.1033588000027521,0.11026310000306694,1.013051900001301,1484.2782346000022,1488.521128700002,,,,,,,,,,,,,,,,,,,,,,,,,,,,,7,B,2023-12-07_13h31.45.691,gca_avoidance_task,2022.2.4,144.04634835045738,
positions.xlsx,stimuli.xlsx,stimuli/Social2.png,stimuli/Social1.png,stimuli/Nonsocial1.png,stimuli/Nonsocial2.png,,"(0.7, -0.5)",cs_minus_ns,,,,,0,0,0,0,,,,,,,,,3,4,52,15,,,,,,,,,,,,,,,,,,,,,,,,,,,,,,,,,,,,,,,,,,,,,,,,,,,,,,,,,,1489.0283240999997,1490.3682346000023,1488.521128700002,1490.3682346000023,1490.3682346000023,1490.3682346000023,0.00674050000088755,0.013298600002599414,210,reward,1,[0.4933887000006507],[0.4934056000020064],1490.8682172000008,1490.8682172000008,0.008381699997698888,0.008381699997698888,0.018411299999570474,0.053125899998121895,0.060077299996919464,0.10174459999689134,0.1087067999978899,1.00443919999816,1494.3611773000011,1498.0068745999997,,,,,,,,,,,,,,,,,,,,,,,,,,,,,7,B,2023-12-07_13h31.45.691,gca_avoidance_task,2022.2.4,144.04634835045738,
positions.xlsx,stimuli.xlsx,stimuli/Social2.png,stimuli/Social1.png,stimuli/Nonsocial1.png,stimuli/Nonsocial2.png,,"(-0.7, -0.5)",cs_minus_s,,,,,0,0,0,0,,,,,,,,,3,5,53,5,,,,,,,,,,,,,,,,,,,,,,,,,,,,,,,,,,,,,,,,,,,,,,,,,,,,,,,,,,1498.5137556000009,1500.3331464000003,1498.0068745999997,1500.3331464000003,1500.3331464000003,1500.3331464000003,0.005957299999863608,0.013120199997501913,215,reward,1,[0.6182229000005464],[0.6182275999999547],1500.9581357999996,1500.9581357999996,0.006681500002741814,0.006681500002741814,0.018262800000229618,0.0529184000006353,0.05986040000061621,0.10152970000126516,0.10849270000107936,1.004303500001697,1504.4510532000022,1508.7425616,,,,,,,,,,,,,,,,,,,,,,,,,,,,,7,B,2023-12-07_13h31.45.691,gca_avoidance_task,2022.2.4,144.04634835045738,
positions.xlsx,stimuli.xlsx,stimuli/Social2.png,stimuli/Social1.png,stimuli/Nonsocial1.png,stimuli/Nonsocial2.png,,"(0.7, 0.5)",cs_plus_s,,,,,0,0,0,0,,,,,,,,,3,6,54,2,,,,,,,,,,,,,,,,,,,,,,,,,,,,,,,,,,,,,,,,,,,,,,,,,,,,,,,,,,1509.2494729999999,1510.902149900001,1508.7425616,1510.902149900001,1510.902149900001,1510.902149900001,0.006343500001094071,0.01333120000344934,215,none,0,,,1515.908949200002,1515.908949200002,0.013425000001006993,0.013425000001006993,0.020138600000791484,0.05482710000069346,0.06177690000185976,0.10340140000334941,0.1103731000002881,1.0130665000033332,1519.4018738000013,1523.4017182000025,,,,,,,,,,,,,,,,,,,,,,,,,,,,,7,B,2023-12-07_13h31.45.691,gca_avoidance_task,2022.2.4,144.04634835045738,
positions.xlsx,stimuli.xlsx,stimuli/Social2.png,stimuli/Social1.png,stimuli/Nonsocial1.png,stimuli/Nonsocial2.png,,"(-0.7, 0.5)",cs_minus_s,,,,,0,0,0,0,,,,,,,,,3,7,55,4,,,,,,,,,,,,,,,,,,,,,,,,,,,,,,,,,,,,,,,,,,,,,,,,,,,,,,,,,,1523.9085817000014,1525.3599657000013,1523.4017182000025,1525.3599657000013,1525.3599657000013,1525.3599657000013,0.005887200000870507,0.013433700001769466,220,reward,1,[0.47963590000290424],[0.48644940000303905],1525.8529854000008,1525.8529854000008,0.006902099998114863,0.006902099998114863,0.018448299997544382,0.0531048999982886,0.0601074999976845,0.10171669999908772,0.10871649999899091,1.0044306999989203,1529.3459398000014,1533.2554588999992,,,,,,,,,,,,,,,,,,,,,,,,,,,,,7,B,2023-12-07_13h31.45.691,gca_avoidance_task,2022.2.4,144.04634835045738,
positions.xlsx,stimuli.xlsx,stimuli/Social2.png,stimuli/Social1.png,stimuli/Nonsocial1.png,stimuli/Nonsocial2.png,,"(0.7, 0.5)",cs_plus_ns,,,,,0,0,0,0,,,,,,,,,3,8,56,10,,,,,,,,,,,,,,,,,,,,,,,,,,,,,,,,,,,,,,,,,,,,,,,,,,,,,,,,,,1533.7623663000013,1535.1303961000012,1533.2554588999992,1535.1303961000012,1535.1303961000012,1535.1303961000012,0.006420600002456922,0.013506499999493826,220,none,0,,,1540.137123200002,1540.137123200002,0.014257599999837112,0.014257599999837112,0.02019800000198302,0.054904100001294864,0.06190939999942202,0.10347589999946649,0.11044050000054995,1.013224700000137,1543.6300383000016,1548.0326848000004,,,,,,,,,,,,,,,,,,,,,,,,,,,,,7,B,2023-12-07_13h31.45.691,gca_avoidance_task,2022.2.4,144.04634835045738,
positions.xlsx,stimuli.xlsx,stimuli/Social2.png,stimuli/Social1.png,stimuli/Nonsocial1.png,stimuli/Nonsocial2.png,,"(-0.7, -0.5)",cs_plus_s,,,,,0,0,0,0,,,,,,,,,3,9,57,1,,,,,,,,,,,,,,,,,,,,,,,,,,,,,,,,,,,,,,,,,,,,,,,,,,,,,,,,,,1548.5395658000016,1550.1506131000024,1548.0326848000004,1550.1506131000024,1550.1506131000024,1550.1506131000024,0.005553300001338357,0.012977800000953721,220,none,0,,,1555.1573487000023,1555.1573487000023,0.013799100001051556,0.013799100001051556,0.019720199998118915,0.05439290000140318,0.06136530000003404,0.10303550000026007,0.11000109999804408,1.0127388000000792,1558.6502723000012,1562.5321143,,,,,,,,,,,,,,,,,,,,,,,,,,,,,7,B,2023-12-07_13h31.45.691,gca_avoidance_task,2022.2.4,144.04634835045738,
positions.xlsx,stimuli.xlsx,stimuli/Social2.png,stimuli/Social1.png,stimuli/Nonsocial1.png,stimuli/Nonsocial2.png,,"(0.7, 0.5)",cs_minus_ns,,,,,0,0,0,0,,,,,,,,,3,10,58,14,,,,,,,,,,,,,,,,,,,,,,,,,,,,,,,,,,,,,,,,,,,,,,,,,,,,,,,,,,1563.038980600002,1564.4417040000008,1562.5321143,1564.4417040000008,1564.4417040000008,1564.4417040000008,0.006764099998690654,0.012950199998158496,225,reward,1,[0.5351109000002907],[0.5416011999986949],1564.9903479000022,1564.9903479000022,0.00867870000001858,0.00867870000001858,0.018533800001023337,0.053156900001340546,0.06010999999853084,0.1017692999994324,0.10872329999983776,1.0045041000012134,1568.4832556000001,1572.0178324000008,,,,,,,,,,,,,,,,,,,,,,,,,,,,,7,B,2023-12-07_13h31.45.691,gca_avoidance_task,2022.2.4,144.04634835045738,
positions.xlsx,stimuli.xlsx,stimuli/Social2.png,stimuli/Social1.png,stimuli/Nonsocial1.png,stimuli/Nonsocial2.png,,"(0.7, 0.5)",cs_minus_s,,,,,0,0,0,0,,,,,,,,,3,11,59,6,,,,,,,,,,,,,,,,,,,,,,,,,,,,,,,,,,,,,,,,,,,,,,,,,,,,,,,,,,1572.5247020999996,1574.010788800002,1572.0178324000008,1574.010788800002,1574.010788800002,1574.010788800002,0.006119900001067435,0.012932500001625158,230,reward,1,[0.812505500001862],[0.8125103999991552],1574.830183099999,1574.830183099999,0.00694169999769656,0.00694169999769656,0.018326499997783685,0.0529750999994576,0.0599142999999458,0.10162139999738429,0.10858439999719849,1.004377099998237,1578.3231669000015,1581.8855055000022,,,,,,,,,,,,,,,,,,,,,,,,,,,,,7,B,2023-12-07_13h31.45.691,gca_avoidance_task,2022.2.4,144.04634835045738,
positions.xlsx,stimuli.xlsx,stimuli/Social2.png,stimuli/Social1.png,stimuli/Nonsocial1.png,stimuli/Nonsocial2.png,,"(-0.7, -0.5)",cs_plus_ns,,,,,0,0,0,0,,,,,,,,,3,12,60,9,,,,,,,,,,,,,,,,,,,,,,,,,,,,,,,,,,,,,,,,,,,,,,,,,,,,,,,,,,1582.392447000002,1583.5173729000016,1581.8855055000022,1583.5173729000016,1583.5173729000016,1583.5173729000016,0.006602900000871159,0.013210600001912098,230,none,0,,,1588.5241190000015,1588.5241190000015,0.014266199999838136,0.014266199999838136,0.019942599999922095,0.05461429999922984,0.061582099999213824,0.10320090000095661,0.1101492000016151,1.0129152000008617,1592.0170498000007,1595.9821924000025,,,,,,,,,,,,,,,,,,,,,,,,,,,,,7,B,2023-12-07_13h31.45.691,gca_avoidance_task,2022.2.4,144.04634835045738,
positions.xlsx,stimuli.xlsx,stimuli/Social2.png,stimuli/Social1.png,stimuli/Nonsocial1.png,stimuli/Nonsocial2.png,,"(-0.7, 0.5)",cs_minus_ns,,,,,0,0,0,0,,,,,,,,,3,13,61,12,,,,,,,,,,,,,,,,,,,,,,,,,,,,,,,,,,,,,,,,,,,,,,,,,,,,,,,,,,1596.489093600001,1597.8917958999991,1595.9821924000025,1597.8917958999991,1597.8917958999991,1597.8917958999991,0.00644069999907515,0.012994599997909972,235,reward,1,[0.45132989999910933],[0.45133480000004056],1598.3501203000014,1598.3501203000014,0.0077039999996486586,0.0077039999996486586,0.018509800000174437,0.053113599999051075,0.060123100000055274,0.10175270000036107,0.10873899999933201,1.0044885000024806,1601.8430184999997,1605.5512655999992,,,,,,,,,,,,,,,,,,,,,,,,,,,,,7,B,2023-12-07_13h31.45.691,gca_avoidance_task,2022.2.4,144.04634835045738,
positions.xlsx,stimuli.xlsx,stimuli/Social2.png,stimuli/Social1.png,stimuli/Nonsocial1.png,stimuli/Nonsocial2.png,,"(0.7, -0.5)",cs_minus_s,,,,,0,0,0,0,,,,,,,,,3,14,62,7,,,,,,,,,,,,,,,,,,,,,,,,,,,,,,,,,,,,,,,,,,,,,,,,,,,,,,,,,,1606.0581299000005,1607.1622707999995,1605.5512655999992,1607.1622707999995,1607.1622707999995,1607.1622707999995,0.005760199997894233,0.013195299998187693,240,reward,1,[0.22941540000101668],[0.229420100000425],1607.3984043000019,1607.3984043000019,0.006734200000209967,0.006734200000209967,0.018594500001199776,0.05323520000092685,0.06020359999820357,0.10181910000028438,0.10885620000044582,1.004553599999781,1610.8912751000025,1614.6203145,,,,,,,,,,,,,,,,,,,,,,,,,,,,,7,B,2023-12-07_13h31.45.691,gca_avoidance_task,2022.2.4,144.04634835045738,
positions.xlsx,stimuli.xlsx,stimuli/Social2.png,stimuli/Social1.png,stimuli/Nonsocial1.png,stimuli/Nonsocial2.png,,"(-0.7, 0.5)",cs_plus_s,,,,,0,0,0,0,,,,,,,,,3,15,63,0,,,,,,,,,,,,,,,,,,,,,,,,,,,,,,,,,,,,,,,,,,,,,,,,,,,,,,,,,,1615.1272027000014,1616.349382100001,1614.6203145,1616.349382100001,1616.349382100001,1616.349382100001,0.005531800001335796,0.01311619999978575,240,none,0,,,1621.3561365000023,1621.3561365000023,0.013356100000237348,0.013356100000237348,0.0199097000004258,0.054565400001592934,0.06151710000267485,0.10315489999993588,0.11012250000203494,1.0129142000005231,1624.8490782000008,1629.0919652000011,,,,,,,,,,,,,,,,,,,,,,,,,,,,,7,B,2023-12-07_13h31.45.691,gca_avoidance_task,2022.2.4,144.04634835045738,
positions.xlsx,stimuli.xlsx,stimuli/Social2.png,stimuli/Social1.png,stimuli/Nonsocial1.png,stimuli/Nonsocial2.png,,"(0.7, 0.5)",cs_plus_s,,,,,0,0,0,0,,,,,,,,,4,0,64,2,,,,,,,,,,,,,,,,,,,,,,,,,,,,,,,,,,,,,,,,,,,,,,,,,,,,,,,,,,1629.5988505000023,1631.0363137999993,1629.0919652000011,1631.0363137999993,1631.0363137999993,1631.0363137999993,0.00586729999849922,0.013102199998684227,240,none,0,,,1636.043056800001,1636.043056800001,0.013374499998462852,0.013374499998462852,0.019876999998814426,0.054519699999218574,0.06147229999987758,0.10314499999731197,0.11011359999974957,1.0128368999976374,1639.5360170999993,1643.3553073000003,,,,,,,,,,,,,,,,,,,,,,,,,,,,,7,B,2023-12-07_13h31.45.691,gca_avoidance_task,2022.2.4,144.04634835045738,
positions.xlsx,stimuli.xlsx,stimuli/Social2.png,stimuli/Social1.png,stimuli/Nonsocial1.png,stimuli/Nonsocial2.png,,"(0.7, 0.5)",cs_minus_s,,,,,0,0,0,0,,,,,,,,,4,1,65,6,,,,,,,,,,,,,,,,,,,,,,,,,,,,,,,,,,,,,,,,,,,,,,,,,,,,,,,,,,1643.8621932000024,1645.1329366999998,1643.3553073000003,1645.1329366999998,1645.1329366999998,1645.1329366999998,0.005991300000459887,0.013071800000034273,245,reward,1,[0.5139269999999669],[0.5139317000030132],1645.653801700002,1645.653801700002,0.0071950000019569416,0.0071950000019569416,0.01857210000162013,0.05332730000009178,0.06021899999905145,0.10184740000113379,0.10879389999900013,1.004584900001646,1649.1467118,1653.466045199999,,,,,,,,,,,,,,,,,,,,,,,,,,,,,7,B,2023-12-07_13h31.45.691,gca_avoidance_task,2022.2.4,144.04634835045738,
positions.xlsx,stimuli.xlsx,stimuli/Social2.png,stimuli/Social1.png,stimuli/Nonsocial1.png,stimuli/Nonsocial2.png,,"(-0.7, -0.5)",cs_minus_ns,,,,,0,0,0,0,,,,,,,,,4,2,66,13,,,,,,,,,,,,,,,,,,,,,,,,,,,,,,,,,,,,,,,,,,,,,,,,,,,,,,,,,,1653.9729060999998,1655.382606700001,1653.466045199999,1655.382606700001,1655.382606700001,1655.382606700001,0.006976999997277744,0.013376499999139924,250,reward,1,[0.47942849999890313],[0.48681650000071386],1655.8755987000004,1655.8755987000004,0.007218099999590777,0.007218099999590777,0.018484099997294834,0.053131099997699494,0.060188699997524964,0.10173469999790541,0.10872079999899142,1.0045117999979993,1659.3685700999995,1663.4239534000008,,,,,,,,,,,,,,,,,,,,,,,,,,,,,7,B,2023-12-07_13h31.45.691,gca_avoidance_task,2022.2.4,144.04634835045738,
positions.xlsx,stimuli.xlsx,stimuli/Social2.png,stimuli/Social1.png,stimuli/Nonsocial1.png,stimuli/Nonsocial2.png,,"(0.7, -0.5)",cs_minus_ns,,,,,0,0,0,0,,,,,,,,,4,3,67,15,,,,,,,,,,,,,,,,,,,,,,,,,,,,,,,,,,,,,,,,,,,,,,,,,,,,,,,,,,1663.9308364999997,1665.6113403000018,1663.4239534000008,1665.6113403000018,1665.6113403000018,1665.6113403000018,0.006506500001705717,0.013064800001302501,255,reward,1,[0.3473517000020365],[0.35424369999964256],1665.9724924000002,1665.9724924000002,0.007653299999219598,0.007653299999219598,0.01834249999956228,0.05295489999843994,0.059907399998337496,0.10154209999745945,0.10845479999989038,1.00428539999848,1669.4654216000017,1673.6666399999995,,,,,,,,,,,,,,,,,,,,,,,,,,,,,7,B,2023-12-07_13h31.45.691,gca_avoidance_task,2022.2.4,144.04634835045738,
positions.xlsx,stimuli.xlsx,stimuli/Social2.png,stimuli/Social1.png,stimuli/Nonsocial1.png,stimuli/Nonsocial2.png,,"(-0.7, 0.5)",cs_minus_ns,,,,,0,0,0,0,,,,,,,,,4,4,68,12,,,,,,,,,,,,,,,,,,,,,,,,,,,,,,,,,,,,,,,,,,,,,,,,,,,,,,,,,,1674.1735010000011,1675.458172499999,1673.6666399999995,1675.458172499999,1675.458172499999,1675.458172499999,0.007067800001095748,0.013034600000537466,260,reward,1,[0.34726020000016433],[0.3472650000003341],1675.812367800001,1675.812367800001,0.00810260000071139,0.00810260000071139,0.01849249999941094,0.053094399998371955,0.06002509999962058,0.10172279999824241,0.1086868999991566,1.0044529999977385,1679.3052543000013,1683.6870589999999,,,,,,,,,,,,,,,,,,,,,,,,,,,,,7,B,2023-12-07_13h31.45.691,gca_avoidance_task,2022.2.4,144.04634835045738,
positions.xlsx,stimuli.xlsx,stimuli/Social2.png,stimuli/Social1.png,stimuli/Nonsocial1.png,stimuli/Nonsocial2.png,,"(-0.7, 0.5)",cs_minus_s,,,,,0,0,0,0,,,,,,,,,4,5,69,4,,,,,,,,,,,,,,,,,,,,,,,,,,,,,,,,,,,,,,,,,,,,,,,,,,,,,,,,,,1684.193929699999,1685.7911089000008,1683.6870589999999,1685.7911089000008,1685.7911089000008,1685.7911089000008,0.00562299999728566,0.013043999999354128,265,reward,1,[0.5833542000000307],[0.5833590999973239],1686.3813408000024,1686.3813408000024,0.007579500001156703,0.007579500001156703,0.018326299999898765,0.05303210000056424,0.059955900000204565,0.10166940000272007,0.10861710000244784,1.004374900003313,1689.8743350000004,1693.575546,,,,,,,,,,,,,,,,,,,,,,,,,,,,,7,B,2023-12-07_13h31.45.691,gca_avoidance_task,2022.2.4,144.04634835045738,
positions.xlsx,stimuli.xlsx,stimuli/Social2.png,stimuli/Social1.png,stimuli/Nonsocial1.png,stimuli/Nonsocial2.png,,"(0.7, -0.5)",cs_minus_s,,,,,0,0,0,0,,,,,,,,,4,6,70,7,,,,,,,,,,,,,,,,,,,,,,,,,,,,,,,,,,,,,,,,,,,,,,,,,,,,,,,,,,1694.0824125,1695.3948942000025,1693.575546,1695.3948942000025,1695.3948942000025,1695.3948942000025,0.006281199999648379,0.013267099999211496,270,reward,1,[0.3959501999997883],[0.4030287999994471],1695.8045930000008,1695.8045930000008,0.0075180000021646265,0.0075180000021646265,0.01832240000294405,0.05299600000216742,0.059902700002567144,0.10159900000144262,0.1085789000026125,1.004298200001358,1699.2975776000021,1703.1654574999993,,,,,,,,,,,,,,,,,,,,,,,,,,,,,7,B,2023-12-07_13h31.45.691,gca_avoidance_task,2022.2.4,144.04634835045738,
positions.xlsx,stimuli.xlsx,stimuli/Social2.png,stimuli/Social1.png,stimuli/Nonsocial1.png,stimuli/Nonsocial2.png,,"(-0.7, 0.5)",cs_plus_s,,,,,0,0,0,0,,,,,,,,,4,7,71,0,,,,,,,,,,,,,,,,,,,,,,,,,,,,,,,,,,,,,,,,,,,,,,,,,,,,,,,,,,1703.6723593999996,1705.4292031000004,1703.1654574999993,1705.4292031000004,1705.4292031000004,1705.4292031000004,0.006077099998947233,0.01341879999745288,270,shock,1,[0.7782946999977867],[0.778299399997195],1706.2138873000004,1706.2138873000004,0.007605699996929616,0.007605699996929616,0.018331499999476364,0.05300589999751537,0.05999639999936335,0.1016313000000082,0.1085700999974506,1.0043972999992548,1709.7068780000009,1714.0955746,,,,,,,,,,,,,,,,,,,,,,,,,,,,,7,B,2023-12-07_13h31.45.691,gca_avoidance_task,2022.2.4,144.04634835045738,
positions.xlsx,stimuli.xlsx,stimuli/Social2.png,stimuli/Social1.png,stimuli/Nonsocial1.png,stimuli/Nonsocial2.png,,"(-0.7, 0.5)",cs_plus_ns,,,,,0,0,0,0,,,,,,,,,4,8,72,8,,,,,,,,,,,,,,,,,,,,,,,,,,,,,,,,,,,,,,,,,,,,,,,,,,,,,,,,,,1714.6024615000024,1716.6023816000015,1714.0955746,1716.6023816000015,1716.6023816000015,1716.6023816000015,0.006775900001230184,0.013342700000066543,270,none,0,,,1721.6090952000013,1721.6090952000013,0.014981800002715318,0.014981800002715318,0.02010560000053374,0.05480380000153673,0.06179560000236961,0.10338190000038594,0.1103304999996908,1.013125299999956,1725.1021,1729.2963869000014,,,,,,,,,,,,,,,,,,,,,,,,,,,,,7,B,2023-12-07_13h31.45.691,gca_avoidance_task,2022.2.4,144.04634835045738,
positions.xlsx,stimuli.xlsx,stimuli/Social2.png,stimuli/Social1.png,stimuli/Nonsocial1.png,stimuli/Nonsocial2.png,,"(0.7, 0.5)",cs_plus_ns,,,,,0,0,0,0,,,,,,,,,4,9,73,10,,,,,,,,,,,,,,,,,,,,,,,,,,,,,,,,,,,,,,,,,,,,,,,,,,,,,,,,,,1729.8032582000014,1731.1920748000011,1729.2963869000014,1731.1920748000011,1731.1920748000011,1731.1920748000011,0.006907699997100281,0.01317410000046948,270,none,0,,,1736.198808000001,1736.198808000001,0.013585900000180118,0.013585900000180118,0.019957699998485623,0.05467499999940628,0.06159249999836902,0.1032863999971596,0.11020809999899939,1.012956899998244,1739.6917882000016,1743.3374952000013,,,,,,,,,,,,,,,,,,,,,,,,,,,,,7,B,2023-12-07_13h31.45.691,gca_avoidance_task,2022.2.4,144.04634835045738,
positions.xlsx,stimuli.xlsx,stimuli/Social2.png,stimuli/Social1.png,stimuli/Nonsocial1.png,stimuli/Nonsocial2.png,,"(0.7, -0.5)",cs_plus_s,,,,,0,0,0,0,,,,,,,,,4,10,74,3,,,,,,,,,,,,,,,,,,,,,,,,,,,,,,,,,,,,,,,,,,,,,,,,,,,,,,,,,,1743.844376500001,1745.6359823999992,1743.3374952000013,1745.6359823999992,1745.6359823999992,1745.6359823999992,0.0059465999984240625,0.013097499999275897,270,none,0,,,1750.6427416000006,1750.6427416000006,0.013840100000379607,0.013840100000379607,0.019859899999573827,0.054543499998544576,0.061518799997429596,0.10314879999714321,0.11009419999754755,1.0127729999985604,1754.135678499999,1757.698065200002,,,,,,,,,,,,,,,,,,,,,,,,,,,,,7,B,2023-12-07_13h31.45.691,gca_avoidance_task,2022.2.4,144.04634835045738,
positions.xlsx,stimuli.xlsx,stimuli/Social2.png,stimuli/Social1.png,stimuli/Nonsocial1.png,stimuli/Nonsocial2.png,,"(-0.7, -0.5)",cs_plus_s,,,,,0,0,0,0,,,,,,,,,4,11,75,1,,,,,,,,,,,,,,,,,,,,,,,,,,,,,,,,,,,,,,,,,,,,,,,,,,,,,,,,,,1758.2049024000007,1759.9270538000019,1757.698065200002,1759.9270538000019,1759.9270538000019,1759.9270538000019,0.006831799997598864,0.01307009999800357,270,none,0,,,1764.9338100000023,1764.9338100000023,0.014387999999598833,0.014387999999598833,0.019882299999153474,0.054485799999383744,0.0615101000003051,0.10312659999908647,0.11007640000025276,1.012824699999328,1768.4267578,1772.5654830999993,,,,,,,,,,,,,,,,,,,,,,,,,,,,,7,B,2023-12-07_13h31.45.691,gca_avoidance_task,2022.2.4,144.04634835045738,
