posFile,stimFile,cs_plus_s,cs_minus_s,cs_plus_ns,cs_minus_ns,stimtype,position,trialtype,trials_threshold.thisRepN,trials_threshold.thisTrialN,trials_threshold.thisN,trials_threshold.thisIndex,blocks.thisRepN,blocks.thisTrialN,blocks.thisN,blocks.thisIndex,ratingtrials1.thisRepN,ratingtrials1.thisTrialN,ratingtrials1.thisN,ratingtrials1.thisIndex,learning_trials.thisRepN,learning_trials.thisTrialN,learning_trials.thisN,learning_trials.thisIndex,trials.thisRepN,trials.thisTrialN,trials.thisN,trials.thisIndex,ratingtrials2.thisRepN,ratingtrials2.thisTrialN,ratingtrials2.thisN,ratingtrials2.thisIndex,testtrials.thisRepN,testtrials.thisTrialN,testtrials.thisN,testtrials.thisIndex,ratingtrials3.thisRepN,ratingtrials3.thisTrialN,ratingtrials3.thisN,ratingtrials3.thisIndex,textStart.started,spaceStart.started,spaceStart.keys,spaceStart.rt,textPainThreshold.started,spacePainThreshold.started,spacePainThreshold.keys,spacePainThreshold.rt,textRateT.started,text_noPainT.started,text_slightPainT.started,text_highPainT.started,sliderPainT.started,keys_PainT.started,sliderPainT.response,sliderPainT.rt,keys_PainT.keys,keys_PainT.rt,fixcrossT.started,portShock1T.started,portShock1T.stopped,portShock2T.started,portShock2T.stopped,portShock3T.started,portShock3T.stopped,fixcrossT.stopped,text_ETCalibration.started,spaceETCalibration.started,spaceETCalibration.keys,spaceETCalibration.rt,textStartExp.started,spaceStartExp.started,spaceStartExp.keys,spaceStartExp.rt,imageRating.started,sliderStim.started,spaceStim.started,sliderStim.response,sliderStim.rt,spaceStim.keys,spaceStim.rt,textStartTask.started,spaceStartTask.started,spaceStartTask.keys,spaceStartTask.rt,blankScreen.started,blankScreen.stopped,fixcross.started,image.started,roi.started,gazeCursor.started,portImage.started,portImage.stopped,score,outcome,roi.numLooks,roi.timesOn,roi.timesOff,imageFeedback.started,gazeCursor_Feedback.started,soundFeedback.started,portShock1.started,portShock1.stopped,portShock2.started,portShock2.stopped,portShock3.started,portShock3.stopped,soundFeedback.stopped,fixcrossE.started,fixcrossE.stopped,textRepeatTask.started,textboxRepeatInstruction.started,textRepeatSpace.started,spaceRepeatTask.started,spaceRepeatTask.keys,spaceRepeatTask.rt,textRate.started,text_noPain.started,text_slightPain.started,text_highPain.started,sliderPain.started,textSpacePain.started,spacePain.started,sliderPain.response,sliderPain.rt,spacePain.keys,spacePain.rt,textTestInstr.started,spaceTestInstr.started,spaceTestInstr.keys,spaceTestInstr.rt,imageTest.started,roiTest.started,portTestImage.started,portTestImage.stopped,roiTest.numLooks,roiTest.timesOn,roiTest.timesOff,participant,group,date,expName,psychopyVersion,frameRate,
,,,,,,,,,,,,,,,,,,,,,,,,,,,,,,,,,,,,,,,,,24.94242400000803,24.94242400000803,space,2.950047699996503,,,,,,,,,,,,,,,,,,,,,,,,,,,,,,,,,,,,,,,,,,,,,,,,,,,,,,,,,,,,,,,,,,,,,,,,,,,,,,,,,,,,,,,,,,,,,,,13,C,2023-12-08_13h02.10.319,gca_avoidance_task,2022.2.4,143.97811534755257,
,,,,,,,,,,,,,,,,,,,,,,,,,,,,,,,,,,,,,,,,,,,,,27.900573200007784,27.900573200007784,space,1.455541200004518,,,,,,,,,,,,,,,,,,,,,,,,,,,,,,,,,,,,,,,,,,,,,,,,,,,,,,,,,,,,,,,,,,,,,,,,,,,,,,,,,,,,,,,,,,,13,C,2023-12-08_13h02.10.319,gca_avoidance_task,2022.2.4,143.97811534755257,
,,,,,,,,,0,0,0,0,,,,,,,,,,,,,,,,,,,,,,,,,,,,,,,,,,,,,30.400520900002448,30.400520900002448,30.400520900002448,30.400520900002448,30.400520900002448,30.400520900002448,None,None,s,19.41258280001057,50.406638800006476,0.10216169999330305,0.10911279999709222,0.15077979999477975,0.15771719999611378,0.1993637999985367,0.2063138999947114,51.17048520001117,,,,,,,,,,,,,,,,,,,,,,,,,,,,,,,,,,,,,,,,,,,,,,,,,,,,,,,,,,,,,,,,,,,,,,,,,13,C,2023-12-08_13h02.10.319,gca_avoidance_task,2022.2.4,143.97811534755257,
,,,,,,,,,1,0,1,0,,,,,,,,,,,,,,,,,,,,,,,,,,,,,,,,,,,,,51.17048520001117,51.17048520001117,51.17048520001117,51.17048520001117,51.17048520001117,51.17048520001117,0.0,7.028291299997363,s,10.201785800003563,61.98950860000332,0.10339299999759533,0.1104124999983469,0.15205309999873862,0.15900210000108927,0.20067330000165384,0.20760949999385048,62.74643550001201,,,,,,,,,,,,,,,,,,,,,,,,,,,,,,,,,,,,,,,,,,,,,,,,,,,,,,,,,,,,,,,,,,,,,,,,,13,C,2023-12-08_13h02.10.319,gca_avoidance_task,2022.2.4,143.97811534755257,
,,,,,,,,,2,0,2,0,,,,,,,,,,,,,,,,,,,,,,,,,,,,,,,,,,,,,62.74643550001201,62.74643550001201,62.74643550001201,62.74643550001201,62.74643550001201,62.74643550001201,1.0,1.9824407999985851,s,8.906187699991278,72.16268890000356,0.09993799999938346,0.10693620001256932,0.15549499999906402,0.16249620000598952,0.20412010001018643,0.21107070001016837,72.98212050000438,,,,,,,,,,,,,,,,,,,,,,,,,,,,,,,,,,,,,,,,,,,,,,,,,,,,,,,,,,,,,,,,,,,,,,,,,13,C,2023-12-08_13h02.10.319,gca_avoidance_task,2022.2.4,143.97811534755257,
,,,,,,,,,3,0,3,0,,,,,,,,,,,,,,,,,,,,,,,,,,,,,,,,,,,,,72.98212050000438,72.98212050000438,72.98212050000438,72.98212050000438,72.98212050000438,72.98212050000438,3.0,2.2644890999945346,s,8.071380300010787,81.57205919999979,0.10145529999863356,0.10840109999116976,0.15005599999858532,0.1570200999994995,0.20559959999809507,0.21256839999114163,82.4192550000007,,,,,,,,,,,,,,,,,,,,,,,,,,,,,,,,,,,,,,,,,,,,,,,,,,,,,,,,,,,,,,,,,,,,,,,,,13,C,2023-12-08_13h02.10.319,gca_avoidance_task,2022.2.4,143.97811534755257,
,,,,,,,,,4,0,4,0,,,,,,,,,,,,,,,,,,,,,,,,,,,,,,,,,,,,,82.4192550000007,82.4192550000007,82.4192550000007,82.4192550000007,82.4192550000007,82.4192550000007,5.0,3.6370740000129445,s,14.634069799998542,97.7033541000128,0.10329149999597576,0.11021879999316297,0.15187519999744836,0.15889819999574684,0.20048869999300223,0.20743569999467582,98.46025260000897,,,,,,,,,,,,,,,,,,,,,,,,,,,,,,,,,,,,,,,,,,,,,,,,,,,,,,,,,,,,,,,,,,,,,,,,,13,C,2023-12-08_13h02.10.319,gca_avoidance_task,2022.2.4,143.97811534755257,
,,,,,,,,,5,0,5,0,,,,,,,,,,,,,,,,,,,,,,,,,,,,,,,,,,,,,98.46025260000897,98.46025260000897,98.46025260000897,98.46025260000897,98.46025260000897,98.46025260000897,6.0,4.087055899988627,s,10.009040599994478,109.00846530000854,0.10161100000550505,0.10850560000108089,0.15017590000934433,0.15711600000213366,0.20574340000166558,0.21267320000333712,109.77231390000088,,,,,,,,,,,,,,,,,,,,,,,,,,,,,,,,,,,,,,,,,,,,,,,,,,,,,,,,,,,,,,,,,,,,,,,,,13,C,2023-12-08_13h02.10.319,gca_avoidance_task,2022.2.4,143.97811534755257,
,,,,,,,,,6,0,6,0,,,,,,,,,,,,,,,,,,,,,,,,,,,,,,,,,,,,,109.77231390000088,109.77231390000088,109.77231390000088,109.77231390000088,109.77231390000088,109.77231390000088,6.0,2.0618990999937523,s,7.503839199998765,117.85536140001204,0.10085859999526292,0.10781709999719169,0.1494334000017261,0.156373399993754,0.20506540000496898,0.2119518999970751,118.61914230001275,,,,,,,,,,,,,,,,,,,,,,,,,,,,,,,,,,,,,,,,,,,,,,,,,,,,,,,,,,,,,,,,,,,,,,,,,13,C,2023-12-08_13h02.10.319,gca_avoidance_task,2022.2.4,143.97811534755257,
,,,,,,,,,7,0,7,0,,,,,,,,,,,,,,,,,,,,,,,,,,,,,,,,,,,,,118.61914230001275,118.61914230001275,118.61914230001275,118.61914230001275,118.61914230001275,118.61914230001275,7.0,1.58611689999816,s,8.425923699993291,127.55633840001246,0.10378390000551008,0.11073210000176914,0.15239309999742545,0.1593429000058677,0.2010253000044031,0.20799450000049546,128.3201931000076,,,,,,,,,,,,,,,,,,,,,,,,,,,,,,,,,,,,,,,,,,,,,,,,,,,,,,,,,,,,,,,,,,,,,,,,,13,C,2023-12-08_13h02.10.319,gca_avoidance_task,2022.2.4,143.97811534755257,
,,,,,,,,,8,0,8,0,,,,,,,,,,,,,,,,,,,,,,,,,,,,,,,,,,,,,128.3201931000076,128.3201931000076,128.3201931000076,128.3201931000076,128.3201931000076,128.3201931000076,6.0,1.466916899997159,s,6.957017699998687,135.77824830000463,0.09902799999690615,0.10598829999798909,0.15460239999811165,0.1615858000004664,0.20316499999898952,0.21012590000464115,136.54208190001373,,,,,,,,,,,,,,,,,,,,,,,,,,,,,,,,,,,,,,,,,,,,,,,,,,,,,,,,,,,,,,,,,,,,,,,,,13,C,2023-12-08_13h02.10.319,gca_avoidance_task,2022.2.4,143.97811534755257,
,,,,,,,,,9,0,9,0,,,,,,,,,,,,,,,,,,,,,,,,,,,,,,,,,,,,,136.54208190001373,136.54208190001373,136.54208190001373,136.54208190001373,136.54208190001373,136.54208190001373,4.0,2.1259510000090813,s,7.110624799999641,144.16678110000794,0.10373829999298323,0.11072479998983908,0.1523936000012327,0.15929669998877216,0.2010115000011865,0.20799399999668822,144.92367840000952,,,,,,,,,,,,,,,,,,,,,,,,,,,,,,,,,,,,,,,,,,,,,,,,,,,,,,,,,,,,,,,,,,,,,,,,,13,C,2023-12-08_13h02.10.319,gca_avoidance_task,2022.2.4,143.97811534755257,
,,,,,,,,,10,0,10,0,,,,,,,,,,,,,,,,,,,,,,,,,,,,,,,,,,,,,144.92367840000952,144.92367840000952,144.92367840000952,144.92367840000952,144.92367840000952,144.92367840000952,5.0,1.9812532999931136,s,7.769230999998399,153.27058039999974,0.10591839998960495,0.11287669999001082,0.1545445999945514,0.16147490000003017,0.20313009999517817,0.21011329999601003,,,,,,,,,,,,,,,,,,,,,,,,,,,,,,,,,,,,,,,,,,,,,,,,,,,,,,,,,,,,,,,,,,,,,,,,,,13,C,2023-12-08_13h02.10.319,gca_avoidance_task,2022.2.4,143.97811534755257,
,,,,,,,,,11,0,11,0,,,,,,,,,,,,,,,,,,,,,,,,,,,,,,,,,,,,,154.04136510001263,154.04136510001263,154.04136510001263,154.04136510001263,154.04136510001263,154.04136510001263,7.0,1.1987205000041286,s,7.7639344000053825,162.31879650001065,0.10068000000319444,0.10766660000081174,0.14927179999358486,0.15622180000355002,0.20485700000426732,0.21177399999578483,163.07574360001308,,,,,,,,,,,,,,,,,,,,,,,,,,,,,,,,,,,,,,,,,,,,,,,,,,,,,,,,,,,,,,,,,,,,,,,,,13,C,2023-12-08_13h02.10.319,gca_avoidance_task,2022.2.4,143.97811534755257,
,,,,,,,,,12,0,12,0,,,,,,,,,,,,,,,,,,,,,,,,,,,,,,,,,,,,,163.07574360001308,163.07574360001308,163.07574360001308,163.07574360001308,163.07574360001308,163.07574360001308,7.0,1.4828004000009969,s,7.705114399999729,171.29764630000864,0.10202599999320228,0.10895999999775086,0.15063119999831542,0.15762259998882655,0.199264899987611,0.2062479999876814,172.06149740000546,,,,,,,,,,,,,,,,,,,,,,,,,,,,,,,,,,,,,,,,,,,,,,,,,,,,,,,,,,,,,,,,,,,,,,,,,13,C,2023-12-08_13h02.10.319,gca_avoidance_task,2022.2.4,143.97811534755257,
,,,,,,,,,13,0,13,0,,,,,,,,,,,,,,,,,,,,,,,,,,,,,,,,,,,,,172.06149740000546,172.06149740000546,172.06149740000546,172.06149740000546,172.06149740000546,172.06149740000546,5.0,1.96351629999117,s,6.6387266000092495,179.234841100013,0.10286269999051001,0.1097077000013087,0.15145079999638256,0.15843369999493007,0.1999735999997938,0.20692499999131542,179.99866880000627,,,,,,,,,,,,,,,,,,,,,,,,,,,,,,,,,,,,,,,,,,,,,,,,,,,,,,,,,,,,,,,,,,,,,,,,,13,C,2023-12-08_13h02.10.319,gca_avoidance_task,2022.2.4,143.97811534755257,
,,,,,,,,,14,0,14,0,,,,,,,,,,,,,,,,,,,,,,,,,,,,,,,,,,,,,179.99866880000627,179.99866880000627,179.99866880000627,179.99866880000627,179.99866880000627,179.99866880000627,6.0,1.3035915999935241,g,12.669628599993302,193.18567290001374,,,,,,,,,,,,,,,,,,,,,,,,,,,,,,,,,,,,,,,,,,,,,,,,,,,,,,,,,,,,,,,,,,,,,,,,,,,,,,,,13,C,2023-12-08_13h02.10.319,gca_avoidance_task,2022.2.4,143.97811534755257,
,,,,,,,,,,,,,,,,,,,,,,,,,,,,,,,,,,,,,,,,,,,,,,,,,,,,,,,,,,,,,,,,,,,193.18567290001374,193.18567290001374,space,1.4912580999953207,,,,,,,,,,,,,,,,,,,,,,,,,,,,,,,,,,,,,,,,,,,,,,,,,,,,,,,,,,,,,,,,,,,,,13,C,2023-12-08_13h02.10.319,gca_avoidance_task,2022.2.4,143.97811534755257,
positions.xlsx,stimuli.xlsx,stimuli/Social1.png,stimuli/Social2.png,stimuli/Nonsocial2.png,stimuli/Nonsocial1.png,cs_minus_ns,,,,,,,0,0,0,0,0,0,0,3,,,,,,,,,,,,,,,,,,,,,,,,,,,,,,,,,,,,,,,,,,,,,,,,,,,367.88744590000715,367.88744590000715,space,23.141547500010347,391.0805306000111,391.0805306000111,398.3441203000111,6.0,8.000539999993634,space,1.7567920000001322,,,,,,,,,,,,,,,,,,,,,,,,,,,,,,,,,,,,,,,,,,,,,,,,,,,,,,,,,,13,C,2023-12-08_13h02.10.319,gca_avoidance_task,2022.2.4,143.97811534755257,
positions.xlsx,stimuli.xlsx,stimuli/Social1.png,stimuli/Social2.png,stimuli/Nonsocial2.png,stimuli/Nonsocial1.png,cs_plus_ns,,,,,,,0,0,0,0,0,1,1,1,,,,,,,,,,,,,,,,,,,,,,,,,,,,,,,,,,,,,,,,,,,,,,,,,,,,,,,400.13578229999985,400.13578229999985,402.69117400000687,5.0,2.547836900004768,space,0.9297895999916364,,,,,,,,,,,,,,,,,,,,,,,,,,,,,,,,,,,,,,,,,,,,,,,,,,,,,,,,,,13,C,2023-12-08_13h02.10.319,gca_avoidance_task,2022.2.4,143.97811534755257,
positions.xlsx,stimuli.xlsx,stimuli/Social1.png,stimuli/Social2.png,stimuli/Nonsocial2.png,stimuli/Nonsocial1.png,cs_minus_s,,,,,,,0,0,0,0,0,2,2,2,,,,,,,,,,,,,,,,,,,,,,,,,,,,,,,,,,,,,,,,,,,,,,,,,,,,,,,403.65644299999985,403.65644299999985,407.01044810000167,6.0,5.561927299990202,space,2.906932899990352,,,,,,,,,,,,,,,,,,,,,,,,,,,,,,,,,,,,,,,,,,,,,,,,,,,,,,,,,,13,C,2023-12-08_13h02.10.319,gca_avoidance_task,2022.2.4,143.97811534755257,
positions.xlsx,stimuli.xlsx,stimuli/Social1.png,stimuli/Social2.png,stimuli/Nonsocial2.png,stimuli/Nonsocial1.png,cs_plus_s,,,,,,,0,0,0,0,0,3,3,0,,,,,,,,,,,,,,,,,,,,,,,,,,,,,,,,,,,,,,,,,,,,,,,,,,,,,,,409.9478480000107,409.9478480000107,413.1629904000001,4.0,3.202322999990429,space,0.5056263000005856,,,,,,,,,,,,,,,,,,,,,,,,,,,,,,,,,,,,,,,,,,,,,,,,,,,,,,,,,,13,C,2023-12-08_13h02.10.319,gca_avoidance_task,2022.2.4,143.97811534755257,
positions.xlsx,stimuli.xlsx,stimuli/Social1.png,stimuli/Social2.png,stimuli/Nonsocial2.png,stimuli/Nonsocial1.png,,"(0.7, -0.5)",cs_minus_ns,,,,,0,0,0,0,,,,,0,0,0,15,,,,,,,,,,,,,,,,,,,,,,,,,,,,,,,,,,,,,,,,,,,,,,,,,,,,,,,,,,413.6837977000105,413.6837977000105,space,1.6415450999920722,418.2461070999998,419.63496940000914,417.74613180001325,419.63496940000914,419.63496940000914,419.63496940000914,0.015287800008081831,0.02038380000158213,5,reward,1,[0.18097050000505988],[0.18097440000565257],419.822482100004,419.822482100004,0.016249099993729033,0.016249099993729033,0.02575250000518281,0.053486100005102344,0.06038989999797195,0.10205739999946672,0.10900209999817889,1.0117631000030087,423.30842290000874,427.71104940000805,,,,,,,,,,,,,,,,,,,,,,,,,,,,,13,C,2023-12-08_13h02.10.319,gca_avoidance_task,2022.2.4,143.97811534755257,
positions.xlsx,stimuli.xlsx,stimuli/Social1.png,stimuli/Social2.png,stimuli/Nonsocial2.png,stimuli/Nonsocial1.png,,"(0.7, 0.5)",cs_plus_ns,,,,,0,0,0,0,,,,,0,1,1,10,,,,,,,,,,,,,,,,,,,,,,,,,,,,,,,,,,,,,,,,,,,,,,,,,,,,,,,,,,,,,,428.21794950000185,429.52346000001126,427.71104940000805,429.52346000001126,429.52346000001126,429.52346000001126,0.006816499997512437,0.013003200001548976,5,shock,1,[0.19441379999625497],[0.19441740000911523],429.72483860001375,429.72483860001375,0.008669600007124245,0.008669600007124245,0.018665399999008514,0.053350500005763024,0.06032720000075642,0.101878300003591,0.10884000000078231,1.0046179000055417,433.21777770000335,437.40510110001196,,,,,,,,,,,,,,,,,,,,,,,,,,,,,13,C,2023-12-08_13h02.10.319,gca_avoidance_task,2022.2.4,143.97811534755257,
positions.xlsx,stimuli.xlsx,stimuli/Social1.png,stimuli/Social2.png,stimuli/Nonsocial2.png,stimuli/Nonsocial1.png,,"(-0.7, 0.5)",cs_plus_s,,,,,0,0,0,0,,,,,0,2,2,0,,,,,,,,,,,,,,,,,,,,,,,,,,,,,,,,,,,,,,,,,,,,,,,,,,,,,,,,,,,,,,437.91200510000635,438.9813947000075,437.40510110001196,438.9813947000075,438.9813947000075,438.9813947000075,0.0057809999998426065,0.013000600010855123,5,shock,1,[0.1945514999970328],[0.19455529999686405],439.17583400000876,439.17583400000876,0.0071161000087158754,0.0071161000087158754,0.011672300010104664,0.05328360000567045,0.06031250000523869,0.10190770000917837,0.10888540001178626,1.0046448000066448,442.67573110001103,446.57140290000825,,,,,,,,,,,,,,,,,,,,,,,,,,,,,13,C,2023-12-08_13h02.10.319,gca_avoidance_task,2022.2.4,143.97811534755257,
positions.xlsx,stimuli.xlsx,stimuli/Social1.png,stimuli/Social2.png,stimuli/Nonsocial2.png,stimuli/Nonsocial1.png,,"(0.7, -0.5)",cs_minus_s,,,,,0,0,0,0,,,,,0,3,3,7,,,,,,,,,,,,,,,,,,,,,,,,,,,,,,,,,,,,,,,,,,,,,,,,,,,,,,,,,,,,,,447.07831470000383,448.88384080000105,446.57140290000825,448.88384080000105,448.88384080000105,448.88384080000105,0.006053099990822375,0.01289439998799935,10,reward,1,[0.1670285000000149],[0.16703229999984615],449.05738580001344,449.05738580001344,0.0076957000128459185,0.0076957000128459185,0.01830290000361856,0.052974900012486614,0.059977000011713244,0.10158919999958016,0.10860669999965467,1.00437840000086,452.55040290000034,456.47376390000863,,,,,,,,,,,,,,,,,,,,,,,,,,,,,13,C,2023-12-08_13h02.10.319,gca_avoidance_task,2022.2.4,143.97811534755257,
positions.xlsx,stimuli.xlsx,stimuli/Social1.png,stimuli/Social2.png,stimuli/Nonsocial2.png,stimuli/Nonsocial1.png,,"(0.7, -0.5)",cs_plus_ns,,,,,0,0,0,0,,,,,0,4,4,11,,,,,,,,,,,,,,,,,,,,,,,,,,,,,,,,,,,,,,,,,,,,,,,,,,,,,,,,,,,,,,456.9807240000082,458.2167424000072,456.47376390000863,458.2167424000072,458.2167424000072,458.2167424000072,0.0066648000065470114,0.013102199998684227,10,shock,1,[0.1736654999986058],[0.17366929999843705],458.3972805000085,458.3972805000085,0.007918600007542409,0.007918600007542409,0.018557800009148195,0.05324980001023505,0.06021720000717323,0.101853400003165,0.10881620000873227,1.0045854000054533,461.8902133000083,466.24422320000303,,,,,,,,,,,,,,,,,,,,,,,,,,,,,13,C,2023-12-08_13h02.10.319,gca_avoidance_task,2022.2.4,143.97811534755257,
positions.xlsx,stimuli.xlsx,stimuli/Social1.png,stimuli/Social2.png,stimuli/Nonsocial2.png,stimuli/Nonsocial1.png,,"(-0.7, -0.5)",cs_plus_s,,,,,0,0,0,0,,,,,0,5,5,1,,,,,,,,,,,,,,,,,,,,,,,,,,,,,,,,,,,,,,,,,,,,,,,,,,,,,,,,,,,,,,466.75110900000436,468.75798690000374,466.24422320000303,468.75798690000374,468.75798690000374,468.75798690000374,0.0063563000003341585,0.013466499993228354,10,shock,1,[0.20176850000279956],[0.20177200000034645],468.9663131000125,468.9663131000125,0.007898199997725897,0.007898199997725897,0.01860599999781698,0.0532723999931477,0.060270899994065985,0.10192739999911282,0.10883139999350533,1.0046710000024177,472.4592393000057,476.2021633000113,,,,,,,,,,,,,,,,,,,,,,,,,,,,,13,C,2023-12-08_13h02.10.319,gca_avoidance_task,2022.2.4,143.97811534755257,
positions.xlsx,stimuli.xlsx,stimuli/Social1.png,stimuli/Social2.png,stimuli/Nonsocial2.png,stimuli/Nonsocial1.png,,"(-0.7, -0.5)",cs_plus_ns,,,,,0,0,0,0,,,,,0,6,6,9,,,,,,,,,,,,,,,,,,,,,,,,,,,,,,,,,,,,,,,,,,,,,,,,,,,,,,,,,,,,,,476.70909240000765,478.6187067000137,476.2021633000113,478.6187067000137,478.6187067000137,478.6187067000137,0.006829699996160343,0.013051099987933412,10,none,0,,,483.62546470000234,483.62546470000234,0.013989399987622164,0.013989399987622164,0.01983989999280311,0.05454929999541491,0.06142309999268036,0.10309150000102818,0.11008089999086224,1.012788099993486,487.1183807000052,491.2015731000138,,,,,,,,,,,,,,,,,,,,,,,,,,,,,13,C,2023-12-08_13h02.10.319,gca_avoidance_task,2022.2.4,143.97811534755257,
positions.xlsx,stimuli.xlsx,stimuli/Social1.png,stimuli/Social2.png,stimuli/Nonsocial2.png,stimuli/Nonsocial1.png,,"(-0.7, -0.5)",cs_minus_ns,,,,,0,0,0,0,,,,,0,7,7,13,,,,,,,,,,,,,,,,,,,,,,,,,,,,,,,,,,,,,,,,,,,,,,,,,,,,,,,,,,,,,,491.7084620000096,492.7848051000037,491.2015731000138,492.7848051000037,492.7848051000037,492.7848051000037,0.007242399995448068,0.01348479998705443,15,reward,1,[0.7575465999980224],[0.7645606999867596],493.5556699000008,493.5556699000008,0.007800499995937571,0.007800499995937571,0.01830169999448117,0.05300319999514613,0.05994779999309685,0.10155419999500737,0.10849739999684971,1.004277899992303,497.04862670000875,500.742834100005,,,,,,,,,,,,,,,,,,,,,,,,,,,,,13,C,2023-12-08_13h02.10.319,gca_avoidance_task,2022.2.4,143.97811534755257,
positions.xlsx,stimuli.xlsx,stimuli/Social1.png,stimuli/Social2.png,stimuli/Nonsocial2.png,stimuli/Nonsocial1.png,,"(-0.7, 0.5)",cs_minus_s,,,,,0,0,0,0,,,,,0,8,8,4,,,,,,,,,,,,,,,,,,,,,,,,,,,,,,,,,,,,,,,,,,,,,,,,,,,,,,,,,,,,,,501.24977050001326,503.24966820000554,500.742834100005,503.24966820000554,503.24966820000554,503.24966820000554,0.00625979999313131,0.013209700002335012,20,reward,1,[0.36131619999650866],[0.36131989999557845],503.6177660000103,503.6177660000103,0.0068442000047070906,0.0068442000047070906,0.018376600011833943,0.05306040000868961,0.059941200001048855,0.10157330000947695,0.1085321999998996,1.004333000004408,507.11066890000075,511.0480232000118,,,,,,,,,,,,,,,,,,,,,,,,,,,,,13,C,2023-12-08_13h02.10.319,gca_avoidance_task,2022.2.4,143.97811534755257,
positions.xlsx,stimuli.xlsx,stimuli/Social1.png,stimuli/Social2.png,stimuli/Nonsocial2.png,stimuli/Nonsocial1.png,,"(0.7, -0.5)",cs_plus_s,,,,,0,0,0,0,,,,,0,9,9,3,,,,,,,,,,,,,,,,,,,,,,,,,,,,,,,,,,,,,,,,,,,,,,,,,,,,,,,,,,,,,,511.5548984000052,512.978483800005,511.0480232000118,512.978483800005,512.978483800005,512.978483800005,0.005939599999692291,0.013267100002849475,20,shock,1,[0.15997550000611227],[0.15997920000518207],513.1451341000065,513.1451341000065,0.008200600001146086,0.008200600001146086,0.018659900000784546,0.0533488000073703,0.06030599999940023,0.1019871000025887,0.10894989999360405,1.0046759999968344,516.6380639000126,520.8601355999999,,,,,,,,,,,,,,,,,,,,,,,,,,,,,13,C,2023-12-08_13h02.10.319,gca_avoidance_task,2022.2.4,143.97811534755257,
positions.xlsx,stimuli.xlsx,stimuli/Social1.png,stimuli/Social2.png,stimuli/Nonsocial2.png,stimuli/Nonsocial1.png,,"(-0.7, 0.5)",cs_minus_ns,,,,,0,0,0,0,,,,,0,10,10,12,,,,,,,,,,,,,,,,,,,,,,,,,,,,,,,,,,,,,,,,,,,,,,,,,,,,,,,,,,,,,,521.3670176000014,522.7767097000033,520.8601355999999,522.7767097000033,522.7767097000033,522.7767097000033,0.006596100007300265,0.013278900005389005,20,none,0,,,527.7834296000074,527.7834296000074,0.014148400005069561,0.014148400005069561,0.019960599995101802,0.05463850000523962,0.06160440000530798,0.10326980000536423,0.11019730000407435,1.0129283999995096,531.2764196000062,535.1998338000121,,,,,,,,,,,,,,,,,,,,,,,,,,,,,13,C,2023-12-08_13h02.10.319,gca_avoidance_task,2022.2.4,143.97811534755257,
positions.xlsx,stimuli.xlsx,stimuli/Social1.png,stimuli/Social2.png,stimuli/Nonsocial2.png,stimuli/Nonsocial1.png,,"(0.7, 0.5)",cs_minus_ns,,,,,0,0,0,0,,,,,0,11,11,14,,,,,,,,,,,,,,,,,,,,,,,,,,,,,,,,,,,,,,,,,,,,,,,,,,,,,,,,,,,,,,535.7066850000119,537.0955629000091,535.1998338000121,537.0955629000091,537.0955629000091,537.0955629000091,0.006442400001105852,0.012895599997136742,20,none,0,,,542.1022876000061,542.1022876000061,0.01377009999123402,0.01377009999123402,0.019627999994554557,0.054335399996489286,0.061281200003577396,0.1029454999952577,0.10989819999667816,1.0126254999922821,545.595221800002,549.4562133,,,,,,,,,,,,,,,,,,,,,,,,,,,,,13,C,2023-12-08_13h02.10.319,gca_avoidance_task,2022.2.4,143.97811534755257,
positions.xlsx,stimuli.xlsx,stimuli/Social1.png,stimuli/Social2.png,stimuli/Nonsocial2.png,stimuli/Nonsocial1.png,,"(-0.7, 0.5)",cs_plus_ns,,,,,0,0,0,0,,,,,0,12,12,8,,,,,,,,,,,,,,,,,,,,,,,,,,,,,,,,,,,,,,,,,,,,,,,,,,,,,,,,,,,,,,549.9630800000014,551.5602488000004,549.4562133,551.5602488000004,551.5602488000004,551.5602488000004,0.006454199989093468,0.013070999993942678,20,shock,1,[0.49317279999377206],[0.4931767999951262],552.0602339000034,552.0602339000034,0.007560799989732914,0.007560799989732914,0.01825349999126047,0.05296729999827221,0.05993629999284167,0.10167530000035185,0.10849129999405704,1.0043257999932393,555.5532195000123,559.3030579000042,,,,,,,,,,,,,,,,,,,,,,,,,,,,,13,C,2023-12-08_13h02.10.319,gca_avoidance_task,2022.2.4,143.97811534755257,
positions.xlsx,stimuli.xlsx,stimuli/Social1.png,stimuli/Social2.png,stimuli/Nonsocial2.png,stimuli/Nonsocial1.png,,"(0.7, 0.5)",cs_minus_s,,,,,0,0,0,0,,,,,0,13,13,6,,,,,,,,,,,,,,,,,,,,,,,,,,,,,,,,,,,,,,,,,,,,,,,,,,,,,,,,,,,,,,559.8099248000071,561.6431858000142,559.3030579000042,561.6431858000142,561.6431858000142,561.6431858000142,0.007005299994489178,0.01344549999339506,25,reward,1,[0.3824439000018174],[0.38244779998785816],562.0320604000008,562.0320604000008,0.007896199997048825,0.007896199997048825,0.018378900000243448,0.05305230000521988,0.05996840000443626,0.10163170000305399,0.10862280000583269,1.0044610000040848,565.5250591000076,569.7192681000015,,,,,,,,,,,,,,,,,,,,,,,,,,,,,13,C,2023-12-08_13h02.10.319,gca_avoidance_task,2022.2.4,143.97811534755257,
positions.xlsx,stimuli.xlsx,stimuli/Social1.png,stimuli/Social2.png,stimuli/Nonsocial2.png,stimuli/Nonsocial1.png,,"(-0.7, -0.5)",cs_minus_s,,,,,0,0,0,0,,,,,0,14,14,5,,,,,,,,,,,,,,,,,,,,,,,,,,,,,,,,,,,,,,,,,,,,,,,,,,,,,,,,,,,,,,570.2262112000026,571.739985600012,569.7192681000015,571.739985600012,571.739985600012,571.739985600012,0.0069807999971089885,0.013259200000902638,30,reward,1,[0.20156180000049062],[0.20156560000032187],571.9483271000063,571.9483271000063,0.00683019999996759,0.00683019999996759,0.01848969999991823,0.05317790000117384,0.060156300009111874,0.10182770001119934,0.1087281000072835,1.004570600009174,575.4413214000087,579.83002020001,,,,,,,,,,,,,,,,,,,,,,,,,,,,,13,C,2023-12-08_13h02.10.319,gca_avoidance_task,2022.2.4,143.97811534755257,
positions.xlsx,stimuli.xlsx,stimuli/Social1.png,stimuli/Social2.png,stimuli/Nonsocial2.png,stimuli/Nonsocial1.png,,"(0.7, 0.5)",cs_plus_s,,,,,0,0,0,0,,,,,0,15,15,2,,,,,,,,,,,,,,,,,,,,,,,,,,,,,,,,,,,,,,,,,,,,,,,,,,,,,,,,,,,,,,580.3368606000004,581.9340516000084,579.83002020001,581.9340516000084,581.9340516000084,581.9340516000084,0.00602719999733381,0.013084099991829135,30,none,0,,,586.940780600009,586.940780600009,0.013565200002631173,0.013565200002631173,0.019835300001432188,0.05453749999287538,0.061504500001319684,0.10315369999443647,0.11011199999484234,1.012801799995941,590.4337832000019,594.8571808000124,,,,,,,,,,,,,,,,,,,,,,,,,,,,,13,C,2023-12-08_13h02.10.319,gca_avoidance_task,2022.2.4,143.97811534755257,
positions.xlsx,stimuli.xlsx,stimuli/Social1.png,stimuli/Social2.png,stimuli/Nonsocial2.png,stimuli/Nonsocial1.png,,"(-0.7, -0.5)",cs_plus_ns,,,,,0,0,0,0,,,,,1,0,16,9,,,,,,,,,,,,,,,,,,,,,,,,,,,,,,,,,,,,,,,,,,,,,,,,,,,,,,,,,,,,,,595.3640620000078,597.3015060000034,594.8571808000124,597.3015060000034,597.3015060000034,597.3015060000034,0.0065882999915629625,0.01355449999391567,30,shock,1,[0.22979409999970812],[0.23667319999367464],597.5445726000034,597.5445726000034,0.008031099991058,0.008031099991058,0.018491499999072403,0.053169599996181205,0.060113300001830794,0.10176320000027772,0.10872180000296794,1.0045146999909775,601.0375553000049,604.8082152000134,,,,,,,,,,,,,,,,,,,,,,,,,,,,,13,C,2023-12-08_13h02.10.319,gca_avoidance_task,2022.2.4,143.97811534755257,
positions.xlsx,stimuli.xlsx,stimuli/Social1.png,stimuli/Social2.png,stimuli/Nonsocial2.png,stimuli/Nonsocial1.png,,"(-0.7, 0.5)",cs_plus_s,,,,,0,0,0,0,,,,,1,1,17,0,,,,,,,,,,,,,,,,,,,,,,,,,,,,,,,,,,,,,,,,,,,,,,,,,,,,,,,,,,,,,,605.3150713000068,606.9122160000115,604.8082152000134,606.9122160000115,606.9122160000115,606.9122160000115,0.006696600001305342,0.013047599990386516,30,none,0,,,611.9189761000016,611.9189761000016,0.014521199991577305,0.014521199991577305,0.019816400003037415,0.05458939999516588,0.06151529999624472,0.10312400000111666,0.11005989999102894,1.0127638999983901,615.4119474000036,619.703430300011,,,,,,,,,,,,,,,,,,,,,,,,,,,,,13,C,2023-12-08_13h02.10.319,gca_avoidance_task,2022.2.4,143.97811534755257,
positions.xlsx,stimuli.xlsx,stimuli/Social1.png,stimuli/Social2.png,stimuli/Nonsocial2.png,stimuli/Nonsocial1.png,,"(-0.7, 0.5)",cs_minus_s,,,,,0,0,0,0,,,,,1,2,18,4,,,,,,,,,,,,,,,,,,,,,,,,,,,,,,,,,,,,,,,,,,,,,,,,,,,,,,,,,,,,,,620.2103110000025,621.8283300000039,619.703430300011,621.8283300000039,621.8283300000039,621.8283300000039,0.006289400000241585,0.0130046999984188,35,reward,1,[0.5484601000061957],[0.5484637000045041],622.3838575000118,622.3838575000118,0.007203699991805479,0.007203699991805479,0.01838359999237582,0.05299349999404512,0.05994029999419581,0.10156959999585524,0.10855710000032559,1.0043571999995038,625.876780800012,629.7655195000116,,,,,,,,,,,,,,,,,,,,,,,,,,,,,13,C,2023-12-08_13h02.10.319,gca_avoidance_task,2022.2.4,143.97811534755257,
positions.xlsx,stimuli.xlsx,stimuli/Social1.png,stimuli/Social2.png,stimuli/Nonsocial2.png,stimuli/Nonsocial1.png,,"(0.7, 0.5)",cs_minus_ns,,,,,0,0,0,0,,,,,1,3,19,14,,,,,,,,,,,,,,,,,,,,,,,,,,,,,,,,,,,,,,,,,,,,,,,,,,,,,,,,,,,,,,630.2723930000066,631.7237486000085,629.7655195000116,631.7237486000085,631.7237486000085,631.7237486000085,0.0073625999939395115,0.013168200006475672,40,reward,1,[0.5348543000000063],[0.5348578999983147],632.2653949000087,632.2653949000087,0.007208600000012666,0.007208600000012666,0.018149900002754293,0.05286039999919012,0.05978779999713879,0.10139820000040345,0.10835320000478532,1.0041425000090385,635.7583042000042,639.9248385000101,,,,,,,,,,,,,,,,,,,,,,,,,,,,,13,C,2023-12-08_13h02.10.319,gca_avoidance_task,2022.2.4,143.97811534755257,
positions.xlsx,stimuli.xlsx,stimuli/Social1.png,stimuli/Social2.png,stimuli/Nonsocial2.png,stimuli/Nonsocial1.png,,"(0.7, -0.5)",cs_minus_s,,,,,0,0,0,0,,,,,1,4,20,7,,,,,,,,,,,,,,,,,,,,,,,,,,,,,,,,,,,,,,,,,,,,,,,,,,,,,,,,,,,,,,640.4317056,642.2163871000084,639.9248385000101,642.2163871000084,642.2163871000084,642.2163871000084,0.006768200008082204,0.013376300004892983,45,reward,1,[0.500791800004663],[0.5007954000029713],642.7232738000021,642.7232738000021,0.006802700008847751,0.006802700008847751,0.018263200006913394,0.05298930000572,0.059913800010690466,0.1015773000108311,0.10855980000633281,1.004337000005762,646.2162875000067,650.535515200012,,,,,,,,,,,,,,,,,,,,,,,,,,,,,13,C,2023-12-08_13h02.10.319,gca_avoidance_task,2022.2.4,143.97811534755257,
positions.xlsx,stimuli.xlsx,stimuli/Social1.png,stimuli/Social2.png,stimuli/Nonsocial2.png,stimuli/Nonsocial1.png,,"(-0.7, 0.5)",cs_minus_ns,,,,,0,0,0,0,,,,,1,5,21,12,,,,,,,,,,,,,,,,,,,,,,,,,,,,,,,,,,,,,,,,,,,,,,,,,,,,,,,,,,,,,,651.0424300000013,652.7298448000074,650.535515200012,652.7298448000074,652.7298448000074,652.7298448000074,0.007232599993585609,0.013272199998027645,50,reward,1,[1.0487369000038598],[1.0487406000029296],653.7853566000122,653.7853566000122,0.007575800002086908,0.007575800002086908,0.018579600000521168,0.05327879999822471,0.06018939999921713,0.10183679999317974,0.10878109998884611,1.0045591999951284,657.2783584999997,661.5767526000127,,,,,,,,,,,,,,,,,,,,,,,,,,,,,13,C,2023-12-08_13h02.10.319,gca_avoidance_task,2022.2.4,143.97811534755257,
positions.xlsx,stimuli.xlsx,stimuli/Social1.png,stimuli/Social2.png,stimuli/Nonsocial2.png,stimuli/Nonsocial1.png,,"(-0.7, -0.5)",cs_minus_ns,,,,,0,0,0,0,,,,,1,6,22,13,,,,,,,,,,,,,,,,,,,,,,,,,,,,,,,,,,,,,,,,,,,,,,,,,,,,,,,,,,,,,,662.0836337000073,663.1599829000043,661.5767526000127,663.1599829000043,663.1599829000043,663.1599829000043,0.006742900004610419,0.01299730000027921,55,reward,1,[0.6392920000071172],[0.6392958000069484],663.8057683000079,663.8057683000079,0.008072099997662008,0.008072099997662008,0.018180800005211495,0.05284030000620987,0.05980699999781791,0.10147890000371262,0.10842089999641757,1.0041850999987219,667.298787000007,671.7082965000009,,,,,,,,,,,,,,,,,,,,,,,,,,,,,13,C,2023-12-08_13h02.10.319,gca_avoidance_task,2022.2.4,143.97811534755257,
positions.xlsx,stimuli.xlsx,stimuli/Social1.png,stimuli/Social2.png,stimuli/Nonsocial2.png,stimuli/Nonsocial1.png,,"(-0.7, 0.5)",cs_plus_ns,,,,,0,0,0,0,,,,,1,7,23,8,,,,,,,,,,,,,,,,,,,,,,,,,,,,,,,,,,,,,,,,,,,,,,,,,,,,,,,,,,,,,,672.215188400005,673.7429126000061,671.7082965000009,673.7429126000061,673.7429126000061,673.7429126000061,0.007005100007518195,0.013422800009720959,55,none,0,,,678.7496383000107,678.7496383000107,0.014006500001414679,0.014006500001414679,0.02020480000646785,0.05485520001093391,0.061784300007275306,0.1034358000033535,0.11040640001010615,1.013120900010108,682.2426015000092,686.7077008000051,,,,,,,,,,,,,,,,,,,,,,,,,,,,,13,C,2023-12-08_13h02.10.319,gca_avoidance_task,2022.2.4,143.97811534755257,
positions.xlsx,stimuli.xlsx,stimuli/Social1.png,stimuli/Social2.png,stimuli/Nonsocial2.png,stimuli/Nonsocial1.png,,"(-0.7, -0.5)",cs_minus_s,,,,,0,0,0,0,,,,,1,8,24,5,,,,,,,,,,,,,,,,,,,,,,,,,,,,,,,,,,,,,,,,,,,,,,,,,,,,,,,,,,,,,,687.2145818000135,688.554822200007,686.7077008000051,688.554822200007,688.554822200007,688.554822200007,0.006262299997615628,0.013457199995173141,60,reward,1,[0.181167299990193],[0.18117099998926278],688.742304600004,688.742304600004,0.007952700005262159,0.007952700005262159,0.018456500009051524,0.05314139999973122,0.06010699999751523,0.10177750000730157,0.10870209999848157,1.0045347999985097,692.2352381000092,696.0406414000026,,,,,,,,,,,,,,,,,,,,,,,,,,,,,13,C,2023-12-08_13h02.10.319,gca_avoidance_task,2022.2.4,143.97811534755257,
positions.xlsx,stimuli.xlsx,stimuli/Social1.png,stimuli/Social2.png,stimuli/Nonsocial2.png,stimuli/Nonsocial1.png,,"(0.7, -0.5)",cs_plus_s,,,,,0,0,0,0,,,,,1,9,25,3,,,,,,,,,,,,,,,,,,,,,,,,,,,,,,,,,,,,,,,,,,,,,,,,,,,,,,,,,,,,,,696.5475370000058,698.0613857999997,696.0406414000026,698.0613857999997,698.0613857999997,698.0613857999997,0.006660200000624172,0.013220799999544397,60,none,0,,,703.0681164000125,703.0681164000125,0.013247299997601658,0.013247299997601658,0.019971599991549738,0.054664600000251085,0.06162259999837261,0.10323799999605399,0.11016699999163393,1.0129607999988366,706.561091200012,710.1442874000059,,,,,,,,,,,,,,,,,,,,,,,,,,,,,13,C,2023-12-08_13h02.10.319,gca_avoidance_task,2022.2.4,143.97811534755257,
positions.xlsx,stimuli.xlsx,stimuli/Social1.png,stimuli/Social2.png,stimuli/Nonsocial2.png,stimuli/Nonsocial1.png,,"(0.7, -0.5)",cs_plus_ns,,,,,0,0,0,0,,,,,1,10,26,11,,,,,,,,,,,,,,,,,,,,,,,,,,,,,,,,,,,,,,,,,,,,,,,,,,,,,,,,,,,,,,710.6510955000122,712.269149300002,710.1442874000059,712.269149300002,712.269149300002,712.269149300002,0.006622600005357526,0.01302699999359902,60,none,0,,,717.2759117000096,717.2759117000096,0.013884300002246164,0.013884300002246164,0.01986659999238327,0.05445229999895673,0.061421999998856336,0.10307460000331048,0.110086799992132,1.0128123000031337,720.7688609000033,724.2895649000129,,,,,,,,,,,,,,,,,,,,,,,,,,,,,13,C,2023-12-08_13h02.10.319,gca_avoidance_task,2022.2.4,143.97811534755257,
positions.xlsx,stimuli.xlsx,stimuli/Social1.png,stimuli/Social2.png,stimuli/Nonsocial2.png,stimuli/Nonsocial1.png,,"(0.7, -0.5)",cs_minus_ns,,,,,0,0,0,0,,,,,1,11,27,15,,,,,,,,,,,,,,,,,,,,,,,,,,,,,,,,,,,,,,,,,,,,,,,,,,,,,,,,,,,,,,724.7964191000065,725.9213980000059,724.2895649000129,725.9213980000059,725.9213980000059,725.9213980000059,0.0068005000066477805,0.013564200009568594,65,reward,1,[0.5908666000032099],[0.5908704000030411],726.5185861000064,726.5185861000064,0.008841199989547022,0.008841199989547022,0.01835699999355711,0.0530290999886347,0.05999100000190083,0.10166309999476653,0.10863589998916723,1.0043886999919778,730.011587800007,734.0669359000021,,,,,,,,,,,,,,,,,,,,,,,,,,,,,13,C,2023-12-08_13h02.10.319,gca_avoidance_task,2022.2.4,143.97811534755257,
positions.xlsx,stimuli.xlsx,stimuli/Social1.png,stimuli/Social2.png,stimuli/Nonsocial2.png,stimuli/Nonsocial1.png,,"(0.7, 0.5)",cs_minus_s,,,,,0,0,0,0,,,,,1,12,28,6,,,,,,,,,,,,,,,,,,,,,,,,,,,,,,,,,,,,,,,,,,,,,,,,,,,,,,,,,,,,,,734.5738123000046,735.6848784000031,734.0669359000021,735.6848784000031,735.6848784000031,735.6848784000031,0.007519599996157922,0.013445399992633611,70,reward,1,[0.5420124999945983],[0.5420159999921452],736.233444700003,736.233444700003,0.007046400001854636,0.007046400001854636,0.018311100007849745,0.05304179999802727,0.06002030000672676,0.10164829999848735,0.10857559999567457,1.0044051000004401,739.7263975000096,743.4276599000004,,,,,,,,,,,,,,,,,,,,,,,,,,,,,13,C,2023-12-08_13h02.10.319,gca_avoidance_task,2022.2.4,143.97811534755257,
positions.xlsx,stimuli.xlsx,stimuli/Social1.png,stimuli/Social2.png,stimuli/Nonsocial2.png,stimuli/Nonsocial1.png,,"(0.7, 0.5)",cs_plus_ns,,,,,0,0,0,0,,,,,1,13,29,10,,,,,,,,,,,,,,,,,,,,,,,,,,,,,,,,,,,,,,,,,,,,,,,,,,,,,,,,,,,,,,743.934542300005,745.7955853000021,743.4276599000004,745.7955853000021,745.7955853000021,745.7955853000021,0.007423000002745539,0.013002300009247847,70,none,0,,,750.8023523000011,750.8023523000011,0.013545900001190603,0.013545900001190603,0.019800599999143742,0.05443370000284631,0.06141510000452399,0.1030419000016991,0.10999420000007376,1.0127287000068463,754.2952814000018,758.3090460000094,,,,,,,,,,,,,,,,,,,,,,,,,,,,,13,C,2023-12-08_13h02.10.319,gca_avoidance_task,2022.2.4,143.97811534755257,
positions.xlsx,stimuli.xlsx,stimuli/Social1.png,stimuli/Social2.png,stimuli/Nonsocial2.png,stimuli/Nonsocial1.png,,"(0.7, 0.5)",cs_plus_s,,,,,0,0,0,0,,,,,1,14,30,2,,,,,,,,,,,,,,,,,,,,,,,,,,,,,,,,,,,,,,,,,,,,,,,,,,,,,,,,,,,,,,758.815886100012,760.7394829000114,758.3090460000094,760.7394829000114,760.7394829000114,760.7394829000114,0.006106700006057508,0.013215900005889125,70,none,0,,,765.7462080000114,765.7462080000114,0.013770799996564165,0.013770799996564165,0.019968799999332987,0.05462979999720119,0.06163290000404231,0.10323140000400599,0.11021990000153892,1.0129212000028929,769.2391766000073,773.3918086000049,,,,,,,,,,,,,,,,,,,,,,,,,,,,,13,C,2023-12-08_13h02.10.319,gca_avoidance_task,2022.2.4,143.97811534755257,
positions.xlsx,stimuli.xlsx,stimuli/Social1.png,stimuli/Social2.png,stimuli/Nonsocial2.png,stimuli/Nonsocial1.png,,"(-0.7, -0.5)",cs_plus_s,,,,,0,0,0,0,,,,,1,15,31,1,,,,,,,,,,,,,,,,,,,,,,,,,,,,,,,,,,,,,,,,,,,,,,,,,,,,,,,,,,,,,,773.8986566000094,775.8916218000086,773.3918086000049,775.8916218000086,775.8916218000086,775.8916218000086,0.006118399993283674,0.013431400002446026,70,shock,0,,,776.0374508000095,776.0374508000095,0.008425699998042546,0.008425699998042546,0.018479599995771423,0.05321159999584779,0.06014970000251196,0.10186759999487549,0.10877069999696687,1.004549399993266,779.5304373000108,782.8982973000093,,,,,,,,,,,,,,,,,,,,,,,,,,,,,13,C,2023-12-08_13h02.10.319,gca_avoidance_task,2022.2.4,143.97811534755257,
positions.xlsx,stimuli.xlsx,stimuli/Social1.png,stimuli/Social2.png,stimuli/Nonsocial2.png,stimuli/Nonsocial1.png,,"(-0.7, 0.5)",cs_plus_ns,,,,,0,0,0,0,,,,,,,,,0,0,0,8,,,,,,,,,,,,,,,,,,,,,,,,,,,,,,,,,,,,,,,,,,,,,,,,,,,,,,,,,,795.751943500014,797.272713000013,795.2520020000084,797.272713000013,797.272713000013,797.272713000013,0.007038099996862002,0.013149499995051883,70,none,0,,,802.2794515000132,802.2794515000132,0.014934899998479523,0.014934899998479523,0.019913900003302842,0.05461369999102317,0.06161129999964032,0.10319379999418743,0.11014520000026096,1.012925399991218,805.7724178000062,809.4944820000092,782.8982973000093,782.8982973000093,782.8982973000093,782.8982973000093,space,10.42746380000608,,,,,,,,,,,,,,,,,,,,,,,13,C,2023-12-08_13h02.10.319,gca_avoidance_task,2022.2.4,143.97811534755257,
positions.xlsx,stimuli.xlsx,stimuli/Social1.png,stimuli/Social2.png,stimuli/Nonsocial2.png,stimuli/Nonsocial1.png,,"(0.7, -0.5)",cs_minus_ns,,,,,0,0,0,0,,,,,,,,,0,1,1,15,,,,,,,,,,,,,,,,,,,,,,,,,,,,,,,,,,,,,,,,,,,,,,,,,,,,,,,,,,810.0013617000077,811.9249085000047,809.4944820000092,811.9249085000047,811.9249085000047,811.9249085000047,0.00721910000720527,0.01312340000004042,75,reward,1,[0.18063670000992715],[0.18064040000899695],812.112388700014,812.112388700014,0.007678399997530505,0.007678399997530505,0.018624899996211752,0.053333500007283874,0.06026850000489503,0.10188679999555461,0.10886439999740105,1.0046570999984397,815.6053298000043,819.2301945000072,,,,,,,,,,,,,,,,,,,,,,,,,,,,,13,C,2023-12-08_13h02.10.319,gca_avoidance_task,2022.2.4,143.97811534755257,
positions.xlsx,stimuli.xlsx,stimuli/Social1.png,stimuli/Social2.png,stimuli/Nonsocial2.png,stimuli/Nonsocial1.png,,"(-0.7, 0.5)",cs_plus_s,,,,,0,0,0,0,,,,,,,,,0,2,2,0,,,,,,,,,,,,,,,,,,,,,,,,,,,,,,,,,,,,,,,,,,,,,,,,,,,,,,,,,,819.7370895000058,821.1884331000037,819.2301945000072,821.1884331000037,821.1884331000037,821.1884331000037,0.006054600002244115,0.0131351000018185,75,none,0,,,826.1952023000049,826.1952023000049,0.013438599999062717,0.013438599999062717,0.01993870000296738,0.05455820000497624,0.06151880000834353,0.1031927000003634,0.11014390000491403,1.0128652000130387,829.6881723000115,834.1810408000019,,,,,,,,,,,,,,,,,,,,,,,,,,,,,13,C,2023-12-08_13h02.10.319,gca_avoidance_task,2022.2.4,143.97811534755257,
positions.xlsx,stimuli.xlsx,stimuli/Social1.png,stimuli/Social2.png,stimuli/Nonsocial2.png,stimuli/Nonsocial1.png,,"(0.7, 0.5)",cs_plus_s,,,,,0,0,0,0,,,,,,,,,0,3,3,2,,,,,,,,,,,,,,,,,,,,,,,,,,,,,,,,,,,,,,,,,,,,,,,,,,,,,,,,,,834.6878865000035,836.0628368000034,834.1810408000019,836.0628368000034,836.0628368000034,836.0628368000034,0.0071752000076230615,0.013287300011143088,75,none,0,,,841.0696186000132,841.0696186000132,0.014514800001052208,0.014514800001052208,0.020077600012882613,0.05473270000948105,0.061721300007775426,0.10334700001112651,0.11033550000865944,1.0130659000133164,844.5625362000137,848.4582525000005,,,,,,,,,,,,,,,,,,,,,,,,,,,,,13,C,2023-12-08_13h02.10.319,gca_avoidance_task,2022.2.4,143.97811534755257,
positions.xlsx,stimuli.xlsx,stimuli/Social1.png,stimuli/Social2.png,stimuli/Nonsocial2.png,stimuli/Nonsocial1.png,,"(0.7, -0.5)",cs_minus_s,,,,,0,0,0,0,,,,,,,,,0,4,4,7,,,,,,,,,,,,,,,,,,,,,,,,,,,,,,,,,,,,,,,,,,,,,,,,,,,,,,,,,,848.9651032000111,850.0206719000125,848.4582525000005,850.0206719000125,850.0206719000125,850.0206719000125,0.006370800008880906,0.01362350000999868,80,reward,1,[0.4379532000020845],[0.4379571000026772],850.4651070000109,850.4651070000109,0.00838579999981448,0.00838579999981448,0.01853119999577757,0.05313279999245424,0.06016079999972135,0.10173749999376014,0.10868740000296384,1.0044774999987567,853.9580496000126,858.4439148000092,,,,,,,,,,,,,,,,,,,,,,,,,,,,,13,C,2023-12-08_13h02.10.319,gca_avoidance_task,2022.2.4,143.97811534755257,
positions.xlsx,stimuli.xlsx,stimuli/Social1.png,stimuli/Social2.png,stimuli/Nonsocial2.png,stimuli/Nonsocial1.png,,"(0.7, -0.5)",cs_plus_ns,,,,,0,0,0,0,,,,,,,,,0,5,5,11,,,,,,,,,,,,,,,,,,,,,,,,,,,,,,,,,,,,,,,,,,,,,,,,,,,,,,,,,,858.9508201999997,860.8535348000005,858.4439148000092,860.8535348000005,860.8535348000005,860.8535348000005,0.007472199999028817,0.01315729999623727,80,none,0,,,865.8672244000045,865.8672244000045,0.015443900003447197,0.015443900003447197,0.026854800002183765,0.05459309999423567,0.06153239999548532,0.10318229999393225,0.11013289999391418,1.0128468000038993,869.3532218000037,872.9850379000127,,,,,,,,,,,,,,,,,,,,,,,,,,,,,13,C,2023-12-08_13h02.10.319,gca_avoidance_task,2022.2.4,143.97811534755257,
positions.xlsx,stimuli.xlsx,stimuli/Social1.png,stimuli/Social2.png,stimuli/Nonsocial2.png,stimuli/Nonsocial1.png,,"(-0.7, -0.5)",cs_minus_ns,,,,,0,0,0,0,,,,,,,,,0,6,6,13,,,,,,,,,,,,,,,,,,,,,,,,,,,,,,,,,,,,,,,,,,,,,,,,,,,,,,,,,,873.4919189000066,874.9849489000044,872.9850379000127,874.9849489000044,874.9849489000044,874.9849489000044,0.006419700002879836,0.012976800004253164,85,reward,1,[0.5277779000025475],[0.5277938999934122],875.5196540000034,875.5196540000034,0.008692899995367043,0.008692899995367043,0.018639499990968034,0.053299999999580905,0.060266499989666045,0.10192089999327436,0.10889669999596663,1.004693299997598,879.0125457000104,882.679126300005,,,,,,,,,,,,,,,,,,,,,,,,,,,,,13,C,2023-12-08_13h02.10.319,gca_avoidance_task,2022.2.4,143.97811534755257,
positions.xlsx,stimuli.xlsx,stimuli/Social1.png,stimuli/Social2.png,stimuli/Nonsocial2.png,stimuli/Nonsocial1.png,,"(-0.7, 0.5)",cs_minus_s,,,,,0,0,0,0,,,,,,,,,0,7,7,4,,,,,,,,,,,,,,,,,,,,,,,,,,,,,,,,,,,,,,,,,,,,,,,,,,,,,,,,,,883.1860100000049,885.1372740000079,882.679126300005,885.1372740000079,885.1372740000079,885.1372740000079,0.006189499996253289,0.013174199993954971,90,reward,1,[0.48638599998957943],[0.4863896999886492],885.630367100006,885.630367100006,0.007318799995118752,0.007318799995118752,0.018647099990630522,0.053355500000179745,0.06027439999161288,0.10196430000360124,0.10887799999909475,1.0046504999918398,889.123307300004,892.6648493000102,,,,,,,,,,,,,,,,,,,,,,,,,,,,,13,C,2023-12-08_13h02.10.319,gca_avoidance_task,2022.2.4,143.97811534755257,
positions.xlsx,stimuli.xlsx,stimuli/Social1.png,stimuli/Social2.png,stimuli/Nonsocial2.png,stimuli/Nonsocial1.png,,"(0.7, 0.5)",cs_minus_ns,,,,,0,0,0,0,,,,,,,,,0,8,8,14,,,,,,,,,,,,,,,,,,,,,,,,,,,,,,,,,,,,,,,,,,,,,,,,,,,,,,,,,,893.1717086999997,894.1786063000036,892.6648493000102,894.1786063000036,894.1786063000036,894.1786063000036,0.007052000000840053,0.013191300007747486,95,reward,1,[0.4445482000010088],[0.4445655000017723],894.6299705000129,894.6299705000129,0.008264799995231442,0.008264799995231442,0.018137699997168966,0.05280689999926835,0.0597630999982357,0.10141060000751168,0.10840710000775289,1.0041375000000698,898.1229321999999,902.2825255000062,,,,,,,,,,,,,,,,,,,,,,,,,,,,,13,C,2023-12-08_13h02.10.319,gca_avoidance_task,2022.2.4,143.97811534755257,
positions.xlsx,stimuli.xlsx,stimuli/Social1.png,stimuli/Social2.png,stimuli/Nonsocial2.png,stimuli/Nonsocial1.png,,"(-0.7, -0.5)",cs_plus_ns,,,,,0,0,0,0,,,,,,,,,0,9,9,9,,,,,,,,,,,,,,,,,,,,,,,,,,,,,,,,,,,,,,,,,,,,,,,,,,,,,,,,,,902.7894024000125,904.2962720000069,902.2825255000062,904.2962720000069,904.2962720000069,904.2962720000069,0.006544399991980754,0.013191299993195571,95,none,0,,,909.3030105000071,909.3030105000071,0.013633399998070672,0.013633399998070672,0.019918599995435216,0.05461999999533873,0.06156370000098832,0.103250999993179,0.1102826999995159,1.0129077999881702,912.7959467000037,917.0735652000003,,,,,,,,,,,,,,,,,,,,,,,,,,,,,13,C,2023-12-08_13h02.10.319,gca_avoidance_task,2022.2.4,143.97811534755257,
positions.xlsx,stimuli.xlsx,stimuli/Social1.png,stimuli/Social2.png,stimuli/Nonsocial2.png,stimuli/Nonsocial1.png,,"(0.7, 0.5)",cs_plus_ns,,,,,0,0,0,0,,,,,,,,,0,10,10,10,,,,,,,,,,,,,,,,,,,,,,,,,,,,,,,,,,,,,,,,,,,,,,,,,,,,,,,,,,917.5804748000082,919.559570700003,917.0735652000003,919.559570700003,919.559570700003,919.559570700003,0.0065525999962119386,0.013020900005358271,95,none,0,,,924.5663263000024,924.5663263000024,0.014608400000724941,0.014608400000724941,0.01978659999440424,0.05444200000783894,0.06143719999818131,0.10307100000500213,0.11005079999449663,1.0127004999958444,928.0592646000005,932.1771857000131,,,,,,,,,,,,,,,,,,,,,,,,,,,,,13,C,2023-12-08_13h02.10.319,gca_avoidance_task,2022.2.4,143.97811534755257,
positions.xlsx,stimuli.xlsx,stimuli/Social1.png,stimuli/Social2.png,stimuli/Nonsocial2.png,stimuli/Nonsocial1.png,,"(-0.7, -0.5)",cs_minus_s,,,,,0,0,0,0,,,,,,,,,0,11,11,5,,,,,,,,,,,,,,,,,,,,,,,,,,,,,,,,,,,,,,,,,,,,,,,,,,,,,,,,,,932.6840481000108,934.3228598000132,932.1771857000131,934.3228598000132,934.3228598000132,934.3228598000132,0.005939199996646494,0.01292329998977948,100,reward,1,[0.5556768999958877],[0.5556805999949574],934.8853712000127,934.8853712000127,0.007724499999312684,0.007724499999312684,0.018348899990087375,0.05303599999751896,0.06001200000173412,0.10165479998977389,0.10859560000244528,1.0043562999926507,938.3782799000037,942.7392336000048,,,,,,,,,,,,,,,,,,,,,,,,,,,,,13,C,2023-12-08_13h02.10.319,gca_avoidance_task,2022.2.4,143.97811534755257,
positions.xlsx,stimuli.xlsx,stimuli/Social1.png,stimuli/Social2.png,stimuli/Nonsocial2.png,stimuli/Nonsocial1.png,,"(-0.7, -0.5)",cs_plus_s,,,,,0,0,0,0,,,,,,,,,0,12,12,1,,,,,,,,,,,,,,,,,,,,,,,,,,,,,,,,,,,,,,,,,,,,,,,,,,,,,,,,,,943.2461171000032,944.7669357000123,942.7392336000048,944.7669357000123,944.7669357000123,944.7669357000123,0.0066863999963970855,0.012900499990792014,100,none,0,,,949.7736241000093,949.7736241000093,0.012675999998464249,0.012675999998464249,0.019565299997339025,0.05425970000214875,0.061219099996378645,0.10292229999322444,0.10987449999083765,1.012576099994476,953.2666518000042,957.6622485000116,,,,,,,,,,,,,,,,,,,,,,,,,,,,,13,C,2023-12-08_13h02.10.319,gca_avoidance_task,2022.2.4,143.97811534755257,
positions.xlsx,stimuli.xlsx,stimuli/Social1.png,stimuli/Social2.png,stimuli/Nonsocial2.png,stimuli/Nonsocial1.png,,"(-0.7, 0.5)",cs_minus_ns,,,,,0,0,0,0,,,,,,,,,0,13,13,12,,,,,,,,,,,,,,,,,,,,,,,,,,,,,,,,,,,,,,,,,,,,,,,,,,,,,,,,,,958.1691438000125,959.80104820001,957.6622485000116,959.80104820001,959.80104820001,959.80104820001,0.007223299995530397,0.013377700001001358,105,reward,1,[0.8961207999964245],[0.8961245999962557],960.7037553000118,960.7037553000118,0.007815699995262548,0.007815699995262548,0.018551899993326515,0.0532041999977082,0.060137399996165186,0.10181629999715369,0.10872869999730028,1.0045280999911483,964.1967384000018,968.2729249000113,,,,,,,,,,,,,,,,,,,,,,,,,,,,,13,C,2023-12-08_13h02.10.319,gca_avoidance_task,2022.2.4,143.97811534755257,
positions.xlsx,stimuli.xlsx,stimuli/Social1.png,stimuli/Social2.png,stimuli/Nonsocial2.png,stimuli/Nonsocial1.png,,"(0.7, -0.5)",cs_plus_s,,,,,0,0,0,0,,,,,,,,,0,14,14,3,,,,,,,,,,,,,,,,,,,,,,,,,,,,,,,,,,,,,,,,,,,,,,,,,,,,,,,,,,968.7798289000057,970.1131170000008,968.2729249000113,970.1131170000008,970.1131170000008,970.1131170000008,0.006177199989906512,0.013164999996661209,105,none,0,,,975.1198515000142,975.1198515000142,0.013450300000840798,0.013450300000840798,0.019939699996029958,0.05458689999068156,0.06159359999583103,0.10315759999502916,0.11018079999485053,1.0128868000028888,978.6128341000003,982.7168294000003,,,,,,,,,,,,,,,,,,,,,,,,,,,,,13,C,2023-12-08_13h02.10.319,gca_avoidance_task,2022.2.4,143.97811534755257,
positions.xlsx,stimuli.xlsx,stimuli/Social1.png,stimuli/Social2.png,stimuli/Nonsocial2.png,stimuli/Nonsocial1.png,,"(0.7, 0.5)",cs_minus_s,,,,,0,0,0,0,,,,,,,,,0,15,15,6,,,,,,,,,,,,,,,,,,,,,,,,,,,,,,,,,,,,,,,,,,,,,,,,,,,,,,,,,,983.2236891000066,984.904197300013,982.7168294000003,984.904197300013,984.904197300013,984.904197300013,0.005969500009086914,0.013384500009124167,110,reward,1,[0.18104609999863897],[0.18104970001149923],985.091682600003,985.091682600003,0.00819769999361597,0.00819769999361597,0.01824499999929685,0.05292410000402015,0.05992020000121556,0.10151730000507087,0.10850629999185912,1.0043180999928154,988.5846671000036,992.1817242000106,,,,,,,,,,,,,,,,,,,,,,,,,,,,,13,C,2023-12-08_13h02.10.319,gca_avoidance_task,2022.2.4,143.97811534755257,
positions.xlsx,stimuli.xlsx,stimuli/Social1.png,stimuli/Social2.png,stimuli/Nonsocial2.png,stimuli/Nonsocial1.png,,"(-0.7, -0.5)",cs_minus_ns,,,,,0,0,0,0,,,,,,,,,1,0,16,13,,,,,,,,,,,,,,,,,,,,,,,,,,,,,,,,,,,,,,,,,,,,,,,,,,,,,,,,,,992.6886031000031,993.9524741000059,992.1817242000106,993.9524741000059,993.9524741000059,993.9524741000059,0.007623699988471344,0.013109799998346716,115,reward,1,[0.24999389999720734],[0.24999749999551568],994.2094043000106,994.2094043000106,0.00764950001030229,0.00764950001030229,0.01861170001211576,0.05321010001352988,0.060178500003530644,0.101837100010016,0.10879550001118332,1.0045475000079023,997.7023161000106,1002.1396613000106,,,,,,,,,,,,,,,,,,,,,,,,,,,,,13,C,2023-12-08_13h02.10.319,gca_avoidance_task,2022.2.4,143.97811534755257,
positions.xlsx,stimuli.xlsx,stimuli/Social1.png,stimuli/Social2.png,stimuli/Nonsocial2.png,stimuli/Nonsocial1.png,,"(0.7, -0.5)",cs_plus_ns,,,,,0,0,0,0,,,,,,,,,1,1,17,11,,,,,,,,,,,,,,,,,,,,,,,,,,,,,,,,,,,,,,,,,,,,,,,,,,,,,,,,,,1002.6465401000023,1004.3617651000095,1002.1396613000106,1004.3617651000095,1004.3617651000095,1004.3617651000095,0.00706720000016503,0.013057899996056221,115,none,0,,,1009.3685237000027,1009.3685237000027,0.014338699998916127,0.014338699998916127,0.019882599997799844,0.05451390000234824,0.06148360000224784,0.10309759998926893,0.11005750000185799,1.0128335999906994,1012.8614500000112,1017.2432685000094,,,,,,,,,,,,,,,,,,,,,,,,,,,,,13,C,2023-12-08_13h02.10.319,gca_avoidance_task,2022.2.4,143.97811534755257,
positions.xlsx,stimuli.xlsx,stimuli/Social1.png,stimuli/Social2.png,stimuli/Nonsocial2.png,stimuli/Nonsocial1.png,,"(-0.7, 0.5)",cs_minus_ns,,,,,0,0,0,0,,,,,,,,,1,2,18,12,,,,,,,,,,,,,,,,,,,,,,,,,,,,,,,,,,,,,,,,,,,,,,,,,,,,,,,,,,1017.7501012000139,1019.465325000012,1017.2432685000094,1019.465325000012,1019.465325000012,1019.465325000012,0.007435000006807968,0.012882099996204488,120,reward,1,[0.4930261999979848],[0.49302999999781605],1019.9653058000113,1019.9653058000113,0.007899900010670535,0.007899900010670535,0.018407200012006797,0.05308250000234693,0.0600447000033455,0.1017279000079725,0.10863280000921804,1.0044649000046775,1023.4582603000017,1027.9580643000081,,,,,,,,,,,,,,,,,,,,,,,,,,,,,13,C,2023-12-08_13h02.10.319,gca_avoidance_task,2022.2.4,143.97811534755257,
positions.xlsx,stimuli.xlsx,stimuli/Social1.png,stimuli/Social2.png,stimuli/Nonsocial2.png,stimuli/Nonsocial1.png,,"(-0.7, 0.5)",cs_plus_ns,,,,,0,0,0,0,,,,,,,,,1,3,19,8,,,,,,,,,,,,,,,,,,,,,,,,,,,,,,,,,,,,,,,,,,,,,,,,,,,,,,,,,,1028.464972200003,1029.8607364000054,1027.9580643000081,1029.8607364000054,1029.8607364000054,1029.8607364000054,0.007000900004641153,0.013442800001939759,120,none,0,,,1034.8674884000066,1034.8674884000066,0.01417829999991227,0.01417829999991227,0.020198300000629388,0.05487790000915993,0.061869600001955405,0.10351760000048671,0.11049000000639353,1.0132512999989558,1038.3604826000083,1042.270054800014,,,,,,,,,,,,,,,,,,,,,,,,,,,,,13,C,2023-12-08_13h02.10.319,gca_avoidance_task,2022.2.4,143.97811534755257,
positions.xlsx,stimuli.xlsx,stimuli/Social1.png,stimuli/Social2.png,stimuli/Nonsocial2.png,stimuli/Nonsocial1.png,,"(-0.7, -0.5)",cs_plus_s,,,,,0,0,0,0,,,,,,,,,1,4,20,1,,,,,,,,,,,,,,,,,,,,,,,,,,,,,,,,,,,,,,,,,,,,,,,,,,,,,,,,,,1042.7769068000052,1044.3254850000085,1042.270054800014,1044.3254850000085,1044.3254850000085,1044.3254850000085,0.006080799998017028,0.013058900003670715,120,none,0,,,1049.332175100004,1049.332175100004,0.01333300000987947,0.01333300000987947,0.019754499997361563,0.054475600001751445,0.061438300006557256,0.10309250000864267,0.11002180000650696,1.0127940000093076,1052.8252034000034,1056.9847498000017,,,,,,,,,,,,,,,,,,,,,,,,,,,,,13,C,2023-12-08_13h02.10.319,gca_avoidance_task,2022.2.4,143.97811534755257,
positions.xlsx,stimuli.xlsx,stimuli/Social1.png,stimuli/Social2.png,stimuli/Nonsocial2.png,stimuli/Nonsocial1.png,,"(-0.7, 0.5)",cs_minus_s,,,,,0,0,0,0,,,,,,,,,1,5,21,4,,,,,,,,,,,,,,,,,,,,,,,,,,,,,,,,,,,,,,,,,,,,,,,,,,,,,,,,,,1057.4916126000026,1058.6235219000082,1056.9847498000017,1058.6235219000082,1058.6235219000082,1058.6235219000082,0.006145600011222996,0.013195600011385977,125,reward,1,[0.6045240000094054],[0.6045279000099981],1059.2346091000072,1059.2346091000072,0.008180500008165836,0.008180500008165836,0.018365199997788295,0.053050200003781356,0.06009970000013709,0.10168890000204556,0.10862100000667851,1.004391399997985,1062.7275881000096,1066.970438400007,,,,,,,,,,,,,,,,,,,,,,,,,,,,,13,C,2023-12-08_13h02.10.319,gca_avoidance_task,2022.2.4,143.97811534755257,
positions.xlsx,stimuli.xlsx,stimuli/Social1.png,stimuli/Social2.png,stimuli/Nonsocial2.png,stimuli/Nonsocial1.png,,"(0.7, -0.5)",cs_minus_ns,,,,,0,0,0,0,,,,,,,,,1,6,22,15,,,,,,,,,,,,,,,,,,,,,,,,,,,,,,,,,,,,,,,,,,,,,,,,,,,,,,,,,,1067.4773135000141,1069.275861800008,1066.970438400007,1069.275861800008,1069.275861800008,1069.275861800008,0.007972100007464178,0.013224199996329844,130,reward,1,[0.7293594999937341],[0.7293631000065943],1070.0119503000024,1070.0119503000024,0.009513199998764321,0.009513199998764321,0.018860900003346615,0.053512500002398156,0.060453700003563426,0.10212579999642912,0.10909630000242032,1.0048621000023559,1073.5049193000013,1077.0325466000068,,,,,,,,,,,,,,,,,,,,,,,,,,,,,13,C,2023-12-08_13h02.10.319,gca_avoidance_task,2022.2.4,143.97811534755257,
positions.xlsx,stimuli.xlsx,stimuli/Social1.png,stimuli/Social2.png,stimuli/Nonsocial2.png,stimuli/Nonsocial1.png,,"(0.7, 0.5)",cs_minus_ns,,,,,0,0,0,0,,,,,,,,,1,7,23,14,,,,,,,,,,,,,,,,,,,,,,,,,,,,,,,,,,,,,,,,,,,,,,,,,,,,,,,,,,1077.5394293999998,1079.0185383000062,1077.0325466000068,1079.0185383000062,1079.0185383000062,1079.0185383000062,0.007158500011428259,0.01312780000444036,135,reward,1,[0.6113349000079324],[0.6113388000085251],1079.6366122000036,1079.6366122000036,0.008138199991662987,0.008138199991662987,0.018556199996965006,0.053237599990097806,0.06019879999803379,0.10182060000079218,0.10878529999172315,1.004554699989967,1083.1294958000071,1087.1154593000101,,,,,,,,,,,,,,,,,,,,,,,,,,,,,13,C,2023-12-08_13h02.10.319,gca_avoidance_task,2022.2.4,143.97811534755257,
positions.xlsx,stimuli.xlsx,stimuli/Social1.png,stimuli/Social2.png,stimuli/Nonsocial2.png,stimuli/Nonsocial1.png,,"(0.7, -0.5)",cs_minus_s,,,,,0,0,0,0,,,,,,,,,1,8,24,7,,,,,,,,,,,,,,,,,,,,,,,,,,,,,,,,,,,,,,,,,,,,,,,,,,,,,,,,,,1087.6223348000058,1089.0042651000113,1087.1154593000101,1089.0042651000113,1089.0042651000113,1089.0042651000113,0.006787200007238425,0.013235699996585026,140,reward,1,[0.18779260000155773],[0.18779619999986608],1089.1987167000043,1089.1987167000043,0.007470399999874644,0.007470399999874644,0.018589300001622178,0.05329160000837874,0.060262700004386716,0.10186580001027323,0.10881770000560209,1.0045853000046918,1092.6916233000084,1096.6012252000073,,,,,,,,,,,,,,,,,,,,,,,,,,,,,13,C,2023-12-08_13h02.10.319,gca_avoidance_task,2022.2.4,143.97811534755257,
positions.xlsx,stimuli.xlsx,stimuli/Social1.png,stimuli/Social2.png,stimuli/Nonsocial2.png,stimuli/Nonsocial1.png,,"(0.7, 0.5)",cs_minus_s,,,,,0,0,0,0,,,,,,,,,1,9,25,6,,,,,,,,,,,,,,,,,,,,,,,,,,,,,,,,,,,,,,,,,,,,,,,,,,,,,,,,,,1097.1080987000023,1098.5872335000022,1096.6012252000073,1098.5872335000022,1098.5872335000022,1098.5872335000022,0.006750500004272908,0.013279299993882887,145,reward,1,[0.5211901000002399],[0.5211939000000712],1099.115025200008,1099.115025200008,0.008172999994712882,0.008172999994712882,0.018646999989869073,0.053305099994759075,0.06028409999271389,0.10189219999301713,0.10883249998732936,1.0046735999931116,1102.6079591000016,1106.545291500006,,,,,,,,,,,,,,,,,,,,,,,,,,,,,13,C,2023-12-08_13h02.10.319,gca_avoidance_task,2022.2.4,143.97811534755257,
positions.xlsx,stimuli.xlsx,stimuli/Social1.png,stimuli/Social2.png,stimuli/Nonsocial2.png,stimuli/Nonsocial1.png,,"(-0.7, -0.5)",cs_plus_ns,,,,,0,0,0,0,,,,,,,,,1,10,26,9,,,,,,,,,,,,,,,,,,,,,,,,,,,,,,,,,,,,,,,,,,,,,,,,,,,,,,,,,,1107.0522066000121,1108.1424052000075,1106.545291500006,1108.1424052000075,1108.1424052000075,1108.1424052000075,0.007649499995750375,0.013195099993026815,145,none,0,,,1113.1560615000053,1113.1560615000053,0.015372199995908886,0.015372199995908886,0.026821099992957897,0.05459289999271277,0.06152799999108538,0.10320159999537282,0.1101453000010224,1.0129105999949388,1116.6421308000135,1120.4057949000126,,,,,,,,,,,,,,,,,,,,,,,,,,,,,13,C,2023-12-08_13h02.10.319,gca_avoidance_task,2022.2.4,143.97811534755257,
positions.xlsx,stimuli.xlsx,stimuli/Social1.png,stimuli/Social2.png,stimuli/Nonsocial2.png,stimuli/Nonsocial1.png,,"(-0.7, 0.5)",cs_plus_s,,,,,0,0,0,0,,,,,,,,,1,11,27,0,,,,,,,,,,,,,,,,,,,,,,,,,,,,,,,,,,,,,,,,,,,,,,,,,,,,,,,,,,1120.9127156000031,1122.502933300013,1120.4057949000126,1122.502933300013,1122.502933300013,1122.502933300013,0.006773100001737475,0.01324120000936091,145,shock,1,[0.22933519999787677],[0.22933870000997558],1122.7390685000137,1122.7390685000137,0.007701700000325218,0.007701700000325218,0.018488899993826635,0.053102299993042834,0.060059700001147576,0.10172310000052676,0.10873789999459404,1.0044665000023087,1126.2320012000127,1129.9332270000014,,,,,,,,,,,,,,,,,,,,,,,,,,,,,13,C,2023-12-08_13h02.10.319,gca_avoidance_task,2022.2.4,143.97811534755257,
positions.xlsx,stimuli.xlsx,stimuli/Social1.png,stimuli/Social2.png,stimuli/Nonsocial2.png,stimuli/Nonsocial1.png,,"(0.7, 0.5)",cs_plus_s,,,,,0,0,0,0,,,,,,,,,1,12,28,2,,,,,,,,,,,,,,,,,,,,,,,,,,,,,,,,,,,,,,,,,,,,,,,,,,,,,,,,,,1130.4401564,1132.433111700011,1129.9332270000014,1132.433111700011,1132.433111700011,1132.433111700011,0.0056142000103136525,0.013131500003510155,145,none,0,,,1137.4398775000009,1137.4398775000009,0.014111700002104044,0.014111700002104044,0.01987810000719037,0.05456810000760015,0.06147880000935402,0.10312559999874793,0.11009240000566933,1.0128640000039013,1140.9328322000074,1144.5577016000025,,,,,,,,,,,,,,,,,,,,,,,,,,,,,13,C,2023-12-08_13h02.10.319,gca_avoidance_task,2022.2.4,143.97811534755257,
positions.xlsx,stimuli.xlsx,stimuli/Social1.png,stimuli/Social2.png,stimuli/Nonsocial2.png,stimuli/Nonsocial1.png,,"(0.7, -0.5)",cs_plus_s,,,,,0,0,0,0,,,,,,,,,1,13,29,3,,,,,,,,,,,,,,,,,,,,,,,,,,,,,,,,,,,,,,,,,,,,,,,,,,,,,,,,,,1145.0645329000108,1146.5506216000067,1144.5577016000025,1146.5506216000067,1146.5506216000067,1146.5506216000067,0.0068977000046288595,0.01311520001036115,145,none,0,,,1151.5573366000026,1151.5573366000026,0.013921000005211681,0.013921000005211681,0.019889700008207,0.05456060000869911,0.06149220000952482,0.10318780000670813,0.11010460001125466,1.0128284000093117,1155.0503442000045,1159.3765199000045,,,,,,,,,,,,,,,,,,,,,,,,,,,,,13,C,2023-12-08_13h02.10.319,gca_avoidance_task,2022.2.4,143.97811534755257,
positions.xlsx,stimuli.xlsx,stimuli/Social1.png,stimuli/Social2.png,stimuli/Nonsocial2.png,stimuli/Nonsocial1.png,,"(-0.7, -0.5)",cs_minus_s,,,,,0,0,0,0,,,,,,,,,1,14,30,5,,,,,,,,,,,,,,,,,,,,,,,,,,,,,,,,,,,,,,,,,,,,,,,,,,,,,,,,,,1159.883409800008,1161.6680616000085,1159.3765199000045,1161.6680616000085,1161.6680616000085,1161.6680616000085,0.006241000010049902,0.01319810000131838,150,reward,1,[0.4792206999991322],[0.4792245999997249],1162.1541941000032,1162.1541941000032,0.0067620999907376245,0.0067620999907376245,0.018974599995999597,0.05361189998802729,0.06055209999612998,0.10227229999145493,0.10920479999913368,1.0049877999990713,1165.6471410000086,1169.3691870000039,,,,,,,,,,,,,,,,,,,,,,,,,,,,,13,C,2023-12-08_13h02.10.319,gca_avoidance_task,2022.2.4,143.97811534755257,
positions.xlsx,stimuli.xlsx,stimuli/Social1.png,stimuli/Social2.png,stimuli/Nonsocial2.png,stimuli/Nonsocial1.png,,"(0.7, 0.5)",cs_plus_ns,,,,,0,0,0,0,,,,,,,,,1,15,31,10,,,,,,,,,,,,,,,,,,,,,,,,,,,,,,,,,,,,,,,,,,,,,,,,,,,,,,,,,,1169.8760661000124,1171.4455027000076,1169.3691870000039,1171.4455027000076,1171.4455027000076,1171.4455027000076,0.006827299992437474,0.013316299999132752,150,none,0,,,1176.4522324999998,1176.4522324999998,0.01409139999304898,0.01409139999304898,0.019986599989351816,0.05469489999813959,0.06161059999431018,0.10324820000096224,0.11019910000322852,1.0129655999917304,1179.9451653000142,1184.361687200013,,,,,,,,,,,,,,,,,,,,,,,,,,,,,13,C,2023-12-08_13h02.10.319,gca_avoidance_task,2022.2.4,143.97811534755257,
positions.xlsx,stimuli.xlsx,stimuli/Social1.png,stimuli/Social2.png,stimuli/Nonsocial2.png,stimuli/Nonsocial1.png,,"(0.7, 0.5)",cs_minus_ns,,,,,0,0,0,0,,,,,,,,,2,0,32,14,,,,,,,,,,,,,,,,,,,,,,,,,,,,,,,,,,,,,,,,,,,,,,,,,,,,,,,,,,1184.8685285000101,1186.715694300001,1184.361687200013,1186.715694300001,1186.715694300001,1186.715694300001,0.0068337000120664015,0.013012200011871755,155,reward,1,[0.5694986000016797],[0.5695026000030339],1187.2920616000047,1187.2920616000047,0.008278599998448044,0.008278599998448044,0.01835919999575708,0.052992600001743995,0.05999730000621639,0.10160470000118949,0.10856439999770373,1.0043429000070319,1190.7850444000069,1194.5626411000121,,,,,,,,,,,,,,,,,,,,,,,,,,,,,13,C,2023-12-08_13h02.10.319,gca_avoidance_task,2022.2.4,143.97811534755257,
positions.xlsx,stimuli.xlsx,stimuli/Social1.png,stimuli/Social2.png,stimuli/Nonsocial2.png,stimuli/Nonsocial1.png,,"(0.7, -0.5)",cs_minus_ns,,,,,0,0,0,0,,,,,,,,,2,1,33,15,,,,,,,,,,,,,,,,,,,,,,,,,,,,,,,,,,,,,,,,,,,,,,,,,,,,,,,,,,1195.069519800003,1196.8402982000116,1194.5626411000121,1196.8402982000116,1196.8402982000116,1196.8402982000116,0.007119499990949407,0.012926199997309595,160,reward,1,[0.5416661999915959],[0.5416698999906657],1197.388910700014,1197.388910700014,0.0077099000045564026,0.0077099000045564026,0.01837990000785794,0.053002100001322106,0.05997270000807475,0.1016379000066081,0.10858379999990575,1.0043518000020413,1200.8818075000017,1205.10392210001,,,,,,,,,,,,,,,,,,,,,,,,,,,,,13,C,2023-12-08_13h02.10.319,gca_avoidance_task,2022.2.4,143.97811534755257,
positions.xlsx,stimuli.xlsx,stimuli/Social1.png,stimuli/Social2.png,stimuli/Nonsocial2.png,stimuli/Nonsocial1.png,,"(-0.7, -0.5)",cs_plus_s,,,,,0,0,0,0,,,,,,,,,2,2,34,1,,,,,,,,,,,,,,,,,,,,,,,,,,,,,,,,,,,,,,,,,,,,,,,,,,,,,,,,,,1205.6107692000078,1207.5204192000092,1205.10392210001,1207.5204192000092,1207.5204192000092,1207.5204192000092,0.0063996000098995864,0.01306700000714045,160,shock,1,[1.3057610999967437],[1.305764899996575],1208.832867300007,1208.832867300007,0.007246000008308329,0.007246000008308329,0.018273800000315532,0.05293030000757426,0.059875200007809326,0.10157460000482388,0.10851259999617469,1.0043204999965383,1212.3258007000113,1216.0687288000045,,,,,,,,,,,,,,,,,,,,,,,,,,,,,13,C,2023-12-08_13h02.10.319,gca_avoidance_task,2022.2.4,143.97811534755257,
positions.xlsx,stimuli.xlsx,stimuli/Social1.png,stimuli/Social2.png,stimuli/Nonsocial2.png,stimuli/Nonsocial1.png,,"(-0.7, 0.5)",cs_minus_s,,,,,0,0,0,0,,,,,,,,,2,3,35,4,,,,,,,,,,,,,,,,,,,,,,,,,,,,,,,,,,,,,,,,,,,,,,,,,,,,,,,,,,1216.5756351000018,1217.7908723,1216.0687288000045,1217.7908723,1217.7908723,1217.7908723,0.0060969999904045835,0.013169600002584048,165,reward,1,[0.576573999991524],[0.5765777999913553],1218.3742023000086,1218.3742023000086,0.007092899992130697,0.007092899992130697,0.01861769999959506,0.05326079999213107,0.06020819999685045,0.10187349999614526,0.10881819999485742,1.0046605999959866,1221.8670939000003,1225.9711166000052,,,,,,,,,,,,,,,,,,,,,,,,,,,,,13,C,2023-12-08_13h02.10.319,gca_avoidance_task,2022.2.4,143.97811534755257,
positions.xlsx,stimuli.xlsx,stimuli/Social1.png,stimuli/Social2.png,stimuli/Nonsocial2.png,stimuli/Nonsocial1.png,,"(0.7, 0.5)",cs_plus_s,,,,,0,0,0,0,,,,,,,,,2,4,36,2,,,,,,,,,,,,,,,,,,,,,,,,,,,,,,,,,,,,,,,,,,,,,,,,,,,,,,,,,,1226.4780118000053,1228.2974032000056,1225.9711166000052,1228.2974032000056,1228.2974032000056,1228.2974032000056,0.006843199997092597,0.012891500009573065,165,none,0,,,1233.304135000013,1233.304135000013,0.01302340000984259,0.01302340000984259,0.01965800000471063,0.05431289999978617,0.06125610000162851,0.1028989000042202,0.10989760000666138,1.012651700002607,1236.7971243000065,1240.8733235000109,,,,,,,,,,,,,,,,,,,,,,,,,,,,,13,C,2023-12-08_13h02.10.319,gca_avoidance_task,2022.2.4,143.97811534755257,
positions.xlsx,stimuli.xlsx,stimuli/Social1.png,stimuli/Social2.png,stimuli/Nonsocial2.png,stimuli/Nonsocial1.png,,"(0.7, -0.5)",cs_plus_ns,,,,,0,0,0,0,,,,,,,,,2,5,37,11,,,,,,,,,,,,,,,,,,,,,,,,,,,,,,,,,,,,,,,,,,,,,,,,,,,,,,,,,,1241.380228000009,1243.095444000006,1240.8733235000109,1243.095444000006,1243.095444000006,1243.095444000006,0.006616399987251498,0.013184399998863228,165,none,0,,,1248.1021798000002,1248.1021798000002,0.014409699986572377,0.014409699986572377,0.01987639999424573,0.05457179999211803,0.06153999999514781,0.10324989999935497,0.11013570000068285,1.01285289999214,1251.5950953000138,1255.8796991000127,,,,,,,,,,,,,,,,,,,,,,,,,,,,,13,C,2023-12-08_13h02.10.319,gca_avoidance_task,2022.2.4,143.97811534755257,
positions.xlsx,stimuli.xlsx,stimuli/Social1.png,stimuli/Social2.png,stimuli/Nonsocial2.png,stimuli/Nonsocial1.png,,"(-0.7, 0.5)",cs_plus_s,,,,,0,0,0,0,,,,,,,,,2,6,38,0,,,,,,,,,,,,,,,,,,,,,,,,,,,,,,,,,,,,,,,,,,,,,,,,,,,,,,,,,,1256.3865879000077,1257.393492400006,1255.8796991000127,1257.393492400006,1257.393492400006,1257.393492400006,0.005990199992083944,0.013170999998692423,165,none,0,,,1262.400232,1262.400232,0.01421309998841025,0.01421309998841025,0.019874999998137355,0.05460319999838248,0.06154260000039358,0.10316899999452289,0.11014299999806099,1.01285949999874,1265.893193900003,1269.615264100008,,,,,,,,,,,,,,,,,,,,,,,,,,,,,13,C,2023-12-08_13h02.10.319,gca_avoidance_task,2022.2.4,143.97811534755257,
positions.xlsx,stimuli.xlsx,stimuli/Social1.png,stimuli/Social2.png,stimuli/Nonsocial2.png,stimuli/Nonsocial1.png,,"(-0.7, -0.5)",cs_minus_ns,,,,,0,0,0,0,,,,,,,,,2,7,39,13,,,,,,,,,,,,,,,,,,,,,,,,,,,,,,,,,,,,,,,,,,,,,,,,,,,,,,,,,,1270.1221100000112,1271.4345878000022,1269.615264100008,1271.4345878000022,1271.4345878000022,1271.4345878000022,0.0069451000017579645,0.013069299995549954,170,reward,1,[0.5971797999955015],[0.5971838999976171],1272.0387329000077,1272.0387329000077,0.007881200013798662,0.007881200013798662,0.018830000000889413,0.053504500014241785,0.06043620000127703,0.10210280001047067,0.10904780001146719,1.0048243000055663,1275.5317021000083,1279.0732316000067,,,,,,,,,,,,,,,,,,,,,,,,,,,,,13,C,2023-12-08_13h02.10.319,gca_avoidance_task,2022.2.4,143.97811534755257,
positions.xlsx,stimuli.xlsx,stimuli/Social1.png,stimuli/Social2.png,stimuli/Nonsocial2.png,stimuli/Nonsocial1.png,,"(-0.7, -0.5)",cs_plus_ns,,,,,0,0,0,0,,,,,,,,,2,8,40,9,,,,,,,,,,,,,,,,,,,,,,,,,,,,,,,,,,,,,,,,,,,,,,,,,,,,,,,,,,1279.5801461000083,1280.9828478000127,1279.0732316000067,1280.9828478000127,1280.9828478000127,1280.9828478000127,0.006155499999294989,0.013069799999357201,170,none,0,,,1285.9896106000087,1285.9896106000087,0.013936800009105355,0.013936800009105355,0.019796799999312498,0.05450190001283772,0.06147440000495408,0.1031420000072103,0.11006130000168923,1.012738300007186,1289.4825740000088,1293.399033300011,,,,,,,,,,,,,,,,,,,,,,,,,,,,,13,C,2023-12-08_13h02.10.319,gca_avoidance_task,2022.2.4,143.97811534755257,
positions.xlsx,stimuli.xlsx,stimuli/Social1.png,stimuli/Social2.png,stimuli/Nonsocial2.png,stimuli/Nonsocial1.png,,"(0.7, -0.5)",cs_minus_s,,,,,0,0,0,0,,,,,,,,,2,9,41,7,,,,,,,,,,,,,,,,,,,,,,,,,,,,,,,,,,,,,,,,,,,,,,,,,,,,,,,,,,1293.905982700002,1295.8086328000063,1293.399033300011,1295.8086328000063,1295.8086328000063,1295.8086328000063,0.006206100006238557,0.013092499997583218,175,reward,1,[0.5417669000016758],[0.5417707000015071],1296.357230900001,1296.357230900001,0.007659599999897182,0.007659599999897182,0.018640599999343976,0.05333029999746941,0.0603082000016002,0.1019529000041075,0.10885780000535306,1.004725699996925,1299.8502121000056,1303.8222777000046,,,,,,,,,,,,,,,,,,,,,,,,,,,,,13,C,2023-12-08_13h02.10.319,gca_avoidance_task,2022.2.4,143.97811534755257,
positions.xlsx,stimuli.xlsx,stimuli/Social1.png,stimuli/Social2.png,stimuli/Nonsocial2.png,stimuli/Nonsocial1.png,,"(0.7, -0.5)",cs_plus_s,,,,,0,0,0,0,,,,,,,,,2,10,42,3,,,,,,,,,,,,,,,,,,,,,,,,,,,,,,,,,,,,,,,,,,,,,,,,,,,,,,,,,,1304.3291326000035,1306.2110089000053,1303.8222777000046,1306.2110089000053,1306.2110089000053,1306.2110089000053,0.006085700006224215,0.013038599994615652,175,none,0,,,1311.2177563000005,1311.2177563000005,0.01324850000673905,0.01324850000673905,0.01979669999855105,0.054519400000572205,0.061417000004439615,0.10307060000195634,0.11007759999483824,1.0127839000051608,1314.7107374000043,1318.8077937000053,,,,,,,,,,,,,,,,,,,,,,,,,,,,,13,C,2023-12-08_13h02.10.319,gca_avoidance_task,2022.2.4,143.97811534755257,
positions.xlsx,stimuli.xlsx,stimuli/Social1.png,stimuli/Social2.png,stimuli/Nonsocial2.png,stimuli/Nonsocial1.png,,"(-0.7, -0.5)",cs_minus_s,,,,,0,0,0,0,,,,,,,,,2,11,43,5,,,,,,,,,,,,,,,,,,,,,,,,,,,,,,,,,,,,,,,,,,,,,,,,,,,,,,,,,,1319.3146691000002,1320.6201634000026,1318.8077937000053,1320.6201634000026,1320.6201634000026,1320.6201634000026,0.005925500008743256,0.012998200007132255,180,reward,1,[0.6042662999971071],[0.6042701999976998],1321.2313023000024,1321.2313023000024,0.007390999991912395,0.007390999991912395,0.0183643999916967,0.0529915999941295,0.059920499988947995,0.10159809999458957,0.10850099999515805,1.0043564999941736,1324.7242374000052,1328.314369300002,,,,,,,,,,,,,,,,,,,,,,,,,,,,,13,C,2023-12-08_13h02.10.319,gca_avoidance_task,2022.2.4,143.97811534755257,
positions.xlsx,stimuli.xlsx,stimuli/Social1.png,stimuli/Social2.png,stimuli/Nonsocial2.png,stimuli/Nonsocial1.png,,"(0.7, 0.5)",cs_plus_ns,,,,,0,0,0,0,,,,,,,,,2,12,44,10,,,,,,,,,,,,,,,,,,,,,,,,,,,,,,,,,,,,,,,,,,,,,,,,,,,,,,,,,,1328.8212424000085,1330.6753282000136,1328.314369300002,1330.6753282000136,1330.6753282000136,1330.6753282000136,0.0072573999932501465,0.012716199998976663,180,none,0,,,1335.6821077000059,1335.6821077000059,0.0135463000042364,0.0135463000042364,0.019497400004183874,0.05415979999816045,0.06112480000592768,0.10279089999676216,0.10980849999759812,1.0124843999947188,1339.1750376000127,1343.2651750000077,,,,,,,,,,,,,,,,,,,,,,,,,,,,,13,C,2023-12-08_13h02.10.319,gca_avoidance_task,2022.2.4,143.97811534755257,
positions.xlsx,stimuli.xlsx,stimuli/Social1.png,stimuli/Social2.png,stimuli/Nonsocial2.png,stimuli/Nonsocial1.png,,"(-0.7, 0.5)",cs_minus_ns,,,,,0,0,0,0,,,,,,,,,2,13,45,12,,,,,,,,,,,,,,,,,,,,,,,,,,,,,,,,,,,,,,,,,,,,,,,,,,,,,,,,,,1343.7720262000075,1344.9317430000083,1343.2651750000077,1344.9317430000083,1344.9317430000083,1344.9317430000083,0.006761199998436496,0.013194300001487136,185,reward,1,[0.5973297000018647],[0.5973337000032188],1345.5358546000061,1345.5358546000061,0.008101500003249384,0.008101500003249384,0.018413400001008995,0.05311150000488851,0.06009959999937564,0.1017095999995945,0.10869150000507943,1.0044613000063691,1349.0288070000097,1352.5494985000114,,,,,,,,,,,,,,,,,,,,,,,,,,,,,13,C,2023-12-08_13h02.10.319,gca_avoidance_task,2022.2.4,143.97811534755257,
positions.xlsx,stimuli.xlsx,stimuli/Social1.png,stimuli/Social2.png,stimuli/Nonsocial2.png,stimuli/Nonsocial1.png,,"(0.7, 0.5)",cs_minus_s,,,,,0,0,0,0,,,,,,,,,2,14,46,6,,,,,,,,,,,,,,,,,,,,,,,,,,,,,,,,,,,,,,,,,,,,,,,,,,,,,,,,,,1353.0564078000025,1354.1744007000088,1352.5494985000114,1354.1744007000088,1354.1744007000088,1354.1744007000088,0.006085500004701316,0.013122300006216392,190,reward,1,[0.22240420000161976],[0.22240769999916665],1354.4035709000018,1354.4035709000018,0.007110499995178543,0.007110499995178543,0.018372399994404987,0.05305230000521988,0.06000349999521859,0.10168989999510814,0.1086451000010129,1.0044122999970568,1357.896554100007,1362.2435967000056,,,,,,,,,,,,,,,,,,,,,,,,,,,,,13,C,2023-12-08_13h02.10.319,gca_avoidance_task,2022.2.4,143.97811534755257,
positions.xlsx,stimuli.xlsx,stimuli/Social1.png,stimuli/Social2.png,stimuli/Nonsocial2.png,stimuli/Nonsocial1.png,,"(-0.7, 0.5)",cs_plus_ns,,,,,0,0,0,0,,,,,,,,,2,15,47,8,,,,,,,,,,,,,,,,,,,,,,,,,,,,,,,,,,,,,,,,,,,,,,,,,,,,,,,,,,1362.750462400014,1363.8962376000127,1362.2435967000056,1363.8962376000127,1363.8962376000127,1363.8962376000127,0.007018099990091287,0.012843199991039,190,none,0,,,1368.909937400007,1368.909937400007,0.014162699997541495,0.014162699997541495,0.026578199991490692,0.054270399996312335,0.061274499996216036,0.1028980999981286,0.10986159999447409,1.0126237999938894,1372.3959536000038,1376.7707523000136,,,,,,,,,,,,,,,,,,,,,,,,,,,,,13,C,2023-12-08_13h02.10.319,gca_avoidance_task,2022.2.4,143.97811534755257,
positions.xlsx,stimuli.xlsx,stimuli/Social1.png,stimuli/Social2.png,stimuli/Nonsocial2.png,stimuli/Nonsocial1.png,,"(-0.7, 0.5)",cs_minus_s,,,,,0,0,0,0,,,,,,,,,3,0,48,4,,,,,,,,,,,,,,,,,,,,,,,,,,,,,,,,,,,,,,,,,,,,,,,,,,,,,,,,,,1377.2776562000072,1378.9859236000048,1376.7707523000136,1378.9859236000048,1378.9859236000048,1378.9859236000048,0.0057816000044113025,0.013410200001089834,195,reward,1,[0.493351299999631],[0.49335489999793936],1379.4859133000136,1379.4859133000136,0.007088499987730756,0.007088499987730756,0.018878499991842546,0.053507999997236766,0.060492999997222796,0.10214009998890106,0.10906799999065697,1.0048659999883967,1382.978867400001,1386.7773711000045,,,,,,,,,,,,,,,,,,,,,,,,,,,,,13,C,2023-12-08_13h02.10.319,gca_avoidance_task,2022.2.4,143.97811534755257,
positions.xlsx,stimuli.xlsx,stimuli/Social1.png,stimuli/Social2.png,stimuli/Nonsocial2.png,stimuli/Nonsocial1.png,,"(0.7, -0.5)",cs_plus_s,,,,,0,0,0,0,,,,,,,,,3,1,49,3,,,,,,,,,,,,,,,,,,,,,,,,,,,,,,,,,,,,,,,,,,,,,,,,,,,,,,,,,,1387.2842222000036,1389.1730476000084,1386.7773711000045,1389.1730476000084,1389.1730476000084,1389.1730476000084,0.005949600003077649,0.013526099995942786,195,shock,1,[0.17424490000121295],[0.1742487000010442],1389.3535647000099,1389.3535647000099,0.007224700006190687,0.007224700006190687,0.01817260000098031,0.05286290000367444,0.05982640000001993,0.1014805000013439,0.10843920000479557,1.0042288999975426,1392.8464994000096,1397.026917500014,,,,,,,,,,,,,,,,,,,,,,,,,,,,,13,C,2023-12-08_13h02.10.319,gca_avoidance_task,2022.2.4,143.97811534755257,
positions.xlsx,stimuli.xlsx,stimuli/Social1.png,stimuli/Social2.png,stimuli/Nonsocial2.png,stimuli/Nonsocial1.png,,"(0.7, 0.5)",cs_minus_s,,,,,0,0,0,0,,,,,,,,,3,2,50,6,,,,,,,,,,,,,,,,,,,,,,,,,,,,,,,,,,,,,,,,,,,,,,,,,,,,,,,,,,1397.5337949000095,1398.8670871000068,1397.026917500014,1398.8670871000068,1398.8670871000068,1398.8670871000068,0.0060098999965703115,0.01317879999987781,200,reward,1,[0.632070499996189],[0.6390265999943949],1399.5129057000013,1399.5129057000013,0.0071389000077033415,0.0071389000077033415,0.018195199998444878,0.05286700000579003,0.05983579999883659,0.10146489999897312,0.10841549999895506,1.0042199000017717,1403.0058445000031,1407.3043318000127,,,,,,,,,,,,,,,,,,,,,,,,,,,,,13,C,2023-12-08_13h02.10.319,gca_avoidance_task,2022.2.4,143.97811534755257,
positions.xlsx,stimuli.xlsx,stimuli/Social1.png,stimuli/Social2.png,stimuli/Nonsocial2.png,stimuli/Nonsocial1.png,,"(-0.7, -0.5)",cs_minus_s,,,,,0,0,0,0,,,,,,,,,3,3,51,5,,,,,,,,,,,,,,,,,,,,,,,,,,,,,,,,,,,,,,,,,,,,,,,,,,,,,,,,,,1407.811174500006,1409.5264120000065,1407.3043318000127,1409.5264120000065,1409.5264120000065,1409.5264120000065,0.0064399000111734495,0.013081400000373833,205,reward,1,[0.5557048000046052],[0.5625700000091456],1410.0958720000053,1410.0958720000053,0.007547900007921271,0.007547900007921271,0.018415000013192184,0.05306910000217613,0.060020800010534,0.10161380001227371,0.10858360001293477,1.0044202999997651,1413.5887857000052,1417.8664096000139,,,,,,,,,,,,,,,,,,,,,,,,,,,,,13,C,2023-12-08_13h02.10.319,gca_avoidance_task,2022.2.4,143.97811534755257,
positions.xlsx,stimuli.xlsx,stimuli/Social1.png,stimuli/Social2.png,stimuli/Nonsocial2.png,stimuli/Nonsocial1.png,,"(-0.7, -0.5)",cs_plus_s,,,,,0,0,0,0,,,,,,,,,3,4,52,1,,,,,,,,,,,,,,,,,,,,,,,,,,,,,,,,,,,,,,,,,,,,,,,,,,,,,,,,,,1418.3732735000085,1419.7343687000102,1417.8664096000139,1419.7343687000102,1419.7343687000102,1419.7343687000102,0.0065902000060305,0.012502300000051036,205,none,0,,,1424.741078200008,1424.741078200008,0.0131381999963196,0.0131381999963196,0.019190399994840845,0.0538650999951642,0.06091020000167191,0.10249960000510328,0.10946269999840297,1.0121652000088943,1428.2340716000035,1432.1088865000056,,,,,,,,,,,,,,,,,,,,,,,,,,,,,13,C,2023-12-08_13h02.10.319,gca_avoidance_task,2022.2.4,143.97811534755257,
positions.xlsx,stimuli.xlsx,stimuli/Social1.png,stimuli/Social2.png,stimuli/Nonsocial2.png,stimuli/Nonsocial1.png,,"(0.7, 0.5)",cs_plus_ns,,,,,0,0,0,0,,,,,,,,,3,5,53,10,,,,,,,,,,,,,,,,,,,,,,,,,,,,,,,,,,,,,,,,,,,,,,,,,,,,,,,,,,1432.615769000011,1434.615686300007,1432.1088865000056,1434.615686300007,1434.615686300007,1434.615686300007,0.006414099989342503,0.013211299999966286,205,none,0,,,1439.622434600009,1439.622434600009,0.013814999998430721,0.013814999998430721,0.01991249999264255,0.05464370000117924,0.0615749999997206,0.10325649999140296,0.11018519999925047,1.0128829999885056,1443.1154348000127,1446.8097066000046,,,,,,,,,,,,,,,,,,,,,,,,,,,,,13,C,2023-12-08_13h02.10.319,gca_avoidance_task,2022.2.4,143.97811534755257,
positions.xlsx,stimuli.xlsx,stimuli/Social1.png,stimuli/Social2.png,stimuli/Nonsocial2.png,stimuli/Nonsocial1.png,,"(-0.7, -0.5)",cs_minus_ns,,,,,0,0,0,0,,,,,,,,,3,6,54,13,,,,,,,,,,,,,,,,,,,,,,,,,,,,,,,,,,,,,,,,,,,,,,,,,,,,,,,,,,1447.3165907000075,1448.802653900013,1446.8097066000046,1448.802653900013,1448.802653900013,1448.802653900013,0.006880699991597794,0.013442199997371063,210,reward,1,[0.5142511000012746],[0.5142551999888383],1449.3234647000063,1449.3234647000063,0.007437399995978922,0.007437399995978922,0.018517699994845316,0.05316840000159573,0.06011439999565482,0.10178409999934956,0.10872340000059921,1.0044884999952046,1452.8163731000095,1456.5940061000001,,,,,,,,,,,,,,,,,,,,,,,,,,,,,13,C,2023-12-08_13h02.10.319,gca_avoidance_task,2022.2.4,143.97811534755257,
positions.xlsx,stimuli.xlsx,stimuli/Social1.png,stimuli/Social2.png,stimuli/Nonsocial2.png,stimuli/Nonsocial1.png,,"(0.7, 0.5)",cs_plus_s,,,,,0,0,0,0,,,,,,,,,3,7,55,2,,,,,,,,,,,,,,,,,,,,,,,,,,,,,,,,,,,,,,,,,,,,,,,,,,,,,,,,,,1457.100910100009,1458.4202949000028,1456.5940061000001,1458.4202949000028,1458.4202949000028,1458.4202949000028,0.005742099994677119,0.013424399992800318,210,none,0,,,1463.427063500014,1463.427063500014,0.013678000002983026,0.013678000002983026,0.02018530000350438,0.05486780000501312,0.061807199992472306,0.10344160000386182,0.11040150000189897,1.0131871000048704,1466.9200549000088,1470.5448645000142,,,,,,,,,,,,,,,,,,,,,,,,,,,,,13,C,2023-12-08_13h02.10.319,gca_avoidance_task,2022.2.4,143.97811534755257,
positions.xlsx,stimuli.xlsx,stimuli/Social1.png,stimuli/Social2.png,stimuli/Nonsocial2.png,stimuli/Nonsocial1.png,,"(0.7, -0.5)",cs_minus_ns,,,,,0,0,0,0,,,,,,,,,3,8,56,15,,,,,,,,,,,,,,,,,,,,,,,,,,,,,,,,,,,,,,,,,,,,,,,,,,,,,,,,,,1471.0517490000057,1472.4197770000028,1470.5448645000142,1472.4197770000028,1472.4197770000028,1472.4197770000028,0.006578200001968071,0.013160999995307066,215,reward,1,[0.45856909999565687],[0.45857279999472667],1472.8850388000137,1472.8850388000137,0.007750500008114614,0.007750500008114614,0.018309899998712353,0.052960700006224215,0.05989899999985937,0.1016080000117654,0.10852330000489019,1.0043464000045788,1476.3779498000076,1480.3083437000023,,,,,,,,,,,,,,,,,,,,,,,,,,,,,13,C,2023-12-08_13h02.10.319,gca_avoidance_task,2022.2.4,143.97811534755257,
positions.xlsx,stimuli.xlsx,stimuli/Social1.png,stimuli/Social2.png,stimuli/Nonsocial2.png,stimuli/Nonsocial1.png,,"(-0.7, -0.5)",cs_plus_ns,,,,,0,0,0,0,,,,,,,,,3,9,57,9,,,,,,,,,,,,,,,,,,,,,,,,,,,,,,,,,,,,,,,,,,,,,,,,,,,,,,,,,,1480.8152768,1482.0166112000006,1480.3083437000023,1482.0166112000006,1482.0166112000006,1482.0166112000006,0.0066654999973252416,0.01317449999623932,215,none,1,[1.2362347000016598],[1.2433922000054736],1487.0234190000047,1487.0234190000047,0.013533599994843826,0.013533599994843826,0.019971500005340204,0.05457979999482632,0.0615756000042893,0.10320119999232702,0.11016739999467973,1.0128890000050887,1490.516341200011,1494.2731099000084,,,,,,,,,,,,,,,,,,,,,,,,,,,,,13,C,2023-12-08_13h02.10.319,gca_avoidance_task,2022.2.4,143.97811534755257,
positions.xlsx,stimuli.xlsx,stimuli/Social1.png,stimuli/Social2.png,stimuli/Nonsocial2.png,stimuli/Nonsocial1.png,,"(-0.7, 0.5)",cs_plus_ns,,,,,0,0,0,0,,,,,,,,,3,10,58,8,,,,,,,,,,,,,,,,,,,,,,,,,,,,,,,,,,,,,,,,,,,,,,,,,,,,,,,,,,1494.779988600014,1496.411875500009,1494.2731099000084,1496.411875500009,1496.411875500009,1496.411875500009,0.007019199998467229,0.01311449999047909,215,none,0,,,1501.418694900014,1501.418694900014,0.014825599995674565,0.014825599995674565,0.019957199998316355,0.05458159999398049,0.06154749999404885,0.10320769999816548,0.11023320000094827,1.0128695000021253,1504.9115855000127,1509.2031148000096,,,,,,,,,,,,,,,,,,,,,,,,,,,,,13,C,2023-12-08_13h02.10.319,gca_avoidance_task,2022.2.4,143.97811534755257,
positions.xlsx,stimuli.xlsx,stimuli/Social1.png,stimuli/Social2.png,stimuli/Nonsocial2.png,stimuli/Nonsocial1.png,,"(0.7, -0.5)",cs_plus_ns,,,,,0,0,0,0,,,,,,,,,3,11,59,11,,,,,,,,,,,,,,,,,,,,,,,,,,,,,,,,,,,,,,,,,,,,,,,,,,,,,,,,,,1509.7099565000099,1511.2515988000087,1509.2031148000096,1511.2515988000087,1511.2515988000087,1511.2515988000087,0.006732900001225062,0.01326040001004003,215,none,0,,,1516.2583384000027,1516.2583384000027,0.01372030000493396,0.01372030000493396,0.019978500000433996,0.05465770000591874,0.06164520001038909,0.10333160001027863,0.11020400001143571,1.0130111000034958,1519.7512752000039,1523.758057500003,,,,,,,,,,,,,,,,,,,,,,,,,,,,,13,C,2023-12-08_13h02.10.319,gca_avoidance_task,2022.2.4,143.97811534755257,
positions.xlsx,stimuli.xlsx,stimuli/Social1.png,stimuli/Social2.png,stimuli/Nonsocial2.png,stimuli/Nonsocial1.png,,"(0.7, -0.5)",cs_minus_s,,,,,0,0,0,0,,,,,,,,,3,12,60,7,,,,,,,,,,,,,,,,,,,,,,,,,,,,,,,,,,,,,,,,,,,,,,,,,,,,,,,,,,1524.2649941000127,1525.5149440000096,1523.758057500003,1525.5149440000096,1525.5149440000096,1525.5149440000096,0.006058099999791011,0.013538500003051013,220,reward,1,[0.542073700009496],[0.5420773000078043],1526.0635007000092,1526.0635007000092,0.0069481999962590635,0.0069481999962590635,0.01853020000271499,0.05327289999695495,0.06017789999896195,0.10185740000451915,0.10880610000458546,1.0046146999957273,1529.5564755000087,1533.8202136000036,,,,,,,,,,,,,,,,,,,,,,,,,,,,,13,C,2023-12-08_13h02.10.319,gca_avoidance_task,2022.2.4,143.97811534755257,
positions.xlsx,stimuli.xlsx,stimuli/Social1.png,stimuli/Social2.png,stimuli/Nonsocial2.png,stimuli/Nonsocial1.png,,"(-0.7, 0.5)",cs_plus_s,,,,,0,0,0,0,,,,,,,,,3,13,61,0,,,,,,,,,,,,,,,,,,,,,,,,,,,,,,,,,,,,,,,,,,,,,,,,,,,,,,,,,,1534.3271007000003,1535.3478914000007,1533.8202136000036,1535.3478914000007,1535.3478914000007,1535.3478914000007,0.006052800003089942,0.013153199994121678,220,none,0,,,1540.361581300007,1540.361581300007,0.015034399999422021,0.015034399999422021,0.026891899993643165,0.054577899994910695,0.06148679999751039,0.10318879999977071,0.11009970000304747,1.0128718999912962,1543.8475957000046,1548.1182342000102,,,,,,,,,,,,,,,,,,,,,,,,,,,,,13,C,2023-12-08_13h02.10.319,gca_avoidance_task,2022.2.4,143.97811534755257,
positions.xlsx,stimuli.xlsx,stimuli/Social1.png,stimuli/Social2.png,stimuli/Nonsocial2.png,stimuli/Nonsocial1.png,,"(-0.7, 0.5)",cs_minus_ns,,,,,0,0,0,0,,,,,,,,,3,14,62,12,,,,,,,,,,,,,,,,,,,,,,,,,,,,,,,,,,,,,,,,,,,,,,,,,,,,,,,,,,1548.6251132000034,1549.7570018000115,1548.1182342000102,1549.7570018000115,1549.7570018000115,1549.7570018000115,0.006749300009687431,0.013344999999389984,225,reward,1,[0.38216380000812933],[0.38216780000948347],1550.1459423000051,1550.1459423000051,0.007980399997904897,0.007980399997904897,0.018719699990469962,0.053370199995697476,0.06032720000075642,0.1019625999906566,0.10896109999157488,1.0047901999932947,1553.638870900002,1557.7706140000082,,,,,,,,,,,,,,,,,,,,,,,,,,,,,13,C,2023-12-08_13h02.10.319,gca_avoidance_task,2022.2.4,143.97811534755257,
positions.xlsx,stimuli.xlsx,stimuli/Social1.png,stimuli/Social2.png,stimuli/Nonsocial2.png,stimuli/Nonsocial1.png,,"(0.7, 0.5)",cs_minus_ns,,,,,0,0,0,0,,,,,,,,,3,15,63,14,,,,,,,,,,,,,,,,,,,,,,,,,,,,,,,,,,,,,,,,,,,,,,,,,,,,,,,,,,1558.277535900008,1559.3260857000132,1557.7706140000082,1559.3260857000132,1559.3260857000132,1559.3260857000132,0.0064236999896820635,0.013429300001007505,230,reward,1,[0.44506519999413285],[0.4450687999924412],1559.7775014000072,1559.7775014000072,0.007251899995026179,0.007251899995026179,0.01814169999852311,0.052845099999103695,0.059759900002973154,0.10140329999558162,0.10837849999370519,1.0041410999983782,1563.2704427999997,1567.2911225000134,,,,,,,,,,,,,,,,,,,,,,,,,,,,,13,C,2023-12-08_13h02.10.319,gca_avoidance_task,2022.2.4,143.97811534755257,
positions.xlsx,stimuli.xlsx,stimuli/Social1.png,stimuli/Social2.png,stimuli/Nonsocial2.png,stimuli/Nonsocial1.png,,"(0.7, -0.5)",cs_minus_ns,,,,,0,0,0,0,,,,,,,,,4,0,64,15,,,,,,,,,,,,,,,,,,,,,,,,,,,,,,,,,,,,,,,,,,,,,,,,,,,,,,,,,,1567.7979657000105,1568.9854317999998,1567.2911225000134,1568.9854317999998,1568.9854317999998,1568.9854317999998,0.0065725999884307384,0.013509599986718968,235,reward,1,[0.4242587999906391],[0.4242758999898797],1569.4159590000054,1569.4159590000054,0.007550100010121241,0.007550100010121241,0.01815770000393968,0.05290170000807848,0.05983120000746567,0.10146240000904072,0.10841230000369251,1.0042329999996582,1572.9089459000097,1576.492157200002,,,,,,,,,,,,,,,,,,,,,,,,,,,,,13,C,2023-12-08_13h02.10.319,gca_avoidance_task,2022.2.4,143.97811534755257,
positions.xlsx,stimuli.xlsx,stimuli/Social1.png,stimuli/Social2.png,stimuli/Nonsocial2.png,stimuli/Nonsocial1.png,,"(0.7, 0.5)",cs_minus_ns,,,,,0,0,0,0,,,,,,,,,4,1,65,14,,,,,,,,,,,,,,,,,,,,,,,,,,,,,,,,,,,,,,,,,,,,,,,,,,,,,,,,,,1576.9990195000137,1578.214247300013,1576.492157200002,1578.214247300013,1578.214247300013,1578.214247300013,0.006795699999202043,0.013190300000132993,240,reward,1,[0.500050899994676],[0.5000543999922229],1578.7211582000018,1578.7211582000018,0.0075523999985307455,0.0075523999985307455,0.018478899990441278,0.05316599999787286,0.0601295999949798,0.10176309999951627,0.10874229999899399,1.0045357999915723,1582.214082800012,1586.2348020000063,,,,,,,,,,,,,,,,,,,,,,,,,,,,,13,C,2023-12-08_13h02.10.319,gca_avoidance_task,2022.2.4,143.97811534755257,
positions.xlsx,stimuli.xlsx,stimuli/Social1.png,stimuli/Social2.png,stimuli/Nonsocial2.png,stimuli/Nonsocial1.png,,"(-0.7, -0.5)",cs_minus_s,,,,,0,0,0,0,,,,,,,,,4,2,66,5,,,,,,,,,,,,,,,,,,,,,,,,,,,,,,,,,,,,,,,,,,,,,,,,,,,,,,,,,,1586.741664900008,1588.6721928000043,1586.2348020000063,1588.6721928000043,1588.6721928000043,1588.6721928000043,0.005799099992145784,0.012904799994430505,245,reward,1,[0.5347069999988889],[0.5347107999987202],1589.2138388000021,1589.2138388000021,0.007457100000465289,0.007457100000465289,0.018805999992764555,0.05339549999916926,0.06038149999221787,0.10200939999776892,0.1089501999958884,1.0047573999909218,1592.7067551000073,1596.783025800003,,,,,,,,,,,,,,,,,,,,,,,,,,,,,13,C,2023-12-08_13h02.10.319,gca_avoidance_task,2022.2.4,143.97811534755257,
positions.xlsx,stimuli.xlsx,stimuli/Social1.png,stimuli/Social2.png,stimuli/Nonsocial2.png,stimuli/Nonsocial1.png,,"(-0.7, 0.5)",cs_plus_s,,,,,0,0,0,0,,,,,,,,,4,3,67,0,,,,,,,,,,,,,,,,,,,,,,,,,,,,,,,,,,,,,,,,,,,,,,,,,,,,,,,,,,1597.289884200014,1598.4426318000042,1596.783025800003,1598.4426318000042,1598.4426318000042,1598.4426318000042,0.005948799996986054,0.01307010000164155,245,none,0,,,1603.4493717000005,1603.4493717000005,0.013274500000989065,0.013274500000989065,0.019846299997880124,0.054465900000650436,0.06145539999124594,0.10308049999002833,0.11005269999441225,1.0127972999907797,1606.9422844000073,1611.4074190000101,,,,,,,,,,,,,,,,,,,,,,,,,,,,,13,C,2023-12-08_13h02.10.319,gca_avoidance_task,2022.2.4,143.97811534755257,
positions.xlsx,stimuli.xlsx,stimuli/Social1.png,stimuli/Social2.png,stimuli/Nonsocial2.png,stimuli/Nonsocial1.png,,"(0.7, 0.5)",cs_plus_ns,,,,,0,0,0,0,,,,,,,,,4,4,68,10,,,,,,,,,,,,,,,,,,,,,,,,,,,,,,,,,,,,,,,,,,,,,,,,,,,,,,,,,,1611.914296300005,1613.3239690000046,1611.4074190000101,1613.3239690000046,1613.3239690000046,1613.3239690000046,0.006957000005058944,0.013245100009953603,245,none,0,,,1618.3307620000123,1618.3307620000123,0.014196100004483014,0.014196100004483014,0.020029999999678694,0.05470870000135619,0.061652000003959984,0.10331560000486206,0.11029920000873972,1.0129897000006167,1621.8236687000026,1625.7054713000107,,,,,,,,,,,,,,,,,,,,,,,,,,,,,13,C,2023-12-08_13h02.10.319,gca_avoidance_task,2022.2.4,143.97811534755257,
positions.xlsx,stimuli.xlsx,stimuli/Social1.png,stimuli/Social2.png,stimuli/Nonsocial2.png,stimuli/Nonsocial1.png,,"(-0.7, -0.5)",cs_minus_ns,,,,,0,0,0,0,,,,,,,,,4,5,69,13,,,,,,,,,,,,,,,,,,,,,,,,,,,,,,,,,,,,,,,,,,,,,,,,,,,,,,,,,,1626.2123653000017,1627.4275750000088,1625.7054713000107,1627.4275750000088,1627.4275750000088,1627.4275750000088,0.006462299992563203,0.013350900000659749,250,reward,1,[0.47967590000189375],[0.4796799000032479],1627.9136624000093,1627.9136624000093,0.007664299992029555,0.007664299992029555,0.018140100000891834,0.05282549999537878,0.059782899988931604,0.10148529999423772,0.10843469999963418,1.0042250999977114,1631.4066426000063,1635.052311700012,,,,,,,,,,,,,,,,,,,,,,,,,,,,,13,C,2023-12-08_13h02.10.319,gca_avoidance_task,2022.2.4,143.97811534755257,
positions.xlsx,stimuli.xlsx,stimuli/Social1.png,stimuli/Social2.png,stimuli/Nonsocial2.png,stimuli/Nonsocial1.png,,"(-0.7, -0.5)",cs_plus_s,,,,,0,0,0,0,,,,,,,,,4,6,70,1,,,,,,,,,,,,,,,,,,,,,,,,,,,,,,,,,,,,,,,,,,,,,,,,,,,,,,,,,,1635.5592139000073,1636.9063775000104,1635.052311700012,1636.9063775000104,1636.9063775000104,1636.9063775000104,0.00591020000865683,0.013172999999369495,250,none,0,,,1641.9131427000102,1641.9131427000102,0.0132144000090193,0.0132144000090193,0.01990739999746438,0.054509699999471195,0.061477900002500974,0.10312290000729263,0.11007860000245273,1.0127914000040619,1645.4061164000013,1649.4267595000128,,,,,,,,,,,,,,,,,,,,,,,,,,,,,13,C,2023-12-08_13h02.10.319,gca_avoidance_task,2022.2.4,143.97811534755257,
positions.xlsx,stimuli.xlsx,stimuli/Social1.png,stimuli/Social2.png,stimuli/Nonsocial2.png,stimuli/Nonsocial1.png,,"(-0.7, 0.5)",cs_minus_s,,,,,0,0,0,0,,,,,,,,,4,7,71,4,,,,,,,,,,,,,,,,,,,,,,,,,,,,,,,,,,,,,,,,,,,,,,,,,,,,,,,,,,1649.9336368000077,1651.4474958000064,1649.4267595000128,1651.4474958000064,1651.4474958000064,1651.4474958000064,0.005965800010017119,0.013190600002417341,255,reward,1,[0.5696497000026284],[0.5696535000024596],1652.0238616000133,1652.0238616000133,0.0070583000051556155,0.0070583000051556155,0.0181659999943804,0.05280269999639131,0.05975889999535866,0.10141400000429712,0.10835219999717083,1.0041343000048073,1655.5168016000098,1659.2736296000076,,,,,,,,,,,,,,,,,,,,,,,,,,,,,13,C,2023-12-08_13h02.10.319,gca_avoidance_task,2022.2.4,143.97811534755257,
positions.xlsx,stimuli.xlsx,stimuli/Social1.png,stimuli/Social2.png,stimuli/Nonsocial2.png,stimuli/Nonsocial1.png,,"(-0.7, 0.5)",cs_plus_ns,,,,,0,0,0,0,,,,,,,,,4,8,72,8,,,,,,,,,,,,,,,,,,,,,,,,,,,,,,,,,,,,,,,,,,,,,,,,,,,,,,,,,,1659.780514900005,1661.4470954000135,1659.2736296000076,1661.4470954000135,1661.4470954000135,1661.4470954000135,0.006190500003867783,0.01323360000969842,255,none,0,,,1666.4538294000085,1666.4538294000085,0.013520400010747835,0.013520400010747835,0.019988600004580803,0.054695800004992634,0.061637200007680804,0.10326040000654757,0.11022200000297744,1.0129742999997688,1669.9468168000021,1673.807774300003,,,,,,,,,,,,,,,,,,,,,,,,,,,,,13,C,2023-12-08_13h02.10.319,gca_avoidance_task,2022.2.4,143.97811534755257,
positions.xlsx,stimuli.xlsx,stimuli/Social1.png,stimuli/Social2.png,stimuli/Nonsocial2.png,stimuli/Nonsocial1.png,,"(-0.7, 0.5)",cs_minus_ns,,,,,0,0,0,0,,,,,,,,,4,9,73,12,,,,,,,,,,,,,,,,,,,,,,,,,,,,,,,,,,,,,,,,,,,,,,,,,,,,,,,,,,1674.3146875000093,1675.981238700013,1673.807774300003,1675.981238700013,1675.981238700013,1675.981238700013,0.006662899992079474,0.013197099993703887,260,reward,1,[0.5696446999936597],[0.5696486999950139],1676.5576276000065,1676.5576276000065,0.007868800006690435,0.007868800006690435,0.0186902999994345,0.053357000011601485,0.06028030000743456,0.10194100000080653,0.10892500000772998,1.004675500007579,1680.0505735000042,1684.2726491000067,,,,,,,,,,,,,,,,,,,,,,,,,,,,,13,C,2023-12-08_13h02.10.319,gca_avoidance_task,2022.2.4,143.97811534755257,
positions.xlsx,stimuli.xlsx,stimuli/Social1.png,stimuli/Social2.png,stimuli/Nonsocial2.png,stimuli/Nonsocial1.png,,"(0.7, -0.5)",cs_plus_s,,,,,0,0,0,0,,,,,,,,,4,10,74,3,,,,,,,,,,,,,,,,,,,,,,,,,,,,,,,,,,,,,,,,,,,,,,,,,,,,,,,,,,1684.7795114000037,1685.953084000008,1684.2726491000067,1685.953084000008,1685.953084000008,1685.953084000008,0.005856700008735061,0.013029100009589456,260,none,0,,,1690.9598564000044,1690.9598564000044,0.013953800007584505,0.013953800007584505,0.019836599996779114,0.054460700004710816,0.06141760000900831,0.10308719999738969,0.11007140000583604,1.012812600005418,1694.4527817000053,1698.1054068000085,,,,,,,,,,,,,,,,,,,,,,,,,,,,,13,C,2023-12-08_13h02.10.319,gca_avoidance_task,2022.2.4,143.97811534755257,
positions.xlsx,stimuli.xlsx,stimuli/Social1.png,stimuli/Social2.png,stimuli/Nonsocial2.png,stimuli/Nonsocial1.png,,"(0.7, 0.5)",cs_minus_s,,,,,0,0,0,0,,,,,,,,,4,11,75,6,,,,,,,,,,,,,,,,,,,,,,,,,,,,,,,,,,,,,,,,,,,,,,,,,,,,,,,,,,1698.6123055000062,1699.681719100001,1698.1054068000085,1699.681719100001,1699.681719100001,1699.681719100001,0.00577230000635609,0.013049600005615503,265,reward,1,[0.6111004999984289],[0.6111041000112891],1700.2997684000002,1700.2997684000002,0.007171999997808598,0.007171999997808598,0.01853649999247864,0.053211099992040545,0.06014639999193605,0.10179109999444336,0.10875830000441056,1.0045050000044284,1703.792731300011,1707.5564578000049,,,,,,,,,,,,,,,,,,,,,,,,,,,,,13,C,2023-12-08_13h02.10.319,gca_avoidance_task,2022.2.4,143.97811534755257,
positions.xlsx,stimuli.xlsx,stimuli/Social1.png,stimuli/Social2.png,stimuli/Nonsocial2.png,stimuli/Nonsocial1.png,,"(0.7, -0.5)",cs_plus_ns,,,,,0,0,0,0,,,,,,,,,4,12,76,11,,,,,,,,,,,,,,,,,,,,,,,,,,,,,,,,,,,,,,,,,,,,,,,,,,,,,,,,,,1708.0633191000088,1709.445237500011,1707.5564578000049,1709.445237500011,1709.445237500011,1709.445237500011,0.0065156999917235225,0.013438499998301268,265,shock,1,[0.22953349999443162],[0.22953699999197852],1709.6813230000116,1709.6813230000116,0.008392200004891492,0.008392200004891492,0.018483799998648465,0.053180900009465404,0.06015030000708066,0.10176990000763908,0.10870979999890551,1.0045288000110304,1713.1742255999998,1717.2296550000028,,,,,,,,,,,,,,,,,,,,,,,,,,,,,13,C,2023-12-08_13h02.10.319,gca_avoidance_task,2022.2.4,143.97811534755257,
positions.xlsx,stimuli.xlsx,stimuli/Social1.png,stimuli/Social2.png,stimuli/Nonsocial2.png,stimuli/Nonsocial1.png,,"(0.7, 0.5)",cs_plus_s,,,,,0,0,0,0,,,,,,,,,4,13,77,2,,,,,,,,,,,,,,,,,,,,,,,,,,,,,,,,,,,,,,,,,,,,,,,,,,,,,,,,,,1717.7365615000017,1719.6253864000028,1717.2296550000028,1719.6253864000028,1719.6253864000028,1719.6253864000028,0.00645760000043083,0.01305730000603944,265,none,0,,,1724.6321159000072,1724.6321159000072,0.013313100003870204,0.013313100003870204,0.01982519999728538,0.054451999996672384,0.06143339999835007,0.10302629999932833,0.11002180000650696,1.0127550000033807,1728.1250710000022,1732.3818274000078,,,,,,,,,,,,,,,,,,,,,,,,,,,,,13,C,2023-12-08_13h02.10.319,gca_avoidance_task,2022.2.4,143.97811534755257,
positions.xlsx,stimuli.xlsx,stimuli/Social1.png,stimuli/Social2.png,stimuli/Nonsocial2.png,stimuli/Nonsocial1.png,,"(0.7, -0.5)",cs_minus_s,,,,,0,0,0,0,,,,,,,,,4,14,78,7,,,,,,,,,,,,,,,,,,,,,,,,,,,,,,,,,,,,,,,,,,,,,,,,,,,,,,,,,,1732.888775600004,1734.0414837999997,1732.3818274000078,1734.0414837999997,1734.0414837999997,1734.0414837999997,0.005892000001040287,0.013438900001347065,270,reward,1,[0.5837997000053292],[0.5838035000051605],1734.6317291000014,1734.6317291000014,0.006991500005824491,0.006991500005824491,0.018086400013999082,0.05273190001025796,0.059739700009231456,0.10137270000996068,0.10836080000444781,1.0041156000079354,1738.124702800007,1742.4856476000132,,,,,,,,,,,,,,,,,,,,,,,,,,,,,13,C,2023-12-08_13h02.10.319,gca_avoidance_task,2022.2.4,143.97811534755257,
positions.xlsx,stimuli.xlsx,stimuli/Social1.png,stimuli/Social2.png,stimuli/Nonsocial2.png,stimuli/Nonsocial1.png,,"(-0.7, -0.5)",cs_plus_ns,,,,,0,0,0,0,,,,,,,,,4,15,79,9,,,,,,,,,,,,,,,,,,,,,,,,,,,,,,,,,,,,,,,,,,,,,,,,,,,,,,,,,,1742.99249840001,1744.5480070000049,1742.4856476000132,1744.5480070000049,1744.5480070000049,1744.5480070000049,0.006563400005688891,0.013073599999188446,270,none,0,,,1749.5547666000057,1749.5547666000057,0.013827900009346195,0.013827900009346195,0.019869000010658056,0.054567500003031455,0.06147929999860935,0.10316140000941232,0.11005699999805074,1.0127936000062618,1753.0477274000004,1756.936408900001,,,,,,,,,,,,,,,,,,,,,,,,,,,,,13,C,2023-12-08_13h02.10.319,gca_avoidance_task,2022.2.4,143.97811534755257,
positions.xlsx,stimuli.xlsx,stimuli/Social1.png,stimuli/Social2.png,stimuli/Nonsocial2.png,stimuli/Nonsocial1.png,cs_plus_ns,,,,,,,0,0,0,0,,,,,,,,,,,,,0,0,0,1,,,,,,,,,,,,,,,,,,,,,,,,,,,,,,,,,,,,,,,,,,,1767.2832379000029,1767.2832379000029,1771.9983727000072,3.0,4.703476299997419,space,1.6713695000071311,,,,,,,,,,,,,,,,,,,,,,,,,,,,,,,,,,,,1756.936408900001,1756.936408900001,1756.936408900001,1756.936408900001,1756.936408900001,1756.936408900001,1766.213858800009,5.0,9.27094400000351,space,1.0319832999957725,,,,,,,,,,,,13,C,2023-12-08_13h02.10.319,gca_avoidance_task,2022.2.4,143.97811534755257,
positions.xlsx,stimuli.xlsx,stimuli/Social1.png,stimuli/Social2.png,stimuli/Nonsocial2.png,stimuli/Nonsocial1.png,cs_plus_s,,,,,,,0,0,0,0,,,,,,,,,,,,,0,1,1,0,,,,,,,,,,,,,,,,,,,,,,,,,,,,,,,,,,,,,,,,,,,1773.6996466000128,1773.6996466000128,1776.9772864000115,1.0,3.2723226999951294,space,0.6850044000020716,,,,,,,,,,,,,,,,,,,,,,,,,,,,,,,,,,,,,,,,,,,,,,,,,,,,,,,,,,13,C,2023-12-08_13h02.10.319,gca_avoidance_task,2022.2.4,143.97811534755257,
positions.xlsx,stimuli.xlsx,stimuli/Social1.png,stimuli/Social2.png,stimuli/Nonsocial2.png,stimuli/Nonsocial1.png,cs_minus_s,,,,,,,0,0,0,0,,,,,,,,,,,,,0,2,2,2,,,,,,,,,,,,,,,,,,,,,,,,,,,,,,,,,,,,,,,,,,,1777.6856422000128,1777.6856422000128,1780.4146865000075,7.0,2.7160364000010304,space,0.9665505000011763,,,,,,,,,,,,,,,,,,,,,,,,,,,,,,,,,,,,,,,,,,,,,,,,,,,,,,,,,,13,C,2023-12-08_13h02.10.319,gca_avoidance_task,2022.2.4,143.97811534755257,
positions.xlsx,stimuli.xlsx,stimuli/Social1.png,stimuli/Social2.png,stimuli/Nonsocial2.png,stimuli/Nonsocial1.png,cs_minus_ns,,,,,,,0,0,0,0,,,,,,,,,,,,,0,3,3,3,,,,,,,,,,,,,,,,,,,,,,,,,,,,,,,,,,,,,,,,,,,1781.4146149000007,1781.4146149000007,1783.4840230000118,8.0,2.061286399999517,space,0.6733085999876494,,,,,,,,,,,,,,,,,,,,,,,,,,,,,,,,,,,,,,,,,,,,,,,,,,,,,,,,,,13,C,2023-12-08_13h02.10.319,gca_avoidance_task,2022.2.4,143.97811534755257,
