posFile,stimFile,cs_plus_s,cs_minus_s,cs_plus_ns,cs_minus_ns,stimtype,position,trialtype,trials_threshold.thisRepN,trials_threshold.thisTrialN,trials_threshold.thisN,trials_threshold.thisIndex,blocks.thisRepN,blocks.thisTrialN,blocks.thisN,blocks.thisIndex,ratingtrials1.thisRepN,ratingtrials1.thisTrialN,ratingtrials1.thisN,ratingtrials1.thisIndex,learning_trials.thisRepN,learning_trials.thisTrialN,learning_trials.thisN,learning_trials.thisIndex,trials.thisRepN,trials.thisTrialN,trials.thisN,trials.thisIndex,ratingtrials2.thisRepN,ratingtrials2.thisTrialN,ratingtrials2.thisN,ratingtrials2.thisIndex,testtrials.thisRepN,testtrials.thisTrialN,testtrials.thisN,testtrials.thisIndex,ratingtrials3.thisRepN,ratingtrials3.thisTrialN,ratingtrials3.thisN,ratingtrials3.thisIndex,textStart.started,sliderPainT.response,sliderPainT.rt,textStartExp.started,imageRating.started,sliderStim.response,sliderStim.rt,textStartTask.started,image.started,score,outcome,roi.numLooks,roi.timesOn,roi.timesOff,imageFeedback.started,sliderPain.response,sliderPain.rt,textTestInstr.started,imageTest.started,roiTest.numLooks,roiTest.timesOn,roiTest.timesOff,participant,group,date,expName,psychopyVersion,frameRate,
,,,,,,,,,0,0,0,0,,,,,,,,,,,,,,,,,,,,,,,,,,,,,14.42989889997989,None,None,,,,,,,,,,,,,,,,,,,,23,B,2023-12-13_14h41.11.614,gca_avoidance_task,2022.2.4,143.91263927639142,
positions.xlsx,stimuli.xlsx,stimuli/Social2.png,stimuli/Social1.png,stimuli/Nonsocial1.png,stimuli/Nonsocial2.png,cs_plus_ns,,,,,,,0,0,0,0,0,0,0,1,,,,,,,,,,,,,,,,,,,,,,,,159.86495459999423,171.40294539998285,5.0,12.360611299984157,,,,,,,,,,,,,,,,23,B,2023-12-13_14h41.11.614,gca_avoidance_task,2022.2.4,143.91263927639142,
positions.xlsx,stimuli.xlsx,stimuli/Social2.png,stimuli/Social1.png,stimuli/Nonsocial1.png,stimuli/Nonsocial2.png,cs_minus_ns,,,,,,,0,0,0,0,0,1,1,3,,,,,,,,,,,,,,,,,,,,,,,,,188.38142430002335,5.0,2.954948000027798,,,,,,,,,,,,,,,,23,B,2023-12-13_14h41.11.614,gca_avoidance_task,2022.2.4,143.91263927639142,
positions.xlsx,stimuli.xlsx,stimuli/Social2.png,stimuli/Social1.png,stimuli/Nonsocial1.png,stimuli/Nonsocial2.png,cs_minus_s,,,,,,,0,0,0,0,0,2,2,2,,,,,,,,,,,,,,,,,,,,,,,,,192.3673500000732,7.0,6.806736600003205,,,,,,,,,,,,,,,,23,B,2023-12-13_14h41.11.614,gca_avoidance_task,2022.2.4,143.91263927639142,
positions.xlsx,stimuli.xlsx,stimuli/Social2.png,stimuli/Social1.png,stimuli/Nonsocial1.png,stimuli/Nonsocial2.png,cs_plus_s,,,,,,,0,0,0,0,0,3,3,0,,,,,,,,,,,,,,,,,,,,,,,,,199.9712480000453,5.0,11.510988499969244,,,,,,,,,,,,,,,,23,B,2023-12-13_14h41.11.614,gca_avoidance_task,2022.2.4,143.91263927639142,
positions.xlsx,stimuli.xlsx,stimuli/Social2.png,stimuli/Social1.png,stimuli/Nonsocial1.png,stimuli/Nonsocial2.png,,"(0.7, -0.5)",cs_plus_ns,,,,,0,0,0,0,,,,,0,0,0,11,,,,,,,,,,,,,,,,,,,,,,,,212.3873983999947,248.64287510002032,0,shock,1,1.03500269993674,1.0350061999633908,249.68455280002672,,,,,,,,23,B,2023-12-13_14h41.11.614,gca_avoidance_task,2022.2.4,143.91263927639142,
positions.xlsx,stimuli.xlsx,stimuli/Social2.png,stimuli/Social1.png,stimuli/Nonsocial1.png,stimuli/Nonsocial2.png,,"(-0.7, -0.5)",cs_minus_ns,,,,,0,0,0,0,,,,,0,1,1,13,,,,,,,,,,,,,,,,,,,,,,,,,259.26748490007594,5,reward,1,0.965355799999088,0.9653594000265002,260.2466032000957,,,,,,,,23,B,2023-12-13_14h41.11.614,gca_avoidance_task,2022.2.4,143.91263927639142,
positions.xlsx,stimuli.xlsx,stimuli/Social2.png,stimuli/Social1.png,stimuli/Nonsocial1.png,stimuli/Nonsocial2.png,,"(-0.7, 0.5)",cs_minus_s,,,,,0,0,0,0,,,,,0,2,2,4,,,,,,,,,,,,,,,,,,,,,,,,,269.48934600001667,10,reward,1,0.8267171999905258,0.8267210000194609,270.32260270009283,,,,,,,,23,B,2023-12-13_14h41.11.614,gca_avoidance_task,2022.2.4,143.91263927639142,
positions.xlsx,stimuli.xlsx,stimuli/Social2.png,stimuli/Social1.png,stimuli/Nonsocial1.png,stimuli/Nonsocial2.png,,"(0.7, -0.5)",cs_minus_ns,,,,,0,0,0,0,,,,,0,3,3,15,,,,,,,,,,,,,,,,,,,,,,,,,279.10004310007207,15,reward,1,0.8681472999742255,0.8681511000031605,279.9749867999926,,,,,,,,23,B,2023-12-13_14h41.11.614,gca_avoidance_task,2022.2.4,143.91263927639142,
positions.xlsx,stimuli.xlsx,stimuli/Social2.png,stimuli/Social1.png,stimuli/Nonsocial1.png,stimuli/Nonsocial2.png,,"(0.7, 0.5)",cs_minus_ns,,,,,0,0,0,0,,,,,0,4,4,14,,,,,,,,,,,,,,,,,,,,,,,,,288.73161320004147,20,reward,1,0.5696097000036389,0.5696134999161586,289.3079783000285,,,,,,,,23,B,2023-12-13_14h41.11.614,gca_avoidance_task,2022.2.4,143.91263927639142,
positions.xlsx,stimuli.xlsx,stimuli/Social2.png,stimuli/Social1.png,stimuli/Nonsocial1.png,stimuli/Nonsocial2.png,,"(-0.7, -0.5)",cs_plus_s,,,,,0,0,0,0,,,,,0,5,5,1,,,,,,,,,,,,,,,,,,,,,,,,,298.9048364000628,20,shock,1,0.6041137999854982,0.6041177000151947,299.51595630007796,,,,,,,,23,B,2023-12-13_14h41.11.614,gca_avoidance_task,2022.2.4,143.91263927639142,
positions.xlsx,stimuli.xlsx,stimuli/Social2.png,stimuli/Social1.png,stimuli/Nonsocial1.png,stimuli/Nonsocial2.png,,"(-0.7, -0.5)",cs_minus_s,,,,,0,0,0,0,,,,,0,6,6,5,,,,,,,,,,,,,,,,,,,,,,,,,308.51556740002707,25,reward,1,0.6596478000283241,0.6596514000557363,309.1822347000707,,,,,,,,23,B,2023-12-13_14h41.11.614,gca_avoidance_task,2022.2.4,143.91263927639142,
positions.xlsx,stimuli.xlsx,stimuli/Social2.png,stimuli/Social1.png,stimuli/Nonsocial1.png,stimuli/Nonsocial2.png,,"(-0.7, 0.5)",cs_minus_ns,,,,,0,0,0,0,,,,,0,7,7,12,,,,,,,,,,,,,,,,,,,,,,,,,318.61932210007217,30,reward,1,1.0211777000222355,1.0211813000496477,319.64711870008614,,,,,,,,23,B,2023-12-13_14h41.11.614,gca_avoidance_task,2022.2.4,143.91263927639142,
positions.xlsx,stimuli.xlsx,stimuli/Social2.png,stimuli/Social1.png,stimuli/Nonsocial1.png,stimuli/Nonsocial2.png,,"(-0.7, -0.5)",cs_plus_ns,,,,,0,0,0,0,,,,,0,8,8,9,,,,,,,,,,,,,,,,,,,,,,,,,328.60504280007444,30,none,0,,,333.6187609999906,,,,,,,,23,B,2023-12-13_14h41.11.614,gca_avoidance_task,2022.2.4,143.91263927639142,
positions.xlsx,stimuli.xlsx,stimuli/Social2.png,stimuli/Social1.png,stimuli/Nonsocial1.png,stimuli/Nonsocial2.png,,"(0.7, -0.5)",cs_plus_s,,,,,0,0,0,0,,,,,0,9,9,3,,,,,,,,,,,,,,,,,,,,,,,,,343.3197466999991,30,none,0,,,348.32649260002654,,,,,,,,23,B,2023-12-13_14h41.11.614,gca_avoidance_task,2022.2.4,143.91263927639142,
positions.xlsx,stimuli.xlsx,stimuli/Social2.png,stimuli/Social1.png,stimuli/Nonsocial1.png,stimuli/Nonsocial2.png,,"(-0.7, 0.5)",cs_plus_s,,,,,0,0,0,0,,,,,0,10,10,0,,,,,,,,,,,,,,,,,,,,,,,,,358.10389660007786,30,shock,1,2.8338382999645546,2.833842199994251,360.94410409999546,,,,,,,,23,B,2023-12-13_14h41.11.614,gca_avoidance_task,2022.2.4,143.91263927639142,
positions.xlsx,stimuli.xlsx,stimuli/Social2.png,stimuli/Social1.png,stimuli/Nonsocial1.png,stimuli/Nonsocial2.png,,"(0.7, -0.5)",cs_minus_s,,,,,0,0,0,0,,,,,0,11,11,7,,,,,,,,,,,,,,,,,,,,,,,,,371.0686289999867,35,reward,1,0.673902599955909,0.6739193999674171,371.7492290000664,,,,,,,,23,B,2023-12-13_14h41.11.614,gca_avoidance_task,2022.2.4,143.91263927639142,
positions.xlsx,stimuli.xlsx,stimuli/Social2.png,stimuli/Social1.png,stimuli/Nonsocial1.png,stimuli/Nonsocial2.png,,"(0.7, 0.5)",cs_plus_ns,,,,,0,0,0,0,,,,,0,12,12,10,,,,,,,,,,,,,,,,,,,,,,,,,381.47801590000745,35,none,0,,,386.484717000043,,,,,,,,23,B,2023-12-13_14h41.11.614,gca_avoidance_task,2022.2.4,143.91263927639142,
positions.xlsx,stimuli.xlsx,stimuli/Social2.png,stimuli/Social1.png,stimuli/Nonsocial1.png,stimuli/Nonsocial2.png,,"(-0.7, 0.5)",cs_plus_ns,,,,,0,0,0,0,,,,,0,13,13,8,,,,,,,,,,,,,,,,,,,,,,,,,395.4704869000707,35,none,0,,,400.4772512000054,,,,,,,,23,B,2023-12-13_14h41.11.614,gca_avoidance_task,2022.2.4,143.91263927639142,
positions.xlsx,stimuli.xlsx,stimuli/Social2.png,stimuli/Social1.png,stimuli/Nonsocial1.png,stimuli/Nonsocial2.png,,"(0.7, 0.5)",cs_minus_s,,,,,0,0,0,0,,,,,0,14,14,6,,,,,,,,,,,,,,,,,,,,,,,,,410.37268660007976,40,reward,1,0.8194885000120848,0.8194922000402585,411.19904680002946,,,,,,,,23,B,2023-12-13_14h41.11.614,gca_avoidance_task,2022.2.4,143.91263927639142,
positions.xlsx,stimuli.xlsx,stimuli/Social2.png,stimuli/Social1.png,stimuli/Nonsocial1.png,stimuli/Nonsocial2.png,,"(0.7, 0.5)",cs_plus_s,,,,,0,0,0,0,,,,,0,15,15,2,,,,,,,,,,,,,,,,,,,,,,,,,419.8792827000143,40,none,0,,,424.88597740000114,,,,,,,,23,B,2023-12-13_14h41.11.614,gca_avoidance_task,2022.2.4,143.91263927639142,
positions.xlsx,stimuli.xlsx,stimuli/Social2.png,stimuli/Social1.png,stimuli/Nonsocial1.png,stimuli/Nonsocial2.png,,"(-0.7, 0.5)",cs_minus_s,,,,,0,0,0,0,,,,,1,0,16,4,,,,,,,,,,,,,,,,,,,,,,,,,434.42032300005667,45,reward,1,0.6319490999449044,0.6319527999730781,435.05923810007516,,,,,,,,23,B,2023-12-13_14h41.11.614,gca_avoidance_task,2022.2.4,143.91263927639142,
positions.xlsx,stimuli.xlsx,stimuli/Social2.png,stimuli/Social1.png,stimuli/Nonsocial1.png,stimuli/Nonsocial2.png,,"(-0.7, -0.5)",cs_plus_s,,,,,0,0,0,0,,,,,1,1,17,1,,,,,,,,,,,,,,,,,,,,,,,,,444.1699990000343,45,shock,1,1.6250839999411255,1.6250876999692991,445.8018604000099,,,,,,,,23,B,2023-12-13_14h41.11.614,gca_avoidance_task,2022.2.4,143.91263927639142,
positions.xlsx,stimuli.xlsx,stimuli/Social2.png,stimuli/Social1.png,stimuli/Nonsocial1.png,stimuli/Nonsocial2.png,,"(0.7, 0.5)",cs_plus_s,,,,,0,0,0,0,,,,,1,2,18,2,,,,,,,,,,,,,,,,,,,,,,,,,454.86400529998355,45,none,0,,,459.8707598000765,,,,,,,,23,B,2023-12-13_14h41.11.614,gca_avoidance_task,2022.2.4,143.91263927639142,
positions.xlsx,stimuli.xlsx,stimuli/Social2.png,stimuli/Social1.png,stimuli/Nonsocial1.png,stimuli/Nonsocial2.png,,"(0.7, -0.5)",cs_plus_ns,,,,,0,0,0,0,,,,,1,3,19,11,,,,,,,,,,,,,,,,,,,,,,,,,469.48146959999576,45,none,0,,,474.4882375000743,,,,,,,,23,B,2023-12-13_14h41.11.614,gca_avoidance_task,2022.2.4,143.91263927639142,
positions.xlsx,stimuli.xlsx,stimuli/Social2.png,stimuli/Social1.png,stimuli/Nonsocial1.png,stimuli/Nonsocial2.png,,"(-0.7, -0.5)",cs_plus_ns,,,,,0,0,0,0,,,,,1,4,20,9,,,,,,,,,,,,,,,,,,,,,,,,,483.63374720001593,45,none,0,,,488.6404657000676,,,,,,,,23,B,2023-12-13_14h41.11.614,gca_avoidance_task,2022.2.4,143.91263927639142,
positions.xlsx,stimuli.xlsx,stimuli/Social2.png,stimuli/Social1.png,stimuli/Nonsocial1.png,stimuli/Nonsocial2.png,,"(0.7, -0.5)",cs_plus_s,,,,,0,0,0,0,,,,,1,5,21,3,,,,,,,,,,,,,,,,,,,,,,,,,497.8623472000472,45,none,0,,,502.8690922000678,,,,,,,,23,B,2023-12-13_14h41.11.614,gca_avoidance_task,2022.2.4,143.91263927639142,
positions.xlsx,stimuli.xlsx,stimuli/Social2.png,stimuli/Social1.png,stimuli/Nonsocial1.png,stimuli/Nonsocial2.png,,"(0.7, -0.5)",cs_minus_ns,,,,,0,0,0,0,,,,,1,6,22,15,,,,,,,,,,,,,,,,,,,,,,,,,512.8340009000385,50,reward,1,1.097410500049591,1.0974142999621108,513.9381230000872,,,,,,,,23,B,2023-12-13_14h41.11.614,gca_avoidance_task,2022.2.4,143.91263927639142,
positions.xlsx,stimuli.xlsx,stimuli/Social2.png,stimuli/Social1.png,stimuli/Nonsocial1.png,stimuli/Nonsocial2.png,,"(0.7, 0.5)",cs_minus_s,,,,,0,0,0,0,,,,,1,7,23,6,,,,,,,,,,,,,,,,,,,,,,,,,523.2085651000962,55,reward,1,0.4863372999243438,0.4863410999532789,523.7016311000334,,,,,,,,23,B,2023-12-13_14h41.11.614,gca_avoidance_task,2022.2.4,143.91263927639142,
positions.xlsx,stimuli.xlsx,stimuli/Social2.png,stimuli/Social1.png,stimuli/Nonsocial1.png,stimuli/Nonsocial2.png,,"(-0.7, -0.5)",cs_minus_s,,,,,0,0,0,0,,,,,1,8,24,5,,,,,,,,,,,,,,,,,,,,,,,,,532.5276490000542,60,reward,1,0.6600245999870822,0.6600284000160173,533.1943271000637,,,,,,,,23,B,2023-12-13_14h41.11.614,gca_avoidance_task,2022.2.4,143.91263927639142,
positions.xlsx,stimuli.xlsx,stimuli/Social2.png,stimuli/Social1.png,stimuli/Nonsocial1.png,stimuli/Nonsocial2.png,,"(0.7, 0.5)",cs_plus_ns,,,,,0,0,0,0,,,,,1,9,25,10,,,,,,,,,,,,,,,,,,,,,,,,,542.6661576000042,60,none,0,,,547.6729023000225,,,,,,,,23,B,2023-12-13_14h41.11.614,gca_avoidance_task,2022.2.4,143.91263927639142,
positions.xlsx,stimuli.xlsx,stimuli/Social2.png,stimuli/Social1.png,stimuli/Nonsocial1.png,stimuli/Nonsocial2.png,,"(-0.7, 0.5)",cs_plus_s,,,,,0,0,0,0,,,,,1,10,26,0,,,,,,,,,,,,,,,,,,,,,,,,,556.7073384000687,60,none,0,,,561.7140126000158,,,,,,,,23,B,2023-12-13_14h41.11.614,gca_avoidance_task,2022.2.4,143.91263927639142,
positions.xlsx,stimuli.xlsx,stimuli/Social2.png,stimuli/Social1.png,stimuli/Nonsocial1.png,stimuli/Nonsocial2.png,,"(-0.7, 0.5)",cs_plus_ns,,,,,0,0,0,0,,,,,1,11,27,8,,,,,,,,,,,,,,,,,,,,,,,,,571.3942031000042,60,none,0,,,576.4009673000546,,,,,,,,23,B,2023-12-13_14h41.11.614,gca_avoidance_task,2022.2.4,143.91263927639142,
positions.xlsx,stimuli.xlsx,stimuli/Social2.png,stimuli/Social1.png,stimuli/Nonsocial1.png,stimuli/Nonsocial2.png,,"(-0.7, 0.5)",cs_minus_ns,,,,,0,0,0,0,,,,,1,12,28,12,,,,,,,,,,,,,,,,,,,,,,,,,586.5394119999837,65,reward,1,0.6670673999469727,0.6670711999759078,587.2130759999854,,,,,,,,23,B,2023-12-13_14h41.11.614,gca_avoidance_task,2022.2.4,143.91263927639142,
positions.xlsx,stimuli.xlsx,stimuli/Social2.png,stimuli/Social1.png,stimuli/Nonsocial1.png,stimuli/Nonsocial2.png,,"(-0.7, -0.5)",cs_minus_ns,,,,,0,0,0,0,,,,,1,13,29,13,,,,,,,,,,,,,,,,,,,,,,,,,597.1293117000023,70,reward,1,0.7294351999880746,0.7294390000170097,597.8723348000785,,,,,,,,23,B,2023-12-13_14h41.11.614,gca_avoidance_task,2022.2.4,143.91263927639142,
positions.xlsx,stimuli.xlsx,stimuli/Social2.png,stimuli/Social1.png,stimuli/Nonsocial1.png,stimuli/Nonsocial2.png,,"(0.7, -0.5)",cs_minus_s,,,,,0,0,0,0,,,,,1,14,30,7,,,,,,,,,,,,,,,,,,,,,,,,,607.5316907000961,75,reward,1,0.8541451999917626,0.8541490000206977,608.3927919000853,,,,,,,,23,B,2023-12-13_14h41.11.614,gca_avoidance_task,2022.2.4,143.91263927639142,
positions.xlsx,stimuli.xlsx,stimuli/Social2.png,stimuli/Social1.png,stimuli/Nonsocial1.png,stimuli/Nonsocial2.png,,"(0.7, 0.5)",cs_minus_ns,,,,,0,0,0,0,,,,,1,15,31,14,,,,,,,,,,,,,,,,,,,,,,,,,617.0868915000465,80,reward,1,0.6460651999805123,0.6460691000102088,617.739648799994,,,,,,,,23,B,2023-12-13_14h41.11.614,gca_avoidance_task,2022.2.4,143.91263927639142,
positions.xlsx,stimuli.xlsx,stimuli/Social2.png,stimuli/Social1.png,stimuli/Nonsocial1.png,stimuli/Nonsocial2.png,,"(0.7, -0.5)",cs_plus_ns,,,,,0,0,0,0,,,,,,,,,0,0,0,11,,,,,,,,,,,,,,,,,,,,,639.1693397000199,80,shock,1,0.861596200033091,0.8616001000627875,640.0374386000913,,,,,,,,23,B,2023-12-13_14h41.11.614,gca_avoidance_task,2022.2.4,143.91263927639142,
positions.xlsx,stimuli.xlsx,stimuli/Social2.png,stimuli/Social1.png,stimuli/Nonsocial1.png,stimuli/Nonsocial2.png,,"(0.7, -0.5)",cs_plus_s,,,,,0,0,0,0,,,,,,,,,0,1,1,3,,,,,,,,,,,,,,,,,,,,,649.7036610000068,80,shock,1,0.9721958000445738,0.9721993999555707,650.682853300008,,,,,,,,23,B,2023-12-13_14h41.11.614,gca_avoidance_task,2022.2.4,143.91263927639142,
positions.xlsx,stimuli.xlsx,stimuli/Social2.png,stimuli/Social1.png,stimuli/Nonsocial1.png,stimuli/Nonsocial2.png,,"(-0.7, 0.5)",cs_minus_s,,,,,0,0,0,0,,,,,,,,,0,2,2,4,,,,,,,,,,,,,,,,,,,,,659.8907783000031,85,reward,1,0.6181889000581577,0.6181926000863314,660.5157241000561,,,,,,,,23,B,2023-12-13_14h41.11.614,gca_avoidance_task,2022.2.4,143.91263927639142,
positions.xlsx,stimuli.xlsx,stimuli/Social2.png,stimuli/Social1.png,stimuli/Nonsocial1.png,stimuli/Nonsocial2.png,,"(0.7, 0.5)",cs_plus_s,,,,,0,0,0,0,,,,,,,,,0,3,3,2,,,,,,,,,,,,,,,,,,,,,669.7862353000091,85,none,0,,,674.7929808000335,,,,,,,,23,B,2023-12-13_14h41.11.614,gca_avoidance_task,2022.2.4,143.91263927639142,
positions.xlsx,stimuli.xlsx,stimuli/Social2.png,stimuli/Social1.png,stimuli/Nonsocial1.png,stimuli/Nonsocial2.png,,"(0.7, 0.5)",cs_minus_s,,,,,0,0,0,0,,,,,,,,,0,4,4,6,,,,,,,,,,,,,,,,,,,,,685.0008968000766,90,reward,1,0.743419099948369,0.7434229999780655,685.7509154999861,,,,,,,,23,B,2023-12-13_14h41.11.614,gca_avoidance_task,2022.2.4,143.91263927639142,
positions.xlsx,stimuli.xlsx,stimuli/Social2.png,stimuli/Social1.png,stimuli/Nonsocial1.png,stimuli/Nonsocial2.png,,"(-0.7, 0.5)",cs_plus_ns,,,,,0,0,0,0,,,,,,,,,0,5,5,8,,,,,,,,,,,,,,,,,,,,,695.6949515000451,90,none,0,,,700.7016498000594,,,,,,,,23,B,2023-12-13_14h41.11.614,gca_avoidance_task,2022.2.4,143.91263927639142,
positions.xlsx,stimuli.xlsx,stimuli/Social2.png,stimuli/Social1.png,stimuli/Nonsocial1.png,stimuli/Nonsocial2.png,,"(-0.7, -0.5)",cs_plus_ns,,,,,0,0,0,0,,,,,,,,,0,6,6,9,,,,,,,,,,,,,,,,,,,,,710.8054782000836,90,none,0,,,715.812210700009,,,,,,,,23,B,2023-12-13_14h41.11.614,gca_avoidance_task,2022.2.4,143.91263927639142,
positions.xlsx,stimuli.xlsx,stimuli/Social2.png,stimuli/Social1.png,stimuli/Nonsocial1.png,stimuli/Nonsocial2.png,,"(-0.7, -0.5)",cs_plus_s,,,,,0,0,0,0,,,,,,,,,0,7,7,1,,,,,,,,,,,,,,,,,,,,,725.4368099999847,90,shock,1,0.9861509000184014,0.9861547999316826,726.4298203000799,,,,,,,,23,B,2023-12-13_14h41.11.614,gca_avoidance_task,2022.2.4,143.91263927639142,
positions.xlsx,stimuli.xlsx,stimuli/Social2.png,stimuli/Social1.png,stimuli/Nonsocial1.png,stimuli/Nonsocial2.png,,"(0.7, -0.5)",cs_minus_s,,,,,0,0,0,0,,,,,,,,,0,8,8,7,,,,,,,,,,,,,,,,,,,,,735.9919794000452,95,reward,1,0.8962356999982148,0.8962396000279114,736.894745000056,,,,,,,,23,B,2023-12-13_14h41.11.614,gca_avoidance_task,2022.2.4,143.91263927639142,
positions.xlsx,stimuli.xlsx,stimuli/Social2.png,stimuli/Social1.png,stimuli/Nonsocial1.png,stimuli/Nonsocial2.png,,"(-0.7, 0.5)",cs_plus_s,,,,,0,0,0,0,,,,,,,,,0,9,9,0,,,,,,,,,,,,,,,,,,,,,746.7276897000847,95,none,0,,,751.734439300024,,,,,,,,23,B,2023-12-13_14h41.11.614,gca_avoidance_task,2022.2.4,143.91263927639142,
positions.xlsx,stimuli.xlsx,stimuli/Social2.png,stimuli/Social1.png,stimuli/Nonsocial1.png,stimuli/Nonsocial2.png,,"(-0.7, -0.5)",cs_minus_ns,,,,,0,0,0,0,,,,,,,,,0,10,10,13,,,,,,,,,,,,,,,,,,,,,761.0326698999852,100,reward,1,1.0974740999517962,1.0974778999807313,762.1367898000171,,,,,,,,23,B,2023-12-13_14h41.11.614,gca_avoidance_task,2022.2.4,143.91263927639142,
positions.xlsx,stimuli.xlsx,stimuli/Social2.png,stimuli/Social1.png,stimuli/Nonsocial1.png,stimuli/Nonsocial2.png,,"(-0.7, -0.5)",cs_minus_s,,,,,0,0,0,0,,,,,,,,,0,11,11,5,,,,,,,,,,,,,,,,,,,,,772.0878191000083,105,reward,1,0.7294115000404418,0.7294155000708997,772.8239230000181,,,,,,,,23,B,2023-12-13_14h41.11.614,gca_avoidance_task,2022.2.4,143.91263927639142,
positions.xlsx,stimuli.xlsx,stimuli/Social2.png,stimuli/Social1.png,stimuli/Nonsocial1.png,stimuli/Nonsocial2.png,,"(0.7, 0.5)",cs_plus_ns,,,,,0,0,0,0,,,,,,,,,0,12,12,10,,,,,,,,,,,,,,,,,,,,,782.2748750000028,105,none,0,,,787.2817046000855,,,,,,,,23,B,2023-12-13_14h41.11.614,gca_avoidance_task,2022.2.4,143.91263927639142,
positions.xlsx,stimuli.xlsx,stimuli/Social2.png,stimuli/Social1.png,stimuli/Nonsocial1.png,stimuli/Nonsocial2.png,,"(0.7, -0.5)",cs_minus_ns,,,,,0,0,0,0,,,,,,,,,0,13,13,15,,,,,,,,,,,,,,,,,,,,,796.8368493000744,110,reward,1,0.6670023000333458,0.6670061000622809,797.5104357000673,,,,,,,,23,B,2023-12-13_14h41.11.614,gca_avoidance_task,2022.2.4,143.91263927639142,
positions.xlsx,stimuli.xlsx,stimuli/Social2.png,stimuli/Social1.png,stimuli/Nonsocial1.png,stimuli/Nonsocial2.png,,"(-0.7, 0.5)",cs_minus_ns,,,,,0,0,0,0,,,,,,,,,0,14,14,12,,,,,,,,,,,,,,,,,,,,,807.4405931000365,115,reward,1,0.777781100012362,0.7777848000405356,808.2253500000807,,,,,,,,23,B,2023-12-13_14h41.11.614,gca_avoidance_task,2022.2.4,143.91263927639142,
positions.xlsx,stimuli.xlsx,stimuli/Social2.png,stimuli/Social1.png,stimuli/Nonsocial1.png,stimuli/Nonsocial2.png,,"(0.7, 0.5)",cs_minus_ns,,,,,0,0,0,0,,,,,,,,,0,15,15,14,,,,,,,,,,,,,,,,,,,,,818.21794890007,120,reward,1,0.5489128000335768,0.5554740000516176,818.780421600095,,,,,,,,23,B,2023-12-13_14h41.11.614,gca_avoidance_task,2022.2.4,143.91263927639142,
positions.xlsx,stimuli.xlsx,stimuli/Social2.png,stimuli/Social1.png,stimuli/Nonsocial1.png,stimuli/Nonsocial2.png,,"(0.7, 0.5)",cs_minus_s,,,,,0,0,0,0,,,,,,,,,1,0,16,6,,,,,,,,,,,,,,,,,,,,,827.7731453999877,125,reward,1,2.4308455999707803,2.4377966999309137,830.2175072000828,,,,,,,,23,B,2023-12-13_14h41.11.614,gca_avoidance_task,2022.2.4,143.91263927639142,
positions.xlsx,stimuli.xlsx,stimuli/Social2.png,stimuli/Social1.png,stimuli/Nonsocial1.png,stimuli/Nonsocial2.png,,"(0.7, -0.5)",cs_minus_ns,,,,,0,0,0,0,,,,,,,,,1,1,17,15,,,,,,,,,,,,,,,,,,,,,839.3004585000454,130,reward,1,0.26414890005253255,0.26415259996429086,839.5713209999958,,,,,,,,23,B,2023-12-13_14h41.11.614,gca_avoidance_task,2022.2.4,143.91263927639142,
positions.xlsx,stimuli.xlsx,stimuli/Social2.png,stimuli/Social1.png,stimuli/Nonsocial1.png,stimuli/Nonsocial2.png,,"(-0.7, -0.5)",cs_minus_s,,,,,0,0,0,0,,,,,,,,,1,2,18,5,,,,,,,,,,,,,,,,,,,,,849.050095200073,135,reward,1,0.6737832999788225,0.6737869000062346,849.7306449000025,,,,,,,,23,B,2023-12-13_14h41.11.614,gca_avoidance_task,2022.2.4,143.91263927639142,
positions.xlsx,stimuli.xlsx,stimuli/Social2.png,stimuli/Social1.png,stimuli/Nonsocial1.png,stimuli/Nonsocial2.png,,"(-0.7, -0.5)",cs_plus_s,,,,,0,0,0,0,,,,,,,,,1,3,19,1,,,,,,,,,,,,,,,,,,,,,859.2858371000038,135,none,0,,,864.2925664000213,,,,,,,,23,B,2023-12-13_14h41.11.614,gca_avoidance_task,2022.2.4,143.91263927639142,
positions.xlsx,stimuli.xlsx,stimuli/Social2.png,stimuli/Social1.png,stimuli/Nonsocial1.png,stimuli/Nonsocial2.png,,"(0.7, 0.5)",cs_plus_s,,,,,0,0,0,0,,,,,,,,,1,4,20,2,,,,,,,,,,,,,,,,,,,,,873.8755222000182,135,none,0,,,878.8822785000084,,,,,,,,23,B,2023-12-13_14h41.11.614,gca_avoidance_task,2022.2.4,143.91263927639142,
positions.xlsx,stimuli.xlsx,stimuli/Social2.png,stimuli/Social1.png,stimuli/Nonsocial1.png,stimuli/Nonsocial2.png,,"(0.7, -0.5)",cs_plus_s,,,,,0,0,0,0,,,,,,,,,1,5,21,3,,,,,,,,,,,,,,,,,,,,,888.3124444000423,135,none,0,,,893.3192004000302,,,,,,,,23,B,2023-12-13_14h41.11.614,gca_avoidance_task,2022.2.4,143.91263927639142,
positions.xlsx,stimuli.xlsx,stimuli/Social2.png,stimuli/Social1.png,stimuli/Nonsocial1.png,stimuli/Nonsocial2.png,,"(0.7, -0.5)",cs_plus_ns,,,,,0,0,0,0,,,,,,,,,1,6,22,11,,,,,,,,,,,,,,,,,,,,,902.999380000052,135,none,0,,,908.0061111000832,,,,,,,,23,B,2023-12-13_14h41.11.614,gca_avoidance_task,2022.2.4,143.91263927639142,
positions.xlsx,stimuli.xlsx,stimuli/Social2.png,stimuli/Social1.png,stimuli/Nonsocial1.png,stimuli/Nonsocial2.png,,"(-0.7, -0.5)",cs_plus_ns,,,,,0,0,0,0,,,,,,,,,1,7,23,9,,,,,,,,,,,,,,,,,,,,,918.2835229000775,135,none,0,,,923.2902815000853,,,,,,,,23,B,2023-12-13_14h41.11.614,gca_avoidance_task,2022.2.4,143.91263927639142,
positions.xlsx,stimuli.xlsx,stimuli/Social2.png,stimuli/Social1.png,stimuli/Nonsocial1.png,stimuli/Nonsocial2.png,,"(-0.7, 0.5)",cs_plus_ns,,,,,0,0,0,0,,,,,,,,,1,8,24,8,,,,,,,,,,,,,,,,,,,,,933.2620968000265,135,none,0,,,938.2688424000517,,,,,,,,23,B,2023-12-13_14h41.11.614,gca_avoidance_task,2022.2.4,143.91263927639142,
positions.xlsx,stimuli.xlsx,stimuli/Social2.png,stimuli/Social1.png,stimuli/Nonsocial1.png,stimuli/Nonsocial2.png,,"(-0.7, -0.5)",cs_minus_ns,,,,,0,0,0,0,,,,,,,,,1,9,25,13,,,,,,,,,,,,,,,,,,,,,947.7893100000219,140,reward,1,0.7990561999613419,0.799059999990277,948.5949208000675,,,,,,,,23,B,2023-12-13_14h41.11.614,gca_avoidance_task,2022.2.4,143.91263927639142,
positions.xlsx,stimuli.xlsx,stimuli/Social2.png,stimuli/Social1.png,stimuli/Nonsocial1.png,stimuli/Nonsocial2.png,,"(0.7, -0.5)",cs_minus_s,,,,,0,0,0,0,,,,,,,,,1,10,26,7,,,,,,,,,,,,,,,,,,,,,958.0250506000593,145,reward,1,0.7085065999999642,0.7085100000258535,958.7402582000941,,,,,,,,23,B,2023-12-13_14h41.11.614,gca_avoidance_task,2022.2.4,143.91263927639142,
positions.xlsx,stimuli.xlsx,stimuli/Social2.png,stimuli/Social1.png,stimuli/Nonsocial1.png,stimuli/Nonsocial2.png,,"(-0.7, 0.5)",cs_minus_ns,,,,,0,0,0,0,,,,,,,,,1,11,27,12,,,,,,,,,,,,,,,,,,,,,967.7677343999967,150,reward,1,0.6112358999671414,0.6181609999621287,968.3926968000596,,,,,,,,23,B,2023-12-13_14h41.11.614,gca_avoidance_task,2022.2.4,143.91263927639142,
positions.xlsx,stimuli.xlsx,stimuli/Social2.png,stimuli/Social1.png,stimuli/Nonsocial1.png,stimuli/Nonsocial2.png,,"(0.7, 0.5)",cs_plus_ns,,,,,0,0,0,0,,,,,,,,,1,12,28,10,,,,,,,,,,,,,,,,,,,,,977.7395389000885,150,none,0,,,982.7463111000834,,,,,,,,23,B,2023-12-13_14h41.11.614,gca_avoidance_task,2022.2.4,143.91263927639142,
positions.xlsx,stimuli.xlsx,stimuli/Social2.png,stimuli/Social1.png,stimuli/Nonsocial1.png,stimuli/Nonsocial2.png,,"(0.7, 0.5)",cs_minus_ns,,,,,0,0,0,0,,,,,,,,,1,13,29,14,,,,,,,,,,,,,,,,,,,,,992.6209114000667,155,reward,1,0.6458458999404684,0.6458493999671191,993.2736738000531,,,,,,,,23,B,2023-12-13_14h41.11.614,gca_avoidance_task,2022.2.4,143.91263927639142,
positions.xlsx,stimuli.xlsx,stimuli/Social2.png,stimuli/Social1.png,stimuli/Nonsocial1.png,stimuli/Nonsocial2.png,,"(-0.7, 0.5)",cs_minus_s,,,,,0,0,0,0,,,,,,,,,1,14,30,4,,,,,,,,,,,,,,,,,,,,,1002.9052344000665,160,reward,1,0.6527940999949351,0.6527979000238702,1003.5649203000357,,,,,,,,23,B,2023-12-13_14h41.11.614,gca_avoidance_task,2022.2.4,143.91263927639142,
positions.xlsx,stimuli.xlsx,stimuli/Social2.png,stimuli/Social1.png,stimuli/Nonsocial1.png,stimuli/Nonsocial2.png,,"(-0.7, 0.5)",cs_plus_s,,,,,0,0,0,0,,,,,,,,,1,15,31,0,,,,,,,,,,,,,,,,,,,,,1013.2173449000111,160,none,0,,,1018.2240696999943,,,,,,,,23,B,2023-12-13_14h41.11.614,gca_avoidance_task,2022.2.4,143.91263927639142,
positions.xlsx,stimuli.xlsx,stimuli/Social2.png,stimuli/Social1.png,stimuli/Nonsocial1.png,stimuli/Nonsocial2.png,,"(0.7, 0.5)",cs_minus_s,,,,,0,0,0,0,,,,,,,,,2,0,32,6,,,,,,,,,,,,,,,,,,,,,1028.3209107000148,165,reward,1,0.7366222999989986,0.7366262000286952,1029.063942000037,,,,,,,,23,B,2023-12-13_14h41.11.614,gca_avoidance_task,2022.2.4,143.91263927639142,
positions.xlsx,stimuli.xlsx,stimuli/Social2.png,stimuli/Social1.png,stimuli/Nonsocial1.png,stimuli/Nonsocial2.png,,"(-0.7, -0.5)",cs_minus_s,,,,,0,0,0,0,,,,,,,,,2,1,33,5,,,,,,,,,,,,,,,,,,,,,1038.9246962000616,170,reward,1,0.8682979999575764,0.8683017999865115,1039.7996605000226,,,,,,,,23,B,2023-12-13_14h41.11.614,gca_avoidance_task,2022.2.4,143.91263927639142,
positions.xlsx,stimuli.xlsx,stimuli/Social2.png,stimuli/Social1.png,stimuli/Nonsocial1.png,stimuli/Nonsocial2.png,,"(-0.7, 0.5)",cs_plus_s,,,,,0,0,0,0,,,,,,,,,2,2,34,0,,,,,,,,,,,,,,,,,,,,,1049.7575886000413,170,none,0,,,1054.7643954000669,,,,,,,,23,B,2023-12-13_14h41.11.614,gca_avoidance_task,2022.2.4,143.91263927639142,
positions.xlsx,stimuli.xlsx,stimuli/Social2.png,stimuli/Social1.png,stimuli/Nonsocial1.png,stimuli/Nonsocial2.png,,"(-0.7, -0.5)",cs_plus_s,,,,,0,0,0,0,,,,,,,,,2,3,35,1,,,,,,,,,,,,,,,,,,,,,1064.5278470000485,170,none,0,,,1069.534634700045,,,,,,,,23,B,2023-12-13_14h41.11.614,gca_avoidance_task,2022.2.4,143.91263927639142,
positions.xlsx,stimuli.xlsx,stimuli/Social2.png,stimuli/Social1.png,stimuli/Nonsocial1.png,stimuli/Nonsocial2.png,,"(0.7, -0.5)",cs_minus_s,,,,,0,0,0,0,,,,,,,,,2,4,36,7,,,,,,,,,,,,,,,,,,,,,1079.485600600019,175,reward,1,0.7572420000797138,0.7572459001094103,1080.2494509000098,,,,,,,,23,B,2023-12-13_14h41.11.614,gca_avoidance_task,2022.2.4,143.91263927639142,
positions.xlsx,stimuli.xlsx,stimuli/Social2.png,stimuli/Social1.png,stimuli/Nonsocial1.png,stimuli/Nonsocial2.png,,"(-0.7, 0.5)",cs_plus_ns,,,,,0,0,0,0,,,,,,,,,2,5,37,8,,,,,,,,,,,,,,,,,,,,,1089.3393754999852,175,none,0,,,1094.346183000016,,,,,,,,23,B,2023-12-13_14h41.11.614,gca_avoidance_task,2022.2.4,143.91263927639142,
positions.xlsx,stimuli.xlsx,stimuli/Social2.png,stimuli/Social1.png,stimuli/Nonsocial1.png,stimuli/Nonsocial2.png,,"(0.7, -0.5)",cs_minus_ns,,,,,0,0,0,0,,,,,,,,,2,6,38,15,,,,,,,,,,,,,,,,,,,,,1104.123534000013,180,reward,1,0.6184629000490531,0.6184668000787497,1104.7485479000024,,,,,,,,23,B,2023-12-13_14h41.11.614,gca_avoidance_task,2022.2.4,143.91263927639142,
positions.xlsx,stimuli.xlsx,stimuli/Social2.png,stimuli/Social1.png,stimuli/Nonsocial1.png,stimuli/Nonsocial2.png,,"(-0.7, -0.5)",cs_plus_ns,,,,,0,0,0,0,,,,,,,,,2,7,39,9,,,,,,,,,,,,,,,,,,,,,1113.93568460003,180,none,0,,,1118.9493977000238,,,,,,,,23,B,2023-12-13_14h41.11.614,gca_avoidance_task,2022.2.4,143.91263927639142,
positions.xlsx,stimuli.xlsx,stimuli/Social2.png,stimuli/Social1.png,stimuli/Nonsocial1.png,stimuli/Nonsocial2.png,,"(0.7, 0.5)",cs_plus_s,,,,,0,0,0,0,,,,,,,,,2,8,40,2,,,,,,,,,,,,,,,,,,,,,1128.1364897000603,180,none,0,,,1133.1432615000522,,,,,,,,23,B,2023-12-13_14h41.11.614,gca_avoidance_task,2022.2.4,143.91263927639142,
positions.xlsx,stimuli.xlsx,stimuli/Social2.png,stimuli/Social1.png,stimuli/Nonsocial1.png,stimuli/Nonsocial2.png,,"(0.7, 0.5)",cs_minus_ns,,,,,0,0,0,0,,,,,,,,,2,9,41,14,,,,,,,,,,,,,,,,,,,,,1143.1428563999943,185,reward,1,0.7638607999542728,0.7638645999832079,1143.9137217000825,,,,,,,,23,B,2023-12-13_14h41.11.614,gca_avoidance_task,2022.2.4,143.91263927639142,
positions.xlsx,stimuli.xlsx,stimuli/Social2.png,stimuli/Social1.png,stimuli/Nonsocial1.png,stimuli/Nonsocial2.png,,"(0.7, -0.5)",cs_plus_ns,,,,,0,0,0,0,,,,,,,,,2,10,42,11,,,,,,,,,,,,,,,,,,,,,1153.0800083000213,185,none,0,,,1158.0867394000525,,,,,,,,23,B,2023-12-13_14h41.11.614,gca_avoidance_task,2022.2.4,143.91263927639142,
positions.xlsx,stimuli.xlsx,stimuli/Social2.png,stimuli/Social1.png,stimuli/Nonsocial1.png,stimuli/Nonsocial2.png,,"(-0.7, -0.5)",cs_minus_ns,,,,,0,0,0,0,,,,,,,,,2,11,43,13,,,,,,,,,,,,,,,,,,,,,1168.0238508000039,190,reward,1,0.5832134999800473,0.5832170000066981,1168.614143599989,,,,,,,,23,B,2023-12-13_14h41.11.614,gca_avoidance_task,2022.2.4,143.91263927639142,
positions.xlsx,stimuli.xlsx,stimuli/Social2.png,stimuli/Social1.png,stimuli/Nonsocial1.png,stimuli/Nonsocial2.png,,"(0.7, 0.5)",cs_plus_ns,,,,,0,0,0,0,,,,,,,,,2,12,44,10,,,,,,,,,,,,,,,,,,,,,1178.8567419000901,190,none,0,,,1183.863560100086,,,,,,,,23,B,2023-12-13_14h41.11.614,gca_avoidance_task,2022.2.4,143.91263927639142,
positions.xlsx,stimuli.xlsx,stimuli/Social2.png,stimuli/Social1.png,stimuli/Nonsocial1.png,stimuli/Nonsocial2.png,,"(-0.7, 0.5)",cs_minus_s,,,,,0,0,0,0,,,,,,,,,2,13,45,4,,,,,,,,,,,,,,,,,,,,,1192.842324300087,195,reward,1,0.9864160000579432,0.98641959996894,1193.835351500078,,,,,,,,23,B,2023-12-13_14h41.11.614,gca_avoidance_task,2022.2.4,143.91263927639142,
positions.xlsx,stimuli.xlsx,stimuli/Social2.png,stimuli/Social1.png,stimuli/Nonsocial1.png,stimuli/Nonsocial2.png,,"(0.7, -0.5)",cs_plus_s,,,,,0,0,0,0,,,,,,,,,2,14,46,3,,,,,,,,,,,,,,,,,,,,,1203.6266412000405,195,none,0,,,1208.6333917999873,,,,,,,,23,B,2023-12-13_14h41.11.614,gca_avoidance_task,2022.2.4,143.91263927639142,
positions.xlsx,stimuli.xlsx,stimuli/Social2.png,stimuli/Social1.png,stimuli/Nonsocial1.png,stimuli/Nonsocial2.png,,"(-0.7, 0.5)",cs_minus_ns,,,,,0,0,0,0,,,,,,,,,2,15,47,12,,,,,,,,,,,,,,,,,,,,,1217.4733256000327,200,reward,1,0.6875515000429004,0.6875554999569431,1218.1677282000892,,,,,,,,23,B,2023-12-13_14h41.11.614,gca_avoidance_task,2022.2.4,143.91263927639142,
positions.xlsx,stimuli.xlsx,stimuli/Social2.png,stimuli/Social1.png,stimuli/Nonsocial1.png,stimuli/Nonsocial2.png,,"(-0.7, 0.5)",cs_plus_s,,,,,0,0,0,0,,,,,,,,,3,0,48,0,,,,,,,,,,,,,,,,,,,,,1227.2715369000798,200,none,0,,,1232.2783150000032,,,,,,,,23,B,2023-12-13_14h41.11.614,gca_avoidance_task,2022.2.4,143.91263927639142,
positions.xlsx,stimuli.xlsx,stimuli/Social2.png,stimuli/Social1.png,stimuli/Nonsocial1.png,stimuli/Nonsocial2.png,,"(0.7, 0.5)",cs_plus_ns,,,,,0,0,0,0,,,,,,,,,3,1,49,10,,,,,,,,,,,,,,,,,,,,,1241.5210284000495,200,none,0,,,1246.5277353000129,,,,,,,,23,B,2023-12-13_14h41.11.614,gca_avoidance_task,2022.2.4,143.91263927639142,
positions.xlsx,stimuli.xlsx,stimuli/Social2.png,stimuli/Social1.png,stimuli/Nonsocial1.png,stimuli/Nonsocial2.png,,"(-0.7, -0.5)",cs_minus_s,,,,,0,0,0,0,,,,,,,,,3,2,50,5,,,,,,,,,,,,,,,,,,,,,1256.3884618000593,205,reward,1,0.7015992000233382,0.701602999935858,1257.0967996000545,,,,,,,,23,B,2023-12-13_14h41.11.614,gca_avoidance_task,2022.2.4,143.91263927639142,
positions.xlsx,stimuli.xlsx,stimuli/Social2.png,stimuli/Social1.png,stimuli/Nonsocial1.png,stimuli/Nonsocial2.png,,"(0.7, 0.5)",cs_plus_s,,,,,0,0,0,0,,,,,,,,,3,3,51,2,,,,,,,,,,,,,,,,,,,,,1265.9436575000873,205,none,0,,,1270.9504255000502,,,,,,,,23,B,2023-12-13_14h41.11.614,gca_avoidance_task,2022.2.4,143.91263927639142,
positions.xlsx,stimuli.xlsx,stimuli/Social2.png,stimuli/Social1.png,stimuli/Nonsocial1.png,stimuli/Nonsocial2.png,,"(-0.7, 0.5)",cs_minus_s,,,,,0,0,0,0,,,,,,,,,3,4,52,4,,,,,,,,,,,,,,,,,,,,,1280.068105500075,210,reward,1,1.111655000015162,1.111658800044097,1281.1861450000433,,,,,,,,23,B,2023-12-13_14h41.11.614,gca_avoidance_task,2022.2.4,143.91263927639142,
positions.xlsx,stimuli.xlsx,stimuli/Social2.png,stimuli/Social1.png,stimuli/Nonsocial1.png,stimuli/Nonsocial2.png,,"(-0.7, 0.5)",cs_minus_ns,,,,,0,0,0,0,,,,,,,,,3,5,53,12,,,,,,,,,,,,,,,,,,,,,1291.151042600046,215,reward,1,0.7087407999206334,0.70874469995033,1291.866325100069,,,,,,,,23,B,2023-12-13_14h41.11.614,gca_avoidance_task,2022.2.4,143.91263927639142,
positions.xlsx,stimuli.xlsx,stimuli/Social2.png,stimuli/Social1.png,stimuli/Nonsocial1.png,stimuli/Nonsocial2.png,,"(0.7, 0.5)",cs_minus_ns,,,,,0,0,0,0,,,,,,,,,3,6,54,14,,,,,,,,,,,,,,,,,,,,,1301.4839609999908,220,reward,1,1.4721007000189275,1.4721044999314472,1302.963108099997,,,,,,,,23,B,2023-12-13_14h41.11.614,gca_avoidance_task,2022.2.4,143.91263927639142,
positions.xlsx,stimuli.xlsx,stimuli/Social2.png,stimuli/Social1.png,stimuli/Nonsocial1.png,stimuli/Nonsocial2.png,,"(0.7, 0.5)",cs_minus_s,,,,,0,0,0,0,,,,,,,,,3,7,55,6,,,,,,,,,,,,,,,,,,,,,1312.1363781000255,225,reward,1,0.5836189000401646,0.5836226999526843,1312.7266012000619,,,,,,,,23,B,2023-12-13_14h41.11.614,gca_avoidance_task,2022.2.4,143.91263927639142,
positions.xlsx,stimuli.xlsx,stimuli/Social2.png,stimuli/Social1.png,stimuli/Nonsocial1.png,stimuli/Nonsocial2.png,,"(0.7, -0.5)",cs_minus_ns,,,,,0,0,0,0,,,,,,,,,3,8,56,15,,,,,,,,,,,,,,,,,,,,,1322.4067564000143,230,reward,1,0.5418442999944091,0.5418479000218213,1322.955400899984,,,,,,,,23,B,2023-12-13_14h41.11.614,gca_avoidance_task,2022.2.4,143.91263927639142,
positions.xlsx,stimuli.xlsx,stimuli/Social2.png,stimuli/Social1.png,stimuli/Nonsocial1.png,stimuli/Nonsocial2.png,,"(0.7, -0.5)",cs_plus_s,,,,,0,0,0,0,,,,,,,,,3,9,57,3,,,,,,,,,,,,,,,,,,,,,1332.0174795000348,230,none,0,,,1337.0242651000153,,,,,,,,23,B,2023-12-13_14h41.11.614,gca_avoidance_task,2022.2.4,143.91263927639142,
positions.xlsx,stimuli.xlsx,stimuli/Social2.png,stimuli/Social1.png,stimuli/Nonsocial1.png,stimuli/Nonsocial2.png,,"(-0.7, 0.5)",cs_plus_ns,,,,,0,0,0,0,,,,,,,,,3,10,58,8,,,,,,,,,,,,,,,,,,,,,1346.8780347000575,230,none,0,,,1351.8847805000842,,,,,,,,23,B,2023-12-13_14h41.11.614,gca_avoidance_task,2022.2.4,143.91263927639142,
positions.xlsx,stimuli.xlsx,stimuli/Social2.png,stimuli/Social1.png,stimuli/Nonsocial1.png,stimuli/Nonsocial2.png,,"(-0.7, -0.5)",cs_plus_s,,,,,0,0,0,0,,,,,,,,,3,11,59,1,,,,,,,,,,,,,,,,,,,,,1360.912196499994,230,none,0,,,1365.918973700027,,,,,,,,23,B,2023-12-13_14h41.11.614,gca_avoidance_task,2022.2.4,143.91263927639142,
positions.xlsx,stimuli.xlsx,stimuli/Social2.png,stimuli/Social1.png,stimuli/Nonsocial1.png,stimuli/Nonsocial2.png,,"(-0.7, -0.5)",cs_minus_ns,,,,,0,0,0,0,,,,,,,,,3,12,60,13,,,,,,,,,,,,,,,,,,,,,1376.0991332000121,235,reward,1,0.8615361000411212,0.8615399000700563,1376.9671290999977,,,,,,,,23,B,2023-12-13_14h41.11.614,gca_avoidance_task,2022.2.4,143.91263927639142,
positions.xlsx,stimuli.xlsx,stimuli/Social2.png,stimuli/Social1.png,stimuli/Nonsocial1.png,stimuli/Nonsocial2.png,,"(0.7, -0.5)",cs_plus_ns,,,,,0,0,0,0,,,,,,,,,3,13,61,11,,,,,,,,,,,,,,,,,,,,,1387.1542524000397,235,none,0,,,1392.1679378000554,,,,,,,,23,B,2023-12-13_14h41.11.614,gca_avoidance_task,2022.2.4,143.91263927639142,
positions.xlsx,stimuli.xlsx,stimuli/Social2.png,stimuli/Social1.png,stimuli/Nonsocial1.png,stimuli/Nonsocial2.png,,"(-0.7, -0.5)",cs_plus_ns,,,,,0,0,0,0,,,,,,,,,3,14,62,9,,,,,,,,,,,,,,,,,,,,,1401.736999200075,235,none,0,,,1406.7507089000428,,,,,,,,23,B,2023-12-13_14h41.11.614,gca_avoidance_task,2022.2.4,143.91263927639142,
positions.xlsx,stimuli.xlsx,stimuli/Social2.png,stimuli/Social1.png,stimuli/Nonsocial1.png,stimuli/Nonsocial2.png,,"(0.7, -0.5)",cs_minus_s,,,,,0,0,0,0,,,,,,,,,3,15,63,7,,,,,,,,,,,,,,,,,,,,,1416.2017404000508,240,reward,1,0.6597456999588758,0.6597494999878109,1416.8683729000622,,,,,,,,23,B,2023-12-13_14h41.11.614,gca_avoidance_task,2022.2.4,143.91263927639142,
positions.xlsx,stimuli.xlsx,stimuli/Social2.png,stimuli/Social1.png,stimuli/Nonsocial1.png,stimuli/Nonsocial2.png,,"(-0.7, -0.5)",cs_minus_ns,,,,,0,0,0,0,,,,,,,,,4,0,64,13,,,,,,,,,,,,,,,,,,,,,1426.597225900041,245,reward,1,0.6182539999717847,0.6182706999825314,1427.2221695000771,,,,,,,,23,B,2023-12-13_14h41.11.614,gca_avoidance_task,2022.2.4,143.91263927639142,
positions.xlsx,stimuli.xlsx,stimuli/Social2.png,stimuli/Social1.png,stimuli/Nonsocial1.png,stimuli/Nonsocial2.png,,"(0.7, 0.5)",cs_plus_s,,,,,0,0,0,0,,,,,,,,,4,1,65,2,,,,,,,,,,,,,,,,,,,,,1436.3676172000123,245,none,0,,,1441.3743690000847,,,,,,,,23,B,2023-12-13_14h41.11.614,gca_avoidance_task,2022.2.4,143.91263927639142,
positions.xlsx,stimuli.xlsx,stimuli/Social2.png,stimuli/Social1.png,stimuli/Nonsocial1.png,stimuli/Nonsocial2.png,,"(0.7, 0.5)",cs_minus_ns,,,,,0,0,0,0,,,,,,,,,4,2,66,14,,,,,,,,,,,,,,,,,,,,,1451.235101700062,250,reward,1,0.618364299996756,0.6183679999085143,1451.8600719000679,,,,,,,,23,B,2023-12-13_14h41.11.614,gca_avoidance_task,2022.2.4,143.91263927639142,
positions.xlsx,stimuli.xlsx,stimuli/Social2.png,stimuli/Social1.png,stimuli/Nonsocial1.png,stimuli/Nonsocial2.png,,"(0.7, -0.5)",cs_plus_s,,,,,0,0,0,0,,,,,,,,,4,3,67,3,,,,,,,,,,,,,,,,,,,,,1460.7763857999817,250,shock,1,3.1108510999474674,3.1108550999779254,1463.8943239999935,,,,,,,,23,B,2023-12-13_14h41.11.614,gca_avoidance_task,2022.2.4,143.91263927639142,
positions.xlsx,stimuli.xlsx,stimuli/Social2.png,stimuli/Social1.png,stimuli/Nonsocial1.png,stimuli/Nonsocial2.png,,"(0.7, -0.5)",cs_minus_s,,,,,0,0,0,0,,,,,,,,,4,4,68,7,,,,,,,,,,,,,,,,,,,,,1472.775933100027,255,reward,1,1.6248035000171512,1.6248075000476092,1474.4078246999998,,,,,,,,23,B,2023-12-13_14h41.11.614,gca_avoidance_task,2022.2.4,143.91263927639142,
positions.xlsx,stimuli.xlsx,stimuli/Social2.png,stimuli/Social1.png,stimuli/Nonsocial1.png,stimuli/Nonsocial2.png,,"(0.7, 0.5)",cs_plus_ns,,,,,0,0,0,0,,,,,,,,,4,5,69,10,,,,,,,,,,,,,,,,,,,,,1484.1088354000822,255,none,0,,,1489.115573600051,,,,,,,,23,B,2023-12-13_14h41.11.614,gca_avoidance_task,2022.2.4,143.91263927639142,
positions.xlsx,stimuli.xlsx,stimuli/Social2.png,stimuli/Social1.png,stimuli/Nonsocial1.png,stimuli/Nonsocial2.png,,"(0.7, 0.5)",cs_minus_s,,,,,0,0,0,0,,,,,,,,,4,6,70,6,,,,,,,,,,,,,,,,,,,,,1497.8999713000376,260,reward,1,0.548903200076893,0.5489069999894127,1498.4555174000561,,,,,,,,23,B,2023-12-13_14h41.11.614,gca_avoidance_task,2022.2.4,143.91263927639142,
positions.xlsx,stimuli.xlsx,stimuli/Social2.png,stimuli/Social1.png,stimuli/Nonsocial1.png,stimuli/Nonsocial2.png,,"(0.7, -0.5)",cs_minus_ns,,,,,0,0,0,0,,,,,,,,,4,7,71,15,,,,,,,,,,,,,,,,,,,,,1507.9342977000633,265,reward,1,0.7019102000631392,0.701913799974136,1508.642601700034,,,,,,,,23,B,2023-12-13_14h41.11.614,gca_avoidance_task,2022.2.4,143.91263927639142,
positions.xlsx,stimuli.xlsx,stimuli/Social2.png,stimuli/Social1.png,stimuli/Nonsocial1.png,stimuli/Nonsocial2.png,,"(-0.7, 0.5)",cs_plus_ns,,,,,0,0,0,0,,,,,,,,,4,8,72,8,,,,,,,,,,,,,,,,,,,,,1517.5381117000943,265,none,0,,,1522.544897200074,,,,,,,,23,B,2023-12-13_14h41.11.614,gca_avoidance_task,2022.2.4,143.91263927639142,
positions.xlsx,stimuli.xlsx,stimuli/Social2.png,stimuli/Social1.png,stimuli/Nonsocial1.png,stimuli/Nonsocial2.png,,"(-0.7, -0.5)",cs_plus_s,,,,,0,0,0,0,,,,,,,,,4,9,73,1,,,,,,,,,,,,,,,,,,,,,1532.3777909000637,265,none,0,,,1537.3845170000568,,,,,,,,23,B,2023-12-13_14h41.11.614,gca_avoidance_task,2022.2.4,143.91263927639142,
positions.xlsx,stimuli.xlsx,stimuli/Social2.png,stimuli/Social1.png,stimuli/Nonsocial1.png,stimuli/Nonsocial2.png,,"(-0.7, -0.5)",cs_plus_ns,,,,,0,0,0,0,,,,,,,,,4,10,74,9,,,,,,,,,,,,,,,,,,,,,1546.3911435999908,265,shock,1,2.694930099998601,2.694933799910359,1549.0924180999864,,,,,,,,23,B,2023-12-13_14h41.11.614,gca_avoidance_task,2022.2.4,143.91263927639142,
positions.xlsx,stimuli.xlsx,stimuli/Social2.png,stimuli/Social1.png,stimuli/Nonsocial1.png,stimuli/Nonsocial2.png,,"(-0.7, 0.5)",cs_plus_s,,,,,0,0,0,0,,,,,,,,,4,11,75,0,,,,,,,,,,,,,,,,,,,,,1558.1545788000803,265,none,0,,,1563.1613384000957,,,,,,,,23,B,2023-12-13_14h41.11.614,gca_avoidance_task,2022.2.4,143.91263927639142,
positions.xlsx,stimuli.xlsx,stimuli/Social2.png,stimuli/Social1.png,stimuli/Nonsocial1.png,stimuli/Nonsocial2.png,,"(-0.7, 0.5)",cs_minus_s,,,,,0,0,0,0,,,,,,,,,4,12,76,4,,,,,,,,,,,,,,,,,,,,,1572.25820390007,270,reward,1,0.5765764999669045,0.5765801999950781,1572.841520100017,,,,,,,,23,B,2023-12-13_14h41.11.614,gca_avoidance_task,2022.2.4,143.91263927639142,
positions.xlsx,stimuli.xlsx,stimuli/Social2.png,stimuli/Social1.png,stimuli/Nonsocial1.png,stimuli/Nonsocial2.png,,"(-0.7, 0.5)",cs_minus_ns,,,,,0,0,0,0,,,,,,,,,4,13,77,12,,,,,,,,,,,,,,,,,,,,,1583.2369376000715,275,reward,1,0.6811369999777526,0.6811406998895109,1583.9244081000797,,,,,,,,23,B,2023-12-13_14h41.11.614,gca_avoidance_task,2022.2.4,143.91263927639142,
positions.xlsx,stimuli.xlsx,stimuli/Social2.png,stimuli/Social1.png,stimuli/Nonsocial1.png,stimuli/Nonsocial2.png,,"(-0.7, -0.5)",cs_minus_s,,,,,0,0,0,0,,,,,,,,,4,14,78,5,,,,,,,,,,,,,,,,,,,,,1593.8615268000867,280,reward,1,0.5072337000165135,0.5072375000454485,1594.3754407999804,,,,,,,,23,B,2023-12-13_14h41.11.614,gca_avoidance_task,2022.2.4,143.91263927639142,
positions.xlsx,stimuli.xlsx,stimuli/Social2.png,stimuli/Social1.png,stimuli/Nonsocial1.png,stimuli/Nonsocial2.png,,"(0.7, -0.5)",cs_plus_ns,,,,,0,0,0,0,,,,,,,,,4,15,79,11,,,,,,,,,,,,,,,,,,,,,1604.3888940000907,280,none,0,,,1609.3956237999955,,,,,,,,23,B,2023-12-13_14h41.11.614,gca_avoidance_task,2022.2.4,143.91263927639142,
positions.xlsx,stimuli.xlsx,stimuli/Social2.png,stimuli/Social1.png,stimuli/Nonsocial1.png,stimuli/Nonsocial2.png,cs_plus_s,,,,,,,0,0,0,0,,,,,,,,,,,,,0,0,0,0,,,,,,,,,,,,,1629.2421210000757,2.0,4.592883600038476,,,,,,,,,6.0,10.930338299949653,,,,,,23,B,2023-12-13_14h41.11.614,gca_avoidance_task,2022.2.4,143.91263927639142,
positions.xlsx,stimuli.xlsx,stimuli/Social2.png,stimuli/Social1.png,stimuli/Nonsocial1.png,stimuli/Nonsocial2.png,cs_plus_ns,,,,,,,0,0,0,0,,,,,,,,,,,,,0,1,1,1,,,,,,,,,,,,,1634.7974706999958,3.0,1.6392787999939173,,,,,,,,,,,,,,,,23,B,2023-12-13_14h41.11.614,gca_avoidance_task,2022.2.4,143.91263927639142,
positions.xlsx,stimuli.xlsx,stimuli/Social2.png,stimuli/Social1.png,stimuli/Nonsocial1.png,stimuli/Nonsocial2.png,cs_minus_s,,,,,,,0,0,0,0,,,,,,,,,,,,,0,2,2,2,,,,,,,,,,,,,1637.1167996000731,7.0,5.035253699985333,,,,,,,,,,,,,,,,23,B,2023-12-13_14h41.11.614,gca_avoidance_task,2022.2.4,143.91263927639142,
positions.xlsx,stimuli.xlsx,stimuli/Social2.png,stimuli/Social1.png,stimuli/Nonsocial1.png,stimuli/Nonsocial2.png,cs_minus_ns,,,,,,,0,0,0,0,,,,,,,,,,,,,0,3,3,3,,,,,,,,,,,,,1643.0888150000246,6.0,1.7503269999288023,,,,,,,,,,,,,,,,23,B,2023-12-13_14h41.11.614,gca_avoidance_task,2022.2.4,143.91263927639142,
positions.xlsx,stimuli.xlsx,stimuli/Social2.png,stimuli/Social1.png,stimuli/Nonsocial1.png,stimuli/Nonsocial2.png,cs_plus_ns,,,,,,,0,0,0,0,,,,,,,,,,,,,,,,,0,0,0,1,,,,,,,,,,,,,,,,,,,,,,1645.4637088000309,1650.2968790000305,2,0.14572000002954155,0.1526473000412807,23,B,2023-12-13_14h41.11.614,gca_avoidance_task,2022.2.4,143.91263927639142,
positions.xlsx,stimuli.xlsx,stimuli/Social2.png,stimuli/Social1.png,stimuli/Nonsocial1.png,stimuli/Nonsocial2.png,cs_minus_ns,,,,,,,0,0,0,0,,,,,,,,,,,,,,,,,0,1,1,3,,,,,,,,,,,,,,,,,,,,,,,1664.9629927000497,2,0.01363250007852912,7.354412900051102,23,B,2023-12-13_14h41.11.614,gca_avoidance_task,2022.2.4,143.91263927639142,
positions.xlsx,stimuli.xlsx,stimuli/Social2.png,stimuli/Social1.png,stimuli/Nonsocial1.png,stimuli/Nonsocial2.png,cs_plus_s,,,,,,,0,0,0,0,,,,,,,,,,,,,,,,,0,2,2,0,,,,,,,,,,,,,,,,,,,,,,,1679.691564799985,4,0.013364699902012944,6.062394099892117,23,B,2023-12-13_14h41.11.614,gca_avoidance_task,2022.2.4,143.91263927639142,
positions.xlsx,stimuli.xlsx,stimuli/Social2.png,stimuli/Social1.png,stimuli/Nonsocial1.png,stimuli/Nonsocial2.png,cs_minus_s,,,,,,,0,0,0,0,,,,,,,,,,,,,,,,,0,3,3,2,,,,,,,,,,,,,,,,,,,,,,,1694.9062825000146,4,0.013494999962858856,3.1113953000167385,23,B,2023-12-13_14h41.11.614,gca_avoidance_task,2022.2.4,143.91263927639142,
positions.xlsx,stimuli.xlsx,stimuli/Social2.png,stimuli/Social1.png,stimuli/Nonsocial1.png,stimuli/Nonsocial2.png,cs_minus_s,,,,,,,0,0,0,0,,,,,,,,,,,,,,,,,1,0,4,2,,,,,,,,,,,,,,,,,,,,,,,1709.6765355999814,5,0.0133712999522686,1.5418684999458492,23,B,2023-12-13_14h41.11.614,gca_avoidance_task,2022.2.4,143.91263927639142,
positions.xlsx,stimuli.xlsx,stimuli/Social2.png,stimuli/Social1.png,stimuli/Nonsocial1.png,stimuli/Nonsocial2.png,cs_plus_ns,,,,,,,0,0,0,0,,,,,,,,,,,,,,,,,1,1,5,1,,,,,,,,,,,,,,,,,,,,,,,1724.3426491999999,1,0.013957699993625283,9.999915799940936,23,B,2023-12-13_14h41.11.614,gca_avoidance_task,2022.2.4,143.91263927639142,
positions.xlsx,stimuli.xlsx,stimuli/Social2.png,stimuli/Social1.png,stimuli/Nonsocial1.png,stimuli/Nonsocial2.png,cs_plus_s,,,,,,,0,0,0,0,,,,,,,,,,,,,,,,,1,2,6,0,,,,,,,,,,,,,,,,,,,,,,,1738.8629244000185,5,0.013330399990081787,1.5976133000804111,23,B,2023-12-13_14h41.11.614,gca_avoidance_task,2022.2.4,143.91263927639142,
positions.xlsx,stimuli.xlsx,stimuli/Social2.png,stimuli/Social1.png,stimuli/Nonsocial1.png,stimuli/Nonsocial2.png,cs_minus_ns,,,,,,,0,0,0,0,,,,,,,,,,,,,,,,,1,3,7,3,,,,,,,,,,,,,,,,,,,,,,,1753.508163099992,4,0.014856999972835183,3.257314500049688,23,B,2023-12-13_14h41.11.614,gca_avoidance_task,2022.2.4,143.91263927639142,
positions.xlsx,stimuli.xlsx,stimuli/Social2.png,stimuli/Social1.png,stimuli/Nonsocial1.png,stimuli/Nonsocial2.png,cs_minus_s,,,,,,,0,0,0,0,,,,,,,,,,,,,,,,,2,0,8,2,,,,,,,,,,,,,,,,,,,,,,,1768.3756358000683,2,0.013556199963204563,1.7709565999684855,23,B,2023-12-13_14h41.11.614,gca_avoidance_task,2022.2.4,143.91263927639142,
positions.xlsx,stimuli.xlsx,stimuli/Social2.png,stimuli/Social1.png,stimuli/Nonsocial1.png,stimuli/Nonsocial2.png,cs_plus_ns,,,,,,,0,0,0,0,,,,,,,,,,,,,,,,,2,1,9,1,,,,,,,,,,,,,,,,,,,,,,,1783.1736841000384,5,0.2365108000813052,0.25051719998009503,23,B,2023-12-13_14h41.11.614,gca_avoidance_task,2022.2.4,143.91263927639142,
positions.xlsx,stimuli.xlsx,stimuli/Social2.png,stimuli/Social1.png,stimuli/Nonsocial1.png,stimuli/Nonsocial2.png,cs_minus_ns,,,,,,,0,0,0,0,,,,,,,,,,,,,,,,,2,2,10,3,,,,,,,,,,,,,,,,,,,,,,,1797.687033400056,9,0.013856199919246137,0.7642985000275075,23,B,2023-12-13_14h41.11.614,gca_avoidance_task,2022.2.4,143.91263927639142,
positions.xlsx,stimuli.xlsx,stimuli/Social2.png,stimuli/Social1.png,stimuli/Nonsocial1.png,stimuli/Nonsocial2.png,cs_plus_s,,,,,,,0,0,0,0,,,,,,,,,,,,,,,,,2,3,11,0,,,,,,,,,,,,,,,,,,,,,,,1812.2350659000222,6,0.014174200012348592,0.13987199997063726,23,B,2023-12-13_14h41.11.614,gca_avoidance_task,2022.2.4,143.91263927639142,
positions.xlsx,stimuli.xlsx,stimuli/Social2.png,stimuli/Social1.png,stimuli/Nonsocial1.png,stimuli/Nonsocial2.png,cs_plus_s,,,,,,,0,0,0,0,,,,,,,,,,,,,,,,,3,0,12,0,,,,,,,,,,,,,,,,,,,,,,,1827.0956054000417,4,0.013962999917566776,0.5073669999837875,23,B,2023-12-13_14h41.11.614,gca_avoidance_task,2022.2.4,143.91263927639142,
positions.xlsx,stimuli.xlsx,stimuli/Social2.png,stimuli/Social1.png,stimuli/Nonsocial1.png,stimuli/Nonsocial2.png,cs_minus_s,,,,,,,0,0,0,0,,,,,,,,,,,,,,,,,3,1,13,2,,,,,,,,,,,,,,,,,,,,,,,1842.0325177999912,1,0.013765900046564639,10.000213599996641,23,B,2023-12-13_14h41.11.614,gca_avoidance_task,2022.2.4,143.91263927639142,
positions.xlsx,stimuli.xlsx,stimuli/Social2.png,stimuli/Social1.png,stimuli/Nonsocial1.png,stimuli/Nonsocial2.png,cs_plus_ns,,,,,,,0,0,0,0,,,,,,,,,,,,,,,,,3,2,14,1,,,,,,,,,,,,,,,,,,,,,,,1856.5458581000566,4,0.015022599953226745,0.6185262999497354,23,B,2023-12-13_14h41.11.614,gca_avoidance_task,2022.2.4,143.91263927639142,
positions.xlsx,stimuli.xlsx,stimuli/Social2.png,stimuli/Social1.png,stimuli/Nonsocial1.png,stimuli/Nonsocial2.png,cs_minus_ns,,,,,,,0,0,0,0,,,,,,,,,,,,,,,,,3,3,15,3,,,,,,,,,,,,,,,,,,,,,,,1871.6355613000924,6,0.0140561000443995,1.319814300048165,23,B,2023-12-13_14h41.11.614,gca_avoidance_task,2022.2.4,143.91263927639142,
positions.xlsx,stimuli.xlsx,stimuli/Social2.png,stimuli/Social1.png,stimuli/Nonsocial1.png,stimuli/Nonsocial2.png,cs_minus_ns,,,,,,,0,0,0,0,,,,,,,,,,,,,,,,,4,0,16,3,,,,,,,,,,,,,,,,,,,,,,,1887.1071620000293,8,0.013975700014270842,2.187808800023049,23,B,2023-12-13_14h41.11.614,gca_avoidance_task,2022.2.4,143.91263927639142,
positions.xlsx,stimuli.xlsx,stimuli/Social2.png,stimuli/Social1.png,stimuli/Nonsocial1.png,stimuli/Nonsocial2.png,cs_plus_ns,,,,,,,0,0,0,0,,,,,,,,,,,,,,,,,4,1,17,1,,,,,,,,,,,,,,,,,,,,,,,1901.7732615000568,7,0.014571099891327322,1.820487399934791,23,B,2023-12-13_14h41.11.614,gca_avoidance_task,2022.2.4,143.91263927639142,
positions.xlsx,stimuli.xlsx,stimuli/Social2.png,stimuli/Social1.png,stimuli/Nonsocial1.png,stimuli/Nonsocial2.png,cs_plus_s,,,,,,,0,0,0,0,,,,,,,,,,,,,,,,,4,2,18,0,,,,,,,,,,,,,,,,,,,,,,,1916.8907577000791,5,0.013266800087876618,1.6460873000323772,23,B,2023-12-13_14h41.11.614,gca_avoidance_task,2022.2.4,143.91263927639142,
positions.xlsx,stimuli.xlsx,stimuli/Social2.png,stimuli/Social1.png,stimuli/Nonsocial1.png,stimuli/Nonsocial2.png,cs_minus_s,,,,,,,0,0,0,0,,,,,,,,,,,,,,,,,4,3,19,2,,,,,,,,,,,,,,,,,,,,,,,1931.6887863000156,5,0.013760300003923476,0.16692069999407977,23,B,2023-12-13_14h41.11.614,gca_avoidance_task,2022.2.4,143.91263927639142,
positions.xlsx,stimuli.xlsx,stimuli/Social2.png,stimuli/Social1.png,stimuli/Nonsocial1.png,stimuli/Nonsocial2.png,cs_plus_s,,,,,,,0,0,0,0,,,,,,,,,,,,,,,,,5,0,20,0,,,,,,,,,,,,,,,,,,,,,,,1947.1395831999835,7,0.013551699928939342,1.7503370998892933,23,B,2023-12-13_14h41.11.614,gca_avoidance_task,2022.2.4,143.91263927639142,
positions.xlsx,stimuli.xlsx,stimuli/Social2.png,stimuli/Social1.png,stimuli/Nonsocial1.png,stimuli/Nonsocial2.png,cs_minus_s,,,,,,,0,0,0,0,,,,,,,,,,,,,,,,,5,1,21,2,,,,,,,,,,,,,,,,,,,,,,,1961.7154246000573,6,0.01392549998126924,1.0420505999354646,23,B,2023-12-13_14h41.11.614,gca_avoidance_task,2022.2.4,143.91263927639142,
positions.xlsx,stimuli.xlsx,stimuli/Social2.png,stimuli/Social1.png,stimuli/Nonsocial1.png,stimuli/Nonsocial2.png,cs_minus_ns,,,,,,,0,0,0,0,,,,,,,,,,,,,,,,,5,2,22,3,,,,,,,,,,,,,,,,,,,,,,,1976.673156300094,3,0.014785200008191168,0.111466099973768,23,B,2023-12-13_14h41.11.614,gca_avoidance_task,2022.2.4,143.91263927639142,
positions.xlsx,stimuli.xlsx,stimuli/Social2.png,stimuli/Social1.png,stimuli/Nonsocial1.png,stimuli/Nonsocial2.png,cs_plus_ns,,,,,,,0,0,0,0,,,,,,,,,,,,,,,,,5,3,23,1,,,,,,,,,,,,,,,,,,,,,,,1991.7142474000575,3,0.013877799967303872,1.8196630999445915,23,B,2023-12-13_14h41.11.614,gca_avoidance_task,2022.2.4,143.91263927639142,
positions.xlsx,stimuli.xlsx,stimuli/Social2.png,stimuli/Social1.png,stimuli/Nonsocial1.png,stimuli/Nonsocial2.png,cs_minus_s,,,,,,,0,0,0,0,,,,,,,,,,,,,,,,,6,0,24,2,,,,,,,,,,,,,,,,,,,,,,,2006.33173970005,3,0.9031123999739066,0.9237160000484437,23,B,2023-12-13_14h41.11.614,gca_avoidance_task,2022.2.4,143.91263927639142,
positions.xlsx,stimuli.xlsx,stimuli/Social2.png,stimuli/Social1.png,stimuli/Nonsocial1.png,stimuli/Nonsocial2.png,cs_minus_ns,,,,,,,0,0,0,0,,,,,,,,,,,,,,,,,6,1,25,3,,,,,,,,,,,,,,,,,,,,,,,2020.997852300061,4,0.014302799943834543,0.6671308999648318,23,B,2023-12-13_14h41.11.614,gca_avoidance_task,2022.2.4,143.91263927639142,
positions.xlsx,stimuli.xlsx,stimuli/Social2.png,stimuli/Social1.png,stimuli/Nonsocial1.png,stimuli/Nonsocial2.png,cs_plus_s,,,,,,,0,0,0,0,,,,,,,,,,,,,,,,,6,2,26,0,,,,,,,,,,,,,,,,,,,,,,,2036.4278012000723,6,0.01349899999331683,1.3966154999798164,23,B,2023-12-13_14h41.11.614,gca_avoidance_task,2022.2.4,143.91263927639142,
positions.xlsx,stimuli.xlsx,stimuli/Social2.png,stimuli/Social1.png,stimuli/Nonsocial1.png,stimuli/Nonsocial2.png,cs_plus_ns,,,,,,,0,0,0,0,,,,,,,,,,,,,,,,,6,3,27,1,,,,,,,,,,,,,,,,,,,,,,,2051.3508001000155,6,0.014024500036612153,0.507328600040637,23,B,2023-12-13_14h41.11.614,gca_avoidance_task,2022.2.4,143.91263927639142,
positions.xlsx,stimuli.xlsx,stimuli/Social2.png,stimuli/Social1.png,stimuli/Nonsocial1.png,stimuli/Nonsocial2.png,cs_plus_ns,,,,,,,0,0,0,0,,,,,,,,,,,,,,,,,7,0,28,1,,,,,,,,,,,,,,,,,,,,,,,2065.947505500051,6,0.014288199949078262,3.2641880000010133,23,B,2023-12-13_14h41.11.614,gca_avoidance_task,2022.2.4,143.91263927639142,
positions.xlsx,stimuli.xlsx,stimuli/Social2.png,stimuli/Social1.png,stimuli/Nonsocial1.png,stimuli/Nonsocial2.png,cs_minus_ns,,,,,,,0,0,0,0,,,,,,,,,,,,,,,,,7,1,29,3,,,,,,,,,,,,,,,,,,,,,,,2081.266339300084,3,0.014928500051610172,1.6807233999716118,23,B,2023-12-13_14h41.11.614,gca_avoidance_task,2022.2.4,143.91263927639142,
positions.xlsx,stimuli.xlsx,stimuli/Social2.png,stimuli/Social1.png,stimuli/Nonsocial1.png,stimuli/Nonsocial2.png,cs_plus_s,,,,,,,0,0,0,0,,,,,,,,,,,,,,,,,7,2,30,0,,,,,,,,,,,,,,,,,,,,,,,2096.0018762000836,5,0.013487999909557402,0.667052699951455,23,B,2023-12-13_14h41.11.614,gca_avoidance_task,2022.2.4,143.91263927639142,
positions.xlsx,stimuli.xlsx,stimuli/Social2.png,stimuli/Social1.png,stimuli/Nonsocial1.png,stimuli/Nonsocial2.png,cs_minus_s,,,,,,,0,0,0,0,,,,,,,,,,,,,,,,,7,3,31,2,,,,,,,,,,,,,,,,,,,,,,,2111.286014100071,10,0.013433899963274598,2.8475139999063686,23,B,2023-12-13_14h41.11.614,gca_avoidance_task,2022.2.4,143.91263927639142,
positions.xlsx,stimuli.xlsx,stimuli/Social2.png,stimuli/Social1.png,stimuli/Nonsocial1.png,stimuli/Nonsocial2.png,cs_minus_ns,,,,,,,0,0,0,0,,,,,,,,,,,,,,,,,8,0,32,3,,,,,,,,,,,,,,,,,,,,,,,2126.2368185999803,7,0.013837900012731552,0.6181708000367507,23,B,2023-12-13_14h41.11.614,gca_avoidance_task,2022.2.4,143.91263927639142,
positions.xlsx,stimuli.xlsx,stimuli/Social2.png,stimuli/Social1.png,stimuli/Nonsocial1.png,stimuli/Nonsocial2.png,cs_minus_s,,,,,,,0,0,0,0,,,,,,,,,,,,,,,,,8,1,33,2,,,,,,,,,,,,,,,,,,,,,,,2140.861277100048,6,0.01354370010085404,1.3690030000871047,23,B,2023-12-13_14h41.11.614,gca_avoidance_task,2022.2.4,143.91263927639142,
positions.xlsx,stimuli.xlsx,stimuli/Social2.png,stimuli/Social1.png,stimuli/Nonsocial1.png,stimuli/Nonsocial2.png,cs_plus_s,,,,,,,0,0,0,0,,,,,,,,,,,,,,,,,8,2,34,0,,,,,,,,,,,,,,,,,,,,,,,2155.7565151000163,7,0.01358929998241365,0.5489423000253737,23,B,2023-12-13_14h41.11.614,gca_avoidance_task,2022.2.4,143.91263927639142,
positions.xlsx,stimuli.xlsx,stimuli/Social2.png,stimuli/Social1.png,stimuli/Nonsocial1.png,stimuli/Nonsocial2.png,cs_plus_ns,,,,,,,0,0,0,0,,,,,,,,,,,,,,,,,8,3,35,1,,,,,,,,,,,,,,,,,,,,,,,2171.2281457000645,4,0.014168699970468879,1.3890251000411808,23,B,2023-12-13_14h41.11.614,gca_avoidance_task,2022.2.4,143.91263927639142,
positions.xlsx,stimuli.xlsx,stimuli/Social2.png,stimuli/Social1.png,stimuli/Nonsocial1.png,stimuli/Nonsocial2.png,cs_plus_ns,,,,,,,0,0,0,0,,,,,,,,,,,,,,,,,9,0,36,1,,,,,,,,,,,,,,,,,,,,,,,2185.7831286999863,6,0.014449800015427172,0.6462139000650495,23,B,2023-12-13_14h41.11.614,gca_avoidance_task,2022.2.4,143.91263927639142,
positions.xlsx,stimuli.xlsx,stimuli/Social2.png,stimuli/Social1.png,stimuli/Nonsocial1.png,stimuli/Nonsocial2.png,cs_plus_s,,,,,,,0,0,0,0,,,,,,,,,,,,,,,,,9,1,37,0,,,,,,,,,,,,,,,,,,,,,,,2200.3034132000757,6,0.01406630000565201,0.6948244000086561,23,B,2023-12-13_14h41.11.614,gca_avoidance_task,2022.2.4,143.91263927639142,
positions.xlsx,stimuli.xlsx,stimuli/Social2.png,stimuli/Social1.png,stimuli/Nonsocial1.png,stimuli/Nonsocial2.png,cs_minus_ns,,,,,,,0,0,0,0,,,,,,,,,,,,,,,,,9,2,38,3,,,,,,,,,,,,,,,,,,,,,,,2215.2819910000544,8,0.014312700019218028,0.26404620008543134,23,B,2023-12-13_14h41.11.614,gca_avoidance_task,2022.2.4,143.91263927639142,
positions.xlsx,stimuli.xlsx,stimuli/Social2.png,stimuli/Social1.png,stimuli/Nonsocial1.png,stimuli/Nonsocial2.png,cs_minus_s,,,,,,,0,0,0,0,,,,,,,,,,,,,,,,,9,3,39,2,,,,,,,,,,,,,,,,,,,,,,,2230.4966919000726,5,0.013242800021544099,1.2778839999809861,23,B,2023-12-13_14h41.11.614,gca_avoidance_task,2022.2.4,143.91263927639142,
positions.xlsx,stimuli.xlsx,stimuli/Social2.png,stimuli/Social1.png,stimuli/Nonsocial1.png,stimuli/Nonsocial2.png,cs_plus_ns,,,,,,,0,0,0,0,,,,,,,,,,,,,,,,,,,,,0,0,0,1,,,,,2244.586436600075,10.0,8.195494699990377,,,,,,,,,,,,,,,,23,B,2023-12-13_14h41.11.614,gca_avoidance_task,2022.2.4,143.91263927639142,
positions.xlsx,stimuli.xlsx,stimuli/Social2.png,stimuli/Social1.png,stimuli/Nonsocial1.png,stimuli/Nonsocial2.png,cs_minus_s,,,,,,,0,0,0,0,,,,,,,,,,,,,,,,,,,,,0,1,1,2,,,,,2255.0304556000046,10.0,2.4311232999898493,,,,,,,,,,,,,,,,23,B,2023-12-13_14h41.11.614,gca_avoidance_task,2022.2.4,143.91263927639142,
positions.xlsx,stimuli.xlsx,stimuli/Social2.png,stimuli/Social1.png,stimuli/Nonsocial1.png,stimuli/Nonsocial2.png,cs_plus_s,,,,,,,0,0,0,0,,,,,,,,,,,,,,,,,,,,,0,2,2,0,,,,,2258.4053940000013,8.0,4.834705599932931,,,,,,,,,,,,,,,,23,B,2023-12-13_14h41.11.614,gca_avoidance_task,2022.2.4,143.91263927639142,
positions.xlsx,stimuli.xlsx,stimuli/Social2.png,stimuli/Social1.png,stimuli/Nonsocial1.png,stimuli/Nonsocial2.png,cs_minus_ns,,,,,,,0,0,0,0,,,,,,,,,,,,,,,,,,,,,0,3,3,3,,,,,2263.898211700027,10.0,1.855054600047879,,,,,,,,,,,,,,,,23,B,2023-12-13_14h41.11.614,gca_avoidance_task,2022.2.4,143.91263927639142,
