posFile,stimFile,cs_plus_s,cs_minus_s,cs_plus_ns,cs_minus_ns,stimtype,position,trialtype,trials_threshold.thisRepN,trials_threshold.thisTrialN,trials_threshold.thisN,trials_threshold.thisIndex,blocks.thisRepN,blocks.thisTrialN,blocks.thisN,blocks.thisIndex,ratingtrials1.thisRepN,ratingtrials1.thisTrialN,ratingtrials1.thisN,ratingtrials1.thisIndex,learning_trials.thisRepN,learning_trials.thisTrialN,learning_trials.thisN,learning_trials.thisIndex,trials.thisRepN,trials.thisTrialN,trials.thisN,trials.thisIndex,ratingtrials2.thisRepN,ratingtrials2.thisTrialN,ratingtrials2.thisN,ratingtrials2.thisIndex,testtrials.thisRepN,testtrials.thisTrialN,testtrials.thisN,testtrials.thisIndex,ratingtrials3.thisRepN,ratingtrials3.thisTrialN,ratingtrials3.thisN,ratingtrials3.thisIndex,textStart.started,sliderPainT.response,sliderPainT.rt,textStartExp.started,imageRating.started,sliderStim.response,sliderStim.rt,textStartTask.started,image.started,score,outcome,roi.numLooks,roi.timesOn,roi.timesOff,imageFeedback.started,sliderPain.response,sliderPain.rt,textTestInstr.started,imageTest.started,roiTest.numLooks,roiTest.timesOn,roiTest.timesOff,participant,group,date,expName,psychopyVersion,frameRate,
,,,,,,,,,0,0,0,0,,,,,,,,,,,,,,,,,,,,,,,,,,,,,18.117663900135085,None,None,,,,,,,,,,,,,,,,,,,,42,A,2023-12-22_14h57.59.116,gca_avoidance_task,2022.2.4,144.0621197638811,
,,,,,,,,,1,0,1,0,,,,,,,,,,,,,,,,,,,,,,,,,,,,,,1.0,17.61640020017512,,,,,,,,,,,,,,,,,,,,42,A,2023-12-22_14h57.59.116,gca_avoidance_task,2022.2.4,144.0621197638811,
,,,,,,,,,2,0,2,0,,,,,,,,,,,,,,,,,,,,,,,,,,,,,,1.0,6.112392299808562,,,,,,,,,,,,,,,,,,,,42,A,2023-12-22_14h57.59.116,gca_avoidance_task,2022.2.4,144.0621197638811,
,,,,,,,,,3,0,3,0,,,,,,,,,,,,,,,,,,,,,,,,,,,,,,2.0,2.663797599961981,,,,,,,,,,,,,,,,,,,,42,A,2023-12-22_14h57.59.116,gca_avoidance_task,2022.2.4,144.0621197638811,
,,,,,,,,,4,0,4,0,,,,,,,,,,,,,,,,,,,,,,,,,,,,,,3.0,1.7616617002058774,,,,,,,,,,,,,,,,,,,,42,A,2023-12-22_14h57.59.116,gca_avoidance_task,2022.2.4,144.0621197638811,
,,,,,,,,,5,0,5,0,,,,,,,,,,,,,,,,,,,,,,,,,,,,,,4.0,3.131301400018856,,,,,,,,,,,,,,,,,,,,42,A,2023-12-22_14h57.59.116,gca_avoidance_task,2022.2.4,144.0621197638811,
,,,,,,,,,6,0,6,0,,,,,,,,,,,,,,,,,,,,,,,,,,,,,,4.0,9.44916019984521,,,,,,,,,,,,,,,,,,,,42,A,2023-12-22_14h57.59.116,gca_avoidance_task,2022.2.4,144.0621197638811,
,,,,,,,,,7,0,7,0,,,,,,,,,,,,,,,,,,,,,,,,,,,,,,6.0,1.515134299872443,,,,,,,,,,,,,,,,,,,,42,A,2023-12-22_14h57.59.116,gca_avoidance_task,2022.2.4,144.0621197638811,
,,,,,,,,,8,0,8,0,,,,,,,,,,,,,,,,,,,,,,,,,,,,,,6.0,3.669349499978125,,,,,,,,,,,,,,,,,,,,42,A,2023-12-22_14h57.59.116,gca_avoidance_task,2022.2.4,144.0621197638811,
,,,,,,,,,9,0,9,0,,,,,,,,,,,,,,,,,,,,,,,,,,,,,,5.0,6.180734799942002,,,,,,,,,,,,,,,,,,,,42,A,2023-12-22_14h57.59.116,gca_avoidance_task,2022.2.4,144.0621197638811,
,,,,,,,,,10,0,10,0,,,,,,,,,,,,,,,,,,,,,,,,,,,,,,5.0,1.769999000011012,,,,,,,,,,,,,,,,,,,,42,A,2023-12-22_14h57.59.116,gca_avoidance_task,2022.2.4,144.0621197638811,
,,,,,,,,,11,0,11,0,,,,,,,,,,,,,,,,,,,,,,,,,,,,,,7.0,15.037449200171977,,,,,,,,,,,,,,,,,,,,42,A,2023-12-22_14h57.59.116,gca_avoidance_task,2022.2.4,144.0621197638811,
,,,,,,,,,12,0,12,0,,,,,,,,,,,,,,,,,,,,,,,,,,,,,,8.0,2.2158538999501616,,,,,,,,,,,,,,,,,,,,42,A,2023-12-22_14h57.59.116,gca_avoidance_task,2022.2.4,144.0621197638811,
,,,,,,,,,13,0,13,0,,,,,,,,,,,,,,,,,,,,,,,,,,,,,,8.0,5.279537199996412,,,,,,,,,,,,,,,,,,,,42,A,2023-12-22_14h57.59.116,gca_avoidance_task,2022.2.4,144.0621197638811,
,,,,,,,,,14,0,14,0,,,,,,,,,,,,,,,,,,,,,,,,,,,,,,8.0,3.169582299888134,,,,,,,,,,,,,,,,,,,,42,A,2023-12-22_14h57.59.116,gca_avoidance_task,2022.2.4,144.0621197638811,
,,,,,,,,,15,0,15,0,,,,,,,,,,,,,,,,,,,,,,,,,,,,,,6.0,2.1069740999955684,,,,,,,,,,,,,,,,,,,,42,A,2023-12-22_14h57.59.116,gca_avoidance_task,2022.2.4,144.0621197638811,
,,,,,,,,,16,0,16,0,,,,,,,,,,,,,,,,,,,,,,,,,,,,,,7.0,0.8907325000036508,,,,,,,,,,,,,,,,,,,,42,A,2023-12-22_14h57.59.116,gca_avoidance_task,2022.2.4,144.0621197638811,
,,,,,,,,,17,0,17,0,,,,,,,,,,,,,,,,,,,,,,,,,,,,,,6.0,5.933306900085881,,,,,,,,,,,,,,,,,,,,42,A,2023-12-22_14h57.59.116,gca_avoidance_task,2022.2.4,144.0621197638811,
positions.xlsx,stimuli.xlsx,stimuli/Social1.png,stimuli/Social2.png,stimuli/Nonsocial1.png,stimuli/Nonsocial2.png,cs_minus_s,,,,,,,0,0,0,0,0,0,0,2,,,,,,,,,,,,,,,,,,,,,,,,451.53294040006585,537.4997352000792,5.0,20.203493300126866,,,,,,,,,,,,,,,,42,A,2023-12-22_14h57.59.116,gca_avoidance_task,2022.2.4,144.0621197638811,
positions.xlsx,stimuli.xlsx,stimuli/Social1.png,stimuli/Social2.png,stimuli/Nonsocial1.png,stimuli/Nonsocial2.png,cs_plus_ns,,,,,,,0,0,0,0,0,1,1,1,,,,,,,,,,,,,,,,,,,,,,,,,559.8391434000805,3.0,8.609107399825007,,,,,,,,,,,,,,,,42,A,2023-12-22_14h57.59.116,gca_avoidance_task,2022.2.4,144.0621197638811,
positions.xlsx,stimuli.xlsx,stimuli/Social1.png,stimuli/Social2.png,stimuli/Nonsocial1.png,stimuli/Nonsocial2.png,cs_minus_ns,,,,,,,0,0,0,0,0,2,2,3,,,,,,,,,,,,,,,,,,,,,,,,,570.3039979999885,3.0,5.766341600101441,,,,,,,,,,,,,,,,42,A,2023-12-22_14h57.59.116,gca_avoidance_task,2022.2.4,144.0621197638811,
positions.xlsx,stimuli.xlsx,stimuli/Social1.png,stimuli/Social2.png,stimuli/Nonsocial1.png,stimuli/Nonsocial2.png,cs_plus_s,,,,,,,0,0,0,0,0,3,3,0,,,,,,,,,,,,,,,,,,,,,,,,,577.0120516000316,6.0,6.191299600061029,,,,,,,,,,,,,,,,42,A,2023-12-22_14h57.59.116,gca_avoidance_task,2022.2.4,144.0621197638811,
positions.xlsx,stimuli.xlsx,stimuli/Social1.png,stimuli/Social2.png,stimuli/Nonsocial1.png,stimuli/Nonsocial2.png,,"(-0.7, -0.5)",cs_minus_s,,,,,0,0,0,0,,,,,0,0,0,5,,,,,,,,,,,,,,,,,,,,,,,,585.685303900158,721.4230285000522,0,none,0,,,726.443596499972,,,,,,,,42,A,2023-12-22_14h57.59.116,gca_avoidance_task,2022.2.4,144.0621197638811,
positions.xlsx,stimuli.xlsx,stimuli/Social1.png,stimuli/Social2.png,stimuli/Nonsocial1.png,stimuli/Nonsocial2.png,,"(0.7, -0.5)",cs_plus_ns,,,,,0,0,0,0,,,,,0,1,1,11,,,,,,,,,,,,,,,,,,,,,,,,,735.7626809000503,0,none,0,,,740.7694525001571,,,,,,,,42,A,2023-12-22_14h57.59.116,gca_avoidance_task,2022.2.4,144.0621197638811,
positions.xlsx,stimuli.xlsx,stimuli/Social1.png,stimuli/Social2.png,stimuli/Nonsocial1.png,stimuli/Nonsocial2.png,,"(-0.7, -0.5)",cs_plus_s,,,,,0,0,0,0,,,,,0,2,2,1,,,,,,,,,,,,,,,,,,,,,,,,,750.6579239000566,0,none,0,,,755.6646825000644,,,,,,,,42,A,2023-12-22_14h57.59.116,gca_avoidance_task,2022.2.4,144.0621197638811,
positions.xlsx,stimuli.xlsx,stimuli/Social1.png,stimuli/Social2.png,stimuli/Nonsocial1.png,stimuli/Nonsocial2.png,,"(-0.7, -0.5)",cs_plus_ns,,,,,0,0,0,0,,,,,0,3,3,9,,,,,,,,,,,,,,,,,,,,,,,,,765.3726205001585,0,none,0,,,770.3793625000399,,,,,,,,42,A,2023-12-22_14h57.59.116,gca_avoidance_task,2022.2.4,144.0621197638811,
positions.xlsx,stimuli.xlsx,stimuli/Social1.png,stimuli/Social2.png,stimuli/Nonsocial1.png,stimuli/Nonsocial2.png,,"(0.7, 0.5)",cs_minus_s,,,,,0,0,0,0,,,,,0,4,4,6,,,,,,,,,,,,,,,,,,,,,,,,,779.4137628001627,0,none,0,,,784.4205035001505,,,,,,,,42,A,2023-12-22_14h57.59.116,gca_avoidance_task,2022.2.4,144.0621197638811,
positions.xlsx,stimuli.xlsx,stimuli/Social1.png,stimuli/Social2.png,stimuli/Nonsocial1.png,stimuli/Nonsocial2.png,,"(-0.7, 0.5)",cs_minus_s,,,,,0,0,0,0,,,,,0,5,5,4,,,,,,,,,,,,,,,,,,,,,,,,,793.0173579000402,0,none,0,,,798.0240881999489,,,,,,,,42,A,2023-12-22_14h57.59.116,gca_avoidance_task,2022.2.4,144.0621197638811,
positions.xlsx,stimuli.xlsx,stimuli/Social1.png,stimuli/Social2.png,stimuli/Nonsocial1.png,stimuli/Nonsocial2.png,,"(-0.7, 0.5)",cs_minus_ns,,,,,0,0,0,0,,,,,0,6,6,12,,,,,,,,,,,,,,,,,,,,,,,,,807.0654291000683,0,none,0,,,812.0721917999908,,,,,,,,42,A,2023-12-22_14h57.59.116,gca_avoidance_task,2022.2.4,144.0621197638811,
positions.xlsx,stimuli.xlsx,stimuli/Social1.png,stimuli/Social2.png,stimuli/Nonsocial1.png,stimuli/Nonsocial2.png,,"(0.7, -0.5)",cs_plus_s,,,,,0,0,0,0,,,,,0,7,7,3,,,,,,,,,,,,,,,,,,,,,,,,,820.9259917000309,0,none,0,,,825.9327193000354,,,,,,,,42,A,2023-12-22_14h57.59.116,gca_avoidance_task,2022.2.4,144.0621197638811,
positions.xlsx,stimuli.xlsx,stimuli/Social1.png,stimuli/Social2.png,stimuli/Nonsocial1.png,stimuli/Nonsocial2.png,,"(0.7, -0.5)",cs_minus_s,,,,,0,0,0,0,,,,,0,8,8,7,,,,,,,,,,,,,,,,,,,,,,,,,835.7448434000835,0,none,0,,,840.7515531999525,,,,,,,,42,A,2023-12-22_14h57.59.116,gca_avoidance_task,2022.2.4,144.0621197638811,
positions.xlsx,stimuli.xlsx,stimuli/Social1.png,stimuli/Social2.png,stimuli/Nonsocial1.png,stimuli/Nonsocial2.png,,"(-0.7, 0.5)",cs_plus_ns,,,,,0,0,0,0,,,,,0,9,9,8,,,,,,,,,,,,,,,,,,,,,,,,,849.8484609001316,0,none,0,,,854.8551833999809,,,,,,,,42,A,2023-12-22_14h57.59.116,gca_avoidance_task,2022.2.4,144.0621197638811,
positions.xlsx,stimuli.xlsx,stimuli/Social1.png,stimuli/Social2.png,stimuli/Nonsocial1.png,stimuli/Nonsocial2.png,,"(0.7, 0.5)",cs_plus_ns,,,,,0,0,0,0,,,,,0,10,10,10,,,,,,,,,,,,,,,,,,,,,,,,,864.3200842000078,0,none,0,,,869.3268828999717,,,,,,,,42,A,2023-12-22_14h57.59.116,gca_avoidance_task,2022.2.4,144.0621197638811,
positions.xlsx,stimuli.xlsx,stimuli/Social1.png,stimuli/Social2.png,stimuli/Nonsocial1.png,stimuli/Nonsocial2.png,,"(-0.7, 0.5)",cs_plus_s,,,,,0,0,0,0,,,,,0,11,11,0,,,,,,,,,,,,,,,,,,,,,,,,,879.2084161001258,0,none,0,,,884.2151679000817,,,,,,,,42,A,2023-12-22_14h57.59.116,gca_avoidance_task,2022.2.4,144.0621197638811,
positions.xlsx,stimuli.xlsx,stimuli/Social1.png,stimuli/Social2.png,stimuli/Nonsocial1.png,stimuli/Nonsocial2.png,,"(0.7, 0.5)",cs_minus_ns,,,,,0,0,0,0,,,,,0,12,12,14,,,,,,,,,,,,,,,,,,,,,,,,,893.5272783001419,0,none,0,,,898.53401329997,,,,,,,,42,A,2023-12-22_14h57.59.116,gca_avoidance_task,2022.2.4,144.0621197638811,
positions.xlsx,stimuli.xlsx,stimuli/Social1.png,stimuli/Social2.png,stimuli/Nonsocial1.png,stimuli/Nonsocial2.png,,"(-0.7, -0.5)",cs_minus_ns,,,,,0,0,0,0,,,,,0,13,13,13,,,,,,,,,,,,,,,,,,,,,,,,,907.7697483000811,0,none,0,,,912.776553499978,,,,,,,,42,A,2023-12-22_14h57.59.116,gca_avoidance_task,2022.2.4,144.0621197638811,
positions.xlsx,stimuli.xlsx,stimuli/Social1.png,stimuli/Social2.png,stimuli/Nonsocial1.png,stimuli/Nonsocial2.png,,"(0.7, -0.5)",cs_minus_ns,,,,,0,0,0,0,,,,,0,14,14,15,,,,,,,,,,,,,,,,,,,,,,,,,921.8455984999891,0,none,0,,,926.8523411999922,,,,,,,,42,A,2023-12-22_14h57.59.116,gca_avoidance_task,2022.2.4,144.0621197638811,
positions.xlsx,stimuli.xlsx,stimuli/Social1.png,stimuli/Social2.png,stimuli/Nonsocial1.png,stimuli/Nonsocial2.png,,"(0.7, 0.5)",cs_plus_s,,,,,0,0,0,0,,,,,0,15,15,2,,,,,,,,,,,,,,,,,,,,,,,,,936.9977929999586,0,none,0,,,942.0045257001184,,,,,,,,42,A,2023-12-22_14h57.59.116,gca_avoidance_task,2022.2.4,144.0621197638811,
positions.xlsx,stimuli.xlsx,stimuli/Social1.png,stimuli/Social2.png,stimuli/Nonsocial1.png,stimuli/Nonsocial2.png,,"(-0.7, 0.5)",cs_plus_ns,,,,,0,0,0,0,,,,,1,0,16,8,,,,,,,,,,,,,,,,,,,,,,,,,951.2124815001152,0,none,0,,,956.219244700158,,,,,,,,42,A,2023-12-22_14h57.59.116,gca_avoidance_task,2022.2.4,144.0621197638811,
positions.xlsx,stimuli.xlsx,stimuli/Social1.png,stimuli/Social2.png,stimuli/Nonsocial1.png,stimuli/Nonsocial2.png,,"(0.7, -0.5)",cs_plus_s,,,,,0,0,0,0,,,,,1,1,17,3,,,,,,,,,,,,,,,,,,,,,,,,,965.9480016001035,0,none,0,,,970.9547783001326,,,,,,,,42,A,2023-12-22_14h57.59.116,gca_avoidance_task,2022.2.4,144.0621197638811,
positions.xlsx,stimuli.xlsx,stimuli/Social1.png,stimuli/Social2.png,stimuli/Nonsocial1.png,stimuli/Nonsocial2.png,,"(-0.7, -0.5)",cs_plus_ns,,,,,0,0,0,0,,,,,1,2,18,9,,,,,,,,,,,,,,,,,,,,,,,,,980.1557887000963,0,none,0,,,985.1625594999641,,,,,,,,42,A,2023-12-22_14h57.59.116,gca_avoidance_task,2022.2.4,144.0621197638811,
positions.xlsx,stimuli.xlsx,stimuli/Social1.png,stimuli/Social2.png,stimuli/Nonsocial1.png,stimuli/Nonsocial2.png,,"(0.7, -0.5)",cs_minus_s,,,,,0,0,0,0,,,,,1,3,19,7,,,,,,,,,,,,,,,,,,,,,,,,,995.0927153001539,0,none,0,,,1000.0994709001388,,,,,,,,42,A,2023-12-22_14h57.59.116,gca_avoidance_task,2022.2.4,144.0621197638811,
positions.xlsx,stimuli.xlsx,stimuli/Social1.png,stimuli/Social2.png,stimuli/Nonsocial1.png,stimuli/Nonsocial2.png,,"(-0.7, 0.5)",cs_minus_s,,,,,0,0,0,0,,,,,1,4,20,4,,,,,,,,,,,,,,,,,,,,,,,,,1009.3907930001151,0,none,0,,,1014.3975235000253,,,,,,,,42,A,2023-12-22_14h57.59.116,gca_avoidance_task,2022.2.4,144.0621197638811,
positions.xlsx,stimuli.xlsx,stimuli/Social1.png,stimuli/Social2.png,stimuli/Nonsocial1.png,stimuli/Nonsocial2.png,,"(0.7, -0.5)",cs_minus_ns,,,,,0,0,0,0,,,,,1,5,21,15,,,,,,,,,,,,,,,,,,,,,,,,,1023.9735276000574,0,none,0,,,1028.9802784000058,,,,,,,,42,A,2023-12-22_14h57.59.116,gca_avoidance_task,2022.2.4,144.0621197638811,
positions.xlsx,stimuli.xlsx,stimuli/Social1.png,stimuli/Social2.png,stimuli/Nonsocial1.png,stimuli/Nonsocial2.png,,"(0.7, 0.5)",cs_minus_ns,,,,,0,0,0,0,,,,,1,6,22,14,,,,,,,,,,,,,,,,,,,,,,,,,1039.2785040000454,0,none,0,,,1044.285218999954,,,,,,,,42,A,2023-12-22_14h57.59.116,gca_avoidance_task,2022.2.4,144.0621197638811,
positions.xlsx,stimuli.xlsx,stimuli/Social1.png,stimuli/Social2.png,stimuli/Nonsocial1.png,stimuli/Nonsocial2.png,,"(0.7, 0.5)",cs_plus_s,,,,,0,0,0,0,,,,,1,7,23,2,,,,,,,,,,,,,,,,,,,,,,,,,1053.3890405001584,0,none,0,,,1058.3957871999592,,,,,,,,42,A,2023-12-22_14h57.59.116,gca_avoidance_task,2022.2.4,144.0621197638811,
positions.xlsx,stimuli.xlsx,stimuli/Social1.png,stimuli/Social2.png,stimuli/Nonsocial1.png,stimuli/Nonsocial2.png,,"(-0.7, -0.5)",cs_minus_s,,,,,0,0,0,0,,,,,1,8,24,5,,,,,,,,,,,,,,,,,,,,,,,,,1067.5690345000476,0,none,0,,,1072.5757776000537,,,,,,,,42,A,2023-12-22_14h57.59.116,gca_avoidance_task,2022.2.4,144.0621197638811,
positions.xlsx,stimuli.xlsx,stimuli/Social1.png,stimuli/Social2.png,stimuli/Nonsocial1.png,stimuli/Nonsocial2.png,,"(-0.7, -0.5)",cs_minus_ns,,,,,0,0,0,0,,,,,1,9,25,13,,,,,,,,,,,,,,,,,,,,,,,,,1081.9365410001483,0,none,0,,,1086.9432990001515,,,,,,,,42,A,2023-12-22_14h57.59.116,gca_avoidance_task,2022.2.4,144.0621197638811,
positions.xlsx,stimuli.xlsx,stimuli/Social1.png,stimuli/Social2.png,stimuli/Nonsocial1.png,stimuli/Nonsocial2.png,,"(0.7, 0.5)",cs_plus_ns,,,,,0,0,0,0,,,,,1,10,26,10,,,,,,,,,,,,,,,,,,,,,,,,,1096.873461500043,0,none,0,,,1101.8802147000097,,,,,,,,42,A,2023-12-22_14h57.59.116,gca_avoidance_task,2022.2.4,144.0621197638811,
positions.xlsx,stimuli.xlsx,stimuli/Social1.png,stimuli/Social2.png,stimuli/Nonsocial1.png,stimuli/Nonsocial2.png,,"(0.7, 0.5)",cs_minus_s,,,,,0,0,0,0,,,,,1,11,27,6,,,,,,,,,,,,,,,,,,,,,,,,,1112.2061881001573,0,none,0,,,1117.2129274001345,,,,,,,,42,A,2023-12-22_14h57.59.116,gca_avoidance_task,2022.2.4,144.0621197638811,
positions.xlsx,stimuli.xlsx,stimuli/Social1.png,stimuli/Social2.png,stimuli/Nonsocial1.png,stimuli/Nonsocial2.png,,"(-0.7, 0.5)",cs_minus_ns,,,,,0,0,0,0,,,,,1,12,28,12,,,,,,,,,,,,,,,,,,,,,,,,,1127.018136400031,0,none,0,,,1132.0248235999607,,,,,,,,42,A,2023-12-22_14h57.59.116,gca_avoidance_task,2022.2.4,144.0621197638811,
positions.xlsx,stimuli.xlsx,stimuli/Social1.png,stimuli/Social2.png,stimuli/Nonsocial1.png,stimuli/Nonsocial2.png,,"(0.7, -0.5)",cs_plus_ns,,,,,0,0,0,0,,,,,1,13,29,11,,,,,,,,,,,,,,,,,,,,,,,,,1141.78837319999,0,none,0,,,1146.7951073001605,,,,,,,,42,A,2023-12-22_14h57.59.116,gca_avoidance_task,2022.2.4,144.0621197638811,
positions.xlsx,stimuli.xlsx,stimuli/Social1.png,stimuli/Social2.png,stimuli/Nonsocial1.png,stimuli/Nonsocial2.png,,"(-0.7, -0.5)",cs_plus_s,,,,,0,0,0,0,,,,,1,14,30,1,,,,,,,,,,,,,,,,,,,,,,,,,1155.6350577000994,0,none,0,,,1160.6418018001132,,,,,,,,42,A,2023-12-22_14h57.59.116,gca_avoidance_task,2022.2.4,144.0621197638811,
positions.xlsx,stimuli.xlsx,stimuli/Social1.png,stimuli/Social2.png,stimuli/Nonsocial1.png,stimuli/Nonsocial2.png,,"(-0.7, 0.5)",cs_plus_s,,,,,0,0,0,0,,,,,1,15,31,0,,,,,,,,,,,,,,,,,,,,,,,,,1170.25949340011,0,shock,1,4.916309599997476,4.916313299909234,1175.182869200129,,,,,,,,42,A,2023-12-22_14h57.59.116,gca_avoidance_task,2022.2.4,144.0621197638811,
positions.xlsx,stimuli.xlsx,stimuli/Social1.png,stimuli/Social2.png,stimuli/Nonsocial1.png,stimuli/Nonsocial2.png,,"(0.7, -0.5)",cs_plus_ns,,,,,0,0,0,0,,,,,,,,,0,0,0,11,,,,,,,,,,,,,,,,,,,,,1248.5411561999936,0,none,0,,,1253.5479129001033,,,,,,,,42,A,2023-12-22_14h57.59.116,gca_avoidance_task,2022.2.4,144.0621197638811,
positions.xlsx,stimuli.xlsx,stimuli/Social1.png,stimuli/Social2.png,stimuli/Nonsocial1.png,stimuli/Nonsocial2.png,,"(-0.7, -0.5)",cs_plus_ns,,,,,0,0,0,0,,,,,,,,,0,1,1,9,,,,,,,,,,,,,,,,,,,,,1262.7767088001128,0,none,0,,,1267.7834724001586,,,,,,,,42,A,2023-12-22_14h57.59.116,gca_avoidance_task,2022.2.4,144.0621197638811,
positions.xlsx,stimuli.xlsx,stimuli/Social1.png,stimuli/Social2.png,stimuli/Nonsocial1.png,stimuli/Nonsocial2.png,,"(-0.7, -0.5)",cs_minus_s,,,,,0,0,0,0,,,,,,,,,0,2,2,5,,,,,,,,,,,,,,,,,,,,,1276.6859035999514,0,none,0,,,1281.6926378000062,,,,,,,,42,A,2023-12-22_14h57.59.116,gca_avoidance_task,2022.2.4,144.0621197638811,
positions.xlsx,stimuli.xlsx,stimuli/Social1.png,stimuli/Social2.png,stimuli/Nonsocial1.png,stimuli/Nonsocial2.png,,"(-0.7, 0.5)",cs_minus_ns,,,,,0,0,0,0,,,,,,,,,0,3,3,12,,,,,,,,,,,,,,,,,,,,,1291.803349400172,0,none,0,,,1296.8101085000671,,,,,,,,42,A,2023-12-22_14h57.59.116,gca_avoidance_task,2022.2.4,144.0621197638811,
positions.xlsx,stimuli.xlsx,stimuli/Social1.png,stimuli/Social2.png,stimuli/Nonsocial1.png,stimuli/Nonsocial2.png,,"(-0.7, 0.5)",cs_minus_s,,,,,0,0,0,0,,,,,,,,,0,4,4,4,,,,,,,,,,,,,,,,,,,,,1306.6430673000868,0,none,0,,,1311.6498325001448,,,,,,,,42,A,2023-12-22_14h57.59.116,gca_avoidance_task,2022.2.4,144.0621197638811,
positions.xlsx,stimuli.xlsx,stimuli/Social1.png,stimuli/Social2.png,stimuli/Nonsocial1.png,stimuli/Nonsocial2.png,,"(-0.7, 0.5)",cs_plus_s,,,,,0,0,0,0,,,,,,,,,0,5,5,0,,,,,,,,,,,,,,,,,,,,,1320.9341603000648,0,none,0,,,1325.9409312000498,,,,,,,,42,A,2023-12-22_14h57.59.116,gca_avoidance_task,2022.2.4,144.0621197638811,
positions.xlsx,stimuli.xlsx,stimuli/Social1.png,stimuli/Social2.png,stimuli/Nonsocial1.png,stimuli/Nonsocial2.png,,"(0.7, 0.5)",cs_plus_s,,,,,0,0,0,0,,,,,,,,,0,6,6,2,,,,,,,,,,,,,,,,,,,,,1334.5239075999707,0,none,0,,,1339.5306818000972,,,,,,,,42,A,2023-12-22_14h57.59.116,gca_avoidance_task,2022.2.4,144.0621197638811,
positions.xlsx,stimuli.xlsx,stimuli/Social1.png,stimuli/Social2.png,stimuli/Nonsocial1.png,stimuli/Nonsocial2.png,,"(0.7, 0.5)",cs_minus_s,,,,,0,0,0,0,,,,,,,,,0,7,7,6,,,,,,,,,,,,,,,,,,,,,1348.8844547001645,0,none,0,,,1353.8912007999606,,,,,,,,42,A,2023-12-22_14h57.59.116,gca_avoidance_task,2022.2.4,144.0621197638811,
positions.xlsx,stimuli.xlsx,stimuli/Social1.png,stimuli/Social2.png,stimuli/Nonsocial1.png,stimuli/Nonsocial2.png,,"(-0.7, -0.5)",cs_minus_ns,,,,,0,0,0,0,,,,,,,,,0,8,8,13,,,,,,,,,,,,,,,,,,,,,1364.099144200096,0,none,0,,,1369.105896100169,,,,,,,,42,A,2023-12-22_14h57.59.116,gca_avoidance_task,2022.2.4,144.0621197638811,
positions.xlsx,stimuli.xlsx,stimuli/Social1.png,stimuli/Social2.png,stimuli/Nonsocial1.png,stimuli/Nonsocial2.png,,"(0.7, -0.5)",cs_plus_s,,,,,0,0,0,0,,,,,,,,,0,9,9,3,,,,,,,,,,,,,,,,,,,,,1378.7513600001112,0,none,0,,,1383.7580973999575,,,,,,,,42,A,2023-12-22_14h57.59.116,gca_avoidance_task,2022.2.4,144.0621197638811,
positions.xlsx,stimuli.xlsx,stimuli/Social1.png,stimuli/Social2.png,stimuli/Nonsocial1.png,stimuli/Nonsocial2.png,,"(0.7, -0.5)",cs_minus_s,,,,,0,0,0,0,,,,,,,,,0,10,10,7,,,,,,,,,,,,,,,,,,,,,1393.3480096999556,0,none,0,,,1398.3547388999723,,,,,,,,42,A,2023-12-22_14h57.59.116,gca_avoidance_task,2022.2.4,144.0621197638811,
positions.xlsx,stimuli.xlsx,stimuli/Social1.png,stimuli/Social2.png,stimuli/Nonsocial1.png,stimuli/Nonsocial2.png,,"(-0.7, -0.5)",cs_plus_s,,,,,0,0,0,0,,,,,,,,,0,11,11,1,,,,,,,,,,,,,,,,,,,,,1408.2640746999532,0,none,0,,,1413.2708382001147,,,,,,,,42,A,2023-12-22_14h57.59.116,gca_avoidance_task,2022.2.4,144.0621197638811,
positions.xlsx,stimuli.xlsx,stimuli/Social1.png,stimuli/Social2.png,stimuli/Nonsocial1.png,stimuli/Nonsocial2.png,,"(0.7, -0.5)",cs_minus_ns,,,,,0,0,0,0,,,,,,,,,0,12,12,15,,,,,,,,,,,,,,,,,,,,,1422.5690715000965,0,none,0,,,1427.575893000001,,,,,,,,42,A,2023-12-22_14h57.59.116,gca_avoidance_task,2022.2.4,144.0621197638811,
positions.xlsx,stimuli.xlsx,stimuli/Social1.png,stimuli/Social2.png,stimuli/Nonsocial1.png,stimuli/Nonsocial2.png,,"(0.7, 0.5)",cs_plus_ns,,,,,0,0,0,0,,,,,,,,,0,13,13,10,,,,,,,,,,,,,,,,,,,,,1437.4365620999597,0,none,0,,,1442.4433041000739,,,,,,,,42,A,2023-12-22_14h57.59.116,gca_avoidance_task,2022.2.4,144.0621197638811,
positions.xlsx,stimuli.xlsx,stimuli/Social1.png,stimuli/Social2.png,stimuli/Nonsocial1.png,stimuli/Nonsocial2.png,,"(-0.7, 0.5)",cs_plus_ns,,,,,0,0,0,0,,,,,,,,,0,14,14,8,,,,,,,,,,,,,,,,,,,,,1451.797119700117,0,none,0,,,1456.803852000041,,,,,,,,42,A,2023-12-22_14h57.59.116,gca_avoidance_task,2022.2.4,144.0621197638811,
positions.xlsx,stimuli.xlsx,stimuli/Social1.png,stimuli/Social2.png,stimuli/Nonsocial1.png,stimuli/Nonsocial2.png,,"(0.7, 0.5)",cs_minus_ns,,,,,0,0,0,0,,,,,,,,,0,15,15,14,,,,,,,,,,,,,,,,,,,,,1465.6785002001561,0,none,0,,,1470.6852721001487,,,,,,,,42,A,2023-12-22_14h57.59.116,gca_avoidance_task,2022.2.4,144.0621197638811,
positions.xlsx,stimuli.xlsx,stimuli/Social1.png,stimuli/Social2.png,stimuli/Nonsocial1.png,stimuli/Nonsocial2.png,,"(-0.7, -0.5)",cs_plus_ns,,,,,0,0,0,0,,,,,,,,,1,0,16,9,,,,,,,,,,,,,,,,,,,,,1479.3862725000363,0,none,0,,,1484.3930510999635,,,,,,,,42,A,2023-12-22_14h57.59.116,gca_avoidance_task,2022.2.4,144.0621197638811,
positions.xlsx,stimuli.xlsx,stimuli/Social1.png,stimuli/Social2.png,stimuli/Nonsocial1.png,stimuli/Nonsocial2.png,,"(-0.7, 0.5)",cs_plus_s,,,,,0,0,0,0,,,,,,,,,1,1,17,0,,,,,,,,,,,,,,,,,,,,,1494.594015700044,0,none,0,,,1499.6008121001069,,,,,,,,42,A,2023-12-22_14h57.59.116,gca_avoidance_task,2022.2.4,144.0621197638811,
positions.xlsx,stimuli.xlsx,stimuli/Social1.png,stimuli/Social2.png,stimuli/Nonsocial1.png,stimuli/Nonsocial2.png,,"(0.7, 0.5)",cs_plus_ns,,,,,0,0,0,0,,,,,,,,,1,2,18,10,,,,,,,,,,,,,,,,,,,,,1509.6142955000978,0,none,0,,,1514.6210698001087,,,,,,,,42,A,2023-12-22_14h57.59.116,gca_avoidance_task,2022.2.4,144.0621197638811,
positions.xlsx,stimuli.xlsx,stimuli/Social1.png,stimuli/Social2.png,stimuli/Nonsocial1.png,stimuli/Nonsocial2.png,,"(0.7, -0.5)",cs_minus_ns,,,,,0,0,0,0,,,,,,,,,1,3,19,15,,,,,,,,,,,,,,,,,,,,,1524.6970619000494,5,reward,1,2.632283099927008,2.6322864999528974,1527.342793600168,,,,,,,,42,A,2023-12-22_14h57.59.116,gca_avoidance_task,2022.2.4,144.0621197638811,
positions.xlsx,stimuli.xlsx,stimuli/Social1.png,stimuli/Social2.png,stimuli/Nonsocial1.png,stimuli/Nonsocial2.png,,"(-0.7, 0.5)",cs_minus_ns,,,,,0,0,0,0,,,,,,,,,1,4,20,12,,,,,,,,,,,,,,,,,,,,,1536.8493642001413,10,reward,1,0.34092900017276406,0.3409327999688685,1537.196559800068,,,,,,,,42,A,2023-12-22_14h57.59.116,gca_avoidance_task,2022.2.4,144.0621197638811,
positions.xlsx,stimuli.xlsx,stimuli/Social1.png,stimuli/Social2.png,stimuli/Nonsocial1.png,stimuli/Nonsocial2.png,,"(-0.7, -0.5)",cs_minus_ns,,,,,0,0,0,0,,,,,,,,,1,5,21,13,,,,,,,,,,,,,,,,,,,,,1547.3072798999492,15,reward,1,0.30584970000199974,0.3128742000553757,1547.6267150000203,,,,,,,,42,A,2023-12-22_14h57.59.116,gca_avoidance_task,2022.2.4,144.0621197638811,
positions.xlsx,stimuli.xlsx,stimuli/Social1.png,stimuli/Social2.png,stimuli/Nonsocial1.png,stimuli/Nonsocial2.png,,"(0.7, 0.5)",cs_plus_s,,,,,0,0,0,0,,,,,,,,,1,6,22,2,,,,,,,,,,,,,,,,,,,,,1557.2999293000903,15,none,0,,,1562.3136126999743,,,,,,,,42,A,2023-12-22_14h57.59.116,gca_avoidance_task,2022.2.4,144.0621197638811,
positions.xlsx,stimuli.xlsx,stimuli/Social1.png,stimuli/Social2.png,stimuli/Nonsocial1.png,stimuli/Nonsocial2.png,,"(-0.7, 0.5)",cs_minus_s,,,,,0,0,0,0,,,,,,,,,1,7,23,4,,,,,,,,,,,,,,,,,,,,,1571.9035311001353,20,reward,1,0.3475293000228703,0.3475327999331057,1572.2646325000096,,,,,,,,42,A,2023-12-22_14h57.59.116,gca_avoidance_task,2022.2.4,144.0621197638811,
positions.xlsx,stimuli.xlsx,stimuli/Social1.png,stimuli/Social2.png,stimuli/Nonsocial1.png,stimuli/Nonsocial2.png,,"(-0.7, -0.5)",cs_minus_s,,,,,0,0,0,0,,,,,,,,,1,8,24,5,,,,,,,,,,,,,,,,,,,,,1581.7503772999626,25,reward,1,1.0141998999752104,1.0142037998884916,1582.7712268000469,,,,,,,,42,A,2023-12-22_14h57.59.116,gca_avoidance_task,2022.2.4,144.0621197638811,
positions.xlsx,stimuli.xlsx,stimuli/Social1.png,stimuli/Social2.png,stimuli/Nonsocial1.png,stimuli/Nonsocial2.png,,"(0.7, 0.5)",cs_minus_s,,,,,0,0,0,0,,,,,,,,,1,9,25,6,,,,,,,,,,,,,,,,,,,,,1592.5207974000368,30,reward,1,0.8267709999345243,0.8267747999634594,1593.3540894000325,,,,,,,,42,A,2023-12-22_14h57.59.116,gca_avoidance_task,2022.2.4,144.0621197638811,
positions.xlsx,stimuli.xlsx,stimuli/Social1.png,stimuli/Social2.png,stimuli/Nonsocial1.png,stimuli/Nonsocial2.png,,"(0.7, -0.5)",cs_minus_s,,,,,0,0,0,0,,,,,,,,,1,10,26,7,,,,,,,,,,,,,,,,,,,,,1603.7495114000048,35,reward,1,0.6529520000331104,0.6529556999448687,1604.4092286999803,,,,,,,,42,A,2023-12-22_14h57.59.116,gca_avoidance_task,2022.2.4,144.0621197638811,
positions.xlsx,stimuli.xlsx,stimuli/Social1.png,stimuli/Social2.png,stimuli/Nonsocial1.png,stimuli/Nonsocial2.png,,"(0.7, 0.5)",cs_minus_ns,,,,,0,0,0,0,,,,,,,,,1,11,27,14,,,,,,,,,,,,,,,,,,,,,1613.67274249997,40,reward,1,0.604288199916482,0.604291999945417,1614.2838677000254,,,,,,,,42,A,2023-12-22_14h57.59.116,gca_avoidance_task,2022.2.4,144.0621197638811,
positions.xlsx,stimuli.xlsx,stimuli/Social1.png,stimuli/Social2.png,stimuli/Nonsocial1.png,stimuli/Nonsocial2.png,,"(0.7, -0.5)",cs_plus_ns,,,,,0,0,0,0,,,,,,,,,1,12,28,11,,,,,,,,,,,,,,,,,,,,,1623.7765300001483,40,shock,1,0.5553906999994069,0.555394500028342,1624.3390022001695,,,,,,,,42,A,2023-12-22_14h57.59.116,gca_avoidance_task,2022.2.4,144.0621197638811,
positions.xlsx,stimuli.xlsx,stimuli/Social1.png,stimuli/Social2.png,stimuli/Nonsocial1.png,stimuli/Nonsocial2.png,,"(-0.7, -0.5)",cs_plus_s,,,,,0,0,0,0,,,,,,,,,1,13,29,1,,,,,,,,,,,,,,,,,,,,,1634.616385200061,40,none,0,,,1639.6300963000394,,,,,,,,42,A,2023-12-22_14h57.59.116,gca_avoidance_task,2022.2.4,144.0621197638811,
positions.xlsx,stimuli.xlsx,stimuli/Social1.png,stimuli/Social2.png,stimuli/Nonsocial1.png,stimuli/Nonsocial2.png,,"(0.7, -0.5)",cs_plus_s,,,,,0,0,0,0,,,,,,,,,1,14,30,3,,,,,,,,,,,,,,,,,,,,,1649.4421767999884,40,none,0,,,1654.4489657001104,,,,,,,,42,A,2023-12-22_14h57.59.116,gca_avoidance_task,2022.2.4,144.0621197638811,
positions.xlsx,stimuli.xlsx,stimuli/Social1.png,stimuli/Social2.png,stimuli/Nonsocial1.png,stimuli/Nonsocial2.png,,"(-0.7, 0.5)",cs_plus_ns,,,,,0,0,0,0,,,,,,,,,1,15,31,8,,,,,,,,,,,,,,,,,,,,,1664.3860246001277,40,shock,1,0.8406338000204414,0.8406375001650304,1665.2331920000724,,,,,,,,42,A,2023-12-22_14h57.59.116,gca_avoidance_task,2022.2.4,144.0621197638811,
positions.xlsx,stimuli.xlsx,stimuli/Social1.png,stimuli/Social2.png,stimuli/Nonsocial1.png,stimuli/Nonsocial2.png,,"(0.7, -0.5)",cs_plus_s,,,,,0,0,0,0,,,,,,,,,2,0,32,3,,,,,,,,,,,,,,,,,,,,,1675.1842428999953,40,none,0,,,1680.1909853001125,,,,,,,,42,A,2023-12-22_14h57.59.116,gca_avoidance_task,2022.2.4,144.0621197638811,
positions.xlsx,stimuli.xlsx,stimuli/Social1.png,stimuli/Social2.png,stimuli/Nonsocial1.png,stimuli/Nonsocial2.png,,"(-0.7, -0.5)",cs_plus_s,,,,,0,0,0,0,,,,,,,,,2,1,33,1,,,,,,,,,,,,,,,,,,,,,1689.2114512000699,40,none,0,,,1694.2182740001008,,,,,,,,42,A,2023-12-22_14h57.59.116,gca_avoidance_task,2022.2.4,144.0621197638811,
positions.xlsx,stimuli.xlsx,stimuli/Social1.png,stimuli/Social2.png,stimuli/Nonsocial1.png,stimuli/Nonsocial2.png,,"(0.7, 0.5)",cs_plus_ns,,,,,0,0,0,0,,,,,,,,,2,2,34,10,,,,,,,,,,,,,,,,,,,,,1703.3984195000958,40,none,0,,,1708.398209600011,,,,,,,,42,A,2023-12-22_14h57.59.116,gca_avoidance_task,2022.2.4,144.0621197638811,
positions.xlsx,stimuli.xlsx,stimuli/Social1.png,stimuli/Social2.png,stimuli/Nonsocial1.png,stimuli/Nonsocial2.png,,"(0.7, 0.5)",cs_plus_s,,,,,0,0,0,0,,,,,,,,,2,3,35,2,,,,,,,,,,,,,,,,,,,,,1717.890905200038,40,none,0,,,1722.8976678999607,,,,,,,,42,A,2023-12-22_14h57.59.116,gca_avoidance_task,2022.2.4,144.0621197638811,
positions.xlsx,stimuli.xlsx,stimuli/Social1.png,stimuli/Social2.png,stimuli/Nonsocial1.png,stimuli/Nonsocial2.png,,"(0.7, -0.5)",cs_plus_ns,,,,,0,0,0,0,,,,,,,,,2,4,36,11,,,,,,,,,,,,,,,,,,,,,1732.2653431999497,40,none,0,,,1737.272084500175,,,,,,,,42,A,2023-12-22_14h57.59.116,gca_avoidance_task,2022.2.4,144.0621197638811,
positions.xlsx,stimuli.xlsx,stimuli/Social1.png,stimuli/Social2.png,stimuli/Nonsocial1.png,stimuli/Nonsocial2.png,,"(0.7, 0.5)",cs_minus_s,,,,,0,0,0,0,,,,,,,,,2,5,37,6,,,,,,,,,,,,,,,,,,,,,1747.0425130999647,45,reward,1,0.7360662000719458,0.7360696000978351,1747.785570200067,,,,,,,,42,A,2023-12-22_14h57.59.116,gca_avoidance_task,2022.2.4,144.0621197638811,
positions.xlsx,stimuli.xlsx,stimuli/Social1.png,stimuli/Social2.png,stimuli/Nonsocial1.png,stimuli/Nonsocial2.png,,"(0.7, -0.5)",cs_minus_ns,,,,,0,0,0,0,,,,,,,,,2,6,38,15,,,,,,,,,,,,,,,,,,,,,1757.6046605999582,50,reward,1,0.5143242999911308,0.5143279999028891,1758.1254469000269,,,,,,,,42,A,2023-12-22_14h57.59.116,gca_avoidance_task,2022.2.4,144.0621197638811,
positions.xlsx,stimuli.xlsx,stimuli/Social1.png,stimuli/Social2.png,stimuli/Nonsocial1.png,stimuli/Nonsocial2.png,,"(-0.7, 0.5)",cs_minus_s,,,,,0,0,0,0,,,,,,,,,2,7,39,4,,,,,,,,,,,,,,,,,,,,,1767.3681842000224,55,reward,1,0.5279998001642525,0.528003100072965,1767.9028664000798,,,,,,,,42,A,2023-12-22_14h57.59.116,gca_avoidance_task,2022.2.4,144.0621197638811,
positions.xlsx,stimuli.xlsx,stimuli/Social1.png,stimuli/Social2.png,stimuli/Nonsocial1.png,stimuli/Nonsocial2.png,,"(-0.7, 0.5)",cs_plus_s,,,,,0,0,0,0,,,,,,,,,2,8,40,0,,,,,,,,,,,,,,,,,,,,,1777.360869300086,55,none,0,,,1782.3675939000677,,,,,,,,42,A,2023-12-22_14h57.59.116,gca_avoidance_task,2022.2.4,144.0621197638811,
positions.xlsx,stimuli.xlsx,stimuli/Social1.png,stimuli/Social2.png,stimuli/Nonsocial1.png,stimuli/Nonsocial2.png,,"(-0.7, 0.5)",cs_plus_ns,,,,,0,0,0,0,,,,,,,,,2,9,41,8,,,,,,,,,,,,,,,,,,,,,1792.2699592001736,55,none,0,,,1797.276695100125,,,,,,,,42,A,2023-12-22_14h57.59.116,gca_avoidance_task,2022.2.4,144.0621197638811,
positions.xlsx,stimuli.xlsx,stimuli/Social1.png,stimuli/Social2.png,stimuli/Nonsocial1.png,stimuli/Nonsocial2.png,,"(-0.7, 0.5)",cs_minus_ns,,,,,0,0,0,0,,,,,,,,,2,10,42,12,,,,,,,,,,,,,,,,,,,,,1806.4985919001047,55,none,0,,,1811.5053320999723,,,,,,,,42,A,2023-12-22_14h57.59.116,gca_avoidance_task,2022.2.4,144.0621197638811,
positions.xlsx,stimuli.xlsx,stimuli/Social1.png,stimuli/Social2.png,stimuli/Nonsocial1.png,stimuli/Nonsocial2.png,,"(0.7, 0.5)",cs_minus_ns,,,,,0,0,0,0,,,,,,,,,2,11,43,14,,,,,,,,,,,,,,,,,,,,,1820.8799634999596,60,reward,1,0.840372100006789,0.8403755999170244,1821.727150700055,,,,,,,,42,A,2023-12-22_14h57.59.116,gca_avoidance_task,2022.2.4,144.0621197638811,
positions.xlsx,stimuli.xlsx,stimuli/Social1.png,stimuli/Social2.png,stimuli/Nonsocial1.png,stimuli/Nonsocial2.png,,"(-0.7, -0.5)",cs_plus_ns,,,,,0,0,0,0,,,,,,,,,2,12,44,9,,,,,,,,,,,,,,,,,,,,,1831.844823700143,60,none,0,,,1836.8585257001687,,,,,,,,42,A,2023-12-22_14h57.59.116,gca_avoidance_task,2022.2.4,144.0621197638811,
positions.xlsx,stimuli.xlsx,stimuli/Social1.png,stimuli/Social2.png,stimuli/Nonsocial1.png,stimuli/Nonsocial2.png,,"(-0.7, -0.5)",cs_minus_s,,,,,0,0,0,0,,,,,,,,,2,13,45,5,,,,,,,,,,,,,,,,,,,,,1845.934522600146,65,reward,1,0.583466500043869,0.5834699000697583,1846.5248036000412,,,,,,,,42,A,2023-12-22_14h57.59.116,gca_avoidance_task,2022.2.4,144.0621197638811,
positions.xlsx,stimuli.xlsx,stimuli/Social1.png,stimuli/Social2.png,stimuli/Nonsocial1.png,stimuli/Nonsocial2.png,,"(0.7, -0.5)",cs_minus_s,,,,,0,0,0,0,,,,,,,,,2,14,46,7,,,,,,,,,,,,,,,,,,,,,1856.5729992000852,70,reward,1,0.736371299950406,0.7363751998636872,1857.3160270999651,,,,,,,,42,A,2023-12-22_14h57.59.116,gca_avoidance_task,2022.2.4,144.0621197638811,
positions.xlsx,stimuli.xlsx,stimuli/Social1.png,stimuli/Social2.png,stimuli/Nonsocial1.png,stimuli/Nonsocial2.png,,"(-0.7, -0.5)",cs_minus_ns,,,,,0,0,0,0,,,,,,,,,2,15,47,13,,,,,,,,,,,,,,,,,,,,,1867.0587065999862,75,reward,1,0.7293412000872195,0.7293446001131088,1867.7948054999579,,,,,,,,42,A,2023-12-22_14h57.59.116,gca_avoidance_task,2022.2.4,144.0621197638811,
positions.xlsx,stimuli.xlsx,stimuli/Social1.png,stimuli/Social2.png,stimuli/Nonsocial1.png,stimuli/Nonsocial2.png,,"(0.7, -0.5)",cs_plus_ns,,,,,0,0,0,0,,,,,,,,,3,0,48,11,,,,,,,,,,,,,,,,,,,,,1876.600004900014,75,none,0,,,1881.6067685999442,,,,,,,,42,A,2023-12-22_14h57.59.116,gca_avoidance_task,2022.2.4,144.0621197638811,
positions.xlsx,stimuli.xlsx,stimuli/Social1.png,stimuli/Social2.png,stimuli/Nonsocial1.png,stimuli/Nonsocial2.png,,"(0.7, 0.5)",cs_minus_ns,,,,,0,0,0,0,,,,,,,,,3,1,49,14,,,,,,,,,,,,,,,,,,,,,1891.0022279999685,80,reward,1,1.6043134999927133,1.6043168001342565,1892.6133038001135,,,,,,,,42,A,2023-12-22_14h57.59.116,gca_avoidance_task,2022.2.4,144.0621197638811,
positions.xlsx,stimuli.xlsx,stimuli/Social1.png,stimuli/Social2.png,stimuli/Nonsocial1.png,stimuli/Nonsocial2.png,,"(0.7, 0.5)",cs_plus_ns,,,,,0,0,0,0,,,,,,,,,3,2,50,10,,,,,,,,,,,,,,,,,,,,,1902.5295891000424,80,none,0,,,1907.5433100999799,,,,,,,,42,A,2023-12-22_14h57.59.116,gca_avoidance_task,2022.2.4,144.0621197638811,
positions.xlsx,stimuli.xlsx,stimuli/Social1.png,stimuli/Social2.png,stimuli/Nonsocial1.png,stimuli/Nonsocial2.png,,"(0.7, -0.5)",cs_plus_s,,,,,0,0,0,0,,,,,,,,,3,3,51,3,,,,,,,,,,,,,,,,,,,,,1917.7720755001064,80,none,0,,,1922.7787770000286,,,,,,,,42,A,2023-12-22_14h57.59.116,gca_avoidance_task,2022.2.4,144.0621197638811,
positions.xlsx,stimuli.xlsx,stimuli/Social1.png,stimuli/Social2.png,stimuli/Nonsocial1.png,stimuli/Nonsocial2.png,,"(-0.7, -0.5)",cs_minus_ns,,,,,0,0,0,0,,,,,,,,,3,4,52,13,,,,,,,,,,,,,,,,,,,,,1931.9728658001404,85,reward,1,0.8333857001271099,0.8333892999216914,1932.8131685999688,,,,,,,,42,A,2023-12-22_14h57.59.116,gca_avoidance_task,2022.2.4,144.0621197638811,
positions.xlsx,stimuli.xlsx,stimuli/Social1.png,stimuli/Social2.png,stimuli/Nonsocial1.png,stimuli/Nonsocial2.png,,"(-0.7, -0.5)",cs_plus_s,,,,,0,0,0,0,,,,,,,,,3,5,53,1,,,,,,,,,,,,,,,,,,,,,1942.9238493000157,85,none,0,,,1947.9305988000706,,,,,,,,42,A,2023-12-22_14h57.59.116,gca_avoidance_task,2022.2.4,144.0621197638811,
positions.xlsx,stimuli.xlsx,stimuli/Social1.png,stimuli/Social2.png,stimuli/Nonsocial1.png,stimuli/Nonsocial2.png,,"(0.7, 0.5)",cs_plus_s,,,,,0,0,0,0,,,,,,,,,3,6,54,2,,,,,,,,,,,,,,,,,,,,,1957.5899282000028,85,none,0,,,1962.596657200018,,,,,,,,42,A,2023-12-22_14h57.59.116,gca_avoidance_task,2022.2.4,144.0621197638811,
positions.xlsx,stimuli.xlsx,stimuli/Social1.png,stimuli/Social2.png,stimuli/Nonsocial1.png,stimuli/Nonsocial2.png,,"(0.7, -0.5)",cs_minus_s,,,,,0,0,0,0,,,,,,,,,3,7,55,7,,,,,,,,,,,,,,,,,,,,,1972.5476981999818,90,reward,1,0.6805504001677036,0.680553900077939,1973.2351707001217,,,,,,,,42,A,2023-12-22_14h57.59.116,gca_avoidance_task,2022.2.4,144.0621197638811,
positions.xlsx,stimuli.xlsx,stimuli/Social1.png,stimuli/Social2.png,stimuli/Nonsocial1.png,stimuli/Nonsocial2.png,,"(-0.7, 0.5)",cs_minus_s,,,,,0,0,0,0,,,,,,,,,3,8,56,4,,,,,,,,,,,,,,,,,,,,,1983.1444916001055,95,reward,1,0.5351104000583291,0.5351140999700874,1983.686149199959,,,,,,,,42,A,2023-12-22_14h57.59.116,gca_avoidance_task,2022.2.4,144.0621197638811,
positions.xlsx,stimuli.xlsx,stimuli/Social1.png,stimuli/Social2.png,stimuli/Nonsocial1.png,stimuli/Nonsocial2.png,,"(0.7, 0.5)",cs_minus_s,,,,,0,0,0,0,,,,,,,,,3,9,57,6,,,,,,,,,,,,,,,,,,,,,1993.657995800022,100,reward,1,0.5972458999603987,0.5972497998736799,1994.2621381001081,,,,,,,,42,A,2023-12-22_14h57.59.116,gca_avoidance_task,2022.2.4,144.0621197638811,
positions.xlsx,stimuli.xlsx,stimuli/Social1.png,stimuli/Social2.png,stimuli/Nonsocial1.png,stimuli/Nonsocial2.png,,"(-0.7, -0.5)",cs_minus_s,,,,,0,0,0,0,,,,,,,,,3,10,58,5,,,,,,,,,,,,,,,,,,,,,2003.6437170000281,105,reward,1,0.520847300067544,0.5208510002121329,2004.1714713999536,,,,,,,,42,A,2023-12-22_14h57.59.116,gca_avoidance_task,2022.2.4,144.0621197638811,
positions.xlsx,stimuli.xlsx,stimuli/Social1.png,stimuli/Social2.png,stimuli/Nonsocial1.png,stimuli/Nonsocial2.png,,"(-0.7, -0.5)",cs_plus_ns,,,,,0,0,0,0,,,,,,,,,3,11,59,9,,,,,,,,,,,,,,,,,,,,,2013.8933207001537,105,none,0,,,2018.9070197001565,,,,,,,,42,A,2023-12-22_14h57.59.116,gca_avoidance_task,2022.2.4,144.0621197638811,
positions.xlsx,stimuli.xlsx,stimuli/Social1.png,stimuli/Social2.png,stimuli/Nonsocial1.png,stimuli/Nonsocial2.png,,"(0.7, -0.5)",cs_minus_ns,,,,,0,0,0,0,,,,,,,,,3,12,60,15,,,,,,,,,,,,,,,,,,,,,2028.4899603000376,110,reward,1,0.5903732001315802,0.5903768001589924,2029.0871741999872,,,,,,,,42,A,2023-12-22_14h57.59.116,gca_avoidance_task,2022.2.4,144.0621197638811,
positions.xlsx,stimuli.xlsx,stimuli/Social1.png,stimuli/Social2.png,stimuli/Nonsocial1.png,stimuli/Nonsocial2.png,,"(-0.7, 0.5)",cs_plus_ns,,,,,0,0,0,0,,,,,,,,,3,13,61,8,,,,,,,,,,,,,,,,,,,,,2037.7951677001547,110,none,0,,,2042.8088651001453,,,,,,,,42,A,2023-12-22_14h57.59.116,gca_avoidance_task,2022.2.4,144.0621197638811,
positions.xlsx,stimuli.xlsx,stimuli/Social1.png,stimuli/Social2.png,stimuli/Nonsocial1.png,stimuli/Nonsocial2.png,,"(-0.7, 0.5)",cs_plus_s,,,,,0,0,0,0,,,,,,,,,3,14,62,0,,,,,,,,,,,,,,,,,,,,,2051.975183200091,110,none,0,,,2056.9819241000805,,,,,,,,42,A,2023-12-22_14h57.59.116,gca_avoidance_task,2022.2.4,144.0621197638811,
positions.xlsx,stimuli.xlsx,stimuli/Social1.png,stimuli/Social2.png,stimuli/Nonsocial1.png,stimuli/Nonsocial2.png,,"(-0.7, 0.5)",cs_minus_ns,,,,,0,0,0,0,,,,,,,,,3,15,63,12,,,,,,,,,,,,,,,,,,,,,2066.4745992999524,115,reward,1,1.6602251001168042,1.6602288000285625,2068.1412148000672,,,,,,,,42,A,2023-12-22_14h57.59.116,gca_avoidance_task,2022.2.4,144.0621197638811,
positions.xlsx,stimuli.xlsx,stimuli/Social1.png,stimuli/Social2.png,stimuli/Nonsocial1.png,stimuli/Nonsocial2.png,,"(-0.7, 0.5)",cs_plus_ns,,,,,0,0,0,0,,,,,,,,,4,0,64,8,,,,,,,,,,,,,,,,,,,,,2077.6408314001746,115,none,0,,,2082.654529800173,,,,,,,,42,A,2023-12-22_14h57.59.116,gca_avoidance_task,2022.2.4,144.0621197638811,
positions.xlsx,stimuli.xlsx,stimuli/Social1.png,stimuli/Social2.png,stimuli/Nonsocial1.png,stimuli/Nonsocial2.png,,"(-0.7, 0.5)",cs_minus_ns,,,,,0,0,0,0,,,,,,,,,4,1,65,12,,,,,,,,,,,,,,,,,,,,,2092.2652947001625,120,reward,1,0.8335488000884652,0.8335522999987006,2093.1055096001364,,,,,,,,42,A,2023-12-22_14h57.59.116,gca_avoidance_task,2022.2.4,144.0621197638811,
positions.xlsx,stimuli.xlsx,stimuli/Social1.png,stimuli/Social2.png,stimuli/Nonsocial1.png,stimuli/Nonsocial2.png,,"(-0.7, -0.5)",cs_plus_s,,,,,0,0,0,0,,,,,,,,,4,2,66,1,,,,,,,,,,,,,,,,,,,,,2102.334324500058,120,none,0,,,2107.3480489000212,,,,,,,,42,A,2023-12-22_14h57.59.116,gca_avoidance_task,2022.2.4,144.0621197638811,
positions.xlsx,stimuli.xlsx,stimuli/Social1.png,stimuli/Social2.png,stimuli/Nonsocial1.png,stimuli/Nonsocial2.png,,"(0.7, -0.5)",cs_plus_ns,,,,,0,0,0,0,,,,,,,,,4,3,67,11,,,,,,,,,,,,,,,,,,,,,2117.1532094001304,120,none,0,,,2122.1599453000817,,,,,,,,42,A,2023-12-22_14h57.59.116,gca_avoidance_task,2022.2.4,144.0621197638811,
positions.xlsx,stimuli.xlsx,stimuli/Social1.png,stimuli/Social2.png,stimuli/Nonsocial1.png,stimuli/Nonsocial2.png,,"(0.7, 0.5)",cs_plus_s,,,,,0,0,0,0,,,,,,,,,4,4,68,2,,,,,,,,,,,,,,,,,,,,,2131.840126800118,120,none,0,,,2136.8469070000574,,,,,,,,42,A,2023-12-22_14h57.59.116,gca_avoidance_task,2022.2.4,144.0621197638811,
positions.xlsx,stimuli.xlsx,stimuli/Social1.png,stimuli/Social2.png,stimuli/Nonsocial1.png,stimuli/Nonsocial2.png,,"(-0.7, -0.5)",cs_minus_ns,,,,,0,0,0,0,,,,,,,,,4,5,69,13,,,,,,,,,,,,,,,,,,,,,2146.2770690000616,125,reward,1,0.9309676999691874,0.9309711998794228,2147.214543499984,,,,,,,,42,A,2023-12-22_14h57.59.116,gca_avoidance_task,2022.2.4,144.0621197638811,
positions.xlsx,stimuli.xlsx,stimuli/Social1.png,stimuli/Social2.png,stimuli/Nonsocial1.png,stimuli/Nonsocial2.png,,"(-0.7, 0.5)",cs_minus_s,,,,,0,0,0,0,,,,,,,,,4,6,70,4,,,,,,,,,,,,,,,,,,,,,2156.741954999976,130,reward,1,0.3817517999559641,0.3817550998646766,2157.130801200168,,,,,,,,42,A,2023-12-22_14h57.59.116,gca_avoidance_task,2022.2.4,144.0621197638811,
positions.xlsx,stimuli.xlsx,stimuli/Social1.png,stimuli/Social2.png,stimuli/Nonsocial1.png,stimuli/Nonsocial2.png,,"(0.7, 0.5)",cs_minus_ns,,,,,0,0,0,0,,,,,,,,,4,7,71,14,,,,,,,,,,,,,,,,,,,,,2166.9915394999553,135,reward,1,0.7434193999506533,0.7434233000967652,2167.7415336000267,,,,,,,,42,A,2023-12-22_14h57.59.116,gca_avoidance_task,2022.2.4,144.0621197638811,
positions.xlsx,stimuli.xlsx,stimuli/Social1.png,stimuli/Social2.png,stimuli/Nonsocial1.png,stimuli/Nonsocial2.png,,"(0.7, 0.5)",cs_minus_s,,,,,0,0,0,0,,,,,,,,,4,8,72,6,,,,,,,,,,,,,,,,,,,,,2176.998096999945,140,reward,1,0.5907254999037832,0.5907292999327183,2177.595353000099,,,,,,,,42,A,2023-12-22_14h57.59.116,gca_avoidance_task,2022.2.4,144.0621197638811,
positions.xlsx,stimuli.xlsx,stimuli/Social1.png,stimuli/Social2.png,stimuli/Nonsocial1.png,stimuli/Nonsocial2.png,,"(-0.7, -0.5)",cs_minus_s,,,,,0,0,0,0,,,,,,,,,4,9,73,5,,,,,,,,,,,,,,,,,,,,,2187.456027599983,145,reward,1,0.5764543998520821,0.5764577998779714,2188.0393455000594,,,,,,,,42,A,2023-12-22_14h57.59.116,gca_avoidance_task,2022.2.4,144.0621197638811,
positions.xlsx,stimuli.xlsx,stimuli/Social1.png,stimuli/Social2.png,stimuli/Nonsocial1.png,stimuli/Nonsocial2.png,,"(-0.7, -0.5)",cs_plus_ns,,,,,0,0,0,0,,,,,,,,,4,10,74,9,,,,,,,,,,,,,,,,,,,,,2197.22648079996,145,none,0,,,2202.2401882000268,,,,,,,,42,A,2023-12-22_14h57.59.116,gca_avoidance_task,2022.2.4,144.0621197638811,
positions.xlsx,stimuli.xlsx,stimuli/Social1.png,stimuli/Social2.png,stimuli/Nonsocial1.png,stimuli/Nonsocial2.png,,"(0.7, -0.5)",cs_plus_s,,,,,0,0,0,0,,,,,,,,,4,11,75,3,,,,,,,,,,,,,,,,,,,,,2211.4967804001644,145,none,0,,,2216.503515300108,,,,,,,,42,A,2023-12-22_14h57.59.116,gca_avoidance_task,2022.2.4,144.0621197638811,
positions.xlsx,stimuli.xlsx,stimuli/Social1.png,stimuli/Social2.png,stimuli/Nonsocial1.png,stimuli/Nonsocial2.png,,"(-0.7, 0.5)",cs_plus_s,,,,,0,0,0,0,,,,,,,,,4,12,76,0,,,,,,,,,,,,,,,,,,,,,2225.9892468999606,145,none,0,,,2230.9960311001632,,,,,,,,42,A,2023-12-22_14h57.59.116,gca_avoidance_task,2022.2.4,144.0621197638811,
positions.xlsx,stimuli.xlsx,stimuli/Social1.png,stimuli/Social2.png,stimuli/Nonsocial1.png,stimuli/Nonsocial2.png,,"(0.7, 0.5)",cs_plus_ns,,,,,0,0,0,0,,,,,,,,,4,13,77,10,,,,,,,,,,,,,,,,,,,,,2239.8637614001054,145,none,0,,,2244.8704495001584,,,,,,,,42,A,2023-12-22_14h57.59.116,gca_avoidance_task,2022.2.4,144.0621197638811,
positions.xlsx,stimuli.xlsx,stimuli/Social1.png,stimuli/Social2.png,stimuli/Nonsocial1.png,stimuli/Nonsocial2.png,,"(0.7, -0.5)",cs_minus_ns,,,,,0,0,0,0,,,,,,,,,4,14,78,15,,,,,,,,,,,,,,,,,,,,,2254.897861600155,150,reward,1,0.5143863998819143,0.5143899999093264,2255.4186707001645,,,,,,,,42,A,2023-12-22_14h57.59.116,gca_avoidance_task,2022.2.4,144.0621197638811,
positions.xlsx,stimuli.xlsx,stimuli/Social1.png,stimuli/Social2.png,stimuli/Nonsocial1.png,stimuli/Nonsocial2.png,,"(0.7, -0.5)",cs_minus_s,,,,,0,0,0,0,,,,,,,,,4,15,79,7,,,,,,,,,,,,,,,,,,,,,2264.8974731999915,155,reward,1,0.722366499947384,0.72237000009045,2265.626617599977,,,,,,,,42,A,2023-12-22_14h57.59.116,gca_avoidance_task,2022.2.4,144.0621197638811,
positions.xlsx,stimuli.xlsx,stimuli/Social1.png,stimuli/Social2.png,stimuli/Nonsocial1.png,stimuli/Nonsocial2.png,cs_minus_s,,,,,,,0,0,0,0,,,,,,,,,,,,,0,0,0,2,,,,,,,,,,,,,2293.042200200027,7.0,16.31481819995679,,,,,,,,,7.0,13.854179299902171,,,,,,42,A,2023-12-22_14h57.59.116,gca_avoidance_task,2022.2.4,144.0621197638811,
positions.xlsx,stimuli.xlsx,stimuli/Social1.png,stimuli/Social2.png,stimuli/Nonsocial1.png,stimuli/Nonsocial2.png,cs_plus_ns,,,,,,,0,0,0,0,,,,,,,,,,,,,0,1,1,1,,,,,,,,,,,,,2311.999875999987,3.0,2.999452800024301,,,,,,,,,,,,,,,,42,A,2023-12-22_14h57.59.116,gca_avoidance_task,2022.2.4,144.0621197638811,
positions.xlsx,stimuli.xlsx,stimuli/Social1.png,stimuli/Social2.png,stimuli/Nonsocial1.png,stimuli/Nonsocial2.png,cs_plus_s,,,,,,,0,0,0,0,,,,,,,,,,,,,0,2,2,0,,,,,,,,,,,,,2317.3468386000022,3.0,3.298490400193259,,,,,,,,,,,,,,,,42,A,2023-12-22_14h57.59.116,gca_avoidance_task,2022.2.4,144.0621197638811,
positions.xlsx,stimuli.xlsx,stimuli/Social1.png,stimuli/Social2.png,stimuli/Nonsocial1.png,stimuli/Nonsocial2.png,cs_minus_ns,,,,,,,0,0,0,0,,,,,,,,,,,,,0,3,3,3,,,,,,,,,,,,,2322.0480488999747,6.0,3.5893550000619143,,,,,,,,,,,,,,,,42,A,2023-12-22_14h57.59.116,gca_avoidance_task,2022.2.4,144.0621197638811,
positions.xlsx,stimuli.xlsx,stimuli/Social1.png,stimuli/Social2.png,stimuli/Nonsocial1.png,stimuli/Nonsocial2.png,cs_plus_s,,,,,,,0,0,0,0,,,,,,,,,,,,,,,,,0,0,0,0,,,,,,,,,,,,,,,,,,,,,,2329.3394339000806,2338.2140874001198,7,0.04166089999489486,3.9580603998620063,42,A,2023-12-22_14h57.59.116,gca_avoidance_task,2022.2.4,144.0621197638811,
positions.xlsx,stimuli.xlsx,stimuli/Social1.png,stimuli/Social2.png,stimuli/Nonsocial1.png,stimuli/Nonsocial2.png,cs_minus_ns,,,,,,,0,0,0,0,,,,,,,,,,,,,,,,,0,1,1,3,,,,,,,,,,,,,,,,,,,,,,,2353.3107475000434,8,0.22951030009426177,1.4098990000784397,42,A,2023-12-22_14h57.59.116,gca_avoidance_task,2022.2.4,144.0621197638811,
positions.xlsx,stimuli.xlsx,stimuli/Social1.png,stimuli/Social2.png,stimuli/Nonsocial1.png,stimuli/Nonsocial2.png,cs_plus_ns,,,,,,,0,0,0,0,,,,,,,,,,,,,,,,,0,2,2,1,,,,,,,,,,,,,,,,,,,,,,,2367.824092200026,5,0.13941239984706044,1.021080399863422,42,A,2023-12-22_14h57.59.116,gca_avoidance_task,2022.2.4,144.0621197638811,
positions.xlsx,stimuli.xlsx,stimuli/Social1.png,stimuli/Social2.png,stimuli/Nonsocial1.png,stimuli/Nonsocial2.png,cs_minus_s,,,,,,,0,0,0,0,,,,,,,,,,,,,,,,,0,3,3,2,,,,,,,,,,,,,,,,,,,,,,,2382.7470937001053,8,0.014735700096935034,2.3403592000249773,42,A,2023-12-22_14h57.59.116,gca_avoidance_task,2022.2.4,144.0621197638811,
positions.xlsx,stimuli.xlsx,stimuli/Social1.png,stimuli/Social2.png,stimuli/Nonsocial1.png,stimuli/Nonsocial2.png,cs_minus_s,,,,,,,0,0,0,0,,,,,,,,,,,,,,,,,1,0,4,2,,,,,,,,,,,,,,,,,,,,,,,2398.0034616000485,7,0.014962799847126007,1.6875297999940813,42,A,2023-12-22_14h57.59.116,gca_avoidance_task,2022.2.4,144.0621197638811,
positions.xlsx,stimuli.xlsx,stimuli/Social1.png,stimuli/Social2.png,stimuli/Nonsocial1.png,stimuli/Nonsocial2.png,cs_plus_ns,,,,,,,0,0,0,0,,,,,,,,,,,,,,,,,1,1,5,1,,,,,,,,,,,,,,,,,,,,,,,2412.8154563000426,7,0.13259669998660684,1.3890929999761283,42,A,2023-12-22_14h57.59.116,gca_avoidance_task,2022.2.4,144.0621197638811,
positions.xlsx,stimuli.xlsx,stimuli/Social1.png,stimuli/Social2.png,stimuli/Nonsocial1.png,stimuli/Nonsocial2.png,cs_minus_ns,,,,,,,0,0,0,0,,,,,,,,,,,,,,,,,1,2,6,3,,,,,,,,,,,,,,,,,,,,,,,2427.425940700108,10,0.014567299978807569,2.8750055998098105,42,A,2023-12-22_14h57.59.116,gca_avoidance_task,2022.2.4,144.0621197638811,
positions.xlsx,stimuli.xlsx,stimuli/Social1.png,stimuli/Social2.png,stimuli/Nonsocial1.png,stimuli/Nonsocial2.png,cs_plus_s,,,,,,,0,0,0,0,,,,,,,,,,,,,,,,,1,3,7,0,,,,,,,,,,,,,,,,,,,,,,,2442.2031225000974,3,0.014323499985039234,2.8960865000262856,42,A,2023-12-22_14h57.59.116,gca_avoidance_task,2022.2.4,144.0621197638811,
positions.xlsx,stimuli.xlsx,stimuli/Social1.png,stimuli/Social2.png,stimuli/Nonsocial1.png,stimuli/Nonsocial2.png,cs_plus_ns,,,,,,,0,0,0,0,,,,,,,,,,,,,,,,,2,0,8,1,,,,,,,,,,,,,,,,,,,,,,,2456.765053299954,7,0.014937900006771088,0.8266795000527054,42,A,2023-12-22_14h57.59.116,gca_avoidance_task,2022.2.4,144.0621197638811,
positions.xlsx,stimuli.xlsx,stimuli/Social1.png,stimuli/Social2.png,stimuli/Nonsocial1.png,stimuli/Nonsocial2.png,cs_plus_s,,,,,,,0,0,0,0,,,,,,,,,,,,,,,,,2,1,9,0,,,,,,,,,,,,,,,,,,,,,,,2472.2505719000474,11,0.013534900033846498,0.021044899942353368,42,A,2023-12-22_14h57.59.116,gca_avoidance_task,2022.2.4,144.0621197638811,
positions.xlsx,stimuli.xlsx,stimuli/Social1.png,stimuli/Social2.png,stimuli/Nonsocial1.png,stimuli/Nonsocial2.png,cs_minus_s,,,,,,,0,0,0,0,,,,,,,,,,,,,,,,,2,2,10,2,,,,,,,,,,,,,,,,,,,,,,,2486.958350100089,7,0.014012299943715334,3.3613495999015868,42,A,2023-12-22_14h57.59.116,gca_avoidance_task,2022.2.4,144.0621197638811,
positions.xlsx,stimuli.xlsx,stimuli/Social1.png,stimuli/Social2.png,stimuli/Nonsocial1.png,stimuli/Nonsocial2.png,cs_minus_ns,,,,,,,0,0,0,0,,,,,,,,,,,,,,,,,2,3,11,3,,,,,,,,,,,,,,,,,,,,,,,2502.2980172000825,9,0.01509170001372695,1.0906246998347342,42,A,2023-12-22_14h57.59.116,gca_avoidance_task,2022.2.4,144.0621197638811,
positions.xlsx,stimuli.xlsx,stimuli/Social1.png,stimuli/Social2.png,stimuli/Nonsocial1.png,stimuli/Nonsocial2.png,cs_plus_ns,,,,,,,0,0,0,0,,,,,,,,,,,,,,,,,3,0,12,1,,,,,,,,,,,,,,,,,,,,,,,2517.3877141000703,3,0.01476890011690557,0.5278992000967264,42,A,2023-12-22_14h57.59.116,gca_avoidance_task,2022.2.4,144.0621197638811,
positions.xlsx,stimuli.xlsx,stimuli/Social1.png,stimuli/Social2.png,stimuli/Nonsocial1.png,stimuli/Nonsocial2.png,cs_minus_ns,,,,,,,0,0,0,0,,,,,,,,,,,,,,,,,3,1,13,3,,,,,,,,,,,,,,,,,,,,,,,2531.921885299962,13,0.013880300102755427,0.3681888000573963,42,A,2023-12-22_14h57.59.116,gca_avoidance_task,2022.2.4,144.0621197638811,
positions.xlsx,stimuli.xlsx,stimuli/Social1.png,stimuli/Social2.png,stimuli/Nonsocial1.png,stimuli/Nonsocial2.png,cs_plus_s,,,,,,,0,0,0,0,,,,,,,,,,,,,,,,,3,2,14,0,,,,,,,,,,,,,,,,,,,,,,,2547.240719600115,6,0.013331800000742078,1.250052799936384,42,A,2023-12-22_14h57.59.116,gca_avoidance_task,2022.2.4,144.0621197638811,
positions.xlsx,stimuli.xlsx,stimuli/Social1.png,stimuli/Social2.png,stimuli/Nonsocial1.png,stimuli/Nonsocial2.png,cs_minus_s,,,,,,,0,0,0,0,,,,,,,,,,,,,,,,,3,3,15,2,,,,,,,,,,,,,,,,,,,,,,,2562.3234572999645,5,0.19495219993405044,3.8264000001363456,42,A,2023-12-22_14h57.59.116,gca_avoidance_task,2022.2.4,144.0621197638811,
positions.xlsx,stimuli.xlsx,stimuli/Social1.png,stimuli/Social2.png,stimuli/Nonsocial1.png,stimuli/Nonsocial2.png,cs_plus_s,,,,,,,0,0,0,0,,,,,,,,,,,,,,,,,4,0,16,0,,,,,,,,,,,,,,,,,,,,,,,2577.7326271000784,5,0.01333900005556643,3.0834532000590116,42,A,2023-12-22_14h57.59.116,gca_avoidance_task,2022.2.4,144.0621197638811,
positions.xlsx,stimuli.xlsx,stimuli/Social1.png,stimuli/Social2.png,stimuli/Nonsocial1.png,stimuli/Nonsocial2.png,cs_minus_s,,,,,,,0,0,0,0,,,,,,,,,,,,,,,,,4,1,17,2,,,,,,,,,,,,,,,,,,,,,,,2592.7390000000596,8,0.01387959998100996,1.5071103998925537,42,A,2023-12-22_14h57.59.116,gca_avoidance_task,2022.2.4,144.0621197638811,
positions.xlsx,stimuli.xlsx,stimuli/Social1.png,stimuli/Social2.png,stimuli/Nonsocial1.png,stimuli/Nonsocial2.png,cs_minus_ns,,,,,,,0,0,0,0,,,,,,,,,,,,,,,,,4,2,18,3,,,,,,,,,,,,,,,,,,,,,,,2607.3356141000986,12,0.013854899909347296,0.04183249990455806,42,A,2023-12-22_14h57.59.116,gca_avoidance_task,2022.2.4,144.0621197638811,
positions.xlsx,stimuli.xlsx,stimuli/Social1.png,stimuli/Social2.png,stimuli/Nonsocial1.png,stimuli/Nonsocial2.png,cs_plus_ns,,,,,,,0,0,0,0,,,,,,,,,,,,,,,,,4,3,19,1,,,,,,,,,,,,,,,,,,,,,,,2622.5780538001563,9,0.014193500159308314,0.42389340000227094,42,A,2023-12-22_14h57.59.116,gca_avoidance_task,2022.2.4,144.0621197638811,
positions.xlsx,stimuli.xlsx,stimuli/Social1.png,stimuli/Social2.png,stimuli/Nonsocial1.png,stimuli/Nonsocial2.png,cs_plus_s,,,,,,,0,0,0,0,,,,,,,,,,,,,,,,,5,0,20,0,,,,,,,,,,,,,,,,,,,,,,,2637.778880500002,6,0.04221540014259517,0.8613117001950741,42,A,2023-12-22_14h57.59.116,gca_avoidance_task,2022.2.4,144.0621197638811,
positions.xlsx,stimuli.xlsx,stimuli/Social1.png,stimuli/Social2.png,stimuli/Nonsocial1.png,stimuli/Nonsocial2.png,cs_minus_s,,,,,,,0,0,0,0,,,,,,,,,,,,,,,,,5,1,21,2,,,,,,,,,,,,,,,,,,,,,,,2652.8546689001378,10,0.013622300000861287,0.6113475000020117,42,A,2023-12-22_14h57.59.116,gca_avoidance_task,2022.2.4,144.0621197638811,
positions.xlsx,stimuli.xlsx,stimuli/Social1.png,stimuli/Social2.png,stimuli/Nonsocial1.png,stimuli/Nonsocial2.png,cs_plus_ns,,,,,,,0,0,0,0,,,,,,,,,,,,,,,,,5,2,22,1,,,,,,,,,,,,,,,,,,,,,,,2667.944365200121,6,0.014470400055870414,0.4585144000593573,42,A,2023-12-22_14h57.59.116,gca_avoidance_task,2022.2.4,144.0621197638811,
positions.xlsx,stimuli.xlsx,stimuli/Social1.png,stimuli/Social2.png,stimuli/Nonsocial1.png,stimuli/Nonsocial2.png,cs_minus_ns,,,,,,,0,0,0,0,,,,,,,,,,,,,,,,,5,3,23,3,,,,,,,,,,,,,,,,,,,,,,,2682.645194099983,14,0.014071499928832054,0.42388930008746684,42,A,2023-12-22_14h57.59.116,gca_avoidance_task,2022.2.4,144.0621197638811,
positions.xlsx,stimuli.xlsx,stimuli/Social1.png,stimuli/Social2.png,stimuli/Nonsocial1.png,stimuli/Nonsocial2.png,cs_plus_ns,,,,,,,0,0,0,0,,,,,,,,,,,,,,,,,6,0,24,1,,,,,,,,,,,,,,,,,,,,,,,2697.616813499946,10,0.015654999995604157,0.34743500011973083,42,A,2023-12-22_14h57.59.116,gca_avoidance_task,2022.2.4,144.0621197638811,
positions.xlsx,stimuli.xlsx,stimuli/Social1.png,stimuli/Social2.png,stimuli/Nonsocial1.png,stimuli/Nonsocial2.png,cs_minus_s,,,,,,,0,0,0,0,,,,,,,,,,,,,,,,,6,1,25,2,,,,,,,,,,,,,,,,,,,,,,,2712.588494700147,9,0.27134649991057813,0.937633799854666,42,A,2023-12-22_14h57.59.116,gca_avoidance_task,2022.2.4,144.0621197638811,
positions.xlsx,stimuli.xlsx,stimuli/Social1.png,stimuli/Social2.png,stimuli/Nonsocial1.png,stimuli/Nonsocial2.png,cs_minus_ns,,,,,,,0,0,0,0,,,,,,,,,,,,,,,,,6,2,26,3,,,,,,,,,,,,,,,,,,,,,,,2727.1156862000935,13,0.014791799942031503,0.4931501999963075,42,A,2023-12-22_14h57.59.116,gca_avoidance_task,2022.2.4,144.0621197638811,
positions.xlsx,stimuli.xlsx,stimuli/Social1.png,stimuli/Social2.png,stimuli/Nonsocial1.png,stimuli/Nonsocial2.png,cs_plus_s,,,,,,,0,0,0,0,,,,,,,,,,,,,,,,,6,3,27,0,,,,,,,,,,,,,,,,,,,,,,,2742.0942800000776,7,0.2990292999893427,3.8819770999252796,42,A,2023-12-22_14h57.59.116,gca_avoidance_task,2022.2.4,144.0621197638811,
positions.xlsx,stimuli.xlsx,stimuli/Social1.png,stimuli/Social2.png,stimuli/Nonsocial1.png,stimuli/Nonsocial2.png,cs_minus_s,,,,,,,0,0,0,0,,,,,,,,,,,,,,,,,7,0,28,2,,,,,,,,,,,,,,,,,,,,,,,2756.9200928001665,9,0.014251699903979897,1.2155949999578297,42,A,2023-12-22_14h57.59.116,gca_avoidance_task,2022.2.4,144.0621197638811,
positions.xlsx,stimuli.xlsx,stimuli/Social1.png,stimuli/Social2.png,stimuli/Nonsocial1.png,stimuli/Nonsocial2.png,cs_plus_s,,,,,,,0,0,0,0,,,,,,,,,,,,,,,,,7,1,29,0,,,,,,,,,,,,,,,,,,,,,,,2772.0792283001356,8,0.013996300054714084,2.1599658001214266,42,A,2023-12-22_14h57.59.116,gca_avoidance_task,2022.2.4,144.0621197638811,
positions.xlsx,stimuli.xlsx,stimuli/Social1.png,stimuli/Social2.png,stimuli/Nonsocial1.png,stimuli/Nonsocial2.png,cs_minus_ns,,,,,,,0,0,0,0,,,,,,,,,,,,,,,,,7,2,30,3,,,,,,,,,,,,,,,,,,,,,,,2787.1550166001543,11,0.013938900083303452,0.5140692999120802,42,A,2023-12-22_14h57.59.116,gca_avoidance_task,2022.2.4,144.0621197638811,
positions.xlsx,stimuli.xlsx,stimuli/Social1.png,stimuli/Social2.png,stimuli/Nonsocial1.png,stimuli/Nonsocial2.png,cs_plus_ns,,,,,,,0,0,0,0,,,,,,,,,,,,,,,,,7,3,31,1,,,,,,,,,,,,,,,,,,,,,,,2802.0919663000386,6,0.01450360007584095,0.34052979992702603,42,A,2023-12-22_14h57.59.116,gca_avoidance_task,2022.2.4,144.0621197638811,
positions.xlsx,stimuli.xlsx,stimuli/Social1.png,stimuli/Social2.png,stimuli/Nonsocial1.png,stimuli/Nonsocial2.png,cs_plus_ns,,,,,,,0,0,0,0,,,,,,,,,,,,,,,,,8,0,32,1,,,,,,,,,,,,,,,,,,,,,,,2816.6608321999665,8,0.013986400095745921,0.38209130009636283,42,A,2023-12-22_14h57.59.116,gca_avoidance_task,2022.2.4,144.0621197638811,
positions.xlsx,stimuli.xlsx,stimuli/Social1.png,stimuli/Social2.png,stimuli/Nonsocial1.png,stimuli/Nonsocial2.png,cs_minus_s,,,,,,,0,0,0,0,,,,,,,,,,,,,,,,,8,1,33,2,,,,,,,,,,,,,,,,,,,,,,,2831.9032922000624,14,0.013691900065168738,0.5697319000028074,42,A,2023-12-22_14h57.59.116,gca_avoidance_task,2022.2.4,144.0621197638811,
positions.xlsx,stimuli.xlsx,stimuli/Social1.png,stimuli/Social2.png,stimuli/Nonsocial1.png,stimuli/Nonsocial2.png,cs_plus_s,,,,,,,0,0,0,0,,,,,,,,,,,,,,,,,8,2,34,0,,,,,,,,,,,,,,,,,,,,,,,2846.8541008001193,9,0.013619699981063604,0.8823600998148322,42,A,2023-12-22_14h57.59.116,gca_avoidance_task,2022.2.4,144.0621197638811,
positions.xlsx,stimuli.xlsx,stimuli/Social1.png,stimuli/Social2.png,stimuli/Nonsocial1.png,stimuli/Nonsocial2.png,cs_minus_ns,,,,,,,0,0,0,0,,,,,,,,,,,,,,,,,8,3,35,3,,,,,,,,,,,,,,,,,,,,,,,2861.7701820000075,13,0.014003700111061335,0.05599020002409816,42,A,2023-12-22_14h57.59.116,gca_avoidance_task,2022.2.4,144.0621197638811,
positions.xlsx,stimuli.xlsx,stimuli/Social1.png,stimuli/Social2.png,stimuli/Nonsocial1.png,stimuli/Nonsocial2.png,cs_minus_ns,,,,,,,0,0,0,0,,,,,,,,,,,,,,,,,9,0,36,3,,,,,,,,,,,,,,,,,,,,,,,2876.83212539996,11,0.014955300139263272,0.6458554000128061,42,A,2023-12-22_14h57.59.116,gca_avoidance_task,2022.2.4,144.0621197638811,
positions.xlsx,stimuli.xlsx,stimuli/Social1.png,stimuli/Social2.png,stimuli/Nonsocial1.png,stimuli/Nonsocial2.png,cs_plus_ns,,,,,,,0,0,0,0,,,,,,,,,,,,,,,,,9,1,37,1,,,,,,,,,,,,,,,,,,,,,,,2891.928745200159,9,0.014073700178414583,2.173737999983132,42,A,2023-12-22_14h57.59.116,gca_avoidance_task,2022.2.4,144.0621197638811,
positions.xlsx,stimuli.xlsx,stimuli/Social1.png,stimuli/Social2.png,stimuli/Nonsocial1.png,stimuli/Nonsocial2.png,cs_plus_s,,,,,,,0,0,0,0,,,,,,,,,,,,,,,,,9,2,38,0,,,,,,,,,,,,,,,,,,,,,,,2907.1712034000084,10,0.013697300106287003,1.562515800120309,42,A,2023-12-22_14h57.59.116,gca_avoidance_task,2022.2.4,144.0621197638811,
positions.xlsx,stimuli.xlsx,stimuli/Social1.png,stimuli/Social2.png,stimuli/Nonsocial1.png,stimuli/Nonsocial2.png,cs_minus_s,,,,,,,0,0,0,0,,,,,,,,,,,,,,,,,9,3,39,2,,,,,,,,,,,,,,,,,,,,,,,2922.5733894000296,6,0.013661900069564581,0.028090900043025613,42,A,2023-12-22_14h57.59.116,gca_avoidance_task,2022.2.4,144.0621197638811,
positions.xlsx,stimuli.xlsx,stimuli/Social1.png,stimuli/Social2.png,stimuli/Nonsocial1.png,stimuli/Nonsocial2.png,cs_plus_s,,,,,,,0,0,0,0,,,,,,,,,,,,,,,,,,,,,0,0,0,0,,,,,2936.933972500032,5.0,19.535461199935526,,,,,,,,,,,,,,,,42,A,2023-12-22_14h57.59.116,gca_avoidance_task,2022.2.4,144.0621197638811,
positions.xlsx,stimuli.xlsx,stimuli/Social1.png,stimuli/Social2.png,stimuli/Nonsocial1.png,stimuli/Nonsocial2.png,cs_minus_s,,,,,,,0,0,0,0,,,,,,,,,,,,,,,,,,,,,0,1,1,2,,,,,2958.176203500014,7.0,4.466663799947128,,,,,,,,,,,,,,,,42,A,2023-12-22_14h57.59.116,gca_avoidance_task,2022.2.4,144.0621197638811,
positions.xlsx,stimuli.xlsx,stimuli/Social1.png,stimuli/Social2.png,stimuli/Nonsocial1.png,stimuli/Nonsocial2.png,cs_minus_ns,,,,,,,0,0,0,0,,,,,,,,,,,,,,,,,,,,,0,2,2,3,,,,,2964.1759622001555,7.0,4.7712106998078525,,,,,,,,,,,,,,,,42,A,2023-12-22_14h57.59.116,gca_avoidance_task,2022.2.4,144.0621197638811,
positions.xlsx,stimuli.xlsx,stimuli/Social1.png,stimuli/Social2.png,stimuli/Nonsocial1.png,stimuli/Nonsocial2.png,cs_plus_ns,,,,,,,0,0,0,0,,,,,,,,,,,,,,,,,,,,,0,3,3,1,,,,,2970.2035150001757,4.0,2.76491570007056,,,,,,,,,,,,,,,,42,A,2023-12-22_14h57.59.116,gca_avoidance_task,2022.2.4,144.0621197638811,
