posFile,stimFile,cs_plus_s,cs_minus_s,cs_plus_ns,cs_minus_ns,stimtype,position,trialtype,trials_threshold.thisRepN,trials_threshold.thisTrialN,trials_threshold.thisN,trials_threshold.thisIndex,blocks.thisRepN,blocks.thisTrialN,blocks.thisN,blocks.thisIndex,ratingtrials1.thisRepN,ratingtrials1.thisTrialN,ratingtrials1.thisN,ratingtrials1.thisIndex,learning_trials.thisRepN,learning_trials.thisTrialN,learning_trials.thisN,learning_trials.thisIndex,trials.thisRepN,trials.thisTrialN,trials.thisN,trials.thisIndex,ratingtrials2.thisRepN,ratingtrials2.thisTrialN,ratingtrials2.thisN,ratingtrials2.thisIndex,testtrials.thisRepN,testtrials.thisTrialN,testtrials.thisN,testtrials.thisIndex,ratingtrials3.thisRepN,ratingtrials3.thisTrialN,ratingtrials3.thisN,ratingtrials3.thisIndex,textStart.started,sliderPainT.response,sliderPainT.rt,textStartExp.started,imageRating.started,sliderStim.response,sliderStim.rt,textStartTask.started,image.started,score,outcome,roi.numLooks,roi.timesOn,roi.timesOff,imageFeedback.started,sliderPain.response,sliderPain.rt,textTestInstr.started,imageTest.started,roiTest.numLooks,roiTest.timesOn,roiTest.timesOff,participant,group,date,expName,psychopyVersion,frameRate,
,,,,,,,,,0,0,0,0,,,,,,,,,,,,,,,,,,,,,,,,,,,,,21.93300520000048,None,None,,,,,,,,,,,,,,,,,,,,30,C,2023-12-14_16h42.54.866,gca_avoidance_task,2022.2.4,144.04116122052477,
,,,,,,,,,1,0,1,0,,,,,,,,,,,,,,,,,,,,,,,,,,,,,,1.0,2.337366099935025,,,,,,,,,,,,,,,,,,,,30,C,2023-12-14_16h42.54.866,gca_avoidance_task,2022.2.4,144.04116122052477,
,,,,,,,,,2,0,2,0,,,,,,,,,,,,,,,,,,,,,,,,,,,,,,1.0,1.0481073000701144,,,,,,,,,,,,,,,,,,,,30,C,2023-12-14_16h42.54.866,gca_avoidance_task,2022.2.4,144.04116122052477,
,,,,,,,,,3,0,3,0,,,,,,,,,,,,,,,,,,,,,,,,,,,,,,1.0,4.311861700029112,,,,,,,,,,,,,,,,,,,,30,C,2023-12-14_16h42.54.866,gca_avoidance_task,2022.2.4,144.04116122052477,
,,,,,,,,,4,0,4,0,,,,,,,,,,,,,,,,,,,,,,,,,,,,,,2.0,1.4590419000014663,,,,,,,,,,,,,,,,,,,,30,C,2023-12-14_16h42.54.866,gca_avoidance_task,2022.2.4,144.04116122052477,
,,,,,,,,,5,0,5,0,,,,,,,,,,,,,,,,,,,,,,,,,,,,,,2.0,2.398194400011562,,,,,,,,,,,,,,,,,,,,30,C,2023-12-14_16h42.54.866,gca_avoidance_task,2022.2.4,144.04116122052477,
,,,,,,,,,6,0,6,0,,,,,,,,,,,,,,,,,,,,,,,,,,,,,,2.0,13.713532699970528,,,,,,,,,,,,,,,,,,,,30,C,2023-12-14_16h42.54.866,gca_avoidance_task,2022.2.4,144.04116122052477,
,,,,,,,,,7,0,7,0,,,,,,,,,,,,,,,,,,,,,,,,,,,,,,3.0,1.2026971000013873,,,,,,,,,,,,,,,,,,,,30,C,2023-12-14_16h42.54.866,gca_avoidance_task,2022.2.4,144.04116122052477,
,,,,,,,,,8,0,8,0,,,,,,,,,,,,,,,,,,,,,,,,,,,,,,3.0,1.4781731999246404,,,,,,,,,,,,,,,,,,,,30,C,2023-12-14_16h42.54.866,gca_avoidance_task,2022.2.4,144.04116122052477,
,,,,,,,,,9,0,9,0,,,,,,,,,,,,,,,,,,,,,,,,,,,,,,3.0,3.181961299967952,,,,,,,,,,,,,,,,,,,,30,C,2023-12-14_16h42.54.866,gca_avoidance_task,2022.2.4,144.04116122052477,
,,,,,,,,,10,0,10,0,,,,,,,,,,,,,,,,,,,,,,,,,,,,,,3.0,4.278044100035913,,,,,,,,,,,,,,,,,,,,30,C,2023-12-14_16h42.54.866,gca_avoidance_task,2022.2.4,144.04116122052477,
,,,,,,,,,11,0,11,0,,,,,,,,,,,,,,,,,,,,,,,,,,,,,,4.0,3.5090716999256983,,,,,,,,,,,,,,,,,,,,30,C,2023-12-14_16h42.54.866,gca_avoidance_task,2022.2.4,144.04116122052477,
,,,,,,,,,12,0,12,0,,,,,,,,,,,,,,,,,,,,,,,,,,,,,,4.0,2.7287186000030488,,,,,,,,,,,,,,,,,,,,30,C,2023-12-14_16h42.54.866,gca_avoidance_task,2022.2.4,144.04116122052477,
,,,,,,,,,13,0,13,0,,,,,,,,,,,,,,,,,,,,,,,,,,,,,,5.0,1.0464075000490993,,,,,,,,,,,,,,,,,,,,30,C,2023-12-14_16h42.54.866,gca_avoidance_task,2022.2.4,144.04116122052477,
,,,,,,,,,14,0,14,0,,,,,,,,,,,,,,,,,,,,,,,,,,,,,,6.0,1.1712035000091419,,,,,,,,,,,,,,,,,,,,30,C,2023-12-14_16h42.54.866,gca_avoidance_task,2022.2.4,144.04116122052477,
,,,,,,,,,15,0,15,0,,,,,,,,,,,,,,,,,,,,,,,,,,,,,,7.0,4.587066899985075,,,,,,,,,,,,,,,,,,,,30,C,2023-12-14_16h42.54.866,gca_avoidance_task,2022.2.4,144.04116122052477,
,,,,,,,,,16,0,16,0,,,,,,,,,,,,,,,,,,,,,,,,,,,,,,6.0,4.843510499922559,,,,,,,,,,,,,,,,,,,,30,C,2023-12-14_16h42.54.866,gca_avoidance_task,2022.2.4,144.04116122052477,
,,,,,,,,,17,0,17,0,,,,,,,,,,,,,,,,,,,,,,,,,,,,,,6.0,3.8437367000151426,,,,,,,,,,,,,,,,,,,,30,C,2023-12-14_16h42.54.866,gca_avoidance_task,2022.2.4,144.04116122052477,
,,,,,,,,,18,0,18,0,,,,,,,,,,,,,,,,,,,,,,,,,,,,,,6.0,1.662108900025487,,,,,,,,,,,,,,,,,,,,30,C,2023-12-14_16h42.54.866,gca_avoidance_task,2022.2.4,144.04116122052477,
,,,,,,,,,19,0,19,0,,,,,,,,,,,,,,,,,,,,,,,,,,,,,,6.0,1.414880400057882,,,,,,,,,,,,,,,,,,,,30,C,2023-12-14_16h42.54.866,gca_avoidance_task,2022.2.4,144.04116122052477,
,,,,,,,,,20,0,20,0,,,,,,,,,,,,,,,,,,,,,,,,,,,,,,5.0,3.240833699936047,,,,,,,,,,,,,,,,,,,,30,C,2023-12-14_16h42.54.866,gca_avoidance_task,2022.2.4,144.04116122052477,
,,,,,,,,,21,0,21,0,,,,,,,,,,,,,,,,,,,,,,,,,,,,,,5.0,1.543621699907817,,,,,,,,,,,,,,,,,,,,30,C,2023-12-14_16h42.54.866,gca_avoidance_task,2022.2.4,144.04116122052477,
,,,,,,,,,22,0,22,0,,,,,,,,,,,,,,,,,,,,,,,,,,,,,,6.0,0.6452962000621483,,,,,,,,,,,,,,,,,,,,30,C,2023-12-14_16h42.54.866,gca_avoidance_task,2022.2.4,144.04116122052477,
,,,,,,,,,23,0,23,0,,,,,,,,,,,,,,,,,,,,,,,,,,,,,,6.0,1.0172177000204101,,,,,,,,,,,,,,,,,,,,30,C,2023-12-14_16h42.54.866,gca_avoidance_task,2022.2.4,144.04116122052477,
,,,,,,,,,24,0,24,0,,,,,,,,,,,,,,,,,,,,,,,,,,,,,,6.0,1.215906500001438,,,,,,,,,,,,,,,,,,,,30,C,2023-12-14_16h42.54.866,gca_avoidance_task,2022.2.4,144.04116122052477,
,,,,,,,,,25,0,25,0,,,,,,,,,,,,,,,,,,,,,,,,,,,,,,7.0,1.8425943000474945,,,,,,,,,,,,,,,,,,,,30,C,2023-12-14_16h42.54.866,gca_avoidance_task,2022.2.4,144.04116122052477,
,,,,,,,,,26,0,26,0,,,,,,,,,,,,,,,,,,,,,,,,,,,,,,7.0,3.5704067000187933,,,,,,,,,,,,,,,,,,,,30,C,2023-12-14_16h42.54.866,gca_avoidance_task,2022.2.4,144.04116122052477,
,,,,,,,,,27,0,27,0,,,,,,,,,,,,,,,,,,,,,,,,,,,,,,7.0,1.714438800001517,,,,,,,,,,,,,,,,,,,,30,C,2023-12-14_16h42.54.866,gca_avoidance_task,2022.2.4,144.04116122052477,
,,,,,,,,,28,0,28,0,,,,,,,,,,,,,,,,,,,,,,,,,,,,,,7.0,0.9662805000552908,,,,,,,,,,,,,,,,,,,,30,C,2023-12-14_16h42.54.866,gca_avoidance_task,2022.2.4,144.04116122052477,
,,,,,,,,,29,0,29,0,,,,,,,,,,,,,,,,,,,,,,,,,,,,,,6.0,0.9373427999671549,,,,,,,,,,,,,,,,,,,,30,C,2023-12-14_16h42.54.866,gca_avoidance_task,2022.2.4,144.04116122052477,
positions.xlsx,stimuli.xlsx,stimuli/Social1.png,stimuli/Social2.png,stimuli/Nonsocial2.png,stimuli/Nonsocial1.png,cs_plus_ns,,,,,,,0,0,0,0,0,0,0,1,,,,,,,,,,,,,,,,,,,,,,,,906.939264500048,939.2232502000406,8.0,10.917416999931447,,,,,,,,,,,,,,,,30,C,2023-12-14_16h42.54.866,gca_avoidance_task,2022.2.4,144.04116122052477,
positions.xlsx,stimuli.xlsx,stimuli/Social1.png,stimuli/Social2.png,stimuli/Nonsocial2.png,stimuli/Nonsocial1.png,cs_minus_ns,,,,,,,0,0,0,0,0,1,1,3,,,,,,,,,,,,,,,,,,,,,,,,,952.0144087000517,8.0,8.535318100010045,,,,,,,,,,,,,,,,30,C,2023-12-14_16h42.54.866,gca_avoidance_task,2022.2.4,144.04116122052477,
positions.xlsx,stimuli.xlsx,stimuli/Social1.png,stimuli/Social2.png,stimuli/Nonsocial2.png,stimuli/Nonsocial1.png,cs_minus_s,,,,,,,0,0,0,0,0,2,2,2,,,,,,,,,,,,,,,,,,,,,,,,,961.4931869000429,4.0,7.12535760004539,,,,,,,,,,,,,,,,30,C,2023-12-14_16h42.54.866,gca_avoidance_task,2022.2.4,144.04116122052477,
positions.xlsx,stimuli.xlsx,stimuli/Social1.png,stimuli/Social2.png,stimuli/Nonsocial2.png,stimuli/Nonsocial1.png,cs_plus_s,,,,,,,0,0,0,0,0,3,3,0,,,,,,,,,,,,,,,,,,,,,,,,,969.478995500016,5.0,5.987476400099695,,,,,,,,,,,,,,,,30,C,2023-12-14_16h42.54.866,gca_avoidance_task,2022.2.4,144.04116122052477,
positions.xlsx,stimuli.xlsx,stimuli/Social1.png,stimuli/Social2.png,stimuli/Nonsocial2.png,stimuli/Nonsocial1.png,,"(0.7, -0.5)",cs_minus_s,,,,,0,0,0,0,,,,,0,0,0,7,,,,,,,,,,,,,,,,,,,,,,,,976.2634359999793,1000.9638603000203,5,reward,1,0.37514640006702393,0.37515009997878224,1001.3527134000324,,,,,,,,30,C,2023-12-14_16h42.54.866,gca_avoidance_task,2022.2.4,144.04116122052477,
positions.xlsx,stimuli.xlsx,stimuli/Social1.png,stimuli/Social2.png,stimuli/Nonsocial2.png,stimuli/Nonsocial1.png,,"(-0.7, 0.5)",cs_plus_ns,,,,,0,0,0,0,,,,,0,1,1,8,,,,,,,,,,,,,,,,,,,,,,,,,1010.9634767000098,5,shock,1,0.3610942999366671,0.36109809996560216,1011.3315026999917,,,,,,,,30,C,2023-12-14_16h42.54.866,gca_avoidance_task,2022.2.4,144.04116122052477,
positions.xlsx,stimuli.xlsx,stimuli/Social1.png,stimuli/Social2.png,stimuli/Nonsocial2.png,stimuli/Nonsocial1.png,,"(-0.7, -0.5)",cs_minus_ns,,,,,0,0,0,0,,,,,0,2,2,13,,,,,,,,,,,,,,,,,,,,,,,,,1021.3936026999727,10,reward,1,0.38941070006694645,0.3894144999794662,1021.7894259999739,,,,,,,,30,C,2023-12-14_16h42.54.866,gca_avoidance_task,2022.2.4,144.04116122052477,
positions.xlsx,stimuli.xlsx,stimuli/Social1.png,stimuli/Social2.png,stimuli/Nonsocial2.png,stimuli/Nonsocial1.png,,"(-0.7, -0.5)",cs_minus_s,,,,,0,0,0,0,,,,,0,3,3,5,,,,,,,,,,,,,,,,,,,,,,,,,1031.3098762000445,15,reward,1,0.36928949994035065,0.3692933999700472,1031.684862800059,,,,,,,,30,C,2023-12-14_16h42.54.866,gca_avoidance_task,2022.2.4,144.04116122052477,
positions.xlsx,stimuli.xlsx,stimuli/Social1.png,stimuli/Social2.png,stimuli/Nonsocial2.png,stimuli/Nonsocial1.png,,"(-0.7, -0.5)",cs_plus_s,,,,,0,0,0,0,,,,,0,4,4,1,,,,,,,,,,,,,,,,,,,,,,,,,1040.7956434000516,15,shock,1,0.34760460001416504,0.34760849992744625,1041.1498128999956,,,,,,,,30,C,2023-12-14_16h42.54.866,gca_avoidance_task,2022.2.4,144.04116122052477,
positions.xlsx,stimuli.xlsx,stimuli/Social1.png,stimuli/Social2.png,stimuli/Nonsocial2.png,stimuli/Nonsocial1.png,,"(-0.7, -0.5)",cs_plus_ns,,,,,0,0,0,0,,,,,0,5,5,9,,,,,,,,,,,,,,,,,,,,,,,,,1049.823066700017,15,none,0,,,1054.8367457999848,,,,,,,,30,C,2023-12-14_16h42.54.866,gca_avoidance_task,2022.2.4,144.04116122052477,
positions.xlsx,stimuli.xlsx,stimuli/Social1.png,stimuli/Social2.png,stimuli/Nonsocial2.png,stimuli/Nonsocial1.png,,"(0.7, -0.5)",cs_plus_ns,,,,,0,0,0,0,,,,,0,6,6,11,,,,,,,,,,,,,,,,,,,,,,,,,1064.2738511000061,15,shock,1,1.6804507999913767,1.6804546000203118,1065.961297400063,,,,,,,,30,C,2023-12-14_16h42.54.866,gca_avoidance_task,2022.2.4,144.04116122052477,
positions.xlsx,stimuli.xlsx,stimuli/Social1.png,stimuli/Social2.png,stimuli/Nonsocial2.png,stimuli/Nonsocial1.png,,"(0.7, 0.5)",cs_minus_ns,,,,,0,0,0,0,,,,,0,7,7,14,,,,,,,,,,,,,,,,,,,,,,,,,1075.759568199981,20,reward,1,0.6111924999859184,0.6111963000148535,1076.3775457000593,,,,,,,,30,C,2023-12-14_16h42.54.866,gca_avoidance_task,2022.2.4,144.04116122052477,
positions.xlsx,stimuli.xlsx,stimuli/Social1.png,stimuli/Social2.png,stimuli/Nonsocial2.png,stimuli/Nonsocial1.png,,"(0.7, -0.5)",cs_plus_s,,,,,0,0,0,0,,,,,0,8,8,3,,,,,,,,,,,,,,,,,,,,,,,,,1085.939663700061,20,shock,1,1.1250268999719992,1.1250307000009343,1087.071583300014,,,,,,,,30,C,2023-12-14_16h42.54.866,gca_avoidance_task,2022.2.4,144.04116122052477,
positions.xlsx,stimuli.xlsx,stimuli/Social1.png,stimuli/Social2.png,stimuli/Nonsocial2.png,stimuli/Nonsocial1.png,,"(0.7, 0.5)",cs_plus_ns,,,,,0,0,0,0,,,,,0,9,9,10,,,,,,,,,,,,,,,,,,,,,,,,,1096.967019899981,20,none,0,,,1101.9737629999872,,,,,,,,30,C,2023-12-14_16h42.54.866,gca_avoidance_task,2022.2.4,144.04116122052477,
positions.xlsx,stimuli.xlsx,stimuli/Social1.png,stimuli/Social2.png,stimuli/Nonsocial2.png,stimuli/Nonsocial1.png,,"(-0.7, 0.5)",cs_plus_s,,,,,0,0,0,0,,,,,0,10,10,0,,,,,,,,,,,,,,,,,,,,,,,,,1112.1955811999505,20,none,0,,,1117.2023273999803,,,,,,,,30,C,2023-12-14_16h42.54.866,gca_avoidance_task,2022.2.4,144.04116122052477,
positions.xlsx,stimuli.xlsx,stimuli/Social1.png,stimuli/Social2.png,stimuli/Nonsocial2.png,stimuli/Nonsocial1.png,,"(-0.7, 0.5)",cs_minus_ns,,,,,0,0,0,0,,,,,0,11,11,12,,,,,,,,,,,,,,,,,,,,,,,,,1126.375593899982,25,reward,1,0.7294559000292793,0.729459699941799,1127.1116818999872,,,,,,,,30,C,2023-12-14_16h42.54.866,gca_avoidance_task,2022.2.4,144.04116122052477,
positions.xlsx,stimuli.xlsx,stimuli/Social1.png,stimuli/Social2.png,stimuli/Nonsocial2.png,stimuli/Nonsocial1.png,,"(0.7, 0.5)",cs_minus_s,,,,,0,0,0,0,,,,,0,12,12,6,,,,,,,,,,,,,,,,,,,,,,,,,1136.3543646000326,30,reward,1,0.6251527999993414,0.6251566000282764,1136.9862854999956,,,,,,,,30,C,2023-12-14_16h42.54.866,gca_avoidance_task,2022.2.4,144.04116122052477,
positions.xlsx,stimuli.xlsx,stimuli/Social1.png,stimuli/Social2.png,stimuli/Nonsocial2.png,stimuli/Nonsocial1.png,,"(-0.7, 0.5)",cs_minus_s,,,,,0,0,0,0,,,,,0,13,13,4,,,,,,,,,,,,,,,,,,,,,,,,,1146.7983828999568,35,reward,1,0.5556930999737233,0.5556964999996126,1147.3608987999614,,,,,,,,30,C,2023-12-14_16h42.54.866,gca_avoidance_task,2022.2.4,144.04116122052477,
positions.xlsx,stimuli.xlsx,stimuli/Social1.png,stimuli/Social2.png,stimuli/Nonsocial2.png,stimuli/Nonsocial1.png,,"(0.7, -0.5)",cs_minus_ns,,,,,0,0,0,0,,,,,0,14,14,15,,,,,,,,,,,,,,,,,,,,,,,,,1156.8396619999548,40,reward,1,0.7638852000236511,0.7638889999361709,1157.6104863999644,,,,,,,,30,C,2023-12-14_16h42.54.866,gca_avoidance_task,2022.2.4,144.04116122052477,
positions.xlsx,stimuli.xlsx,stimuli/Social1.png,stimuli/Social2.png,stimuli/Nonsocial2.png,stimuli/Nonsocial1.png,,"(0.7, 0.5)",cs_plus_s,,,,,0,0,0,0,,,,,0,15,15,2,,,,,,,,,,,,,,,,,,,,,,,,,1167.1517527999822,40,shock,1,0.6322951000183821,0.6322987999301404,1167.7906570000341,,,,,,,,30,C,2023-12-14_16h42.54.866,gca_avoidance_task,2022.2.4,144.04116122052477,
positions.xlsx,stimuli.xlsx,stimuli/Social1.png,stimuli/Social2.png,stimuli/Nonsocial2.png,stimuli/Nonsocial1.png,,"(0.7, 0.5)",cs_plus_ns,,,,,0,0,0,0,,,,,1,0,16,10,,,,,,,,,,,,,,,,,,,,,,,,,1176.9638695999747,40,none,0,,,1181.9706311000045,,,,,,,,30,C,2023-12-14_16h42.54.866,gca_avoidance_task,2022.2.4,144.04116122052477,
positions.xlsx,stimuli.xlsx,stimuli/Social1.png,stimuli/Social2.png,stimuli/Nonsocial2.png,stimuli/Nonsocial1.png,,"(-0.7, -0.5)",cs_minus_ns,,,,,0,0,0,0,,,,,1,1,17,13,,,,,,,,,,,,,,,,,,,,,,,,,1191.5813699000282,45,reward,1,0.6528121000155807,0.6528155999258161,1192.2410518999677,,,,,,,,30,C,2023-12-14_16h42.54.866,gca_avoidance_task,2022.2.4,144.04116122052477,
positions.xlsx,stimuli.xlsx,stimuli/Social1.png,stimuli/Social2.png,stimuli/Nonsocial2.png,stimuli/Nonsocial1.png,,"(0.7, 0.5)",cs_minus_s,,,,,0,0,0,0,,,,,1,2,18,6,,,,,,,,,,,,,,,,,,,,,,,,,1201.3032167999772,50,reward,1,0.6251857000170276,0.6251896000467241,1201.9351113999728,,,,,,,,30,C,2023-12-14_16h42.54.866,gca_avoidance_task,2022.2.4,144.04116122052477,
positions.xlsx,stimuli.xlsx,stimuli/Social1.png,stimuli/Social2.png,stimuli/Nonsocial2.png,stimuli/Nonsocial1.png,,"(0.7, -0.5)",cs_minus_s,,,,,0,0,0,0,,,,,1,3,19,7,,,,,,,,,,,,,,,,,,,,,,,,,1211.9347390000476,55,reward,1,0.5279006999917328,0.5279043999034911,1212.469438900007,,,,,,,,30,C,2023-12-14_16h42.54.866,gca_avoidance_task,2022.2.4,144.04116122052477,
positions.xlsx,stimuli.xlsx,stimuli/Social1.png,stimuli/Social2.png,stimuli/Nonsocial2.png,stimuli/Nonsocial1.png,,"(-0.7, 0.5)",cs_plus_ns,,,,,0,0,0,0,,,,,1,4,20,8,,,,,,,,,,,,,,,,,,,,,,,,,1222.323214599979,55,none,0,,,1227.3300146999536,,,,,,,,30,C,2023-12-14_16h42.54.866,gca_avoidance_task,2022.2.4,144.04116122052477,
positions.xlsx,stimuli.xlsx,stimuli/Social1.png,stimuli/Social2.png,stimuli/Nonsocial2.png,stimuli/Nonsocial1.png,,"(0.7, 0.5)",cs_plus_s,,,,,0,0,0,0,,,,,1,5,21,2,,,,,,,,,,,,,,,,,,,,,,,,,1236.9615655000089,55,none,0,,,1241.968311100034,,,,,,,,30,C,2023-12-14_16h42.54.866,gca_avoidance_task,2022.2.4,144.04116122052477,
positions.xlsx,stimuli.xlsx,stimuli/Social1.png,stimuli/Social2.png,stimuli/Nonsocial2.png,stimuli/Nonsocial1.png,,"(0.7, -0.5)",cs_plus_ns,,,,,0,0,0,0,,,,,1,6,22,11,,,,,,,,,,,,,,,,,,,,,,,,,1251.315140199964,55,none,0,,,1256.321870499989,,,,,,,,30,C,2023-12-14_16h42.54.866,gca_avoidance_task,2022.2.4,144.04116122052477,
positions.xlsx,stimuli.xlsx,stimuli/Social1.png,stimuli/Social2.png,stimuli/Nonsocial2.png,stimuli/Nonsocial1.png,,"(0.7, 0.5)",cs_minus_ns,,,,,0,0,0,0,,,,,1,7,23,14,,,,,,,,,,,,,,,,,,,,,,,,,1265.8353948000586,60,reward,1,0.6528232999844477,0.6528268000110984,1266.4950903999852,,,,,,,,30,C,2023-12-14_16h42.54.866,gca_avoidance_task,2022.2.4,144.04116122052477,
positions.xlsx,stimuli.xlsx,stimuli/Social1.png,stimuli/Social2.png,stimuli/Nonsocial2.png,stimuli/Nonsocial1.png,,"(-0.7, -0.5)",cs_plus_ns,,,,,0,0,0,0,,,,,1,8,24,9,,,,,,,,,,,,,,,,,,,,,,,,,1276.4322017000522,60,none,0,,,1281.4389219000004,,,,,,,,30,C,2023-12-14_16h42.54.866,gca_avoidance_task,2022.2.4,144.04116122052477,
positions.xlsx,stimuli.xlsx,stimuli/Social1.png,stimuli/Social2.png,stimuli/Nonsocial2.png,stimuli/Nonsocial1.png,,"(0.7, -0.5)",cs_minus_ns,,,,,0,0,0,0,,,,,1,9,25,15,,,,,,,,,,,,,,,,,,,,,,,,,1290.9663596999599,65,reward,1,0.4931075000204146,0.4931110000470653,1291.466379999998,,,,,,,,30,C,2023-12-14_16h42.54.866,gca_avoidance_task,2022.2.4,144.04116122052477,
positions.xlsx,stimuli.xlsx,stimuli/Social1.png,stimuli/Social2.png,stimuli/Nonsocial2.png,stimuli/Nonsocial1.png,,"(-0.7, 0.5)",cs_minus_ns,,,,,0,0,0,0,,,,,1,10,26,12,,,,,,,,,,,,,,,,,,,,,,,,,1301.0145771000534,70,reward,1,0.40286229993216693,0.4028662999626249,1301.4242947000312,,,,,,,,30,C,2023-12-14_16h42.54.866,gca_avoidance_task,2022.2.4,144.04116122052477,
positions.xlsx,stimuli.xlsx,stimuli/Social1.png,stimuli/Social2.png,stimuli/Nonsocial2.png,stimuli/Nonsocial1.png,,"(-0.7, -0.5)",cs_minus_s,,,,,0,0,0,0,,,,,1,11,27,5,,,,,,,,,,,,,,,,,,,,,,,,,1310.5489282000344,75,reward,1,0.6180867000948638,0.6180904000066221,1311.173901100061,,,,,,,,30,C,2023-12-14_16h42.54.866,gca_avoidance_task,2022.2.4,144.04116122052477,
positions.xlsx,stimuli.xlsx,stimuli/Social1.png,stimuli/Social2.png,stimuli/Nonsocial2.png,stimuli/Nonsocial1.png,,"(-0.7, -0.5)",cs_plus_s,,,,,0,0,0,0,,,,,1,12,28,1,,,,,,,,,,,,,,,,,,,,,,,,,1320.1666252999566,75,none,0,,,1325.173399399966,,,,,,,,30,C,2023-12-14_16h42.54.866,gca_avoidance_task,2022.2.4,144.04116122052477,
positions.xlsx,stimuli.xlsx,stimuli/Social1.png,stimuli/Social2.png,stimuli/Nonsocial2.png,stimuli/Nonsocial1.png,,"(-0.7, 0.5)",cs_minus_s,,,,,0,0,0,0,,,,,1,13,29,4,,,,,,,,,,,,,,,,,,,,,,,,,1334.0966494999593,80,reward,1,0.36126639996655285,0.36127019999548793,1334.4646606000606,,,,,,,,30,C,2023-12-14_16h42.54.866,gca_avoidance_task,2022.2.4,144.04116122052477,
positions.xlsx,stimuli.xlsx,stimuli/Social1.png,stimuli/Social2.png,stimuli/Nonsocial2.png,stimuli/Nonsocial1.png,,"(-0.7, 0.5)",cs_plus_s,,,,,0,0,0,0,,,,,1,14,30,0,,,,,,,,,,,,,,,,,,,,,,,,,1343.978186500026,80,none,0,,,1348.9849086999893,,,,,,,,30,C,2023-12-14_16h42.54.866,gca_avoidance_task,2022.2.4,144.04116122052477,
positions.xlsx,stimuli.xlsx,stimuli/Social1.png,stimuli/Social2.png,stimuli/Nonsocial2.png,stimuli/Nonsocial1.png,,"(0.7, -0.5)",cs_plus_s,,,,,0,0,0,0,,,,,1,15,31,3,,,,,,,,,,,,,,,,,,,,,,,,,1357.8318109000102,80,none,0,,,1362.8386127999984,,,,,,,,30,C,2023-12-14_16h42.54.866,gca_avoidance_task,2022.2.4,144.04116122052477,
positions.xlsx,stimuli.xlsx,stimuli/Social1.png,stimuli/Social2.png,stimuli/Nonsocial2.png,stimuli/Nonsocial1.png,,"(0.7, 0.5)",cs_plus_s,,,,,0,0,0,0,,,,,,,,,0,0,0,2,,,,,,,,,,,,,,,,,,,,,1395.2053543999791,80,shock,1,1.4935711999423802,1.4935750999720767,1396.7053194000619,,,,,,,,30,C,2023-12-14_16h42.54.866,gca_avoidance_task,2022.2.4,144.04116122052477,
positions.xlsx,stimuli.xlsx,stimuli/Social1.png,stimuli/Social2.png,stimuli/Nonsocial2.png,stimuli/Nonsocial1.png,,"(-0.7, 0.5)",cs_plus_ns,,,,,0,0,0,0,,,,,,,,,0,1,1,8,,,,,,,,,,,,,,,,,,,,,1406.1632689000107,80,shock,1,1.2224344999995083,1.2224383000284433,1407.3923915000632,,,,,,,,30,C,2023-12-14_16h42.54.866,gca_avoidance_task,2022.2.4,144.04116122052477,
positions.xlsx,stimuli.xlsx,stimuli/Social1.png,stimuli/Social2.png,stimuli/Nonsocial2.png,stimuli/Nonsocial1.png,,"(0.7, 0.5)",cs_minus_s,,,,,0,0,0,0,,,,,,,,,0,2,2,6,,,,,,,,,,,,,,,,,,,,,1417.1837003000546,85,reward,1,0.5281993999378756,0.5282032999675721,1417.7183965999866,,,,,,,,30,C,2023-12-14_16h42.54.866,gca_avoidance_task,2022.2.4,144.04116122052477,
positions.xlsx,stimuli.xlsx,stimuli/Social1.png,stimuli/Social2.png,stimuli/Nonsocial2.png,stimuli/Nonsocial1.png,,"(0.7, -0.5)",cs_plus_s,,,,,0,0,0,0,,,,,,,,,0,3,3,3,,,,,,,,,,,,,,,,,,,,,1426.704139700043,85,none,0,,,1431.7178486000048,,,,,,,,30,C,2023-12-14_16h42.54.866,gca_avoidance_task,2022.2.4,144.04116122052477,
positions.xlsx,stimuli.xlsx,stimuli/Social1.png,stimuli/Social2.png,stimuli/Nonsocial2.png,stimuli/Nonsocial1.png,,"(0.7, -0.5)",cs_minus_s,,,,,0,0,0,0,,,,,,,,,0,4,4,7,,,,,,,,,,,,,,,,,,,,,1440.5577382000629,90,reward,1,0.5903792000608519,0.590383000089787,1441.1549665000057,,,,,,,,30,C,2023-12-14_16h42.54.866,gca_avoidance_task,2022.2.4,144.04116122052477,
positions.xlsx,stimuli.xlsx,stimuli/Social1.png,stimuli/Social2.png,stimuli/Nonsocial2.png,stimuli/Nonsocial1.png,,"(-0.7, 0.5)",cs_minus_ns,,,,,0,0,0,0,,,,,,,,,0,5,5,12,,,,,,,,,,,,,,,,,,,,,1451.2240190999582,95,reward,1,0.45842449995689094,0.45842839998658746,1451.689274400007,,,,,,,,30,C,2023-12-14_16h42.54.866,gca_avoidance_task,2022.2.4,144.04116122052477,
positions.xlsx,stimuli.xlsx,stimuli/Social1.png,stimuli/Social2.png,stimuli/Nonsocial2.png,stimuli/Nonsocial1.png,,"(-0.7, -0.5)",cs_minus_ns,,,,,0,0,0,0,,,,,,,,,0,6,6,13,,,,,,,,,,,,,,,,,,,,,1460.4944972000085,100,reward,1,0.48612220003269613,0.48612590006086975,1460.9875702999998,,,,,,,,30,C,2023-12-14_16h42.54.866,gca_avoidance_task,2022.2.4,144.04116122052477,
positions.xlsx,stimuli.xlsx,stimuli/Social1.png,stimuli/Social2.png,stimuli/Nonsocial2.png,stimuli/Nonsocial1.png,,"(-0.7, -0.5)",cs_minus_s,,,,,0,0,0,0,,,,,,,,,0,7,7,5,,,,,,,,,,,,,,,,,,,,,1470.542727299966,105,reward,1,0.6321131000295281,0.6321169000584632,1471.1816013000207,,,,,,,,30,C,2023-12-14_16h42.54.866,gca_avoidance_task,2022.2.4,144.04116122052477,
positions.xlsx,stimuli.xlsx,stimuli/Social1.png,stimuli/Social2.png,stimuli/Nonsocial2.png,stimuli/Nonsocial1.png,,"(0.7, -0.5)",cs_minus_ns,,,,,0,0,0,0,,,,,,,,,0,8,8,15,,,,,,,,,,,,,,,,,,,,,1481.2506413999945,110,reward,1,0.4583126000361517,0.45831659995019436,1481.7158793000272,,,,,,,,30,C,2023-12-14_16h42.54.866,gca_avoidance_task,2022.2.4,144.04116122052477,
positions.xlsx,stimuli.xlsx,stimuli/Social1.png,stimuli/Social2.png,stimuli/Nonsocial2.png,stimuli/Nonsocial1.png,,"(-0.7, 0.5)",cs_plus_s,,,,,0,0,0,0,,,,,,,,,0,9,9,0,,,,,,,,,,,,,,,,,,,,,1491.382192500052,110,none,0,,,1496.3889399999753,,,,,,,,30,C,2023-12-14_16h42.54.866,gca_avoidance_task,2022.2.4,144.04116122052477,
positions.xlsx,stimuli.xlsx,stimuli/Social1.png,stimuli/Social2.png,stimuli/Nonsocial2.png,stimuli/Nonsocial1.png,,"(-0.7, 0.5)",cs_minus_s,,,,,0,0,0,0,,,,,,,,,0,10,10,4,,,,,,,,,,,,,,,,,,,,,1506.3885705999564,115,reward,1,0.6806905999546871,0.6806944999843836,1507.0760049000382,,,,,,,,30,C,2023-12-14_16h42.54.866,gca_avoidance_task,2022.2.4,144.04116122052477,
positions.xlsx,stimuli.xlsx,stimuli/Social1.png,stimuli/Social2.png,stimuli/Nonsocial2.png,stimuli/Nonsocial1.png,,"(-0.7, -0.5)",cs_plus_s,,,,,0,0,0,0,,,,,,,,,0,11,11,1,,,,,,,,,,,,,,,,,,,,,1515.7701052000048,115,none,0,,,1520.776876399992,,,,,,,,30,C,2023-12-14_16h42.54.866,gca_avoidance_task,2022.2.4,144.04116122052477,
positions.xlsx,stimuli.xlsx,stimuli/Social1.png,stimuli/Social2.png,stimuli/Nonsocial2.png,stimuli/Nonsocial1.png,,"(-0.7, -0.5)",cs_plus_ns,,,,,0,0,0,0,,,,,,,,,0,12,12,9,,,,,,,,,,,,,,,,,,,,,1530.3389987000264,115,none,0,,,1535.345725400024,,,,,,,,30,C,2023-12-14_16h42.54.866,gca_avoidance_task,2022.2.4,144.04116122052477,
positions.xlsx,stimuli.xlsx,stimuli/Social1.png,stimuli/Social2.png,stimuli/Nonsocial2.png,stimuli/Nonsocial1.png,,"(0.7, 0.5)",cs_minus_ns,,,,,0,0,0,0,,,,,,,,,0,13,13,14,,,,,,,,,,,,,,,,,,,,,1545.3522951999912,120,reward,1,0.39597650000359863,0.39597999991383404,1545.7550711999647,,,,,,,,30,C,2023-12-14_16h42.54.866,gca_avoidance_task,2022.2.4,144.04116122052477,
positions.xlsx,stimuli.xlsx,stimuli/Social1.png,stimuli/Social2.png,stimuli/Nonsocial2.png,stimuli/Nonsocial1.png,,"(0.7, -0.5)",cs_plus_ns,,,,,0,0,0,0,,,,,,,,,0,14,14,11,,,,,,,,,,,,,,,,,,,,,1554.4769175000256,120,none,0,,,1559.4837187000085,,,,,,,,30,C,2023-12-14_16h42.54.866,gca_avoidance_task,2022.2.4,144.04116122052477,
positions.xlsx,stimuli.xlsx,stimuli/Social1.png,stimuli/Social2.png,stimuli/Nonsocial2.png,stimuli/Nonsocial1.png,,"(0.7, 0.5)",cs_plus_ns,,,,,0,0,0,0,,,,,,,,,0,15,15,10,,,,,,,,,,,,,,,,,,,,,1568.5944459000602,120,none,0,,,1573.6011745999567,,,,,,,,30,C,2023-12-14_16h42.54.866,gca_avoidance_task,2022.2.4,144.04116122052477,
positions.xlsx,stimuli.xlsx,stimuli/Social1.png,stimuli/Social2.png,stimuli/Nonsocial2.png,stimuli/Nonsocial1.png,,"(0.7, -0.5)",cs_plus_ns,,,,,0,0,0,0,,,,,,,,,1,0,16,11,,,,,,,,,,,,,,,,,,,,,1582.5175434000557,120,none,0,,,1587.5242506000213,,,,,,,,30,C,2023-12-14_16h42.54.866,gca_avoidance_task,2022.2.4,144.04116122052477,
positions.xlsx,stimuli.xlsx,stimuli/Social1.png,stimuli/Social2.png,stimuli/Nonsocial2.png,stimuli/Nonsocial1.png,,"(0.7, -0.5)",cs_plus_s,,,,,0,0,0,0,,,,,,,,,1,1,17,3,,,,,,,,,,,,,,,,,,,,,1597.5863934999797,120,none,0,,,1602.5931308000581,,,,,,,,30,C,2023-12-14_16h42.54.866,gca_avoidance_task,2022.2.4,144.04116122052477,
positions.xlsx,stimuli.xlsx,stimuli/Social1.png,stimuli/Social2.png,stimuli/Nonsocial2.png,stimuli/Nonsocial1.png,,"(-0.7, -0.5)",cs_minus_s,,,,,0,0,0,0,,,,,,,,,1,2,18,5,,,,,,,,,,,,,,,,,,,,,1612.5232800999656,125,reward,1,0.6249940000707284,0.6249980001011863,1613.1551806000061,,,,,,,,30,C,2023-12-14_16h42.54.866,gca_avoidance_task,2022.2.4,144.04116122052477,
positions.xlsx,stimuli.xlsx,stimuli/Social1.png,stimuli/Social2.png,stimuli/Nonsocial2.png,stimuli/Nonsocial1.png,,"(-0.7, -0.5)",cs_minus_ns,,,,,0,0,0,0,,,,,,,,,1,3,19,13,,,,,,,,,,,,,,,,,,,,,1623.1895451999735,130,reward,1,0.4372778000542894,0.4372813000809401,1623.6339827999473,,,,,,,,30,C,2023-12-14_16h42.54.866,gca_avoidance_task,2022.2.4,144.04116122052477,
positions.xlsx,stimuli.xlsx,stimuli/Social1.png,stimuli/Social2.png,stimuli/Nonsocial2.png,stimuli/Nonsocial1.png,,"(-0.7, -0.5)",cs_plus_ns,,,,,0,0,0,0,,,,,,,,,1,4,20,9,,,,,,,,,,,,,,,,,,,,,1633.1197249999968,130,none,0,,,1638.1264900000533,,,,,,,,30,C,2023-12-14_16h42.54.866,gca_avoidance_task,2022.2.4,144.04116122052477,
positions.xlsx,stimuli.xlsx,stimuli/Social1.png,stimuli/Social2.png,stimuli/Nonsocial2.png,stimuli/Nonsocial1.png,,"(-0.7, 0.5)",cs_minus_s,,,,,0,0,0,0,,,,,,,,,1,5,21,4,,,,,,,,,,,,,,,,,,,,,1647.2788702000398,135,reward,1,0.5695521000307053,0.5695556000573561,1647.8552749999799,,,,,,,,30,C,2023-12-14_16h42.54.866,gca_avoidance_task,2022.2.4,144.04116122052477,
positions.xlsx,stimuli.xlsx,stimuli/Social1.png,stimuli/Social2.png,stimuli/Nonsocial2.png,stimuli/Nonsocial1.png,,"(-0.7, 0.5)",cs_minus_ns,,,,,0,0,0,0,,,,,,,,,1,6,22,12,,,,,,,,,,,,,,,,,,,,,1657.7159131000517,140,reward,1,0.5416367999278009,0.5416404999559745,1658.2645847999956,,,,,,,,30,C,2023-12-14_16h42.54.866,gca_avoidance_task,2022.2.4,144.04116122052477,
positions.xlsx,stimuli.xlsx,stimuli/Social1.png,stimuli/Social2.png,stimuli/Nonsocial2.png,stimuli/Nonsocial1.png,,"(0.7, 0.5)",cs_minus_ns,,,,,0,0,0,0,,,,,,,,,1,7,23,14,,,,,,,,,,,,,,,,,,,,,1667.6253129000543,145,reward,1,0.4375589999835938,0.4375625998945907,1668.069748800015,,,,,,,,30,C,2023-12-14_16h42.54.866,gca_avoidance_task,2022.2.4,144.04116122052477,
positions.xlsx,stimuli.xlsx,stimuli/Social1.png,stimuli/Social2.png,stimuli/Nonsocial2.png,stimuli/Nonsocial1.png,,"(-0.7, 0.5)",cs_plus_s,,,,,0,0,0,0,,,,,,,,,1,8,24,0,,,,,,,,,,,,,,,,,,,,,1678.1179472999647,145,none,0,,,1683.1316635999829,,,,,,,,30,C,2023-12-14_16h42.54.866,gca_avoidance_task,2022.2.4,144.04116122052477,
positions.xlsx,stimuli.xlsx,stimuli/Social1.png,stimuli/Social2.png,stimuli/Nonsocial2.png,stimuli/Nonsocial1.png,,"(0.7, 0.5)",cs_minus_s,,,,,0,0,0,0,,,,,,,,,1,9,25,6,,,,,,,,,,,,,,,,,,,,,1692.166028699954,150,reward,1,0.5627264999784529,0.5627299000043422,1692.735469599953,,,,,,,,30,C,2023-12-14_16h42.54.866,gca_avoidance_task,2022.2.4,144.04116122052477,
positions.xlsx,stimuli.xlsx,stimuli/Social1.png,stimuli/Social2.png,stimuli/Nonsocial2.png,stimuli/Nonsocial1.png,,"(0.7, 0.5)",cs_plus_s,,,,,0,0,0,0,,,,,,,,,1,10,26,2,,,,,,,,,,,,,,,,,,,,,1701.742013799958,150,none,0,,,1706.7487350000301,,,,,,,,30,C,2023-12-14_16h42.54.866,gca_avoidance_task,2022.2.4,144.04116122052477,
positions.xlsx,stimuli.xlsx,stimuli/Social1.png,stimuli/Social2.png,stimuli/Nonsocial2.png,stimuli/Nonsocial1.png,,"(0.7, -0.5)",cs_minus_ns,,,,,0,0,0,0,,,,,,,,,1,11,27,15,,,,,,,,,,,,,,,,,,,,,1716.2761637000367,155,reward,1,0.4723056999500841,0.47230949997901917,1716.755335199996,,,,,,,,30,C,2023-12-14_16h42.54.866,gca_avoidance_task,2022.2.4,144.04116122052477,
positions.xlsx,stimuli.xlsx,stimuli/Social1.png,stimuli/Social2.png,stimuli/Nonsocial2.png,stimuli/Nonsocial1.png,,"(0.7, 0.5)",cs_plus_ns,,,,,0,0,0,0,,,,,,,,,1,12,28,10,,,,,,,,,,,,,,,,,,,,,1725.6230528999586,155,none,0,,,1730.6298263999633,,,,,,,,30,C,2023-12-14_16h42.54.866,gca_avoidance_task,2022.2.4,144.04116122052477,
positions.xlsx,stimuli.xlsx,stimuli/Social1.png,stimuli/Social2.png,stimuli/Nonsocial2.png,stimuli/Nonsocial1.png,,"(-0.7, 0.5)",cs_plus_ns,,,,,0,0,0,0,,,,,,,,,1,13,29,8,,,,,,,,,,,,,,,,,,,,,1740.3655996000161,155,none,0,,,1745.3723131000297,,,,,,,,30,C,2023-12-14_16h42.54.866,gca_avoidance_task,2022.2.4,144.04116122052477,
positions.xlsx,stimuli.xlsx,stimuli/Social1.png,stimuli/Social2.png,stimuli/Nonsocial2.png,stimuli/Nonsocial1.png,,"(0.7, -0.5)",cs_minus_s,,,,,0,0,0,0,,,,,,,,,1,14,30,7,,,,,,,,,,,,,,,,,,,,,1755.448264400009,160,reward,1,0.5766818000702187,0.5766854000976309,1756.031586099998,,,,,,,,30,C,2023-12-14_16h42.54.866,gca_avoidance_task,2022.2.4,144.04116122052477,
positions.xlsx,stimuli.xlsx,stimuli/Social1.png,stimuli/Social2.png,stimuli/Nonsocial2.png,stimuli/Nonsocial1.png,,"(-0.7, -0.5)",cs_plus_s,,,,,0,0,0,0,,,,,,,,,1,15,31,1,,,,,,,,,,,,,,,,,,,,,1765.3645574999973,160,none,0,,,1770.371366300038,,,,,,,,30,C,2023-12-14_16h42.54.866,gca_avoidance_task,2022.2.4,144.04116122052477,
positions.xlsx,stimuli.xlsx,stimuli/Social1.png,stimuli/Social2.png,stimuli/Nonsocial2.png,stimuli/Nonsocial1.png,,"(0.7, -0.5)",cs_plus_s,,,,,0,0,0,0,,,,,,,,,2,0,32,3,,,,,,,,,,,,,,,,,,,,,1780.0098183000227,160,none,0,,,1785.0165679999627,,,,,,,,30,C,2023-12-14_16h42.54.866,gca_avoidance_task,2022.2.4,144.04116122052477,
positions.xlsx,stimuli.xlsx,stimuli/Social1.png,stimuli/Social2.png,stimuli/Nonsocial2.png,stimuli/Nonsocial1.png,,"(-0.7, -0.5)",cs_minus_ns,,,,,0,0,0,0,,,,,,,,,2,1,33,13,,,,,,,,,,,,,,,,,,,,,1794.7662408000324,165,reward,1,0.5212667000014335,0.5212704000296071,1795.293936299975,,,,,,,,30,C,2023-12-14_16h42.54.866,gca_avoidance_task,2022.2.4,144.04116122052477,
positions.xlsx,stimuli.xlsx,stimuli/Social1.png,stimuli/Social2.png,stimuli/Nonsocial2.png,stimuli/Nonsocial1.png,,"(-0.7, 0.5)",cs_plus_ns,,,,,0,0,0,0,,,,,,,,,2,2,34,8,,,,,,,,,,,,,,,,,,,,,1805.293561700033,165,shock,1,2.8887149000074714,2.888718600035645,1808.189345599967,,,,,,,,30,C,2023-12-14_16h42.54.866,gca_avoidance_task,2022.2.4,144.04116122052477,
positions.xlsx,stimuli.xlsx,stimuli/Social1.png,stimuli/Social2.png,stimuli/Nonsocial2.png,stimuli/Nonsocial1.png,,"(-0.7, -0.5)",cs_plus_s,,,,,0,0,0,0,,,,,,,,,2,3,35,1,,,,,,,,,,,,,,,,,,,,,1818.077773099998,165,none,0,,,1823.0845682000509,,,,,,,,30,C,2023-12-14_16h42.54.866,gca_avoidance_task,2022.2.4,144.04116122052477,
positions.xlsx,stimuli.xlsx,stimuli/Social1.png,stimuli/Social2.png,stimuli/Nonsocial2.png,stimuli/Nonsocial1.png,,"(0.7, 0.5)",cs_plus_ns,,,,,0,0,0,0,,,,,,,,,2,4,36,10,,,,,,,,,,,,,,,,,,,,,1832.6119555999758,165,none,0,,,1837.618672600016,,,,,,,,30,C,2023-12-14_16h42.54.866,gca_avoidance_task,2022.2.4,144.04116122052477,
positions.xlsx,stimuli.xlsx,stimuli/Social1.png,stimuli/Social2.png,stimuli/Nonsocial2.png,stimuli/Nonsocial1.png,,"(0.7, -0.5)",cs_minus_ns,,,,,0,0,0,0,,,,,,,,,2,5,37,15,,,,,,,,,,,,,,,,,,,,,1846.7363907999825,170,reward,1,0.5556256999261677,0.5626669999910519,1847.3058036000002,,,,,,,,30,C,2023-12-14_16h42.54.866,gca_avoidance_task,2022.2.4,144.04116122052477,
positions.xlsx,stimuli.xlsx,stimuli/Social1.png,stimuli/Social2.png,stimuli/Nonsocial2.png,stimuli/Nonsocial1.png,,"(-0.7, 0.5)",cs_minus_s,,,,,0,0,0,0,,,,,,,,,2,6,38,4,,,,,,,,,,,,,,,,,,,,,1857.1318149999715,175,reward,1,0.5626133000478148,0.5626172000775114,1857.7012241999619,,,,,,,,30,C,2023-12-14_16h42.54.866,gca_avoidance_task,2022.2.4,144.04116122052477,
positions.xlsx,stimuli.xlsx,stimuli/Social1.png,stimuli/Social2.png,stimuli/Nonsocial2.png,stimuli/Nonsocial1.png,,"(-0.7, 0.5)",cs_plus_s,,,,,0,0,0,0,,,,,,,,,2,7,39,0,,,,,,,,,,,,,,,,,,,,,1866.9022771000164,175,none,0,,,1871.908991800039,,,,,,,,30,C,2023-12-14_16h42.54.866,gca_avoidance_task,2022.2.4,144.04116122052477,
positions.xlsx,stimuli.xlsx,stimuli/Social1.png,stimuli/Social2.png,stimuli/Nonsocial2.png,stimuli/Nonsocial1.png,,"(0.7, -0.5)",cs_minus_s,,,,,0,0,0,0,,,,,,,,,2,8,40,7,,,,,,,,,,,,,,,,,,,,,1880.8531258000294,180,reward,1,0.583199099986814,0.5832030000165105,1881.4434118999634,,,,,,,,30,C,2023-12-14_16h42.54.866,gca_avoidance_task,2022.2.4,144.04116122052477,
positions.xlsx,stimuli.xlsx,stimuli/Social1.png,stimuli/Social2.png,stimuli/Nonsocial2.png,stimuli/Nonsocial1.png,,"(0.7, 0.5)",cs_minus_ns,,,,,0,0,0,0,,,,,,,,,2,9,41,14,,,,,,,,,,,,,,,,,,,,,1891.4290850999532,185,reward,1,0.5072275999700651,0.5072312999982387,1891.942981799948,,,,,,,,30,C,2023-12-14_16h42.54.866,gca_avoidance_task,2022.2.4,144.04116122052477,
positions.xlsx,stimuli.xlsx,stimuli/Social1.png,stimuli/Social2.png,stimuli/Nonsocial2.png,stimuli/Nonsocial1.png,,"(-0.7, -0.5)",cs_plus_ns,,,,,0,0,0,0,,,,,,,,,2,10,42,9,,,,,,,,,,,,,,,,,,,,,1901.7550721999723,185,none,0,,,1906.7618464999832,,,,,,,,30,C,2023-12-14_16h42.54.866,gca_avoidance_task,2022.2.4,144.04116122052477,
positions.xlsx,stimuli.xlsx,stimuli/Social1.png,stimuli/Social2.png,stimuli/Nonsocial2.png,stimuli/Nonsocial1.png,,"(0.7, 0.5)",cs_minus_s,,,,,0,0,0,0,,,,,,,,,2,11,43,6,,,,,,,,,,,,,,,,,,,,,1915.817023999989,190,reward,1,0.6461785000283271,0.6461821999400854,1916.4697860999731,,,,,,,,30,C,2023-12-14_16h42.54.866,gca_avoidance_task,2022.2.4,144.04116122052477,
positions.xlsx,stimuli.xlsx,stimuli/Social1.png,stimuli/Social2.png,stimuli/Nonsocial2.png,stimuli/Nonsocial1.png,,"(-0.7, 0.5)",cs_minus_ns,,,,,0,0,0,0,,,,,,,,,2,12,44,12,,,,,,,,,,,,,,,,,,,,,1925.7124688000185,195,reward,1,0.5908089999575168,0.590812599984929,1926.3096910000313,,,,,,,,30,C,2023-12-14_16h42.54.866,gca_avoidance_task,2022.2.4,144.04116122052477,
positions.xlsx,stimuli.xlsx,stimuli/Social1.png,stimuli/Social2.png,stimuli/Nonsocial2.png,stimuli/Nonsocial1.png,,"(-0.7, -0.5)",cs_minus_s,,,,,0,0,0,0,,,,,,,,,2,13,45,5,,,,,,,,,,,,,,,,,,,,,1935.7954154000618,200,reward,1,0.48649889999069273,0.48650280002038926,1936.2884664000012,,,,,,,,30,C,2023-12-14_16h42.54.866,gca_avoidance_task,2022.2.4,144.04116122052477,
positions.xlsx,stimuli.xlsx,stimuli/Social1.png,stimuli/Social2.png,stimuli/Nonsocial2.png,stimuli/Nonsocial1.png,,"(0.7, -0.5)",cs_plus_ns,,,,,0,0,0,0,,,,,,,,,2,14,46,11,,,,,,,,,,,,,,,,,,,,,1945.135336300009,200,none,0,,,1950.142125400016,,,,,,,,30,C,2023-12-14_16h42.54.866,gca_avoidance_task,2022.2.4,144.04116122052477,
positions.xlsx,stimuli.xlsx,stimuli/Social1.png,stimuli/Social2.png,stimuli/Nonsocial2.png,stimuli/Nonsocial1.png,,"(0.7, 0.5)",cs_plus_s,,,,,0,0,0,0,,,,,,,,,2,15,47,2,,,,,,,,,,,,,,,,,,,,,1959.2389709999552,200,none,0,,,1964.2456986999605,,,,,,,,30,C,2023-12-14_16h42.54.866,gca_avoidance_task,2022.2.4,144.04116122052477,
positions.xlsx,stimuli.xlsx,stimuli/Social1.png,stimuli/Social2.png,stimuli/Nonsocial2.png,stimuli/Nonsocial1.png,,"(-0.7, 0.5)",cs_plus_ns,,,,,0,0,0,0,,,,,,,,,3,0,48,8,,,,,,,,,,,,,,,,,,,,,1973.780062200036,200,none,0,,,1978.7868022000184,,,,,,,,30,C,2023-12-14_16h42.54.866,gca_avoidance_task,2022.2.4,144.04116122052477,
positions.xlsx,stimuli.xlsx,stimuli/Social1.png,stimuli/Social2.png,stimuli/Nonsocial2.png,stimuli/Nonsocial1.png,,"(-0.7, -0.5)",cs_plus_s,,,,,0,0,0,0,,,,,,,,,3,1,49,1,,,,,,,,,,,,,,,,,,,,,1988.6614475999959,200,none,0,,,1993.668170799967,,,,,,,,30,C,2023-12-14_16h42.54.866,gca_avoidance_task,2022.2.4,144.04116122052477,
positions.xlsx,stimuli.xlsx,stimuli/Social1.png,stimuli/Social2.png,stimuli/Nonsocial2.png,stimuli/Nonsocial1.png,,"(0.7, -0.5)",cs_minus_ns,,,,,0,0,0,0,,,,,,,,,3,2,50,15,,,,,,,,,,,,,,,,,,,,,2003.7580849999795,205,reward,1,0.4236671000253409,0.4236709999386221,2004.188630699995,,,,,,,,30,C,2023-12-14_16h42.54.866,gca_avoidance_task,2022.2.4,144.04116122052477,
positions.xlsx,stimuli.xlsx,stimuli/Social1.png,stimuli/Social2.png,stimuli/Nonsocial2.png,stimuli/Nonsocial1.png,,"(0.7, -0.5)",cs_plus_ns,,,,,0,0,0,0,,,,,,,,,3,3,51,11,,,,,,,,,,,,,,,,,,,,,2013.8827030999819,205,none,0,,,2018.896409100038,,,,,,,,30,C,2023-12-14_16h42.54.866,gca_avoidance_task,2022.2.4,144.04116122052477,
positions.xlsx,stimuli.xlsx,stimuli/Social1.png,stimuli/Social2.png,stimuli/Nonsocial2.png,stimuli/Nonsocial1.png,,"(-0.7, 0.5)",cs_minus_ns,,,,,0,0,0,0,,,,,,,,,3,4,52,12,,,,,,,,,,,,,,,,,,,,,2028.6807229999686,210,reward,1,0.5418143999995664,0.5418183000292629,2029.2293347000377,,,,,,,,30,C,2023-12-14_16h42.54.866,gca_avoidance_task,2022.2.4,144.04116122052477,
positions.xlsx,stimuli.xlsx,stimuli/Social1.png,stimuli/Social2.png,stimuli/Nonsocial2.png,stimuli/Nonsocial1.png,,"(-0.7, -0.5)",cs_minus_s,,,,,0,0,0,0,,,,,,,,,3,5,53,5,,,,,,,,,,,,,,,,,,,,,2038.5900456999661,215,reward,1,0.6391155999153852,0.639119099942036,2039.2358974999515,,,,,,,,30,C,2023-12-14_16h42.54.866,gca_avoidance_task,2022.2.4,144.04116122052477,
positions.xlsx,stimuli.xlsx,stimuli/Social1.png,stimuli/Social2.png,stimuli/Nonsocial2.png,stimuli/Nonsocial1.png,,"(0.7, 0.5)",cs_minus_s,,,,,0,0,0,0,,,,,,,,,3,6,54,6,,,,,,,,,,,,,,,,,,,,,2048.8535535000265,220,reward,1,0.4656512000365183,0.46565520006697625,2049.325766199967,,,,,,,,30,C,2023-12-14_16h42.54.866,gca_avoidance_task,2022.2.4,144.04116122052477,
positions.xlsx,stimuli.xlsx,stimuli/Social1.png,stimuli/Social2.png,stimuli/Nonsocial2.png,stimuli/Nonsocial1.png,,"(-0.7, 0.5)",cs_minus_s,,,,,0,0,0,0,,,,,,,,,3,7,55,4,,,,,,,,,,,,,,,,,,,,,2059.033702500048,225,reward,1,0.4375877999700606,0.4375914999982342,2059.4781479999656,,,,,,,,30,C,2023-12-14_16h42.54.866,gca_avoidance_task,2022.2.4,144.04116122052477,
positions.xlsx,stimuli.xlsx,stimuli/Social1.png,stimuli/Social2.png,stimuli/Nonsocial2.png,stimuli/Nonsocial1.png,,"(-0.7, 0.5)",cs_plus_s,,,,,0,0,0,0,,,,,,,,,3,8,56,0,,,,,,,,,,,,,,,,,,,,,2069.2555135999573,225,none,0,,,2074.262310100021,,,,,,,,30,C,2023-12-14_16h42.54.866,gca_avoidance_task,2022.2.4,144.04116122052477,
positions.xlsx,stimuli.xlsx,stimuli/Social1.png,stimuli/Social2.png,stimuli/Nonsocial2.png,stimuli/Nonsocial1.png,,"(-0.7, -0.5)",cs_minus_ns,,,,,0,0,0,0,,,,,,,,,3,9,57,13,,,,,,,,,,,,,,,,,,,,,2083.6369106000056,230,reward,1,0.5070675999158993,0.5070711999433115,2084.1507907999912,,,,,,,,30,C,2023-12-14_16h42.54.866,gca_avoidance_task,2022.2.4,144.04116122052477,
positions.xlsx,stimuli.xlsx,stimuli/Social1.png,stimuli/Social2.png,stimuli/Nonsocial2.png,stimuli/Nonsocial1.png,,"(0.7, 0.5)",cs_plus_ns,,,,,0,0,0,0,,,,,,,,,3,10,58,10,,,,,,,,,,,,,,,,,,,,,2093.817088700016,230,none,0,,,2098.8238786000293,,,,,,,,30,C,2023-12-14_16h42.54.866,gca_avoidance_task,2022.2.4,144.04116122052477,
positions.xlsx,stimuli.xlsx,stimuli/Social1.png,stimuli/Social2.png,stimuli/Nonsocial2.png,stimuli/Nonsocial1.png,,"(0.7, -0.5)",cs_plus_s,,,,,0,0,0,0,,,,,,,,,3,11,59,3,,,,,,,,,,,,,,,,,,,,,2108.7956939999713,230,none,0,,,2113.8024152000435,,,,,,,,30,C,2023-12-14_16h42.54.866,gca_avoidance_task,2022.2.4,144.04116122052477,
positions.xlsx,stimuli.xlsx,stimuli/Social1.png,stimuli/Social2.png,stimuli/Nonsocial2.png,stimuli/Nonsocial1.png,,"(0.7, -0.5)",cs_minus_s,,,,,0,0,0,0,,,,,,,,,3,12,60,7,,,,,,,,,,,,,,,,,,,,,2123.2395709999837,235,reward,1,0.60430600005202,0.6043096999637783,2123.8506697999546,,,,,,,,30,C,2023-12-14_16h42.54.866,gca_avoidance_task,2022.2.4,144.04116122052477,
positions.xlsx,stimuli.xlsx,stimuli/Social1.png,stimuli/Social2.png,stimuli/Nonsocial2.png,stimuli/Nonsocial1.png,,"(0.7, 0.5)",cs_plus_s,,,,,0,0,0,0,,,,,,,,,3,13,61,2,,,,,,,,,,,,,,,,,,,,,2133.85025769996,235,none,0,,,2138.8569886999903,,,,,,,,30,C,2023-12-14_16h42.54.866,gca_avoidance_task,2022.2.4,144.04116122052477,
positions.xlsx,stimuli.xlsx,stimuli/Social1.png,stimuli/Social2.png,stimuli/Nonsocial2.png,stimuli/Nonsocial1.png,,"(0.7, 0.5)",cs_minus_ns,,,,,0,0,0,0,,,,,,,,,3,14,62,14,,,,,,,,,,,,,,,,,,,,,2148.676061199978,240,reward,1,0.5555798000423238,0.5555834999540821,2149.2385860000504,,,,,,,,30,C,2023-12-14_16h42.54.866,gca_avoidance_task,2022.2.4,144.04116122052477,
positions.xlsx,stimuli.xlsx,stimuli/Social1.png,stimuli/Social2.png,stimuli/Nonsocial2.png,stimuli/Nonsocial1.png,,"(-0.7, -0.5)",cs_plus_ns,,,,,0,0,0,0,,,,,,,,,3,15,63,9,,,,,,,,,,,,,,,,,,,,,2158.897901599994,240,none,0,,,2163.9046419999795,,,,,,,,30,C,2023-12-14_16h42.54.866,gca_avoidance_task,2022.2.4,144.04116122052477,
positions.xlsx,stimuli.xlsx,stimuli/Social1.png,stimuli/Social2.png,stimuli/Nonsocial2.png,stimuli/Nonsocial1.png,,"(-0.7, -0.5)",cs_minus_s,,,,,0,0,0,0,,,,,,,,,4,0,64,5,,,,,,,,,,,,,,,,,,,,,2173.4528998000314,245,reward,1,0.5489008000586182,0.5489045999711379,2174.0084061999805,,,,,,,,30,C,2023-12-14_16h42.54.866,gca_avoidance_task,2022.2.4,144.04116122052477,
positions.xlsx,stimuli.xlsx,stimuli/Social1.png,stimuli/Social2.png,stimuli/Nonsocial2.png,stimuli/Nonsocial1.png,,"(0.7, 0.5)",cs_minus_s,,,,,0,0,0,0,,,,,,,,,4,1,65,6,,,,,,,,,,,,,,,,,,,,,2184.021922199987,250,reward,1,0.47241819999180734,0.47242210002150387,2184.5010847999947,,,,,,,,30,C,2023-12-14_16h42.54.866,gca_avoidance_task,2022.2.4,144.04116122052477,
positions.xlsx,stimuli.xlsx,stimuli/Social1.png,stimuli/Social2.png,stimuli/Nonsocial2.png,stimuli/Nonsocial1.png,,"(-0.7, 0.5)",cs_minus_s,,,,,0,0,0,0,,,,,,,,,4,2,66,4,,,,,,,,,,,,,,,,,,,,,2194.0771269999677,255,reward,1,0.424160800059326,0.4241647000890225,2194.507601600024,,,,,,,,30,C,2023-12-14_16h42.54.866,gca_avoidance_task,2022.2.4,144.04116122052477,
positions.xlsx,stimuli.xlsx,stimuli/Social1.png,stimuli/Social2.png,stimuli/Nonsocial2.png,stimuli/Nonsocial1.png,,"(0.7, -0.5)",cs_plus_s,,,,,0,0,0,0,,,,,,,,,4,3,67,3,,,,,,,,,,,,,,,,,,,,,2203.9725344000617,255,none,0,,,2208.9792981999926,,,,,,,,30,C,2023-12-14_16h42.54.866,gca_avoidance_task,2022.2.4,144.04116122052477,
positions.xlsx,stimuli.xlsx,stimuli/Social1.png,stimuli/Social2.png,stimuli/Nonsocial2.png,stimuli/Nonsocial1.png,,"(-0.7, -0.5)",cs_plus_s,,,,,0,0,0,0,,,,,,,,,4,4,68,1,,,,,,,,,,,,,,,,,,,,,2217.659512900049,255,none,0,,,2222.6662566000596,,,,,,,,30,C,2023-12-14_16h42.54.866,gca_avoidance_task,2022.2.4,144.04116122052477,
positions.xlsx,stimuli.xlsx,stimuli/Social1.png,stimuli/Social2.png,stimuli/Nonsocial2.png,stimuli/Nonsocial1.png,,"(0.7, 0.5)",cs_minus_ns,,,,,0,0,0,0,,,,,,,,,4,5,69,14,,,,,,,,,,,,,,,,,,,,,2231.5201027999865,260,reward,1,0.4863945000106469,0.4863984000403434,2232.013114099973,,,,,,,,30,C,2023-12-14_16h42.54.866,gca_avoidance_task,2022.2.4,144.04116122052477,
positions.xlsx,stimuli.xlsx,stimuli/Social1.png,stimuli/Social2.png,stimuli/Nonsocial2.png,stimuli/Nonsocial1.png,,"(-0.7, 0.5)",cs_plus_ns,,,,,0,0,0,0,,,,,,,,,4,6,70,8,,,,,,,,,,,,,,,,,,,,,2241.7697121000383,260,none,0,,,2246.7764302999713,,,,,,,,30,C,2023-12-14_16h42.54.866,gca_avoidance_task,2022.2.4,144.04116122052477,
positions.xlsx,stimuli.xlsx,stimuli/Social1.png,stimuli/Social2.png,stimuli/Nonsocial2.png,stimuli/Nonsocial1.png,,"(-0.7, -0.5)",cs_plus_ns,,,,,0,0,0,0,,,,,,,,,4,7,71,9,,,,,,,,,,,,,,,,,,,,,2256.421900699963,260,none,0,,,2261.4286525000352,,,,,,,,30,C,2023-12-14_16h42.54.866,gca_avoidance_task,2022.2.4,144.04116122052477,
positions.xlsx,stimuli.xlsx,stimuli/Social1.png,stimuli/Social2.png,stimuli/Nonsocial2.png,stimuli/Nonsocial1.png,,"(-0.7, 0.5)",cs_plus_s,,,,,0,0,0,0,,,,,,,,,4,8,72,0,,,,,,,,,,,,,,,,,,,,,2271.1018911000574,260,none,0,,,2276.108672500006,,,,,,,,30,C,2023-12-14_16h42.54.866,gca_avoidance_task,2022.2.4,144.04116122052477,
positions.xlsx,stimuli.xlsx,stimuli/Social1.png,stimuli/Social2.png,stimuli/Nonsocial2.png,stimuli/Nonsocial1.png,,"(0.7, 0.5)",cs_plus_ns,,,,,0,0,0,0,,,,,,,,,4,9,73,10,,,,,,,,,,,,,,,,,,,,,2285.670778400032,260,none,0,,,2290.677503200015,,,,,,,,30,C,2023-12-14_16h42.54.866,gca_avoidance_task,2022.2.4,144.04116122052477,
positions.xlsx,stimuli.xlsx,stimuli/Social1.png,stimuli/Social2.png,stimuli/Nonsocial2.png,stimuli/Nonsocial1.png,,"(-0.7, -0.5)",cs_minus_ns,,,,,0,0,0,0,,,,,,,,,4,10,74,13,,,,,,,,,,,,,,,,,,,,,2300.941019800026,265,reward,1,0.451422999962233,0.451426999992691,2301.3993178999517,,,,,,,,30,C,2023-12-14_16h42.54.866,gca_avoidance_task,2022.2.4,144.04116122052477,
positions.xlsx,stimuli.xlsx,stimuli/Social1.png,stimuli/Social2.png,stimuli/Nonsocial2.png,stimuli/Nonsocial1.png,,"(0.7, -0.5)",cs_minus_s,,,,,0,0,0,0,,,,,,,,,4,11,75,7,,,,,,,,,,,,,,,,,,,,,2311.100336399977,270,reward,1,0.5486064000288025,0.5486102000577375,2311.655874100048,,,,,,,,30,C,2023-12-14_16h42.54.866,gca_avoidance_task,2022.2.4,144.04116122052477,
positions.xlsx,stimuli.xlsx,stimuli/Social1.png,stimuli/Social2.png,stimuli/Nonsocial2.png,stimuli/Nonsocial1.png,,"(0.7, -0.5)",cs_minus_ns,,,,,0,0,0,0,,,,,,,,,4,12,76,15,,,,,,,,,,,,,,,,,,,,,2321.73187030002,275,reward,1,0.4792639999650419,0.4792674999916926,2322.2179799999576,,,,,,,,30,C,2023-12-14_16h42.54.866,gca_avoidance_task,2022.2.4,144.04116122052477,
positions.xlsx,stimuli.xlsx,stimuli/Social1.png,stimuli/Social2.png,stimuli/Nonsocial2.png,stimuli/Nonsocial1.png,,"(0.7, 0.5)",cs_plus_s,,,,,0,0,0,0,,,,,,,,,4,13,77,2,,,,,,,,,,,,,,,,,,,,,2331.502341400017,275,none,0,,,2336.5090606999584,,,,,,,,30,C,2023-12-14_16h42.54.866,gca_avoidance_task,2022.2.4,144.04116122052477,
positions.xlsx,stimuli.xlsx,stimuli/Social1.png,stimuli/Social2.png,stimuli/Nonsocial2.png,stimuli/Nonsocial1.png,,"(0.7, -0.5)",cs_plus_ns,,,,,0,0,0,0,,,,,,,,,4,14,78,11,,,,,,,,,,,,,,,,,,,,,2346.244817400002,275,none,0,,,2351.258510899963,,,,,,,,30,C,2023-12-14_16h42.54.866,gca_avoidance_task,2022.2.4,144.04116122052477,
positions.xlsx,stimuli.xlsx,stimuli/Social1.png,stimuli/Social2.png,stimuli/Nonsocial2.png,stimuli/Nonsocial1.png,,"(-0.7, 0.5)",cs_minus_ns,,,,,0,0,0,0,,,,,,,,,4,15,79,12,,,,,,,,,,,,,,,,,,,,,2361.1123038999503,280,reward,1,0.4378730000462383,0.43787699996028095,2361.556706000003,,,,,,,,30,C,2023-12-14_16h42.54.866,gca_avoidance_task,2022.2.4,144.04116122052477,
positions.xlsx,stimuli.xlsx,stimuli/Social1.png,stimuli/Social2.png,stimuli/Nonsocial2.png,stimuli/Nonsocial1.png,cs_plus_s,,,,,,,0,0,0,0,,,,,,,,,,,,,0,0,0,0,,,,,,,,,,,,,2380.2851876999484,3.0,7.343472299980931,,,,,,,,,4.0,10.04896310006734,,,,,,30,C,2023-12-14_16h42.54.866,gca_avoidance_task,2022.2.4,144.04116122052477,
positions.xlsx,stimuli.xlsx,stimuli/Social1.png,stimuli/Social2.png,stimuli/Nonsocial2.png,stimuli/Nonsocial1.png,cs_minus_s,,,,,,,0,0,0,0,,,,,,,,,,,,,0,1,1,2,,,,,,,,,,,,,2388.2015536000254,6.0,5.341032200027257,,,,,,,,,,,,,,,,30,C,2023-12-14_16h42.54.866,gca_avoidance_task,2022.2.4,144.04116122052477,
positions.xlsx,stimuli.xlsx,stimuli/Social1.png,stimuli/Social2.png,stimuli/Nonsocial2.png,stimuli/Nonsocial1.png,cs_minus_ns,,,,,,,0,0,0,0,,,,,,,,,,,,,0,2,2,3,,,,,,,,,,,,,2394.7360047999537,9.0,2.2433657000074163,,,,,,,,,,,,,,,,30,C,2023-12-14_16h42.54.866,gca_avoidance_task,2022.2.4,144.04116122052477,
positions.xlsx,stimuli.xlsx,stimuli/Social1.png,stimuli/Social2.png,stimuli/Nonsocial2.png,stimuli/Nonsocial1.png,cs_plus_ns,,,,,,,0,0,0,0,,,,,,,,,,,,,0,3,3,1,,,,,,,,,,,,,2399.096925699967,4.0,3.396767699974589,,,,,,,,,,,,,,,,30,C,2023-12-14_16h42.54.866,gca_avoidance_task,2022.2.4,144.04116122052477,
positions.xlsx,stimuli.xlsx,stimuli/Social1.png,stimuli/Social2.png,stimuli/Nonsocial2.png,stimuli/Nonsocial1.png,cs_plus_ns,,,,,,,0,0,0,0,,,,,,,,,,,,,,,,,0,0,0,1,,,,,,,,,,,,,,,,,,,,,,2402.9717934000073,2423.790428300039,11,0.023004000075161457,3.604048900073394,30,C,2023-12-14_16h42.54.866,gca_avoidance_task,2022.2.4,144.04116122052477,
positions.xlsx,stimuli.xlsx,stimuli/Social1.png,stimuli/Social2.png,stimuli/Nonsocial2.png,stimuli/Nonsocial1.png,cs_plus_s,,,,,,,0,0,0,0,,,,,,,,,,,,,,,,,0,1,1,0,,,,,,,,,,,,,,,,,,,,,,,2438.741264299955,3,0.01376410003285855,3.1252470000181347,30,C,2023-12-14_16h42.54.866,gca_avoidance_task,2022.2.4,144.04116122052477,
positions.xlsx,stimuli.xlsx,stimuli/Social1.png,stimuli/Social2.png,stimuli/Nonsocial2.png,stimuli/Nonsocial1.png,cs_minus_ns,,,,,,,0,0,0,0,,,,,,,,,,,,,,,,,0,2,2,3,,,,,,,,,,,,,,,,,,,,,,,2453.726774199982,2,0.014302899944595993,9.132029399974272,30,C,2023-12-14_16h42.54.866,gca_avoidance_task,2022.2.4,144.04116122052477,
positions.xlsx,stimuli.xlsx,stimuli/Social1.png,stimuli/Social2.png,stimuli/Nonsocial2.png,stimuli/Nonsocial1.png,cs_minus_s,,,,,,,0,0,0,0,,,,,,,,,,,,,,,,,0,3,3,2,,,,,,,,,,,,,,,,,,,,,,,2468.6220427999506,2,0.013753799954429269,4.548710700008087,30,C,2023-12-14_16h42.54.866,gca_avoidance_task,2022.2.4,144.04116122052477,
positions.xlsx,stimuli.xlsx,stimuli/Social1.png,stimuli/Social2.png,stimuli/Nonsocial2.png,stimuli/Nonsocial1.png,cs_minus_ns,,,,,,,0,0,0,0,,,,,,,,,,,,,,,,,1,0,4,3,,,,,,,,,,,,,,,,,,,,,,,2484.0936940000392,1,0.014235500013455749,10.000085499952547,30,C,2023-12-14_16h42.54.866,gca_avoidance_task,2022.2.4,144.04116122052477,
positions.xlsx,stimuli.xlsx,stimuli/Social1.png,stimuli/Social2.png,stimuli/Nonsocial2.png,stimuli/Nonsocial1.png,cs_plus_s,,,,,,,0,0,0,0,,,,,,,,,,,,,,,,,1,1,5,0,,,,,,,,,,,,,,,,,,,,,,,2498.6833562999964,3,0.013445900054648519,5.083434700034559,30,C,2023-12-14_16h42.54.866,gca_avoidance_task,2022.2.4,144.04116122052477,
positions.xlsx,stimuli.xlsx,stimuli/Social1.png,stimuli/Social2.png,stimuli/Nonsocial2.png,stimuli/Nonsocial1.png,cs_minus_s,,,,,,,0,0,0,0,,,,,,,,,,,,,,,,,1,2,6,2,,,,,,,,,,,,,,,,,,,,,,,2513.967497000005,1,0.0133790000109002,10.000073600094765,30,C,2023-12-14_16h42.54.866,gca_avoidance_task,2022.2.4,144.04116122052477,
positions.xlsx,stimuli.xlsx,stimuli/Social1.png,stimuli/Social2.png,stimuli/Nonsocial2.png,stimuli/Nonsocial1.png,cs_plus_ns,,,,,,,0,0,0,0,,,,,,,,,,,,,,,,,1,3,7,1,,,,,,,,,,,,,,,,,,,,,,,2528.730827399995,1,0.013900799909606576,10.00001209997572,30,C,2023-12-14_16h42.54.866,gca_avoidance_task,2022.2.4,144.04116122052477,
positions.xlsx,stimuli.xlsx,stimuli/Social1.png,stimuli/Social2.png,stimuli/Nonsocial2.png,stimuli/Nonsocial1.png,cs_plus_ns,,,,,,,0,0,0,0,,,,,,,,,,,,,,,,,2,0,8,1,,,,,,,,,,,,,,,,,,,,,,,2543.9732947000302,1,0.013876399956643581,10.000549899996258,30,C,2023-12-14_16h42.54.866,gca_avoidance_task,2022.2.4,144.04116122052477,
positions.xlsx,stimuli.xlsx,stimuli/Social1.png,stimuli/Social2.png,stimuli/Nonsocial2.png,stimuli/Nonsocial1.png,cs_minus_s,,,,,,,0,0,0,0,,,,,,,,,,,,,,,,,2,1,9,2,,,,,,,,,,,,,,,,,,,,,,,2559.4657841000007,2,0.013924599974416196,7.375037800054997,30,C,2023-12-14_16h42.54.866,gca_avoidance_task,2022.2.4,144.04116122052477,
positions.xlsx,stimuli.xlsx,stimuli/Social1.png,stimuli/Social2.png,stimuli/Nonsocial2.png,stimuli/Nonsocial1.png,cs_plus_s,,,,,,,0,0,0,0,,,,,,,,,,,,,,,,,2,2,10,0,,,,,,,,,,,,,,,,,,,,,,,2574.833198099979,6,0.014334699953906238,2.250449899933301,30,C,2023-12-14_16h42.54.866,gca_avoidance_task,2022.2.4,144.04116122052477,
positions.xlsx,stimuli.xlsx,stimuli/Social1.png,stimuli/Social2.png,stimuli/Nonsocial2.png,stimuli/Nonsocial1.png,cs_minus_ns,,,,,,,0,0,0,0,,,,,,,,,,,,,,,,,2,3,11,3,,,,,,,,,,,,,,,,,,,,,,,2590.159010799951,3,0.014653099933639169,4.944600999937393,30,C,2023-12-14_16h42.54.866,gca_avoidance_task,2022.2.4,144.04116122052477,
positions.xlsx,stimuli.xlsx,stimuli/Social1.png,stimuli/Social2.png,stimuli/Nonsocial2.png,stimuli/Nonsocial1.png,cs_minus_s,,,,,,,0,0,0,0,,,,,,,,,,,,,,,,,3,0,12,2,,,,,,,,,,,,,,,,,,,,,,,2604.78340830002,2,0.013388599967584014,5.541804399923421,30,C,2023-12-14_16h42.54.866,gca_avoidance_task,2022.2.4,144.04116122052477,
positions.xlsx,stimuli.xlsx,stimuli/Social1.png,stimuli/Social2.png,stimuli/Nonsocial2.png,stimuli/Nonsocial1.png,cs_plus_ns,,,,,,,0,0,0,0,,,,,,,,,,,,,,,,,3,1,13,1,,,,,,,,,,,,,,,,,,,,,,,2619.4286783999996,7,0.013864499982446432,3.923732400056906,30,C,2023-12-14_16h42.54.866,gca_avoidance_task,2022.2.4,144.04116122052477,
positions.xlsx,stimuli.xlsx,stimuli/Social1.png,stimuli/Social2.png,stimuli/Nonsocial2.png,stimuli/Nonsocial1.png,cs_minus_ns,,,,,,,0,0,0,0,,,,,,,,,,,,,,,,,3,2,14,3,,,,,,,,,,,,,,,,,,,,,,,2634.4281121999957,3,0.014247599989175797,3.8891429000068456,30,C,2023-12-14_16h42.54.866,gca_avoidance_task,2022.2.4,144.04116122052477,
positions.xlsx,stimuli.xlsx,stimuli/Social1.png,stimuli/Social2.png,stimuli/Nonsocial2.png,stimuli/Nonsocial1.png,cs_plus_s,,,,,,,0,0,0,0,,,,,,,,,,,,,,,,,3,3,15,0,,,,,,,,,,,,,,,,,,,,,,,2649.4483482999494,3,0.013350099907256663,3.7848399999784306,30,C,2023-12-14_16h42.54.866,gca_avoidance_task,2022.2.4,144.04116122052477,
positions.xlsx,stimuli.xlsx,stimuli/Social1.png,stimuli/Social2.png,stimuli/Nonsocial2.png,stimuli/Nonsocial1.png,cs_plus_ns,,,,,,,0,0,0,0,,,,,,,,,,,,,,,,,4,0,16,1,,,,,,,,,,,,,,,,,,,,,,,2664.53802810004,3,0.01399230002425611,7.187477599945851,30,C,2023-12-14_16h42.54.866,gca_avoidance_task,2022.2.4,144.04116122052477,
positions.xlsx,stimuli.xlsx,stimuli/Social1.png,stimuli/Social2.png,stimuli/Nonsocial2.png,stimuli/Nonsocial1.png,cs_minus_ns,,,,,,,0,0,0,0,,,,,,,,,,,,,,,,,4,1,17,3,,,,,,,,,,,,,,,,,,,,,,,2679.829126900062,2,0.014785200008191168,6.923699700040743,30,C,2023-12-14_16h42.54.866,gca_avoidance_task,2022.2.4,144.04116122052477,
positions.xlsx,stimuli.xlsx,stimuli/Social1.png,stimuli/Social2.png,stimuli/Nonsocial2.png,stimuli/Nonsocial1.png,cs_plus_s,,,,,,,0,0,0,0,,,,,,,,,,,,,,,,,4,2,18,0,,,,,,,,,,,,,,,,,,,,,,,2695.0021504999604,1,0.015124700032174587,10.00005210004747,30,C,2023-12-14_16h42.54.866,gca_avoidance_task,2022.2.4,144.04116122052477,
positions.xlsx,stimuli.xlsx,stimuli/Social1.png,stimuli/Social2.png,stimuli/Nonsocial2.png,stimuli/Nonsocial1.png,cs_minus_s,,,,,,,0,0,0,0,,,,,,,,,,,,,,,,,4,3,19,2,,,,,,,,,,,,,,,,,,,,,,,2709.9321266000625,3,0.014615199994295835,2.5696639000670984,30,C,2023-12-14_16h42.54.866,gca_avoidance_task,2022.2.4,144.04116122052477,
positions.xlsx,stimuli.xlsx,stimuli/Social1.png,stimuli/Social2.png,stimuli/Nonsocial2.png,stimuli/Nonsocial1.png,cs_plus_s,,,,,,,0,0,0,0,,,,,,,,,,,,,,,,,5,0,20,0,,,,,,,,,,,,,,,,,,,,,,,2725.1399129000492,3,0.013367700041271746,4.146030000061728,30,C,2023-12-14_16h42.54.866,gca_avoidance_task,2022.2.4,144.04116122052477,
positions.xlsx,stimuli.xlsx,stimuli/Social1.png,stimuli/Social2.png,stimuli/Nonsocial2.png,stimuli/Nonsocial1.png,cs_minus_s,,,,,,,0,0,0,0,,,,,,,,,,,,,,,,,5,1,21,2,,,,,,,,,,,,,,,,,,,,,,,2739.917077900027,1,0.013827099930495024,10.000096499919891,30,C,2023-12-14_16h42.54.866,gca_avoidance_task,2022.2.4,144.04116122052477,
positions.xlsx,stimuli.xlsx,stimuli/Social1.png,stimuli/Social2.png,stimuli/Nonsocial2.png,stimuli/Nonsocial1.png,cs_minus_ns,,,,,,,0,0,0,0,,,,,,,,,,,,,,,,,5,2,22,3,,,,,,,,,,,,,,,,,,,,,,,2754.9026182000525,8,0.01462500006891787,5.2711059000575915,30,C,2023-12-14_16h42.54.866,gca_avoidance_task,2022.2.4,144.04116122052477,
positions.xlsx,stimuli.xlsx,stimuli/Social1.png,stimuli/Social2.png,stimuli/Nonsocial2.png,stimuli/Nonsocial1.png,cs_plus_ns,,,,,,,0,0,0,0,,,,,,,,,,,,,,,,,5,3,23,1,,,,,,,,,,,,,,,,,,,,,,,2769.638138600043,5,0.014317899942398071,1.5766621999209747,30,C,2023-12-14_16h42.54.866,gca_avoidance_task,2022.2.4,144.04116122052477,
positions.xlsx,stimuli.xlsx,stimuli/Social1.png,stimuli/Social2.png,stimuli/Nonsocial2.png,stimuli/Nonsocial1.png,cs_plus_s,,,,,,,0,0,0,0,,,,,,,,,,,,,,,,,6,0,24,0,,,,,,,,,,,,,,,,,,,,,,,2785.1236645999597,4,0.013372499961405993,2.298801299999468,30,C,2023-12-14_16h42.54.866,gca_avoidance_task,2022.2.4,144.04116122052477,
positions.xlsx,stimuli.xlsx,stimuli/Social1.png,stimuli/Social2.png,stimuli/Nonsocial2.png,stimuli/Nonsocial1.png,cs_minus_s,,,,,,,0,0,0,0,,,,,,,,,,,,,,,,,6,1,25,2,,,,,,,,,,,,,,,,,,,,,,,2800.1508566000266,1,0.013647899962961674,9.999927400029264,30,C,2023-12-14_16h42.54.866,gca_avoidance_task,2022.2.4,144.04116122052477,
positions.xlsx,stimuli.xlsx,stimuli/Social1.png,stimuli/Social2.png,stimuli/Nonsocial2.png,stimuli/Nonsocial1.png,cs_plus_ns,,,,,,,0,0,0,0,,,,,,,,,,,,,,,,,6,2,26,1,,,,,,,,,,,,,,,,,,,,,,,2814.914184699999,5,0.013859600061550736,5.4373856000602245,30,C,2023-12-14_16h42.54.866,gca_avoidance_task,2022.2.4,144.04116122052477,
positions.xlsx,stimuli.xlsx,stimuli/Social1.png,stimuli/Social2.png,stimuli/Nonsocial2.png,stimuli/Nonsocial1.png,cs_minus_ns,,,,,,,0,0,0,0,,,,,,,,,,,,,,,,,6,3,27,3,,,,,,,,,,,,,,,,,,,,,,,2829.726126200054,1,0.015284299966879189,10.000057599972934,30,C,2023-12-14_16h42.54.866,gca_avoidance_task,2022.2.4,144.04116122052477,
positions.xlsx,stimuli.xlsx,stimuli/Social1.png,stimuli/Social2.png,stimuli/Nonsocial2.png,stimuli/Nonsocial1.png,cs_plus_ns,,,,,,,0,0,0,0,,,,,,,,,,,,,,,,,7,0,28,1,,,,,,,,,,,,,,,,,,,,,,,2845.2046894000378,1,0.015065500047057867,9.833369600004517,30,C,2023-12-14_16h42.54.866,gca_avoidance_task,2022.2.4,144.04116122052477,
positions.xlsx,stimuli.xlsx,stimuli/Social1.png,stimuli/Social2.png,stimuli/Nonsocial2.png,stimuli/Nonsocial1.png,cs_minus_ns,,,,,,,0,0,0,0,,,,,,,,,,,,,,,,,7,1,29,3,,,,,,,,,,,,,,,,,,,,,,,2860.1207502000034,2,0.01416420005261898,4.034865999943577,30,C,2023-12-14_16h42.54.866,gca_avoidance_task,2022.2.4,144.04116122052477,
positions.xlsx,stimuli.xlsx,stimuli/Social1.png,stimuli/Social2.png,stimuli/Nonsocial2.png,stimuli/Nonsocial1.png,cs_plus_s,,,,,,,0,0,0,0,,,,,,,,,,,,,,,,,7,2,30,0,,,,,,,,,,,,,,,,,,,,,,,2874.897983700037,2,0.015027500106953084,5.18078650010284,30,C,2023-12-14_16h42.54.866,gca_avoidance_task,2022.2.4,144.04116122052477,
positions.xlsx,stimuli.xlsx,stimuli/Social1.png,stimuli/Social2.png,stimuli/Nonsocial2.png,stimuli/Nonsocial1.png,cs_minus_s,,,,,,,0,0,0,0,,,,,,,,,,,,,,,,,7,3,31,2,,,,,,,,,,,,,,,,,,,,,,,2889.5987854000414,2,0.013285199995152652,9.624966400093399,30,C,2023-12-14_16h42.54.866,gca_avoidance_task,2022.2.4,144.04116122052477,
positions.xlsx,stimuli.xlsx,stimuli/Social1.png,stimuli/Social2.png,stimuli/Nonsocial2.png,stimuli/Nonsocial1.png,cs_plus_s,,,,,,,0,0,0,0,,,,,,,,,,,,,,,,,8,0,32,0,,,,,,,,,,,,,,,,,,,,,,,2904.820435200003,3,0.013512100093066692,4.757129300036468,30,C,2023-12-14_16h42.54.866,gca_avoidance_task,2022.2.4,144.04116122052477,
positions.xlsx,stimuli.xlsx,stimuli/Social1.png,stimuli/Social2.png,stimuli/Nonsocial2.png,stimuli/Nonsocial1.png,cs_minus_s,,,,,,,0,0,0,0,,,,,,,,,,,,,,,,,8,1,33,2,,,,,,,,,,,,,,,,,,,,,,,2920.1948484999593,1,0.01377590000629425,10.000104199978523,30,C,2023-12-14_16h42.54.866,gca_avoidance_task,2022.2.4,144.04116122052477,
positions.xlsx,stimuli.xlsx,stimuli/Social1.png,stimuli/Social2.png,stimuli/Nonsocial2.png,stimuli/Nonsocial1.png,cs_plus_ns,,,,,,,0,0,0,0,,,,,,,,,,,,,,,,,8,2,34,1,,,,,,,,,,,,,,,,,,,,,,,2934.7636960999807,4,0.014176700031384826,3.7431629999773577,30,C,2023-12-14_16h42.54.866,gca_avoidance_task,2022.2.4,144.04116122052477,
positions.xlsx,stimuli.xlsx,stimuli/Social1.png,stimuli/Social2.png,stimuli/Nonsocial2.png,stimuli/Nonsocial1.png,cs_minus_ns,,,,,,,0,0,0,0,,,,,,,,,,,,,,,,,8,3,35,3,,,,,,,,,,,,,,,,,,,,,,,2950.1242134999484,1,0.014031999977305532,9.999946900061332,30,C,2023-12-14_16h42.54.866,gca_avoidance_task,2022.2.4,144.04116122052477,
positions.xlsx,stimuli.xlsx,stimuli/Social1.png,stimuli/Social2.png,stimuli/Nonsocial2.png,stimuli/Nonsocial1.png,cs_plus_ns,,,,,,,0,0,0,0,,,,,,,,,,,,,,,,,9,0,36,1,,,,,,,,,,,,,,,,,,,,,,,2965.158355099964,5,0.01406489999499172,0.6462118000490591,30,C,2023-12-14_16h42.54.866,gca_avoidance_task,2022.2.4,144.04116122052477,
positions.xlsx,stimuli.xlsx,stimuli/Social1.png,stimuli/Social2.png,stimuli/Nonsocial2.png,stimuli/Nonsocial1.png,cs_minus_s,,,,,,,0,0,0,0,,,,,,,,,,,,,,,,,9,1,37,2,,,,,,,,,,,,,,,,,,,,,,,2980.3314102999866,1,0.015175499953329563,10.000031400006264,30,C,2023-12-14_16h42.54.866,gca_avoidance_task,2022.2.4,144.04116122052477,
positions.xlsx,stimuli.xlsx,stimuli/Social1.png,stimuli/Social2.png,stimuli/Nonsocial2.png,stimuli/Nonsocial1.png,cs_plus_s,,,,,,,0,0,0,0,,,,,,,,,,,,,,,,,9,2,38,0,,,,,,,,,,,,,,,,,,,,,,,2994.9210976000177,1,0.013630700064823031,9.90983540005982,30,C,2023-12-14_16h42.54.866,gca_avoidance_task,2022.2.4,144.04116122052477,
positions.xlsx,stimuli.xlsx,stimuli/Social1.png,stimuli/Social2.png,stimuli/Nonsocial2.png,stimuli/Nonsocial1.png,cs_minus_ns,,,,,,,0,0,0,0,,,,,,,,,,,,,,,,,9,3,39,3,,,,,,,,,,,,,,,,,,,,,,,3010.4205314000137,2,0.21585309994406998,5.42420599993784,30,C,2023-12-14_16h42.54.866,gca_avoidance_task,2022.2.4,144.04116122052477,
positions.xlsx,stimuli.xlsx,stimuli/Social1.png,stimuli/Social2.png,stimuli/Nonsocial2.png,stimuli/Nonsocial1.png,cs_plus_ns,,,,,,,0,0,0,0,,,,,,,,,,,,,,,,,,,,,0,0,0,1,,,,,3024.732477099984,5.0,10.294889200013131,,,,,,,,,,,,,,,,30,C,2023-12-14_16h42.54.866,gca_avoidance_task,2022.2.4,144.04116122052477,
positions.xlsx,stimuli.xlsx,stimuli/Social1.png,stimuli/Social2.png,stimuli/Nonsocial2.png,stimuli/Nonsocial1.png,cs_minus_ns,,,,,,,0,0,0,0,,,,,,,,,,,,,,,,,,,,,0,1,1,3,,,,,3036.4819928000215,8.0,4.014244699967094,,,,,,,,,,,,,,,,30,C,2023-12-14_16h42.54.866,gca_avoidance_task,2022.2.4,144.04116122052477,
positions.xlsx,stimuli.xlsx,stimuli/Social1.png,stimuli/Social2.png,stimuli/Nonsocial2.png,stimuli/Nonsocial1.png,cs_plus_s,,,,,,,0,0,0,0,,,,,,,,,,,,,,,,,,,,,0,2,2,0,,,,,3041.0720978999743,6.0,10.638929200009443,,,,,,,,,,,,,,,,30,C,2023-12-14_16h42.54.866,gca_avoidance_task,2022.2.4,144.04116122052477,
positions.xlsx,stimuli.xlsx,stimuli/Social1.png,stimuli/Social2.png,stimuli/Nonsocial2.png,stimuli/Nonsocial1.png,cs_minus_s,,,,,,,0,0,0,0,,,,,,,,,,,,,,,,,,,,,0,3,3,2,,,,,3054.196619000053,6.0,5.375861699925736,,,,,,,,,,,,,,,,30,C,2023-12-14_16h42.54.866,gca_avoidance_task,2022.2.4,144.04116122052477,
