posFile,stimFile,cs_plus_s,cs_minus_s,cs_plus_ns,cs_minus_ns,stimtype,position,trialtype,trials_threshold.thisRepN,trials_threshold.thisTrialN,trials_threshold.thisN,trials_threshold.thisIndex,blocks.thisRepN,blocks.thisTrialN,blocks.thisN,blocks.thisIndex,ratingtrials1.thisRepN,ratingtrials1.thisTrialN,ratingtrials1.thisN,ratingtrials1.thisIndex,learning_trials.thisRepN,learning_trials.thisTrialN,learning_trials.thisN,learning_trials.thisIndex,trials.thisRepN,trials.thisTrialN,trials.thisN,trials.thisIndex,ratingtrials2.thisRepN,ratingtrials2.thisTrialN,ratingtrials2.thisN,ratingtrials2.thisIndex,testtrials.thisRepN,testtrials.thisTrialN,testtrials.thisN,testtrials.thisIndex,ratingtrials3.thisRepN,ratingtrials3.thisTrialN,ratingtrials3.thisN,ratingtrials3.thisIndex,textStart.started,sliderPainT.response,sliderPainT.rt,textStartExp.started,imageRating.started,sliderStim.response,sliderStim.rt,textStartTask.started,image.started,score,outcome,roi.numLooks,roi.timesOn,roi.timesOff,imageFeedback.started,sliderPain.response,sliderPain.rt,textTestInstr.started,imageTest.started,roiTest.numLooks,roiTest.timesOn,roiTest.timesOff,participant,group,date,expName,psychopyVersion,frameRate,
,,,,,,,,,0,0,0,0,,,,,,,,,,,,,,,,,,,,,,,,,,,,,26.8091884998139,None,None,,,,,,,,,,,,,,,,,,,,48,D,2024-01-12_11h15.40.244,gca_avoidance_task,2022.2.4,143.8933806189009,
,,,,,,,,,1,0,1,0,,,,,,,,,,,,,,,,,,,,,,,,,,,,,,0.0,9.151727000018582,,,,,,,,,,,,,,,,,,,,48,D,2024-01-12_11h15.40.244,gca_avoidance_task,2022.2.4,143.8933806189009,
,,,,,,,,,2,0,2,0,,,,,,,,,,,,,,,,,,,,,,,,,,,,,,1.0,2.481601200066507,,,,,,,,,,,,,,,,,,,,48,D,2024-01-12_11h15.40.244,gca_avoidance_task,2022.2.4,143.8933806189009,
,,,,,,,,,3,0,3,0,,,,,,,,,,,,,,,,,,,,,,,,,,,,,,1.0,3.3226671000011265,,,,,,,,,,,,,,,,,,,,48,D,2024-01-12_11h15.40.244,gca_avoidance_task,2022.2.4,143.8933806189009,
,,,,,,,,,4,0,4,0,,,,,,,,,,,,,,,,,,,,,,,,,,,,,,2.0,1.1753570998553187,,,,,,,,,,,,,,,,,,,,48,D,2024-01-12_11h15.40.244,gca_avoidance_task,2022.2.4,143.8933806189009,
,,,,,,,,,5,0,5,0,,,,,,,,,,,,,,,,,,,,,,,,,,,,,,2.0,3.0788918000180274,,,,,,,,,,,,,,,,,,,,48,D,2024-01-12_11h15.40.244,gca_avoidance_task,2022.2.4,143.8933806189009,
,,,,,,,,,6,0,6,0,,,,,,,,,,,,,,,,,,,,,,,,,,,,,,3.0,1.4664207000751048,,,,,,,,,,,,,,,,,,,,48,D,2024-01-12_11h15.40.244,gca_avoidance_task,2022.2.4,143.8933806189009,
,,,,,,,,,7,0,7,0,,,,,,,,,,,,,,,,,,,,,,,,,,,,,,3.0,1.1980009998660535,,,,,,,,,,,,,,,,,,,,48,D,2024-01-12_11h15.40.244,gca_avoidance_task,2022.2.4,143.8933806189009,
,,,,,,,,,8,0,8,0,,,,,,,,,,,,,,,,,,,,,,,,,,,,,,3.0,0.921618599910289,,,,,,,,,,,,,,,,,,,,48,D,2024-01-12_11h15.40.244,gca_avoidance_task,2022.2.4,143.8933806189009,
,,,,,,,,,9,0,9,0,,,,,,,,,,,,,,,,,,,,,,,,,,,,,,3.0,1.5309526999481022,,,,,,,,,,,,,,,,,,,,48,D,2024-01-12_11h15.40.244,gca_avoidance_task,2022.2.4,143.8933806189009,
,,,,,,,,,10,0,10,0,,,,,,,,,,,,,,,,,,,,,,,,,,,,,,3.0,3.068017000099644,,,,,,,,,,,,,,,,,,,,48,D,2024-01-12_11h15.40.244,gca_avoidance_task,2022.2.4,143.8933806189009,
,,,,,,,,,11,0,11,0,,,,,,,,,,,,,,,,,,,,,,,,,,,,,,3.0,0.907611700007692,,,,,,,,,,,,,,,,,,,,48,D,2024-01-12_11h15.40.244,gca_avoidance_task,2022.2.4,143.8933806189009,
,,,,,,,,,12,0,12,0,,,,,,,,,,,,,,,,,,,,,,,,,,,,,,4.0,1.338087399955839,,,,,,,,,,,,,,,,,,,,48,D,2024-01-12_11h15.40.244,gca_avoidance_task,2022.2.4,143.8933806189009,
,,,,,,,,,13,0,13,0,,,,,,,,,,,,,,,,,,,,,,,,,,,,,,4.0,1.0781258998904377,,,,,,,,,,,,,,,,,,,,48,D,2024-01-12_11h15.40.244,gca_avoidance_task,2022.2.4,143.8933806189009,
,,,,,,,,,14,0,14,0,,,,,,,,,,,,,,,,,,,,,,,,,,,,,,4.0,1.5773268998600543,,,,,,,,,,,,,,,,,,,,48,D,2024-01-12_11h15.40.244,gca_avoidance_task,2022.2.4,143.8933806189009,
,,,,,,,,,15,0,15,0,,,,,,,,,,,,,,,,,,,,,,,,,,,,,,4.0,4.812001199927181,,,,,,,,,,,,,,,,,,,,48,D,2024-01-12_11h15.40.244,gca_avoidance_task,2022.2.4,143.8933806189009,
,,,,,,,,,16,0,16,0,,,,,,,,,,,,,,,,,,,,,,,,,,,,,,5.0,0.7111259000375867,,,,,,,,,,,,,,,,,,,,48,D,2024-01-12_11h15.40.244,gca_avoidance_task,2022.2.4,143.8933806189009,
,,,,,,,,,17,0,17,0,,,,,,,,,,,,,,,,,,,,,,,,,,,,,,6.0,1.243211599998176,,,,,,,,,,,,,,,,,,,,48,D,2024-01-12_11h15.40.244,gca_avoidance_task,2022.2.4,143.8933806189009,
,,,,,,,,,18,0,18,0,,,,,,,,,,,,,,,,,,,,,,,,,,,,,,7.0,1.3720859999302775,,,,,,,,,,,,,,,,,,,,48,D,2024-01-12_11h15.40.244,gca_avoidance_task,2022.2.4,143.8933806189009,
,,,,,,,,,19,0,19,0,,,,,,,,,,,,,,,,,,,,,,,,,,,,,,7.0,6.089060000143945,,,,,,,,,,,,,,,,,,,,48,D,2024-01-12_11h15.40.244,gca_avoidance_task,2022.2.4,143.8933806189009,
,,,,,,,,,20,0,20,0,,,,,,,,,,,,,,,,,,,,,,,,,,,,,,7.0,2.8709503000136465,,,,,,,,,,,,,,,,,,,,48,D,2024-01-12_11h15.40.244,gca_avoidance_task,2022.2.4,143.8933806189009,
,,,,,,,,,21,0,21,0,,,,,,,,,,,,,,,,,,,,,,,,,,,,,,7.0,1.9670849000103772,,,,,,,,,,,,,,,,,,,,48,D,2024-01-12_11h15.40.244,gca_avoidance_task,2022.2.4,143.8933806189009,
,,,,,,,,,22,0,22,0,,,,,,,,,,,,,,,,,,,,,,,,,,,,,,4.0,2.8792531001381576,,,,,,,,,,,,,,,,,,,,48,D,2024-01-12_11h15.40.244,gca_avoidance_task,2022.2.4,143.8933806189009,
,,,,,,,,,23,0,23,0,,,,,,,,,,,,,,,,,,,,,,,,,,,,,,5.0,2.4839152998756617,,,,,,,,,,,,,,,,,,,,48,D,2024-01-12_11h15.40.244,gca_avoidance_task,2022.2.4,143.8933806189009,
,,,,,,,,,24,0,24,0,,,,,,,,,,,,,,,,,,,,,,,,,,,,,,5.0,1.5299009000882506,,,,,,,,,,,,,,,,,,,,48,D,2024-01-12_11h15.40.244,gca_avoidance_task,2022.2.4,143.8933806189009,
,,,,,,,,,25,0,25,0,,,,,,,,,,,,,,,,,,,,,,,,,,,,,,6.0,0.8091561000328511,,,,,,,,,,,,,,,,,,,,48,D,2024-01-12_11h15.40.244,gca_avoidance_task,2022.2.4,143.8933806189009,
,,,,,,,,,26,0,26,0,,,,,,,,,,,,,,,,,,,,,,,,,,,,,,7.0,1.2404414999764413,,,,,,,,,,,,,,,,,,,,48,D,2024-01-12_11h15.40.244,gca_avoidance_task,2022.2.4,143.8933806189009,
,,,,,,,,,27,0,27,0,,,,,,,,,,,,,,,,,,,,,,,,,,,,,,6.0,26.219986400101334,,,,,,,,,,,,,,,,,,,,48,D,2024-01-12_11h15.40.244,gca_avoidance_task,2022.2.4,143.8933806189009,
,,,,,,,,,28,0,28,0,,,,,,,,,,,,,,,,,,,,,,,,,,,,,,6.0,2.575381300179288,,,,,,,,,,,,,,,,,,,,48,D,2024-01-12_11h15.40.244,gca_avoidance_task,2022.2.4,143.8933806189009,
positions.xlsx,stimuli.xlsx,stimuli/Social2.png,stimuli/Social1.png,stimuli/Nonsocial2.png,stimuli/Nonsocial1.png,cs_plus_ns,,,,,,,0,0,0,0,0,0,0,1,,,,,,,,,,,,,,,,,,,,,,,,2281.7868764000013,2348.4223918998614,8.0,9.347009000135586,,,,,,,,,,,,,,,,48,D,2024-01-12_11h15.40.244,gca_avoidance_task,2022.2.4,143.8933806189009,
positions.xlsx,stimuli.xlsx,stimuli/Social2.png,stimuli/Social1.png,stimuli/Nonsocial2.png,stimuli/Nonsocial1.png,cs_plus_s,,,,,,,0,0,0,0,0,1,1,0,,,,,,,,,,,,,,,,,,,,,,,,,2358.6442273999564,9.0,11.065966699970886,,,,,,,,,,,,,,,,48,D,2024-01-12_11h15.40.244,gca_avoidance_task,2022.2.4,143.8933806189009,
positions.xlsx,stimuli.xlsx,stimuli/Social2.png,stimuli/Social1.png,stimuli/Nonsocial2.png,stimuli/Nonsocial1.png,cs_minus_ns,,,,,,,0,0,0,0,0,2,2,3,,,,,,,,,,,,,,,,,,,,,,,,,2371.9214388998225,7.0,3.1433193997945637,,,,,,,,,,,,,,,,48,D,2024-01-12_11h15.40.244,gca_avoidance_task,2022.2.4,143.8933806189009,
positions.xlsx,stimuli.xlsx,stimuli/Social2.png,stimuli/Social1.png,stimuli/Nonsocial2.png,stimuli/Nonsocial1.png,cs_minus_s,,,,,,,0,0,0,0,0,3,3,2,,,,,,,,,,,,,,,,,,,,,,,,,2375.969925099984,9.0,4.421032799873501,,,,,,,,,,,,,,,,48,D,2024-01-12_11h15.40.244,gca_avoidance_task,2022.2.4,143.8933806189009,
positions.xlsx,stimuli.xlsx,stimuli/Social2.png,stimuli/Social1.png,stimuli/Nonsocial2.png,stimuli/Nonsocial1.png,,"(0.7, 0.5)",cs_minus_ns,,,,,0,0,0,0,,,,,0,0,0,14,,,,,,,,,,,,,,,,,,,,,,,,2381.6571401997935,2400.080021099886,5,reward,1,0.548574100015685,0.54857790004462,2400.6424667998217,,,,,,,,48,D,2024-01-12_11h15.40.244,gca_avoidance_task,2022.2.4,143.8933806189009,
positions.xlsx,stimuli.xlsx,stimuli/Social2.png,stimuli/Social1.png,stimuli/Nonsocial2.png,stimuli/Nonsocial1.png,,"(-0.7, 0.5)",cs_plus_s,,,,,0,0,0,0,,,,,0,1,1,0,,,,,,,,,,,,,,,,,,,,,,,,,2410.412932699779,5,shock,1,0.38196450006216764,0.3819682998582721,2410.801808899967,,,,,,,,48,D,2024-01-12_11h15.40.244,gca_avoidance_task,2022.2.4,143.8933806189009,
positions.xlsx,stimuli.xlsx,stimuli/Social2.png,stimuli/Social1.png,stimuli/Nonsocial2.png,stimuli/Nonsocial1.png,,"(0.7, -0.5)",cs_minus_s,,,,,0,0,0,0,,,,,0,2,2,7,,,,,,,,,,,,,,,,,,,,,,,,,2420.391699699918,10,reward,1,0.47955970000475645,0.47956419992260635,2420.87780609983,,,,,,,,48,D,2024-01-12_11h15.40.244,gca_avoidance_task,2022.2.4,143.8933806189009,
positions.xlsx,stimuli.xlsx,stimuli/Social2.png,stimuli/Social1.png,stimuli/Nonsocial2.png,stimuli/Nonsocial1.png,,"(-0.7, -0.5)",cs_plus_ns,,,,,0,0,0,0,,,,,0,3,3,9,,,,,,,,,,,,,,,,,,,,,,,,,2430.9468289997894,10,shock,1,0.40350950020365417,0.4035139000043273,2431.3565087998286,,,,,,,,48,D,2024-01-12_11h15.40.244,gca_avoidance_task,2022.2.4,143.8933806189009,
positions.xlsx,stimuli.xlsx,stimuli/Social2.png,stimuli/Social1.png,stimuli/Nonsocial2.png,stimuli/Nonsocial1.png,,"(0.7, 0.5)",cs_plus_s,,,,,0,0,0,0,,,,,0,4,4,2,,,,,,,,,,,,,,,,,,,,,,,,,2440.5575914999936,10,shock,1,0.26420560013502836,0.26420960016548634,2440.821456299862,,,,,,,,48,D,2024-01-12_11h15.40.244,gca_avoidance_task,2022.2.4,143.8933806189009,
positions.xlsx,stimuli.xlsx,stimuli/Social2.png,stimuli/Social1.png,stimuli/Nonsocial2.png,stimuli/Nonsocial1.png,,"(0.7, -0.5)",cs_plus_s,,,,,0,0,0,0,,,,,0,5,5,3,,,,,,,,,,,,,,,,,,,,,,,,,2450.7863046999555,10,shock,1,2.1668334999121726,2.1668372999411076,2452.9528857998084,,,,,,,,48,D,2024-01-12_11h15.40.244,gca_avoidance_task,2022.2.4,143.8933806189009,
positions.xlsx,stimuli.xlsx,stimuli/Social2.png,stimuli/Social1.png,stimuli/Nonsocial2.png,stimuli/Nonsocial1.png,,"(-0.7, -0.5)",cs_plus_s,,,,,0,0,0,0,,,,,0,6,6,1,,,,,,,,,,,,,,,,,,,,,,,,,2462.1469864998944,10,none,0,,,2467.16065179999,,,,,,,,48,D,2024-01-12_11h15.40.244,gca_avoidance_task,2022.2.4,143.8933806189009,
positions.xlsx,stimuli.xlsx,stimuli/Social2.png,stimuli/Social1.png,stimuli/Nonsocial2.png,stimuli/Nonsocial1.png,,"(-0.7, 0.5)",cs_minus_ns,,,,,0,0,0,0,,,,,0,7,7,12,,,,,,,,,,,,,,,,,,,,,,,,,2476.1464083998,15,reward,1,0.7224131000693887,0.7224173999857157,2476.8755550999194,,,,,,,,48,D,2024-01-12_11h15.40.244,gca_avoidance_task,2022.2.4,143.8933806189009,
positions.xlsx,stimuli.xlsx,stimuli/Social2.png,stimuli/Social1.png,stimuli/Nonsocial2.png,stimuli/Nonsocial1.png,,"(-0.7, 0.5)",cs_minus_s,,,,,0,0,0,0,,,,,0,8,8,4,,,,,,,,,,,,,,,,,,,,,,,,,2486.750137799885,20,reward,1,0.6321747999172658,0.6391346999444067,2487.3959918997716,,,,,,,,48,D,2024-01-12_11h15.40.244,gca_avoidance_task,2022.2.4,143.8933806189009,
positions.xlsx,stimuli.xlsx,stimuli/Social2.png,stimuli/Social1.png,stimuli/Nonsocial2.png,stimuli/Nonsocial1.png,,"(0.7, -0.5)",cs_minus_ns,,,,,0,0,0,0,,,,,0,9,9,15,,,,,,,,,,,,,,,,,,,,,,,,,2496.985831399914,25,reward,1,0.6944331999402493,0.6944375999737531,2497.6872336999513,,,,,,,,48,D,2024-01-12_11h15.40.244,gca_avoidance_task,2022.2.4,143.8933806189009,
positions.xlsx,stimuli.xlsx,stimuli/Social2.png,stimuli/Social1.png,stimuli/Nonsocial2.png,stimuli/Nonsocial1.png,,"(-0.7, -0.5)",cs_minus_s,,,,,0,0,0,0,,,,,0,10,10,5,,,,,,,,,,,,,,,,,,,,,,,,,2507.1173921998125,30,reward,1,0.7573494000826031,0.757353600114584,2507.88122199988,,,,,,,,48,D,2024-01-12_11h15.40.244,gca_avoidance_task,2022.2.4,143.8933806189009,
positions.xlsx,stimuli.xlsx,stimuli/Social2.png,stimuli/Social1.png,stimuli/Nonsocial2.png,stimuli/Nonsocial1.png,,"(0.7, 0.5)",cs_plus_ns,,,,,0,0,0,0,,,,,0,11,11,10,,,,,,,,,,,,,,,,,,,,,,,,,2517.3530682998244,30,none,0,,,2522.3598296998534,,,,,,,,48,D,2024-01-12_11h15.40.244,gca_avoidance_task,2022.2.4,143.8933806189009,
positions.xlsx,stimuli.xlsx,stimuli/Social2.png,stimuli/Social1.png,stimuli/Nonsocial2.png,stimuli/Nonsocial1.png,,"(-0.7, 0.5)",cs_plus_ns,,,,,0,0,0,0,,,,,0,12,12,8,,,,,,,,,,,,,,,,,,,,,,,,,2531.887213599868,30,none,0,,,2536.893959999783,,,,,,,,48,D,2024-01-12_11h15.40.244,gca_avoidance_task,2022.2.4,143.8933806189009,
positions.xlsx,stimuli.xlsx,stimuli/Social2.png,stimuli/Social1.png,stimuli/Nonsocial2.png,stimuli/Nonsocial1.png,,"(0.7, 0.5)",cs_minus_s,,,,,0,0,0,0,,,,,0,13,13,6,,,,,,,,,,,,,,,,,,,,,,,,,2545.782500399975,35,reward,1,0.5068496000021696,0.5068540999200195,2546.296353999991,,,,,,,,48,D,2024-01-12_11h15.40.244,gca_avoidance_task,2022.2.4,143.8933806189009,
positions.xlsx,stimuli.xlsx,stimuli/Social2.png,stimuli/Social1.png,stimuli/Nonsocial2.png,stimuli/Nonsocial1.png,,"(0.7, -0.5)",cs_plus_ns,,,,,0,0,0,0,,,,,0,14,14,11,,,,,,,,,,,,,,,,,,,,,,,,,2555.420993999811,35,none,0,,,2560.427765299799,,,,,,,,48,D,2024-01-12_11h15.40.244,gca_avoidance_task,2022.2.4,143.8933806189009,
positions.xlsx,stimuli.xlsx,stimuli/Social2.png,stimuli/Social1.png,stimuli/Nonsocial2.png,stimuli/Nonsocial1.png,,"(-0.7, -0.5)",cs_minus_ns,,,,,0,0,0,0,,,,,0,15,15,13,,,,,,,,,,,,,,,,,,,,,,,,,2570.767648999812,40,reward,1,0.5490063999313861,0.5490103999618441,2571.323144399794,,,,,,,,48,D,2024-01-12_11h15.40.244,gca_avoidance_task,2022.2.4,143.8933806189009,
positions.xlsx,stimuli.xlsx,stimuli/Social2.png,stimuli/Social1.png,stimuli/Nonsocial2.png,stimuli/Nonsocial1.png,,"(-0.7, 0.5)",cs_plus_ns,,,,,0,0,0,0,,,,,1,0,16,8,,,,,,,,,,,,,,,,,,,,,,,,,2580.4894463999663,40,none,0,,,2585.4961757999845,,,,,,,,48,D,2024-01-12_11h15.40.244,gca_avoidance_task,2022.2.4,143.8933806189009,
positions.xlsx,stimuli.xlsx,stimuli/Social2.png,stimuli/Social1.png,stimuli/Nonsocial2.png,stimuli/Nonsocial1.png,,"(0.7, -0.5)",cs_minus_ns,,,,,0,0,0,0,,,,,1,1,17,15,,,,,,,,,,,,,,,,,,,,,,,,,2594.898552399827,45,reward,1,0.6736501001287252,0.6736540000420064,2595.5790812999476,,,,,,,,48,D,2024-01-12_11h15.40.244,gca_avoidance_task,2022.2.4,143.8933806189009,
positions.xlsx,stimuli.xlsx,stimuli/Social2.png,stimuli/Social1.png,stimuli/Nonsocial2.png,stimuli/Nonsocial1.png,,"(0.7, -0.5)",cs_minus_s,,,,,0,0,0,0,,,,,1,2,18,7,,,,,,,,,,,,,,,,,,,,,,,,,2604.46762209991,50,reward,1,0.6953144001308829,0.7019963001366705,2605.1759430998936,,,,,,,,48,D,2024-01-12_11h15.40.244,gca_avoidance_task,2022.2.4,143.8933806189009,
positions.xlsx,stimuli.xlsx,stimuli/Social2.png,stimuli/Social1.png,stimuli/Nonsocial2.png,stimuli/Nonsocial1.png,,"(0.7, 0.5)",cs_plus_s,,,,,0,0,0,0,,,,,1,3,19,2,,,,,,,,,,,,,,,,,,,,,,,,,2614.4324955998454,50,none,0,,,2619.4392539998516,,,,,,,,48,D,2024-01-12_11h15.40.244,gca_avoidance_task,2022.2.4,143.8933806189009,
positions.xlsx,stimuli.xlsx,stimuli/Social2.png,stimuli/Social1.png,stimuli/Nonsocial2.png,stimuli/Nonsocial1.png,,"(-0.7, -0.5)",cs_plus_s,,,,,0,0,0,0,,,,,1,4,20,1,,,,,,,,,,,,,,,,,,,,,,,,,2629.1402025998104,50,shock,1,0.2085093001369387,0.21539390017278492,2629.355496099917,,,,,,,,48,D,2024-01-12_11h15.40.244,gca_avoidance_task,2022.2.4,143.8933806189009,
positions.xlsx,stimuli.xlsx,stimuli/Social2.png,stimuli/Social1.png,stimuli/Nonsocial2.png,stimuli/Nonsocial1.png,,"(-0.7, 0.5)",cs_plus_s,,,,,0,0,0,0,,,,,1,5,21,0,,,,,,,,,,,,,,,,,,,,,,,,,2639.070403299993,50,none,0,,,2644.0840896999,,,,,,,,48,D,2024-01-12_11h15.40.244,gca_avoidance_task,2022.2.4,143.8933806189009,
positions.xlsx,stimuli.xlsx,stimuli/Social2.png,stimuli/Social1.png,stimuli/Nonsocial2.png,stimuli/Nonsocial1.png,,"(0.7, 0.5)",cs_plus_ns,,,,,0,0,0,0,,,,,1,6,22,10,,,,,,,,,,,,,,,,,,,,,,,,,2652.958774199942,50,none,0,,,2657.9654546999373,,,,,,,,48,D,2024-01-12_11h15.40.244,gca_avoidance_task,2022.2.4,143.8933806189009,
positions.xlsx,stimuli.xlsx,stimuli/Social2.png,stimuli/Social1.png,stimuli/Nonsocial2.png,stimuli/Nonsocial1.png,,"(-0.7, 0.5)",cs_minus_s,,,,,0,0,0,0,,,,,1,7,23,4,,,,,,,,,,,,,,,,,,,,,,,,,2666.784548799973,55,reward,1,0.6323816000949591,0.6323859000112861,2667.4234075997956,,,,,,,,48,D,2024-01-12_11h15.40.244,gca_avoidance_task,2022.2.4,143.8933806189009,
positions.xlsx,stimuli.xlsx,stimuli/Social2.png,stimuli/Social1.png,stimuli/Nonsocial2.png,stimuli/Nonsocial1.png,,"(-0.7, -0.5)",cs_plus_ns,,,,,0,0,0,0,,,,,1,8,24,9,,,,,,,,,,,,,,,,,,,,,,,,,2676.8188798998017,55,none,0,,,2681.8256460998673,,,,,,,,48,D,2024-01-12_11h15.40.244,gca_avoidance_task,2022.2.4,143.8933806189009,
positions.xlsx,stimuli.xlsx,stimuli/Social2.png,stimuli/Social1.png,stimuli/Nonsocial2.png,stimuli/Nonsocial1.png,,"(-0.7, -0.5)",cs_minus_ns,,,,,0,0,0,0,,,,,1,9,25,13,,,,,,,,,,,,,,,,,,,,,,,,,2691.77659439994,60,reward,1,0.5489694001153111,0.5489732001442462,2692.332171399845,,,,,,,,48,D,2024-01-12_11h15.40.244,gca_avoidance_task,2022.2.4,143.8933806189009,
positions.xlsx,stimuli.xlsx,stimuli/Social2.png,stimuli/Social1.png,stimuli/Nonsocial2.png,stimuli/Nonsocial1.png,,"(0.7, -0.5)",cs_plus_ns,,,,,0,0,0,0,,,,,1,10,26,11,,,,,,,,,,,,,,,,,,,,,,,,,2702.019253099803,60,none,0,,,2707.0259951998014,,,,,,,,48,D,2024-01-12_11h15.40.244,gca_avoidance_task,2022.2.4,143.8933806189009,
positions.xlsx,stimuli.xlsx,stimuli/Social2.png,stimuli/Social1.png,stimuli/Nonsocial2.png,stimuli/Nonsocial1.png,,"(0.7, 0.5)",cs_minus_ns,,,,,0,0,0,0,,,,,1,11,27,14,,,,,,,,,,,,,,,,,,,,,,,,,2716.678387899883,65,reward,1,0.63904680009,0.639050800120458,2717.324196399888,,,,,,,,48,D,2024-01-12_11h15.40.244,gca_avoidance_task,2022.2.4,143.8933806189009,
positions.xlsx,stimuli.xlsx,stimuli/Social2.png,stimuli/Social1.png,stimuli/Nonsocial2.png,stimuli/Nonsocial1.png,,"(0.7, -0.5)",cs_plus_s,,,,,0,0,0,0,,,,,1,12,28,3,,,,,,,,,,,,,,,,,,,,,,,,,2726.476599499816,65,none,0,,,2731.483351699775,,,,,,,,48,D,2024-01-12_11h15.40.244,gca_avoidance_task,2022.2.4,143.8933806189009,
positions.xlsx,stimuli.xlsx,stimuli/Social2.png,stimuli/Social1.png,stimuli/Nonsocial2.png,stimuli/Nonsocial1.png,,"(-0.7, 0.5)",cs_minus_ns,,,,,0,0,0,0,,,,,1,13,29,12,,,,,,,,,,,,,,,,,,,,,,,,,2741.108008999843,70,reward,1,0.5070766001008451,0.5070809999015182,2741.628781599924,,,,,,,,48,D,2024-01-12_11h15.40.244,gca_avoidance_task,2022.2.4,143.8933806189009,
positions.xlsx,stimuli.xlsx,stimuli/Social2.png,stimuli/Social1.png,stimuli/Nonsocial2.png,stimuli/Nonsocial1.png,,"(-0.7, -0.5)",cs_minus_s,,,,,0,0,0,0,,,,,1,14,30,5,,,,,,,,,,,,,,,,,,,,,,,,,2750.6006241999567,75,reward,1,0.5421264998149127,0.5421306998468935,2751.1492459999863,,,,,,,,48,D,2024-01-12_11h15.40.244,gca_avoidance_task,2022.2.4,143.8933806189009,
positions.xlsx,stimuli.xlsx,stimuli/Social2.png,stimuli/Social1.png,stimuli/Nonsocial2.png,stimuli/Nonsocial1.png,,"(0.7, 0.5)",cs_minus_s,,,,,0,0,0,0,,,,,1,15,31,6,,,,,,,,,,,,,,,,,,,,,,,,,2760.7530129998922,80,reward,1,0.5626424001529813,0.5626463000662625,2761.3224412999116,,,,,,,,48,D,2024-01-12_11h15.40.244,gca_avoidance_task,2022.2.4,143.8933806189009,
positions.xlsx,stimuli.xlsx,stimuli/Social2.png,stimuli/Social1.png,stimuli/Nonsocial2.png,stimuli/Nonsocial1.png,,"(-0.7, -0.5)",cs_minus_s,,,,,0,0,0,0,,,,,,,,,0,0,0,5,,,,,,,,,,,,,,,,,,,,,2781.516068099998,85,reward,1,0.45165639999322593,0.4516604000236839,2781.9744016998447,,,,,,,,48,D,2024-01-12_11h15.40.244,gca_avoidance_task,2022.2.4,143.8933806189009,
positions.xlsx,stimuli.xlsx,stimuli/Social2.png,stimuli/Social1.png,stimuli/Nonsocial2.png,stimuli/Nonsocial1.png,,"(-0.7, -0.5)",cs_plus_s,,,,,0,0,0,0,,,,,,,,,0,1,1,1,,,,,,,,,,,,,,,,,,,,,2791.599000299815,85,none,0,,,2796.6057423998136,,,,,,,,48,D,2024-01-12_11h15.40.244,gca_avoidance_task,2022.2.4,143.8933806189009,
positions.xlsx,stimuli.xlsx,stimuli/Social2.png,stimuli/Social1.png,stimuli/Nonsocial2.png,stimuli/Nonsocial1.png,,"(0.7, -0.5)",cs_plus_s,,,,,0,0,0,0,,,,,,,,,0,2,2,3,,,,,,,,,,,,,,,,,,,,,2806.049806199968,85,shock,1,2.0000797000247985,2.0000839000567794,2808.056690799771,,,,,,,,48,D,2024-01-12_11h15.40.244,gca_avoidance_task,2022.2.4,143.8933806189009,
positions.xlsx,stimuli.xlsx,stimuli/Social2.png,stimuli/Social1.png,stimuli/Nonsocial2.png,stimuli/Nonsocial1.png,,"(0.7, 0.5)",cs_plus_ns,,,,,0,0,0,0,,,,,,,,,0,3,3,10,,,,,,,,,,,,,,,,,,,,,2816.979946399806,85,none,0,,,2821.9866747998167,,,,,,,,48,D,2024-01-12_11h15.40.244,gca_avoidance_task,2022.2.4,143.8933806189009,
positions.xlsx,stimuli.xlsx,stimuli/Social2.png,stimuli/Social1.png,stimuli/Nonsocial2.png,stimuli/Nonsocial1.png,,"(-0.7, 0.5)",cs_plus_ns,,,,,0,0,0,0,,,,,,,,,0,4,4,8,,,,,,,,,,,,,,,,,,,,,2832.3682082998566,85,none,0,,,2837.374981999863,,,,,,,,48,D,2024-01-12_11h15.40.244,gca_avoidance_task,2022.2.4,143.8933806189009,
positions.xlsx,stimuli.xlsx,stimuli/Social2.png,stimuli/Social1.png,stimuli/Nonsocial2.png,stimuli/Nonsocial1.png,,"(-0.7, 0.5)",cs_plus_s,,,,,0,0,0,0,,,,,,,,,0,5,5,0,,,,,,,,,,,,,,,,,,,,,2846.582903899951,85,none,0,,,2851.58970199991,,,,,,,,48,D,2024-01-12_11h15.40.244,gca_avoidance_task,2022.2.4,143.8933806189009,
positions.xlsx,stimuli.xlsx,stimuli/Social2.png,stimuli/Social1.png,stimuli/Nonsocial2.png,stimuli/Nonsocial1.png,,"(0.7, -0.5)",cs_minus_ns,,,,,0,0,0,0,,,,,,,,,0,6,6,15,,,,,,,,,,,,,,,,,,,,,2861.464265599847,90,reward,1,0.5351023999974132,0.5351060999091715,2862.0059606998693,,,,,,,,48,D,2024-01-12_11h15.40.244,gca_avoidance_task,2022.2.4,143.8933806189009,
positions.xlsx,stimuli.xlsx,stimuli/Social2.png,stimuli/Social1.png,stimuli/Nonsocial2.png,stimuli/Nonsocial1.png,,"(0.7, 0.5)",cs_minus_s,,,,,0,0,0,0,,,,,,,,,0,7,7,6,,,,,,,,,,,,,,,,,,,,,2871.7694025998935,95,reward,1,0.7224986001383513,0.7225027000531554,2872.498560699867,,,,,,,,48,D,2024-01-12_11h15.40.244,gca_avoidance_task,2022.2.4,143.8933806189009,
positions.xlsx,stimuli.xlsx,stimuli/Social2.png,stimuli/Social1.png,stimuli/Nonsocial2.png,stimuli/Nonsocial1.png,,"(0.7, -0.5)",cs_minus_s,,,,,0,0,0,0,,,,,,,,,0,8,8,7,,,,,,,,,,,,,,,,,,,,,2882.4356145998463,100,reward,1,0.7708647002000362,0.7708686001133174,2883.21344039985,,,,,,,,48,D,2024-01-12_11h15.40.244,gca_avoidance_task,2022.2.4,143.8933806189009,
positions.xlsx,stimuli.xlsx,stimuli/Social2.png,stimuli/Social1.png,stimuli/Nonsocial2.png,stimuli/Nonsocial1.png,,"(-0.7, 0.5)",cs_minus_ns,,,,,0,0,0,0,,,,,,,,,0,9,9,12,,,,,,,,,,,,,,,,,,,,,2892.928287099814,105,reward,1,0.6598723998758942,0.6598766997922212,2893.5949157997966,,,,,,,,48,D,2024-01-12_11h15.40.244,gca_avoidance_task,2022.2.4,143.8933806189009,
positions.xlsx,stimuli.xlsx,stimuli/Social2.png,stimuli/Social1.png,stimuli/Nonsocial2.png,stimuli/Nonsocial1.png,,"(0.7, 0.5)",cs_minus_ns,,,,,0,0,0,0,,,,,,,,,0,10,10,14,,,,,,,,,,,,,,,,,,,,,2903.5042710998096,110,reward,1,0.5560928001068532,0.5560970001388341,2904.066755599808,,,,,,,,48,D,2024-01-12_11h15.40.244,gca_avoidance_task,2022.2.4,143.8933806189009,
positions.xlsx,stimuli.xlsx,stimuli/Social2.png,stimuli/Social1.png,stimuli/Nonsocial2.png,stimuli/Nonsocial1.png,,"(-0.7, 0.5)",cs_minus_s,,,,,0,0,0,0,,,,,,,,,0,11,11,4,,,,,,,,,,,,,,,,,,,,,2912.7469303999096,115,reward,1,0.2153688999824226,0.21537290001288056,2912.9691200999077,,,,,,,,48,D,2024-01-12_11h15.40.244,gca_avoidance_task,2022.2.4,143.8933806189009,
positions.xlsx,stimuli.xlsx,stimuli/Social2.png,stimuli/Social1.png,stimuli/Nonsocial2.png,stimuli/Nonsocial1.png,,"(0.7, -0.5)",cs_plus_ns,,,,,0,0,0,0,,,,,,,,,0,12,12,11,,,,,,,,,,,,,,,,,,,,,2922.5868261998985,115,none,0,,,2927.600505299866,,,,,,,,48,D,2024-01-12_11h15.40.244,gca_avoidance_task,2022.2.4,143.8933806189009,
positions.xlsx,stimuli.xlsx,stimuli/Social2.png,stimuli/Social1.png,stimuli/Nonsocial2.png,stimuli/Nonsocial1.png,,"(-0.7, -0.5)",cs_plus_ns,,,,,0,0,0,0,,,,,,,,,0,13,13,9,,,,,,,,,,,,,,,,,,,,,2936.384874999989,115,none,0,,,2941.3916129998397,,,,,,,,48,D,2024-01-12_11h15.40.244,gca_avoidance_task,2022.2.4,143.8933806189009,
positions.xlsx,stimuli.xlsx,stimuli/Social2.png,stimuli/Social1.png,stimuli/Nonsocial2.png,stimuli/Nonsocial1.png,,"(-0.7, -0.5)",cs_minus_ns,,,,,0,0,0,0,,,,,,,,,0,14,14,13,,,,,,,,,,,,,,,,,,,,,2950.946829299908,120,reward,1,0.41020649997517467,0.4102238998748362,2951.363445899915,,,,,,,,48,D,2024-01-12_11h15.40.244,gca_avoidance_task,2022.2.4,143.8933806189009,
positions.xlsx,stimuli.xlsx,stimuli/Social2.png,stimuli/Social1.png,stimuli/Nonsocial2.png,stimuli/Nonsocial1.png,,"(0.7, 0.5)",cs_plus_s,,,,,0,0,0,0,,,,,,,,,0,15,15,2,,,,,,,,,,,,,,,,,,,,,2960.613094299799,120,shock,1,0.2224926999770105,0.22249680012464523,2960.8422122998163,,,,,,,,48,D,2024-01-12_11h15.40.244,gca_avoidance_task,2022.2.4,143.8933806189009,
positions.xlsx,stimuli.xlsx,stimuli/Social2.png,stimuli/Social1.png,stimuli/Nonsocial2.png,stimuli/Nonsocial1.png,,"(-0.7, -0.5)",cs_minus_s,,,,,0,0,0,0,,,,,,,,,1,0,16,5,,,,,,,,,,,,,,,,,,,,,2969.807182499906,125,reward,1,0.6667033000849187,0.6667080000042915,2970.480757899815,,,,,,,,48,D,2024-01-12_11h15.40.244,gca_avoidance_task,2022.2.4,143.8933806189009,
positions.xlsx,stimuli.xlsx,stimuli/Social2.png,stimuli/Social1.png,stimuli/Nonsocial2.png,stimuli/Nonsocial1.png,,"(0.7, 0.5)",cs_plus_s,,,,,0,0,0,0,,,,,,,,,1,1,17,2,,,,,,,,,,,,,,,,,,,,,2979.5914546998683,125,none,0,,,2984.598274699878,,,,,,,,48,D,2024-01-12_11h15.40.244,gca_avoidance_task,2022.2.4,143.8933806189009,
positions.xlsx,stimuli.xlsx,stimuli/Social2.png,stimuli/Social1.png,stimuli/Nonsocial2.png,stimuli/Nonsocial1.png,,"(-0.7, -0.5)",cs_plus_s,,,,,0,0,0,0,,,,,,,,,1,2,18,1,,,,,,,,,,,,,,,,,,,,,2994.063125599874,125,none,0,,,2999.0698694998864,,,,,,,,48,D,2024-01-12_11h15.40.244,gca_avoidance_task,2022.2.4,143.8933806189009,
positions.xlsx,stimuli.xlsx,stimuli/Social2.png,stimuli/Social1.png,stimuli/Nonsocial2.png,stimuli/Nonsocial1.png,,"(-0.7, 0.5)",cs_minus_s,,,,,0,0,0,0,,,,,,,,,1,3,19,4,,,,,,,,,,,,,,,,,,,,,3007.680686699925,130,reward,1,0.5975206999573857,0.5975250999908894,3008.2778822998516,,,,,,,,48,D,2024-01-12_11h15.40.244,gca_avoidance_task,2022.2.4,143.8933806189009,
positions.xlsx,stimuli.xlsx,stimuli/Social2.png,stimuli/Social1.png,stimuli/Nonsocial2.png,stimuli/Nonsocial1.png,,"(0.7, -0.5)",cs_plus_ns,,,,,0,0,0,0,,,,,,,,,1,4,20,11,,,,,,,,,,,,,,,,,,,,,3017.951065099798,130,none,0,,,3022.9578043997753,,,,,,,,48,D,2024-01-12_11h15.40.244,gca_avoidance_task,2022.2.4,143.8933806189009,
positions.xlsx,stimuli.xlsx,stimuli/Social2.png,stimuli/Social1.png,stimuli/Nonsocial2.png,stimuli/Nonsocial1.png,,"(-0.7, 0.5)",cs_plus_ns,,,,,0,0,0,0,,,,,,,,,1,5,21,8,,,,,,,,,,,,,,,,,,,,,3032.9366023999173,130,none,0,,,3037.9433694998734,,,,,,,,48,D,2024-01-12_11h15.40.244,gca_avoidance_task,2022.2.4,143.8933806189009,
positions.xlsx,stimuli.xlsx,stimuli/Social2.png,stimuli/Social1.png,stimuli/Nonsocial2.png,stimuli/Nonsocial1.png,,"(0.7, -0.5)",cs_minus_s,,,,,0,0,0,0,,,,,,,,,1,6,22,7,,,,,,,,,,,,,,,,,,,,,3047.1096167999785,135,reward,1,0.6112875000108033,0.6112917000427842,3047.7276672997978,,,,,,,,48,D,2024-01-12_11h15.40.244,gca_avoidance_task,2022.2.4,143.8933806189009,
positions.xlsx,stimuli.xlsx,stimuli/Social2.png,stimuli/Social1.png,stimuli/Nonsocial2.png,stimuli/Nonsocial1.png,,"(-0.7, -0.5)",cs_plus_ns,,,,,0,0,0,0,,,,,,,,,1,7,23,9,,,,,,,,,,,,,,,,,,,,,3056.650882799877,135,none,0,,,3061.6576653998345,,,,,,,,48,D,2024-01-12_11h15.40.244,gca_avoidance_task,2022.2.4,143.8933806189009,
positions.xlsx,stimuli.xlsx,stimuli/Social2.png,stimuli/Social1.png,stimuli/Nonsocial2.png,stimuli/Nonsocial1.png,,"(0.7, 0.5)",cs_plus_ns,,,,,0,0,0,0,,,,,,,,,1,8,24,10,,,,,,,,,,,,,,,,,,,,,3070.4142534998246,135,none,0,,,3075.421003599884,,,,,,,,48,D,2024-01-12_11h15.40.244,gca_avoidance_task,2022.2.4,143.8933806189009,
positions.xlsx,stimuli.xlsx,stimuli/Social2.png,stimuli/Social1.png,stimuli/Nonsocial2.png,stimuli/Nonsocial1.png,,"(-0.7, -0.5)",cs_minus_ns,,,,,0,0,0,0,,,,,,,,,1,9,25,13,,,,,,,,,,,,,,,,,,,,,3085.6289073999505,140,reward,1,0.5215312999207526,0.5215356000699103,3086.1567126999144,,,,,,,,48,D,2024-01-12_11h15.40.244,gca_avoidance_task,2022.2.4,143.8933806189009,
positions.xlsx,stimuli.xlsx,stimuli/Social2.png,stimuli/Social1.png,stimuli/Nonsocial2.png,stimuli/Nonsocial1.png,,"(-0.7, 0.5)",cs_plus_s,,,,,0,0,0,0,,,,,,,,,1,10,26,0,,,,,,,,,,,,,,,,,,,,,3095.496587399859,140,none,0,,,3100.503338899929,,,,,,,,48,D,2024-01-12_11h15.40.244,gca_avoidance_task,2022.2.4,143.8933806189009,
positions.xlsx,stimuli.xlsx,stimuli/Social2.png,stimuli/Social1.png,stimuli/Nonsocial2.png,stimuli/Nonsocial1.png,,"(0.7, -0.5)",cs_plus_s,,,,,0,0,0,0,,,,,,,,,1,11,27,3,,,,,,,,,,,,,,,,,,,,,3109.412712899968,140,none,0,,,3114.419445899781,,,,,,,,48,D,2024-01-12_11h15.40.244,gca_avoidance_task,2022.2.4,143.8933806189009,
positions.xlsx,stimuli.xlsx,stimuli/Social2.png,stimuli/Social1.png,stimuli/Nonsocial2.png,stimuli/Nonsocial1.png,,"(0.7, 0.5)",cs_minus_s,,,,,0,0,0,0,,,,,,,,,1,12,28,6,,,,,,,,,,,,,,,,,,,,,3123.8079402998555,145,reward,1,0.8060369999147952,0.8060411000624299,3124.620427499991,,,,,,,,48,D,2024-01-12_11h15.40.244,gca_avoidance_task,2022.2.4,143.8933806189009,
positions.xlsx,stimuli.xlsx,stimuli/Social2.png,stimuli/Social1.png,stimuli/Nonsocial2.png,stimuli/Nonsocial1.png,,"(0.7, -0.5)",cs_minus_ns,,,,,0,0,0,0,,,,,,,,,1,13,29,15,,,,,,,,,,,,,,,,,,,,,3134.286733799847,150,reward,1,0.6457960000261664,0.6458000999409705,3134.939455299871,,,,,,,,48,D,2024-01-12_11h15.40.244,gca_avoidance_task,2022.2.4,143.8933806189009,
positions.xlsx,stimuli.xlsx,stimuli/Social2.png,stimuli/Social1.png,stimuli/Nonsocial2.png,stimuli/Nonsocial1.png,,"(0.7, 0.5)",cs_minus_ns,,,,,0,0,0,0,,,,,,,,,1,14,30,14,,,,,,,,,,,,,,,,,,,,,3145.15432099998,155,reward,1,0.47951869992539287,0.4795226000715047,3145.6404629999306,,,,,,,,48,D,2024-01-12_11h15.40.244,gca_avoidance_task,2022.2.4,143.8933806189009,
positions.xlsx,stimuli.xlsx,stimuli/Social2.png,stimuli/Social1.png,stimuli/Nonsocial2.png,stimuli/Nonsocial1.png,,"(-0.7, 0.5)",cs_minus_ns,,,,,0,0,0,0,,,,,,,,,1,15,31,12,,,,,,,,,,,,,,,,,,,,,3154.758094599936,160,reward,1,0.5209319000132382,0.5209359000436962,3155.2858870998025,,,,,,,,48,D,2024-01-12_11h15.40.244,gca_avoidance_task,2022.2.4,143.8933806189009,
positions.xlsx,stimuli.xlsx,stimuli/Social2.png,stimuli/Social1.png,stimuli/Nonsocial2.png,stimuli/Nonsocial1.png,,"(0.7, 0.5)",cs_minus_ns,,,,,0,0,0,0,,,,,,,,,2,0,32,14,,,,,,,,,,,,,,,,,,,,,3164.8549190999474,165,reward,1,0.4582593999803066,0.4582634000107646,3165.32018579985,,,,,,,,48,D,2024-01-12_11h15.40.244,gca_avoidance_task,2022.2.4,143.8933806189009,
positions.xlsx,stimuli.xlsx,stimuli/Social2.png,stimuli/Social1.png,stimuli/Nonsocial2.png,stimuli/Nonsocial1.png,,"(-0.7, -0.5)",cs_minus_s,,,,,0,0,0,0,,,,,,,,,2,1,33,5,,,,,,,,,,,,,,,,,,,,,3174.8614694999997,170,reward,1,0.6460971999913454,0.6461013001389802,3175.5142361999024,,,,,,,,48,D,2024-01-12_11h15.40.244,gca_avoidance_task,2022.2.4,143.8933806189009,
positions.xlsx,stimuli.xlsx,stimuli/Social2.png,stimuli/Social1.png,stimuli/Nonsocial2.png,stimuli/Nonsocial1.png,,"(-0.7, -0.5)",cs_plus_ns,,,,,0,0,0,0,,,,,,,,,2,2,34,9,,,,,,,,,,,,,,,,,,,,,3185.243020299822,170,none,0,,,3190.2497650999576,,,,,,,,48,D,2024-01-12_11h15.40.244,gca_avoidance_task,2022.2.4,143.8933806189009,
positions.xlsx,stimuli.xlsx,stimuli/Social2.png,stimuli/Social1.png,stimuli/Nonsocial2.png,stimuli/Nonsocial1.png,,"(0.7, -0.5)",cs_plus_ns,,,,,0,0,0,0,,,,,,,,,2,3,35,11,,,,,,,,,,,,,,,,,,,,,3199.756307499949,170,none,0,,,3204.7630446997937,,,,,,,,48,D,2024-01-12_11h15.40.244,gca_avoidance_task,2022.2.4,143.8933806189009,
positions.xlsx,stimuli.xlsx,stimuli/Social2.png,stimuli/Social1.png,stimuli/Nonsocial2.png,stimuli/Nonsocial1.png,,"(-0.7, 0.5)",cs_plus_ns,,,,,0,0,0,0,,,,,,,,,2,4,36,8,,,,,,,,,,,,,,,,,,,,,3214.158501499798,170,none,0,,,3219.1652458999306,,,,,,,,48,D,2024-01-12_11h15.40.244,gca_avoidance_task,2022.2.4,143.8933806189009,
positions.xlsx,stimuli.xlsx,stimuli/Social2.png,stimuli/Social1.png,stimuli/Nonsocial2.png,stimuli/Nonsocial1.png,,"(-0.7, -0.5)",cs_minus_ns,,,,,0,0,0,0,,,,,,,,,2,5,37,13,,,,,,,,,,,,,,,,,,,,,3228.9843113999814,175,reward,1,0.5905816999729723,0.5905859000049531,3229.5815464998595,,,,,,,,48,D,2024-01-12_11h15.40.244,gca_avoidance_task,2022.2.4,143.8933806189009,
positions.xlsx,stimuli.xlsx,stimuli/Social2.png,stimuli/Social1.png,stimuli/Nonsocial2.png,stimuli/Nonsocial1.png,,"(0.7, 0.5)",cs_plus_s,,,,,0,0,0,0,,,,,,,,,2,6,38,2,,,,,,,,,,,,,,,,,,,,,3239.1366697999183,175,none,0,,,3244.1434406999033,,,,,,,,48,D,2024-01-12_11h15.40.244,gca_avoidance_task,2022.2.4,143.8933806189009,
positions.xlsx,stimuli.xlsx,stimuli/Social2.png,stimuli/Social1.png,stimuli/Nonsocial2.png,stimuli/Nonsocial1.png,,"(0.7, -0.5)",cs_plus_s,,,,,0,0,0,0,,,,,,,,,2,7,39,3,,,,,,,,,,,,,,,,,,,,,3254.101373099955,175,none,0,,,3259.108082199935,,,,,,,,48,D,2024-01-12_11h15.40.244,gca_avoidance_task,2022.2.4,143.8933806189009,
positions.xlsx,stimuli.xlsx,stimuli/Social2.png,stimuli/Social1.png,stimuli/Nonsocial2.png,stimuli/Nonsocial1.png,,"(-0.7, 0.5)",cs_plus_s,,,,,0,0,0,0,,,,,,,,,2,8,40,0,,,,,,,,,,,,,,,,,,,,,3269.0313157998025,175,none,0,,,3274.0381249999627,,,,,,,,48,D,2024-01-12_11h15.40.244,gca_avoidance_task,2022.2.4,143.8933806189009,
positions.xlsx,stimuli.xlsx,stimuli/Social2.png,stimuli/Social1.png,stimuli/Nonsocial2.png,stimuli/Nonsocial1.png,,"(-0.7, -0.5)",cs_plus_s,,,,,0,0,0,0,,,,,,,,,2,9,41,1,,,,,,,,,,,,,,,,,,,,,3283.426563799847,175,none,0,,,3288.4333120998926,,,,,,,,48,D,2024-01-12_11h15.40.244,gca_avoidance_task,2022.2.4,143.8933806189009,
positions.xlsx,stimuli.xlsx,stimuli/Social2.png,stimuli/Social1.png,stimuli/Nonsocial2.png,stimuli/Nonsocial1.png,,"(-0.7, 0.5)",cs_minus_s,,,,,0,0,0,0,,,,,,,,,2,10,42,4,,,,,,,,,,,,,,,,,,,,,3297.4884925999213,180,reward,1,0.5207968999166042,0.5208012000657618,3298.0163029998075,,,,,,,,48,D,2024-01-12_11h15.40.244,gca_avoidance_task,2022.2.4,143.8933806189009,
positions.xlsx,stimuli.xlsx,stimuli/Social2.png,stimuli/Social1.png,stimuli/Nonsocial2.png,stimuli/Nonsocial1.png,,"(-0.7, 0.5)",cs_minus_ns,,,,,0,0,0,0,,,,,,,,,2,11,43,12,,,,,,,,,,,,,,,,,,,,,3307.5367347998545,185,reward,1,0.7013360999990255,0.7013403999153525,3308.2450958997943,,,,,,,,48,D,2024-01-12_11h15.40.244,gca_avoidance_task,2022.2.4,143.8933806189009,
positions.xlsx,stimuli.xlsx,stimuli/Social2.png,stimuli/Social1.png,stimuli/Nonsocial2.png,stimuli/Nonsocial1.png,,"(0.7, -0.5)",cs_minus_s,,,,,0,0,0,0,,,,,,,,,2,12,44,7,,,,,,,,,,,,,,,,,,,,,3317.7237985997926,190,reward,1,0.6808531999122351,0.6808569999411702,3318.411288099829,,,,,,,,48,D,2024-01-12_11h15.40.244,gca_avoidance_task,2022.2.4,143.8933806189009,
positions.xlsx,stimuli.xlsx,stimuli/Social2.png,stimuli/Social1.png,stimuli/Nonsocial2.png,stimuli/Nonsocial1.png,,"(0.7, 0.5)",cs_plus_ns,,,,,0,0,0,0,,,,,,,,,2,13,45,10,,,,,,,,,,,,,,,,,,,,,3327.7511603999883,190,none,0,,,3332.7579366997816,,,,,,,,48,D,2024-01-12_11h15.40.244,gca_avoidance_task,2022.2.4,143.8933806189009,
positions.xlsx,stimuli.xlsx,stimuli/Social2.png,stimuli/Social1.png,stimuli/Nonsocial2.png,stimuli/Nonsocial1.png,,"(0.7, -0.5)",cs_minus_ns,,,,,0,0,0,0,,,,,,,,,2,14,46,15,,,,,,,,,,,,,,,,,,,,,3341.945057499921,195,reward,1,0.6045357999391854,0.6045403000898659,3342.5561577999033,,,,,,,,48,D,2024-01-12_11h15.40.244,gca_avoidance_task,2022.2.4,143.8933806189009,
positions.xlsx,stimuli.xlsx,stimuli/Social2.png,stimuli/Social1.png,stimuli/Nonsocial2.png,stimuli/Nonsocial1.png,,"(0.7, 0.5)",cs_minus_s,,,,,0,0,0,0,,,,,,,,,2,15,47,6,,,,,,,,,,,,,,,,,,,,,3352.6321557997726,200,reward,1,0.5556294000707567,0.5556336001027375,3353.1946369998623,,,,,,,,48,D,2024-01-12_11h15.40.244,gca_avoidance_task,2022.2.4,143.8933806189009,
positions.xlsx,stimuli.xlsx,stimuli/Social2.png,stimuli/Social1.png,stimuli/Nonsocial2.png,stimuli/Nonsocial1.png,,"(-0.7, 0.5)",cs_plus_s,,,,,0,0,0,0,,,,,,,,,3,0,48,0,,,,,,,,,,,,,,,,,,,,,3361.909540799912,200,none,0,,,3366.916289499961,,,,,,,,48,D,2024-01-12_11h15.40.244,gca_avoidance_task,2022.2.4,143.8933806189009,
positions.xlsx,stimuli.xlsx,stimuli/Social2.png,stimuli/Social1.png,stimuli/Nonsocial2.png,stimuli/Nonsocial1.png,,"(0.7, -0.5)",cs_plus_ns,,,,,0,0,0,0,,,,,,,,,3,1,49,11,,,,,,,,,,,,,,,,,,,,,3376.4922899999656,200,none,0,,,3381.4990890999325,,,,,,,,48,D,2024-01-12_11h15.40.244,gca_avoidance_task,2022.2.4,143.8933806189009,
positions.xlsx,stimuli.xlsx,stimuli/Social2.png,stimuli/Social1.png,stimuli/Nonsocial2.png,stimuli/Nonsocial1.png,,"(0.7, 0.5)",cs_minus_ns,,,,,0,0,0,0,,,,,,,,,3,2,50,14,,,,,,,,,,,,,,,,,,,,,3390.748689299915,205,reward,1,0.5489508998580277,0.5489550000056624,3391.3042262999807,,,,,,,,48,D,2024-01-12_11h15.40.244,gca_avoidance_task,2022.2.4,143.8933806189009,
positions.xlsx,stimuli.xlsx,stimuli/Social2.png,stimuli/Social1.png,stimuli/Nonsocial2.png,stimuli/Nonsocial1.png,,"(0.7, 0.5)",cs_minus_s,,,,,0,0,0,0,,,,,,,,,3,3,51,6,,,,,,,,,,,,,,,,,,,,,3400.678829099983,210,reward,1,0.44475380005314946,0.44475780008360744,3401.130236899946,,,,,,,,48,D,2024-01-12_11h15.40.244,gca_avoidance_task,2022.2.4,143.8933806189009,
positions.xlsx,stimuli.xlsx,stimuli/Social2.png,stimuli/Social1.png,stimuli/Nonsocial2.png,stimuli/Nonsocial1.png,,"(-0.7, -0.5)",cs_plus_ns,,,,,0,0,0,0,,,,,,,,,3,4,52,9,,,,,,,,,,,,,,,,,,,,,3410.463169499999,210,shock,1,0.215491299983114,0.21549510001204908,3410.685348099796,,,,,,,,48,D,2024-01-12_11h15.40.244,gca_avoidance_task,2022.2.4,143.8933806189009,
positions.xlsx,stimuli.xlsx,stimuli/Social2.png,stimuli/Social1.png,stimuli/Nonsocial2.png,stimuli/Nonsocial1.png,,"(-0.7, 0.5)",cs_minus_ns,,,,,0,0,0,0,,,,,,,,,3,5,53,12,,,,,,,,,,,,,,,,,,,,,3420.566984299803,215,reward,1,0.5417810000944883,0.5417852001264691,3421.1155452998355,,,,,,,,48,D,2024-01-12_11h15.40.244,gca_avoidance_task,2022.2.4,143.8933806189009,
positions.xlsx,stimuli.xlsx,stimuli/Social2.png,stimuli/Social1.png,stimuli/Nonsocial2.png,stimuli/Nonsocial1.png,,"(-0.7, 0.5)",cs_plus_ns,,,,,0,0,0,0,,,,,,,,,3,6,54,8,,,,,,,,,,,,,,,,,,,,,3430.358169299783,215,none,0,,,3435.364941699896,,,,,,,,48,D,2024-01-12_11h15.40.244,gca_avoidance_task,2022.2.4,143.8933806189009,
positions.xlsx,stimuli.xlsx,stimuli/Social2.png,stimuli/Social1.png,stimuli/Nonsocial2.png,stimuli/Nonsocial1.png,,"(0.7, -0.5)",cs_minus_s,,,,,0,0,0,0,,,,,,,,,3,7,55,7,,,,,,,,,,,,,,,,,,,,,3445.2117757999804,220,reward,1,0.8891847000923008,0.889188600005582,3446.107630399987,,,,,,,,48,D,2024-01-12_11h15.40.244,gca_avoidance_task,2022.2.4,143.8933806189009,
positions.xlsx,stimuli.xlsx,stimuli/Social2.png,stimuli/Social1.png,stimuli/Nonsocial2.png,stimuli/Nonsocial1.png,,"(-0.7, -0.5)",cs_minus_ns,,,,,0,0,0,0,,,,,,,,,3,8,56,13,,,,,,,,,,,,,,,,,,,,,3455.496085999999,225,reward,1,0.5696466998197138,0.5696510998532176,3456.072486099787,,,,,,,,48,D,2024-01-12_11h15.40.244,gca_avoidance_task,2022.2.4,143.8933806189009,
positions.xlsx,stimuli.xlsx,stimuli/Social2.png,stimuli/Social1.png,stimuli/Nonsocial2.png,stimuli/Nonsocial1.png,,"(0.7, -0.5)",cs_plus_s,,,,,0,0,0,0,,,,,,,,,3,9,57,3,,,,,,,,,,,,,,,,,,,,,3465.280435799854,225,none,0,,,3470.2871587998234,,,,,,,,48,D,2024-01-12_11h15.40.244,gca_avoidance_task,2022.2.4,143.8933806189009,
positions.xlsx,stimuli.xlsx,stimuli/Social2.png,stimuli/Social1.png,stimuli/Nonsocial2.png,stimuli/Nonsocial1.png,,"(-0.7, -0.5)",cs_minus_s,,,,,0,0,0,0,,,,,,,,,3,10,58,5,,,,,,,,,,,,,,,,,,,,,3480.5367652999703,230,reward,1,0.6045111001003534,0.6045154000166804,3481.1478388998657,,,,,,,,48,D,2024-01-12_11h15.40.244,gca_avoidance_task,2022.2.4,143.8933806189009,
positions.xlsx,stimuli.xlsx,stimuli/Social2.png,stimuli/Social1.png,stimuli/Nonsocial2.png,stimuli/Nonsocial1.png,,"(-0.7, -0.5)",cs_plus_s,,,,,0,0,0,0,,,,,,,,,3,11,59,1,,,,,,,,,,,,,,,,,,,,,3490.6266295998357,230,none,0,,,3495.6333949998952,,,,,,,,48,D,2024-01-12_11h15.40.244,gca_avoidance_task,2022.2.4,143.8933806189009,
positions.xlsx,stimuli.xlsx,stimuli/Social2.png,stimuli/Social1.png,stimuli/Nonsocial2.png,stimuli/Nonsocial1.png,,"(0.7, 0.5)",cs_plus_ns,,,,,0,0,0,0,,,,,,,,,3,12,60,10,,,,,,,,,,,,,,,,,,,,,3505.4385627999436,230,none,0,,,3510.4452802999876,,,,,,,,48,D,2024-01-12_11h15.40.244,gca_avoidance_task,2022.2.4,143.8933806189009,
positions.xlsx,stimuli.xlsx,stimuli/Social2.png,stimuli/Social1.png,stimuli/Nonsocial2.png,stimuli/Nonsocial1.png,,"(-0.7, 0.5)",cs_minus_s,,,,,0,0,0,0,,,,,,,,,3,13,61,4,,,,,,,,,,,,,,,,,,,,,3520.6184948999435,235,reward,1,0.5764758000150323,0.5764800999313593,3521.20181579981,,,,,,,,48,D,2024-01-12_11h15.40.244,gca_avoidance_task,2022.2.4,143.8933806189009,
positions.xlsx,stimuli.xlsx,stimuli/Social2.png,stimuli/Social1.png,stimuli/Nonsocial2.png,stimuli/Nonsocial1.png,,"(0.7, 0.5)",cs_plus_s,,,,,0,0,0,0,,,,,,,,,3,14,62,2,,,,,,,,,,,,,,,,,,,,,3531.270844699815,235,none,0,,,3536.277599299792,,,,,,,,48,D,2024-01-12_11h15.40.244,gca_avoidance_task,2022.2.4,143.8933806189009,
positions.xlsx,stimuli.xlsx,stimuli/Social2.png,stimuli/Social1.png,stimuli/Nonsocial2.png,stimuli/Nonsocial1.png,,"(0.7, -0.5)",cs_minus_ns,,,,,0,0,0,0,,,,,,,,,3,15,63,15,,,,,,,,,,,,,,,,,,,,,3546.0202518999577,240,reward,1,0.576557100052014,0.576561399968341,3546.6035805998836,,,,,,,,48,D,2024-01-12_11h15.40.244,gca_avoidance_task,2022.2.4,143.8933806189009,
positions.xlsx,stimuli.xlsx,stimuli/Social2.png,stimuli/Social1.png,stimuli/Nonsocial2.png,stimuli/Nonsocial1.png,,"(0.7, -0.5)",cs_minus_ns,,,,,0,0,0,0,,,,,,,,,4,0,64,15,,,,,,,,,,,,,,,,,,,,,3555.131012799917,245,reward,1,0.4297736999578774,0.4366903000045568,3555.5754380999133,,,,,,,,48,D,2024-01-12_11h15.40.244,gca_avoidance_task,2022.2.4,143.8933806189009,
positions.xlsx,stimuli.xlsx,stimuli/Social2.png,stimuli/Social1.png,stimuli/Nonsocial2.png,stimuli/Nonsocial1.png,,"(0.7, 0.5)",cs_minus_ns,,,,,0,0,0,0,,,,,,,,,4,1,65,14,,,,,,,,,,,,,,,,,,,,,3565.1236616999377,250,reward,1,0.40960339992307127,0.4165342999622226,3565.5472728998866,,,,,,,,48,D,2024-01-12_11h15.40.244,gca_avoidance_task,2022.2.4,143.8933806189009,
positions.xlsx,stimuli.xlsx,stimuli/Social2.png,stimuli/Social1.png,stimuli/Nonsocial2.png,stimuli/Nonsocial1.png,,"(-0.7, -0.5)",cs_minus_s,,,,,0,0,0,0,,,,,,,,,4,2,66,5,,,,,,,,,,,,,,,,,,,,,3574.7969101998024,255,reward,1,0.49971200013533235,0.49971590004861355,3575.3038184999023,,,,,,,,48,D,2024-01-12_11h15.40.244,gca_avoidance_task,2022.2.4,143.8933806189009,
positions.xlsx,stimuli.xlsx,stimuli/Social2.png,stimuli/Social1.png,stimuli/Nonsocial2.png,stimuli/Nonsocial1.png,,"(-0.7, 0.5)",cs_plus_s,,,,,0,0,0,0,,,,,,,,,4,3,67,0,,,,,,,,,,,,,,,,,,,,,3584.907590799965,255,none,0,,,3589.9143359998707,,,,,,,,48,D,2024-01-12_11h15.40.244,gca_avoidance_task,2022.2.4,143.8933806189009,
positions.xlsx,stimuli.xlsx,stimuli/Social2.png,stimuli/Social1.png,stimuli/Nonsocial2.png,stimuli/Nonsocial1.png,,"(-0.7, 0.5)",cs_minus_s,,,,,0,0,0,0,,,,,,,,,4,4,68,4,,,,,,,,,,,,,,,,,,,,,3599.865334799979,260,reward,1,0.5145215999800712,0.5145258998963982,3600.386195299914,,,,,,,,48,D,2024-01-12_11h15.40.244,gca_avoidance_task,2022.2.4,143.8933806189009,
positions.xlsx,stimuli.xlsx,stimuli/Social2.png,stimuli/Social1.png,stimuli/Nonsocial2.png,stimuli/Nonsocial1.png,,"(0.7, 0.5)",cs_plus_ns,,,,,0,0,0,0,,,,,,,,,4,5,69,10,,,,,,,,,,,,,,,,,,,,,3609.337199699832,260,none,0,,,3614.34392509982,,,,,,,,48,D,2024-01-12_11h15.40.244,gca_avoidance_task,2022.2.4,143.8933806189009,
positions.xlsx,stimuli.xlsx,stimuli/Social2.png,stimuli/Social1.png,stimuli/Nonsocial2.png,stimuli/Nonsocial1.png,,"(-0.7, -0.5)",cs_plus_ns,,,,,0,0,0,0,,,,,,,,,4,6,70,9,,,,,,,,,,,,,,,,,,,,,3623.1907740999013,260,none,0,,,3628.1975480997935,,,,,,,,48,D,2024-01-12_11h15.40.244,gca_avoidance_task,2022.2.4,143.8933806189009,
positions.xlsx,stimuli.xlsx,stimuli/Social2.png,stimuli/Social1.png,stimuli/Nonsocial2.png,stimuli/Nonsocial1.png,,"(0.7, -0.5)",cs_plus_ns,,,,,0,0,0,0,,,,,,,,,4,7,71,11,,,,,,,,,,,,,,,,,,,,,3637.8290880999994,260,none,0,,,3642.835853499826,,,,,,,,48,D,2024-01-12_11h15.40.244,gca_avoidance_task,2022.2.4,143.8933806189009,
positions.xlsx,stimuli.xlsx,stimuli/Social2.png,stimuli/Social1.png,stimuli/Nonsocial2.png,stimuli/Nonsocial1.png,,"(0.7, -0.5)",cs_plus_s,,,,,0,0,0,0,,,,,,,,,4,8,72,3,,,,,,,,,,,,,,,,,,,,,3651.8771440999117,260,none,0,,,3656.8839336999226,,,,,,,,48,D,2024-01-12_11h15.40.244,gca_avoidance_task,2022.2.4,143.8933806189009,
positions.xlsx,stimuli.xlsx,stimuli/Social2.png,stimuli/Social1.png,stimuli/Nonsocial2.png,stimuli/Nonsocial1.png,,"(-0.7, 0.5)",cs_minus_ns,,,,,0,0,0,0,,,,,,,,,4,9,73,12,,,,,,,,,,,,,,,,,,,,,3666.0641023998614,265,reward,1,0.6254644999280572,0.6254687998443842,3666.6960271999706,,,,,,,,48,D,2024-01-12_11h15.40.244,gca_avoidance_task,2022.2.4,143.8933806189009,
positions.xlsx,stimuli.xlsx,stimuli/Social2.png,stimuli/Social1.png,stimuli/Nonsocial2.png,stimuli/Nonsocial1.png,,"(0.7, -0.5)",cs_minus_s,,,,,0,0,0,0,,,,,,,,,4,10,74,7,,,,,,,,,,,,,,,,,,,,,3675.626209799899,270,reward,1,0.6737811998464167,0.6737853998783976,3676.3067577998154,,,,,,,,48,D,2024-01-12_11h15.40.244,gca_avoidance_task,2022.2.4,143.8933806189009,
positions.xlsx,stimuli.xlsx,stimuli/Social2.png,stimuli/Social1.png,stimuli/Nonsocial2.png,stimuli/Nonsocial1.png,,"(-0.7, -0.5)",cs_plus_s,,,,,0,0,0,0,,,,,,,,,4,11,75,1,,,,,,,,,,,,,,,,,,,,,3686.0910951998085,270,none,0,,,3691.0978264999576,,,,,,,,48,D,2024-01-12_11h15.40.244,gca_avoidance_task,2022.2.4,143.8933806189009,
positions.xlsx,stimuli.xlsx,stimuli/Social2.png,stimuli/Social1.png,stimuli/Nonsocial2.png,stimuli/Nonsocial1.png,,"(0.7, 0.5)",cs_plus_s,,,,,0,0,0,0,,,,,,,,,4,12,76,2,,,,,,,,,,,,,,,,,,,,,3700.3891113998834,270,none,0,,,3705.395902399905,,,,,,,,48,D,2024-01-12_11h15.40.244,gca_avoidance_task,2022.2.4,143.8933806189009,
positions.xlsx,stimuli.xlsx,stimuli/Social2.png,stimuli/Social1.png,stimuli/Nonsocial2.png,stimuli/Nonsocial1.png,,"(0.7, 0.5)",cs_minus_s,,,,,0,0,0,0,,,,,,,,,4,13,77,6,,,,,,,,,,,,,,,,,,,,,3715.076025399845,275,reward,1,0.5974572000559419,0.5974614999722689,3715.680156499846,,,,,,,,48,D,2024-01-12_11h15.40.244,gca_avoidance_task,2022.2.4,143.8933806189009,
positions.xlsx,stimuli.xlsx,stimuli/Social2.png,stimuli/Social1.png,stimuli/Nonsocial2.png,stimuli/Nonsocial1.png,,"(-0.7, -0.5)",cs_minus_ns,,,,,0,0,0,0,,,,,,,,,4,14,78,13,,,,,,,,,,,,,,,,,,,,,3724.7284088998567,280,reward,1,0.5279924001079053,0.5279966001398861,3725.2631114998367,,,,,,,,48,D,2024-01-12_11h15.40.244,gca_avoidance_task,2022.2.4,143.8933806189009,
positions.xlsx,stimuli.xlsx,stimuli/Social2.png,stimuli/Social1.png,stimuli/Nonsocial2.png,stimuli/Nonsocial1.png,,"(-0.7, 0.5)",cs_plus_ns,,,,,0,0,0,0,,,,,,,,,4,15,79,8,,,,,,,,,,,,,,,,,,,,,3734.5753057999536,280,none,0,,,3739.5820342998486,,,,,,,,48,D,2024-01-12_11h15.40.244,gca_avoidance_task,2022.2.4,143.8933806189009,
positions.xlsx,stimuli.xlsx,stimuli/Social2.png,stimuli/Social1.png,stimuli/Nonsocial2.png,stimuli/Nonsocial1.png,cs_plus_ns,,,,,,,0,0,0,0,,,,,,,,,,,,,0,0,0,1,,,,,,,,,,,,,3756.143873399822,3.0,6.711088899988681,,,,,,,,,4.0,7.923682400025427,,,,,,48,D,2024-01-12_11h15.40.244,gca_avoidance_task,2022.2.4,143.8933806189009,
positions.xlsx,stimuli.xlsx,stimuli/Social2.png,stimuli/Social1.png,stimuli/Nonsocial2.png,stimuli/Nonsocial1.png,cs_plus_s,,,,,,,0,0,0,0,,,,,,,,,,,,,0,1,1,0,,,,,,,,,,,,,3763.664389499929,3.0,1.4732715000864118,,,,,,,,,,,,,,,,48,D,2024-01-12_11h15.40.244,gca_avoidance_task,2022.2.4,143.8933806189009,
positions.xlsx,stimuli.xlsx,stimuli/Social2.png,stimuli/Social1.png,stimuli/Nonsocial2.png,stimuli/Nonsocial1.png,cs_minus_ns,,,,,,,0,0,0,0,,,,,,,,,,,,,0,2,2,3,,,,,,,,,,,,,3765.7824038998224,10.0,2.07040199986659,,,,,,,,,,,,,,,,48,D,2024-01-12_11h15.40.244,gca_avoidance_task,2022.2.4,143.8933806189009,
positions.xlsx,stimuli.xlsx,stimuli/Social2.png,stimuli/Social1.png,stimuli/Nonsocial2.png,stimuli/Nonsocial1.png,cs_minus_s,,,,,,,0,0,0,0,,,,,,,,,,,,,0,3,3,2,,,,,,,,,,,,,3768.5808720998466,10.0,2.3898811999242753,,,,,,,,,,,,,,,,48,D,2024-01-12_11h15.40.244,gca_avoidance_task,2022.2.4,143.8933806189009,
positions.xlsx,stimuli.xlsx,stimuli/Social2.png,stimuli/Social1.png,stimuli/Nonsocial2.png,stimuli/Nonsocial1.png,cs_minus_ns,,,,,,,0,0,0,0,,,,,,,,,,,,,,,,,0,0,0,3,,,,,,,,,,,,,,,,,,,,,,3771.6779827999417,3777.2471505999565,1,0.02221349999308586,9.99965520016849,48,D,2024-01-12_11h15.40.244,gca_avoidance_task,2022.2.4,143.8933806189009,
positions.xlsx,stimuli.xlsx,stimuli/Social2.png,stimuli/Social1.png,stimuli/Nonsocial2.png,stimuli/Nonsocial1.png,cs_minus_s,,,,,,,0,0,0,0,,,,,,,,,,,,,,,,,0,1,1,2,,,,,,,,,,,,,,,,,,,,,,,3792.6076793998946,1,0.013239399995654821,9.999945600051433,48,D,2024-01-12_11h15.40.244,gca_avoidance_task,2022.2.4,143.8933806189009,
positions.xlsx,stimuli.xlsx,stimuli/Social2.png,stimuli/Social1.png,stimuli/Nonsocial2.png,stimuli/Nonsocial1.png,cs_plus_s,,,,,,,0,0,0,0,,,,,,,,,,,,,,,,,0,2,2,0,,,,,,,,,,,,,,,,,,,,,,,3807.308482899796,1,0.01339520001783967,9.999944200040773,48,D,2024-01-12_11h15.40.244,gca_avoidance_task,2022.2.4,143.8933806189009,
positions.xlsx,stimuli.xlsx,stimuli/Social2.png,stimuli/Social1.png,stimuli/Nonsocial2.png,stimuli/Nonsocial1.png,cs_plus_ns,,,,,,,0,0,0,0,,,,,,,,,,,,,,,,,0,3,3,1,,,,,,,,,,,,,,,,,,,,,,,3821.9815262998454,1,0.0143994998652488,10.000135899987072,48,D,2024-01-12_11h15.40.244,gca_avoidance_task,2022.2.4,143.8933806189009,
positions.xlsx,stimuli.xlsx,stimuli/Social2.png,stimuli/Social1.png,stimuli/Nonsocial2.png,stimuli/Nonsocial1.png,cs_plus_s,,,,,,,0,0,0,0,,,,,,,,,,,,,,,,,1,0,4,0,,,,,,,,,,,,,,,,,,,,,,,3836.6267824999522,1,0.013528299983590841,9.999995299847797,48,D,2024-01-12_11h15.40.244,gca_avoidance_task,2022.2.4,143.8933806189009,
positions.xlsx,stimuli.xlsx,stimuli/Social2.png,stimuli/Social1.png,stimuli/Nonsocial2.png,stimuli/Nonsocial1.png,cs_minus_s,,,,,,,0,0,0,0,,,,,,,,,,,,,,,,,1,1,5,2,,,,,,,,,,,,,,,,,,,,,,,3851.1400861998554,1,0.013504700036719441,10.00003380002454,48,D,2024-01-12_11h15.40.244,gca_avoidance_task,2022.2.4,143.8933806189009,
positions.xlsx,stimuli.xlsx,stimuli/Social2.png,stimuli/Social1.png,stimuli/Nonsocial2.png,stimuli/Nonsocial1.png,cs_minus_ns,,,,,,,0,0,0,0,,,,,,,,,,,,,,,,,1,2,6,3,,,,,,,,,,,,,,,,,,,,,,,3865.6742228998337,3,0.014419599901884794,3.715493700001389,48,D,2024-01-12_11h15.40.244,gca_avoidance_task,2022.2.4,143.8933806189009,
positions.xlsx,stimuli.xlsx,stimuli/Social2.png,stimuli/Social1.png,stimuli/Nonsocial2.png,stimuli/Nonsocial1.png,cs_plus_ns,,,,,,,0,0,0,0,,,,,,,,,,,,,,,,,1,3,7,1,,,,,,,,,,,,,,,,,,,,,,,3880.583321899874,4,0.014702399959787726,4.840593999950215,48,D,2024-01-12_11h15.40.244,gca_avoidance_task,2022.2.4,143.8933806189009,
positions.xlsx,stimuli.xlsx,stimuli/Social2.png,stimuli/Social1.png,stimuli/Nonsocial2.png,stimuli/Nonsocial1.png,cs_minus_ns,,,,,,,0,0,0,0,,,,,,,,,,,,,,,,,2,0,8,3,,,,,,,,,,,,,,,,,,,,,,,3895.2077739997767,2,0.014016600092872977,7.138943700119853,48,D,2024-01-12_11h15.40.244,gca_avoidance_task,2022.2.4,143.8933806189009,
positions.xlsx,stimuli.xlsx,stimuli/Social2.png,stimuli/Social1.png,stimuli/Nonsocial2.png,stimuli/Nonsocial1.png,cs_plus_s,,,,,,,0,0,0,0,,,,,,,,,,,,,,,,,2,1,9,0,,,,,,,,,,,,,,,,,,,,,,,3910.019677899778,4,0.01553330011665821,1.250365500105545,48,D,2024-01-12_11h15.40.244,gca_avoidance_task,2022.2.4,143.8933806189009,
positions.xlsx,stimuli.xlsx,stimuli/Social2.png,stimuli/Social1.png,stimuli/Nonsocial2.png,stimuli/Nonsocial1.png,cs_plus_ns,,,,,,,0,0,0,0,,,,,,,,,,,,,,,,,2,2,10,1,,,,,,,,,,,,,,,,,,,,,,,3924.8940754998475,6,0.014039300149306655,2.8195897999685258,48,D,2024-01-12_11h15.40.244,gca_avoidance_task,2022.2.4,143.8933806189009,
positions.xlsx,stimuli.xlsx,stimuli/Social2.png,stimuli/Social1.png,stimuli/Nonsocial2.png,stimuli/Nonsocial1.png,cs_minus_s,,,,,,,0,0,0,0,,,,,,,,,,,,,,,,,2,3,11,2,,,,,,,,,,,,,,,,,,,,,,,3939.7684696998913,2,0.013878599973395467,0.08383039990440011,48,D,2024-01-12_11h15.40.244,gca_avoidance_task,2022.2.4,143.8933806189009,
positions.xlsx,stimuli.xlsx,stimuli/Social2.png,stimuli/Social1.png,stimuli/Nonsocial2.png,stimuli/Nonsocial1.png,cs_minus_ns,,,,,,,0,0,0,0,,,,,,,,,,,,,,,,,3,0,12,3,,,,,,,,,,,,,,,,,,,,,,,3954.636001699837,5,0.014613799983635545,0.8337582999374717,48,D,2024-01-12_11h15.40.244,gca_avoidance_task,2022.2.4,143.8933806189009,
positions.xlsx,stimuli.xlsx,stimuli/Social2.png,stimuli/Social1.png,stimuli/Nonsocial2.png,stimuli/Nonsocial1.png,cs_plus_s,,,,,,,0,0,0,0,,,,,,,,,,,,,,,,,3,1,13,0,,,,,,,,,,,,,,,,,,,,,,,3969.6631783999037,3,0.015250700060278177,3.166933699976653,48,D,2024-01-12_11h15.40.244,gca_avoidance_task,2022.2.4,143.8933806189009,
positions.xlsx,stimuli.xlsx,stimuli/Social2.png,stimuli/Social1.png,stimuli/Nonsocial2.png,stimuli/Nonsocial1.png,cs_plus_ns,,,,,,,0,0,0,0,,,,,,,,,,,,,,,,,3,2,14,1,,,,,,,,,,,,,,,,,,,,,,,3985.1416915999725,6,0.0141807000618428,0.5696745999157429,48,D,2024-01-12_11h15.40.244,gca_avoidance_task,2022.2.4,143.8933806189009,
positions.xlsx,stimuli.xlsx,stimuli/Social2.png,stimuli/Social1.png,stimuli/Nonsocial2.png,stimuli/Nonsocial1.png,cs_minus_s,,,,,,,0,0,0,0,,,,,,,,,,,,,,,,,3,3,15,2,,,,,,,,,,,,,,,,,,,,,,,3999.974441799801,1,0.013419399969279766,10.000001000007614,48,D,2024-01-12_11h15.40.244,gca_avoidance_task,2022.2.4,143.8933806189009,
positions.xlsx,stimuli.xlsx,stimuli/Social2.png,stimuli/Social1.png,stimuli/Nonsocial2.png,stimuli/Nonsocial1.png,cs_plus_s,,,,,,,0,0,0,0,,,,,,,,,,,,,,,,,4,0,16,0,,,,,,,,,,,,,,,,,,,,,,,4015.147468399955,4,0.013493899954482913,2.7779119999613613,48,D,2024-01-12_11h15.40.244,gca_avoidance_task,2022.2.4,143.8933806189009,
positions.xlsx,stimuli.xlsx,stimuli/Social2.png,stimuli/Social1.png,stimuli/Nonsocial2.png,stimuli/Nonsocial1.png,cs_minus_ns,,,,,,,0,0,0,0,,,,,,,,,,,,,,,,,4,1,17,3,,,,,,,,,,,,,,,,,,,,,,,4029.7232740998734,1,0.01431209989823401,9.999980899970978,48,D,2024-01-12_11h15.40.244,gca_avoidance_task,2022.2.4,143.8933806189009,
positions.xlsx,stimuli.xlsx,stimuli/Social2.png,stimuli/Social1.png,stimuli/Nonsocial2.png,stimuli/Nonsocial1.png,cs_minus_s,,,,,,,0,0,0,0,,,,,,,,,,,,,,,,,4,2,18,2,,,,,,,,,,,,,,,,,,,,,,,4044.347691999981,1,0.014542000135406852,10.000178700080141,48,D,2024-01-12_11h15.40.244,gca_avoidance_task,2022.2.4,143.8933806189009,
positions.xlsx,stimuli.xlsx,stimuli/Social2.png,stimuli/Social1.png,stimuli/Nonsocial2.png,stimuli/Nonsocial1.png,cs_plus_ns,,,,,,,0,0,0,0,,,,,,,,,,,,,,,,,4,3,19,1,,,,,,,,,,,,,,,,,,,,,,,4059.4859404999297,1,0.014397900085896254,10.00004560011439,48,D,2024-01-12_11h15.40.244,gca_avoidance_task,2022.2.4,143.8933806189009,
positions.xlsx,stimuli.xlsx,stimuli/Social2.png,stimuli/Social1.png,stimuli/Nonsocial2.png,stimuli/Nonsocial1.png,cs_minus_s,,,,,,,0,0,0,0,,,,,,,,,,,,,,,,,5,0,20,2,,,,,,,,,,,,,,,,,,,,,,,4074.4437137998175,12,0.01412860001437366,0.5487673000898212,48,D,2024-01-12_11h15.40.244,gca_avoidance_task,2022.2.4,143.8933806189009,
positions.xlsx,stimuli.xlsx,stimuli/Social2.png,stimuli/Social1.png,stimuli/Nonsocial2.png,stimuli/Nonsocial1.png,cs_plus_s,,,,,,,0,0,0,0,,,,,,,,,,,,,,,,,5,1,21,0,,,,,,,,,,,,,,,,,,,,,,,4088.998694199836,6,0.013571999967098236,1.8198220001067966,48,D,2024-01-12_11h15.40.244,gca_avoidance_task,2022.2.4,143.8933806189009,
positions.xlsx,stimuli.xlsx,stimuli/Social2.png,stimuli/Social1.png,stimuli/Nonsocial2.png,stimuli/Nonsocial1.png,cs_plus_ns,,,,,,,0,0,0,0,,,,,,,,,,,,,,,,,5,2,22,1,,,,,,,,,,,,,,,,,,,,,,,4104.393952899845,2,0.014223900157958269,9.659758500056341,48,D,2024-01-12_11h15.40.244,gca_avoidance_task,2022.2.4,143.8933806189009,
positions.xlsx,stimuli.xlsx,stimuli/Social2.png,stimuli/Social1.png,stimuli/Nonsocial2.png,stimuli/Nonsocial1.png,cs_minus_ns,,,,,,,0,0,0,0,,,,,,,,,,,,,,,,,5,3,23,3,,,,,,,,,,,,,,,,,,,,,,,4119.469696799992,7,0.013955199858173728,2.514063299866393,48,D,2024-01-12_11h15.40.244,gca_avoidance_task,2022.2.4,143.8933806189009,
positions.xlsx,stimuli.xlsx,stimuli/Social2.png,stimuli/Social1.png,stimuli/Nonsocial2.png,stimuli/Nonsocial1.png,cs_plus_ns,,,,,,,0,0,0,0,,,,,,,,,,,,,,,,,6,0,24,1,,,,,,,,,,,,,,,,,,,,,,,4134.239958599908,2,0.07684409990906715,0.4378626998513937,48,D,2024-01-12_11h15.40.244,gca_avoidance_task,2022.2.4,143.8933806189009,
positions.xlsx,stimuli.xlsx,stimuli/Social2.png,stimuli/Social1.png,stimuli/Nonsocial2.png,stimuli/Nonsocial1.png,cs_minus_s,,,,,,,0,0,0,0,,,,,,,,,,,,,,,,,6,1,25,2,,,,,,,,,,,,,,,,,,,,,,,4148.7532580997795,1,0.013460800051689148,9.999926399905235,48,D,2024-01-12_11h15.40.244,gca_avoidance_task,2022.2.4,143.8933806189009,
positions.xlsx,stimuli.xlsx,stimuli/Social2.png,stimuli/Social1.png,stimuli/Nonsocial2.png,stimuli/Nonsocial1.png,cs_plus_s,,,,,,,0,0,0,0,,,,,,,,,,,,,,,,,6,2,26,0,,,,,,,,,,,,,,,,,,,,,,,4163.370720199775,4,0.014198399847373366,2.618453999981284,48,D,2024-01-12_11h15.40.244,gca_avoidance_task,2022.2.4,143.8933806189009,
positions.xlsx,stimuli.xlsx,stimuli/Social2.png,stimuli/Social1.png,stimuli/Nonsocial2.png,stimuli/Nonsocial1.png,cs_minus_ns,,,,,,,0,0,0,0,,,,,,,,,,,,,,,,,6,3,27,3,,,,,,,,,,,,,,,,,,,,,,,4178.009026699932,5,0.014319899957627058,4.132128199795261,48,D,2024-01-12_11h15.40.244,gca_avoidance_task,2022.2.4,143.8933806189009,
positions.xlsx,stimuli.xlsx,stimuli/Social2.png,stimuli/Social1.png,stimuli/Nonsocial2.png,stimuli/Nonsocial1.png,cs_minus_s,,,,,,,0,0,0,0,,,,,,,,,,,,,,,,,7,0,28,2,,,,,,,,,,,,,,,,,,,,,,,4192.73065939988,1,0.013817600207403302,10.000002700136974,48,D,2024-01-12_11h15.40.244,gca_avoidance_task,2022.2.4,143.8933806189009,
positions.xlsx,stimuli.xlsx,stimuli/Social2.png,stimuli/Social1.png,stimuli/Nonsocial2.png,stimuli/Nonsocial1.png,cs_minus_ns,,,,,,,0,0,0,0,,,,,,,,,,,,,,,,,7,1,29,3,,,,,,,,,,,,,,,,,,,,,,,4207.889829899883,4,0.014141299994662404,1.2572151999920607,48,D,2024-01-12_11h15.40.244,gca_avoidance_task,2022.2.4,143.8933806189009,
positions.xlsx,stimuli.xlsx,stimuli/Social2.png,stimuli/Social1.png,stimuli/Nonsocial2.png,stimuli/Nonsocial1.png,cs_plus_ns,,,,,,,0,0,0,0,,,,,,,,,,,,,,,,,7,2,30,1,,,,,,,,,,,,,,,,,,,,,,,4222.646126799984,5,0.014079899992793798,4.500069599831477,48,D,2024-01-12_11h15.40.244,gca_avoidance_task,2022.2.4,143.8933806189009,
positions.xlsx,stimuli.xlsx,stimuli/Social2.png,stimuli/Social1.png,stimuli/Nonsocial2.png,stimuli/Nonsocial1.png,cs_plus_s,,,,,,,0,0,0,0,,,,,,,,,,,,,,,,,7,3,31,0,,,,,,,,,,,,,,,,,,,,,,,4237.235830499791,5,0.013357400195673108,1.4656778001226485,48,D,2024-01-12_11h15.40.244,gca_avoidance_task,2022.2.4,143.8933806189009,
positions.xlsx,stimuli.xlsx,stimuli/Social2.png,stimuli/Social1.png,stimuli/Nonsocial2.png,stimuli/Nonsocial1.png,cs_plus_ns,,,,,,,0,0,0,0,,,,,,,,,,,,,,,,,8,0,32,1,,,,,,,,,,,,,,,,,,,,,,,4252.061630099779,2,0.014681299915537238,5.9099159999750555,48,D,2024-01-12_11h15.40.244,gca_avoidance_task,2022.2.4,143.8933806189009,
positions.xlsx,stimuli.xlsx,stimuli/Social2.png,stimuli/Social1.png,stimuli/Nonsocial2.png,stimuli/Nonsocial1.png,cs_plus_s,,,,,,,0,0,0,0,,,,,,,,,,,,,,,,,8,1,33,0,,,,,,,,,,,,,,,,,,,,,,,4266.609686099924,3,0.01340440008789301,2.347588300006464,48,D,2024-01-12_11h15.40.244,gca_avoidance_task,2022.2.4,143.8933806189009,
positions.xlsx,stimuli.xlsx,stimuli/Social2.png,stimuli/Social1.png,stimuli/Nonsocial2.png,stimuli/Nonsocial1.png,cs_minus_ns,,,,,,,0,0,0,0,,,,,,,,,,,,,,,,,8,2,34,3,,,,,,,,,,,,,,,,,,,,,,,4281.1299556999,3,0.014101800043135881,3.0003728999290615,48,D,2024-01-12_11h15.40.244,gca_avoidance_task,2022.2.4,143.8933806189009,
positions.xlsx,stimuli.xlsx,stimuli/Social2.png,stimuli/Social1.png,stimuli/Nonsocial2.png,stimuli/Nonsocial1.png,cs_minus_s,,,,,,,0,0,0,0,,,,,,,,,,,,,,,,,8,3,35,2,,,,,,,,,,,,,,,,,,,,,,,4296.0321241999045,3,0.01376860006712377,6.228955400176346,48,D,2024-01-12_11h15.40.244,gca_avoidance_task,2022.2.4,143.8933806189009,
positions.xlsx,stimuli.xlsx,stimuli/Social2.png,stimuli/Social1.png,stimuli/Nonsocial2.png,stimuli/Nonsocial1.png,cs_plus_s,,,,,,,0,0,0,0,,,,,,,,,,,,,,,,,9,0,36,0,,,,,,,,,,,,,,,,,,,,,,,4311.177357199835,4,0.013639099895954132,4.507151799974963,48,D,2024-01-12_11h15.40.244,gca_avoidance_task,2022.2.4,143.8933806189009,
positions.xlsx,stimuli.xlsx,stimuli/Social2.png,stimuli/Social1.png,stimuli/Nonsocial2.png,stimuli/Nonsocial1.png,cs_minus_s,,,,,,,0,0,0,0,,,,,,,,,,,,,,,,,9,1,37,2,,,,,,,,,,,,,,,,,,,,,,,4326.17675249977,1,0.013351399917155504,10.00000699982047,48,D,2024-01-12_11h15.40.244,gca_avoidance_task,2022.2.4,143.8933806189009,
positions.xlsx,stimuli.xlsx,stimuli/Social2.png,stimuli/Social1.png,stimuli/Nonsocial2.png,stimuli/Nonsocial1.png,cs_minus_ns,,,,,,,0,0,0,0,,,,,,,,,,,,,,,,,9,2,38,3,,,,,,,,,,,,,,,,,,,,,,,4340.967828999972,2,0.013836900005117059,6.750063500134274,48,D,2024-01-12_11h15.40.244,gca_avoidance_task,2022.2.4,143.8933806189009,
positions.xlsx,stimuli.xlsx,stimuli/Social2.png,stimuli/Social1.png,stimuli/Nonsocial2.png,stimuli/Nonsocial1.png,cs_plus_ns,,,,,,,0,0,0,0,,,,,,,,,,,,,,,,,9,3,39,1,,,,,,,,,,,,,,,,,,,,,,,4355.606160999974,2,0.015117499977350235,5.93068870017305,48,D,2024-01-12_11h15.40.244,gca_avoidance_task,2022.2.4,143.8933806189009,
positions.xlsx,stimuli.xlsx,stimuli/Social2.png,stimuli/Social1.png,stimuli/Nonsocial2.png,stimuli/Nonsocial1.png,cs_minus_s,,,,,,,0,0,0,0,,,,,,,,,,,,,,,,,,,,,0,0,0,2,,,,,4369.556971599814,10.0,4.121742499992251,,,,,,,,,,,,,,,,48,D,2024-01-12_11h15.40.244,gca_avoidance_task,2022.2.4,143.8933806189009,
positions.xlsx,stimuli.xlsx,stimuli/Social2.png,stimuli/Social1.png,stimuli/Nonsocial2.png,stimuli/Nonsocial1.png,cs_plus_ns,,,,,,,0,0,0,0,,,,,,,,,,,,,,,,,,,,,0,1,1,1,,,,,4374.681783599779,10.0,1.9989102999679744,,,,,,,,,,,,,,,,48,D,2024-01-12_11h15.40.244,gca_avoidance_task,2022.2.4,143.8933806189009,
positions.xlsx,stimuli.xlsx,stimuli/Social2.png,stimuli/Social1.png,stimuli/Nonsocial2.png,stimuli/Nonsocial1.png,cs_plus_s,,,,,,,0,0,0,0,,,,,,,,,,,,,,,,,,,,,0,2,2,0,,,,,4377.619157399982,10.0,2.2502802000381052,,,,,,,,,,,,,,,,48,D,2024-01-12_11h15.40.244,gca_avoidance_task,2022.2.4,143.8933806189009,
positions.xlsx,stimuli.xlsx,stimuli/Social2.png,stimuli/Social1.png,stimuli/Nonsocial2.png,stimuli/Nonsocial1.png,cs_minus_ns,,,,,,,0,0,0,0,,,,,,,,,,,,,,,,,,,,,0,3,3,3,,,,,4380.869047299959,10.0,1.5205750002060086,,,,,,,,,,,,,,,,48,D,2024-01-12_11h15.40.244,gca_avoidance_task,2022.2.4,143.8933806189009,
