posFile,stimFile,cs_plus_s,cs_minus_s,cs_plus_ns,cs_minus_ns,stimtype,position,trialtype,trials_threshold.thisRepN,trials_threshold.thisTrialN,trials_threshold.thisN,trials_threshold.thisIndex,blocks.thisRepN,blocks.thisTrialN,blocks.thisN,blocks.thisIndex,ratingtrials1.thisRepN,ratingtrials1.thisTrialN,ratingtrials1.thisN,ratingtrials1.thisIndex,learning_trials.thisRepN,learning_trials.thisTrialN,learning_trials.thisN,learning_trials.thisIndex,trials.thisRepN,trials.thisTrialN,trials.thisN,trials.thisIndex,ratingtrials2.thisRepN,ratingtrials2.thisTrialN,ratingtrials2.thisN,ratingtrials2.thisIndex,testtrials.thisRepN,testtrials.thisTrialN,testtrials.thisN,testtrials.thisIndex,ratingtrials3.thisRepN,ratingtrials3.thisTrialN,ratingtrials3.thisN,ratingtrials3.thisIndex,textStart.started,sliderPainT.response,sliderPainT.rt,textStartExp.started,imageRating.started,sliderStim.response,sliderStim.rt,textStartTask.started,image.started,score,outcome,roi.numLooks,roi.timesOn,roi.timesOff,imageFeedback.started,sliderPain.response,sliderPain.rt,textTestInstr.started,imageTest.started,roiTest.numLooks,roiTest.timesOn,roiTest.timesOff,participant,group,date,expName,psychopyVersion,frameRate,
,,,,,,,,,0,0,0,0,,,,,,,,,,,,,,,,,,,,,,,,,,,,,15.687374399974942,None,None,,,,,,,,,,,,,,,,,,,,44,C,2024-01-02_14h54.59.320,gca_avoidance_task,2022.2.4,143.90435559215948,
,,,,,,,,,1,0,1,0,,,,,,,,,,,,,,,,,,,,,,,,,,,,,,0.0,26.424732300103642,,,,,,,,,,,,,,,,,,,,44,C,2024-01-02_14h54.59.320,gca_avoidance_task,2022.2.4,143.90435559215948,
,,,,,,,,,2,0,2,0,,,,,,,,,,,,,,,,,,,,,,,,,,,,,,1.0,1.9778355000307783,,,,,,,,,,,,,,,,,,,,44,C,2024-01-02_14h54.59.320,gca_avoidance_task,2022.2.4,143.90435559215948,
,,,,,,,,,3,0,3,0,,,,,,,,,,,,,,,,,,,,,,,,,,,,,,2.0,1.6590043000178412,,,,,,,,,,,,,,,,,,,,44,C,2024-01-02_14h54.59.320,gca_avoidance_task,2022.2.4,143.90435559215948,
,,,,,,,,,4,0,4,0,,,,,,,,,,,,,,,,,,,,,,,,,,,,,,2.0,1.005857600015588,,,,,,,,,,,,,,,,,,,,44,C,2024-01-02_14h54.59.320,gca_avoidance_task,2022.2.4,143.90435559215948,
,,,,,,,,,5,0,5,0,,,,,,,,,,,,,,,,,,,,,,,,,,,,,,3.0,1.3471232999581844,,,,,,,,,,,,,,,,,,,,44,C,2024-01-02_14h54.59.320,gca_avoidance_task,2022.2.4,143.90435559215948,
,,,,,,,,,6,0,6,0,,,,,,,,,,,,,,,,,,,,,,,,,,,,,,3.0,0.8579584000399336,,,,,,,,,,,,,,,,,,,,44,C,2024-01-02_14h54.59.320,gca_avoidance_task,2022.2.4,143.90435559215948,
,,,,,,,,,7,0,7,0,,,,,,,,,,,,,,,,,,,,,,,,,,,,,,4.0,0.6260964999673888,,,,,,,,,,,,,,,,,,,,44,C,2024-01-02_14h54.59.320,gca_avoidance_task,2022.2.4,143.90435559215948,
,,,,,,,,,8,0,8,0,,,,,,,,,,,,,,,,,,,,,,,,,,,,,,5.0,0.972115800017491,,,,,,,,,,,,,,,,,,,,44,C,2024-01-02_14h54.59.320,gca_avoidance_task,2022.2.4,143.90435559215948,
,,,,,,,,,9,0,9,0,,,,,,,,,,,,,,,,,,,,,,,,,,,,,,5.0,3.053461299976334,,,,,,,,,,,,,,,,,,,,44,C,2024-01-02_14h54.59.320,gca_avoidance_task,2022.2.4,143.90435559215948,
,,,,,,,,,10,0,10,0,,,,,,,,,,,,,,,,,,,,,,,,,,,,,,6.0,1.5118270999519154,,,,,,,,,,,,,,,,,,,,44,C,2024-01-02_14h54.59.320,gca_avoidance_task,2022.2.4,143.90435559215948,
,,,,,,,,,11,0,11,0,,,,,,,,,,,,,,,,,,,,,,,,,,,,,,5.0,0.7927688000490889,,,,,,,,,,,,,,,,,,,,44,C,2024-01-02_14h54.59.320,gca_avoidance_task,2022.2.4,143.90435559215948,
,,,,,,,,,12,0,12,0,,,,,,,,,,,,,,,,,,,,,,,,,,,,,,6.0,0.6416241000406444,,,,,,,,,,,,,,,,,,,,44,C,2024-01-02_14h54.59.320,gca_avoidance_task,2022.2.4,143.90435559215948,
,,,,,,,,,13,0,13,0,,,,,,,,,,,,,,,,,,,,,,,,,,,,,,7.0,0.9518050000770018,,,,,,,,,,,,,,,,,,,,44,C,2024-01-02_14h54.59.320,gca_avoidance_task,2022.2.4,143.90435559215948,
,,,,,,,,,14,0,14,0,,,,,,,,,,,,,,,,,,,,,,,,,,,,,,6.0,2.9059576999861747,,,,,,,,,,,,,,,,,,,,44,C,2024-01-02_14h54.59.320,gca_avoidance_task,2022.2.4,143.90435559215948,
,,,,,,,,,15,0,15,0,,,,,,,,,,,,,,,,,,,,,,,,,,,,,,None,None,,,,,,,,,,,,,,,,,,,,44,C,2024-01-02_14h54.59.320,gca_avoidance_task,2022.2.4,143.90435559215948,
,,,,,,,,,16,0,16,0,,,,,,,,,,,,,,,,,,,,,,,,,,,,,,None,None,,,,,,,,,,,,,,,,,,,,44,C,2024-01-02_14h54.59.320,gca_avoidance_task,2022.2.4,143.90435559215948,
,,,,,,,,,17,0,17,0,,,,,,,,,,,,,,,,,,,,,,,,,,,,,,None,None,,,,,,,,,,,,,,,,,,,,44,C,2024-01-02_14h54.59.320,gca_avoidance_task,2022.2.4,143.90435559215948,
positions.xlsx,stimuli.xlsx,stimuli/Social1.png,stimuli/Social2.png,stimuli/Nonsocial2.png,stimuli/Nonsocial1.png,cs_minus_ns,,,,,,,0,0,0,0,0,0,0,3,,,,,,,,,,,,,,,,,,,,,,,,372.55676860001404,457.7184158000164,4.0,7.798576700035483,,,,,,,,,,,,,,,,44,C,2024-01-02_14h54.59.320,gca_avoidance_task,2022.2.4,143.90435559215948,
positions.xlsx,stimuli.xlsx,stimuli/Social1.png,stimuli/Social2.png,stimuli/Nonsocial2.png,stimuli/Nonsocial1.png,cs_plus_s,,,,,,,0,0,0,0,0,1,1,0,,,,,,,,,,,,,,,,,,,,,,,,,467.2943889000453,5.0,10.209168100031093,,,,,,,,,,,,,,,,44,C,2024-01-02_14h54.59.320,gca_avoidance_task,2022.2.4,143.90435559215948,
positions.xlsx,stimuli.xlsx,stimuli/Social1.png,stimuli/Social2.png,stimuli/Nonsocial2.png,stimuli/Nonsocial1.png,cs_minus_s,,,,,,,0,0,0,0,0,2,2,2,,,,,,,,,,,,,,,,,,,,,,,,,478.3078519999981,4.0,3.4380639999872074,,,,,,,,,,,,,,,,44,C,2024-01-02_14h54.59.320,gca_avoidance_task,2022.2.4,143.90435559215948,
positions.xlsx,stimuli.xlsx,stimuli/Social1.png,stimuli/Social2.png,stimuli/Nonsocial2.png,stimuli/Nonsocial1.png,cs_plus_ns,,,,,,,0,0,0,0,0,3,3,1,,,,,,,,,,,,,,,,,,,,,,,,,482.41185050003696,4.0,2.264313100022264,,,,,,,,,,,,,,,,44,C,2024-01-02_14h54.59.320,gca_avoidance_task,2022.2.4,143.90435559215948,
positions.xlsx,stimuli.xlsx,stimuli/Social1.png,stimuli/Social2.png,stimuli/Nonsocial2.png,stimuli/Nonsocial1.png,,"(0.7, 0.5)",cs_plus_ns,,,,,0,0,0,0,,,,,0,0,0,10,,,,,,,,,,,,,,,,,,,,,,,,485.2936692000367,509.85520970006473,0,shock,1,0.22948149999137968,0.22948590002488345,510.0913158999756,,,,,,,,44,C,2024-01-02_14h54.59.320,gca_avoidance_task,2022.2.4,143.90435559215948,
positions.xlsx,stimuli.xlsx,stimuli/Social1.png,stimuli/Social2.png,stimuli/Nonsocial2.png,stimuli/Nonsocial1.png,,"(-0.7, -0.5)",cs_minus_s,,,,,0,0,0,0,,,,,0,1,1,5,,,,,,,,,,,,,,,,,,,,,,,,,520.4311940000625,5,reward,1,0.3129115999909118,0.3129159000236541,520.750635500066,,,,,,,,44,C,2024-01-02_14h54.59.320,gca_avoidance_task,2022.2.4,143.90435559215948,
positions.xlsx,stimuli.xlsx,stimuli/Social1.png,stimuli/Social2.png,stimuli/Nonsocial2.png,stimuli/Nonsocial1.png,,"(0.7, 0.5)",cs_minus_ns,,,,,0,0,0,0,,,,,0,2,2,14,,,,,,,,,,,,,,,,,,,,,,,,,530.2641068999656,5,none,0,,,535.2778034000657,,,,,,,,44,C,2024-01-02_14h54.59.320,gca_avoidance_task,2022.2.4,143.90435559215948,
positions.xlsx,stimuli.xlsx,stimuli/Social1.png,stimuli/Social2.png,stimuli/Nonsocial2.png,stimuli/Nonsocial1.png,,"(0.7, -0.5)",cs_plus_s,,,,,0,0,0,0,,,,,0,3,3,3,,,,,,,,,,,,,,,,,,,,,,,,,545.3399006000254,5,shock,1,0.4380185999907553,0.4380228000227362,545.7843298000516,,,,,,,,44,C,2024-01-02_14h54.59.320,gca_avoidance_task,2022.2.4,143.90435559215948,
positions.xlsx,stimuli.xlsx,stimuli/Social1.png,stimuli/Social2.png,stimuli/Nonsocial2.png,stimuli/Nonsocial1.png,,"(-0.7, 0.5)",cs_minus_ns,,,,,0,0,0,0,,,,,0,4,4,12,,,,,,,,,,,,,,,,,,,,,,,,,555.4645015000133,10,reward,1,0.2156404999550432,0.2227327999426052,555.6936686000554,,,,,,,,44,C,2024-01-02_14h54.59.320,gca_avoidance_task,2022.2.4,143.90435559215948,
positions.xlsx,stimuli.xlsx,stimuli/Social1.png,stimuli/Social2.png,stimuli/Nonsocial2.png,stimuli/Nonsocial1.png,,"(-0.7, -0.5)",cs_minus_ns,,,,,0,0,0,0,,,,,0,5,5,13,,,,,,,,,,,,,,,,,,,,,,,,,565.4432726000668,15,reward,1,0.24332799995318055,0.24333269998896867,565.6932829000289,,,,,,,,44,C,2024-01-02_14h54.59.320,gca_avoidance_task,2022.2.4,143.90435559215948,
positions.xlsx,stimuli.xlsx,stimuli/Social1.png,stimuli/Social2.png,stimuli/Nonsocial2.png,stimuli/Nonsocial1.png,,"(-0.7, -0.5)",cs_plus_ns,,,,,0,0,0,0,,,,,0,6,6,9,,,,,,,,,,,,,,,,,,,,,,,,,575.7622959000291,15,shock,1,0.472325999988243,0.4723304999060929,576.2414747000439,,,,,,,,44,C,2024-01-02_14h54.59.320,gca_avoidance_task,2022.2.4,143.90435559215948,
positions.xlsx,stimuli.xlsx,stimuli/Social1.png,stimuli/Social2.png,stimuli/Nonsocial2.png,stimuli/Nonsocial1.png,,"(0.7, -0.5)",cs_plus_ns,,,,,0,0,0,0,,,,,0,7,7,11,,,,,,,,,,,,,,,,,,,,,,,,,585.4980638000416,15,shock,1,0.20124790002591908,0.20125229994300753,585.7063752000686,,,,,,,,44,C,2024-01-02_14h54.59.320,gca_avoidance_task,2022.2.4,143.90435559215948,
positions.xlsx,stimuli.xlsx,stimuli/Social1.png,stimuli/Social2.png,stimuli/Nonsocial2.png,stimuli/Nonsocial1.png,,"(-0.7, 0.5)",cs_plus_ns,,,,,0,0,0,0,,,,,0,8,8,8,,,,,,,,,,,,,,,,,,,,,,,,,595.8518111000303,15,shock,1,0.21568900009151548,0.21569330000784248,596.0740165000316,,,,,,,,44,C,2024-01-02_14h54.59.320,gca_avoidance_task,2022.2.4,143.90435559215948,
positions.xlsx,stimuli.xlsx,stimuli/Social1.png,stimuli/Social2.png,stimuli/Nonsocial2.png,stimuli/Nonsocial1.png,,"(0.7, 0.5)",cs_plus_s,,,,,0,0,0,0,,,,,0,9,9,2,,,,,,,,,,,,,,,,,,,,,,,,,605.0319752000505,15,shock,1,0.2432181000476703,0.24322229996323586,605.2820364000509,,,,,,,,44,C,2024-01-02_14h54.59.320,gca_avoidance_task,2022.2.4,143.90435559215948,
positions.xlsx,stimuli.xlsx,stimuli/Social1.png,stimuli/Social2.png,stimuli/Nonsocial2.png,stimuli/Nonsocial1.png,,"(-0.7, -0.5)",cs_plus_s,,,,,0,0,0,0,,,,,0,10,10,1,,,,,,,,,,,,,,,,,,,,,,,,,615.3440983999753,15,shock,1,0.23676890006754547,0.23677349998615682,615.587124099955,,,,,,,,44,C,2024-01-02_14h54.59.320,gca_avoidance_task,2022.2.4,143.90435559215948,
positions.xlsx,stimuli.xlsx,stimuli/Social1.png,stimuli/Social2.png,stimuli/Nonsocial2.png,stimuli/Nonsocial1.png,,"(0.7, 0.5)",cs_minus_s,,,,,0,0,0,0,,,,,0,11,11,6,,,,,,,,,,,,,,,,,,,,,,,,,624.6909128000261,20,reward,1,0.22929789999034256,0.23633570002857596,624.9340149000054,,,,,,,,44,C,2024-01-02_14h54.59.320,gca_avoidance_task,2022.2.4,143.90435559215948,
positions.xlsx,stimuli.xlsx,stimuli/Social1.png,stimuli/Social2.png,stimuli/Nonsocial2.png,stimuli/Nonsocial1.png,,"(-0.7, 0.5)",cs_plus_s,,,,,0,0,0,0,,,,,0,12,12,0,,,,,,,,,,,,,,,,,,,,,,,,,634.287769000046,20,shock,1,0.27772959996946156,0.2777341000037268,634.572456200025,,,,,,,,44,C,2024-01-02_14h54.59.320,gca_avoidance_task,2022.2.4,143.90435559215948,
positions.xlsx,stimuli.xlsx,stimuli/Social1.png,stimuli/Social2.png,stimuli/Nonsocial2.png,stimuli/Nonsocial1.png,,"(-0.7, 0.5)",cs_minus_s,,,,,0,0,0,0,,,,,0,13,13,4,,,,,,,,,,,,,,,,,,,,,,,,,644.6970655999612,25,reward,1,0.5209999999497086,0.5210044999839738,645.2248803999973,,,,,,,,44,C,2024-01-02_14h54.59.320,gca_avoidance_task,2022.2.4,143.90435559215948,
positions.xlsx,stimuli.xlsx,stimuli/Social1.png,stimuli/Social2.png,stimuli/Nonsocial2.png,stimuli/Nonsocial1.png,,"(0.7, -0.5)",cs_minus_ns,,,,,0,0,0,0,,,,,0,14,14,15,,,,,,,,,,,,,,,,,,,,,,,,,654.6758526000194,30,reward,1,0.5768867000006139,0.5768909999169409,655.259162100032,,,,,,,,44,C,2024-01-02_14h54.59.320,gca_avoidance_task,2022.2.4,143.90435559215948,
positions.xlsx,stimuli.xlsx,stimuli/Social1.png,stimuli/Social2.png,stimuli/Nonsocial2.png,stimuli/Nonsocial1.png,,"(0.7, -0.5)",cs_minus_s,,,,,0,0,0,0,,,,,0,15,15,7,,,,,,,,,,,,,,,,,,,,,,,,,664.758797800052,35,reward,1,0.16019189998041838,0.1601964000146836,664.9254153000657,,,,,,,,44,C,2024-01-02_14h54.59.320,gca_avoidance_task,2022.2.4,143.90435559215948,
positions.xlsx,stimuli.xlsx,stimuli/Social1.png,stimuli/Social2.png,stimuli/Nonsocial2.png,stimuli/Nonsocial1.png,,"(0.7, 0.5)",cs_minus_s,,,,,0,0,0,0,,,,,1,0,16,6,,,,,,,,,,,,,,,,,,,,,,,,,673.6820423000026,40,reward,1,0.24320589995477349,0.2432103999890387,673.9320344000589,,,,,,,,44,C,2024-01-02_14h54.59.320,gca_avoidance_task,2022.2.4,143.90435559215948,
positions.xlsx,stimuli.xlsx,stimuli/Social1.png,stimuli/Social2.png,stimuli/Nonsocial2.png,stimuli/Nonsocial1.png,,"(0.7, -0.5)",cs_plus_ns,,,,,0,0,0,0,,,,,1,1,17,11,,,,,,,,,,,,,,,,,,,,,,,,,682.8483494999819,40,shock,1,0.19501829997170717,0.19502250000368804,683.0497350000078,,,,,,,,44,C,2024-01-02_14h54.59.320,gca_avoidance_task,2022.2.4,143.90435559215948,
positions.xlsx,stimuli.xlsx,stimuli/Social1.png,stimuli/Social2.png,stimuli/Nonsocial2.png,stimuli/Nonsocial1.png,,"(-0.7, -0.5)",cs_plus_s,,,,,0,0,0,0,,,,,1,2,18,1,,,,,,,,,,,,,,,,,,,,,,,,,691.9590869999956,40,none,0,,,696.9658623000141,,,,,,,,44,C,2024-01-02_14h54.59.320,gca_avoidance_task,2022.2.4,143.90435559215948,
positions.xlsx,stimuli.xlsx,stimuli/Social1.png,stimuli/Social2.png,stimuli/Nonsocial2.png,stimuli/Nonsocial1.png,,"(0.7, -0.5)",cs_plus_s,,,,,0,0,0,0,,,,,1,3,19,3,,,,,,,,,,,,,,,,,,,,,,,,,706.6668606000021,40,none,0,,,711.6735792000545,,,,,,,,44,C,2024-01-02_14h54.59.320,gca_avoidance_task,2022.2.4,143.90435559215948,
positions.xlsx,stimuli.xlsx,stimuli/Social1.png,stimuli/Social2.png,stimuli/Nonsocial2.png,stimuli/Nonsocial1.png,,"(0.7, 0.5)",cs_plus_s,,,,,0,0,0,0,,,,,1,4,20,2,,,,,,,,,,,,,,,,,,,,,,,,,721.2634832999902,40,none,0,,,726.2702364999568,,,,,,,,44,C,2024-01-02_14h54.59.320,gca_avoidance_task,2022.2.4,143.90435559215948,
positions.xlsx,stimuli.xlsx,stimuli/Social1.png,stimuli/Social2.png,stimuli/Nonsocial2.png,stimuli/Nonsocial1.png,,"(-0.7, 0.5)",cs_minus_s,,,,,0,0,0,0,,,,,1,5,21,4,,,,,,,,,,,,,,,,,,,,,,,,,735.5615586000495,45,reward,1,0.4376486000837758,0.4376526999985799,736.0059636000078,,,,,,,,44,C,2024-01-02_14h54.59.320,gca_avoidance_task,2022.2.4,143.90435559215948,
positions.xlsx,stimuli.xlsx,stimuli/Social1.png,stimuli/Social2.png,stimuli/Nonsocial2.png,stimuli/Nonsocial1.png,,"(-0.7, 0.5)",cs_plus_ns,,,,,0,0,0,0,,,,,1,6,22,8,,,,,,,,,,,,,,,,,,,,,,,,,745.2486493999604,45,none,0,,,750.2554095999803,,,,,,,,44,C,2024-01-02_14h54.59.320,gca_avoidance_task,2022.2.4,143.90435559215948,
positions.xlsx,stimuli.xlsx,stimuli/Social1.png,stimuli/Social2.png,stimuli/Nonsocial2.png,stimuli/Nonsocial1.png,,"(-0.7, -0.5)",cs_minus_s,,,,,0,0,0,0,,,,,1,7,23,5,,,,,,,,,,,,,,,,,,,,,,,,,760.3244494000683,50,reward,1,0.5073494000826031,0.5143847999861464,760.8452860000543,,,,,,,,44,C,2024-01-02_14h54.59.320,gca_avoidance_task,2022.2.4,143.90435559215948,
positions.xlsx,stimuli.xlsx,stimuli/Social1.png,stimuli/Social2.png,stimuli/Nonsocial2.png,stimuli/Nonsocial1.png,,"(0.7, 0.5)",cs_plus_ns,,,,,0,0,0,0,,,,,1,8,24,10,,,,,,,,,,,,,,,,,,,,,,,,,770.5115142000141,50,none,0,,,775.5182907000417,,,,,,,,44,C,2024-01-02_14h54.59.320,gca_avoidance_task,2022.2.4,143.90435559215948,
positions.xlsx,stimuli.xlsx,stimuli/Social1.png,stimuli/Social2.png,stimuli/Nonsocial2.png,stimuli/Nonsocial1.png,,"(0.7, -0.5)",cs_minus_ns,,,,,0,0,0,0,,,,,1,9,25,15,,,,,,,,,,,,,,,,,,,,,,,,,785.3998410999775,55,reward,1,0.4933691000333056,0.49337350006680936,785.8998383999569,,,,,,,,44,C,2024-01-02_14h54.59.320,gca_avoidance_task,2022.2.4,143.90435559215948,
positions.xlsx,stimuli.xlsx,stimuli/Social1.png,stimuli/Social2.png,stimuli/Nonsocial2.png,stimuli/Nonsocial1.png,,"(0.7, 0.5)",cs_minus_ns,,,,,0,0,0,0,,,,,1,10,26,14,,,,,,,,,,,,,,,,,,,,,,,,,794.7327620000578,60,reward,1,0.5977423000149429,0.5977468999335542,795.3369546000613,,,,,,,,44,C,2024-01-02_14h54.59.320,gca_avoidance_task,2022.2.4,143.90435559215948,
positions.xlsx,stimuli.xlsx,stimuli/Social1.png,stimuli/Social2.png,stimuli/Nonsocial2.png,stimuli/Nonsocial1.png,,"(0.7, -0.5)",cs_minus_s,,,,,0,0,0,0,,,,,1,11,27,7,,,,,,,,,,,,,,,,,,,,,,,,,804.3435417000437,65,reward,1,0.6807759000221267,0.6807801000541076,805.0310234000208,,,,,,,,44,C,2024-01-02_14h54.59.320,gca_avoidance_task,2022.2.4,143.90435559215948,
positions.xlsx,stimuli.xlsx,stimuli/Social1.png,stimuli/Social2.png,stimuli/Nonsocial2.png,stimuli/Nonsocial1.png,,"(-0.7, -0.5)",cs_plus_ns,,,,,0,0,0,0,,,,,1,12,28,9,,,,,,,,,,,,,,,,,,,,,,,,,814.4195455999579,65,shock,1,0.4863372000399977,0.4863417000742629,814.9125719000585,,,,,,,,44,C,2024-01-02_14h54.59.320,gca_avoidance_task,2022.2.4,143.90435559215948,
positions.xlsx,stimuli.xlsx,stimuli/Social1.png,stimuli/Social2.png,stimuli/Nonsocial2.png,stimuli/Nonsocial1.png,,"(-0.7, 0.5)",cs_plus_s,,,,,0,0,0,0,,,,,1,13,29,0,,,,,,,,,,,,,,,,,,,,,,,,,824.912186200032,65,none,0,,,829.91899070004,,,,,,,,44,C,2024-01-02_14h54.59.320,gca_avoidance_task,2022.2.4,143.90435559215948,
positions.xlsx,stimuli.xlsx,stimuli/Social1.png,stimuli/Social2.png,stimuli/Nonsocial2.png,stimuli/Nonsocial1.png,,"(-0.7, -0.5)",cs_minus_ns,,,,,0,0,0,0,,,,,1,14,30,13,,,,,,,,,,,,,,,,,,,,,,,,,839.4602657000069,70,reward,1,0.5209867999656126,0.5209912999998778,839.9880213000579,,,,,,,,44,C,2024-01-02_14h54.59.320,gca_avoidance_task,2022.2.4,143.90435559215948,
positions.xlsx,stimuli.xlsx,stimuli/Social1.png,stimuli/Social2.png,stimuli/Nonsocial2.png,stimuli/Nonsocial1.png,,"(-0.7, 0.5)",cs_minus_ns,,,,,0,0,0,0,,,,,1,15,31,12,,,,,,,,,,,,,,,,,,,,,,,,,849.4112412000541,75,reward,1,0.5487735000206158,0.5487778000533581,849.9667600999819,,,,,,,,44,C,2024-01-02_14h54.59.320,gca_avoidance_task,2022.2.4,143.90435559215948,
positions.xlsx,stimuli.xlsx,stimuli/Social1.png,stimuli/Social2.png,stimuli/Nonsocial2.png,stimuli/Nonsocial1.png,,"(0.7, 0.5)",cs_plus_ns,,,,,0,0,0,0,,,,,,,,,0,0,0,10,,,,,,,,,,,,,,,,,,,,,872.5283630000195,75,none,0,,,877.5351478999946,,,,,,,,44,C,2024-01-02_14h54.59.320,gca_avoidance_task,2022.2.4,143.90435559215948,
positions.xlsx,stimuli.xlsx,stimuli/Social1.png,stimuli/Social2.png,stimuli/Nonsocial2.png,stimuli/Nonsocial1.png,,"(0.7, -0.5)",cs_minus_s,,,,,0,0,0,0,,,,,,,,,0,1,1,7,,,,,,,,,,,,,,,,,,,,,887.1041985000484,80,reward,1,0.49331209994852543,0.4933164999820292,887.6041797000216,,,,,,,,44,C,2024-01-02_14h54.59.320,gca_avoidance_task,2022.2.4,143.90435559215948,
positions.xlsx,stimuli.xlsx,stimuli/Social1.png,stimuli/Social2.png,stimuli/Nonsocial2.png,stimuli/Nonsocial1.png,,"(-0.7, -0.5)",cs_plus_ns,,,,,0,0,0,0,,,,,,,,,0,2,2,9,,,,,,,,,,,,,,,,,,,,,897.0066271000542,80,none,0,,,902.0133294999832,,,,,,,,44,C,2024-01-02_14h54.59.320,gca_avoidance_task,2022.2.4,143.90435559215948,
positions.xlsx,stimuli.xlsx,stimuli/Social1.png,stimuli/Social2.png,stimuli/Nonsocial2.png,stimuli/Nonsocial1.png,,"(-0.7, -0.5)",cs_minus_ns,,,,,0,0,0,0,,,,,,,,,0,3,3,13,,,,,,,,,,,,,,,,,,,,,911.5824397000251,85,reward,1,0.3612642999505624,0.36126879998482764,911.9504727000603,,,,,,,,44,C,2024-01-02_14h54.59.320,gca_avoidance_task,2022.2.4,143.90435559215948,
positions.xlsx,stimuli.xlsx,stimuli/Social1.png,stimuli/Social2.png,stimuli/Nonsocial2.png,stimuli/Nonsocial1.png,,"(0.7, -0.5)",cs_minus_ns,,,,,0,0,0,0,,,,,,,,,0,4,4,15,,,,,,,,,,,,,,,,,,,,,921.7695070999907,90,reward,1,0.5555357000557706,0.5555402000900358,922.331996700028,,,,,,,,44,C,2024-01-02_14h54.59.320,gca_avoidance_task,2022.2.4,143.90435559215948,
positions.xlsx,stimuli.xlsx,stimuli/Social1.png,stimuli/Social2.png,stimuli/Nonsocial2.png,stimuli/Nonsocial1.png,,"(-0.7, -0.5)",cs_plus_s,,,,,0,0,0,0,,,,,,,,,0,5,5,1,,,,,,,,,,,,,,,,,,,,,931.6857781000435,90,shock,1,0.6186487999511883,0.6186532999854535,932.3107534999726,,,,,,,,44,C,2024-01-02_14h54.59.320,gca_avoidance_task,2022.2.4,143.90435559215948,
positions.xlsx,stimuli.xlsx,stimuli/Social1.png,stimuli/Social2.png,stimuli/Nonsocial2.png,stimuli/Nonsocial1.png,,"(-0.7, 0.5)",cs_minus_ns,,,,,0,0,0,0,,,,,,,,,0,6,6,12,,,,,,,,,,,,,,,,,,,,,941.50484040007,95,reward,1,0.5904300999827683,0.5904344998998567,942.1020454000682,,,,,,,,44,C,2024-01-02_14h54.59.320,gca_avoidance_task,2022.2.4,143.90435559215948,
positions.xlsx,stimuli.xlsx,stimuli/Social1.png,stimuli/Social2.png,stimuli/Nonsocial2.png,stimuli/Nonsocial1.png,,"(0.7, -0.5)",cs_plus_ns,,,,,0,0,0,0,,,,,,,,,0,7,7,11,,,,,,,,,,,,,,,,,,,,,951.7683522000443,95,none,0,,,956.7750739000039,,,,,,,,44,C,2024-01-02_14h54.59.320,gca_avoidance_task,2022.2.4,143.90435559215948,
positions.xlsx,stimuli.xlsx,stimuli/Social1.png,stimuli/Social2.png,stimuli/Nonsocial2.png,stimuli/Nonsocial1.png,,"(-0.7, -0.5)",cs_minus_s,,,,,0,0,0,0,,,,,,,,,0,8,8,5,,,,,,,,,,,,,,,,,,,,,966.0039356000489,100,reward,1,0.4928800000343472,0.49288480007089674,966.503887000028,,,,,,,,44,C,2024-01-02_14h54.59.320,gca_avoidance_task,2022.2.4,143.90435559215948,
positions.xlsx,stimuli.xlsx,stimuli/Social1.png,stimuli/Social2.png,stimuli/Nonsocial2.png,stimuli/Nonsocial1.png,,"(-0.7, 0.5)",cs_minus_s,,,,,0,0,0,0,,,,,,,,,0,9,9,4,,,,,,,,,,,,,,,,,,,,,976.5520703999791,105,reward,1,0.437837400007993,0.4378417000407353,976.9965058000525,,,,,,,,44,C,2024-01-02_14h54.59.320,gca_avoidance_task,2022.2.4,143.90435559215948,
positions.xlsx,stimuli.xlsx,stimuli/Social1.png,stimuli/Social2.png,stimuli/Nonsocial2.png,stimuli/Nonsocial1.png,,"(-0.7, 0.5)",cs_plus_s,,,,,0,0,0,0,,,,,,,,,0,10,10,0,,,,,,,,,,,,,,,,,,,,,985.7600490000332,105,none,0,,,990.7668024000013,,,,,,,,44,C,2024-01-02_14h54.59.320,gca_avoidance_task,2022.2.4,143.90435559215948,
positions.xlsx,stimuli.xlsx,stimuli/Social1.png,stimuli/Social2.png,stimuli/Nonsocial2.png,stimuli/Nonsocial1.png,,"(0.7, 0.5)",cs_minus_ns,,,,,0,0,0,0,,,,,,,,,0,11,11,14,,,,,,,,,,,,,,,,,,,,,1000.6066918000579,110,reward,1,0.47907120001036674,0.4790752000408247,1001.092782999971,,,,,,,,44,C,2024-01-02_14h54.59.320,gca_avoidance_task,2022.2.4,143.90435559215948,
positions.xlsx,stimuli.xlsx,stimuli/Social1.png,stimuli/Social2.png,stimuli/Nonsocial2.png,stimuli/Nonsocial1.png,,"(-0.7, 0.5)",cs_plus_ns,,,,,0,0,0,0,,,,,,,,,0,12,12,8,,,,,,,,,,,,,,,,,,,,,1010.5229683000362,110,none,0,,,1015.5297315999633,,,,,,,,44,C,2024-01-02_14h54.59.320,gca_avoidance_task,2022.2.4,143.90435559215948,
positions.xlsx,stimuli.xlsx,stimuli/Social1.png,stimuli/Social2.png,stimuli/Nonsocial2.png,stimuli/Nonsocial1.png,,"(0.7, 0.5)",cs_plus_s,,,,,0,0,0,0,,,,,,,,,0,13,13,2,,,,,,,,,,,,,,,,,,,,,1025.0640652000438,110,none,0,,,1030.0708562000655,,,,,,,,44,C,2024-01-02_14h54.59.320,gca_avoidance_task,2022.2.4,143.90435559215948,
positions.xlsx,stimuli.xlsx,stimuli/Social1.png,stimuli/Social2.png,stimuli/Nonsocial2.png,stimuli/Nonsocial1.png,,"(0.7, -0.5)",cs_plus_s,,,,,0,0,0,0,,,,,,,,,0,14,14,3,,,,,,,,,,,,,,,,,,,,,1038.8552065000404,110,none,0,,,1043.861970399972,,,,,,,,44,C,2024-01-02_14h54.59.320,gca_avoidance_task,2022.2.4,143.90435559215948,
positions.xlsx,stimuli.xlsx,stimuli/Social1.png,stimuli/Social2.png,stimuli/Nonsocial2.png,stimuli/Nonsocial1.png,,"(0.7, 0.5)",cs_minus_s,,,,,0,0,0,0,,,,,,,,,0,15,15,6,,,,,,,,,,,,,,,,,,,,,1053.4310057000257,115,reward,1,0.5491760999429971,0.5561800999566913,1053.9934956000652,,,,,,,,44,C,2024-01-02_14h54.59.320,gca_avoidance_task,2022.2.4,143.90435559215948,
positions.xlsx,stimuli.xlsx,stimuli/Social1.png,stimuli/Social2.png,stimuli/Nonsocial2.png,stimuli/Nonsocial1.png,,"(-0.7, 0.5)",cs_minus_s,,,,,0,0,0,0,,,,,,,,,1,0,16,4,,,,,,,,,,,,,,,,,,,,,1063.2848117999965,120,reward,1,0.5142477999906987,0.5142523000249639,1063.8056137000676,,,,,,,,44,C,2024-01-02_14h54.59.320,gca_avoidance_task,2022.2.4,143.90435559215948,
positions.xlsx,stimuli.xlsx,stimuli/Social1.png,stimuli/Social2.png,stimuli/Nonsocial2.png,stimuli/Nonsocial1.png,,"(-0.7, 0.5)",cs_minus_ns,,,,,0,0,0,0,,,,,,,,,1,1,17,12,,,,,,,,,,,,,,,,,,,,,1074.06215230003,125,reward,1,0.4863230000482872,0.486327400081791,1074.5551911999937,,,,,,,,44,C,2024-01-02_14h54.59.320,gca_avoidance_task,2022.2.4,143.90435559215948,
positions.xlsx,stimuli.xlsx,stimuli/Social1.png,stimuli/Social2.png,stimuli/Nonsocial2.png,stimuli/Nonsocial1.png,,"(0.7, -0.5)",cs_minus_s,,,,,0,0,0,0,,,,,,,,,1,2,18,7,,,,,,,,,,,,,,,,,,,,,1084.603399100015,130,reward,1,0.2571686999872327,0.263963200035505,1084.8742576000514,,,,,,,,44,C,2024-01-02_14h54.59.320,gca_avoidance_task,2022.2.4,143.90435559215948,
positions.xlsx,stimuli.xlsx,stimuli/Social1.png,stimuli/Social2.png,stimuli/Nonsocial2.png,stimuli/Nonsocial1.png,,"(-0.7, 0.5)",cs_plus_ns,,,,,0,0,0,0,,,,,,,,,1,3,19,8,,,,,,,,,,,,,,,,,,,,,1095.0335630000336,130,none,0,,,1100.040337900049,,,,,,,,44,C,2024-01-02_14h54.59.320,gca_avoidance_task,2022.2.4,143.90435559215948,
positions.xlsx,stimuli.xlsx,stimuli/Social1.png,stimuli/Social2.png,stimuli/Nonsocial2.png,stimuli/Nonsocial1.png,,"(0.7, 0.5)",cs_minus_ns,,,,,0,0,0,0,,,,,,,,,1,4,20,14,,,,,,,,,,,,,,,,,,,,,1109.6441730000079,135,reward,1,0.6320824000285938,0.6320867000613362,1110.2829577999655,,,,,,,,44,C,2024-01-02_14h54.59.320,gca_avoidance_task,2022.2.4,143.90435559215948,
positions.xlsx,stimuli.xlsx,stimuli/Social1.png,stimuli/Social2.png,stimuli/Nonsocial2.png,stimuli/Nonsocial1.png,,"(0.7, -0.5)",cs_plus_s,,,,,0,0,0,0,,,,,,,,,1,5,21,3,,,,,,,,,,,,,,,,,,,,,1119.761759200017,135,none,0,,,1124.768496499979,,,,,,,,44,C,2024-01-02_14h54.59.320,gca_avoidance_task,2022.2.4,143.90435559215948,
positions.xlsx,stimuli.xlsx,stimuli/Social1.png,stimuli/Social2.png,stimuli/Nonsocial2.png,stimuli/Nonsocial1.png,,"(-0.7, -0.5)",cs_minus_s,,,,,0,0,0,0,,,,,,,,,1,6,22,5,,,,,,,,,,,,,,,,,,,,,1134.566748399986,140,reward,1,0.4448694000020623,0.4448736999183893,1135.0181502000196,,,,,,,,44,C,2024-01-02_14h54.59.320,gca_avoidance_task,2022.2.4,143.90435559215948,
positions.xlsx,stimuli.xlsx,stimuli/Social1.png,stimuli/Social2.png,stimuli/Nonsocial2.png,stimuli/Nonsocial1.png,,"(-0.7, -0.5)",cs_plus_s,,,,,0,0,0,0,,,,,,,,,1,7,23,1,,,,,,,,,,,,,,,,,,,,,1145.2538101000246,140,none,0,,,1150.2605942999944,,,,,,,,44,C,2024-01-02_14h54.59.320,gca_avoidance_task,2022.2.4,143.90435559215948,
positions.xlsx,stimuli.xlsx,stimuli/Social1.png,stimuli/Social2.png,stimuli/Nonsocial2.png,stimuli/Nonsocial1.png,,"(-0.7, -0.5)",cs_minus_ns,,,,,0,0,0,0,,,,,,,,,1,8,24,13,,,,,,,,,,,,,,,,,,,,,1160.1837595000397,145,reward,1,0.39620130008552223,0.39620560000184923,1160.586547999992,,,,,,,,44,C,2024-01-02_14h54.59.320,gca_avoidance_task,2022.2.4,143.90435559215948,
positions.xlsx,stimuli.xlsx,stimuli/Social1.png,stimuli/Social2.png,stimuli/Nonsocial2.png,stimuli/Nonsocial1.png,,"(-0.7, 0.5)",cs_plus_s,,,,,0,0,0,0,,,,,,,,,1,9,25,0,,,,,,,,,,,,,,,,,,,,,1169.6695317999693,145,none,0,,,1174.6762543000514,,,,,,,,44,C,2024-01-02_14h54.59.320,gca_avoidance_task,2022.2.4,143.90435559215948,
positions.xlsx,stimuli.xlsx,stimuli/Social1.png,stimuli/Social2.png,stimuli/Nonsocial2.png,stimuli/Nonsocial1.png,,"(0.7, 0.5)",cs_plus_s,,,,,0,0,0,0,,,,,,,,,1,10,26,2,,,,,,,,,,,,,,,,,,,,,1183.7800894000102,145,none,0,,,1188.7868575999746,,,,,,,,44,C,2024-01-02_14h54.59.320,gca_avoidance_task,2022.2.4,143.90435559215948,
positions.xlsx,stimuli.xlsx,stimuli/Social1.png,stimuli/Social2.png,stimuli/Nonsocial2.png,stimuli/Nonsocial1.png,,"(0.7, -0.5)",cs_plus_ns,,,,,0,0,0,0,,,,,,,,,1,11,27,11,,,,,,,,,,,,,,,,,,,,,1198.4114687000401,145,none,0,,,1203.4182576000458,,,,,,,,44,C,2024-01-02_14h54.59.320,gca_avoidance_task,2022.2.4,143.90435559215948,
positions.xlsx,stimuli.xlsx,stimuli/Social1.png,stimuli/Social2.png,stimuli/Nonsocial2.png,stimuli/Nonsocial1.png,,"(0.7, 0.5)",cs_minus_s,,,,,0,0,0,0,,,,,,,,,1,12,28,6,,,,,,,,,,,,,,,,,,,,,1212.9803424000274,150,reward,1,0.4584628000156954,0.4584667000453919,1213.4456211000215,,,,,,,,44,C,2024-01-02_14h54.59.320,gca_avoidance_task,2022.2.4,143.90435559215948,
positions.xlsx,stimuli.xlsx,stimuli/Social1.png,stimuli/Social2.png,stimuli/Nonsocial2.png,stimuli/Nonsocial1.png,,"(0.7, 0.5)",cs_plus_ns,,,,,0,0,0,0,,,,,,,,,1,13,29,10,,,,,,,,,,,,,,,,,,,,,1223.0493861000286,150,none,0,,,1228.0631229999708,,,,,,,,44,C,2024-01-02_14h54.59.320,gca_avoidance_task,2022.2.4,143.90435559215948,
positions.xlsx,stimuli.xlsx,stimuli/Social1.png,stimuli/Social2.png,stimuli/Nonsocial2.png,stimuli/Nonsocial1.png,,"(0.7, -0.5)",cs_minus_ns,,,,,0,0,0,0,,,,,,,,,1,14,30,15,,,,,,,,,,,,,,,,,,,,,1238.0627032000339,155,reward,1,0.5975699000991881,0.5975739000132307,1238.6668773000129,,,,,,,,44,C,2024-01-02_14h54.59.320,gca_avoidance_task,2022.2.4,143.90435559215948,
positions.xlsx,stimuli.xlsx,stimuli/Social1.png,stimuli/Social2.png,stimuli/Nonsocial2.png,stimuli/Nonsocial1.png,,"(-0.7, -0.5)",cs_plus_ns,,,,,0,0,0,0,,,,,,,,,1,15,31,9,,,,,,,,,,,,,,,,,,,,,1247.8817523999605,155,none,0,,,1252.8885109999683,,,,,,,,44,C,2024-01-02_14h54.59.320,gca_avoidance_task,2022.2.4,143.90435559215948,
positions.xlsx,stimuli.xlsx,stimuli/Social1.png,stimuli/Social2.png,stimuli/Nonsocial2.png,stimuli/Nonsocial1.png,,"(0.7, 0.5)",cs_minus_s,,,,,0,0,0,0,,,,,,,,,2,0,32,6,,,,,,,,,,,,,,,,,,,,,1263.3603407000192,160,reward,1,0.49314569996204227,0.4931501999963075,1263.8602810000302,,,,,,,,44,C,2024-01-02_14h54.59.320,gca_avoidance_task,2022.2.4,143.90435559215948,
positions.xlsx,stimuli.xlsx,stimuli/Social1.png,stimuli/Social2.png,stimuli/Nonsocial2.png,stimuli/Nonsocial1.png,,"(0.7, 0.5)",cs_plus_s,,,,,0,0,0,0,,,,,,,,,2,1,33,2,,,,,,,,,,,,,,,,,,,,,1272.6724749000277,160,none,0,,,1277.6792056000559,,,,,,,,44,C,2024-01-02_14h54.59.320,gca_avoidance_task,2022.2.4,143.90435559215948,
positions.xlsx,stimuli.xlsx,stimuli/Social1.png,stimuli/Social2.png,stimuli/Nonsocial2.png,stimuli/Nonsocial1.png,,"(0.7, -0.5)",cs_minus_s,,,,,0,0,0,0,,,,,,,,,2,2,34,7,,,,,,,,,,,,,,,,,,,,,1287.1510779999662,165,reward,1,0.4723628000356257,0.472367100068368,1287.6302057000576,,,,,,,,44,C,2024-01-02_14h54.59.320,gca_avoidance_task,2022.2.4,143.90435559215948,
positions.xlsx,stimuli.xlsx,stimuli/Social1.png,stimuli/Social2.png,stimuli/Nonsocial2.png,stimuli/Nonsocial1.png,,"(-0.7, -0.5)",cs_plus_ns,,,,,0,0,0,0,,,,,,,,,2,3,35,9,,,,,,,,,,,,,,,,,,,,,1297.3728963000467,165,none,0,,,1302.3796518000308,,,,,,,,44,C,2024-01-02_14h54.59.320,gca_avoidance_task,2022.2.4,143.90435559215948,
positions.xlsx,stimuli.xlsx,stimuli/Social1.png,stimuli/Social2.png,stimuli/Nonsocial2.png,stimuli/Nonsocial1.png,,"(-0.7, 0.5)",cs_minus_ns,,,,,0,0,0,0,,,,,,,,,2,4,36,12,,,,,,,,,,,,,,,,,,,,,1311.6709276000038,170,reward,1,0.5212029000977054,0.5212072000140324,1312.1986921000062,,,,,,,,44,C,2024-01-02_14h54.59.320,gca_avoidance_task,2022.2.4,143.90435559215948,
positions.xlsx,stimuli.xlsx,stimuli/Social1.png,stimuli/Social2.png,stimuli/Nonsocial2.png,stimuli/Nonsocial1.png,,"(-0.7, 0.5)",cs_minus_s,,,,,0,0,0,0,,,,,,,,,2,5,37,4,,,,,,,,,,,,,,,,,,,,,1321.2052689000266,175,reward,1,0.44485460000578314,0.44485890003852546,1321.6566855000565,,,,,,,,44,C,2024-01-02_14h54.59.320,gca_avoidance_task,2022.2.4,143.90435559215948,
positions.xlsx,stimuli.xlsx,stimuli/Social1.png,stimuli/Social2.png,stimuli/Nonsocial2.png,stimuli/Nonsocial1.png,,"(0.7, 0.5)",cs_plus_ns,,,,,0,0,0,0,,,,,,,,,2,6,38,10,,,,,,,,,,,,,,,,,,,,,1331.1146372000221,175,none,0,,,1336.12139320001,,,,,,,,44,C,2024-01-02_14h54.59.320,gca_avoidance_task,2022.2.4,143.90435559215948,
positions.xlsx,stimuli.xlsx,stimuli/Social1.png,stimuli/Social2.png,stimuli/Nonsocial2.png,stimuli/Nonsocial1.png,,"(-0.7, 0.5)",cs_plus_ns,,,,,0,0,0,0,,,,,,,,,2,7,39,8,,,,,,,,,,,,,,,,,,,,,1345.7459942999994,175,none,0,,,1350.7596880999627,,,,,,,,44,C,2024-01-02_14h54.59.320,gca_avoidance_task,2022.2.4,143.90435559215948,
positions.xlsx,stimuli.xlsx,stimuli/Social1.png,stimuli/Social2.png,stimuli/Nonsocial2.png,stimuli/Nonsocial1.png,,"(0.7, -0.5)",cs_minus_ns,,,,,0,0,0,0,,,,,,,,,2,8,40,15,,,,,,,,,,,,,,,,,,,,,1359.7454680000665,180,reward,1,0.34048020001500845,0.3404846000485122,1360.0926849000389,,,,,,,,44,C,2024-01-02_14h54.59.320,gca_avoidance_task,2022.2.4,143.90435559215948,
positions.xlsx,stimuli.xlsx,stimuli/Social1.png,stimuli/Social2.png,stimuli/Nonsocial2.png,stimuli/Nonsocial1.png,,"(-0.7, -0.5)",cs_minus_ns,,,,,0,0,0,0,,,,,,,,,2,9,41,13,,,,,,,,,,,,,,,,,,,,,1370.217308799969,185,reward,1,0.4029207000276074,0.4029250000603497,1370.6269797000568,,,,,,,,44,C,2024-01-02_14h54.59.320,gca_avoidance_task,2022.2.4,143.90435559215948,
positions.xlsx,stimuli.xlsx,stimuli/Social1.png,stimuli/Social2.png,stimuli/Nonsocial2.png,stimuli/Nonsocial1.png,,"(-0.7, 0.5)",cs_plus_s,,,,,0,0,0,0,,,,,,,,,2,10,42,0,,,,,,,,,,,,,,,,,,,,,1379.3349647000432,185,none,0,,,1384.3417157999938,,,,,,,,44,C,2024-01-02_14h54.59.320,gca_avoidance_task,2022.2.4,143.90435559215948,
positions.xlsx,stimuli.xlsx,stimuli/Social1.png,stimuli/Social2.png,stimuli/Nonsocial2.png,stimuli/Nonsocial1.png,,"(0.7, -0.5)",cs_plus_ns,,,,,0,0,0,0,,,,,,,,,2,11,43,11,,,,,,,,,,,,,,,,,,,,,1393.6816340000369,185,none,0,,,1398.688385299989,,,,,,,,44,C,2024-01-02_14h54.59.320,gca_avoidance_task,2022.2.4,143.90435559215948,
positions.xlsx,stimuli.xlsx,stimuli/Social1.png,stimuli/Social2.png,stimuli/Nonsocial2.png,stimuli/Nonsocial1.png,,"(0.7, -0.5)",cs_plus_s,,,,,0,0,0,0,,,,,,,,,2,12,44,3,,,,,,,,,,,,,,,,,,,,,1408.0838534999639,185,none,0,,,1413.090628999984,,,,,,,,44,C,2024-01-02_14h54.59.320,gca_avoidance_task,2022.2.4,143.90435559215948,
positions.xlsx,stimuli.xlsx,stimuli/Social1.png,stimuli/Social2.png,stimuli/Nonsocial2.png,stimuli/Nonsocial1.png,,"(0.7, 0.5)",cs_minus_ns,,,,,0,0,0,0,,,,,,,,,2,13,45,14,,,,,,,,,,,,,,,,,,,,,1422.388893699972,190,reward,1,0.4375133999856189,0.4375177000183612,1422.8333138000453,,,,,,,,44,C,2024-01-02_14h54.59.320,gca_avoidance_task,2022.2.4,143.90435559215948,
positions.xlsx,stimuli.xlsx,stimuli/Social1.png,stimuli/Social2.png,stimuli/Nonsocial2.png,stimuli/Nonsocial1.png,,"(-0.7, -0.5)",cs_plus_s,,,,,0,0,0,0,,,,,,,,,2,14,46,1,,,,,,,,,,,,,,,,,,,,,1432.7009648999665,190,none,0,,,1437.707693799981,,,,,,,,44,C,2024-01-02_14h54.59.320,gca_avoidance_task,2022.2.4,143.90435559215948,
positions.xlsx,stimuli.xlsx,stimuli/Social1.png,stimuli/Social2.png,stimuli/Nonsocial2.png,stimuli/Nonsocial1.png,,"(-0.7, -0.5)",cs_minus_s,,,,,0,0,0,0,,,,,,,,,2,15,47,5,,,,,,,,,,,,,,,,,,,,,1446.9365222000051,195,reward,1,0.36829039989970624,0.36829479993321,1447.3115129000507,,,,,,,,44,C,2024-01-02_14h54.59.320,gca_avoidance_task,2022.2.4,143.90435559215948,
positions.xlsx,stimuli.xlsx,stimuli/Social1.png,stimuli/Social2.png,stimuli/Nonsocial2.png,stimuli/Nonsocial1.png,,"(-0.7, 0.5)",cs_minus_s,,,,,0,0,0,0,,,,,,,,,3,0,48,4,,,,,,,,,,,,,,,,,,,,,1456.9986476000631,200,reward,1,0.41669420001562685,0.4166986000491306,1457.4222119000042,,,,,,,,44,C,2024-01-02_14h54.59.320,gca_avoidance_task,2022.2.4,143.90435559215948,
positions.xlsx,stimuli.xlsx,stimuli/Social1.png,stimuli/Social2.png,stimuli/Nonsocial2.png,stimuli/Nonsocial1.png,,"(0.7, -0.5)",cs_minus_ns,,,,,0,0,0,0,,,,,,,,,3,1,49,15,,,,,,,,,,,,,,,,,,,,,1467.3662684999872,205,reward,1,0.34771740005817264,0.34772189997602254,1467.7204415999586,,,,,,,,44,C,2024-01-02_14h54.59.320,gca_avoidance_task,2022.2.4,143.90435559215948,
positions.xlsx,stimuli.xlsx,stimuli/Social1.png,stimuli/Social2.png,stimuli/Nonsocial2.png,stimuli/Nonsocial1.png,,"(-0.7, 0.5)",cs_plus_ns,,,,,0,0,0,0,,,,,,,,,3,2,50,8,,,,,,,,,,,,,,,,,,,,,1476.7617183000548,205,none,0,,,1481.7685215000529,,,,,,,,44,C,2024-01-02_14h54.59.320,gca_avoidance_task,2022.2.4,143.90435559215948,
positions.xlsx,stimuli.xlsx,stimuli/Social1.png,stimuli/Social2.png,stimuli/Nonsocial2.png,stimuli/Nonsocial1.png,,"(0.7, 0.5)",cs_plus_s,,,,,0,0,0,0,,,,,,,,,3,3,51,2,,,,,,,,,,,,,,,,,,,,,1491.3931459999876,205,none,0,,,1496.3998636000324,,,,,,,,44,C,2024-01-02_14h54.59.320,gca_avoidance_task,2022.2.4,143.90435559215948,
positions.xlsx,stimuli.xlsx,stimuli/Social1.png,stimuli/Social2.png,stimuli/Nonsocial2.png,stimuli/Nonsocial1.png,,"(0.7, 0.5)",cs_plus_ns,,,,,0,0,0,0,,,,,,,,,3,4,52,10,,,,,,,,,,,,,,,,,,,,,1505.8995099000167,205,none,0,,,1510.9062677000184,,,,,,,,44,C,2024-01-02_14h54.59.320,gca_avoidance_task,2022.2.4,143.90435559215948,
positions.xlsx,stimuli.xlsx,stimuli/Social1.png,stimuli/Social2.png,stimuli/Nonsocial2.png,stimuli/Nonsocial1.png,,"(0.7, -0.5)",cs_minus_s,,,,,0,0,0,0,,,,,,,,,3,5,53,7,,,,,,,,,,,,,,,,,,,,,1519.5517577000428,210,reward,1,0.4723951999330893,0.47239969996735454,1520.0309183000354,,,,,,,,44,C,2024-01-02_14h54.59.320,gca_avoidance_task,2022.2.4,143.90435559215948,
positions.xlsx,stimuli.xlsx,stimuli/Social1.png,stimuli/Social2.png,stimuli/Nonsocial2.png,stimuli/Nonsocial1.png,,"(-0.7, 0.5)",cs_plus_s,,,,,0,0,0,0,,,,,,,,,3,6,54,0,,,,,,,,,,,,,,,,,,,,,1530.099934900063,210,none,0,,,1535.1067146999994,,,,,,,,44,C,2024-01-02_14h54.59.320,gca_avoidance_task,2022.2.4,143.90435559215948,
positions.xlsx,stimuli.xlsx,stimuli/Social1.png,stimuli/Social2.png,stimuli/Nonsocial2.png,stimuli/Nonsocial1.png,,"(-0.7, -0.5)",cs_plus_s,,,,,0,0,0,0,,,,,,,,,3,7,55,1,,,,,,,,,,,,,,,,,,,,,1543.80776970007,210,none,0,,,1548.8145114000654,,,,,,,,44,C,2024-01-02_14h54.59.320,gca_avoidance_task,2022.2.4,143.90435559215948,
positions.xlsx,stimuli.xlsx,stimuli/Social1.png,stimuli/Social2.png,stimuli/Nonsocial2.png,stimuli/Nonsocial1.png,,"(-0.7, -0.5)",cs_minus_s,,,,,0,0,0,0,,,,,,,,,3,8,56,5,,,,,,,,,,,,,,,,,,,,,1558.258575499989,215,reward,1,0.4307045000605285,0.4307091999799013,1558.696108700009,,,,,,,,44,C,2024-01-02_14h54.59.320,gca_avoidance_task,2022.2.4,143.90435559215948,
positions.xlsx,stimuli.xlsx,stimuli/Social1.png,stimuli/Social2.png,stimuli/Nonsocial2.png,stimuli/Nonsocial1.png,,"(0.7, 0.5)",cs_minus_s,,,,,0,0,0,0,,,,,,,,,3,9,57,6,,,,,,,,,,,,,,,,,,,,,1568.1609697999666,220,reward,1,0.4031834000488743,0.4032024999614805,1568.5706830000272,,,,,,,,44,C,2024-01-02_14h54.59.320,gca_avoidance_task,2022.2.4,143.90435559215948,
positions.xlsx,stimuli.xlsx,stimuli/Social1.png,stimuli/Social2.png,stimuli/Nonsocial2.png,stimuli/Nonsocial1.png,,"(-0.7, 0.5)",cs_minus_ns,,,,,0,0,0,0,,,,,,,,,3,10,58,12,,,,,,,,,,,,,,,,,,,,,1578.4383401999949,225,reward,1,0.5209916000021622,0.5209958999184892,1578.9661362000043,,,,,,,,44,C,2024-01-02_14h54.59.320,gca_avoidance_task,2022.2.4,143.90435559215948,
positions.xlsx,stimuli.xlsx,stimuli/Social1.png,stimuli/Social2.png,stimuli/Nonsocial2.png,stimuli/Nonsocial1.png,,"(0.7, -0.5)",cs_plus_ns,,,,,0,0,0,0,,,,,,,,,3,11,59,11,,,,,,,,,,,,,,,,,,,,,1588.771280099987,225,none,0,,,1593.7780331000686,,,,,,,,44,C,2024-01-02_14h54.59.320,gca_avoidance_task,2022.2.4,143.90435559215948,
positions.xlsx,stimuli.xlsx,stimuli/Social1.png,stimuli/Social2.png,stimuli/Nonsocial2.png,stimuli/Nonsocial1.png,,"(0.7, -0.5)",cs_plus_s,,,,,0,0,0,0,,,,,,,,,3,12,60,3,,,,,,,,,,,,,,,,,,,,,1602.9651620000368,225,none,0,,,1607.9719173000194,,,,,,,,44,C,2024-01-02_14h54.59.320,gca_avoidance_task,2022.2.4,143.90435559215948,
positions.xlsx,stimuli.xlsx,stimuli/Social1.png,stimuli/Social2.png,stimuli/Nonsocial2.png,stimuli/Nonsocial1.png,,"(-0.7, -0.5)",cs_plus_ns,,,,,0,0,0,0,,,,,,,,,3,13,61,9,,,,,,,,,,,,,,,,,,,,,1618.1451299999608,225,none,0,,,1623.1519009000622,,,,,,,,44,C,2024-01-02_14h54.59.320,gca_avoidance_task,2022.2.4,143.90435559215948,
positions.xlsx,stimuli.xlsx,stimuli/Social1.png,stimuli/Social2.png,stimuli/Nonsocial2.png,stimuli/Nonsocial1.png,,"(-0.7, -0.5)",cs_minus_ns,,,,,0,0,0,0,,,,,,,,,3,14,62,13,,,,,,,,,,,,,,,,,,,,,1632.630695000058,230,reward,1,0.48630480002611876,0.4863090000580996,1633.1236856000032,,,,,,,,44,C,2024-01-02_14h54.59.320,gca_avoidance_task,2022.2.4,143.90435559215948,
positions.xlsx,stimuli.xlsx,stimuli/Social1.png,stimuli/Social2.png,stimuli/Nonsocial2.png,stimuli/Nonsocial1.png,,"(0.7, 0.5)",cs_minus_ns,,,,,0,0,0,0,,,,,,,,,3,15,63,14,,,,,,,,,,,,,,,,,,,,,1642.5331000000006,235,reward,1,0.35416049999184906,0.3541646000230685,1642.8941602000268,,,,,,,,44,C,2024-01-02_14h54.59.320,gca_avoidance_task,2022.2.4,143.90435559215948,
positions.xlsx,stimuli.xlsx,stimuli/Social1.png,stimuli/Social2.png,stimuli/Nonsocial2.png,stimuli/Nonsocial1.png,,"(-0.7, 0.5)",cs_plus_s,,,,,0,0,0,0,,,,,,,,,4,0,64,0,,,,,,,,,,,,,,,,,,,,,1652.1646569999866,235,none,0,,,1657.1714019000065,,,,,,,,44,C,2024-01-02_14h54.59.320,gca_avoidance_task,2022.2.4,143.90435559215948,
positions.xlsx,stimuli.xlsx,stimuli/Social1.png,stimuli/Social2.png,stimuli/Nonsocial2.png,stimuli/Nonsocial1.png,,"(-0.7, -0.5)",cs_minus_s,,,,,0,0,0,0,,,,,,,,,4,1,65,5,,,,,,,,,,,,,,,,,,,,,1666.997405000031,240,reward,1,0.368229900021106,0.36823389993514866,1667.372419100022,,,,,,,,44,C,2024-01-02_14h54.59.320,gca_avoidance_task,2022.2.4,143.90435559215948,
positions.xlsx,stimuli.xlsx,stimuli/Social1.png,stimuli/Social2.png,stimuli/Nonsocial2.png,stimuli/Nonsocial1.png,,"(-0.7, -0.5)",cs_minus_ns,,,,,0,0,0,0,,,,,,,,,4,2,66,13,,,,,,,,,,,,,,,,,,,,,1676.3373466000194,245,reward,1,0.44438460003584623,0.4443889999529347,1676.7886933999835,,,,,,,,44,C,2024-01-02_14h54.59.320,gca_avoidance_task,2022.2.4,143.90435559215948,
positions.xlsx,stimuli.xlsx,stimuli/Social1.png,stimuli/Social2.png,stimuli/Nonsocial2.png,stimuli/Nonsocial1.png,,"(0.7, 0.5)",cs_plus_s,,,,,0,0,0,0,,,,,,,,,4,3,67,2,,,,,,,,,,,,,,,,,,,,,1685.6980642999988,245,none,0,,,1690.7048375000013,,,,,,,,44,C,2024-01-02_14h54.59.320,gca_avoidance_task,2022.2.4,143.90435559215948,
positions.xlsx,stimuli.xlsx,stimuli/Social1.png,stimuli/Social2.png,stimuli/Nonsocial2.png,stimuli/Nonsocial1.png,,"(0.7, 0.5)",cs_minus_ns,,,,,0,0,0,0,,,,,,,,,4,4,68,14,,,,,,,,,,,,,,,,,,,,,1700.1975041000405,250,reward,1,0.3820492000086233,0.3820536000421271,1700.5863667000085,,,,,,,,44,C,2024-01-02_14h54.59.320,gca_avoidance_task,2022.2.4,143.90435559215948,
positions.xlsx,stimuli.xlsx,stimuli/Social1.png,stimuli/Social2.png,stimuli/Nonsocial2.png,stimuli/Nonsocial1.png,,"(0.7, -0.5)",cs_minus_ns,,,,,0,0,0,0,,,,,,,,,4,5,69,15,,,,,,,,,,,,,,,,,,,,,1710.5651530000614,255,reward,1,0.4580790000036359,0.45808340003713965,1711.0304270000197,,,,,,,,44,C,2024-01-02_14h54.59.320,gca_avoidance_task,2022.2.4,143.90435559215948,
positions.xlsx,stimuli.xlsx,stimuli/Social1.png,stimuli/Social2.png,stimuli/Nonsocial2.png,stimuli/Nonsocial1.png,,"(0.7, 0.5)",cs_minus_s,,,,,0,0,0,0,,,,,,,,,4,6,70,6,,,,,,,,,,,,,,,,,,,,,1720.6550716999918,260,reward,1,0.5073507999768481,0.5073551000095904,1721.1689636000665,,,,,,,,44,C,2024-01-02_14h54.59.320,gca_avoidance_task,2022.2.4,143.90435559215948,
positions.xlsx,stimuli.xlsx,stimuli/Social1.png,stimuli/Social2.png,stimuli/Nonsocial2.png,stimuli/Nonsocial1.png,,"(0.7, -0.5)",cs_plus_ns,,,,,0,0,0,0,,,,,,,,,4,7,71,11,,,,,,,,,,,,,,,,,,,,,1730.085262299981,260,none,0,,,1735.0919931000099,,,,,,,,44,C,2024-01-02_14h54.59.320,gca_avoidance_task,2022.2.4,143.90435559215948,
positions.xlsx,stimuli.xlsx,stimuli/Social1.png,stimuli/Social2.png,stimuli/Nonsocial2.png,stimuli/Nonsocial1.png,,"(-0.7, -0.5)",cs_plus_ns,,,,,0,0,0,0,,,,,,,,,4,8,72,9,,,,,,,,,,,,,,,,,,,,,1744.5777530999621,260,none,0,,,1749.5844816999743,,,,,,,,44,C,2024-01-02_14h54.59.320,gca_avoidance_task,2022.2.4,143.90435559215948,
positions.xlsx,stimuli.xlsx,stimuli/Social1.png,stimuli/Social2.png,stimuli/Nonsocial2.png,stimuli/Nonsocial1.png,,"(0.7, -0.5)",cs_minus_s,,,,,0,0,0,0,,,,,,,,,4,9,73,7,,,,,,,,,,,,,,,,,,,,,1759.5910291000037,265,reward,1,0.43090010003652424,0.43090440006926656,1760.0285759000108,,,,,,,,44,C,2024-01-02_14h54.59.320,gca_avoidance_task,2022.2.4,143.90435559215948,
positions.xlsx,stimuli.xlsx,stimuli/Social1.png,stimuli/Social2.png,stimuli/Nonsocial2.png,stimuli/Nonsocial1.png,,"(0.7, 0.5)",cs_plus_ns,,,,,0,0,0,0,,,,,,,,,4,10,74,10,,,,,,,,,,,,,,,,,,,,,1770.1809019000502,265,none,0,,,1775.1876619000686,,,,,,,,44,C,2024-01-02_14h54.59.320,gca_avoidance_task,2022.2.4,143.90435559215948,
positions.xlsx,stimuli.xlsx,stimuli/Social1.png,stimuli/Social2.png,stimuli/Nonsocial2.png,stimuli/Nonsocial1.png,,"(-0.7, 0.5)",cs_minus_ns,,,,,0,0,0,0,,,,,,,,,4,11,75,12,,,,,,,,,,,,,,,,,,,,,1785.124769999995,270,reward,1,0.3819650000659749,0.38196939998306334,1785.513656300027,,,,,,,,44,C,2024-01-02_14h54.59.320,gca_avoidance_task,2022.2.4,143.90435559215948,
positions.xlsx,stimuli.xlsx,stimuli/Social1.png,stimuli/Social2.png,stimuli/Nonsocial2.png,stimuli/Nonsocial1.png,,"(-0.7, -0.5)",cs_plus_s,,,,,0,0,0,0,,,,,,,,,4,12,76,1,,,,,,,,,,,,,,,,,,,,,1795.0340902999742,270,none,0,,,1800.0408720000414,,,,,,,,44,C,2024-01-02_14h54.59.320,gca_avoidance_task,2022.2.4,143.90435559215948,
positions.xlsx,stimuli.xlsx,stimuli/Social1.png,stimuli/Social2.png,stimuli/Nonsocial2.png,stimuli/Nonsocial1.png,,"(-0.7, 0.5)",cs_minus_s,,,,,0,0,0,0,,,,,,,,,4,13,77,4,,,,,,,,,,,,,,,,,,,,,1809.9918512000004,275,reward,1,0.38251059991307557,0.3825152999488637,1810.3807386000408,,,,,,,,44,C,2024-01-02_14h54.59.320,gca_avoidance_task,2022.2.4,143.90435559215948,
positions.xlsx,stimuli.xlsx,stimuli/Social1.png,stimuli/Social2.png,stimuli/Nonsocial2.png,stimuli/Nonsocial1.png,,"(-0.7, 0.5)",cs_plus_ns,,,,,0,0,0,0,,,,,,,,,4,14,78,8,,,,,,,,,,,,,,,,,,,,,1820.1650825999677,275,none,0,,,1825.1718495000387,,,,,,,,44,C,2024-01-02_14h54.59.320,gca_avoidance_task,2022.2.4,143.90435559215948,
positions.xlsx,stimuli.xlsx,stimuli/Social1.png,stimuli/Social2.png,stimuli/Nonsocial2.png,stimuli/Nonsocial1.png,,"(0.7, -0.5)",cs_plus_s,,,,,0,0,0,0,,,,,,,,,4,15,79,3,,,,,,,,,,,,,,,,,,,,,1834.9769913000055,275,none,0,,,1839.9837165999925,,,,,,,,44,C,2024-01-02_14h54.59.320,gca_avoidance_task,2022.2.4,143.90435559215948,
positions.xlsx,stimuli.xlsx,stimuli/Social1.png,stimuli/Social2.png,stimuli/Nonsocial2.png,stimuli/Nonsocial1.png,cs_minus_ns,,,,,,,0,0,0,0,,,,,,,,,,,,,0,0,0,3,,,,,,,,,,,,,1851.8582961000502,6.0,4.238970600068569,,,,,,,,,4.0,4.035203200066462,,,,,,44,C,2024-01-02_14h54.59.320,gca_avoidance_task,2022.2.4,143.90435559215948,
positions.xlsx,stimuli.xlsx,stimuli/Social1.png,stimuli/Social2.png,stimuli/Nonsocial2.png,stimuli/Nonsocial1.png,cs_plus_ns,,,,,,,0,0,0,0,,,,,,,,,,,,,0,1,1,1,,,,,,,,,,,,,1858.4691407000646,6.0,2.4870511000044644,,,,,,,,,,,,,,,,44,C,2024-01-02_14h54.59.320,gca_avoidance_task,2022.2.4,143.90435559215948,
positions.xlsx,stimuli.xlsx,stimuli/Social1.png,stimuli/Social2.png,stimuli/Nonsocial2.png,stimuli/Nonsocial1.png,cs_minus_s,,,,,,,0,0,0,0,,,,,,,,,,,,,0,2,2,2,,,,,,,,,,,,,1861.6425985000096,3.0,2.394974699942395,,,,,,,,,,,,,,,,44,C,2024-01-02_14h54.59.320,gca_avoidance_task,2022.2.4,143.90435559215948,
positions.xlsx,stimuli.xlsx,stimuli/Social1.png,stimuli/Social2.png,stimuli/Nonsocial2.png,stimuli/Nonsocial1.png,cs_plus_s,,,,,,,0,0,0,0,,,,,,,,,,,,,0,3,3,0,,,,,,,,,,,,,1864.7327749000397,6.0,2.1462022999767214,,,,,,,,,,,,,,,,44,C,2024-01-02_14h54.59.320,gca_avoidance_task,2022.2.4,143.90435559215948,
positions.xlsx,stimuli.xlsx,stimuli/Social1.png,stimuli/Social2.png,stimuli/Nonsocial2.png,stimuli/Nonsocial1.png,cs_plus_s,,,,,,,0,0,0,0,,,,,,,,,,,,,,,,,0,0,0,0,,,,,,,,,,,,,,,,,,,,,,1867.4688295000233,1872.5241516999668,4,0.1456086999969557,4.284408699953929,44,C,2024-01-02_14h54.59.320,gca_avoidance_task,2022.2.4,143.90435559215948,
positions.xlsx,stimuli.xlsx,stimuli/Social1.png,stimuli/Social2.png,stimuli/Nonsocial2.png,stimuli/Nonsocial1.png,cs_minus_ns,,,,,,,0,0,0,0,,,,,,,,,,,,,,,,,0,1,1,3,,,,,,,,,,,,,,,,,,,,,,,1887.2735816000495,3,0.015156500041484833,2.403128700098023,44,C,2024-01-02_14h54.59.320,gca_avoidance_task,2022.2.4,143.90435559215948,
positions.xlsx,stimuli.xlsx,stimuli/Social1.png,stimuli/Social2.png,stimuli/Nonsocial2.png,stimuli/Nonsocial1.png,cs_minus_s,,,,,,,0,0,0,0,,,,,,,,,,,,,,,,,0,2,2,2,,,,,,,,,,,,,,,,,,,,,,,1902.3980000000447,6,0.014265300007537007,1.223108800011687,44,C,2024-01-02_14h54.59.320,gca_avoidance_task,2022.2.4,143.90435559215948,
positions.xlsx,stimuli.xlsx,stimuli/Social1.png,stimuli/Social2.png,stimuli/Nonsocial2.png,stimuli/Nonsocial1.png,cs_plus_ns,,,,,,,0,0,0,0,,,,,,,,,,,,,,,,,0,3,3,1,,,,,,,,,,,,,,,,,,,,,,,1917.1196454999736,8,0.014765399973839521,0.04886590002570301,44,C,2024-01-02_14h54.59.320,gca_avoidance_task,2022.2.4,143.90435559215948,
positions.xlsx,stimuli.xlsx,stimuli/Social1.png,stimuli/Social2.png,stimuli/Nonsocial2.png,stimuli/Nonsocial1.png,cs_plus_s,,,,,,,0,0,0,0,,,,,,,,,,,,,,,,,1,0,4,0,,,,,,,,,,,,,,,,,,,,,,,1932.487130100024,8,0.01485909998882562,2.02816410001833,44,C,2024-01-02_14h54.59.320,gca_avoidance_task,2022.2.4,143.90435559215948,
positions.xlsx,stimuli.xlsx,stimuli/Social1.png,stimuli/Social2.png,stimuli/Nonsocial2.png,stimuli/Nonsocial1.png,cs_minus_s,,,,,,,0,0,0,0,,,,,,,,,,,,,,,,,1,1,5,2,,,,,,,,,,,,,,,,,,,,,,,1947.4448807999725,6,0.014126699999906123,1.3128001000732183,44,C,2024-01-02_14h54.59.320,gca_avoidance_task,2022.2.4,143.90435559215948,
positions.xlsx,stimuli.xlsx,stimuli/Social1.png,stimuli/Social2.png,stimuli/Nonsocial2.png,stimuli/Nonsocial1.png,cs_plus_ns,,,,,,,0,0,0,0,,,,,,,,,,,,,,,,,1,2,6,1,,,,,,,,,,,,,,,,,,,,,,,1962.0415286000352,6,0.015636400086805224,1.4657617000630125,44,C,2024-01-02_14h54.59.320,gca_avoidance_task,2022.2.4,143.90435559215948,
positions.xlsx,stimuli.xlsx,stimuli/Social1.png,stimuli/Social2.png,stimuli/Nonsocial2.png,stimuli/Nonsocial1.png,cs_minus_ns,,,,,,,0,0,0,0,,,,,,,,,,,,,,,,,1,3,7,3,,,,,,,,,,,,,,,,,,,,,,,1977.450677899993,6,0.01461020007263869,0.9378481000894681,44,C,2024-01-02_14h54.59.320,gca_avoidance_task,2022.2.4,143.90435559215948,
positions.xlsx,stimuli.xlsx,stimuli/Social1.png,stimuli/Social2.png,stimuli/Nonsocial2.png,stimuli/Nonsocial1.png,cs_minus_ns,,,,,,,0,0,0,0,,,,,,,,,,,,,,,,,2,0,8,3,,,,,,,,,,,,,,,,,,,,,,,1992.5958814000478,10,0.015574699966236949,0.785152200027369,44,C,2024-01-02_14h54.59.320,gca_avoidance_task,2022.2.4,143.90435559215948,
positions.xlsx,stimuli.xlsx,stimuli/Social1.png,stimuli/Social2.png,stimuli/Nonsocial2.png,stimuli/Nonsocial1.png,cs_plus_ns,,,,,,,0,0,0,0,,,,,,,,,,,,,,,,,2,1,9,1,,,,,,,,,,,,,,,,,,,,,,,2007.8452677000314,7,0.015632799942977726,0.7362817999674007,44,C,2024-01-02_14h54.59.320,gca_avoidance_task,2022.2.4,143.90435559215948,
positions.xlsx,stimuli.xlsx,stimuli/Social1.png,stimuli/Social2.png,stimuli/Nonsocial2.png,stimuli/Nonsocial1.png,cs_plus_s,,,,,,,0,0,0,0,,,,,,,,,,,,,,,,,2,2,10,0,,,,,,,,,,,,,,,,,,,,,,,2022.7752657000674,5,0.01513910002540797,1.3682613000273705,44,C,2024-01-02_14h54.59.320,gca_avoidance_task,2022.2.4,143.90435559215948,
positions.xlsx,stimuli.xlsx,stimuli/Social1.png,stimuli/Social2.png,stimuli/Nonsocial2.png,stimuli/Nonsocial1.png,cs_minus_s,,,,,,,0,0,0,0,,,,,,,,,,,,,,,,,2,3,11,2,,,,,,,,,,,,,,,,,,,,,,,2037.5594161000336,6,0.015000000013969839,0.23648979992140085,44,C,2024-01-02_14h54.59.320,gca_avoidance_task,2022.2.4,143.90435559215948,
positions.xlsx,stimuli.xlsx,stimuli/Social1.png,stimuli/Social2.png,stimuli/Nonsocial2.png,stimuli/Nonsocial1.png,cs_plus_s,,,,,,,0,0,0,0,,,,,,,,,,,,,,,,,3,0,12,0,,,,,,,,,,,,,,,,,,,,,,,2052.982523999992,6,0.014451000024564564,1.7850673000793904,44,C,2024-01-02_14h54.59.320,gca_avoidance_task,2022.2.4,143.90435559215948,
positions.xlsx,stimuli.xlsx,stimuli/Social1.png,stimuli/Social2.png,stimuli/Nonsocial2.png,stimuli/Nonsocial1.png,cs_minus_s,,,,,,,0,0,0,0,,,,,,,,,,,,,,,,,3,1,13,2,,,,,,,,,,,,,,,,,,,,,,,2068.204058500007,5,0.015297699952498078,1.6668117999797687,44,C,2024-01-02_14h54.59.320,gca_avoidance_task,2022.2.4,143.90435559215948,
positions.xlsx,stimuli.xlsx,stimuli/Social1.png,stimuli/Social2.png,stimuli/Nonsocial2.png,stimuli/Nonsocial1.png,cs_minus_ns,,,,,,,0,0,0,0,,,,,,,,,,,,,,,,,3,2,14,3,,,,,,,,,,,,,,,,,,,,,,,2082.87012159999,3,0.015357500058598816,0.8405654000816867,44,C,2024-01-02_14h54.59.320,gca_avoidance_task,2022.2.4,143.90435559215948,
positions.xlsx,stimuli.xlsx,stimuli/Social1.png,stimuli/Social2.png,stimuli/Nonsocial2.png,stimuli/Nonsocial1.png,cs_plus_ns,,,,,,,0,0,0,0,,,,,,,,,,,,,,,,,3,3,15,1,,,,,,,,,,,,,,,,,,,,,,,2098.175138300052,5,0.01494660007301718,1.0213752000126988,44,C,2024-01-02_14h54.59.320,gca_avoidance_task,2022.2.4,143.90435559215948,
positions.xlsx,stimuli.xlsx,stimuli/Social1.png,stimuli/Social2.png,stimuli/Nonsocial2.png,stimuli/Nonsocial1.png,cs_minus_s,,,,,,,0,0,0,0,,,,,,,,,,,,,,,,,4,0,16,2,,,,,,,,,,,,,,,,,,,,,,,2112.896779700066,10,0.014403000008314848,0.4518134000245482,44,C,2024-01-02_14h54.59.320,gca_avoidance_task,2022.2.4,143.90435559215948,
positions.xlsx,stimuli.xlsx,stimuli/Social1.png,stimuli/Social2.png,stimuli/Nonsocial2.png,stimuli/Nonsocial1.png,cs_minus_ns,,,,,,,0,0,0,0,,,,,,,,,,,,,,,,,4,1,17,3,,,,,,,,,,,,,,,,,,,,,,,2128.3823065999895,6,0.014724600012414157,0.4865573000861332,44,C,2024-01-02_14h54.59.320,gca_avoidance_task,2022.2.4,143.90435559215948,
positions.xlsx,stimuli.xlsx,stimuli/Social1.png,stimuli/Social2.png,stimuli/Nonsocial2.png,stimuli/Nonsocial1.png,cs_plus_ns,,,,,,,0,0,0,0,,,,,,,,,,,,,,,,,4,2,18,1,,,,,,,,,,,,,,,,,,,,,,,2143.867808000068,6,0.01511979999486357,0.0916322999401018,44,C,2024-01-02_14h54.59.320,gca_avoidance_task,2022.2.4,143.90435559215948,
positions.xlsx,stimuli.xlsx,stimuli/Social1.png,stimuli/Social2.png,stimuli/Nonsocial2.png,stimuli/Nonsocial1.png,cs_plus_s,,,,,,,0,0,0,0,,,,,,,,,,,,,,,,,4,3,19,0,,,,,,,,,,,,,,,,,,,,,,,2158.7977673000423,7,0.014129800023511052,1.347553199972026,44,C,2024-01-02_14h54.59.320,gca_avoidance_task,2022.2.4,143.90435559215948,
positions.xlsx,stimuli.xlsx,stimuli/Social1.png,stimuli/Social2.png,stimuli/Nonsocial2.png,stimuli/Nonsocial1.png,cs_minus_ns,,,,,,,0,0,0,0,,,,,,,,,,,,,,,,,5,0,20,3,,,,,,,,,,,,,,,,,,,,,,,2173.4291372000007,3,0.015334199997596443,1.5556626000907272,44,C,2024-01-02_14h54.59.320,gca_avoidance_task,2022.2.4,143.90435559215948,
positions.xlsx,stimuli.xlsx,stimuli/Social1.png,stimuli/Social2.png,stimuli/Nonsocial2.png,stimuli/Nonsocial1.png,cs_minus_s,,,,,,,0,0,0,0,,,,,,,,,,,,,,,,,5,1,21,2,,,,,,,,,,,,,,,,,,,,,,,2188.2271816000575,5,0.014551599975675344,1.486361899995245,44,C,2024-01-02_14h54.59.320,gca_avoidance_task,2022.2.4,143.90435559215948,
positions.xlsx,stimuli.xlsx,stimuli/Social1.png,stimuli/Social2.png,stimuli/Nonsocial2.png,stimuli/Nonsocial1.png,cs_plus_s,,,,,,,0,0,0,0,,,,,,,,,,,,,,,,,5,2,22,0,,,,,,,,,,,,,,,,,,,,,,,2202.747448000009,4,0.014826999977231026,2.4863810999086127,44,C,2024-01-02_14h54.59.320,gca_avoidance_task,2022.2.4,143.90435559215948,
positions.xlsx,stimuli.xlsx,stimuli/Social1.png,stimuli/Social2.png,stimuli/Nonsocial2.png,stimuli/Nonsocial1.png,cs_plus_ns,,,,,,,0,0,0,0,,,,,,,,,,,,,,,,,5,3,23,1,,,,,,,,,,,,,,,,,,,,,,,2217.3302229000255,1,0.014659499982371926,10.000192199950106,44,C,2024-01-02_14h54.59.320,gca_avoidance_task,2022.2.4,143.90435559215948,
positions.xlsx,stimuli.xlsx,stimuli/Social1.png,stimuli/Social2.png,stimuli/Nonsocial2.png,stimuli/Nonsocial1.png,cs_plus_ns,,,,,,,0,0,0,0,,,,,,,,,,,,,,,,,6,0,24,1,,,,,,,,,,,,,,,,,,,,,,,2232.3713252999587,7,0.014841299969702959,0.5699734999798238,44,C,2024-01-02_14h54.59.320,gca_avoidance_task,2022.2.4,143.90435559215948,
positions.xlsx,stimuli.xlsx,stimuli/Social1.png,stimuli/Social2.png,stimuli/Nonsocial2.png,stimuli/Nonsocial1.png,cs_plus_s,,,,,,,0,0,0,0,,,,,,,,,,,,,,,,,6,1,25,0,,,,,,,,,,,,,,,,,,,,,,,2247.447107600048,6,0.014378500054590404,1.2918639000272378,44,C,2024-01-02_14h54.59.320,gca_avoidance_task,2022.2.4,143.90435559215948,
positions.xlsx,stimuli.xlsx,stimuli/Social1.png,stimuli/Social2.png,stimuli/Nonsocial2.png,stimuli/Nonsocial1.png,cs_minus_ns,,,,,,,0,0,0,0,,,,,,,,,,,,,,,,,6,2,26,3,,,,,,,,,,,,,,,,,,,,,,,2262.4187558999984,8,0.014074699953198433,0.02133959997445345,44,C,2024-01-02_14h54.59.320,gca_avoidance_task,2022.2.4,143.90435559215948,
positions.xlsx,stimuli.xlsx,stimuli/Social1.png,stimuli/Social2.png,stimuli/Nonsocial2.png,stimuli/Nonsocial1.png,cs_minus_s,,,,,,,0,0,0,0,,,,,,,,,,,,,,,,,6,3,27,2,,,,,,,,,,,,,,,,,,,,,,,2277.6820462000323,5,0.014038800029084086,0.5696504999650642,44,C,2024-01-02_14h54.59.320,gca_avoidance_task,2022.2.4,143.90435559215948,
positions.xlsx,stimuli.xlsx,stimuli/Social1.png,stimuli/Social2.png,stimuli/Nonsocial2.png,stimuli/Nonsocial1.png,cs_plus_s,,,,,,,0,0,0,0,,,,,,,,,,,,,,,,,7,0,28,0,,,,,,,,,,,,,,,,,,,,,,,2293.091169000021,9,0.013554900069721043,0.9935012999922037,44,C,2024-01-02_14h54.59.320,gca_avoidance_task,2022.2.4,143.90435559215948,
positions.xlsx,stimuli.xlsx,stimuli/Social1.png,stimuli/Social2.png,stimuli/Nonsocial2.png,stimuli/Nonsocial1.png,cs_minus_s,,,,,,,0,0,0,0,,,,,,,,,,,,,,,,,7,1,29,2,,,,,,,,,,,,,,,,,,,,,,,2307.6253304999555,6,0.013898100005462766,0.5905959000810981,44,C,2024-01-02_14h54.59.320,gca_avoidance_task,2022.2.4,143.90435559215948,
positions.xlsx,stimuli.xlsx,stimuli/Social1.png,stimuli/Social2.png,stimuli/Nonsocial2.png,stimuli/Nonsocial1.png,cs_minus_ns,,,,,,,0,0,0,0,,,,,,,,,,,,,,,,,7,2,30,3,,,,,,,,,,,,,,,,,,,,,,,2322.409495400032,6,0.01556720002554357,0.6045910000102594,44,C,2024-01-02_14h54.59.320,gca_avoidance_task,2022.2.4,143.90435559215948,
positions.xlsx,stimuli.xlsx,stimuli/Social1.png,stimuli/Social2.png,stimuli/Nonsocial2.png,stimuli/Nonsocial1.png,cs_plus_ns,,,,,,,0,0,0,0,,,,,,,,,,,,,,,,,7,3,31,1,,,,,,,,,,,,,,,,,,,,,,,2337.367235600017,4,0.014652500045485795,2.840537799987942,44,C,2024-01-02_14h54.59.320,gca_avoidance_task,2022.2.4,143.90435559215948,
positions.xlsx,stimuli.xlsx,stimuli/Social1.png,stimuli/Social2.png,stimuli/Nonsocial2.png,stimuli/Nonsocial1.png,cs_minus_ns,,,,,,,0,0,0,0,,,,,,,,,,,,,,,,,8,0,32,3,,,,,,,,,,,,,,,,,,,,,,,2351.9222152000293,5,0.0142665000166744,1.4379006000235677,44,C,2024-01-02_14h54.59.320,gca_avoidance_task,2022.2.4,143.90435559215948,
positions.xlsx,stimuli.xlsx,stimuli/Social1.png,stimuli/Social2.png,stimuli/Nonsocial2.png,stimuli/Nonsocial1.png,cs_minus_s,,,,,,,0,0,0,0,,,,,,,,,,,,,,,,,8,1,33,2,,,,,,,,,,,,,,,,,,,,,,,2366.588321999996,4,0.015856999903917313,0.47958469996228814,44,C,2024-01-02_14h54.59.320,gca_avoidance_task,2022.2.4,143.90435559215948,
positions.xlsx,stimuli.xlsx,stimuli/Social1.png,stimuli/Social2.png,stimuli/Nonsocial2.png,stimuli/Nonsocial1.png,cs_plus_ns,,,,,,,0,0,0,0,,,,,,,,,,,,,,,,,8,2,34,1,,,,,,,,,,,,,,,,,,,,,,,2381.2058250999544,2,0.015759099973365664,2.1114368999842554,44,C,2024-01-02_14h54.59.320,gca_avoidance_task,2022.2.4,143.90435559215948,
positions.xlsx,stimuli.xlsx,stimuli/Social1.png,stimuli/Social2.png,stimuli/Nonsocial2.png,stimuli/Nonsocial1.png,cs_plus_s,,,,,,,0,0,0,0,,,,,,,,,,,,,,,,,8,3,35,0,,,,,,,,,,,,,,,,,,,,,,,2396.087203199975,5,0.015253600082360208,2.6876439000479877,44,C,2024-01-02_14h54.59.320,gca_avoidance_task,2022.2.4,143.90435559215948,
positions.xlsx,stimuli.xlsx,stimuli/Social1.png,stimuli/Social2.png,stimuli/Nonsocial2.png,stimuli/Nonsocial1.png,cs_plus_ns,,,,,,,0,0,0,0,,,,,,,,,,,,,,,,,9,0,36,1,,,,,,,,,,,,,,,,,,,,,,,2411.142164399964,7,0.04202439996879548,2.6807248999830335,44,C,2024-01-02_14h54.59.320,gca_avoidance_task,2022.2.4,143.90435559215948,
positions.xlsx,stimuli.xlsx,stimuli/Social1.png,stimuli/Social2.png,stimuli/Nonsocial2.png,stimuli/Nonsocial1.png,cs_plus_s,,,,,,,0,0,0,0,,,,,,,,,,,,,,,,,9,1,37,0,,,,,,,,,,,,,,,,,,,,,,,2425.8429841999896,6,0.013999899965710938,1.5836868999758735,44,C,2024-01-02_14h54.59.320,gca_avoidance_task,2022.2.4,143.90435559215948,
positions.xlsx,stimuli.xlsx,stimuli/Social1.png,stimuli/Social2.png,stimuli/Nonsocial2.png,stimuli/Nonsocial1.png,cs_minus_s,,,,,,,0,0,0,0,,,,,,,,,,,,,,,,,9,2,38,2,,,,,,,,,,,,,,,,,,,,,,,2440.6826822999865,8,0.014333599945530295,0.7709050999255851,44,C,2024-01-02_14h54.59.320,gca_avoidance_task,2022.2.4,143.90435559215948,
positions.xlsx,stimuli.xlsx,stimuli/Social1.png,stimuli/Social2.png,stimuli/Nonsocial2.png,stimuli/Nonsocial1.png,cs_minus_ns,,,,,,,0,0,0,0,,,,,,,,,,,,,,,,,9,3,39,3,,,,,,,,,,,,,,,,,,,,,,,2455.598748199991,6,0.015076600015163422,0.091115300077945,44,C,2024-01-02_14h54.59.320,gca_avoidance_task,2022.2.4,143.90435559215948,
positions.xlsx,stimuli.xlsx,stimuli/Social1.png,stimuli/Social2.png,stimuli/Nonsocial2.png,stimuli/Nonsocial1.png,cs_minus_s,,,,,,,0,0,0,0,,,,,,,,,,,,,,,,,,,,,0,0,0,2,,,,,2469.5148850000696,3.0,3.341884499997832,,,,,,,,,,,,,,,,44,C,2024-01-02_14h54.59.320,gca_avoidance_task,2022.2.4,143.90435559215948,
positions.xlsx,stimuli.xlsx,stimuli/Social1.png,stimuli/Social2.png,stimuli/Nonsocial2.png,stimuli/Nonsocial1.png,cs_plus_ns,,,,,,,0,0,0,0,,,,,,,,,,,,,,,,,,,,,0,1,1,1,,,,,2474.63273870002,6.0,1.7364785999525338,,,,,,,,,,,,,,,,44,C,2024-01-02_14h54.59.320,gca_avoidance_task,2022.2.4,143.90435559215948,
positions.xlsx,stimuli.xlsx,stimuli/Social1.png,stimuli/Social2.png,stimuli/Nonsocial2.png,stimuli/Nonsocial1.png,cs_minus_ns,,,,,,,0,0,0,0,,,,,,,,,,,,,,,,,,,,,0,2,2,3,,,,,2476.9312785000075,6.0,1.0981841000029817,,,,,,,,,,,,,,,,44,C,2024-01-02_14h54.59.320,gca_avoidance_task,2022.2.4,143.90435559215948,
positions.xlsx,stimuli.xlsx,stimuli/Social1.png,stimuli/Social2.png,stimuli/Nonsocial2.png,stimuli/Nonsocial1.png,cs_plus_s,,,,,,,0,0,0,0,,,,,,,,,,,,,,,,,,,,,0,3,3,0,,,,,2478.549256599974,7.0,2.4806546000763774,,,,,,,,,,,,,,,,44,C,2024-01-02_14h54.59.320,gca_avoidance_task,2022.2.4,143.90435559215948,
