posFile,stimFile,cs_plus_s,cs_minus_s,cs_plus_ns,cs_minus_ns,stimtype,position,trialtype,trials_threshold.thisRepN,trials_threshold.thisTrialN,trials_threshold.thisN,trials_threshold.thisIndex,blocks.thisRepN,blocks.thisTrialN,blocks.thisN,blocks.thisIndex,ratingtrials1.thisRepN,ratingtrials1.thisTrialN,ratingtrials1.thisN,ratingtrials1.thisIndex,learning_trials.thisRepN,learning_trials.thisTrialN,learning_trials.thisN,learning_trials.thisIndex,trials.thisRepN,trials.thisTrialN,trials.thisN,trials.thisIndex,ratingtrials2.thisRepN,ratingtrials2.thisTrialN,ratingtrials2.thisN,ratingtrials2.thisIndex,testtrials.thisRepN,testtrials.thisTrialN,testtrials.thisN,testtrials.thisIndex,ratingtrials3.thisRepN,ratingtrials3.thisTrialN,ratingtrials3.thisN,ratingtrials3.thisIndex,textStart.started,sliderPainT.response,sliderPainT.rt,textStartExp.started,imageRating.started,sliderStim.response,sliderStim.rt,textStartTask.started,image.started,score,outcome,roi.numLooks,roi.timesOn,roi.timesOff,imageFeedback.started,sliderPain.response,sliderPain.rt,textTestInstr.started,imageTest.started,roiTest.numLooks,roiTest.timesOn,roiTest.timesOff,participant,group,date,expName,psychopyVersion,frameRate,
,,,,,,,,,0,0,0,0,,,,,,,,,,,,,,,,,,,,,,,,,,,,,16.16939579998143,None,None,,,,,,,,,,,,,,,,,,,,37,B,2023-12-19_14h55.48.013,gca_avoidance_task,2022.2.4,143.93832526573823,
,,,,,,,,,1,0,1,0,,,,,,,,,,,,,,,,,,,,,,,,,,,,,,None,None,,,,,,,,,,,,,,,,,,,,37,B,2023-12-19_14h55.48.013,gca_avoidance_task,2022.2.4,143.93832526573823,
,,,,,,,,,2,0,2,0,,,,,,,,,,,,,,,,,,,,,,,,,,,,,,1.0,24.933036299888045,,,,,,,,,,,,,,,,,,,,37,B,2023-12-19_14h55.48.013,gca_avoidance_task,2022.2.4,143.93832526573823,
,,,,,,,,,3,0,3,0,,,,,,,,,,,,,,,,,,,,,,,,,,,,,,2.0,4.629051200114191,,,,,,,,,,,,,,,,,,,,37,B,2023-12-19_14h55.48.013,gca_avoidance_task,2022.2.4,143.93832526573823,
,,,,,,,,,4,0,4,0,,,,,,,,,,,,,,,,,,,,,,,,,,,,,,4.0,4.972502199932933,,,,,,,,,,,,,,,,,,,,37,B,2023-12-19_14h55.48.013,gca_avoidance_task,2022.2.4,143.93832526573823,
,,,,,,,,,5,0,5,0,,,,,,,,,,,,,,,,,,,,,,,,,,,,,,5.0,2.844640900148079,,,,,,,,,,,,,,,,,,,,37,B,2023-12-19_14h55.48.013,gca_avoidance_task,2022.2.4,143.93832526573823,
,,,,,,,,,6,0,6,0,,,,,,,,,,,,,,,,,,,,,,,,,,,,,,6.0,4.857408500043675,,,,,,,,,,,,,,,,,,,,37,B,2023-12-19_14h55.48.013,gca_avoidance_task,2022.2.4,143.93832526573823,
,,,,,,,,,7,0,7,0,,,,,,,,,,,,,,,,,,,,,,,,,,,,,,6.0,6.170363000128418,,,,,,,,,,,,,,,,,,,,37,B,2023-12-19_14h55.48.013,gca_avoidance_task,2022.2.4,143.93832526573823,
,,,,,,,,,8,0,8,0,,,,,,,,,,,,,,,,,,,,,,,,,,,,,,7.0,3.1540139000862837,,,,,,,,,,,,,,,,,,,,37,B,2023-12-19_14h55.48.013,gca_avoidance_task,2022.2.4,143.93832526573823,
,,,,,,,,,9,0,9,0,,,,,,,,,,,,,,,,,,,,,,,,,,,,,,7.0,4.735853700200096,,,,,,,,,,,,,,,,,,,,37,B,2023-12-19_14h55.48.013,gca_avoidance_task,2022.2.4,143.93832526573823,
,,,,,,,,,10,0,10,0,,,,,,,,,,,,,,,,,,,,,,,,,,,,,,5.0,8.009247899986804,,,,,,,,,,,,,,,,,,,,37,B,2023-12-19_14h55.48.013,gca_avoidance_task,2022.2.4,143.93832526573823,
,,,,,,,,,11,0,11,0,,,,,,,,,,,,,,,,,,,,,,,,,,,,,,6.0,8.543154299957678,,,,,,,,,,,,,,,,,,,,37,B,2023-12-19_14h55.48.013,gca_avoidance_task,2022.2.4,143.93832526573823,
,,,,,,,,,12,0,12,0,,,,,,,,,,,,,,,,,,,,,,,,,,,,,,6.0,2.510673400014639,,,,,,,,,,,,,,,,,,,,37,B,2023-12-19_14h55.48.013,gca_avoidance_task,2022.2.4,143.93832526573823,
,,,,,,,,,13,0,13,0,,,,,,,,,,,,,,,,,,,,,,,,,,,,,,7.0,1.3165553000289947,,,,,,,,,,,,,,,,,,,,37,B,2023-12-19_14h55.48.013,gca_avoidance_task,2022.2.4,143.93832526573823,
,,,,,,,,,14,0,14,0,,,,,,,,,,,,,,,,,,,,,,,,,,,,,,7.0,1.7577692000195384,,,,,,,,,,,,,,,,,,,,37,B,2023-12-19_14h55.48.013,gca_avoidance_task,2022.2.4,143.93832526573823,
,,,,,,,,,15,0,15,0,,,,,,,,,,,,,,,,,,,,,,,,,,,,,,7.0,6.348016000119969,,,,,,,,,,,,,,,,,,,,37,B,2023-12-19_14h55.48.013,gca_avoidance_task,2022.2.4,143.93832526573823,
,,,,,,,,,16,0,16,0,,,,,,,,,,,,,,,,,,,,,,,,,,,,,,7.0,3.1395149999298155,,,,,,,,,,,,,,,,,,,,37,B,2023-12-19_14h55.48.013,gca_avoidance_task,2022.2.4,143.93832526573823,
,,,,,,,,,17,0,17,0,,,,,,,,,,,,,,,,,,,,,,,,,,,,,,4.0,4.8976279001217335,,,,,,,,,,,,,,,,,,,,37,B,2023-12-19_14h55.48.013,gca_avoidance_task,2022.2.4,143.93832526573823,
,,,,,,,,,18,0,18,0,,,,,,,,,,,,,,,,,,,,,,,,,,,,,,5.0,4.946069200057536,,,,,,,,,,,,,,,,,,,,37,B,2023-12-19_14h55.48.013,gca_avoidance_task,2022.2.4,143.93832526573823,
,,,,,,,,,19,0,19,0,,,,,,,,,,,,,,,,,,,,,,,,,,,,,,6.0,8.71864080009982,,,,,,,,,,,,,,,,,,,,37,B,2023-12-19_14h55.48.013,gca_avoidance_task,2022.2.4,143.93832526573823,
positions.xlsx,stimuli.xlsx,stimuli/Social2.png,stimuli/Social1.png,stimuli/Nonsocial1.png,stimuli/Nonsocial2.png,cs_plus_ns,,,,,,,0,0,0,0,0,0,0,1,,,,,,,,,,,,,,,,,,,,,,,,529.6293921000324,573.9109749000054,3.0,12.112589600030333,,,,,,,,,,,,,,,,37,B,2023-12-19_14h55.48.013,gca_avoidance_task,2022.2.4,143.93832526573823,
positions.xlsx,stimuli.xlsx,stimuli/Social2.png,stimuli/Social1.png,stimuli/Nonsocial1.png,stimuli/Nonsocial2.png,cs_minus_s,,,,,,,0,0,0,0,0,1,1,2,,,,,,,,,,,,,,,,,,,,,,,,,587.6743723999243,5.0,8.252151899971068,,,,,,,,,,,,,,,,37,B,2023-12-19_14h55.48.013,gca_avoidance_task,2022.2.4,143.93832526573823,
positions.xlsx,stimuli.xlsx,stimuli/Social2.png,stimuli/Social1.png,stimuli/Nonsocial1.png,stimuli/Nonsocial2.png,cs_minus_ns,,,,,,,0,0,0,0,0,2,2,3,,,,,,,,,,,,,,,,,,,,,,,,,597.5489546000026,4.0,6.120399500010535,,,,,,,,,,,,,,,,37,B,2023-12-19_14h55.48.013,gca_avoidance_task,2022.2.4,143.93832526573823,
positions.xlsx,stimuli.xlsx,stimuli/Social2.png,stimuli/Social1.png,stimuli/Nonsocial1.png,stimuli/Nonsocial2.png,cs_plus_s,,,,,,,0,0,0,0,0,3,3,0,,,,,,,,,,,,,,,,,,,,,,,,,605.083362699952,4.0,10.884660900104791,,,,,,,,,,,,,,,,37,B,2023-12-19_14h55.48.013,gca_avoidance_task,2022.2.4,143.93832526573823,
positions.xlsx,stimuli.xlsx,stimuli/Social2.png,stimuli/Social1.png,stimuli/Nonsocial1.png,stimuli/Nonsocial2.png,,"(0.7, 0.5)",cs_minus_ns,,,,,0,0,0,0,,,,,0,0,0,14,,,,,,,,,,,,,,,,,,,,,,,,617.1106128999963,642.1374668998178,5,reward,1,0.24302569986321032,0.24993809987790883,642.4013268998824,,,,,,,,37,B,2023-12-19_14h55.48.013,gca_avoidance_task,2022.2.4,143.93832526573823,
positions.xlsx,stimuli.xlsx,stimuli/Social2.png,stimuli/Social1.png,stimuli/Nonsocial1.png,stimuli/Nonsocial2.png,,"(0.7, -0.5)",cs_plus_s,,,,,0,0,0,0,,,,,0,1,1,3,,,,,,,,,,,,,,,,,,,,,,,,,651.7412260000128,5,shock,1,0.3131432000081986,0.3131470000371337,652.0606404999271,,,,,,,,37,B,2023-12-19_14h55.48.013,gca_avoidance_task,2022.2.4,143.93832526573823,
positions.xlsx,stimuli.xlsx,stimuli/Social2.png,stimuli/Social1.png,stimuli/Nonsocial1.png,stimuli/Nonsocial2.png,,"(-0.7, -0.5)",cs_plus_ns,,,,,0,0,0,0,,,,,0,2,2,9,,,,,,,,,,,,,,,,,,,,,,,,,661.6435986999422,5,shock,1,0.38917759992182255,0.38918129983358085,662.0324821998365,,,,,,,,37,B,2023-12-19_14h55.48.013,gca_avoidance_task,2022.2.4,143.93832526573823,
positions.xlsx,stimuli.xlsx,stimuli/Social2.png,stimuli/Social1.png,stimuli/Nonsocial1.png,stimuli/Nonsocial2.png,,"(-0.7, 0.5)",cs_minus_ns,,,,,0,0,0,0,,,,,0,3,3,12,,,,,,,,,,,,,,,,,,,,,,,,,671.9696020998526,10,reward,1,0.3405935000628233,0.3405971999745816,672.316816699924,,,,,,,,37,B,2023-12-19_14h55.48.013,gca_avoidance_task,2022.2.4,143.93832526573823,
positions.xlsx,stimuli.xlsx,stimuli/Social2.png,stimuli/Social1.png,stimuli/Nonsocial1.png,stimuli/Nonsocial2.png,,"(0.7, -0.5)",cs_minus_s,,,,,0,0,0,0,,,,,0,4,4,7,,,,,,,,,,,,,,,,,,,,,,,,,682.3719401999842,15,reward,1,0.42389829992316663,0.42390179983340204,682.8024962998461,,,,,,,,37,B,2023-12-19_14h55.48.013,gca_avoidance_task,2022.2.4,143.93832526573823,
positions.xlsx,stimuli.xlsx,stimuli/Social2.png,stimuli/Social1.png,stimuli/Nonsocial1.png,stimuli/Nonsocial2.png,,"(-0.7, 0.5)",cs_plus_ns,,,,,0,0,0,0,,,,,0,5,5,8,,,,,,,,,,,,,,,,,,,,,,,,,692.8159677998628,15,shock,1,0.3961875999812037,0.3961911997757852,693.2187222999055,,,,,,,,37,B,2023-12-19_14h55.48.013,gca_avoidance_task,2022.2.4,143.93832526573823,
positions.xlsx,stimuli.xlsx,stimuli/Social2.png,stimuli/Social1.png,stimuli/Nonsocial1.png,stimuli/Nonsocial2.png,,"(-0.7, -0.5)",cs_minus_s,,,,,0,0,0,0,,,,,0,6,6,5,,,,,,,,,,,,,,,,,,,,,,,,,702.0100475000218,20,reward,1,0.3059187000617385,0.30592229985632,702.3225725998636,,,,,,,,37,B,2023-12-19_14h55.48.013,gca_avoidance_task,2022.2.4,143.93832526573823,
positions.xlsx,stimuli.xlsx,stimuli/Social2.png,stimuli/Social1.png,stimuli/Nonsocial1.png,stimuli/Nonsocial2.png,,"(0.7, 0.5)",cs_minus_s,,,,,0,0,0,0,,,,,0,7,7,6,,,,,,,,,,,,,,,,,,,,,,,,,711.8569097998552,25,reward,1,0.2504748997744173,0.25047839991748333,712.1138675999828,,,,,,,,37,B,2023-12-19_14h55.48.013,gca_avoidance_task,2022.2.4,143.93832526573823,
positions.xlsx,stimuli.xlsx,stimuli/Social2.png,stimuli/Social1.png,stimuli/Nonsocial1.png,stimuli/Nonsocial2.png,,"(-0.7, 0.5)",cs_minus_s,,,,,0,0,0,0,,,,,0,8,8,4,,,,,,,,,,,,,,,,,,,,,,,,,721.2176238999236,30,reward,1,0.2845590999349952,0.28456269996240735,721.5093035998289,,,,,,,,37,B,2023-12-19_14h55.48.013,gca_avoidance_task,2022.2.4,143.93832526573823,
positions.xlsx,stimuli.xlsx,stimuli/Social2.png,stimuli/Social1.png,stimuli/Nonsocial1.png,stimuli/Nonsocial2.png,,"(0.7, 0.5)",cs_plus_ns,,,,,0,0,0,0,,,,,0,9,9,10,,,,,,,,,,,,,,,,,,,,,,,,,731.1200306999963,30,shock,1,0.2710876001510769,0.2710910001769662,731.3977854000404,,,,,,,,37,B,2023-12-19_14h55.48.013,gca_avoidance_task,2022.2.4,143.93832526573823,
positions.xlsx,stimuli.xlsx,stimuli/Social2.png,stimuli/Social1.png,stimuli/Nonsocial1.png,stimuli/Nonsocial2.png,,"(0.7, -0.5)",cs_plus_ns,,,,,0,0,0,0,,,,,0,10,10,11,,,,,,,,,,,,,,,,,,,,,,,,,741.4946001998615,30,shock,1,0.2847553000319749,0.28475900017656386,741.7863049998414,,,,,,,,37,B,2023-12-19_14h55.48.013,gca_avoidance_task,2022.2.4,143.93832526573823,
positions.xlsx,stimuli.xlsx,stimuli/Social2.png,stimuli/Social1.png,stimuli/Nonsocial1.png,stimuli/Nonsocial2.png,,"(-0.7, -0.5)",cs_minus_ns,,,,,0,0,0,0,,,,,0,11,11,13,,,,,,,,,,,,,,,,,,,,,,,,,750.8553513998631,35,reward,1,0.3060147000942379,0.3060183001216501,751.1678489998449,,,,,,,,37,B,2023-12-19_14h55.48.013,gca_avoidance_task,2022.2.4,143.93832526573823,
positions.xlsx,stimuli.xlsx,stimuli/Social2.png,stimuli/Social1.png,stimuli/Nonsocial1.png,stimuli/Nonsocial2.png,,"(-0.7, -0.5)",cs_plus_s,,,,,0,0,0,0,,,,,0,12,12,1,,,,,,,,,,,,,,,,,,,,,,,,,761.3549273998942,35,shock,1,0.28522390010766685,0.28522780002094805,761.6465926000383,,,,,,,,37,B,2023-12-19_14h55.48.013,gca_avoidance_task,2022.2.4,143.93832526573823,
positions.xlsx,stimuli.xlsx,stimuli/Social2.png,stimuli/Social1.png,stimuli/Nonsocial1.png,stimuli/Nonsocial2.png,,"(0.7, -0.5)",cs_minus_ns,,,,,0,0,0,0,,,,,0,13,13,15,,,,,,,,,,,,,,,,,,,,,,,,,771.2642675999086,40,reward,1,0.5489026000723243,0.5489061998669058,771.8197760998737,,,,,,,,37,B,2023-12-19_14h55.48.013,gca_avoidance_task,2022.2.4,143.93832526573823,
positions.xlsx,stimuli.xlsx,stimuli/Social2.png,stimuli/Social1.png,stimuli/Nonsocial1.png,stimuli/Nonsocial2.png,,"(0.7, 0.5)",cs_plus_s,,,,,0,0,0,0,,,,,0,14,14,2,,,,,,,,,,,,,,,,,,,,,,,,,781.9583016999532,40,none,0,,,786.9719570998568,,,,,,,,37,B,2023-12-19_14h55.48.013,gca_avoidance_task,2022.2.4,143.93832526573823,
positions.xlsx,stimuli.xlsx,stimuli/Social2.png,stimuli/Social1.png,stimuli/Nonsocial1.png,stimuli/Nonsocial2.png,,"(-0.7, 0.5)",cs_plus_s,,,,,0,0,0,0,,,,,0,15,15,0,,,,,,,,,,,,,,,,,,,,,,,,,796.6590733998455,40,shock,1,0.3893998998682946,0.3894034998957068,797.054899699986,,,,,,,,37,B,2023-12-19_14h55.48.013,gca_avoidance_task,2022.2.4,143.93832526573823,
positions.xlsx,stimuli.xlsx,stimuli/Social2.png,stimuli/Social1.png,stimuli/Nonsocial1.png,stimuli/Nonsocial2.png,,"(-0.7, 0.5)",cs_minus_ns,,,,,0,0,0,0,,,,,1,0,16,12,,,,,,,,,,,,,,,,,,,,,,,,,806.3045204000082,45,reward,1,0.6876290000509471,0.6876328999642283,806.9989487999119,,,,,,,,37,B,2023-12-19_14h55.48.013,gca_avoidance_task,2022.2.4,143.93832526573823,
positions.xlsx,stimuli.xlsx,stimuli/Social2.png,stimuli/Social1.png,stimuli/Nonsocial1.png,stimuli/Nonsocial2.png,,"(0.7, -0.5)",cs_minus_s,,,,,0,0,0,0,,,,,1,1,17,7,,,,,,,,,,,,,,,,,,,,,,,,,816.6722190999426,50,reward,1,0.49307369999587536,0.4930774001404643,817.1721922999714,,,,,,,,37,B,2023-12-19_14h55.48.013,gca_avoidance_task,2022.2.4,143.93832526573823,
positions.xlsx,stimuli.xlsx,stimuli/Social2.png,stimuli/Social1.png,stimuli/Nonsocial1.png,stimuli/Nonsocial2.png,,"(-0.7, -0.5)",cs_plus_ns,,,,,0,0,0,0,,,,,1,2,18,9,,,,,,,,,,,,,,,,,,,,,,,,,826.9773448000196,50,none,0,,,831.9910016998183,,,,,,,,37,B,2023-12-19_14h55.48.013,gca_avoidance_task,2022.2.4,143.93832526573823,
positions.xlsx,stimuli.xlsx,stimuli/Social2.png,stimuli/Social1.png,stimuli/Nonsocial1.png,stimuli/Nonsocial2.png,,"(0.7, -0.5)",cs_minus_ns,,,,,0,0,0,0,,,,,1,3,19,15,,,,,,,,,,,,,,,,,,,,,,,,,841.9558913998771,55,reward,1,0.472463299985975,0.4724669000133872,842.4350558000151,,,,,,,,37,B,2023-12-19_14h55.48.013,gca_avoidance_task,2022.2.4,143.93832526573823,
positions.xlsx,stimuli.xlsx,stimuli/Social2.png,stimuli/Social1.png,stimuli/Nonsocial1.png,stimuli/Nonsocial2.png,,"(0.7, 0.5)",cs_plus_ns,,,,,0,0,0,0,,,,,1,4,20,10,,,,,,,,,,,,,,,,,,,,,,,,,852.2471600000281,55,none,0,,,857.2608201999683,,,,,,,,37,B,2023-12-19_14h55.48.013,gca_avoidance_task,2022.2.4,143.93832526573823,
positions.xlsx,stimuli.xlsx,stimuli/Social2.png,stimuli/Social1.png,stimuli/Nonsocial1.png,stimuli/Nonsocial2.png,,"(0.7, 0.5)",cs_minus_ns,,,,,0,0,0,0,,,,,1,5,21,14,,,,,,,,,,,,,,,,,,,,,,,,,866.50353119988,60,reward,1,0.6740602001082152,0.6740640001371503,867.1840669999365,,,,,,,,37,B,2023-12-19_14h55.48.013,gca_avoidance_task,2022.2.4,143.93832526573823,
positions.xlsx,stimuli.xlsx,stimuli/Social2.png,stimuli/Social1.png,stimuli/Nonsocial1.png,stimuli/Nonsocial2.png,,"(0.7, -0.5)",cs_plus_ns,,,,,0,0,0,0,,,,,1,6,22,11,,,,,,,,,,,,,,,,,,,,,,,,,876.3781689000316,60,shock,1,3.6393973999656737,3.6394013001117855,880.0238495999947,,,,,,,,37,B,2023-12-19_14h55.48.013,gca_avoidance_task,2022.2.4,143.93832526573823,
positions.xlsx,stimuli.xlsx,stimuli/Social2.png,stimuli/Social1.png,stimuli/Nonsocial1.png,stimuli/Nonsocial2.png,,"(0.7, 0.5)",cs_plus_s,,,,,0,0,0,0,,,,,1,7,23,2,,,,,,,,,,,,,,,,,,,,,,,,,889.2040597999003,60,none,0,,,894.2108066999353,,,,,,,,37,B,2023-12-19_14h55.48.013,gca_avoidance_task,2022.2.4,143.93832526573823,
positions.xlsx,stimuli.xlsx,stimuli/Social2.png,stimuli/Social1.png,stimuli/Nonsocial1.png,stimuli/Nonsocial2.png,,"(-0.7, -0.5)",cs_minus_s,,,,,0,0,0,0,,,,,1,8,24,5,,,,,,,,,,,,,,,,,,,,,,,,,904.4117739000358,65,reward,1,0.6180037001613528,0.6180075001902878,905.0367677998729,,,,,,,,37,B,2023-12-19_14h55.48.013,gca_avoidance_task,2022.2.4,143.93832526573823,
positions.xlsx,stimuli.xlsx,stimuli/Social2.png,stimuli/Social1.png,stimuli/Nonsocial1.png,stimuli/Nonsocial2.png,,"(-0.7, 0.5)",cs_plus_s,,,,,0,0,0,0,,,,,1,9,25,0,,,,,,,,,,,,,,,,,,,,,,,,,914.6891430998221,65,none,0,,,919.7028510000091,,,,,,,,37,B,2023-12-19_14h55.48.013,gca_avoidance_task,2022.2.4,143.93832526573823,
positions.xlsx,stimuli.xlsx,stimuli/Social2.png,stimuli/Social1.png,stimuli/Nonsocial1.png,stimuli/Nonsocial2.png,,"(-0.7, -0.5)",cs_minus_ns,,,,,0,0,0,0,,,,,1,10,26,13,,,,,,,,,,,,,,,,,,,,,,,,,929.4802192000207,70,reward,1,0.5833042999729514,0.5833079998847097,930.0774303998332,,,,,,,,37,B,2023-12-19_14h55.48.013,gca_avoidance_task,2022.2.4,143.93832526573823,
positions.xlsx,stimuli.xlsx,stimuli/Social2.png,stimuli/Social1.png,stimuli/Nonsocial1.png,stimuli/Nonsocial2.png,,"(0.7, -0.5)",cs_plus_s,,,,,0,0,0,0,,,,,1,11,27,3,,,,,,,,,,,,,,,,,,,,,,,,,939.7159493998624,70,shock,1,1.2432876999955624,1.2501145999412984,940.9728411999531,,,,,,,,37,B,2023-12-19_14h55.48.013,gca_avoidance_task,2022.2.4,143.93832526573823,
positions.xlsx,stimuli.xlsx,stimuli/Social2.png,stimuli/Social1.png,stimuli/Nonsocial1.png,stimuli/Nonsocial2.png,,"(-0.7, -0.5)",cs_plus_s,,,,,0,0,0,0,,,,,1,12,28,1,,,,,,,,,,,,,,,,,,,,,,,,,950.9932662998326,70,none,0,,,956.0000316998921,,,,,,,,37,B,2023-12-19_14h55.48.013,gca_avoidance_task,2022.2.4,143.93832526573823,
positions.xlsx,stimuli.xlsx,stimuli/Social2.png,stimuli/Social1.png,stimuli/Nonsocial1.png,stimuli/Nonsocial2.png,,"(-0.7, 0.5)",cs_plus_ns,,,,,0,0,0,0,,,,,1,13,29,8,,,,,,,,,,,,,,,,,,,,,,,,,965.4510288999882,70,none,0,,,970.4578001999762,,,,,,,,37,B,2023-12-19_14h55.48.013,gca_avoidance_task,2022.2.4,143.93832526573823,
positions.xlsx,stimuli.xlsx,stimuli/Social2.png,stimuli/Social1.png,stimuli/Nonsocial1.png,stimuli/Nonsocial2.png,,"(0.7, 0.5)",cs_minus_s,,,,,0,0,0,0,,,,,1,14,30,6,,,,,,,,,,,,,,,,,,,,,,,,,980.4087576998863,75,reward,1,0.6526892001274973,0.6526931000407785,981.0684617999941,,,,,,,,37,B,2023-12-19_14h55.48.013,gca_avoidance_task,2022.2.4,143.93832526573823,
positions.xlsx,stimuli.xlsx,stimuli/Social2.png,stimuli/Social1.png,stimuli/Nonsocial1.png,stimuli/Nonsocial2.png,,"(-0.7, 0.5)",cs_minus_s,,,,,0,0,0,0,,,,,1,15,31,4,,,,,,,,,,,,,,,,,,,,,,,,,990.3806167000439,80,reward,1,0.6528339001815766,0.6528378000948578,991.0402827998623,,,,,,,,37,B,2023-12-19_14h55.48.013,gca_avoidance_task,2022.2.4,143.93832526573823,
positions.xlsx,stimuli.xlsx,stimuli/Social2.png,stimuli/Social1.png,stimuli/Nonsocial1.png,stimuli/Nonsocial2.png,,"(0.7, -0.5)",cs_minus_s,,,,,0,0,0,0,,,,,,,,,0,0,0,7,,,,,,,,,,,,,,,,,,,,,1015.5115685998462,85,reward,1,0.549034500028938,0.5490383000578731,1016.0671029000077,,,,,,,,37,B,2023-12-19_14h55.48.013,gca_avoidance_task,2022.2.4,143.93832526573823,
positions.xlsx,stimuli.xlsx,stimuli/Social2.png,stimuli/Social1.png,stimuli/Nonsocial1.png,stimuli/Nonsocial2.png,,"(-0.7, 0.5)",cs_plus_ns,,,,,0,0,0,0,,,,,,,,,0,1,1,8,,,,,,,,,,,,,,,,,,,,,1025.788919299841,85,none,0,,,1030.8026707998943,,,,,,,,37,B,2023-12-19_14h55.48.013,gca_avoidance_task,2022.2.4,143.93832526573823,
positions.xlsx,stimuli.xlsx,stimuli/Social2.png,stimuli/Social1.png,stimuli/Nonsocial1.png,stimuli/Nonsocial2.png,,"(0.7, 0.5)",cs_minus_s,,,,,0,0,0,0,,,,,,,,,0,2,2,6,,,,,,,,,,,,,,,,,,,,,1040.3716662998777,90,reward,1,0.5836219999473542,0.5836257000919431,1040.9619877999648,,,,,,,,37,B,2023-12-19_14h55.48.013,gca_avoidance_task,2022.2.4,143.93832526573823,
positions.xlsx,stimuli.xlsx,stimuli/Social2.png,stimuli/Social1.png,stimuli/Nonsocial1.png,stimuli/Nonsocial2.png,,"(0.7, -0.5)",cs_minus_ns,,,,,0,0,0,0,,,,,,,,,0,3,3,15,,,,,,,,,,,,,,,,,,,,,1050.6004228999373,95,reward,1,0.43791049998253584,0.4454340999945998,1051.0518302998971,,,,,,,,37,B,2023-12-19_14h55.48.013,gca_avoidance_task,2022.2.4,143.93832526573823,
positions.xlsx,stimuli.xlsx,stimuli/Social2.png,stimuli/Social1.png,stimuli/Nonsocial1.png,stimuli/Nonsocial2.png,,"(-0.7, 0.5)",cs_plus_s,,,,,0,0,0,0,,,,,,,,,0,4,4,0,,,,,,,,,,,,,,,,,,,,,1060.8708958998322,95,none,0,,,1065.877647300018,,,,,,,,37,B,2023-12-19_14h55.48.013,gca_avoidance_task,2022.2.4,143.93832526573823,
positions.xlsx,stimuli.xlsx,stimuli/Social2.png,stimuli/Social1.png,stimuli/Nonsocial1.png,stimuli/Nonsocial2.png,,"(-0.7, -0.5)",cs_minus_ns,,,,,0,0,0,0,,,,,,,,,0,5,5,13,,,,,,,,,,,,,,,,,,,,,1074.8217151998542,100,reward,1,0.555665299994871,0.5556692997924984,1075.384197599953,,,,,,,,37,B,2023-12-19_14h55.48.013,gca_avoidance_task,2022.2.4,143.93832526573823,
positions.xlsx,stimuli.xlsx,stimuli/Social2.png,stimuli/Social1.png,stimuli/Nonsocial1.png,stimuli/Nonsocial2.png,,"(-0.7, -0.5)",cs_minus_s,,,,,0,0,0,0,,,,,,,,,0,6,6,5,,,,,,,,,,,,,,,,,,,,,1084.6199379998725,105,reward,1,0.4655414998997003,0.47218509996309876,1085.0991154999938,,,,,,,,37,B,2023-12-19_14h55.48.013,gca_avoidance_task,2022.2.4,143.93832526573823,
positions.xlsx,stimuli.xlsx,stimuli/Social2.png,stimuli/Social1.png,stimuli/Nonsocial1.png,stimuli/Nonsocial2.png,,"(-0.7, -0.5)",cs_plus_ns,,,,,0,0,0,0,,,,,,,,,0,7,7,9,,,,,,,,,,,,,,,,,,,,,1095.3278771999758,105,none,0,,,1100.341559899971,,,,,,,,37,B,2023-12-19_14h55.48.013,gca_avoidance_task,2022.2.4,143.93832526573823,
positions.xlsx,stimuli.xlsx,stimuli/Social2.png,stimuli/Social1.png,stimuli/Nonsocial1.png,stimuli/Nonsocial2.png,,"(0.7, -0.5)",cs_plus_ns,,,,,0,0,0,0,,,,,,,,,0,8,8,11,,,,,,,,,,,,,,,,,,,,,1109.3759110998362,105,none,0,,,1114.3826637999155,,,,,,,,37,B,2023-12-19_14h55.48.013,gca_avoidance_task,2022.2.4,143.93832526573823,
positions.xlsx,stimuli.xlsx,stimuli/Social2.png,stimuli/Social1.png,stimuli/Nonsocial1.png,stimuli/Nonsocial2.png,,"(0.7, -0.5)",cs_plus_s,,,,,0,0,0,0,,,,,,,,,0,9,9,3,,,,,,,,,,,,,,,,,,,,,1124.2780830999836,105,none,0,,,1129.2848675998393,,,,,,,,37,B,2023-12-19_14h55.48.013,gca_avoidance_task,2022.2.4,143.93832526573823,
positions.xlsx,stimuli.xlsx,stimuli/Social2.png,stimuli/Social1.png,stimuli/Nonsocial1.png,stimuli/Nonsocial2.png,,"(0.7, 0.5)",cs_plus_s,,,,,0,0,0,0,,,,,,,,,0,10,10,2,,,,,,,,,,,,,,,,,,,,,1139.1941867999267,105,none,0,,,1144.2009504998568,,,,,,,,37,B,2023-12-19_14h55.48.013,gca_avoidance_task,2022.2.4,143.93832526573823,
positions.xlsx,stimuli.xlsx,stimuli/Social2.png,stimuli/Social1.png,stimuli/Nonsocial1.png,stimuli/Nonsocial2.png,,"(-0.7, -0.5)",cs_plus_s,,,,,0,0,0,0,,,,,,,,,0,11,11,1,,,,,,,,,,,,,,,,,,,,,1153.4019669999834,105,none,0,,,1158.408705699956,,,,,,,,37,B,2023-12-19_14h55.48.013,gca_avoidance_task,2022.2.4,143.93832526573823,
positions.xlsx,stimuli.xlsx,stimuli/Social2.png,stimuli/Social1.png,stimuli/Nonsocial1.png,stimuli/Nonsocial2.png,,"(0.7, 0.5)",cs_minus_ns,,,,,0,0,0,0,,,,,,,,,0,12,12,14,,,,,,,,,,,,,,,,,,,,,1168.5055580998305,110,reward,1,0.47952209995128214,0.4795260999817401,1168.9916299998295,,,,,,,,37,B,2023-12-19_14h55.48.013,gca_avoidance_task,2022.2.4,143.93832526573823,
positions.xlsx,stimuli.xlsx,stimuli/Social2.png,stimuli/Social1.png,stimuli/Nonsocial1.png,stimuli/Nonsocial2.png,,"(-0.7, 0.5)",cs_minus_ns,,,,,0,0,0,0,,,,,,,,,0,13,13,12,,,,,,,,,,,,,,,,,,,,,1178.2412700999994,115,reward,1,0.5212793000973761,0.5212831001263112,1178.7690792998765,,,,,,,,37,B,2023-12-19_14h55.48.013,gca_avoidance_task,2022.2.4,143.93832526573823,
positions.xlsx,stimuli.xlsx,stimuli/Social2.png,stimuli/Social1.png,stimuli/Nonsocial1.png,stimuli/Nonsocial2.png,,"(-0.7, 0.5)",cs_minus_s,,,,,0,0,0,0,,,,,,,,,0,14,14,4,,,,,,,,,,,,,,,,,,,,,1188.657549599884,120,reward,1,0.5491882001515478,0.5491919999476522,1189.2131101998966,,,,,,,,37,B,2023-12-19_14h55.48.013,gca_avoidance_task,2022.2.4,143.93832526573823,
positions.xlsx,stimuli.xlsx,stimuli/Social2.png,stimuli/Social1.png,stimuli/Nonsocial1.png,stimuli/Nonsocial2.png,,"(0.7, 0.5)",cs_plus_ns,,,,,0,0,0,0,,,,,,,,,0,15,15,10,,,,,,,,,,,,,,,,,,,,,1198.6849358000327,120,none,0,,,1203.698644499993,,,,,,,,37,B,2023-12-19_14h55.48.013,gca_avoidance_task,2022.2.4,143.93832526573823,
positions.xlsx,stimuli.xlsx,stimuli/Social2.png,stimuli/Social1.png,stimuli/Nonsocial1.png,stimuli/Nonsocial2.png,,"(0.7, 0.5)",cs_plus_ns,,,,,0,0,0,0,,,,,,,,,1,0,16,10,,,,,,,,,,,,,,,,,,,,,1212.8372200999875,120,none,0,,,1217.8439209000207,,,,,,,,37,B,2023-12-19_14h55.48.013,gca_avoidance_task,2022.2.4,143.93832526573823,
positions.xlsx,stimuli.xlsx,stimuli/Social2.png,stimuli/Social1.png,stimuli/Nonsocial1.png,stimuli/Nonsocial2.png,,"(-0.7, -0.5)",cs_plus_ns,,,,,0,0,0,0,,,,,,,,,1,1,17,9,,,,,,,,,,,,,,,,,,,,,1227.8990638998803,120,none,0,,,1232.912760599982,,,,,,,,37,B,2023-12-19_14h55.48.013,gca_avoidance_task,2022.2.4,143.93832526573823,
positions.xlsx,stimuli.xlsx,stimuli/Social2.png,stimuli/Social1.png,stimuli/Nonsocial1.png,stimuli/Nonsocial2.png,,"(0.7, -0.5)",cs_minus_s,,,,,0,0,0,0,,,,,,,,,1,2,18,7,,,,,,,,,,,,,,,,,,,,,1242.4749262998812,125,reward,1,0.4236026001162827,0.4236062001436949,1242.9054383998737,,,,,,,,37,B,2023-12-19_14h55.48.013,gca_avoidance_task,2022.2.4,143.93832526573823,
positions.xlsx,stimuli.xlsx,stimuli/Social2.png,stimuli/Social1.png,stimuli/Nonsocial1.png,stimuli/Nonsocial2.png,,"(-0.7, -0.5)",cs_minus_s,,,,,0,0,0,0,,,,,,,,,1,3,19,5,,,,,,,,,,,,,,,,,,,,,1251.5856990998145,130,reward,1,0.5907833999954164,0.5907870000228286,1252.1828215999994,,,,,,,,37,B,2023-12-19_14h55.48.013,gca_avoidance_task,2022.2.4,143.93832526573823,
positions.xlsx,stimuli.xlsx,stimuli/Social2.png,stimuli/Social1.png,stimuli/Nonsocial1.png,stimuli/Nonsocial2.png,,"(-0.7, 0.5)",cs_plus_s,,,,,0,0,0,0,,,,,,,,,1,4,20,0,,,,,,,,,,,,,,,,,,,,,1261.696329999948,130,none,0,,,1266.70307339984,,,,,,,,37,B,2023-12-19_14h55.48.013,gca_avoidance_task,2022.2.4,143.93832526573823,
positions.xlsx,stimuli.xlsx,stimuli/Social2.png,stimuli/Social1.png,stimuli/Nonsocial1.png,stimuli/Nonsocial2.png,,"(0.7, 0.5)",cs_minus_ns,,,,,0,0,0,0,,,,,,,,,1,5,21,14,,,,,,,,,,,,,,,,,,,,,1276.7998956998345,135,reward,1,0.7016011998057365,0.7016047998331487,1277.508218599949,,,,,,,,37,B,2023-12-19_14h55.48.013,gca_avoidance_task,2022.2.4,143.93832526573823,
positions.xlsx,stimuli.xlsx,stimuli/Social2.png,stimuli/Social1.png,stimuli/Nonsocial1.png,stimuli/Nonsocial2.png,,"(-0.7, 0.5)",cs_plus_ns,,,,,0,0,0,0,,,,,,,,,1,6,22,8,,,,,,,,,,,,,,,,,,,,,1287.4939846999478,135,none,0,,,1292.5076535998378,,,,,,,,37,B,2023-12-19_14h55.48.013,gca_avoidance_task,2022.2.4,143.93832526573823,
positions.xlsx,stimuli.xlsx,stimuli/Social2.png,stimuli/Social1.png,stimuli/Nonsocial1.png,stimuli/Nonsocial2.png,,"(-0.7, 0.5)",cs_minus_s,,,,,0,0,0,0,,,,,,,,,1,7,23,4,,,,,,,,,,,,,,,,,,,,,1302.2155810999684,140,reward,1,0.5349892000667751,0.5418966999277472,1302.7642026999965,,,,,,,,37,B,2023-12-19_14h55.48.013,gca_avoidance_task,2022.2.4,143.93832526573823,
positions.xlsx,stimuli.xlsx,stimuli/Social2.png,stimuli/Social1.png,stimuli/Nonsocial1.png,stimuli/Nonsocial2.png,,"(0.7, -0.5)",cs_plus_ns,,,,,0,0,0,0,,,,,,,,,1,8,24,11,,,,,,,,,,,,,,,,,,,,,1312.8471325000282,140,none,0,,,1317.8538591999095,,,,,,,,37,B,2023-12-19_14h55.48.013,gca_avoidance_task,2022.2.4,143.93832526573823,
positions.xlsx,stimuli.xlsx,stimuli/Social2.png,stimuli/Social1.png,stimuli/Nonsocial1.png,stimuli/Nonsocial2.png,,"(-0.7, -0.5)",cs_plus_s,,,,,0,0,0,0,,,,,,,,,1,9,25,1,,,,,,,,,,,,,,,,,,,,,1327.0965607999824,140,none,0,,,1332.1102634000126,,,,,,,,37,B,2023-12-19_14h55.48.013,gca_avoidance_task,2022.2.4,143.93832526573823,
positions.xlsx,stimuli.xlsx,stimuli/Social2.png,stimuli/Social1.png,stimuli/Nonsocial1.png,stimuli/Nonsocial2.png,,"(-0.7, -0.5)",cs_minus_ns,,,,,0,0,0,0,,,,,,,,,1,10,26,13,,,,,,,,,,,,,,,,,,,,,1341.21406379994,145,reward,1,0.4308453002013266,0.4308492001146078,1341.6515636998229,,,,,,,,37,B,2023-12-19_14h55.48.013,gca_avoidance_task,2022.2.4,143.93832526573823,
positions.xlsx,stimuli.xlsx,stimuli/Social2.png,stimuli/Social1.png,stimuli/Nonsocial1.png,stimuli/Nonsocial2.png,,"(0.7, 0.5)",cs_minus_s,,,,,0,0,0,0,,,,,,,,,1,11,27,6,,,,,,,,,,,,,,,,,,,,,1351.6442082999274,150,reward,1,0.5278853999916464,0.5278892000205815,1352.1789279000368,,,,,,,,37,B,2023-12-19_14h55.48.013,gca_avoidance_task,2022.2.4,143.93832526573823,
positions.xlsx,stimuli.xlsx,stimuli/Social2.png,stimuli/Social1.png,stimuli/Nonsocial1.png,stimuli/Nonsocial2.png,,"(0.7, 0.5)",cs_plus_s,,,,,0,0,0,0,,,,,,,,,1,12,28,2,,,,,,,,,,,,,,,,,,,,,1361.4771590000018,150,none,0,,,1366.4908535999712,,,,,,,,37,B,2023-12-19_14h55.48.013,gca_avoidance_task,2022.2.4,143.93832526573823,
positions.xlsx,stimuli.xlsx,stimuli/Social2.png,stimuli/Social1.png,stimuli/Nonsocial1.png,stimuli/Nonsocial2.png,,"(0.7, -0.5)",cs_plus_s,,,,,0,0,0,0,,,,,,,,,1,13,29,3,,,,,,,,,,,,,,,,,,,,,1375.9349584998563,150,none,0,,,1380.9416715998668,,,,,,,,37,B,2023-12-19_14h55.48.013,gca_avoidance_task,2022.2.4,143.93832526573823,
positions.xlsx,stimuli.xlsx,stimuli/Social2.png,stimuli/Social1.png,stimuli/Nonsocial1.png,stimuli/Nonsocial2.png,,"(0.7, -0.5)",cs_minus_ns,,,,,0,0,0,0,,,,,,,,,1,14,30,15,,,,,,,,,,,,,,,,,,,,,1390.6426839998458,155,reward,1,0.46546179987490177,0.4654655000194907,1391.114879899891,,,,,,,,37,B,2023-12-19_14h55.48.013,gca_avoidance_task,2022.2.4,143.93832526573823,
positions.xlsx,stimuli.xlsx,stimuli/Social2.png,stimuli/Social1.png,stimuli/Nonsocial1.png,stimuli/Nonsocial2.png,,"(-0.7, 0.5)",cs_minus_ns,,,,,0,0,0,0,,,,,,,,,1,15,31,12,,,,,,,,,,,,,,,,,,,,,1400.5381083998363,160,reward,1,0.555729900021106,0.5557334998156875,1401.1006314998958,,,,,,,,37,B,2023-12-19_14h55.48.013,gca_avoidance_task,2022.2.4,143.93832526573823,
positions.xlsx,stimuli.xlsx,stimuli/Social2.png,stimuli/Social1.png,stimuli/Nonsocial1.png,stimuli/Nonsocial2.png,,"(0.7, -0.5)",cs_minus_ns,,,,,0,0,0,0,,,,,,,,,2,0,32,15,,,,,,,,,,,,,,,,,,,,,1410.8015990999993,165,reward,1,0.4585169998463243,0.4585204999893904,1411.2669061999768,,,,,,,,37,B,2023-12-19_14h55.48.013,gca_avoidance_task,2022.2.4,143.93832526573823,
positions.xlsx,stimuli.xlsx,stimuli/Social2.png,stimuli/Social1.png,stimuli/Nonsocial1.png,stimuli/Nonsocial2.png,,"(-0.7, 0.5)",cs_minus_s,,,,,0,0,0,0,,,,,,,,,2,1,33,4,,,,,,,,,,,,,,,,,,,,,1421.1623207000084,170,reward,1,0.49334809998981655,0.49335159990005195,1421.6623207998928,,,,,,,,37,B,2023-12-19_14h55.48.013,gca_avoidance_task,2022.2.4,143.93832526573823,
positions.xlsx,stimuli.xlsx,stimuli/Social2.png,stimuli/Social1.png,stimuli/Nonsocial1.png,stimuli/Nonsocial2.png,,"(-0.7, -0.5)",cs_plus_ns,,,,,0,0,0,0,,,,,,,,,2,2,34,9,,,,,,,,,,,,,,,,,,,,,1430.8981105999555,170,none,0,,,1435.9117754998151,,,,,,,,37,B,2023-12-19_14h55.48.013,gca_avoidance_task,2022.2.4,143.93832526573823,
positions.xlsx,stimuli.xlsx,stimuli/Social2.png,stimuli/Social1.png,stimuli/Nonsocial1.png,stimuli/Nonsocial2.png,,"(-0.7, 0.5)",cs_minus_ns,,,,,0,0,0,0,,,,,,,,,2,3,35,12,,,,,,,,,,,,,,,,,,,,,1445.716946600005,175,reward,1,0.6181742998305708,0.6181782998610288,1446.3418990999926,,,,,,,,37,B,2023-12-19_14h55.48.013,gca_avoidance_task,2022.2.4,143.93832526573823,
positions.xlsx,stimuli.xlsx,stimuli/Social2.png,stimuli/Social1.png,stimuli/Nonsocial1.png,stimuli/Nonsocial2.png,,"(-0.7, 0.5)",cs_plus_ns,,,,,0,0,0,0,,,,,,,,,2,4,36,8,,,,,,,,,,,,,,,,,,,,,1455.3277006999124,175,none,0,,,1460.3413984000217,,,,,,,,37,B,2023-12-19_14h55.48.013,gca_avoidance_task,2022.2.4,143.93832526573823,
positions.xlsx,stimuli.xlsx,stimuli/Social2.png,stimuli/Social1.png,stimuli/Nonsocial1.png,stimuli/Nonsocial2.png,,"(0.7, -0.5)",cs_plus_ns,,,,,0,0,0,0,,,,,,,,,2,5,37,11,,,,,,,,,,,,,,,,,,,,,1470.3409523998853,175,none,0,,,1475.3477178998291,,,,,,,,37,B,2023-12-19_14h55.48.013,gca_avoidance_task,2022.2.4,143.93832526573823,
positions.xlsx,stimuli.xlsx,stimuli/Social2.png,stimuli/Social1.png,stimuli/Nonsocial1.png,stimuli/Nonsocial2.png,,"(0.7, 0.5)",cs_minus_s,,,,,0,0,0,0,,,,,,,,,2,6,38,6,,,,,,,,,,,,,,,,,,,,,1484.2570630998816,180,reward,1,0.6806163999717683,0.6806201001163572,1484.9445546998177,,,,,,,,37,B,2023-12-19_14h55.48.013,gca_avoidance_task,2022.2.4,143.93832526573823,
positions.xlsx,stimuli.xlsx,stimuli/Social2.png,stimuli/Social1.png,stimuli/Nonsocial1.png,stimuli/Nonsocial2.png,,"(0.7, -0.5)",cs_plus_s,,,,,0,0,0,0,,,,,,,,,2,7,39,3,,,,,,,,,,,,,,,,,,,,,1494.4372727000155,180,none,0,,,1499.4439912999514,,,,,,,,37,B,2023-12-19_14h55.48.013,gca_avoidance_task,2022.2.4,143.93832526573823,
positions.xlsx,stimuli.xlsx,stimuli/Social2.png,stimuli/Social1.png,stimuli/Nonsocial1.png,stimuli/Nonsocial2.png,,"(-0.7, -0.5)",cs_minus_ns,,,,,0,0,0,0,,,,,,,,,2,8,40,13,,,,,,,,,,,,,,,,,,,,,1508.8047546998132,185,reward,1,0.6389298001304269,0.6389337000437081,1509.4505566000007,,,,,,,,37,B,2023-12-19_14h55.48.013,gca_avoidance_task,2022.2.4,143.93832526573823,
positions.xlsx,stimuli.xlsx,stimuli/Social2.png,stimuli/Social1.png,stimuli/Nonsocial1.png,stimuli/Nonsocial2.png,,"(0.7, 0.5)",cs_minus_ns,,,,,0,0,0,0,,,,,,,,,2,9,41,14,,,,,,,,,,,,,,,,,,,,,1519.1029518998694,190,reward,1,0.5212134998291731,0.5212172998581082,1519.6306982999668,,,,,,,,37,B,2023-12-19_14h55.48.013,gca_avoidance_task,2022.2.4,143.93832526573823,
positions.xlsx,stimuli.xlsx,stimuli/Social2.png,stimuli/Social1.png,stimuli/Nonsocial1.png,stimuli/Nonsocial2.png,,"(-0.7, 0.5)",cs_plus_s,,,,,0,0,0,0,,,,,,,,,2,10,42,0,,,,,,,,,,,,,,,,,,,,,1529.4219929999672,190,none,0,,,1534.4356891999487,,,,,,,,37,B,2023-12-19_14h55.48.013,gca_avoidance_task,2022.2.4,143.93832526573823,
positions.xlsx,stimuli.xlsx,stimuli/Social2.png,stimuli/Social1.png,stimuli/Nonsocial1.png,stimuli/Nonsocial2.png,,"(0.7, 0.5)",cs_plus_ns,,,,,0,0,0,0,,,,,,,,,2,11,43,10,,,,,,,,,,,,,,,,,,,,,1543.3103240998462,190,none,0,,,1548.3171122998465,,,,,,,,37,B,2023-12-19_14h55.48.013,gca_avoidance_task,2022.2.4,143.93832526573823,
positions.xlsx,stimuli.xlsx,stimuli/Social2.png,stimuli/Social1.png,stimuli/Nonsocial1.png,stimuli/Nonsocial2.png,,"(-0.7, -0.5)",cs_minus_s,,,,,0,0,0,0,,,,,,,,,2,12,44,5,,,,,,,,,,,,,,,,,,,,,1557.78893229994,195,reward,1,0.4931058001238853,0.4931097000371665,1558.288915499812,,,,,,,,37,B,2023-12-19_14h55.48.013,gca_avoidance_task,2022.2.4,143.93832526573823,
positions.xlsx,stimuli.xlsx,stimuli/Social2.png,stimuli/Social1.png,stimuli/Nonsocial1.png,stimuli/Nonsocial2.png,,"(0.7, -0.5)",cs_minus_s,,,,,0,0,0,0,,,,,,,,,2,13,45,7,,,,,,,,,,,,,,,,,,,,,1567.3649726998992,200,reward,1,0.576842000009492,0.5768459001556039,1567.948280799901,,,,,,,,37,B,2023-12-19_14h55.48.013,gca_avoidance_task,2022.2.4,143.93832526573823,
positions.xlsx,stimuli.xlsx,stimuli/Social2.png,stimuli/Social1.png,stimuli/Nonsocial1.png,stimuli/Nonsocial2.png,,"(-0.7, -0.5)",cs_plus_s,,,,,0,0,0,0,,,,,,,,,2,14,46,1,,,,,,,,,,,,,,,,,,,,,1577.4131705998443,200,none,0,,,1582.419966999907,,,,,,,,37,B,2023-12-19_14h55.48.013,gca_avoidance_task,2022.2.4,143.93832526573823,
positions.xlsx,stimuli.xlsx,stimuli/Social2.png,stimuli/Social1.png,stimuli/Nonsocial1.png,stimuli/Nonsocial2.png,,"(0.7, 0.5)",cs_plus_s,,,,,0,0,0,0,,,,,,,,,2,15,47,2,,,,,,,,,,,,,,,,,,,,,1592.0097884999122,200,none,0,,,1597.016585999867,,,,,,,,37,B,2023-12-19_14h55.48.013,gca_avoidance_task,2022.2.4,143.93832526573823,
positions.xlsx,stimuli.xlsx,stimuli/Social2.png,stimuli/Social1.png,stimuli/Nonsocial1.png,stimuli/Nonsocial2.png,,"(0.7, -0.5)",cs_plus_ns,,,,,0,0,0,0,,,,,,,,,3,0,48,11,,,,,,,,,,,,,,,,,,,,,1606.7037178999744,200,none,0,,,1611.7104378000367,,,,,,,,37,B,2023-12-19_14h55.48.013,gca_avoidance_task,2022.2.4,143.93832526573823,
positions.xlsx,stimuli.xlsx,stimuli/Social2.png,stimuli/Social1.png,stimuli/Nonsocial1.png,stimuli/Nonsocial2.png,,"(0.7, 0.5)",cs_minus_s,,,,,0,0,0,0,,,,,,,,,3,1,49,6,,,,,,,,,,,,,,,,,,,,,1620.9392543998547,205,reward,1,0.5282689998857677,0.5282729999162257,1621.473950699903,,,,,,,,37,B,2023-12-19_14h55.48.013,gca_avoidance_task,2022.2.4,143.93832526573823,
positions.xlsx,stimuli.xlsx,stimuli/Social2.png,stimuli/Social1.png,stimuli/Nonsocial1.png,stimuli/Nonsocial2.png,,"(-0.7, 0.5)",cs_minus_s,,,,,0,0,0,0,,,,,,,,,3,2,50,4,,,,,,,,,,,,,,,,,,,,,1630.7999948998913,210,reward,1,0.43054700014181435,0.4375510001555085,1631.244412199827,,,,,,,,37,B,2023-12-19_14h55.48.013,gca_avoidance_task,2022.2.4,143.93832526573823,
positions.xlsx,stimuli.xlsx,stimuli/Social2.png,stimuli/Social1.png,stimuli/Nonsocial1.png,stimuli/Nonsocial2.png,,"(0.7, -0.5)",cs_plus_s,,,,,0,0,0,0,,,,,,,,,3,3,51,3,,,,,,,,,,,,,,,,,,,,,1640.7926160998177,210,none,0,,,1645.8063850000035,,,,,,,,37,B,2023-12-19_14h55.48.013,gca_avoidance_task,2022.2.4,143.93832526573823,
positions.xlsx,stimuli.xlsx,stimuli/Social2.png,stimuli/Social1.png,stimuli/Nonsocial1.png,stimuli/Nonsocial2.png,,"(0.7, -0.5)",cs_minus_ns,,,,,0,0,0,0,,,,,,,,,3,4,52,15,,,,,,,,,,,,,,,,,,,,,1655.0698704000097,215,reward,1,0.6392487999983132,0.6392522000242025,1655.7156666000374,,,,,,,,37,B,2023-12-19_14h55.48.013,gca_avoidance_task,2022.2.4,143.93832526573823,
positions.xlsx,stimuli.xlsx,stimuli/Social2.png,stimuli/Social1.png,stimuli/Nonsocial1.png,stimuli/Nonsocial2.png,,"(-0.7, 0.5)",cs_plus_ns,,,,,0,0,0,0,,,,,,,,,3,5,53,8,,,,,,,,,,,,,,,,,,,,,1664.6389698998537,215,none,0,,,1669.645651999861,,,,,,,,37,B,2023-12-19_14h55.48.013,gca_avoidance_task,2022.2.4,143.93832526573823,
positions.xlsx,stimuli.xlsx,stimuli/Social2.png,stimuli/Social1.png,stimuli/Nonsocial1.png,stimuli/Nonsocial2.png,,"(0.7, 0.5)",cs_minus_ns,,,,,0,0,0,0,,,,,,,,,3,6,54,14,,,,,,,,,,,,,,,,,,,,,1678.7425322998315,220,reward,1,0.5417810999788344,0.5488576998468488,1679.2980808999855,,,,,,,,37,B,2023-12-19_14h55.48.013,gca_avoidance_task,2022.2.4,143.93832526573823,
positions.xlsx,stimuli.xlsx,stimuli/Social2.png,stimuli/Social1.png,stimuli/Nonsocial1.png,stimuli/Nonsocial2.png,,"(0.7, 0.5)",cs_plus_s,,,,,0,0,0,0,,,,,,,,,3,7,55,2,,,,,,,,,,,,,,,,,,,,,1688.554632499814,220,none,0,,,1693.5614206998143,,,,,,,,37,B,2023-12-19_14h55.48.013,gca_avoidance_task,2022.2.4,143.93832526573823,
positions.xlsx,stimuli.xlsx,stimuli/Social2.png,stimuli/Social1.png,stimuli/Nonsocial1.png,stimuli/Nonsocial2.png,,"(0.7, -0.5)",cs_minus_s,,,,,0,0,0,0,,,,,,,,,3,8,56,7,,,,,,,,,,,,,,,,,,,,,1703.4499313000124,225,reward,1,0.5002651999238878,0.5002688998356462,1703.9568616999313,,,,,,,,37,B,2023-12-19_14h55.48.013,gca_avoidance_task,2022.2.4,143.93832526573823,
positions.xlsx,stimuli.xlsx,stimuli/Social2.png,stimuli/Social1.png,stimuli/Nonsocial1.png,stimuli/Nonsocial2.png,,"(-0.7, -0.5)",cs_plus_ns,,,,,0,0,0,0,,,,,,,,,3,9,57,9,,,,,,,,,,,,,,,,,,,,,1713.456494399812,225,none,0,,,1718.4701784998178,,,,,,,,37,B,2023-12-19_14h55.48.013,gca_avoidance_task,2022.2.4,143.93832526573823,
positions.xlsx,stimuli.xlsx,stimuli/Social2.png,stimuli/Social1.png,stimuli/Nonsocial1.png,stimuli/Nonsocial2.png,,"(-0.7, -0.5)",cs_minus_ns,,,,,0,0,0,0,,,,,,,,,3,10,58,13,,,,,,,,,,,,,,,,,,,,,1727.7823089000303,230,reward,1,0.40298649994656444,0.4029904999770224,1728.1920157999266,,,,,,,,37,B,2023-12-19_14h55.48.013,gca_avoidance_task,2022.2.4,143.93832526573823,
positions.xlsx,stimuli.xlsx,stimuli/Social2.png,stimuli/Social1.png,stimuli/Nonsocial1.png,stimuli/Nonsocial2.png,,"(-0.7, -0.5)",cs_minus_s,,,,,0,0,0,0,,,,,,,,,3,11,59,5,,,,,,,,,,,,,,,,,,,,,1737.7888813000172,235,reward,1,0.5003148999530822,0.5003184999804944,1738.2958354998846,,,,,,,,37,B,2023-12-19_14h55.48.013,gca_avoidance_task,2022.2.4,143.93832526573823,
positions.xlsx,stimuli.xlsx,stimuli/Social2.png,stimuli/Social1.png,stimuli/Nonsocial1.png,stimuli/Nonsocial2.png,,"(-0.7, 0.5)",cs_minus_ns,,,,,0,0,0,0,,,,,,,,,3,12,60,12,,,,,,,,,,,,,,,,,,,,,1747.4759949999861,240,reward,1,0.47907979995943606,0.47908359998837113,1747.9621269998606,,,,,,,,37,B,2023-12-19_14h55.48.013,gca_avoidance_task,2022.2.4,143.93832526573823,
positions.xlsx,stimuli.xlsx,stimuli/Social2.png,stimuli/Social1.png,stimuli/Nonsocial1.png,stimuli/Nonsocial2.png,,"(0.7, 0.5)",cs_plus_ns,,,,,0,0,0,0,,,,,,,,,3,13,61,10,,,,,,,,,,,,,,,,,,,,,1757.0311479999218,240,none,0,,,1762.0379468998872,,,,,,,,37,B,2023-12-19_14h55.48.013,gca_avoidance_task,2022.2.4,143.93832526573823,
positions.xlsx,stimuli.xlsx,stimuli/Social2.png,stimuli/Social1.png,stimuli/Nonsocial1.png,stimuli/Nonsocial2.png,,"(-0.7, -0.5)",cs_plus_s,,,,,0,0,0,0,,,,,,,,,3,14,62,1,,,,,,,,,,,,,,,,,,,,,1771.6070163999684,240,none,0,,,1776.6137618999928,,,,,,,,37,B,2023-12-19_14h55.48.013,gca_avoidance_task,2022.2.4,143.93832526573823,
positions.xlsx,stimuli.xlsx,stimuli/Social2.png,stimuli/Social1.png,stimuli/Nonsocial1.png,stimuli/Nonsocial2.png,,"(-0.7, 0.5)",cs_plus_s,,,,,0,0,0,0,,,,,,,,,3,15,63,0,,,,,,,,,,,,,,,,,,,,,1786.3494810999837,240,none,0,,,1791.3562381998636,,,,,,,,37,B,2023-12-19_14h55.48.013,gca_avoidance_task,2022.2.4,143.93832526573823,
positions.xlsx,stimuli.xlsx,stimuli/Social2.png,stimuli/Social1.png,stimuli/Nonsocial1.png,stimuli/Nonsocial2.png,,"(0.7, 0.5)",cs_minus_s,,,,,0,0,0,0,,,,,,,,,4,0,64,6,,,,,,,,,,,,,,,,,,,,,1800.883639199892,245,reward,1,0.5904498999007046,0.5904536999296397,1801.4808411998674,,,,,,,,37,B,2023-12-19_14h55.48.013,gca_avoidance_task,2022.2.4,143.93832526573823,
positions.xlsx,stimuli.xlsx,stimuli/Social2.png,stimuli/Social1.png,stimuli/Nonsocial1.png,stimuli/Nonsocial2.png,,"(0.7, -0.5)",cs_minus_s,,,,,0,0,0,0,,,,,,,,,4,1,65,7,,,,,,,,,,,,,,,,,,,,,1811.0221265999135,250,reward,1,0.5491250001359731,0.5491422000341117,1811.577649799874,,,,,,,,37,B,2023-12-19_14h55.48.013,gca_avoidance_task,2022.2.4,143.93832526573823,
positions.xlsx,stimuli.xlsx,stimuli/Social2.png,stimuli/Social1.png,stimuli/Nonsocial1.png,stimuli/Nonsocial2.png,,"(0.7, -0.5)",cs_minus_ns,,,,,0,0,0,0,,,,,,,,,4,2,66,15,,,,,,,,,,,,,,,,,,,,,1820.6953571999911,255,reward,1,0.576620299834758,0.5766241999808699,1821.278650799999,,,,,,,,37,B,2023-12-19_14h55.48.013,gca_avoidance_task,2022.2.4,143.93832526573823,
positions.xlsx,stimuli.xlsx,stimuli/Social2.png,stimuli/Social1.png,stimuli/Nonsocial1.png,stimuli/Nonsocial2.png,,"(-0.7, -0.5)",cs_plus_ns,,,,,0,0,0,0,,,,,,,,,4,3,67,9,,,,,,,,,,,,,,,,,,,,,1830.5560706998222,255,none,0,,,1835.562842299929,,,,,,,,37,B,2023-12-19_14h55.48.013,gca_avoidance_task,2022.2.4,143.93832526573823,
positions.xlsx,stimuli.xlsx,stimuli/Social2.png,stimuli/Social1.png,stimuli/Nonsocial1.png,stimuli/Nonsocial2.png,,"(0.7, 0.5)",cs_plus_s,,,,,0,0,0,0,,,,,,,,,4,4,68,2,,,,,,,,,,,,,,,,,,,,,1844.5486051999032,255,none,0,,,1849.5553569998592,,,,,,,,37,B,2023-12-19_14h55.48.013,gca_avoidance_task,2022.2.4,143.93832526573823,
positions.xlsx,stimuli.xlsx,stimuli/Social2.png,stimuli/Social1.png,stimuli/Nonsocial1.png,stimuli/Nonsocial2.png,,"(-0.7, -0.5)",cs_plus_s,,,,,0,0,0,0,,,,,,,,,4,5,69,1,,,,,,,,,,,,,,,,,,,,,1859.4508269999642,255,none,0,,,1864.4575220998377,,,,,,,,37,B,2023-12-19_14h55.48.013,gca_avoidance_task,2022.2.4,143.93832526573823,
positions.xlsx,stimuli.xlsx,stimuli/Social2.png,stimuli/Social1.png,stimuli/Nonsocial1.png,stimuli/Nonsocial2.png,,"(-0.7, 0.5)",cs_minus_s,,,,,0,0,0,0,,,,,,,,,4,6,70,4,,,,,,,,,,,,,,,,,,,,,1874.7071582998615,260,reward,1,0.5561198000796139,0.556123600108549,1875.2696426999755,,,,,,,,37,B,2023-12-19_14h55.48.013,gca_avoidance_task,2022.2.4,143.93832526573823,
positions.xlsx,stimuli.xlsx,stimuli/Social2.png,stimuli/Social1.png,stimuli/Nonsocial1.png,stimuli/Nonsocial2.png,,"(0.7, -0.5)",cs_plus_s,,,,,0,0,0,0,,,,,,,,,4,7,71,3,,,,,,,,,,,,,,,,,,,,,1884.6373136998154,260,none,0,,,1889.6441289999057,,,,,,,,37,B,2023-12-19_14h55.48.013,gca_avoidance_task,2022.2.4,143.93832526573823,
positions.xlsx,stimuli.xlsx,stimuli/Social2.png,stimuli/Social1.png,stimuli/Nonsocial1.png,stimuli/Nonsocial2.png,,"(-0.7, -0.5)",cs_minus_ns,,,,,0,0,0,0,,,,,,,,,4,8,72,13,,,,,,,,,,,,,,,,,,,,,1898.6367687999737,265,reward,1,0.6323386000003666,0.6323421001434326,1899.2756828998681,,,,,,,,37,B,2023-12-19_14h55.48.013,gca_avoidance_task,2022.2.4,143.93832526573823,
positions.xlsx,stimuli.xlsx,stimuli/Social2.png,stimuli/Social1.png,stimuli/Nonsocial1.png,stimuli/Nonsocial2.png,,"(-0.7, -0.5)",cs_minus_s,,,,,0,0,0,0,,,,,,,,,4,9,73,5,,,,,,,,,,,,,,,,,,,,,1908.678071100032,270,reward,1,0.5769084000494331,0.5769120999611914,1909.2613582999911,,,,,,,,37,B,2023-12-19_14h55.48.013,gca_avoidance_task,2022.2.4,143.93832526573823,
positions.xlsx,stimuli.xlsx,stimuli/Social2.png,stimuli/Social1.png,stimuli/Nonsocial1.png,stimuli/Nonsocial2.png,,"(-0.7, 0.5)",cs_plus_s,,,,,0,0,0,0,,,,,,,,,4,10,74,0,,,,,,,,,,,,,,,,,,,,,1918.6221210998483,270,none,0,,,1923.6288860000204,,,,,,,,37,B,2023-12-19_14h55.48.013,gca_avoidance_task,2022.2.4,143.93832526573823,
positions.xlsx,stimuli.xlsx,stimuli/Social2.png,stimuli/Social1.png,stimuli/Nonsocial1.png,stimuli/Nonsocial2.png,,"(-0.7, 0.5)",cs_minus_ns,,,,,0,0,0,0,,,,,,,,,4,11,75,12,,,,,,,,,,,,,,,,,,,,,1932.9895957999397,275,reward,1,0.47239769995212555,0.47240159986540675,1933.4688046998344,,,,,,,,37,B,2023-12-19_14h55.48.013,gca_avoidance_task,2022.2.4,143.93832526573823,
positions.xlsx,stimuli.xlsx,stimuli/Social2.png,stimuli/Social1.png,stimuli/Nonsocial1.png,stimuli/Nonsocial2.png,,"(0.7, 0.5)",cs_minus_ns,,,,,0,0,0,0,,,,,,,,,4,12,76,14,,,,,,,,,,,,,,,,,,,,,1942.4961830000393,280,reward,1,0.4373341000173241,0.43733760016039014,1942.9406472998671,,,,,,,,37,B,2023-12-19_14h55.48.013,gca_avoidance_task,2022.2.4,143.93832526573823,
positions.xlsx,stimuli.xlsx,stimuli/Social2.png,stimuli/Social1.png,stimuli/Nonsocial1.png,stimuli/Nonsocial2.png,,"(0.7, -0.5)",cs_plus_ns,,,,,0,0,0,0,,,,,,,,,4,13,77,11,,,,,,,,,,,,,,,,,,,,,1952.6347079998814,280,none,0,,,1957.6414434998296,,,,,,,,37,B,2023-12-19_14h55.48.013,gca_avoidance_task,2022.2.4,143.93832526573823,
positions.xlsx,stimuli.xlsx,stimuli/Social2.png,stimuli/Social1.png,stimuli/Nonsocial1.png,stimuli/Nonsocial2.png,,"(0.7, 0.5)",cs_plus_ns,,,,,0,0,0,0,,,,,,,,,4,14,78,10,,,,,,,,,,,,,,,,,,,,,1967.2035452998243,280,none,0,,,1972.2103346998338,,,,,,,,37,B,2023-12-19_14h55.48.013,gca_avoidance_task,2022.2.4,143.93832526573823,
positions.xlsx,stimuli.xlsx,stimuli/Social2.png,stimuli/Social1.png,stimuli/Nonsocial1.png,stimuli/Nonsocial2.png,,"(-0.7, 0.5)",cs_plus_ns,,,,,0,0,0,0,,,,,,,,,4,15,79,8,,,,,,,,,,,,,,,,,,,,,1982.2376856999472,280,none,0,,,1987.2444392000325,,,,,,,,37,B,2023-12-19_14h55.48.013,gca_avoidance_task,2022.2.4,143.93832526573823,
positions.xlsx,stimuli.xlsx,stimuli/Social2.png,stimuli/Social1.png,stimuli/Nonsocial1.png,stimuli/Nonsocial2.png,cs_minus_s,,,,,,,0,0,0,0,,,,,,,,,,,,,0,0,0,2,,,,,,,,,,,,,2004.0632660998963,7.0,4.114137399941683,,,,,,,,,6.0,8.549120799871162,,,,,,37,B,2023-12-19_14h55.48.013,gca_avoidance_task,2022.2.4,143.93832526573823,
positions.xlsx,stimuli.xlsx,stimuli/Social2.png,stimuli/Social1.png,stimuli/Nonsocial1.png,stimuli/Nonsocial2.png,cs_plus_ns,,,,,,,0,0,0,0,,,,,,,,,,,,,0,1,1,1,,,,,,,,,,,,,2008.9172208998352,3.0,6.486858400050551,,,,,,,,,,,,,,,,37,B,2023-12-19_14h55.48.013,gca_avoidance_task,2022.2.4,143.93832526573823,
positions.xlsx,stimuli.xlsx,stimuli/Social2.png,stimuli/Social1.png,stimuli/Nonsocial1.png,stimuli/Nonsocial2.png,cs_minus_ns,,,,,,,0,0,0,0,,,,,,,,,,,,,0,2,2,3,,,,,,,,,,,,,2015.6669707000256,6.0,2.6181332000996917,,,,,,,,,,,,,,,,37,B,2023-12-19_14h55.48.013,gca_avoidance_task,2022.2.4,143.93832526573823,
positions.xlsx,stimuli.xlsx,stimuli/Social2.png,stimuli/Social1.png,stimuli/Nonsocial1.png,stimuli/Nonsocial2.png,cs_plus_s,,,,,,,0,0,0,0,,,,,,,,,,,,,0,3,3,0,,,,,,,,,,,,,2018.4654520999175,2.0,2.7581263000611216,,,,,,,,,,,,,,,,37,B,2023-12-19_14h55.48.013,gca_avoidance_task,2022.2.4,143.93832526573823,
positions.xlsx,stimuli.xlsx,stimuli/Social2.png,stimuli/Social1.png,stimuli/Nonsocial1.png,stimuli/Nonsocial2.png,cs_plus_ns,,,,,,,0,0,0,0,,,,,,,,,,,,,,,,,0,0,0,1,,,,,,,,,,,,,,,,,,,,,,2021.5000535999425,2025.708223799942,2,0.02177520003169775,0.08301940001547337,37,B,2023-12-19_14h55.48.013,gca_avoidance_task,2022.2.4,143.93832526573823,
positions.xlsx,stimuli.xlsx,stimuli/Social2.png,stimuli/Social1.png,stimuli/Nonsocial1.png,stimuli/Nonsocial2.png,cs_minus_s,,,,,,,0,0,0,0,,,,,,,,,,,,,,,,,0,1,1,2,,,,,,,,,,,,,,,,,,,,,,,2041.0896295998245,2,0.013305400032550097,6.874885899946094,37,B,2023-12-19_14h55.48.013,gca_avoidance_task,2022.2.4,143.93832526573823,
positions.xlsx,stimuli.xlsx,stimuli/Social2.png,stimuli/Social1.png,stimuli/Nonsocial1.png,stimuli/Nonsocial2.png,cs_minus_ns,,,,,,,0,0,0,0,,,,,,,,,,,,,,,,,0,2,2,3,,,,,,,,,,,,,,,,,,,,,,,2055.623736599926,5,0.125444799894467,5.159859800012782,37,B,2023-12-19_14h55.48.013,gca_avoidance_task,2022.2.4,143.93832526573823,
positions.xlsx,stimuli.xlsx,stimuli/Social2.png,stimuli/Social1.png,stimuli/Nonsocial1.png,stimuli/Nonsocial2.png,cs_plus_s,,,,,,,0,0,0,0,,,,,,,,,,,,,,,,,0,3,3,0,,,,,,,,,,,,,,,,,,,,,,,2070.1579149998724,4,0.013709200080484152,5.896047299960628,37,B,2023-12-19_14h55.48.013,gca_avoidance_task,2022.2.4,143.93832526573823,
positions.xlsx,stimuli.xlsx,stimuli/Social2.png,stimuli/Social1.png,stimuli/Nonsocial1.png,stimuli/Nonsocial2.png,cs_plus_ns,,,,,,,0,0,0,0,,,,,,,,,,,,,,,,,1,0,4,1,,,,,,,,,,,,,,,,,,,,,,,2085.560046599945,2,0.015148600097745657,0.05602470017038286,37,B,2023-12-19_14h55.48.013,gca_avoidance_task,2022.2.4,143.93832526573823,
positions.xlsx,stimuli.xlsx,stimuli/Social2.png,stimuli/Social1.png,stimuli/Nonsocial1.png,stimuli/Nonsocial2.png,cs_minus_s,,,,,,,0,0,0,0,,,,,,,,,,,,,,,,,1,1,5,2,,,,,,,,,,,,,,,,,,,,,,,2100.9831205999944,2,0.013455400010570884,9.069464200176299,37,B,2023-12-19_14h55.48.013,gca_avoidance_task,2022.2.4,143.93832526573823,
positions.xlsx,stimuli.xlsx,stimuli/Social2.png,stimuli/Social1.png,stimuli/Nonsocial1.png,stimuli/Nonsocial2.png,cs_minus_ns,,,,,,,0,0,0,0,,,,,,,,,,,,,,,,,1,2,6,3,,,,,,,,,,,,,,,,,,,,,,,2116.0519411000423,5,0.013960700016468763,0.8267061999067664,37,B,2023-12-19_14h55.48.013,gca_avoidance_task,2022.2.4,143.93832526573823,
positions.xlsx,stimuli.xlsx,stimuli/Social2.png,stimuli/Social1.png,stimuli/Nonsocial1.png,stimuli/Nonsocial2.png,cs_plus_s,,,,,,,0,0,0,0,,,,,,,,,,,,,,,,,1,3,7,0,,,,,,,,,,,,,,,,,,,,,,,2131.3916273999494,4,0.013396899914368987,5.125028199981898,37,B,2023-12-19_14h55.48.013,gca_avoidance_task,2022.2.4,143.93832526573823,
positions.xlsx,stimuli.xlsx,stimuli/Social2.png,stimuli/Social1.png,stimuli/Nonsocial1.png,stimuli/Nonsocial2.png,cs_plus_ns,,,,,,,0,0,0,0,,,,,,,,,,,,,,,,,2,0,8,1,,,,,,,,,,,,,,,,,,,,,,,2146.231329999864,1,0.014500700170174241,9.999876799993217,37,B,2023-12-19_14h55.48.013,gca_avoidance_task,2022.2.4,143.93832526573823,
positions.xlsx,stimuli.xlsx,stimuli/Social2.png,stimuli/Social1.png,stimuli/Nonsocial1.png,stimuli/Nonsocial2.png,cs_minus_ns,,,,,,,0,0,0,0,,,,,,,,,,,,,,,,,2,1,9,3,,,,,,,,,,,,,,,,,,,,,,,2160.946027799975,2,0.014173399889841676,8.743211699882522,37,B,2023-12-19_14h55.48.013,gca_avoidance_task,2022.2.4,143.93832526573823,
positions.xlsx,stimuli.xlsx,stimuli/Social2.png,stimuli/Social1.png,stimuli/Nonsocial1.png,stimuli/Nonsocial2.png,cs_minus_s,,,,,,,0,0,0,0,,,,,,,,,,,,,,,,,2,2,10,2,,,,,,,,,,,,,,,,,,,,,,,2175.57045489992,6,0.013665199978277087,1.0143365000840276,37,B,2023-12-19_14h55.48.013,gca_avoidance_task,2022.2.4,143.93832526573823,
positions.xlsx,stimuli.xlsx,stimuli/Social2.png,stimuli/Social1.png,stimuli/Nonsocial1.png,stimuli/Nonsocial2.png,cs_plus_s,,,,,,,0,0,0,0,,,,,,,,,,,,,,,,,2,3,11,0,,,,,,,,,,,,,,,,,,,,,,,2190.3685232000425,6,0.2712957998737693,0.7505246000364423,37,B,2023-12-19_14h55.48.013,gca_avoidance_task,2022.2.4,143.93832526573823,
positions.xlsx,stimuli.xlsx,stimuli/Social2.png,stimuli/Social1.png,stimuli/Nonsocial1.png,stimuli/Nonsocial2.png,cs_plus_ns,,,,,,,0,0,0,0,,,,,,,,,,,,,,,,,3,0,12,1,,,,,,,,,,,,,,,,,,,,,,,2205.437364900019,3,0.09085060004144907,4.014122399967164,37,B,2023-12-19_14h55.48.013,gca_avoidance_task,2022.2.4,143.93832526573823,
positions.xlsx,stimuli.xlsx,stimuli/Social2.png,stimuli/Social1.png,stimuli/Nonsocial1.png,stimuli/Nonsocial2.png,cs_minus_ns,,,,,,,0,0,0,0,,,,,,,,,,,,,,,,,3,1,13,3,,,,,,,,,,,,,,,,,,,,,,,2220.4575938999187,3,0.014193400042131543,5.687760399887338,37,B,2023-12-19_14h55.48.013,gca_avoidance_task,2022.2.4,143.93832526573823,
positions.xlsx,stimuli.xlsx,stimuli/Social2.png,stimuli/Social1.png,stimuli/Nonsocial1.png,stimuli/Nonsocial2.png,cs_minus_s,,,,,,,0,0,0,0,,,,,,,,,,,,,,,,,3,2,14,2,,,,,,,,,,,,,,,,,,,,,,,2235.1445201998577,3,0.01343509997241199,2.5421185998711735,37,B,2023-12-19_14h55.48.013,gca_avoidance_task,2022.2.4,143.93832526573823,
positions.xlsx,stimuli.xlsx,stimuli/Social2.png,stimuli/Social1.png,stimuli/Nonsocial1.png,stimuli/Nonsocial2.png,cs_plus_s,,,,,,,0,0,0,0,,,,,,,,,,,,,,,,,3,3,15,0,,,,,,,,,,,,,,,,,,,,,,,2250.1300510000437,3,0.013413700042292476,4.9655302001629025,37,B,2023-12-19_14h55.48.013,gca_avoidance_task,2022.2.4,143.93832526573823,
positions.xlsx,stimuli.xlsx,stimuli/Social2.png,stimuli/Social1.png,stimuli/Nonsocial1.png,stimuli/Nonsocial2.png,cs_plus_ns,,,,,,,0,0,0,0,,,,,,,,,,,,,,,,,4,0,16,1,,,,,,,,,,,,,,,,,,,,,,,2264.796148599824,6,0.736538999946788,1.076819600071758,37,B,2023-12-19_14h55.48.013,gca_avoidance_task,2022.2.4,143.93832526573823,
positions.xlsx,stimuli.xlsx,stimuli/Social2.png,stimuli/Social1.png,stimuli/Nonsocial1.png,stimuli/Nonsocial2.png,cs_minus_ns,,,,,,,0,0,0,0,,,,,,,,,,,,,,,,,4,1,17,3,,,,,,,,,,,,,,,,,,,,,,,2279.45531079988,5,0.01462789997458458,0.04906400013715029,37,B,2023-12-19_14h55.48.013,gca_avoidance_task,2022.2.4,143.93832526573823,
positions.xlsx,stimuli.xlsx,stimuli/Social2.png,stimuli/Social1.png,stimuli/Nonsocial1.png,stimuli/Nonsocial2.png,cs_plus_s,,,,,,,0,0,0,0,,,,,,,,,,,,,,,,,4,2,18,0,,,,,,,,,,,,,,,,,,,,,,,2294.6769326999784,4,0.013620699988678098,0.9239772998262197,37,B,2023-12-19_14h55.48.013,gca_avoidance_task,2022.2.4,143.93832526573823,
positions.xlsx,stimuli.xlsx,stimuli/Social2.png,stimuli/Social1.png,stimuli/Nonsocial1.png,stimuli/Nonsocial2.png,cs_minus_s,,,,,,,0,0,0,0,,,,,,,,,,,,,,,,,4,3,19,2,,,,,,,,,,,,,,,,,,,,,,,2309.5374767999165,4,0.013635399984195828,1.8614260000176728,37,B,2023-12-19_14h55.48.013,gca_avoidance_task,2022.2.4,143.93832526573823,
positions.xlsx,stimuli.xlsx,stimuli/Social2.png,stimuli/Social1.png,stimuli/Nonsocial1.png,stimuli/Nonsocial2.png,cs_plus_ns,,,,,,,0,0,0,0,,,,,,,,,,,,,,,,,5,0,20,1,,,,,,,,,,,,,,,,,,,,,,,2324.5577086999547,8,0.015326099935919046,0.5699323997832835,37,B,2023-12-19_14h55.48.013,gca_avoidance_task,2022.2.4,143.93832526573823,
positions.xlsx,stimuli.xlsx,stimuli/Social2.png,stimuli/Social1.png,stimuli/Nonsocial1.png,stimuli/Nonsocial2.png,cs_minus_ns,,,,,,,0,0,0,0,,,,,,,,,,,,,,,,,5,1,21,3,,,,,,,,,,,,,,,,,,,,,,,2339.689064899925,5,0.014627200085669756,0.736557099968195,37,B,2023-12-19_14h55.48.013,gca_avoidance_task,2022.2.4,143.93832526573823,
positions.xlsx,stimuli.xlsx,stimuli/Social2.png,stimuli/Social1.png,stimuli/Nonsocial1.png,stimuli/Nonsocial2.png,cs_plus_s,,,,,,,0,0,0,0,,,,,,,,,,,,,,,,,5,2,22,0,,,,,,,,,,,,,,,,,,,,,,,2354.9245914998464,5,0.01376150012947619,4.792085299966857,37,B,2023-12-19_14h55.48.013,gca_avoidance_task,2022.2.4,143.93832526573823,
positions.xlsx,stimuli.xlsx,stimuli/Social2.png,stimuli/Social1.png,stimuli/Nonsocial1.png,stimuli/Nonsocial2.png,cs_minus_s,,,,,,,0,0,0,0,,,,,,,,,,,,,,,,,5,3,23,2,,,,,,,,,,,,,,,,,,,,,,,2369.6463108998723,4,0.01367919985204935,3.090822600061074,37,B,2023-12-19_14h55.48.013,gca_avoidance_task,2022.2.4,143.93832526573823,
positions.xlsx,stimuli.xlsx,stimuli/Social2.png,stimuli/Social1.png,stimuli/Nonsocial1.png,stimuli/Nonsocial2.png,cs_minus_s,,,,,,,0,0,0,0,,,,,,,,,,,,,,,,,6,0,24,2,,,,,,,,,,,,,,,,,,,,,,,2384.722073199926,7,0.014944399939849973,1.5074153000023216,37,B,2023-12-19_14h55.48.013,gca_avoidance_task,2022.2.4,143.93832526573823,
positions.xlsx,stimuli.xlsx,stimuli/Social2.png,stimuli/Social1.png,stimuli/Nonsocial1.png,stimuli/Nonsocial2.png,cs_plus_s,,,,,,,0,0,0,0,,,,,,,,,,,,,,,,,6,1,25,0,,,,,,,,,,,,,,,,,,,,,,,2400.0548205999658,2,0.014800099888816476,7.493186600040644,37,B,2023-12-19_14h55.48.013,gca_avoidance_task,2022.2.4,143.93832526573823,
positions.xlsx,stimuli.xlsx,stimuli/Social2.png,stimuli/Social1.png,stimuli/Nonsocial1.png,stimuli/Nonsocial2.png,cs_minus_ns,,,,,,,0,0,0,0,,,,,,,,,,,,,,,,,6,2,26,3,,,,,,,,,,,,,,,,,,,,,,,2414.707033799961,6,0.013852300122380257,1.7504468001425266,37,B,2023-12-19_14h55.48.013,gca_avoidance_task,2022.2.4,143.93832526573823,
positions.xlsx,stimuli.xlsx,stimuli/Social2.png,stimuli/Social1.png,stimuli/Nonsocial1.png,stimuli/Nonsocial2.png,cs_plus_ns,,,,,,,0,0,0,0,,,,,,,,,,,,,,,,,6,3,27,1,,,,,,,,,,,,,,,,,,,,,,,2429.66476399987,4,0.01466790004633367,1.8892528000287712,37,B,2023-12-19_14h55.48.013,gca_avoidance_task,2022.2.4,143.93832526573823,
positions.xlsx,stimuli.xlsx,stimuli/Social2.png,stimuli/Social1.png,stimuli/Nonsocial1.png,stimuli/Nonsocial2.png,cs_minus_s,,,,,,,0,0,0,0,,,,,,,,,,,,,,,,,7,0,28,2,,,,,,,,,,,,,,,,,,,,,,,2444.615568500012,4,0.013463800074532628,2.5557309999130666,37,B,2023-12-19_14h55.48.013,gca_avoidance_task,2022.2.4,143.93832526573823,
positions.xlsx,stimuli.xlsx,stimuli/Social2.png,stimuli/Social1.png,stimuli/Nonsocial1.png,stimuli/Nonsocial2.png,cs_minus_ns,,,,,,,0,0,0,0,,,,,,,,,,,,,,,,,7,1,29,3,,,,,,,,,,,,,,,,,,,,,,,2459.219154199818,9,0.0142705999314785,0.11150690005160868,37,B,2023-12-19_14h55.48.013,gca_avoidance_task,2022.2.4,143.93832526573823,
positions.xlsx,stimuli.xlsx,stimuli/Social2.png,stimuli/Social1.png,stimuli/Nonsocial1.png,stimuli/Nonsocial2.png,cs_plus_ns,,,,,,,0,0,0,0,,,,,,,,,,,,,,,,,7,2,30,1,,,,,,,,,,,,,,,,,,,,,,,2473.947750299936,5,0.014506699983030558,2.625368299894035,37,B,2023-12-19_14h55.48.013,gca_avoidance_task,2022.2.4,143.93832526573823,
positions.xlsx,stimuli.xlsx,stimuli/Social2.png,stimuli/Social1.png,stimuli/Nonsocial1.png,stimuli/Nonsocial2.png,cs_plus_s,,,,,,,0,0,0,0,,,,,,,,,,,,,,,,,7,3,31,0,,,,,,,,,,,,,,,,,,,,,,,2489.231895999983,9,0.013441999908536673,1.0904703999403864,37,B,2023-12-19_14h55.48.013,gca_avoidance_task,2022.2.4,143.93832526573823,
positions.xlsx,stimuli.xlsx,stimuli/Social2.png,stimuli/Social1.png,stimuli/Nonsocial1.png,stimuli/Nonsocial2.png,cs_plus_ns,,,,,,,0,0,0,0,,,,,,,,,,,,,,,,,8,0,32,1,,,,,,,,,,,,,,,,,,,,,,,2504.363230000017,6,0.014021800132468343,0.7225252999924123,37,B,2023-12-19_14h55.48.013,gca_avoidance_task,2022.2.4,143.93832526573823,
positions.xlsx,stimuli.xlsx,stimuli/Social2.png,stimuli/Social1.png,stimuli/Nonsocial1.png,stimuli/Nonsocial2.png,cs_plus_s,,,,,,,0,0,0,0,,,,,,,,,,,,,,,,,8,1,33,0,,,,,,,,,,,,,,,,,,,,,,,2519.702921499964,4,0.007171800127252936,4.007293900009245,37,B,2023-12-19_14h55.48.013,gca_avoidance_task,2022.2.4,143.93832526573823,
positions.xlsx,stimuli.xlsx,stimuli/Social2.png,stimuli/Social1.png,stimuli/Nonsocial1.png,stimuli/Nonsocial2.png,cs_minus_ns,,,,,,,0,0,0,0,,,,,,,,,,,,,,,,,8,2,34,3,,,,,,,,,,,,,,,,,,,,,,,2535.0148038999178,4,0.014202799880877137,0.8405632998328656,37,B,2023-12-19_14h55.48.013,gca_avoidance_task,2022.2.4,143.93832526573823,
positions.xlsx,stimuli.xlsx,stimuli/Social2.png,stimuli/Social1.png,stimuli/Nonsocial1.png,stimuli/Nonsocial2.png,cs_minus_s,,,,,,,0,0,0,0,,,,,,,,,,,,,,,,,8,3,35,2,,,,,,,,,,,,,,,,,,,,,,,2550.3058898998424,5,0.013488499913364649,1.9655993999913335,37,B,2023-12-19_14h55.48.013,gca_avoidance_task,2022.2.4,143.93832526573823,
positions.xlsx,stimuli.xlsx,stimuli/Social2.png,stimuli/Social1.png,stimuli/Nonsocial1.png,stimuli/Nonsocial2.png,cs_plus_ns,,,,,,,0,0,0,0,,,,,,,,,,,,,,,,,9,0,36,1,,,,,,,,,,,,,,,,,,,,,,,2565.2219928998966,6,0.0143091999925673,0.7296448999550194,37,B,2023-12-19_14h55.48.013,gca_avoidance_task,2022.2.4,143.93832526573823,
positions.xlsx,stimuli.xlsx,stimuli/Social2.png,stimuli/Social1.png,stimuli/Nonsocial1.png,stimuli/Nonsocial2.png,cs_plus_s,,,,,,,0,0,0,0,,,,,,,,,,,,,,,,,9,1,37,0,,,,,,,,,,,,,,,,,,,,,,,2579.929751700023,8,0.013543999986723065,0.7086374000646174,37,B,2023-12-19_14h55.48.013,gca_avoidance_task,2022.2.4,143.93832526573823,
positions.xlsx,stimuli.xlsx,stimuli/Social2.png,stimuli/Social1.png,stimuli/Nonsocial1.png,stimuli/Nonsocial2.png,cs_minus_s,,,,,,,0,0,0,0,,,,,,,,,,,,,,,,,9,2,38,2,,,,,,,,,,,,,,,,,,,,,,,2595.3666397000197,8,0.01368979993276298,0.7087205999996513,37,B,2023-12-19_14h55.48.013,gca_avoidance_task,2022.2.4,143.93832526573823,
positions.xlsx,stimuli.xlsx,stimuli/Social2.png,stimuli/Social1.png,stimuli/Nonsocial1.png,stimuli/Nonsocial2.png,cs_minus_ns,,,,,,,0,0,0,0,,,,,,,,,,,,,,,,,9,3,39,3,,,,,,,,,,,,,,,,,,,,,,,2610.6993625999894,10,0.0139315000269562,0.7504373001866043,37,B,2023-12-19_14h55.48.013,gca_avoidance_task,2022.2.4,143.93832526573823,
positions.xlsx,stimuli.xlsx,stimuli/Social2.png,stimuli/Social1.png,stimuli/Nonsocial1.png,stimuli/Nonsocial2.png,cs_minus_ns,,,,,,,0,0,0,0,,,,,,,,,,,,,,,,,,,,,0,0,0,3,,,,,2624.955775399925,5.0,6.110950700007379,,,,,,,,,,,,,,,,37,B,2023-12-19_14h55.48.013,gca_avoidance_task,2022.2.4,143.93832526573823,
positions.xlsx,stimuli.xlsx,stimuli/Social2.png,stimuli/Social1.png,stimuli/Nonsocial1.png,stimuli/Nonsocial2.png,cs_plus_ns,,,,,,,0,0,0,0,,,,,,,,,,,,,,,,,,,,,0,1,1,1,,,,,2632.302706099814,4.0,2.611440100008622,,,,,,,,,,,,,,,,37,B,2023-12-19_14h55.48.013,gca_avoidance_task,2022.2.4,143.93832526573823,
positions.xlsx,stimuli.xlsx,stimuli/Social2.png,stimuli/Social1.png,stimuli/Nonsocial1.png,stimuli/Nonsocial2.png,cs_plus_s,,,,,,,0,0,0,0,,,,,,,,,,,,,,,,,,,,,0,2,2,0,,,,,2635.3373207999393,2.0,4.036086000036448,,,,,,,,,,,,,,,,37,B,2023-12-19_14h55.48.013,gca_avoidance_task,2022.2.4,143.93832526573823,
positions.xlsx,stimuli.xlsx,stimuli/Social2.png,stimuli/Social1.png,stimuli/Nonsocial1.png,stimuli/Nonsocial2.png,cs_minus_s,,,,,,,0,0,0,0,,,,,,,,,,,,,,,,,,,,,0,3,3,2,,,,,2639.6982129998505,7.0,2.2303436999209225,,,,,,,,,,,,,,,,37,B,2023-12-19_14h55.48.013,gca_avoidance_task,2022.2.4,143.93832526573823,
