posFile,stimFile,cs_plus_s,cs_minus_s,cs_plus_ns,cs_minus_ns,stimtype,position,trialtype,trials_threshold.thisRepN,trials_threshold.thisTrialN,trials_threshold.thisN,trials_threshold.thisIndex,blocks.thisRepN,blocks.thisTrialN,blocks.thisN,blocks.thisIndex,ratingtrials1.thisRepN,ratingtrials1.thisTrialN,ratingtrials1.thisN,ratingtrials1.thisIndex,learning_trials.thisRepN,learning_trials.thisTrialN,learning_trials.thisN,learning_trials.thisIndex,trials.thisRepN,trials.thisTrialN,trials.thisN,trials.thisIndex,ratingtrials2.thisRepN,ratingtrials2.thisTrialN,ratingtrials2.thisN,ratingtrials2.thisIndex,testtrials.thisRepN,testtrials.thisTrialN,testtrials.thisN,testtrials.thisIndex,ratingtrials3.thisRepN,ratingtrials3.thisTrialN,ratingtrials3.thisN,ratingtrials3.thisIndex,textStart.started,sliderPainT.response,sliderPainT.rt,textStartExp.started,imageRating.started,sliderStim.response,sliderStim.rt,textStartTask.started,image.started,score,outcome,roi.numLooks,roi.timesOn,roi.timesOff,imageFeedback.started,sliderPain.response,sliderPain.rt,textTestInstr.started,imageTest.started,roiTest.numLooks,roiTest.timesOn,roiTest.timesOff,participant,group,date,expName,psychopyVersion,frameRate,
,,,,,,,,,0,0,0,0,,,,,,,,,,,,,,,,,,,,,,,,,,,,,583.8825385000091,None,None,,,,,,,,,,,,,,,,,,,,35,B,2023-12-18_08h49.33.486,gca_avoidance_task,2022.2.4,144.06440274582133,
,,,,,,,,,1,0,1,0,,,,,,,,,,,,,,,,,,,,,,,,,,,,,,0.0,9.92114950006362,,,,,,,,,,,,,,,,,,,,35,B,2023-12-18_08h49.33.486,gca_avoidance_task,2022.2.4,144.06440274582133,
,,,,,,,,,2,0,2,0,,,,,,,,,,,,,,,,,,,,,,,,,,,,,,1.0,1.4875138000352308,,,,,,,,,,,,,,,,,,,,35,B,2023-12-18_08h49.33.486,gca_avoidance_task,2022.2.4,144.06440274582133,
,,,,,,,,,3,0,3,0,,,,,,,,,,,,,,,,,,,,,,,,,,,,,,2.0,2.113621399970725,,,,,,,,,,,,,,,,,,,,35,B,2023-12-18_08h49.33.486,gca_avoidance_task,2022.2.4,144.06440274582133,
,,,,,,,,,4,0,4,0,,,,,,,,,,,,,,,,,,,,,,,,,,,,,,3.0,1.1372702999506146,,,,,,,,,,,,,,,,,,,,35,B,2023-12-18_08h49.33.486,gca_avoidance_task,2022.2.4,144.06440274582133,
,,,,,,,,,5,0,5,0,,,,,,,,,,,,,,,,,,,,,,,,,,,,,,3.0,0.5918378999922425,,,,,,,,,,,,,,,,,,,,35,B,2023-12-18_08h49.33.486,gca_avoidance_task,2022.2.4,144.06440274582133,
,,,,,,,,,6,0,6,0,,,,,,,,,,,,,,,,,,,,,,,,,,,,,,4.0,0.6396909999893978,,,,,,,,,,,,,,,,,,,,35,B,2023-12-18_08h49.33.486,gca_avoidance_task,2022.2.4,144.06440274582133,
,,,,,,,,,7,0,7,0,,,,,,,,,,,,,,,,,,,,,,,,,,,,,,5.0,1.2208819999359548,,,,,,,,,,,,,,,,,,,,35,B,2023-12-18_08h49.33.486,gca_avoidance_task,2022.2.4,144.06440274582133,
,,,,,,,,,8,0,8,0,,,,,,,,,,,,,,,,,,,,,,,,,,,,,,6.0,0.6448569999774918,,,,,,,,,,,,,,,,,,,,35,B,2023-12-18_08h49.33.486,gca_avoidance_task,2022.2.4,144.06440274582133,
,,,,,,,,,9,0,9,0,,,,,,,,,,,,,,,,,,,,,,,,,,,,,,6.0,0.7929248999571428,,,,,,,,,,,,,,,,,,,,35,B,2023-12-18_08h49.33.486,gca_avoidance_task,2022.2.4,144.06440274582133,
,,,,,,,,,10,0,10,0,,,,,,,,,,,,,,,,,,,,,,,,,,,,,,7.0,0.6122794999973848,,,,,,,,,,,,,,,,,,,,35,B,2023-12-18_08h49.33.486,gca_avoidance_task,2022.2.4,144.06440274582133,
,,,,,,,,,11,0,11,0,,,,,,,,,,,,,,,,,,,,,,,,,,,,,,6.0,1.2343285999959335,,,,,,,,,,,,,,,,,,,,35,B,2023-12-18_08h49.33.486,gca_avoidance_task,2022.2.4,144.06440274582133,
,,,,,,,,,12,0,12,0,,,,,,,,,,,,,,,,,,,,,,,,,,,,,,6.0,0.8765158000169322,,,,,,,,,,,,,,,,,,,,35,B,2023-12-18_08h49.33.486,gca_avoidance_task,2022.2.4,144.06440274582133,
,,,,,,,,,13,0,13,0,,,,,,,,,,,,,,,,,,,,,,,,,,,,,,4.0,1.2766111999517307,,,,,,,,,,,,,,,,,,,,35,B,2023-12-18_08h49.33.486,gca_avoidance_task,2022.2.4,144.06440274582133,
,,,,,,,,,14,0,14,0,,,,,,,,,,,,,,,,,,,,,,,,,,,,,,4.0,0.5065828000660986,,,,,,,,,,,,,,,,,,,,35,B,2023-12-18_08h49.33.486,gca_avoidance_task,2022.2.4,144.06440274582133,
,,,,,,,,,15,0,15,0,,,,,,,,,,,,,,,,,,,,,,,,,,,,,,4.0,1.3267569000599906,,,,,,,,,,,,,,,,,,,,35,B,2023-12-18_08h49.33.486,gca_avoidance_task,2022.2.4,144.06440274582133,
,,,,,,,,,16,0,16,0,,,,,,,,,,,,,,,,,,,,,,,,,,,,,,5.0,1.6932343000080436,,,,,,,,,,,,,,,,,,,,35,B,2023-12-18_08h49.33.486,gca_avoidance_task,2022.2.4,144.06440274582133,
,,,,,,,,,17,0,17,0,,,,,,,,,,,,,,,,,,,,,,,,,,,,,,5.0,0.6981333000585437,,,,,,,,,,,,,,,,,,,,35,B,2023-12-18_08h49.33.486,gca_avoidance_task,2022.2.4,144.06440274582133,
,,,,,,,,,18,0,18,0,,,,,,,,,,,,,,,,,,,,,,,,,,,,,,6.0,0.8965502999490127,,,,,,,,,,,,,,,,,,,,35,B,2023-12-18_08h49.33.486,gca_avoidance_task,2022.2.4,144.06440274582133,
,,,,,,,,,19,0,19,0,,,,,,,,,,,,,,,,,,,,,,,,,,,,,,7.0,1.4058301999466494,,,,,,,,,,,,,,,,,,,,35,B,2023-12-18_08h49.33.486,gca_avoidance_task,2022.2.4,144.06440274582133,
,,,,,,,,,20,0,20,0,,,,,,,,,,,,,,,,,,,,,,,,,,,,,,8.0,1.2406982999527827,,,,,,,,,,,,,,,,,,,,35,B,2023-12-18_08h49.33.486,gca_avoidance_task,2022.2.4,144.06440274582133,
,,,,,,,,,21,0,21,0,,,,,,,,,,,,,,,,,,,,,,,,,,,,,,7.0,1.3611443999689072,,,,,,,,,,,,,,,,,,,,35,B,2023-12-18_08h49.33.486,gca_avoidance_task,2022.2.4,144.06440274582133,
,,,,,,,,,22,0,22,0,,,,,,,,,,,,,,,,,,,,,,,,,,,,,,6.0,1.2102614000905305,,,,,,,,,,,,,,,,,,,,35,B,2023-12-18_08h49.33.486,gca_avoidance_task,2022.2.4,144.06440274582133,
positions.xlsx,stimuli.xlsx,stimuli/Social2.png,stimuli/Social1.png,stimuli/Nonsocial1.png,stimuli/Nonsocial2.png,cs_plus_s,,,,,,,0,0,0,0,0,0,0,0,,,,,,,,,,,,,,,,,,,,,,,,854.4649802999338,884.8078456999501,5.0,7.739663200103678,,,,,,,,,,,,,,,,35,B,2023-12-18_08h49.33.486,gca_avoidance_task,2022.2.4,144.06440274582133,
positions.xlsx,stimuli.xlsx,stimuli/Social2.png,stimuli/Social1.png,stimuli/Nonsocial1.png,stimuli/Nonsocial2.png,cs_minus_s,,,,,,,0,0,0,0,0,1,1,2,,,,,,,,,,,,,,,,,,,,,,,,,893.9186252999352,7.0,2.350209499942139,,,,,,,,,,,,,,,,35,B,2023-12-18_08h49.33.486,gca_avoidance_task,2022.2.4,144.06440274582133,
positions.xlsx,stimuli.xlsx,stimuli/Social2.png,stimuli/Social1.png,stimuli/Nonsocial1.png,stimuli/Nonsocial2.png,cs_plus_ns,,,,,,,0,0,0,0,0,2,2,1,,,,,,,,,,,,,,,,,,,,,,,,,898.1614761999808,6.0,2.0684370999224484,,,,,,,,,,,,,,,,35,B,2023-12-18_08h49.33.486,gca_avoidance_task,2022.2.4,144.06440274582133,
positions.xlsx,stimuli.xlsx,stimuli/Social2.png,stimuli/Social1.png,stimuli/Nonsocial1.png,stimuli/Nonsocial2.png,cs_minus_ns,,,,,,,0,0,0,0,0,3,3,3,,,,,,,,,,,,,,,,,,,,,,,,,901.4183404999785,7.0,3.4382496000034735,,,,,,,,,,,,,,,,35,B,2023-12-18_08h49.33.486,gca_avoidance_task,2022.2.4,144.06440274582133,
positions.xlsx,stimuli.xlsx,stimuli/Social2.png,stimuli/Social1.png,stimuli/Nonsocial1.png,stimuli/Nonsocial2.png,,"(0.7, 0.5)",cs_minus_ns,,,,,0,0,0,0,,,,,0,0,0,14,,,,,,,,,,,,,,,,,,,,,,,,905.9250690999907,924.1326435999945,5,reward,1,0.30619429994840175,0.3061980999773368,924.4520850999979,,,,,,,,35,B,2023-12-18_08h49.33.486,gca_avoidance_task,2022.2.4,144.06440274582133,
positions.xlsx,stimuli.xlsx,stimuli/Social2.png,stimuli/Social1.png,stimuli/Nonsocial1.png,stimuli/Nonsocial2.png,,"(-0.7, -0.5)",cs_minus_ns,,,,,0,0,0,0,,,,,0,1,1,13,,,,,,,,,,,,,,,,,,,,,,,,,934.7503053999972,10,reward,1,0.42410830000881106,0.42411190003622323,935.1808428999502,,,,,,,,35,B,2023-12-18_08h49.33.486,gca_avoidance_task,2022.2.4,144.06440274582133,
positions.xlsx,stimuli.xlsx,stimuli/Social2.png,stimuli/Social1.png,stimuli/Nonsocial1.png,stimuli/Nonsocial2.png,,"(0.7, 0.5)",cs_minus_s,,,,,0,0,0,0,,,,,0,2,2,6,,,,,,,,,,,,,,,,,,,,,,,,,944.4929318999639,15,reward,1,0.46566149999853224,0.46567860001232475,944.9651525999652,,,,,,,,35,B,2023-12-18_08h49.33.486,gca_avoidance_task,2022.2.4,144.06440274582133,
positions.xlsx,stimuli.xlsx,stimuli/Social2.png,stimuli/Social1.png,stimuli/Nonsocial1.png,stimuli/Nonsocial2.png,,"(-0.7, 0.5)",cs_plus_ns,,,,,0,0,0,0,,,,,0,3,3,8,,,,,,,,,,,,,,,,,,,,,,,,,954.3675504999701,15,shock,1,0.361464700079523,0.36146859999280423,954.7355911999475,,,,,,,,35,B,2023-12-18_08h49.33.486,gca_avoidance_task,2022.2.4,144.06440274582133,
positions.xlsx,stimuli.xlsx,stimuli/Social2.png,stimuli/Social1.png,stimuli/Nonsocial1.png,stimuli/Nonsocial2.png,,"(0.7, 0.5)",cs_plus_s,,,,,0,0,0,0,,,,,0,4,4,2,,,,,,,,,,,,,,,,,,,,,,,,,964.7560341999633,15,shock,1,0.4523538000648841,0.4523575999774039,965.2143410999561,,,,,,,,35,B,2023-12-18_08h49.33.486,gca_avoidance_task,2022.2.4,144.06440274582133,
positions.xlsx,stimuli.xlsx,stimuli/Social2.png,stimuli/Social1.png,stimuli/Nonsocial1.png,stimuli/Nonsocial2.png,,"(0.7, -0.5)",cs_plus_s,,,,,0,0,0,0,,,,,0,5,5,3,,,,,,,,,,,,,,,,,,,,,,,,,974.8181311999215,15,shock,1,0.36811450007371604,0.36811840010341257,975.1931314999238,,,,,,,,35,B,2023-12-18_08h49.33.486,gca_avoidance_task,2022.2.4,144.06440274582133,
positions.xlsx,stimuli.xlsx,stimuli/Social2.png,stimuli/Social1.png,stimuli/Nonsocial1.png,stimuli/Nonsocial2.png,,"(-0.7, 0.5)",cs_minus_s,,,,,0,0,0,0,,,,,0,6,6,4,,,,,,,,,,,,,,,,,,,,,,,,,984.4357899999013,20,reward,1,0.3751104000257328,0.37511410005390644,984.8246638999553,,,,,,,,35,B,2023-12-18_08h49.33.486,gca_avoidance_task,2022.2.4,144.06440274582133,
positions.xlsx,stimuli.xlsx,stimuli/Social2.png,stimuli/Social1.png,stimuli/Nonsocial1.png,stimuli/Nonsocial2.png,,"(0.7, 0.5)",cs_plus_ns,,,,,0,0,0,0,,,,,0,7,7,10,,,,,,,,,,,,,,,,,,,,,,,,,994.7895710999146,20,shock,1,0.43772069993428886,0.4377245999639854,995.2339722999604,,,,,,,,35,B,2023-12-18_08h49.33.486,gca_avoidance_task,2022.2.4,144.06440274582133,
positions.xlsx,stimuli.xlsx,stimuli/Social2.png,stimuli/Social1.png,stimuli/Nonsocial1.png,stimuli/Nonsocial2.png,,"(0.7, -0.5)",cs_minus_s,,,,,0,0,0,0,,,,,0,8,8,7,,,,,,,,,,,,,,,,,,,,,,,,,1004.6433152999962,25,reward,1,0.4654727999586612,0.46547679998911917,1005.1155205999967,,,,,,,,35,B,2023-12-18_08h49.33.486,gca_avoidance_task,2022.2.4,144.06440274582133,
positions.xlsx,stimuli.xlsx,stimuli/Social2.png,stimuli/Social1.png,stimuli/Nonsocial1.png,stimuli/Nonsocial2.png,,"(0.7, -0.5)",cs_minus_ns,,,,,0,0,0,0,,,,,0,9,9,15,,,,,,,,,,,,,,,,,,,,,,,,,1014.2471092999913,30,reward,1,0.39595740009099245,0.3959612000035122,1014.6499020999763,,,,,,,,35,B,2023-12-18_08h49.33.486,gca_avoidance_task,2022.2.4,144.06440274582133,
positions.xlsx,stimuli.xlsx,stimuli/Social2.png,stimuli/Social1.png,stimuli/Nonsocial1.png,stimuli/Nonsocial2.png,,"(-0.7, 0.5)",cs_minus_ns,,,,,0,0,0,0,,,,,0,10,10,12,,,,,,,,,,,,,,,,,,,,,,,,,1024.225922399899,35,reward,1,0.44448000006377697,0.4444837999762967,1024.6772688999772,,,,,,,,35,B,2023-12-18_08h49.33.486,gca_avoidance_task,2022.2.4,144.06440274582133,
positions.xlsx,stimuli.xlsx,stimuli/Social2.png,stimuli/Social1.png,stimuli/Nonsocial1.png,stimuli/Nonsocial2.png,,"(-0.7, -0.5)",cs_plus_ns,,,,,0,0,0,0,,,,,0,11,11,9,,,,,,,,,,,,,,,,,,,,,,,,,1034.3157393999863,35,shock,1,0.38237370003480464,0.3823774999473244,1034.7046431999188,,,,,,,,35,B,2023-12-18_08h49.33.486,gca_avoidance_task,2022.2.4,144.06440274582133,
positions.xlsx,stimuli.xlsx,stimuli/Social2.png,stimuli/Social1.png,stimuli/Nonsocial1.png,stimuli/Nonsocial2.png,,"(-0.7, -0.5)",cs_plus_s,,,,,0,0,0,0,,,,,0,12,12,1,,,,,,,,,,,,,,,,,,,,,,,,,1043.7389806999126,35,shock,1,0.3891022000461817,0.3891061000758782,1044.1347924999427,,,,,,,,35,B,2023-12-18_08h49.33.486,gca_avoidance_task,2022.2.4,144.06440274582133,
positions.xlsx,stimuli.xlsx,stimuli/Social2.png,stimuli/Social1.png,stimuli/Nonsocial1.png,stimuli/Nonsocial2.png,,"(-0.7, -0.5)",cs_minus_s,,,,,0,0,0,0,,,,,0,13,13,5,,,,,,,,,,,,,,,,,,,,,,,,,1054.5510411999421,40,reward,1,0.38903979992028326,0.3890436999499798,1054.9469293999719,,,,,,,,35,B,2023-12-18_08h49.33.486,gca_avoidance_task,2022.2.4,144.06440274582133,
positions.xlsx,stimuli.xlsx,stimuli/Social2.png,stimuli/Social1.png,stimuli/Nonsocial1.png,stimuli/Nonsocial2.png,,"(0.7, -0.5)",cs_plus_ns,,,,,0,0,0,0,,,,,0,14,14,11,,,,,,,,,,,,,,,,,,,,,,,,,1064.1200694999425,40,shock,1,0.5000336000230163,0.5000374000519514,1064.6270265999483,,,,,,,,35,B,2023-12-18_08h49.33.486,gca_avoidance_task,2022.2.4,144.06440274582133,
positions.xlsx,stimuli.xlsx,stimuli/Social2.png,stimuli/Social1.png,stimuli/Nonsocial1.png,stimuli/Nonsocial2.png,,"(-0.7, 0.5)",cs_plus_s,,,,,0,0,0,0,,,,,0,15,15,0,,,,,,,,,,,,,,,,,,,,,,,,,1074.0849801999284,40,shock,1,0.5835569000337273,0.583560400060378,1074.6683344999328,,,,,,,,35,B,2023-12-18_08h49.33.486,gca_avoidance_task,2022.2.4,144.06440274582133,
positions.xlsx,stimuli.xlsx,stimuli/Social2.png,stimuli/Social1.png,stimuli/Nonsocial1.png,stimuli/Nonsocial2.png,,"(0.7, 0.5)",cs_plus_ns,,,,,0,0,0,0,,,,,1,0,16,10,,,,,,,,,,,,,,,,,,,,,,,,,1084.7928771999432,40,shock,1,0.34041690011508763,0.3404205000260845,1085.1401098999195,,,,,,,,35,B,2023-12-18_08h49.33.486,gca_avoidance_task,2022.2.4,144.06440274582133,
positions.xlsx,stimuli.xlsx,stimuli/Social2.png,stimuli/Social1.png,stimuli/Nonsocial1.png,stimuli/Nonsocial2.png,,"(0.7, 0.5)",cs_minus_ns,,,,,0,0,0,0,,,,,1,1,17,14,,,,,,,,,,,,,,,,,,,,,,,,,1095.0216777999885,45,reward,1,0.31288230000063777,0.31288590002804995,1095.3410826999461,,,,,,,,35,B,2023-12-18_08h49.33.486,gca_avoidance_task,2022.2.4,144.06440274582133,
positions.xlsx,stimuli.xlsx,stimuli/Social2.png,stimuli/Social1.png,stimuli/Nonsocial1.png,stimuli/Nonsocial2.png,,"(-0.7, -0.5)",cs_plus_s,,,,,0,0,0,0,,,,,1,2,18,1,,,,,,,,,,,,,,,,,,,,,,,,,1104.5420914998977,45,shock,1,0.4102660999633372,0.4102697999915108,1104.958789999946,,,,,,,,35,B,2023-12-18_08h49.33.486,gca_avoidance_task,2022.2.4,144.06440274582133,
positions.xlsx,stimuli.xlsx,stimuli/Social2.png,stimuli/Social1.png,stimuli/Nonsocial1.png,stimuli/Nonsocial2.png,,"(-0.7, 0.5)",cs_plus_s,,,,,0,0,0,0,,,,,1,3,19,0,,,,,,,,,,,,,,,,,,,,,,,,,1114.2500663999235,45,shock,1,0.3752452000044286,0.37524910003412515,1114.6319786999375,,,,,,,,35,B,2023-12-18_08h49.33.486,gca_avoidance_task,2022.2.4,144.06440274582133,
positions.xlsx,stimuli.xlsx,stimuli/Social2.png,stimuli/Social1.png,stimuli/Nonsocial1.png,stimuli/Nonsocial2.png,,"(0.7, -0.5)",cs_plus_s,,,,,0,0,0,0,,,,,1,4,20,3,,,,,,,,,,,,,,,,,,,,,,,,,1123.7288219999755,45,shock,1,0.4304190999828279,0.437321100034751,1124.1662933999905,,,,,,,,35,B,2023-12-18_08h49.33.486,gca_avoidance_task,2022.2.4,144.06440274582133,
positions.xlsx,stimuli.xlsx,stimuli/Social2.png,stimuli/Social1.png,stimuli/Nonsocial1.png,stimuli/Nonsocial2.png,,"(0.7, -0.5)",cs_minus_s,,,,,0,0,0,0,,,,,1,5,21,7,,,,,,,,,,,,,,,,,,,,,,,,,1133.3048760999227,50,reward,1,0.42374969995580614,0.4237532999832183,1133.7353870999068,,,,,,,,35,B,2023-12-18_08h49.33.486,gca_avoidance_task,2022.2.4,144.06440274582133,
positions.xlsx,stimuli.xlsx,stimuli/Social2.png,stimuli/Social1.png,stimuli/Nonsocial1.png,stimuli/Nonsocial2.png,,"(-0.7, -0.5)",cs_minus_ns,,,,,0,0,0,0,,,,,1,6,22,13,,,,,,,,,,,,,,,,,,,,,,,,,1143.8530168998986,55,reward,1,0.44480909989215434,0.44481259991880506,1144.3044234999688,,,,,,,,35,B,2023-12-18_08h49.33.486,gca_avoidance_task,2022.2.4,144.06440274582133,
positions.xlsx,stimuli.xlsx,stimuli/Social2.png,stimuli/Social1.png,stimuli/Nonsocial1.png,stimuli/Nonsocial2.png,,"(0.7, 0.5)",cs_minus_s,,,,,0,0,0,0,,,,,1,7,23,6,,,,,,,,,,,,,,,,,,,,,,,,,1153.6373598999344,60,reward,1,0.42386760003864765,0.43077550001908094,1154.074830599944,,,,,,,,35,B,2023-12-18_08h49.33.486,gca_avoidance_task,2022.2.4,144.06440274582133,
positions.xlsx,stimuli.xlsx,stimuli/Social2.png,stimuli/Social1.png,stimuli/Nonsocial1.png,stimuli/Nonsocial2.png,,"(-0.7, 0.5)",cs_minus_ns,,,,,0,0,0,0,,,,,1,8,24,12,,,,,,,,,,,,,,,,,,,,,,,,,1163.1230776999146,65,reward,1,0.4237886000191793,0.4237925000488758,1163.553648000001,,,,,,,,35,B,2023-12-18_08h49.33.486,gca_avoidance_task,2022.2.4,144.06440274582133,
positions.xlsx,stimuli.xlsx,stimuli/Social2.png,stimuli/Social1.png,stimuli/Nonsocial1.png,stimuli/Nonsocial2.png,,"(-0.7, -0.5)",cs_minus_s,,,,,0,0,0,0,,,,,1,9,25,5,,,,,,,,,,,,,,,,,,,,,,,,,1173.004604699905,70,reward,1,0.34026980004273355,0.3402733000693843,1173.3518564999104,,,,,,,,35,B,2023-12-18_08h49.33.486,gca_avoidance_task,2022.2.4,144.06440274582133,
positions.xlsx,stimuli.xlsx,stimuli/Social2.png,stimuli/Social1.png,stimuli/Nonsocial1.png,stimuli/Nonsocial2.png,,"(-0.7, 0.5)",cs_plus_ns,,,,,0,0,0,0,,,,,1,10,26,8,,,,,,,,,,,,,,,,,,,,,,,,,1182.2195318999002,70,shock,1,0.4310300999786705,0.431034000008367,1182.657024999964,,,,,,,,35,B,2023-12-18_08h49.33.486,gca_avoidance_task,2022.2.4,144.06440274582133,
positions.xlsx,stimuli.xlsx,stimuli/Social2.png,stimuli/Social1.png,stimuli/Nonsocial1.png,stimuli/Nonsocial2.png,,"(-0.7, 0.5)",cs_minus_s,,,,,0,0,0,0,,,,,1,11,27,4,,,,,,,,,,,,,,,,,,,,,,,,,1191.1983678999823,75,reward,1,0.3542606000555679,0.3542642000829801,1191.5594412999926,,,,,,,,35,B,2023-12-18_08h49.33.486,gca_avoidance_task,2022.2.4,144.06440274582133,
positions.xlsx,stimuli.xlsx,stimuli/Social2.png,stimuli/Social1.png,stimuli/Nonsocial1.png,stimuli/Nonsocial2.png,,"(0.7, -0.5)",cs_plus_ns,,,,,0,0,0,0,,,,,1,12,28,11,,,,,,,,,,,,,,,,,,,,,,,,,1200.3160243999446,75,shock,1,0.4722674998920411,0.4722711999202147,1200.7951906999806,,,,,,,,35,B,2023-12-18_08h49.33.486,gca_avoidance_task,2022.2.4,144.06440274582133,
positions.xlsx,stimuli.xlsx,stimuli/Social2.png,stimuli/Social1.png,stimuli/Nonsocial1.png,stimuli/Nonsocial2.png,,"(0.7, 0.5)",cs_plus_s,,,,,0,0,0,0,,,,,1,13,29,2,,,,,,,,,,,,,,,,,,,,,,,,,1210.4892486999743,75,shock,1,0.3752610000083223,0.375264500034973,1210.8642295999452,,,,,,,,35,B,2023-12-18_08h49.33.486,gca_avoidance_task,2022.2.4,144.06440274582133,
positions.xlsx,stimuli.xlsx,stimuli/Social2.png,stimuli/Social1.png,stimuli/Nonsocial1.png,stimuli/Nonsocial2.png,,"(0.7, -0.5)",cs_minus_ns,,,,,0,0,0,0,,,,,1,14,30,15,,,,,,,,,,,,,,,,,,,,,,,,,1221.2388366999803,80,reward,1,0.4241484999656677,0.4309572000056505,1221.6762918999884,,,,,,,,35,B,2023-12-18_08h49.33.486,gca_avoidance_task,2022.2.4,144.06440274582133,
positions.xlsx,stimuli.xlsx,stimuli/Social2.png,stimuli/Social1.png,stimuli/Nonsocial1.png,stimuli/Nonsocial2.png,,"(-0.7, -0.5)",cs_plus_ns,,,,,0,0,0,0,,,,,1,15,31,9,,,,,,,,,,,,,,,,,,,,,,,,,1231.0300888000056,80,shock,1,0.4028907000320032,0.40289460006169975,1231.4398167999461,,,,,,,,35,B,2023-12-18_08h49.33.486,gca_avoidance_task,2022.2.4,144.06440274582133,
positions.xlsx,stimuli.xlsx,stimuli/Social2.png,stimuli/Social1.png,stimuli/Nonsocial1.png,stimuli/Nonsocial2.png,,"(0.7, 0.5)",cs_minus_s,,,,,0,0,0,0,,,,,,,,,0,0,0,6,,,,,,,,,,,,,,,,,,,,,1263.2649266999215,85,reward,1,0.4306898000650108,0.43069380009546876,1263.7024205999915,,,,,,,,35,B,2023-12-18_08h49.33.486,gca_avoidance_task,2022.2.4,144.06440274582133,
positions.xlsx,stimuli.xlsx,stimuli/Social2.png,stimuli/Social1.png,stimuli/Nonsocial1.png,stimuli/Nonsocial2.png,,"(0.7, 0.5)",cs_plus_s,,,,,0,0,0,0,,,,,,,,,0,1,1,2,,,,,,,,,,,,,,,,,,,,,1272.604871999938,85,none,0,,,1277.6185213999124,,,,,,,,35,B,2023-12-18_08h49.33.486,gca_avoidance_task,2022.2.4,144.06440274582133,
positions.xlsx,stimuli.xlsx,stimuli/Social2.png,stimuli/Social1.png,stimuli/Nonsocial1.png,stimuli/Nonsocial2.png,,"(0.7, 0.5)",cs_plus_ns,,,,,0,0,0,0,,,,,,,,,0,2,2,10,,,,,,,,,,,,,,,,,,,,,1287.6875572999706,85,none,0,,,1292.6942905999022,,,,,,,,35,B,2023-12-18_08h49.33.486,gca_avoidance_task,2022.2.4,144.06440274582133,
positions.xlsx,stimuli.xlsx,stimuli/Social2.png,stimuli/Social1.png,stimuli/Nonsocial1.png,stimuli/Nonsocial2.png,,"(-0.7, 0.5)",cs_plus_s,,,,,0,0,0,0,,,,,,,,,0,3,3,0,,,,,,,,,,,,,,,,,,,,,1302.0758689999348,85,none,0,,,1307.0825950999279,,,,,,,,35,B,2023-12-18_08h49.33.486,gca_avoidance_task,2022.2.4,144.06440274582133,
positions.xlsx,stimuli.xlsx,stimuli/Social2.png,stimuli/Social1.png,stimuli/Nonsocial1.png,stimuli/Nonsocial2.png,,"(-0.7, -0.5)",cs_minus_s,,,,,0,0,0,0,,,,,,,,,0,4,4,5,,,,,,,,,,,,,,,,,,,,,1316.6724772999296,90,reward,1,0.7923584999516606,0.7923621999798343,1317.471075899899,,,,,,,,35,B,2023-12-18_08h49.33.486,gca_avoidance_task,2022.2.4,144.06440274582133,
positions.xlsx,stimuli.xlsx,stimuli/Social2.png,stimuli/Social1.png,stimuli/Nonsocial1.png,stimuli/Nonsocial2.png,,"(0.7, 0.5)",cs_minus_ns,,,,,0,0,0,0,,,,,,,,,0,5,5,14,,,,,,,,,,,,,,,,,,,,,1327.0748822999885,95,reward,1,2.2991089000133798,2.2991128000430763,1329.3803248999175,,,,,,,,35,B,2023-12-18_08h49.33.486,gca_avoidance_task,2022.2.4,144.06440274582133,
positions.xlsx,stimuli.xlsx,stimuli/Social2.png,stimuli/Social1.png,stimuli/Nonsocial1.png,stimuli/Nonsocial2.png,,"(-0.7, -0.5)",cs_minus_ns,,,,,0,0,0,0,,,,,,,,,0,6,6,13,,,,,,,,,,,,,,,,,,,,,1338.23413909995,100,reward,1,0.7640432000625879,0.7640467999735847,1339.004930499941,,,,,,,,35,B,2023-12-18_08h49.33.486,gca_avoidance_task,2022.2.4,144.06440274582133,
positions.xlsx,stimuli.xlsx,stimuli/Social2.png,stimuli/Social1.png,stimuli/Nonsocial1.png,stimuli/Nonsocial2.png,,"(0.7, -0.5)",cs_minus_ns,,,,,0,0,0,0,,,,,,,,,0,7,7,15,,,,,,,,,,,,,,,,,,,,,1348.0323633999797,105,reward,1,0.7295854999683797,0.7295892999973148,1348.7684349999763,,,,,,,,35,B,2023-12-18_08h49.33.486,gca_avoidance_task,2022.2.4,144.06440274582133,
positions.xlsx,stimuli.xlsx,stimuli/Social2.png,stimuli/Social1.png,stimuli/Nonsocial1.png,stimuli/Nonsocial2.png,,"(0.7, -0.5)",cs_plus_ns,,,,,0,0,0,0,,,,,,,,,0,8,8,11,,,,,,,,,,,,,,,,,,,,,1357.823655999964,105,none,0,,,1362.8303990999702,,,,,,,,35,B,2023-12-18_08h49.33.486,gca_avoidance_task,2022.2.4,144.06440274582133,
positions.xlsx,stimuli.xlsx,stimuli/Social2.png,stimuli/Social1.png,stimuli/Nonsocial1.png,stimuli/Nonsocial2.png,,"(-0.7, 0.5)",cs_minus_ns,,,,,0,0,0,0,,,,,,,,,0,9,9,12,,,,,,,,,,,,,,,,,,,,,1373.0313742998987,110,reward,1,0.7921047999989241,0.7921088000293821,1373.8299388999585,,,,,,,,35,B,2023-12-18_08h49.33.486,gca_avoidance_task,2022.2.4,144.06440274582133,
positions.xlsx,stimuli.xlsx,stimuli/Social2.png,stimuli/Social1.png,stimuli/Nonsocial1.png,stimuli/Nonsocial2.png,,"(-0.7, 0.5)",cs_minus_s,,,,,0,0,0,0,,,,,,,,,0,10,10,4,,,,,,,,,,,,,,,,,,,,,1383.7392728999257,115,reward,1,0.3679398000240326,0.3679435000522062,1384.1142813999904,,,,,,,,35,B,2023-12-18_08h49.33.486,gca_avoidance_task,2022.2.4,144.06440274582133,
positions.xlsx,stimuli.xlsx,stimuli/Social2.png,stimuli/Social1.png,stimuli/Nonsocial1.png,stimuli/Nonsocial2.png,,"(-0.7, -0.5)",cs_plus_s,,,,,0,0,0,0,,,,,,,,,0,11,11,1,,,,,,,,,,,,,,,,,,,,,1393.1069735999918,115,none,0,,,1398.1136906999163,,,,,,,,35,B,2023-12-18_08h49.33.486,gca_avoidance_task,2022.2.4,144.06440274582133,
positions.xlsx,stimuli.xlsx,stimuli/Social2.png,stimuli/Social1.png,stimuli/Nonsocial1.png,stimuli/Nonsocial2.png,,"(-0.7, -0.5)",cs_plus_ns,,,,,0,0,0,0,,,,,,,,,0,12,12,9,,,,,,,,,,,,,,,,,,,,,1407.5855479999445,115,none,0,,,1412.5922504999908,,,,,,,,35,B,2023-12-18_08h49.33.486,gca_avoidance_task,2022.2.4,144.06440274582133,
positions.xlsx,stimuli.xlsx,stimuli/Social2.png,stimuli/Social1.png,stimuli/Nonsocial1.png,stimuli/Nonsocial2.png,,"(0.7, -0.5)",cs_minus_s,,,,,0,0,0,0,,,,,,,,,0,13,13,7,,,,,,,,,,,,,,,,,,,,,1422.2307849999052,120,reward,1,0.6047495999373496,0.6047532999655232,1422.841885700007,,,,,,,,35,B,2023-12-18_08h49.33.486,gca_avoidance_task,2022.2.4,144.06440274582133,
positions.xlsx,stimuli.xlsx,stimuli/Social2.png,stimuli/Social1.png,stimuli/Nonsocial1.png,stimuli/Nonsocial2.png,,"(-0.7, 0.5)",cs_plus_ns,,,,,0,0,0,0,,,,,,,,,0,14,14,8,,,,,,,,,,,,,,,,,,,,,1432.9109285000013,120,none,0,,,1437.9176599999191,,,,,,,,35,B,2023-12-18_08h49.33.486,gca_avoidance_task,2022.2.4,144.06440274582133,
positions.xlsx,stimuli.xlsx,stimuli/Social2.png,stimuli/Social1.png,stimuli/Nonsocial1.png,stimuli/Nonsocial2.png,,"(0.7, -0.5)",cs_plus_s,,,,,0,0,0,0,,,,,,,,,0,15,15,3,,,,,,,,,,,,,,,,,,,,,1447.7228116999613,120,none,0,,,1452.7295823999448,,,,,,,,35,B,2023-12-18_08h49.33.486,gca_avoidance_task,2022.2.4,144.06440274582133,
positions.xlsx,stimuli.xlsx,stimuli/Social2.png,stimuli/Social1.png,stimuli/Nonsocial1.png,stimuli/Nonsocial2.png,,"(0.7, -0.5)",cs_minus_ns,,,,,0,0,0,0,,,,,,,,,1,0,16,15,,,,,,,,,,,,,,,,,,,,,1462.4305704999715,125,reward,1,0.9379632000345737,0.9379671000642702,1463.3749652999686,,,,,,,,35,B,2023-12-18_08h49.33.486,gca_avoidance_task,2022.2.4,144.06440274582133,
positions.xlsx,stimuli.xlsx,stimuli/Social2.png,stimuli/Social1.png,stimuli/Nonsocial1.png,stimuli/Nonsocial2.png,,"(0.7, -0.5)",cs_minus_s,,,,,0,0,0,0,,,,,,,,,1,1,17,7,,,,,,,,,,,,,,,,,,,,,1473.346784699941,130,reward,1,0.44466739997733384,0.4446711998898536,1473.7982254999224,,,,,,,,35,B,2023-12-18_08h49.33.486,gca_avoidance_task,2022.2.4,144.06440274582133,
positions.xlsx,stimuli.xlsx,stimuli/Social2.png,stimuli/Social1.png,stimuli/Nonsocial1.png,stimuli/Nonsocial2.png,,"(0.7, 0.5)",cs_minus_ns,,,,,0,0,0,0,,,,,,,,,1,2,18,14,,,,,,,,,,,,,,,,,,,,,1483.346415799926,135,reward,1,0.6184845000971109,0.6184883000096306,1483.971393499989,,,,,,,,35,B,2023-12-18_08h49.33.486,gca_avoidance_task,2022.2.4,144.06440274582133,
positions.xlsx,stimuli.xlsx,stimuli/Social2.png,stimuli/Social1.png,stimuli/Nonsocial1.png,stimuli/Nonsocial2.png,,"(0.7, 0.5)",cs_plus_s,,,,,0,0,0,0,,,,,,,,,1,3,19,2,,,,,,,,,,,,,,,,,,,,,1493.5751447000075,135,shock,1,0.1672498999396339,0.16725369996856898,1493.7487887999741,,,,,,,,35,B,2023-12-18_08h49.33.486,gca_avoidance_task,2022.2.4,144.06440274582133,
positions.xlsx,stimuli.xlsx,stimuli/Social2.png,stimuli/Social1.png,stimuli/Nonsocial1.png,stimuli/Nonsocial2.png,,"(-0.7, -0.5)",cs_plus_ns,,,,,0,0,0,0,,,,,,,,,1,4,20,9,,,,,,,,,,,,,,,,,,,,,1503.5609162999317,135,none,0,,,1508.5676123999292,,,,,,,,35,B,2023-12-18_08h49.33.486,gca_avoidance_task,2022.2.4,144.06440274582133,
positions.xlsx,stimuli.xlsx,stimuli/Social2.png,stimuli/Social1.png,stimuli/Nonsocial1.png,stimuli/Nonsocial2.png,,"(0.7, -0.5)",cs_plus_s,,,,,0,0,0,0,,,,,,,,,1,5,21,3,,,,,,,,,,,,,,,,,,,,,1518.1575106999371,135,none,0,,,1523.1642536999425,,,,,,,,35,B,2023-12-18_08h49.33.486,gca_avoidance_task,2022.2.4,144.06440274582133,
positions.xlsx,stimuli.xlsx,stimuli/Social2.png,stimuli/Social1.png,stimuli/Nonsocial1.png,stimuli/Nonsocial2.png,,"(0.7, 0.5)",cs_minus_s,,,,,0,0,0,0,,,,,,,,,1,6,22,6,,,,,,,,,,,,,,,,,,,,,1532.9138985999161,140,reward,1,0.1739233999978751,0.18082289991434664,1533.101384999929,,,,,,,,35,B,2023-12-18_08h49.33.486,gca_avoidance_task,2022.2.4,144.06440274582133,
positions.xlsx,stimuli.xlsx,stimuli/Social2.png,stimuli/Social1.png,stimuli/Nonsocial1.png,stimuli/Nonsocial2.png,,"(-0.7, 0.5)",cs_plus_s,,,,,0,0,0,0,,,,,,,,,1,7,23,0,,,,,,,,,,,,,,,,,,,,,1543.07315750001,140,none,0,,,1548.0799401999684,,,,,,,,35,B,2023-12-18_08h49.33.486,gca_avoidance_task,2022.2.4,144.06440274582133,
positions.xlsx,stimuli.xlsx,stimuli/Social2.png,stimuli/Social1.png,stimuli/Nonsocial1.png,stimuli/Nonsocial2.png,,"(-0.7, 0.5)",cs_minus_s,,,,,0,0,0,0,,,,,,,,,1,8,24,4,,,,,,,,,,,,,,,,,,,,,1558.0378717998974,145,reward,1,0.6114904000423849,0.6114939000690356,1558.6558993000071,,,,,,,,35,B,2023-12-18_08h49.33.486,gca_avoidance_task,2022.2.4,144.06440274582133,
positions.xlsx,stimuli.xlsx,stimuli/Social2.png,stimuli/Social1.png,stimuli/Nonsocial1.png,stimuli/Nonsocial2.png,,"(0.7, -0.5)",cs_plus_ns,,,,,0,0,0,0,,,,,,,,,1,9,25,11,,,,,,,,,,,,,,,,,,,,,1567.4541776999831,145,none,0,,,1572.460934999981,,,,,,,,35,B,2023-12-18_08h49.33.486,gca_avoidance_task,2022.2.4,144.06440274582133,
positions.xlsx,stimuli.xlsx,stimuli/Social2.png,stimuli/Social1.png,stimuli/Nonsocial1.png,stimuli/Nonsocial2.png,,"(-0.7, 0.5)",cs_minus_ns,,,,,0,0,0,0,,,,,,,,,1,10,26,12,,,,,,,,,,,,,,,,,,,,,1581.953551499988,150,reward,1,0.6535208000568673,0.659651100053452,1582.620231000008,,,,,,,,35,B,2023-12-18_08h49.33.486,gca_avoidance_task,2022.2.4,144.06440274582133,
positions.xlsx,stimuli.xlsx,stimuli/Social2.png,stimuli/Social1.png,stimuli/Nonsocial1.png,stimuli/Nonsocial2.png,,"(-0.7, 0.5)",cs_plus_ns,,,,,0,0,0,0,,,,,,,,,1,11,27,8,,,,,,,,,,,,,,,,,,,,,1592.1406899999129,150,shock,1,0.38228080002591014,0.38228450005408376,1592.5295952999732,,,,,,,,35,B,2023-12-18_08h49.33.486,gca_avoidance_task,2022.2.4,144.06440274582133,
positions.xlsx,stimuli.xlsx,stimuli/Social2.png,stimuli/Social1.png,stimuli/Nonsocial1.png,stimuli/Nonsocial2.png,,"(-0.7, -0.5)",cs_plus_s,,,,,0,0,0,0,,,,,,,,,1,12,28,1,,,,,,,,,,,,,,,,,,,,,1602.7722290999955,150,none,0,,,1607.7789546999848,,,,,,,,35,B,2023-12-18_08h49.33.486,gca_avoidance_task,2022.2.4,144.06440274582133,
positions.xlsx,stimuli.xlsx,stimuli/Social2.png,stimuli/Social1.png,stimuli/Nonsocial1.png,stimuli/Nonsocial2.png,,"(-0.7, -0.5)",cs_minus_s,,,,,0,0,0,0,,,,,,,,,1,13,29,5,,,,,,,,,,,,,,,,,,,,,1617.1674919999205,155,reward,1,0.6947296999860555,0.6947338000172749,1617.868835399975,,,,,,,,35,B,2023-12-18_08h49.33.486,gca_avoidance_task,2022.2.4,144.06440274582133,
positions.xlsx,stimuli.xlsx,stimuli/Social2.png,stimuli/Social1.png,stimuli/Nonsocial1.png,stimuli/Nonsocial2.png,,"(0.7, 0.5)",cs_plus_ns,,,,,0,0,0,0,,,,,,,,,1,14,30,10,,,,,,,,,,,,,,,,,,,,,1627.3198266999098,155,none,0,,,1632.3335533000063,,,,,,,,35,B,2023-12-18_08h49.33.486,gca_avoidance_task,2022.2.4,144.06440274582133,
positions.xlsx,stimuli.xlsx,stimuli/Social2.png,stimuli/Social1.png,stimuli/Nonsocial1.png,stimuli/Nonsocial2.png,,"(-0.7, -0.5)",cs_minus_ns,,,,,0,0,0,0,,,,,,,,,1,15,31,13,,,,,,,,,,,,,,,,,,,,,1641.152623299975,160,reward,1,1.152704400010407,1.1527079999214038,1642.312295599957,,,,,,,,35,B,2023-12-18_08h49.33.486,gca_avoidance_task,2022.2.4,144.06440274582133,
positions.xlsx,stimuli.xlsx,stimuli/Social2.png,stimuli/Social1.png,stimuli/Nonsocial1.png,stimuli/Nonsocial2.png,,"(0.7, -0.5)",cs_plus_s,,,,,0,0,0,0,,,,,,,,,2,0,32,3,,,,,,,,,,,,,,,,,,,,,1651.9438412999734,160,none,0,,,1656.9506055999082,,,,,,,,35,B,2023-12-18_08h49.33.486,gca_avoidance_task,2022.2.4,144.06440274582133,
positions.xlsx,stimuli.xlsx,stimuli/Social2.png,stimuli/Social1.png,stimuli/Nonsocial1.png,stimuli/Nonsocial2.png,,"(0.7, 0.5)",cs_plus_ns,,,,,0,0,0,0,,,,,,,,,2,1,33,10,,,,,,,,,,,,,,,,,,,,,1666.832144199987,160,none,0,,,1671.845854699961,,,,,,,,35,B,2023-12-18_08h49.33.486,gca_avoidance_task,2022.2.4,144.06440274582133,
positions.xlsx,stimuli.xlsx,stimuli/Social2.png,stimuli/Social1.png,stimuli/Nonsocial1.png,stimuli/Nonsocial2.png,,"(-0.7, 0.5)",cs_minus_ns,,,,,0,0,0,0,,,,,,,,,2,2,34,12,,,,,,,,,,,,,,,,,,,,,1681.5537886999082,165,reward,1,0.6597101000370458,0.6597136000636965,1682.2204559999518,,,,,,,,35,B,2023-12-18_08h49.33.486,gca_avoidance_task,2022.2.4,144.06440274582133,
positions.xlsx,stimuli.xlsx,stimuli/Social2.png,stimuli/Social1.png,stimuli/Nonsocial1.png,stimuli/Nonsocial2.png,,"(-0.7, -0.5)",cs_plus_ns,,,,,0,0,0,0,,,,,,,,,2,3,35,9,,,,,,,,,,,,,,,,,,,,,1692.2825015999842,165,none,0,,,1697.2892910999944,,,,,,,,35,B,2023-12-18_08h49.33.486,gca_avoidance_task,2022.2.4,144.06440274582133,
positions.xlsx,stimuli.xlsx,stimuli/Social2.png,stimuli/Social1.png,stimuli/Nonsocial1.png,stimuli/Nonsocial2.png,,"(0.7, 0.5)",cs_minus_ns,,,,,0,0,0,0,,,,,,,,,2,4,36,14,,,,,,,,,,,,,,,,,,,,,1707.6777531999396,170,reward,1,0.5629009999101982,0.5629049999406561,1708.2471996999811,,,,,,,,35,B,2023-12-18_08h49.33.486,gca_avoidance_task,2022.2.4,144.06440274582133,
positions.xlsx,stimuli.xlsx,stimuli/Social2.png,stimuli/Social1.png,stimuli/Nonsocial1.png,stimuli/Nonsocial2.png,,"(-0.7, -0.5)",cs_minus_s,,,,,0,0,0,0,,,,,,,,,2,5,37,5,,,,,,,,,,,,,,,,,,,,,1717.2398740999633,175,reward,1,0.5414990000426769,0.5415026000700891,1717.788499499904,,,,,,,,35,B,2023-12-18_08h49.33.486,gca_avoidance_task,2022.2.4,144.06440274582133,
positions.xlsx,stimuli.xlsx,stimuli/Social2.png,stimuli/Social1.png,stimuli/Nonsocial1.png,stimuli/Nonsocial2.png,,"(-0.7, 0.5)",cs_minus_s,,,,,0,0,0,0,,,,,,,,,2,6,38,4,,,,,,,,,,,,,,,,,,,,,1727.0728174999822,180,reward,1,0.5074400000739843,0.5144277000799775,1727.5936381999636,,,,,,,,35,B,2023-12-18_08h49.33.486,gca_avoidance_task,2022.2.4,144.06440274582133,
positions.xlsx,stimuli.xlsx,stimuli/Social2.png,stimuli/Social1.png,stimuli/Nonsocial1.png,stimuli/Nonsocial2.png,,"(-0.7, 0.5)",cs_plus_ns,,,,,0,0,0,0,,,,,,,,,2,7,39,8,,,,,,,,,,,,,,,,,,,,,1737.5515687000006,180,none,0,,,1742.5583810999524,,,,,,,,35,B,2023-12-18_08h49.33.486,gca_avoidance_task,2022.2.4,144.06440274582133,
positions.xlsx,stimuli.xlsx,stimuli/Social2.png,stimuli/Social1.png,stimuli/Nonsocial1.png,stimuli/Nonsocial2.png,,"(0.7, 0.5)",cs_minus_s,,,,,0,0,0,0,,,,,,,,,2,8,40,6,,,,,,,,,,,,,,,,,,,,,1752.2593203999568,185,reward,1,0.5558467999799177,0.5558506000088528,1752.8218416000018,,,,,,,,35,B,2023-12-18_08h49.33.486,gca_avoidance_task,2022.2.4,144.06440274582133,
positions.xlsx,stimuli.xlsx,stimuli/Social2.png,stimuli/Social1.png,stimuli/Nonsocial1.png,stimuli/Nonsocial2.png,,"(0.7, 0.5)",cs_plus_s,,,,,0,0,0,0,,,,,,,,,2,9,41,2,,,,,,,,,,,,,,,,,,,,,1761.710317299934,185,none,0,,,1766.7171147000045,,,,,,,,35,B,2023-12-18_08h49.33.486,gca_avoidance_task,2022.2.4,144.06440274582133,
positions.xlsx,stimuli.xlsx,stimuli/Social2.png,stimuli/Social1.png,stimuli/Nonsocial1.png,stimuli/Nonsocial2.png,,"(-0.7, -0.5)",cs_minus_ns,,,,,0,0,0,0,,,,,,,,,2,10,42,13,,,,,,,,,,,,,,,,,,,,,1775.8625753999222,190,reward,1,0.8398766999598593,0.8398803999880329,1776.7097663999302,,,,,,,,35,B,2023-12-18_08h49.33.486,gca_avoidance_task,2022.2.4,144.06440274582133,
positions.xlsx,stimuli.xlsx,stimuli/Social2.png,stimuli/Social1.png,stimuli/Nonsocial1.png,stimuli/Nonsocial2.png,,"(0.7, -0.5)",cs_minus_ns,,,,,0,0,0,0,,,,,,,,,2,11,43,15,,,,,,,,,,,,,,,,,,,,,1787.1051532999845,195,reward,1,0.5345642999745905,0.5345685000065714,1787.646812699968,,,,,,,,35,B,2023-12-18_08h49.33.486,gca_avoidance_task,2022.2.4,144.06440274582133,
positions.xlsx,stimuli.xlsx,stimuli/Social2.png,stimuli/Social1.png,stimuli/Nonsocial1.png,stimuli/Nonsocial2.png,,"(0.7, -0.5)",cs_minus_s,,,,,0,0,0,0,,,,,,,,,2,12,44,7,,,,,,,,,,,,,,,,,,,,,1796.7089627999812,200,reward,1,0.8892582999542356,0.8892620999831706,1797.604741999996,,,,,,,,35,B,2023-12-18_08h49.33.486,gca_avoidance_task,2022.2.4,144.06440274582133,
positions.xlsx,stimuli.xlsx,stimuli/Social2.png,stimuli/Social1.png,stimuli/Nonsocial1.png,stimuli/Nonsocial2.png,,"(0.7, -0.5)",cs_plus_ns,,,,,0,0,0,0,,,,,,,,,2,13,45,11,,,,,,,,,,,,,,,,,,,,,1806.9029898999725,200,none,0,,,1811.9097003999632,,,,,,,,35,B,2023-12-18_08h49.33.486,gca_avoidance_task,2022.2.4,144.06440274582133,
positions.xlsx,stimuli.xlsx,stimuli/Social2.png,stimuli/Social1.png,stimuli/Nonsocial1.png,stimuli/Nonsocial2.png,,"(-0.7, 0.5)",cs_plus_s,,,,,0,0,0,0,,,,,,,,,2,14,46,0,,,,,,,,,,,,,,,,,,,,,1820.9579865999985,200,none,0,,,1825.9647403999697,,,,,,,,35,B,2023-12-18_08h49.33.486,gca_avoidance_task,2022.2.4,144.06440274582133,
positions.xlsx,stimuli.xlsx,stimuli/Social2.png,stimuli/Social1.png,stimuli/Nonsocial1.png,stimuli/Nonsocial2.png,,"(-0.7, -0.5)",cs_plus_s,,,,,0,0,0,0,,,,,,,,,2,15,47,1,,,,,,,,,,,,,,,,,,,,,1834.714403699967,200,none,0,,,1839.7211526999017,,,,,,,,35,B,2023-12-18_08h49.33.486,gca_avoidance_task,2022.2.4,144.06440274582133,
positions.xlsx,stimuli.xlsx,stimuli/Social2.png,stimuli/Social1.png,stimuli/Nonsocial1.png,stimuli/Nonsocial2.png,,"(-0.7, -0.5)",cs_plus_ns,,,,,0,0,0,0,,,,,,,,,3,0,48,9,,,,,,,,,,,,,,,,,,,,,1849.6582269999199,200,none,0,,,1854.6649786999915,,,,,,,,35,B,2023-12-18_08h49.33.486,gca_avoidance_task,2022.2.4,144.06440274582133,
positions.xlsx,stimuli.xlsx,stimuli/Social2.png,stimuli/Social1.png,stimuli/Nonsocial1.png,stimuli/Nonsocial2.png,,"(-0.7, -0.5)",cs_plus_s,,,,,0,0,0,0,,,,,,,,,3,1,49,1,,,,,,,,,,,,,,,,,,,,,1864.6229277999373,200,none,0,,,1869.6296696999343,,,,,,,,35,B,2023-12-18_08h49.33.486,gca_avoidance_task,2022.2.4,144.06440274582133,
positions.xlsx,stimuli.xlsx,stimuli/Social2.png,stimuli/Social1.png,stimuli/Nonsocial1.png,stimuli/Nonsocial2.png,,"(-0.7, 0.5)",cs_minus_s,,,,,0,0,0,0,,,,,,,,,3,2,50,4,,,,,,,,,,,,,,,,,,,,,1879.226582699921,205,reward,1,0.7222716000396758,0.7222756000701338,1879.955691799987,,,,,,,,35,B,2023-12-18_08h49.33.486,gca_avoidance_task,2022.2.4,144.06440274582133,
positions.xlsx,stimuli.xlsx,stimuli/Social2.png,stimuli/Social1.png,stimuli/Nonsocial1.png,stimuli/Nonsocial2.png,,"(0.7, -0.5)",cs_plus_ns,,,,,0,0,0,0,,,,,,,,,3,3,51,11,,,,,,,,,,,,,,,,,,,,,1890.0108529999852,205,none,0,,,1895.0176122999983,,,,,,,,35,B,2023-12-18_08h49.33.486,gca_avoidance_task,2022.2.4,144.06440274582133,
positions.xlsx,stimuli.xlsx,stimuli/Social2.png,stimuli/Social1.png,stimuli/Nonsocial1.png,stimuli/Nonsocial2.png,,"(-0.7, -0.5)",cs_minus_ns,,,,,0,0,0,0,,,,,,,,,3,4,52,13,,,,,,,,,,,,,,,,,,,,,1904.4547326999018,210,reward,1,0.6668643000302836,0.6668678999412805,1905.1282927999273,,,,,,,,35,B,2023-12-18_08h49.33.486,gca_avoidance_task,2022.2.4,144.06440274582133,
positions.xlsx,stimuli.xlsx,stimuli/Social2.png,stimuli/Social1.png,stimuli/Nonsocial1.png,stimuli/Nonsocial2.png,,"(0.7, 0.5)",cs_plus_ns,,,,,0,0,0,0,,,,,,,,,3,5,53,10,,,,,,,,,,,,,,,,,,,,,1914.572369099944,210,none,0,,,1919.579109299928,,,,,,,,35,B,2023-12-18_08h49.33.486,gca_avoidance_task,2022.2.4,144.06440274582133,
positions.xlsx,stimuli.xlsx,stimuli/Social2.png,stimuli/Social1.png,stimuli/Nonsocial1.png,stimuli/Nonsocial2.png,,"(-0.7, 0.5)",cs_minus_ns,,,,,0,0,0,0,,,,,,,,,3,6,54,12,,,,,,,,,,,,,,,,,,,,,1928.9398536999943,215,reward,1,0.611663999967277,0.6116678999969736,1929.5578796999762,,,,,,,,35,B,2023-12-18_08h49.33.486,gca_avoidance_task,2022.2.4,144.06440274582133,
positions.xlsx,stimuli.xlsx,stimuli/Social2.png,stimuli/Social1.png,stimuli/Nonsocial1.png,stimuli/Nonsocial2.png,,"(0.7, -0.5)",cs_minus_s,,,,,0,0,0,0,,,,,,,,,3,7,55,7,,,,,,,,,,,,,,,,,,,,,1938.81448489998,220,reward,1,0.5140212000114843,0.514024900039658,1939.335266500013,,,,,,,,35,B,2023-12-18_08h49.33.486,gca_avoidance_task,2022.2.4,144.06440274582133,
positions.xlsx,stimuli.xlsx,stimuli/Social2.png,stimuli/Social1.png,stimuli/Nonsocial1.png,stimuli/Nonsocial2.png,,"(-0.7, 0.5)",cs_plus_ns,,,,,0,0,0,0,,,,,,,,,3,8,56,8,,,,,,,,,,,,,,,,,,,,,1948.8418441999238,220,none,0,,,1953.8555555999046,,,,,,,,35,B,2023-12-18_08h49.33.486,gca_avoidance_task,2022.2.4,144.06440274582133,
positions.xlsx,stimuli.xlsx,stimuli/Social2.png,stimuli/Social1.png,stimuli/Nonsocial1.png,stimuli/Nonsocial2.png,,"(-0.7, 0.5)",cs_plus_s,,,,,0,0,0,0,,,,,,,,,3,9,57,0,,,,,,,,,,,,,,,,,,,,,1963.1884981999174,220,none,0,,,1968.1952574999304,,,,,,,,35,B,2023-12-18_08h49.33.486,gca_avoidance_task,2022.2.4,144.06440274582133,
positions.xlsx,stimuli.xlsx,stimuli/Social2.png,stimuli/Social1.png,stimuli/Nonsocial1.png,stimuli/Nonsocial2.png,,"(0.7, 0.5)",cs_minus_ns,,,,,0,0,0,0,,,,,,,,,3,10,58,14,,,,,,,,,,,,,,,,,,,,,1977.7087900999468,225,reward,1,0.5766520999604836,0.5834875999717042,1978.299018099904,,,,,,,,35,B,2023-12-18_08h49.33.486,gca_avoidance_task,2022.2.4,144.06440274582133,
positions.xlsx,stimuli.xlsx,stimuli/Social2.png,stimuli/Social1.png,stimuli/Nonsocial1.png,stimuli/Nonsocial2.png,,"(0.7, -0.5)",cs_plus_s,,,,,0,0,0,0,,,,,,,,,3,11,59,3,,,,,,,,,,,,,,,,,,,,,1987.2500662999228,225,none,0,,,1992.2568230999168,,,,,,,,35,B,2023-12-18_08h49.33.486,gca_avoidance_task,2022.2.4,144.06440274582133,
positions.xlsx,stimuli.xlsx,stimuli/Social2.png,stimuli/Social1.png,stimuli/Nonsocial1.png,stimuli/Nonsocial2.png,,"(0.7, 0.5)",cs_plus_s,,,,,0,0,0,0,,,,,,,,,3,12,60,2,,,,,,,,,,,,,,,,,,,,,2002.1939153999556,225,none,0,,,2007.2006910999771,,,,,,,,35,B,2023-12-18_08h49.33.486,gca_avoidance_task,2022.2.4,144.06440274582133,
positions.xlsx,stimuli.xlsx,stimuli/Social2.png,stimuli/Social1.png,stimuli/Nonsocial1.png,stimuli/Nonsocial2.png,,"(0.7, 0.5)",cs_minus_s,,,,,0,0,0,0,,,,,,,,,3,13,61,6,,,,,,,,,,,,,,,,,,,,,2015.9155873999698,230,reward,1,0.62500690005254,0.625010900082998,2016.54753109999,,,,,,,,35,B,2023-12-18_08h49.33.486,gca_avoidance_task,2022.2.4,144.06440274582133,
positions.xlsx,stimuli.xlsx,stimuli/Social2.png,stimuli/Social1.png,stimuli/Nonsocial1.png,stimuli/Nonsocial2.png,,"(0.7, -0.5)",cs_minus_ns,,,,,0,0,0,0,,,,,,,,,3,14,62,15,,,,,,,,,,,,,,,,,,,,,2025.6304752998985,235,reward,1,0.6321920999325812,0.6389981999527663,2026.2763121000025,,,,,,,,35,B,2023-12-18_08h49.33.486,gca_avoidance_task,2022.2.4,144.06440274582133,
positions.xlsx,stimuli.xlsx,stimuli/Social2.png,stimuli/Social1.png,stimuli/Nonsocial1.png,stimuli/Nonsocial2.png,,"(-0.7, -0.5)",cs_minus_s,,,,,0,0,0,0,,,,,,,,,3,15,63,5,,,,,,,,,,,,,,,,,,,,,2035.9911957998993,240,reward,1,0.5282480999594554,0.5282516999868676,2036.5259272999829,,,,,,,,35,B,2023-12-18_08h49.33.486,gca_avoidance_task,2022.2.4,144.06440274582133,
positions.xlsx,stimuli.xlsx,stimuli/Social2.png,stimuli/Social1.png,stimuli/Nonsocial1.png,stimuli/Nonsocial2.png,,"(0.7, 0.5)",cs_minus_s,,,,,0,0,0,0,,,,,,,,,4,0,64,6,,,,,,,,,,,,,,,,,,,,,2045.4283306999132,245,reward,1,0.6183233000338078,0.6183272000635043,2046.053313399898,,,,,,,,35,B,2023-12-18_08h49.33.486,gca_avoidance_task,2022.2.4,144.06440274582133,
positions.xlsx,stimuli.xlsx,stimuli/Social2.png,stimuli/Social1.png,stimuli/Nonsocial1.png,stimuli/Nonsocial2.png,,"(-0.7, -0.5)",cs_minus_s,,,,,0,0,0,0,,,,,,,,,4,1,65,5,,,,,,,,,,,,,,,,,,,,,2054.962665900006,250,reward,1,0.5069822000805289,0.5139294000109658,2055.4834819999523,,,,,,,,35,B,2023-12-18_08h49.33.486,gca_avoidance_task,2022.2.4,144.06440274582133,
positions.xlsx,stimuli.xlsx,stimuli/Social2.png,stimuli/Social1.png,stimuli/Nonsocial1.png,stimuli/Nonsocial2.png,,"(0.7, -0.5)",cs_minus_ns,,,,,0,0,0,0,,,,,,,,,4,2,66,15,,,,,,,,,,,,,,,,,,,,,2065.656668599928,255,reward,1,0.8611647000070661,0.8611684999195859,2066.5247303999495,,,,,,,,35,B,2023-12-18_08h49.33.486,gca_avoidance_task,2022.2.4,144.06440274582133,
positions.xlsx,stimuli.xlsx,stimuli/Social2.png,stimuli/Social1.png,stimuli/Nonsocial1.png,stimuli/Nonsocial2.png,,"(0.7, 0.5)",cs_plus_ns,,,,,0,0,0,0,,,,,,,,,4,3,67,10,,,,,,,,,,,,,,,,,,,,,2075.7187886999454,255,none,0,,,2080.7255334999645,,,,,,,,35,B,2023-12-18_08h49.33.486,gca_avoidance_task,2022.2.4,144.06440274582133,
positions.xlsx,stimuli.xlsx,stimuli/Social2.png,stimuli/Social1.png,stimuli/Nonsocial1.png,stimuli/Nonsocial2.png,,"(-0.7, -0.5)",cs_minus_ns,,,,,0,0,0,0,,,,,,,,,4,4,68,13,,,,,,,,,,,,,,,,,,,,,2090.0723819999257,260,reward,1,0.5486210000235587,0.5486247000517324,2090.627918299986,,,,,,,,35,B,2023-12-18_08h49.33.486,gca_avoidance_task,2022.2.4,144.06440274582133,
positions.xlsx,stimuli.xlsx,stimuli/Social2.png,stimuli/Social1.png,stimuli/Nonsocial1.png,stimuli/Nonsocial2.png,,"(-0.7, 0.5)",cs_plus_ns,,,,,0,0,0,0,,,,,,,,,4,5,69,8,,,,,,,,,,,,,,,,,,,,,2100.155377099989,260,none,0,,,2105.162056899979,,,,,,,,35,B,2023-12-18_08h49.33.486,gca_avoidance_task,2022.2.4,144.06440274582133,
positions.xlsx,stimuli.xlsx,stimuli/Social2.png,stimuli/Social1.png,stimuli/Nonsocial1.png,stimuli/Nonsocial2.png,,"(-0.7, 0.5)",cs_minus_s,,,,,0,0,0,0,,,,,,,,,4,6,70,4,,,,,,,,,,,,,,,,,,,,,2114.0089532999555,265,reward,1,0.9518081999849528,0.9587773999664932,2114.9741851999424,,,,,,,,35,B,2023-12-18_08h49.33.486,gca_avoidance_task,2022.2.4,144.06440274582133,
positions.xlsx,stimuli.xlsx,stimuli/Social2.png,stimuli/Social1.png,stimuli/Nonsocial1.png,stimuli/Nonsocial2.png,,"(0.7, -0.5)",cs_plus_ns,,,,,0,0,0,0,,,,,,,,,4,7,71,11,,,,,,,,,,,,,,,,,,,,,2124.161311600008,265,none,0,,,2129.168051399989,,,,,,,,35,B,2023-12-18_08h49.33.486,gca_avoidance_task,2022.2.4,144.06440274582133,
positions.xlsx,stimuli.xlsx,stimuli/Social2.png,stimuli/Social1.png,stimuli/Nonsocial1.png,stimuli/Nonsocial2.png,,"(0.7, -0.5)",cs_minus_s,,,,,0,0,0,0,,,,,,,,,4,8,72,7,,,,,,,,,,,,,,,,,,,,,2138.9801733999047,270,reward,1,0.6110752000240609,0.6110789000522345,2139.598235399928,,,,,,,,35,B,2023-12-18_08h49.33.486,gca_avoidance_task,2022.2.4,144.06440274582133,
positions.xlsx,stimuli.xlsx,stimuli/Social2.png,stimuli/Social1.png,stimuli/Nonsocial1.png,stimuli/Nonsocial2.png,,"(-0.7, -0.5)",cs_plus_s,,,,,0,0,0,0,,,,,,,,,4,9,73,1,,,,,,,,,,,,,,,,,,,,,2148.9728321000002,270,none,0,,,2153.9795850999653,,,,,,,,35,B,2023-12-18_08h49.33.486,gca_avoidance_task,2022.2.4,144.06440274582133,
positions.xlsx,stimuli.xlsx,stimuli/Social2.png,stimuli/Social1.png,stimuli/Nonsocial1.png,stimuli/Nonsocial2.png,,"(0.7, -0.5)",cs_plus_s,,,,,0,0,0,0,,,,,,,,,4,10,74,3,,,,,,,,,,,,,,,,,,,,,2163.7500555999577,270,none,0,,,2168.7567659999477,,,,,,,,35,B,2023-12-18_08h49.33.486,gca_avoidance_task,2022.2.4,144.06440274582133,
positions.xlsx,stimuli.xlsx,stimuli/Social2.png,stimuli/Social1.png,stimuli/Nonsocial1.png,stimuli/Nonsocial2.png,,"(0.7, 0.5)",cs_minus_ns,,,,,0,0,0,0,,,,,,,,,4,11,75,14,,,,,,,,,,,,,,,,,,,,,2177.5064361999976,275,reward,1,0.7220808001002297,0.7220846000127494,2178.2356072999537,,,,,,,,35,B,2023-12-18_08h49.33.486,gca_avoidance_task,2022.2.4,144.06440274582133,
positions.xlsx,stimuli.xlsx,stimuli/Social2.png,stimuli/Social1.png,stimuli/Nonsocial1.png,stimuli/Nonsocial2.png,,"(0.7, 0.5)",cs_plus_s,,,,,0,0,0,0,,,,,,,,,4,12,76,2,,,,,,,,,,,,,,,,,,,,,2187.9157631999115,275,shock,1,0.1808219999074936,0.1877276999875903,2188.1101898999186,,,,,,,,35,B,2023-12-18_08h49.33.486,gca_avoidance_task,2022.2.4,144.06440274582133,
positions.xlsx,stimuli.xlsx,stimuli/Social2.png,stimuli/Social1.png,stimuli/Nonsocial1.png,stimuli/Nonsocial2.png,,"(-0.7, 0.5)",cs_plus_s,,,,,0,0,0,0,,,,,,,,,4,13,77,0,,,,,,,,,,,,,,,,,,,,,2197.137596399989,275,none,0,,,2202.1443645999534,,,,,,,,35,B,2023-12-18_08h49.33.486,gca_avoidance_task,2022.2.4,144.06440274582133,
positions.xlsx,stimuli.xlsx,stimuli/Social2.png,stimuli/Social1.png,stimuli/Nonsocial1.png,stimuli/Nonsocial2.png,,"(-0.7, 0.5)",cs_minus_ns,,,,,0,0,0,0,,,,,,,,,4,14,78,12,,,,,,,,,,,,,,,,,,,,,2211.782871800009,280,reward,1,1.1389534999616444,1.1389574999921024,2212.9286559999455,,,,,,,,35,B,2023-12-18_08h49.33.486,gca_avoidance_task,2022.2.4,144.06440274582133,
positions.xlsx,stimuli.xlsx,stimuli/Social2.png,stimuli/Social1.png,stimuli/Nonsocial1.png,stimuli/Nonsocial2.png,,"(-0.7, -0.5)",cs_plus_ns,,,,,0,0,0,0,,,,,,,,,4,15,79,9,,,,,,,,,,,,,,,,,,,,,2222.9421392999357,280,none,0,,,2227.9489173999755,,,,,,,,35,B,2023-12-18_08h49.33.486,gca_avoidance_task,2022.2.4,144.06440274582133,
positions.xlsx,stimuli.xlsx,stimuli/Social2.png,stimuli/Social1.png,stimuli/Nonsocial1.png,stimuli/Nonsocial2.png,cs_minus_s,,,,,,,0,0,0,0,,,,,,,,,,,,,0,0,0,2,,,,,,,,,,,,,2243.0872022999683,9.0,3.406447899993509,,,,,,,,,5.0,5.278117700014263,,,,,,35,B,2023-12-18_08h49.33.486,gca_avoidance_task,2022.2.4,144.06440274582133,
positions.xlsx,stimuli.xlsx,stimuli/Social2.png,stimuli/Social1.png,stimuli/Nonsocial1.png,stimuli/Nonsocial2.png,cs_plus_s,,,,,,,0,0,0,0,,,,,,,,,,,,,0,1,1,0,,,,,,,,,,,,,2248.5870052999817,3.0,2.451606299960986,,,,,,,,,,,,,,,,35,B,2023-12-18_08h49.33.486,gca_avoidance_task,2022.2.4,144.06440274582133,
positions.xlsx,stimuli.xlsx,stimuli/Social2.png,stimuli/Social1.png,stimuli/Nonsocial1.png,stimuli/Nonsocial2.png,cs_plus_ns,,,,,,,0,0,0,0,,,,,,,,,,,,,0,2,2,1,,,,,,,,,,,,,2252.059059399995,3.0,1.6327097000321373,,,,,,,,,,,,,,,,35,B,2023-12-18_08h49.33.486,gca_avoidance_task,2022.2.4,144.06440274582133,
positions.xlsx,stimuli.xlsx,stimuli/Social2.png,stimuli/Social1.png,stimuli/Nonsocial1.png,stimuli/Nonsocial2.png,cs_minus_ns,,,,,,,0,0,0,0,,,,,,,,,,,,,0,3,3,3,,,,,,,,,,,,,2254.6561954999343,8.0,1.799070999957621,,,,,,,,,,,,,,,,35,B,2023-12-18_08h49.33.486,gca_avoidance_task,2022.2.4,144.06440274582133,
positions.xlsx,stimuli.xlsx,stimuli/Social2.png,stimuli/Social1.png,stimuli/Nonsocial1.png,stimuli/Nonsocial2.png,cs_plus_s,,,,,,,0,0,0,0,,,,,,,,,,,,,,,,,0,0,0,0,,,,,,,,,,,,,,,,,,,,,,2257.4408267999534,2262.02394809993,3,0.021835300023667514,0.11106509994715452,35,B,2023-12-18_08h49.33.486,gca_avoidance_task,2022.2.4,144.06440274582133,
positions.xlsx,stimuli.xlsx,stimuli/Social2.png,stimuli/Social1.png,stimuli/Nonsocial1.png,stimuli/Nonsocial2.png,cs_minus_ns,,,,,,,0,0,0,0,,,,,,,,,,,,,,,,,0,1,1,3,,,,,,,,,,,,,,,,,,,,,,,2276.565047699958,2,0.014256599941290915,2.409725199919194,35,B,2023-12-18_08h49.33.486,gca_avoidance_task,2022.2.4,144.06440274582133,
positions.xlsx,stimuli.xlsx,stimuli/Social2.png,stimuli/Social1.png,stimuli/Nonsocial1.png,stimuli/Nonsocial2.png,cs_minus_s,,,,,,,0,0,0,0,,,,,,,,,,,,,,,,,0,2,2,2,,,,,,,,,,,,,,,,,,,,,,,2291.231141499942,2,0.01387649995740503,4.736249099951237,35,B,2023-12-18_08h49.33.486,gca_avoidance_task,2022.2.4,144.06440274582133,
positions.xlsx,stimuli.xlsx,stimuli/Social2.png,stimuli/Social1.png,stimuli/Nonsocial1.png,stimuli/Nonsocial2.png,cs_plus_ns,,,,,,,0,0,0,0,,,,,,,,,,,,,,,,,0,3,3,1,,,,,,,,,,,,,,,,,,,,,,,2305.980627699988,3,0.015547699993476272,6.007097200024873,35,B,2023-12-18_08h49.33.486,gca_avoidance_task,2022.2.4,144.06440274582133,
positions.xlsx,stimuli.xlsx,stimuli/Social2.png,stimuli/Social1.png,stimuli/Nonsocial1.png,stimuli/Nonsocial2.png,cs_plus_s,,,,,,,0,0,0,0,,,,,,,,,,,,,,,,,1,0,4,0,,,,,,,,,,,,,,,,,,,,,,,2320.8550105999457,6,0.013374099973589182,0.8195942000020295,35,B,2023-12-18_08h49.33.486,gca_avoidance_task,2022.2.4,144.06440274582133,
positions.xlsx,stimuli.xlsx,stimuli/Social2.png,stimuli/Social1.png,stimuli/Nonsocial1.png,stimuli/Nonsocial2.png,cs_plus_ns,,,,,,,0,0,0,0,,,,,,,,,,,,,,,,,1,1,5,1,,,,,,,,,,,,,,,,,,,,,,,2335.6460518999957,5,0.014063100097700953,7.069635400082916,35,B,2023-12-18_08h49.33.486,gca_avoidance_task,2022.2.4,144.06440274582133,
positions.xlsx,stimuli.xlsx,stimuli/Social2.png,stimuli/Social1.png,stimuli/Nonsocial1.png,stimuli/Nonsocial2.png,cs_minus_s,,,,,,,0,0,0,0,,,,,,,,,,,,,,,,,1,2,6,2,,,,,,,,,,,,,,,,,,,,,,,2350.263575299992,3,0.013276300043798983,0.08368360006716102,35,B,2023-12-18_08h49.33.486,gca_avoidance_task,2022.2.4,144.06440274582133,
positions.xlsx,stimuli.xlsx,stimuli/Social2.png,stimuli/Social1.png,stimuli/Nonsocial1.png,stimuli/Nonsocial2.png,cs_minus_ns,,,,,,,0,0,0,0,,,,,,,,,,,,,,,,,1,3,7,3,,,,,,,,,,,,,,,,,,,,,,,2365.353250199929,4,0.014709800016134977,1.7919763999525458,35,B,2023-12-18_08h49.33.486,gca_avoidance_task,2022.2.4,144.06440274582133,
positions.xlsx,stimuli.xlsx,stimuli/Social2.png,stimuli/Social1.png,stimuli/Nonsocial1.png,stimuli/Nonsocial2.png,cs_minus_ns,,,,,,,0,0,0,0,,,,,,,,,,,,,,,,,2,0,8,3,,,,,,,,,,,,,,,,,,,,,,,2380.7415111999726,4,0.014063200098462403,2.847503900062293,35,B,2023-12-18_08h49.33.486,gca_avoidance_task,2022.2.4,144.06440274582133,
positions.xlsx,stimuli.xlsx,stimuli/Social2.png,stimuli/Social1.png,stimuli/Nonsocial1.png,stimuli/Nonsocial2.png,cs_plus_ns,,,,,,,0,0,0,0,,,,,,,,,,,,,,,,,2,1,9,1,,,,,,,,,,,,,,,,,,,,,,,2395.8451054999605,2,0.013926099985837936,3.111178799998015,35,B,2023-12-18_08h49.33.486,gca_avoidance_task,2022.2.4,144.06440274582133,
positions.xlsx,stimuli.xlsx,stimuli/Social2.png,stimuli/Social1.png,stimuli/Nonsocial1.png,stimuli/Nonsocial2.png,cs_plus_s,,,,,,,0,0,0,0,,,,,,,,,,,,,,,,,2,2,10,0,,,,,,,,,,,,,,,,,,,,,,,2410.7611686999444,1,0.013505599927157164,9.999930999940261,35,B,2023-12-18_08h49.33.486,gca_avoidance_task,2022.2.4,144.06440274582133,
positions.xlsx,stimuli.xlsx,stimuli/Social2.png,stimuli/Social1.png,stimuli/Nonsocial1.png,stimuli/Nonsocial2.png,cs_minus_s,,,,,,,0,0,0,0,,,,,,,,,,,,,,,,,2,3,11,2,,,,,,,,,,,,,,,,,,,,,,,2425.378668499994,2,0.014427700079977512,0.6876910000573844,35,B,2023-12-18_08h49.33.486,gca_avoidance_task,2022.2.4,144.06440274582133,
positions.xlsx,stimuli.xlsx,stimuli/Social2.png,stimuli/Social1.png,stimuli/Nonsocial1.png,stimuli/Nonsocial2.png,cs_minus_ns,,,,,,,0,0,0,0,,,,,,,,,,,,,,,,,3,0,12,3,,,,,,,,,,,,,,,,,,,,,,,2440.4752672999166,3,0.25729039998259395,1.9933874999405816,35,B,2023-12-18_08h49.33.486,gca_avoidance_task,2022.2.4,144.06440274582133,
positions.xlsx,stimuli.xlsx,stimuli/Social2.png,stimuli/Social1.png,stimuli/Nonsocial1.png,stimuli/Nonsocial2.png,cs_plus_ns,,,,,,,0,0,0,0,,,,,,,,,,,,,,,,,3,1,13,1,,,,,,,,,,,,,,,,,,,,,,,2455.474672399927,9,0.015071699977852404,0.6391002000309527,35,B,2023-12-18_08h49.33.486,gca_avoidance_task,2022.2.4,144.06440274582133,
positions.xlsx,stimuli.xlsx,stimuli/Social2.png,stimuli/Social1.png,stimuli/Nonsocial1.png,stimuli/Nonsocial2.png,cs_minus_s,,,,,,,0,0,0,0,,,,,,,,,,,,,,,,,3,2,14,2,,,,,,,,,,,,,,,,,,,,,,,2470.349106599926,5,0.013603399973362684,5.250212399987504,35,B,2023-12-18_08h49.33.486,gca_avoidance_task,2022.2.4,144.06440274582133,
positions.xlsx,stimuli.xlsx,stimuli/Social2.png,stimuli/Social1.png,stimuli/Nonsocial1.png,stimuli/Nonsocial2.png,cs_plus_s,,,,,,,0,0,0,0,,,,,,,,,,,,,,,,,3,3,15,0,,,,,,,,,,,,,,,,,,,,,,,2485.0846413999097,1,0.013701500021852553,10.000391399953514,35,B,2023-12-18_08h49.33.486,gca_avoidance_task,2022.2.4,144.06440274582133,
positions.xlsx,stimuli.xlsx,stimuli/Social2.png,stimuli/Social1.png,stimuli/Nonsocial1.png,stimuli/Nonsocial2.png,cs_minus_ns,,,,,,,0,0,0,0,,,,,,,,,,,,,,,,,4,0,16,3,,,,,,,,,,,,,,,,,,,,,,,2499.9312824999215,9,0.013862599967978895,0.7641496999422088,35,B,2023-12-18_08h49.33.486,gca_avoidance_task,2022.2.4,144.06440274582133,
positions.xlsx,stimuli.xlsx,stimuli/Social2.png,stimuli/Social1.png,stimuli/Nonsocial1.png,stimuli/Nonsocial2.png,cs_plus_s,,,,,,,0,0,0,0,,,,,,,,,,,,,,,,,4,1,17,0,,,,,,,,,,,,,,,,,,,,,,,2514.993154799915,3,0.01385460002347827,4.160006899968721,35,B,2023-12-18_08h49.33.486,gca_avoidance_task,2022.2.4,144.06440274582133,
positions.xlsx,stimuli.xlsx,stimuli/Social2.png,stimuli/Social1.png,stimuli/Nonsocial1.png,stimuli/Nonsocial2.png,cs_minus_s,,,,,,,0,0,0,0,,,,,,,,,,,,,,,,,4,2,18,2,,,,,,,,,,,,,,,,,,,,,,,2529.853717299993,1,0.38224529998842627,9.999919799971394,35,B,2023-12-18_08h49.33.486,gca_avoidance_task,2022.2.4,144.06440274582133,
positions.xlsx,stimuli.xlsx,stimuli/Social2.png,stimuli/Social1.png,stimuli/Nonsocial1.png,stimuli/Nonsocial2.png,cs_plus_ns,,,,,,,0,0,0,0,,,,,,,,,,,,,,,,,4,3,19,1,,,,,,,,,,,,,,,,,,,,,,,2545.318360699923,1,0.01423680002335459,8.048459799960256,35,B,2023-12-18_08h49.33.486,gca_avoidance_task,2022.2.4,144.06440274582133,
positions.xlsx,stimuli.xlsx,stimuli/Social2.png,stimuli/Social1.png,stimuli/Nonsocial1.png,stimuli/Nonsocial2.png,cs_minus_ns,,,,,,,0,0,0,0,,,,,,,,,,,,,,,,,5,0,20,3,,,,,,,,,,,,,,,,,,,,,,,2560.2066438999027,3,0.13934350002091378,5.597386799985543,35,B,2023-12-18_08h49.33.486,gca_avoidance_task,2022.2.4,144.06440274582133,
positions.xlsx,stimuli.xlsx,stimuli/Social2.png,stimuli/Social1.png,stimuli/Nonsocial1.png,stimuli/Nonsocial2.png,cs_plus_s,,,,,,,0,0,0,0,,,,,,,,,,,,,,,,,5,1,21,0,,,,,,,,,,,,,,,,,,,,,,,2574.9491324999835,1,0.013575499993748963,9.999978100066073,35,B,2023-12-18_08h49.33.486,gca_avoidance_task,2022.2.4,144.06440274582133,
positions.xlsx,stimuli.xlsx,stimuli/Social2.png,stimuli/Social1.png,stimuli/Nonsocial1.png,stimuli/Nonsocial2.png,cs_plus_ns,,,,,,,0,0,0,0,,,,,,,,,,,,,,,,,5,2,22,1,,,,,,,,,,,,,,,,,,,,,,,2589.7055050999625,4,0.014147199923172593,7.423429299960844,35,B,2023-12-18_08h49.33.486,gca_avoidance_task,2022.2.4,144.06440274582133,
positions.xlsx,stimuli.xlsx,stimuli/Social2.png,stimuli/Social1.png,stimuli/Nonsocial1.png,stimuli/Nonsocial2.png,cs_minus_s,,,,,,,0,0,0,0,,,,,,,,,,,,,,,,,5,3,23,2,,,,,,,,,,,,,,,,,,,,,,,2604.93405349995,2,0.013943900004960597,0.4444770000409335,35,B,2023-12-18_08h49.33.486,gca_avoidance_task,2022.2.4,144.06440274582133,
positions.xlsx,stimuli.xlsx,stimuli/Social2.png,stimuli/Social1.png,stimuli/Nonsocial1.png,stimuli/Nonsocial2.png,cs_plus_s,,,,,,,0,0,0,0,,,,,,,,,,,,,,,,,6,0,24,0,,,,,,,,,,,,,,,,,,,,,,,2620.273733299924,2,0.01406630000565201,8.604221299989149,35,B,2023-12-18_08h49.33.486,gca_avoidance_task,2022.2.4,144.06440274582133,
positions.xlsx,stimuli.xlsx,stimuli/Social2.png,stimuli/Social1.png,stimuli/Nonsocial1.png,stimuli/Nonsocial2.png,cs_minus_ns,,,,,,,0,0,0,0,,,,,,,,,,,,,,,,,6,1,25,3,,,,,,,,,,,,,,,,,,,,,,,2634.807893099962,2,0.14630949997808784,1.2780723000178114,35,B,2023-12-18_08h49.33.486,gca_avoidance_task,2022.2.4,144.06440274582133,
positions.xlsx,stimuli.xlsx,stimuli/Social2.png,stimuli/Social1.png,stimuli/Nonsocial1.png,stimuli/Nonsocial2.png,cs_plus_ns,,,,,,,0,0,0,0,,,,,,,,,,,,,,,,,6,2,26,1,,,,,,,,,,,,,,,,,,,,,,,2649.4254007999552,2,0.015172099927440286,4.611308299936354,35,B,2023-12-18_08h49.33.486,gca_avoidance_task,2022.2.4,144.06440274582133,
positions.xlsx,stimuli.xlsx,stimuli/Social2.png,stimuli/Social1.png,stimuli/Nonsocial1.png,stimuli/Nonsocial2.png,cs_minus_s,,,,,,,0,0,0,0,,,,,,,,,,,,,,,,,6,3,27,2,,,,,,,,,,,,,,,,,,,,,,,2664.063702699961,2,0.013218499952927232,4.847282100003213,35,B,2023-12-18_08h49.33.486,gca_avoidance_task,2022.2.4,144.06440274582133,
positions.xlsx,stimuli.xlsx,stimuli/Social2.png,stimuli/Social1.png,stimuli/Nonsocial1.png,stimuli/Nonsocial2.png,cs_minus_ns,,,,,,,0,0,0,0,,,,,,,,,,,,,,,,,7,0,28,3,,,,,,,,,,,,,,,,,,,,,,,2679.1533719999716,2,2.701821899972856,2.7433614999754354,35,B,2023-12-18_08h49.33.486,gca_avoidance_task,2022.2.4,144.06440274582133,
positions.xlsx,stimuli.xlsx,stimuli/Social2.png,stimuli/Social1.png,stimuli/Nonsocial1.png,stimuli/Nonsocial2.png,cs_plus_s,,,,,,,0,0,0,0,,,,,,,,,,,,,,,,,7,1,29,0,,,,,,,,,,,,,,,,,,,,,,,2694.166656999965,5,0.013464400079101324,0.7293197000399232,35,B,2023-12-18_08h49.33.486,gca_avoidance_task,2022.2.4,144.06440274582133,
positions.xlsx,stimuli.xlsx,stimuli/Social2.png,stimuli/Social1.png,stimuli/Nonsocial1.png,stimuli/Nonsocial2.png,cs_minus_s,,,,,,,0,0,0,0,,,,,,,,,,,,,,,,,7,2,30,2,,,,,,,,,,,,,,,,,,,,,,,2709.3466102000093,3,0.013724800082854927,1.4794924000743777,35,B,2023-12-18_08h49.33.486,gca_avoidance_task,2022.2.4,144.06440274582133,
positions.xlsx,stimuli.xlsx,stimuli/Social2.png,stimuli/Social1.png,stimuli/Nonsocial1.png,stimuli/Nonsocial2.png,cs_plus_ns,,,,,,,0,0,0,0,,,,,,,,,,,,,,,,,7,3,31,1,,,,,,,,,,,,,,,,,,,,,,,2724.7557499000104,7,0.01450489996932447,0.6184315000427887,35,B,2023-12-18_08h49.33.486,gca_avoidance_task,2022.2.4,144.06440274582133,
positions.xlsx,stimuli.xlsx,stimuli/Social2.png,stimuli/Social1.png,stimuli/Nonsocial1.png,stimuli/Nonsocial2.png,cs_plus_s,,,,,,,0,0,0,0,,,,,,,,,,,,,,,,,8,0,32,0,,,,,,,,,,,,,,,,,,,,,,,2740.2134674999397,4,3.403151100035757,3.417005200055428,35,B,2023-12-18_08h49.33.486,gca_avoidance_task,2022.2.4,144.06440274582133,
positions.xlsx,stimuli.xlsx,stimuli/Social2.png,stimuli/Social1.png,stimuli/Nonsocial1.png,stimuli/Nonsocial2.png,cs_minus_s,,,,,,,0,0,0,0,,,,,,,,,,,,,,,,,8,1,33,2,,,,,,,,,,,,,,,,,,,,,,,2755.6226128999842,2,0.5560151999816298,2.2641390999779105,35,B,2023-12-18_08h49.33.486,gca_avoidance_task,2022.2.4,144.06440274582133,
positions.xlsx,stimuli.xlsx,stimuli/Social2.png,stimuli/Social1.png,stimuli/Nonsocial1.png,stimuli/Nonsocial2.png,cs_plus_ns,,,,,,,0,0,0,0,,,,,,,,,,,,,,,,,8,2,34,1,,,,,,,,,,,,,,,,,,,,,,,2770.9622651999816,2,0.014188100001774728,0.5905929000582546,35,B,2023-12-18_08h49.33.486,gca_avoidance_task,2022.2.4,144.06440274582133,
positions.xlsx,stimuli.xlsx,stimuli/Social2.png,stimuli/Social1.png,stimuli/Nonsocial1.png,stimuli/Nonsocial2.png,cs_minus_ns,,,,,,,0,0,0,0,,,,,,,,,,,,,,,,,8,3,35,3,,,,,,,,,,,,,,,,,,,,,,,2785.9408723999513,2,0.014156199991703033,1.8543639000272378,35,B,2023-12-18_08h49.33.486,gca_avoidance_task,2022.2.4,144.06440274582133,
positions.xlsx,stimuli.xlsx,stimuli/Social2.png,stimuli/Social1.png,stimuli/Nonsocial1.png,stimuli/Nonsocial2.png,cs_minus_ns,,,,,,,0,0,0,0,,,,,,,,,,,,,,,,,9,0,36,3,,,,,,,,,,,,,,,,,,,,,,,2801.21104319999,10,0.014059799956157804,1.6044872999191284,35,B,2023-12-18_08h49.33.486,gca_avoidance_task,2022.2.4,144.06440274582133,
positions.xlsx,stimuli.xlsx,stimuli/Social2.png,stimuli/Social1.png,stimuli/Nonsocial1.png,stimuli/Nonsocial2.png,cs_minus_s,,,,,,,0,0,0,0,,,,,,,,,,,,,,,,,9,1,37,2,,,,,,,,,,,,,,,,,,,,,,,2816.536868499941,3,0.014000199967995286,0.7642652000067756,35,B,2023-12-18_08h49.33.486,gca_avoidance_task,2022.2.4,144.06440274582133,
positions.xlsx,stimuli.xlsx,stimuli/Social2.png,stimuli/Social1.png,stimuli/Nonsocial1.png,stimuli/Nonsocial2.png,cs_plus_s,,,,,,,0,0,0,0,,,,,,,,,,,,,,,,,9,2,38,0,,,,,,,,,,,,,,,,,,,,,,,2831.834867400001,1,2.792058699997142,9.888853000011295,35,B,2023-12-18_08h49.33.486,gca_avoidance_task,2022.2.4,144.06440274582133,
positions.xlsx,stimuli.xlsx,stimuli/Social2.png,stimuli/Social1.png,stimuli/Nonsocial1.png,stimuli/Nonsocial2.png,cs_plus_ns,,,,,,,0,0,0,0,,,,,,,,,,,,,,,,,9,3,39,1,,,,,,,,,,,,,,,,,,,,,,,2847.271761699929,2,0.015190400066785514,3.1252993000671268,35,B,2023-12-18_08h49.33.486,gca_avoidance_task,2022.2.4,144.06440274582133,
positions.xlsx,stimuli.xlsx,stimuli/Social2.png,stimuli/Social1.png,stimuli/Nonsocial1.png,stimuli/Nonsocial2.png,cs_minus_ns,,,,,,,0,0,0,0,,,,,,,,,,,,,,,,,,,,,0,0,0,3,,,,,2861.36841929995,9.0,3.746586099965498,,,,,,,,,,,,,,,,35,B,2023-12-18_08h49.33.486,gca_avoidance_task,2022.2.4,144.06440274582133,
positions.xlsx,stimuli.xlsx,stimuli/Social2.png,stimuli/Social1.png,stimuli/Nonsocial1.png,stimuli/Nonsocial2.png,cs_plus_s,,,,,,,0,0,0,0,,,,,,,,,,,,,,,,,,,,,0,1,1,0,,,,,2866.61828039994,4.0,3.2369668000610545,,,,,,,,,,,,,,,,35,B,2023-12-18_08h49.33.486,gca_avoidance_task,2022.2.4,144.06440274582133,
positions.xlsx,stimuli.xlsx,stimuli/Social2.png,stimuli/Social1.png,stimuli/Nonsocial1.png,stimuli/Nonsocial2.png,cs_minus_s,,,,,,,0,0,0,0,,,,,,,,,,,,,,,,,,,,,0,2,2,2,,,,,2870.916684399941,8.0,1.7787986000766978,,,,,,,,,,,,,,,,35,B,2023-12-18_08h49.33.486,gca_avoidance_task,2022.2.4,144.06440274582133,
positions.xlsx,stimuli.xlsx,stimuli/Social2.png,stimuli/Social1.png,stimuli/Nonsocial1.png,stimuli/Nonsocial2.png,cs_plus_ns,,,,,,,0,0,0,0,,,,,,,,,,,,,,,,,,,,,0,3,3,1,,,,,2873.604072399903,4.0,1.9170186999253929,,,,,,,,,,,,,,,,35,B,2023-12-18_08h49.33.486,gca_avoidance_task,2022.2.4,144.06440274582133,
