posFile,stimFile,cs_plus_s,cs_minus_s,cs_plus_ns,cs_minus_ns,stimtype,position,trialtype,trials_threshold.thisRepN,trials_threshold.thisTrialN,trials_threshold.thisN,trials_threshold.thisIndex,blocks.thisRepN,blocks.thisTrialN,blocks.thisN,blocks.thisIndex,ratingtrials1.thisRepN,ratingtrials1.thisTrialN,ratingtrials1.thisN,ratingtrials1.thisIndex,learning_trials.thisRepN,learning_trials.thisTrialN,learning_trials.thisN,learning_trials.thisIndex,trials.thisRepN,trials.thisTrialN,trials.thisN,trials.thisIndex,ratingtrials2.thisRepN,ratingtrials2.thisTrialN,ratingtrials2.thisN,ratingtrials2.thisIndex,testtrials.thisRepN,testtrials.thisTrialN,testtrials.thisN,testtrials.thisIndex,ratingtrials3.thisRepN,ratingtrials3.thisTrialN,ratingtrials3.thisN,ratingtrials3.thisIndex,textStart.started,spaceStart.started,spaceStart.keys,spaceStart.rt,textPainThreshold.started,spacePainThreshold.started,spacePainThreshold.keys,spacePainThreshold.rt,textRateT.started,text_noPainT.started,text_slightPainT.started,text_highPainT.started,sliderPainT.started,keys_PainT.started,sliderPainT.response,sliderPainT.rt,keys_PainT.keys,keys_PainT.rt,fixcrossT.started,portShock1T.started,portShock1T.stopped,portShock2T.started,portShock2T.stopped,portShock3T.started,portShock3T.stopped,fixcrossT.stopped,text_ETCalibration.started,spaceETCalibration.started,spaceETCalibration.keys,spaceETCalibration.rt,textStartExp.started,spaceStartExp.started,spaceStartExp.keys,spaceStartExp.rt,imageRating.started,sliderStim.started,spaceStim.started,sliderStim.response,sliderStim.rt,spaceStim.keys,spaceStim.rt,textStartTask.started,spaceStartTask.started,spaceStartTask.keys,spaceStartTask.rt,blankScreen.started,blankScreen.stopped,fixcross.started,image.started,roi.started,gazeCursor.started,portImage.started,portImage.stopped,score,outcome,roi.numLooks,roi.timesOn,roi.timesOff,imageFeedback.started,gazeCursor_Feedback.started,soundFeedback.started,portShock1.started,portShock1.stopped,portShock2.started,portShock2.stopped,portShock3.started,portShock3.stopped,soundFeedback.stopped,fixcrossE.started,fixcrossE.stopped,textRepeatTask.started,textboxRepeatInstruction.started,textRepeatSpace.started,spaceRepeatTask.started,spaceRepeatTask.keys,spaceRepeatTask.rt,textRate.started,text_noPain.started,text_slightPain.started,text_highPain.started,sliderPain.started,textSpacePain.started,spacePain.started,sliderPain.response,sliderPain.rt,spacePain.keys,spacePain.rt,textTestInstr.started,spaceTestInstr.started,spaceTestInstr.keys,spaceTestInstr.rt,imageTest.started,roiTest.started,portTestImage.started,portTestImage.stopped,roiTest.numLooks,roiTest.timesOn,roiTest.timesOff,participant,group,date,expName,psychopyVersion,frameRate,
,,,,,,,,,,,,,,,,,,,,,,,,,,,,,,,,,,,,,,,,,16.78181160002714,16.78181160002714,space,3.2082661000313237,,,,,,,,,,,,,,,,,,,,,,,,,,,,,,,,,,,,,,,,,,,,,,,,,,,,,,,,,,,,,,,,,,,,,,,,,,,,,,,,,,,,,,,,,,,,,,,17,B,2023-12-11_10h14.00.000,gca_avoidance_task,2022.2.4,143.9283812417329,
,,,,,,,,,,,,,,,,,,,,,,,,,,,,,,,,,,,,,,,,,,,,,19.996912900009193,19.996912900009193,space,1.0342599999858066,,,,,,,,,,,,,,,,,,,,,,,,,,,,,,,,,,,,,,,,,,,,,,,,,,,,,,,,,,,,,,,,,,,,,,,,,,,,,,,,,,,,,,,,,,,17,B,2023-12-11_10h14.00.000,gca_avoidance_task,2022.2.4,143.9283812417329,
,,,,,,,,,0,0,0,0,,,,,,,,,,,,,,,,,,,,,,,,,,,,,,,,,,,,,22.246856299985666,22.246856299985666,22.246856299985666,22.246856299985666,22.246856299985666,22.246856299985666,None,None,s,7.903641099983361,30.74650529999053,0.10393089998979121,0.11086609994526953,0.1525188999949023,0.15949989994987845,0.20112339995102957,0.2080996999866329,31.5033918999834,,,,,,,,,,,,,,,,,,,,,,,,,,,,,,,,,,,,,,,,,,,,,,,,,,,,,,,,,,,,,,,,,,,,,,,,,17,B,2023-12-11_10h14.00.000,gca_avoidance_task,2022.2.4,143.9283812417329,
,,,,,,,,,1,0,1,0,,,,,,,,,,,,,,,,,,,,,,,,,,,,,,,,,,,,,31.5033918999834,31.5033918999834,31.5033918999834,31.5033918999834,31.5033918999834,31.5033918999834,0.0,15.445694399997592,s,20.319377399981022,52.57201669999631,0.10305980005068704,0.10999340005218983,0.15164260001620278,0.1585973000037484,0.2002587000024505,0.20720950001850724,53.328919299994595,,,,,,,,,,,,,,,,,,,,,,,,,,,,,,,,,,,,,,,,,,,,,,,,,,,,,,,,,,,,,,,,,,,,,,,,,17,B,2023-12-11_10h14.00.000,gca_avoidance_task,2022.2.4,143.9283812417329,
,,,,,,,,,2,0,2,0,,,,,,,,,,,,,,,,,,,,,,,,,,,,,,,,,,,,,53.328919299994595,53.328919299994595,53.328919299994595,53.328919299994595,53.328919299994595,53.328919299994595,0.0,3.7976066999835894,s,9.98110870004166,63.821632600040175,0.10060110001359135,0.10758529999293387,0.14924709999468178,0.1562244000378996,0.20482340001035482,0.2117205000249669,64.57849119999446,,,,,,,,,,,,,,,,,,,,,,,,,,,,,,,,,,,,,,,,,,,,,,,,,,,,,,,,,,,,,,,,,,,,,,,,,17,B,2023-12-11_10h14.00.000,gca_avoidance_task,2022.2.4,143.9283812417329,
,,,,,,,,,3,0,3,0,,,,,,,,,,,,,,,,,,,,,,,,,,,,,,,,,,,,,64.57849119999446,64.57849119999446,64.57849119999446,64.57849119999446,64.57849119999446,64.57849119999446,1.0,2.5299058000091463,s,7.660594700020738,72.90455919998931,0.10333310003625229,0.11030880000907928,0.15191400004550815,0.15888420003466308,0.20051799999782816,0.20745440002065152,73.66144120000536,,,,,,,,,,,,,,,,,,,,,,,,,,,,,,,,,,,,,,,,,,,,,,,,,,,,,,,,,,,,,,,,,,,,,,,,,17,B,2023-12-11_10h14.00.000,gca_avoidance_task,2022.2.4,143.9283812417329,
,,,,,,,,,4,0,4,0,,,,,,,,,,,,,,,,,,,,,,,,,,,,,,,,,,,,,73.66144120000536,73.66144120000536,73.66144120000536,73.66144120000536,73.66144120000536,73.66144120000536,2.0,2.088581200048793,s,4.472576700034551,78.6404244999867,0.10236560000339523,0.10931949998484924,0.15094080002745613,0.157925300009083,0.19959680002648383,0.20656459999736398,79.39732869999716,,,,,,,,,,,,,,,,,,,,,,,,,,,,,,,,,,,,,,,,,,,,,,,,,,,,,,,,,,,,,,,,,,,,,,,,,17,B,2023-12-11_10h14.00.000,gca_avoidance_task,2022.2.4,143.9283812417329,
,,,,,,,,,5,0,5,0,,,,,,,,,,,,,,,,,,,,,,,,,,,,,,,,,,,,,79.39732869999716,79.39732869999716,79.39732869999716,79.39732869999716,79.39732869999716,79.39732869999716,3.0,1.8281653999583796,s,5.321535199997015,85.22348009998677,0.10336250002728775,0.11034810001729056,0.15199759998358786,0.15890520001994446,0.20058479998260736,0.20751699997344986,86.10538120003184,,,,,,,,,,,,,,,,,,,,,,,,,,,,,,,,,,,,,,,,,,,,,,,,,,,,,,,,,,,,,,,,,,,,,,,,,17,B,2023-12-11_10h14.00.000,gca_avoidance_task,2022.2.4,143.9283812417329,
,,,,,,,,,6,0,6,0,,,,,,,,,,,,,,,,,,,,,,,,,,,,,,,,,,,,,86.10538120003184,86.10538120003184,86.10538120003184,86.10538120003184,86.10538120003184,86.10538120003184,5.0,1.488276899966877,s,6.685110500024166,93.41062730003614,0.1026920999865979,0.10964340000646189,0.15125589998206124,0.15822510002180934,0.19987620000028983,0.20686999999452382,94.16758800001116,,,,,,,,,,,,,,,,,,,,,,,,,,,,,,,,,,,,,,,,,,,,,,,,,,,,,,,,,,,,,,,,,,,,,,,,,17,B,2023-12-11_10h14.00.000,gca_avoidance_task,2022.2.4,143.9283812417329,
,,,,,,,,,7,0,7,0,,,,,,,,,,,,,,,,,,,,,,,,,,,,,,,,,,,,,94.16758800001116,94.16758800001116,94.16758800001116,94.16758800001116,94.16758800001116,94.16758800001116,5.0,2.6953857999760658,s,7.719151600031182,102.38944589998573,0.10269600001629442,0.1096601000172086,0.15128809999441728,0.15819560003001243,0.19984760001534596,0.20682110002962872,103.14638789999299,,,,,,,,,,,,,,,,,,,,,,,,,,,,,,,,,,,,,,,,,,,,,,,,,,,,,,,,,,,,,,,,,,,,,,,,,17,B,2023-12-11_10h14.00.000,gca_avoidance_task,2022.2.4,143.9283812417329,
,,,,,,,,,8,0,8,0,,,,,,,,,,,,,,,,,,,,,,,,,,,,,,,,,,,,,103.14638789999299,103.14638789999299,103.14638789999299,103.14638789999299,103.14638789999299,103.14638789999299,6.0,1.400567000033334,s,7.348117200017441,110.99326479999581,0.09973799996078014,0.10671489994274452,0.15531669999472797,0.16225259995553643,0.2039319999748841,0.21090449998155236,111.87520300003234,,,,,,,,,,,,,,,,,,,,,,,,,,,,,,,,,,,,,,,,,,,,,,,,,,,,,,,,,,,,,,,,,,,,,,,,,17,B,2023-12-11_10h14.00.000,gca_avoidance_task,2022.2.4,143.9283812417329,
,,,,,,,,,9,0,9,0,,,,,,,,,,,,,,,,,,,,,,,,,,,,,,,,,,,,,111.87520300003234,111.87520300003234,111.87520300003234,111.87520300003234,111.87520300003234,111.87520300003234,6.0,1.1156177000375465,s,6.75536439998541,119.37486809998518,0.10185799997998402,0.10877499997150153,0.15043059998424724,0.15740799997001886,0.19902239996008575,0.2060022999648936,120.1317825000151,,,,,,,,,,,,,,,,,,,,,,,,,,,,,,,,,,,,,,,,,,,,,,,,,,,,,,,,,,,,,,,,,,,,,,,,,17,B,2023-12-11_10h14.00.000,gca_avoidance_task,2022.2.4,143.9283812417329,
,,,,,,,,,10,0,10,0,,,,,,,,,,,,,,,,,,,,,,,,,,,,,,,,,,,,,120.1317825000151,120.1317825000151,120.1317825000151,120.1317825000151,120.1317825000151,120.1317825000151,6.0,1.7465631000231951,s,6.2590397000312805,126.88152160000755,0.1005386000033468,0.10749070002930239,0.14909560000523925,0.15604790003271773,0.20467820001067594,0.21161510003730655,127.64540059998399,,,,,,,,,,,,,,,,,,,,,,,,,,,,,,,,,,,,,,,,,,,,,,,,,,,,,,,,,,,,,,,,,,,,,,,,,17,B,2023-12-11_10h14.00.000,gca_avoidance_task,2022.2.4,143.9283812417329,
,,,,,,,,,11,0,11,0,,,,,,,,,,,,,,,,,,,,,,,,,,,,,,,,,,,,,127.64540059998399,127.64540059998399,127.64540059998399,127.64540059998399,127.64540059998399,127.64540059998399,6.0,1.0069688000367023,s,6.225538900005631,134.367333400005,0.10312869999324903,0.1100902000325732,0.1517693999921903,0.15868450002744794,0.2004016000428237,0.20730539999203756,135.1242595000076,,,,,,,,,,,,,,,,,,,,,,,,,,,,,,,,,,,,,,,,,,,,,,,,,,,,,,,,,,,,,,,,,,,,,,,,,17,B,2023-12-11_10h14.00.000,gca_avoidance_task,2022.2.4,143.9283812417329,
,,,,,,,,,12,0,12,0,,,,,,,,,,,,,,,,,,,,,,,,,,,,,,,,,,,,,135.1242595000076,135.1242595000076,135.1242595000076,135.1242595000076,135.1242595000076,135.1242595000076,6.0,1.6175848999992013,s,6.809838999994099,142.43646990001434,0.10203999996883795,0.10893909999867901,0.1506278999731876,0.15754499996546656,0.19921059999614954,0.20613149995915592,143.29059640003834,,,,,,,,,,,,,,,,,,,,,,,,,,,,,,,,,,,,,,,,,,,,,,,,,,,,,,,,,,,,,,,,,,,,,,,,,17,B,2023-12-11_10h14.00.000,gca_avoidance_task,2022.2.4,143.9283812417329,
,,,,,,,,,13,0,13,0,,,,,,,,,,,,,,,,,,,,,,,,,,,,,,,,,,,,,143.29059640003834,143.29059640003834,143.29059640003834,143.29059640003834,143.29059640003834,143.29059640003834,5.0,2.0863138000131585,s,9.252413099980913,153.04716620000545,0.10403710004175082,0.11098500003572553,0.15266600000904873,0.15956110000843182,0.20126070000696927,0.20824470004299656,153.804098099994,,,,,,,,,,,,,,,,,,,,,,,,,,,,,,,,,,,,,,,,,,,,,,,,,,,,,,,,,,,,,,,,,,,,,,,,,17,B,2023-12-11_10h14.00.000,gca_avoidance_task,2022.2.4,143.9283812417329,
,,,,,,,,,14,0,14,0,,,,,,,,,,,,,,,,,,,,,,,,,,,,,,,,,,,,,153.804098099994,153.804098099994,153.804098099994,153.804098099994,153.804098099994,153.804098099994,5.0,2.3152934999670833,s,6.7301345999585465,161.03296270000283,0.0992168000084348,0.10614360001636669,0.1547302000108175,0.1616470000008121,0.20336819998919964,0.21031579998089,161.7898441000143,,,,,,,,,,,,,,,,,,,,,,,,,,,,,,,,,,,,,,,,,,,,,,,,,,,,,,,,,,,,,,,,,,,,,,,,,17,B,2023-12-11_10h14.00.000,gca_avoidance_task,2022.2.4,143.9283812417329,
,,,,,,,,,15,0,15,0,,,,,,,,,,,,,,,,,,,,,,,,,,,,,,,,,,,,,161.7898441000143,161.7898441000143,161.7898441000143,161.7898441000143,161.7898441000143,161.7898441000143,5.0,2.9084438999998383,s,7.209153399977367,169.5326264000032,0.10079799999948591,0.10776739998254925,0.14944110001670197,0.1563806000049226,0.20497650001198053,0.2119049000320956,170.28950740001164,,,,,,,,,,,,,,,,,,,,,,,,,,,,,,,,,,,,,,,,,,,,,,,,,,,,,,,,,,,,,,,,,,,,,,,,,17,B,2023-12-11_10h14.00.000,gca_avoidance_task,2022.2.4,143.9283812417329,
,,,,,,,,,16,0,16,0,,,,,,,,,,,,,,,,,,,,,,,,,,,,,,,,,,,,,170.28950740001164,170.28950740001164,170.28950740001164,170.28950740001164,170.28950740001164,170.28950740001164,6.0,0.9351056999876164,s,5.7979068999993615,176.58097160002217,0.10264990001451224,0.10958180000307038,0.1512685000197962,0.15821530000539497,0.19988249999005347,0.2068351000198163,177.386459500005,,,,,,,,,,,,,,,,,,,,,,,,,,,,,,,,,,,,,,,,,,,,,,,,,,,,,,,,,,,,,,,,,,,,,,,,,17,B,2023-12-11_10h14.00.000,gca_avoidance_task,2022.2.4,143.9283812417329,
,,,,,,,,,17,0,17,0,,,,,,,,,,,,,,,,,,,,,,,,,,,,,,,,,,,,,177.386459500005,177.386459500005,177.386459500005,177.386459500005,177.386459500005,177.386459500005,6.0,1.9221653999993578,s,6.164694000035524,184.05978870001854,0.10556470003211871,0.11254130001179874,0.15416889998596162,0.161125999991782,0.2027838000212796,0.20973780000349507,,,,,,,,,,,,,,,,,,,,,,,,,,,,,,,,,,,,,,,,,,,,,,,,,,,,,,,,,,,,,,,,,,,,,,,,,,17,B,2023-12-11_10h14.00.000,gca_avoidance_task,2022.2.4,143.9283812417329,
,,,,,,,,,18,0,18,0,,,,,,,,,,,,,,,,,,,,,,,,,,,,,,,,,,,,,184.81672330002766,184.81672330002766,184.81672330002766,184.81672330002766,184.81672330002766,184.81672330002766,7.0,1.6291503999964334,s,5.590282300021499,190.92060200002743,0.10323170002084225,0.11018189997412264,0.1518322000047192,0.158795099996496,0.20050239999545738,0.2074362999992445,191.67753530002665,,,,,,,,,,,,,,,,,,,,,,,,,,,,,,,,,,,,,,,,,,,,,,,,,,,,,,,,,,,,,,,,,,,,,,,,,17,B,2023-12-11_10h14.00.000,gca_avoidance_task,2022.2.4,143.9283812417329,
,,,,,,,,,19,0,19,0,,,,,,,,,,,,,,,,,,,,,,,,,,,,,,,,,,,,,191.67753530002665,191.67753530002665,191.67753530002665,191.67753530002665,191.67753530002665,191.67753530002665,6.0,2.2733504999778233,g,10.520959899993613,202.80907300004037,,,,,,,,,,,,,,,,,,,,,,,,,,,,,,,,,,,,,,,,,,,,,,,,,,,,,,,,,,,,,,,,,,,,,,,,,,,,,,,,17,B,2023-12-11_10h14.00.000,gca_avoidance_task,2022.2.4,143.9283812417329,
,,,,,,,,,,,,,,,,,,,,,,,,,,,,,,,,,,,,,,,,,,,,,,,,,,,,,,,,,,,,,,,,,,,202.80907300004037,202.80907300004037,space,2.8782234999816865,,,,,,,,,,,,,,,,,,,,,,,,,,,,,,,,,,,,,,,,,,,,,,,,,,,,,,,,,,,,,,,,,,,,,17,B,2023-12-11_10h14.00.000,gca_avoidance_task,2022.2.4,143.9283812417329,
positions.xlsx,stimuli.xlsx,stimuli/Social2.png,stimuli/Social1.png,stimuli/Nonsocial1.png,stimuli/Nonsocial2.png,cs_minus_ns,,,,,,,0,0,0,0,0,0,0,3,,,,,,,,,,,,,,,,,,,,,,,,,,,,,,,,,,,,,,,,,,,,,,,,,,,302.00019550003344,302.00019550003344,space,29.198129199969117,331.24141690001125,331.24141690001125,338.1716478000162,6.0,10.021832099999301,space,3.7796535000088625,,,,,,,,,,,,,,,,,,,,,,,,,,,,,,,,,,,,,,,,,,,,,,,,,,,,,,,,,,17,B,2023-12-11_10h14.00.000,gca_avoidance_task,2022.2.4,143.9283812417329,
positions.xlsx,stimuli.xlsx,stimuli/Social2.png,stimuli/Social1.png,stimuli/Nonsocial1.png,stimuli/Nonsocial2.png,cs_plus_ns,,,,,,,0,0,0,0,0,1,1,1,,,,,,,,,,,,,,,,,,,,,,,,,,,,,,,,,,,,,,,,,,,,,,,,,,,,,,,341.99099670001306,341.99099670001306,346.26861189998453,5.0,4.2698185999761336,space,2.5943559000152163,,,,,,,,,,,,,,,,,,,,,,,,,,,,,,,,,,,,,,,,,,,,,,,,,,,,,,,,,,17,B,2023-12-11_10h14.00.000,gca_avoidance_task,2022.2.4,143.9283812417329,
positions.xlsx,stimuli.xlsx,stimuli/Social2.png,stimuli/Social1.png,stimuli/Nonsocial1.png,stimuli/Nonsocial2.png,cs_minus_s,,,,,,,0,0,0,0,0,2,2,2,,,,,,,,,,,,,,,,,,,,,,,,,,,,,,,,,,,,,,,,,,,,,,,,,,,,,,,348.9004220000352,348.9004220000352,352.28919590002624,6.0,3.3746388999861665,space,1.7650427999906242,,,,,,,,,,,,,,,,,,,,,,,,,,,,,,,,,,,,,,,,,,,,,,,,,,,,,,,,,,17,B,2023-12-11_10h14.00.000,gca_avoidance_task,2022.2.4,143.9283812417329,
positions.xlsx,stimuli.xlsx,stimuli/Social2.png,stimuli/Social1.png,stimuli/Nonsocial1.png,stimuli/Nonsocial2.png,cs_plus_s,,,,,,,0,0,0,0,0,3,3,0,,,,,,,,,,,,,,,,,,,,,,,,,,,,,,,,,,,,,,,,,,,,,,,,,,,,,,,354.09468360000756,354.09468360000756,357.4625766000245,6.0,3.360555800027214,space,1.8163661999860778,,,,,,,,,,,,,,,,,,,,,,,,,,,,,,,,,,,,,,,,,,,,,,,,,,,,,,,,,,17,B,2023-12-11_10h14.00.000,gca_avoidance_task,2022.2.4,143.9283812417329,
positions.xlsx,stimuli.xlsx,stimuli/Social2.png,stimuli/Social1.png,stimuli/Nonsocial1.png,stimuli/Nonsocial2.png,,"(0.7, 0.5)",cs_minus_s,,,,,0,0,0,0,,,,,0,0,0,6,,,,,,,,,,,,,,,,,,,,,,,,,,,,,,,,,,,,,,,,,,,,,,,,,,,,,,,,,,359.2958715999848,359.2958715999848,space,20.822329100046773,382.75322519999463,384.4684388000169,382.25328230002197,384.4684388000169,384.4684388000169,384.4684388000169,0.01600120001239702,0.02698880003299564,5,reward,1,[0.312506599992048],[0.3125103000202216],384.78790819999995,384.78790819999995,0.015943099977448583,0.015943099977448583,0.032283300010021776,0.053129500010982156,0.060032200010027736,0.10166869999375194,0.10862000001361594,1.0113530000089668,388.26699690002715,391.8362513000029,,,,,,,,,,,,,,,,,,,,,,,,,,,,,17,B,2023-12-11_10h14.00.000,gca_avoidance_task,2022.2.4,143.9283812417329,
positions.xlsx,stimuli.xlsx,stimuli/Social2.png,stimuli/Social1.png,stimuli/Nonsocial1.png,stimuli/Nonsocial2.png,,"(0.7, -0.5)",cs_plus_ns,,,,,0,0,0,0,,,,,0,1,1,11,,,,,,,,,,,,,,,,,,,,,,,,,,,,,,,,,,,,,,,,,,,,,,,,,,,,,,,,,,,,,,392.3431040000287,393.6486289000022,391.8362513000029,393.6486289000022,393.6486289000022,393.6486289000022,0.006821699964348227,0.013182399969082326,5,shock,1,[0.42386429995531216],[0.42386789998272434],394.0791891000117,394.0791891000117,0.008854900021106005,0.008854900021106005,0.018468900001607835,0.053116300026886165,0.06008990004193038,0.1017297999933362,0.10868430003756657,1.0044627000461332,397.5721007999964,401.1275598999928,,,,,,,,,,,,,,,,,,,,,,,,,,,,,17,B,2023-12-11_10h14.00.000,gca_avoidance_task,2022.2.4,143.9283812417329,
positions.xlsx,stimuli.xlsx,stimuli/Social2.png,stimuli/Social1.png,stimuli/Nonsocial1.png,stimuli/Nonsocial2.png,,"(-0.7, -0.5)",cs_minus_ns,,,,,0,0,0,0,,,,,0,2,2,13,,,,,,,,,,,,,,,,,,,,,,,,,,,,,,,,,,,,,,,,,,,,,,,,,,,,,,,,,,,,,,401.63441589998547,402.72466300003,401.1275598999928,402.72466300003,402.72466300003,402.72466300003,0.00632200000109151,0.013039199984632432,10,reward,1,[0.5902721000020392],[0.5902756999712437],403.32188519998454,403.32188519998454,0.008177899988368154,0.008177899988368154,0.018682399997487664,0.05332259996794164,0.06029220001073554,0.10190399998100474,0.10888630000408739,1.004639999999199,406.81477669999003,410.5993957000319,,,,,,,,,,,,,,,,,,,,,,,,,,,,,17,B,2023-12-11_10h14.00.000,gca_avoidance_task,2022.2.4,143.9283812417329,
positions.xlsx,stimuli.xlsx,stimuli/Social2.png,stimuli/Social1.png,stimuli/Nonsocial1.png,stimuli/Nonsocial2.png,,"(-0.7, 0.5)",cs_minus_ns,,,,,0,0,0,0,,,,,0,3,3,12,,,,,,,,,,,,,,,,,,,,,,,,,,,,,,,,,,,,,,,,,,,,,,,,,,,,,,,,,,,,,,411.1062657000148,412.2451254000189,410.5993957000319,412.2451254000189,412.2451254000189,412.2451254000189,0.007122500042896718,0.01302340003894642,15,reward,1,[1.173663099994883],[1.1736670000245795],413.42563180002617,413.42563180002617,0.007319899974390864,0.007319899974390864,0.01849200000287965,0.05320109997410327,0.060151099984068424,0.1017971999826841,0.10880519996862859,1.0045309999841265,416.91862760001095,420.54341159999603,,,,,,,,,,,,,,,,,,,,,,,,,,,,,17,B,2023-12-11_10h14.00.000,gca_avoidance_task,2022.2.4,143.9283812417329,
positions.xlsx,stimuli.xlsx,stimuli/Social2.png,stimuli/Social1.png,stimuli/Nonsocial1.png,stimuli/Nonsocial2.png,,"(-0.7, -0.5)",cs_plus_s,,,,,0,0,0,0,,,,,0,4,4,1,,,,,,,,,,,,,,,,,,,,,,,,,,,,,,,,,,,,,,,,,,,,,,,,,,,,,,,,,,,,,,421.05029859999195,422.2863764000358,420.54341159999603,422.2863764000358,422.2863764000358,422.2863764000358,0.006204500037711114,0.013125299999956042,15,shock,1,[0.3334877000306733],[0.34059760003583506],422.63359530002344,422.63359530002344,0.007369900005869567,0.007369900005869567,0.018631900020409375,0.05326389998663217,0.06025989999761805,0.10193850001087412,0.10892040003091097,1.004637400037609,426.12652089999756,429.67501760000596,,,,,,,,,,,,,,,,,,,,,,,,,,,,,17,B,2023-12-11_10h14.00.000,gca_avoidance_task,2022.2.4,143.9283812417329,
positions.xlsx,stimuli.xlsx,stimuli/Social2.png,stimuli/Social1.png,stimuli/Nonsocial1.png,stimuli/Nonsocial2.png,,"(0.7, 0.5)",cs_minus_ns,,,,,0,0,0,0,,,,,0,5,5,14,,,,,,,,,,,,,,,,,,,,,,,,,,,,,,,,,,,,,,,,,,,,,,,,,,,,,,,,,,,,,,430.1819719999912,431.66103270003805,429.67501760000596,431.66103270003805,431.66103270003805,431.66103270003805,0.007430900004692376,0.01328849996207282,20,reward,1,[0.6737931999959983],[0.6737968999659643],432.3415741000208,432.3415741000208,0.008017399988602847,0.008017399988602847,0.018779599980916828,0.05344849999528378,0.06044540001312271,0.10203119996003807,0.10898839996661991,1.0047671999782324,435.8344861000078,439.60517880000407,,,,,,,,,,,,,,,,,,,,,,,,,,,,,17,B,2023-12-11_10h14.00.000,gca_avoidance_task,2022.2.4,143.9283812417329,
positions.xlsx,stimuli.xlsx,stimuli/Social2.png,stimuli/Social1.png,stimuli/Nonsocial1.png,stimuli/Nonsocial2.png,,"(-0.7, -0.5)",cs_minus_s,,,,,0,0,0,0,,,,,0,6,6,5,,,,,,,,,,,,,,,,,,,,,,,,,,,,,,,,,,,,,,,,,,,,,,,,,,,,,,,,,,,,,,440.11210080003366,441.4036677000113,439.60517880000407,441.4036677000113,441.4036677000113,441.4036677000113,0.0058019999996759,0.013299300044309348,25,reward,1,[0.43782610003836453],[0.43782970000756904],441.8481269000331,441.8481269000331,0.006765300000552088,0.006765300000552088,0.018513599992729723,0.05314540001563728,0.06011469999793917,0.10174369998276234,0.10874449997209013,1.0045392999891192,445.3410448000068,449.7992044999846,,,,,,,,,,,,,,,,,,,,,,,,,,,,,17,B,2023-12-11_10h14.00.000,gca_avoidance_task,2022.2.4,143.9283812417329,
positions.xlsx,stimuli.xlsx,stimuli/Social2.png,stimuli/Social1.png,stimuli/Nonsocial1.png,stimuli/Nonsocial2.png,,"(0.7, -0.5)",cs_plus_s,,,,,0,0,0,0,,,,,0,7,7,3,,,,,,,,,,,,,,,,,,,,,,,,,,,,,,,,,,,,,,,,,,,,,,,,,,,,,,,,,,,,,,450.30609540001024,451.8129761000164,449.7992044999846,451.8129761000164,451.8129761000164,451.8129761000164,0.0067340999958105385,0.013087500003166497,25,shock,1,[0.5208089000079781],[0.5208125000353903],452.34073360002367,452.34073360002367,0.006926800007931888,0.006926800007931888,0.018757499987259507,0.05349080002633855,0.060356699978001416,0.10205480002332479,0.10902340000029653,1.004805699980352,455.83372140000574,459.72240179998334,,,,,,,,,,,,,,,,,,,,,,,,,,,,,17,B,2023-12-11_10h14.00.000,gca_avoidance_task,2022.2.4,143.9283812417329,
positions.xlsx,stimuli.xlsx,stimuli/Social2.png,stimuli/Social1.png,stimuli/Nonsocial1.png,stimuli/Nonsocial2.png,,"(-0.7, -0.5)",cs_plus_ns,,,,,0,0,0,0,,,,,0,8,8,9,,,,,,,,,,,,,,,,,,,,,,,,,,,,,,,,,,,,,,,,,,,,,,,,,,,,,,,,,,,,,,460.2293135999935,462.12504900002386,459.72240179998334,462.12504900002386,462.12504900002386,462.12504900002386,0.007374999986495823,0.013001499988604337,25,shock,1,[4.34707790001994],[4.347081699990667],466.47905369999353,466.47905369999353,0.008246900048106909,0.008246900048106909,0.018419900035951287,0.053117800038307905,0.06011340004624799,0.10174660000484437,0.10869530000491068,1.004484900040552,469.9719766000053,473.58991610002704,,,,,,,,,,,,,,,,,,,,,,,,,,,,,17,B,2023-12-11_10h14.00.000,gca_avoidance_task,2022.2.4,143.9283812417329,
positions.xlsx,stimuli.xlsx,stimuli/Social2.png,stimuli/Social1.png,stimuli/Nonsocial1.png,stimuli/Nonsocial2.png,,"(0.7, -0.5)",cs_minus_ns,,,,,0,0,0,0,,,,,0,9,9,15,,,,,,,,,,,,,,,,,,,,,,,,,,,,,,,,,,,,,,,,,,,,,,,,,,,,,,,,,,,,,,474.09680669999216,475.1592580000288,473.58991610002704,475.1592580000288,475.1592580000288,475.1592580000288,0.006522900017444044,0.013146999990567565,30,reward,1,[0.22929570003179833],[0.2292992000002414],475.39535770000657,475.39535770000657,0.007957500056363642,0.007957500056363642,0.01847120001912117,0.0531366000068374,0.06012249999912456,0.10182000003987923,0.10881660005543381,1.004549200006295,478.8883585000294,482.8395548000117,,,,,,,,,,,,,,,,,,,,,,,,,,,,,17,B,2023-12-11_10h14.00.000,gca_avoidance_task,2022.2.4,143.9283812417329,
positions.xlsx,stimuli.xlsx,stimuli/Social2.png,stimuli/Social1.png,stimuli/Nonsocial1.png,stimuli/Nonsocial2.png,,"(-0.7, 0.5)",cs_plus_ns,,,,,0,0,0,0,,,,,0,10,10,8,,,,,,,,,,,,,,,,,,,,,,,,,,,,,,,,,,,,,,,,,,,,,,,,,,,,,,,,,,,,,,483.3464254999999,484.67279360000975,482.8395548000117,484.67279360000975,484.67279360000975,484.67279360000975,0.00702580000506714,0.013051300018560141,30,none,0,,,489.67950570001267,489.67950570001267,0.014014900021720678,0.014014900021720678,0.019704400037880987,0.05440060002729297,0.06134860002202913,0.10300620005000383,0.10998070001369342,1.0126987000112422,493.1725210000295,496.79034750000574,,,,,,,,,,,,,,,,,,,,,,,,,,,,,17,B,2023-12-11_10h14.00.000,gca_avoidance_task,2022.2.4,143.9283812417329,
positions.xlsx,stimuli.xlsx,stimuli/Social2.png,stimuli/Social1.png,stimuli/Nonsocial1.png,stimuli/Nonsocial2.png,,"(-0.7, 0.5)",cs_plus_s,,,,,0,0,0,0,,,,,0,11,11,0,,,,,,,,,,,,,,,,,,,,,,,,,,,,,,,,,,,,,,,,,,,,,,,,,,,,,,,,,,,,,,497.2972594000166,498.44305780000286,496.79034750000574,498.44305780000286,498.44305780000286,498.44305780000286,0.006077400001231581,0.013071199995465577,30,shock,1,[0.46546370000578463],[0.46546749997651204],498.9152819000301,498.9152819000301,0.007438900007400662,0.007438900007400662,0.0182310999953188,0.052919199981261045,0.05990990001009777,0.10149580001598224,0.10845980001613498,1.0042521000141278,502.4082104000263,506.3802451000083,,,,,,,,,,,,,,,,,,,,,,,,,,,,,17,B,2023-12-11_10h14.00.000,gca_avoidance_task,2022.2.4,143.9283812417329,
positions.xlsx,stimuli.xlsx,stimuli/Social2.png,stimuli/Social1.png,stimuli/Nonsocial1.png,stimuli/Nonsocial2.png,,"(0.7, 0.5)",cs_plus_s,,,,,0,0,0,0,,,,,0,12,12,2,,,,,,,,,,,,,,,,,,,,,,,,,,,,,,,,,,,,,,,,,,,,,,,,,,,,,,,,,,,,,,506.8871713000117,508.7898610000266,506.3802451000083,508.7898610000266,508.7898610000266,508.7898610000266,0.0057835999759845436,0.01321310002822429,30,shock,1,[0.8545556000317447],[0.8545595000032336],509.64400179998484,509.64400179998484,0.00701100000878796,0.00701100000878796,0.01139510003849864,0.052997599996160716,0.05997360002947971,0.10162850003689528,0.10860400000819936,1.0043621000368148,513.1438639999833,517.553427900013,,,,,,,,,,,,,,,,,,,,,,,,,,,,,17,B,2023-12-11_10h14.00.000,gca_avoidance_task,2022.2.4,143.9283812417329,
positions.xlsx,stimuli.xlsx,stimuli/Social2.png,stimuli/Social1.png,stimuli/Nonsocial1.png,stimuli/Nonsocial2.png,,"(-0.7, 0.5)",cs_minus_s,,,,,0,0,0,0,,,,,0,13,13,4,,,,,,,,,,,,,,,,,,,,,,,,,,,,,,,,,,,,,,,,,,,,,,,,,,,,,,,,,,,,,,518.0603471000213,519.268619599985,517.553427900013,519.268619599985,519.268619599985,519.268619599985,0.006349999981466681,0.013092699984554201,35,reward,1,[0.7986622999887913],[0.7986661000177264],520.0741223000223,520.0741223000223,0.006832299986854196,0.006832299986854196,0.018557599978521466,0.0531619000248611,0.06015299999853596,0.10182189999613911,0.10877609997987747,1.0045760999782942,523.5670615999843,527.8169131000177,,,,,,,,,,,,,,,,,,,,,,,,,,,,,17,B,2023-12-11_10h14.00.000,gca_avoidance_task,2022.2.4,143.9283812417329,
positions.xlsx,stimuli.xlsx,stimuli/Social2.png,stimuli/Social1.png,stimuli/Nonsocial1.png,stimuli/Nonsocial2.png,,"(0.7, 0.5)",cs_plus_ns,,,,,0,0,0,0,,,,,0,14,14,10,,,,,,,,,,,,,,,,,,,,,,,,,,,,,,,,,,,,,,,,,,,,,,,,,,,,,,,,,,,,,,528.3237939000246,529.4140598000376,527.8169131000177,529.4140598000376,529.4140598000376,529.4140598000376,0.006722600024659187,0.01317879999987781,35,none,0,,,534.4208079000236,534.4208079000236,0.013906800013501197,0.013906800013501197,0.019937100005336106,0.05460640002274886,0.06157290004193783,0.10319910000544041,0.1101458000484854,1.0128635000437498,537.913747899991,541.9344107999932,,,,,,,,,,,,,,,,,,,,,,,,,,,,,17,B,2023-12-11_10h14.00.000,gca_avoidance_task,2022.2.4,143.9283812417329,
positions.xlsx,stimuli.xlsx,stimuli/Social2.png,stimuli/Social1.png,stimuli/Nonsocial1.png,stimuli/Nonsocial2.png,,"(0.7, -0.5)",cs_minus_s,,,,,0,0,0,0,,,,,0,15,15,7,,,,,,,,,,,,,,,,,,,,,,,,,,,,,,,,,,,,,,,,,,,,,,,,,,,,,,,,,,,,,,542.4412965000374,544.2398272000137,541.9344107999932,544.2398272000137,544.2398272000137,544.2398272000137,0.0057758999755606055,0.013098100025672466,40,reward,1,[0.6947030000155792],[0.6947065999847837],544.941238600004,544.941238600004,0.007118400011677295,0.007118400011677295,0.018319000024348497,0.05292119999649003,0.059858900029212236,0.10152180003933609,0.1084755000192672,1.0042585000046529,548.4341454000096,552.6839743999881,,,,,,,,,,,,,,,,,,,,,,,,,,,,,17,B,2023-12-11_10h14.00.000,gca_avoidance_task,2022.2.4,143.9283812417329,
positions.xlsx,stimuli.xlsx,stimuli/Social2.png,stimuli/Social1.png,stimuli/Nonsocial1.png,stimuli/Nonsocial2.png,,"(0.7, 0.5)",cs_minus_s,,,,,0,0,0,0,,,,,1,0,16,6,,,,,,,,,,,,,,,,,,,,,,,,,,,,,,,,,,,,,,,,,,,,,,,,,,,,,,,,,,,,,,553.1908517000265,554.5102528000134,552.6839743999881,554.5102528000134,554.5102528000134,554.5102528000134,0.006662399973720312,0.01291819999460131,45,reward,1,[0.5697476000059396],[0.5697510999743827],555.0866308000404,555.0866308000404,0.007143900031223893,0.007143900031223893,0.018316400004550815,0.05301309999777004,0.059928599977865815,0.10155060002580285,0.10855810000794008,1.0043870999943465,558.5795199000277,562.3849556000205,,,,,,,,,,,,,,,,,,,,,,,,,,,,,17,B,2023-12-11_10h14.00.000,gca_avoidance_task,2022.2.4,143.9283812417329,
positions.xlsx,stimuli.xlsx,stimuli/Social2.png,stimuli/Social1.png,stimuli/Nonsocial1.png,stimuli/Nonsocial2.png,,"(0.7, -0.5)",cs_minus_s,,,,,0,0,0,0,,,,,1,1,17,7,,,,,,,,,,,,,,,,,,,,,,,,,,,,,,,,,,,,,,,,,,,,,,,,,,,,,,,,,,,,,,562.8918772999896,564.1834708999959,562.3849556000205,564.1834708999959,564.1834708999959,564.1834708999959,0.006340500025544316,0.013043400016613305,50,reward,1,[0.5696615999913774],[0.569665500021074],564.7598502000328,564.7598502000328,0.007887799991294742,0.007887799991294742,0.018392300000414252,0.053157899994403124,0.060063400014769286,0.10169420001329854,0.10864180000498891,1.0044158000382595,568.2528101000353,571.9540296000196,,,,,,,,,,,,,,,,,,,,,,,,,,,,,17,B,2023-12-11_10h14.00.000,gca_avoidance_task,2022.2.4,143.9283812417329,
positions.xlsx,stimuli.xlsx,stimuli/Social2.png,stimuli/Social1.png,stimuli/Nonsocial1.png,stimuli/Nonsocial2.png,,"(-0.7, 0.5)",cs_minus_ns,,,,,0,0,0,0,,,,,1,2,18,12,,,,,,,,,,,,,,,,,,,,,,,,,,,,,,,,,,,,,,,,,,,,,,,,,,,,,,,,,,,,,,572.4609092000173,573.7178598000319,571.9540296000196,573.7178598000319,573.7178598000319,573.7178598000319,0.007226100016850978,0.01303510001162067,55,reward,1,[1.055383900005836],[1.055387399974279],574.7802923999843,574.7802923999843,0.007311799970921129,0.007311799970921129,0.018305999983567744,0.05295550002483651,0.059949600021354854,0.10157850000541657,0.10853129997849464,1.004330299969297,578.2732628000085,582.0508172999835,,,,,,,,,,,,,,,,,,,,,,,,,,,,,17,B,2023-12-11_10h14.00.000,gca_avoidance_task,2022.2.4,143.9283812417329,
positions.xlsx,stimuli.xlsx,stimuli/Social2.png,stimuli/Social1.png,stimuli/Nonsocial1.png,stimuli/Nonsocial2.png,,"(-0.7, 0.5)",cs_minus_s,,,,,0,0,0,0,,,,,1,3,19,4,,,,,,,,,,,,,,,,,,,,,,,,,,,,,,,,,,,,,,,,,,,,,,,,,,,,,,,,,,,,,,582.5577311000088,583.995191199996,582.0508172999835,583.995191199996,583.995191199996,583.995191199996,0.005706600029952824,0.013199200038798153,60,reward,1,[0.7500739000388421],[0.7500774000072852],584.7521190000116,584.7521190000116,0.006531500024721026,0.006531500024721026,0.018809600034728646,0.053495600004680455,0.06043960002716631,0.10208700003568083,0.10904890001984313,1.0048083000001498,588.2450821000384,592.5018104999908,,,,,,,,,,,,,,,,,,,,,,,,,,,,,17,B,2023-12-11_10h14.00.000,gca_avoidance_task,2022.2.4,143.9283812417329,
positions.xlsx,stimuli.xlsx,stimuli/Social2.png,stimuli/Social1.png,stimuli/Nonsocial1.png,stimuli/Nonsocial2.png,,"(-0.7, 0.5)",cs_plus_ns,,,,,0,0,0,0,,,,,1,4,20,8,,,,,,,,,,,,,,,,,,,,,,,,,,,,,,,,,,,,,,,,,,,,,,,,,,,,,,,,,,,,,,593.0087028000271,594.980869800027,592.5018104999908,594.980869800027,594.980869800027,594.980869800027,0.006548099976498634,0.013120699964929372,60,none,0,,,599.9876315000001,599.9876315000001,0.013953399960882962,0.013953399960882962,0.019916699966415763,0.05460279999533668,0.061531499959528446,0.10318439995171502,0.11015639995457605,1.0128431000048295,603.4806027000304,607.2026509999996,,,,,,,,,,,,,,,,,,,,,,,,,,,,,17,B,2023-12-11_10h14.00.000,gca_avoidance_task,2022.2.4,143.9283812417329,
positions.xlsx,stimuli.xlsx,stimuli/Social2.png,stimuli/Social1.png,stimuli/Nonsocial1.png,stimuli/Nonsocial2.png,,"(-0.7, -0.5)",cs_minus_ns,,,,,0,0,0,0,,,,,1,5,21,13,,,,,,,,,,,,,,,,,,,,,,,,,,,,,,,,,,,,,,,,,,,,,,,,,,,,,,,,,,,,,,607.709490200039,608.7511444999836,607.2026509999996,608.7511444999836,608.7511444999836,608.7511444999836,0.007361500000115484,0.012843700009398162,65,reward,1,[0.5831214999780059],[0.5831254000077024],609.3414112000028,609.3414112000028,0.007664699980523437,0.007664699980523437,0.018665799987502396,0.05330969998613,0.06027730001369491,0.10192469996400177,0.10888129996601492,1.004678099998273,612.834386100003,617.0425541999866,,,,,,,,,,,,,,,,,,,,,,,,,,,,,17,B,2023-12-11_10h14.00.000,gca_avoidance_task,2022.2.4,143.9283812417329,
positions.xlsx,stimuli.xlsx,stimuli/Social2.png,stimuli/Social1.png,stimuli/Nonsocial1.png,stimuli/Nonsocial2.png,,"(-0.7, -0.5)",cs_plus_s,,,,,0,0,0,0,,,,,1,6,22,1,,,,,,,,,,,,,,,,,,,,,,,,,,,,,,,,,,,,,,,,,,,,,,,,,,,,,,,,,,,,,,617.5493914000108,619.1257394999848,617.0425541999866,619.1257394999848,619.1257394999848,619.1257394999848,0.006891899975016713,0.013034899951890111,65,shock,1,[0.5139155999640934],[0.5208586999797262],619.6535273999907,619.6535273999907,0.008435899973846972,0.008435899973846972,0.018500100006349385,0.05311809998238459,0.060078200011048466,0.10175720002735034,0.10866359999636188,1.0045022999984212,623.1464424000005,627.5768018999952,,,,,,,,,,,,,,,,,,,,,,,,,,,,,17,B,2023-12-11_10h14.00.000,gca_avoidance_task,2022.2.4,143.9283812417329,
positions.xlsx,stimuli.xlsx,stimuli/Social2.png,stimuli/Social1.png,stimuli/Nonsocial1.png,stimuli/Nonsocial2.png,,"(0.7, 0.5)",cs_plus_s,,,,,0,0,0,0,,,,,1,7,23,2,,,,,,,,,,,,,,,,,,,,,,,,,,,,,,,,,,,,,,,,,,,,,,,,,,,,,,,,,,,,,,628.0837088000262,629.4517027999973,627.5768018999952,629.4517027999973,629.4517027999973,629.4517027999973,0.006667700014077127,0.013075300026685,65,none,0,,,634.4584814999835,634.4584814999835,0.014896900043822825,0.014896900043822825,0.019881500047631562,0.05452610005158931,0.06148500001290813,0.10316590004367754,0.11009180004475638,1.0128493999945931,637.9514327000361,641.6526508000097,,,,,,,,,,,,,,,,,,,,,,,,,,,,,17,B,2023-12-11_10h14.00.000,gca_avoidance_task,2022.2.4,143.9283812417329,
positions.xlsx,stimuli.xlsx,stimuli/Social2.png,stimuli/Social1.png,stimuli/Nonsocial1.png,stimuli/Nonsocial2.png,,"(0.7, -0.5)",cs_plus_ns,,,,,0,0,0,0,,,,,1,8,24,11,,,,,,,,,,,,,,,,,,,,,,,,,,,,,,,,,,,,,,,,,,,,,,,,,,,,,,,,,,,,,,642.1595298000029,643.7983447000152,641.6526508000097,643.7983447000152,643.7983447000152,643.7983447000152,0.006946899986360222,0.013062799989711493,65,none,0,,,648.8051443999866,648.8051443999866,0.014640499954111874,0.014640499954111874,0.019894399971235543,0.054548799991607666,0.06151149998186156,0.10314859997015446,0.1100631999433972,1.0128213999560103,652.298020199989,656.6312190000317,,,,,,,,,,,,,,,,,,,,,,,,,,,,,17,B,2023-12-11_10h14.00.000,gca_avoidance_task,2022.2.4,143.9283812417329,
positions.xlsx,stimuli.xlsx,stimuli/Social2.png,stimuli/Social1.png,stimuli/Nonsocial1.png,stimuli/Nonsocial2.png,,"(-0.7, 0.5)",cs_plus_s,,,,,0,0,0,0,,,,,1,9,25,0,,,,,,,,,,,,,,,,,,,,,,,,,,,,,,,,,,,,,,,,,,,,,,,,,,,,,,,,,,,,,,657.1381248999969,658.8116645999835,656.6312190000317,658.8116645999835,658.8116645999835,658.8116645999835,0.006928300019353628,0.013445899996440858,65,none,0,,,663.8183638000046,663.8183638000046,0.014446299988776445,0.014446299988776445,0.020096099993679672,0.054809699999168515,0.0617795999860391,0.10341959999641404,0.11040559998946264,1.0131165999919176,667.3113679999951,670.9015014999895,,,,,,,,,,,,,,,,,,,,,,,,,,,,,17,B,2023-12-11_10h14.00.000,gca_avoidance_task,2022.2.4,143.9283812417329,
positions.xlsx,stimuli.xlsx,stimuli/Social2.png,stimuli/Social1.png,stimuli/Nonsocial1.png,stimuli/Nonsocial2.png,,"(0.7, 0.5)",cs_plus_ns,,,,,0,0,0,0,,,,,1,10,26,10,,,,,,,,,,,,,,,,,,,,,,,,,,,,,,,,,,,,,,,,,,,,,,,,,,,,,,,,,,,,,,671.4083869000315,673.061054299993,670.9015014999895,673.061054299993,673.061054299993,673.061054299993,0.006988900015130639,0.013047900050878525,65,none,0,,,678.0678488999838,678.0678488999838,0.014691500051412731,0.014691500051412731,0.019818600034341216,0.05450050003128126,0.061434100032784045,0.1030773000093177,0.11010270001133904,1.0127837000181898,681.5607740000123,685.102295699995,,,,,,,,,,,,,,,,,,,,,,,,,,,,,17,B,2023-12-11_10h14.00.000,gca_avoidance_task,2022.2.4,143.9283812417329,
positions.xlsx,stimuli.xlsx,stimuli/Social2.png,stimuli/Social1.png,stimuli/Nonsocial1.png,stimuli/Nonsocial2.png,,"(0.7, -0.5)",cs_plus_s,,,,,0,0,0,0,,,,,1,11,27,3,,,,,,,,,,,,,,,,,,,,,,,,,,,,,,,,,,,,,,,,,,,,,,,,,,,,,,,,,,,,,,685.6092034000321,687.4979982000077,685.102295699995,687.4979982000077,687.4979982000077,687.4979982000077,0.006757199997082353,0.013116600050125271,65,none,0,,,692.5047593000345,692.5047593000345,0.014541400014422834,0.014541400014422834,0.01985949999652803,0.05453820002730936,0.061489000043366104,0.10312000004341826,0.11009220004780218,1.0128243000363,695.9977102000266,699.5878225000342,,,,,,,,,,,,,,,,,,,,,,,,,,,,,17,B,2023-12-11_10h14.00.000,gca_avoidance_task,2022.2.4,143.9283812417329,
positions.xlsx,stimuli.xlsx,stimuli/Social2.png,stimuli/Social1.png,stimuli/Nonsocial1.png,stimuli/Nonsocial2.png,,"(-0.7, -0.5)",cs_plus_ns,,,,,0,0,0,0,,,,,1,12,28,9,,,,,,,,,,,,,,,,,,,,,,,,,,,,,,,,,,,,,,,,,,,,,,,,,,,,,,,,,,,,,,700.0947333000368,701.8238281999948,699.5878225000342,701.8238281999948,701.8238281999948,701.8238281999948,0.006941500003449619,0.01332249998813495,65,none,0,,,706.8305942000006,706.8305942000006,0.014743199979420751,0.014743199979420751,0.020108899974729866,0.054796500015072525,0.061730400018859655,0.10338370001409203,0.11032700003124774,1.0130452000303194,710.3235131000401,714.5664403000264,,,,,,,,,,,,,,,,,,,,,,,,,,,,,17,B,2023-12-11_10h14.00.000,gca_avoidance_task,2022.2.4,143.9283812417329,
positions.xlsx,stimuli.xlsx,stimuli/Social2.png,stimuli/Social1.png,stimuli/Nonsocial1.png,stimuli/Nonsocial2.png,,"(0.7, -0.5)",cs_minus_ns,,,,,0,0,0,0,,,,,1,13,29,15,,,,,,,,,,,,,,,,,,,,,,,,,,,,,,,,,,,,,,,,,,,,,,,,,,,,,,,,,,,,,,715.0733152999892,716.5593713999842,714.5664403000264,716.5593713999842,716.5593713999842,716.5593713999842,0.00716360000660643,0.012891199963632971,70,reward,1,[0.631709499983117],[0.631713199953083],717.1982084999909,717.1982084999909,0.008647100010421127,0.008647100010421127,0.018765599990729243,0.05338950001168996,0.06043439998757094,0.10206599999219179,0.10900449997279793,1.0047587999724783,720.6911356000346,724.7951639000094,,,,,,,,,,,,,,,,,,,,,,,,,,,,,17,B,2023-12-11_10h14.00.000,gca_avoidance_task,2022.2.4,143.9283812417329,
positions.xlsx,stimuli.xlsx,stimuli/Social2.png,stimuli/Social1.png,stimuli/Nonsocial1.png,stimuli/Nonsocial2.png,,"(0.7, 0.5)",cs_minus_ns,,,,,0,0,0,0,,,,,1,14,30,14,,,,,,,,,,,,,,,,,,,,,,,,,,,,,,,,,,,,,,,,,,,,,,,,,,,,,,,,,,,,,,725.3020411999896,726.8922510999837,724.7951639000094,726.8922510999837,726.8922510999837,726.8922510999837,0.007184899994172156,0.013109699997585267,75,reward,1,[0.7083623000071384],[0.7083662000368349],727.6075423000148,727.6075423000148,0.007397600042168051,0.007397600042168051,0.01829470001393929,0.05296180001460016,0.05994100001407787,0.10154350002994761,0.10856680001597852,1.0043537000310607,731.1004779000068,735.0308636000264,,,,,,,,,,,,,,,,,,,,,,,,,,,,,17,B,2023-12-11_10h14.00.000,gca_avoidance_task,2022.2.4,143.9283812417329,
positions.xlsx,stimuli.xlsx,stimuli/Social2.png,stimuli/Social1.png,stimuli/Nonsocial1.png,stimuli/Nonsocial2.png,,"(-0.7, -0.5)",cs_minus_s,,,,,0,0,0,0,,,,,1,15,31,5,,,,,,,,,,,,,,,,,,,,,,,,,,,,,,,,,,,,,,,,,,,,,,,,,,,,,,,,,,,,,,735.5377709000022,737.4890562000219,735.0308636000264,737.4890562000219,737.4890562000219,737.4890562000219,0.005900299991481006,0.013338199991267174,80,reward,1,[0.5489756999886595],[0.548991699994076],738.09323150001,738.09323150001,0.006958500016480684,0.006958500016480684,0.017231700010597706,0.05189810000592843,0.05886140000075102,0.10052440001163632,0.10748369997600093,1.0032530999742448,741.5861367000034,745.0373978000134,,,,,,,,,,,,,,,,,,,,,,,,,,,,,17,B,2023-12-11_10h14.00.000,gca_avoidance_task,2022.2.4,143.9283812417329,
positions.xlsx,stimuli.xlsx,stimuli/Social2.png,stimuli/Social1.png,stimuli/Nonsocial1.png,stimuli/Nonsocial2.png,,"(0.7, -0.5)",cs_plus_s,,,,,0,0,0,0,,,,,,,,,0,0,0,3,,,,,,,,,,,,,,,,,,,,,,,,,,,,,,,,,,,,,,,,,,,,,,,,,,,,,,,,,,776.8763891999843,778.7860840000212,776.3764542000135,778.7860840000212,778.7860840000212,778.7860840000212,0.005887300008907914,0.013159999973140657,80,none,0,,,783.7928127000341,783.7928127000341,0.013480000023264438,0.013480000023264438,0.019865799986291677,0.054598000016994774,0.061573299986775964,0.10317810002015904,0.11009570001624525,1.0128511000075378,787.2857230000081,791.0564708000165,745.0373978000134,745.0373978000134,745.0373978000134,745.0373978000134,space,28.905591999995522,,,,,,,,,,,,,,,,,,,,,,,17,B,2023-12-11_10h14.00.000,gca_avoidance_task,2022.2.4,143.9283812417329,
positions.xlsx,stimuli.xlsx,stimuli/Social2.png,stimuli/Social1.png,stimuli/Nonsocial1.png,stimuli/Nonsocial2.png,,"(-0.7, -0.5)",cs_minus_ns,,,,,0,0,0,0,,,,,,,,,0,1,1,13,,,,,,,,,,,,,,,,,,,,,,,,,,,,,,,,,,,,,,,,,,,,,,,,,,,,,,,,,,791.5633329999982,793.4243885999895,791.0564708000165,793.4243885999895,793.4243885999895,793.4243885999895,0.0064851000206544995,0.013128700025845319,85,reward,1,[0.61123320000479],[0.6112503000185825],794.0424125000136,794.0424125000136,0.007528000045567751,0.007528000045567751,0.018367000040598214,0.05297380004776642,0.06001280003692955,0.10163810005178675,0.10863730002893135,1.0043852000380866,797.5353161999956,801.8615685999976,,,,,,,,,,,,,,,,,,,,,,,,,,,,,17,B,2023-12-11_10h14.00.000,gca_avoidance_task,2022.2.4,143.9283812417329,
positions.xlsx,stimuli.xlsx,stimuli/Social2.png,stimuli/Social1.png,stimuli/Nonsocial1.png,stimuli/Nonsocial2.png,,"(0.7, 0.5)",cs_minus_s,,,,,0,0,0,0,,,,,,,,,0,2,2,6,,,,,,,,,,,,,,,,,,,,,,,,,,,,,,,,,,,,,,,,,,,,,,,,,,,,,,,,,,802.3684390999842,804.3128487000358,801.8615685999976,804.3128487000358,804.3128487000358,804.3128487000358,0.0065956999897025526,0.012975399964489043,90,reward,1,[0.6248371999827214],[0.6248408000101335],804.9447774,804.9447774,0.006653300020843744,0.006653300020843744,0.01866840000730008,0.05332350003300235,0.06027300003916025,0.10191490000579506,0.10888150002574548,1.0046550999977626,808.4377376000048,812.5764311000239,,,,,,,,,,,,,,,,,,,,,,,,,,,,,17,B,2023-12-11_10h14.00.000,gca_avoidance_task,2022.2.4,143.9283812417329,
positions.xlsx,stimuli.xlsx,stimuli/Social2.png,stimuli/Social1.png,stimuli/Nonsocial1.png,stimuli/Nonsocial2.png,,"(-0.7, 0.5)",cs_minus_ns,,,,,0,0,0,0,,,,,,,,,0,3,3,12,,,,,,,,,,,,,,,,,,,,,,,,,,,,,,,,,,,,,,,,,,,,,,,,,,,,,,,,,,813.0833086000057,814.11799410003,812.5764311000239,814.11799410003,814.11799410003,814.11799410003,0.006720999954268336,0.013364099955651909,95,reward,1,[0.6254696999676526],[0.6254733999958262],814.7499077999964,814.7499077999964,0.008214699977543205,0.008214699977543205,0.018143399967812,0.05281129997456446,0.059786400001030415,0.10140889999456704,0.10837610001908615,1.0041492999880575,818.2428650000365,821.9718997000018,,,,,,,,,,,,,,,,,,,,,,,,,,,,,17,B,2023-12-11_10h14.00.000,gca_avoidance_task,2022.2.4,143.9283812417329,
positions.xlsx,stimuli.xlsx,stimuli/Social2.png,stimuli/Social1.png,stimuli/Nonsocial1.png,stimuli/Nonsocial2.png,,"(0.7, -0.5)",cs_minus_s,,,,,0,0,0,0,,,,,,,,,0,4,4,7,,,,,,,,,,,,,,,,,,,,,,,,,,,,,,,,,,,,,,,,,,,,,,,,,,,,,,,,,,822.478791200032,824.117589200032,821.9718997000018,824.117589200032,824.117589200032,824.117589200032,0.006535799999255687,0.013291200040839612,100,reward,1,[0.6325253000250086],[0.6325288999942131],824.7564602000057,824.7564602000057,0.006911200005561113,0.006911200005561113,0.018655599968042225,0.053264199988916516,0.06024670001352206,0.1019032999756746,0.10884150001220405,1.0046320999972522,828.2494135000161,831.9020558000193,,,,,,,,,,,,,,,,,,,,,,,,,,,,,17,B,2023-12-11_10h14.00.000,gca_avoidance_task,2022.2.4,143.9283812417329,
positions.xlsx,stimuli.xlsx,stimuli/Social2.png,stimuli/Social1.png,stimuli/Nonsocial1.png,stimuli/Nonsocial2.png,,"(0.7, 0.5)",cs_plus_s,,,,,0,0,0,0,,,,,,,,,0,5,5,2,,,,,,,,,,,,,,,,,,,,,,,,,,,,,,,,,,,,,,,,,,,,,,,,,,,,,,,,,,832.4089463999844,833.7075075000175,831.9020558000193,833.7075075000175,833.7075075000175,833.7075075000175,0.006604599999263883,0.013059500022791326,100,none,0,,,838.7142934000003,838.7142934000003,0.013259699975606054,0.013259699975606054,0.01985480001894757,0.05453500000294298,0.06145889998879284,0.10311050002928823,0.11007160000735894,1.0127926000277512,842.2071934000123,846.679219099984,,,,,,,,,,,,,,,,,,,,,,,,,,,,,17,B,2023-12-11_10h14.00.000,gca_avoidance_task,2022.2.4,143.9283812417329,
positions.xlsx,stimuli.xlsx,stimuli/Social2.png,stimuli/Social1.png,stimuli/Nonsocial1.png,stimuli/Nonsocial2.png,,"(0.7, 0.5)",cs_minus_ns,,,,,0,0,0,0,,,,,,,,,0,6,6,14,,,,,,,,,,,,,,,,,,,,,,,,,,,,,,,,,,,,,,,,,,,,,,,,,,,,,,,,,,847.186131399998,848.4985474999994,846.679219099984,848.4985474999994,848.4985474999994,848.4985474999994,0.006679499987512827,0.013345599989406765,105,reward,1,[0.7015931999776512],[0.701596700004302],849.2068820000277,849.2068820000277,0.007451799989212304,0.007451799989212304,0.018525000021327287,0.05321500002173707,0.06019520002882928,0.10183340002549812,0.1088350000209175,1.004609600000549,852.6998459000024,856.8246897000354,,,,,,,,,,,,,,,,,,,,,,,,,,,,,17,B,2023-12-11_10h14.00.000,gca_avoidance_task,2022.2.4,143.9283812417329,
positions.xlsx,stimuli.xlsx,stimuli/Social2.png,stimuli/Social1.png,stimuli/Nonsocial1.png,stimuli/Nonsocial2.png,,"(-0.7, 0.5)",cs_plus_s,,,,,0,0,0,0,,,,,,,,,0,7,7,0,,,,,,,,,,,,,,,,,,,,,,,,,,,,,,,,,,,,,,,,,,,,,,,,,,,,,,,,,,857.3315719999955,859.0884266000357,856.8246897000354,859.0884266000357,859.0884266000357,859.0884266000357,0.006285300012677908,0.013161599985323846,105,none,0,,,864.0951724000042,864.0951724000042,0.013273600023239851,0.013273600023239851,0.019931700022425503,0.05458719999296591,0.06154560000868514,0.10324060003040358,0.110144299978856,1.0129062000196427,867.5881275000283,871.5185737999855,,,,,,,,,,,,,,,,,,,,,,,,,,,,,17,B,2023-12-11_10h14.00.000,gca_avoidance_task,2022.2.4,143.9283812417329,
positions.xlsx,stimuli.xlsx,stimuli/Social2.png,stimuli/Social1.png,stimuli/Nonsocial1.png,stimuli/Nonsocial2.png,,"(-0.7, -0.5)",cs_plus_s,,,,,0,0,0,0,,,,,,,,,0,8,8,1,,,,,,,,,,,,,,,,,,,,,,,,,,,,,,,,,,,,,,,,,,,,,,,,,,,,,,,,,,872.0254386999877,873.1295430000173,871.5185737999855,873.1295430000173,873.1295430000173,873.1295430000173,0.0064762000110931695,0.013416800007689744,105,none,0,,,878.1363602000056,878.1363602000056,0.01398769998922944,0.01398769998922944,0.02028160000918433,0.0549040999612771,0.061836800014134496,0.1035363000119105,0.11049439996713772,1.0131687999819405,881.6292467000312,885.2054931999883,,,,,,,,,,,,,,,,,,,,,,,,,,,,,17,B,2023-12-11_10h14.00.000,gca_avoidance_task,2022.2.4,143.9283812417329,
positions.xlsx,stimuli.xlsx,stimuli/Social2.png,stimuli/Social1.png,stimuli/Nonsocial1.png,stimuli/Nonsocial2.png,,"(-0.7, -0.5)",cs_minus_s,,,,,0,0,0,0,,,,,,,,,0,9,9,5,,,,,,,,,,,,,,,,,,,,,,,,,,,,,,,,,,,,,,,,,,,,,,,,,,,,,,,,,,885.7123645000393,886.8859363000374,885.2054931999883,886.8859363000374,886.8859363000374,886.8859363000374,0.005952500039711595,0.013202400004956871,110,reward,1,[0.7154033000115305],[0.7154067000374198],887.6081409000326,887.6081409000326,0.0066356000024825335,0.0066356000024825335,0.018869500025175512,0.05355539999436587,0.060468000010587275,0.10206850001122802,0.10906210000393912,1.0048468000022694,891.1010975000099,895.5731417000061,,,,,,,,,,,,,,,,,,,,,,,,,,,,,17,B,2023-12-11_10h14.00.000,gca_avoidance_task,2022.2.4,143.9283812417329,
positions.xlsx,stimuli.xlsx,stimuli/Social2.png,stimuli/Social1.png,stimuli/Nonsocial1.png,stimuli/Nonsocial2.png,,"(0.7, -0.5)",cs_minus_ns,,,,,0,0,0,0,,,,,,,,,0,10,10,15,,,,,,,,,,,,,,,,,,,,,,,,,,,,,,,,,,,,,,,,,,,,,,,,,,,,,,,,,,896.0800161000225,897.531364800001,895.5731417000061,897.531364800001,897.531364800001,897.531364800001,0.007334899972192943,0.013234600017312914,115,reward,0,,,898.1632693000138,898.1632693000138,0.00758430000860244,0.00758430000860244,0.01798539998708293,0.05266180000035092,0.05962620000354946,0.10132900002645329,0.10822719999123365,1.0040348999900743,901.6562305000261,905.3436112999916,,,,,,,,,,,,,,,,,,,,,,,,,,,,,17,B,2023-12-11_10h14.00.000,gca_avoidance_task,2022.2.4,143.9283812417329,
positions.xlsx,stimuli.xlsx,stimuli/Social2.png,stimuli/Social1.png,stimuli/Nonsocial1.png,stimuli/Nonsocial2.png,,"(-0.7, 0.5)",cs_minus_s,,,,,0,0,0,0,,,,,,,,,0,11,11,4,,,,,,,,,,,,,,,,,,,,,,,,,,,,,,,,,,,,,,,,,,,,,,,,,,,,,,,,,,905.850460799993,907.7878984999843,905.3436112999916,907.7878984999843,907.7878984999843,907.7878984999843,0.005572499998379499,0.013139599992427975,120,reward,1,[0.6597655999939889],[0.6597691000206396],908.4545224999893,908.4545224999893,0.006938000035006553,0.006938000035006553,0.018320500035770237,0.05293450003955513,0.059952499985229224,0.10160150000592694,0.10855870001250878,1.0042555999825709,911.9475070000044,915.968158600037,,,,,,,,,,,,,,,,,,,,,,,,,,,,,17,B,2023-12-11_10h14.00.000,gca_avoidance_task,2022.2.4,143.9283812417329,
positions.xlsx,stimuli.xlsx,stimuli/Social2.png,stimuli/Social1.png,stimuli/Nonsocial1.png,stimuli/Nonsocial2.png,,"(-0.7, -0.5)",cs_plus_ns,,,,,0,0,0,0,,,,,,,,,0,12,12,9,,,,,,,,,,,,,,,,,,,,,,,,,,,,,,,,,,,,,,,,,,,,,,,,,,,,,,,,,,916.475033499999,918.3222031000187,915.968158600037,918.3222031000187,918.3222031000187,918.3222031000187,0.007133400009479374,0.013055200048256665,120,none,0,,,923.3289714999846,923.3289714999846,0.014063800044823438,0.014063800044823438,0.01987160003045574,0.0544893000042066,0.061444600054528564,0.10312510002404451,0.11003710003569722,1.0128076000255533,926.8218786999932,930.8981205000309,,,,,,,,,,,,,,,,,,,,,,,,,,,,,17,B,2023-12-11_10h14.00.000,gca_avoidance_task,2022.2.4,143.9283812417329,
positions.xlsx,stimuli.xlsx,stimuli/Social2.png,stimuli/Social1.png,stimuli/Nonsocial1.png,stimuli/Nonsocial2.png,,"(-0.7, 0.5)",cs_plus_ns,,,,,0,0,0,0,,,,,,,,,0,13,13,8,,,,,,,,,,,,,,,,,,,,,,,,,,,,,,,,,,,,,,,,,,,,,,,,,,,,,,,,,,931.4050147000235,932.9882947999868,930.8981205000309,932.9882947999868,932.9882947999868,932.9882947999868,0.0065593000035732985,0.013185899995733052,120,none,0,,,937.9950223999913,937.9950223999913,0.0140543999732472,0.0140543999732472,0.019881999993231148,0.05458529997849837,0.06153880001511425,0.10314869997091591,0.11019460001261905,1.0128510000067763,941.4879689000081,945.8489440000267,,,,,,,,,,,,,,,,,,,,,,,,,,,,,17,B,2023-12-11_10h14.00.000,gca_avoidance_task,2022.2.4,143.9283812417329,
positions.xlsx,stimuli.xlsx,stimuli/Social2.png,stimuli/Social1.png,stimuli/Nonsocial1.png,stimuli/Nonsocial2.png,,"(0.7, 0.5)",cs_plus_ns,,,,,0,0,0,0,,,,,,,,,0,14,14,10,,,,,,,,,,,,,,,,,,,,,,,,,,,,,,,,,,,,,,,,,,,,,,,,,,,,,,,,,,946.3558028999832,947.8765868000337,945.8489440000267,947.8765868000337,947.8765868000337,947.8765868000337,0.007067900034599006,0.013549700030125678,120,none,0,,,952.8902819000068,952.8902819000068,0.017707400023937225,0.017707400023937225,0.027259700000286102,0.054987700015772134,0.06189210002776235,0.10356750001665205,0.11052879999624565,1.013294100004714,956.3762637000182,960.7441747999983,,,,,,,,,,,,,,,,,,,,,,,,,,,,,17,B,2023-12-11_10h14.00.000,gca_avoidance_task,2022.2.4,143.9283812417329,
positions.xlsx,stimuli.xlsx,stimuli/Social2.png,stimuli/Social1.png,stimuli/Nonsocial1.png,stimuli/Nonsocial2.png,,"(0.7, -0.5)",cs_plus_ns,,,,,0,0,0,0,,,,,,,,,0,15,15,11,,,,,,,,,,,,,,,,,,,,,,,,,,,,,,,,,,,,,,,,,,,,,,,,,,,,,,,,,,961.2511515000369,962.6468386999913,960.7441747999983,962.6468386999913,962.6468386999913,962.6468386999913,0.007870599976740777,0.013036799966357648,120,none,0,,,967.6536148000159,967.6536148000159,0.015186599979642779,0.015186599979642779,0.0198019000235945,0.054440699983388186,0.061354100005701184,0.10309400002006441,0.11000340001191944,1.0127673000097275,971.1465791999944,975.514408499992,,,,,,,,,,,,,,,,,,,,,,,,,,,,,17,B,2023-12-11_10h14.00.000,gca_avoidance_task,2022.2.4,143.9283812417329,
positions.xlsx,stimuli.xlsx,stimuli/Social2.png,stimuli/Social1.png,stimuli/Nonsocial1.png,stimuli/Nonsocial2.png,,"(0.7, -0.5)",cs_plus_ns,,,,,0,0,0,0,,,,,,,,,1,0,16,11,,,,,,,,,,,,,,,,,,,,,,,,,,,,,,,,,,,,,,,,,,,,,,,,,,,,,,,,,,976.0213180999854,977.1671007000259,975.514408499992,977.1671007000259,977.1671007000259,977.1671007000259,0.008024699985980988,0.01295370003208518,120,none,0,,,982.1807846000302,982.1807846000302,0.015411500004120171,0.015411500004120171,0.026672900014091283,0.05441799998516217,0.06137290003243834,0.10307299997657537,0.10998790001031011,1.0127127000014298,985.6668371999986,989.2430525000091,,,,,,,,,,,,,,,,,,,,,,,,,,,,,17,B,2023-12-11_10h14.00.000,gca_avoidance_task,2022.2.4,143.9283812417329,
positions.xlsx,stimuli.xlsx,stimuli/Social2.png,stimuli/Social1.png,stimuli/Nonsocial1.png,stimuli/Nonsocial2.png,,"(-0.7, 0.5)",cs_minus_s,,,,,0,0,0,0,,,,,,,,,1,1,17,4,,,,,,,,,,,,,,,,,,,,,,,,,,,,,,,,,,,,,,,,,,,,,,,,,,,,,,,,,,989.7499372999882,991.6179446000024,989.2430525000091,991.6179446000024,991.6179446000024,991.6179446000024,0.007126999960746616,0.013153899984899908,125,reward,1,[0.7708260999643244],[0.7708295999909751],992.3957597000408,992.3957597000408,0.008025599992834032,0.008025599992834032,0.018713600002229214,0.05327129998477176,0.06023060000734404,0.10190050001256168,0.10888650000561029,1.0046258000074886,995.8886144999997,999.6732345999917,,,,,,,,,,,,,,,,,,,,,,,,,,,,,17,B,2023-12-11_10h14.00.000,gca_avoidance_task,2022.2.4,143.9283812417329,
positions.xlsx,stimuli.xlsx,stimuli/Social2.png,stimuli/Social1.png,stimuli/Nonsocial1.png,stimuli/Nonsocial2.png,,"(0.7, -0.5)",cs_minus_s,,,,,0,0,0,0,,,,,,,,,1,2,18,7,,,,,,,,,,,,,,,,,,,,,,,,,,,,,,,,,,,,,,,,,,,,,,,,,,,,,,,,,,1000.1800591000356,1001.7355767000117,999.6732345999917,1001.7355767000117,1001.7355767000117,1001.7355767000117,0.0069287000223994255,0.013151600025594234,130,reward,1,[0.6180637000361457],[0.6180677000083961],1002.3605638000299,1002.3605638000299,0.0069963999558240175,0.0069963999558240175,0.018830799963325262,0.05343849997734651,0.06040459999348968,0.10204239998711273,0.10902809997787699,1.0047815999714658,1005.8534698000294,1010.082507300016,,,,,,,,,,,,,,,,,,,,,,,,,,,,,17,B,2023-12-11_10h14.00.000,gca_avoidance_task,2022.2.4,143.9283812417329,
positions.xlsx,stimuli.xlsx,stimuli/Social2.png,stimuli/Social1.png,stimuli/Nonsocial1.png,stimuli/Nonsocial2.png,,"(-0.7, -0.5)",cs_minus_s,,,,,0,0,0,0,,,,,,,,,1,3,19,5,,,,,,,,,,,,,,,,,,,,,,,,,,,,,,,,,,,,,,,,,,,,,,,,,,,,,,,,,,1010.5893866000115,1012.3254221000243,1010.082507300016,1012.3254221000243,1012.3254221000243,1012.3254221000243,0.006856299994979054,0.013039399986155331,135,reward,1,[0.569553499983158],[0.5695571000105701],1012.9018011000007,1012.9018011000007,0.0072885999688878655,0.0072885999688878655,0.018077799992170185,0.0527573999715969,0.05972459999611601,0.10141059994930401,0.10834129998693243,1.0041070999577641,1016.3947120000375,1020.7209841000149,,,,,,,,,,,,,,,,,,,,,,,,,,,,,17,B,2023-12-11_10h14.00.000,gca_avoidance_task,2022.2.4,143.9283812417329,
positions.xlsx,stimuli.xlsx,stimuli/Social2.png,stimuli/Social1.png,stimuli/Nonsocial1.png,stimuli/Nonsocial2.png,,"(-0.7, -0.5)",cs_plus_s,,,,,0,0,0,0,,,,,,,,,1,4,20,1,,,,,,,,,,,,,,,,,,,,,,,,,,,,,,,,,,,,,,,,,,,,,,,,,,,,,,,,,,1021.2278517000377,1023.2277741000289,1020.7209841000149,1023.2277741000289,1023.2277741000289,1023.2277741000289,0.006161199999041855,0.013172800012398511,135,shock,1,[0.36123440001392737],[0.3612379999831319],1023.5958421000396,1023.5958421000396,0.00764949998119846,0.00764949998119846,0.018867500009946525,0.053510300000198185,0.06048099999316037,0.1020849000196904,0.10908500000368804,1.0048577999696136,1027.088791600021,1031.449749100022,,,,,,,,,,,,,,,,,,,,,,,,,,,,,17,B,2023-12-11_10h14.00.000,gca_avoidance_task,2022.2.4,143.9283812417329,
positions.xlsx,stimuli.xlsx,stimuli/Social2.png,stimuli/Social1.png,stimuli/Nonsocial1.png,stimuli/Nonsocial2.png,,"(0.7, 0.5)",cs_minus_s,,,,,0,0,0,0,,,,,,,,,1,5,21,6,,,,,,,,,,,,,,,,,,,,,,,,,,,,,,,,,,,,,,,,,,,,,,,,,,,,,,,,,,1031.9566179999965,1033.0399150000303,1031.449749100022,1033.0399150000303,1033.0399150000303,1033.0399150000303,0.007154799997806549,0.01324100000783801,140,reward,1,[0.5627325999666937],[0.5627362999948673],1033.6093422999838,1033.6093422999838,0.008421900041867048,0.008421900041867048,0.018672400037758052,0.053261600027326494,0.06023480003932491,0.10189330001594499,0.10887700004968792,1.004657200013753,1037.1022660000017,1041.1438155000214,,,,,,,,,,,,,,,,,,,,,,,,,,,,,17,B,2023-12-11_10h14.00.000,gca_avoidance_task,2022.2.4,143.9283812417329,
positions.xlsx,stimuli.xlsx,stimuli/Social2.png,stimuli/Social1.png,stimuli/Nonsocial1.png,stimuli/Nonsocial2.png,,"(0.7, -0.5)",cs_minus_ns,,,,,0,0,0,0,,,,,,,,,1,6,22,15,,,,,,,,,,,,,,,,,,,,,,,,,,,,,,,,,,,,,,,,,,,,,,,,,,,,,,,,,,1041.6506644000183,1042.7617456000298,1041.1438155000214,1042.7617456000298,1042.7617456000298,1042.7617456000298,0.007597999996505678,0.013333200011402369,145,reward,1,[0.8127461000112817],[0.8127499000402167],1043.5811680000043,1043.5811680000043,0.008743899990804493,0.008743899990804493,0.018104699964169413,0.052803599974140525,0.05974269995931536,0.10137980000581592,0.10834679997060448,1.0041719999862835,1047.074115000025,1051.0531228000182,,,,,,,,,,,,,,,,,,,,,,,,,,,,,17,B,2023-12-11_10h14.00.000,gca_avoidance_task,2022.2.4,143.9283812417329,
positions.xlsx,stimuli.xlsx,stimuli/Social2.png,stimuli/Social1.png,stimuli/Nonsocial1.png,stimuli/Nonsocial2.png,,"(-0.7, 0.5)",cs_plus_ns,,,,,0,0,0,0,,,,,,,,,1,7,23,8,,,,,,,,,,,,,,,,,,,,,,,,,,,,,,,,,,,,,,,,,,,,,,,,,,,,,,,,,,1051.5600008000038,1053.0877371000242,1051.0531228000182,1053.0877371000242,1053.0877371000242,1053.0877371000242,0.007925199985038489,0.013149899954441935,145,none,0,,,1058.1013958000112,1058.1013958000112,0.015313899959437549,0.015313899959437549,0.02681859995936975,0.054544399958103895,0.06152960000326857,0.10316649999003857,0.11012669996125624,1.01286939997226,1061.5874047999969,1065.5942200000281,,,,,,,,,,,,,,,,,,,,,,,,,,,,,17,B,2023-12-11_10h14.00.000,gca_avoidance_task,2022.2.4,143.9283812417329,
positions.xlsx,stimuli.xlsx,stimuli/Social2.png,stimuli/Social1.png,stimuli/Nonsocial1.png,stimuli/Nonsocial2.png,,"(0.7, -0.5)",cs_plus_s,,,,,0,0,0,0,,,,,,,,,1,8,24,3,,,,,,,,,,,,,,,,,,,,,,,,,,,,,,,,,,,,,,,,,,,,,,,,,,,,,,,,,,1066.1010982000153,1067.49686449999,1065.5942200000281,1067.49686449999,1067.49686449999,1067.49686449999,0.0064400999690406024,0.012973099946975708,145,none,0,,,1072.503611400025,1072.503611400025,0.013117099995724857,0.013117099995724857,0.01975429995218292,0.05440429999725893,0.06135019997600466,0.10303319996455684,0.10999349999474362,1.0127353999996558,1075.9965818999917,1079.899206000031,,,,,,,,,,,,,,,,,,,,,,,,,,,,,17,B,2023-12-11_10h14.00.000,gca_avoidance_task,2022.2.4,143.9283812417329,
positions.xlsx,stimuli.xlsx,stimuli/Social2.png,stimuli/Social1.png,stimuli/Nonsocial1.png,stimuli/Nonsocial2.png,,"(-0.7, 0.5)",cs_minus_ns,,,,,0,0,0,0,,,,,,,,,1,9,25,12,,,,,,,,,,,,,,,,,,,,,,,,,,,,,,,,,,,,,,,,,,,,,,,,,,,,,,,,,,1080.4061003000243,1081.5310365000041,1079.899206000031,1081.5310365000041,1081.5310365000041,1081.5310365000041,0.007380799972452223,0.01340409996919334,150,reward,1,[0.7018737000180408],[0.7087758000125177],1082.246286300011,1082.246286300011,0.007939599978271872,0.007939599978271872,0.01807849999750033,0.05279439996229485,0.059737699979450554,0.10135669994633645,0.10829699999885634,1.0041164999711327,1085.739255100023,1089.7599397000158,,,,,,,,,,,,,,,,,,,,,,,,,,,,,17,B,2023-12-11_10h14.00.000,gca_avoidance_task,2022.2.4,143.9283812417329,
positions.xlsx,stimuli.xlsx,stimuli/Social2.png,stimuli/Social1.png,stimuli/Nonsocial1.png,stimuli/Nonsocial2.png,,"(0.7, 0.5)",cs_minus_ns,,,,,0,0,0,0,,,,,,,,,1,10,26,14,,,,,,,,,,,,,,,,,,,,,,,,,,,,,,,,,,,,,,,,,,,,,,,,,,,,,,,,,,1090.2668050000211,1091.7320402000332,1089.7599397000158,1091.7320402000332,1091.7320402000332,1091.7320402000332,0.00671320001129061,0.012998800026252866,155,reward,1,[0.7083083000034094],[0.708312000031583],1092.4472782000084,1092.4472782000084,0.007316800008993596,0.007316800008993596,0.018851600005291402,0.053528100019320846,0.06049550004536286,0.10217510000802577,0.1091281000408344,1.0048442000406794,1095.9402322000242,1100.3011833000346,,,,,,,,,,,,,,,,,,,,,,,,,,,,,17,B,2023-12-11_10h14.00.000,gca_avoidance_task,2022.2.4,143.9283812417329,
positions.xlsx,stimuli.xlsx,stimuli/Social2.png,stimuli/Social1.png,stimuli/Nonsocial1.png,stimuli/Nonsocial2.png,,"(-0.7, -0.5)",cs_minus_ns,,,,,0,0,0,0,,,,,,,,,1,11,27,13,,,,,,,,,,,,,,,,,,,,,,,,,,,,,,,,,,,,,,,,,,,,,,,,,,,,,,,,,,1100.8080491999863,1102.8149165000068,1100.3011833000346,1102.8149165000068,1102.8149165000068,1102.8149165000068,0.0070324999978765845,0.013212400022894144,160,reward,1,[0.7571356000262313],[0.7571394999977201],1103.5787809999892,1103.5787809999892,0.007146799995098263,0.007146799995098263,0.018595299974549562,0.0532721999916248,0.0601971999858506,0.10185499995714054,0.10885049996431917,1.0046320999972522,1107.071753300028,1110.9535331000225,,,,,,,,,,,,,,,,,,,,,,,,,,,,,17,B,2023-12-11_10h14.00.000,gca_avoidance_task,2022.2.4,143.9283812417329,
positions.xlsx,stimuli.xlsx,stimuli/Social2.png,stimuli/Social1.png,stimuli/Nonsocial1.png,stimuli/Nonsocial2.png,,"(0.7, 0.5)",cs_plus_ns,,,,,0,0,0,0,,,,,,,,,1,12,28,10,,,,,,,,,,,,,,,,,,,,,,,,,,,,,,,,,,,,,,,,,,,,,,,,,,,,,,,,,,1111.4603775999858,1112.7520477999933,1110.9535331000225,1112.7520477999933,1112.7520477999933,1112.7520477999933,0.007103299954906106,0.013136299967300147,160,none,0,,,1117.7657193000196,1117.7657193000196,0.015011099982075393,0.015011099982075393,0.026817699952516705,0.05455069994786754,0.061508099955972284,0.10318069998174906,0.1101807999657467,1.0128612999687903,1121.2517047000001,1125.4460361000383,,,,,,,,,,,,,,,,,,,,,,,,,,,,,17,B,2023-12-11_10h14.00.000,gca_avoidance_task,2022.2.4,143.9283812417329,
positions.xlsx,stimuli.xlsx,stimuli/Social2.png,stimuli/Social1.png,stimuli/Nonsocial1.png,stimuli/Nonsocial2.png,,"(-0.7, 0.5)",cs_plus_s,,,,,0,0,0,0,,,,,,,,,1,13,29,0,,,,,,,,,,,,,,,,,,,,,,,,,,,,,,,,,,,,,,,,,,,,,,,,,,,,,,,,,,1125.9528867999907,1127.5222968999879,1125.4460361000383,1127.5222968999879,1127.5222968999879,1127.5222968999879,0.0062123999814502895,0.012826499994844198,160,none,0,,,1132.5290619999869,1132.5290619999869,0.01395829999819398,0.01395829999819398,0.019609800016041845,0.0542841000133194,0.06125989998690784,0.10292680002748966,0.10984739998821169,1.0125916000106372,1136.0219831999857,1139.9037923000287,,,,,,,,,,,,,,,,,,,,,,,,,,,,,17,B,2023-12-11_10h14.00.000,gca_avoidance_task,2022.2.4,143.9283812417329,
positions.xlsx,stimuli.xlsx,stimuli/Social2.png,stimuli/Social1.png,stimuli/Nonsocial1.png,stimuli/Nonsocial2.png,,"(0.7, 0.5)",cs_plus_s,,,,,0,0,0,0,,,,,,,,,1,14,30,2,,,,,,,,,,,,,,,,,,,,,,,,,,,,,,,,,,,,,,,,,,,,,,,,,,,,,,,,,,1140.4106914000004,1142.1189501000335,1139.9037923000287,1142.1189501000335,1142.1189501000335,1142.1189501000335,0.005509499984327704,0.013235799968242645,160,none,0,,,1147.1256851000362,1147.1256851000362,0.013162999995984137,0.013162999995984137,0.02001199999358505,0.05465900001581758,0.06165099999634549,0.10325169999850914,0.11022279999451712,1.0129681999678724,1150.618641100009,1154.812933899986,,,,,,,,,,,,,,,,,,,,,,,,,,,,,17,B,2023-12-11_10h14.00.000,gca_avoidance_task,2022.2.4,143.9283812417329,
positions.xlsx,stimuli.xlsx,stimuli/Social2.png,stimuli/Social1.png,stimuli/Nonsocial1.png,stimuli/Nonsocial2.png,,"(-0.7, -0.5)",cs_plus_ns,,,,,0,0,0,0,,,,,,,,,1,15,31,9,,,,,,,,,,,,,,,,,,,,,,,,,,,,,,,,,,,,,,,,,,,,,,,,,,,,,,,,,,1155.319791499991,1157.104465499986,1154.812933899986,1157.104465499986,1157.104465499986,1157.104465499986,0.007106499979272485,0.0133907999843359,160,none,0,,,1162.1112000999856,1162.1112000999856,0.015125199977774173,0.015125199977774173,0.020135600003413856,0.05480869999155402,0.061813500011339784,0.10340459999861196,0.11036069999681786,1.0130913999746554,1165.604152999993,1169.965144100017,,,,,,,,,,,,,,,,,,,,,,,,,,,,,17,B,2023-12-11_10h14.00.000,gca_avoidance_task,2022.2.4,143.9283812417329,
positions.xlsx,stimuli.xlsx,stimuli/Social2.png,stimuli/Social1.png,stimuli/Nonsocial1.png,stimuli/Nonsocial2.png,,"(0.7, 0.5)",cs_plus_ns,,,,,0,0,0,0,,,,,,,,,2,0,32,10,,,,,,,,,,,,,,,,,,,,,,,,,,,,,,,,,,,,,,,,,,,,,,,,,,,,,,,,,,1170.4719642000273,1171.8746951000066,1169.965144100017,1171.8746951000066,1171.8746951000066,1171.8746951000066,0.007401899958495051,0.01307669997913763,160,none,0,,,1176.8814223000081,1176.8814223000081,0.013859500002581626,0.013859500002581626,0.019809799967333674,0.05458269995870069,0.061552600003778934,0.10312439996050671,0.11011059995507821,1.0128128999494947,1180.3743932000361,1184.3187205999857,,,,,,,,,,,,,,,,,,,,,,,,,,,,,17,B,2023-12-11_10h14.00.000,gca_avoidance_task,2022.2.4,143.9283812417329,
positions.xlsx,stimuli.xlsx,stimuli/Social2.png,stimuli/Social1.png,stimuli/Nonsocial1.png,stimuli/Nonsocial2.png,,"(-0.7, -0.5)",cs_plus_s,,,,,0,0,0,0,,,,,,,,,2,1,33,1,,,,,,,,,,,,,,,,,,,,,,,,,,,,,,,,,,,,,,,,,,,,,,,,,,,,,,,,,,1184.8256152000395,1186.714461399999,1184.3187205999857,1186.714461399999,1186.714461399999,1186.714461399999,0.005695700005162507,0.013075600028969347,160,none,0,,,1191.721174300008,1191.721174300008,0.012984500033780932,0.012984500033780932,0.01980900001944974,0.05447580001782626,0.061438500008080155,0.10309859999688342,0.11004870000761002,1.0127659999998286,1195.21408960002,1198.8181342000025,,,,,,,,,,,,,,,,,,,,,,,,,,,,,17,B,2023-12-11_10h14.00.000,gca_avoidance_task,2022.2.4,143.9283812417329,
positions.xlsx,stimuli.xlsx,stimuli/Social2.png,stimuli/Social1.png,stimuli/Nonsocial1.png,stimuli/Nonsocial2.png,,"(0.7, 0.5)",cs_minus_ns,,,,,0,0,0,0,,,,,,,,,2,2,34,14,,,,,,,,,,,,,,,,,,,,,,,,,,,,,,,,,,,,,,,,,,,,,,,,,,,,,,,,,,1199.325019699987,1200.9430003000307,1198.8181342000025,1200.9430003000307,1200.9430003000307,1200.9430003000307,0.006692200026009232,0.013124800054356456,165,reward,1,[0.8751472000149079],[0.8751510000438429],1201.8249042000389,1201.8249042000389,0.007810399984009564,0.007810399984009564,0.018224700004793704,0.05291109997779131,0.05988969997270033,0.10152529994957149,0.10846229997696355,1.004254499974195,1205.3178317000275,1209.637176499993,,,,,,,,,,,,,,,,,,,,,,,,,,,,,17,B,2023-12-11_10h14.00.000,gca_avoidance_task,2022.2.4,143.9283812417329,
positions.xlsx,stimuli.xlsx,stimuli/Social2.png,stimuli/Social1.png,stimuli/Nonsocial1.png,stimuli/Nonsocial2.png,,"(0.7, -0.5)",cs_plus_ns,,,,,0,0,0,0,,,,,,,,,2,3,35,11,,,,,,,,,,,,,,,,,,,,,,,,,,,,,,,,,,,,,,,,,,,,,,,,,,,,,,,,,,1210.1440612000297,1212.081467400014,1209.637176499993,1212.081467400014,1212.081467400014,1212.081467400014,0.006800000031944364,0.01333290000911802,165,none,0,,,1217.0881994999945,1217.0881994999945,0.013892900024075061,0.013892900024075061,0.02001650002785027,0.05469930003164336,0.0616749000037089,0.1033441000035964,0.11027430003741756,1.0129871999961324,1220.5811690000119,1225.0601460000034,,,,,,,,,,,,,,,,,,,,,,,,,,,,,17,B,2023-12-11_10h14.00.000,gca_avoidance_task,2022.2.4,143.9283812417329,
positions.xlsx,stimuli.xlsx,stimuli/Social2.png,stimuli/Social1.png,stimuli/Nonsocial1.png,stimuli/Nonsocial2.png,,"(0.7, -0.5)",cs_minus_ns,,,,,0,0,0,0,,,,,,,,,2,4,36,15,,,,,,,,,,,,,,,,,,,,,,,,,,,,,,,,,,,,,,,,,,,,,,,,,,,,,,,,,,1225.567040199996,1226.7197914000135,1225.0601460000034,1226.7197914000135,1226.7197914000135,1226.7197914000135,0.006735700007993728,0.013163099996745586,170,reward,1,[0.298830000043381],[0.29883370001334697],1227.0253294000286,1227.0253294000286,0.00815759995020926,0.00815759995020926,0.018494099960662425,0.05313349998323247,0.06009039998752996,0.10175179998623207,0.10873599996557459,1.0044570000027306,1230.518299999996,1234.9417021999834,,,,,,,,,,,,,,,,,,,,,,,,,,,,,17,B,2023-12-11_10h14.00.000,gca_avoidance_task,2022.2.4,143.9283812417329,
positions.xlsx,stimuli.xlsx,stimuli/Social2.png,stimuli/Social1.png,stimuli/Nonsocial1.png,stimuli/Nonsocial2.png,,"(-0.7, -0.5)",cs_plus_ns,,,,,0,0,0,0,,,,,,,,,2,5,37,9,,,,,,,,,,,,,,,,,,,,,,,,,,,,,,,,,,,,,,,,,,,,,,,,,,,,,,,,,,1235.4485814000363,1236.9901966000325,1234.9417021999834,1236.9901966000325,1236.9901966000325,1236.9901966000325,0.006292900012340397,0.01339520001783967,170,none,0,,,1241.9969496999984,1241.9969496999984,0.01492859999416396,0.01492859999416396,0.020191700023133308,0.05484019999857992,0.061745300015900284,0.1034421999938786,0.11041550000663847,1.0131538999849,1245.4899123000214,1249.2258630000288,,,,,,,,,,,,,,,,,,,,,,,,,,,,,17,B,2023-12-11_10h14.00.000,gca_avoidance_task,2022.2.4,143.9283812417329,
positions.xlsx,stimuli.xlsx,stimuli/Social2.png,stimuli/Social1.png,stimuli/Nonsocial1.png,stimuli/Nonsocial2.png,,"(-0.7, -0.5)",cs_minus_s,,,,,0,0,0,0,,,,,,,,,2,6,38,5,,,,,,,,,,,,,,,,,,,,,,,,,,,,,,,,,,,,,,,,,,,,,,,,,,,,,,,,,,1249.7327421000227,1250.8715816999902,1249.2258630000288,1250.8715816999902,1250.8715816999902,1250.8715816999902,0.006778799986932427,0.013197300024330616,175,reward,1,[0.5488591999746859],[0.548863000003621],1251.4271557999891,1251.4271557999891,0.006732800044119358,0.006732800044119358,0.01804140000604093,0.052677800005767494,0.05962680000811815,0.10123850003583357,0.1082153000170365,1.0040532000130042,1254.9200840999838,1259.29490670003,,,,,,,,,,,,,,,,,,,,,,,,,,,,,17,B,2023-12-11_10h14.00.000,gca_avoidance_task,2022.2.4,143.9283812417329,
positions.xlsx,stimuli.xlsx,stimuli/Social2.png,stimuli/Social1.png,stimuli/Nonsocial1.png,stimuli/Nonsocial2.png,,"(0.7, -0.5)",cs_plus_s,,,,,0,0,0,0,,,,,,,,,2,7,39,3,,,,,,,,,,,,,,,,,,,,,,,,,,,,,,,,,,,,,,,,,,,,,,,,,,,,,,,,,,1259.8018119999906,1261.5100661999895,1259.29490670003,1261.5100661999895,1261.5100661999895,1261.5100661999895,0.006496399990282953,0.013237199978902936,175,none,0,,,1266.523751300003,1266.523751300003,0.01489589997800067,0.01489589997800067,0.026933800021652132,0.05466670001624152,0.06160820001969114,0.10324119997676462,0.11022039997624233,1.0130208000191487,1270.0097392000025,1274.1623932000366,,,,,,,,,,,,,,,,,,,,,,,,,,,,,17,B,2023-12-11_10h14.00.000,gca_avoidance_task,2022.2.4,143.9283812417329,
positions.xlsx,stimuli.xlsx,stimuli/Social2.png,stimuli/Social1.png,stimuli/Nonsocial1.png,stimuli/Nonsocial2.png,,"(-0.7, -0.5)",cs_minus_ns,,,,,0,0,0,0,,,,,,,,,2,8,40,13,,,,,,,,,,,,,,,,,,,,,,,,,,,,,,,,,,,,,,,,,,,,,,,,,,,,,,,,,,1274.669288700039,1276.0372713000397,1274.1623932000366,1276.0372713000397,1276.0372713000397,1276.0372713000397,0.007871700043324381,0.013222500041592866,180,reward,1,[0.4794135999982245],[0.4794174000271596],1276.5233851000085,1276.5233851000085,0.0077939999755471945,0.0077939999755471945,0.01865929999621585,0.05329899996286258,0.06019029999151826,0.10182219999842346,0.10877809999510646,1.0045827999711037,1280.01633090002,1283.7314794000122,,,,,,,,,,,,,,,,,,,,,,,,,,,,,17,B,2023-12-11_10h14.00.000,gca_avoidance_task,2022.2.4,143.9283812417329,
positions.xlsx,stimuli.xlsx,stimuli/Social2.png,stimuli/Social1.png,stimuli/Nonsocial1.png,stimuli/Nonsocial2.png,,"(0.7, 0.5)",cs_plus_s,,,,,0,0,0,0,,,,,,,,,2,9,41,2,,,,,,,,,,,,,,,,,,,,,,,,,,,,,,,,,,,,,,,,,,,,,,,,,,,,,,,,,,1284.2383323000395,1286.2243873000261,1283.7314794000122,1286.2243873000261,1286.2243873000261,1286.2243873000261,0.006358699989505112,0.013151700026355684,180,none,0,,,1291.2311124000116,1291.2311124000116,0.013511600031051785,0.013511600031051785,0.01985780004179105,0.05454480001935735,0.06152360001578927,0.10315830004401505,0.11010340001666918,1.0128485999885015,1294.7240822000313,1299.0017190999934,,,,,,,,,,,,,,,,,,,,,,,,,,,,,17,B,2023-12-11_10h14.00.000,gca_avoidance_task,2022.2.4,143.9283812417329,
positions.xlsx,stimuli.xlsx,stimuli/Social2.png,stimuli/Social1.png,stimuli/Nonsocial1.png,stimuli/Nonsocial2.png,,"(-0.7, 0.5)",cs_minus_s,,,,,0,0,0,0,,,,,,,,,2,10,42,4,,,,,,,,,,,,,,,,,,,,,,,,,,,,,,,,,,,,,,,,,,,,,,,,,,,,,,,,,,1299.5085962000303,1301.1334824000369,1299.0017190999934,1301.1334824000369,1301.1334824000369,1301.1334824000369,0.006176900002174079,0.013211899960879236,185,reward,1,[0.6743753000046127],[0.6743788999738172],1301.8140572999837,1301.8140572999837,0.008029999968130141,0.008029999968130141,0.01815119996899739,0.0527942999615334,0.05971939995652065,0.10136609995970502,0.10834569996222854,1.0041211999487132,1305.3070183999953,1309.515127599996,,,,,,,,,,,,,,,,,,,,,,,,,,,,,17,B,2023-12-11_10h14.00.000,gca_avoidance_task,2022.2.4,143.9283812417329,
positions.xlsx,stimuli.xlsx,stimuli/Social2.png,stimuli/Social1.png,stimuli/Nonsocial1.png,stimuli/Nonsocial2.png,,"(0.7, -0.5)",cs_minus_s,,,,,0,0,0,0,,,,,,,,,2,11,43,7,,,,,,,,,,,,,,,,,,,,,,,,,,,,,,,,,,,,,,,,,,,,,,,,,,,,,,,,,,1310.0220587000367,1311.5844784000074,1309.515127599996,1311.5844784000074,1311.5844784000074,1311.5844784000074,0.006037100043613464,0.01288400002522394,190,reward,1,[0.6807058000122197],[0.6807095000403933],1312.271966600034,1312.271966600034,0.007083900040015578,0.007083900040015578,0.018383400049060583,0.0530058000003919,0.05996980000054464,0.10164210002403706,0.10859070002334192,1.004364299995359,1315.7649079000112,1320.1258564000018,,,,,,,,,,,,,,,,,,,,,,,,,,,,,17,B,2023-12-11_10h14.00.000,gca_avoidance_task,2022.2.4,143.9283812417329,
positions.xlsx,stimuli.xlsx,stimuli/Social2.png,stimuli/Social1.png,stimuli/Nonsocial1.png,stimuli/Nonsocial2.png,,"(-0.7, 0.5)",cs_plus_s,,,,,0,0,0,0,,,,,,,,,2,12,44,0,,,,,,,,,,,,,,,,,,,,,,,,,,,,,,,,,,,,,,,,,,,,,,,,,,,,,,,,,,1320.6327355999965,1322.361839900026,1320.1258564000018,1322.361839900026,1322.361839900026,1322.361839900026,0.006757499999366701,0.013341500016395003,190,none,0,,,1327.3685892000212,1327.3685892000212,0.01351970003452152,0.01351970003452152,0.020076800021342933,0.05481160001363605,0.06172410002909601,0.1033752000075765,0.11035360000096262,1.0130472000455484,1330.8614900000393,1334.3891751000192,,,,,,,,,,,,,,,,,,,,,,,,,,,,,17,B,2023-12-11_10h14.00.000,gca_avoidance_task,2022.2.4,143.9283812417329,
positions.xlsx,stimuli.xlsx,stimuli/Social2.png,stimuli/Social1.png,stimuli/Nonsocial1.png,stimuli/Nonsocial2.png,,"(0.7, 0.5)",cs_minus_s,,,,,0,0,0,0,,,,,,,,,2,13,45,6,,,,,,,,,,,,,,,,,,,,,,,,,,,,,,,,,,,,,,,,,,,,,,,,,,,,,,,,,,1334.8960817999905,1336.0904663000256,1334.3891751000192,1336.0904663000256,1336.0904663000256,1336.0904663000256,0.005814499978441745,0.013105000020004809,195,reward,1,[0.7015282000065781],[0.7015319999773055],1336.7987932999968,1336.7987932999968,0.006940099992789328,0.006940099992789328,0.01839119999203831,0.053033299976959825,0.05998959997668862,0.10167669999646023,0.10867190000135452,1.0044069000286981,1340.2916941000149,1343.8818855999853,,,,,,,,,,,,,,,,,,,,,,,,,,,,,17,B,2023-12-11_10h14.00.000,gca_avoidance_task,2022.2.4,143.9283812417329,
positions.xlsx,stimuli.xlsx,stimuli/Social2.png,stimuli/Social1.png,stimuli/Nonsocial1.png,stimuli/Nonsocial2.png,,"(-0.7, 0.5)",cs_plus_ns,,,,,0,0,0,0,,,,,,,,,2,14,46,8,,,,,,,,,,,,,,,,,,,,,,,,,,,,,,,,,,,,,,,,,,,,,,,,,,,,,,,,,,1344.3887576999841,1345.6872842999874,1343.8818855999853,1345.6872842999874,1345.6872842999874,1345.6872842999874,0.006518700043670833,0.013052300026174635,195,none,0,,,1350.6940901000053,1350.6940901000053,0.013980599993374199,0.013980599993374199,0.01989380002487451,0.05452420003712177,0.06141520000528544,0.10311530000763014,0.110101800004486,1.0128110999939963,1354.1869999000337,1357.936870500038,,,,,,,,,,,,,,,,,,,,,,,,,,,,,17,B,2023-12-11_10h14.00.000,gca_avoidance_task,2022.2.4,143.9283812417329,
positions.xlsx,stimuli.xlsx,stimuli/Social2.png,stimuli/Social1.png,stimuli/Nonsocial1.png,stimuli/Nonsocial2.png,,"(-0.7, 0.5)",cs_minus_ns,,,,,0,0,0,0,,,,,,,,,2,15,47,12,,,,,,,,,,,,,,,,,,,,,,,,,,,,,,,,,,,,,,,,,,,,,,,,,,,,,,,,,,1358.4437525999965,1359.5062170000165,1357.936870500038,1359.5062170000165,1359.5062170000165,1359.5062170000165,0.006247800018172711,0.013204300019424409,200,reward,1,[0.8128266999847256],[0.8128304000128992],1360.3256253,1360.3256253,0.00768649997189641,0.00768649997189641,0.018186300003435463,0.05289769999217242,0.05985109996981919,0.1015000999905169,0.10847899998771027,1.0042488999897614,1363.8185389999999,1367.5892993999878,,,,,,,,,,,,,,,,,,,,,,,,,,,,,17,B,2023-12-11_10h14.00.000,gca_avoidance_task,2022.2.4,143.9283812417329,
positions.xlsx,stimuli.xlsx,stimuli/Social2.png,stimuli/Social1.png,stimuli/Nonsocial1.png,stimuli/Nonsocial2.png,,"(0.7, 0.5)",cs_plus_s,,,,,0,0,0,0,,,,,,,,,3,0,48,2,,,,,,,,,,,,,,,,,,,,,,,,,,,,,,,,,,,,,,,,,,,,,,,,,,,,,,,,,,1368.0961841000244,1370.0752446000115,1367.5892993999878,1370.0752446000115,1370.0752446000115,1370.0752446000115,0.005967099976260215,0.013324400002602488,200,none,0,,,1375.0889356000116,1375.0889356000116,0.014753299998119473,0.014753299998119473,0.027066299982834607,0.05475979996845126,0.061724499973934144,0.10337689996231347,0.11028729996178299,1.0130779999890365,1378.5749144000001,1382.262268099992,,,,,,,,,,,,,,,,,,,,,,,,,,,,,17,B,2023-12-11_10h14.00.000,gca_avoidance_task,2022.2.4,143.9283812417329,
positions.xlsx,stimuli.xlsx,stimuli/Social2.png,stimuli/Social1.png,stimuli/Nonsocial1.png,stimuli/Nonsocial2.png,,"(-0.7, -0.5)",cs_minus_ns,,,,,0,0,0,0,,,,,,,,,3,1,49,13,,,,,,,,,,,,,,,,,,,,,,,,,,,,,,,,,,,,,,,,,,,,,,,,,,,,,,,,,,1382.7691801000037,1383.866375099984,1382.262268099992,1383.866375099984,1383.866375099984,1383.866375099984,0.0063381000072695315,0.013410999963525683,205,reward,1,[0.5906196999712847],[0.5906232999986969],1384.4636012000265,1384.4636012000265,0.0069833999732509255,0.0069833999732509255,0.018458399979863316,0.053087999986018986,0.060061999945901334,0.10170609998749569,0.10866299999179319,1.0044640999985859,1387.9565183999948,1391.5814036999946,,,,,,,,,,,,,,,,,,,,,,,,,,,,,17,B,2023-12-11_10h14.00.000,gca_avoidance_task,2022.2.4,143.9283812417329,
positions.xlsx,stimuli.xlsx,stimuli/Social2.png,stimuli/Social1.png,stimuli/Nonsocial1.png,stimuli/Nonsocial2.png,,"(0.7, 0.5)",cs_minus_s,,,,,0,0,0,0,,,,,,,,,3,2,50,6,,,,,,,,,,,,,,,,,,,,,,,,,,,,,,,,,,,,,,,,,,,,,,,,,,,,,,,,,,1392.088263200014,1393.4910210000235,1391.5814036999946,1393.4910210000235,1393.4910210000235,1393.4910210000235,0.00596779998159036,0.013240400003269315,210,reward,1,[0.6044501999858767],[0.6044539000140503],1394.1020740999957,1394.1020740999957,0.0071792000089772046,0.0071792000089772046,0.017997600021772087,0.05271289998199791,0.05973490001633763,0.10131030000047758,0.10826800001086667,1.0040698000229895,1397.5950071000261,1401.5393500000355,,,,,,,,,,,,,,,,,,,,,,,,,,,,,17,B,2023-12-11_10h14.00.000,gca_avoidance_task,2022.2.4,143.9283812417329,
positions.xlsx,stimuli.xlsx,stimuli/Social2.png,stimuli/Social1.png,stimuli/Nonsocial1.png,stimuli/Nonsocial2.png,,"(0.7, -0.5)",cs_plus_ns,,,,,0,0,0,0,,,,,,,,,3,3,51,11,,,,,,,,,,,,,,,,,,,,,,,,,,,,,,,,,,,,,,,,,,,,,,,,,,,,,,,,,,1402.0462016999954,1403.7336585000157,1401.5393500000355,1403.7336585000157,1403.7336585000157,1403.7336585000157,0.007216400001198053,0.013106900034472346,210,none,0,,,1408.7403966999846,1408.7403966999846,0.01399230002425611,0.01399230002425611,0.019850300042890012,0.05447140004253015,0.06145370000740513,0.10313160001533106,0.1100948000093922,1.0128407000447623,1412.2333947999869,1415.7887614000356,,,,,,,,,,,,,,,,,,,,,,,,,,,,,17,B,2023-12-11_10h14.00.000,gca_avoidance_task,2022.2.4,143.9283812417329,
positions.xlsx,stimuli.xlsx,stimuli/Social2.png,stimuli/Social1.png,stimuli/Nonsocial1.png,stimuli/Nonsocial2.png,,"(-0.7, 0.5)",cs_minus_s,,,,,0,0,0,0,,,,,,,,,3,4,52,4,,,,,,,,,,,,,,,,,,,,,,,,,,,,,,,,,,,,,,,,,,,,,,,,,,,,,,,,,,1416.295627399988,1417.6289296000032,1415.7887614000356,1417.6289296000032,1417.6289296000032,1417.6289296000032,0.006007599993608892,0.013066499959677458,215,reward,1,[0.6181705999770202],[0.6181741000036709],1418.2539740999928,1418.2539740999928,0.007610499975271523,0.007610499975271523,0.018274699978064746,0.0529060999979265,0.059814399981405586,0.10147749999305233,0.10846099996706471,1.004260100016836,1421.7468328000396,1426.052285199985,,,,,,,,,,,,,,,,,,,,,,,,,,,,,17,B,2023-12-11_10h14.00.000,gca_avoidance_task,2022.2.4,143.9283812417329,
positions.xlsx,stimuli.xlsx,stimuli/Social2.png,stimuli/Social1.png,stimuli/Nonsocial1.png,stimuli/Nonsocial2.png,,"(0.7, -0.5)",cs_plus_s,,,,,0,0,0,0,,,,,,,,,3,5,53,3,,,,,,,,,,,,,,,,,,,,,,,,,,,,,,,,,,,,,,,,,,,,,,,,,,,,,,,,,,1426.5591398000252,1428.1702010000008,1426.052285199985,1428.1702010000008,1428.1702010000008,1428.1702010000008,0.007008899992797524,0.013182699971366674,215,none,0,,,1433.1769267999916,1433.1769267999916,0.013744700001552701,0.013744700001552701,0.019915899960324168,0.05461529997410253,0.061553899955470115,0.10319569997955114,0.11019559996202588,1.0129502999479882,1436.6698510000133,1440.4058527000016,,,,,,,,,,,,,,,,,,,,,,,,,,,,,17,B,2023-12-11_10h14.00.000,gca_avoidance_task,2022.2.4,143.9283812417329,
positions.xlsx,stimuli.xlsx,stimuli/Social2.png,stimuli/Social1.png,stimuli/Nonsocial1.png,stimuli/Nonsocial2.png,,"(0.7, 0.5)",cs_plus_ns,,,,,0,0,0,0,,,,,,,,,3,6,54,10,,,,,,,,,,,,,,,,,,,,,,,,,,,,,,,,,,,,,,,,,,,,,,,,,,,,,,,,,,1440.9127287000301,1442.0377015999984,1440.4058527000016,1442.0377015999984,1442.0377015999984,1442.0377015999984,0.00708060001488775,0.01323669997509569,215,none,0,,,1447.0444413000369,1447.0444413000369,0.014433000003919005,0.014433000003919005,0.019965299987234175,0.054642400005832314,0.06157700001494959,0.10322059999452904,0.11018449999392033,1.0129316999809816,1450.5373845000286,1454.3150437999866,,,,,,,,,,,,,,,,,,,,,,,,,,,,,17,B,2023-12-11_10h14.00.000,gca_avoidance_task,2022.2.4,143.9283812417329,
positions.xlsx,stimuli.xlsx,stimuli/Social2.png,stimuli/Social1.png,stimuli/Nonsocial1.png,stimuli/Nonsocial2.png,,"(-0.7, 0.5)",cs_plus_s,,,,,0,0,0,0,,,,,,,,,3,7,55,0,,,,,,,,,,,,,,,,,,,,,,,,,,,,,,,,,,,,,,,,,,,,,,,,,,,,,,,,,,1454.8219204000197,1456.8287724000402,1454.3150437999866,1456.8287724000402,1456.8287724000402,1456.8287724000402,0.005899999989196658,0.013191899983212352,215,none,0,,,1461.8355257000076,1461.8355257000076,0.014188100001774728,0.014188100001774728,0.020007900020573288,0.05466809996869415,0.061594099970534444,0.10325960000045598,0.11024429998360574,1.012926299998071,1465.3284652000293,1468.8422089000233,,,,,,,,,,,,,,,,,,,,,,,,,,,,,17,B,2023-12-11_10h14.00.000,gca_avoidance_task,2022.2.4,143.9283812417329,
positions.xlsx,stimuli.xlsx,stimuli/Social2.png,stimuli/Social1.png,stimuli/Nonsocial1.png,stimuli/Nonsocial2.png,,"(-0.7, -0.5)",cs_plus_s,,,,,0,0,0,0,,,,,,,,,3,8,56,1,,,,,,,,,,,,,,,,,,,,,,,,,,,,,,,,,,,,,,,,,,,,,,,,,,,,,,,,,,1469.3491297999863,1471.2379515999928,1468.8422089000233,1471.2379515999928,1471.2379515999928,1471.2379515999928,0.006279300025198609,0.013425600016489625,215,none,0,,,1476.2447505000164,1476.2447505000164,0.013501100009307265,0.013501100009307265,0.020266600011382252,0.05487819999689236,0.06179340003291145,0.10349170002155006,0.11047150002559647,1.0131401999969967,1479.7376423000242,1483.563902600028,,,,,,,,,,,,,,,,,,,,,,,,,,,,,17,B,2023-12-11_10h14.00.000,gca_avoidance_task,2022.2.4,143.9283812417329,
positions.xlsx,stimuli.xlsx,stimuli/Social2.png,stimuli/Social1.png,stimuli/Nonsocial1.png,stimuli/Nonsocial2.png,,"(-0.7, -0.5)",cs_minus_s,,,,,0,0,0,0,,,,,,,,,3,9,57,5,,,,,,,,,,,,,,,,,,,,,,,,,,,,,,,,,,,,,,,,,,,,,,,,,,,,,,,,,,1484.0707771999878,1485.5568113999907,1483.563902600028,1485.5568113999907,1485.5568113999907,1485.5568113999907,0.006245299999136478,0.013209100055973977,220,reward,1,[0.6182979000150226],[0.6183016000431962],1486.1818129000021,1486.1818129000021,0.007669400016311556,0.007669400016311556,0.018608700018376112,0.05322480003815144,0.06016900000395253,0.10179869999410585,0.10878680000314489,1.0046055000275373,1489.674744000018,1493.5495781000354,,,,,,,,,,,,,,,,,,,,,,,,,,,,,17,B,2023-12-11_10h14.00.000,gca_avoidance_task,2022.2.4,143.9283812417329,
positions.xlsx,stimuli.xlsx,stimuli/Social2.png,stimuli/Social1.png,stimuli/Nonsocial1.png,stimuli/Nonsocial2.png,,"(-0.7, -0.5)",cs_plus_ns,,,,,0,0,0,0,,,,,,,,,3,10,58,9,,,,,,,,,,,,,,,,,,,,,,,,,,,,,,,,,,,,,,,,,,,,,,,,,,,,,,,,,,1494.0564931000117,1495.750840599998,1493.5495781000354,1495.750840599998,1495.750840599998,1495.750840599998,0.007474499987438321,0.012959000014234334,220,none,0,,,1500.7576019000262,1500.7576019000262,0.013743499992415309,0.013743499992415309,0.019704899983480573,0.05443670001113787,0.0614025000249967,0.10301200003596023,0.10997450002469122,1.0127303000190295,1504.2505804999964,1508.6393205000204,,,,,,,,,,,,,,,,,,,,,,,,,,,,,17,B,2023-12-11_10h14.00.000,gca_avoidance_task,2022.2.4,143.9283812417329,
positions.xlsx,stimuli.xlsx,stimuli/Social2.png,stimuli/Social1.png,stimuli/Nonsocial1.png,stimuli/Nonsocial2.png,,"(-0.7, 0.5)",cs_plus_ns,,,,,0,0,0,0,,,,,,,,,3,11,59,8,,,,,,,,,,,,,,,,,,,,,,,,,,,,,,,,,,,,,,,,,,,,,,,,,,,,,,,,,,1509.146175300004,1510.9932958999998,1508.6393205000204,1510.9932958999998,1510.9932958999998,1510.9932958999998,0.0068388000363484025,0.01289890002226457,220,none,0,,,1516.0000567000243,1516.0000567000243,0.014548100007232279,0.014548100007232279,0.01965360000031069,0.054329600010532886,0.06131469999672845,0.10298290004720911,0.10992180003086105,1.0126675000065006,1519.4930474000284,1523.7914449000382,,,,,,,,,,,,,,,,,,,,,,,,,,,,,17,B,2023-12-11_10h14.00.000,gca_avoidance_task,2022.2.4,143.9283812417329,
positions.xlsx,stimuli.xlsx,stimuli/Social2.png,stimuli/Social1.png,stimuli/Nonsocial1.png,stimuli/Nonsocial2.png,,"(0.7, -0.5)",cs_minus_s,,,,,0,0,0,0,,,,,,,,,3,12,60,7,,,,,,,,,,,,,,,,,,,,,,,,,,,,,,,,,,,,,,,,,,,,,,,,,,,,,,,,,,1524.298348899989,1525.659413299989,1523.7914449000382,1525.659413299989,1525.659413299989,1525.659413299989,0.006051499978639185,0.013110400002915412,225,reward,1,[0.6180275999940932],[0.6180313999648206],1526.2843439999851,1526.2843439999851,0.007050400017760694,0.007050400017760694,0.018479200021829456,0.05316609999863431,0.060110900027211756,0.10179090005112812,0.10872930003097281,1.0045585000189021,1529.7773591000005,1534.0758081999957,,,,,,,,,,,,,,,,,,,,,,,,,,,,,17,B,2023-12-11_10h14.00.000,gca_avoidance_task,2022.2.4,143.9283812417329,
positions.xlsx,stimuli.xlsx,stimuli/Social2.png,stimuli/Social1.png,stimuli/Nonsocial1.png,stimuli/Nonsocial2.png,,"(0.7, -0.5)",cs_minus_ns,,,,,0,0,0,0,,,,,,,,,3,13,61,15,,,,,,,,,,,,,,,,,,,,,,,,,,,,,,,,,,,,,,,,,,,,,,,,,,,,,,,,,,1534.5826828000136,1536.158993799996,1534.0758081999957,1536.158993799996,1536.158993799996,1536.158993799996,0.007286599953658879,0.013326599961146712,230,reward,0,,,1537.0826139000128,1537.0826139000128,0.008287100004963577,0.008287100004963577,0.018433000019285828,0.05304590001469478,0.060008600004948676,0.10171630000695586,0.10861610004212707,1.0044228000333533,1540.5755307000363,1544.1309827000368,,,,,,,,,,,,,,,,,,,,,,,,,,,,,17,B,2023-12-11_10h14.00.000,gca_avoidance_task,2022.2.4,143.9283812417329,
positions.xlsx,stimuli.xlsx,stimuli/Social2.png,stimuli/Social1.png,stimuli/Nonsocial1.png,stimuli/Nonsocial2.png,,"(0.7, 0.5)",cs_minus_ns,,,,,0,0,0,0,,,,,,,,,3,14,62,14,,,,,,,,,,,,,,,,,,,,,,,,,,,,,,,,,,,,,,,,,,,,,,,,,,,,,,,,,,1544.6378168000374,1546.2419531000196,1544.1309827000368,1546.2419531000196,1546.2419531000196,1546.2419531000196,0.006798400019761175,0.013470100006088614,235,reward,1,[0.25047049997374415],[0.2504744000034407],1546.4988792000222,1546.4988792000222,0.007456099963746965,0.007456099963746965,0.018414499994833022,0.05302659998415038,0.05999789998168126,0.10167199996067211,0.10861699999077246,1.0044555999920703,1549.9917935000267,1554.3458437999943,,,,,,,,,,,,,,,,,,,,,,,,,,,,,17,B,2023-12-11_10h14.00.000,gca_avoidance_task,2022.2.4,143.9283812417329,
positions.xlsx,stimuli.xlsx,stimuli/Social2.png,stimuli/Social1.png,stimuli/Nonsocial1.png,stimuli/Nonsocial2.png,,"(-0.7, 0.5)",cs_minus_ns,,,,,0,0,0,0,,,,,,,,,3,15,63,12,,,,,,,,,,,,,,,,,,,,,,,,,,,,,,,,,,,,,,,,,,,,,,,,,,,,,,,,,,1554.8526911000372,1556.0956924000056,1554.3458437999943,1556.0956924000056,1556.0956924000056,1556.0956924000056,0.006681099999696016,0.013265300018247217,240,reward,1,[0.6530682999873534],[0.653072000015527],1556.7554338999907,1556.7554338999907,0.007815300021320581,0.007815300021320581,0.018352400045841932,0.05305950000183657,0.0599870000150986,0.10163900000043213,0.1085867999936454,1.0043499000021257,1560.2483771999832,1563.921837300004,,,,,,,,,,,,,,,,,,,,,,,,,,,,,17,B,2023-12-11_10h14.00.000,gca_avoidance_task,2022.2.4,143.9283812417329,
positions.xlsx,stimuli.xlsx,stimuli/Social2.png,stimuli/Social1.png,stimuli/Nonsocial1.png,stimuli/Nonsocial2.png,,"(-0.7, 0.5)",cs_minus_ns,,,,,0,0,0,0,,,,,,,,,4,0,64,12,,,,,,,,,,,,,,,,,,,,,,,,,,,,,,,,,,,,,,,,,,,,,,,,,,,,,,,,,,1564.4287043000222,1565.546763500024,1563.921837300004,1565.546763500024,1565.546763500024,1565.546763500024,0.006503700045868754,0.013357700023334473,245,reward,1,[0.5350683000287972],[0.5350720999995247],1566.0883831999963,1566.0883831999963,0.007386700017377734,0.007386700017377734,0.018269299995154142,0.05294490000233054,0.059953799995128065,0.10158210003282875,0.10850510001182556,1.0043144000228494,1569.5813177000382,1573.3312091000262,,,,,,,,,,,,,,,,,,,,,,,,,,,,,17,B,2023-12-11_10h14.00.000,gca_avoidance_task,2022.2.4,143.9283812417329,
positions.xlsx,stimuli.xlsx,stimuli/Social2.png,stimuli/Social1.png,stimuli/Nonsocial1.png,stimuli/Nonsocial2.png,,"(0.7, -0.5)",cs_minus_s,,,,,0,0,0,0,,,,,,,,,4,1,65,7,,,,,,,,,,,,,,,,,,,,,,,,,,,,,,,,,,,,,,,,,,,,,,,,,,,,,,,,,,1573.83805630001,1575.1019200999872,1573.3312091000262,1575.1019200999872,1575.1019200999872,1575.1019200999872,0.006253500003367662,0.012965900008566678,250,reward,1,[0.5485551999881864],[0.54855890001636],1575.6574743000092,1575.6574743000092,0.008045199967455119,0.008045199967455119,0.0185036999755539,0.0531481999787502,0.060118299967143685,0.10175949998665601,0.1087165999924764,1.0044994999771006,1579.1503862999962,1583.4627218000242,,,,,,,,,,,,,,,,,,,,,,,,,,,,,17,B,2023-12-11_10h14.00.000,gca_avoidance_task,2022.2.4,143.9283812417329,
positions.xlsx,stimuli.xlsx,stimuli/Social2.png,stimuli/Social1.png,stimuli/Nonsocial1.png,stimuli/Nonsocial2.png,,"(-0.7, -0.5)",cs_minus_ns,,,,,0,0,0,0,,,,,,,,,4,2,66,13,,,,,,,,,,,,,,,,,,,,,,,,,,,,,,,,,,,,,,,,,,,,,,,,,,,,,,,,,,1583.969644900004,1585.9278579000384,1583.4627218000242,1585.9278579000384,1585.9278579000384,1585.9278579000384,0.006673399999272078,0.013159899972379208,255,reward,1,[0.6319762999773957],[0.631979700003285],1586.56672599999,1586.56672599999,0.007383499993011355,0.007383499993011355,0.01862069999333471,0.05329070001607761,0.06025260000023991,0.10193810000782833,0.10893079999368638,1.004666900029406,1590.0596645000041,1593.7956550000235,,,,,,,,,,,,,,,,,,,,,,,,,,,,,17,B,2023-12-11_10h14.00.000,gca_avoidance_task,2022.2.4,143.9283812417329,
positions.xlsx,stimuli.xlsx,stimuli/Social2.png,stimuli/Social1.png,stimuli/Nonsocial1.png,stimuli/Nonsocial2.png,,"(-0.7, 0.5)",cs_plus_s,,,,,0,0,0,0,,,,,,,,,4,3,67,0,,,,,,,,,,,,,,,,,,,,,,,,,,,,,,,,,,,,,,,,,,,,,,,,,,,,,,,,,,1594.3025250000064,1595.6011093999841,1593.7956550000235,1595.6011093999841,1595.6011093999841,1595.6011093999841,0.005966600030660629,0.013087200000882149,255,none,0,,,1600.6078375999932,1600.6078375999932,0.013601500017102808,0.013601500017102808,0.019823200011160225,0.05453210003906861,0.06150000001071021,0.1031135999946855,0.11011599999619648,1.012852700019721,1604.1007752000005,1608.1562360000098,,,,,,,,,,,,,,,,,,,,,,,,,,,,,17,B,2023-12-11_10h14.00.000,gca_avoidance_task,2022.2.4,143.9283812417329,
positions.xlsx,stimuli.xlsx,stimuli/Social2.png,stimuli/Social1.png,stimuli/Nonsocial1.png,stimuli/Nonsocial2.png,,"(0.7, -0.5)",cs_plus_s,,,,,0,0,0,0,,,,,,,,,4,4,68,3,,,,,,,,,,,,,,,,,,,,,,,,,,,,,,,,,,,,,,,,,,,,,,,,,,,,,,,,,,1608.6630772000062,1609.683891099994,1608.1562360000098,1609.683891099994,1609.683891099994,1609.683891099994,0.006339500017929822,0.01326480001443997,255,shock,1,[0.20175720000406727],[0.20176099997479469],1609.8922282999847,1609.8922282999847,0.007796599995344877,0.007796599995344877,0.017883600026834756,0.052544500038493425,0.05948300001909956,0.10124910000013188,0.10815260000526905,1.0038901999942027,1613.3851743999985,1617.3016511999886,,,,,,,,,,,,,,,,,,,,,,,,,,,,,17,B,2023-12-11_10h14.00.000,gca_avoidance_task,2022.2.4,143.9283812417329,
positions.xlsx,stimuli.xlsx,stimuli/Social2.png,stimuli/Social1.png,stimuli/Nonsocial1.png,stimuli/Nonsocial2.png,,"(-0.7, -0.5)",cs_minus_s,,,,,0,0,0,0,,,,,,,,,4,5,69,5,,,,,,,,,,,,,,,,,,,,,,,,,,,,,,,,,,,,,,,,,,,,,,,,,,,,,,,,,,1617.8085801000125,1618.9821288000094,1617.3016511999886,1618.9821288000094,1618.9821288000094,1618.9821288000094,0.006335599988233298,0.013059800025075674,260,reward,1,[0.6738389999954961],[0.6738428000244312],1619.6627317999955,1619.6627317999955,0.006919099949300289,0.006919099949300289,0.018413999991025776,0.053028800000902265,0.05997339996974915,0.10163960000500083,0.10862279997672886,1.004368199966848,1623.1556303999969,1626.7526799000334,,,,,,,,,,,,,,,,,,,,,,,,,,,,,17,B,2023-12-11_10h14.00.000,gca_avoidance_task,2022.2.4,143.9283812417329,
positions.xlsx,stimuli.xlsx,stimuli/Social2.png,stimuli/Social1.png,stimuli/Nonsocial1.png,stimuli/Nonsocial2.png,,"(0.7, -0.5)",cs_minus_ns,,,,,0,0,0,0,,,,,,,,,4,6,70,15,,,,,,,,,,,,,,,,,,,,,,,,,,,,,,,,,,,,,,,,,,,,,,,,,,,,,,,,,,1627.2595722000115,1629.217843600025,1626.7526799000334,1629.217843600025,1629.217843600025,1629.217843600025,0.006033400015439838,0.012933899997733533,265,reward,1,[0.8054638000321575],[0.8054675000021234],1630.0303369000321,1630.0303369000321,0.00721100001828745,0.00721100001828745,0.018469000002369285,0.05310630000894889,0.06005200004437938,0.101748300017789,0.10867340001277626,1.0044655000092462,1633.5232401000103,1637.724491400004,,,,,,,,,,,,,,,,,,,,,,,,,,,,,17,B,2023-12-11_10h14.00.000,gca_avoidance_task,2022.2.4,143.9283812417329,
positions.xlsx,stimuli.xlsx,stimuli/Social2.png,stimuli/Social1.png,stimuli/Nonsocial1.png,stimuli/Nonsocial2.png,,"(-0.7, -0.5)",cs_plus_s,,,,,0,0,0,0,,,,,,,,,4,7,71,1,,,,,,,,,,,,,,,,,,,,,,,,,,,,,,,,,,,,,,,,,,,,,,,,,,,,,,,,,,1638.2313615999883,1640.1826757999952,1637.724491400004,1640.1826757999952,1640.1826757999952,1640.1826757999952,0.005988100019749254,0.013334300019778311,265,none,0,,,1645.1894700999837,1645.1894700999837,0.013828399998601526,0.013828399998601526,0.020108899974729866,0.05477529997006059,0.06177410000236705,0.10341380001045763,0.11036210000747815,1.0130764999776147,1648.682411900023,1652.6961252000183,,,,,,,,,,,,,,,,,,,,,,,,,,,,,17,B,2023-12-11_10h14.00.000,gca_avoidance_task,2022.2.4,143.9283812417329,
positions.xlsx,stimuli.xlsx,stimuli/Social2.png,stimuli/Social1.png,stimuli/Nonsocial1.png,stimuli/Nonsocial2.png,,"(-0.7, 0.5)",cs_minus_s,,,,,0,0,0,0,,,,,,,,,4,8,72,4,,,,,,,,,,,,,,,,,,,,,,,,,,,,,,,,,,,,,,,,,,,,,,,,,,,,,,,,,,1653.2030107000028,1654.904345899995,1652.6961252000183,1654.904345899995,1654.904345899995,1654.904345899995,0.005737399973440915,0.013230099983047694,270,reward,1,[0.7294434999930672],[0.7294473000220023],1655.640420300013,1655.640420300013,0.0071514000301249325,0.0071514000301249325,0.018447100010234863,0.053102699981536716,0.05999149999115616,0.10168530000373721,0.10860909998882562,1.0044013999868184,1659.1333617999917,1662.897144699993,,,,,,,,,,,,,,,,,,,,,,,,,,,,,17,B,2023-12-11_10h14.00.000,gca_avoidance_task,2022.2.4,143.9283812417329,
positions.xlsx,stimuli.xlsx,stimuli/Social2.png,stimuli/Social1.png,stimuli/Nonsocial1.png,stimuli/Nonsocial2.png,,"(-0.7, -0.5)",cs_plus_ns,,,,,0,0,0,0,,,,,,,,,4,9,73,9,,,,,,,,,,,,,,,,,,,,,,,,,,,,,,,,,,,,,,,,,,,,,,,,,,,,,,,,,,1663.4039853999857,1664.535914600012,1662.897144699993,1664.535914600012,1664.535914600012,1664.535914600012,0.006573599996045232,0.013447800010908395,270,none,0,,,1669.5426567000104,1669.5426567000104,0.014314800035208464,0.014314800035208464,0.02019900002051145,0.0548801000113599,0.0618619000306353,0.10353409999515861,0.11048050003591925,1.0131733000162058,1673.0356049000402,1677.0840290000197,,,,,,,,,,,,,,,,,,,,,,,,,,,,,17,B,2023-12-11_10h14.00.000,gca_avoidance_task,2022.2.4,143.9283812417329,
positions.xlsx,stimuli.xlsx,stimuli/Social2.png,stimuli/Social1.png,stimuli/Nonsocial1.png,stimuli/Nonsocial2.png,,"(-0.7, 0.5)",cs_plus_ns,,,,,0,0,0,0,,,,,,,,,4,10,74,8,,,,,,,,,,,,,,,,,,,,,,,,,,,,,,,,,,,,,,,,,,,,,,,,,,,,,,,,,,1677.5909575000405,1679.271481200005,1677.0840290000197,1679.271481200005,1679.271481200005,1679.271481200005,0.006704100000206381,0.013418700022157282,270,none,0,,,1684.2781918999972,1684.2781918999972,0.01469030004227534,0.01469030004227534,0.020191800023894757,0.05480039998656139,0.06176230002893135,0.10345300001790747,0.11044489999767393,1.0130822000210173,1687.7711237000185,1691.4029598000343,,,,,,,,,,,,,,,,,,,,,,,,,,,,,17,B,2023-12-11_10h14.00.000,gca_avoidance_task,2022.2.4,143.9283812417329,
positions.xlsx,stimuli.xlsx,stimuli/Social2.png,stimuli/Social1.png,stimuli/Nonsocial1.png,stimuli/Nonsocial2.png,,"(0.7, 0.5)",cs_plus_s,,,,,0,0,0,0,,,,,,,,,4,11,75,2,,,,,,,,,,,,,,,,,,,,,,,,,,,,,,,,,,,,,,,,,,,,,,,,,,,,,,,,,,1691.9098354000016,1693.152819800016,1691.4029598000343,1693.152819800016,1693.152819800016,1693.152819800016,0.006218800030183047,0.0131610999815166,270,none,0,,,1698.1595757000032,1698.1595757000032,0.013349000015296042,0.013349000015296042,0.019947700027842075,0.05458809999981895,0.061577600019518286,0.1032013000221923,0.11017990001710132,1.0129193000029773,1701.6525132000097,1706.0968034000252,,,,,,,,,,,,,,,,,,,,,,,,,,,,,17,B,2023-12-11_10h14.00.000,gca_avoidance_task,2022.2.4,143.9283812417329,
positions.xlsx,stimuli.xlsx,stimuli/Social2.png,stimuli/Social1.png,stimuli/Nonsocial1.png,stimuli/Nonsocial2.png,,"(0.7, 0.5)",cs_minus_s,,,,,0,0,0,0,,,,,,,,,4,12,76,6,,,,,,,,,,,,,,,,,,,,,,,,,,,,,,,,,,,,,,,,,,,,,,,,,,,,,,,,,,1706.6037329999963,1707.7217418000218,1706.0968034000252,1707.7217418000218,1707.7217418000218,1707.7217418000218,0.005800299986731261,0.013057999953161925,275,reward,1,[0.7291411999613047],[0.7291449999902397],1708.4577984000207,1708.4577984000207,0.00696800003061071,0.00696800003061071,0.01835269998991862,0.0530680000083521,0.06002319999970496,0.10162580001633614,0.1085379000287503,1.0043789999908768,1711.9507035000133,1715.714512799983,,,,,,,,,,,,,,,,,,,,,,,,,,,,,17,B,2023-12-11_10h14.00.000,gca_avoidance_task,2022.2.4,143.9283812417329,
positions.xlsx,stimuli.xlsx,stimuli/Social2.png,stimuli/Social1.png,stimuli/Nonsocial1.png,stimuli/Nonsocial2.png,,"(0.7, -0.5)",cs_plus_ns,,,,,0,0,0,0,,,,,,,,,4,13,77,11,,,,,,,,,,,,,,,,,,,,,,,,,,,,,,,,,,,,,,,,,,,,,,,,,,,,,,,,,,1716.2213550999877,1717.4365933000227,1715.714512799983,1717.4365933000227,1717.4365933000227,1717.4365933000227,0.006853299972135574,0.013324400002602488,275,none,0,,,1722.4433607000392,1722.4433607000392,0.014085999981034547,0.014085999981034547,0.02009949996136129,0.05475419998401776,0.06176249997224659,0.10340709995944053,0.11036329995840788,1.0130475999903865,1725.9363054999849,1730.0403019000078,,,,,,,,,,,,,,,,,,,,,,,,,,,,,17,B,2023-12-11_10h14.00.000,gca_avoidance_task,2022.2.4,143.9283812417329,
positions.xlsx,stimuli.xlsx,stimuli/Social2.png,stimuli/Social1.png,stimuli/Nonsocial1.png,stimuli/Nonsocial2.png,,"(0.7, 0.5)",cs_plus_ns,,,,,0,0,0,0,,,,,,,,,4,14,78,10,,,,,,,,,,,,,,,,,,,,,,,,,,,,,,,,,,,,,,,,,,,,,,,,,,,,,,,,,,1730.5472067000228,1731.6096459000255,1730.0403019000078,1731.6096459000255,1731.6096459000255,1731.6096459000255,0.006547399971168488,0.013163800002075732,275,none,0,,,1736.6164118000306,1736.6164118000306,0.01491959998384118,0.01491959998384118,0.019921400002203882,0.05456730001606047,0.06157079996773973,0.1033185999840498,0.11016330000711605,1.0128503000014462,1740.1093980000005,1744.192531400011,,,,,,,,,,,,,,,,,,,,,,,,,,,,,17,B,2023-12-11_10h14.00.000,gca_avoidance_task,2022.2.4,143.9283812417329,
positions.xlsx,stimuli.xlsx,stimuli/Social2.png,stimuli/Social1.png,stimuli/Nonsocial1.png,stimuli/Nonsocial2.png,,"(0.7, 0.5)",cs_minus_ns,,,,,0,0,0,0,,,,,,,,,4,15,79,14,,,,,,,,,,,,,,,,,,,,,,,,,,,,,,,,,,,,,,,,,,,,,,,,,,,,,,,,,,1744.6994276000187,1746.2341025000205,1744.192531400011,1746.2341025000205,1746.2341025000205,1746.2341025000205,0.006483100005425513,0.013445099990349263,280,reward,1,[0.674153900006786],[0.6741577999782749],1746.9146012000274,1746.9146012000274,0.007661600015126169,0.007661600015126169,0.018111600016709417,0.05284299998311326,0.0598001999896951,0.10147250001318753,0.10841129999607801,1.0041604000143707,1750.4075670000166,1753.4838274000213,,,,,,,,,,,,,,,,,,,,,,,,,,,,,17,B,2023-12-11_10h14.00.000,gca_avoidance_task,2022.2.4,143.9283812417329,
