posFile,stimFile,cs_plus_s,cs_minus_s,cs_plus_ns,cs_minus_ns,stimtype,position,trialtype,trials_threshold.thisRepN,trials_threshold.thisTrialN,trials_threshold.thisN,trials_threshold.thisIndex,blocks.thisRepN,blocks.thisTrialN,blocks.thisN,blocks.thisIndex,ratingtrials1.thisRepN,ratingtrials1.thisTrialN,ratingtrials1.thisN,ratingtrials1.thisIndex,learning_trials.thisRepN,learning_trials.thisTrialN,learning_trials.thisN,learning_trials.thisIndex,trials.thisRepN,trials.thisTrialN,trials.thisN,trials.thisIndex,ratingtrials2.thisRepN,ratingtrials2.thisTrialN,ratingtrials2.thisN,ratingtrials2.thisIndex,testtrials.thisRepN,testtrials.thisTrialN,testtrials.thisN,testtrials.thisIndex,ratingtrials3.thisRepN,ratingtrials3.thisTrialN,ratingtrials3.thisN,ratingtrials3.thisIndex,textStart.started,sliderPainT.response,sliderPainT.rt,textStartExp.started,imageRating.started,sliderStim.response,sliderStim.rt,textStartTask.started,image.started,score,outcome,roi.numLooks,roi.timesOn,roi.timesOff,imageFeedback.started,sliderPain.response,sliderPain.rt,textTestInstr.started,imageTest.started,roiTest.numLooks,roiTest.timesOn,roiTest.timesOff,participant,group,date,expName,psychopyVersion,frameRate,
,,,,,,,,,0,0,0,0,,,,,,,,,,,,,,,,,,,,,,,,,,,,,13.12561220000498,None,None,,,,,,,,,,,,,,,,,,,,32,D,2023-12-15_10h49.46.625,gca_avoidance_task,2022.2.4,143.97314035413268,
,,,,,,,,,1,0,1,0,,,,,,,,,,,,,,,,,,,,,,,,,,,,,,0.0,9.050252299988642,,,,,,,,,,,,,,,,,,,,32,D,2023-12-15_10h49.46.625,gca_avoidance_task,2022.2.4,143.97314035413268,
,,,,,,,,,2,0,2,0,,,,,,,,,,,,,,,,,,,,,,,,,,,,,,1.0,2.5256407000124454,,,,,,,,,,,,,,,,,,,,32,D,2023-12-15_10h49.46.625,gca_avoidance_task,2022.2.4,143.97314035413268,
,,,,,,,,,3,0,3,0,,,,,,,,,,,,,,,,,,,,,,,,,,,,,,2.0,4.764419400016777,,,,,,,,,,,,,,,,,,,,32,D,2023-12-15_10h49.46.625,gca_avoidance_task,2022.2.4,143.97314035413268,
,,,,,,,,,4,0,4,0,,,,,,,,,,,,,,,,,,,,,,,,,,,,,,3.0,6.498884000000544,,,,,,,,,,,,,,,,,,,,32,D,2023-12-15_10h49.46.625,gca_avoidance_task,2022.2.4,143.97314035413268,
,,,,,,,,,5,0,5,0,,,,,,,,,,,,,,,,,,,,,,,,,,,,,,4.0,3.2048355999868363,,,,,,,,,,,,,,,,,,,,32,D,2023-12-15_10h49.46.625,gca_avoidance_task,2022.2.4,143.97314035413268,
,,,,,,,,,6,0,6,0,,,,,,,,,,,,,,,,,,,,,,,,,,,,,,5.0,4.850082500022836,,,,,,,,,,,,,,,,,,,,32,D,2023-12-15_10h49.46.625,gca_avoidance_task,2022.2.4,143.97314035413268,
,,,,,,,,,7,0,7,0,,,,,,,,,,,,,,,,,,,,,,,,,,,,,,7.0,3.932824599905871,,,,,,,,,,,,,,,,,,,,32,D,2023-12-15_10h49.46.625,gca_avoidance_task,2022.2.4,143.97314035413268,
,,,,,,,,,8,0,8,0,,,,,,,,,,,,,,,,,,,,,,,,,,,,,,7.0,4.59559039992746,,,,,,,,,,,,,,,,,,,,32,D,2023-12-15_10h49.46.625,gca_avoidance_task,2022.2.4,143.97314035413268,
,,,,,,,,,9,0,9,0,,,,,,,,,,,,,,,,,,,,,,,,,,,,,,7.0,3.954007099964656,,,,,,,,,,,,,,,,,,,,32,D,2023-12-15_10h49.46.625,gca_avoidance_task,2022.2.4,143.97314035413268,
,,,,,,,,,10,0,10,0,,,,,,,,,,,,,,,,,,,,,,,,,,,,,,7.0,3.4498396000126377,,,,,,,,,,,,,,,,,,,,32,D,2023-12-15_10h49.46.625,gca_avoidance_task,2022.2.4,143.97314035413268,
,,,,,,,,,11,0,11,0,,,,,,,,,,,,,,,,,,,,,,,,,,,,,,8.0,2.680190399987623,,,,,,,,,,,,,,,,,,,,32,D,2023-12-15_10h49.46.625,gca_avoidance_task,2022.2.4,143.97314035413268,
,,,,,,,,,12,0,12,0,,,,,,,,,,,,,,,,,,,,,,,,,,,,,,8.0,1.5625171000137925,,,,,,,,,,,,,,,,,,,,32,D,2023-12-15_10h49.46.625,gca_avoidance_task,2022.2.4,143.97314035413268,
,,,,,,,,,13,0,13,0,,,,,,,,,,,,,,,,,,,,,,,,,,,,,,8.0,0.852080799988471,,,,,,,,,,,,,,,,,,,,32,D,2023-12-15_10h49.46.625,gca_avoidance_task,2022.2.4,143.97314035413268,
,,,,,,,,,14,0,14,0,,,,,,,,,,,,,,,,,,,,,,,,,,,,,,8.0,1.765911600086838,,,,,,,,,,,,,,,,,,,,32,D,2023-12-15_10h49.46.625,gca_avoidance_task,2022.2.4,143.97314035413268,
,,,,,,,,,15,0,15,0,,,,,,,,,,,,,,,,,,,,,,,,,,,,,,8.0,1.2131820999784395,,,,,,,,,,,,,,,,,,,,32,D,2023-12-15_10h49.46.625,gca_avoidance_task,2022.2.4,143.97314035413268,
,,,,,,,,,16,0,16,0,,,,,,,,,,,,,,,,,,,,,,,,,,,,,,7.0,2.3312713999766856,,,,,,,,,,,,,,,,,,,,32,D,2023-12-15_10h49.46.625,gca_avoidance_task,2022.2.4,143.97314035413268,
,,,,,,,,,17,0,17,0,,,,,,,,,,,,,,,,,,,,,,,,,,,,,,5.0,3.928582299966365,,,,,,,,,,,,,,,,,,,,32,D,2023-12-15_10h49.46.625,gca_avoidance_task,2022.2.4,143.97314035413268,
,,,,,,,,,18,0,18,0,,,,,,,,,,,,,,,,,,,,,,,,,,,,,,6.0,3.0311049000592902,,,,,,,,,,,,,,,,,,,,32,D,2023-12-15_10h49.46.625,gca_avoidance_task,2022.2.4,143.97314035413268,
,,,,,,,,,19,0,19,0,,,,,,,,,,,,,,,,,,,,,,,,,,,,,,8.0,3.1957331000594422,,,,,,,,,,,,,,,,,,,,32,D,2023-12-15_10h49.46.625,gca_avoidance_task,2022.2.4,143.97314035413268,
,,,,,,,,,20,0,20,0,,,,,,,,,,,,,,,,,,,,,,,,,,,,,,8.0,3.1301169000798836,,,,,,,,,,,,,,,,,,,,32,D,2023-12-15_10h49.46.625,gca_avoidance_task,2022.2.4,143.97314035413268,
,,,,,,,,,21,0,21,0,,,,,,,,,,,,,,,,,,,,,,,,,,,,,,8.0,2.1168535999022424,,,,,,,,,,,,,,,,,,,,32,D,2023-12-15_10h49.46.625,gca_avoidance_task,2022.2.4,143.97314035413268,
,,,,,,,,,22,0,22,0,,,,,,,,,,,,,,,,,,,,,,,,,,,,,,7.0,1.8325863999780267,,,,,,,,,,,,,,,,,,,,32,D,2023-12-15_10h49.46.625,gca_avoidance_task,2022.2.4,143.97314035413268,
,,,,,,,,,23,0,23,0,,,,,,,,,,,,,,,,,,,,,,,,,,,,,,8.0,1.3990498000057414,,,,,,,,,,,,,,,,,,,,32,D,2023-12-15_10h49.46.625,gca_avoidance_task,2022.2.4,143.97314035413268,
,,,,,,,,,24,0,24,0,,,,,,,,,,,,,,,,,,,,,,,,,,,,,,8.0,1.9401568999746814,,,,,,,,,,,,,,,,,,,,32,D,2023-12-15_10h49.46.625,gca_avoidance_task,2022.2.4,143.97314035413268,
,,,,,,,,,25,0,25,0,,,,,,,,,,,,,,,,,,,,,,,,,,,,,,8.0,0.6814357000403106,,,,,,,,,,,,,,,,,,,,32,D,2023-12-15_10h49.46.625,gca_avoidance_task,2022.2.4,143.97314035413268,
,,,,,,,,,26,0,26,0,,,,,,,,,,,,,,,,,,,,,,,,,,,,,,8.0,1.662845699931495,,,,,,,,,,,,,,,,,,,,32,D,2023-12-15_10h49.46.625,gca_avoidance_task,2022.2.4,143.97314035413268,
,,,,,,,,,27,0,27,0,,,,,,,,,,,,,,,,,,,,,,,,,,,,,,5.0,2.2005355999572203,,,,,,,,,,,,,,,,,,,,32,D,2023-12-15_10h49.46.625,gca_avoidance_task,2022.2.4,143.97314035413268,
,,,,,,,,,28,0,28,0,,,,,,,,,,,,,,,,,,,,,,,,,,,,,,6.0,1.889453300042078,,,,,,,,,,,,,,,,,,,,32,D,2023-12-15_10h49.46.625,gca_avoidance_task,2022.2.4,143.97314035413268,
positions.xlsx,stimuli.xlsx,stimuli/Social2.png,stimuli/Social1.png,stimuli/Nonsocial2.png,stimuli/Nonsocial1.png,cs_minus_ns,,,,,,,0,0,0,0,0,0,0,3,,,,,,,,,,,,,,,,,,,,,,,,465.2267922000028,479.0931857000105,5.0,12.202579599921592,,,,,,,,,,,,,,,,32,D,2023-12-15_10h49.46.625,gca_avoidance_task,2022.2.4,143.97314035413268,
positions.xlsx,stimuli.xlsx,stimuli/Social2.png,stimuli/Social1.png,stimuli/Nonsocial2.png,stimuli/Nonsocial1.png,cs_minus_s,,,,,,,0,0,0,0,0,1,1,2,,,,,,,,,,,,,,,,,,,,,,,,,492.38434840005357,8.0,6.978529799962416,,,,,,,,,,,,,,,,32,D,2023-12-15_10h49.46.625,gca_avoidance_task,2022.2.4,143.97314035413268,
positions.xlsx,stimuli.xlsx,stimuli/Social2.png,stimuli/Social1.png,stimuli/Nonsocial2.png,stimuli/Nonsocial1.png,cs_plus_s,,,,,,,0,0,0,0,0,2,2,0,,,,,,,,,,,,,,,,,,,,,,,,,500.5020602999721,7.0,5.284889200003818,,,,,,,,,,,,,,,,32,D,2023-12-15_10h49.46.625,gca_avoidance_task,2022.2.4,143.97314035413268,
positions.xlsx,stimuli.xlsx,stimuli/Social2.png,stimuli/Social1.png,stimuli/Nonsocial2.png,stimuli/Nonsocial1.png,cs_plus_ns,,,,,,,0,0,0,0,0,3,3,1,,,,,,,,,,,,,,,,,,,,,,,,,506.8768077000277,8.0,7.395499799982645,,,,,,,,,,,,,,,,32,D,2023-12-15_10h49.46.625,gca_avoidance_task,2022.2.4,143.97314035413268,
positions.xlsx,stimuli.xlsx,stimuli/Social2.png,stimuli/Social1.png,stimuli/Nonsocial2.png,stimuli/Nonsocial1.png,,"(-0.7, 0.5)",cs_plus_s,,,,,0,0,0,0,,,,,0,0,0,0,,,,,,,,,,,,,,,,,,,,,,,,515.6680996000068,546.7780024000676,0,shock,1,0.2573250000132248,0.25732879992574453,547.0419151000679,,,,,,,,32,D,2023-12-15_10h49.46.625,gca_avoidance_task,2022.2.4,143.97314035413268,
positions.xlsx,stimuli.xlsx,stimuli/Social2.png,stimuli/Social1.png,stimuli/Nonsocial2.png,stimuli/Nonsocial1.png,,"(0.7, -0.5)",cs_plus_ns,,,,,0,0,0,0,,,,,0,1,1,11,,,,,,,,,,,,,,,,,,,,,,,,,557.2150859000394,0,shock,1,0.2713811999419704,0.27138509997166693,557.4928495000349,,,,,,,,32,D,2023-12-15_10h49.46.625,gca_avoidance_task,2022.2.4,143.97314035413268,
positions.xlsx,stimuli.xlsx,stimuli/Social2.png,stimuli/Social1.png,stimuli/Nonsocial2.png,stimuli/Nonsocial1.png,,"(0.7, 0.5)",cs_minus_s,,,,,0,0,0,0,,,,,0,2,2,6,,,,,,,,,,,,,,,,,,,,,,,,,566.9508526000427,5,reward,1,0.28536460001487285,0.2853683000430465,567.2424866000656,,,,,,,,32,D,2023-12-15_10h49.46.625,gca_avoidance_task,2022.2.4,143.97314035413268,
positions.xlsx,stimuli.xlsx,stimuli/Social2.png,stimuli/Social1.png,stimuli/Nonsocial2.png,stimuli/Nonsocial1.png,,"(0.7, -0.5)",cs_minus_s,,,,,0,0,0,0,,,,,0,3,3,7,,,,,,,,,,,,,,,,,,,,,,,,,576.6865389000159,10,reward,1,0.3057772000320256,0.30578099994454533,576.9991278999951,,,,,,,,32,D,2023-12-15_10h49.46.625,gca_avoidance_task,2022.2.4,143.97314035413268,
positions.xlsx,stimuli.xlsx,stimuli/Social2.png,stimuli/Social1.png,stimuli/Nonsocial2.png,stimuli/Nonsocial1.png,,"(-0.7, 0.5)",cs_plus_ns,,,,,0,0,0,0,,,,,0,4,4,8,,,,,,,,,,,,,,,,,,,,,,,,,586.283386599971,10,shock,1,0.2498442999785766,0.24984800000675023,586.5403134999797,,,,,,,,32,D,2023-12-15_10h49.46.625,gca_avoidance_task,2022.2.4,143.97314035413268,
positions.xlsx,stimuli.xlsx,stimuli/Social2.png,stimuli/Social1.png,stimuli/Nonsocial2.png,stimuli/Nonsocial1.png,,"(-0.7, -0.5)",cs_plus_s,,,,,0,0,0,0,,,,,0,5,5,1,,,,,,,,,,,,,,,,,,,,,,,,,596.6163257000735,10,shock,1,0.2847954999888316,0.28479930001776665,596.9079880000791,,,,,,,,32,D,2023-12-15_10h49.46.625,gca_avoidance_task,2022.2.4,143.97314035413268,
positions.xlsx,stimuli.xlsx,stimuli/Social2.png,stimuli/Social1.png,stimuli/Nonsocial2.png,stimuli/Nonsocial1.png,,"(-0.7, -0.5)",cs_minus_ns,,,,,0,0,0,0,,,,,0,6,6,13,,,,,,,,,,,,,,,,,,,,,,,,,606.8658968000673,15,reward,1,0.2913607999216765,0.29136429994832724,607.1645026999759,,,,,,,,32,D,2023-12-15_10h49.46.625,gca_avoidance_task,2022.2.4,143.97314035413268,
positions.xlsx,stimuli.xlsx,stimuli/Social2.png,stimuli/Social1.png,stimuli/Nonsocial2.png,stimuli/Nonsocial1.png,,"(0.7, 0.5)",cs_minus_ns,,,,,0,0,0,0,,,,,0,7,7,14,,,,,,,,,,,,,,,,,,,,,,,,,616.8863388000755,20,reward,1,0.24316600000020117,0.2431699000298977,617.1363264999818,,,,,,,,32,D,2023-12-15_10h49.46.625,gca_avoidance_task,2022.2.4,143.97314035413268,
positions.xlsx,stimuli.xlsx,stimuli/Social2.png,stimuli/Social1.png,stimuli/Nonsocial2.png,stimuli/Nonsocial1.png,,"(0.7, 0.5)",cs_plus_ns,,,,,0,0,0,0,,,,,0,8,8,10,,,,,,,,,,,,,,,,,,,,,,,,,626.74013010005,20,shock,1,0.27093340002465993,0.27093709993641824,627.0178761000279,,,,,,,,32,D,2023-12-15_10h49.46.625,gca_avoidance_task,2022.2.4,143.97314035413268,
positions.xlsx,stimuli.xlsx,stimuli/Social2.png,stimuli/Social1.png,stimuli/Nonsocial2.png,stimuli/Nonsocial1.png,,"(-0.7, 0.5)",cs_minus_s,,,,,0,0,0,0,,,,,0,9,9,4,,,,,,,,,,,,,,,,,,,,,,,,,636.1078041000292,25,reward,1,0.21550559997558594,0.2155092000029981,636.3300556000322,,,,,,,,32,D,2023-12-15_10h49.46.625,gca_avoidance_task,2022.2.4,143.97314035413268,
positions.xlsx,stimuli.xlsx,stimuli/Social2.png,stimuli/Social1.png,stimuli/Nonsocial2.png,stimuli/Nonsocial1.png,,"(0.7, -0.5)",cs_minus_ns,,,,,0,0,0,0,,,,,0,10,10,15,,,,,,,,,,,,,,,,,,,,,,,,,645.5935541000217,30,reward,1,0.27085049997549504,0.27085420000366867,645.8713189000264,,,,,,,,32,D,2023-12-15_10h49.46.625,gca_avoidance_task,2022.2.4,143.97314035413268,
positions.xlsx,stimuli.xlsx,stimuli/Social2.png,stimuli/Social1.png,stimuli/Nonsocial2.png,stimuli/Nonsocial1.png,,"(-0.7, 0.5)",cs_minus_ns,,,,,0,0,0,0,,,,,0,11,11,12,,,,,,,,,,,,,,,,,,,,,,,,,655.3223142999923,35,reward,1,0.243442100007087,0.24344590003602207,655.5723156000022,,,,,,,,32,D,2023-12-15_10h49.46.625,gca_avoidance_task,2022.2.4,143.97314035413268,
positions.xlsx,stimuli.xlsx,stimuli/Social2.png,stimuli/Social1.png,stimuli/Nonsocial2.png,stimuli/Nonsocial1.png,,"(-0.7, -0.5)",cs_plus_ns,,,,,0,0,0,0,,,,,0,12,12,9,,,,,,,,,,,,,,,,,,,,,,,,,664.5858800000278,35,shock,1,0.3609763999702409,0.3609802999999374,664.9539215000113,,,,,,,,32,D,2023-12-15_10h49.46.625,gca_avoidance_task,2022.2.4,143.97314035413268,
positions.xlsx,stimuli.xlsx,stimuli/Social2.png,stimuli/Social1.png,stimuli/Nonsocial2.png,stimuli/Nonsocial1.png,,"(-0.7, -0.5)",cs_minus_s,,,,,0,0,0,0,,,,,0,13,13,5,,,,,,,,,,,,,,,,,,,,,,,,,674.6965902000666,40,reward,1,0.26380780001636595,0.26381170004606247,674.9673827000661,,,,,,,,32,D,2023-12-15_10h49.46.625,gca_avoidance_task,2022.2.4,143.97314035413268,
positions.xlsx,stimuli.xlsx,stimuli/Social2.png,stimuli/Social1.png,stimuli/Nonsocial2.png,stimuli/Nonsocial1.png,,"(0.7, -0.5)",cs_plus_s,,,,,0,0,0,0,,,,,0,14,14,3,,,,,,,,,,,,,,,,,,,,,,,,,684.8072894000215,40,shock,1,0.2087012999691069,0.21578570001292974,685.0295125000412,,,,,,,,32,D,2023-12-15_10h49.46.625,gca_avoidance_task,2022.2.4,143.97314035413268,
positions.xlsx,stimuli.xlsx,stimuli/Social2.png,stimuli/Social1.png,stimuli/Nonsocial2.png,stimuli/Nonsocial1.png,,"(0.7, 0.5)",cs_plus_s,,,,,0,0,0,0,,,,,0,15,15,2,,,,,,,,,,,,,,,,,,,,,,,,,694.5221595000476,40,shock,1,0.27801370003726333,0.2780309000518173,694.806862300029,,,,,,,,32,D,2023-12-15_10h49.46.625,gca_avoidance_task,2022.2.4,143.97314035413268,
positions.xlsx,stimuli.xlsx,stimuli/Social2.png,stimuli/Social1.png,stimuli/Nonsocial2.png,stimuli/Nonsocial1.png,,"(0.7, -0.5)",cs_plus_ns,,,,,0,0,0,0,,,,,1,0,16,11,,,,,,,,,,,,,,,,,,,,,,,,,705.1884022000013,40,shock,1,0.3755285000661388,0.3755323000950739,705.5703513000626,,,,,,,,32,D,2023-12-15_10h49.46.625,gca_avoidance_task,2022.2.4,143.97314035413268,
positions.xlsx,stimuli.xlsx,stimuli/Social2.png,stimuli/Social1.png,stimuli/Nonsocial2.png,stimuli/Nonsocial1.png,,"(-0.7, 0.5)",cs_minus_s,,,,,0,0,0,0,,,,,1,1,17,4,,,,,,,,,,,,,,,,,,,,,,,,,714.3894433000823,45,reward,1,0.2781364000402391,0.27814019995275885,714.6741594000487,,,,,,,,32,D,2023-12-15_10h49.46.625,gca_avoidance_task,2022.2.4,143.97314035413268,
positions.xlsx,stimuli.xlsx,stimuli/Social2.png,stimuli/Social1.png,stimuli/Nonsocial2.png,stimuli/Nonsocial1.png,,"(-0.7, 0.5)",cs_plus_ns,,,,,0,0,0,0,,,,,1,2,18,8,,,,,,,,,,,,,,,,,,,,,,,,,724.2570940000005,45,shock,1,0.23635820008348674,0.23636169999372214,724.5001362999901,,,,,,,,32,D,2023-12-15_10h49.46.625,gca_avoidance_task,2022.2.4,143.97314035413268,
positions.xlsx,stimuli.xlsx,stimuli/Social2.png,stimuli/Social1.png,stimuli/Nonsocial2.png,stimuli/Nonsocial1.png,,"(0.7, 0.5)",cs_plus_s,,,,,0,0,0,0,,,,,1,3,19,2,,,,,,,,,,,,,,,,,,,,,,,,,734.4858992000809,45,shock,1,0.2498115999624133,0.24981539999134839,734.7358436000068,,,,,,,,32,D,2023-12-15_10h49.46.625,gca_avoidance_task,2022.2.4,143.97314035413268,
positions.xlsx,stimuli.xlsx,stimuli/Social2.png,stimuli/Social1.png,stimuli/Nonsocial2.png,stimuli/Nonsocial1.png,,"(0.7, 0.5)",cs_plus_ns,,,,,0,0,0,0,,,,,1,4,20,10,,,,,,,,,,,,,,,,,,,,,,,,,743.52715790004,45,shock,1,0.3336764998966828,0.3336802999256179,743.8674667000305,,,,,,,,32,D,2023-12-15_10h49.46.625,gca_avoidance_task,2022.2.4,143.97314035413268,
positions.xlsx,stimuli.xlsx,stimuli/Social2.png,stimuli/Social1.png,stimuli/Nonsocial2.png,stimuli/Nonsocial1.png,,"(-0.7, 0.5)",cs_plus_s,,,,,0,0,0,0,,,,,1,5,21,0,,,,,,,,,,,,,,,,,,,,,,,,,753.1379463999765,45,shock,1,0.34753999998793006,0.3545295998919755,753.4920295000775,,,,,,,,32,D,2023-12-15_10h49.46.625,gca_avoidance_task,2022.2.4,143.97314035413268,
positions.xlsx,stimuli.xlsx,stimuli/Social2.png,stimuli/Social1.png,stimuli/Nonsocial2.png,stimuli/Nonsocial1.png,,"(-0.7, -0.5)",cs_minus_s,,,,,0,0,0,0,,,,,1,6,22,5,,,,,,,,,,,,,,,,,,,,,,,,,763.3875017000828,50,reward,1,0.2991654999786988,0.29916930000763386,763.6930312999757,,,,,,,,32,D,2023-12-15_10h49.46.625,gca_avoidance_task,2022.2.4,143.97314035413268,
positions.xlsx,stimuli.xlsx,stimuli/Social2.png,stimuli/Social1.png,stimuli/Nonsocial2.png,stimuli/Nonsocial1.png,,"(-0.7, 0.5)",cs_minus_ns,,,,,0,0,0,0,,,,,1,7,23,12,,,,,,,,,,,,,,,,,,,,,,,,,773.2898906000191,55,reward,1,0.3959053000435233,0.3959089000709355,773.692661200068,,,,,,,,32,D,2023-12-15_10h49.46.625,gca_avoidance_task,2022.2.4,143.97314035413268,
positions.xlsx,stimuli.xlsx,stimuli/Social2.png,stimuli/Social1.png,stimuli/Nonsocial2.png,stimuli/Nonsocial1.png,,"(-0.7, -0.5)",cs_plus_ns,,,,,0,0,0,0,,,,,1,8,24,9,,,,,,,,,,,,,,,,,,,,,,,,,782.6784075000323,55,shock,1,0.28482060006354004,0.28482429997529835,782.9700567000546,,,,,,,,32,D,2023-12-15_10h49.46.625,gca_avoidance_task,2022.2.4,143.97314035413268,
positions.xlsx,stimuli.xlsx,stimuli/Social2.png,stimuli/Social1.png,stimuli/Nonsocial2.png,stimuli/Nonsocial1.png,,"(0.7, -0.5)",cs_minus_s,,,,,0,0,0,0,,,,,1,9,25,7,,,,,,,,,,,,,,,,,,,,,,,,,792.0044189000037,60,reward,1,0.486471000011079,0.48647470003925264,792.4974742999766,,,,,,,,32,D,2023-12-15_10h49.46.625,gca_avoidance_task,2022.2.4,143.97314035413268,
positions.xlsx,stimuli.xlsx,stimuli/Social2.png,stimuli/Social1.png,stimuli/Nonsocial2.png,stimuli/Nonsocial1.png,,"(0.7, 0.5)",cs_minus_ns,,,,,0,0,0,0,,,,,1,10,26,14,,,,,,,,,,,,,,,,,,,,,,,,,802.2817912000464,65,reward,1,0.2918340000323951,0.2918377999449149,802.580403800006,,,,,,,,32,D,2023-12-15_10h49.46.625,gca_avoidance_task,2022.2.4,143.97314035413268,
positions.xlsx,stimuli.xlsx,stimuli/Social2.png,stimuli/Social1.png,stimuli/Nonsocial2.png,stimuli/Nonsocial1.png,,"(0.7, -0.5)",cs_plus_s,,,,,0,0,0,0,,,,,1,11,27,3,,,,,,,,,,,,,,,,,,,,,,,,,811.8022563999984,65,shock,1,0.3123714999528602,0.31237529998179525,812.1216985000065,,,,,,,,32,D,2023-12-15_10h49.46.625,gca_avoidance_task,2022.2.4,143.97314035413268,
positions.xlsx,stimuli.xlsx,stimuli/Social2.png,stimuli/Social1.png,stimuli/Nonsocial2.png,stimuli/Nonsocial1.png,,"(0.7, 0.5)",cs_minus_s,,,,,0,0,0,0,,,,,1,12,28,6,,,,,,,,,,,,,,,,,,,,,,,,,821.878238299978,70,reward,1,0.2714671000139788,0.27147070004139096,822.156016999972,,,,,,,,32,D,2023-12-15_10h49.46.625,gca_avoidance_task,2022.2.4,143.97314035413268,
positions.xlsx,stimuli.xlsx,stimuli/Social2.png,stimuli/Social1.png,stimuli/Nonsocial2.png,stimuli/Nonsocial1.png,,"(-0.7, -0.5)",cs_plus_s,,,,,0,0,0,0,,,,,1,13,29,1,,,,,,,,,,,,,,,,,,,,,,,,,831.363997300039,70,shock,1,0.29852140008006245,0.305427800049074,831.6764722000808,,,,,,,,32,D,2023-12-15_10h49.46.625,gca_avoidance_task,2022.2.4,143.97314035413268,
positions.xlsx,stimuli.xlsx,stimuli/Social2.png,stimuli/Social1.png,stimuli/Nonsocial2.png,stimuli/Nonsocial1.png,,"(0.7, -0.5)",cs_minus_ns,,,,,0,0,0,0,,,,,1,14,30,15,,,,,,,,,,,,,,,,,,,,,,,,,841.1552755000303,75,reward,1,0.3268583999015391,0.3268622999312356,841.4885934999911,,,,,,,,32,D,2023-12-15_10h49.46.625,gca_avoidance_task,2022.2.4,143.97314035413268,
positions.xlsx,stimuli.xlsx,stimuli/Social2.png,stimuli/Social1.png,stimuli/Nonsocial2.png,stimuli/Nonsocial1.png,,"(-0.7, -0.5)",cs_minus_ns,,,,,0,0,0,0,,,,,1,15,31,13,,,,,,,,,,,,,,,,,,,,,,,,,851.0645976000233,80,reward,1,0.31256350001785904,0.3125673000467941,851.3840296000708,,,,,,,,32,D,2023-12-15_10h49.46.625,gca_avoidance_task,2022.2.4,143.97314035413268,
positions.xlsx,stimuli.xlsx,stimuli/Social2.png,stimuli/Social1.png,stimuli/Nonsocial2.png,stimuli/Nonsocial1.png,,"(-0.7, -0.5)",cs_minus_s,,,,,0,0,0,0,,,,,,,,,0,0,0,5,,,,,,,,,,,,,,,,,,,,,873.3901318999706,80,none,0,,,878.3968891999684,,,,,,,,32,D,2023-12-15_10h49.46.625,gca_avoidance_task,2022.2.4,143.97314035413268,
positions.xlsx,stimuli.xlsx,stimuli/Social2.png,stimuli/Social1.png,stimuli/Nonsocial2.png,stimuli/Nonsocial1.png,,"(-0.7, 0.5)",cs_plus_s,,,,,0,0,0,0,,,,,,,,,0,1,1,0,,,,,,,,,,,,,,,,,,,,,887.8687295999844,80,none,0,,,892.8754665000597,,,,,,,,32,D,2023-12-15_10h49.46.625,gca_avoidance_task,2022.2.4,143.97314035413268,
positions.xlsx,stimuli.xlsx,stimuli/Social2.png,stimuli/Social1.png,stimuli/Nonsocial2.png,stimuli/Nonsocial1.png,,"(-0.7, 0.5)",cs_minus_s,,,,,0,0,0,0,,,,,,,,,0,2,2,4,,,,,,,,,,,,,,,,,,,,,901.8612104000058,80,none,0,,,906.8680014000274,,,,,,,,32,D,2023-12-15_10h49.46.625,gca_avoidance_task,2022.2.4,143.97314035413268,
positions.xlsx,stimuli.xlsx,stimuli/Social2.png,stimuli/Social1.png,stimuli/Nonsocial2.png,stimuli/Nonsocial1.png,,"(-0.7, -0.5)",cs_plus_ns,,,,,0,0,0,0,,,,,,,,,0,3,3,9,,,,,,,,,,,,,,,,,,,,,916.4370436000172,80,none,0,,,921.4437710000202,,,,,,,,32,D,2023-12-15_10h49.46.625,gca_avoidance_task,2022.2.4,143.97314035413268,
positions.xlsx,stimuli.xlsx,stimuli/Social2.png,stimuli/Social1.png,stimuli/Nonsocial2.png,stimuli/Nonsocial1.png,,"(-0.7, -0.5)",cs_plus_s,,,,,0,0,0,0,,,,,,,,,0,4,4,1,,,,,,,,,,,,,,,,,,,,,931.5614128999878,80,none,0,,,936.5681974000763,,,,,,,,32,D,2023-12-15_10h49.46.625,gca_avoidance_task,2022.2.4,143.97314035413268,
positions.xlsx,stimuli.xlsx,stimuli/Social2.png,stimuli/Social1.png,stimuli/Nonsocial2.png,stimuli/Nonsocial1.png,,"(-0.7, -0.5)",cs_minus_ns,,,,,0,0,0,0,,,,,,,,,0,5,5,13,,,,,,,,,,,,,,,,,,,,,946.3594783999724,80,none,0,,,951.3662097000051,,,,,,,,32,D,2023-12-15_10h49.46.625,gca_avoidance_task,2022.2.4,143.97314035413268,
positions.xlsx,stimuli.xlsx,stimuli/Social2.png,stimuli/Social1.png,stimuli/Nonsocial2.png,stimuli/Nonsocial1.png,,"(-0.7, 0.5)",cs_plus_ns,,,,,0,0,0,0,,,,,,,,,0,6,6,8,,,,,,,,,,,,,,,,,,,,,960.574180399999,80,none,0,,,965.5809672999894,,,,,,,,32,D,2023-12-15_10h49.46.625,gca_avoidance_task,2022.2.4,143.97314035413268,
positions.xlsx,stimuli.xlsx,stimuli/Social2.png,stimuli/Social1.png,stimuli/Nonsocial2.png,stimuli/Nonsocial1.png,,"(0.7, -0.5)",cs_plus_ns,,,,,0,0,0,0,,,,,,,,,0,7,7,11,,,,,,,,,,,,,,,,,,,,,975.066712000058,80,shock,1,0.5487421000143513,0.5487460000440478,975.6222216000315,,,,,,,,32,D,2023-12-15_10h49.46.625,gca_avoidance_task,2022.2.4,143.97314035413268,
positions.xlsx,stimuli.xlsx,stimuli/Social2.png,stimuli/Social1.png,stimuli/Nonsocial2.png,stimuli/Nonsocial1.png,,"(0.7, 0.5)",cs_plus_s,,,,,0,0,0,0,,,,,,,,,0,8,8,2,,,,,,,,,,,,,,,,,,,,,985.9204093000153,80,none,0,,,990.9271821000148,,,,,,,,32,D,2023-12-15_10h49.46.625,gca_avoidance_task,2022.2.4,143.97314035413268,
positions.xlsx,stimuli.xlsx,stimuli/Social2.png,stimuli/Social1.png,stimuli/Nonsocial2.png,stimuli/Nonsocial1.png,,"(0.7, -0.5)",cs_minus_ns,,,,,0,0,0,0,,,,,,,,,0,9,9,15,,,,,,,,,,,,,,,,,,,,,1000.1559867999749,80,none,0,,,1005.1627265000716,,,,,,,,32,D,2023-12-15_10h49.46.625,gca_avoidance_task,2022.2.4,143.97314035413268,
positions.xlsx,stimuli.xlsx,stimuli/Social2.png,stimuli/Social1.png,stimuli/Nonsocial2.png,stimuli/Nonsocial1.png,,"(-0.7, 0.5)",cs_minus_ns,,,,,0,0,0,0,,,,,,,,,0,10,10,12,,,,,,,,,,,,,,,,,,,,,1014.8081721999915,80,none,0,,,1019.8149147999939,,,,,,,,32,D,2023-12-15_10h49.46.625,gca_avoidance_task,2022.2.4,143.97314035413268,
positions.xlsx,stimuli.xlsx,stimuli/Social2.png,stimuli/Social1.png,stimuli/Nonsocial2.png,stimuli/Nonsocial1.png,,"(0.7, -0.5)",cs_plus_s,,,,,0,0,0,0,,,,,,,,,0,11,11,3,,,,,,,,,,,,,,,,,,,,,1029.3700995000545,80,none,0,,,1034.3768491999945,,,,,,,,32,D,2023-12-15_10h49.46.625,gca_avoidance_task,2022.2.4,143.97314035413268,
positions.xlsx,stimuli.xlsx,stimuli/Social2.png,stimuli/Social1.png,stimuli/Nonsocial2.png,stimuli/Nonsocial1.png,,"(0.7, 0.5)",cs_plus_ns,,,,,0,0,0,0,,,,,,,,,0,12,12,10,,,,,,,,,,,,,,,,,,,,,1044.0083847000496,80,none,0,,,1049.0152123000007,,,,,,,,32,D,2023-12-15_10h49.46.625,gca_avoidance_task,2022.2.4,143.97314035413268,
positions.xlsx,stimuli.xlsx,stimuli/Social2.png,stimuli/Social1.png,stimuli/Nonsocial2.png,stimuli/Nonsocial1.png,,"(0.7, -0.5)",cs_minus_s,,,,,0,0,0,0,,,,,,,,,0,13,13,7,,,,,,,,,,,,,,,,,,,,,1058.500930499984,80,none,0,,,1063.5076496000402,,,,,,,,32,D,2023-12-15_10h49.46.625,gca_avoidance_task,2022.2.4,143.97314035413268,
positions.xlsx,stimuli.xlsx,stimuli/Social2.png,stimuli/Social1.png,stimuli/Nonsocial2.png,stimuli/Nonsocial1.png,,"(0.7, 0.5)",cs_minus_ns,,,,,0,0,0,0,,,,,,,,,0,14,14,14,,,,,,,,,,,,,,,,,,,,,1072.2572859000647,80,none,0,,,1077.2640435000649,,,,,,,,32,D,2023-12-15_10h49.46.625,gca_avoidance_task,2022.2.4,143.97314035413268,
positions.xlsx,stimuli.xlsx,stimuli/Social2.png,stimuli/Social1.png,stimuli/Nonsocial2.png,stimuli/Nonsocial1.png,,"(0.7, 0.5)",cs_minus_s,,,,,0,0,0,0,,,,,,,,,0,15,15,6,,,,,,,,,,,,,,,,,,,,,1086.3956459000474,80,none,0,,,1091.4023855000269,,,,,,,,32,D,2023-12-15_10h49.46.625,gca_avoidance_task,2022.2.4,143.97314035413268,
positions.xlsx,stimuli.xlsx,stimuli/Social2.png,stimuli/Social1.png,stimuli/Nonsocial2.png,stimuli/Nonsocial1.png,,"(-0.7, 0.5)",cs_plus_s,,,,,0,0,0,0,,,,,,,,,1,0,16,0,,,,,,,,,,,,,,,,,,,,,1100.457596900058,80,none,0,,,1105.4643380000489,,,,,,,,32,D,2023-12-15_10h49.46.625,gca_avoidance_task,2022.2.4,143.97314035413268,
positions.xlsx,stimuli.xlsx,stimuli/Social2.png,stimuli/Social1.png,stimuli/Nonsocial2.png,stimuli/Nonsocial1.png,,"(-0.7, -0.5)",cs_minus_s,,,,,0,0,0,0,,,,,,,,,1,1,17,5,,,,,,,,,,,,,,,,,,,,,1115.2070368999848,80,none,0,,,1120.213778699981,,,,,,,,32,D,2023-12-15_10h49.46.625,gca_avoidance_task,2022.2.4,143.97314035413268,
positions.xlsx,stimuli.xlsx,stimuli/Social2.png,stimuli/Social1.png,stimuli/Nonsocial2.png,stimuli/Nonsocial1.png,,"(-0.7, 0.5)",cs_minus_ns,,,,,0,0,0,0,,,,,,,,,1,2,18,12,,,,,,,,,,,,,,,,,,,,,1130.3800468000118,80,none,0,,,1135.3868126000743,,,,,,,,32,D,2023-12-15_10h49.46.625,gca_avoidance_task,2022.2.4,143.97314035413268,
positions.xlsx,stimuli.xlsx,stimuli/Social2.png,stimuli/Social1.png,stimuli/Nonsocial2.png,stimuli/Nonsocial1.png,,"(0.7, -0.5)",cs_minus_s,,,,,0,0,0,0,,,,,,,,,1,3,19,7,,,,,,,,,,,,,,,,,,,,,1144.9280797999818,80,none,0,,,1149.9348486000672,,,,,,,,32,D,2023-12-15_10h49.46.625,gca_avoidance_task,2022.2.4,143.97314035413268,
positions.xlsx,stimuli.xlsx,stimuli/Social2.png,stimuli/Social1.png,stimuli/Nonsocial2.png,stimuli/Nonsocial1.png,,"(0.7, 0.5)",cs_minus_s,,,,,0,0,0,0,,,,,,,,,1,4,20,6,,,,,,,,,,,,,,,,,,,,,1159.1080903999973,80,none,0,,,1164.1148735000752,,,,,,,,32,D,2023-12-15_10h49.46.625,gca_avoidance_task,2022.2.4,143.97314035413268,
positions.xlsx,stimuli.xlsx,stimuli/Social2.png,stimuli/Social1.png,stimuli/Nonsocial2.png,stimuli/Nonsocial1.png,,"(0.7, 0.5)",cs_plus_ns,,,,,0,0,0,0,,,,,,,,,1,5,21,10,,,,,,,,,,,,,,,,,,,,,1172.6700656000758,80,none,0,,,1177.6768327000318,,,,,,,,32,D,2023-12-15_10h49.46.625,gca_avoidance_task,2022.2.4,143.97314035413268,
positions.xlsx,stimuli.xlsx,stimuli/Social2.png,stimuli/Social1.png,stimuli/Nonsocial2.png,stimuli/Nonsocial1.png,,"(-0.7, -0.5)",cs_minus_ns,,,,,0,0,0,0,,,,,,,,,1,6,22,13,,,,,,,,,,,,,,,,,,,,,1186.6834724000655,80,none,0,,,1191.690178400022,,,,,,,,32,D,2023-12-15_10h49.46.625,gca_avoidance_task,2022.2.4,143.97314035413268,
positions.xlsx,stimuli.xlsx,stimuli/Social2.png,stimuli/Social1.png,stimuli/Nonsocial2.png,stimuli/Nonsocial1.png,,"(0.7, 0.5)",cs_plus_s,,,,,0,0,0,0,,,,,,,,,1,7,23,2,,,,,,,,,,,,,,,,,,,,,1201.0439437000314,80,none,0,,,1206.0506963999942,,,,,,,,32,D,2023-12-15_10h49.46.625,gca_avoidance_task,2022.2.4,143.97314035413268,
positions.xlsx,stimuli.xlsx,stimuli/Social2.png,stimuli/Social1.png,stimuli/Nonsocial2.png,stimuli/Nonsocial1.png,,"(-0.7, -0.5)",cs_plus_ns,,,,,0,0,0,0,,,,,,,,,1,8,24,9,,,,,,,,,,,,,,,,,,,,,1215.1059395000339,80,none,0,,,1220.112649800023,,,,,,,,32,D,2023-12-15_10h49.46.625,gca_avoidance_task,2022.2.4,143.97314035413268,
positions.xlsx,stimuli.xlsx,stimuli/Social2.png,stimuli/Social1.png,stimuli/Nonsocial2.png,stimuli/Nonsocial1.png,,"(-0.7, 0.5)",cs_minus_s,,,,,0,0,0,0,,,,,,,,,1,9,25,4,,,,,,,,,,,,,,,,,,,,,1229.841444300022,85,reward,1,0.292580800014548,0.292584800045006,1230.1400474000257,,,,,,,,32,D,2023-12-15_10h49.46.625,gca_avoidance_task,2022.2.4,143.97314035413268,
positions.xlsx,stimuli.xlsx,stimuli/Social2.png,stimuli/Social1.png,stimuli/Nonsocial2.png,stimuli/Nonsocial1.png,,"(0.7, -0.5)",cs_plus_s,,,,,0,0,0,0,,,,,,,,,1,10,26,3,,,,,,,,,,,,,,,,,,,,,1239.36888059997,85,shock,1,0.3545307000167668,0.3545346000464633,1239.7299631000496,,,,,,,,32,D,2023-12-15_10h49.46.625,gca_avoidance_task,2022.2.4,143.97314035413268,
positions.xlsx,stimuli.xlsx,stimuli/Social2.png,stimuli/Social1.png,stimuli/Nonsocial2.png,stimuli/Nonsocial1.png,,"(-0.7, -0.5)",cs_plus_s,,,,,0,0,0,0,,,,,,,,,1,11,27,1,,,,,,,,,,,,,,,,,,,,,1248.8892600000836,85,shock,1,0.3473426999989897,0.3473463000264019,1249.2434522999683,,,,,,,,32,D,2023-12-15_10h49.46.625,gca_avoidance_task,2022.2.4,143.97314035413268,
positions.xlsx,stimuli.xlsx,stimuli/Social2.png,stimuli/Social1.png,stimuli/Nonsocial2.png,stimuli/Nonsocial1.png,,"(0.7, -0.5)",cs_minus_ns,,,,,0,0,0,0,,,,,,,,,1,12,28,15,,,,,,,,,,,,,,,,,,,,,1258.9028145000339,90,reward,1,0.2992030999157578,0.2992067999439314,1259.2083679999923,,,,,,,,32,D,2023-12-15_10h49.46.625,gca_avoidance_task,2022.2.4,143.97314035413268,
positions.xlsx,stimuli.xlsx,stimuli/Social2.png,stimuli/Social1.png,stimuli/Nonsocial2.png,stimuli/Nonsocial1.png,,"(-0.7, 0.5)",cs_plus_ns,,,,,0,0,0,0,,,,,,,,,1,13,29,8,,,,,,,,,,,,,,,,,,,,,1269.1663278000196,90,shock,1,0.2990102000767365,0.29901379998773336,1269.471896299976,,,,,,,,32,D,2023-12-15_10h49.46.625,gca_avoidance_task,2022.2.4,143.97314035413268,
positions.xlsx,stimuli.xlsx,stimuli/Social2.png,stimuli/Social1.png,stimuli/Nonsocial2.png,stimuli/Nonsocial1.png,,"(0.7, -0.5)",cs_plus_ns,,,,,0,0,0,0,,,,,,,,,1,14,30,11,,,,,,,,,,,,,,,,,,,,,1278.2909312000265,90,shock,1,0.31967410002835095,0.3196777000557631,1278.617311400012,,,,,,,,32,D,2023-12-15_10h49.46.625,gca_avoidance_task,2022.2.4,143.97314035413268,
positions.xlsx,stimuli.xlsx,stimuli/Social2.png,stimuli/Social1.png,stimuli/Nonsocial2.png,stimuli/Nonsocial1.png,,"(0.7, 0.5)",cs_minus_ns,,,,,0,0,0,0,,,,,,,,,1,15,31,14,,,,,,,,,,,,,,,,,,,,,1288.3322257000254,95,reward,1,0.29221280000638217,0.2922165999189019,1288.6308226999827,,,,,,,,32,D,2023-12-15_10h49.46.625,gca_avoidance_task,2022.2.4,143.97314035413268,
positions.xlsx,stimuli.xlsx,stimuli/Social2.png,stimuli/Social1.png,stimuli/Nonsocial2.png,stimuli/Nonsocial1.png,,"(-0.7, -0.5)",cs_minus_ns,,,,,0,0,0,0,,,,,,,,,2,0,32,13,,,,,,,,,,,,,,,,,,,,,1298.366539800074,100,reward,1,0.3476746999658644,0.3476780999917537,1298.7206839000573,,,,,,,,32,D,2023-12-15_10h49.46.625,gca_avoidance_task,2022.2.4,143.97314035413268,
positions.xlsx,stimuli.xlsx,stimuli/Social2.png,stimuli/Social1.png,stimuli/Nonsocial2.png,stimuli/Nonsocial1.png,,"(-0.7, 0.5)",cs_plus_s,,,,,0,0,0,0,,,,,,,,,2,1,33,0,,,,,,,,,,,,,,,,,,,,,1307.400906200055,100,shock,1,0.2917854000115767,0.291789099923335,1307.6994957000716,,,,,,,,32,D,2023-12-15_10h49.46.625,gca_avoidance_task,2022.2.4,143.97314035413268,
positions.xlsx,stimuli.xlsx,stimuli/Social2.png,stimuli/Social1.png,stimuli/Nonsocial2.png,stimuli/Nonsocial1.png,,"(-0.7, 0.5)",cs_plus_ns,,,,,0,0,0,0,,,,,,,,,2,2,34,8,,,,,,,,,,,,,,,,,,,,,1317.476901600021,100,shock,1,0.417264899937436,0.41726869996637106,1317.9005005999934,,,,,,,,32,D,2023-12-15_10h49.46.625,gca_avoidance_task,2022.2.4,143.97314035413268,
positions.xlsx,stimuli.xlsx,stimuli/Social2.png,stimuli/Social1.png,stimuli/Nonsocial2.png,stimuli/Nonsocial1.png,,"(0.7, 0.5)",cs_minus_ns,,,,,0,0,0,0,,,,,,,,,2,3,35,14,,,,,,,,,,,,,,,,,,,,,1327.6640286999755,105,reward,1,0.36137249995954335,0.361376199987717,1328.0320827000542,,,,,,,,32,D,2023-12-15_10h49.46.625,gca_avoidance_task,2022.2.4,143.97314035413268,
positions.xlsx,stimuli.xlsx,stimuli/Social2.png,stimuli/Social1.png,stimuli/Nonsocial2.png,stimuli/Nonsocial1.png,,"(0.7, 0.5)",cs_plus_ns,,,,,0,0,0,0,,,,,,,,,2,4,36,10,,,,,,,,,,,,,,,,,,,,,1337.7469599000178,105,shock,1,0.28512030001729727,0.28512350004166365,1338.0385915000224,,,,,,,,32,D,2023-12-15_10h49.46.625,gca_avoidance_task,2022.2.4,143.97314035413268,
positions.xlsx,stimuli.xlsx,stimuli/Social2.png,stimuli/Social1.png,stimuli/Nonsocial2.png,stimuli/Nonsocial1.png,,"(-0.7, -0.5)",cs_plus_ns,,,,,0,0,0,0,,,,,,,,,2,5,37,9,,,,,,,,,,,,,,,,,,,,,1347.072974300012,105,shock,1,0.2572755999863148,0.25727940001524985,1347.3299523000605,,,,,,,,32,D,2023-12-15_10h49.46.625,gca_avoidance_task,2022.2.4,143.97314035413268,
positions.xlsx,stimuli.xlsx,stimuli/Social2.png,stimuli/Social1.png,stimuli/Nonsocial2.png,stimuli/Nonsocial1.png,,"(0.7, 0.5)",cs_minus_s,,,,,0,0,0,0,,,,,,,,,2,6,38,6,,,,,,,,,,,,,,,,,,,,,1357.2809279999929,110,reward,1,0.24348229996394366,0.24348589999135584,1357.530944099999,,,,,,,,32,D,2023-12-15_10h49.46.625,gca_avoidance_task,2022.2.4,143.97314035413268,
positions.xlsx,stimuli.xlsx,stimuli/Social2.png,stimuli/Social1.png,stimuli/Nonsocial2.png,stimuli/Nonsocial1.png,,"(-0.7, -0.5)",cs_minus_s,,,,,0,0,0,0,,,,,,,,,2,7,39,5,,,,,,,,,,,,,,,,,,,,,1367.2319382000715,115,reward,1,0.4027320999884978,0.4027356000151485,1367.6416267000604,,,,,,,,32,D,2023-12-15_10h49.46.625,gca_avoidance_task,2022.2.4,143.97314035413268,
positions.xlsx,stimuli.xlsx,stimuli/Social2.png,stimuli/Social1.png,stimuli/Nonsocial2.png,stimuli/Nonsocial1.png,,"(0.7, -0.5)",cs_minus_ns,,,,,0,0,0,0,,,,,,,,,2,8,40,15,,,,,,,,,,,,,,,,,,,,,1377.5717870000517,120,reward,1,0.7501794999698177,0.7501832999987528,1378.328735499992,,,,,,,,32,D,2023-12-15_10h49.46.625,gca_avoidance_task,2022.2.4,143.97314035413268,
positions.xlsx,stimuli.xlsx,stimuli/Social2.png,stimuli/Social1.png,stimuli/Nonsocial2.png,stimuli/Nonsocial1.png,,"(-0.7, 0.5)",cs_minus_ns,,,,,0,0,0,0,,,,,,,,,2,9,41,12,,,,,,,,,,,,,,,,,,,,,1387.2589262999827,125,reward,1,0.2570654000155628,0.2570690999273211,1387.5228071999736,,,,,,,,32,D,2023-12-15_10h49.46.625,gca_avoidance_task,2022.2.4,143.97314035413268,
positions.xlsx,stimuli.xlsx,stimuli/Social2.png,stimuli/Social1.png,stimuli/Nonsocial2.png,stimuli/Nonsocial1.png,,"(-0.7, -0.5)",cs_plus_s,,,,,0,0,0,0,,,,,,,,,2,10,42,1,,,,,,,,,,,,,,,,,,,,,1396.9877117000287,125,shock,1,0.3685172999976203,0.36852110002655536,1397.362711200025,,,,,,,,32,D,2023-12-15_10h49.46.625,gca_avoidance_task,2022.2.4,143.97314035413268,
positions.xlsx,stimuli.xlsx,stimuli/Social2.png,stimuli/Social1.png,stimuli/Nonsocial2.png,stimuli/Nonsocial1.png,,"(-0.7, 0.5)",cs_minus_s,,,,,0,0,0,0,,,,,,,,,2,11,43,4,,,,,,,,,,,,,,,,,,,,,1406.7512318000663,130,reward,1,2.3541426999727264,2.354146199999377,1409.112257400062,,,,,,,,32,D,2023-12-15_10h49.46.625,gca_avoidance_task,2022.2.4,143.97314035413268,
positions.xlsx,stimuli.xlsx,stimuli/Social2.png,stimuli/Social1.png,stimuli/Nonsocial2.png,stimuli/Nonsocial1.png,,"(0.7, -0.5)",cs_minus_s,,,,,0,0,0,0,,,,,,,,,2,12,44,7,,,,,,,,,,,,,,,,,,,,,1418.5007695000386,135,reward,1,2.3265167000936344,2.3265204000053927,1420.834021900082,,,,,,,,32,D,2023-12-15_10h49.46.625,gca_avoidance_task,2022.2.4,143.97314035413268,
positions.xlsx,stimuli.xlsx,stimuli/Social2.png,stimuli/Social1.png,stimuli/Nonsocial2.png,stimuli/Nonsocial1.png,,"(0.7, -0.5)",cs_plus_ns,,,,,0,0,0,0,,,,,,,,,2,13,45,11,,,,,,,,,,,,,,,,,,,,,1431.014153999975,135,shock,1,0.507337799994275,0.5073412000201643,1431.5280361999758,,,,,,,,32,D,2023-12-15_10h49.46.625,gca_avoidance_task,2022.2.4,143.97314035413268,
positions.xlsx,stimuli.xlsx,stimuli/Social2.png,stimuli/Social1.png,stimuli/Nonsocial2.png,stimuli/Nonsocial1.png,,"(0.7, 0.5)",cs_plus_s,,,,,0,0,0,0,,,,,,,,,2,14,46,2,,,,,,,,,,,,,,,,,,,,,1440.9651788000483,135,shock,1,0.37526070000603795,0.3752642999170348,1441.3470856000204,,,,,,,,32,D,2023-12-15_10h49.46.625,gca_avoidance_task,2022.2.4,143.97314035413268,
positions.xlsx,stimuli.xlsx,stimuli/Social2.png,stimuli/Social1.png,stimuli/Nonsocial2.png,stimuli/Nonsocial1.png,,"(0.7, -0.5)",cs_plus_s,,,,,0,0,0,0,,,,,,,,,2,15,47,3,,,,,,,,,,,,,,,,,,,,,1450.3189711000305,135,shock,1,0.32647510000970215,0.3264789000386372,1450.6522867999738,,,,,,,,32,D,2023-12-15_10h49.46.625,gca_avoidance_task,2022.2.4,143.97314035413268,
positions.xlsx,stimuli.xlsx,stimuli/Social2.png,stimuli/Social1.png,stimuli/Nonsocial2.png,stimuli/Nonsocial1.png,,"(-0.7, -0.5)",cs_minus_s,,,,,0,0,0,0,,,,,,,,,3,0,48,5,,,,,,,,,,,,,,,,,,,,,1460.4157999000745,140,reward,1,0.6945870000636205,0.6945907999761403,1461.1171566999983,,,,,,,,32,D,2023-12-15_10h49.46.625,gca_avoidance_task,2022.2.4,143.97314035413268,
positions.xlsx,stimuli.xlsx,stimuli/Social2.png,stimuli/Social1.png,stimuli/Nonsocial2.png,stimuli/Nonsocial1.png,,"(0.7, -0.5)",cs_plus_s,,,,,0,0,0,0,,,,,,,,,3,1,49,3,,,,,,,,,,,,,,,,,,,,,1471.047348699998,140,shock,1,0.4101426999550313,0.41014629998244345,1471.4640137000242,,,,,,,,32,D,2023-12-15_10h49.46.625,gca_avoidance_task,2022.2.4,143.97314035413268,
positions.xlsx,stimuli.xlsx,stimuli/Social2.png,stimuli/Social1.png,stimuli/Nonsocial2.png,stimuli/Nonsocial1.png,,"(-0.7, -0.5)",cs_plus_ns,,,,,0,0,0,0,,,,,,,,,3,2,50,9,,,,,,,,,,,,,,,,,,,,,1481.026107700076,140,shock,1,0.43115670001134276,0.4311608000425622,1481.4636141000083,,,,,,,,32,D,2023-12-15_10h49.46.625,gca_avoidance_task,2022.2.4,143.97314035413268,
positions.xlsx,stimuli.xlsx,stimuli/Social2.png,stimuli/Social1.png,stimuli/Nonsocial2.png,stimuli/Nonsocial1.png,,"(-0.7, 0.5)",cs_plus_ns,,,,,0,0,0,0,,,,,,,,,3,3,51,8,,,,,,,,,,,,,,,,,,,,,1491.0673752999865,140,shock,1,0.3682230000849813,0.36822650011163205,1491.4423700000625,,,,,,,,32,D,2023-12-15_10h49.46.625,gca_avoidance_task,2022.2.4,143.97314035413268,
positions.xlsx,stimuli.xlsx,stimuli/Social2.png,stimuli/Social1.png,stimuli/Nonsocial2.png,stimuli/Nonsocial1.png,,"(-0.7, -0.5)",cs_plus_s,,,,,0,0,0,0,,,,,,,,,3,4,52,1,,,,,,,,,,,,,,,,,,,,,1500.643417000072,140,shock,1,0.36171789991203696,0.36172169994097203,1501.004503400065,,,,,,,,32,D,2023-12-15_10h49.46.625,gca_avoidance_task,2022.2.4,143.97314035413268,
positions.xlsx,stimuli.xlsx,stimuli/Social2.png,stimuli/Social1.png,stimuli/Nonsocial2.png,stimuli/Nonsocial1.png,,"(0.7, -0.5)",cs_plus_ns,,,,,0,0,0,0,,,,,,,,,3,5,53,11,,,,,,,,,,,,,,,,,,,,,1509.9555397999939,140,shock,1,0.38214869995135814,0.38215259998105466,1510.3444270000327,,,,,,,,32,D,2023-12-15_10h49.46.625,gca_avoidance_task,2022.2.4,143.97314035413268,
positions.xlsx,stimuli.xlsx,stimuli/Social2.png,stimuli/Social1.png,stimuli/Nonsocial2.png,stimuli/Nonsocial1.png,,"(-0.7, 0.5)",cs_minus_ns,,,,,0,0,0,0,,,,,,,,,3,6,54,12,,,,,,,,,,,,,,,,,,,,,1519.9065478000557,145,reward,1,0.3126437000464648,0.3126475000753999,1520.225984800025,,,,,,,,32,D,2023-12-15_10h49.46.625,gca_avoidance_task,2022.2.4,143.97314035413268,
positions.xlsx,stimuli.xlsx,stimuli/Social2.png,stimuli/Social1.png,stimuli/Nonsocial2.png,stimuli/Nonsocial1.png,,"(0.7, 0.5)",cs_plus_s,,,,,0,0,0,0,,,,,,,,,3,7,55,2,,,,,,,,,,,,,,,,,,,,,1529.7672707000747,145,shock,1,0.32671419996768236,0.32671779999509454,1530.10061329999,,,,,,,,32,D,2023-12-15_10h49.46.625,gca_avoidance_task,2022.2.4,143.97314035413268,
positions.xlsx,stimuli.xlsx,stimuli/Social2.png,stimuli/Social1.png,stimuli/Nonsocial2.png,stimuli/Nonsocial1.png,,"(0.7, 0.5)",cs_minus_ns,,,,,0,0,0,0,,,,,,,,,3,8,56,14,,,,,,,,,,,,,,,,,,,,,1539.6766082000686,150,reward,1,0.715255800052546,0.7152598000830039,1540.3988283000654,,,,,,,,32,D,2023-12-15_10h49.46.625,gca_avoidance_task,2022.2.4,143.97314035413268,
positions.xlsx,stimuli.xlsx,stimuli/Social2.png,stimuli/Social1.png,stimuli/Nonsocial2.png,stimuli/Nonsocial1.png,,"(0.7, -0.5)",cs_minus_ns,,,,,0,0,0,0,,,,,,,,,3,9,57,15,,,,,,,,,,,,,,,,,,,,,1549.988724200055,155,reward,1,0.6874152000527829,0.6874191000824794,1550.683123200084,,,,,,,,32,D,2023-12-15_10h49.46.625,gca_avoidance_task,2022.2.4,143.97314035413268,
positions.xlsx,stimuli.xlsx,stimuli/Social2.png,stimuli/Social1.png,stimuli/Nonsocial2.png,stimuli/Nonsocial1.png,,"(0.7, 0.5)",cs_minus_s,,,,,0,0,0,0,,,,,,,,,3,10,58,6,,,,,,,,,,,,,,,,,,,,,1560.8563368000323,160,reward,1,0.2782004000619054,0.28509000001940876,1561.1480267000152,,,,,,,,32,D,2023-12-15_10h49.46.625,gca_avoidance_task,2022.2.4,143.97314035413268,
positions.xlsx,stimuli.xlsx,stimuli/Social2.png,stimuli/Social1.png,stimuli/Nonsocial2.png,stimuli/Nonsocial1.png,,"(0.7, -0.5)",cs_minus_s,,,,,0,0,0,0,,,,,,,,,3,11,59,7,,,,,,,,,,,,,,,,,,,,,1570.8976296000183,165,reward,1,0.38887260004412383,0.3888764000730589,1571.2934483999852,,,,,,,,32,D,2023-12-15_10h49.46.625,gca_avoidance_task,2022.2.4,143.97314035413268,
positions.xlsx,stimuli.xlsx,stimuli/Social2.png,stimuli/Social1.png,stimuli/Nonsocial2.png,stimuli/Nonsocial1.png,,"(0.7, 0.5)",cs_plus_ns,,,,,0,0,0,0,,,,,,,,,3,12,60,10,,,,,,,,,,,,,,,,,,,,,1579.8694918000838,165,shock,1,0.4032275000354275,0.40323089994490147,1580.2792437999742,,,,,,,,32,D,2023-12-15_10h49.46.625,gca_avoidance_task,2022.2.4,143.97314035413268,
positions.xlsx,stimuli.xlsx,stimuli/Social2.png,stimuli/Social1.png,stimuli/Nonsocial2.png,stimuli/Nonsocial1.png,,"(-0.7, 0.5)",cs_minus_s,,,,,0,0,0,0,,,,,,,,,3,13,61,4,,,,,,,,,,,,,,,,,,,,,1589.6260754000396,170,reward,1,0.20149459992535412,0.2014981999527663,1589.83438330004,,,,,,,,32,D,2023-12-15_10h49.46.625,gca_avoidance_task,2022.2.4,143.97314035413268,
positions.xlsx,stimuli.xlsx,stimuli/Social2.png,stimuli/Social1.png,stimuli/Nonsocial2.png,stimuli/Nonsocial1.png,,"(-0.7, 0.5)",cs_plus_s,,,,,0,0,0,0,,,,,,,,,3,14,62,0,,,,,,,,,,,,,,,,,,,,,1599.3687361000339,170,shock,1,0.21549590001814067,0.2154996000463143,1599.5909472000785,,,,,,,,32,D,2023-12-15_10h49.46.625,gca_avoidance_task,2022.2.4,143.97314035413268,
positions.xlsx,stimuli.xlsx,stimuli/Social2.png,stimuli/Social1.png,stimuli/Nonsocial2.png,stimuli/Nonsocial1.png,,"(-0.7, -0.5)",cs_minus_ns,,,,,0,0,0,0,,,,,,,,,3,15,63,13,,,,,,,,,,,,,,,,,,,,,1609.507202800014,175,reward,1,0.2987411000067368,0.29874500003643334,1609.8127764000092,,,,,,,,32,D,2023-12-15_10h49.46.625,gca_avoidance_task,2022.2.4,143.97314035413268,
positions.xlsx,stimuli.xlsx,stimuli/Social2.png,stimuli/Social1.png,stimuli/Nonsocial2.png,stimuli/Nonsocial1.png,,"(-0.7, 0.5)",cs_minus_s,,,,,0,0,0,0,,,,,,,,,4,0,64,4,,,,,,,,,,,,,,,,,,,,,1619.5832524000434,180,reward,1,0.33372350002173334,0.3337273000506684,1619.9235158000374,,,,,,,,32,D,2023-12-15_10h49.46.625,gca_avoidance_task,2022.2.4,143.97314035413268,
positions.xlsx,stimuli.xlsx,stimuli/Social2.png,stimuli/Social1.png,stimuli/Nonsocial2.png,stimuli/Nonsocial1.png,,"(-0.7, -0.5)",cs_plus_ns,,,,,0,0,0,0,,,,,,,,,4,1,65,9,,,,,,,,,,,,,,,,,,,,,1629.7633867000695,180,shock,1,0.736261099926196,0.7362646999536082,1630.5064701000229,,,,,,,,32,D,2023-12-15_10h49.46.625,gca_avoidance_task,2022.2.4,143.97314035413268,
positions.xlsx,stimuli.xlsx,stimuli/Social2.png,stimuli/Social1.png,stimuli/Nonsocial2.png,stimuli/Nonsocial1.png,,"(0.7, -0.5)",cs_minus_ns,,,,,0,0,0,0,,,,,,,,,4,2,66,15,,,,,,,,,,,,,,,,,,,,,1640.0477409000741,185,reward,1,0.38918429997283965,0.3891882000025362,1640.4435737000313,,,,,,,,32,D,2023-12-15_10h49.46.625,gca_avoidance_task,2022.2.4,143.97314035413268,
positions.xlsx,stimuli.xlsx,stimuli/Social2.png,stimuli/Social1.png,stimuli/Nonsocial2.png,stimuli/Nonsocial1.png,,"(-0.7, -0.5)",cs_plus_s,,,,,0,0,0,0,,,,,,,,,4,3,67,1,,,,,,,,,,,,,,,,,,,,,1649.9779114000266,185,shock,1,0.3199505000375211,0.31995440006721765,1650.3042389000766,,,,,,,,32,D,2023-12-15_10h49.46.625,gca_avoidance_task,2022.2.4,143.97314035413268,
positions.xlsx,stimuli.xlsx,stimuli/Social2.png,stimuli/Social1.png,stimuli/Nonsocial2.png,stimuli/Nonsocial1.png,,"(0.7, -0.5)",cs_minus_s,,,,,0,0,0,0,,,,,,,,,4,4,68,7,,,,,,,,,,,,,,,,,,,,,1660.1997032000218,190,reward,1,0.20845070003997535,0.20845419995021075,1660.4149892000714,,,,,,,,32,D,2023-12-15_10h49.46.625,gca_avoidance_task,2022.2.4,143.97314035413268,
positions.xlsx,stimuli.xlsx,stimuli/Social2.png,stimuli/Social1.png,stimuli/Nonsocial2.png,stimuli/Nonsocial1.png,,"(-0.7, 0.5)",cs_plus_s,,,,,0,0,0,0,,,,,,,,,4,5,69,0,,,,,,,,,,,,,,,,,,,,,1669.7410185000626,190,shock,1,3.1109416999388486,3.1109454999677837,1672.85892769997,,,,,,,,32,D,2023-12-15_10h49.46.625,gca_avoidance_task,2022.2.4,143.97314035413268,
positions.xlsx,stimuli.xlsx,stimuli/Social2.png,stimuli/Social1.png,stimuli/Nonsocial2.png,stimuli/Nonsocial1.png,,"(0.7, 0.5)",cs_plus_ns,,,,,0,0,0,0,,,,,,,,,4,6,70,10,,,,,,,,,,,,,,,,,,,,,1681.9696933000814,190,shock,1,0.29904610000085086,0.2990498000290245,1682.275254099979,,,,,,,,32,D,2023-12-15_10h49.46.625,gca_avoidance_task,2022.2.4,143.97314035413268,
positions.xlsx,stimuli.xlsx,stimuli/Social2.png,stimuli/Social1.png,stimuli/Nonsocial2.png,stimuli/Nonsocial1.png,,"(-0.7, -0.5)",cs_minus_s,,,,,0,0,0,0,,,,,,,,,4,7,71,5,,,,,,,,,,,,,,,,,,,,,1692.1568278999766,195,reward,1,0.26439260004553944,0.26439610007219017,1692.4276568000205,,,,,,,,32,D,2023-12-15_10h49.46.625,gca_avoidance_task,2022.2.4,143.97314035413268,
positions.xlsx,stimuli.xlsx,stimuli/Social2.png,stimuli/Social1.png,stimuli/Nonsocial2.png,stimuli/Nonsocial1.png,,"(0.7, 0.5)",cs_minus_ns,,,,,0,0,0,0,,,,,,,,,4,8,72,14,,,,,,,,,,,,,,,,,,,,,1702.5175256000366,200,reward,1,0.26420340000186116,0.26420700002927333,1702.7883895999985,,,,,,,,32,D,2023-12-15_10h49.46.625,gca_avoidance_task,2022.2.4,143.97314035413268,
positions.xlsx,stimuli.xlsx,stimuli/Social2.png,stimuli/Social1.png,stimuli/Nonsocial2.png,stimuli/Nonsocial1.png,,"(0.7, -0.5)",cs_plus_ns,,,,,0,0,0,0,,,,,,,,,4,9,73,11,,,,,,,,,,,,,,,,,,,,,1712.4060077000177,200,shock,1,0.2643794999457896,0.26438329997472465,1712.676851300057,,,,,,,,32,D,2023-12-15_10h49.46.625,gca_avoidance_task,2022.2.4,143.97314035413268,
positions.xlsx,stimuli.xlsx,stimuli/Social2.png,stimuli/Social1.png,stimuli/Nonsocial2.png,stimuli/Nonsocial1.png,,"(-0.7, -0.5)",cs_minus_ns,,,,,0,0,0,0,,,,,,,,,4,10,74,13,,,,,,,,,,,,,,,,,,,,,1722.169522400014,205,reward,1,0.20171089994255453,0.20171479997225106,1722.3778588999994,,,,,,,,32,D,2023-12-15_10h49.46.625,gca_avoidance_task,2022.2.4,143.97314035413268,
positions.xlsx,stimuli.xlsx,stimuli/Social2.png,stimuli/Social1.png,stimuli/Nonsocial2.png,stimuli/Nonsocial1.png,,"(-0.7, 0.5)",cs_plus_ns,,,,,0,0,0,0,,,,,,,,,4,11,75,8,,,,,,,,,,,,,,,,,,,,,1732.099692100077,205,shock,1,0.2573504000902176,0.25735400000121444,1732.363585800049,,,,,,,,32,D,2023-12-15_10h49.46.625,gca_avoidance_task,2022.2.4,143.97314035413268,
positions.xlsx,stimuli.xlsx,stimuli/Social2.png,stimuli/Social1.png,stimuli/Nonsocial2.png,stimuli/Nonsocial1.png,,"(-0.7, 0.5)",cs_minus_ns,,,,,0,0,0,0,,,,,,,,,4,12,76,12,,,,,,,,,,,,,,,,,,,,,1741.9604588000802,210,reward,1,0.27815050003118813,0.2781543000601232,1742.2451370999916,,,,,,,,32,D,2023-12-15_10h49.46.625,gca_avoidance_task,2022.2.4,143.97314035413268,
positions.xlsx,stimuli.xlsx,stimuli/Social2.png,stimuli/Social1.png,stimuli/Nonsocial2.png,stimuli/Nonsocial1.png,,"(0.7, -0.5)",cs_plus_s,,,,,0,0,0,0,,,,,,,,,4,13,77,3,,,,,,,,,,,,,,,,,,,,,1752.0780850000447,210,shock,1,0.2778796999482438,0.27788349997717887,1752.3627954999683,,,,,,,,32,D,2023-12-15_10h49.46.625,gca_avoidance_task,2022.2.4,143.97314035413268,
positions.xlsx,stimuli.xlsx,stimuli/Social2.png,stimuli/Social1.png,stimuli/Nonsocial2.png,stimuli/Nonsocial1.png,,"(0.7, 0.5)",cs_minus_s,,,,,0,0,0,0,,,,,,,,,4,14,78,6,,,,,,,,,,,,,,,,,,,,,1762.244378500036,215,reward,1,0.2986559000564739,0.298659700085409,1762.549897100078,,,,,,,,32,D,2023-12-15_10h49.46.625,gca_avoidance_task,2022.2.4,143.97314035413268,
positions.xlsx,stimuli.xlsx,stimuli/Social2.png,stimuli/Social1.png,stimuli/Nonsocial2.png,stimuli/Nonsocial1.png,,"(0.7, 0.5)",cs_plus_s,,,,,0,0,0,0,,,,,,,,,4,15,79,2,,,,,,,,,,,,,,,,,,,,,1772.653689900064,215,shock,1,0.32013659994117916,0.3268884998979047,1772.9870017999783,,,,,,,,32,D,2023-12-15_10h49.46.625,gca_avoidance_task,2022.2.4,143.97314035413268,
positions.xlsx,stimuli.xlsx,stimuli/Social2.png,stimuli/Social1.png,stimuli/Nonsocial2.png,stimuli/Nonsocial1.png,cs_minus_ns,,,,,,,0,0,0,0,,,,,,,,,,,,,0,0,0,3,,,,,,,,,,,,,1792.4932004000293,7.0,6.502135500079021,,,,,,,,,4.0,10.277962899999693,,,,,,32,D,2023-12-15_10h49.46.625,gca_avoidance_task,2022.2.4,143.97314035413268,
positions.xlsx,stimuli.xlsx,stimuli/Social2.png,stimuli/Social1.png,stimuli/Nonsocial2.png,stimuli/Nonsocial1.png,cs_plus_s,,,,,,,0,0,0,0,,,,,,,,,,,,,0,1,1,0,,,,,,,,,,,,,1801.3123120000819,6.0,4.513952099950984,,,,,,,,,,,,,,,,32,D,2023-12-15_10h49.46.625,gca_avoidance_task,2022.2.4,143.97314035413268,
positions.xlsx,stimuli.xlsx,stimuli/Social2.png,stimuli/Social1.png,stimuli/Nonsocial2.png,stimuli/Nonsocial1.png,cs_minus_s,,,,,,,0,0,0,0,,,,,,,,,,,,,0,2,2,2,,,,,,,,,,,,,1806.7843049999792,9.0,3.215410799952224,,,,,,,,,,,,,,,,32,D,2023-12-15_10h49.46.625,gca_avoidance_task,2022.2.4,143.97314035413268,
positions.xlsx,stimuli.xlsx,stimuli/Social2.png,stimuli/Social1.png,stimuli/Nonsocial2.png,stimuli/Nonsocial1.png,cs_plus_ns,,,,,,,0,0,0,0,,,,,,,,,,,,,0,3,3,1,,,,,,,,,,,,,1810.3119755000807,8.0,3.117805700050667,,,,,,,,,,,,,,,,32,D,2023-12-15_10h49.46.625,gca_avoidance_task,2022.2.4,143.97314035413268,
positions.xlsx,stimuli.xlsx,stimuli/Social2.png,stimuli/Social1.png,stimuli/Nonsocial2.png,stimuli/Nonsocial1.png,cs_minus_ns,,,,,,,0,0,0,0,,,,,,,,,,,,,,,,,0,0,0,3,,,,,,,,,,,,,,,,,,,,,,1813.6104488000274,1818.5060736000305,5,0.3125266000861302,3.951256300089881,32,D,2023-12-15_10h49.46.625,gca_avoidance_task,2022.2.4,143.97314035413268,
positions.xlsx,stimuli.xlsx,stimuli/Social2.png,stimuli/Social1.png,stimuli/Nonsocial2.png,stimuli/Nonsocial1.png,cs_plus_ns,,,,,,,0,0,0,0,,,,,,,,,,,,,,,,,0,1,1,1,,,,,,,,,,,,,,,,,,,,,,,1833.0333493000362,6,0.014770700014196336,4.173660299973562,32,D,2023-12-15_10h49.46.625,gca_avoidance_task,2022.2.4,143.97314035413268,
positions.xlsx,stimuli.xlsx,stimuli/Social2.png,stimuli/Social1.png,stimuli/Nonsocial2.png,stimuli/Nonsocial1.png,cs_plus_s,,,,,,,0,0,0,0,,,,,,,,,,,,,,,,,0,2,2,0,,,,,,,,,,,,,,,,,,,,,,,1848.2827254000586,7,0.014951799996197224,0.9516457999125123,32,D,2023-12-15_10h49.46.625,gca_avoidance_task,2022.2.4,143.97314035413268,
positions.xlsx,stimuli.xlsx,stimuli/Social2.png,stimuli/Social1.png,stimuli/Nonsocial2.png,stimuli/Nonsocial1.png,cs_minus_s,,,,,,,0,0,0,0,,,,,,,,,,,,,,,,,0,3,3,2,,,,,,,,,,,,,,,,,,,,,,,1862.8168716999935,6,0.05594520003069192,1.382350999978371,32,D,2023-12-15_10h49.46.625,gca_avoidance_task,2022.2.4,143.97314035413268,
positions.xlsx,stimuli.xlsx,stimuli/Social2.png,stimuli/Social1.png,stimuli/Nonsocial2.png,stimuli/Nonsocial1.png,cs_minus_ns,,,,,,,0,0,0,0,,,,,,,,,,,,,,,,,1,0,4,3,,,,,,,,,,,,,,,,,,,,,,,1877.93432520004,4,0.014946899958886206,0.729545500013046,32,D,2023-12-15_10h49.46.625,gca_avoidance_task,2022.2.4,143.97314035413268,
positions.xlsx,stimuli.xlsx,stimuli/Social2.png,stimuli/Social1.png,stimuli/Nonsocial2.png,stimuli/Nonsocial1.png,cs_plus_s,,,,,,,0,0,0,0,,,,,,,,,,,,,,,,,1,1,5,0,,,,,,,,,,,,,,,,,,,,,,,1892.7462646000786,7,0.014834099914878607,1.028205499984324,32,D,2023-12-15_10h49.46.625,gca_avoidance_task,2022.2.4,143.97314035413268,
positions.xlsx,stimuli.xlsx,stimuli/Social2.png,stimuli/Social1.png,stimuli/Nonsocial2.png,stimuli/Nonsocial1.png,cs_plus_ns,,,,,,,0,0,0,0,,,,,,,,,,,,,,,,,1,2,6,1,,,,,,,,,,,,,,,,,,,,,,,1908.0651239000726,4,0.014855399960651994,5.923730199923739,32,D,2023-12-15_10h49.46.625,gca_avoidance_task,2022.2.4,143.97314035413268,
positions.xlsx,stimuli.xlsx,stimuli/Social2.png,stimuli/Social1.png,stimuli/Nonsocial2.png,stimuli/Nonsocial1.png,cs_minus_s,,,,,,,0,0,0,0,,,,,,,,,,,,,,,,,1,3,7,2,,,,,,,,,,,,,,,,,,,,,,,1922.7589918000158,10,0.013752900063991547,2.9931620999705046,32,D,2023-12-15_10h49.46.625,gca_avoidance_task,2022.2.4,143.97314035413268,
positions.xlsx,stimuli.xlsx,stimuli/Social2.png,stimuli/Social1.png,stimuli/Nonsocial2.png,stimuli/Nonsocial1.png,cs_minus_s,,,,,,,0,0,0,0,,,,,,,,,,,,,,,,,2,0,8,2,,,,,,,,,,,,,,,,,,,,,,,1938.154219500022,4,0.013288700021803379,0.7294456999516115,32,D,2023-12-15_10h49.46.625,gca_avoidance_task,2022.2.4,143.97314035413268,
positions.xlsx,stimuli.xlsx,stimuli/Social2.png,stimuli/Social1.png,stimuli/Nonsocial2.png,stimuli/Nonsocial1.png,cs_plus_s,,,,,,,0,0,0,0,,,,,,,,,,,,,,,,,2,1,9,0,,,,,,,,,,,,,,,,,,,,,,,1953.195300100022,4,0.014117000042460859,0.7785283999983221,32,D,2023-12-15_10h49.46.625,gca_avoidance_task,2022.2.4,143.97314035413268,
positions.xlsx,stimuli.xlsx,stimuli/Social2.png,stimuli/Social1.png,stimuli/Nonsocial2.png,stimuli/Nonsocial1.png,cs_plus_ns,,,,,,,0,0,0,0,,,,,,,,,,,,,,,,,2,2,10,1,,,,,,,,,,,,,,,,,,,,,,,1967.7572422000812,10,0.014096600003540516,0.9031440999824554,32,D,2023-12-15_10h49.46.625,gca_avoidance_task,2022.2.4,143.97314035413268,
positions.xlsx,stimuli.xlsx,stimuli/Social2.png,stimuli/Social1.png,stimuli/Nonsocial2.png,stimuli/Nonsocial1.png,cs_minus_ns,,,,,,,0,0,0,0,,,,,,,,,,,,,,,,,2,3,11,3,,,,,,,,,,,,,,,,,,,,,,,1982.3886097000213,7,0.014518700074404478,0.653119400027208,32,D,2023-12-15_10h49.46.625,gca_avoidance_task,2022.2.4,143.97314035413268,
positions.xlsx,stimuli.xlsx,stimuli/Social2.png,stimuli/Social1.png,stimuli/Nonsocial2.png,stimuli/Nonsocial1.png,cs_minus_ns,,,,,,,0,0,0,0,,,,,,,,,,,,,,,,,3,0,12,3,,,,,,,,,,,,,,,,,,,,,,,1997.4227545000613,4,0.014131300034932792,1.0905587000306696,32,D,2023-12-15_10h49.46.625,gca_avoidance_task,2022.2.4,143.97314035413268,
positions.xlsx,stimuli.xlsx,stimuli/Social2.png,stimuli/Social1.png,stimuli/Nonsocial2.png,stimuli/Nonsocial1.png,cs_plus_ns,,,,,,,0,0,0,0,,,,,,,,,,,,,,,,,3,1,13,1,,,,,,,,,,,,,,,,,,,,,,,2012.915204100078,4,0.01393889996688813,0.6876884999219328,32,D,2023-12-15_10h49.46.625,gca_avoidance_task,2022.2.4,143.97314035413268,
positions.xlsx,stimuli.xlsx,stimuli/Social2.png,stimuli/Social1.png,stimuli/Nonsocial2.png,stimuli/Nonsocial1.png,cs_plus_s,,,,,,,0,0,0,0,,,,,,,,,,,,,,,,,3,2,14,0,,,,,,,,,,,,,,,,,,,,,,,2028.3659952000016,5,0.013261800049804151,4.500160000054166,32,D,2023-12-15_10h49.46.625,gca_avoidance_task,2022.2.4,143.97314035413268,
positions.xlsx,stimuli.xlsx,stimuli/Social2.png,stimuli/Social1.png,stimuli/Nonsocial2.png,stimuli/Nonsocial1.png,cs_minus_s,,,,,,,0,0,0,0,,,,,,,,,,,,,,,,,3,3,15,2,,,,,,,,,,,,,,,,,,,,,,,2043.816782800015,5,0.013519900036044419,1.4863675000378862,32,D,2023-12-15_10h49.46.625,gca_avoidance_task,2022.2.4,143.97314035413268,
positions.xlsx,stimuli.xlsx,stimuli/Social2.png,stimuli/Social1.png,stimuli/Nonsocial2.png,stimuli/Nonsocial1.png,cs_plus_s,,,,,,,0,0,0,0,,,,,,,,,,,,,,,,,4,0,16,0,,,,,,,,,,,,,,,,,,,,,,,2059.288428900065,3,0.08370770001783967,4.236339200055227,32,D,2023-12-15_10h49.46.625,gca_avoidance_task,2022.2.4,143.97314035413268,
positions.xlsx,stimuli.xlsx,stimuli/Social2.png,stimuli/Social1.png,stimuli/Nonsocial2.png,stimuli/Nonsocial1.png,cs_minus_ns,,,,,,,0,0,0,0,,,,,,,,,,,,,,,,,4,1,17,3,,,,,,,,,,,,,,,,,,,,,,,2074.697517600027,4,3.3683320999844,6.590402300003916,32,D,2023-12-15_10h49.46.625,gca_avoidance_task,2022.2.4,143.97314035413268,
positions.xlsx,stimuli.xlsx,stimuli/Social2.png,stimuli/Social1.png,stimuli/Nonsocial2.png,stimuli/Nonsocial1.png,cs_plus_ns,,,,,,,0,0,0,0,,,,,,,,,,,,,,,,,4,2,18,1,,,,,,,,,,,,,,,,,,,,,,,2089.516383200069,4,0.013995599932968616,1.8407006999477744,32,D,2023-12-15_10h49.46.625,gca_avoidance_task,2022.2.4,143.97314035413268,
positions.xlsx,stimuli.xlsx,stimuli/Social2.png,stimuli/Social1.png,stimuli/Nonsocial2.png,stimuli/Nonsocial1.png,cs_minus_s,,,,,,,0,0,0,0,,,,,,,,,,,,,,,,,4,3,19,2,,,,,,,,,,,,,,,,,,,,,,,2104.182533000014,6,0.014906800002790987,0.7573316999478266,32,D,2023-12-15_10h49.46.625,gca_avoidance_task,2022.2.4,143.97314035413268,
positions.xlsx,stimuli.xlsx,stimuli/Social2.png,stimuli/Social1.png,stimuli/Nonsocial2.png,stimuli/Nonsocial1.png,cs_plus_s,,,,,,,0,0,0,0,,,,,,,,,,,,,,,,,5,0,20,0,,,,,,,,,,,,,,,,,,,,,,,2119.084722800064,2,0.01449180010240525,9.319516600109637,32,D,2023-12-15_10h49.46.625,gca_avoidance_task,2022.2.4,143.97314035413268,
positions.xlsx,stimuli.xlsx,stimuli/Social2.png,stimuli/Social1.png,stimuli/Nonsocial2.png,stimuli/Nonsocial1.png,cs_minus_ns,,,,,,,0,0,0,0,,,,,,,,,,,,,,,,,5,1,21,3,,,,,,,,,,,,,,,,,,,,,,,2133.6119109999854,2,0.01565469999331981,6.875238999957219,32,D,2023-12-15_10h49.46.625,gca_avoidance_task,2022.2.4,143.97314035413268,
positions.xlsx,stimuli.xlsx,stimuli/Social2.png,stimuli/Social1.png,stimuli/Nonsocial2.png,stimuli/Nonsocial1.png,cs_plus_ns,,,,,,,0,0,0,0,,,,,,,,,,,,,,,,,5,2,22,1,,,,,,,,,,,,,,,,,,,,,,,2149.055775200017,3,0.014771900023333728,8.201471199980006,32,D,2023-12-15_10h49.46.625,gca_avoidance_task,2022.2.4,143.97314035413268,
positions.xlsx,stimuli.xlsx,stimuli/Social2.png,stimuli/Social1.png,stimuli/Nonsocial2.png,stimuli/Nonsocial1.png,cs_minus_s,,,,,,,0,0,0,0,,,,,,,,,,,,,,,,,5,3,23,2,,,,,,,,,,,,,,,,,,,,,,,2164.4510163000086,5,0.01499679998960346,0.8196980999782681,32,D,2023-12-15_10h49.46.625,gca_avoidance_task,2022.2.4,143.97314035413268,
positions.xlsx,stimuli.xlsx,stimuli/Social2.png,stimuli/Social1.png,stimuli/Nonsocial2.png,stimuli/Nonsocial1.png,cs_plus_ns,,,,,,,0,0,0,0,,,,,,,,,,,,,,,,,6,0,24,1,,,,,,,,,,,,,,,,,,,,,,,2179.7420668000123,2,0.015504599898122251,0.5559935999335721,32,D,2023-12-15_10h49.46.625,gca_avoidance_task,2022.2.4,143.97314035413268,
positions.xlsx,stimuli.xlsx,stimuli/Social2.png,stimuli/Social1.png,stimuli/Nonsocial2.png,stimuli/Nonsocial1.png,cs_plus_s,,,,,,,0,0,0,0,,,,,,,,,,,,,,,,,6,1,25,0,,,,,,,,,,,,,,,,,,,,,,,2195.248427500017,5,0.014169699978083372,0.2504868999822065,32,D,2023-12-15_10h49.46.625,gca_avoidance_task,2022.2.4,143.97314035413268,
positions.xlsx,stimuli.xlsx,stimuli/Social2.png,stimuli/Social1.png,stimuli/Nonsocial2.png,stimuli/Nonsocial1.png,cs_minus_s,,,,,,,0,0,0,0,,,,,,,,,,,,,,,,,6,2,26,2,,,,,,,,,,,,,,,,,,,,,,,2210.143675200059,4,0.01445770007558167,0.04911520006135106,32,D,2023-12-15_10h49.46.625,gca_avoidance_task,2022.2.4,143.97314035413268,
positions.xlsx,stimuli.xlsx,stimuli/Social2.png,stimuli/Social1.png,stimuli/Nonsocial2.png,stimuli/Nonsocial1.png,cs_minus_ns,,,,,,,0,0,0,0,,,,,,,,,,,,,,,,,6,3,27,3,,,,,,,,,,,,,,,,,,,,,,,2225.295878999983,5,0.014190500020049512,0.4727131000254303,32,D,2023-12-15_10h49.46.625,gca_avoidance_task,2022.2.4,143.97314035413268,
positions.xlsx,stimuli.xlsx,stimuli/Social2.png,stimuli/Social1.png,stimuli/Nonsocial2.png,stimuli/Nonsocial1.png,cs_plus_ns,,,,,,,0,0,0,0,,,,,,,,,,,,,,,,,7,0,28,1,,,,,,,,,,,,,,,,,,,,,,,2240.1424818000523,7,0.013877099961973727,0.6044666999951005,32,D,2023-12-15_10h49.46.625,gca_avoidance_task,2022.2.4,143.97314035413268,
positions.xlsx,stimuli.xlsx,stimuli/Social2.png,stimuli/Social1.png,stimuli/Nonsocial2.png,stimuli/Nonsocial1.png,cs_plus_s,,,,,,,0,0,0,0,,,,,,,,,,,,,,,,,7,1,29,0,,,,,,,,,,,,,,,,,,,,,,,2255.0794706000015,9,0.013690099935047328,0.24347109999507666,32,D,2023-12-15_10h49.46.625,gca_avoidance_task,2022.2.4,143.97314035413268,
positions.xlsx,stimuli.xlsx,stimuli/Social2.png,stimuli/Social1.png,stimuli/Nonsocial2.png,stimuli/Nonsocial1.png,cs_minus_ns,,,,,,,0,0,0,0,,,,,,,,,,,,,,,,,7,2,30,3,,,,,,,,,,,,,,,,,,,,,,,2270.4121758000692,4,0.014211500063538551,2.236460200045258,32,D,2023-12-15_10h49.46.625,gca_avoidance_task,2022.2.4,143.97314035413268,
positions.xlsx,stimuli.xlsx,stimuli/Social2.png,stimuli/Social1.png,stimuli/Nonsocial2.png,stimuli/Nonsocial1.png,cs_minus_s,,,,,,,0,0,0,0,,,,,,,,,,,,,,,,,7,3,31,2,,,,,,,,,,,,,,,,,,,,,,,2285.4046363000525,5,0.013714000000618398,0.7929859000723809,32,D,2023-12-15_10h49.46.625,gca_avoidance_task,2022.2.4,143.97314035413268,
positions.xlsx,stimuli.xlsx,stimuli/Social2.png,stimuli/Social1.png,stimuli/Nonsocial2.png,stimuli/Nonsocial1.png,cs_plus_s,,,,,,,0,0,0,0,,,,,,,,,,,,,,,,,8,0,32,0,,,,,,,,,,,,,,,,,,,,,,,2300.876242200029,14,0.014055500039830804,0.1463147000176832,32,D,2023-12-15_10h49.46.625,gca_avoidance_task,2022.2.4,143.97314035413268,
positions.xlsx,stimuli.xlsx,stimuli/Social2.png,stimuli/Social1.png,stimuli/Nonsocial2.png,stimuli/Nonsocial1.png,cs_plus_ns,,,,,,,0,0,0,0,,,,,,,,,,,,,,,,,8,1,33,1,,,,,,,,,,,,,,,,,,,,,,,2315.792330699973,6,0.014659699983894825,3.5209157000062987,32,D,2023-12-15_10h49.46.625,gca_avoidance_task,2022.2.4,143.97314035413268,
positions.xlsx,stimuli.xlsx,stimuli/Social2.png,stimuli/Social1.png,stimuli/Nonsocial2.png,stimuli/Nonsocial1.png,cs_minus_s,,,,,,,0,0,0,0,,,,,,,,,,,,,,,,,8,2,34,2,,,,,,,,,,,,,,,,,,,,,,,2330.5417872000253,12,0.01318609993904829,0.6460799999767914,32,D,2023-12-15_10h49.46.625,gca_avoidance_task,2022.2.4,143.97314035413268,
positions.xlsx,stimuli.xlsx,stimuli/Social2.png,stimuli/Social1.png,stimuli/Nonsocial2.png,stimuli/Nonsocial1.png,cs_minus_ns,,,,,,,0,0,0,0,,,,,,,,,,,,,,,,,8,3,35,3,,,,,,,,,,,,,,,,,,,,,,,2345.1106780000264,11,0.24357559997588396,1.632455199956894,32,D,2023-12-15_10h49.46.625,gca_avoidance_task,2022.2.4,143.97314035413268,
positions.xlsx,stimuli.xlsx,stimuli/Social2.png,stimuli/Social1.png,stimuli/Nonsocial2.png,stimuli/Nonsocial1.png,cs_minus_s,,,,,,,0,0,0,0,,,,,,,,,,,,,,,,,9,0,36,2,,,,,,,,,,,,,,,,,,,,,,,2359.9364942000248,8,0.013568699941970408,0.701700699981302,32,D,2023-12-15_10h49.46.625,gca_avoidance_task,2022.2.4,143.97314035413268,
positions.xlsx,stimuli.xlsx,stimuli/Social2.png,stimuli/Social1.png,stimuli/Nonsocial2.png,stimuli/Nonsocial1.png,cs_minus_ns,,,,,,,0,0,0,0,,,,,,,,,,,,,,,,,9,1,37,3,,,,,,,,,,,,,,,,,,,,,,,2374.9706362000434,9,0.01398660009726882,0.13923470000736415,32,D,2023-12-15_10h49.46.625,gca_avoidance_task,2022.2.4,143.97314035413268,
positions.xlsx,stimuli.xlsx,stimuli/Social2.png,stimuli/Social1.png,stimuli/Nonsocial2.png,stimuli/Nonsocial1.png,cs_plus_ns,,,,,,,0,0,0,0,,,,,,,,,,,,,,,,,9,2,38,1,,,,,,,,,,,,,,,,,,,,,,,2390.0672533999896,1,0.014852799940854311,9.99993779999204,32,D,2023-12-15_10h49.46.625,gca_avoidance_task,2022.2.4,143.97314035413268,
positions.xlsx,stimuli.xlsx,stimuli/Social2.png,stimuli/Social1.png,stimuli/Nonsocial2.png,stimuli/Nonsocial1.png,cs_plus_s,,,,,,,0,0,0,0,,,,,,,,,,,,,,,,,9,3,39,0,,,,,,,,,,,,,,,,,,,,,,,2404.9625356000615,5,0.01450039993505925,0.4379598000086844,32,D,2023-12-15_10h49.46.625,gca_avoidance_task,2022.2.4,143.97314035413268,
positions.xlsx,stimuli.xlsx,stimuli/Social2.png,stimuli/Social1.png,stimuli/Nonsocial2.png,stimuli/Nonsocial1.png,cs_plus_s,,,,,,,0,0,0,0,,,,,,,,,,,,,,,,,,,,,0,0,0,0,,,,,2418.8856249999953,7.0,13.037705400027335,,,,,,,,,,,,,,,,32,D,2023-12-15_10h49.46.625,gca_avoidance_task,2022.2.4,143.97314035413268,
positions.xlsx,stimuli.xlsx,stimuli/Social2.png,stimuli/Social1.png,stimuli/Nonsocial2.png,stimuli/Nonsocial1.png,cs_plus_ns,,,,,,,0,0,0,0,,,,,,,,,,,,,,,,,,,,,0,1,1,1,,,,,2432.329537600046,9.0,5.0483689999673516,,,,,,,,,,,,,,,,32,D,2023-12-15_10h49.46.625,gca_avoidance_task,2022.2.4,143.97314035413268,
positions.xlsx,stimuli.xlsx,stimuli/Social2.png,stimuli/Social1.png,stimuli/Nonsocial2.png,stimuli/Nonsocial1.png,cs_minus_s,,,,,,,0,0,0,0,,,,,,,,,,,,,,,,,,,,,0,2,2,2,,,,,2439.815326299984,9.0,1.6744080999633297,,,,,,,,,,,,,,,,32,D,2023-12-15_10h49.46.625,gca_avoidance_task,2022.2.4,143.97314035413268,
positions.xlsx,stimuli.xlsx,stimuli/Social2.png,stimuli/Social1.png,stimuli/Nonsocial2.png,stimuli/Nonsocial1.png,cs_minus_ns,,,,,,,0,0,0,0,,,,,,,,,,,,,,,,,,,,,0,3,3,3,,,,,2441.7458272000076,8.0,2.1867481000954285,,,,,,,,,,,,,,,,32,D,2023-12-15_10h49.46.625,gca_avoidance_task,2022.2.4,143.97314035413268,
