posFile,stimFile,cs_plus_s,cs_minus_s,cs_plus_ns,cs_minus_ns,stimtype,position,trialtype,trials_threshold.thisRepN,trials_threshold.thisTrialN,trials_threshold.thisN,trials_threshold.thisIndex,blocks.thisRepN,blocks.thisTrialN,blocks.thisN,blocks.thisIndex,ratingtrials1.thisRepN,ratingtrials1.thisTrialN,ratingtrials1.thisN,ratingtrials1.thisIndex,learning_trials.thisRepN,learning_trials.thisTrialN,learning_trials.thisN,learning_trials.thisIndex,trials.thisRepN,trials.thisTrialN,trials.thisN,trials.thisIndex,ratingtrials2.thisRepN,ratingtrials2.thisTrialN,ratingtrials2.thisN,ratingtrials2.thisIndex,testtrials.thisRepN,testtrials.thisTrialN,testtrials.thisN,testtrials.thisIndex,ratingtrials3.thisRepN,ratingtrials3.thisTrialN,ratingtrials3.thisN,ratingtrials3.thisIndex,textStart.started,sliderPainT.response,sliderPainT.rt,textStartExp.started,imageRating.started,sliderStim.response,sliderStim.rt,textStartTask.started,image.started,score,outcome,roi.numLooks,roi.timesOn,roi.timesOff,imageFeedback.started,sliderPain.response,sliderPain.rt,textTestInstr.started,imageTest.started,roiTest.numLooks,roiTest.timesOn,roiTest.timesOff,participant,group,date,expName,psychopyVersion,frameRate,
,,,,,,,,,0,0,0,0,,,,,,,,,,,,,,,,,,,,,,,,,,,,,33.70332200010307,None,None,,,,,,,,,,,,,,,,,,,,43,C,2024-01-02_11h49.34.763,gca_avoidance_task,2022.2.4,144.11713852366833,
,,,,,,,,,1,0,1,0,,,,,,,,,,,,,,,,,,,,,,,,,,,,,,None,None,,,,,,,,,,,,,,,,,,,,43,C,2024-01-02_11h49.34.763,gca_avoidance_task,2022.2.4,144.11713852366833,
,,,,,,,,,2,0,2,0,,,,,,,,,,,,,,,,,,,,,,,,,,,,,,None,None,,,,,,,,,,,,,,,,,,,,43,C,2024-01-02_11h49.34.763,gca_avoidance_task,2022.2.4,144.11713852366833,
,,,,,,,,,3,0,3,0,,,,,,,,,,,,,,,,,,,,,,,,,,,,,,1.0,20.79089390009176,,,,,,,,,,,,,,,,,,,,43,C,2024-01-02_11h49.34.763,gca_avoidance_task,2022.2.4,144.11713852366833,
,,,,,,,,,4,0,4,0,,,,,,,,,,,,,,,,,,,,,,,,,,,,,,3.0,1.4306516000069678,,,,,,,,,,,,,,,,,,,,43,C,2024-01-02_11h49.34.763,gca_avoidance_task,2022.2.4,144.11713852366833,
,,,,,,,,,5,0,5,0,,,,,,,,,,,,,,,,,,,,,,,,,,,,,,4.0,1.6262712999014184,,,,,,,,,,,,,,,,,,,,43,C,2024-01-02_11h49.34.763,gca_avoidance_task,2022.2.4,144.11713852366833,
,,,,,,,,,6,0,6,0,,,,,,,,,,,,,,,,,,,,,,,,,,,,,,4.0,1.5683317000512034,,,,,,,,,,,,,,,,,,,,43,C,2024-01-02_11h49.34.763,gca_avoidance_task,2022.2.4,144.11713852366833,
,,,,,,,,,7,0,7,0,,,,,,,,,,,,,,,,,,,,,,,,,,,,,,5.0,1.7314158000517637,,,,,,,,,,,,,,,,,,,,43,C,2024-01-02_11h49.34.763,gca_avoidance_task,2022.2.4,144.11713852366833,
,,,,,,,,,8,0,8,0,,,,,,,,,,,,,,,,,,,,,,,,,,,,,,5.0,2.558358300011605,,,,,,,,,,,,,,,,,,,,43,C,2024-01-02_11h49.34.763,gca_avoidance_task,2022.2.4,144.11713852366833,
,,,,,,,,,9,0,9,0,,,,,,,,,,,,,,,,,,,,,,,,,,,,,,6.0,1.6071604000171646,,,,,,,,,,,,,,,,,,,,43,C,2024-01-02_11h49.34.763,gca_avoidance_task,2022.2.4,144.11713852366833,
,,,,,,,,,10,0,10,0,,,,,,,,,,,,,,,,,,,,,,,,,,,,,,6.0,3.934542499948293,,,,,,,,,,,,,,,,,,,,43,C,2024-01-02_11h49.34.763,gca_avoidance_task,2022.2.4,144.11713852366833,
,,,,,,,,,11,0,11,0,,,,,,,,,,,,,,,,,,,,,,,,,,,,,,6.0,2.489994899951853,,,,,,,,,,,,,,,,,,,,43,C,2024-01-02_11h49.34.763,gca_avoidance_task,2022.2.4,144.11713852366833,
,,,,,,,,,12,0,12,0,,,,,,,,,,,,,,,,,,,,,,,,,,,,,,6.0,1.1305108000524342,,,,,,,,,,,,,,,,,,,,43,C,2024-01-02_11h49.34.763,gca_avoidance_task,2022.2.4,144.11713852366833,
,,,,,,,,,13,0,13,0,,,,,,,,,,,,,,,,,,,,,,,,,,,,,,6.0,0.8977537000318989,,,,,,,,,,,,,,,,,,,,43,C,2024-01-02_11h49.34.763,gca_avoidance_task,2022.2.4,144.11713852366833,
,,,,,,,,,14,0,14,0,,,,,,,,,,,,,,,,,,,,,,,,,,,,,,5.0,1.0247827001148835,,,,,,,,,,,,,,,,,,,,43,C,2024-01-02_11h49.34.763,gca_avoidance_task,2022.2.4,144.11713852366833,
,,,,,,,,,15,0,15,0,,,,,,,,,,,,,,,,,,,,,,,,,,,,,,5.0,0.9278972999891266,,,,,,,,,,,,,,,,,,,,43,C,2024-01-02_11h49.34.763,gca_avoidance_task,2022.2.4,144.11713852366833,
,,,,,,,,,16,0,16,0,,,,,,,,,,,,,,,,,,,,,,,,,,,,,,6.0,0.9329052999382839,,,,,,,,,,,,,,,,,,,,43,C,2024-01-02_11h49.34.763,gca_avoidance_task,2022.2.4,144.11713852366833,
,,,,,,,,,17,0,17,0,,,,,,,,,,,,,,,,,,,,,,,,,,,,,,6.0,0.6245963000692427,,,,,,,,,,,,,,,,,,,,43,C,2024-01-02_11h49.34.763,gca_avoidance_task,2022.2.4,144.11713852366833,
,,,,,,,,,18,0,18,0,,,,,,,,,,,,,,,,,,,,,,,,,,,,,,6.0,0.910624900017865,,,,,,,,,,,,,,,,,,,,43,C,2024-01-02_11h49.34.763,gca_avoidance_task,2022.2.4,144.11713852366833,
,,,,,,,,,19,0,19,0,,,,,,,,,,,,,,,,,,,,,,,,,,,,,,7.0,0.4962527999887243,,,,,,,,,,,,,,,,,,,,43,C,2024-01-02_11h49.34.763,gca_avoidance_task,2022.2.4,144.11713852366833,
,,,,,,,,,20,0,20,0,,,,,,,,,,,,,,,,,,,,,,,,,,,,,,7.0,1.8052294999361038,,,,,,,,,,,,,,,,,,,,43,C,2024-01-02_11h49.34.763,gca_avoidance_task,2022.2.4,144.11713852366833,
,,,,,,,,,21,0,21,0,,,,,,,,,,,,,,,,,,,,,,,,,,,,,,0.0,15.102635100018233,,,,,,,,,,,,,,,,,,,,43,C,2024-01-02_11h49.34.763,gca_avoidance_task,2022.2.4,144.11713852366833,
positions.xlsx,stimuli.xlsx,stimuli/Social1.png,stimuli/Social2.png,stimuli/Nonsocial2.png,stimuli/Nonsocial1.png,cs_minus_ns,,,,,,,0,0,0,0,0,0,0,3,,,,,,,,,,,,,,,,,,,,,,,,487.3600413000677,573.4803544000024,3.0,9.070127399987541,,,,,,,,,,,,,,,,43,C,2024-01-02_11h49.34.763,gca_avoidance_task,2022.2.4,144.11713852366833,
positions.xlsx,stimuli.xlsx,stimuli/Social1.png,stimuli/Social2.png,stimuli/Nonsocial2.png,stimuli/Nonsocial1.png,cs_plus_ns,,,,,,,0,0,0,0,0,1,1,1,,,,,,,,,,,,,,,,,,,,,,,,,584.4174388000974,6.0,14.940136299934238,,,,,,,,,,,,,,,,43,C,2024-01-02_11h49.34.763,gca_avoidance_task,2022.2.4,144.11713852366833,
positions.xlsx,stimuli.xlsx,stimuli/Social1.png,stimuli/Social2.png,stimuli/Nonsocial2.png,stimuli/Nonsocial1.png,cs_plus_s,,,,,,,0,0,0,0,0,2,2,0,,,,,,,,,,,,,,,,,,,,,,,,,600.1459500000346,5.0,6.756027000024915,,,,,,,,,,,,,,,,43,C,2024-01-02_11h49.34.763,gca_avoidance_task,2022.2.4,144.11713852366833,
positions.xlsx,stimuli.xlsx,stimuli/Social1.png,stimuli/Social2.png,stimuli/Nonsocial2.png,stimuli/Nonsocial1.png,cs_minus_s,,,,,,,0,0,0,0,0,3,3,2,,,,,,,,,,,,,,,,,,,,,,,,,607.67342440004,5.0,1.7764756999677047,,,,,,,,,,,,,,,,43,C,2024-01-02_11h49.34.763,gca_avoidance_task,2022.2.4,144.11713852366833,
positions.xlsx,stimuli.xlsx,stimuli/Social1.png,stimuli/Social2.png,stimuli/Nonsocial2.png,stimuli/Nonsocial1.png,,"(-0.7, 0.5)",cs_plus_s,,,,,0,0,0,0,,,,,0,0,0,0,,,,,,,,,,,,,,,,,,,,,,,,611.076032300014,630.0197495000903,0,shock,1,0.41014629998244345,0.4101501000113785,630.4364155000076,,,,,,,,43,C,2024-01-02_11h49.34.763,gca_avoidance_task,2022.2.4,144.11713852366833,
positions.xlsx,stimuli.xlsx,stimuli/Social1.png,stimuli/Social2.png,stimuli/Nonsocial2.png,stimuli/Nonsocial1.png,,"(0.7, -0.5)",cs_minus_ns,,,,,0,0,0,0,,,,,0,1,1,15,,,,,,,,,,,,,,,,,,,,,,,,,640.0749072000617,5,reward,1,0.24343569995835423,0.2434392999857664,640.3318490000675,,,,,,,,43,C,2024-01-02_11h49.34.763,gca_avoidance_task,2022.2.4,144.11713852366833,
positions.xlsx,stimuli.xlsx,stimuli/Social1.png,stimuli/Social2.png,stimuli/Nonsocial2.png,stimuli/Nonsocial1.png,,"(0.7, -0.5)",cs_plus_ns,,,,,0,0,0,0,,,,,0,2,2,11,,,,,,,,,,,,,,,,,,,,,,,,,650.0397808999987,5,shock,1,0.2644868999486789,0.264490699977614,650.3106166000944,,,,,,,,43,C,2024-01-02_11h49.34.763,gca_avoidance_task,2022.2.4,144.11713852366833,
positions.xlsx,stimuli.xlsx,stimuli/Social1.png,stimuli/Social2.png,stimuli/Nonsocial2.png,stimuli/Nonsocial1.png,,"(-0.7, 0.5)",cs_minus_ns,,,,,0,0,0,0,,,,,0,3,3,12,,,,,,,,,,,,,,,,,,,,,,,,,659.8796687000431,10,reward,1,0.2848921000258997,0.28489569993689656,660.1713215000927,,,,,,,,43,C,2024-01-02_11h49.34.763,gca_avoidance_task,2022.2.4,144.11713852366833,
positions.xlsx,stimuli.xlsx,stimuli/Social1.png,stimuli/Social2.png,stimuli/Nonsocial2.png,stimuli/Nonsocial1.png,,"(0.7, -0.5)",cs_plus_s,,,,,0,0,0,0,,,,,0,4,4,3,,,,,,,,,,,,,,,,,,,,,,,,,669.4001008000923,10,shock,1,0.16714959999080747,0.16715339990332723,669.5737538000103,,,,,,,,43,C,2024-01-02_11h49.34.763,gca_avoidance_task,2022.2.4,144.11713852366833,
positions.xlsx,stimuli.xlsx,stimuli/Social1.png,stimuli/Social2.png,stimuli/Nonsocial2.png,stimuli/Nonsocial1.png,,"(0.7, -0.5)",cs_minus_s,,,,,0,0,0,0,,,,,0,5,5,7,,,,,,,,,,,,,,,,,,,,,,,,,679.2330766000086,15,reward,1,0.25671739992685616,0.2567210999550298,679.496980200056,,,,,,,,43,C,2024-01-02_11h49.34.763,gca_avoidance_task,2022.2.4,144.11713852366833,
positions.xlsx,stimuli.xlsx,stimuli/Social1.png,stimuli/Social2.png,stimuli/Nonsocial2.png,stimuli/Nonsocial1.png,,"(-0.7, -0.5)",cs_plus_s,,,,,0,0,0,0,,,,,0,6,6,1,,,,,,,,,,,,,,,,,,,,,,,,,688.961850700085,15,shock,1,0.299069199943915,0.2990729999728501,689.267418500036,,,,,,,,43,C,2024-01-02_11h49.34.763,gca_avoidance_task,2022.2.4,144.11713852366833,
positions.xlsx,stimuli.xlsx,stimuli/Social1.png,stimuli/Social2.png,stimuli/Nonsocial2.png,stimuli/Nonsocial1.png,,"(0.7, 0.5)",cs_plus_ns,,,,,0,0,0,0,,,,,0,7,7,10,,,,,,,,,,,,,,,,,,,,,,,,,699.2392061999999,15,shock,1,0.23619019996840507,0.23619399999734014,699.4822726000566,,,,,,,,43,C,2024-01-02_11h49.34.763,gca_avoidance_task,2022.2.4,144.11713852366833,
positions.xlsx,stimuli.xlsx,stimuli/Social1.png,stimuli/Social2.png,stimuli/Nonsocial2.png,stimuli/Nonsocial1.png,,"(-0.7, 0.5)",cs_minus_s,,,,,0,0,0,0,,,,,0,8,8,4,,,,,,,,,,,,,,,,,,,,,,,,,708.3916597000789,20,reward,1,0.2501168999588117,0.2501208999892697,708.655516800005,,,,,,,,43,C,2024-01-02_11h49.34.763,gca_avoidance_task,2022.2.4,144.11713852366833,
positions.xlsx,stimuli.xlsx,stimuli/Social1.png,stimuli/Social2.png,stimuli/Nonsocial2.png,stimuli/Nonsocial1.png,,"(-0.7, -0.5)",cs_minus_ns,,,,,0,0,0,0,,,,,0,9,9,13,,,,,,,,,,,,,,,,,,,,,,,,,717.8148747000378,25,reward,1,0.26426050008740276,0.271077600074932,718.0926125000697,,,,,,,,43,C,2024-01-02_11h49.34.763,gca_avoidance_task,2022.2.4,144.11713852366833,
positions.xlsx,stimuli.xlsx,stimuli/Social1.png,stimuli/Social2.png,stimuli/Nonsocial2.png,stimuli/Nonsocial1.png,,"(-0.7, -0.5)",cs_plus_ns,,,,,0,0,0,0,,,,,0,10,10,9,,,,,,,,,,,,,,,,,,,,,,,,,727.9186372000258,25,shock,1,0.8826440999982879,0.882648199913092,728.8074892000295,,,,,,,,43,C,2024-01-02_11h49.34.763,gca_avoidance_task,2022.2.4,144.11713852366833,
positions.xlsx,stimuli.xlsx,stimuli/Social1.png,stimuli/Social2.png,stimuli/Nonsocial2.png,stimuli/Nonsocial1.png,,"(0.7, 0.5)",cs_plus_s,,,,,0,0,0,0,,,,,0,11,11,2,,,,,,,,,,,,,,,,,,,,,,,,,738.3488135000225,25,shock,1,0.3059947000583634,0.305998400086537,738.6613636000548,,,,,,,,43,C,2024-01-02_11h49.34.763,gca_avoidance_task,2022.2.4,144.11713852366833,
positions.xlsx,stimuli.xlsx,stimuli/Social1.png,stimuli/Social2.png,stimuli/Nonsocial2.png,stimuli/Nonsocial1.png,,"(0.7, 0.5)",cs_minus_ns,,,,,0,0,0,0,,,,,0,12,12,14,,,,,,,,,,,,,,,,,,,,,,,,,748.4733811999904,30,reward,1,0.2774541999679059,0.2774574999930337,748.7580949000549,,,,,,,,43,C,2024-01-02_11h49.34.763,gca_avoidance_task,2022.2.4,144.11713852366833,
positions.xlsx,stimuli.xlsx,stimuli/Social1.png,stimuli/Social2.png,stimuli/Nonsocial2.png,stimuli/Nonsocial1.png,,"(-0.7, 0.5)",cs_plus_ns,,,,,0,0,0,0,,,,,0,13,13,8,,,,,,,,,,,,,,,,,,,,,,,,,758.8132325001061,30,shock,1,0.26395970000885427,0.2639634000370279,759.0841117000673,,,,,,,,43,C,2024-01-02_11h49.34.763,gca_avoidance_task,2022.2.4,144.11713852366833,
positions.xlsx,stimuli.xlsx,stimuli/Social1.png,stimuli/Social2.png,stimuli/Nonsocial2.png,stimuli/Nonsocial1.png,,"(0.7, 0.5)",cs_minus_s,,,,,0,0,0,0,,,,,0,14,14,6,,,,,,,,,,,,,,,,,,,,,,,,,769.1392248000484,35,reward,1,0.6388925000792369,0.6388962999917567,769.7850406999933,,,,,,,,43,C,2024-01-02_11h49.34.763,gca_avoidance_task,2022.2.4,144.11713852366833,
positions.xlsx,stimuli.xlsx,stimuli/Social1.png,stimuli/Social2.png,stimuli/Nonsocial2.png,stimuli/Nonsocial1.png,,"(-0.7, -0.5)",cs_minus_s,,,,,0,0,0,0,,,,,0,15,15,5,,,,,,,,,,,,,,,,,,,,,,,,,778.7499579000287,40,reward,1,0.8128255000337958,0.8128290999447927,779.5693646,,,,,,,,43,C,2024-01-02_11h49.34.763,gca_avoidance_task,2022.2.4,144.11713852366833,
positions.xlsx,stimuli.xlsx,stimuli/Social1.png,stimuli/Social2.png,stimuli/Nonsocial2.png,stimuli/Nonsocial1.png,,"(-0.7, -0.5)",cs_plus_s,,,,,0,0,0,0,,,,,1,0,16,1,,,,,,,,,,,,,,,,,,,,,,,,,788.8120631000493,40,shock,1,2.3057539999717847,2.3057578000007197,791.1244770000922,,,,,,,,43,C,2024-01-02_11h49.34.763,gca_avoidance_task,2022.2.4,144.11713852366833,
positions.xlsx,stimuli.xlsx,stimuli/Social1.png,stimuli/Social2.png,stimuli/Nonsocial2.png,stimuli/Nonsocial1.png,,"(-0.7, 0.5)",cs_plus_s,,,,,0,0,0,0,,,,,1,1,17,0,,,,,,,,,,,,,,,,,,,,,,,,,800.9574262000388,40,shock,1,0.4862347999587655,0.49318079999648035,801.4574087000219,,,,,,,,43,C,2024-01-02_11h49.34.763,gca_avoidance_task,2022.2.4,144.11713852366833,
positions.xlsx,stimuli.xlsx,stimuli/Social1.png,stimuli/Social2.png,stimuli/Nonsocial2.png,stimuli/Nonsocial1.png,,"(-0.7, 0.5)",cs_minus_ns,,,,,0,0,0,0,,,,,1,2,18,12,,,,,,,,,,,,,,,,,,,,,,,,,810.0889652000042,45,reward,1,1.1669280999340117,1.173965899972245,811.2694771999959,,,,,,,,43,C,2024-01-02_11h49.34.763,gca_avoidance_task,2022.2.4,144.11713852366833,
positions.xlsx,stimuli.xlsx,stimuli/Social1.png,stimuli/Social2.png,stimuli/Nonsocial2.png,stimuli/Nonsocial1.png,,"(0.7, -0.5)",cs_minus_s,,,,,0,0,0,0,,,,,1,3,19,7,,,,,,,,,,,,,,,,,,,,,,,,,821.3802000000142,50,reward,1,0.3616008000681177,0.36160479998216033,821.7482571,,,,,,,,43,C,2024-01-02_11h49.34.763,gca_avoidance_task,2022.2.4,144.11713852366833,
positions.xlsx,stimuli.xlsx,stimuli/Social1.png,stimuli/Social2.png,stimuli/Nonsocial2.png,stimuli/Nonsocial1.png,,"(-0.7, -0.5)",cs_plus_ns,,,,,0,0,0,0,,,,,1,4,20,9,,,,,,,,,,,,,,,,,,,,,,,,,831.0881657000864,50,shock,1,0.21529700001701713,0.21530090004671365,831.3103660000488,,,,,,,,43,C,2024-01-02_11h49.34.763,gca_avoidance_task,2022.2.4,144.11713852366833,
positions.xlsx,stimuli.xlsx,stimuli/Social1.png,stimuli/Social2.png,stimuli/Nonsocial2.png,stimuli/Nonsocial1.png,,"(0.7, 0.5)",cs_minus_s,,,,,0,0,0,0,,,,,1,5,21,6,,,,,,,,,,,,,,,,,,,,,,,,,841.3238343000412,55,reward,1,0.562566600041464,0.562570400070399,841.8932880000211,,,,,,,,43,C,2024-01-02_11h49.34.763,gca_avoidance_task,2022.2.4,144.11713852366833,
positions.xlsx,stimuli.xlsx,stimuli/Social1.png,stimuli/Social2.png,stimuli/Nonsocial2.png,stimuli/Nonsocial1.png,,"(0.7, -0.5)",cs_minus_ns,,,,,0,0,0,0,,,,,1,6,22,15,,,,,,,,,,,,,,,,,,,,,,,,,850.6915214000037,60,reward,1,0.9095979999983683,0.9096016000257805,851.6081918000709,,,,,,,,43,C,2024-01-02_11h49.34.763,gca_avoidance_task,2022.2.4,144.11713852366833,
positions.xlsx,stimuli.xlsx,stimuli/Social1.png,stimuli/Social2.png,stimuli/Nonsocial2.png,stimuli/Nonsocial1.png,,"(-0.7, -0.5)",cs_minus_s,,,,,0,0,0,0,,,,,1,7,23,5,,,,,,,,,,,,,,,,,,,,,,,,,860.8786153000547,65,reward,1,0.5696865000063553,0.5766795999370515,861.4619102000725,,,,,,,,43,C,2024-01-02_11h49.34.763,gca_avoidance_task,2022.2.4,144.11713852366833,
positions.xlsx,stimuli.xlsx,stimuli/Social1.png,stimuli/Social2.png,stimuli/Nonsocial2.png,stimuli/Nonsocial1.png,,"(0.7, -0.5)",cs_plus_ns,,,,,0,0,0,0,,,,,1,8,24,11,,,,,,,,,,,,,,,,,,,,,,,,,870.8296068999916,65,shock,1,4.6602017999393865,4.666627699974924,875.5030563001055,,,,,,,,43,C,2024-01-02_11h49.34.763,gca_avoidance_task,2022.2.4,144.11713852366833,
positions.xlsx,stimuli.xlsx,stimuli/Social1.png,stimuli/Social2.png,stimuli/Nonsocial2.png,stimuli/Nonsocial1.png,,"(0.7, 0.5)",cs_plus_ns,,,,,0,0,0,0,,,,,1,9,25,10,,,,,,,,,,,,,,,,,,,,,,,,,884.5165539000882,65,none,0,,,889.530280200066,,,,,,,,43,C,2024-01-02_11h49.34.763,gca_avoidance_task,2022.2.4,144.11713852366833,
positions.xlsx,stimuli.xlsx,stimuli/Social1.png,stimuli/Social2.png,stimuli/Nonsocial2.png,stimuli/Nonsocial1.png,,"(-0.7, -0.5)",cs_minus_ns,,,,,0,0,0,0,,,,,1,10,26,13,,,,,,,,,,,,,,,,,,,,,,,,,899.3979188000085,70,reward,1,0.6391372000798583,0.6391410001087934,900.0506769000785,,,,,,,,43,C,2024-01-02_11h49.34.763,gca_avoidance_task,2022.2.4,144.11713852366833,
positions.xlsx,stimuli.xlsx,stimuli/Social1.png,stimuli/Social2.png,stimuli/Nonsocial2.png,stimuli/Nonsocial1.png,,"(-0.7, 0.5)",cs_plus_ns,,,,,0,0,0,0,,,,,1,11,27,8,,,,,,,,,,,,,,,,,,,,,,,,,909.994766900083,70,none,0,,,915.0014814001042,,,,,,,,43,C,2024-01-02_11h49.34.763,gca_avoidance_task,2022.2.4,144.11713852366833,
positions.xlsx,stimuli.xlsx,stimuli/Social1.png,stimuli/Social2.png,stimuli/Nonsocial2.png,stimuli/Nonsocial1.png,,"(0.7, 0.5)",cs_plus_s,,,,,0,0,0,0,,,,,1,12,28,2,,,,,,,,,,,,,,,,,,,,,,,,,924.6607898999937,70,shock,1,0.7083227999974042,0.7083262000232935,925.3691316000186,,,,,,,,43,C,2024-01-02_11h49.34.763,gca_avoidance_task,2022.2.4,144.11713852366833,
positions.xlsx,stimuli.xlsx,stimuli/Social1.png,stimuli/Social2.png,stimuli/Nonsocial2.png,stimuli/Nonsocial1.png,,"(0.7, 0.5)",cs_minus_ns,,,,,0,0,0,0,,,,,1,13,29,14,,,,,,,,,,,,,,,,,,,,,,,,,934.2715384000912,75,reward,1,1.4516493000555784,1.4516531000845134,935.7298300000839,,,,,,,,43,C,2024-01-02_11h49.34.763,gca_avoidance_task,2022.2.4,144.11713852366833,
positions.xlsx,stimuli.xlsx,stimuli/Social1.png,stimuli/Social2.png,stimuli/Nonsocial2.png,stimuli/Nonsocial1.png,,"(-0.7, 0.5)",cs_minus_s,,,,,0,0,0,0,,,,,1,14,30,4,,,,,,,,,,,,,,,,,,,,,,,,,945.8474962000037,80,reward,1,0.8472260000417009,0.8472296000691131,946.7016169000417,,,,,,,,43,C,2024-01-02_11h49.34.763,gca_avoidance_task,2022.2.4,144.11713852366833,
positions.xlsx,stimuli.xlsx,stimuli/Social1.png,stimuli/Social2.png,stimuli/Nonsocial2.png,stimuli/Nonsocial1.png,,"(0.7, -0.5)",cs_plus_s,,,,,0,0,0,0,,,,,1,15,31,3,,,,,,,,,,,,,,,,,,,,,,,,,956.201235900051,80,none,0,,,961.2079767000396,,,,,,,,43,C,2024-01-02_11h49.34.763,gca_avoidance_task,2022.2.4,144.11713852366833,
positions.xlsx,stimuli.xlsx,stimuli/Social1.png,stimuli/Social2.png,stimuli/Nonsocial2.png,stimuli/Nonsocial1.png,,"(0.7, 0.5)",cs_plus_ns,,,,,0,0,0,0,,,,,,,,,0,0,0,10,,,,,,,,,,,,,,,,,,,,,981.2558186000679,80,none,0,,,986.2626116001047,,,,,,,,43,C,2024-01-02_11h49.34.763,gca_avoidance_task,2022.2.4,144.11713852366833,
positions.xlsx,stimuli.xlsx,stimuli/Social1.png,stimuli/Social2.png,stimuli/Nonsocial2.png,stimuli/Nonsocial1.png,,"(0.7, -0.5)",cs_plus_s,,,,,0,0,0,0,,,,,,,,,0,1,1,3,,,,,,,,,,,,,,,,,,,,,995.7969237000216,80,none,0,,,1000.8036733000772,,,,,,,,43,C,2024-01-02_11h49.34.763,gca_avoidance_task,2022.2.4,144.11713852366833,
positions.xlsx,stimuli.xlsx,stimuli/Social1.png,stimuli/Social2.png,stimuli/Nonsocial2.png,stimuli/Nonsocial1.png,,"(-0.7, -0.5)",cs_plus_ns,,,,,0,0,0,0,,,,,,,,,0,2,2,9,,,,,,,,,,,,,,,,,,,,,1011.0740793000441,80,shock,1,0.5630671000108123,0.5700354999862611,1011.6504607000388,,,,,,,,43,C,2024-01-02_11h49.34.763,gca_avoidance_task,2022.2.4,144.11713852366833,
positions.xlsx,stimuli.xlsx,stimuli/Social1.png,stimuli/Social2.png,stimuli/Nonsocial2.png,stimuli/Nonsocial1.png,,"(0.7, 0.5)",cs_minus_s,,,,,0,0,0,0,,,,,,,,,0,3,3,6,,,,,,,,,,,,,,,,,,,,,1020.9139594000299,85,reward,1,0.826479300041683,0.826483300072141,1021.7472664000234,,,,,,,,43,C,2024-01-02_11h49.34.763,gca_avoidance_task,2022.2.4,144.11713852366833,
positions.xlsx,stimuli.xlsx,stimuli/Social1.png,stimuli/Social2.png,stimuli/Nonsocial2.png,stimuli/Nonsocial1.png,,"(0.7, -0.5)",cs_minus_s,,,,,0,0,0,0,,,,,,,,,0,4,4,7,,,,,,,,,,,,,,,,,,,,,1031.0177432000637,90,reward,1,0.9306060000089929,0.9306223000166938,1031.955204900005,,,,,,,,43,C,2024-01-02_11h49.34.763,gca_avoidance_task,2022.2.4,144.11713852366833,
positions.xlsx,stimuli.xlsx,stimuli/Social1.png,stimuli/Social2.png,stimuli/Nonsocial2.png,stimuli/Nonsocial1.png,,"(0.7, -0.5)",cs_plus_ns,,,,,0,0,0,0,,,,,,,,,0,5,5,11,,,,,,,,,,,,,,,,,,,,,1041.892303400091,90,none,0,,,1046.8990404000506,,,,,,,,43,C,2024-01-02_11h49.34.763,gca_avoidance_task,2022.2.4,144.11713852366833,
positions.xlsx,stimuli.xlsx,stimuli/Social1.png,stimuli/Social2.png,stimuli/Nonsocial2.png,stimuli/Nonsocial1.png,,"(-0.7, 0.5)",cs_plus_ns,,,,,0,0,0,0,,,,,,,,,0,6,6,8,,,,,,,,,,,,,,,,,,,,,1056.954199000029,90,none,0,,,1061.9609800000908,,,,,,,,43,C,2024-01-02_11h49.34.763,gca_avoidance_task,2022.2.4,144.11713852366833,
positions.xlsx,stimuli.xlsx,stimuli/Social1.png,stimuli/Social2.png,stimuli/Nonsocial2.png,stimuli/Nonsocial1.png,,"(-0.7, -0.5)",cs_minus_s,,,,,0,0,0,0,,,,,,,,,0,7,7,5,,,,,,,,,,,,,,,,,,,,,1072.2175019000424,95,reward,1,0.6737726000137627,0.6737764000426978,1072.8980448000366,,,,,,,,43,C,2024-01-02_11h49.34.763,gca_avoidance_task,2022.2.4,144.11713852366833,
positions.xlsx,stimuli.xlsx,stimuli/Social1.png,stimuli/Social2.png,stimuli/Nonsocial2.png,stimuli/Nonsocial1.png,,"(-0.7, 0.5)",cs_plus_s,,,,,0,0,0,0,,,,,,,,,0,8,8,0,,,,,,,,,,,,,,,,,,,,,1083.1337627000175,95,none,0,,,1088.1405275000725,,,,,,,,43,C,2024-01-02_11h49.34.763,gca_avoidance_task,2022.2.4,144.11713852366833,
positions.xlsx,stimuli.xlsx,stimuli/Social1.png,stimuli/Social2.png,stimuli/Nonsocial2.png,stimuli/Nonsocial1.png,,"(0.7, -0.5)",cs_minus_ns,,,,,0,0,0,0,,,,,,,,,0,9,9,15,,,,,,,,,,,,,,,,,,,,,1097.5498442000244,100,reward,1,0.8196867000078782,0.8196906000375748,1098.3761829000432,,,,,,,,43,C,2024-01-02_11h49.34.763,gca_avoidance_task,2022.2.4,144.11713852366833,
positions.xlsx,stimuli.xlsx,stimuli/Social1.png,stimuli/Social2.png,stimuli/Nonsocial2.png,stimuli/Nonsocial1.png,,"(-0.7, 0.5)",cs_minus_ns,,,,,0,0,0,0,,,,,,,,,0,10,10,12,,,,,,,,,,,,,,,,,,,,,1108.098053200054,105,reward,1,0.7433786999899894,0.743382400018163,1108.8480466000037,,,,,,,,43,C,2024-01-02_11h49.34.763,gca_avoidance_task,2022.2.4,144.11713852366833,
positions.xlsx,stimuli.xlsx,stimuli/Social1.png,stimuli/Social2.png,stimuli/Nonsocial2.png,stimuli/Nonsocial1.png,,"(-0.7, -0.5)",cs_minus_ns,,,,,0,0,0,0,,,,,,,,,0,11,11,13,,,,,,,,,,,,,,,,,,,,,1118.1323705000104,110,reward,1,0.6247841999866068,0.6247879000147805,1118.7643569000065,,,,,,,,43,C,2024-01-02_11h49.34.763,gca_avoidance_task,2022.2.4,144.11713852366833,
positions.xlsx,stimuli.xlsx,stimuli/Social1.png,stimuli/Social2.png,stimuli/Nonsocial2.png,stimuli/Nonsocial1.png,,"(0.7, 0.5)",cs_minus_ns,,,,,0,0,0,0,,,,,,,,,0,12,12,14,,,,,,,,,,,,,,,,,,,,,1129.020801500068,115,reward,1,0.6043369000544772,0.6043408000841737,1129.6319039000664,,,,,,,,43,C,2024-01-02_11h49.34.763,gca_avoidance_task,2022.2.4,144.11713852366833,
positions.xlsx,stimuli.xlsx,stimuli/Social1.png,stimuli/Social2.png,stimuli/Nonsocial2.png,stimuli/Nonsocial1.png,,"(-0.7, -0.5)",cs_plus_s,,,,,0,0,0,0,,,,,,,,,0,13,13,1,,,,,,,,,,,,,,,,,,,,,1139.777354800026,115,none,0,,,1144.7840965000214,,,,,,,,43,C,2024-01-02_11h49.34.763,gca_avoidance_task,2022.2.4,144.11713852366833,
positions.xlsx,stimuli.xlsx,stimuli/Social1.png,stimuli/Social2.png,stimuli/Nonsocial2.png,stimuli/Nonsocial1.png,,"(-0.7, 0.5)",cs_minus_s,,,,,0,0,0,0,,,,,,,,,0,14,14,4,,,,,,,,,,,,,,,,,,,,,1154.9226062000962,120,reward,1,0.6250345000298694,0.625038200058043,1155.5545125000644,,,,,,,,43,C,2024-01-02_11h49.34.763,gca_avoidance_task,2022.2.4,144.11713852366833,
positions.xlsx,stimuli.xlsx,stimuli/Social1.png,stimuli/Social2.png,stimuli/Nonsocial2.png,stimuli/Nonsocial1.png,,"(0.7, 0.5)",cs_plus_s,,,,,0,0,0,0,,,,,,,,,0,15,15,2,,,,,,,,,,,,,,,,,,,,,1165.1791338000912,120,none,0,,,1170.1858889000723,,,,,,,,43,C,2024-01-02_11h49.34.763,gca_avoidance_task,2022.2.4,144.11713852366833,
positions.xlsx,stimuli.xlsx,stimuli/Social1.png,stimuli/Social2.png,stimuli/Nonsocial2.png,stimuli/Nonsocial1.png,,"(0.7, -0.5)",cs_minus_ns,,,,,0,0,0,0,,,,,,,,,1,0,16,15,,,,,,,,,,,,,,,,,,,,,1179.213302200078,125,reward,1,0.6320345000131056,0.6320382000412792,1179.8521875001024,,,,,,,,43,C,2024-01-02_11h49.34.763,gca_avoidance_task,2022.2.4,144.11713852366833,
positions.xlsx,stimuli.xlsx,stimuli/Social1.png,stimuli/Social2.png,stimuli/Nonsocial2.png,stimuli/Nonsocial1.png,,"(0.7, 0.5)",cs_minus_ns,,,,,0,0,0,0,,,,,,,,,1,1,17,14,,,,,,,,,,,,,,,,,,,,,1189.7684669001028,130,reward,1,0.5974904999602586,0.5974943999899551,1190.372576200054,,,,,,,,43,C,2024-01-02_11h49.34.763,gca_avoidance_task,2022.2.4,144.11713852366833,
positions.xlsx,stimuli.xlsx,stimuli/Social1.png,stimuli/Social2.png,stimuli/Nonsocial2.png,stimuli/Nonsocial1.png,,"(0.7, -0.5)",cs_minus_s,,,,,0,0,0,0,,,,,,,,,1,2,18,7,,,,,,,,,,,,,,,,,,,,,1200.1013916000957,135,reward,1,0.7018146000336856,0.7018183999462053,1200.8097377000377,,,,,,,,43,C,2024-01-02_11h49.34.763,gca_avoidance_task,2022.2.4,144.11713852366833,
positions.xlsx,stimuli.xlsx,stimuli/Social1.png,stimuli/Social2.png,stimuli/Nonsocial2.png,stimuli/Nonsocial1.png,,"(-0.7, -0.5)",cs_plus_ns,,,,,0,0,0,0,,,,,,,,,1,3,19,9,,,,,,,,,,,,,,,,,,,,,1210.4481815000763,135,none,0,,,1215.4618651000783,,,,,,,,43,C,2024-01-02_11h49.34.763,gca_avoidance_task,2022.2.4,144.11713852366833,
positions.xlsx,stimuli.xlsx,stimuli/Social1.png,stimuli/Social2.png,stimuli/Nonsocial2.png,stimuli/Nonsocial1.png,,"(-0.7, 0.5)",cs_plus_s,,,,,0,0,0,0,,,,,,,,,1,4,20,0,,,,,,,,,,,,,,,,,,,,,1224.9268030000385,135,none,0,,,1229.933537300094,,,,,,,,43,C,2024-01-02_11h49.34.763,gca_avoidance_task,2022.2.4,144.11713852366833,
positions.xlsx,stimuli.xlsx,stimuli/Social1.png,stimuli/Social2.png,stimuli/Nonsocial2.png,stimuli/Nonsocial1.png,,"(-0.7, -0.5)",cs_minus_ns,,,,,0,0,0,0,,,,,,,,,1,5,21,13,,,,,,,,,,,,,,,,,,,,,1239.5095540001057,140,reward,1,0.923740700003691,0.9237445999169722,1240.4400900000473,,,,,,,,43,C,2024-01-02_11h49.34.763,gca_avoidance_task,2022.2.4,144.11713852366833,
positions.xlsx,stimuli.xlsx,stimuli/Social1.png,stimuli/Social2.png,stimuli/Nonsocial2.png,stimuli/Nonsocial1.png,,"(0.7, 0.5)",cs_plus_s,,,,,0,0,0,0,,,,,,,,,1,6,22,2,,,,,,,,,,,,,,,,,,,,,1250.3216288000112,140,none,0,,,1255.328368000104,,,,,,,,43,C,2024-01-02_11h49.34.763,gca_avoidance_task,2022.2.4,144.11713852366833,
positions.xlsx,stimuli.xlsx,stimuli/Social1.png,stimuli/Social2.png,stimuli/Nonsocial2.png,stimuli/Nonsocial1.png,,"(0.7, -0.5)",cs_plus_s,,,,,0,0,0,0,,,,,,,,,1,7,23,3,,,,,,,,,,,,,,,,,,,,,1265.2307479000883,140,none,0,,,1270.2375536001055,,,,,,,,43,C,2024-01-02_11h49.34.763,gca_avoidance_task,2022.2.4,144.11713852366833,
positions.xlsx,stimuli.xlsx,stimuli/Social1.png,stimuli/Social2.png,stimuli/Nonsocial2.png,stimuli/Nonsocial1.png,,"(-0.7, 0.5)",cs_minus_s,,,,,0,0,0,0,,,,,,,,,1,8,24,4,,,,,,,,,,,,,,,,,,,,,1279.0149218000006,145,reward,1,0.6389025000389665,0.6389064000686631,1279.6607373000588,,,,,,,,43,C,2024-01-02_11h49.34.763,gca_avoidance_task,2022.2.4,144.11713852366833,
positions.xlsx,stimuli.xlsx,stimuli/Social1.png,stimuli/Social2.png,stimuli/Nonsocial2.png,stimuli/Nonsocial1.png,,"(-0.7, -0.5)",cs_plus_s,,,,,0,0,0,0,,,,,,,,,1,9,25,1,,,,,,,,,,,,,,,,,,,,,1289.2853761001024,145,none,0,,,1294.2920952000422,,,,,,,,43,C,2024-01-02_11h49.34.763,gca_avoidance_task,2022.2.4,144.11713852366833,
positions.xlsx,stimuli.xlsx,stimuli/Social1.png,stimuli/Social2.png,stimuli/Nonsocial2.png,stimuli/Nonsocial1.png,,"(0.7, -0.5)",cs_plus_ns,,,,,0,0,0,0,,,,,,,,,1,10,26,11,,,,,,,,,,,,,,,,,,,,,1303.1807218000758,145,none,0,,,1308.1873858000617,,,,,,,,43,C,2024-01-02_11h49.34.763,gca_avoidance_task,2022.2.4,144.11713852366833,
positions.xlsx,stimuli.xlsx,stimuli/Social1.png,stimuli/Social2.png,stimuli/Nonsocial2.png,stimuli/Nonsocial1.png,,"(-0.7, -0.5)",cs_minus_s,,,,,0,0,0,0,,,,,,,,,1,11,27,5,,,,,,,,,,,,,,,,,,,,,1317.3675958000822,150,reward,1,0.2570675000315532,0.25707129994407296,1317.6314998000162,,,,,,,,43,C,2024-01-02_11h49.34.763,gca_avoidance_task,2022.2.4,144.11713852366833,
positions.xlsx,stimuli.xlsx,stimuli/Social1.png,stimuli/Social2.png,stimuli/Nonsocial2.png,stimuli/Nonsocial1.png,,"(0.7, 0.5)",cs_plus_ns,,,,,0,0,0,0,,,,,,,,,1,12,28,10,,,,,,,,,,,,,,,,,,,,,1326.8950247000903,150,none,0,,,1331.9017340000719,,,,,,,,43,C,2024-01-02_11h49.34.763,gca_avoidance_task,2022.2.4,144.11713852366833,
positions.xlsx,stimuli.xlsx,stimuli/Social1.png,stimuli/Social2.png,stimuli/Nonsocial2.png,stimuli/Nonsocial1.png,,"(0.7, 0.5)",cs_minus_s,,,,,0,0,0,0,,,,,,,,,1,13,29,6,,,,,,,,,,,,,,,,,,,,,1342.1722181000514,155,reward,1,0.7295427999924868,0.7295467000221834,1342.9082823999925,,,,,,,,43,C,2024-01-02_11h49.34.763,gca_avoidance_task,2022.2.4,144.11713852366833,
positions.xlsx,stimuli.xlsx,stimuli/Social1.png,stimuli/Social2.png,stimuli/Nonsocial2.png,stimuli/Nonsocial1.png,,"(-0.7, 0.5)",cs_minus_ns,,,,,0,0,0,0,,,,,,,,,1,14,30,12,,,,,,,,,,,,,,,,,,,,,1352.1232103999937,160,reward,1,1.4451806999277323,1.4513872999232262,1353.5814652000554,,,,,,,,43,C,2024-01-02_11h49.34.763,gca_avoidance_task,2022.2.4,144.11713852366833,
positions.xlsx,stimuli.xlsx,stimuli/Social1.png,stimuli/Social2.png,stimuli/Nonsocial2.png,stimuli/Nonsocial1.png,,"(-0.7, 0.5)",cs_plus_ns,,,,,0,0,0,0,,,,,,,,,1,15,31,8,,,,,,,,,,,,,,,,,,,,,1363.2407949001063,160,none,0,,,1368.2475354000926,,,,,,,,43,C,2024-01-02_11h49.34.763,gca_avoidance_task,2022.2.4,144.11713852366833,
positions.xlsx,stimuli.xlsx,stimuli/Social1.png,stimuli/Social2.png,stimuli/Nonsocial2.png,stimuli/Nonsocial1.png,,"(0.7, 0.5)",cs_plus_ns,,,,,0,0,0,0,,,,,,,,,2,0,32,10,,,,,,,,,,,,,,,,,,,,,1377.7471979000838,160,none,0,,,1382.753938500071,,,,,,,,43,C,2024-01-02_11h49.34.763,gca_avoidance_task,2022.2.4,144.11713852366833,
positions.xlsx,stimuli.xlsx,stimuli/Social1.png,stimuli/Social2.png,stimuli/Nonsocial2.png,stimuli/Nonsocial1.png,,"(-0.7, 0.5)",cs_minus_ns,,,,,0,0,0,0,,,,,,,,,2,1,33,12,,,,,,,,,,,,,,,,,,,,,1391.3161016000668,165,reward,1,0.8820648000109941,0.8820686000399292,1392.2049766000127,,,,,,,,43,C,2024-01-02_11h49.34.763,gca_avoidance_task,2022.2.4,144.11713852366833,
positions.xlsx,stimuli.xlsx,stimuli/Social1.png,stimuli/Social2.png,stimuli/Nonsocial2.png,stimuli/Nonsocial1.png,,"(-0.7, 0.5)",cs_plus_ns,,,,,0,0,0,0,,,,,,,,,2,2,34,8,,,,,,,,,,,,,,,,,,,,,1401.69762240001,165,none,0,,,1406.7043803000124,,,,,,,,43,C,2024-01-02_11h49.34.763,gca_avoidance_task,2022.2.4,144.11713852366833,
positions.xlsx,stimuli.xlsx,stimuli/Social1.png,stimuli/Social2.png,stimuli/Nonsocial2.png,stimuli/Nonsocial1.png,,"(0.7, 0.5)",cs_minus_ns,,,,,0,0,0,0,,,,,,,,,2,3,35,14,,,,,,,,,,,,,,,,,,,,,1415.4540683000814,170,reward,1,0.799073199974373,0.7990767000010237,1416.2595773000503,,,,,,,,43,C,2024-01-02_11h49.34.763,gca_avoidance_task,2022.2.4,144.11713852366833,
positions.xlsx,stimuli.xlsx,stimuli/Social1.png,stimuli/Social2.png,stimuli/Nonsocial2.png,stimuli/Nonsocial1.png,,"(-0.7, 0.5)",cs_plus_s,,,,,0,0,0,0,,,,,,,,,2,4,36,0,,,,,,,,,,,,,,,,,,,,,1425.3078211999964,170,none,0,,,1430.3145867000567,,,,,,,,43,C,2024-01-02_11h49.34.763,gca_avoidance_task,2022.2.4,144.11713852366833,
positions.xlsx,stimuli.xlsx,stimuli/Social1.png,stimuli/Social2.png,stimuli/Nonsocial2.png,stimuli/Nonsocial1.png,,"(0.7, -0.5)",cs_minus_ns,,,,,0,0,0,0,,,,,,,,,2,5,37,15,,,,,,,,,,,,,,,,,,,,,1439.5780821000226,175,reward,1,0.5699141999939457,0.5699181000236422,1440.1544906999916,,,,,,,,43,C,2024-01-02_11h49.34.763,gca_avoidance_task,2022.2.4,144.11713852366833,
positions.xlsx,stimuli.xlsx,stimuli/Social1.png,stimuli/Social2.png,stimuli/Nonsocial2.png,stimuli/Nonsocial1.png,,"(-0.7, -0.5)",cs_plus_s,,,,,0,0,0,0,,,,,,,,,2,6,38,1,,,,,,,,,,,,,,,,,,,,,1449.3068689000793,175,none,0,,,1454.3136226000497,,,,,,,,43,C,2024-01-02_11h49.34.763,gca_avoidance_task,2022.2.4,144.11713852366833,
positions.xlsx,stimuli.xlsx,stimuli/Social1.png,stimuli/Social2.png,stimuli/Nonsocial2.png,stimuli/Nonsocial1.png,,"(0.7, -0.5)",cs_minus_s,,,,,0,0,0,0,,,,,,,,,2,7,39,7,,,,,,,,,,,,,,,,,,,,,1462.9799626000458,180,reward,1,0.7085109000327066,0.7085147000616416,1463.6952021000907,,,,,,,,43,C,2024-01-02_11h49.34.763,gca_avoidance_task,2022.2.4,144.11713852366833,
positions.xlsx,stimuli.xlsx,stimuli/Social1.png,stimuli/Social2.png,stimuli/Nonsocial2.png,stimuli/Nonsocial1.png,,"(-0.7, -0.5)",cs_plus_ns,,,,,0,0,0,0,,,,,,,,,2,8,40,9,,,,,,,,,,,,,,,,,,,,,1472.6184572000057,180,none,0,,,1477.625212400104,,,,,,,,43,C,2024-01-02_11h49.34.763,gca_avoidance_task,2022.2.4,144.11713852366833,
positions.xlsx,stimuli.xlsx,stimuli/Social1.png,stimuli/Social2.png,stimuli/Nonsocial2.png,stimuli/Nonsocial1.png,,"(-0.7, -0.5)",cs_minus_ns,,,,,0,0,0,0,,,,,,,,,2,9,41,13,,,,,,,,,,,,,,,,,,,,,1487.3192700000945,185,reward,1,0.709026399999857,0.7090301000280306,1488.034549400094,,,,,,,,43,C,2024-01-02_11h49.34.763,gca_avoidance_task,2022.2.4,144.11713852366833,
positions.xlsx,stimuli.xlsx,stimuli/Social1.png,stimuli/Social2.png,stimuli/Nonsocial2.png,stimuli/Nonsocial1.png,,"(-0.7, 0.5)",cs_minus_s,,,,,0,0,0,0,,,,,,,,,2,10,42,4,,,,,,,,,,,,,,,,,,,,,1497.6105659001041,190,reward,1,0.2640136999543756,0.2640170999802649,1497.8813687000657,,,,,,,,43,C,2024-01-02_11h49.34.763,gca_avoidance_task,2022.2.4,144.11713852366833,
positions.xlsx,stimuli.xlsx,stimuli/Social1.png,stimuli/Social2.png,stimuli/Nonsocial2.png,stimuli/Nonsocial1.png,,"(0.7, -0.5)",cs_plus_ns,,,,,0,0,0,0,,,,,,,,,2,11,43,11,,,,,,,,,,,,,,,,,,,,,1507.193515800056,190,none,0,,,1512.200299500022,,,,,,,,43,C,2024-01-02_11h49.34.763,gca_avoidance_task,2022.2.4,144.11713852366833,
positions.xlsx,stimuli.xlsx,stimuli/Social1.png,stimuli/Social2.png,stimuli/Nonsocial2.png,stimuli/Nonsocial1.png,,"(0.7, 0.5)",cs_plus_s,,,,,0,0,0,0,,,,,,,,,2,12,44,2,,,,,,,,,,,,,,,,,,,,,1520.942972799996,190,none,0,,,1525.9497348000295,,,,,,,,43,C,2024-01-02_11h49.34.763,gca_avoidance_task,2022.2.4,144.11713852366833,
positions.xlsx,stimuli.xlsx,stimuli/Social1.png,stimuli/Social2.png,stimuli/Nonsocial2.png,stimuli/Nonsocial1.png,,"(0.7, 0.5)",cs_minus_s,,,,,0,0,0,0,,,,,,,,,2,13,45,6,,,,,,,,,,,,,,,,,,,,,1535.491020900081,195,reward,1,0.6877290999982506,0.6877328999107704,1536.1854698000243,,,,,,,,43,C,2024-01-02_11h49.34.763,gca_avoidance_task,2022.2.4,144.11713852366833,
positions.xlsx,stimuli.xlsx,stimuli/Social1.png,stimuli/Social2.png,stimuli/Nonsocial2.png,stimuli/Nonsocial1.png,,"(0.7, -0.5)",cs_plus_s,,,,,0,0,0,0,,,,,,,,,2,14,46,3,,,,,,,,,,,,,,,,,,,,,1546.351703900029,195,none,0,,,1551.3584565999918,,,,,,,,43,C,2024-01-02_11h49.34.763,gca_avoidance_task,2022.2.4,144.11713852366833,
positions.xlsx,stimuli.xlsx,stimuli/Social1.png,stimuli/Social2.png,stimuli/Nonsocial2.png,stimuli/Nonsocial1.png,,"(-0.7, -0.5)",cs_minus_s,,,,,0,0,0,0,,,,,,,,,2,15,47,5,,,,,,,,,,,,,,,,,,,,,1561.08029860002,200,reward,1,0.6254459000192583,0.6254498999333009,1561.7122082000133,,,,,,,,43,C,2024-01-02_11h49.34.763,gca_avoidance_task,2022.2.4,144.11713852366833,
positions.xlsx,stimuli.xlsx,stimuli/Social1.png,stimuli/Social2.png,stimuli/Nonsocial2.png,stimuli/Nonsocial1.png,,"(0.7, 0.5)",cs_minus_ns,,,,,0,0,0,0,,,,,,,,,3,0,48,14,,,,,,,,,,,,,,,,,,,,,1571.413220699993,205,reward,1,0.4586396999657154,0.45864359999541193,1571.878484899993,,,,,,,,43,C,2024-01-02_11h49.34.763,gca_avoidance_task,2022.2.4,144.11713852366833,
positions.xlsx,stimuli.xlsx,stimuli/Social1.png,stimuli/Social2.png,stimuli/Nonsocial2.png,stimuli/Nonsocial1.png,,"(0.7, -0.5)",cs_plus_ns,,,,,0,0,0,0,,,,,,,,,3,1,49,11,,,,,,,,,,,,,,,,,,,,,1581.5239574000007,205,none,0,,,1586.5306742000394,,,,,,,,43,C,2024-01-02_11h49.34.763,gca_avoidance_task,2022.2.4,144.11713852366833,
positions.xlsx,stimuli.xlsx,stimuli/Social1.png,stimuli/Social2.png,stimuli/Nonsocial2.png,stimuli/Nonsocial1.png,,"(-0.7, 0.5)",cs_minus_s,,,,,0,0,0,0,,,,,,,,,3,2,50,4,,,,,,,,,,,,,,,,,,,,,1595.9330819000024,210,reward,1,0.6045389999635518,0.6045426999917254,1596.5441434000386,,,,,,,,43,C,2024-01-02_11h49.34.763,gca_avoidance_task,2022.2.4,144.11713852366833,
positions.xlsx,stimuli.xlsx,stimuli/Social1.png,stimuli/Social2.png,stimuli/Nonsocial2.png,stimuli/Nonsocial1.png,,"(-0.7, -0.5)",cs_plus_ns,,,,,0,0,0,0,,,,,,,,,3,3,51,9,,,,,,,,,,,,,,,,,,,,,1606.1132123999996,210,none,0,,,1611.1200198000297,,,,,,,,43,C,2024-01-02_11h49.34.763,gca_avoidance_task,2022.2.4,144.11713852366833,
positions.xlsx,stimuli.xlsx,stimuli/Social1.png,stimuli/Social2.png,stimuli/Nonsocial2.png,stimuli/Nonsocial1.png,,"(-0.7, 0.5)",cs_minus_ns,,,,,0,0,0,0,,,,,,,,,3,4,52,12,,,,,,,,,,,,,,,,,,,,,1620.591837999993,215,reward,1,0.6389707000926137,0.6389746000058949,1621.2376675000414,,,,,,,,43,C,2024-01-02_11h49.34.763,gca_avoidance_task,2022.2.4,144.11713852366833,
positions.xlsx,stimuli.xlsx,stimuli/Social1.png,stimuli/Social2.png,stimuli/Nonsocial2.png,stimuli/Nonsocial1.png,,"(-0.7, 0.5)",cs_plus_ns,,,,,0,0,0,0,,,,,,,,,3,5,53,8,,,,,,,,,,,,,,,,,,,,,1631.424780500005,215,none,0,,,1636.4314983000513,,,,,,,,43,C,2024-01-02_11h49.34.763,gca_avoidance_task,2022.2.4,144.11713852366833,
positions.xlsx,stimuli.xlsx,stimuli/Social1.png,stimuli/Social2.png,stimuli/Nonsocial2.png,stimuli/Nonsocial1.png,,"(-0.7, -0.5)",cs_plus_s,,,,,0,0,0,0,,,,,,,,,3,6,54,1,,,,,,,,,,,,,,,,,,,,,1646.3339269000571,215,shock,1,0.6603372000390664,0.6603410999523476,1647.0005343999946,,,,,,,,43,C,2024-01-02_11h49.34.763,gca_avoidance_task,2022.2.4,144.11713852366833,
positions.xlsx,stimuli.xlsx,stimuli/Social1.png,stimuli/Social2.png,stimuli/Nonsocial2.png,stimuli/Nonsocial1.png,,"(0.7, 0.5)",cs_minus_s,,,,,0,0,0,0,,,,,,,,,3,7,55,6,,,,,,,,,,,,,,,,,,,,,1657.2571077001048,220,reward,1,0.6181690000230446,0.6181728000519797,1657.8820880000712,,,,,,,,43,C,2024-01-02_11h49.34.763,gca_avoidance_task,2022.2.4,144.11713852366833,
positions.xlsx,stimuli.xlsx,stimuli/Social1.png,stimuli/Social2.png,stimuli/Nonsocial2.png,stimuli/Nonsocial1.png,,"(0.7, -0.5)",cs_minus_ns,,,,,0,0,0,0,,,,,,,,,3,8,56,15,,,,,,,,,,,,,,,,,,,,,1667.3747314000502,225,reward,1,0.7296748000662774,0.7296785999787971,1668.1108103001025,,,,,,,,43,C,2024-01-02_11h49.34.763,gca_avoidance_task,2022.2.4,144.11713852366833,
positions.xlsx,stimuli.xlsx,stimuli/Social1.png,stimuli/Social2.png,stimuli/Nonsocial2.png,stimuli/Nonsocial1.png,,"(-0.7, -0.5)",cs_minus_ns,,,,,0,0,0,0,,,,,,,,,3,9,57,13,,,,,,,,,,,,,,,,,,,,,1677.9715359000256,230,reward,1,0.8471891999943182,0.8471930000232533,1678.8257007000502,,,,,,,,43,C,2024-01-02_11h49.34.763,gca_avoidance_task,2022.2.4,144.11713852366833,
positions.xlsx,stimuli.xlsx,stimuli/Social1.png,stimuli/Social2.png,stimuli/Nonsocial2.png,stimuli/Nonsocial1.png,,"(-0.7, 0.5)",cs_plus_s,,,,,0,0,0,0,,,,,,,,,3,10,58,0,,,,,,,,,,,,,,,,,,,,,1688.1169584000017,230,none,0,,,1693.1237472000066,,,,,,,,43,C,2024-01-02_11h49.34.763,gca_avoidance_task,2022.2.4,144.11713852366833,
positions.xlsx,stimuli.xlsx,stimuli/Social1.png,stimuli/Social2.png,stimuli/Nonsocial2.png,stimuli/Nonsocial1.png,,"(-0.7, -0.5)",cs_minus_s,,,,,0,0,0,0,,,,,,,,,3,11,59,5,,,,,,,,,,,,,,,,,,,,,1703.4844637000933,235,reward,1,0.7708306000567973,0.7708346000872552,1704.2621784000657,,,,,,,,43,C,2024-01-02_11h49.34.763,gca_avoidance_task,2022.2.4,144.11713852366833,
positions.xlsx,stimuli.xlsx,stimuli/Social1.png,stimuli/Social2.png,stimuli/Nonsocial2.png,stimuli/Nonsocial1.png,,"(0.7, 0.5)",cs_plus_ns,,,,,0,0,0,0,,,,,,,,,3,12,60,10,,,,,,,,,,,,,,,,,,,,,1713.3729332000948,235,none,0,,,1718.379706100095,,,,,,,,43,C,2024-01-02_11h49.34.763,gca_avoidance_task,2022.2.4,144.11713852366833,
positions.xlsx,stimuli.xlsx,stimuli/Social1.png,stimuli/Social2.png,stimuli/Nonsocial2.png,stimuli/Nonsocial1.png,,"(0.7, -0.5)",cs_minus_s,,,,,0,0,0,0,,,,,,,,,3,13,61,7,,,,,,,,,,,,,,,,,,,,,1727.7335093000438,240,reward,1,0.6879462000215426,0.6879528999561444,1728.427903600037,,,,,,,,43,C,2024-01-02_11h49.34.763,gca_avoidance_task,2022.2.4,144.11713852366833,
positions.xlsx,stimuli.xlsx,stimuli/Social1.png,stimuli/Social2.png,stimuli/Nonsocial2.png,stimuli/Nonsocial1.png,,"(0.7, -0.5)",cs_plus_s,,,,,0,0,0,0,,,,,,,,,3,14,62,3,,,,,,,,,,,,,,,,,,,,,1737.9067174000666,240,none,0,,,1742.913462500088,,,,,,,,43,C,2024-01-02_11h49.34.763,gca_avoidance_task,2022.2.4,144.11713852366833,
positions.xlsx,stimuli.xlsx,stimuli/Social1.png,stimuli/Social2.png,stimuli/Nonsocial2.png,stimuli/Nonsocial1.png,,"(0.7, 0.5)",cs_plus_s,,,,,0,0,0,0,,,,,,,,,3,15,63,2,,,,,,,,,,,,,,,,,,,,,1752.7880827999907,240,none,0,,,1757.7947913000826,,,,,,,,43,C,2024-01-02_11h49.34.763,gca_avoidance_task,2022.2.4,144.11713852366833,
positions.xlsx,stimuli.xlsx,stimuli/Social1.png,stimuli/Social2.png,stimuli/Nonsocial2.png,stimuli/Nonsocial1.png,,"(0.7, 0.5)",cs_minus_s,,,,,0,0,0,0,,,,,,,,,4,0,64,6,,,,,,,,,,,,,,,,,,,,,1766.8361294000642,245,reward,1,0.7709711999632418,0.7709753999952227,1767.6138785000658,,,,,,,,43,C,2024-01-02_11h49.34.763,gca_avoidance_task,2022.2.4,144.11713852366833,
positions.xlsx,stimuli.xlsx,stimuli/Social1.png,stimuli/Social2.png,stimuli/Nonsocial2.png,stimuli/Nonsocial1.png,,"(-0.7, -0.5)",cs_minus_s,,,,,0,0,0,0,,,,,,,,,4,1,65,5,,,,,,,,,,,,,,,,,,,,,1776.3635880000656,250,reward,1,0.6324033999117091,0.6324069999391213,1777.0023737000301,,,,,,,,43,C,2024-01-02_11h49.34.763,gca_avoidance_task,2022.2.4,144.11713852366833,
positions.xlsx,stimuli.xlsx,stimuli/Social1.png,stimuli/Social2.png,stimuli/Nonsocial2.png,stimuli/Nonsocial1.png,,"(-0.7, 0.5)",cs_minus_s,,,,,0,0,0,0,,,,,,,,,4,2,66,4,,,,,,,,,,,,,,,,,,,,,1786.6756722000428,255,reward,1,0.6460417000344023,0.6460452999453992,1787.3284042000305,,,,,,,,43,C,2024-01-02_11h49.34.763,gca_avoidance_task,2022.2.4,144.11713852366833,
positions.xlsx,stimuli.xlsx,stimuli/Social1.png,stimuli/Social2.png,stimuli/Nonsocial2.png,stimuli/Nonsocial1.png,,"(-0.7, -0.5)",cs_plus_s,,,,,0,0,0,0,,,,,,,,,4,3,67,1,,,,,,,,,,,,,,,,,,,,,1796.7308110001031,255,none,0,,,1801.7375493000727,,,,,,,,43,C,2024-01-02_11h49.34.763,gca_avoidance_task,2022.2.4,144.11713852366833,
positions.xlsx,stimuli.xlsx,stimuli/Social1.png,stimuli/Social2.png,stimuli/Nonsocial2.png,stimuli/Nonsocial1.png,,"(0.7, -0.5)",cs_minus_s,,,,,0,0,0,0,,,,,,,,,4,4,68,7,,,,,,,,,,,,,,,,,,,,,1811.1191118001007,260,reward,1,0.7850726000033319,0.7850765999173746,1811.910829700064,,,,,,,,43,C,2024-01-02_11h49.34.763,gca_avoidance_task,2022.2.4,144.11713852366833,
positions.xlsx,stimuli.xlsx,stimuli/Social1.png,stimuli/Social2.png,stimuli/Nonsocial2.png,stimuli/Nonsocial1.png,,"(0.7, -0.5)",cs_plus_ns,,,,,0,0,0,0,,,,,,,,,4,5,69,11,,,,,,,,,,,,,,,,,,,,,1821.5562172000064,260,none,0,,,1826.56295520009,,,,,,,,43,C,2024-01-02_11h49.34.763,gca_avoidance_task,2022.2.4,144.11713852366833,
positions.xlsx,stimuli.xlsx,stimuli/Social1.png,stimuli/Social2.png,stimuli/Nonsocial2.png,stimuli/Nonsocial1.png,,"(-0.7, -0.5)",cs_minus_ns,,,,,0,0,0,0,,,,,,,,,4,6,70,13,,,,,,,,,,,,,,,,,,,,,1836.0140059000114,265,reward,1,0.9168985999422148,0.9169023999711499,1836.9375612000003,,,,,,,,43,C,2024-01-02_11h49.34.763,gca_avoidance_task,2022.2.4,144.11713852366833,
positions.xlsx,stimuli.xlsx,stimuli/Social1.png,stimuli/Social2.png,stimuli/Nonsocial2.png,stimuli/Nonsocial1.png,,"(0.7, 0.5)",cs_plus_ns,,,,,0,0,0,0,,,,,,,,,4,7,71,10,,,,,,,,,,,,,,,,,,,,,1846.0135738000972,265,none,0,,,1851.0272645000368,,,,,,,,43,C,2024-01-02_11h49.34.763,gca_avoidance_task,2022.2.4,144.11713852366833,
positions.xlsx,stimuli.xlsx,stimuli/Social1.png,stimuli/Social2.png,stimuli/Nonsocial2.png,stimuli/Nonsocial1.png,,"(0.7, -0.5)",cs_plus_s,,,,,0,0,0,0,,,,,,,,,4,8,72,3,,,,,,,,,,,,,,,,,,,,,1860.5894351000898,265,none,0,,,1865.5961733000586,,,,,,,,43,C,2024-01-02_11h49.34.763,gca_avoidance_task,2022.2.4,144.11713852366833,
positions.xlsx,stimuli.xlsx,stimuli/Social1.png,stimuli/Social2.png,stimuli/Nonsocial2.png,stimuli/Nonsocial1.png,,"(0.7, -0.5)",cs_minus_ns,,,,,0,0,0,0,,,,,,,,,4,9,73,15,,,,,,,,,,,,,,,,,,,,,1875.6166219000006,270,reward,1,0.653086100006476,0.6530896000331268,1876.2763312000316,,,,,,,,43,C,2024-01-02_11h49.34.763,gca_avoidance_task,2022.2.4,144.11713852366833,
positions.xlsx,stimuli.xlsx,stimuli/Social1.png,stimuli/Social2.png,stimuli/Nonsocial2.png,stimuli/Nonsocial1.png,,"(-0.7, 0.5)",cs_minus_ns,,,,,0,0,0,0,,,,,,,,,4,10,74,12,,,,,,,,,,,,,,,,,,,,,1885.8453675000928,275,reward,1,0.6183764000888914,0.6183799999998882,1886.470364100067,,,,,,,,43,C,2024-01-02_11h49.34.763,gca_avoidance_task,2022.2.4,144.11713852366833,
positions.xlsx,stimuli.xlsx,stimuli/Social1.png,stimuli/Social2.png,stimuli/Nonsocial2.png,stimuli/Nonsocial1.png,,"(-0.7, 0.5)",cs_plus_s,,,,,0,0,0,0,,,,,,,,,4,11,75,0,,,,,,,,,,,,,,,,,,,,,1895.7339014000027,275,none,0,,,1900.7406215000665,,,,,,,,43,C,2024-01-02_11h49.34.763,gca_avoidance_task,2022.2.4,144.11713852366833,
positions.xlsx,stimuli.xlsx,stimuli/Social1.png,stimuli/Social2.png,stimuli/Nonsocial2.png,stimuli/Nonsocial1.png,,"(0.7, 0.5)",cs_minus_ns,,,,,0,0,0,0,,,,,,,,,4,12,76,14,,,,,,,,,,,,,,,,,,,,,1909.9555444000289,280,reward,1,0.48624019999988377,0.4862439999124035,1910.4486054000445,,,,,,,,43,C,2024-01-02_11h49.34.763,gca_avoidance_task,2022.2.4,144.11713852366833,
positions.xlsx,stimuli.xlsx,stimuli/Social1.png,stimuli/Social2.png,stimuli/Nonsocial2.png,stimuli/Nonsocial1.png,,"(-0.7, 0.5)",cs_plus_ns,,,,,0,0,0,0,,,,,,,,,4,13,77,8,,,,,,,,,,,,,,,,,,,,,1919.5871282001026,280,none,0,,,1924.5938577000052,,,,,,,,43,C,2024-01-02_11h49.34.763,gca_avoidance_task,2022.2.4,144.11713852366833,
positions.xlsx,stimuli.xlsx,stimuli/Social1.png,stimuli/Social2.png,stimuli/Nonsocial2.png,stimuli/Nonsocial1.png,,"(0.7, 0.5)",cs_plus_s,,,,,0,0,0,0,,,,,,,,,4,14,78,2,,,,,,,,,,,,,,,,,,,,,1933.9268294000067,280,none,0,,,1938.933608100051,,,,,,,,43,C,2024-01-02_11h49.34.763,gca_avoidance_task,2022.2.4,144.11713852366833,
positions.xlsx,stimuli.xlsx,stimuli/Social1.png,stimuli/Social2.png,stimuli/Nonsocial2.png,stimuli/Nonsocial1.png,,"(-0.7, -0.5)",cs_plus_ns,,,,,0,0,0,0,,,,,,,,,4,15,79,9,,,,,,,,,,,,,,,,,,,,,1948.5235019000247,280,none,0,,,1953.530249100062,,,,,,,,43,C,2024-01-02_11h49.34.763,gca_avoidance_task,2022.2.4,144.11713852366833,
positions.xlsx,stimuli.xlsx,stimuli/Social1.png,stimuli/Social2.png,stimuli/Nonsocial2.png,stimuli/Nonsocial1.png,cs_plus_s,,,,,,,0,0,0,0,,,,,,,,,,,,,0,0,0,0,,,,,,,,,,,,,1989.3483190000989,5.0,6.6218341999920085,,,,,,,,,4.0,24.9717502000276,,,,,,43,C,2024-01-02_11h49.34.763,gca_avoidance_task,2022.2.4,144.11713852366833,
positions.xlsx,stimuli.xlsx,stimuli/Social1.png,stimuli/Social2.png,stimuli/Nonsocial2.png,stimuli/Nonsocial1.png,cs_minus_s,,,,,,,0,0,0,0,,,,,,,,,,,,,0,1,1,2,,,,,,,,,,,,,1998.5631937000435,6.0,5.0354937999509275,,,,,,,,,,,,,,,,43,C,2024-01-02_11h49.34.763,gca_avoidance_task,2022.2.4,144.11713852366833,
positions.xlsx,stimuli.xlsx,stimuli/Social1.png,stimuli/Social2.png,stimuli/Nonsocial2.png,stimuli/Nonsocial1.png,cs_minus_ns,,,,,,,0,0,0,0,,,,,,,,,,,,,0,2,2,3,,,,,,,,,,,,,2005.1671287000645,6.0,4.576160000055097,,,,,,,,,,,,,,,,43,C,2024-01-02_11h49.34.763,gca_avoidance_task,2022.2.4,144.11713852366833,
positions.xlsx,stimuli.xlsx,stimuli/Social1.png,stimuli/Social2.png,stimuli/Nonsocial2.png,stimuli/Nonsocial1.png,cs_plus_ns,,,,,,,0,0,0,0,,,,,,,,,,,,,0,3,3,1,,,,,,,,,,,,,2010.5211310000159,4.0,6.2775659000035375,,,,,,,,,,,,,,,,43,C,2024-01-02_11h49.34.763,gca_avoidance_task,2022.2.4,144.11713852366833,
positions.xlsx,stimuli.xlsx,stimuli/Social1.png,stimuli/Social2.png,stimuli/Nonsocial2.png,stimuli/Nonsocial1.png,cs_plus_s,,,,,,,0,0,0,0,,,,,,,,,,,,,,,,,0,0,0,0,,,,,,,,,,,,,,,,,,,,,,2017.7013627000852,2022.673384700087,1,0.022024299949407578,9.999635100015439,43,C,2024-01-02_11h49.34.763,gca_avoidance_task,2022.2.4,144.11713852366833,
positions.xlsx,stimuli.xlsx,stimuli/Social1.png,stimuli/Social2.png,stimuli/Nonsocial2.png,stimuli/Nonsocial1.png,cs_minus_ns,,,,,,,0,0,0,0,,,,,,,,,,,,,,,,,0,1,1,3,,,,,,,,,,,,,,,,,,,,,,,2037.1798243999947,1,0.014531299937516451,10.000315799959935,43,C,2024-01-02_11h49.34.763,gca_avoidance_task,2022.2.4,144.11713852366833,
positions.xlsx,stimuli.xlsx,stimuli/Social1.png,stimuli/Social2.png,stimuli/Nonsocial2.png,stimuli/Nonsocial1.png,cs_minus_s,,,,,,,0,0,0,0,,,,,,,,,,,,,,,,,0,2,2,2,,,,,,,,,,,,,,,,,,,,,,,2051.797271000105,1,0.015078700031153858,9.999962500063702,43,C,2024-01-02_11h49.34.763,gca_avoidance_task,2022.2.4,144.11713852366833,
positions.xlsx,stimuli.xlsx,stimuli/Social1.png,stimuli/Social2.png,stimuli/Nonsocial2.png,stimuli/Nonsocial1.png,cs_plus_ns,,,,,,,0,0,0,0,,,,,,,,,,,,,,,,,0,3,3,1,,,,,,,,,,,,,,,,,,,,,,,2066.498083900078,1,0.014541400014422834,9.999892899999395,43,C,2024-01-02_11h49.34.763,gca_avoidance_task,2022.2.4,144.11713852366833,
positions.xlsx,stimuli.xlsx,stimuli/Social1.png,stimuli/Social2.png,stimuli/Nonsocial2.png,stimuli/Nonsocial1.png,cs_plus_s,,,,,,,0,0,0,0,,,,,,,,,,,,,,,,,1,0,4,0,,,,,,,,,,,,,,,,,,,,,,,2081.4767351000337,4,0.01446500001475215,2.6531733999727294,43,C,2024-01-02_11h49.34.763,gca_avoidance_task,2022.2.4,144.11713852366833,
positions.xlsx,stimuli.xlsx,stimuli/Social1.png,stimuli/Social2.png,stimuli/Nonsocial2.png,stimuli/Nonsocial1.png,cs_minus_ns,,,,,,,0,0,0,0,,,,,,,,,,,,,,,,,1,1,5,3,,,,,,,,,,,,,,,,,,,,,,,2096.8858080999926,3,0.01487539999652654,2.4933062000200152,43,C,2024-01-02_11h49.34.763,gca_avoidance_task,2022.2.4,144.11713852366833,
positions.xlsx,stimuli.xlsx,stimuli/Social1.png,stimuli/Social2.png,stimuli/Nonsocial2.png,stimuli/Nonsocial1.png,cs_minus_s,,,,,,,0,0,0,0,,,,,,,,,,,,,,,,,1,2,6,2,,,,,,,,,,,,,,,,,,,,,,,2111.6838462000014,1,0.015295300050638616,10.000108300009742,43,C,2024-01-02_11h49.34.763,gca_avoidance_task,2022.2.4,144.11713852366833,
positions.xlsx,stimuli.xlsx,stimuli/Social1.png,stimuli/Social2.png,stimuli/Nonsocial2.png,stimuli/Nonsocial1.png,cs_plus_ns,,,,,,,0,0,0,0,,,,,,,,,,,,,,,,,1,3,7,1,,,,,,,,,,,,,,,,,,,,,,,2126.2110595999984,4,0.014171699993312359,0.7501606999430805,43,C,2024-01-02_11h49.34.763,gca_avoidance_task,2022.2.4,144.11713852366833,
positions.xlsx,stimuli.xlsx,stimuli/Social1.png,stimuli/Social2.png,stimuli/Nonsocial2.png,stimuli/Nonsocial1.png,cs_plus_s,,,,,,,0,0,0,0,,,,,,,,,,,,,,,,,2,0,8,0,,,,,,,,,,,,,,,,,,,,,,,2141.120219500037,1,0.01351960003376007,9.999993900069967,43,C,2024-01-02_11h49.34.763,gca_avoidance_task,2022.2.4,144.11713852366833,
positions.xlsx,stimuli.xlsx,stimuli/Social1.png,stimuli/Social2.png,stimuli/Nonsocial2.png,stimuli/Nonsocial1.png,cs_minus_s,,,,,,,0,0,0,0,,,,,,,,,,,,,,,,,2,1,9,2,,,,,,,,,,,,,,,,,,,,,,,2156.133525600075,1,0.015747099998407066,10.000532099977136,43,C,2024-01-02_11h49.34.763,gca_avoidance_task,2022.2.4,144.11713852366833,
positions.xlsx,stimuli.xlsx,stimuli/Social1.png,stimuli/Social2.png,stimuli/Nonsocial2.png,stimuli/Nonsocial1.png,cs_minus_ns,,,,,,,0,0,0,0,,,,,,,,,,,,,,,,,2,2,10,3,,,,,,,,,,,,,,,,,,,,,,,2171.4453885999974,1,0.01404399995226413,9.99980270001106,43,C,2024-01-02_11h49.34.763,gca_avoidance_task,2022.2.4,144.11713852366833,
positions.xlsx,stimuli.xlsx,stimuli/Social1.png,stimuli/Social2.png,stimuli/Nonsocial2.png,stimuli/Nonsocial1.png,cs_plus_ns,,,,,,,0,0,0,0,,,,,,,,,,,,,,,,,2,3,11,1,,,,,,,,,,,,,,,,,,,,,,,2186.7572951000184,4,0.014296200009994209,7.396042100037448,43,C,2024-01-02_11h49.34.763,gca_avoidance_task,2022.2.4,144.11713852366833,
positions.xlsx,stimuli.xlsx,stimuli/Social1.png,stimuli/Social2.png,stimuli/Nonsocial2.png,stimuli/Nonsocial1.png,cs_minus_ns,,,,,,,0,0,0,0,,,,,,,,,,,,,,,,,3,0,12,3,,,,,,,,,,,,,,,,,,,,,,,2201.756726899999,6,0.015750199905596673,0.07684150000568479,43,C,2024-01-02_11h49.34.763,gca_avoidance_task,2022.2.4,144.11713852366833,
positions.xlsx,stimuli.xlsx,stimuli/Social1.png,stimuli/Social2.png,stimuli/Nonsocial2.png,stimuli/Nonsocial1.png,cs_plus_s,,,,,,,0,0,0,0,,,,,,,,,,,,,,,,,3,1,13,0,,,,,,,,,,,,,,,,,,,,,,,2216.283927600016,1,0.01387819997034967,10.00013099994976,43,C,2024-01-02_11h49.34.763,gca_avoidance_task,2022.2.4,144.11713852366833,
positions.xlsx,stimuli.xlsx,stimuli/Social1.png,stimuli/Social2.png,stimuli/Nonsocial2.png,stimuli/Nonsocial1.png,cs_minus_s,,,,,,,0,0,0,0,,,,,,,,,,,,,,,,,3,2,14,2,,,,,,,,,,,,,,,,,,,,,,,2231.699993700022,1,0.014314300031401217,10.00006360001862,43,C,2024-01-02_11h49.34.763,gca_avoidance_task,2022.2.4,144.11713852366833,
positions.xlsx,stimuli.xlsx,stimuli/Social1.png,stimuli/Social2.png,stimuli/Nonsocial2.png,stimuli/Nonsocial1.png,cs_plus_ns,,,,,,,0,0,0,0,,,,,,,,,,,,,,,,,3,3,15,1,,,,,,,,,,,,,,,,,,,,,,,2247.0952353000175,1,0.014926200034096837,9.999937299988233,43,C,2024-01-02_11h49.34.763,gca_avoidance_task,2022.2.4,144.11713852366833,
positions.xlsx,stimuli.xlsx,stimuli/Social1.png,stimuli/Social2.png,stimuli/Nonsocial2.png,stimuli/Nonsocial1.png,cs_plus_ns,,,,,,,0,0,0,0,,,,,,,,,,,,,,,,,4,0,16,1,,,,,,,,,,,,,,,,,,,,,,,2262.525172600057,1,0.0149789999704808,10.000022199936211,43,C,2024-01-02_11h49.34.763,gca_avoidance_task,2022.2.4,144.11713852366833,
positions.xlsx,stimuli.xlsx,stimuli/Social1.png,stimuli/Social2.png,stimuli/Nonsocial2.png,stimuli/Nonsocial1.png,cs_minus_ns,,,,,,,0,0,0,0,,,,,,,,,,,,,,,,,4,1,17,3,,,,,,,,,,,,,,,,,,,,,,,2277.64264179999,1,0.014203400001861155,9.999996100086719,43,C,2024-01-02_11h49.34.763,gca_avoidance_task,2022.2.4,144.11713852366833,
positions.xlsx,stimuli.xlsx,stimuli/Social1.png,stimuli/Social2.png,stimuli/Nonsocial2.png,stimuli/Nonsocial1.png,cs_minus_s,,,,,,,0,0,0,0,,,,,,,,,,,,,,,,,4,2,18,2,,,,,,,,,,,,,,,,,,,,,,,2293.121201900067,5,0.013363000005483627,4.680685300030746,43,C,2024-01-02_11h49.34.763,gca_avoidance_task,2022.2.4,144.11713852366833,
positions.xlsx,stimuli.xlsx,stimuli/Social1.png,stimuli/Social2.png,stimuli/Nonsocial2.png,stimuli/Nonsocial1.png,cs_plus_s,,,,,,,0,0,0,0,,,,,,,,,,,,,,,,,4,3,19,0,,,,,,,,,,,,,,,,,,,,,,,2307.835905000102,2,0.013712899992242455,9.034620200050995,43,C,2024-01-02_11h49.34.763,gca_avoidance_task,2022.2.4,144.11713852366833,
positions.xlsx,stimuli.xlsx,stimuli/Social1.png,stimuli/Social2.png,stimuli/Nonsocial2.png,stimuli/Nonsocial1.png,cs_plus_s,,,,,,,0,0,0,0,,,,,,,,,,,,,,,,,5,0,20,0,,,,,,,,,,,,,,,,,,,,,,,2322.543658400071,1,0.013557499973103404,9.999976599938236,43,C,2024-01-02_11h49.34.763,gca_avoidance_task,2022.2.4,144.11713852366833,
positions.xlsx,stimuli.xlsx,stimuli/Social1.png,stimuli/Social2.png,stimuli/Nonsocial2.png,stimuli/Nonsocial1.png,cs_plus_ns,,,,,,,0,0,0,0,,,,,,,,,,,,,,,,,5,1,21,1,,,,,,,,,,,,,,,,,,,,,,,2337.4250239999965,2,0.014273499953560531,3.9307792999316007,43,C,2024-01-02_11h49.34.763,gca_avoidance_task,2022.2.4,144.11713852366833,
positions.xlsx,stimuli.xlsx,stimuli/Social1.png,stimuli/Social2.png,stimuli/Nonsocial2.png,stimuli/Nonsocial1.png,cs_minus_s,,,,,,,0,0,0,0,,,,,,,,,,,,,,,,,5,2,22,2,,,,,,,,,,,,,,,,,,,,,,,2352.2022377999965,2,0.014043799950741231,8.583343099919148,43,C,2024-01-02_11h49.34.763,gca_avoidance_task,2022.2.4,144.11713852366833,
positions.xlsx,stimuli.xlsx,stimuli/Social1.png,stimuli/Social2.png,stimuli/Nonsocial2.png,stimuli/Nonsocial1.png,cs_minus_ns,,,,,,,0,0,0,0,,,,,,,,,,,,,,,,,5,3,23,3,,,,,,,,,,,,,,,,,,,,,,,2367.3474800999975,5,0.014144499902613461,3.132203499902971,43,C,2024-01-02_11h49.34.763,gca_avoidance_task,2022.2.4,144.11713852366833,
positions.xlsx,stimuli.xlsx,stimuli/Social1.png,stimuli/Social2.png,stimuli/Nonsocial2.png,stimuli/Nonsocial1.png,cs_minus_s,,,,,,,0,0,0,0,,,,,,,,,,,,,,,,,6,0,24,2,,,,,,,,,,,,,,,,,,,,,,,2382.416366700083,1,0.013399799936451018,9.999967299983837,43,C,2024-01-02_11h49.34.763,gca_avoidance_task,2022.2.4,144.11713852366833,
positions.xlsx,stimuli.xlsx,stimuli/Social1.png,stimuli/Social2.png,stimuli/Nonsocial2.png,stimuli/Nonsocial1.png,cs_plus_ns,,,,,,,0,0,0,0,,,,,,,,,,,,,,,,,6,1,25,1,,,,,,,,,,,,,,,,,,,,,,,2397.811586100026,1,0.013983100070618093,10.000100600067526,43,C,2024-01-02_11h49.34.763,gca_avoidance_task,2022.2.4,144.11713852366833,
positions.xlsx,stimuli.xlsx,stimuli/Social1.png,stimuli/Social2.png,stimuli/Nonsocial2.png,stimuli/Nonsocial1.png,cs_plus_s,,,,,,,0,0,0,0,,,,,,,,,,,,,,,,,6,2,26,0,,,,,,,,,,,,,,,,,,,,,,,2412.352661400102,3,0.014902799972333014,6.17386570002418,43,C,2024-01-02_11h49.34.763,gca_avoidance_task,2022.2.4,144.11713852366833,
positions.xlsx,stimuli.xlsx,stimuli/Social1.png,stimuli/Social2.png,stimuli/Nonsocial2.png,stimuli/Nonsocial1.png,cs_minus_ns,,,,,,,0,0,0,0,,,,,,,,,,,,,,,,,6,3,27,3,,,,,,,,,,,,,,,,,,,,,,,2427.747916500084,6,0.014168899971991777,1.0490084999473765,43,C,2024-01-02_11h49.34.763,gca_avoidance_task,2022.2.4,144.11713852366833,
positions.xlsx,stimuli.xlsx,stimuli/Social1.png,stimuli/Social2.png,stimuli/Nonsocial2.png,stimuli/Nonsocial1.png,cs_minus_ns,,,,,,,0,0,0,0,,,,,,,,,,,,,,,,,7,0,28,3,,,,,,,,,,,,,,,,,,,,,,,2442.7612021000823,1,0.015118899988010526,10.000321300001815,43,C,2024-01-02_11h49.34.763,gca_avoidance_task,2022.2.4,144.11713852366833,
positions.xlsx,stimuli.xlsx,stimuli/Social1.png,stimuli/Social2.png,stimuli/Nonsocial2.png,stimuli/Nonsocial1.png,cs_plus_ns,,,,,,,0,0,0,0,,,,,,,,,,,,,,,,,7,1,29,1,,,,,,,,,,,,,,,,,,,,,,,2458.073178300052,7,0.014688699971884489,0.20192899997346103,43,C,2024-01-02_11h49.34.763,gca_avoidance_task,2022.2.4,144.11713852366833,
positions.xlsx,stimuli.xlsx,stimuli/Social1.png,stimuli/Social2.png,stimuli/Nonsocial2.png,stimuli/Nonsocial1.png,cs_plus_s,,,,,,,0,0,0,0,,,,,,,,,,,,,,,,,7,2,30,0,,,,,,,,,,,,,,,,,,,,,,,2473.398917200044,1,0.015423599979840219,10.000064600026235,43,C,2024-01-02_11h49.34.763,gca_avoidance_task,2022.2.4,144.11713852366833,
positions.xlsx,stimuli.xlsx,stimuli/Social1.png,stimuli/Social2.png,stimuli/Nonsocial2.png,stimuli/Nonsocial1.png,cs_minus_s,,,,,,,0,0,0,0,,,,,,,,,,,,,,,,,7,3,31,2,,,,,,,,,,,,,,,,,,,,,,,2487.905285999994,2,0.013623699895106256,3.555719399941154,43,C,2024-01-02_11h49.34.763,gca_avoidance_task,2022.2.4,144.11713852366833,
positions.xlsx,stimuli.xlsx,stimuli/Social1.png,stimuli/Social2.png,stimuli/Nonsocial2.png,stimuli/Nonsocial1.png,cs_plus_ns,,,,,,,0,0,0,0,,,,,,,,,,,,,,,,,8,0,32,1,,,,,,,,,,,,,,,,,,,,,,,2503.1408057000954,1,0.01393000001553446,10.000102299964055,43,C,2024-01-02_11h49.34.763,gca_avoidance_task,2022.2.4,144.11713852366833,
positions.xlsx,stimuli.xlsx,stimuli/Social1.png,stimuli/Social2.png,stimuli/Nonsocial2.png,stimuli/Nonsocial1.png,cs_minus_ns,,,,,,,0,0,0,0,,,,,,,,,,,,,,,,,8,1,33,3,,,,,,,,,,,,,,,,,,,,,,,2518.362456400064,13,0.014779499964788556,1.01428279990796,43,C,2024-01-02_11h49.34.763,gca_avoidance_task,2022.2.4,144.11713852366833,
positions.xlsx,stimuli.xlsx,stimuli/Social1.png,stimuli/Social2.png,stimuli/Nonsocial2.png,stimuli/Nonsocial1.png,cs_plus_s,,,,,,,0,0,0,0,,,,,,,,,,,,,,,,,8,2,34,0,,,,,,,,,,,,,,,,,,,,,,,2533.25071510009,6,0.014489699969999492,3.4794783999677747,43,C,2024-01-02_11h49.34.763,gca_avoidance_task,2022.2.4,144.11713852366833,
positions.xlsx,stimuli.xlsx,stimuli/Social1.png,stimuli/Social2.png,stimuli/Nonsocial2.png,stimuli/Nonsocial1.png,cs_minus_s,,,,,,,0,0,0,0,,,,,,,,,,,,,,,,,8,3,35,2,,,,,,,,,,,,,,,,,,,,,,,2548.5001633000793,1,0.014662100002169609,10.000004300032742,43,C,2024-01-02_11h49.34.763,gca_avoidance_task,2022.2.4,144.11713852366833,
positions.xlsx,stimuli.xlsx,stimuli/Social1.png,stimuli/Social2.png,stimuli/Nonsocial2.png,stimuli/Nonsocial1.png,cs_minus_s,,,,,,,0,0,0,0,,,,,,,,,,,,,,,,,9,0,36,2,,,,,,,,,,,,,,,,,,,,,,,2563.7148322000867,1,0.013429700047709048,10.000218500033952,43,C,2024-01-02_11h49.34.763,gca_avoidance_task,2022.2.4,144.11713852366833,
positions.xlsx,stimuli.xlsx,stimuli/Social1.png,stimuli/Social2.png,stimuli/Nonsocial2.png,stimuli/Nonsocial1.png,cs_plus_ns,,,,,,,0,0,0,0,,,,,,,,,,,,,,,,,9,1,37,1,,,,,,,,,,,,,,,,,,,,,,,2578.6100951000117,5,0.01503679994493723,3.250294900033623,43,C,2024-01-02_11h49.34.763,gca_avoidance_task,2022.2.4,144.11713852366833,
positions.xlsx,stimuli.xlsx,stimuli/Social1.png,stimuli/Social2.png,stimuli/Nonsocial2.png,stimuli/Nonsocial1.png,cs_minus_ns,,,,,,,0,0,0,0,,,,,,,,,,,,,,,,,9,2,38,3,,,,,,,,,,,,,,,,,,,,,,,2593.4220262001036,4,0.01426780002657324,2.1809160000411794,43,C,2024-01-02_11h49.34.763,gca_avoidance_task,2022.2.4,144.11713852366833,
positions.xlsx,stimuli.xlsx,stimuli/Social1.png,stimuli/Social2.png,stimuli/Nonsocial2.png,stimuli/Nonsocial1.png,cs_plus_s,,,,,,,0,0,0,0,,,,,,,,,,,,,,,,,9,3,39,0,,,,,,,,,,,,,,,,,,,,,,,2608.199300800101,1,0.013321700040251017,9.999996400089003,43,C,2024-01-02_11h49.34.763,gca_avoidance_task,2022.2.4,144.11713852366833,
positions.xlsx,stimuli.xlsx,stimuli/Social1.png,stimuli/Social2.png,stimuli/Nonsocial2.png,stimuli/Nonsocial1.png,cs_plus_ns,,,,,,,0,0,0,0,,,,,,,,,,,,,,,,,,,,,0,0,0,1,,,,,2621.7125758000184,4.0,14.646910100011155,,,,,,,,,,,,,,,,43,C,2024-01-02_11h49.34.763,gca_avoidance_task,2022.2.4,144.11713852366833,
positions.xlsx,stimuli.xlsx,stimuli/Social1.png,stimuli/Social2.png,stimuli/Nonsocial2.png,stimuli/Nonsocial1.png,cs_plus_s,,,,,,,0,0,0,0,,,,,,,,,,,,,,,,,,,,,0,1,1,0,,,,,2638.961965900031,3.0,4.049666599952616,,,,,,,,,,,,,,,,43,C,2024-01-02_11h49.34.763,gca_avoidance_task,2022.2.4,144.11713852366833,
positions.xlsx,stimuli.xlsx,stimuli/Social1.png,stimuli/Social2.png,stimuli/Nonsocial2.png,stimuli/Nonsocial1.png,cs_minus_s,,,,,,,0,0,0,0,,,,,,,,,,,,,,,,,,,,,0,2,2,2,,,,,2643.9200633000582,7.0,3.6956218000268564,,,,,,,,,,,,,,,,43,C,2024-01-02_11h49.34.763,gca_avoidance_task,2022.2.4,144.11713852366833,
positions.xlsx,stimuli.xlsx,stimuli/Social1.png,stimuli/Social2.png,stimuli/Nonsocial2.png,stimuli/Nonsocial1.png,cs_minus_ns,,,,,,,0,0,0,0,,,,,,,,,,,,,,,,,,,,,0,3,3,3,,,,,2648.628225399996,5.0,4.368029300007038,,,,,,,,,,,,,,,,43,C,2024-01-02_11h49.34.763,gca_avoidance_task,2022.2.4,144.11713852366833,
