posFile,stimFile,cs_plus_s,cs_minus_s,cs_plus_ns,cs_minus_ns,stimtype,position,trialtype,trials_threshold.thisRepN,trials_threshold.thisTrialN,trials_threshold.thisN,trials_threshold.thisIndex,blocks.thisRepN,blocks.thisTrialN,blocks.thisN,blocks.thisIndex,ratingtrials1.thisRepN,ratingtrials1.thisTrialN,ratingtrials1.thisN,ratingtrials1.thisIndex,learning_trials.thisRepN,learning_trials.thisTrialN,learning_trials.thisN,learning_trials.thisIndex,trials.thisRepN,trials.thisTrialN,trials.thisN,trials.thisIndex,ratingtrials2.thisRepN,ratingtrials2.thisTrialN,ratingtrials2.thisN,ratingtrials2.thisIndex,testtrials.thisRepN,testtrials.thisTrialN,testtrials.thisN,testtrials.thisIndex,ratingtrials3.thisRepN,ratingtrials3.thisTrialN,ratingtrials3.thisN,ratingtrials3.thisIndex,textStart.started,spaceStart.started,spaceStart.keys,spaceStart.rt,textPainThreshold.started,spacePainThreshold.started,spacePainThreshold.keys,spacePainThreshold.rt,textRateT.started,text_noPainT.started,text_slightPainT.started,text_highPainT.started,sliderPainT.started,keys_PainT.started,sliderPainT.response,sliderPainT.rt,keys_PainT.keys,keys_PainT.rt,fixcrossT.started,portShock1T.started,portShock1T.stopped,portShock2T.started,portShock2T.stopped,portShock3T.started,portShock3T.stopped,fixcrossT.stopped,text_ETCalibration.started,spaceETCalibration.started,spaceETCalibration.keys,spaceETCalibration.rt,textStartExp.started,spaceStartExp.started,spaceStartExp.keys,spaceStartExp.rt,imageRating.started,sliderStim.started,spaceStim.started,sliderStim.response,sliderStim.rt,spaceStim.keys,spaceStim.rt,textStartTask.started,spaceStartTask.started,spaceStartTask.keys,spaceStartTask.rt,blankScreen.started,blankScreen.stopped,fixcross.started,image.started,roi.started,gazeCursor.started,portImage.started,portImage.stopped,score,outcome,roi.numLooks,roi.timesOn,roi.timesOff,imageFeedback.started,gazeCursor_Feedback.started,soundFeedback.started,portShock1.started,portShock1.stopped,portShock2.started,portShock2.stopped,portShock3.started,portShock3.stopped,soundFeedback.stopped,fixcrossE.started,fixcrossE.stopped,textRepeatTask.started,textboxRepeatInstruction.started,textRepeatSpace.started,spaceRepeatTask.started,spaceRepeatTask.keys,spaceRepeatTask.rt,textRate.started,text_noPain.started,text_slightPain.started,text_highPain.started,sliderPain.started,textSpacePain.started,spacePain.started,sliderPain.response,sliderPain.rt,spacePain.keys,spacePain.rt,textTestInstr.started,spaceTestInstr.started,spaceTestInstr.keys,spaceTestInstr.rt,imageTest.started,roiTest.started,portTestImage.started,portTestImage.stopped,roiTest.numLooks,roiTest.timesOn,roiTest.timesOff,participant,group,date,expName,psychopyVersion,frameRate,
,,,,,,,,,,,,,,,,,,,,,,,,,,,,,,,,,,,,,,,,,11.103736100019887,11.103736100019887,space,3.92603880004026,,,,,,,,,,,,,,,,,,,,,,,,,,,,,,,,,,,,,,,,,,,,,,,,,,,,,,,,,,,,,,,,,,,,,,,,,,,,,,,,,,,,,,,,,,,,,,,2,B,2023-12-05_09h57.04.226,gca_avoidance_task,2022.2.4,144.1001092117713,
,,,,,,,,,,,,,,,,,,,,,,,,,,,,,,,,,,,,,,,,,,,,,15.041016899980605,15.041016899980605,space,2.7721738000400364,,,,,,,,,,,,,,,,,,,,,,,,,,,,,,,,,,,,,,,,,,,,,,,,,,,,,,,,,,,,,,,,,,,,,,,,,,,,,,,,,,,,,,,,,,,2,B,2023-12-05_09h57.04.226,gca_avoidance_task,2022.2.4,144.1001092117713,
,,,,,,,,,0,0,0,0,,,,,,,,,,,,,,,,,,,,,,,,,,,,,,,,,,,,,18.9922725999495,18.9922725999495,18.9922725999495,18.9922725999495,18.9922725999495,18.9922725999495,None,None,s,5.564253999968059,25.137842600001022,0.09915719996206462,0.10611880000215024,0.15466809994541109,0.161617900012061,0.20327960001304746,0.21027030004188418,25.90172269998584,,,,,,,,,,,,,,,,,,,,,,,,,,,,,,,,,,,,,,,,,,,,,,,,,,,,,,,,,,,,,,,,,,,,,,,,,2,B,2023-12-05_09h57.04.226,gca_avoidance_task,2022.2.4,144.1001092117713,
,,,,,,,,,1,0,1,0,,,,,,,,,,,,,,,,,,,,,,,,,,,,,,,,,,,,,25.90172269998584,25.90172269998584,25.90172269998584,25.90172269998584,25.90172269998584,25.90172269998584,1.0,6.020143400062807,s,8.535354600055143,34.94995189993642,0.10454430000390857,0.11147469992283732,0.15312169992830604,0.16014099994208664,0.2017099999357015,0.20868129993323237,,,,,,,,,,,,,,,,,,,,,,,,,,,,,,,,,,,,,,,,,,,,,,,,,,,,,,,,,,,,,,,,,,,,,,,,,,2,B,2023-12-05_09h57.04.226,gca_avoidance_task,2022.2.4,144.1001092117713,
,,,,,,,,,2,0,2,0,,,,,,,,,,,,,,,,,,,,,,,,,,,,,,,,,,,,,35.71380699996371,35.71380699996371,35.71380699996371,35.71380699996371,35.71380699996371,35.71380699996371,1.0,2.541959000052884,s,6.194607000099495,42.50520939996932,0.10162420000415295,0.10857809998560697,0.15022339997813106,0.1571684000082314,0.20577479992061853,0.21272710000630468,43.275980600039475,,,,,,,,,,,,,,,,,,,,,,,,,,,,,,,,,,,,,,,,,,,,,,,,,,,,,,,,,,,,,,,,,,,,,,,,,2,B,2023-12-05_09h57.04.226,gca_avoidance_task,2022.2.4,144.1001092117713,
,,,,,,,,,3,0,3,0,,,,,,,,,,,,,,,,,,,,,,,,,,,,,,,,,,,,,43.275980600039475,43.275980600039475,43.275980600039475,43.275980600039475,43.275980600039475,43.275980600039475,4.0,5.11912329995539,s,9.337105399928987,53.19914079993032,0.10283450002316386,0.10977999994065613,0.1514362000161782,0.15841749997343868,0.2000984000042081,0.2070317999459803,53.9630116999615,,,,,,,,,,,,,,,,,,,,,,,,,,,,,,,,,,,,,,,,,,,,,,,,,,,,,,,,,,,,,,,,,,,,,,,,,2,B,2023-12-05_09h57.04.226,gca_avoidance_task,2022.2.4,144.1001092117713,
,,,,,,,,,4,0,4,0,,,,,,,,,,,,,,,,,,,,,,,,,,,,,,,,,,,,,53.9630116999615,53.9630116999615,53.9630116999615,53.9630116999615,53.9630116999615,53.9630116999615,5.0,1.7431247000349686,s,5.6258160000434145,60.115545699954964,0.1044819001108408,0.11144890007562935,0.15308810002170503,0.160059200017713,0.20175160001963377,0.20871680008713156,,,,,,,,,,,,,,,,,,,,,,,,,,,,,,,,,,,,,,,,,,,,,,,,,,,,,,,,,,,,,,,,,,,,,,,,,,2,B,2023-12-05_09h57.04.226,gca_avoidance_task,2022.2.4,144.1001092117713,
,,,,,,,,,5,0,5,0,,,,,,,,,,,,,,,,,,,,,,,,,,,,,,,,,,,,,60.87938749999739,60.87938749999739,60.87938749999739,60.87938749999739,60.87938749999739,60.87938749999739,6.0,0.8478967000264674,s,18.270372599945404,79.66333659994416,0.10145930002909154,0.10841710004024208,0.15010890003759414,0.1570078000659123,0.2056283000856638,0.2125942000420764,80.4202382999938,,,,,,,,,,,,,,,,,,,,,,,,,,,,,,,,,,,,,,,,,,,,,,,,,,,,,,,,,,,,,,,,,,,,,,,,,2,B,2023-12-05_09h57.04.226,gca_avoidance_task,2022.2.4,144.1001092117713,
,,,,,,,,,6,0,6,0,,,,,,,,,,,,,,,,,,,,,,,,,,,,,,,,,,,,,80.4202382999938,80.4202382999938,80.4202382999938,80.4202382999938,80.4202382999938,80.4202382999938,6.0,4.065711400005966,s,9.576337000005879,90.51006330002565,0.1006060999352485,0.10756289993878454,0.14920499990694225,0.1561387999681756,0.20477129996288568,0.21174950001295656,91.27394510002341,,,,,,,,,,,,,,,,,,,,,,,,,,,,,,,,,,,,,,,,,,,,,,,,,,,,,,,,,,,,,,,,,,,,,,,,,2,B,2023-12-05_09h57.04.226,gca_avoidance_task,2022.2.4,144.1001092117713,
,,,,,,,,,7,0,7,0,,,,,,,,,,,,,,,,,,,,,,,,,,,,,,,,,,,,,91.27394510002341,91.27394510002341,91.27394510002341,91.27394510002341,91.27394510002341,91.27394510002341,4.0,1.8686382999876514,s,6.946951599908061,98.73197830002755,0.1018222999991849,0.10871359996963292,0.15036470000632107,0.1573173999786377,0.20594190002884716,0.21294740005396307,99.4958256999962,,,,,,,,,,,,,,,,,,,,,,,,,,,,,,,,,,,,,,,,,,,,,,,,,,,,,,,,,,,,,,,,,,,,,,,,,2,B,2023-12-05_09h57.04.226,gca_avoidance_task,2022.2.4,144.1001092117713,
,,,,,,,,,8,0,8,0,,,,,,,,,,,,,,,,,,,,,,,,,,,,,,,,,,,,,99.4958256999962,99.4958256999962,99.4958256999962,99.4958256999962,99.4958256999962,99.4958256999962,5.0,0.8590450999327004,s,5.3651309999404475,105.3775618999498,0.10213599994312972,0.10908839991316199,0.15077459998428822,0.15771870000753552,0.19937239994760603,0.20634949998930097,106.1413916000165,,,,,,,,,,,,,,,,,,,,,,,,,,,,,,,,,,,,,,,,,,,,,,,,,,,,,,,,,,,,,,,,,,,,,,,,,2,B,2023-12-05_09h57.04.226,gca_avoidance_task,2022.2.4,144.1001092117713,
,,,,,,,,,9,0,9,0,,,,,,,,,,,,,,,,,,,,,,,,,,,,,,,,,,,,,106.1413916000165,106.1413916000165,106.1413916000165,106.1413916000165,106.1413916000165,106.1413916000165,7.0,1.0043590000132099,s,7.591637999983504,114.23826879996341,0.10294529993552715,0.10992219997569919,0.15154509991407394,0.1585274999961257,0.20020929991733283,0.20715339994058013,115.00210339995101,,,,,,,,,,,,,,,,,,,,,,,,,,,,,,,,,,,,,,,,,,,,,,,,,,,,,,,,,,,,,,,,,,,,,,,,,2,B,2023-12-05_09h57.04.226,gca_avoidance_task,2022.2.4,144.1001092117713,
,,,,,,,,,10,0,10,0,,,,,,,,,,,,,,,,,,,,,,,,,,,,,,,,,,,,,115.00210339995101,115.00210339995101,115.00210339995101,115.00210339995101,115.00210339995101,115.00210339995101,6.0,2.539385100011714,g,31.731584900058806,147.2438139000442,,,,,,,,,,,,,,,,,,,,,,,,,,,,,,,,,,,,,,,,,,,,,,,,,,,,,,,,,,,,,,,,,,,,,,,,,,,,,,,,2,B,2023-12-05_09h57.04.226,gca_avoidance_task,2022.2.4,144.1001092117713,
,,,,,,,,,,,,,,,,,,,,,,,,,,,,,,,,,,,,,,,,,,,,,,,,,,,,,,,,,,,,,,,,,,,147.2438139000442,147.2438139000442,space,3.6414340999908745,,,,,,,,,,,,,,,,,,,,,,,,,,,,,,,,,,,,,,,,,,,,,,,,,,,,,,,,,,,,,,,,,,,,,2,B,2023-12-05_09h57.04.226,gca_avoidance_task,2022.2.4,144.1001092117713,
positions.xlsx,stimuli.xlsx,stimuli/Social2.png,stimuli/Social1.png,stimuli/Nonsocial1.png,stimuli/Nonsocial2.png,cs_plus_ns,,,,,,,0,0,0,0,0,0,0,1,,,,,,,,,,,,,,,,,,,,,,,,,,,,,,,,,,,,,,,,,,,,,,,,,,,287.01242729998194,287.01242729998194,space,10.096724800067022,297.1610774999717,297.1610774999717,302.2441906000022,7.0,5.083962999982759,space,3.0961897000670433,,,,,,,,,,,,,,,,,,,,,,,,,,,,,,,,,,,,,,,,,,,,,,,,,,,,,,,,,,2,B,2023-12-05_09h57.04.226,gca_avoidance_task,2022.2.4,144.1001092117713,
positions.xlsx,stimuli.xlsx,stimuli/Social2.png,stimuli/Social1.png,stimuli/Nonsocial1.png,stimuli/Nonsocial2.png,cs_plus_s,,,,,,,0,0,0,0,0,1,1,0,,,,,,,,,,,,,,,,,,,,,,,,,,,,,,,,,,,,,,,,,,,,,,,,,,,,,,,305.3760526999831,305.3760526999831,307.7717510999646,8.0,2.389530700049363,space,1.1284374999813735,,,,,,,,,,,,,,,,,,,,,,,,,,,,,,,,,,,,,,,,,,,,,,,,,,,,,,,,,,2,B,2023-12-05_09h57.04.226,gca_avoidance_task,2022.2.4,144.1001092117713,
positions.xlsx,stimuli.xlsx,stimuli/Social2.png,stimuli/Social1.png,stimuli/Nonsocial1.png,stimuli/Nonsocial2.png,cs_minus_ns,,,,,,,0,0,0,0,0,2,2,3,,,,,,,,,,,,,,,,,,,,,,,,,,,,,,,,,,,,,,,,,,,,,,,,,,,,,,,308.9244895000011,308.9244895000011,311.0354972999776,8.0,2.0977506999624893,space,1.2174456999637187,,,,,,,,,,,,,,,,,,,,,,,,,,,,,,,,,,,,,,,,,,,,,,,,,,,,,,,,,,2,B,2023-12-05_09h57.04.226,gca_avoidance_task,2022.2.4,144.1001092117713,
positions.xlsx,stimuli.xlsx,stimuli/Social2.png,stimuli/Social1.png,stimuli/Nonsocial1.png,stimuli/Nonsocial2.png,cs_minus_s,,,,,,,0,0,0,0,0,3,3,2,,,,,,,,,,,,,,,,,,,,,,,,,,,,,,,,,,,,,,,,,,,,,,,,,,,,,,,312.29240169993136,312.29240169993136,313.97982230002526,8.0,1.6812900999793783,space,1.0971679999493062,,,,,,,,,,,,,,,,,,,,,,,,,,,,,,,,,,,,,,,,,,,,,,,,,,,,,,,,,,2,B,2023-12-05_09h57.04.226,gca_avoidance_task,2022.2.4,144.1001092117713,
positions.xlsx,stimuli.xlsx,stimuli/Social2.png,stimuli/Social1.png,stimuli/Nonsocial1.png,stimuli/Nonsocial2.png,,"(-0.7, -0.5)",cs_minus_s,,,,,0,0,0,0,,,,,0,0,0,5,,,,,,,,,,,,,,,,,,,,,,,,,,,,,,,,,,,,,,,,,,,,,,,,,,,,,,,,,,315.0908468000125,315.0908468000125,space,17.64133680006489,335.26360810000915,336.80525239999406,334.76369739999063,336.80525239999406,336.80525239999406,336.80525239999406,0.014387200004421175,0.02045329997781664,5,reward,1,[0.31984610005747527],[0.31984950008336455],337.1316236000275,337.1316236000275,0.01574230007827282,0.01574230007827282,0.025287700002081692,0.05302990006748587,0.05998620006721467,0.10163360007572919,0.10865830001421273,1.0113008000189438,340.6176786000142,344.5688471000176,,,,,,,,,,,,,,,,,,,,,,,,,,,,,2,B,2023-12-05_09h57.04.226,gca_avoidance_task,2022.2.4,144.1001092117713,
positions.xlsx,stimuli.xlsx,stimuli/Social2.png,stimuli/Social1.png,stimuli/Nonsocial1.png,stimuli/Nonsocial2.png,,"(0.7, -0.5)",cs_plus_s,,,,,0,0,0,0,,,,,0,1,1,3,,,,,,,,,,,,,,,,,,,,,,,,,,,,,,,,,,,,,,,,,,,,,,,,,,,,,,,,,,,,,,345.07572129997425,346.3395564999664,344.5688471000176,346.3395564999664,346.3395564999664,346.3395564999664,0.00618559995200485,0.013071399996988475,5,shock,1,[0.3125843999441713],[0.3125879999715835],346.6590350000188,346.6590350000188,0.0077374998945742846,0.0077374998945742846,0.01824020000640303,0.05284699995536357,0.059838199988007545,0.10147090000100434,0.10845459997653961,1.004128999891691,350.1519636999583,354.03371139999945,,,,,,,,,,,,,,,,,,,,,,,,,,,,,2,B,2023-12-05_09h57.04.226,gca_avoidance_task,2022.2.4,144.1001092117713,
positions.xlsx,stimuli.xlsx,stimuli/Social2.png,stimuli/Social1.png,stimuli/Nonsocial1.png,stimuli/Nonsocial2.png,,"(0.7, -0.5)",cs_minus_ns,,,,,0,0,0,0,,,,,0,2,2,15,,,,,,,,,,,,,,,,,,,,,,,,,,,,,,,,,,,,,,,,,,,,,,,,,,,,,,,,,,,,,,354.54059460002463,355.7766886999598,354.03371139999945,355.7766886999598,355.7766886999598,355.7766886999598,0.007055099937133491,0.012832900043576956,10,reward,1,[0.30547180003486574],[0.30547529994510114],356.0892002999317,356.0892002999317,0.008110000053420663,0.008110000053420663,0.01860740000847727,0.053233499987982213,0.06022700003813952,0.10189040005207062,0.10884330002591014,1.0045937000541016,359.5820859000087,363.9429947999306,,,,,,,,,,,,,,,,,,,,,,,,,,,,,2,B,2023-12-05_09h57.04.226,gca_avoidance_task,2022.2.4,144.1001092117713,
positions.xlsx,stimuli.xlsx,stimuli/Social2.png,stimuli/Social1.png,stimuli/Nonsocial1.png,stimuli/Nonsocial2.png,,"(-0.7, 0.5)",cs_minus_ns,,,,,0,0,0,0,,,,,0,3,3,12,,,,,,,,,,,,,,,,,,,,,,,,,,,,,,,,,,,,,,,,,,,,,,,,,,,,,,,,,,,,,,364.4498952999711,366.3803411000408,363.9429947999306,366.3803411000408,366.3803411000408,366.3803411000408,0.0066288000671193,0.013436100096441805,15,reward,1,[0.38247880002018064],[0.38248250004835427],366.76923670002725,366.76923670002725,0.007827499997802079,0.007827499997802079,0.018521100049838424,0.053188999998383224,0.06017700000666082,0.1018615000648424,0.10880739998538047,1.0045419000089169,370.26217649993487,374.2065013999818,,,,,,,,,,,,,,,,,,,,,,,,,,,,,2,B,2023-12-05_09h57.04.226,gca_avoidance_task,2022.2.4,144.1001092117713,
positions.xlsx,stimuli.xlsx,stimuli/Social2.png,stimuli/Social1.png,stimuli/Nonsocial1.png,stimuli/Nonsocial2.png,,"(-0.7, -0.5)",cs_minus_ns,,,,,0,0,0,0,,,,,0,4,4,13,,,,,,,,,,,,,,,,,,,,,,,,,,,,,,,,,,,,,,,,,,,,,,,,,,,,,,,,,,,,,,374.7133856000146,376.1091544999508,374.2065013999818,376.1091544999508,376.1091544999508,376.1091544999508,0.00665550003759563,0.013158100075088441,20,reward,1,[0.4236695000436157],[0.4236730000702664],376.53971689997707,376.53971689997707,0.007499899948015809,0.007499899948015809,0.01862520002759993,0.053255600039847195,0.06020469998475164,0.10199590004049242,0.10882099997252226,1.004589100019075,380.0326261000009,384.2477266000351,,,,,,,,,,,,,,,,,,,,,,,,,,,,,2,B,2023-12-05_09h57.04.226,gca_avoidance_task,2022.2.4,144.1001092117713,
positions.xlsx,stimuli.xlsx,stimuli/Social2.png,stimuli/Social1.png,stimuli/Nonsocial1.png,stimuli/Nonsocial2.png,,"(-0.7, 0.5)",cs_minus_s,,,,,0,0,0,0,,,,,0,5,5,4,,,,,,,,,,,,,,,,,,,,,,,,,,,,,,,,,,,,,,,,,,,,,,,,,,,,,,,,,,,,,,384.7546016999986,386.71287599997595,384.2477266000351,386.71287599997595,386.71287599997595,386.71287599997595,0.006884999922476709,0.013198099914006889,25,reward,1,[0.5140409999294207],[0.5140443999553099],387.2336683999747,387.2336683999747,0.00684339995495975,0.00684339995495975,0.018461299943737686,0.05310190003365278,0.060049899970181286,0.10173090000171214,0.10870320000685751,1.0045007000444457,390.7265786000062,394.2542787999846,,,,,,,,,,,,,,,,,,,,,,,,,,,,,2,B,2023-12-05_09h57.04.226,gca_avoidance_task,2022.2.4,144.1001092117713,
positions.xlsx,stimuli.xlsx,stimuli/Social2.png,stimuli/Social1.png,stimuli/Nonsocial1.png,stimuli/Nonsocial2.png,,"(0.7, -0.5)",cs_minus_s,,,,,0,0,0,0,,,,,0,6,6,7,,,,,,,,,,,,,,,,,,,,,,,,,,,,,,,,,,,,,,,,,,,,,,,,,,,,,,,,,,,,,,394.7611356000416,396.42773969995324,394.2542787999846,396.42773969995324,396.42773969995324,396.42773969995324,0.006022499990649521,0.013007799978367984,30,reward,1,[0.3608997999690473],[0.36090329999569803],396.79576879995875,396.79576879995875,0.006706500076688826,0.006706500076688826,0.0184938000747934,0.05312360008247197,0.06007730006240308,0.1017172000138089,0.10870670003350824,1.00450790009927,400.28871230001096,404.30937629996333,,,,,,,,,,,,,,,,,,,,,,,,,,,,,2,B,2023-12-05_09h57.04.226,gca_avoidance_task,2022.2.4,144.1001092117713,
positions.xlsx,stimuli.xlsx,stimuli/Social2.png,stimuli/Social1.png,stimuli/Nonsocial1.png,stimuli/Nonsocial2.png,,"(0.7, 0.5)",cs_plus_s,,,,,0,0,0,0,,,,,0,7,7,2,,,,,,,,,,,,,,,,,,,,,,,,,,,,,,,,,,,,,,,,,,,,,,,,,,,,,,,,,,,,,,404.81624209997244,406.0592597000068,404.30937629996333,406.0592597000068,406.0592597000068,406.0592597000068,0.006229099933989346,0.013080599950626493,30,none,0,,,411.06602190004196,411.06602190004196,0.0134216999867931,0.0134216999867931,0.019878000020980835,0.054503199993632734,0.06145279994234443,0.10317899996880442,0.11012289999052882,1.0128323999233544,414.5589692000067,418.78792369994335,,,,,,,,,,,,,,,,,,,,,,,,,,,,,2,B,2023-12-05_09h57.04.226,gca_avoidance_task,2022.2.4,144.1001092117713,
positions.xlsx,stimuli.xlsx,stimuli/Social2.png,stimuli/Social1.png,stimuli/Nonsocial1.png,stimuli/Nonsocial2.png,,"(0.7, 0.5)",cs_minus_ns,,,,,0,0,0,0,,,,,0,8,8,14,,,,,,,,,,,,,,,,,,,,,,,,,,,,,,,,,,,,,,,,,,,,,,,,,,,,,,,,,,,,,,419.2948090999853,420.98920299997553,418.78792369994335,420.98920299997553,420.98920299997553,420.98920299997553,0.006526099983602762,0.013139300048351288,35,reward,1,[0.43780580000020564],[0.43780970002990216],421.43364800000563,421.43364800000563,0.008057700004428625,0.008057700004428625,0.018104399903677404,0.052773799980059266,0.059704699902795255,0.10134609998203814,0.10834309994243085,1.0041069999570027,424.92655760003254,429.37774959998205,,,,,,,,,,,,,,,,,,,,,,,,,,,,,2,B,2023-12-05_09h57.04.226,gca_avoidance_task,2022.2.4,144.1001092117713,
positions.xlsx,stimuli.xlsx,stimuli/Social2.png,stimuli/Social1.png,stimuli/Nonsocial1.png,stimuli/Nonsocial2.png,,"(-0.7, -0.5)",cs_plus_ns,,,,,0,0,0,0,,,,,0,9,9,9,,,,,,,,,,,,,,,,,,,,,,,,,,,,,,,,,,,,,,,,,,,,,,,,,,,,,,,,,,,,,,429.88465809996706,431.0998684000224,429.37774959998205,431.0998684000224,431.0998684000224,431.0998684000224,0.006825600052252412,0.013077500043436885,35,shock,1,[0.44465950003359467],[0.44466310006100684],431.5512350000208,431.5512350000208,0.008022900088690221,0.008022900088690221,0.018789299996569753,0.05342510004993528,0.06039030000101775,0.10208139999303967,0.10904160002246499,1.004764800076373,435.0442395999562,439.44678709993605,,,,,,,,,,,,,,,,,,,,,,,,,,,,,2,B,2023-12-05_09h57.04.226,gca_avoidance_task,2022.2.4,144.1001092117713,
positions.xlsx,stimuli.xlsx,stimuli/Social2.png,stimuli/Social1.png,stimuli/Nonsocial1.png,stimuli/Nonsocial2.png,,"(0.7, 0.5)",cs_plus_ns,,,,,0,0,0,0,,,,,0,10,10,10,,,,,,,,,,,,,,,,,,,,,,,,,,,,,,,,,,,,,,,,,,,,,,,,,,,,,,,,,,,,,,439.95365839998703,441.1411126999883,439.44678709993605,441.1411126999883,441.1411126999883,441.1411126999883,0.00644489994738251,0.013140699942596257,35,none,0,,,446.1478458000347,446.1478458000347,0.014016499975696206,0.014016499975696206,0.019880299922078848,0.05452999996487051,0.06153129995800555,0.10317699995357543,0.11012119997758418,1.0128431000048295,449.64083229994867,453.9253294999944,,,,,,,,,,,,,,,,,,,,,,,,,,,,,2,B,2023-12-05_09h57.04.226,gca_avoidance_task,2022.2.4,144.1001092117713,
positions.xlsx,stimuli.xlsx,stimuli/Social2.png,stimuli/Social1.png,stimuli/Nonsocial1.png,stimuli/Nonsocial2.png,,"(-0.7, 0.5)",cs_plus_ns,,,,,0,0,0,0,,,,,0,11,11,8,,,,,,,,,,,,,,,,,,,,,,,,,,,,,,,,,,,,,,,,,,,,,,,,,,,,,,,,,,,,,,454.4322209999664,456.34881699993275,453.9253294999944,456.34881699993275,456.34881699993275,456.34881699993275,0.006537600071169436,0.013279200065881014,35,none,0,,,461.35554519994184,461.35554519994184,0.014021700015291572,0.014021700015291572,0.020026000100187957,0.05468480009585619,0.06164200010243803,0.10331540007609874,0.11025830009020865,1.0129801000002772,464.8484577999916,469.0913511000108,,,,,,,,,,,,,,,,,,,,,,,,,,,,,2,B,2023-12-05_09h57.04.226,gca_avoidance_task,2022.2.4,144.1001092117713,
positions.xlsx,stimuli.xlsx,stimuli/Social2.png,stimuli/Social1.png,stimuli/Nonsocial1.png,stimuli/Nonsocial2.png,,"(-0.7, -0.5)",cs_plus_s,,,,,0,0,0,0,,,,,0,12,12,1,,,,,,,,,,,,,,,,,,,,,,,,,,,,,,,,,,,,,,,,,,,,,,,,,,,,,,,,,,,,,,469.59824880003,471.5217899000272,469.0913511000108,471.5217899000272,471.5217899000272,471.5217899000272,0.00639009999576956,0.012837399961426854,35,none,0,,,476.52852369996253,476.52852369996253,0.013126299949362874,0.013126299949362874,0.019590399926528335,0.054273199988529086,0.061216300004161894,0.10287269996479154,0.10986699990462512,1.0125620999606326,480.0214952999959,484.21575229999144,,,,,,,,,,,,,,,,,,,,,,,,,,,,,2,B,2023-12-05_09h57.04.226,gca_avoidance_task,2022.2.4,144.1001092117713,
positions.xlsx,stimuli.xlsx,stimuli/Social2.png,stimuli/Social1.png,stimuli/Nonsocial1.png,stimuli/Nonsocial2.png,,"(-0.7, 0.5)",cs_plus_s,,,,,0,0,0,0,,,,,0,13,13,0,,,,,,,,,,,,,,,,,,,,,,,,,,,,,,,,,,,,,,,,,,,,,,,,,,,,,,,,,,,,,,484.7225895000156,486.00724860001355,484.21575229999144,486.00724860001355,486.00724860001355,486.00724860001355,0.005939799943007529,0.01348969992250204,35,none,0,,,491.0139890999999,491.0139890999999,0.013431499944999814,0.013431499944999814,0.02021210000384599,0.05488640000112355,0.061836699955165386,0.10362219996750355,0.11046410002745688,1.0132140999194235,494.50695940002333,498.22897890000604,,,,,,,,,,,,,,,,,,,,,,,,,,,,,2,B,2023-12-05_09h57.04.226,gca_avoidance_task,2022.2.4,144.1001092117713,
positions.xlsx,stimuli.xlsx,stimuli/Social2.png,stimuli/Social1.png,stimuli/Nonsocial1.png,stimuli/Nonsocial2.png,,"(0.7, 0.5)",cs_minus_s,,,,,0,0,0,0,,,,,0,14,14,6,,,,,,,,,,,,,,,,,,,,,,,,,,,,,,,,,,,,,,,,,,,,,,,,,,,,,,,,,,,,,,498.73592639993876,499.9372696999926,498.22897890000604,499.9372696999926,499.9372696999926,499.9372696999926,0.005762399989180267,0.013393500004895031,40,reward,1,[0.5419380000093952],[0.5419417000375688],500.4858662999468,500.4858662999468,0.007212799973785877,0.007212799973785877,0.018864099984057248,0.053489599958993495,0.06043419998604804,0.10208009998314083,0.10904889996163547,1.0048347999108955,503.97883339994587,507.9369508000091,,,,,,,,,,,,,,,,,,,,,,,,,,,,,2,B,2023-12-05_09h57.04.226,gca_avoidance_task,2022.2.4,144.1001092117713,
positions.xlsx,stimuli.xlsx,stimuli/Social2.png,stimuli/Social1.png,stimuli/Nonsocial1.png,stimuli/Nonsocial2.png,,"(0.7, -0.5)",cs_plus_ns,,,,,0,0,0,0,,,,,0,15,15,11,,,,,,,,,,,,,,,,,,,,,,,,,,,,,,,,,,,,,,,,,,,,,,,,,,,,,,,,,,,,,,508.4438328000251,509.7424003999913,507.9369508000091,509.7424003999913,509.7424003999913,509.7424003999913,0.006443499936722219,0.013196099898777902,40,none,0,,,514.7491655999329,514.7491655999329,0.014142100000753999,0.014142100000753999,0.01996889989823103,0.05460919998586178,0.06157249992247671,0.1032557999715209,0.11017319990787655,1.0129145999671891,518.2420722999377,521.9224900000263,,,,,,,,,,,,,,,,,,,,,,,,,,,,,2,B,2023-12-05_09h57.04.226,gca_avoidance_task,2022.2.4,144.1001092117713,
positions.xlsx,stimuli.xlsx,stimuli/Social2.png,stimuli/Social1.png,stimuli/Nonsocial1.png,stimuli/Nonsocial2.png,,"(0.7, 0.5)",cs_plus_ns,,,,,0,0,0,0,,,,,1,0,16,10,,,,,,,,,,,,,,,,,,,,,,,,,,,,,,,,,,,,,,,,,,,,,,,,,,,,,,,,,,,,,,522.4293670000043,523.5265347999521,521.9224900000263,523.5265347999521,523.5265347999521,523.5265347999521,0.006520699942484498,0.013239199994131923,40,none,0,,,528.533277999959,528.533277999959,0.014509700005874038,0.014509700005874038,0.02003249991685152,0.054689499898813665,0.06166229990776628,0.10331579996272922,0.11028149991761893,1.0129851999226958,532.0262158999685,535.7413564999588,,,,,,,,,,,,,,,,,,,,,,,,,,,,,2,B,2023-12-05_09h57.04.226,gca_avoidance_task,2022.2.4,144.1001092117713,
positions.xlsx,stimuli.xlsx,stimuli/Social2.png,stimuli/Social1.png,stimuli/Nonsocial1.png,stimuli/Nonsocial2.png,,"(0.7, -0.5)",cs_plus_s,,,,,0,0,0,0,,,,,1,1,17,3,,,,,,,,,,,,,,,,,,,,,,,,,,,,,,,,,,,,,,,,,,,,,,,,,,,,,,,,,,,,,,536.2482365999604,537.3801244000206,535.7413564999588,537.3801244000206,537.3801244000206,537.3801244000206,0.0065422001061961055,0.013110600062645972,40,shock,1,[0.368086300091818],[0.36808990000281483],537.7481387000298,537.7481387000298,0.007506299996748567,0.007506299996748567,0.011527800001204014,0.05316480004694313,0.0601409999653697,0.1018659999826923,0.10874439997132868,1.0044827000238001,541.2480221999576,545.5812109999824,,,,,,,,,,,,,,,,,,,,,,,,,,,,,2,B,2023-12-05_09h57.04.226,gca_avoidance_task,2022.2.4,144.1001092117713,
positions.xlsx,stimuli.xlsx,stimuli/Social2.png,stimuli/Social1.png,stimuli/Nonsocial1.png,stimuli/Nonsocial2.png,,"(-0.7, -0.5)",cs_minus_s,,,,,0,0,0,0,,,,,1,2,18,5,,,,,,,,,,,,,,,,,,,,,,,,,,,,,,,,,,,,,,,,,,,,,,,,,,,,,,,,,,,,,,546.0880952000152,547.2616689000279,545.5812109999824,547.2616689000279,547.2616689000279,547.2616689000279,0.006180600030347705,0.013115299982018769,45,reward,1,[0.513931000023149],[0.5139343999326229],547.7824629000388,547.7824629000388,0.007405999931506813,0.007405999931506813,0.018472200026735663,0.05311829992569983,0.060085700009949505,0.10175479995086789,0.10869249992538244,1.004544600029476,551.275474700029,555.6779965999303,,,,,,,,,,,,,,,,,,,,,,,,,,,,,2,B,2023-12-05_09h57.04.226,gca_avoidance_task,2022.2.4,144.1001092117713,
positions.xlsx,stimuli.xlsx,stimuli/Social2.png,stimuli/Social1.png,stimuli/Nonsocial1.png,stimuli/Nonsocial2.png,,"(-0.7, -0.5)",cs_plus_s,,,,,0,0,0,0,,,,,1,3,19,1,,,,,,,,,,,,,,,,,,,,,,,,,,,,,,,,,,,,,,,,,,,,,,,,,,,,,,,,,,,,,,556.1848477999447,557.3584866999881,555.6779965999303,557.3584866999881,557.3584866999881,557.3584866999881,0.00592779996804893,0.013254799996502697,45,none,0,,,562.3652084999485,562.3652084999485,0.013437899993732572,0.013437899993732572,0.019898299942724407,0.054559199954383075,0.061508300015702844,0.10324660001788288,0.11011749994941056,1.0128616999136284,565.8581384000136,569.7399418000132,,,,,,,,,,,,,,,,,,,,,,,,,,,,,2,B,2023-12-05_09h57.04.226,gca_avoidance_task,2022.2.4,144.1001092117713,
positions.xlsx,stimuli.xlsx,stimuli/Social2.png,stimuli/Social1.png,stimuli/Nonsocial1.png,stimuli/Nonsocial2.png,,"(-0.7, 0.5)",cs_minus_s,,,,,0,0,0,0,,,,,1,4,20,4,,,,,,,,,,,,,,,,,,,,,,,,,,,,,,,,,,,,,,,,,,,,,,,,,,,,,,,,,,,,,,570.2468097000383,572.2050202999962,569.7399418000132,572.2050202999962,572.2050202999962,572.2050202999962,0.00606259994674474,0.013202699949033558,50,reward,1,[0.5487573000136763],[0.5487607999239117],572.7605727999471,572.7605727999471,0.006989400018937886,0.006989400018937886,0.01876170001924038,0.05342060001567006,0.06039320002309978,0.10203560010995716,0.10896930005401373,1.0048061000416055,576.2535560999531,580.2811183999293,,,,,,,,,,,,,,,,,,,,,,,,,,,,,2,B,2023-12-05_09h57.04.226,gca_avoidance_task,2022.2.4,144.1001092117713,
positions.xlsx,stimuli.xlsx,stimuli/Social2.png,stimuli/Social1.png,stimuli/Nonsocial1.png,stimuli/Nonsocial2.png,,"(0.7, -0.5)",cs_minus_s,,,,,0,0,0,0,,,,,1,5,21,7,,,,,,,,,,,,,,,,,,,,,,,,,,,,,,,,,,,,,,,,,,,,,,,,,,,,,,,,,,,,,,580.7880099000176,582.0935142999515,580.2811183999293,582.0935142999515,582.0935142999515,582.0935142999515,0.006048499955795705,0.013183000031858683,55,reward,1,[0.5278643999481574],[0.5278679999755695],582.6282268000068,582.6282268000068,0.0071934000588953495,0.0071934000588953495,0.018403999973088503,0.05307729996275157,0.06006889999844134,0.10171179997269064,0.10862359998282045,1.004431699984707,586.1211350000231,590.0168053000234,,,,,,,,,,,,,,,,,,,,,,,,,,,,,2,B,2023-12-05_09h57.04.226,gca_avoidance_task,2022.2.4,144.1001092117713,
positions.xlsx,stimuli.xlsx,stimuli/Social2.png,stimuli/Social1.png,stimuli/Nonsocial1.png,stimuli/Nonsocial2.png,,"(0.7, -0.5)",cs_minus_ns,,,,,0,0,0,0,,,,,1,6,22,15,,,,,,,,,,,,,,,,,,,,,,,,,,,,,,,,,,,,,,,,,,,,,,,,,,,,,,,,,,,,,,590.5237081999658,592.20421180001,590.0168053000234,592.20421180001,592.20421180001,592.20421180001,0.00673250004183501,0.013435799977742136,60,reward,1,[0.5560552000533789],[0.556059000082314],592.7666831000242,592.7666831000242,0.007883699960075319,0.007883699960075319,0.018479399965144694,0.05320109997410327,0.06013390002772212,0.1017724999692291,0.1087600999744609,1.0044542000396177,596.2596234999364,600.5025019999593,,,,,,,,,,,,,,,,,,,,,,,,,,,,,2,B,2023-12-05_09h57.04.226,gca_avoidance_task,2022.2.4,144.1001092117713,
positions.xlsx,stimuli.xlsx,stimuli/Social2.png,stimuli/Social1.png,stimuli/Nonsocial1.png,stimuli/Nonsocial2.png,,"(-0.7, 0.5)",cs_plus_ns,,,,,0,0,0,0,,,,,1,7,23,8,,,,,,,,,,,,,,,,,,,,,,,,,,,,,,,,,,,,,,,,,,,,,,,,,,,,,,,,,,,,,,601.0093841999769,602.8426434999565,600.5025019999593,602.8426434999565,602.8426434999565,602.8426434999565,0.006591999903321266,0.013192799990065396,60,none,0,,,607.8493959000334,607.8493959000334,0.014326800010167062,0.014326800010167062,0.019983200007118285,0.05462039995472878,0.06162169994786382,0.10325839999131858,0.1101929999422282,1.0129832999082282,611.3423052999424,615.2310585000087,,,,,,,,,,,,,,,,,,,,,,,,,,,,,2,B,2023-12-05_09h57.04.226,gca_avoidance_task,2022.2.4,144.1001092117713,
positions.xlsx,stimuli.xlsx,stimuli/Social2.png,stimuli/Social1.png,stimuli/Nonsocial1.png,stimuli/Nonsocial2.png,,"(0.7, -0.5)",cs_plus_ns,,,,,0,0,0,0,,,,,1,8,24,11,,,,,,,,,,,,,,,,,,,,,,,,,,,,,,,,,,,,,,,,,,,,,,,,,,,,,,,,,,,,,,615.7378991999431,616.8837250999641,615.2310585000087,616.8837250999641,616.8837250999641,616.8837250999641,0.006830700091086328,0.013405600097030401,60,none,0,,,621.8904152000323,621.8904152000323,0.014459500089287758,0.014459500089287758,0.020146700087934732,0.0548507000785321,0.06177600007504225,0.10346060001756996,0.11041080008726567,1.0131776999915019,625.3834371999837,629.0776799999876,,,,,,,,,,,,,,,,,,,,,,,,,,,,,2,B,2023-12-05_09h57.04.226,gca_avoidance_task,2022.2.4,144.1001092117713,
positions.xlsx,stimuli.xlsx,stimuli/Social2.png,stimuli/Social1.png,stimuli/Nonsocial1.png,stimuli/Nonsocial2.png,,"(-0.7, -0.5)",cs_minus_ns,,,,,0,0,0,0,,,,,1,9,25,13,,,,,,,,,,,,,,,,,,,,,,,,,,,,,,,,,,,,,,,,,,,,,,,,,,,,,,,,,,,,,,629.5845767999999,630.6956199000124,629.0776799999876,630.6956199000124,630.6956199000124,630.6956199000124,0.006342499982565641,0.013088800013065338,65,reward,1,[0.6804953999817371],[0.6804989000083879],631.383109999937,631.383109999937,0.007334299967624247,0.007334299967624247,0.01876609993632883,0.053373900009319186,0.060331900021992624,0.1020344999851659,0.10896589991170913,1.0048313000006601,634.8760742000304,638.8064442999894,,,,,,,,,,,,,,,,,,,,,,,,,,,,,2,B,2023-12-05_09h57.04.226,gca_avoidance_task,2022.2.4,144.1001092117713,
positions.xlsx,stimuli.xlsx,stimuli/Social2.png,stimuli/Social1.png,stimuli/Nonsocial1.png,stimuli/Nonsocial2.png,,"(0.7, 0.5)",cs_minus_s,,,,,0,0,0,0,,,,,1,10,26,6,,,,,,,,,,,,,,,,,,,,,,,,,,,,,,,,,,,,,,,,,,,,,,,,,,,,,,,,,,,,,,639.3133787999395,640.6952157999622,638.8064442999894,640.6952157999622,640.6952157999622,640.6952157999622,0.006113899988122284,0.013366599916480482,70,reward,1,[0.49332539993338287],[0.49332899996079504],641.1952193999896,641.1952193999896,0.007181699969805777,0.007181699969805777,0.018557499977760017,0.053247099975124,0.06020659999921918,0.10183969989884645,0.10877679998520762,1.0045908999163657,644.6881153000286,648.319989999989,,,,,,,,,,,,,,,,,,,,,,,,,,,,,2,B,2023-12-05_09h57.04.226,gca_avoidance_task,2022.2.4,144.1001092117713,
positions.xlsx,stimuli.xlsx,stimuli/Social2.png,stimuli/Social1.png,stimuli/Nonsocial1.png,stimuli/Nonsocial2.png,,"(-0.7, 0.5)",cs_plus_s,,,,,0,0,0,0,,,,,1,11,27,0,,,,,,,,,,,,,,,,,,,,,,,,,,,,,,,,,,,,,,,,,,,,,,,,,,,,,,,,,,,,,,648.8268285000231,650.4586982999463,648.319989999989,650.4586982999463,650.4586982999463,650.4586982999463,0.005896799964830279,0.013317400007508695,70,none,0,,,655.4654530000407,655.4654530000407,0.013157599954865873,0.013157599954865873,0.020131699973717332,0.054748800001107156,0.061691900016739964,0.10333630000241101,0.11036219995003194,1.013016799930483,658.9584195000352,663.1457039000234,,,,,,,,,,,,,,,,,,,,,,,,,,,,,2,B,2023-12-05_09h57.04.226,gca_avoidance_task,2022.2.4,144.1001092117713,
positions.xlsx,stimuli.xlsx,stimuli/Social2.png,stimuli/Social1.png,stimuli/Nonsocial1.png,stimuli/Nonsocial2.png,,"(0.7, 0.5)",cs_plus_s,,,,,0,0,0,0,,,,,1,12,28,2,,,,,,,,,,,,,,,,,,,,,,,,,,,,,,,,,,,,,,,,,,,,,,,,,,,,,,,,,,,,,,663.6525611999677,665.5691627999768,663.1457039000234,665.5691627999768,665.5691627999768,665.5691627999768,0.00608349998947233,0.013360799988731742,70,none,0,,,670.5759568000212,670.5759568000212,0.01388870005030185,0.01388870005030185,0.02020310005173087,0.05484460003208369,0.06178480002563447,0.10346240003127605,0.1104249000782147,1.0130786000518128,674.06888539996,678.4575294000097,,,,,,,,,,,,,,,,,,,,,,,,,,,,,2,B,2023-12-05_09h57.04.226,gca_avoidance_task,2022.2.4,144.1001092117713,
positions.xlsx,stimuli.xlsx,stimuli/Social2.png,stimuli/Social1.png,stimuli/Nonsocial1.png,stimuli/Nonsocial2.png,,"(0.7, 0.5)",cs_minus_ns,,,,,0,0,0,0,,,,,1,13,29,14,,,,,,,,,,,,,,,,,,,,,,,,,,,,,,,,,,,,,,,,,,,,,,,,,,,,,,,,,,,,,,678.9644439000404,680.603259800002,678.4575294000097,680.603259800002,680.603259800002,680.603259800002,0.006431500078178942,0.012982200016267598,75,reward,1,[0.41666740004438907],[0.4166711000725627],681.0268433999736,681.0268433999736,0.007403800031170249,0.007403800031170249,0.01837780000641942,0.05306549998931587,0.06004060001578182,0.1016592999221757,0.10859550000168383,1.0044431999558583,684.5198385999538,688.4988304999424,,,,,,,,,,,,,,,,,,,,,,,,,,,,,2,B,2023-12-05_09h57.04.226,gca_avoidance_task,2022.2.4,144.1001092117713,
positions.xlsx,stimuli.xlsx,stimuli/Social2.png,stimuli/Social1.png,stimuli/Nonsocial1.png,stimuli/Nonsocial2.png,,"(-0.7, -0.5)",cs_plus_ns,,,,,0,0,0,0,,,,,1,14,30,9,,,,,,,,,,,,,,,,,,,,,,,,,,,,,,,,,,,,,,,,,,,,,,,,,,,,,,,,,,,,,,689.0056844999781,690.10287469998,688.4988304999424,690.10287469998,690.10287469998,690.10287469998,0.0063371999422088265,0.013459400041028857,75,none,0,,,695.1096477999818,695.1096477999818,0.014283600030466914,0.014283600030466914,0.02021220000460744,0.05486869998276234,0.06188679998740554,0.10350359999574721,0.11046210001222789,1.0131032000062987,698.6025666999631,702.2690643999958,,,,,,,,,,,,,,,,,,,,,,,,,,,,,2,B,2023-12-05_09h57.04.226,gca_avoidance_task,2022.2.4,144.1001092117713,
positions.xlsx,stimuli.xlsx,stimuli/Social2.png,stimuli/Social1.png,stimuli/Nonsocial1.png,stimuli/Nonsocial2.png,,"(-0.7, 0.5)",cs_minus_ns,,,,,0,0,0,0,,,,,1,15,31,12,,,,,,,,,,,,,,,,,,,,,,,,,,,,,,,,,,,,,,,,,,,,,,,,,,,,,,,,,,,,,,702.7759439999936,704.4078154000454,702.2690643999958,704.4078154000454,704.4078154000454,704.4078154000454,0.006146900006569922,0.01331369997933507,80,reward,1,[0.4865073999390006],[0.4865111999679357],704.9008838000009,704.9008838000009,0.0076182999182492495,0.0076182999182492495,0.0184470999520272,0.053059899946674705,0.05998449993785471,0.10165599989704788,0.10855019988957793,1.0044235999230295,708.393827999942,711.7269524999429,,,,,,,,,,,,,,,,,,,,,,,,,,,,,2,B,2023-12-05_09h57.04.226,gca_avoidance_task,2022.2.4,144.1001092117713,
positions.xlsx,stimuli.xlsx,stimuli/Social2.png,stimuli/Social1.png,stimuli/Nonsocial1.png,stimuli/Nonsocial2.png,,"(0.7, -0.5)",cs_plus_ns,,,,,0,0,0,0,,,,,,,,,0,0,0,11,,,,,,,,,,,,,,,,,,,,,,,,,,,,,,,,,,,,,,,,,,,,,,,,,,,,,,,,,,729.205435300013,731.0803243999835,728.7054457999766,731.0803243999835,731.0803243999835,731.0803243999835,0.00637079996522516,0.013335600029677153,80,none,0,,,736.0870989999967,736.0870989999967,0.014372100005857646,0.014372100005857646,0.020107300020754337,0.054721000022254884,0.06175069999881089,0.10335699992720038,0.11032600002363324,1.0130389999831095,739.5799834999489,743.2812114999397,711.7269524999429,711.7269524999429,711.7269524999429,711.7269524999429,space,14.685719499946572,,,,,,,,,,,,,,,,,,,,,,,2,B,2023-12-05_09h57.04.226,gca_avoidance_task,2022.2.4,144.1001092117713,
positions.xlsx,stimuli.xlsx,stimuli/Social2.png,stimuli/Social1.png,stimuli/Nonsocial1.png,stimuli/Nonsocial2.png,,"(0.7, -0.5)",cs_minus_s,,,,,0,0,0,0,,,,,,,,,0,1,1,7,,,,,,,,,,,,,,,,,,,,,,,,,,,,,,,,,,,,,,,,,,,,,,,,,,,,,,,,,,743.7881104999688,744.8158245999366,743.2812114999397,744.8158245999366,744.8158245999366,744.8158245999366,0.006101900013163686,0.013123800046741962,85,reward,1,[0.3612138000316918],[0.36121740005910397],745.1838907999918,745.1838907999918,0.006899600033648312,0.006899600033648312,0.01868159999139607,0.05341180006507784,0.06031169998459518,0.10194409999530762,0.10891720000654459,1.0046939000021666,748.676873199991,752.4197593999561,,,,,,,,,,,,,,,,,,,,,,,,,,,,,2,B,2023-12-05_09h57.04.226,gca_avoidance_task,2022.2.4,144.1001092117713,
positions.xlsx,stimuli.xlsx,stimuli/Social2.png,stimuli/Social1.png,stimuli/Nonsocial1.png,stimuli/Nonsocial2.png,,"(0.7, -0.5)",cs_minus_ns,,,,,0,0,0,0,,,,,,,,,0,2,2,15,,,,,,,,,,,,,,,,,,,,,,,,,,,,,,,,,,,,,,,,,,,,,,,,,,,,,,,,,,752.9266336000292,754.2598965000361,752.4197593999561,754.2598965000361,754.2598965000361,754.2598965000361,0.006363100023008883,0.013238999992609024,90,reward,1,[0.7293004000093788],[0.729304000036791],754.9959954000078,754.9959954000078,0.007321399985812604,0.007321399985812604,0.01853050000499934,0.05321919999551028,0.06011469999793917,0.10177680000197142,0.10875759995542467,1.004570099990815,758.4888859000057,762.2040181999328,,,,,,,,,,,,,,,,,,,,,,,,,,,,,2,B,2023-12-05_09h57.04.226,gca_avoidance_task,2022.2.4,144.1001092117713,
positions.xlsx,stimuli.xlsx,stimuli/Social2.png,stimuli/Social1.png,stimuli/Nonsocial1.png,stimuli/Nonsocial2.png,,"(0.7, 0.5)",cs_minus_s,,,,,0,0,0,0,,,,,,,,,0,3,3,6,,,,,,,,,,,,,,,,,,,,,,,,,,,,,,,,,,,,,,,,,,,,,,,,,,,,,,,,,,762.7109215999953,763.8845117000164,762.2040181999328,763.8845117000164,763.8845117000164,763.8845117000164,0.006022499990649521,0.013508899952284992,95,reward,1,[0.4865359999239445],[0.48653959995135665],764.3775358999847,764.3775358999847,0.0071715000085532665,0.0071715000085532665,0.018457100028172135,0.05312629998661578,0.06006149994209409,0.10175170004367828,0.10864859994035214,1.0044391000410542,767.870498699951,772.2730525999796,,,,,,,,,,,,,,,,,,,,,,,,,,,,,2,B,2023-12-05_09h57.04.226,gca_avoidance_task,2022.2.4,144.1001092117713,
positions.xlsx,stimuli.xlsx,stimuli/Social2.png,stimuli/Social1.png,stimuli/Nonsocial1.png,stimuli/Nonsocial2.png,,"(0.7, -0.5)",cs_plus_s,,,,,0,0,0,0,,,,,,,,,0,4,4,3,,,,,,,,,,,,,,,,,,,,,,,,,,,,,,,,,,,,,,,,,,,,,,,,,,,,,,,,,,772.7799474999774,773.8146249999991,772.2730525999796,773.8146249999991,773.8146249999991,773.8146249999991,0.005964599899016321,0.01313300000037998,95,none,0,,,778.8213792999741,778.8213792999741,0.012871399987488985,0.012871399987488985,0.019910099916160107,0.05451299995183945,0.06147699989378452,0.10312419990077615,0.11011429992504418,1.012820899952203,782.3143402000424,786.4044567999663,,,,,,,,,,,,,,,,,,,,,,,,,,,,,2,B,2023-12-05_09h57.04.226,gca_avoidance_task,2022.2.4,144.1001092117713,
positions.xlsx,stimuli.xlsx,stimuli/Social2.png,stimuli/Social1.png,stimuli/Nonsocial1.png,stimuli/Nonsocial2.png,,"(-0.7, 0.5)",cs_minus_ns,,,,,0,0,0,0,,,,,,,,,0,5,5,12,,,,,,,,,,,,,,,,,,,,,,,,,,,,,,,,,,,,,,,,,,,,,,,,,,,,,,,,,,786.9113005000399,788.355696799932,786.4044567999663,788.355696799932,788.355696799932,788.355696799932,0.007046199985779822,0.013478199951350689,100,reward,1,[0.4099140999605879],[0.40991759998723865],788.772375099943,788.772375099943,0.007293600006960332,0.007293600006960332,0.01858659996651113,0.05321739998180419,0.06015419994946569,0.10179509990848601,0.10877649998292327,1.0045248999958858,792.2653105999343,796.6262293999316,,,,,,,,,,,,,,,,,,,,,,,,,,,,,2,B,2023-12-05_09h57.04.226,gca_avoidance_task,2022.2.4,144.1001092117713,
positions.xlsx,stimuli.xlsx,stimuli/Social2.png,stimuli/Social1.png,stimuli/Nonsocial1.png,stimuli/Nonsocial2.png,,"(-0.7, 0.5)",cs_minus_s,,,,,0,0,0,0,,,,,,,,,0,6,6,4,,,,,,,,,,,,,,,,,,,,,,,,,,,,,,,,,,,,,,,,,,,,,,,,,,,,,,,,,,797.1331308999797,798.9871823999565,796.6262293999316,798.9871823999565,798.9871823999565,798.9871823999565,0.005495899938978255,0.013203499955125153,105,reward,1,[0.6042760999407619],[0.6111849000444636],799.6051829999778,799.6051829999778,0.007016299990937114,0.007016299990937114,0.018817600095644593,0.05347320006694645,0.060510699986480176,0.10210450005251914,0.10906729998532683,1.0048912999918684,803.0981209999882,807.1882671000203,,,,,,,,,,,,,,,,,,,,,,,,,,,,,2,B,2023-12-05_09h57.04.226,gca_avoidance_task,2022.2.4,144.1001092117713,
positions.xlsx,stimuli.xlsx,stimuli/Social2.png,stimuli/Social1.png,stimuli/Nonsocial1.png,stimuli/Nonsocial2.png,,"(-0.7, 0.5)",cs_plus_s,,,,,0,0,0,0,,,,,,,,,0,7,7,0,,,,,,,,,,,,,,,,,,,,,,,,,,,,,,,,,,,,,,,,,,,,,,,,,,,,,,,,,,807.695160400006,808.9451145000057,807.1882671000203,808.9451145000057,808.9451145000057,808.9451145000057,0.005769599927589297,0.01349129993468523,105,none,0,,,813.951815300039,813.951815300039,0.013666699989698827,0.013666699989698827,0.0201716999290511,0.05489629996009171,0.06184799992479384,0.10348859999794513,0.11049110000021756,1.0131680000340566,817.444764600019,821.8959786000196,,,,,,,,,,,,,,,,,,,,,,,,,,,,,2,B,2023-12-05_09h57.04.226,gca_avoidance_task,2022.2.4,144.1001092117713,
positions.xlsx,stimuli.xlsx,stimuli/Social2.png,stimuli/Social1.png,stimuli/Nonsocial1.png,stimuli/Nonsocial2.png,,"(0.7, 0.5)",cs_plus_ns,,,,,0,0,0,0,,,,,,,,,0,8,8,10,,,,,,,,,,,,,,,,,,,,,,,,,,,,,,,,,,,,,,,,,,,,,,,,,,,,,,,,,,822.4028731000144,824.0485996999778,821.8959786000196,824.0485996999778,824.0485996999778,824.0485996999778,0.007119800080545247,0.012994999997317791,105,none,0,,,829.0554443999426,829.0554443999426,0.01344410004094243,0.01344410004094243,0.01983110001310706,0.05449020001105964,0.0614724000915885,0.10308190004434437,0.11006050009746104,1.0127378000179306,832.5483135000104,836.3328741999576,,,,,,,,,,,,,,,,,,,,,,,,,,,,,2,B,2023-12-05_09h57.04.226,gca_avoidance_task,2022.2.4,144.1001092117713,
positions.xlsx,stimuli.xlsx,stimuli/Social2.png,stimuli/Social1.png,stimuli/Nonsocial1.png,stimuli/Nonsocial2.png,,"(0.7, 0.5)",cs_minus_ns,,,,,0,0,0,0,,,,,,,,,0,9,9,14,,,,,,,,,,,,,,,,,,,,,,,,,,,,,,,,,,,,,,,,,,,,,,,,,,,,,,,,,,836.8397594999988,838.3119159999769,836.3328741999576,838.3119159999769,838.3119159999769,838.3119159999769,0.006085600005462766,0.01316550001502037,110,reward,1,[0.5350103999953717],[0.5350139000220224],838.8535746999551,838.8535746999551,0.008026900002732873,0.008026900002732873,0.018277899944223464,0.05290550005156547,0.05988640000578016,0.1015080000506714,0.10849859996233135,1.0042701000347733,842.3465437999694,845.8949907999486,,,,,,,,,,,,,,,,,,,,,,,,,,,,,2,B,2023-12-05_09h57.04.226,gca_avoidance_task,2022.2.4,144.1001092117713,
positions.xlsx,stimuli.xlsx,stimuli/Social2.png,stimuli/Social1.png,stimuli/Nonsocial1.png,stimuli/Nonsocial2.png,,"(-0.7, -0.5)",cs_plus_ns,,,,,0,0,0,0,,,,,,,,,0,10,10,9,,,,,,,,,,,,,,,,,,,,,,,,,,,,,,,,,,,,,,,,,,,,,,,,,,,,,,,,,,846.4018761999905,848.2420331999892,845.8949907999486,848.2420331999892,848.2420331999892,848.2420331999892,0.0066018999787047505,0.0131728999549523,110,none,0,,,853.248811300029,853.248811300029,0.014051800011657178,0.014051800011657178,0.019954700022935867,0.05465189996175468,0.0616625000257045,0.10327099997084588,0.11025349993724376,1.0129249999299645,856.7417409999762,860.8596489999909,,,,,,,,,,,,,,,,,,,,,,,,,,,,,2,B,2023-12-05_09h57.04.226,gca_avoidance_task,2022.2.4,144.1001092117713,
positions.xlsx,stimuli.xlsx,stimuli/Social2.png,stimuli/Social1.png,stimuli/Nonsocial1.png,stimuli/Nonsocial2.png,,"(-0.7, -0.5)",cs_minus_s,,,,,0,0,0,0,,,,,,,,,0,11,11,5,,,,,,,,,,,,,,,,,,,,,,,,,,,,,,,,,,,,,,,,,,,,,,,,,,,,,,,,,,861.3664986999938,862.7622914999956,860.8596489999909,862.7622914999956,862.7622914999956,862.7622914999956,0.00583449995610863,0.012906499905511737,115,reward,1,[0.5762324999086559],[0.5762361999368295],863.3455829999875,863.3455829999875,0.006940999999642372,0.006940999999642372,0.018332200008444488,0.053024400025606155,0.05995639995671809,0.10161629994399846,0.10858809994533658,1.004341799998656,866.8385581999319,870.9772542000283,,,,,,,,,,,,,,,,,,,,,,,,,,,,,2,B,2023-12-05_09h57.04.226,gca_avoidance_task,2022.2.4,144.1001092117713,
positions.xlsx,stimuli.xlsx,stimuli/Social2.png,stimuli/Social1.png,stimuli/Nonsocial1.png,stimuli/Nonsocial2.png,,"(-0.7, 0.5)",cs_plus_ns,,,,,0,0,0,0,,,,,,,,,0,12,12,8,,,,,,,,,,,,,,,,,,,,,,,,,,,,,,,,,,,,,,,,,,,,,,,,,,,,,,,,,,871.4841292999918,872.6090907999314,870.9772542000283,872.6090907999314,872.6090907999314,872.6090907999314,0.006517899921163917,0.013172399951145053,115,none,0,,,877.6158292000182,877.6158292000182,0.014127600006759167,0.014127600006759167,0.01990369998384267,0.054591999971307814,0.06150399998296052,0.10317179991398007,0.11011629994027317,1.0128534999676049,881.1087619999889,885.1502574000042,,,,,,,,,,,,,,,,,,,,,,,,,,,,,2,B,2023-12-05_09h57.04.226,gca_avoidance_task,2022.2.4,144.1001092117713,
positions.xlsx,stimuli.xlsx,stimuli/Social2.png,stimuli/Social1.png,stimuli/Nonsocial1.png,stimuli/Nonsocial2.png,,"(0.7, 0.5)",cs_plus_s,,,,,0,0,0,0,,,,,,,,,0,13,13,2,,,,,,,,,,,,,,,,,,,,,,,,,,,,,,,,,,,,,,,,,,,,,,,,,,,,,,,,,,885.6571584999328,887.1084727999987,885.1502574000042,887.1084727999987,887.1084727999987,887.1084727999987,0.006687800050713122,0.013058300013653934,115,none,0,,,892.1152236999478,892.1152236999478,0.013325000065378845,0.013325000065378845,0.01981780002824962,0.05453750002197921,0.06144940003287047,0.10311780008487403,0.11007260007318109,1.0128579000011086,895.608168900013,899.746908799978,,,,,,,,,,,,,,,,,,,,,,,,,,,,,2,B,2023-12-05_09h57.04.226,gca_avoidance_task,2022.2.4,144.1001092117713,
positions.xlsx,stimuli.xlsx,stimuli/Social2.png,stimuli/Social1.png,stimuli/Nonsocial1.png,stimuli/Nonsocial2.png,,"(-0.7, -0.5)",cs_plus_s,,,,,0,0,0,0,,,,,,,,,0,14,14,1,,,,,,,,,,,,,,,,,,,,,,,,,,,,,,,,,,,,,,,,,,,,,,,,,,,,,,,,,,900.2537556999596,902.073138799984,899.746908799978,902.073138799984,902.073138799984,902.073138799984,0.0060381999937817454,0.01343080005608499,115,none,0,,,907.0798758999445,907.0798758999445,0.014108299976214767,0.014108299976214767,0.0201600999571383,0.05482540000230074,0.06179269996937364,0.10345389996655285,0.11045649996958673,1.0131090000504628,910.5728085000301,914.2115169999888,,,,,,,,,,,,,,,,,,,,,,,,,,,,,2,B,2023-12-05_09h57.04.226,gca_avoidance_task,2022.2.4,144.1001092117713,
positions.xlsx,stimuli.xlsx,stimuli/Social2.png,stimuli/Social1.png,stimuli/Nonsocial1.png,stimuli/Nonsocial2.png,,"(-0.7, -0.5)",cs_minus_ns,,,,,0,0,0,0,,,,,,,,,0,15,15,13,,,,,,,,,,,,,,,,,,,,,,,,,,,,,,,,,,,,,,,,,,,,,,,,,,,,,,,,,,914.7184395999648,916.6627996999305,914.2115169999888,916.6627996999305,916.6627996999305,916.6627996999305,0.006898300023749471,0.013442000024951994,120,reward,1,[0.5975482000503689],[0.5975519000785425],917.2669447000371,917.2669447000371,0.007850700058043003,0.007850700058043003,0.018715400015935302,0.05334930005483329,0.060328199993819,0.10198160004802048,0.10896950005553663,1.0048019000096247,920.7599029999692,924.3500406999374,,,,,,,,,,,,,,,,,,,,,,,,,,,,,2,B,2023-12-05_09h57.04.226,gca_avoidance_task,2022.2.4,144.1001092117713,
positions.xlsx,stimuli.xlsx,stimuli/Social2.png,stimuli/Social1.png,stimuli/Nonsocial1.png,stimuli/Nonsocial2.png,,"(-0.7, 0.5)",cs_plus_s,,,,,0,0,0,0,,,,,,,,,1,0,16,0,,,,,,,,,,,,,,,,,,,,,,,,,,,,,,,,,,,,,,,,,,,,,,,,,,,,,,,,,,924.8568932999624,926.6415432000067,924.3500406999374,926.6415432000067,926.6415432000067,926.6415432000067,0.006522999959997833,0.013049699948169291,120,none,0,,,931.6483355000382,931.6483355000382,0.01349879999179393,0.01349879999179393,0.019866099930368364,0.05452909995801747,0.061431200010702014,0.10315580002497882,0.11007699999026954,1.0128102999879047,935.1412616999587,939.3355216999771,,,,,,,,,,,,,,,,,,,,,,,,,,,,,2,B,2023-12-05_09h57.04.226,gca_avoidance_task,2022.2.4,144.1001092117713,
positions.xlsx,stimuli.xlsx,stimuli/Social2.png,stimuli/Social1.png,stimuli/Nonsocial1.png,stimuli/Nonsocial2.png,,"(0.7, 0.5)",cs_plus_ns,,,,,0,0,0,0,,,,,,,,,1,1,17,10,,,,,,,,,,,,,,,,,,,,,,,,,,,,,,,,,,,,,,,,,,,,,,,,,,,,,,,,,,939.842383399955,940.8701066999929,939.3355216999771,940.8701066999929,940.8701066999929,940.8701066999929,0.0069457999197766185,0.013106399914249778,120,none,0,,,945.8768441999564,945.8768441999564,0.014438699930906296,0.014438699930906296,0.019891500007361174,0.0545988999074325,0.061491800006479025,0.1031385000096634,0.11010329995770007,1.0128392999758944,949.3697480999399,953.3904896000167,,,,,,,,,,,,,,,,,,,,,,,,,,,,,2,B,2023-12-05_09h57.04.226,gca_avoidance_task,2022.2.4,144.1001092117713,
positions.xlsx,stimuli.xlsx,stimuli/Social2.png,stimuli/Social1.png,stimuli/Nonsocial1.png,stimuli/Nonsocial2.png,,"(0.7, -0.5)",cs_plus_ns,,,,,0,0,0,0,,,,,,,,,1,2,18,11,,,,,,,,,,,,,,,,,,,,,,,,,,,,,,,,,,,,,,,,,,,,,,,,,,,,,,,,,,953.8973091000225,955.3348030999769,953.3904896000167,955.3348030999769,955.3348030999769,955.3348030999769,0.006490499945357442,0.013518299907445908,120,none,0,,,960.3415566999465,960.3415566999465,0.014062599977478385,0.014062599977478385,0.02036159997805953,0.054997599916532636,0.06186839996371418,0.10360169992782176,0.11051759996917099,1.0132147999247536,963.8344637999544,968.2926458000438,,,,,,,,,,,,,,,,,,,,,,,,,,,,,2,B,2023-12-05_09h57.04.226,gca_avoidance_task,2022.2.4,144.1001092117713,
positions.xlsx,stimuli.xlsx,stimuli/Social2.png,stimuli/Social1.png,stimuli/Nonsocial1.png,stimuli/Nonsocial2.png,,"(0.7, -0.5)",cs_minus_ns,,,,,0,0,0,0,,,,,,,,,1,3,19,15,,,,,,,,,,,,,,,,,,,,,,,,,,,,,,,,,,,,,,,,,,,,,,,,,,,,,,,,,,968.7994710999774,970.5563753999304,968.2926458000438,970.5563753999304,970.5563753999304,970.5563753999304,0.006173199974000454,0.012960599968209863,125,reward,1,[0.5416504999157041],[0.5416541999438778],971.1049744000193,971.1049744000193,0.007686000084504485,0.007686000084504485,0.018270600005052984,0.053019999992102385,0.059958700090646744,0.10159670002758503,0.1085375000257045,1.0043226000852883,974.5978533999296,978.8546979000093,,,,,,,,,,,,,,,,,,,,,,,,,,,,,2,B,2023-12-05_09h57.04.226,gca_avoidance_task,2022.2.4,144.1001092117713,
positions.xlsx,stimuli.xlsx,stimuli/Social2.png,stimuli/Social1.png,stimuli/Nonsocial1.png,stimuli/Nonsocial2.png,,"(-0.7, 0.5)",cs_minus_s,,,,,0,0,0,0,,,,,,,,,1,4,20,4,,,,,,,,,,,,,,,,,,,,,,,,,,,,,,,,,,,,,,,,,,,,,,,,,,,,,,,,,,979.3615704999538,980.4101336000022,978.8546979000093,980.4101336000022,980.4101336000022,980.4101336000022,0.0062671999912709,0.012929599964991212,130,reward,1,[0.5693687000311911],[0.569372299942188],980.9865493000252,980.9865493000252,0.007145199924707413,0.007145199924707413,0.018477299949154258,0.0531228999607265,0.06011209997814149,0.1017606999957934,0.10867869993671775,1.004472199943848,984.4794474999653,988.3196007999359,,,,,,,,,,,,,,,,,,,,,,,,,,,,,2,B,2023-12-05_09h57.04.226,gca_avoidance_task,2022.2.4,144.1001092117713,
positions.xlsx,stimuli.xlsx,stimuli/Social2.png,stimuli/Social1.png,stimuli/Nonsocial1.png,stimuli/Nonsocial2.png,,"(0.7, -0.5)",cs_plus_s,,,,,0,0,0,0,,,,,,,,,1,5,21,3,,,,,,,,,,,,,,,,,,,,,,,,,,,,,,,,,,,,,,,,,,,,,,,,,,,,,,,,,,988.8264596000081,989.965280000004,988.3196007999359,989.965280000004,989.965280000004,989.965280000004,0.006567399948835373,0.013247199938632548,130,none,0,,,994.9720262000337,994.9720262000337,0.013363900012336671,0.013363900012336671,0.019981599994935095,0.05462069995701313,0.06167999992612749,0.10322829999495298,0.11018399999011308,1.012928899959661,998.465003099991,1002.1523251000326,,,,,,,,,,,,,,,,,,,,,,,,,,,,,2,B,2023-12-05_09h57.04.226,gca_avoidance_task,2022.2.4,144.1001092117713,
positions.xlsx,stimuli.xlsx,stimuli/Social2.png,stimuli/Social1.png,stimuli/Nonsocial1.png,stimuli/Nonsocial2.png,,"(0.7, 0.5)",cs_minus_ns,,,,,0,0,0,0,,,,,,,,,1,6,22,14,,,,,,,,,,,,,,,,,,,,,,,,,,,,,,,,,,,,,,,,,,,,,,,,,,,,,,,,,,1002.6592345000245,1004.2911026999354,1002.1523251000326,1004.2911026999354,1004.2911026999354,1004.2911026999354,0.006660900078713894,0.0131997000426054,135,reward,1,[0.5417493999702856],[0.5417529999976978],1004.839688600041,1004.839688600041,0.007709200028330088,0.007709200028330088,0.018727999995462596,0.05339590006042272,0.060374699998646975,0.10199450002983212,0.10894139995798469,1.004728200030513,1008.3325867999811,1012.2213560999371,,,,,,,,,,,,,,,,,,,,,,,,,,,,,2,B,2023-12-05_09h57.04.226,gca_avoidance_task,2022.2.4,144.1001092117713,
positions.xlsx,stimuli.xlsx,stimuli/Social2.png,stimuli/Social1.png,stimuli/Nonsocial1.png,stimuli/Nonsocial2.png,,"(-0.7, -0.5)",cs_plus_s,,,,,0,0,0,0,,,,,,,,,1,7,23,1,,,,,,,,,,,,,,,,,,,,,,,,,,,,,,,,,,,,,,,,,,,,,,,,,,,,,,,,,,1012.7282376999501,1014.353136699996,1012.2213560999371,1014.353136699996,1014.353136699996,1014.353136699996,0.006707799970172346,0.013191199977882206,135,none,0,,,1019.3599329999415,1019.3599329999415,0.014187699998728931,0.014187699998728931,0.020024899975396693,0.054708900046534836,0.06164009997155517,0.10329270001966506,0.11027750000357628,1.0129690000321716,1022.8528206000337,1026.5749426999828,,,,,,,,,,,,,,,,,,,,,,,,,,,,,2,B,2023-12-05_09h57.04.226,gca_avoidance_task,2022.2.4,144.1001092117713,
positions.xlsx,stimuli.xlsx,stimuli/Social2.png,stimuli/Social1.png,stimuli/Nonsocial1.png,stimuli/Nonsocial2.png,,"(0.7, 0.5)",cs_plus_s,,,,,0,0,0,0,,,,,,,,,1,8,24,2,,,,,,,,,,,,,,,,,,,,,,,,,,,,,,,,,,,,,,,,,,,,,,,,,,,,,,,,,,1027.0817896999652,1028.7275247999933,1026.5749426999828,1028.7275247999933,1028.7275247999933,1028.7275247999933,0.006237900000996888,0.013457399909384549,135,none,0,,,1033.734320599935,1033.734320599935,0.01379090000409633,0.01379090000409633,0.020258500007912517,0.054942799964919686,0.061848699930123985,0.10346789995674044,0.11046959995292127,1.0131468999898061,1037.227261699969,1041.0256714000134,,,,,,,,,,,,,,,,,,,,,,,,,,,,,2,B,2023-12-05_09h57.04.226,gca_avoidance_task,2022.2.4,144.1001092117713,
positions.xlsx,stimuli.xlsx,stimuli/Social2.png,stimuli/Social1.png,stimuli/Nonsocial1.png,stimuli/Nonsocial2.png,,"(-0.7, -0.5)",cs_plus_ns,,,,,0,0,0,0,,,,,,,,,1,9,25,9,,,,,,,,,,,,,,,,,,,,,,,,,,,,,,,,,,,,,,,,,,,,,,,,,,,,,,,,,,1041.532591599971,1042.9630834000418,1041.0256714000134,1042.9630834000418,1042.9630834000418,1042.9630834000418,0.006903800065629184,0.01334200007840991,135,none,0,,,1047.9698526000138,1047.9698526000138,0.01447829999960959,0.01447829999960959,0.020175800076685846,0.05479150009341538,0.061781100113876164,0.10336670000106096,0.11034750007092953,1.0130482000531629,1051.4628057000227,1055.4347739999648,,,,,,,,,,,,,,,,,,,,,,,,,,,,,2,B,2023-12-05_09h57.04.226,gca_avoidance_task,2022.2.4,144.1001092117713,
positions.xlsx,stimuli.xlsx,stimuli/Social2.png,stimuli/Social1.png,stimuli/Nonsocial1.png,stimuli/Nonsocial2.png,,"(0.7, 0.5)",cs_minus_s,,,,,0,0,0,0,,,,,,,,,1,10,26,6,,,,,,,,,,,,,,,,,,,,,,,,,,,,,,,,,,,,,,,,,,,,,,,,,,,,,,,,,,1055.9416715999832,1057.6360526999924,1055.4347739999648,1057.6360526999924,1057.6360526999924,1057.6360526999924,0.0062330999644473195,0.013011600007303059,140,reward,1,[0.5763001999584958],[0.5763036999851465],1058.2193897999823,1058.2193897999823,0.007495300029404461,0.007495300029404461,0.01848440000321716,0.05320550000760704,0.060104799922555685,0.10176699992734939,0.10869839997030795,1.0044856999302283,1061.7123320000246,1066.1149596000323,,,,,,,,,,,,,,,,,,,,,,,,,,,,,2,B,2023-12-05_09h57.04.226,gca_avoidance_task,2022.2.4,144.1001092117713,
positions.xlsx,stimuli.xlsx,stimuli/Social2.png,stimuli/Social1.png,stimuli/Nonsocial1.png,stimuli/Nonsocial2.png,,"(-0.7, 0.5)",cs_plus_ns,,,,,0,0,0,0,,,,,,,,,1,11,27,8,,,,,,,,,,,,,,,,,,,,,,,,,,,,,,,,,,,,,,,,,,,,,,,,,,,,,,,,,,1066.621787399985,1068.0383939000312,1066.1149596000323,1068.0383939000312,1068.0383939000312,1068.0383939000312,0.006887499941512942,0.012978299986571074,140,none,0,,,1073.0451530000428,1073.0451530000428,0.013680699979886413,0.013680699979886413,0.019781599985435605,0.05446220003068447,0.061383699998259544,0.10307079995982349,0.11002439993899316,1.0127861999208108,1076.5381247999612,1080.3573886000086,,,,,,,,,,,,,,,,,,,,,,,,,,,,,2,B,2023-12-05_09h57.04.226,gca_avoidance_task,2022.2.4,144.1001092117713,
positions.xlsx,stimuli.xlsx,stimuli/Social2.png,stimuli/Social1.png,stimuli/Nonsocial1.png,stimuli/Nonsocial2.png,,"(-0.7, -0.5)",cs_minus_s,,,,,0,0,0,0,,,,,,,,,1,12,28,5,,,,,,,,,,,,,,,,,,,,,,,,,,,,,,,,,,,,,,,,,,,,,,,,,,,,,,,,,,1080.8643157000188,1082.3711757999845,1080.3573886000086,1082.3711757999845,1082.3711757999845,1082.3711757999845,0.005848899949342012,0.013249099953100085,145,reward,1,[0.5141224999679253],[0.5141262999968603],1082.892025499954,1082.892025499954,0.006899100029841065,0.006899100029841065,0.01851389999501407,0.05322080000769347,0.060102100018411875,0.10177990002557635,0.10873600002378225,1.0045058999676257,1086.3849321999587,1090.162565000006,,,,,,,,,,,,,,,,,,,,,,,,,,,,,2,B,2023-12-05_09h57.04.226,gca_avoidance_task,2022.2.4,144.1001092117713,
positions.xlsx,stimuli.xlsx,stimuli/Social2.png,stimuli/Social1.png,stimuli/Nonsocial1.png,stimuli/Nonsocial2.png,,"(0.7, -0.5)",cs_minus_s,,,,,0,0,0,0,,,,,,,,,1,13,29,7,,,,,,,,,,,,,,,,,,,,,,,,,,,,,,,,,,,,,,,,,,,,,,,,,,,,,,,,,,1090.6694148000097,1092.4054722000146,1090.162565000006,1092.4054722000146,1092.4054722000146,1092.4054722000146,0.006407100008800626,0.013329199980944395,150,reward,1,[0.5280966999707744],[0.5281001999974251],1092.9401863999665,1092.9401863999665,0.0073090000078082085,0.0073090000078082085,0.01842380000744015,0.05308880005031824,0.06002610002178699,0.10168429999612272,0.10868970002047718,1.0044177999952808,1096.4331207999494,1100.6342962000053,,,,,,,,,,,,,,,,,,,,,,,,,,,,,2,B,2023-12-05_09h57.04.226,gca_avoidance_task,2022.2.4,144.1001092117713,
positions.xlsx,stimuli.xlsx,stimuli/Social2.png,stimuli/Social1.png,stimuli/Nonsocial1.png,stimuli/Nonsocial2.png,,"(-0.7, -0.5)",cs_minus_ns,,,,,0,0,0,0,,,,,,,,,1,14,30,13,,,,,,,,,,,,,,,,,,,,,,,,,,,,,,,,,,,,,,,,,,,,,,,,,,,,,,,,,,1101.1412420000415,1102.946703499998,1100.6342962000053,1102.946703499998,1102.946703499998,1102.946703499998,0.00669110007584095,0.013211000012233853,155,reward,1,[0.6528776000486687],[0.6528815000783652],1103.6063597999746,1103.6063597999746,0.007256500073708594,0.007256500073708594,0.01880730001721531,0.05350619996897876,0.06047500006388873,0.10208300000522286,0.1090643999632448,1.0048343000235036,1107.0993587999837,1110.7658820999786,,,,,,,,,,,,,,,,,,,,,,,,,,,,,2,B,2023-12-05_09h57.04.226,gca_avoidance_task,2022.2.4,144.1001092117713,
positions.xlsx,stimuli.xlsx,stimuli/Social2.png,stimuli/Social1.png,stimuli/Nonsocial1.png,stimuli/Nonsocial2.png,,"(-0.7, 0.5)",cs_minus_ns,,,,,0,0,0,0,,,,,,,,,1,15,31,12,,,,,,,,,,,,,,,,,,,,,,,,,,,,,,,,,,,,,,,,,,,,,,,,,,,,,,,,,,1111.2727275999496,1112.9879399000201,1110.7658820999786,1112.9879399000201,1112.9879399000201,1112.9879399000201,0.006339500076137483,0.01315380004234612,160,reward,1,[0.4932057000696659],[0.49320940009783953],1113.487916199956,1113.487916199956,0.007273399969562888,0.007273399969562888,0.01837629999499768,0.05305190000217408,0.06000930001027882,0.1017174000153318,0.10866559995338321,1.0044055000180379,1116.9808975999476,1121.0848538000137,,,,,,,,,,,,,,,,,,,,,,,,,,,,,2,B,2023-12-05_09h57.04.226,gca_avoidance_task,2022.2.4,144.1001092117713,
positions.xlsx,stimuli.xlsx,stimuli/Social2.png,stimuli/Social1.png,stimuli/Nonsocial1.png,stimuli/Nonsocial2.png,,"(0.7, 0.5)",cs_plus_ns,,,,,0,0,0,0,,,,,,,,,2,0,32,10,,,,,,,,,,,,,,,,,,,,,,,,,,,,,,,,,,,,,,,,,,,,,,,,,,,,,,,,,,1121.5917436999734,1123.0083542999346,1121.0848538000137,1123.0083542999346,1123.0083542999346,1123.0083542999346,0.006679700105451047,0.01307830004952848,160,none,0,,,1128.0151105000405,1128.0151105000405,0.014231800101697445,0.014231800101697445,0.0198136999970302,0.05452150001656264,0.06145989999640733,0.10313860001042485,0.11005700007081032,1.012784200021997,1131.5080703999847,1135.778724599979,,,,,,,,,,,,,,,,,,,,,,,,,,,,,2,B,2023-12-05_09h57.04.226,gca_avoidance_task,2022.2.4,144.1001092117713,
positions.xlsx,stimuli.xlsx,stimuli/Social2.png,stimuli/Social1.png,stimuli/Nonsocial1.png,stimuli/Nonsocial2.png,,"(-0.7, -0.5)",cs_plus_s,,,,,0,0,0,0,,,,,,,,,2,1,33,1,,,,,,,,,,,,,,,,,,,,,,,,,,,,,,,,,,,,,,,,,,,,,,,,,,,,,,,,,,1136.2855959000299,1137.7299679999705,1135.778724599979,1137.7299679999705,1137.7299679999705,1137.7299679999705,0.006085800006985664,0.01308120007161051,160,none,0,,,1142.7366689000046,1142.7366689000046,0.014087600051425397,0.014087600051425397,0.019861300010234118,0.05452999996487051,0.06148999999277294,0.1031151000643149,0.11006159998942167,1.012804300058633,1146.2296089000301,1150.3336457000114,,,,,,,,,,,,,,,,,,,,,,,,,,,,,2,B,2023-12-05_09h57.04.226,gca_avoidance_task,2022.2.4,144.1001092117713,
positions.xlsx,stimuli.xlsx,stimuli/Social2.png,stimuli/Social1.png,stimuli/Nonsocial1.png,stimuli/Nonsocial2.png,,"(-0.7, -0.5)",cs_plus_ns,,,,,0,0,0,0,,,,,,,,,2,2,34,9,,,,,,,,,,,,,,,,,,,,,,,,,,,,,,,,,,,,,,,,,,,,,,,,,,,,,,,,,,1150.8404897999717,1152.6390584999463,1150.3336457000114,1152.6390584999463,1152.6390584999463,1152.6390584999463,0.007105999975465238,0.013077100040391088,160,none,0,,,1157.645847799955,1157.645847799955,0.01496569998562336,0.01496569998562336,0.0198876999784261,0.05451080005150288,0.0614838000619784,0.10317590006161481,0.11012760002631694,1.0128744000103325,1161.138779400033,1164.6733385999687,,,,,,,,,,,,,,,,,,,,,,,,,,,,,2,B,2023-12-05_09h57.04.226,gca_avoidance_task,2022.2.4,144.1001092117713,
positions.xlsx,stimuli.xlsx,stimuli/Social2.png,stimuli/Social1.png,stimuli/Nonsocial1.png,stimuli/Nonsocial2.png,,"(-0.7, 0.5)",cs_minus_ns,,,,,0,0,0,0,,,,,,,,,2,3,35,12,,,,,,,,,,,,,,,,,,,,,,,,,,,,,,,,,,,,,,,,,,,,,,,,,,,,,,,,,,1165.180210600025,1166.8745676999679,1164.6733385999687,1166.8745676999679,1166.8745676999679,1166.8745676999679,0.007160800043493509,0.012830400024540722,165,reward,1,[0.5484246000414714],[0.5484279999509454],1167.4301389999455,1167.4301389999455,0.00744080008007586,0.00744080008007586,0.01846960000693798,0.053157499991357327,0.06011050008237362,0.10172180004883558,0.10869660007301718,1.0044792999979109,1170.9230783999665,1174.6382131000282,,,,,,,,,,,,,,,,,,,,,,,,,,,,,2,B,2023-12-05_09h57.04.226,gca_avoidance_task,2022.2.4,144.1001092117713,
positions.xlsx,stimuli.xlsx,stimuli/Social2.png,stimuli/Social1.png,stimuli/Nonsocial1.png,stimuli/Nonsocial2.png,,"(0.7, -0.5)",cs_minus_s,,,,,0,0,0,0,,,,,,,,,2,4,36,7,,,,,,,,,,,,,,,,,,,,,,,,,,,,,,,,,,,,,,,,,,,,,,,,,,,,,,,,,,1175.1450762000168,1177.1450343999313,1174.6382131000282,1177.1450343999313,1177.1450343999313,1177.1450343999313,0.005532099981792271,0.012906000018119812,170,reward,1,[0.6178940000245348],[0.617897400050424],1177.7699340999825,1177.7699340999825,0.0070596999721601605,0.0070596999721601605,0.018563700024969876,0.053283500019460917,0.06020059995353222,0.10189359996002167,0.10878410004079342,1.0045802999520674,1181.262931699981,1185.0058117000153,,,,,,,,,,,,,,,,,,,,,,,,,,,,,2,B,2023-12-05_09h57.04.226,gca_avoidance_task,2022.2.4,144.1001092117713,
positions.xlsx,stimuli.xlsx,stimuli/Social2.png,stimuli/Social1.png,stimuli/Nonsocial1.png,stimuli/Nonsocial2.png,,"(0.7, -0.5)",cs_plus_s,,,,,0,0,0,0,,,,,,,,,2,5,37,3,,,,,,,,,,,,,,,,,,,,,,,,,,,,,,,,,,,,,,,,,,,,,,,,,,,,,,,,,,1185.5126967999386,1186.866816499969,1185.0058117000153,1186.866816499969,1186.866816499969,1186.866816499969,0.006155399954877794,0.013212600024417043,170,none,0,,,1191.8735601999797,1191.8735601999797,0.013788199983537197,0.013788199983537197,0.020006799953989685,0.054630399914458394,0.06161430000793189,0.10331499995663762,0.11026410001795739,1.0129655000055209,1195.366519400035,1199.5468942000298,,,,,,,,,,,,,,,,,,,,,,,,,,,,,2,B,2023-12-05_09h57.04.226,gca_avoidance_task,2022.2.4,144.1001092117713,
positions.xlsx,stimuli.xlsx,stimuli/Social2.png,stimuli/Social1.png,stimuli/Nonsocial1.png,stimuli/Nonsocial2.png,,"(0.7, -0.5)",cs_minus_ns,,,,,0,0,0,0,,,,,,,,,2,6,38,15,,,,,,,,,,,,,,,,,,,,,,,,,,,,,,,,,,,,,,,,,,,,,,,,,,,,,,,,,,1200.0537461999338,1201.512047600001,1199.5468942000298,1201.512047600001,1201.512047600001,1201.512047600001,0.006668400019407272,0.013254699995741248,175,reward,1,[0.18075890000909567],[0.1807626000372693],1201.6995466999942,1201.6995466999942,0.007389000034891069,0.007389000034891069,0.01837179996073246,0.05303980002645403,0.06004540005233139,0.10168700001668185,0.10861600004136562,1.0043422000017017,1205.1924416000256,1208.7617829999654,,,,,,,,,,,,,,,,,,,,,,,,,,,,,2,B,2023-12-05_09h57.04.226,gca_avoidance_task,2022.2.4,144.1001092117713,
positions.xlsx,stimuli.xlsx,stimuli/Social2.png,stimuli/Social1.png,stimuli/Nonsocial1.png,stimuli/Nonsocial2.png,,"(-0.7, 0.5)",cs_minus_s,,,,,0,0,0,0,,,,,,,,,2,7,39,4,,,,,,,,,,,,,,,,,,,,,,,,,,,,,,,,,,,,,,,,,,,,,,,,,,,,,,,,,,1209.2686507999897,1210.504710100009,1208.7617829999654,1210.504710100009,1210.504710100009,1210.504710100009,0.005945899989455938,0.013294699951075017,180,reward,1,[0.1947705999482423],[0.19477409997489303],1210.7061167999636,1210.7061167999636,0.007126700016669929,0.007126700016669929,0.018407800002023578,0.05305350001435727,0.059979000012390316,0.10165990004315972,0.10862900002393872,1.0043856999836862,1214.1990674999543,1218.0878096999368,,,,,,,,,,,,,,,,,,,,,,,,,,,,,2,B,2023-12-05_09h57.04.226,gca_avoidance_task,2022.2.4,144.1001092117713,
positions.xlsx,stimuli.xlsx,stimuli/Social2.png,stimuli/Social1.png,stimuli/Nonsocial1.png,stimuli/Nonsocial2.png,,"(0.7, -0.5)",cs_plus_ns,,,,,0,0,0,0,,,,,,,,,2,8,40,11,,,,,,,,,,,,,,,,,,,,,,,,,,,,,,,,,,,,,,,,,,,,,,,,,,,,,,,,,,1218.5946529000066,1220.3515226000454,1218.0878096999368,1220.3515226000454,1220.3515226000454,1220.3515226000454,0.007222999935038388,0.013144499971531332,180,none,0,,,1225.365238499944,1225.365238499944,0.01533299998845905,0.01533299998845905,0.02687049994710833,0.05455010000150651,0.06153089995495975,0.10320060001686215,0.11013990000355989,1.0129168999847025,1228.8512305000331,1232.8371833999408,,,,,,,,,,,,,,,,,,,,,,,,,,,,,2,B,2023-12-05_09h57.04.226,gca_avoidance_task,2022.2.4,144.1001092117713,
positions.xlsx,stimuli.xlsx,stimuli/Social2.png,stimuli/Social1.png,stimuli/Nonsocial1.png,stimuli/Nonsocial2.png,,"(0.7, 0.5)",cs_minus_ns,,,,,0,0,0,0,,,,,,,,,2,9,41,14,,,,,,,,,,,,,,,,,,,,,,,,,,,,,,,,,,,,,,,,,,,,,,,,,,,,,,,,,,1233.3440556999994,1234.371754999971,1232.8371833999408,1234.371754999971,1234.371754999971,1234.371754999971,0.006674500065855682,0.013173400075174868,185,reward,1,[0.48626800009515136],[0.4862716000061482],1234.8648117999546,1234.8648117999546,0.00812949996907264,0.00812949996907264,0.01841469993814826,0.053111699991859496,0.060044200043193996,0.10165730002336204,0.10862880002241582,1.0044639999978244,1238.3578082999447,1242.7464914999437,,,,,,,,,,,,,,,,,,,,,,,,,,,,,2,B,2023-12-05_09h57.04.226,gca_avoidance_task,2022.2.4,144.1001092117713,
positions.xlsx,stimuli.xlsx,stimuli/Social2.png,stimuli/Social1.png,stimuli/Nonsocial1.png,stimuli/Nonsocial2.png,,"(-0.7, 0.5)",cs_plus_s,,,,,0,0,0,0,,,,,,,,,2,10,42,0,,,,,,,,,,,,,,,,,,,,,,,,,,,,,,,,,,,,,,,,,,,,,,,,,,,,,,,,,,1243.2533573999535,1244.392204600037,1242.7464914999437,1244.392204600037,1244.392204600037,1244.392204600037,0.006260600057430565,0.013183600036427379,185,none,0,,,1249.398954299977,1249.398954299977,0.013243900029920042,0.013243900029920042,0.019940700032748282,0.054609899991191924,0.06156830000691116,0.10321259999182075,0.11017340002581477,1.012892400030978,1252.8919093000004,1256.794502499979,,,,,,,,,,,,,,,,,,,,,,,,,,,,,2,B,2023-12-05_09h57.04.226,gca_avoidance_task,2022.2.4,144.1001092117713,
positions.xlsx,stimuli.xlsx,stimuli/Social2.png,stimuli/Social1.png,stimuli/Nonsocial1.png,stimuli/Nonsocial2.png,,"(-0.7, 0.5)",cs_plus_ns,,,,,0,0,0,0,,,,,,,,,2,11,43,8,,,,,,,,,,,,,,,,,,,,,,,,,,,,,,,,,,,,,,,,,,,,,,,,,,,,,,,,,,1257.3013779999455,1259.2943553000223,1256.794502499979,1259.2943553000223,1259.2943553000223,1259.2943553000223,0.007115299929864705,0.013350299908779562,185,none,0,,,1264.3011102000019,1264.3011102000019,0.015385299921035767,0.015385299921035767,0.020120500004850328,0.0547806000104174,0.061701999977231026,0.10333680000621825,0.11031649995129555,1.0130191999487579,1267.7940745999804,1272.2660630999599,,,,,,,,,,,,,,,,,,,,,,,,,,,,,2,B,2023-12-05_09h57.04.226,gca_avoidance_task,2022.2.4,144.1001092117713,
positions.xlsx,stimuli.xlsx,stimuli/Social2.png,stimuli/Social1.png,stimuli/Nonsocial1.png,stimuli/Nonsocial2.png,,"(0.7, 0.5)",cs_minus_s,,,,,0,0,0,0,,,,,,,,,2,12,44,6,,,,,,,,,,,,,,,,,,,,,,,,,,,,,,,,,,,,,,,,,,,,,,,,,,,,,,,,,,1272.7729375000345,1274.3631546000252,1272.2660630999599,1274.3631546000252,1274.3631546000252,1274.3631546000252,0.006000300054438412,0.01325750001706183,190,reward,1,[0.39610500005073845],[0.39610869996249676],1274.7659230999416,1274.7659230999416,0.00816510000731796,0.00816510000731796,0.018385799950920045,0.053037900011986494,0.05997820000629872,0.1016592999221757,0.10858769994229078,1.0044517000205815,1278.2589080999605,1281.7796078999527,,,,,,,,,,,,,,,,,,,,,,,,,,,,,2,B,2023-12-05_09h57.04.226,gca_avoidance_task,2022.2.4,144.1001092117713,
positions.xlsx,stimuli.xlsx,stimuli/Social2.png,stimuli/Social1.png,stimuli/Nonsocial1.png,stimuli/Nonsocial2.png,,"(-0.7, -0.5)",cs_minus_ns,,,,,0,0,0,0,,,,,,,,,2,13,45,13,,,,,,,,,,,,,,,,,,,,,,,,,,,,,,,,,,,,,,,,,,,,,,,,,,,,,,,,,,1282.2864301999798,1284.0294401999563,1281.7796078999527,1284.0294401999563,1284.0294401999563,1284.0294401999563,0.006531799910590053,0.013240600004792213,195,reward,1,[0.548931899946183],[0.5489357999758795],1284.585025700042,1284.585025700042,0.007460199994966388,0.007460199994966388,0.018054399988614023,0.05268710001837462,0.05967360001523048,0.10130630002822727,0.10827660001814365,1.0043157000327483,1288.0778924999759,1291.897199900006,,,,,,,,,,,,,,,,,,,,,,,,,,,,,2,B,2023-12-05_09h57.04.226,gca_avoidance_task,2022.2.4,144.1001092117713,
positions.xlsx,stimuli.xlsx,stimuli/Social2.png,stimuli/Social1.png,stimuli/Nonsocial1.png,stimuli/Nonsocial2.png,,"(0.7, 0.5)",cs_plus_s,,,,,0,0,0,0,,,,,,,,,2,14,46,2,,,,,,,,,,,,,,,,,,,,,,,,,,,,,,,,,,,,,,,,,,,,,,,,,,,,,,,,,,1292.4040513000218,1293.529070599936,1291.897199900006,1293.529070599936,1293.529070599936,1293.529070599936,0.006160099990665913,0.01304689992684871,195,none,0,,,1298.5357687999494,1298.5357687999494,0.014274199958890676,0.014274199958890676,0.019769499893300235,0.054404899943619967,0.0613870999077335,0.10310159996151924,0.11001019994728267,1.0127488999860361,1302.028779599932,1305.9452681000112,,,,,,,,,,,,,,,,,,,,,,,,,,,,,2,B,2023-12-05_09h57.04.226,gca_avoidance_task,2022.2.4,144.1001092117713,
positions.xlsx,stimuli.xlsx,stimuli/Social2.png,stimuli/Social1.png,stimuli/Nonsocial1.png,stimuli/Nonsocial2.png,,"(-0.7, -0.5)",cs_minus_s,,,,,0,0,0,0,,,,,,,,,2,15,47,5,,,,,,,,,,,,,,,,,,,,,,,,,,,,,,,,,,,,,,,,,,,,,,,,,,,,,,,,,,1306.4521617999999,1308.0631762000266,1305.9452681000112,1308.0631762000266,1308.0631762000266,1308.0631762000266,0.006078199949115515,0.01295489992480725,200,reward,1,[0.5345480999676511],[0.5345518999965861],1308.6047958999407,1308.6047958999407,0.007748199976049364,0.007748199976049364,0.01854499999899417,0.05320550000760704,0.06015739997383207,0.1017915999982506,0.10877320007421076,1.004599399981089,1312.0977509999648,1315.6740104999626,,,,,,,,,,,,,,,,,,,,,,,,,,,,,2,B,2023-12-05_09h57.04.226,gca_avoidance_task,2022.2.4,144.1001092117713,
positions.xlsx,stimuli.xlsx,stimuli/Social2.png,stimuli/Social1.png,stimuli/Nonsocial1.png,stimuli/Nonsocial2.png,,"(0.7, -0.5)",cs_plus_s,,,,,0,0,0,0,,,,,,,,,3,0,48,3,,,,,,,,,,,,,,,,,,,,,,,,,,,,,,,,,,,,,,,,,,,,,,,,,,,,,,,,,,1316.1808793999953,1317.8891308000311,1315.6740104999626,1317.8891308000311,1317.8891308000311,1317.8891308000311,0.006652200012467802,0.012909399927593768,200,none,0,,,1322.9028212999692,1322.9028212999692,0.014407799928449094,0.014407799928449094,0.02656639995984733,0.05428589996881783,0.061313599930144846,0.10297859995625913,0.10986500000581145,1.0126424999907613,1326.3888383000158,1330.7497897000285,,,,,,,,,,,,,,,,,,,,,,,,,,,,,2,B,2023-12-05_09h57.04.226,gca_avoidance_task,2022.2.4,144.1001092117713,
positions.xlsx,stimuli.xlsx,stimuli/Social2.png,stimuli/Social1.png,stimuli/Nonsocial1.png,stimuli/Nonsocial2.png,,"(0.7, -0.5)",cs_plus_ns,,,,,0,0,0,0,,,,,,,,,3,1,49,11,,,,,,,,,,,,,,,,,,,,,,,,,,,,,,,,,,,,,,,,,,,,,,,,,,,,,,,,,,1331.2566513000056,1332.964902900043,1330.7497897000285,1332.964902900043,1332.964902900043,1332.964902900043,0.006701899925246835,0.013449199963361025,200,none,0,,,1337.9716696999967,1337.9716696999967,0.015242499997839332,0.015242499997839332,0.020191699964925647,0.054873099899850786,0.06186729995533824,0.10356389998923987,0.11050569999497384,1.0131595999700949,1341.464534400031,1345.2214188999496,,,,,,,,,,,,,,,,,,,,,,,,,,,,,2,B,2023-12-05_09h57.04.226,gca_avoidance_task,2022.2.4,144.1001092117713,
positions.xlsx,stimuli.xlsx,stimuli/Social2.png,stimuli/Social1.png,stimuli/Nonsocial1.png,stimuli/Nonsocial2.png,,"(0.7, 0.5)",cs_plus_ns,,,,,0,0,0,0,,,,,,,,,3,2,50,10,,,,,,,,,,,,,,,,,,,,,,,,,,,,,,,,,,,,,,,,,,,,,,,,,,,,,,,,,,1345.728239399963,1346.9782069999492,1345.2214188999496,1346.9782069999492,1346.9782069999492,1346.9782069999492,0.006774599896743894,0.013343499973416328,200,none,0,,,1351.9849669999676,1351.9849669999676,0.014998499886132777,0.014998499886132777,0.020154799916781485,0.05484159989282489,0.06179299997165799,0.10343649995047599,0.11036869999952614,1.0131098999409005,1355.4779442000436,1359.665245699929,,,,,,,,,,,,,,,,,,,,,,,,,,,,,2,B,2023-12-05_09h57.04.226,gca_avoidance_task,2022.2.4,144.1001092117713,
positions.xlsx,stimuli.xlsx,stimuli/Social2.png,stimuli/Social1.png,stimuli/Nonsocial1.png,stimuli/Nonsocial2.png,,"(0.7, 0.5)",cs_minus_s,,,,,0,0,0,0,,,,,,,,,3,3,51,6,,,,,,,,,,,,,,,,,,,,,,,,,,,,,,,,,,,,,,,,,,,,,,,,,,,,,,,,,,1360.1721162999747,1361.727603700012,1359.665245699929,1361.727603700012,1361.727603700012,1361.727603700012,0.006220799987204373,0.013538999948650599,205,reward,1,[0.5358484999742359],[0.5358522000024095],1362.269250000012,1362.269250000012,0.007099200040102005,0.007099200040102005,0.018031799932941794,0.05268269998487085,0.05970260000322014,0.10136989993043244,0.10826460004318506,1.0040870000375435,1365.7621617999393,1369.3523469000356,,,,,,,,,,,,,,,,,,,,,,,,,,,,,2,B,2023-12-05_09h57.04.226,gca_avoidance_task,2022.2.4,144.1001092117713,
positions.xlsx,stimuli.xlsx,stimuli/Social2.png,stimuli/Social1.png,stimuli/Nonsocial1.png,stimuli/Nonsocial2.png,,"(-0.7, 0.5)",cs_plus_ns,,,,,0,0,0,0,,,,,,,,,3,4,52,8,,,,,,,,,,,,,,,,,,,,,,,,,,,,,,,,,,,,,,,,,,,,,,,,,,,,,,,,,,1369.8591771000065,1371.3869124000194,1369.3523469000356,1371.3869124000194,1371.3869124000194,1371.3869124000194,0.006856600055471063,0.013602699968032539,205,none,0,,,1376.3936583999312,1376.3936583999312,0.01439969998318702,0.01439969998318702,0.020330199971795082,0.05507160001434386,0.06197969999630004,0.10369540005922318,0.11062379996292293,1.0132789999479428,1379.8866594999563,1383.8864986000117,,,,,,,,,,,,,,,,,,,,,,,,,,,,,2,B,2023-12-05_09h57.04.226,gca_avoidance_task,2022.2.4,144.1001092117713,
positions.xlsx,stimuli.xlsx,stimuli/Social2.png,stimuli/Social1.png,stimuli/Nonsocial1.png,stimuli/Nonsocial2.png,,"(-0.7, -0.5)",cs_minus_ns,,,,,0,0,0,0,,,,,,,,,3,5,53,13,,,,,,,,,,,,,,,,,,,,,,,,,,,,,,,,,,,,,,,,,,,,,,,,,,,,,,,,,,1384.3933250999544,1385.7682794999564,1383.8864986000117,1385.7682794999564,1385.7682794999564,1385.7682794999564,0.007021300029009581,0.013154400046914816,210,reward,1,[0.5491009999532253],[0.549104499979876],1386.323827699991,1386.323827699991,0.008798800059594214,0.008798800059594214,0.01842990005388856,0.05309169995598495,0.06003559997770935,0.10168359999079257,0.10869929997716099,1.0044506000122055,1389.8167881999398,1394.21238859999,,,,,,,,,,,,,,,,,,,,,,,,,,,,,2,B,2023-12-05_09h57.04.226,gca_avoidance_task,2022.2.4,144.1001092117713,
positions.xlsx,stimuli.xlsx,stimuli/Social2.png,stimuli/Social1.png,stimuli/Nonsocial1.png,stimuli/Nonsocial2.png,,"(-0.7, 0.5)",cs_plus_s,,,,,0,0,0,0,,,,,,,,,3,6,54,0,,,,,,,,,,,,,,,,,,,,,,,,,,,,,,,,,,,,,,,,,,,,,,,,,,,,,,,,,,1394.719304200029,1395.830356999999,1394.21238859999,1395.830356999999,1395.830356999999,1395.830356999999,0.006324599962681532,0.013426199904643,210,none,0,,,1400.8370884000324,1400.8370884000324,0.014317699940875173,0.014317699940875173,0.02023249992635101,0.05486369994468987,0.06182599999010563,0.10346089990343899,0.11043099989183247,1.0131098999409005,1404.3300339999842,1408.6215505000437,,,,,,,,,,,,,,,,,,,,,,,,,,,,,2,B,2023-12-05_09h57.04.226,gca_avoidance_task,2022.2.4,144.1001092117713,
positions.xlsx,stimuli.xlsx,stimuli/Social2.png,stimuli/Social1.png,stimuli/Nonsocial1.png,stimuli/Nonsocial2.png,,"(-0.7, 0.5)",cs_minus_ns,,,,,0,0,0,0,,,,,,,,,3,7,55,12,,,,,,,,,,,,,,,,,,,,,,,,,,,,,,,,,,,,,,,,,,,,,,,,,,,,,,,,,,1409.1284496999579,1410.218650899944,1408.6215505000437,1410.218650899944,1410.218650899944,1410.218650899944,0.007365599973127246,0.013148300000466406,215,reward,1,[0.36817169992718846],[0.36817569995764643],1410.593602900044,1410.593602900044,0.008860600064508617,0.008860600064508617,0.018765200045891106,0.05344429996330291,0.060411600046791136,0.10206880001351237,0.10902279999572784,1.0048050000332296,1414.08656039997,1418.1489464000333,,,,,,,,,,,,,,,,,,,,,,,,,,,,,2,B,2023-12-05_09h57.04.226,gca_avoidance_task,2022.2.4,144.1001092117713,
positions.xlsx,stimuli.xlsx,stimuli/Social2.png,stimuli/Social1.png,stimuli/Nonsocial1.png,stimuli/Nonsocial2.png,,"(0.7, -0.5)",cs_minus_s,,,,,0,0,0,0,,,,,,,,,3,8,56,7,,,,,,,,,,,,,,,,,,,,,,,,,,,,,,,,,,,,,,,,,,,,,,,,,,,,,,,,,,1418.655788199976,1420.12102890003,1418.1489464000333,1420.12102890003,1420.12102890003,1420.12102890003,0.006192700006067753,0.013384600053541362,220,reward,1,[0.4241153000621125],[0.42411900009028614],1420.55158259999,1420.55158259999,0.009436000022105873,0.009436000022105873,0.018089800025336444,0.05273220001254231,0.059706400032155216,0.10133730003144592,0.10832200001459569,1.004132300033234,1424.0444697999628,1427.6137722999556,,,,,,,,,,,,,,,,,,,,,,,,,,,,,2,B,2023-12-05_09h57.04.226,gca_avoidance_task,2022.2.4,144.1001092117713,
positions.xlsx,stimuli.xlsx,stimuli/Social2.png,stimuli/Social1.png,stimuli/Nonsocial1.png,stimuli/Nonsocial2.png,,"(0.7, -0.5)",cs_minus_ns,,,,,0,0,0,0,,,,,,,,,3,9,57,15,,,,,,,,,,,,,,,,,,,,,,,,,,,,,,,,,,,,,,,,,,,,,,,,,,,,,,,,,,1428.1207057000138,1430.0372666999465,1427.6137722999556,1430.0372666999465,1430.0372666999465,1430.0372666999465,0.006858099950477481,0.013118400005623698,225,reward,1,[0.5626051999861374],[0.5626086000120267],1430.6066826999886,1430.6066826999886,0.008613900048658252,0.008613900048658252,0.018496300093829632,0.05325770005583763,0.06013570004142821,0.10180180007591844,0.10878980008419603,1.0045350000727922,1434.0996194999898,1437.891184899956,,,,,,,,,,,,,,,,,,,,,,,,,,,,,2,B,2023-12-05_09h57.04.226,gca_avoidance_task,2022.2.4,144.1001092117713,
positions.xlsx,stimuli.xlsx,stimuli/Social2.png,stimuli/Social1.png,stimuli/Nonsocial1.png,stimuli/Nonsocial2.png,,"(-0.7, 0.5)",cs_minus_s,,,,,0,0,0,0,,,,,,,,,3,10,58,4,,,,,,,,,,,,,,,,,,,,,,,,,,,,,,,,,,,,,,,,,,,,,,,,,,,,,,,,,,1438.3980304000434,1439.9743579999777,1437.891184899956,1439.9743579999777,1439.9743579999777,1439.9743579999777,0.006285400013439357,0.012969399918802083,230,reward,1,[0.5624600999290124],[0.5624636999564245],1440.543770999997,1440.543770999997,0.007819500053301454,0.007819500053301454,0.018734700046479702,0.05340760003309697,0.06037850002758205,0.10202400002162904,0.10897679999470711,1.0047907000407577,1444.0367639999604,1448.2865437000291,,,,,,,,,,,,,,,,,,,,,,,,,,,,,2,B,2023-12-05_09h57.04.226,gca_avoidance_task,2022.2.4,144.1001092117713,
positions.xlsx,stimuli.xlsx,stimuli/Social2.png,stimuli/Social1.png,stimuli/Nonsocial1.png,stimuli/Nonsocial2.png,,"(0.7, 0.5)",cs_plus_s,,,,,0,0,0,0,,,,,,,,,3,11,59,2,,,,,,,,,,,,,,,,,,,,,,,,,,,,,,,,,,,,,,,,,,,,,,,,,,,,,,,,,,1448.7934332999866,1450.5989251999417,1448.2865437000291,1450.5989251999417,1450.5989251999417,1450.5989251999417,0.00638869998510927,0.013500000000931323,230,shock,1,[0.3059686999768019],[0.3059722000034526],1450.911375900032,1450.911375900032,0.008147999993525445,0.008147999993525445,0.018706899951212108,0.05336410005111247,0.06037039996590465,0.10199049999937415,0.10896900005172938,1.0047664999729022,1454.4043639999582,1457.9667082999367,,,,,,,,,,,,,,,,,,,,,,,,,,,,,2,B,2023-12-05_09h57.04.226,gca_avoidance_task,2022.2.4,144.1001092117713,
positions.xlsx,stimuli.xlsx,stimuli/Social2.png,stimuli/Social1.png,stimuli/Nonsocial1.png,stimuli/Nonsocial2.png,,"(-0.7, -0.5)",cs_plus_ns,,,,,0,0,0,0,,,,,,,,,3,12,60,9,,,,,,,,,,,,,,,,,,,,,,,,,,,,,,,,,,,,,,,,,,,,,,,,,,,,,,,,,,1458.4735490999883,1460.4735336999875,1457.9667082999367,1460.4735336999875,1460.4735336999875,1460.4735336999875,0.007351499982178211,0.013327299966476858,230,none,0,,,1465.4802573999623,1465.4802573999623,0.014727700036019087,0.014727700036019087,0.020059800008311868,0.05475570005364716,0.06168759998399764,0.10335630003828555,0.11028899997472763,1.0130679999710992,1468.973163299961,1473.105015499983,,,,,,,,,,,,,,,,,,,,,,,,,,,,,2,B,2023-12-05_09h57.04.226,gca_avoidance_task,2022.2.4,144.1001092117713,
positions.xlsx,stimuli.xlsx,stimuli/Social2.png,stimuli/Social1.png,stimuli/Nonsocial1.png,stimuli/Nonsocial2.png,,"(0.7, 0.5)",cs_minus_ns,,,,,0,0,0,0,,,,,,,,,3,13,61,14,,,,,,,,,,,,,,,,,,,,,,,,,,,,,,,,,,,,,,,,,,,,,,,,,,,,,,,,,,1473.611923199962,1474.7090571000008,1473.105015499983,1474.7090571000008,1474.7090571000008,1474.7090571000008,0.007014899980276823,0.012616099906153977,235,reward,1,[0.5343444999307394],[0.5343482999596745],1475.2506824999582,1475.2506824999582,0.008359799976460636,0.008359799976460636,0.0186414000345394,0.053308899980038404,0.06027909996919334,0.10195959999691695,0.10893630003556609,1.0046679000370204,1478.7436510999687,1482.65320099995,,,,,,,,,,,,,,,,,,,,,,,,,,,,,2,B,2023-12-05_09h57.04.226,gca_avoidance_task,2022.2.4,144.1001092117713,
positions.xlsx,stimuli.xlsx,stimuli/Social2.png,stimuli/Social1.png,stimuli/Nonsocial1.png,stimuli/Nonsocial2.png,,"(-0.7, -0.5)",cs_plus_s,,,,,0,0,0,0,,,,,,,,,3,14,62,1,,,,,,,,,,,,,,,,,,,,,,,,,,,,,,,,,,,,,,,,,,,,,,,,,,,,,,,,,,1483.160059900023,1484.9308053000132,1482.65320099995,1484.9308053000132,1484.9308053000132,1484.9308053000132,0.006398200057446957,0.013273600023239851,235,none,0,,,1489.9375808000332,1489.9375808000332,0.014329200028441846,0.014329200028441846,0.020052900072187185,0.054648500052280724,0.06163030001334846,0.10334260005038232,0.1102706000674516,1.012970400042832,1493.4305457000155,1497.2914979000343,,,,,,,,,,,,,,,,,,,,,,,,,,,,,2,B,2023-12-05_09h57.04.226,gca_avoidance_task,2022.2.4,144.1001092117713,
positions.xlsx,stimuli.xlsx,stimuli/Social2.png,stimuli/Social1.png,stimuli/Nonsocial1.png,stimuli/Nonsocial2.png,,"(-0.7, -0.5)",cs_minus_s,,,,,0,0,0,0,,,,,,,,,3,15,63,5,,,,,,,,,,,,,,,,,,,,,,,,,,,,,,,,,,,,,,,,,,,,,,,,,,,,,,,,,,1497.798376300023,1499.6524611000204,1497.2914979000343,1499.6524611000204,1499.6524611000204,1499.6524611000204,0.006751699955202639,0.013281999970786273,240,reward,1,[0.6114866000134498],[0.6114900999236852],1500.2704985999735,1500.2704985999735,0.007728299940936267,0.007728299940936267,0.018679199973121285,0.05334679991938174,0.060347799910232425,0.10192960000131279,0.10892639996018261,1.0046543999342248,1503.7633918999927,1507.4368803999387,,,,,,,,,,,,,,,,,,,,,,,,,,,,,2,B,2023-12-05_09h57.04.226,gca_avoidance_task,2022.2.4,144.1001092117713,
positions.xlsx,stimuli.xlsx,stimuli/Social2.png,stimuli/Social1.png,stimuli/Nonsocial1.png,stimuli/Nonsocial2.png,,"(0.7, 0.5)",cs_plus_ns,,,,,0,0,0,0,,,,,,,,,4,0,64,10,,,,,,,,,,,,,,,,,,,,,,,,,,,,,,,,,,,,,,,,,,,,,,,,,,,,,,,,,,1507.9437579000369,1509.7631254999433,1507.4368803999387,1509.7631254999433,1509.7631254999433,1509.7631254999433,0.007458899985067546,0.013238499988801777,240,none,0,,,1514.7767937999452,1514.7767937999452,0.014787899912334979,0.014787899912334979,0.026942299911752343,0.05463279993273318,0.06160779995843768,0.10325309995096177,0.11020569992251694,1.0129708999302238,1518.262814900023,1522.0473972000182,,,,,,,,,,,,,,,,,,,,,,,,,,,,,2,B,2023-12-05_09h57.04.226,gca_avoidance_task,2022.2.4,144.1001092117713,
positions.xlsx,stimuli.xlsx,stimuli/Social2.png,stimuli/Social1.png,stimuli/Nonsocial1.png,stimuli/Nonsocial2.png,,"(0.7, 0.5)",cs_plus_s,,,,,0,0,0,0,,,,,,,,,4,1,65,2,,,,,,,,,,,,,,,,,,,,,,,,,,,,,,,,,,,,,,,,,,,,,,,,,,,,,,,,,,1522.5542774000205,1523.984765399946,1522.0473972000182,1523.984765399946,1523.984765399946,1523.984765399946,0.007103399955667555,0.012785100028850138,240,none,0,,,1528.991582699935,1528.991582699935,0.01412119995802641,0.01412119995802641,0.019664600025862455,0.054307700018398464,0.061251800041645765,0.10287089995108545,0.10977590002585202,1.0125649999827147,1532.4844908999512,1536.3523687999696,,,,,,,,,,,,,,,,,,,,,,,,,,,,,2,B,2023-12-05_09h57.04.226,gca_avoidance_task,2022.2.4,144.1001092117713,
positions.xlsx,stimuli.xlsx,stimuli/Social2.png,stimuli/Social1.png,stimuli/Nonsocial1.png,stimuli/Nonsocial2.png,,"(0.7, -0.5)",cs_plus_s,,,,,0,0,0,0,,,,,,,,,4,2,66,3,,,,,,,,,,,,,,,,,,,,,,,,,,,,,,,,,,,,,,,,,,,,,,,,,,,,,,,,,,1536.8592334999703,1538.3453239999944,1536.3523687999696,1538.3453239999944,1538.3453239999944,1538.3453239999944,0.006282699992880225,0.013232599943876266,240,none,0,,,1543.352052000002,1543.352052000002,0.014843299984931946,0.014843299984931946,0.01997070002835244,0.054652699967846274,0.06162229995243251,0.10322869999799877,0.11020819994155318,1.0129102999344468,1546.844954399974,1550.4628880999517,,,,,,,,,,,,,,,,,,,,,,,,,,,,,2,B,2023-12-05_09h57.04.226,gca_avoidance_task,2022.2.4,144.1001092117713,
positions.xlsx,stimuli.xlsx,stimuli/Social2.png,stimuli/Social1.png,stimuli/Nonsocial1.png,stimuli/Nonsocial2.png,,"(-0.7, -0.5)",cs_plus_s,,,,,0,0,0,0,,,,,,,,,4,3,67,1,,,,,,,,,,,,,,,,,,,,,,,,,,,,,,,,,,,,,,,,,,,,,,,,,,,,,,,,,,1550.9697883999906,1552.3169308999786,1550.4628880999517,1552.3169308999786,1552.3169308999786,1552.3169308999786,0.006601900095120072,0.013100799988023937,240,none,0,,,1557.3236736999825,1557.3236736999825,0.01405900006648153,0.01405900006648153,0.019865900045260787,0.05455590004567057,0.061507000005804,0.10320460004732013,0.11015560000669211,1.0128361000679433,1560.816645200015,1564.9067181999562,,,,,,,,,,,,,,,,,,,,,,,,,,,,,2,B,2023-12-05_09h57.04.226,gca_avoidance_task,2022.2.4,144.1001092117713,
positions.xlsx,stimuli.xlsx,stimuli/Social2.png,stimuli/Social1.png,stimuli/Nonsocial1.png,stimuli/Nonsocial2.png,,"(0.7, -0.5)",cs_minus_ns,,,,,0,0,0,0,,,,,,,,,4,4,68,15,,,,,,,,,,,,,,,,,,,,,,,,,,,,,,,,,,,,,,,,,,,,,,,,,,,,,,,,,,1565.4136176999891,1566.5038722000318,1564.9067181999562,1566.5038722000318,1566.5038722000318,1566.5038722000318,0.007160299923270941,0.013155199936591089,245,reward,1,[0.5905197999672964],[0.59052349999547],1567.1011069000233,1567.1011069000233,0.008266299962997437,0.008266299962997437,0.018587399972602725,0.05320740002207458,0.060161200002767146,0.1018346999771893,0.1087708999402821,1.0045910000335425,1570.5940241999924,1574.107765999972,,,,,,,,,,,,,,,,,,,,,,,,,,,,,2,B,2023-12-05_09h57.04.226,gca_avoidance_task,2022.2.4,144.1001092117713,
positions.xlsx,stimuli.xlsx,stimuli/Social2.png,stimuli/Social1.png,stimuli/Nonsocial1.png,stimuli/Nonsocial2.png,,"(-0.7, 0.5)",cs_plus_ns,,,,,0,0,0,0,,,,,,,,,4,5,69,8,,,,,,,,,,,,,,,,,,,,,,,,,,,,,,,,,,,,,,,,,,,,,,,,,,,,,,,,,,1574.614629699965,1576.017362399958,1574.107765999972,1576.017362399958,1576.017362399958,1576.017362399958,0.007267000037245452,0.013200300047174096,245,none,0,,,1581.0310695000226,1581.0310695000226,0.014951399993151426,0.014951399993151426,0.026927400031127036,0.05461300001479685,0.061527500045485795,0.10319200006779283,0.11018170008901507,1.0128697000909597,1584.5170046000276,1588.2251943999436,,,,,,,,,,,,,,,,,,,,,,,,,,,,,2,B,2023-12-05_09h57.04.226,gca_avoidance_task,2022.2.4,144.1001092117713,
positions.xlsx,stimuli.xlsx,stimuli/Social2.png,stimuli/Social1.png,stimuli/Nonsocial1.png,stimuli/Nonsocial2.png,,"(-0.7, -0.5)",cs_minus_s,,,,,0,0,0,0,,,,,,,,,4,6,70,5,,,,,,,,,,,,,,,,,,,,,,,,,,,,,,,,,,,,,,,,,,,,,,,,,,,,,,,,,,1588.7321156000253,1589.9125936999917,1588.2251943999436,1589.9125936999917,1589.9125936999917,1589.9125936999917,0.006847599986940622,0.013155199936591089,250,reward,1,[0.4863442999776453],[0.48634830000810325],1590.405645599938,1590.405645599938,0.007879600045271218,0.007879600045271218,0.018444200046360493,0.053095700102858245,0.06008970004040748,0.10172220005188137,0.10868540010415018,1.0044504000106826,1593.8985593999969,1597.7317564999685,,,,,,,,,,,,,,,,,,,,,,,,,,,,,2,B,2023-12-05_09h57.04.226,gca_avoidance_task,2022.2.4,144.1001092117713,
positions.xlsx,stimuli.xlsx,stimuli/Social2.png,stimuli/Social1.png,stimuli/Nonsocial1.png,stimuli/Nonsocial2.png,,"(-0.7, 0.5)",cs_minus_s,,,,,0,0,0,0,,,,,,,,,4,7,71,4,,,,,,,,,,,,,,,,,,,,,,,,,,,,,,,,,,,,,,,,,,,,,,,,,,,,,,,,,,1598.2386590000242,1599.7316398000112,1597.7317564999685,1599.7316398000112,1599.7316398000112,1599.7316398000112,0.006763199926353991,0.01335209992248565,255,reward,1,[0.43783629999961704],[0.43783979990985245],1600.1761293000309,1600.1761293000309,0.007695000036619604,0.007695000036619604,0.018314999993890524,0.052931000012904406,0.05988900002557784,0.10150300001259893,0.10849130002316087,1.0042752000736073,1603.6690067999298,1607.4466556999832,,,,,,,,,,,,,,,,,,,,,,,,,,,,,2,B,2023-12-05_09h57.04.226,gca_avoidance_task,2022.2.4,144.1001092117713,
positions.xlsx,stimuli.xlsx,stimuli/Social2.png,stimuli/Social1.png,stimuli/Nonsocial1.png,stimuli/Nonsocial2.png,,"(-0.7, -0.5)",cs_minus_ns,,,,,0,0,0,0,,,,,,,,,4,8,72,13,,,,,,,,,,,,,,,,,,,,,,,,,,,,,,,,,,,,,,,,,,,,,,,,,,,,,,,,,,1607.9535343999742,1609.9603871,1607.4466556999832,1609.9603871,1609.9603871,1609.9603871,0.007140400004573166,0.012693299911916256,260,reward,1,[0.4093680999940261],[0.4093849000055343],1610.377043299959,1610.377043299959,0.007946699974127114,0.007946699974127114,0.018429400050081313,0.05310180003289133,0.06009569996967912,0.10172929998952895,0.10867550002876669,1.004455400048755,1613.8699488999555,1617.8073341000127,,,,,,,,,,,,,,,,,,,,,,,,,,,,,2,B,2023-12-05_09h57.04.226,gca_avoidance_task,2022.2.4,144.1001092117713,
positions.xlsx,stimuli.xlsx,stimuli/Social2.png,stimuli/Social1.png,stimuli/Nonsocial1.png,stimuli/Nonsocial2.png,,"(0.7, 0.5)",cs_minus_s,,,,,0,0,0,0,,,,,,,,,4,9,73,6,,,,,,,,,,,,,,,,,,,,,,,,,,,,,,,,,,,,,,,,,,,,,,,,,,,,,,,,,,1618.3142005000263,1620.0710954000242,1617.8073341000127,1620.0710954000242,1620.0710954000242,1620.0710954000242,0.006858600070700049,0.013332600006833673,265,reward,1,[0.4863284999737516],[0.48633220000192523],1620.5641392000252,1620.5641392000252,0.007670000079087913,0.007670000079087913,0.01862370001617819,0.05322990007698536,0.060216300073079765,0.10191520000807941,0.10886530007701367,1.0046174000017345,1624.0570865999907,1628.2791355999652,,,,,,,,,,,,,,,,,,,,,,,,,,,,,2,B,2023-12-05_09h57.04.226,gca_avoidance_task,2022.2.4,144.1001092117713,
positions.xlsx,stimuli.xlsx,stimuli/Social2.png,stimuli/Social1.png,stimuli/Nonsocial1.png,stimuli/Nonsocial2.png,,"(-0.7, -0.5)",cs_plus_ns,,,,,0,0,0,0,,,,,,,,,4,10,74,9,,,,,,,,,,,,,,,,,,,,,,,,,,,,,,,,,,,,,,,,,,,,,,,,,,,,,,,,,,1628.7859806999331,1630.4386685999343,1628.2791355999652,1630.4386685999343,1630.4386685999343,1630.4386685999343,0.007818799931555986,0.013238599989563227,265,none,0,,,1635.4523971999297,1635.4523971999297,0.015151400002650917,0.015151400002650917,0.027012199978344142,0.054666099953465164,0.0616553999716416,0.10332409990951419,0.1102738999761641,1.0130367999663576,1638.938361800043,1642.5910508999368,,,,,,,,,,,,,,,,,,,,,,,,,,,,,2,B,2023-12-05_09h57.04.226,gca_avoidance_task,2022.2.4,144.1001092117713,
positions.xlsx,stimuli.xlsx,stimuli/Social2.png,stimuli/Social1.png,stimuli/Nonsocial1.png,stimuli/Nonsocial2.png,,"(-0.7, 0.5)",cs_plus_s,,,,,0,0,0,0,,,,,,,,,4,11,75,0,,,,,,,,,,,,,,,,,,,,,,,,,,,,,,,,,,,,,,,,,,,,,,,,,,,,,,,,,,1643.0979148999322,1644.139534899965,1642.5910508999368,1644.139534899965,1644.139534899965,1644.139534899965,0.006556899985298514,0.0134883999126032,265,none,0,,,1649.1462734999368,1649.1462734999368,0.014319899957627058,0.014319899957627058,0.020230699912644923,0.05489139992278069,0.06188069994095713,0.10353279998525977,0.11048059992026538,1.013184499926865,1652.6392107999418,1656.1738164999988,,,,,,,,,,,,,,,,,,,,,,,,,,,,,2,B,2023-12-05_09h57.04.226,gca_avoidance_task,2022.2.4,144.1001092117713,
positions.xlsx,stimuli.xlsx,stimuli/Social2.png,stimuli/Social1.png,stimuli/Nonsocial1.png,stimuli/Nonsocial2.png,,"(0.7, -0.5)",cs_minus_s,,,,,0,0,0,0,,,,,,,,,4,12,76,7,,,,,,,,,,,,,,,,,,,,,,,,,,,,,,,,,,,,,,,,,,,,,,,,,,,,,,,,,,1656.6806947999867,1658.1736330999993,1656.1738164999988,1658.1736330999993,1658.1736330999993,1658.1736330999993,0.00662430003285408,0.013376799994148314,270,reward,1,[0.5490717999637127],[0.5490754999918863],1658.7291999999434,1658.7291999999434,0.00821710005402565,0.00821710005402565,0.018273100024089217,0.052978700026869774,0.05995929997880012,0.10153089999221265,0.10850830003619194,1.0042990000220016,1662.2221784000285,1665.8261908999411,,,,,,,,,,,,,,,,,,,,,,,,,,,,,2,B,2023-12-05_09h57.04.226,gca_avoidance_task,2022.2.4,144.1001092117713,
positions.xlsx,stimuli.xlsx,stimuli/Social2.png,stimuli/Social1.png,stimuli/Nonsocial1.png,stimuli/Nonsocial2.png,,"(0.7, -0.5)",cs_plus_ns,,,,,0,0,0,0,,,,,,,,,4,13,77,11,,,,,,,,,,,,,,,,,,,,,,,,,,,,,,,,,,,,,,,,,,,,,,,,,,,,,,,,,,1666.3330972000258,1667.4857962999959,1665.8261908999411,1667.4857962999959,1667.4857962999959,1667.4857962999959,0.007715899962931871,0.013052599970251322,270,none,0,,,1672.4994762999704,1672.4994762999704,0.015001299907453358,0.015001299907453358,0.02667900000233203,0.05439099995419383,0.06136179994791746,0.10303199989721179,0.1099931999342516,1.0127112999325618,1675.98550109996,1680.25618269993,,,,,,,,,,,,,,,,,,,,,,,,,,,,,2,B,2023-12-05_09h57.04.226,gca_avoidance_task,2022.2.4,144.1001092117713,
positions.xlsx,stimuli.xlsx,stimuli/Social2.png,stimuli/Social1.png,stimuli/Nonsocial1.png,stimuli/Nonsocial2.png,,"(-0.7, 0.5)",cs_minus_ns,,,,,0,0,0,0,,,,,,,,,4,14,78,12,,,,,,,,,,,,,,,,,,,,,,,,,,,,,,,,,,,,,,,,,,,,,,,,,,,,,,,,,,1680.7629783999873,1682.5615388000151,1680.25618269993,1682.5615388000151,1682.5615388000151,1682.5615388000151,0.007335799979045987,0.01309419993776828,275,reward,1,[0.548744099913165],[0.5487478999421],1683.1171147000277,1683.1171147000277,0.008370900060981512,0.008370900060981512,0.018468900001607835,0.05313360004220158,0.06008970004040748,0.10171339998487383,0.10872000001836568,1.0044531000312418,1686.6100610999856,1691.0543286999455,,,,,,,,,,,,,,,,,,,,,,,,,,,,,2,B,2023-12-05_09h57.04.226,gca_avoidance_task,2022.2.4,144.1001092117713,
positions.xlsx,stimuli.xlsx,stimuli/Social2.png,stimuli/Social1.png,stimuli/Nonsocial1.png,stimuli/Nonsocial2.png,,"(0.7, 0.5)",cs_minus_ns,,,,,0,0,0,0,,,,,,,,,4,15,79,14,,,,,,,,,,,,,,,,,,,,,,,,,,,,,,,,,,,,,,,,,,,,,,,,,,,,,,,,,,1691.5611363999778,1693.1236069999868,1691.0543286999455,1693.1236069999868,1693.1236069999868,1693.1236069999868,0.0072484000120311975,0.01304099999833852,280,reward,1,[0.4377539000706747],[0.4377572999801487],1693.5680427999469,1693.5680427999469,0.008316399995237589,0.008316399995237589,0.01848289999179542,0.053135600057430565,0.06007790006697178,0.10177360009402037,0.1087054000236094,1.0045268000103533,1697.0609376999782,1700.1025058999658,,,,,,,,,,,,,,,,,,,,,,,,,,,,,2,B,2023-12-05_09h57.04.226,gca_avoidance_task,2022.2.4,144.1001092117713,
positions.xlsx,stimuli.xlsx,stimuli/Social2.png,stimuli/Social1.png,stimuli/Nonsocial1.png,stimuli/Nonsocial2.png,cs_minus_s,,,,,,,0,0,0,0,,,,,,,,,,,,,0,0,0,2,,,,,,,,,,,,,,,,,,,,,,,,,,,,,,,,,,,,,,,,,,,1707.081369200023,1707.081369200023,1709.6715363999829,8.0,2.57969869999215,space,0.891594500048086,,,,,,,,,,,,,,,,,,,,,,,,,,,,,,,,,,,,1700.1025058999658,1700.1025058999658,1700.1025058999658,1700.1025058999658,1700.1025058999658,1700.1025058999658,1705.3661596999737,5.0,5.250185100012459,space,1.6763115000212565,,,,,,,,,,,,2,B,2023-12-05_09h57.04.226,gca_avoidance_task,2022.2.4,144.1001092117713,
positions.xlsx,stimuli.xlsx,stimuli/Social2.png,stimuli/Social1.png,stimuli/Nonsocial1.png,stimuli/Nonsocial2.png,cs_plus_s,,,,,,,0,0,0,0,,,,,,,,,,,,,0,1,1,0,,,,,,,,,,,,,,,,,,,,,,,,,,,,,,,,,,,,,,,,,,,1710.6020948999794,1710.6020948999794,1712.8172652999638,7.0,2.201607199967839,space,1.0098175999009982,,,,,,,,,,,,,,,,,,,,,,,,,,,,,,,,,,,,,,,,,,,,,,,,,,,,,,,,,,2,B,2023-12-05_09h57.04.226,gca_avoidance_task,2022.2.4,144.1001092117713,
positions.xlsx,stimuli.xlsx,stimuli/Social2.png,stimuli/Social1.png,stimuli/Nonsocial1.png,stimuli/Nonsocial2.png,cs_plus_ns,,,,,,,0,0,0,0,,,,,,,,,,,,,0,2,2,1,,,,,,,,,,,,,,,,,,,,,,,,,,,,,,,,,,,,,,,,,,,1713.8589153999928,1713.8589153999928,1715.2963195999619,7.0,1.4309397999895737,space,0.8506932999007404,,,,,,,,,,,,,,,,,,,,,,,,,,,,,,,,,,,,,,,,,,,,,,,,,,,,,,,,,,2,B,2023-12-05_09h57.04.226,gca_avoidance_task,2022.2.4,144.1001092117713,
positions.xlsx,stimuli.xlsx,stimuli/Social2.png,stimuli/Social1.png,stimuli/Nonsocial1.png,stimuli/Nonsocial2.png,cs_minus_ns,,,,,,,0,0,0,0,,,,,,,,,,,,,0,3,3,3,,,,,,,,,,,,,,,,,,,,,,,,,,,,,,,,,,,,,,,,,,,1716.185184199945,1716.185184199945,1718.6711905000266,8.0,2.4794271999271587,space,0.939554400043562,,,,,,,,,,,,,,,,,,,,,,,,,,,,,,,,,,,,,,,,,,,,,,,,,,,,,,,,,,2,B,2023-12-05_09h57.04.226,gca_avoidance_task,2022.2.4,144.1001092117713,
positions.xlsx,stimuli.xlsx,stimuli/Social2.png,stimuli/Social1.png,stimuli/Nonsocial1.png,stimuli/Nonsocial2.png,cs_plus_s,,,,,,,0,0,0,0,,,,,,,,,,,,,,,,,0,0,0,0,,,,,,,,,,,,,,,,,,,,,,,,,,,,,,,,,,,,,,,,,,,,,,,,,,,,1723.8445903999964,,,,,,,,,,,,,,,,,,,,,1734.8441872999538,1738.6356492999475,,,,,,,,,,,,,,,,,,1719.6225156999426,1719.6225156999426,space,3.708422699943185,1724.3584385999711,1724.3584385999711,0.02006860007531941,0.02635920001193881,2,"[0.020820499979890883, 5.624026600038633]","[5.5407230000710115, 9.999262599973008]",2,B,2023-12-05_09h57.04.226,gca_avoidance_task,2022.2.4,144.1001092117713,
positions.xlsx,stimuli.xlsx,stimuli/Social2.png,stimuli/Social1.png,stimuli/Nonsocial1.png,stimuli/Nonsocial2.png,cs_minus_s,,,,,,,0,0,0,0,,,,,,,,,,,,,,,,,0,1,1,2,,,,,,,,,,,,,,,,,,,,,,,,,,,,,,,,,,,,,,,,,,,,,,,,,,,,1738.6356492999475,,,,,,,,,,,,,,,,,,,,,1749.6421629999531,1753.794773099944,,,,,,,,,,,,,,,,,,,,,,1739.1494948000181,1739.1494948000181,0.012585900025442243,0.020352100022137165,3,"[0.01329439994879067, 3.9097898999461904, 8.416504699969664]","[3.819518300006166, 8.326246400014497, 9.999848200008273]",2,B,2023-12-05_09h57.04.226,gca_avoidance_task,2022.2.4,144.1001092117713,
positions.xlsx,stimuli.xlsx,stimuli/Social2.png,stimuli/Social1.png,stimuli/Nonsocial1.png,stimuli/Nonsocial2.png,cs_minus_ns,,,,,,,0,0,0,0,,,,,,,,,,,,,,,,,0,2,2,3,,,,,,,,,,,,,,,,,,,,,,,,,,,,,,,,,,,,,,,,,,,,,,,,,,,,1753.794773099944,,,,,,,,,,,,,,,,,,,,,1764.8012965000235,1768.4261112000095,,,,,,,,,,,,,,,,,,,,,,1754.3085782999406,1754.3085782999406,0.01331820001360029,0.020544800092466176,4,"[0.014105300069786608, 1.2086118999868631, 2.8961258000927046, 9.563007000018843]","[0.9933320999844, 2.750410499982536, 9.423643600079231, 9.999919400084764]",2,B,2023-12-05_09h57.04.226,gca_avoidance_task,2022.2.4,144.1001092117713,
positions.xlsx,stimuli.xlsx,stimuli/Social2.png,stimuli/Social1.png,stimuli/Nonsocial1.png,stimuli/Nonsocial2.png,cs_plus_ns,,,,,,,0,0,0,0,,,,,,,,,,,,,,,,,0,3,3,1,,,,,,,,,,,,,,,,,,,,,,,,,,,,,,,,,,,,,,,,,,,,,,,,,,,,1768.4261112000095,,,,,,,,,,,,,,,,,,,,,1779.4326384000015,1783.4810697999783,,,,,,,,,,,,,,,,,,,,,,1768.9399465000024,1768.9399465000024,0.013338499935343862,0.020557799958623946,8,"[0.014151399955153465, 1.2227343999547884, 1.382285499945283, 3.06278159993235, 3.4239798999624327, 5.902879899949767, 6.25028779997956, 9.861063799937256]","[1.1113731999648735, 1.2573564000194892, 2.7919212999986485, 3.3335719999158755, 5.562670400016941, 6.152923199930228, 9.715257499949075, 9.999999799998477]",2,B,2023-12-05_09h57.04.226,gca_avoidance_task,2022.2.4,144.1001092117713,
