posFile,stimFile,cs_plus_s,cs_minus_s,cs_plus_ns,cs_minus_ns,stimtype,position,trialtype,trials_threshold.thisRepN,trials_threshold.thisTrialN,trials_threshold.thisN,trials_threshold.thisIndex,blocks.thisRepN,blocks.thisTrialN,blocks.thisN,blocks.thisIndex,ratingtrials1.thisRepN,ratingtrials1.thisTrialN,ratingtrials1.thisN,ratingtrials1.thisIndex,learning_trials.thisRepN,learning_trials.thisTrialN,learning_trials.thisN,learning_trials.thisIndex,trials.thisRepN,trials.thisTrialN,trials.thisN,trials.thisIndex,ratingtrials2.thisRepN,ratingtrials2.thisTrialN,ratingtrials2.thisN,ratingtrials2.thisIndex,testtrials.thisRepN,testtrials.thisTrialN,testtrials.thisN,testtrials.thisIndex,ratingtrials3.thisRepN,ratingtrials3.thisTrialN,ratingtrials3.thisN,ratingtrials3.thisIndex,textStart.started,spaceStart.started,spaceStart.keys,spaceStart.rt,textPainThreshold.started,spacePainThreshold.started,spacePainThreshold.keys,spacePainThreshold.rt,textRateT.started,text_noPainT.started,text_slightPainT.started,text_highPainT.started,sliderPainT.started,keys_PainT.started,sliderPainT.response,sliderPainT.rt,keys_PainT.keys,keys_PainT.rt,fixcrossT.started,portShock1T.started,portShock1T.stopped,portShock2T.started,portShock2T.stopped,portShock3T.started,portShock3T.stopped,fixcrossT.stopped,text_ETCalibration.started,spaceETCalibration.started,spaceETCalibration.keys,spaceETCalibration.rt,textStartExp.started,spaceStartExp.started,spaceStartExp.keys,spaceStartExp.rt,imageRating.started,sliderStim.started,spaceStim.started,sliderStim.response,sliderStim.rt,spaceStim.keys,spaceStim.rt,textStartTask.started,spaceStartTask.started,spaceStartTask.keys,spaceStartTask.rt,blankScreen.started,blankScreen.stopped,fixcross.started,image.started,roi.started,gazeCursor.started,portImage.started,portImage.stopped,score,outcome,roi.numLooks,roi.timesOn,roi.timesOff,imageFeedback.started,gazeCursor_Feedback.started,soundFeedback.started,portShock1.started,portShock1.stopped,portShock2.started,portShock2.stopped,portShock3.started,portShock3.stopped,soundFeedback.stopped,fixcrossE.started,fixcrossE.stopped,textRepeatTask.started,textboxRepeatInstruction.started,textRepeatSpace.started,spaceRepeatTask.started,spaceRepeatTask.keys,spaceRepeatTask.rt,textRate.started,text_noPain.started,text_slightPain.started,text_highPain.started,sliderPain.started,textSpacePain.started,spacePain.started,sliderPain.response,sliderPain.rt,spacePain.keys,spacePain.rt,textTestInstr.started,spaceTestInstr.started,spaceTestInstr.keys,spaceTestInstr.rt,imageTest.started,roiTest.started,portTestImage.started,portTestImage.stopped,roiTest.numLooks,roiTest.timesOn,roiTest.timesOff,participant,group,date,expName,psychopyVersion,frameRate,
,,,,,,,,,,,,,,,,,,,,,,,,,,,,,,,,,,,,,,,,,16.549206499999855,16.549206499999855,space,2.8637282999698073,,,,,,,,,,,,,,,,,,,,,,,,,,,,,,,,,,,,,,,,,,,,,,,,,,,,,,,,,,,,,,,,,,,,,,,,,,,,,,,,,,,,,,,,,,,,,,,21,B,2023-12-12_14h10.56.183,gca_avoidance_task,2022.2.4,144.0812156605481,
,,,,,,,,,,,,,,,,,,,,,,,,,,,,,,,,,,,,,,,,,,,,,19.424073600035626,19.424073600035626,space,1.357323299976997,,,,,,,,,,,,,,,,,,,,,,,,,,,,,,,,,,,,,,,,,,,,,,,,,,,,,,,,,,,,,,,,,,,,,,,,,,,,,,,,,,,,,,,,,,,21,B,2023-12-12_14h10.56.183,gca_avoidance_task,2022.2.4,144.0812156605481,
,,,,,,,,,0,0,0,0,,,,,,,,,,,,,,,,,,,,,,,,,,,,,,,,,,,,,21.868364299996756,21.868364299996756,21.868364299996756,21.868364299996756,21.868364299996756,21.868364299996756,0.0,10.003653599997051,s,14.60083150002174,37.01358090003487,0.10545959998853505,0.11242399999173358,0.1540476999944076,0.16101500001968816,0.20267229998717085,0.20962410001084208,,,,,,,,,,,,,,,,,,,,,,,,,,,,,,,,,,,,,,,,,,,,,,,,,,,,,,,,,,,,,,,,,,,,,,,,,,21,B,2023-12-12_14h10.56.183,gca_avoidance_task,2022.2.4,144.0812156605481,
,,,,,,,,,1,0,1,0,,,,,,,,,,,,,,,,,,,,,,,,,,,,,,,,,,,,,37.77053270000033,37.77053270000033,37.77053270000033,37.77053270000033,37.77053270000033,37.77053270000033,0.0,3.8064957999740727,s,7.635195099981502,45.95765779999783,0.10271439998177812,0.10966489999555051,0.15139069996075705,0.15834239998366684,0.20000609999988228,0.2069414999568835,46.71461550000822,,,,,,,,,,,,,,,,,,,,,,,,,,,,,,,,,,,,,,,,,,,,,,,,,,,,,,,,,,,,,,,,,,,,,,,,,21,B,2023-12-12_14h10.56.183,gca_avoidance_task,2022.2.4,144.0812156605481,
,,,,,,,,,2,0,2,0,,,,,,,,,,,,,,,,,,,,,,,,,,,,,,,,,,,,,46.71461550000822,46.71461550000822,46.71461550000822,46.71461550000822,46.71461550000822,46.71461550000822,1.0,1.197511799982749,s,5.665946199966129,52.87406580004608,0.10198590002255514,0.10891140002058819,0.1505919999908656,0.1575209000147879,0.19917330000316724,0.20620590000180528,53.63097820000257,,,,,,,,,,,,,,,,,,,,,,,,,,,,,,,,,,,,,,,,,,,,,,,,,,,,,,,,,,,,,,,,,,,,,,,,,21,B,2023-12-12_14h10.56.183,gca_avoidance_task,2022.2.4,144.0812156605481,
,,,,,,,,,3,0,3,0,,,,,,,,,,,,,,,,,,,,,,,,,,,,,,,,,,,,,53.63097820000257,53.63097820000257,53.63097820000257,53.63097820000257,53.63097820000257,53.63097820000257,1.0,1.2947012000367977,s,6.085857499972917,60.22100550000323,0.10270230000605807,0.10970590001670644,0.15131540002766997,0.1582740999874659,0.19995450001442805,0.20688710000831634,60.977891899994574,,,,,,,,,,,,,,,,,,,,,,,,,,,,,,,,,,,,,,,,,,,,,,,,,,,,,,,,,,,,,,,,,,,,,,,,,21,B,2023-12-12_14h10.56.183,gca_avoidance_task,2022.2.4,144.0812156605481,
,,,,,,,,,4,0,4,0,,,,,,,,,,,,,,,,,,,,,,,,,,,,,,,,,,,,,60.977891899994574,60.977891899994574,60.977891899994574,60.977891899994574,60.977891899994574,60.977891899994574,2.0,0.826431000023149,s,4.74659779999638,66.24159510002937,0.10519910004222766,0.11211950000142679,0.15378940000664443,0.16076570004224777,0.20234900002833456,0.2093501000199467,,,,,,,,,,,,,,,,,,,,,,,,,,,,,,,,,,,,,,,,,,,,,,,,,,,,,,,,,,,,,,,,,,,,,,,,,,21,B,2023-12-12_14h10.56.183,gca_avoidance_task,2022.2.4,144.0812156605481,
,,,,,,,,,5,0,5,0,,,,,,,,,,,,,,,,,,,,,,,,,,,,,,,,,,,,,67.0401846000459,67.0401846000459,67.0401846000459,67.0401846000459,67.0401846000459,67.0401846000459,2.0,1.3581503999885172,s,5.940889900026377,73.48436030000448,0.105521299992688,0.11245199997210875,0.15410859999246895,0.16106449998915195,0.20276339998235926,0.20971279998775572,,,,,,,,,,,,,,,,,,,,,,,,,,,,,,,,,,,,,,,,,,,,,,,,,,,,,,,,,,,,,,,,,,,,,,,,,,21,B,2023-12-12_14h10.56.183,gca_avoidance_task,2022.2.4,144.0812156605481,
,,,,,,,,,6,0,6,0,,,,,,,,,,,,,,,,,,,,,,,,,,,,,,,,,,,,,74.36626770003932,74.36626770003932,74.36626770003932,74.36626770003932,74.36626770003932,74.36626770003932,3.0,0.953811899991706,s,4.766371199977584,79.62994300003629,0.10211700003128499,0.10904860001755878,0.15072350000264123,0.15770209999755025,0.19931340002221987,0.20631199999479577,80.38683279999532,,,,,,,,,,,,,,,,,,,,,,,,,,,,,,,,,,,,,,,,,,,,,,,,,,,,,,,,,,,,,,,,,,,,,,,,,21,B,2023-12-12_14h10.56.183,gca_avoidance_task,2022.2.4,144.0812156605481,
,,,,,,,,,7,0,7,0,,,,,,,,,,,,,,,,,,,,,,,,,,,,,,,,,,,,,80.38683279999532,80.38683279999532,80.38683279999532,80.38683279999532,80.38683279999532,80.38683279999532,3.0,1.077305199985858,s,5.209694400022272,86.09497640002519,0.10038319998420775,0.1073768999776803,0.14900209999177605,0.1559850000194274,0.20456410001497716,0.21153859997866675,86.85188880003989,,,,,,,,,,,,,,,,,,,,,,,,,,,,,,,,,,,,,,,,,,,,,,,,,,,,,,,,,,,,,,,,,,,,,,,,,21,B,2023-12-12_14h10.56.183,gca_avoidance_task,2022.2.4,144.0812156605481,
,,,,,,,,,8,0,8,0,,,,,,,,,,,,,,,,,,,,,,,,,,,,,,,,,,,,,86.85188880003989,86.85188880003989,86.85188880003989,86.85188880003989,86.85188880003989,86.85188880003989,3.0,1.1464772999752313,s,5.257739499968011,92.60856940003578,0.10130779998144135,0.10825910000130534,0.14989539998350665,0.1569137999904342,0.20547759998589754,0.2124529000138864,93.40020400000503,,,,,,,,,,,,,,,,,,,,,,,,,,,,,,,,,,,,,,,,,,,,,,,,,,,,,,,,,,,,,,,,,,,,,,,,,21,B,2023-12-12_14h10.56.183,gca_avoidance_task,2022.2.4,144.0812156605481,
,,,,,,,,,9,0,9,0,,,,,,,,,,,,,,,,,,,,,,,,,,,,,,,,,,,,,93.40020400000503,93.40020400000503,93.40020400000503,93.40020400000503,93.40020400000503,93.40020400000503,3.0,1.3079638999770395,s,7.020225499989465,101.1013035000069,0.10328270000172779,0.11021079996135086,0.15187699999660254,0.15884599997662008,0.200443199952133,0.2073936999659054,101.85130189999472,,,,,,,,,,,,,,,,,,,,,,,,,,,,,,,,,,,,,,,,,,,,,,,,,,,,,,,,,,,,,,,,,,,,,,,,,21,B,2023-12-12_14h10.56.183,gca_avoidance_task,2022.2.4,144.0812156605481,
,,,,,,,,,10,0,10,0,,,,,,,,,,,,,,,,,,,,,,,,,,,,,,,,,,,,,101.85130189999472,101.85130189999472,101.85130189999472,101.85130189999472,101.85130189999472,101.85130189999472,3.0,1.277210800035391,s,7.065697800018825,109.41347680002218,0.10309760004747659,0.11002270004246384,0.15168010001070797,0.15862510004080832,0.20029910001903772,0.20722959999693558,110.170383699995,,,,,,,,,,,,,,,,,,,,,,,,,,,,,,,,,,,,,,,,,,,,,,,,,,,,,,,,,,,,,,,,,,,,,,,,,21,B,2023-12-12_14h10.56.183,gca_avoidance_task,2022.2.4,144.0812156605481,
,,,,,,,,,11,0,11,0,,,,,,,,,,,,,,,,,,,,,,,,,,,,,,,,,,,,,110.170383699995,110.170383699995,110.170383699995,110.170383699995,110.170383699995,110.170383699995,4.0,0.8364752999623306,s,5.762365900038276,116.44098020001547,0.10308690002420917,0.11002389999339357,0.1516688999836333,0.15864149999106303,0.20026880002114922,0.20722530002240092,117.19089830003213,,,,,,,,,,,,,,,,,,,,,,,,,,,,,,,,,,,,,,,,,,,,,,,,,,,,,,,,,,,,,,,,,,,,,,,,,21,B,2023-12-12_14h10.56.183,gca_avoidance_task,2022.2.4,144.0812156605481,
,,,,,,,,,12,0,12,0,,,,,,,,,,,,,,,,,,,,,,,,,,,,,,,,,,,,,117.19089830003213,117.19089830003213,117.19089830003213,117.19089830003213,117.19089830003213,117.19089830003213,4.0,1.0802361000096425,s,5.358697600022424,123.04485420003766,0.1012279000133276,0.10821400000713766,0.14986110001336783,0.15681279997806996,0.20538429997395724,0.2124527000123635,123.801767500001,,,,,,,,,,,,,,,,,,,,,,,,,,,,,,,,,,,,,,,,,,,,,,,,,,,,,,,,,,,,,,,,,,,,,,,,,21,B,2023-12-12_14h10.56.183,gca_avoidance_task,2022.2.4,144.0812156605481,
,,,,,,,,,13,0,13,0,,,,,,,,,,,,,,,,,,,,,,,,,,,,,,,,,,,,,123.801767500001,123.801767500001,123.801767500001,123.801767500001,123.801767500001,123.801767500001,5.0,0.9944040999980643,s,5.86681989999488,130.1834654000122,0.09971510001923889,0.10668560001067817,0.1553437000256963,0.16223110002465546,0.20388050004839897,0.21083910000743344,130.94733280001674,,,,,,,,,,,,,,,,,,,,,,,,,,,,,,,,,,,,,,,,,,,,,,,,,,,,,,,,,,,,,,,,,,,,,,,,,21,B,2023-12-12_14h10.56.183,gca_avoidance_task,2022.2.4,144.0812156605481,
,,,,,,,,,14,0,14,0,,,,,,,,,,,,,,,,,,,,,,,,,,,,,,,,,,,,,130.94733280001674,130.94733280001674,130.94733280001674,130.94733280001674,130.94733280001674,130.94733280001674,6.0,0.8660157999838702,s,6.353173199982848,137.81511120003415,0.10358469997299835,0.11054199998034164,0.152192700013984,0.1591727999621071,0.20085839997045696,0.20777480001561344,138.69701220002025,,,,,,,,,,,,,,,,,,,,,,,,,,,,,,,,,,,,,,,,,,,,,,,,,,,,,,,,,,,,,,,,,,,,,,,,,21,B,2023-12-12_14h10.56.183,gca_avoidance_task,2022.2.4,144.0812156605481,
,,,,,,,,,15,0,15,0,,,,,,,,,,,,,,,,,,,,,,,,,,,,,,,,,,,,,138.69701220002025,138.69701220002025,138.69701220002025,138.69701220002025,138.69701220002025,138.69701220002025,6.0,0.8058549000415951,s,5.419652900018264,144.62734440003987,0.10432010004296899,0.1112618000479415,0.15290149999782443,0.15987690002657473,0.20153310004388914,0.20849400002043694,,,,,,,,,,,,,,,,,,,,,,,,,,,,,,,,,,,,,,,,,,,,,,,,,,,,,,,,,,,,,,,,,,,,,,,,,,21,B,2023-12-12_14h10.56.183,gca_avoidance_task,2022.2.4,144.0812156605481,
,,,,,,,,,16,0,16,0,,,,,,,,,,,,,,,,,,,,,,,,,,,,,,,,,,,,,145.3772794000106,145.3772794000106,145.3772794000106,145.3772794000106,145.3772794000106,145.3772794000106,7.0,0.7336187000037171,s,5.659936400013976,151.55068620003294,0.10423190001165494,0.11113099998328835,0.15280849998816848,0.15975839999737218,0.2014359000022523,0.2083792999619618,152.30753460002597,,,,,,,,,,,,,,,,,,,,,,,,,,,,,,,,,,,,,,,,,,,,,,,,,,,,,,,,,,,,,,,,,,,,,,,,,21,B,2023-12-12_14h10.56.183,gca_avoidance_task,2022.2.4,144.0812156605481,
,,,,,,,,,17,0,17,0,,,,,,,,,,,,,,,,,,,,,,,,,,,,,,,,,,,,,152.30753460002597,152.30753460002597,152.30753460002597,152.30753460002597,152.30753460002597,152.30753460002597,7.0,0.8085443999734707,s,6.88167119998252,159.67534410004737,0.10396370000671595,0.11090150004019961,0.15255850000539795,0.159533400030341,0.201139000011608,0.20809120003832504,160.43226950004464,,,,,,,,,,,,,,,,,,,,,,,,,,,,,,,,,,,,,,,,,,,,,,,,,,,,,,,,,,,,,,,,,,,,,,,,,21,B,2023-12-12_14h10.56.183,gca_avoidance_task,2022.2.4,144.0812156605481,
,,,,,,,,,18,0,18,0,,,,,,,,,,,,,,,,,,,,,,,,,,,,,,,,,,,,,160.43226950004464,160.43226950004464,160.43226950004464,160.43226950004464,160.43226950004464,160.43226950004464,7.0,0.6670385000179522,s,7.276532399991993,168.3972210000502,0.10528350004460663,0.11230229999637231,0.15391340001951903,0.1608682000078261,0.20253220002632588,0.20947719999821857,,,,,,,,,,,,,,,,,,,,,,,,,,,,,,,,,,,,,,,,,,,,,,,,,,,,,,,,,,,,,,,,,,,,,,,,,,21,B,2023-12-12_14h10.56.183,gca_avoidance_task,2022.2.4,144.0812156605481,
,,,,,,,,,19,0,19,0,,,,,,,,,,,,,,,,,,,,,,,,,,,,,,,,,,,,,169.14716079999926,169.14716079999926,169.14716079999926,169.14716079999926,169.14716079999926,169.14716079999926,7.0,1.1412209999980405,s,5.698167999973521,175.34135820000665,0.10297770000761375,0.10988840000936761,0.15154059999622405,0.1585135000059381,0.20016280002892017,0.20716869999887422,176.09825480001746,,,,,,,,,,,,,,,,,,,,,,,,,,,,,,,,,,,,,,,,,,,,,,,,,,,,,,,,,,,,,,,,,,,,,,,,,21,B,2023-12-12_14h10.56.183,gca_avoidance_task,2022.2.4,144.0812156605481,
,,,,,,,,,20,0,20,0,,,,,,,,,,,,,,,,,,,,,,,,,,,,,,,,,,,,,176.09825480001746,176.09825480001746,176.09825480001746,176.09825480001746,176.09825480001746,176.09825480001746,6.0,0.9997113000135869,s,7.211067099997308,183.81325380003545,0.10123380000004545,0.10819110000738874,0.149844600004144,0.1567953000194393,0.20545409998157993,0.21239340002648532,184.57022019999567,,,,,,,,,,,,,,,,,,,,,,,,,,,,,,,,,,,,,,,,,,,,,,,,,,,,,,,,,,,,,,,,,,,,,,,,,21,B,2023-12-12_14h10.56.183,gca_avoidance_task,2022.2.4,144.0812156605481,
,,,,,,,,,21,0,21,0,,,,,,,,,,,,,,,,,,,,,,,,,,,,,,,,,,,,,184.57022019999567,184.57022019999567,184.57022019999567,184.57022019999567,184.57022019999567,184.57022019999567,5.0,0.9389738999889232,s,5.834301199996844,190.92407559999265,0.09906390000833198,0.10601829999359325,0.15459609997924417,0.16159789997618645,0.2032105000107549,0.21013040002435446,,,,,,,,,,,,,,,,,,,,,,,,,,,,,,,,,,,,,,,,,,,,,,,,,,,,,,,,,,,,,,,,,,,,,,,,,,21,B,2023-12-12_14h10.56.183,gca_avoidance_task,2022.2.4,144.0812156605481,
,,,,,,,,,22,0,22,0,,,,,,,,,,,,,,,,,,,,,,,,,,,,,,,,,,,,,191.67403749999357,191.67403749999357,191.67403749999357,191.67403749999357,191.67403749999357,191.67403749999357,4.0,1.281804500031285,s,5.603530499967746,197.7779347000178,0.10438109998358414,0.11133189999964088,0.15298329998040572,0.1599417999968864,0.20160189998568967,0.208553500007838,,,,,,,,,,,,,,,,,,,,,,,,,,,,,,,,,,,,,,,,,,,,,,,,,,,,,,,,,,,,,,,,,,,,,,,,,,21,B,2023-12-12_14h10.56.183,gca_avoidance_task,2022.2.4,144.0812156605481,
,,,,,,,,,23,0,23,0,,,,,,,,,,,,,,,,,,,,,,,,,,,,,,,,,,,,,198.53489430004265,198.53489430004265,198.53489430004265,198.53489430004265,198.53489430004265,198.53489430004265,3.0,1.8491512999753468,s,7.821619900001679,206.84705590002704,0.10287470003822818,0.1098411999992095,0.1515281000174582,0.15846130001591519,0.20012600003974512,0.2071037000278011,207.59704810002586,,,,,,,,,,,,,,,,,,,,,,,,,,,,,,,,,,,,,,,,,,,,,,,,,,,,,,,,,,,,,,,,,,,,,,,,,21,B,2023-12-12_14h10.56.183,gca_avoidance_task,2022.2.4,144.0812156605481,
,,,,,,,,,24,0,24,0,,,,,,,,,,,,,,,,,,,,,,,,,,,,,,,,,,,,,207.59704810002586,207.59704810002586,207.59704810002586,207.59704810002586,207.59704810002586,207.59704810002586,4.0,0.5793706999975257,s,5.288190399995074,213.3884758000495,0.1049195000086911,0.11186479998286813,0.15352499997243285,0.16050369996810332,0.20212380000157282,0.20912369998404756,,,,,,,,,,,,,,,,,,,,,,,,,,,,,,,,,,,,,,,,,,,,,,,,,,,,,,,,,,,,,,,,,,,,,,,,,,21,B,2023-12-12_14h10.56.183,gca_avoidance_task,2022.2.4,144.0812156605481,
,,,,,,,,,25,0,25,0,,,,,,,,,,,,,,,,,,,,,,,,,,,,,,,,,,,,,214.1453584000119,214.1453584000119,214.1453584000119,214.1453584000119,214.1453584000119,214.1453584000119,4.0,27.685012700036168,s,42.396367999957874,257.0464306999929,0.10287120001157746,0.10984889999963343,0.15144360001431778,0.15840310003841296,0.20010770001681522,0.20706470002187416,257.80336419999367,,,,,,,,,,,,,,,,,,,,,,,,,,,,,,,,,,,,,,,,,,,,,,,,,,,,,,,,,,,,,,,,,,,,,,,,,21,B,2023-12-12_14h10.56.183,gca_avoidance_task,2022.2.4,144.0812156605481,
,,,,,,,,,26,0,26,0,,,,,,,,,,,,,,,,,,,,,,,,,,,,,,,,,,,,,257.80336419999367,257.80336419999367,257.80336419999367,257.80336419999367,257.80336419999367,257.80336419999367,4.0,0.8951513000065461,s,6.4736926999758,264.7752729000058,0.10017079999670386,0.10712790000252426,0.15584409999428317,0.16277570003876463,0.20443740003975108,0.2113853000337258,265.5322213000036,,,,,,,,,,,,,,,,,,,,,,,,,,,,,,,,,,,,,,,,,,,,,,,,,,,,,,,,,,,,,,,,,,,,,,,,,21,B,2023-12-12_14h10.56.183,gca_avoidance_task,2022.2.4,144.0812156605481,
,,,,,,,,,27,0,27,0,,,,,,,,,,,,,,,,,,,,,,,,,,,,,,,,,,,,,265.5322213000036,265.5322213000036,265.5322213000036,265.5322213000036,265.5322213000036,265.5322213000036,5.0,11.459247999999207,s,18.944896700035315,284.97588060004637,0.10180890001356602,0.1087480999995023,0.1503680999740027,0.1572932999697514,0.19900179997785017,0.2059484000201337,285.7258093000273,,,,,,,,,,,,,,,,,,,,,,,,,,,,,,,,,,,,,,,,,,,,,,,,,,,,,,,,,,,,,,,,,,,,,,,,,21,B,2023-12-12_14h10.56.183,gca_avoidance_task,2022.2.4,144.0812156605481,
,,,,,,,,,28,0,28,0,,,,,,,,,,,,,,,,,,,,,,,,,,,,,,,,,,,,,285.7258093000273,285.7258093000273,285.7258093000273,285.7258093000273,285.7258093000273,285.7258093000273,7.0,0.8740035999799147,s,6.462870599993039,292.6908210000256,0.10028160002548248,0.1072660000063479,0.15582510002423078,0.16276689997175708,0.20443069998873398,0.21142539998982102,293.440815900045,,,,,,,,,,,,,,,,,,,,,,,,,,,,,,,,,,,,,,,,,,,,,,,,,,,,,,,,,,,,,,,,,,,,,,,,,21,B,2023-12-12_14h10.56.183,gca_avoidance_task,2022.2.4,144.0812156605481,
,,,,,,,,,29,0,29,0,,,,,,,,,,,,,,,,,,,,,,,,,,,,,,,,,,,,,293.440815900045,293.440815900045,293.440815900045,293.440815900045,293.440815900045,293.440815900045,7.0,1.1149332000059076,s,5.812962100026198,299.7600124000455,0.10459939995780587,0.11157869995804504,0.1531950999633409,0.16015369998058304,0.20186219998868182,0.20876269997097552,,,,,,,,,,,,,,,,,,,,,,,,,,,,,,,,,,,,,,,,,,,,,,,,,,,,,,,,,,,,,,,,,,,,,,,,,,21,B,2023-12-12_14h10.56.183,gca_avoidance_task,2022.2.4,144.0812156605481,
,,,,,,,,,30,0,30,0,,,,,,,,,,,,,,,,,,,,,,,,,,,,,,,,,,,,,300.6141157000093,300.6141157000093,300.6141157000093,300.6141157000093,300.6141157000093,300.6141157000093,6.0,6.216131300025154,s,11.91074750002008,313.1830646000453,0.1044228000100702,0.11142889998154715,0.15303350001340732,0.15999959997134283,0.20170259999576956,0.20862859999760985,,,,,,,,,,,,,,,,,,,,,,,,,,,,,,,,,,,,,,,,,,,,,,,,,,,,,,,,,,,,,,,,,,,,,,,,,,21,B,2023-12-12_14h10.56.183,gca_avoidance_task,2022.2.4,144.0812156605481,
,,,,,,,,,31,0,31,0,,,,,,,,,,,,,,,,,,,,,,,,,,,,,,,,,,,,,313.93306010001106,313.93306010001106,313.93306010001106,313.93306010001106,313.93306010001106,313.93306010001106,4.0,2.006915800040588,s,9.080629500036594,323.51597569999285,0.10508609999669716,0.11206620000302792,0.15370329999132082,0.16066609998233616,0.202304299979005,0.2092597999726422,,,,,,,,,,,,,,,,,,,,,,,,,,,,,,,,,,,,,,,,,,,,,,,,,,,,,,,,,,,,,,,,,,,,,,,,,,21,B,2023-12-12_14h10.56.183,gca_avoidance_task,2022.2.4,144.0812156605481,
,,,,,,,,,32,0,32,0,,,,,,,,,,,,,,,,,,,,,,,,,,,,,,,,,,,,,324.3284658000339,324.3284658000339,324.3284658000339,324.3284658000339,324.3284658000339,324.3284658000339,5.0,0.6083939999807626,s,6.220276899985038,331.05733290000353,0.10278060002019629,0.10973099997499958,0.15139879996422678,0.15833950001979247,0.20004450000124052,0.2070176000124775,331.8142862000386,,,,,,,,,,,,,,,,,,,,,,,,,,,,,,,,,,,,,,,,,,,,,,,,,,,,,,,,,,,,,,,,,,,,,,,,,21,B,2023-12-12_14h10.56.183,gca_avoidance_task,2022.2.4,144.0812156605481,
,,,,,,,,,33,0,33,0,,,,,,,,,,,,,,,,,,,,,,,,,,,,,,,,,,,,,331.8142862000386,331.8142862000386,331.8142862000386,331.8142862000386,331.8142862000386,331.8142862000386,5.0,2.5413515000254847,s,7.5430799999739975,339.92507759999717,0.10598430002573878,0.11295029998291284,0.1545439999899827,0.1614621999906376,0.2031489000073634,0.21009299997240305,,,,,,,,,,,,,,,,,,,,,,,,,,,,,,,,,,,,,,,,,,,,,,,,,,,,,,,,,,,,,,,,,,,,,,,,,,21,B,2023-12-12_14h10.56.183,gca_avoidance_task,2022.2.4,144.0812156605481,
,,,,,,,,,34,0,34,0,,,,,,,,,,,,,,,,,,,,,,,,,,,,,,,,,,,,,340.6819589000079,340.6819589000079,340.6819589000079,340.6819589000079,340.6819589000079,340.6819589000079,7.0,1.304232900030911,s,7.659232300007716,348.8483393000206,0.1056584999896586,0.11262889998033643,0.15431170002557337,0.16126550000626594,0.20294839999405667,0.20983730000443757,,,,,,,,,,,,,,,,,,,,,,,,,,,,,,,,,,,,,,,,,,,,,,,,,,,,,,,,,,,,,,,,,,,,,,,,,,21,B,2023-12-12_14h10.56.183,gca_avoidance_task,2022.2.4,144.0812156605481,
,,,,,,,,,35,0,35,0,,,,,,,,,,,,,,,,,,,,,,,,,,,,,,,,,,,,,349.60524150001584,349.60524150001584,349.60524150001584,349.60524150001584,349.60524150001584,349.60524150001584,7.0,0.6536115999915637,s,5.448219300014898,355.542520100018,0.10255579999648035,0.10947500000474975,0.15114159998483956,0.15808989998186007,0.1997667999821715,0.20674290001625195,356.292482800025,,,,,,,,,,,,,,,,,,,,,,,,,,,,,,,,,,,,,,,,,,,,,,,,,,,,,,,,,,,,,,,,,,,,,,,,,21,B,2023-12-12_14h10.56.183,gca_avoidance_task,2022.2.4,144.0812156605481,
,,,,,,,,,36,0,36,0,,,,,,,,,,,,,,,,,,,,,,,,,,,,,,,,,,,,,356.292482800025,356.292482800025,356.292482800025,356.292482800025,356.292482800025,356.292482800025,4.0,0.7057855000020936,s,7.008173500013072,363.79215110000223,0.09987709997221828,0.10683930001687258,0.15540069999406114,0.16239929996663705,0.20408039999892935,0.211024499963969,364.5421235000249,,,,,,,,,,,,,,,,,,,,,,,,,,,,,,,,,,,,,,,,,,,,,,,,,,,,,,,,,,,,,,,,,,,,,,,,,21,B,2023-12-12_14h10.56.183,gca_avoidance_task,2022.2.4,144.0812156605481,
,,,,,,,,,37,0,37,0,,,,,,,,,,,,,,,,,,,,,,,,,,,,,,,,,,,,,364.5421235000249,364.5421235000249,364.5421235000249,364.5421235000249,364.5421235000249,364.5421235000249,5.0,0.6701199999661185,s,6.399104600015562,371.4515506000025,0.10180639999452978,0.10872680001193658,0.1503752000280656,0.15736349998041987,0.19905270001618192,0.2059595999890007,372.2084904999938,,,,,,,,,,,,,,,,,,,,,,,,,,,,,,,,,,,,,,,,,,,,,,,,,,,,,,,,,,,,,,,,,,,,,,,,,21,B,2023-12-12_14h10.56.183,gca_avoidance_task,2022.2.4,144.0812156605481,
,,,,,,,,,38,0,38,0,,,,,,,,,,,,,,,,,,,,,,,,,,,,,,,,,,,,,372.2084904999938,372.2084904999938,372.2084904999938,372.2084904999938,372.2084904999938,372.2084904999938,5.0,1.0722679000464268,s,5.62854729994433,378.34018050000304,0.10502529999939725,0.11196880001807585,0.15359020000323653,0.16057020000880584,0.2022016000119038,0.20915640000021085,,,,,,,,,,,,,,,,,,,,,,,,,,,,,,,,,,,,,,,,,,,,,,,,,,,,,,,,,,,,,,,,,,,,,,,,,,21,B,2023-12-12_14h10.56.183,gca_avoidance_task,2022.2.4,144.0812156605481,
,,,,,,,,,39,0,39,0,,,,,,,,,,,,,,,,,,,,,,,,,,,,,,,,,,,,,379.09711200004676,379.09711200004676,379.09711200004676,379.09711200004676,379.09711200004676,379.09711200004676,5.0,2.129658499965444,s,7.819638499990106,387.4162149000331,0.10552979999920353,0.11242499999934807,0.1540921000414528,0.16101680003339425,0.20270530000561848,0.2096599999931641,,,,,,,,,,,,,,,,,,,,,,,,,,,,,,,,,,,,,,,,,,,,,,,,,,,,,,,,,,,,,,,,,,,,,,,,,,21,B,2023-12-12_14h10.56.183,gca_avoidance_task,2022.2.4,144.0812156605481,
,,,,,,,,,40,0,40,0,,,,,,,,,,,,,,,,,,,,,,,,,,,,,,,,,,,,,388.1661712000496,388.1661712000496,388.1661712000496,388.1661712000496,388.1661712000496,388.1661712000496,7.0,0.8427981000277214,s,6.263127599959262,394.92983360000653,0.1023688999703154,0.10937049996573478,0.15102190000470728,0.15795819996856153,0.19961700000567362,0.20662219997029752,395.68670510000084,,,,,,,,,,,,,,,,,,,,,,,,,,,,,,,,,,,,,,,,,,,,,,,,,,,,,,,,,,,,,,,,,,,,,,,,,21,B,2023-12-12_14h10.56.183,gca_avoidance_task,2022.2.4,144.0812156605481,
,,,,,,,,,41,0,41,0,,,,,,,,,,,,,,,,,,,,,,,,,,,,,,,,,,,,,395.68670510000084,395.68670510000084,395.68670510000084,395.68670510000084,395.68670510000084,395.68670510000084,6.0,0.6379612000309862,g,8.63827830000082,404.8182952000061,,,,,,,,,,,,,,,,,,,,,,,,,,,,,,,,,,,,,,,,,,,,,,,,,,,,,,,,,,,,,,,,,,,,,,,,,,,,,,,,21,B,2023-12-12_14h10.56.183,gca_avoidance_task,2022.2.4,144.0812156605481,
,,,,,,,,,,,,,,,,,,,,,,,,,,,,,,,,,,,,,,,,,,,,,,,,,,,,,,,,,,,,,,,,,,,404.8182952000061,404.8182952000061,space,1.8672440000227652,,,,,,,,,,,,,,,,,,,,,,,,,,,,,,,,,,,,,,,,,,,,,,,,,,,,,,,,,,,,,,,,,,,,,21,B,2023-12-12_14h10.56.183,gca_avoidance_task,2022.2.4,144.0812156605481,
positions.xlsx,stimuli.xlsx,stimuli/Social2.png,stimuli/Social1.png,stimuli/Nonsocial1.png,stimuli/Nonsocial2.png,cs_plus_ns,,,,,,,0,0,0,0,0,0,0,1,,,,,,,,,,,,,,,,,,,,,,,,,,,,,,,,,,,,,,,,,,,,,,,,,,,508.0860195000423,508.0860195000423,space,29.294700199970976,537.4310650000116,537.4310650000116,542.4586309000151,5.0,5.023505800054409,space,3.8505405000178143,,,,,,,,,,,,,,,,,,,,,,,,,,,,,,,,,,,,,,,,,,,,,,,,,,,,,,,,,,21,B,2023-12-12_14h10.56.183,gca_avoidance_task,2022.2.4,144.0812156605481,
positions.xlsx,stimuli.xlsx,stimuli/Social2.png,stimuli/Social1.png,stimuli/Nonsocial1.png,stimuli/Nonsocial2.png,cs_minus_ns,,,,,,,0,0,0,0,0,1,1,3,,,,,,,,,,,,,,,,,,,,,,,,,,,,,,,,,,,,,,,,,,,,,,,,,,,,,,,546.3611795000033,546.3611795000033,551.3471199000487,5.0,4.980424400011543,space,0.8496541000204161,,,,,,,,,,,,,,,,,,,,,,,,,,,,,,,,,,,,,,,,,,,,,,,,,,,,,,,,,,21,B,2023-12-12_14h10.56.183,gca_avoidance_task,2022.2.4,144.0812156605481,
positions.xlsx,stimuli.xlsx,stimuli/Social2.png,stimuli/Social1.png,stimuli/Nonsocial1.png,stimuli/Nonsocial2.png,cs_plus_s,,,,,,,0,0,0,0,0,2,2,0,,,,,,,,,,,,,,,,,,,,,,,,,,,,,,,,,,,,,,,,,,,,,,,,,,,,,,,552.2359930000384,552.2359930000384,554.624812300026,4.0,2.3780732000013813,space,0.724489199987147,,,,,,,,,,,,,,,,,,,,,,,,,,,,,,,,,,,,,,,,,,,,,,,,,,,,,,,,,,21,B,2023-12-12_14h10.56.183,gca_avoidance_task,2022.2.4,144.0812156605481,
positions.xlsx,stimuli.xlsx,stimuli/Social2.png,stimuli/Social1.png,stimuli/Nonsocial1.png,stimuli/Nonsocial2.png,cs_minus_s,,,,,,,0,0,0,0,0,3,3,2,,,,,,,,,,,,,,,,,,,,,,,,,,,,,,,,,,,,,,,,,,,,,,,,,,,,,,,555.3886647000327,555.3886647000327,559.5204283000203,6.0,4.1251914000022225,space,0.6123206000193022,,,,,,,,,,,,,,,,,,,,,,,,,,,,,,,,,,,,,,,,,,,,,,,,,,,,,,,,,,21,B,2023-12-12_14h10.56.183,gca_avoidance_task,2022.2.4,144.0812156605481,
positions.xlsx,stimuli.xlsx,stimuli/Social2.png,stimuli/Social1.png,stimuli/Nonsocial1.png,stimuli/Nonsocial2.png,,"(0.7, 0.5)",cs_plus_s,,,,,0,0,0,0,,,,,0,0,0,2,,,,,,,,,,,,,,,,,,,,,,,,,,,,,,,,,,,,,,,,,,,,,,,,,,,,,,,,,,560.1523709000321,560.1523709000321,space,21.980998199956957,584.2347344000009,586.0054566000472,583.7416940000257,586.0054566000472,586.0054566000472,586.0054566000472,0.015921799989882857,0.02736380003625527,0,shock,1,[0.2157227999996394],[0.21572630002629012],586.2277299000416,586.2277299000416,0.020828799984883517,0.020828799984883517,0.03229719999944791,0.05300829996122047,0.05991720000747591,0.10161569999763742,0.108556299994234,1.0182836999883875,589.7067746000248,593.6857838000287,,,,,,,,,,,,,,,,,,,,,,,,,,,,,21,B,2023-12-12_14h10.56.183,gca_avoidance_task,2022.2.4,144.0812156605481,
positions.xlsx,stimuli.xlsx,stimuli/Social2.png,stimuli/Social1.png,stimuli/Nonsocial1.png,stimuli/Nonsocial2.png,,"(-0.7, -0.5)",cs_minus_s,,,,,0,0,0,0,,,,,0,1,1,5,,,,,,,,,,,,,,,,,,,,,,,,,,,,,,,,,,,,,,,,,,,,,,,,,,,,,,,,,,,,,,594.1926836000057,595.3731753000175,593.6857838000287,595.3731753000175,595.3731753000175,595.3731753000175,0.006847499986179173,0.013505799986887723,5,reward,1,[0.21576240001013502],[0.2157660000375472],595.6022942000418,595.6022942000418,0.01113559998339042,0.01113559998339042,0.025282399961724877,0.05300029995851219,0.05995009996695444,0.1016486999578774,0.1086232999805361,1.0043877999996766,599.0883606999996,603.5048137000413,,,,,,,,,,,,,,,,,,,,,,,,,,,,,21,B,2023-12-12_14h10.56.183,gca_avoidance_task,2022.2.4,144.0812156605481,
positions.xlsx,stimuli.xlsx,stimuli/Social2.png,stimuli/Social1.png,stimuli/Nonsocial1.png,stimuli/Nonsocial2.png,,"(0.7, -0.5)",cs_plus_ns,,,,,0,0,0,0,,,,,0,2,2,11,,,,,,,,,,,,,,,,,,,,,,,,,,,,,,,,,,,,,,,,,,,,,,,,,,,,,,,,,,,,,,604.0117004000349,605.719995899999,603.5048137000413,605.719995899999,605.719995899999,605.719995899999,0.007312699977774173,0.012947299983352423,5,shock,1,[0.555540099972859],[0.5555438000010327],606.2824863000424,606.2824863000424,0.008925799978896976,0.008925799978896976,0.018153199984226376,0.052784600004088134,0.059749600011855364,0.10147589998086914,0.10840719996485859,1.0041667000041343,609.7754072000389,613.8099379000487,,,,,,,,,,,,,,,,,,,,,,,,,,,,,21,B,2023-12-12_14h10.56.183,gca_avoidance_task,2022.2.4,144.0812156605481,
positions.xlsx,stimuli.xlsx,stimuli/Social2.png,stimuli/Social1.png,stimuli/Nonsocial1.png,stimuli/Nonsocial2.png,,"(-0.7, -0.5)",cs_minus_ns,,,,,0,0,0,0,,,,,0,3,3,13,,,,,,,,,,,,,,,,,,,,,,,,,,,,,,,,,,,,,,,,,,,,,,,,,,,,,,,,,,,,,,614.3168439000146,616.2889998000464,613.8099379000487,616.2889998000464,616.2889998000464,616.2889998000464,0.007375299988780171,0.01286029996117577,10,reward,1,[0.41677819995675236],[0.416781899984926],616.7126037999988,616.7126037999988,0.008387700014282018,0.008387700014282018,0.01801930001238361,0.052686400013044477,0.05965380003908649,0.10129369999049231,0.10831899999175221,1.004045200010296,620.2055409000022,624.4067964000278,,,,,,,,,,,,,,,,,,,,,,,,,,,,,21,B,2023-12-12_14h10.56.183,gca_avoidance_task,2022.2.4,144.0812156605481,
positions.xlsx,stimuli.xlsx,stimuli/Social2.png,stimuli/Social1.png,stimuli/Nonsocial1.png,stimuli/Nonsocial2.png,,"(-0.7, 0.5)",cs_plus_s,,,,,0,0,0,0,,,,,0,4,4,0,,,,,,,,,,,,,,,,,,,,,,,,,,,,,,,,,,,,,,,,,,,,,,,,,,,,,,,,,,,,,,624.9137265000027,626.7677437000093,624.4067964000278,626.7677437000093,626.7677437000093,626.7677437000093,0.006309800024610013,0.013029800029471517,10,shock,1,[0.3959401000174694],[0.3959440000471659],627.1704975000466,627.1704975000466,0.0074572000303305686,0.0074572000303305686,0.01802680001128465,0.05271240003639832,0.05970079998951405,0.10132790001807734,0.10837030003312975,1.0041299000149593,630.6635149000213,634.6007641000324,,,,,,,,,,,,,,,,,,,,,,,,,,,,,21,B,2023-12-12_14h10.56.183,gca_avoidance_task,2022.2.4,144.0812156605481,
positions.xlsx,stimuli.xlsx,stimuli/Social2.png,stimuli/Social1.png,stimuli/Nonsocial1.png,stimuli/Nonsocial2.png,,"(-0.7, -0.5)",cs_plus_s,,,,,0,0,0,0,,,,,0,5,5,1,,,,,,,,,,,,,,,,,,,,,,,,,,,,,,,,,,,,,,,,,,,,,,,,,,,,,,,,,,,,,,635.1077056000358,636.427083800023,634.6007641000324,636.427083800023,636.427083800023,636.427083800023,0.006747200037352741,0.013343000027816743,10,shock,1,[0.3755016000359319],[0.375505100004375],636.8090626000194,636.8090626000194,0.007691900013014674,0.007691900013014674,0.018213100032880902,0.052852699998766184,0.059838500048499554,0.10147220001090318,0.10845310002332553,1.004240300040692,640.3020051000058,644.0795839000493,,,,,,,,,,,,,,,,,,,,,,,,,,,,,21,B,2023-12-12_14h10.56.183,gca_avoidance_task,2022.2.4,144.0812156605481,
positions.xlsx,stimuli.xlsx,stimuli/Social2.png,stimuli/Social1.png,stimuli/Nonsocial1.png,stimuli/Nonsocial2.png,,"(0.7, -0.5)",cs_plus_s,,,,,0,0,0,0,,,,,0,6,6,3,,,,,,,,,,,,,,,,,,,,,,,,,,,,,,,,,,,,,,,,,,,,,,,,,,,,,,,,,,,,,,644.5864885000046,645.8294976000325,644.0795839000493,645.8294976000325,645.8294976000325,645.8294976000325,0.005855600000359118,0.012810399988666177,10,shock,1,[0.3822071999893524],[0.38221129996236414],646.2184201000491,646.2184201000491,0.007423800008837134,0.007423800008837134,0.017627799999900162,0.05219660000875592,0.059149499982595444,0.10083020001184195,0.10777479998068884,1.0035633000079542,649.7112855000305,653.6694965000497,,,,,,,,,,,,,,,,,,,,,,,,,,,,,21,B,2023-12-12_14h10.56.183,gca_avoidance_task,2022.2.4,144.0812156605481,
positions.xlsx,stimuli.xlsx,stimuli/Social2.png,stimuli/Social1.png,stimuli/Nonsocial1.png,stimuli/Nonsocial2.png,,"(-0.7, -0.5)",cs_plus_ns,,,,,0,0,0,0,,,,,0,7,7,9,,,,,,,,,,,,,,,,,,,,,,,,,,,,,,,,,,,,,,,,,,,,,,,,,,,,,,,,,,,,,,654.176349300018,655.8985573000391,653.6694965000497,655.8985573000391,655.8985573000391,655.8985573000391,0.007082299969624728,0.01291210000636056,10,none,0,,,660.91219860001,660.91219860001,0.01794370001880452,0.01794370001880452,0.026517399994190782,0.05430929997237399,0.06120539997937158,0.10294579999754205,0.10984360001748428,1.0125935000251047,664.398281700036,668.2522491000127,,,,,,,,,,,,,,,,,,,,,,,,,,,,,21,B,2023-12-12_14h10.56.183,gca_avoidance_task,2022.2.4,144.0812156605481,
positions.xlsx,stimuli.xlsx,stimuli/Social2.png,stimuli/Social1.png,stimuli/Nonsocial1.png,stimuli/Nonsocial2.png,,"(-0.7, 0.5)",cs_minus_ns,,,,,0,0,0,0,,,,,0,8,8,12,,,,,,,,,,,,,,,,,,,,,,,,,,,,,,,,,,,,,,,,,,,,,,,,,,,,,,,,,,,,,,668.7591246000375,669.8563234000467,668.2522491000127,669.8563234000467,669.8563234000467,669.8563234000467,0.007207099988590926,0.013311399961821735,15,reward,1,[0.4030758999870159],[0.4030792999546975],670.2660707000177,670.2660707000177,0.007602699974086136,0.007602699974086136,0.018402399960905313,0.05304339999565855,0.06004599999869242,0.10166379995644093,0.10861759999534115,1.0044009999837726,673.7589888999937,677.751900000032,,,,,,,,,,,,,,,,,,,,,,,,,,,,,21,B,2023-12-12_14h10.56.183,gca_avoidance_task,2022.2.4,144.0812156605481,
positions.xlsx,stimuli.xlsx,stimuli/Social2.png,stimuli/Social1.png,stimuli/Nonsocial1.png,stimuli/Nonsocial2.png,,"(0.7, -0.5)",cs_minus_s,,,,,0,0,0,0,,,,,0,9,9,7,,,,,,,,,,,,,,,,,,,,,,,,,,,,,,,,,,,,,,,,,,,,,,,,,,,,,,,,,,,,,,678.2587658000411,679.7795128000434,677.751900000032,679.7795128000434,679.7795128000434,679.7795128000434,0.006507999962195754,0.01294919999781996,20,reward,1,[0.6320469999918714],[0.6320506999618374],680.4183993000188,680.4183993000188,0.00768949999473989,0.00768949999473989,0.01836419996106997,0.053018499980680645,0.06002859998261556,0.1016739999759011,0.10860819998197258,1.0044195000082254,683.9113806000096,688.3486954999971,,,,,,,,,,,,,,,,,,,,,,,,,,,,,21,B,2023-12-12_14h10.56.183,gca_avoidance_task,2022.2.4,144.0812156605481,
positions.xlsx,stimuli.xlsx,stimuli/Social2.png,stimuli/Social1.png,stimuli/Nonsocial1.png,stimuli/Nonsocial2.png,,"(-0.7, 0.5)",cs_minus_s,,,,,0,0,0,0,,,,,0,10,10,4,,,,,,,,,,,,,,,,,,,,,,,,,,,,,,,,,,,,,,,,,,,,,,,,,,,,,,,,,,,,,,688.8555395000149,690.5846441000467,688.3486954999971,690.5846441000467,690.5846441000467,690.5846441000467,0.006540600035805255,0.013126700010616332,25,reward,1,[0.39594090002356097],[0.39594479999504983],690.9874254000024,690.9874254000024,0.007637100003194064,0.007637100003194064,0.018656899977941066,0.053291100019123405,0.06026459997519851,0.10189449996687472,0.10888760001398623,1.0046226999838836,694.4803491000202,698.5288271000027,,,,,,,,,,,,,,,,,,,,,,,,,,,,,21,B,2023-12-12_14h10.56.183,gca_avoidance_task,2022.2.4,144.0812156605481,
positions.xlsx,stimuli.xlsx,stimuli/Social2.png,stimuli/Social1.png,stimuli/Nonsocial1.png,stimuli/Nonsocial2.png,,"(-0.7, 0.5)",cs_plus_ns,,,,,0,0,0,0,,,,,0,11,11,8,,,,,,,,,,,,,,,,,,,,,,,,,,,,,,,,,,,,,,,,,,,,,,,,,,,,,,,,,,,,,,699.0356894000433,700.9870105000446,698.5288271000027,700.9870105000446,700.9870105000446,700.9870105000446,0.007123699993826449,0.0129060999606736,25,shock,1,[0.4582522999844514],[0.45825619995594025],701.4522920000018,701.4522920000018,0.00852380000287667,0.00852380000287667,0.01820890000090003,0.05289590003667399,0.059832500002812594,0.10146810003789142,0.10840740002458915,1.004270700039342,704.9452127999975,708.6812031000154,,,,,,,,,,,,,,,,,,,,,,,,,,,,,21,B,2023-12-12_14h10.56.183,gca_avoidance_task,2022.2.4,144.0812156605481,
positions.xlsx,stimuli.xlsx,stimuli/Social2.png,stimuli/Social1.png,stimuli/Nonsocial1.png,stimuli/Nonsocial2.png,,"(0.7, 0.5)",cs_minus_s,,,,,0,0,0,0,,,,,0,12,12,6,,,,,,,,,,,,,,,,,,,,,,,,,,,,,,,,,,,,,,,,,,,,,,,,,,,,,,,,,,,,,,709.188071200042,710.6046930000302,708.6812031000154,710.6046930000302,710.6046930000302,710.6046930000302,0.006240000016987324,0.01338040002156049,30,reward,1,[0.48639179999008775],[0.48639570001978427],711.0977487000055,711.0977487000055,0.007301699952222407,0.007301699952222407,0.018634399981237948,0.053314599965233356,0.06022079999092966,0.10190469998633489,0.1088651999598369,1.0046223999815993,714.5907248000149,718.9169042000431,,,,,,,,,,,,,,,,,,,,,,,,,,,,,21,B,2023-12-12_14h10.56.183,gca_avoidance_task,2022.2.4,144.0812156605481,
positions.xlsx,stimuli.xlsx,stimuli/Social2.png,stimuli/Social1.png,stimuli/Nonsocial1.png,stimuli/Nonsocial2.png,,"(0.7, -0.5)",cs_minus_ns,,,,,0,0,0,0,,,,,0,13,13,15,,,,,,,,,,,,,,,,,,,,,,,,,,,,,,,,,,,,,,,,,,,,,,,,,,,,,,,,,,,,,,719.4237669000286,720.7154149000417,718.9169042000431,720.7154149000417,720.7154149000417,720.7154149000417,0.006726799998432398,0.013111200009007007,35,reward,1,[0.4444692000397481],[0.44447310001123697],721.1667528999969,721.1667528999969,0.008141300000716,0.008141300000716,0.018617300025653094,0.05331580003257841,0.060207000002264977,0.10190660000080243,0.10883700003614649,1.0046382999862544,724.6596877000411,728.9928552000201,,,,,,,,,,,,,,,,,,,,,,,,,,,,,21,B,2023-12-12_14h10.56.183,gca_avoidance_task,2022.2.4,144.0812156605481,
positions.xlsx,stimuli.xlsx,stimuli/Social2.png,stimuli/Social1.png,stimuli/Nonsocial1.png,stimuli/Nonsocial2.png,,"(0.7, 0.5)",cs_minus_ns,,,,,0,0,0,0,,,,,0,14,14,14,,,,,,,,,,,,,,,,,,,,,,,,,,,,,,,,,,,,,,,,,,,,,,,,,,,,,,,,,,,,,,729.4997648000135,731.0344240000122,728.9928552000201,731.0344240000122,731.0344240000122,731.0344240000122,0.006693199975416064,0.012999899976421148,40,reward,1,[0.33333150000544265],[0.3333353999769315],731.3746964000165,731.3746964000165,0.00840669998433441,0.00840669998433441,0.01844439998967573,0.053134099987801164,0.06012309994548559,0.10175589995924383,0.10867419996066019,1.0044625999871641,734.867619000026,738.7008199000265,,,,,,,,,,,,,,,,,,,,,,,,,,,,,21,B,2023-12-12_14h10.56.183,gca_avoidance_task,2022.2.4,144.0812156605481,
positions.xlsx,stimuli.xlsx,stimuli/Social2.png,stimuli/Social1.png,stimuli/Nonsocial1.png,stimuli/Nonsocial2.png,,"(0.7, 0.5)",cs_plus_ns,,,,,0,0,0,0,,,,,0,15,15,10,,,,,,,,,,,,,,,,,,,,,,,,,,,,,,,,,,,,,,,,,,,,,,,,,,,,,,,,,,,,,,739.2077138000168,740.7216066000401,738.7008199000265,740.7216066000401,740.7216066000401,740.7216066000401,0.007423000002745539,0.013475699990522116,40,none,0,,,745.7282951000379,745.7282951000379,0.014800400007516146,0.014800400007516146,0.02012760000070557,0.05482259998098016,0.06181679997825995,0.10344689997145906,0.11040750000393018,1.0131557999993674,749.2212408000487,752.7628218000173,,,,,,,,,,,,,,,,,,,,,,,,,,,,,21,B,2023-12-12_14h10.56.183,gca_avoidance_task,2022.2.4,144.0812156605481,
positions.xlsx,stimuli.xlsx,stimuli/Social2.png,stimuli/Social1.png,stimuli/Nonsocial1.png,stimuli/Nonsocial2.png,,"(-0.7, -0.5)",cs_minus_s,,,,,0,0,0,0,,,,,1,0,16,5,,,,,,,,,,,,,,,,,,,,,,,,,,,,,,,,,,,,,,,,,,,,,,,,,,,,,,,,,,,,,,753.2696442000451,754.3807186000049,752.7628218000173,754.3807186000049,754.3807186000049,754.3807186000049,0.006009600008837879,0.013106999977026135,45,reward,1,[0.6532502999762073],[0.6532541000051424],755.0404327000142,755.0404327000142,0.007122599985450506,0.007122599985450506,0.018372699967585504,0.052985799964517355,0.059928799979388714,0.10159169998951256,0.10855870001250878,1.0043629999854602,758.5333826999995,762.672023400024,,,,,,,,,,,,,,,,,,,,,,,,,,,,,21,B,2023-12-12_14h10.56.183,gca_avoidance_task,2022.2.4,144.0812156605481,
positions.xlsx,stimuli.xlsx,stimuli/Social2.png,stimuli/Social1.png,stimuli/Nonsocial1.png,stimuli/Nonsocial2.png,,"(-0.7, 0.5)",cs_minus_s,,,,,0,0,0,0,,,,,1,1,17,4,,,,,,,,,,,,,,,,,,,,,,,,,,,,,,,,,,,,,,,,,,,,,,,,,,,,,,,,,,,,,,763.1789768000017,764.408156200021,762.672023400024,764.408156200021,764.408156200021,764.408156200021,0.007094800006598234,0.01330629998119548,50,reward,1,[0.4864720999612473],[0.4864757999894209],764.9011353999958,764.9011353999958,0.007933799992315471,0.007933799992315471,0.018270000000484288,0.0529316000174731,0.0598623999976553,0.1015186000149697,0.10845759999938309,1.004258100001607,768.3941114000045,772.0675585000427,,,,,,,,,,,,,,,,,,,,,,,,,,,,,21,B,2023-12-12_14h10.56.183,gca_avoidance_task,2022.2.4,144.0812156605481,
positions.xlsx,stimuli.xlsx,stimuli/Social2.png,stimuli/Social1.png,stimuli/Nonsocial1.png,stimuli/Nonsocial2.png,,"(-0.7, 0.5)",cs_minus_ns,,,,,0,0,0,0,,,,,1,2,18,12,,,,,,,,,,,,,,,,,,,,,,,,,,,,,,,,,,,,,,,,,,,,,,,,,,,,,,,,,,,,,,772.574442400015,774.4910281000193,772.0675585000427,774.4910281000193,774.4910281000193,774.4910281000193,0.006625499983783811,0.013340000004973263,55,reward,1,[0.44468910002615303],[0.4446929999976419],774.9424197000335,774.9424197000335,0.007663699972908944,0.007663699972908944,0.018508500012103468,0.053163699980359524,0.06015309999929741,0.10172490001423284,0.10871230001794174,1.0045163999893703,778.4353931000223,782.1574011000339,,,,,,,,,,,,,,,,,,,,,,,,,,,,,21,B,2023-12-12_14h10.56.183,gca_avoidance_task,2022.2.4,144.0812156605481,
positions.xlsx,stimuli.xlsx,stimuli/Social2.png,stimuli/Social1.png,stimuli/Nonsocial1.png,stimuli/Nonsocial2.png,,"(-0.7, 0.5)",cs_plus_ns,,,,,0,0,0,0,,,,,1,3,19,8,,,,,,,,,,,,,,,,,,,,,,,,,,,,,,,,,,,,,,,,,,,,,,,,,,,,,,,,,,,,,,782.6643786000204,783.9281632000348,782.1574011000339,783.9281632000348,783.9281632000348,783.9281632000348,0.006911400007084012,0.013132099993526936,55,shock,1,[0.3960722999763675],[0.39607600000454113],784.3309650000301,784.3309650000301,0.008195599948521703,0.008195599948521703,0.018191699986346066,0.05283549998421222,0.05983499996364117,0.10144559998298064,0.10839449998456985,1.0041399999754503,787.8238844000152,791.643189400027,,,,,,,,,,,,,,,,,,,,,,,,,,,,,21,B,2023-12-12_14h10.56.183,gca_avoidance_task,2022.2.4,144.0812156605481,
positions.xlsx,stimuli.xlsx,stimuli/Social2.png,stimuli/Social1.png,stimuli/Nonsocial1.png,stimuli/Nonsocial2.png,,"(0.7, -0.5)",cs_minus_s,,,,,0,0,0,0,,,,,1,4,20,7,,,,,,,,,,,,,,,,,,,,,,,,,,,,,,,,,,,,,,,,,,,,,,,,,,,,,,,,,,,,,,792.1500485000433,793.1639087999938,791.643189400027,793.1639087999938,793.1639087999938,793.1639087999938,0.006918600003700703,0.013213400030508637,60,reward,1,[0.39593180001247674],[0.40305130003253],793.5736258000252,793.5736258000252,0.00838869996368885,0.00838869996368885,0.018315900000743568,0.052950299985241145,0.05999489995883778,0.10153939999872819,0.10859049996361136,1.0043418999994174,797.0665562000358,801.337241500034,,,,,,,,,,,,,,,,,,,,,,,,,,,,,21,B,2023-12-12_14h10.56.183,gca_avoidance_task,2022.2.4,144.0812156605481,
positions.xlsx,stimuli.xlsx,stimuli/Social2.png,stimuli/Social1.png,stimuli/Nonsocial1.png,stimuli/Nonsocial2.png,,"(0.7, -0.5)",cs_plus_s,,,,,0,0,0,0,,,,,1,5,21,3,,,,,,,,,,,,,,,,,,,,,,,,,,,,,,,,,,,,,,,,,,,,,,,,,,,,,,,,,,,,,,801.8441066000378,803.4551651999936,801.337241500034,803.4551651999936,803.4551651999936,803.4551651999936,0.006502899981569499,0.013451999984681606,60,shock,1,[0.46567619999404997],[0.46567960001993924],803.927361100039,803.927361100039,0.007122899987734854,0.007122899987734854,0.01868159999139607,0.05338080000365153,0.06028239999432117,0.10196579998591915,0.10892969998531044,1.0047324000042863,807.42035270005,811.4687899000128,,,,,,,,,,,,,,,,,,,,,,,,,,,,,21,B,2023-12-12_14h10.56.183,gca_avoidance_task,2022.2.4,144.0812156605481,
positions.xlsx,stimuli.xlsx,stimuli/Social2.png,stimuli/Social1.png,stimuli/Nonsocial1.png,stimuli/Nonsocial2.png,,"(0.7, 0.5)",cs_plus_s,,,,,0,0,0,0,,,,,1,6,22,2,,,,,,,,,,,,,,,,,,,,,,,,,,,,,,,,,,,,,,,,,,,,,,,,,,,,,,,,,,,,,,811.9756514000474,813.1839610000025,811.4687899000128,813.1839610000025,813.1839610000025,813.1839610000025,0.00607750000199303,0.013194300001487136,60,none,0,,,818.1906952999998,818.1906952999998,0.013327600026968867,0.013327600026968867,0.01994540001032874,0.05464510002639145,0.06158410001080483,0.10324809997109696,0.1101879000198096,1.012935100006871,821.6836434000288,825.9890304,,,,,,,,,,,,,,,,,,,,,,,,,,,,,21,B,2023-12-12_14h10.56.183,gca_avoidance_task,2022.2.4,144.0812156605481,
positions.xlsx,stimuli.xlsx,stimuli/Social2.png,stimuli/Social1.png,stimuli/Nonsocial1.png,stimuli/Nonsocial2.png,,"(-0.7, -0.5)",cs_minus_ns,,,,,0,0,0,0,,,,,1,7,23,13,,,,,,,,,,,,,,,,,,,,,,,,,,,,,,,,,,,,,,,,,,,,,,,,,,,,,,,,,,,,,,826.4959285000223,828.4194612000138,825.9890304,828.4194612000138,828.4194612000138,828.4194612000138,0.007061699987389147,0.01295820000814274,65,reward,1,[0.5347696000244468],[0.5347733999951743],828.9611403000308,828.9611403000308,0.007695999986026436,0.007695999986026436,0.01820739998947829,0.05287840001983568,0.059838199988007545,0.10147850000066683,0.10843500000191852,1.0042399000376463,832.4540212000138,836.5164028000436,,,,,,,,,,,,,,,,,,,,,,,,,,,,,21,B,2023-12-12_14h10.56.183,gca_avoidance_task,2022.2.4,144.0812156605481,
positions.xlsx,stimuli.xlsx,stimuli/Social2.png,stimuli/Social1.png,stimuli/Nonsocial1.png,stimuli/Nonsocial2.png,,"(0.7, 0.5)",cs_plus_ns,,,,,0,0,0,0,,,,,1,8,24,10,,,,,,,,,,,,,,,,,,,,,,,,,,,,,,,,,,,,,,,,,,,,,,,,,,,,,,,,,,,,,,837.0232767999987,838.3843340000021,836.5164028000436,838.3843340000021,838.3843340000021,838.3843340000021,0.006744100013747811,0.013269899995066226,65,none,0,,,843.3910845000064,843.3910845000064,0.014007900026626885,0.014007900026626885,0.02004289999604225,0.05469770001946017,0.06167620001360774,0.10331820003921166,0.11027100001228973,1.0130456000333652,846.8840037000482,851.1964085000218,,,,,,,,,,,,,,,,,,,,,,,,,,,,,21,B,2023-12-12_14h10.56.183,gca_avoidance_task,2022.2.4,144.0812156605481,
positions.xlsx,stimuli.xlsx,stimuli/Social2.png,stimuli/Social1.png,stimuli/Nonsocial1.png,stimuli/Nonsocial2.png,,"(-0.7, 0.5)",cs_plus_s,,,,,0,0,0,0,,,,,1,9,25,0,,,,,,,,,,,,,,,,,,,,,,,,,,,,,,,,,,,,,,,,,,,,,,,,,,,,,,,,,,,,,,851.7032507000258,852.9740303000435,851.1964085000218,852.9740303000435,852.9740303000435,852.9740303000435,0.005721700028516352,0.0131375000346452,65,none,0,,,857.9807914000121,857.9807914000121,0.013281800027471036,0.013281800027471036,0.01989809999940917,0.05462790001183748,0.061517200025264174,0.10323480004444718,0.11014190001878887,1.0129176000482403,861.4737566999975,865.92495960003,,,,,,,,,,,,,,,,,,,,,,,,,,,,,21,B,2023-12-12_14h10.56.183,gca_avoidance_task,2022.2.4,144.0812156605481,
positions.xlsx,stimuli.xlsx,stimuli/Social2.png,stimuli/Social1.png,stimuli/Nonsocial1.png,stimuli/Nonsocial2.png,,"(0.7, -0.5)",cs_plus_ns,,,,,0,0,0,0,,,,,1,10,26,11,,,,,,,,,,,,,,,,,,,,,,,,,,,,,,,,,,,,,,,,,,,,,,,,,,,,,,,,,,,,,,866.4318342000479,868.2026239000261,865.92495960003,868.2026239000261,868.2026239000261,868.2026239000261,0.007479300023987889,0.013342800026293844,65,none,0,,,873.2093853999977,873.2093853999977,0.014044500014279038,0.014044500014279038,0.020153100020252168,0.0547999000409618,0.06177369999932125,0.10340640001231804,0.11033220001263544,1.0130887000123039,876.7023312000092,880.9590664000134,,,,,,,,,,,,,,,,,,,,,,,,,,,,,21,B,2023-12-12_14h10.56.183,gca_avoidance_task,2022.2.4,144.0812156605481,
positions.xlsx,stimuli.xlsx,stimuli/Social2.png,stimuli/Social1.png,stimuli/Nonsocial1.png,stimuli/Nonsocial2.png,,"(0.7, -0.5)",cs_minus_ns,,,,,0,0,0,0,,,,,1,11,27,15,,,,,,,,,,,,,,,,,,,,,,,,,,,,,,,,,,,,,,,,,,,,,,,,,,,,,,,,,,,,,,881.4659581000451,883.0145227000467,880.9590664000134,883.0145227000467,883.0145227000467,883.0145227000467,0.006177300005219877,0.013593500014394522,70,reward,1,[0.5629090999718755],[0.5629125999985263],883.5908452000003,883.5908452000003,0.007384099997580051,0.007384099997580051,0.025605499977245927,0.0533712999895215,0.06031359999906272,0.10193329997127876,0.10891999996965751,1.004697699972894,887.0768983000307,891.3544926000177,,,,,,,,,,,,,,,,,,,,,,,,,,,,,21,B,2023-12-12_14h10.56.183,gca_avoidance_task,2022.2.4,144.0812156605481,
positions.xlsx,stimuli.xlsx,stimuli/Social2.png,stimuli/Social1.png,stimuli/Nonsocial1.png,stimuli/Nonsocial2.png,,"(-0.7, -0.5)",cs_plus_ns,,,,,0,0,0,0,,,,,1,12,28,9,,,,,,,,,,,,,,,,,,,,,,,,,,,,,,,,,,,,,,,,,,,,,,,,,,,,,,,,,,,,,,891.861384799995,893.1807828000165,891.3544926000177,893.1807828000165,893.1807828000165,893.1807828000165,0.006933800003025681,0.013403000019025058,70,none,0,,,898.1875946000218,898.1875946000218,0.01401750004151836,0.01401750004151836,0.020267700019758195,0.054834900016430765,0.06184550002217293,0.10347020003246143,0.1104928000131622,1.0131280000205152,901.6804542000173,905.7844965000404,,,,,,,,,,,,,,,,,,,,,,,,,,,,,21,B,2023-12-12_14h10.56.183,gca_avoidance_task,2022.2.4,144.0812156605481,
positions.xlsx,stimuli.xlsx,stimuli/Social2.png,stimuli/Social1.png,stimuli/Nonsocial1.png,stimuli/Nonsocial2.png,,"(0.7, 0.5)",cs_minus_ns,,,,,0,0,0,0,,,,,1,13,29,14,,,,,,,,,,,,,,,,,,,,,,,,,,,,,,,,,,,,,,,,,,,,,,,,,,,,,,,,,,,,,,906.2913713000016,908.2287932000472,905.7844965000404,908.2287932000472,908.2287932000472,908.2287932000472,0.0061666000401601195,0.013466900039929897,75,reward,1,[0.4100610000314191],[0.41006470000138506],908.6454890000168,908.6454890000168,0.007105500029865652,0.007105500029865652,0.018582100048661232,0.053273400000762194,0.06018990004668012,0.10186480003176257,0.10876790003385395,1.00456180004403,912.1383762000478,916.0480117000407,,,,,,,,,,,,,,,,,,,,,,,,,,,,,21,B,2023-12-12_14h10.56.183,gca_avoidance_task,2022.2.4,144.0812156605481,
positions.xlsx,stimuli.xlsx,stimuli/Social2.png,stimuli/Social1.png,stimuli/Nonsocial1.png,stimuli/Nonsocial2.png,,"(0.7, 0.5)",cs_minus_s,,,,,0,0,0,0,,,,,1,14,30,6,,,,,,,,,,,,,,,,,,,,,,,,,,,,,,,,,,,,,,,,,,,,,,,,,,,,,,,,,,,,,,916.5548589000246,918.443675400049,916.0480117000407,918.443675400049,918.443675400049,918.443675400049,0.006262600014451891,0.013198400032706559,80,reward,1,[0.5973427999997512],[0.5973464000271633],919.0478508000378,919.0478508000378,0.007793000026140362,0.007793000026140362,0.018489400041289628,0.053126599988900125,0.060064900026191026,0.10172080004122108,0.10867739998502657,1.0045141000300646,922.5407990000094,926.8392175000045,,,,,,,,,,,,,,,,,,,,,,,,,,,,,21,B,2023-12-12_14h10.56.183,gca_avoidance_task,2022.2.4,144.0812156605481,
positions.xlsx,stimuli.xlsx,stimuli/Social2.png,stimuli/Social1.png,stimuli/Nonsocial1.png,stimuli/Nonsocial2.png,,"(-0.7, -0.5)",cs_plus_s,,,,,0,0,0,0,,,,,1,15,31,1,,,,,,,,,,,,,,,,,,,,,,,,,,,,,,,,,,,,,,,,,,,,,,,,,,,,,,,,,,,,,,927.3461128000054,929.3321396000101,926.8392175000045,929.3321396000101,929.3321396000101,929.3321396000101,0.0063865999691188335,0.013160899979993701,80,none,0,,,934.3388938000426,934.3388938000426,0.013428399979602545,0.013428399979602545,0.019948599976487458,0.05456739995861426,0.06159779999870807,0.10319809999782592,0.11019859998486936,1.0129020999884233,937.8318544000504,941.6788625000045,,,,,,,,,,,,,,,,,,,,,,,,,,,,,21,B,2023-12-12_14h10.56.183,gca_avoidance_task,2022.2.4,144.0812156605481,
positions.xlsx,stimuli.xlsx,stimuli/Social2.png,stimuli/Social1.png,stimuli/Nonsocial1.png,stimuli/Nonsocial2.png,,"(0.7, -0.5)",cs_plus_ns,,,,,0,0,0,0,,,,,,,,,0,0,0,11,,,,,,,,,,,,,,,,,,,,,,,,,,,,,,,,,,,,,,,,,,,,,,,,,,,,,,,,,,952.5464607000467,953.6575686000288,952.0465342000243,953.6575686000288,953.6575686000288,953.6575686000288,0.006904900015797466,0.013015999982599169,80,shock,1,[0.4932985000195913],[0.49330219998955727],954.1575817000121,954.1575817000121,0.007687799981795251,0.007687799981795251,0.01779710000846535,0.05248630000278354,0.059448399988468736,0.1010404999833554,0.10805099998833612,1.003819499979727,957.6505581000238,961.9350652000285,941.6788625000045,941.6788625000045,941.6788625000045,941.6788625000045,space,7.89478999999119,,,,,,,,,,,,,,,,,,,,,,,21,B,2023-12-12_14h10.56.183,gca_avoidance_task,2022.2.4,144.0812156605481,
positions.xlsx,stimuli.xlsx,stimuli/Social2.png,stimuli/Social1.png,stimuli/Nonsocial1.png,stimuli/Nonsocial2.png,,"(0.7, 0.5)",cs_plus_ns,,,,,0,0,0,0,,,,,,,,,0,1,1,10,,,,,,,,,,,,,,,,,,,,,,,,,,,,,,,,,,,,,,,,,,,,,,,,,,,,,,,,,,962.441905100015,964.3516273000278,961.9350652000285,964.3516273000278,964.3516273000278,964.3516273000278,0.006586899980902672,0.012984999979380518,80,none,0,,,969.3583498999942,969.3583498999942,0.013834499986842275,0.013834499986842275,0.019713599991519004,0.05440749996341765,0.061319799977354705,0.1029889999772422,0.10992909997003153,1.0127228999626823,972.8512617000379,976.6011056000134,,,,,,,,,,,,,,,,,,,,,,,,,,,,,21,B,2023-12-12_14h10.56.183,gca_avoidance_task,2022.2.4,144.0812156605481,
positions.xlsx,stimuli.xlsx,stimuli/Social2.png,stimuli/Social1.png,stimuli/Nonsocial1.png,stimuli/Nonsocial2.png,,"(0.7, -0.5)",cs_plus_s,,,,,0,0,0,0,,,,,,,,,0,2,2,3,,,,,,,,,,,,,,,,,,,,,,,,,,,,,,,,,,,,,,,,,,,,,,,,,,,,,,,,,,977.1080146000022,978.4204750999925,976.6011056000134,978.4204750999925,978.4204750999925,978.4204750999925,0.006330600008368492,0.01281589997233823,80,none,0,,,983.427257000003,983.427257000003,0.01323949999641627,0.01323949999641627,0.019602499960456043,0.05427520000375807,0.061265099968295544,0.10287840000819415,0.10982389998389408,1.012607000011485,986.9201476000017,991.0589109000284,,,,,,,,,,,,,,,,,,,,,,,,,,,,,21,B,2023-12-12_14h10.56.183,gca_avoidance_task,2022.2.4,144.0812156605481,
positions.xlsx,stimuli.xlsx,stimuli/Social2.png,stimuli/Social1.png,stimuli/Nonsocial1.png,stimuli/Nonsocial2.png,,"(-0.7, 0.5)",cs_plus_s,,,,,0,0,0,0,,,,,,,,,0,3,3,0,,,,,,,,,,,,,,,,,,,,,,,,,,,,,,,,,,,,,,,,,,,,,,,,,,,,,,,,,,991.5657807000098,993.2671347000287,991.0589109000284,993.2671347000287,993.2671347000287,993.2671347000287,0.006199600000400096,0.013367799983825535,80,none,0,,,998.2738813000033,998.2738813000033,0.013567399990279227,0.013567399990279227,0.020120499946642667,0.05476119997911155,0.06172179995337501,0.10335119999945164,0.1103472999529913,1.013111799955368,1001.7668162000482,1005.5861491000396,,,,,,,,,,,,,,,,,,,,,,,,,,,,,21,B,2023-12-12_14h10.56.183,gca_avoidance_task,2022.2.4,144.0812156605481,
positions.xlsx,stimuli.xlsx,stimuli/Social2.png,stimuli/Social1.png,stimuli/Nonsocial1.png,stimuli/Nonsocial2.png,,"(-0.7, 0.5)",cs_minus_s,,,,,0,0,0,0,,,,,,,,,0,4,4,4,,,,,,,,,,,,,,,,,,,,,,,,,,,,,,,,,,,,,,,,,,,,,,,,,,,,,,,,,,1006.093017200008,1007.7040459000273,1005.5861491000396,1007.7040459000273,1007.7040459000273,1007.7040459000273,0.0060326000093482435,0.013019000005442649,85,reward,1,[0.5070626999950036],[0.5070664000231773],1008.2179334000102,1008.2179334000102,0.006780199997592717,0.006780199997592717,0.0182681999867782,0.05292619997635484,0.05986849998589605,0.10154139995574951,0.10852279997197911,1.0043347999453545,1011.7108794000233,1016.0648586000316,,,,,,,,,,,,,,,,,,,,,,,,,,,,,21,B,2023-12-12_14h10.56.183,gca_avoidance_task,2022.2.4,144.0812156605481,
positions.xlsx,stimuli.xlsx,stimuli/Social2.png,stimuli/Social1.png,stimuli/Nonsocial1.png,stimuli/Nonsocial2.png,,"(0.7, -0.5)",cs_minus_ns,,,,,0,0,0,0,,,,,,,,,0,5,5,15,,,,,,,,,,,,,,,,,,,,,,,,,,,,,,,,,,,,,,,,,,,,,,,,,,,,,,,,,,1016.5717412999948,1017.8842235000338,1016.0648586000316,1017.8842235000338,1017.8842235000338,1017.8842235000338,0.006381799990776926,0.013077899988275021,90,reward,1,[0.5974288999568671],[0.5974326999858022],1018.4883819000097,1018.4883819000097,0.007575700001325458,0.007575700001325458,0.0180151000386104,0.052680900029372424,0.05972200003452599,0.10129810002399608,0.10826920002000406,1.004051600000821,1021.9813080000458,1026.0714485000353,,,,,,,,,,,,,,,,,,,,,,,,,,,,,21,B,2023-12-12_14h10.56.183,gca_avoidance_task,2022.2.4,144.0812156605481,
positions.xlsx,stimuli.xlsx,stimuli/Social2.png,stimuli/Social1.png,stimuli/Nonsocial1.png,stimuli/Nonsocial2.png,,"(0.7, 0.5)",cs_minus_ns,,,,,0,0,0,0,,,,,,,,,0,6,6,14,,,,,,,,,,,,,,,,,,,,,,,,,,,,,,,,,,,,,,,,,,,,,,,,,,,,,,,,,,1026.5783282000339,1028.376843200007,1026.0714485000353,1028.376843200007,1028.376843200007,1028.376843200007,0.006183100049383938,0.013376600050833076,95,reward,1,[0.44484240002930164],[0.4448460999992676],1028.8282127000275,1028.8282127000275,0.007353900000452995,0.007353900000452995,0.018614100001286715,0.053314800024963915,0.06026140000903979,0.10195019998354837,0.10893719998421147,1.0047018000041135,1032.321141900029,1036.4598695000168,,,,,,,,,,,,,,,,,,,,,,,,,,,,,21,B,2023-12-12_14h10.56.183,gca_avoidance_task,2022.2.4,144.0812156605481,
positions.xlsx,stimuli.xlsx,stimuli/Social2.png,stimuli/Social1.png,stimuli/Nonsocial1.png,stimuli/Nonsocial2.png,,"(-0.7, 0.5)",cs_minus_ns,,,,,0,0,0,0,,,,,,,,,0,7,7,12,,,,,,,,,,,,,,,,,,,,,,,,,,,,,,,,,,,,,,,,,,,,,,,,,,,,,,,,,,1036.9667888000258,1038.9319922000286,1036.4598695000168,1038.9319922000286,1038.9319922000286,1038.9319922000286,0.006496999994851649,0.013200399989727885,100,reward,1,[0.50018380000256],[0.507037199975457],1039.4458831000375,1039.4458831000375,0.007343400036916137,0.007343400036916137,0.018661400012206286,0.05333150003571063,0.06029839999973774,0.10196759999962524,0.10889309999765828,1.0046648000134155,1042.9388078000047,1046.7164693000377,,,,,,,,,,,,,,,,,,,,,,,,,,,,,21,B,2023-12-12_14h10.56.183,gca_avoidance_task,2022.2.4,144.0812156605481,
positions.xlsx,stimuli.xlsx,stimuli/Social2.png,stimuli/Social1.png,stimuli/Nonsocial1.png,stimuli/Nonsocial2.png,,"(0.7, -0.5)",cs_minus_s,,,,,0,0,0,0,,,,,,,,,0,8,8,7,,,,,,,,,,,,,,,,,,,,,,,,,,,,,,,,,,,,,,,,,,,,,,,,,,,,,,,,,,1047.2233146000071,1048.7927260000142,1046.7164693000377,1048.7927260000142,1048.7927260000142,1048.7927260000142,0.005926900019403547,0.013028900022618473,105,reward,1,[0.652785699989181],[0.6527895000181161],1049.4523725000327,1049.4523725000327,0.0066161000286228955,0.0066161000286228955,0.018632200022693723,0.05328900000313297,0.060272600036114454,0.10197810002136976,0.10886470001423731,1.0046511000255123,1052.945404900005,1057.0077173000318,,,,,,,,,,,,,,,,,,,,,,,,,,,,,21,B,2023-12-12_14h10.56.183,gca_avoidance_task,2022.2.4,144.0812156605481,
positions.xlsx,stimuli.xlsx,stimuli/Social2.png,stimuli/Social1.png,stimuli/Nonsocial1.png,stimuli/Nonsocial2.png,,"(-0.7, -0.5)",cs_minus_s,,,,,0,0,0,0,,,,,,,,,0,9,9,5,,,,,,,,,,,,,,,,,,,,,,,,,,,,,,,,,,,,,,,,,,,,,,,,,,,,,,,,,,1057.5145996000501,1059.215904300043,1057.0077173000318,1059.215904300043,1059.215904300043,1059.215904300043,0.005851300025824457,0.013359500037040561,110,reward,1,[0.4866646000300534],[0.48666830000001937],1059.708918999997,1059.708918999997,0.006975200027227402,0.006975200027227402,0.018135700025595725,0.05287110002245754,0.05984459997853264,0.10147250001318753,0.10844580002594739,1.0042037999955937,1063.2019017999992,1067.048962300003,,,,,,,,,,,,,,,,,,,,,,,,,,,,,21,B,2023-12-12_14h10.56.183,gca_avoidance_task,2022.2.4,144.0812156605481,
positions.xlsx,stimuli.xlsx,stimuli/Social2.png,stimuli/Social1.png,stimuli/Nonsocial1.png,stimuli/Nonsocial2.png,,"(-0.7, -0.5)",cs_plus_s,,,,,0,0,0,0,,,,,,,,,0,10,10,1,,,,,,,,,,,,,,,,,,,,,,,,,,,,,,,,,,,,,,,,,,,,,,,,,,,,,,,,,,1067.5558587000123,1069.0280065000406,1067.048962300003,1069.0280065000406,1069.0280065000406,1069.0280065000406,0.005804399959743023,0.013172499951906502,110,shock,1,[0.3543919999501668],[0.35439579997910187],1069.389137500024,1069.389137500024,0.006962299987208098,0.006962299987208098,0.018068599980324507,0.052767899993341416,0.05968529998790473,0.10132469999371096,0.10831739997956902,1.0040870999800973,1072.8820637000026,1077.3124514000374,,,,,,,,,,,,,,,,,,,,,,,,,,,,,21,B,2023-12-12_14h10.56.183,gca_avoidance_task,2022.2.4,144.0812156605481,
positions.xlsx,stimuli.xlsx,stimuli/Social2.png,stimuli/Social1.png,stimuli/Nonsocial1.png,stimuli/Nonsocial2.png,,"(-0.7, 0.5)",cs_plus_ns,,,,,0,0,0,0,,,,,,,,,0,11,11,8,,,,,,,,,,,,,,,,,,,,,,,,,,,,,,,,,,,,,,,,,,,,,,,,,,,,,,,,,,1077.8193384000333,1079.2637178000296,1077.3124514000374,1079.2637178000296,1079.2637178000296,1079.2637178000296,0.006605900009162724,0.0132486000075005,110,none,0,,,1084.2704808000126,1084.2704808000126,0.014497299969661981,0.014497299969661981,0.020018199982587248,0.05476430000271648,0.06168939999770373,0.10329379996983334,0.11026779998792335,1.0130062999669462,1087.7634364000405,1092.173004900047,,,,,,,,,,,,,,,,,,,,,,,,,,,,,21,B,2023-12-12_14h10.56.183,gca_avoidance_task,2022.2.4,144.0812156605481,
positions.xlsx,stimuli.xlsx,stimuli/Social2.png,stimuli/Social1.png,stimuli/Nonsocial1.png,stimuli/Nonsocial2.png,,"(-0.7, -0.5)",cs_plus_ns,,,,,0,0,0,0,,,,,,,,,0,12,12,9,,,,,,,,,,,,,,,,,,,,,,,,,,,,,,,,,,,,,,,,,,,,,,,,,,,,,,,,,,1092.6798618000466,1094.311740300036,1092.173004900047,1094.311740300036,1094.311740300036,1094.311740300036,0.0065125999972224236,0.013375499984249473,110,none,0,,,1099.3184730000212,1099.3184730000212,0.01420999999390915,0.01420999999390915,0.020116099971346557,0.05483719997573644,0.061829599959310144,0.10341389995301142,0.1103737999801524,1.0131246999953873,1102.8114421000355,1107.0890542000416,,,,,,,,,,,,,,,,,,,,,,,,,,,,,21,B,2023-12-12_14h10.56.183,gca_avoidance_task,2022.2.4,144.0812156605481,
positions.xlsx,stimuli.xlsx,stimuli/Social2.png,stimuli/Social1.png,stimuli/Nonsocial1.png,stimuli/Nonsocial2.png,,"(0.7, 0.5)",cs_plus_s,,,,,0,0,0,0,,,,,,,,,0,13,13,2,,,,,,,,,,,,,,,,,,,,,,,,,,,,,,,,,,,,,,,,,,,,,,,,,,,,,,,,,,1107.595953800017,1108.915344500041,1107.0890542000416,1108.915344500041,1108.915344500041,1108.915344500041,0.005992899998091161,0.013015399978030473,110,none,0,,,1113.922085200029,1113.922085200029,0.013404599973000586,0.013404599973000586,0.01989220001269132,0.05442269996274263,0.061398299993015826,0.10307529999408871,0.11001890001352876,1.0127759000170045,1117.4150377000333,1120.9218523000018,,,,,,,,,,,,,,,,,,,,,,,,,,,,,21,B,2023-12-12_14h10.56.183,gca_avoidance_task,2022.2.4,144.0812156605481,
positions.xlsx,stimuli.xlsx,stimuli/Social2.png,stimuli/Social1.png,stimuli/Nonsocial1.png,stimuli/Nonsocial2.png,,"(0.7, 0.5)",cs_minus_s,,,,,0,0,0,0,,,,,,,,,0,14,14,6,,,,,,,,,,,,,,,,,,,,,,,,,,,,,,,,,,,,,,,,,,,,,,,,,,,,,,,,,,1121.428760800045,1123.1369990000385,1120.9218523000018,1123.1369990000385,1123.1369990000385,1123.1369990000385,0.005940600007306784,0.013013099960517138,115,reward,1,[0.597280599991791],[0.5972844999632798],1123.7411415000097,1123.7411415000097,0.007057799957692623,0.007057799957692623,0.018392199999652803,0.053098300006240606,0.060035499976947904,0.101730199996382,0.10868139995727688,1.004421099962201,1127.2341285000439,1131.4701006000396,,,,,,,,,,,,,,,,,,,,,,,,,,,,,21,B,2023-12-12_14h10.56.183,gca_avoidance_task,2022.2.4,144.0812156605481,
positions.xlsx,stimuli.xlsx,stimuli/Social2.png,stimuli/Social1.png,stimuli/Nonsocial1.png,stimuli/Nonsocial2.png,,"(-0.7, -0.5)",cs_minus_ns,,,,,0,0,0,0,,,,,,,,,0,15,15,13,,,,,,,,,,,,,,,,,,,,,,,,,,,,,,,,,,,,,,,,,,,,,,,,,,,,,,,,,,1131.9769081000122,1133.192179900012,1131.4701006000396,1133.192179900012,1133.192179900012,1133.192179900012,0.006330599950160831,0.013271899952087551,120,reward,1,[0.6113915999885648],[0.6113950999570079],1133.8101935000159,1133.8101935000159,0.007362000003922731,0.007362000003922731,0.018314399989321828,0.052994599973317236,0.060011599969584495,0.1015987999853678,0.1085556999896653,1.0043695999775082,1137.3031550000305,1141.3654992000083,,,,,,,,,,,,,,,,,,,,,,,,,,,,,21,B,2023-12-12_14h10.56.183,gca_avoidance_task,2022.2.4,144.0812156605481,
positions.xlsx,stimuli.xlsx,stimuli/Social2.png,stimuli/Social1.png,stimuli/Nonsocial1.png,stimuli/Nonsocial2.png,,"(-0.7, -0.5)",cs_minus_ns,,,,,0,0,0,0,,,,,,,,,1,0,16,13,,,,,,,,,,,,,,,,,,,,,,,,,,,,,,,,,,,,,,,,,,,,,,,,,,,,,,,,,,1141.8723860000027,1142.9557297000429,1141.3654992000083,1142.9557297000429,1142.9557297000429,1142.9557297000429,0.006398500001523644,0.013393100001849234,125,reward,1,[0.41004719998454675],[0.4100510000134818],1143.3723395999987,1143.3723395999987,0.008573300030548126,0.008573300030548126,0.018710800039116293,0.053348699992056936,0.060303400037810206,0.10198169999057427,0.1089042000239715,1.004700799996499,1146.8653167000157,1150.726209000044,,,,,,,,,,,,,,,,,,,,,,,,,,,,,21,B,2023-12-12_14h10.56.183,gca_avoidance_task,2022.2.4,144.0812156605481,
positions.xlsx,stimuli.xlsx,stimuli/Social2.png,stimuli/Social1.png,stimuli/Nonsocial1.png,stimuli/Nonsocial2.png,,"(0.7, -0.5)",cs_minus_ns,,,,,0,0,0,0,,,,,,,,,1,1,17,15,,,,,,,,,,,,,,,,,,,,,,,,,,,,,,,,,,,,,,,,,,,,,,,,,,,,,,,,,,1151.2331183000351,1152.3233559000073,1150.726209000044,1152.3233559000073,1152.3233559000073,1152.3233559000073,0.006282699992880225,0.012720800004899502,130,reward,1,[0.4163012999924831],[0.41630480001913384],1152.746955700044,1152.746955700044,0.007807700021658093,0.007807700021658093,0.018491399998310953,0.053194599982816726,0.06014620000496507,0.10181449999799952,0.10873859998537228,1.0045717000029981,1156.2398891000194,1159.76758720004,,,,,,,,,,,,,,,,,,,,,,,,,,,,,21,B,2023-12-12_14h10.56.183,gca_avoidance_task,2022.2.4,144.0812156605481,
positions.xlsx,stimuli.xlsx,stimuli/Social2.png,stimuli/Social1.png,stimuli/Nonsocial1.png,stimuli/Nonsocial2.png,,"(0.7, 0.5)",cs_minus_s,,,,,0,0,0,0,,,,,,,,,1,2,18,6,,,,,,,,,,,,,,,,,,,,,,,,,,,,,,,,,,,,,,,,,,,,,,,,,,,,,,,,,,1160.2744295000448,1161.6979911000235,1159.76758720004,1161.6979911000235,1161.6979911000235,1161.6979911000235,0.005875199974980205,0.01308839995181188,135,reward,1,[0.42378489999100566],[0.4237886999617331],1162.1285217000404,1162.1285217000404,0.006658900005277246,0.006658900005277246,0.018164800014346838,0.052873299981001765,0.05980499996803701,0.10142699995776638,0.10839599999599159,1.0041843999642879,1165.6215033000335,1169.3713650000282,,,,,,,,,,,,,,,,,,,,,,,,,,,,,21,B,2023-12-12_14h10.56.183,gca_avoidance_task,2022.2.4,144.0812156605481,
positions.xlsx,stimuli.xlsx,stimuli/Social2.png,stimuli/Social1.png,stimuli/Nonsocial1.png,stimuli/Nonsocial2.png,,"(0.7, 0.5)",cs_minus_ns,,,,,0,0,0,0,,,,,,,,,1,3,19,14,,,,,,,,,,,,,,,,,,,,,,,,,,,,,,,,,,,,,,,,,,,,,,,,,,,,,,,,,,1169.8782481999951,1171.169876900036,1169.3713650000282,1171.169876900036,1171.169876900036,1171.169876900036,0.006354300014209002,0.013138499984052032,140,reward,1,[0.4514321000315249],[0.4514354999992065],1171.6281913000275,1171.6281913000275,0.007219000020995736,0.007219000020995736,0.018734100041911006,0.053400800039526075,0.06036940001649782,0.10200479999184608,0.10892700002295896,1.0047327000065707,1175.121124199999,1179.4959486000007,,,,,,,,,,,,,,,,,,,,,,,,,,,,,21,B,2023-12-12_14h10.56.183,gca_avoidance_task,2022.2.4,144.0812156605481,
positions.xlsx,stimuli.xlsx,stimuli/Social2.png,stimuli/Social1.png,stimuli/Nonsocial1.png,stimuli/Nonsocial2.png,,"(0.7, -0.5)",cs_plus_ns,,,,,0,0,0,0,,,,,,,,,1,4,20,11,,,,,,,,,,,,,,,,,,,,,,,,,,,,,,,,,,,,,,,,,,,,,,,,,,,,,,,,,,1180.002811900049,1181.1972246000078,1179.4959486000007,1181.1972246000078,1181.1972246000078,1181.1972246000078,0.00708349997876212,0.013322299986612052,140,none,0,,,1186.2039827000117,1186.2039827000117,0.014555800007656217,0.014555800007656217,0.02000459999544546,0.05468950001522899,0.0616942000342533,0.10333399998489767,0.1102878000237979,1.0129971000133082,1189.6969457000378,1193.814854700002,,,,,,,,,,,,,,,,,,,,,,,,,,,,,21,B,2023-12-12_14h10.56.183,gca_avoidance_task,2022.2.4,144.0812156605481,
positions.xlsx,stimuli.xlsx,stimuli/Social2.png,stimuli/Social1.png,stimuli/Nonsocial1.png,stimuli/Nonsocial2.png,,"(-0.7, 0.5)",cs_minus_s,,,,,0,0,0,0,,,,,,,,,1,5,21,4,,,,,,,,,,,,,,,,,,,,,,,,,,,,,,,,,,,,,,,,,,,,,,,,,,,,,,,,,,1194.3217188999988,1195.5577743000467,1193.814854700002,1195.5577743000467,1195.5577743000467,1195.5577743000467,0.006471600034274161,0.012994799995794892,145,reward,1,[0.5000122000346892],[0.5000162000069395],1196.0647386000492,1196.0647386000492,0.0067616000305861235,0.0067616000305861235,0.018604000040795654,0.053277800034265965,0.060272700036875904,0.10186110000358894,0.10881930001778528,1.0046087999944575,1199.557684200001,1203.2380814000499,,,,,,,,,,,,,,,,,,,,,,,,,,,,,21,B,2023-12-12_14h10.56.183,gca_avoidance_task,2022.2.4,144.0812156605481,
positions.xlsx,stimuli.xlsx,stimuli/Social2.png,stimuli/Social1.png,stimuli/Nonsocial1.png,stimuli/Nonsocial2.png,,"(-0.7, 0.5)",cs_plus_s,,,,,0,0,0,0,,,,,,,,,1,6,22,0,,,,,,,,,,,,,,,,,,,,,,,,,,,,,,,,,,,,,,,,,,,,,,,,,,,,,,,,,,1203.744943800033,1205.1060668000137,1203.2380814000499,1205.1060668000137,1205.1060668000137,1205.1060668000137,0.00576929998351261,0.01327960001071915,145,none,0,,,1210.112822199997,1210.112822199997,0.014271199994254857,0.014271199994254857,0.019985999970231205,0.054636400018353015,0.061617699975613505,0.10319880000315607,0.11016129999188706,1.012939499982167,1213.6057406000327,1217.2722411000286,,,,,,,,,,,,,,,,,,,,,,,,,,,,,21,B,2023-12-12_14h10.56.183,gca_avoidance_task,2022.2.4,144.0812156605481,
positions.xlsx,stimuli.xlsx,stimuli/Social2.png,stimuli/Social1.png,stimuli/Nonsocial1.png,stimuli/Nonsocial2.png,,"(0.7, -0.5)",cs_minus_s,,,,,0,0,0,0,,,,,,,,,1,7,23,7,,,,,,,,,,,,,,,,,,,,,,,,,,,,,,,,,,,,,,,,,,,,,,,,,,,,,,,,,,1217.7791084000492,1219.0429978000466,1217.2722411000286,1219.0429978000466,1219.0429978000466,1219.0429978000466,0.005795800010673702,0.013373400026466697,150,reward,1,[0.5837606000131927],[0.5837643999839202],1219.6332449000329,1219.6332449000329,0.0068394000409170985,0.0068394000409170985,0.018362700007855892,0.05303589999675751,0.06000609998591244,0.10163940000347793,0.10857179999584332,1.0044046000111848,1223.1261953000212,1227.5565609000041,,,,,,,,,,,,,,,,,,,,,,,,,,,,,21,B,2023-12-12_14h10.56.183,gca_avoidance_task,2022.2.4,144.0812156605481,
positions.xlsx,stimuli.xlsx,stimuli/Social2.png,stimuli/Social1.png,stimuli/Nonsocial1.png,stimuli/Nonsocial2.png,,"(-0.7, -0.5)",cs_minus_s,,,,,0,0,0,0,,,,,,,,,1,8,24,5,,,,,,,,,,,,,,,,,,,,,,,,,,,,,,,,,,,,,,,,,,,,,,,,,,,,,,,,,,1228.0634305000422,1229.7300500000129,1227.5565609000041,1229.7300500000129,1229.7300500000129,1229.7300500000129,0.00581830000737682,0.013379800016991794,155,reward,1,[0.48671440000180155],[0.4867181000299752],1230.2231390000088,1230.2231390000088,0.007176600047387183,0.007176600047387183,0.018205100030172616,0.052822700003162026,0.0597882000147365,0.101488700020127,0.10841400001663715,1.0041886999970302,1233.716006600007,1237.7783609000035,,,,,,,,,,,,,,,,,,,,,,,,,,,,,21,B,2023-12-12_14h10.56.183,gca_avoidance_task,2022.2.4,144.0812156605481,
positions.xlsx,stimuli.xlsx,stimuli/Social2.png,stimuli/Social1.png,stimuli/Nonsocial1.png,stimuli/Nonsocial2.png,,"(-0.7, 0.5)",cs_plus_ns,,,,,0,0,0,0,,,,,,,,,1,9,25,8,,,,,,,,,,,,,,,,,,,,,,,,,,,,,,,,,,,,,,,,,,,,,,,,,,,,,,,,,,1238.2852472999948,1239.6810390000464,1237.7783609000035,1239.6810390000464,1239.6810390000464,1239.6810390000464,0.0065682000131346285,0.013324600004125386,155,none,0,,,1244.6878231000155,1244.6878231000155,0.013909799978137016,0.013909799978137016,0.020086399978026748,0.05474699998740107,0.06172940001124516,0.1033434999990277,0.11030549998395145,1.0130639999988489,1248.180741200049,1251.9583563000197,,,,,,,,,,,,,,,,,,,,,,,,,,,,,21,B,2023-12-12_14h10.56.183,gca_avoidance_task,2022.2.4,144.0812156605481,
positions.xlsx,stimuli.xlsx,stimuli/Social2.png,stimuli/Social1.png,stimuli/Nonsocial1.png,stimuli/Nonsocial2.png,,"(-0.7, -0.5)",cs_plus_s,,,,,0,0,0,0,,,,,,,,,1,10,26,1,,,,,,,,,,,,,,,,,,,,,,,,,,,,,,,,,,,,,,,,,,,,,,,,,,,,,,,,,,1252.4652263000025,1253.7915893000318,1251.9583563000197,1253.7915893000318,1253.7915893000318,1253.7915893000318,0.0061849000048823655,0.01340260001597926,155,none,0,,,1258.7984056000132,1258.7984056000132,0.013629399996716529,0.013629399996716529,0.02023439999902621,0.05483759997878224,0.06181240000296384,0.10344129998702556,0.11039579997304827,1.0131403999985196,1262.291343400022,1266.1384268000256,,,,,,,,,,,,,,,,,,,,,,,,,,,,,21,B,2023-12-12_14h10.56.183,gca_avoidance_task,2022.2.4,144.0812156605481,
positions.xlsx,stimuli.xlsx,stimuli/Social2.png,stimuli/Social1.png,stimuli/Nonsocial1.png,stimuli/Nonsocial2.png,,"(0.7, 0.5)",cs_plus_ns,,,,,0,0,0,0,,,,,,,,,1,11,27,10,,,,,,,,,,,,,,,,,,,,,,,,,,,,,,,,,,,,,,,,,,,,,,,,,,,,,,,,,,1266.6452517000143,1268.1035407000454,1266.1384268000256,1268.1035407000454,1268.1035407000454,1268.1035407000454,0.006571299978531897,0.013150399958249182,155,none,0,,,1273.1103004000033,1273.1103004000033,0.014084899972658604,0.014084899972658604,0.019926599983591586,0.054600199975539,0.06155199999921024,0.1032182999770157,0.11017899995204061,1.0128585000056773,1276.6032279999927,1280.2489367999951,,,,,,,,,,,,,,,,,,,,,,,,,,,,,21,B,2023-12-12_14h10.56.183,gca_avoidance_task,2022.2.4,144.0812156605481,
positions.xlsx,stimuli.xlsx,stimuli/Social2.png,stimuli/Social1.png,stimuli/Nonsocial1.png,stimuli/Nonsocial2.png,,"(-0.7, 0.5)",cs_minus_ns,,,,,0,0,0,0,,,,,,,,,1,12,28,12,,,,,,,,,,,,,,,,,,,,,,,,,,,,,,,,,,,,,,,,,,,,,,,,,,,,,,,,,,1280.7558473999961,1282.533551600005,1280.2489367999951,1282.533551600005,1282.533551600005,1282.533551600005,0.006647499976679683,0.013092199980746955,160,reward,1,[0.479329299996607],[0.47933300002478063],1283.0196280000382,1283.0196280000382,0.008357600017916411,0.008357600017916411,0.018379900022409856,0.053017200028989464,0.06000660004792735,0.10162080003647134,0.10861910000676289,1.0043614000314847,1286.5125936000259,1290.533251200046,,,,,,,,,,,,,,,,,,,,,,,,,,,,,21,B,2023-12-12_14h10.56.183,gca_avoidance_task,2022.2.4,144.0812156605481,
positions.xlsx,stimuli.xlsx,stimuli/Social2.png,stimuli/Social1.png,stimuli/Nonsocial1.png,stimuli/Nonsocial2.png,,"(0.7, 0.5)",cs_plus_s,,,,,0,0,0,0,,,,,,,,,1,13,29,2,,,,,,,,,,,,,,,,,,,,,,,,,,,,,,,,,,,,,,,,,,,,,,,,,,,,,,,,,,1291.0401426000171,1292.5401125000208,1290.533251200046,1292.5401125000208,1292.5401125000208,1292.5401125000208,0.006207600003108382,0.01318480004556477,160,none,0,,,1297.5468532000086,1297.5468532000086,0.01392260001739487,0.01392260001739487,0.01997050002682954,0.0546324000461027,0.06157150003127754,0.10319850000087172,0.11014820000855252,1.0129430000088178,1301.0397951000487,1305.2271609000163,,,,,,,,,,,,,,,,,,,,,,,,,,,,,21,B,2023-12-12_14h10.56.183,gca_avoidance_task,2022.2.4,144.0812156605481,
positions.xlsx,stimuli.xlsx,stimuli/Social2.png,stimuli/Social1.png,stimuli/Nonsocial1.png,stimuli/Nonsocial2.png,,"(-0.7, -0.5)",cs_plus_ns,,,,,0,0,0,0,,,,,,,,,1,14,30,9,,,,,,,,,,,,,,,,,,,,,,,,,,,,,,,,,,,,,,,,,,,,,,,,,,,,,,,,,,1305.734056300018,1307.21312270005,1305.2271609000163,1307.21312270005,1307.21312270005,1307.21312270005,0.006955200049560517,0.013549600029364228,160,none,0,,,1312.2199134000111,1312.2199134000111,0.014988800045102835,0.014988800045102835,0.020370100042782724,0.05499920004513115,0.061959900020156056,0.10361440002452582,0.11056200001621619,1.013289300026372,1315.7128497000085,1320.1640800000168,,,,,,,,,,,,,,,,,,,,,,,,,,,,,21,B,2023-12-12_14h10.56.183,gca_avoidance_task,2022.2.4,144.0812156605481,
positions.xlsx,stimuli.xlsx,stimuli/Social2.png,stimuli/Social1.png,stimuli/Nonsocial1.png,stimuli/Nonsocial2.png,,"(0.7, -0.5)",cs_plus_s,,,,,0,0,0,0,,,,,,,,,1,15,31,3,,,,,,,,,,,,,,,,,,,,,,,,,,,,,,,,,,,,,,,,,,,,,,,,,,,,,,,,,,1320.6709552000393,1322.2264260000084,1320.1640800000168,1322.2264260000084,1322.2264260000084,1322.2264260000084,0.006203000026289374,0.013448700017761439,160,none,0,,,1327.2332067000098,1327.2332067000098,0.013457700028084219,0.013457700028084219,0.020266000006813556,0.054876500042155385,0.06184500001836568,0.10354300000471994,0.11048410000512376,1.0131770000443794,1330.7261508000083,1334.8718451000168,,,,,,,,,,,,,,,,,,,,,,,,,,,,,21,B,2023-12-12_14h10.56.183,gca_avoidance_task,2022.2.4,144.0812156605481,
positions.xlsx,stimuli.xlsx,stimuli/Social2.png,stimuli/Social1.png,stimuli/Nonsocial1.png,stimuli/Nonsocial2.png,,"(-0.7, 0.5)",cs_minus_ns,,,,,0,0,0,0,,,,,,,,,2,0,32,12,,,,,,,,,,,,,,,,,,,,,,,,,,,,,,,,,,,,,,,,,,,,,,,,,,,,,,,,,,1335.3786834000493,1336.9550475000287,1334.8718451000168,1336.9550475000287,1336.9550475000287,1336.9550475000287,0.006696099997498095,0.013180400012061,165,reward,1,[0.4584460000041872],[0.4584498000331223],1337.4203048000345,1337.4203048000345,0.008645900001283735,0.008645900001283735,0.018640299967955798,0.0533214999595657,0.06026379996910691,0.10195419995579869,0.1089090000023134,1.004675899981521,1340.9132628000225,1345.3158206000226,,,,,,,,,,,,,,,,,,,,,,,,,,,,,21,B,2023-12-12_14h10.56.183,gca_avoidance_task,2022.2.4,144.0812156605481,
positions.xlsx,stimuli.xlsx,stimuli/Social2.png,stimuli/Social1.png,stimuli/Nonsocial1.png,stimuli/Nonsocial2.png,,"(0.7, 0.5)",cs_minus_ns,,,,,0,0,0,0,,,,,,,,,2,1,33,14,,,,,,,,,,,,,,,,,,,,,,,,,,,,,,,,,,,,,,,,,,,,,,,,,,,,,,,,,,1345.8227200999972,1347.2393874000409,1345.3158206000226,1347.2393874000409,1347.2393874000409,1347.2393874000409,0.007148900011088699,0.013004300009924918,170,reward,1,[0.3890232999692671],[0.3890269999974407],1347.6351590999984,1347.6351590999984,0.007408799952827394,0.007408799952827394,0.018382699985522777,0.05305210000369698,0.060007399995811284,0.10170229995856062,0.10865789995295927,1.0044454999733716,1351.1281504000071,1355.1140801000292,,,,,,,,,,,,,,,,,,,,,,,,,,,,,21,B,2023-12-12_14h10.56.183,gca_avoidance_task,2022.2.4,144.0812156605481,
positions.xlsx,stimuli.xlsx,stimuli/Social2.png,stimuli/Social1.png,stimuli/Nonsocial1.png,stimuli/Nonsocial2.png,,"(-0.7, -0.5)",cs_minus_s,,,,,0,0,0,0,,,,,,,,,2,2,34,5,,,,,,,,,,,,,,,,,,,,,,,,,,,,,,,,,,,,,,,,,,,,,,,,,,,,,,,,,,1355.6209730000119,1357.3847758000484,1355.1140801000292,1357.3847758000484,1357.3847758000484,1357.3847758000484,0.006480799987912178,0.013249500014353544,175,reward,1,[0.5282158000045456],[0.5282194999745116],1357.9194924000185,1357.9194924000185,0.007700299960561097,0.007700299960561097,0.018480499973520637,0.05311209999490529,0.06006280001020059,0.10170180001296103,0.10872409999137744,1.0045289999688976,1361.412400500034,1365.2525631000171,,,,,,,,,,,,,,,,,,,,,,,,,,,,,21,B,2023-12-12_14h10.56.183,gca_avoidance_task,2022.2.4,144.0812156605481,
positions.xlsx,stimuli.xlsx,stimuli/Social2.png,stimuli/Social1.png,stimuli/Nonsocial1.png,stimuli/Nonsocial2.png,,"(0.7, -0.5)",cs_plus_ns,,,,,0,0,0,0,,,,,,,,,2,3,35,11,,,,,,,,,,,,,,,,,,,,,,,,,,,,,,,,,,,,,,,,,,,,,,,,,,,,,,,,,,1365.7594449000317,1367.7316177000175,1365.2525631000171,1367.7316177000175,1367.7316177000175,1367.7316177000175,0.0071363000315614045,0.01318780001020059,175,none,0,,,1372.7383643000503,1372.7383643000503,0.013925300037954003,0.013925300037954003,0.019940200028941035,0.05458530003670603,0.06151180004235357,0.10320020001381636,0.11019560002023354,1.01286680001067,1376.2313039000146,1380.3283610999933,,,,,,,,,,,,,,,,,,,,,,,,,,,,,21,B,2023-12-12_14h10.56.183,gca_avoidance_task,2022.2.4,144.0812156605481,
positions.xlsx,stimuli.xlsx,stimuli/Social2.png,stimuli/Social1.png,stimuli/Nonsocial1.png,stimuli/Nonsocial2.png,,"(0.7, 0.5)",cs_plus_ns,,,,,0,0,0,0,,,,,,,,,2,4,36,10,,,,,,,,,,,,,,,,,,,,,,,,,,,,,,,,,,,,,,,,,,,,,,,,,,,,,,,,,,1380.835233299993,1381.8768823000137,1380.3283610999933,1381.8768823000137,1381.8768823000137,1381.8768823000137,0.006590300006791949,0.01297149999300018,175,none,0,,,1386.883632800018,1386.883632800018,0.014499999990221113,0.014499999990221113,0.019704799982719123,0.05442979995859787,0.06136819999665022,0.103045399999246,0.10999540000921115,1.0127191999927163,1390.3765459000133,1394.3486509000068,,,,,,,,,,,,,,,,,,,,,,,,,,,,,21,B,2023-12-12_14h10.56.183,gca_avoidance_task,2022.2.4,144.0812156605481,
positions.xlsx,stimuli.xlsx,stimuli/Social2.png,stimuli/Social1.png,stimuli/Nonsocial1.png,stimuli/Nonsocial2.png,,"(-0.7, 0.5)",cs_plus_s,,,,,0,0,0,0,,,,,,,,,2,5,37,0,,,,,,,,,,,,,,,,,,,,,,,,,,,,,,,,,,,,,,,,,,,,,,,,,,,,,,,,,,1394.855519600038,1396.5985252000391,1394.3486509000068,1396.5985252000391,1396.5985252000391,1396.5985252000391,0.009002899983897805,0.019962099962867796,175,none,0,,,1401.5983264000388,1401.5983264000388,0.014609300007577986,0.014609300007577986,0.0197572999750264,0.05444450001232326,0.061469400010537356,0.10300579998875037,0.10997609997866675,1.0127512000035495,1405.0912459000247,1409.500831900048,,,,,,,,,,,,,,,,,,,,,,,,,,,,,21,B,2023-12-12_14h10.56.183,gca_avoidance_task,2022.2.4,144.0812156605481,
positions.xlsx,stimuli.xlsx,stimuli/Social2.png,stimuli/Social1.png,stimuli/Nonsocial1.png,stimuli/Nonsocial2.png,,"(-0.7, 0.5)",cs_plus_ns,,,,,0,0,0,0,,,,,,,,,2,6,38,8,,,,,,,,,,,,,,,,,,,,,,,,,,,,,,,,,,,,,,,,,,,,,,,,,,,,,,,,,,1410.0077115000458,1411.1396486000158,1409.500831900048,1411.1396486000158,1411.1396486000158,1411.1396486000158,0.007023700047284365,0.013000300037674606,175,none,0,,,1416.146416100033,1416.146416100033,0.014279399998486042,0.014279399998486042,0.019736899994313717,0.054399600019678473,0.06135329999960959,0.10298890003468841,0.1099462000420317,1.0126892999978736,1419.6393229000387,1423.8961070000078,,,,,,,,,,,,,,,,,,,,,,,,,,,,,21,B,2023-12-12_14h10.56.183,gca_avoidance_task,2022.2.4,144.0812156605481,
positions.xlsx,stimuli.xlsx,stimuli/Social2.png,stimuli/Social1.png,stimuli/Nonsocial1.png,stimuli/Nonsocial2.png,,"(0.7, -0.5)",cs_minus_ns,,,,,0,0,0,0,,,,,,,,,2,7,39,15,,,,,,,,,,,,,,,,,,,,,,,,,,,,,,,,,,,,,,,,,,,,,,,,,,,,,,,,,,1424.4029826000333,1426.159852700017,1423.8961070000078,1426.159852700017,1426.159852700017,1426.159852700017,0.006902499997522682,0.01332870003534481,180,reward,1,[0.5350644999998622],[0.5350684000295587],1426.7015368000139,1426.7015368000139,0.007689099991694093,0.007689099991694093,0.018633199972100556,0.05323209997732192,0.06018419994506985,0.10183699999470264,0.10879509994992986,1.0046236999914981,1430.1944875000045,1433.847112300049,,,,,,,,,,,,,,,,,,,,,,,,,,,,,21,B,2023-12-12_14h10.56.183,gca_avoidance_task,2022.2.4,144.0812156605481,
positions.xlsx,stimuli.xlsx,stimuli/Social2.png,stimuli/Social1.png,stimuli/Nonsocial1.png,stimuli/Nonsocial2.png,,"(-0.7, 0.5)",cs_minus_s,,,,,0,0,0,0,,,,,,,,,2,8,40,4,,,,,,,,,,,,,,,,,,,,,,,,,,,,,,,,,,,,,,,,,,,,,,,,,,,,,,,,,,1434.3539790000068,1435.4511556000216,1433.847112300049,1435.4511556000216,1435.4511556000216,1435.4511556000216,0.006239500013180077,0.013151200022548437,185,reward,1,[0.6805946999811567],[0.6805984000093304],1436.1387190000387,1436.1387190000387,0.007319399970583618,0.007319399970583618,0.018913900014013052,0.053531099983956665,0.06049239996355027,0.10207319998880848,0.10911189997568727,1.004798199981451,1439.63162,1443.7772917000111,,,,,,,,,,,,,,,,,,,,,,,,,,,,,21,B,2023-12-12_14h10.56.183,gca_avoidance_task,2022.2.4,144.0812156605481,
positions.xlsx,stimuli.xlsx,stimuli/Social2.png,stimuli/Social1.png,stimuli/Nonsocial1.png,stimuli/Nonsocial2.png,,"(-0.7, -0.5)",cs_minus_ns,,,,,0,0,0,0,,,,,,,,,2,9,41,13,,,,,,,,,,,,,,,,,,,,,,,,,,,,,,,,,,,,,,,,,,,,,,,,,,,,,,,,,,1444.2841461999924,1445.916070700041,1443.7772917000111,1445.916070700041,1445.916070700041,1445.916070700041,0.0064147000084631145,0.01311810000333935,190,reward,1,[0.42391770001268014],[0.42392149998340756],1446.3465887000202,1446.3465887000202,0.00775619997875765,0.00775619997875765,0.018328499980270863,0.052984399953857064,0.05992089997744188,0.10158769995905459,0.10857159999432042,1.0043772999779321,1449.8395006000064,1453.6449649000424,,,,,,,,,,,,,,,,,,,,,,,,,,,,,21,B,2023-12-12_14h10.56.183,gca_avoidance_task,2022.2.4,144.0812156605481,
positions.xlsx,stimuli.xlsx,stimuli/Social2.png,stimuli/Social1.png,stimuli/Nonsocial1.png,stimuli/Nonsocial2.png,,"(-0.7, -0.5)",cs_plus_s,,,,,0,0,0,0,,,,,,,,,2,10,42,1,,,,,,,,,,,,,,,,,,,,,,,,,,,,,,,,,,,,,,,,,,,,,,,,,,,,,,,,,,1454.1518194000237,1455.290679000027,1453.6449649000424,1455.290679000027,1455.290679000027,1455.290679000027,0.005707100033760071,0.013484299997799098,190,none,0,,,1460.297449900012,1460.297449900012,0.014119200001005083,0.014119200001005083,0.020286799990572035,0.05494669999461621,0.061914100020658225,0.10355120000895113,0.11049400002229959,1.0131737000192516,1463.7903720000177,1468.0610205000266,,,,,,,,,,,,,,,,,,,,,,,,,,,,,21,B,2023-12-12_14h10.56.183,gca_avoidance_task,2022.2.4,144.0812156605481,
positions.xlsx,stimuli.xlsx,stimuli/Social2.png,stimuli/Social1.png,stimuli/Nonsocial1.png,stimuli/Nonsocial2.png,,"(0.7, 0.5)",cs_plus_s,,,,,0,0,0,0,,,,,,,,,2,11,43,2,,,,,,,,,,,,,,,,,,,,,,,,,,,,,,,,,,,,,,,,,,,,,,,,,,,,,,,,,,1468.5679321000353,1469.734531300026,1468.0610205000266,1469.734531300026,1469.734531300026,1469.734531300026,0.006334499979857355,0.013086199993267655,190,none,0,,,1474.7413095000084,1474.7413095000084,0.013305199972819537,0.013305199972819537,0.019858399988152087,0.054540199984330684,0.06150909996358678,0.10311389999696985,0.11007399996742606,1.012836999958381,1478.2342460000073,1481.9632480000146,,,,,,,,,,,,,,,,,,,,,,,,,,,,,21,B,2023-12-12_14h10.56.183,gca_avoidance_task,2022.2.4,144.0812156605481,
positions.xlsx,stimuli.xlsx,stimuli/Social2.png,stimuli/Social1.png,stimuli/Nonsocial1.png,stimuli/Nonsocial2.png,,"(-0.7, -0.5)",cs_plus_ns,,,,,0,0,0,0,,,,,,,,,2,12,44,9,,,,,,,,,,,,,,,,,,,,,,,,,,,,,,,,,,,,,,,,,,,,,,,,,,,,,,,,,,1482.4701491000014,1484.4284265000024,1481.9632480000146,1484.4284265000024,1484.4284265000024,1484.4284265000024,0.006564099981915206,0.013114900037180632,190,shock,1,[0.23618990002432838],[0.2361936999950558],1484.6714960000245,1484.6714960000245,0.009098000009544194,0.009098000009544194,0.018605199991725385,0.05326340004103258,0.060250400041695684,0.10188560001552105,0.10886939999181777,1.0046201000222936,1488.1644133999944,1491.6989773000241,,,,,,,,,,,,,,,,,,,,,,,,,,,,,21,B,2023-12-12_14h10.56.183,gca_avoidance_task,2022.2.4,144.0812156605481,
positions.xlsx,stimuli.xlsx,stimuli/Social2.png,stimuli/Social1.png,stimuli/Nonsocial1.png,stimuli/Nonsocial2.png,,"(0.7, -0.5)",cs_plus_s,,,,,0,0,0,0,,,,,,,,,2,13,45,3,,,,,,,,,,,,,,,,,,,,,,,,,,,,,,,,,,,,,,,,,,,,,,,,,,,,,,,,,,1492.205905400042,1494.191924600047,1491.6989773000241,1494.191924600047,1494.191924600047,1494.191924600047,0.006335600046440959,0.012933900055941194,190,none,0,,,1499.1986692000064,1499.1986692000064,0.013022500032093376,0.013022500032093376,0.01972640003077686,0.05436860001645982,0.06138330005342141,0.10303250001743436,0.10996880003949627,1.0126752000069246,1502.691639400029,1506.6150976000354,,,,,,,,,,,,,,,,,,,,,,,,,,,,,21,B,2023-12-12_14h10.56.183,gca_avoidance_task,2022.2.4,144.0812156605481,
positions.xlsx,stimuli.xlsx,stimuli/Social2.png,stimuli/Social1.png,stimuli/Nonsocial1.png,stimuli/Nonsocial2.png,,"(0.7, 0.5)",cs_minus_s,,,,,0,0,0,0,,,,,,,,,2,14,46,6,,,,,,,,,,,,,,,,,,,,,,,,,,,,,,,,,,,,,,,,,,,,,,,,,,,,,,,,,,1507.1219686000259,1508.2469521000166,1506.6150976000354,1508.2469521000166,1508.2469521000166,1508.2469521000166,0.005643800017423928,0.013095500005874783,195,reward,1,[0.4791821999824606],[0.47918600001139566],1508.7330341000343,1508.7330341000343,0.00724210002226755,0.00724210002226755,0.018344199983403087,0.05302489997120574,0.059948100009933114,0.10163290001219139,0.10861310001928359,1.0043733000056818,1512.226009600039,1516.6355404000496,,,,,,,,,,,,,,,,,,,,,,,,,,,,,21,B,2023-12-12_14h10.56.183,gca_avoidance_task,2022.2.4,144.0812156605481,
positions.xlsx,stimuli.xlsx,stimuli/Social2.png,stimuli/Social1.png,stimuli/Nonsocial1.png,stimuli/Nonsocial2.png,,"(0.7, -0.5)",cs_minus_s,,,,,0,0,0,0,,,,,,,,,2,15,47,7,,,,,,,,,,,,,,,,,,,,,,,,,,,,,,,,,,,,,,,,,,,,,,,,,,,,,,,,,,1517.1423923000111,1518.27431290003,1516.6355404000496,1518.27431290003,1518.27431290003,1518.27431290003,0.006573999999091029,0.01322620001155883,200,reward,1,[0.5003952999832109],[0.500398900010623],1518.7812571999966,1518.7812571999966,0.007450799981597811,0.007450799981597811,0.018732799973804504,0.05330249998951331,0.06030459998873994,0.10195039998507127,0.10894740000367165,1.0046604999806732,1522.2742425000179,1526.281007100013,,,,,,,,,,,,,,,,,,,,,,,,,,,,,21,B,2023-12-12_14h10.56.183,gca_avoidance_task,2022.2.4,144.0812156605481,
positions.xlsx,stimuli.xlsx,stimuli/Social2.png,stimuli/Social1.png,stimuli/Nonsocial1.png,stimuli/Nonsocial2.png,,"(0.7, 0.5)",cs_plus_ns,,,,,0,0,0,0,,,,,,,,,3,0,48,10,,,,,,,,,,,,,,,,,,,,,,,,,,,,,,,,,,,,,,,,,,,,,,,,,,,,,,,,,,1526.7878739000298,1528.7739565999946,1526.281007100013,1528.7739565999946,1528.7739565999946,1528.7739565999946,0.0071202999679371715,0.013465799973346293,200,none,0,,,1533.787622700038,1533.787622700038,0.014782399986870587,0.014782399986870587,0.027169000008143485,0.054868799983523786,0.061807399964891374,0.10346139996545389,0.11044889996992424,1.0131896999664605,1537.273588400043,1540.8707223000238,,,,,,,,,,,,,,,,,,,,,,,,,,,,,21,B,2023-12-12_14h10.56.183,gca_avoidance_task,2022.2.4,144.0812156605481,
positions.xlsx,stimuli.xlsx,stimuli/Social2.png,stimuli/Social1.png,stimuli/Nonsocial1.png,stimuli/Nonsocial2.png,,"(0.7, 0.5)",cs_plus_s,,,,,0,0,0,0,,,,,,,,,3,1,49,2,,,,,,,,,,,,,,,,,,,,,,,,,,,,,,,,,,,,,,,,,,,,,,,,,,,,,,,,,,1541.3776098000235,1542.808107000019,1540.8707223000238,1542.808107000019,1542.808107000019,1542.808107000019,0.0059145999839529395,0.013063799997325987,200,none,0,,,1547.8148753000423,1547.8148753000423,0.013401600008364767,0.013401600008364767,0.019856900034938008,0.054486699984408915,0.06142590002855286,0.10308510001050308,0.11003119999077171,1.0127983000129461,1551.307819800044,1555.6548499000492,,,,,,,,,,,,,,,,,,,,,,,,,,,,,21,B,2023-12-12_14h10.56.183,gca_avoidance_task,2022.2.4,144.0812156605481,
positions.xlsx,stimuli.xlsx,stimuli/Social2.png,stimuli/Social1.png,stimuli/Nonsocial1.png,stimuli/Nonsocial2.png,,"(0.7, 0.5)",cs_minus_s,,,,,0,0,0,0,,,,,,,,,3,2,50,6,,,,,,,,,,,,,,,,,,,,,,,,,,,,,,,,,,,,,,,,,,,,,,,,,,,,,,,,,,1556.1617358000367,1557.8560967000085,1555.6548499000492,1557.8560967000085,1557.8560967000085,1557.8560967000085,0.006487999984528869,0.012948299990966916,205,reward,1,[0.5140596000128426],[0.5140632999828085],1558.3769154000329,1558.3769154000329,0.007113100029528141,0.007113100029528141,0.01839829998789355,0.05304730002535507,0.06005079997703433,0.10166869999375194,0.10863650002283975,1.0044764999765903,1561.869909400004,1565.9738766000373,,,,,,,,,,,,,,,,,,,,,,,,,,,,,21,B,2023-12-12_14h10.56.183,gca_avoidance_task,2022.2.4,144.0812156605481,
positions.xlsx,stimuli.xlsx,stimuli/Social2.png,stimuli/Social1.png,stimuli/Nonsocial1.png,stimuli/Nonsocial2.png,,"(-0.7, -0.5)",cs_minus_s,,,,,0,0,0,0,,,,,,,,,3,3,51,5,,,,,,,,,,,,,,,,,,,,,,,,,,,,,,,,,,,,,,,,,,,,,,,,,,,,,,,,,,1566.480775700009,1568.3348654000438,1565.9738766000373,1568.3348654000438,1568.3348654000438,1568.3348654000438,0.006060199986677617,0.013329499983228743,210,reward,1,[0.409963299985975],[0.4099667999544181],1568.7515361999976,1568.7515361999976,0.007241100014653057,0.007241100014653057,0.0184237000066787,0.0531184000428766,0.06008240004302934,0.1017303999979049,0.10868470004061237,1.004428900021594,1572.244507800031,1576.2165075000376,,,,,,,,,,,,,,,,,,,,,,,,,,,,,21,B,2023-12-12_14h10.56.183,gca_avoidance_task,2022.2.4,144.0812156605481,
positions.xlsx,stimuli.xlsx,stimuli/Social2.png,stimuli/Social1.png,stimuli/Nonsocial1.png,stimuli/Nonsocial2.png,,"(-0.7, -0.5)",cs_plus_s,,,,,0,0,0,0,,,,,,,,,3,4,52,1,,,,,,,,,,,,,,,,,,,,,,,,,,,,,,,,,,,,,,,,,,,,,,,,,,,,,,,,,,1576.7234232000192,1578.646963600011,1576.2165075000376,1578.646963600011,1578.646963600011,1578.646963600011,0.006474800000432879,0.013190499972552061,210,none,0,,,1583.6537319000345,1583.6537319000345,0.013469099998474121,0.013469099998474121,0.019980299985036254,0.054615699977148324,0.06162190000759438,0.10321199998725206,0.11017259996151552,1.0129545999807306,1587.1466415000032,1590.813214600028,,,,,,,,,,,,,,,,,,,,,,,,,,,,,21,B,2023-12-12_14h10.56.183,gca_avoidance_task,2022.2.4,144.0812156605481,
positions.xlsx,stimuli.xlsx,stimuli/Social2.png,stimuli/Social1.png,stimuli/Nonsocial1.png,stimuli/Nonsocial2.png,,"(-0.7, 0.5)",cs_plus_ns,,,,,0,0,0,0,,,,,,,,,3,5,53,8,,,,,,,,,,,,,,,,,,,,,,,,,,,,,,,,,,,,,,,,,,,,,,,,,,,,,,,,,,1591.3200708000222,1592.6464275000035,1590.813214600028,1592.6464275000035,1592.6464275000035,1592.6464275000035,0.006829200021456927,0.01312989997677505,210,none,0,,,1597.6532124000369,1597.6532124000369,0.01419820002047345,0.01419820002047345,0.019936199998483062,0.054522500024177134,0.06147740001324564,0.10325179999927059,0.1101436999742873,1.0128630999824964,1601.1461512999958,1605.180671500042,,,,,,,,,,,,,,,,,,,,,,,,,,,,,21,B,2023-12-12_14h10.56.183,gca_avoidance_task,2022.2.4,144.0812156605481,
positions.xlsx,stimuli.xlsx,stimuli/Social2.png,stimuli/Social1.png,stimuli/Nonsocial1.png,stimuli/Nonsocial2.png,,"(0.7, 0.5)",cs_minus_ns,,,,,0,0,0,0,,,,,,,,,3,6,54,14,,,,,,,,,,,,,,,,,,,,,,,,,,,,,,,,,,,,,,,,,,,,,,,,,,,,,,,,,,1605.6876106000273,1606.8056086000288,1605.180671500042,1606.8056086000288,1606.8056086000288,1606.8056086000288,0.006513000000268221,0.013485400006175041,215,reward,1,[0.444873699976597],[0.44487730000400916],1607.2569568000035,1607.2569568000035,0.008223599987104535,0.008223599987104535,0.018687100033275783,0.05339820001972839,0.06033140001818538,0.10195979999843985,0.10894280002685264,1.0047413000138476,1610.7499346000259,1614.4164694000501,,,,,,,,,,,,,,,,,,,,,,,,,,,,,21,B,2023-12-12_14h10.56.183,gca_avoidance_task,2022.2.4,144.0812156605481,
positions.xlsx,stimuli.xlsx,stimuli/Social2.png,stimuli/Social1.png,stimuli/Nonsocial1.png,stimuli/Nonsocial2.png,,"(-0.7, -0.5)",cs_plus_ns,,,,,0,0,0,0,,,,,,,,,3,7,55,9,,,,,,,,,,,,,,,,,,,,,,,,,,,,,,,,,,,,,,,,,,,,,,,,,,,,,,,,,,1614.9233186000492,1616.9163374000345,1614.4164694000501,1616.9163374000345,1616.9163374000345,1616.9163374000345,0.006764799996744841,0.013143799966201186,215,none,0,,,1621.9230494000367,1621.9230494000367,0.013629900000523776,0.013629900000523776,0.0198445999994874,0.05457300000125542,0.06152200000360608,0.10313319996930659,0.11010849999729544,1.0128469999763183,1625.4160307000275,1629.103404399997,,,,,,,,,,,,,,,,,,,,,,,,,,,,,21,B,2023-12-12_14h10.56.183,gca_avoidance_task,2022.2.4,144.0812156605481,
positions.xlsx,stimuli.xlsx,stimuli/Social2.png,stimuli/Social1.png,stimuli/Nonsocial1.png,stimuli/Nonsocial2.png,,"(0.7, -0.5)",cs_plus_s,,,,,0,0,0,0,,,,,,,,,3,8,56,3,,,,,,,,,,,,,,,,,,,,,,,,,,,,,,,,,,,,,,,,,,,,,,,,,,,,,,,,,,1629.6102287000394,1631.0685150999925,1629.103404399997,1631.0685150999925,1631.0685150999925,1631.0685150999925,0.006134699971880764,0.01309600000968203,215,none,0,,,1636.0752955000498,1636.0752955000498,0.013401900010649115,0.013401900010649115,0.019870400021318346,0.05457899998873472,0.061524400021880865,0.10313619999215007,0.110106399981305,1.0128512000082992,1639.5682699000463,1643.422246000031,,,,,,,,,,,,,,,,,,,,,,,,,,,,,21,B,2023-12-12_14h10.56.183,gca_avoidance_task,2022.2.4,144.0812156605481,
positions.xlsx,stimuli.xlsx,stimuli/Social2.png,stimuli/Social1.png,stimuli/Nonsocial1.png,stimuli/Nonsocial2.png,,"(0.7, -0.5)",cs_minus_s,,,,,0,0,0,0,,,,,,,,,3,9,57,7,,,,,,,,,,,,,,,,,,,,,,,,,,,,,,,,,,,,,,,,,,,,,,,,,,,,,,,,,,1643.9291590000503,1645.6721579000005,1643.422246000031,1645.6721579000005,1645.6721579000005,1645.6721579000005,0.006282599992118776,0.013073100009933114,220,reward,1,[0.5140409999876283],[0.5140446000150405],1646.192955000035,1646.192955000035,0.007965600001625717,0.007965600001625717,0.018522700003813952,0.05317790003027767,0.0601862000185065,0.10181530000409111,0.10873720003291965,1.0045325999963097,1649.6859386000433,1654.1371425000252,,,,,,,,,,,,,,,,,,,,,,,,,,,,,21,B,2023-12-12_14h10.56.183,gca_avoidance_task,2022.2.4,144.0812156605481,
positions.xlsx,stimuli.xlsx,stimuli/Social2.png,stimuli/Social1.png,stimuli/Nonsocial1.png,stimuli/Nonsocial2.png,,"(0.7, -0.5)",cs_plus_ns,,,,,0,0,0,0,,,,,,,,,3,10,58,11,,,,,,,,,,,,,,,,,,,,,,,,,,,,,,,,,,,,,,,,,,,,,,,,,,,,,,,,,,1654.6440168000408,1655.977282900014,1654.1371425000252,1655.977282900014,1655.977282900014,1655.977282900014,0.0065413000411354005,0.013200199988204986,220,none,0,,,1660.9840376000502,1660.9840376000502,0.014177100034430623,0.014177100034430623,0.0199572000419721,0.05466250004246831,0.06157970003550872,0.10325250000460073,0.1102631000103429,1.012956499995198,1664.4770323000266,1668.9698761000182,,,,,,,,,,,,,,,,,,,,,,,,,,,,,21,B,2023-12-12_14h10.56.183,gca_avoidance_task,2022.2.4,144.0812156605481,
positions.xlsx,stimuli.xlsx,stimuli/Social2.png,stimuli/Social1.png,stimuli/Nonsocial1.png,stimuli/Nonsocial2.png,,"(-0.7, 0.5)",cs_minus_ns,,,,,0,0,0,0,,,,,,,,,3,11,59,12,,,,,,,,,,,,,,,,,,,,,,,,,,,,,,,,,,,,,,,,,,,,,,,,,,,,,,,,,,1669.4767703000107,1671.094726200041,1668.9698761000182,1671.094726200041,1671.094726200041,1671.094726200041,0.0074767000041902065,0.013118400005623698,225,reward,1,[0.47943449998274446],[0.4794382000109181],1671.5808976000408,1671.5808976000408,0.008493000001180917,0.008493000001180917,0.018360599991865456,0.05303419998381287,0.060007099993526936,0.10164750000694767,0.10857969999779016,1.0043533999705687,1675.07377300004,1679.4764243999962,,,,,,,,,,,,,,,,,,,,,,,,,,,,,21,B,2023-12-12_14h10.56.183,gca_avoidance_task,2022.2.4,144.0812156605481,
positions.xlsx,stimuli.xlsx,stimuli/Social2.png,stimuli/Social1.png,stimuli/Nonsocial1.png,stimuli/Nonsocial2.png,,"(-0.7, 0.5)",cs_plus_s,,,,,0,0,0,0,,,,,,,,,3,12,60,0,,,,,,,,,,,,,,,,,,,,,,,,,,,,,,,,,,,,,,,,,,,,,,,,,,,,,,,,,,1679.9832979000057,1681.559641300002,1679.4764243999962,1681.559641300002,1681.559641300002,1681.559641300002,0.005913899978622794,0.013488899974618107,225,none,0,,,1686.566377900017,1686.566377900017,0.014910399971995503,0.014910399971995503,0.02023099997313693,0.0549231999902986,0.061910999997053295,0.10353289998602122,0.11051490000681952,1.013208599993959,1690.0593272999977,1693.5661191000254,,,,,,,,,,,,,,,,,,,,,,,,,,,,,21,B,2023-12-12_14h10.56.183,gca_avoidance_task,2022.2.4,144.0812156605481,
positions.xlsx,stimuli.xlsx,stimuli/Social2.png,stimuli/Social1.png,stimuli/Nonsocial1.png,stimuli/Nonsocial2.png,,"(0.7, -0.5)",cs_minus_ns,,,,,0,0,0,0,,,,,,,,,3,13,61,15,,,,,,,,,,,,,,,,,,,,,,,,,,,,,,,,,,,,,,,,,,,,,,,,,,,,,,,,,,1694.073011200002,1695.6702005999978,1693.5661191000254,1695.6702005999978,1695.6702005999978,1695.6702005999978,0.006933299999218434,0.013248700008261949,230,reward,1,[0.4655646000173874],[0.4655682000447996],1696.1424148000078,1696.1424148000078,0.007684400014113635,0.007684400014113635,0.018105999974068254,0.0528193999780342,0.059771700005512685,0.1014067999785766,0.10832180001307279,1.0041119999950752,1699.6353611000231,1703.8157741000177,,,,,,,,,,,,,,,,,,,,,,,,,,,,,21,B,2023-12-12_14h10.56.183,gca_avoidance_task,2022.2.4,144.0812156605481,
positions.xlsx,stimuli.xlsx,stimuli/Social2.png,stimuli/Social1.png,stimuli/Nonsocial1.png,stimuli/Nonsocial2.png,,"(-0.7, -0.5)",cs_minus_ns,,,,,0,0,0,0,,,,,,,,,3,14,62,13,,,,,,,,,,,,,,,,,,,,,,,,,,,,,,,,,,,,,,,,,,,,,,,,,,,,,,,,,,1704.3225994000095,1706.0656102000503,1703.8157741000177,1706.0656102000503,1706.0656102000503,1706.0656102000503,0.0070398999960161746,0.013058999960776418,235,reward,1,[0.4514985999558121],[0.4515021999832243],1706.5239476000424,1706.5239476000424,0.00787329999729991,0.00787329999729991,0.018359400040935725,0.05299570003990084,0.059949500020593405,0.1016247000079602,0.10862040001666173,1.0043525000219233,1710.0168974000262,1714.0722620000015,,,,,,,,,,,,,,,,,,,,,,,,,,,,,21,B,2023-12-12_14h10.56.183,gca_avoidance_task,2022.2.4,144.0812156605481,
positions.xlsx,stimuli.xlsx,stimuli/Social2.png,stimuli/Social1.png,stimuli/Nonsocial1.png,stimuli/Nonsocial2.png,,"(-0.7, 0.5)",cs_minus_s,,,,,0,0,0,0,,,,,,,,,3,15,63,4,,,,,,,,,,,,,,,,,,,,,,,,,,,,,,,,,,,,,,,,,,,,,,,,,,,,,,,,,,1714.579174500017,1715.7596712000086,1714.0722620000015,1715.7596712000086,1715.7596712000086,1715.7596712000086,0.00679309997940436,0.013260499981697649,240,reward,1,[0.5142564999987371],[0.5142603000276722],1716.2805427000276,1716.2805427000276,0.007378100010100752,0.007378100010100752,0.018103300011716783,0.052739800012204796,0.05971770000178367,0.10130460001528263,0.10825510002905503,1.0041216000099666,1719.7734697000124,1723.4747162000276,,,,,,,,,,,,,,,,,,,,,,,,,,,,,21,B,2023-12-12_14h10.56.183,gca_avoidance_task,2022.2.4,144.0812156605481,
positions.xlsx,stimuli.xlsx,stimuli/Social2.png,stimuli/Social1.png,stimuli/Nonsocial1.png,stimuli/Nonsocial2.png,,"(0.7, -0.5)",cs_plus_s,,,,,0,0,0,0,,,,,,,,,4,0,64,3,,,,,,,,,,,,,,,,,,,,,,,,,,,,,,,,,,,,,,,,,,,,,,,,,,,,,,,,,,1723.9815681000473,1725.571788000001,1723.4747162000276,1725.571788000001,1725.571788000001,1725.571788000001,0.006500199961010367,0.013032299990300089,240,none,0,,,1730.5785535000032,1730.5785535000032,0.013652199995703995,0.013652199995703995,0.019808100012596697,0.0544891000026837,0.061457599978893995,0.10314089996973053,0.11005469999508932,1.0127564999856986,1734.0715076000197,1737.6477171000442,,,,,,,,,,,,,,,,,,,,,,,,,,,,,21,B,2023-12-12_14h10.56.183,gca_avoidance_task,2022.2.4,144.0812156605481,
