posFile,stimFile,cs_plus_s,cs_minus_s,cs_plus_ns,cs_minus_ns,stimtype,position,trialtype,trials_threshold.thisRepN,trials_threshold.thisTrialN,trials_threshold.thisN,trials_threshold.thisIndex,blocks.thisRepN,blocks.thisTrialN,blocks.thisN,blocks.thisIndex,ratingtrials1.thisRepN,ratingtrials1.thisTrialN,ratingtrials1.thisN,ratingtrials1.thisIndex,learning_trials.thisRepN,learning_trials.thisTrialN,learning_trials.thisN,learning_trials.thisIndex,trials.thisRepN,trials.thisTrialN,trials.thisN,trials.thisIndex,ratingtrials2.thisRepN,ratingtrials2.thisTrialN,ratingtrials2.thisN,ratingtrials2.thisIndex,testtrials.thisRepN,testtrials.thisTrialN,testtrials.thisN,testtrials.thisIndex,ratingtrials3.thisRepN,ratingtrials3.thisTrialN,ratingtrials3.thisN,ratingtrials3.thisIndex,textStart.started,sliderPainT.response,sliderPainT.rt,textStartExp.started,imageRating.started,sliderStim.response,sliderStim.rt,textStartTask.started,image.started,score,outcome,roi.numLooks,roi.timesOn,roi.timesOff,imageFeedback.started,sliderPain.response,sliderPain.rt,textTestInstr.started,imageTest.started,roiTest.numLooks,roiTest.timesOn,roiTest.timesOff,participant,group,date,expName,psychopyVersion,frameRate,
,,,,,,,,,0,0,0,0,,,,,,,,,,,,,,,,,,,,,,,,,,,,,13.675197300035506,None,None,,,,,,,,,,,,,,,,,,,,28,D,2023-12-14_13h36.13.425,gca_avoidance_task,2022.2.4,143.8468088880569,
,,,,,,,,,1,0,1,0,,,,,,,,,,,,,,,,,,,,,,,,,,,,,,None,None,,,,,,,,,,,,,,,,,,,,28,D,2023-12-14_13h36.13.425,gca_avoidance_task,2022.2.4,143.8468088880569,
,,,,,,,,,2,0,2,0,,,,,,,,,,,,,,,,,,,,,,,,,,,,,,None,None,,,,,,,,,,,,,,,,,,,,28,D,2023-12-14_13h36.13.425,gca_avoidance_task,2022.2.4,143.8468088880569,
,,,,,,,,,3,0,3,0,,,,,,,,,,,,,,,,,,,,,,,,,,,,,,None,None,,,,,,,,,,,,,,,,,,,,28,D,2023-12-14_13h36.13.425,gca_avoidance_task,2022.2.4,143.8468088880569,
,,,,,,,,,4,0,4,0,,,,,,,,,,,,,,,,,,,,,,,,,,,,,,None,None,,,,,,,,,,,,,,,,,,,,28,D,2023-12-14_13h36.13.425,gca_avoidance_task,2022.2.4,143.8468088880569,
,,,,,,,,,5,0,5,0,,,,,,,,,,,,,,,,,,,,,,,,,,,,,,1.0,24.07363259990234,,,,,,,,,,,,,,,,,,,,28,D,2023-12-14_13h36.13.425,gca_avoidance_task,2022.2.4,143.8468088880569,
,,,,,,,,,6,0,6,0,,,,,,,,,,,,,,,,,,,,,,,,,,,,,,2.0,2.8771156000439078,,,,,,,,,,,,,,,,,,,,28,D,2023-12-14_13h36.13.425,gca_avoidance_task,2022.2.4,143.8468088880569,
,,,,,,,,,7,0,7,0,,,,,,,,,,,,,,,,,,,,,,,,,,,,,,3.0,4.006848099990748,,,,,,,,,,,,,,,,,,,,28,D,2023-12-14_13h36.13.425,gca_avoidance_task,2022.2.4,143.8468088880569,
,,,,,,,,,8,0,8,0,,,,,,,,,,,,,,,,,,,,,,,,,,,,,,3.0,5.333015999989584,,,,,,,,,,,,,,,,,,,,28,D,2023-12-14_13h36.13.425,gca_avoidance_task,2022.2.4,143.8468088880569,
,,,,,,,,,9,0,9,0,,,,,,,,,,,,,,,,,,,,,,,,,,,,,,3.0,1.6138043999671936,,,,,,,,,,,,,,,,,,,,28,D,2023-12-14_13h36.13.425,gca_avoidance_task,2022.2.4,143.8468088880569,
,,,,,,,,,10,0,10,0,,,,,,,,,,,,,,,,,,,,,,,,,,,,,,3.0,3.739780900068581,,,,,,,,,,,,,,,,,,,,28,D,2023-12-14_13h36.13.425,gca_avoidance_task,2022.2.4,143.8468088880569,
,,,,,,,,,11,0,11,0,,,,,,,,,,,,,,,,,,,,,,,,,,,,,,4.0,1.192862099967897,,,,,,,,,,,,,,,,,,,,28,D,2023-12-14_13h36.13.425,gca_avoidance_task,2022.2.4,143.8468088880569,
,,,,,,,,,12,0,12,0,,,,,,,,,,,,,,,,,,,,,,,,,,,,,,4.0,1.526495400001295,,,,,,,,,,,,,,,,,,,,28,D,2023-12-14_13h36.13.425,gca_avoidance_task,2022.2.4,143.8468088880569,
,,,,,,,,,13,0,13,0,,,,,,,,,,,,,,,,,,,,,,,,,,,,,,4.0,2.2947495999978855,,,,,,,,,,,,,,,,,,,,28,D,2023-12-14_13h36.13.425,gca_avoidance_task,2022.2.4,143.8468088880569,
,,,,,,,,,14,0,14,0,,,,,,,,,,,,,,,,,,,,,,,,,,,,,,4.0,2.029837099951692,,,,,,,,,,,,,,,,,,,,28,D,2023-12-14_13h36.13.425,gca_avoidance_task,2022.2.4,143.8468088880569,
,,,,,,,,,15,0,15,0,,,,,,,,,,,,,,,,,,,,,,,,,,,,,,4.0,30.85371940000914,,,,,,,,,,,,,,,,,,,,28,D,2023-12-14_13h36.13.425,gca_avoidance_task,2022.2.4,143.8468088880569,
,,,,,,,,,16,0,16,0,,,,,,,,,,,,,,,,,,,,,,,,,,,,,,5.0,1.012290499988012,,,,,,,,,,,,,,,,,,,,28,D,2023-12-14_13h36.13.425,gca_avoidance_task,2022.2.4,143.8468088880569,
,,,,,,,,,17,0,17,0,,,,,,,,,,,,,,,,,,,,,,,,,,,,,,6.0,0.803570399992168,,,,,,,,,,,,,,,,,,,,28,D,2023-12-14_13h36.13.425,gca_avoidance_task,2022.2.4,143.8468088880569,
,,,,,,,,,18,0,18,0,,,,,,,,,,,,,,,,,,,,,,,,,,,,,,6.0,2.7452379000606015,,,,,,,,,,,,,,,,,,,,28,D,2023-12-14_13h36.13.425,gca_avoidance_task,2022.2.4,143.8468088880569,
,,,,,,,,,19,0,19,0,,,,,,,,,,,,,,,,,,,,,,,,,,,,,,6.0,2.7788338999962434,,,,,,,,,,,,,,,,,,,,28,D,2023-12-14_13h36.13.425,gca_avoidance_task,2022.2.4,143.8468088880569,
,,,,,,,,,20,0,20,0,,,,,,,,,,,,,,,,,,,,,,,,,,,,,,6.0,0.8915868999902159,,,,,,,,,,,,,,,,,,,,28,D,2023-12-14_13h36.13.425,gca_avoidance_task,2022.2.4,143.8468088880569,
,,,,,,,,,21,0,21,0,,,,,,,,,,,,,,,,,,,,,,,,,,,,,,6.0,2.1872979000909254,,,,,,,,,,,,,,,,,,,,28,D,2023-12-14_13h36.13.425,gca_avoidance_task,2022.2.4,143.8468088880569,
,,,,,,,,,22,0,22,0,,,,,,,,,,,,,,,,,,,,,,,,,,,,,,6.0,1.4198500000638887,,,,,,,,,,,,,,,,,,,,28,D,2023-12-14_13h36.13.425,gca_avoidance_task,2022.2.4,143.8468088880569,
,,,,,,,,,23,0,23,0,,,,,,,,,,,,,,,,,,,,,,,,,,,,,,6.0,0.9310131000820547,,,,,,,,,,,,,,,,,,,,28,D,2023-12-14_13h36.13.425,gca_avoidance_task,2022.2.4,143.8468088880569,
,,,,,,,,,24,0,24,0,,,,,,,,,,,,,,,,,,,,,,,,,,,,,,5.0,1.6223783999448642,,,,,,,,,,,,,,,,,,,,28,D,2023-12-14_13h36.13.425,gca_avoidance_task,2022.2.4,143.8468088880569,
,,,,,,,,,25,0,25,0,,,,,,,,,,,,,,,,,,,,,,,,,,,,,,6.0,1.895634299959056,,,,,,,,,,,,,,,,,,,,28,D,2023-12-14_13h36.13.425,gca_avoidance_task,2022.2.4,143.8468088880569,
,,,,,,,,,26,0,26,0,,,,,,,,,,,,,,,,,,,,,,,,,,,,,,6.0,0.7438924999441952,,,,,,,,,,,,,,,,,,,,28,D,2023-12-14_13h36.13.425,gca_avoidance_task,2022.2.4,143.8468088880569,
,,,,,,,,,27,0,27,0,,,,,,,,,,,,,,,,,,,,,,,,,,,,,,7.0,2.513583099935204,,,,,,,,,,,,,,,,,,,,28,D,2023-12-14_13h36.13.425,gca_avoidance_task,2022.2.4,143.8468088880569,
,,,,,,,,,28,0,28,0,,,,,,,,,,,,,,,,,,,,,,,,,,,,,,6.0,0.7752778000431135,,,,,,,,,,,,,,,,,,,,28,D,2023-12-14_13h36.13.425,gca_avoidance_task,2022.2.4,143.8468088880569,
positions.xlsx,stimuli.xlsx,stimuli/Social2.png,stimuli/Social1.png,stimuli/Nonsocial2.png,stimuli/Nonsocial1.png,cs_plus_ns,,,,,,,0,0,0,0,0,0,0,1,,,,,,,,,,,,,,,,,,,,,,,,433.45733930007555,467.3864269000478,4.0,7.271796499961056,,,,,,,,,,,,,,,,28,D,2023-12-14_13h36.13.425,gca_avoidance_task,2022.2.4,143.8468088880569,
positions.xlsx,stimuli.xlsx,stimuli/Social2.png,stimuli/Social1.png,stimuli/Nonsocial2.png,stimuli/Nonsocial1.png,cs_minus_ns,,,,,,,0,0,0,0,0,1,1,3,,,,,,,,,,,,,,,,,,,,,,,,,475.7679595000809,4.0,3.075823299936019,,,,,,,,,,,,,,,,28,D,2023-12-14_13h36.13.425,gca_avoidance_task,2022.2.4,143.8468088880569,
positions.xlsx,stimuli.xlsx,stimuli/Social2.png,stimuli/Social1.png,stimuli/Nonsocial2.png,stimuli/Nonsocial1.png,cs_minus_s,,,,,,,0,0,0,0,0,2,2,2,,,,,,,,,,,,,,,,,,,,,,,,,479.46228069998324,4.0,7.270565799903125,,,,,,,,,,,,,,,,28,D,2023-12-14_13h36.13.425,gca_avoidance_task,2022.2.4,143.8468088880569,
positions.xlsx,stimuli.xlsx,stimuli/Social2.png,stimuli/Social1.png,stimuli/Nonsocial2.png,stimuli/Nonsocial1.png,cs_plus_s,,,,,,,0,0,0,0,0,3,3,0,,,,,,,,,,,,,,,,,,,,,,,,,487.71195520006586,4.0,2.222593600046821,,,,,,,,,,,,,,,,28,D,2023-12-14_13h36.13.425,gca_avoidance_task,2022.2.4,143.8468088880569,
positions.xlsx,stimuli.xlsx,stimuli/Social2.png,stimuli/Social1.png,stimuli/Nonsocial2.png,stimuli/Nonsocial1.png,,"(0.7, -0.5)",cs_minus_s,,,,,0,0,0,0,,,,,0,0,0,7,,,,,,,,,,,,,,,,,,,,,,,,490.5729326000437,504.8640516999876,5,reward,1,0.21557799994479865,0.21558159997221082,505.09322110004723,,,,,,,,28,D,2023-12-14_13h36.13.425,gca_avoidance_task,2022.2.4,143.8468088880569,
positions.xlsx,stimuli.xlsx,stimuli/Social2.png,stimuli/Social1.png,stimuli/Nonsocial2.png,stimuli/Nonsocial1.png,,"(0.7, 0.5)",cs_minus_s,,,,,0,0,0,0,,,,,0,1,1,6,,,,,,,,,,,,,,,,,,,,,,,,,514.4608679000521,10,reward,1,0.2638305000727996,0.2638339000986889,514.7316706000129,,,,,,,,28,D,2023-12-14_13h36.13.425,gca_avoidance_task,2022.2.4,143.8468088880569,
positions.xlsx,stimuli.xlsx,stimuli/Social2.png,stimuli/Social1.png,stimuli/Nonsocial2.png,stimuli/Nonsocial1.png,,"(0.7, 0.5)",cs_plus_ns,,,,,0,0,0,0,,,,,0,2,2,10,,,,,,,,,,,,,,,,,,,,,,,,,524.6757596000098,10,shock,1,0.2366654999786988,0.2366838000016287,524.9188129000831,,,,,,,,28,D,2023-12-14_13h36.13.425,gca_avoidance_task,2022.2.4,143.8468088880569,
positions.xlsx,stimuli.xlsx,stimuli/Social2.png,stimuli/Social1.png,stimuli/Nonsocial2.png,stimuli/Nonsocial1.png,,"(-0.7, 0.5)",cs_minus_ns,,,,,0,0,0,0,,,,,0,3,3,12,,,,,,,,,,,,,,,,,,,,,,,,,535.0086685999995,15,reward,1,0.2501390000106767,0.2501427000388503,535.2656265000114,,,,,,,,28,D,2023-12-14_13h36.13.425,gca_avoidance_task,2022.2.4,143.8468088880569,
positions.xlsx,stimuli.xlsx,stimuli/Social2.png,stimuli/Social1.png,stimuli/Nonsocial2.png,stimuli/Nonsocial1.png,,"(0.7, -0.5)",cs_plus_s,,,,,0,0,0,0,,,,,0,4,4,3,,,,,,,,,,,,,,,,,,,,,,,,,544.938833400025,15,shock,1,0.22265929996501654,0.22266299999319017,545.1680273000384,,,,,,,,28,D,2023-12-14_13h36.13.425,gca_avoidance_task,2022.2.4,143.8468088880569,
positions.xlsx,stimuli.xlsx,stimuli/Social2.png,stimuli/Social1.png,stimuli/Nonsocial2.png,stimuli/Nonsocial1.png,,"(-0.7, 0.5)",cs_minus_s,,,,,0,0,0,0,,,,,0,5,5,4,,,,,,,,,,,,,,,,,,,,,,,,,554.8551029000664,20,reward,1,0.22943800000939518,0.2294414999196306,555.0912261999911,,,,,,,,28,D,2023-12-14_13h36.13.425,gca_avoidance_task,2022.2.4,143.8468088880569,
positions.xlsx,stimuli.xlsx,stimuli/Social2.png,stimuli/Social1.png,stimuli/Nonsocial2.png,stimuli/Nonsocial1.png,,"(0.7, 0.5)",cs_plus_s,,,,,0,0,0,0,,,,,0,6,6,2,,,,,,,,,,,,,,,,,,,,,,,,,564.2644688000437,20,shock,1,0.20860040001571178,0.2086043000454083,564.4797500000568,,,,,,,,28,D,2023-12-14_13h36.13.425,gca_avoidance_task,2022.2.4,143.8468088880569,
positions.xlsx,stimuli.xlsx,stimuli/Social2.png,stimuli/Social1.png,stimuli/Nonsocial2.png,stimuli/Nonsocial1.png,,"(-0.7, 0.5)",cs_plus_s,,,,,0,0,0,0,,,,,0,7,7,0,,,,,,,,,,,,,,,,,,,,,,,,,574.3127057000529,20,shock,1,0.18755699996836483,0.18756069999653846,574.5071446000366,,,,,,,,28,D,2023-12-14_13h36.13.425,gca_avoidance_task,2022.2.4,143.8468088880569,
positions.xlsx,stimuli.xlsx,stimuli/Social2.png,stimuli/Social1.png,stimuli/Nonsocial2.png,stimuli/Nonsocial1.png,,"(-0.7, -0.5)",cs_plus_ns,,,,,0,0,0,0,,,,,0,8,8,9,,,,,,,,,,,,,,,,,,,,,,,,,583.4998016000027,20,shock,1,0.21552329999394715,0.2155266999034211,583.7150808000006,,,,,,,,28,D,2023-12-14_13h36.13.425,gca_avoidance_task,2022.2.4,143.8468088880569,
positions.xlsx,stimuli.xlsx,stimuli/Social2.png,stimuli/Social1.png,stimuli/Nonsocial2.png,stimuli/Nonsocial1.png,,"(0.7, 0.5)",cs_minus_ns,,,,,0,0,0,0,,,,,0,9,9,14,,,,,,,,,,,,,,,,,,,,,,,,,592.7841737000272,25,reward,1,0.21543619991280138,0.2154396999394521,593.0064190999838,,,,,,,,28,D,2023-12-14_13h36.13.425,gca_avoidance_task,2022.2.4,143.8468088880569,
positions.xlsx,stimuli.xlsx,stimuli/Social2.png,stimuli/Social1.png,stimuli/Nonsocial2.png,stimuli/Nonsocial1.png,,"(0.7, -0.5)",cs_minus_ns,,,,,0,0,0,0,,,,,0,10,10,15,,,,,,,,,,,,,,,,,,,,,,,,,602.4227049000328,30,reward,1,0.2711002000141889,0.2711037000408396,602.7004458000883,,,,,,,,28,D,2023-12-14_13h36.13.425,gca_avoidance_task,2022.2.4,143.8468088880569,
positions.xlsx,stimuli.xlsx,stimuli/Social2.png,stimuli/Social1.png,stimuli/Nonsocial2.png,stimuli/Nonsocial1.png,,"(-0.7, -0.5)",cs_minus_s,,,,,0,0,0,0,,,,,0,11,11,5,,,,,,,,,,,,,,,,,,,,,,,,,611.9917565000942,35,reward,1,0.20892659993842244,0.20893009996507317,612.207045200048,,,,,,,,28,D,2023-12-14_13h36.13.425,gca_avoidance_task,2022.2.4,143.8468088880569,
positions.xlsx,stimuli.xlsx,stimuli/Social2.png,stimuli/Social1.png,stimuli/Nonsocial2.png,stimuli/Nonsocial1.png,,"(-0.7, -0.5)",cs_plus_s,,,,,0,0,0,0,,,,,0,12,12,1,,,,,,,,,,,,,,,,,,,,,,,,,621.3038790000137,35,shock,1,0.2224188999971375,0.2224226000253111,621.5330201000907,,,,,,,,28,D,2023-12-14_13h36.13.425,gca_avoidance_task,2022.2.4,143.8468088880569,
positions.xlsx,stimuli.xlsx,stimuli/Social2.png,stimuli/Social1.png,stimuli/Nonsocial2.png,stimuli/Nonsocial1.png,,"(-0.7, 0.5)",cs_plus_ns,,,,,0,0,0,0,,,,,0,13,13,8,,,,,,,,,,,,,,,,,,,,,,,,,630.990971100051,35,shock,1,0.20158749993424863,0.2015912999631837,631.1993276000721,,,,,,,,28,D,2023-12-14_13h36.13.425,gca_avoidance_task,2022.2.4,143.8468088880569,
positions.xlsx,stimuli.xlsx,stimuli/Social2.png,stimuli/Social1.png,stimuli/Nonsocial2.png,stimuli/Nonsocial1.png,,"(-0.7, -0.5)",cs_minus_ns,,,,,0,0,0,0,,,,,0,14,14,13,,,,,,,,,,,,,,,,,,,,,,,,,641.0253133000806,40,reward,1,0.2017579999519512,0.20176129997707903,641.2336320000468,,,,,,,,28,D,2023-12-14_13h36.13.425,gca_avoidance_task,2022.2.4,143.8468088880569,
positions.xlsx,stimuli.xlsx,stimuli/Social2.png,stimuli/Social1.png,stimuli/Nonsocial2.png,stimuli/Nonsocial1.png,,"(0.7, -0.5)",cs_plus_ns,,,,,0,0,0,0,,,,,0,15,15,11,,,,,,,,,,,,,,,,,,,,,,,,,650.1291187000461,40,shock,1,0.22950060002040118,0.229505900060758,650.3652184000239,,,,,,,,28,D,2023-12-14_13h36.13.425,gca_avoidance_task,2022.2.4,143.8468088880569,
positions.xlsx,stimuli.xlsx,stimuli/Social2.png,stimuli/Social1.png,stimuli/Nonsocial2.png,stimuli/Nonsocial1.png,,"(0.7, 0.5)",cs_plus_ns,,,,,0,0,0,0,,,,,1,0,16,10,,,,,,,,,,,,,,,,,,,,,,,,,660.1981939000543,40,shock,1,0.24314300005789846,0.2431467000860721,660.4481822000816,,,,,,,,28,D,2023-12-14_13h36.13.425,gca_avoidance_task,2022.2.4,143.8468088880569,
positions.xlsx,stimuli.xlsx,stimuli/Social2.png,stimuli/Social1.png,stimuli/Nonsocial2.png,stimuli/Nonsocial1.png,,"(-0.7, -0.5)",cs_plus_ns,,,,,0,0,0,0,,,,,1,1,17,9,,,,,,,,,,,,,,,,,,,,,,,,,669.8852899000049,40,shock,1,0.20189140003640205,0.20189520006533712,670.0935945000965,,,,,,,,28,D,2023-12-14_13h36.13.425,gca_avoidance_task,2022.2.4,143.8468088880569,
positions.xlsx,stimuli.xlsx,stimuli/Social2.png,stimuli/Social1.png,stimuli/Nonsocial2.png,stimuli/Nonsocial1.png,,"(0.7, 0.5)",cs_plus_s,,,,,0,0,0,0,,,,,1,2,18,2,,,,,,,,,,,,,,,,,,,,,,,,,679.0862704000901,40,shock,1,0.2778605999192223,0.277864099945873,679.3710343000712,,,,,,,,28,D,2023-12-14_13h36.13.425,gca_avoidance_task,2022.2.4,143.8468088880569,
positions.xlsx,stimuli.xlsx,stimuli/Social2.png,stimuli/Social1.png,stimuli/Nonsocial2.png,stimuli/Nonsocial1.png,,"(0.7, -0.5)",cs_plus_s,,,,,0,0,0,0,,,,,1,3,19,3,,,,,,,,,,,,,,,,,,,,,,,,,688.6137018000009,40,shock,1,0.19476909993682057,0.19477269996423274,688.8081284000073,,,,,,,,28,D,2023-12-14_13h36.13.425,gca_avoidance_task,2022.2.4,143.8468088880569,
positions.xlsx,stimuli.xlsx,stimuli/Social2.png,stimuli/Social1.png,stimuli/Nonsocial2.png,stimuli/Nonsocial1.png,,"(-0.7, 0.5)",cs_plus_s,,,,,0,0,0,0,,,,,1,4,20,0,,,,,,,,,,,,,,,,,,,,,,,,,698.8772064000368,40,shock,1,0.1947420999640599,0.19474579999223351,699.078608800075,,,,,,,,28,D,2023-12-14_13h36.13.425,gca_avoidance_task,2022.2.4,143.8468088880569,
positions.xlsx,stimuli.xlsx,stimuli/Social2.png,stimuli/Social1.png,stimuli/Nonsocial2.png,stimuli/Nonsocial1.png,,"(-0.7, -0.5)",cs_minus_s,,,,,0,0,0,0,,,,,1,5,21,5,,,,,,,,,,,,,,,,,,,,,,,,,709.3212073000614,45,reward,1,0.20167490001767874,0.2016785000450909,709.5295482000802,,,,,,,,28,D,2023-12-14_13h36.13.425,gca_avoidance_task,2022.2.4,143.8468088880569,
positions.xlsx,stimuli.xlsx,stimuli/Social2.png,stimuli/Social1.png,stimuli/Nonsocial2.png,stimuli/Nonsocial1.png,,"(0.7, -0.5)",cs_minus_s,,,,,0,0,0,0,,,,,1,6,22,7,,,,,,,,,,,,,,,,,,,,,,,,,718.9111132000107,50,reward,1,0.25701209995895624,0.26399529993068427,719.1819848000305,,,,,,,,28,D,2023-12-14_13h36.13.425,gca_avoidance_task,2022.2.4,143.8468088880569,
positions.xlsx,stimuli.xlsx,stimuli/Social2.png,stimuli/Social1.png,stimuli/Nonsocial2.png,stimuli/Nonsocial1.png,,"(-0.7, 0.5)",cs_plus_ns,,,,,0,0,0,0,,,,,1,7,23,8,,,,,,,,,,,,,,,,,,,,,,,,,728.7440647000913,50,shock,1,0.20148219994734973,0.20148569997400045,728.9523719000863,,,,,,,,28,D,2023-12-14_13h36.13.425,gca_avoidance_task,2022.2.4,143.8468088880569,
positions.xlsx,stimuli.xlsx,stimuli/Social2.png,stimuli/Social1.png,stimuli/Nonsocial2.png,stimuli/Nonsocial1.png,,"(-0.7, -0.5)",cs_minus_ns,,,,,0,0,0,0,,,,,1,8,24,13,,,,,,,,,,,,,,,,,,,,,,,,,738.5701254000887,55,reward,1,0.20894709997810423,0.2089507000055164,738.7853584000841,,,,,,,,28,D,2023-12-14_13h36.13.425,gca_avoidance_task,2022.2.4,143.8468088880569,
positions.xlsx,stimuli.xlsx,stimuli/Social2.png,stimuli/Social1.png,stimuli/Nonsocial2.png,stimuli/Nonsocial1.png,,"(-0.7, -0.5)",cs_plus_s,,,,,0,0,0,0,,,,,1,9,25,1,,,,,,,,,,,,,,,,,,,,,,,,,748.7710543000139,55,shock,1,0.21558300009928644,0.2226832000305876,749.0002347000409,,,,,,,,28,D,2023-12-14_13h36.13.425,gca_avoidance_task,2022.2.4,143.8468088880569,
positions.xlsx,stimuli.xlsx,stimuli/Social2.png,stimuli/Social1.png,stimuli/Nonsocial2.png,stimuli/Nonsocial1.png,,"(0.7, 0.5)",cs_minus_s,,,,,0,0,0,0,,,,,1,10,26,6,,,,,,,,,,,,,,,,,,,,,,,,,758.4789977000328,60,reward,1,0.2222819000016898,0.222285799914971,758.7081884000218,,,,,,,,28,D,2023-12-14_13h36.13.425,gca_avoidance_task,2022.2.4,143.8468088880569,
positions.xlsx,stimuli.xlsx,stimuli/Social2.png,stimuli/Social1.png,stimuli/Nonsocial2.png,stimuli/Nonsocial1.png,,"(0.7, -0.5)",cs_plus_ns,,,,,0,0,0,0,,,,,1,11,27,11,,,,,,,,,,,,,,,,,,,,,,,,,768.2563883999828,60,shock,1,0.208817100035958,0.20882089994847775,768.4716666000895,,,,,,,,28,D,2023-12-14_13h36.13.425,gca_avoidance_task,2022.2.4,143.8468088880569,
positions.xlsx,stimuli.xlsx,stimuli/Social2.png,stimuli/Social1.png,stimuli/Nonsocial2.png,stimuli/Nonsocial1.png,,"(-0.7, 0.5)",cs_minus_s,,,,,0,0,0,0,,,,,1,12,28,4,,,,,,,,,,,,,,,,,,,,,,,,,778.0129586000694,65,reward,1,0.208474799990654,0.2152176999952644,778.2351606000448,,,,,,,,28,D,2023-12-14_13h36.13.425,gca_avoidance_task,2022.2.4,143.8468088880569,
positions.xlsx,stimuli.xlsx,stimuli/Social2.png,stimuli/Social1.png,stimuli/Nonsocial2.png,stimuli/Nonsocial1.png,,"(-0.7, 0.5)",cs_minus_ns,,,,,0,0,0,0,,,,,1,13,29,12,,,,,,,,,,,,,,,,,,,,,,,,,787.0681552999886,70,reward,1,0.2226716000586748,0.22267519996967167,787.2973828000249,,,,,,,,28,D,2023-12-14_13h36.13.425,gca_avoidance_task,2022.2.4,143.8468088880569,
positions.xlsx,stimuli.xlsx,stimuli/Social2.png,stimuli/Social1.png,stimuli/Nonsocial2.png,stimuli/Nonsocial1.png,,"(0.7, 0.5)",cs_minus_ns,,,,,0,0,0,0,,,,,1,14,30,14,,,,,,,,,,,,,,,,,,,,,,,,,797.4080479000695,75,reward,1,0.18833060003817081,0.188334200065583,797.6024628999876,,,,,,,,28,D,2023-12-14_13h36.13.425,gca_avoidance_task,2022.2.4,143.8468088880569,
positions.xlsx,stimuli.xlsx,stimuli/Social2.png,stimuli/Social1.png,stimuli/Nonsocial2.png,stimuli/Nonsocial1.png,,"(0.7, -0.5)",cs_minus_ns,,,,,0,0,0,0,,,,,1,15,31,15,,,,,,,,,,,,,,,,,,,,,,,,,807.5256803000811,80,reward,1,0.2432598000159487,0.24326390004716814,807.7756807000842,,,,,,,,28,D,2023-12-14_13h36.13.425,gca_avoidance_task,2022.2.4,143.8468088880569,
positions.xlsx,stimuli.xlsx,stimuli/Social2.png,stimuli/Social1.png,stimuli/Nonsocial2.png,stimuli/Nonsocial1.png,,"(-0.7, -0.5)",cs_minus_s,,,,,0,0,0,0,,,,,,,,,0,0,0,5,,,,,,,,,,,,,,,,,,,,,831.0733691999922,80,none,0,,,836.080137400073,,,,,,,,28,D,2023-12-14_13h36.13.425,gca_avoidance_task,2022.2.4,143.8468088880569,
positions.xlsx,stimuli.xlsx,stimuli/Social2.png,stimuli/Social1.png,stimuli/Nonsocial2.png,stimuli/Nonsocial1.png,,"(-0.7, -0.5)",cs_plus_ns,,,,,0,0,0,0,,,,,,,,,0,1,1,9,,,,,,,,,,,,,,,,,,,,,845.3297712000785,80,none,0,,,850.3365114000626,,,,,,,,28,D,2023-12-14_13h36.13.425,gca_avoidance_task,2022.2.4,143.8468088880569,
positions.xlsx,stimuli.xlsx,stimuli/Social2.png,stimuli/Social1.png,stimuli/Nonsocial2.png,stimuli/Nonsocial1.png,,"(-0.7, -0.5)",cs_plus_s,,,,,0,0,0,0,,,,,,,,,0,2,2,1,,,,,,,,,,,,,,,,,,,,,859.2806800000835,80,none,0,,,864.2873335999902,,,,,,,,28,D,2023-12-14_13h36.13.425,gca_avoidance_task,2022.2.4,143.8468088880569,
positions.xlsx,stimuli.xlsx,stimuli/Social2.png,stimuli/Social1.png,stimuli/Nonsocial2.png,stimuli/Nonsocial1.png,,"(-0.7, 0.5)",cs_plus_s,,,,,0,0,0,0,,,,,,,,,0,3,3,0,,,,,,,,,,,,,,,,,,,,,874.0091781000374,80,none,0,,,879.0159253000747,,,,,,,,28,D,2023-12-14_13h36.13.425,gca_avoidance_task,2022.2.4,143.8468088880569,
positions.xlsx,stimuli.xlsx,stimuli/Social2.png,stimuli/Social1.png,stimuli/Nonsocial2.png,stimuli/Nonsocial1.png,,"(0.7, -0.5)",cs_plus_s,,,,,0,0,0,0,,,,,,,,,0,4,4,3,,,,,,,,,,,,,,,,,,,,,888.5155341000063,80,none,0,,,893.5222984000575,,,,,,,,28,D,2023-12-14_13h36.13.425,gca_avoidance_task,2022.2.4,143.8468088880569,
positions.xlsx,stimuli.xlsx,stimuli/Social2.png,stimuli/Social1.png,stimuli/Nonsocial2.png,stimuli/Nonsocial1.png,,"(0.7, 0.5)",cs_minus_s,,,,,0,0,0,0,,,,,,,,,0,5,5,6,,,,,,,,,,,,,,,,,,,,,903.3274620000739,80,none,0,,,908.3342042000731,,,,,,,,28,D,2023-12-14_13h36.13.425,gca_avoidance_task,2022.2.4,143.8468088880569,
positions.xlsx,stimuli.xlsx,stimuli/Social2.png,stimuli/Social1.png,stimuli/Nonsocial2.png,stimuli/Nonsocial1.png,,"(-0.7, -0.5)",cs_minus_ns,,,,,0,0,0,0,,,,,,,,,0,6,6,13,,,,,,,,,,,,,,,,,,,,,917.3616407000227,80,none,0,,,922.3684011000441,,,,,,,,28,D,2023-12-14_13h36.13.425,gca_avoidance_task,2022.2.4,143.8468088880569,
positions.xlsx,stimuli.xlsx,stimuli/Social2.png,stimuli/Social1.png,stimuli/Nonsocial2.png,stimuli/Nonsocial1.png,,"(-0.7, 0.5)",cs_minus_s,,,,,0,0,0,0,,,,,,,,,0,7,7,4,,,,,,,,,,,,,,,,,,,,,932.5277009999845,80,none,0,,,937.534490799997,,,,,,,,28,D,2023-12-14_13h36.13.425,gca_avoidance_task,2022.2.4,143.8468088880569,
positions.xlsx,stimuli.xlsx,stimuli/Social2.png,stimuli/Social1.png,stimuli/Nonsocial2.png,stimuli/Nonsocial1.png,,"(0.7, 0.5)",cs_plus_s,,,,,0,0,0,0,,,,,,,,,0,8,8,2,,,,,,,,,,,,,,,,,,,,,946.6729707000777,80,none,0,,,951.6797393000452,,,,,,,,28,D,2023-12-14_13h36.13.425,gca_avoidance_task,2022.2.4,143.8468088880569,
positions.xlsx,stimuli.xlsx,stimuli/Social2.png,stimuli/Social1.png,stimuli/Nonsocial2.png,stimuli/Nonsocial1.png,,"(0.7, -0.5)",cs_minus_s,,,,,0,0,0,0,,,,,,,,,0,9,9,7,,,,,,,,,,,,,,,,,,,,,960.3738315000664,80,none,0,,,965.3805768000893,,,,,,,,28,D,2023-12-14_13h36.13.425,gca_avoidance_task,2022.2.4,143.8468088880569,
positions.xlsx,stimuli.xlsx,stimuli/Social2.png,stimuli/Social1.png,stimuli/Nonsocial2.png,stimuli/Nonsocial1.png,,"(0.7, -0.5)",cs_minus_ns,,,,,0,0,0,0,,,,,,,,,0,10,10,15,,,,,,,,,,,,,,,,,,,,,974.4427538000746,80,none,0,,,979.4494720000075,,,,,,,,28,D,2023-12-14_13h36.13.425,gca_avoidance_task,2022.2.4,143.8468088880569,
positions.xlsx,stimuli.xlsx,stimuli/Social2.png,stimuli/Social1.png,stimuli/Nonsocial2.png,stimuli/Nonsocial1.png,,"(-0.7, 0.5)",cs_plus_ns,,,,,0,0,0,0,,,,,,,,,0,11,11,8,,,,,,,,,,,,,,,,,,,,,988.344962800038,80,none,0,,,993.3517567000818,,,,,,,,28,D,2023-12-14_13h36.13.425,gca_avoidance_task,2022.2.4,143.8468088880569,
positions.xlsx,stimuli.xlsx,stimuli/Social2.png,stimuli/Social1.png,stimuli/Nonsocial2.png,stimuli/Nonsocial1.png,,"(-0.7, 0.5)",cs_minus_ns,,,,,0,0,0,0,,,,,,,,,0,12,12,12,,,,,,,,,,,,,,,,,,,,,1003.0041159000248,80,none,0,,,1008.0108345000772,,,,,,,,28,D,2023-12-14_13h36.13.425,gca_avoidance_task,2022.2.4,143.8468088880569,
positions.xlsx,stimuli.xlsx,stimuli/Social2.png,stimuli/Social1.png,stimuli/Nonsocial2.png,stimuli/Nonsocial1.png,,"(0.7, 0.5)",cs_minus_ns,,,,,0,0,0,0,,,,,,,,,0,13,13,14,,,,,,,,,,,,,,,,,,,,,1017.7188091999851,80,none,0,,,1022.7255719000241,,,,,,,,28,D,2023-12-14_13h36.13.425,gca_avoidance_task,2022.2.4,143.8468088880569,
positions.xlsx,stimuli.xlsx,stimuli/Social2.png,stimuli/Social1.png,stimuli/Nonsocial2.png,stimuli/Nonsocial1.png,,"(0.7, -0.5)",cs_plus_ns,,,,,0,0,0,0,,,,,,,,,0,14,14,11,,,,,,,,,,,,,,,,,,,,,1032.4821119999979,80,none,0,,,1037.4888684999896,,,,,,,,28,D,2023-12-14_13h36.13.425,gca_avoidance_task,2022.2.4,143.8468088880569,
positions.xlsx,stimuli.xlsx,stimuli/Social2.png,stimuli/Social1.png,stimuli/Nonsocial2.png,stimuli/Nonsocial1.png,,"(0.7, 0.5)",cs_plus_ns,,,,,0,0,0,0,,,,,,,,,0,15,15,10,,,,,,,,,,,,,,,,,,,,,1047.3426561000524,80,none,0,,,1052.3494223000016,,,,,,,,28,D,2023-12-14_13h36.13.425,gca_avoidance_task,2022.2.4,143.8468088880569,
positions.xlsx,stimuli.xlsx,stimuli/Social2.png,stimuli/Social1.png,stimuli/Nonsocial2.png,stimuli/Nonsocial1.png,,"(0.7, -0.5)",cs_minus_s,,,,,0,0,0,0,,,,,,,,,1,0,16,7,,,,,,,,,,,,,,,,,,,,,1062.1476328000426,80,none,0,,,1067.1544064000482,,,,,,,,28,D,2023-12-14_13h36.13.425,gca_avoidance_task,2022.2.4,143.8468088880569,
positions.xlsx,stimuli.xlsx,stimuli/Social2.png,stimuli/Social1.png,stimuli/Nonsocial2.png,stimuli/Nonsocial1.png,,"(0.7, -0.5)",cs_minus_ns,,,,,0,0,0,0,,,,,,,,,1,1,17,15,,,,,,,,,,,,,,,,,,,,,1075.8762421000283,80,none,0,,,1080.8830212000757,,,,,,,,28,D,2023-12-14_13h36.13.425,gca_avoidance_task,2022.2.4,143.8468088880569,
positions.xlsx,stimuli.xlsx,stimuli/Social2.png,stimuli/Social1.png,stimuli/Nonsocial2.png,stimuli/Nonsocial1.png,,"(-0.7, -0.5)",cs_minus_s,,,,,0,0,0,0,,,,,,,,,1,2,18,5,,,,,,,,,,,,,,,,,,,,,1090.5076217000606,80,none,0,,,1095.514366300078,,,,,,,,28,D,2023-12-14_13h36.13.425,gca_avoidance_task,2022.2.4,143.8468088880569,
positions.xlsx,stimuli.xlsx,stimuli/Social2.png,stimuli/Social1.png,stimuli/Nonsocial2.png,stimuli/Nonsocial1.png,,"(-0.7, -0.5)",cs_plus_ns,,,,,0,0,0,0,,,,,,,,,1,3,19,9,,,,,,,,,,,,,,,,,,,,,1104.8890047000023,80,none,0,,,1109.8957478000084,,,,,,,,28,D,2023-12-14_13h36.13.425,gca_avoidance_task,2022.2.4,143.8468088880569,
positions.xlsx,stimuli.xlsx,stimuli/Social2.png,stimuli/Social1.png,stimuli/Nonsocial2.png,stimuli/Nonsocial1.png,,"(-0.7, 0.5)",cs_plus_ns,,,,,0,0,0,0,,,,,,,,,1,4,20,8,,,,,,,,,,,,,,,,,,,,,1119.4648582000518,80,none,0,,,1124.4715722000692,,,,,,,,28,D,2023-12-14_13h36.13.425,gca_avoidance_task,2022.2.4,143.8468088880569,
positions.xlsx,stimuli.xlsx,stimuli/Social2.png,stimuli/Social1.png,stimuli/Nonsocial2.png,stimuli/Nonsocial1.png,,"(-0.7, -0.5)",cs_minus_ns,,,,,0,0,0,0,,,,,,,,,1,5,21,13,,,,,,,,,,,,,,,,,,,,,1134.1864733000984,80,none,0,,,1139.193238100037,,,,,,,,28,D,2023-12-14_13h36.13.425,gca_avoidance_task,2022.2.4,143.8468088880569,
positions.xlsx,stimuli.xlsx,stimuli/Social2.png,stimuli/Social1.png,stimuli/Nonsocial2.png,stimuli/Nonsocial1.png,,"(0.7, -0.5)",cs_plus_s,,,,,0,0,0,0,,,,,,,,,1,6,22,3,,,,,,,,,,,,,,,,,,,,,1147.922091400018,80,none,0,,,1152.9288600999862,,,,,,,,28,D,2023-12-14_13h36.13.425,gca_avoidance_task,2022.2.4,143.8468088880569,
positions.xlsx,stimuli.xlsx,stimuli/Social2.png,stimuli/Social1.png,stimuli/Nonsocial2.png,stimuli/Nonsocial1.png,,"(0.7, 0.5)",cs_minus_s,,,,,0,0,0,0,,,,,,,,,1,7,23,6,,,,,,,,,,,,,,,,,,,,,1162.3590022000717,80,none,0,,,1167.365730700083,,,,,,,,28,D,2023-12-14_13h36.13.425,gca_avoidance_task,2022.2.4,143.8468088880569,
positions.xlsx,stimuli.xlsx,stimuli/Social2.png,stimuli/Social1.png,stimuli/Nonsocial2.png,stimuli/Nonsocial1.png,,"(0.7, 0.5)",cs_plus_ns,,,,,0,0,0,0,,,,,,,,,1,8,24,10,,,,,,,,,,,,,,,,,,,,,1177.094507300062,80,none,0,,,1182.1013386000413,,,,,,,,28,D,2023-12-14_13h36.13.425,gca_avoidance_task,2022.2.4,143.8468088880569,
positions.xlsx,stimuli.xlsx,stimuli/Social2.png,stimuli/Social1.png,stimuli/Nonsocial2.png,stimuli/Nonsocial1.png,,"(0.7, -0.5)",cs_plus_ns,,,,,0,0,0,0,,,,,,,,,1,9,25,11,,,,,,,,,,,,,,,,,,,,,1191.580061100074,80,none,0,,,1196.5868147000438,,,,,,,,28,D,2023-12-14_13h36.13.425,gca_avoidance_task,2022.2.4,143.8468088880569,
positions.xlsx,stimuli.xlsx,stimuli/Social2.png,stimuli/Social1.png,stimuli/Nonsocial2.png,stimuli/Nonsocial1.png,,"(0.7, 0.5)",cs_minus_ns,,,,,0,0,0,0,,,,,,,,,1,10,26,14,,,,,,,,,,,,,,,,,,,,,1205.8086719000712,80,none,0,,,1210.8154371000128,,,,,,,,28,D,2023-12-14_13h36.13.425,gca_avoidance_task,2022.2.4,143.8468088880569,
positions.xlsx,stimuli.xlsx,stimuli/Social2.png,stimuli/Social1.png,stimuli/Nonsocial2.png,stimuli/Nonsocial1.png,,"(-0.7, 0.5)",cs_minus_s,,,,,0,0,0,0,,,,,,,,,1,11,27,4,,,,,,,,,,,,,,,,,,,,,1219.7386920000426,80,none,0,,,1224.7454828000627,,,,,,,,28,D,2023-12-14_13h36.13.425,gca_avoidance_task,2022.2.4,143.8468088880569,
positions.xlsx,stimuli.xlsx,stimuli/Social2.png,stimuli/Social1.png,stimuli/Nonsocial2.png,stimuli/Nonsocial1.png,,"(0.7, 0.5)",cs_plus_s,,,,,0,0,0,0,,,,,,,,,1,12,28,2,,,,,,,,,,,,,,,,,,,,,1234.8561698000412,80,none,0,,,1239.8629208999919,,,,,,,,28,D,2023-12-14_13h36.13.425,gca_avoidance_task,2022.2.4,143.8468088880569,
positions.xlsx,stimuli.xlsx,stimuli/Social2.png,stimuli/Social1.png,stimuli/Nonsocial2.png,stimuli/Nonsocial1.png,,"(-0.7, -0.5)",cs_plus_s,,,,,0,0,0,0,,,,,,,,,1,13,29,1,,,,,,,,,,,,,,,,,,,,,1250.2930384000065,80,none,0,,,1255.2998029000591,,,,,,,,28,D,2023-12-14_13h36.13.425,gca_avoidance_task,2022.2.4,143.8468088880569,
positions.xlsx,stimuli.xlsx,stimuli/Social2.png,stimuli/Social1.png,stimuli/Nonsocial2.png,stimuli/Nonsocial1.png,,"(-0.7, 0.5)",cs_minus_ns,,,,,0,0,0,0,,,,,,,,,1,14,30,12,,,,,,,,,,,,,,,,,,,,,1265.1952401000308,80,none,0,,,1270.2089225000236,,,,,,,,28,D,2023-12-14_13h36.13.425,gca_avoidance_task,2022.2.4,143.8468088880569,
positions.xlsx,stimuli.xlsx,stimuli/Social2.png,stimuli/Social1.png,stimuli/Nonsocial2.png,stimuli/Nonsocial1.png,,"(-0.7, 0.5)",cs_plus_s,,,,,0,0,0,0,,,,,,,,,1,15,31,0,,,,,,,,,,,,,,,,,,,,,1279.840497200028,80,none,0,,,1284.8472407000372,,,,,,,,28,D,2023-12-14_13h36.13.425,gca_avoidance_task,2022.2.4,143.8468088880569,
positions.xlsx,stimuli.xlsx,stimuli/Social2.png,stimuli/Social1.png,stimuli/Nonsocial2.png,stimuli/Nonsocial1.png,,"(0.7, -0.5)",cs_plus_ns,,,,,0,0,0,0,,,,,,,,,2,0,32,11,,,,,,,,,,,,,,,,,,,,,1294.5829800000647,80,none,0,,,1299.5966833999846,,,,,,,,28,D,2023-12-14_13h36.13.425,gca_avoidance_task,2022.2.4,143.8468088880569,
positions.xlsx,stimuli.xlsx,stimuli/Social2.png,stimuli/Social1.png,stimuli/Nonsocial2.png,stimuli/Nonsocial1.png,,"(-0.7, 0.5)",cs_minus_ns,,,,,0,0,0,0,,,,,,,,,2,1,33,12,,,,,,,,,,,,,,,,,,,,,1309.408805300016,80,none,0,,,1314.4155840000603,,,,,,,,28,D,2023-12-14_13h36.13.425,gca_avoidance_task,2022.2.4,143.8468088880569,
positions.xlsx,stimuli.xlsx,stimuli/Social2.png,stimuli/Social1.png,stimuli/Nonsocial2.png,stimuli/Nonsocial1.png,,"(-0.7, -0.5)",cs_plus_s,,,,,0,0,0,0,,,,,,,,,2,2,34,1,,,,,,,,,,,,,,,,,,,,,1324.0054425999988,80,none,0,,,1329.0122316000052,,,,,,,,28,D,2023-12-14_13h36.13.425,gca_avoidance_task,2022.2.4,143.8468088880569,
positions.xlsx,stimuli.xlsx,stimuli/Social2.png,stimuli/Social1.png,stimuli/Nonsocial2.png,stimuli/Nonsocial1.png,,"(0.7, -0.5)",cs_minus_s,,,,,0,0,0,0,,,,,,,,,2,3,35,7,,,,,,,,,,,,,,,,,,,,,1338.810442200047,80,none,0,,,1343.8171627999982,,,,,,,,28,D,2023-12-14_13h36.13.425,gca_avoidance_task,2022.2.4,143.8468088880569,
positions.xlsx,stimuli.xlsx,stimuli/Social2.png,stimuli/Social1.png,stimuli/Nonsocial2.png,stimuli/Nonsocial1.png,,"(0.7, 0.5)",cs_plus_s,,,,,0,0,0,0,,,,,,,,,2,4,36,2,,,,,,,,,,,,,,,,,,,,,1353.282080300036,80,none,0,,,1358.288840400055,,,,,,,,28,D,2023-12-14_13h36.13.425,gca_avoidance_task,2022.2.4,143.8468088880569,
positions.xlsx,stimuli.xlsx,stimuli/Social2.png,stimuli/Social1.png,stimuli/Nonsocial2.png,stimuli/Nonsocial1.png,,"(0.7, -0.5)",cs_plus_s,,,,,0,0,0,0,,,,,,,,,2,5,37,3,,,,,,,,,,,,,,,,,,,,,1367.212098399992,80,none,0,,,1372.2188228000887,,,,,,,,28,D,2023-12-14_13h36.13.425,gca_avoidance_task,2022.2.4,143.8468088880569,
positions.xlsx,stimuli.xlsx,stimuli/Social2.png,stimuli/Social1.png,stimuli/Nonsocial2.png,stimuli/Nonsocial1.png,,"(-0.7, 0.5)",cs_plus_ns,,,,,0,0,0,0,,,,,,,,,2,6,38,8,,,,,,,,,,,,,,,,,,,,,1381.5240601000842,80,none,0,,,1386.5377506000223,,,,,,,,28,D,2023-12-14_13h36.13.425,gca_avoidance_task,2022.2.4,143.8468088880569,
positions.xlsx,stimuli.xlsx,stimuli/Social2.png,stimuli/Social1.png,stimuli/Nonsocial2.png,stimuli/Nonsocial1.png,,"(0.7, 0.5)",cs_minus_ns,,,,,0,0,0,0,,,,,,,,,2,7,39,14,,,,,,,,,,,,,,,,,,,,,1396.5442895999877,80,none,0,,,1401.551032599993,,,,,,,,28,D,2023-12-14_13h36.13.425,gca_avoidance_task,2022.2.4,143.8468088880569,
positions.xlsx,stimuli.xlsx,stimuli/Social2.png,stimuli/Social1.png,stimuli/Nonsocial2.png,stimuli/Nonsocial1.png,,"(-0.7, -0.5)",cs_minus_s,,,,,0,0,0,0,,,,,,,,,2,8,40,5,,,,,,,,,,,,,,,,,,,,,1410.6617893000366,80,none,0,,,1415.6685643000528,,,,,,,,28,D,2023-12-14_13h36.13.425,gca_avoidance_task,2022.2.4,143.8468088880569,
positions.xlsx,stimuli.xlsx,stimuli/Social2.png,stimuli/Social1.png,stimuli/Nonsocial2.png,stimuli/Nonsocial1.png,,"(-0.7, -0.5)",cs_minus_ns,,,,,0,0,0,0,,,,,,,,,2,9,41,13,,,,,,,,,,,,,,,,,,,,,1424.7307187999832,80,none,0,,,1429.7374440000858,,,,,,,,28,D,2023-12-14_13h36.13.425,gca_avoidance_task,2022.2.4,143.8468088880569,
positions.xlsx,stimuli.xlsx,stimuli/Social2.png,stimuli/Social1.png,stimuli/Nonsocial2.png,stimuli/Nonsocial1.png,,"(0.7, 0.5)",cs_minus_s,,,,,0,0,0,0,,,,,,,,,2,10,42,6,,,,,,,,,,,,,,,,,,,,,1438.7787783000385,80,none,0,,,1443.7855125000933,,,,,,,,28,D,2023-12-14_13h36.13.425,gca_avoidance_task,2022.2.4,143.8468088880569,
positions.xlsx,stimuli.xlsx,stimuli/Social2.png,stimuli/Social1.png,stimuli/Nonsocial2.png,stimuli/Nonsocial1.png,,"(-0.7, 0.5)",cs_plus_s,,,,,0,0,0,0,,,,,,,,,2,11,43,0,,,,,,,,,,,,,,,,,,,,,1453.4170756000094,80,none,0,,,1458.4238847000524,,,,,,,,28,D,2023-12-14_13h36.13.425,gca_avoidance_task,2022.2.4,143.8468088880569,
positions.xlsx,stimuli.xlsx,stimuli/Social2.png,stimuli/Social1.png,stimuli/Nonsocial2.png,stimuli/Nonsocial1.png,,"(0.7, -0.5)",cs_minus_ns,,,,,0,0,0,0,,,,,,,,,2,12,44,15,,,,,,,,,,,,,,,,,,,,,1468.0762303000083,80,none,0,,,1473.083014300093,,,,,,,,28,D,2023-12-14_13h36.13.425,gca_avoidance_task,2022.2.4,143.8468088880569,
positions.xlsx,stimuli.xlsx,stimuli/Social2.png,stimuli/Social1.png,stimuli/Nonsocial2.png,stimuli/Nonsocial1.png,,"(-0.7, 0.5)",cs_minus_s,,,,,0,0,0,0,,,,,,,,,2,13,45,4,,,,,,,,,,,,,,,,,,,,,1482.4090335000074,80,none,0,,,1487.415788399987,,,,,,,,28,D,2023-12-14_13h36.13.425,gca_avoidance_task,2022.2.4,143.8468088880569,
positions.xlsx,stimuli.xlsx,stimuli/Social2.png,stimuli/Social1.png,stimuli/Nonsocial2.png,stimuli/Nonsocial1.png,,"(-0.7, -0.5)",cs_plus_ns,,,,,0,0,0,0,,,,,,,,,2,14,46,9,,,,,,,,,,,,,,,,,,,,,1497.3875927000772,80,none,0,,,1502.3944394000573,,,,,,,,28,D,2023-12-14_13h36.13.425,gca_avoidance_task,2022.2.4,143.8468088880569,
positions.xlsx,stimuli.xlsx,stimuli/Social2.png,stimuli/Social1.png,stimuli/Nonsocial2.png,stimuli/Nonsocial1.png,,"(0.7, 0.5)",cs_plus_ns,,,,,0,0,0,0,,,,,,,,,2,15,47,10,,,,,,,,,,,,,,,,,,,,,1511.8592630000785,80,none,0,,,1516.8660231000977,,,,,,,,28,D,2023-12-14_13h36.13.425,gca_avoidance_task,2022.2.4,143.8468088880569,
positions.xlsx,stimuli.xlsx,stimuli/Social2.png,stimuli/Social1.png,stimuli/Nonsocial2.png,stimuli/Nonsocial1.png,,"(-0.7, -0.5)",cs_minus_ns,,,,,0,0,0,0,,,,,,,,,3,0,48,13,,,,,,,,,,,,,,,,,,,,,1526.712848700001,80,none,0,,,1531.719613900059,,,,,,,,28,D,2023-12-14_13h36.13.425,gca_avoidance_task,2022.2.4,143.8468088880569,
positions.xlsx,stimuli.xlsx,stimuli/Social2.png,stimuli/Social1.png,stimuli/Nonsocial2.png,stimuli/Nonsocial1.png,,"(0.7, -0.5)",cs_minus_ns,,,,,0,0,0,0,,,,,,,,,3,1,49,15,,,,,,,,,,,,,,,,,,,,,1541.337296599988,80,none,0,,,1546.3440270000137,,,,,,,,28,D,2023-12-14_13h36.13.425,gca_avoidance_task,2022.2.4,143.8468088880569,
positions.xlsx,stimuli.xlsx,stimuli/Social2.png,stimuli/Social1.png,stimuli/Nonsocial2.png,stimuli/Nonsocial1.png,,"(0.7, 0.5)",cs_minus_s,,,,,0,0,0,0,,,,,,,,,3,2,50,6,,,,,,,,,,,,,,,,,,,,,1555.656163400039,80,none,0,,,1560.6629195000278,,,,,,,,28,D,2023-12-14_13h36.13.425,gca_avoidance_task,2022.2.4,143.8468088880569,
positions.xlsx,stimuli.xlsx,stimuli/Social2.png,stimuli/Social1.png,stimuli/Nonsocial2.png,stimuli/Nonsocial1.png,,"(0.7, -0.5)",cs_minus_s,,,,,0,0,0,0,,,,,,,,,3,3,51,7,,,,,,,,,,,,,,,,,,,,,1570.704204000067,80,none,0,,,1575.710934700095,,,,,,,,28,D,2023-12-14_13h36.13.425,gca_avoidance_task,2022.2.4,143.8468088880569,
positions.xlsx,stimuli.xlsx,stimuli/Social2.png,stimuli/Social1.png,stimuli/Nonsocial2.png,stimuli/Nonsocial1.png,,"(-0.7, 0.5)",cs_minus_ns,,,,,0,0,0,0,,,,,,,,,3,4,52,12,,,,,,,,,,,,,,,,,,,,,1586.0369232000085,80,none,0,,,1591.0436559000518,,,,,,,,28,D,2023-12-14_13h36.13.425,gca_avoidance_task,2022.2.4,143.8468088880569,
positions.xlsx,stimuli.xlsx,stimuli/Social2.png,stimuli/Social1.png,stimuli/Nonsocial2.png,stimuli/Nonsocial1.png,,"(0.7, 0.5)",cs_minus_ns,,,,,0,0,0,0,,,,,,,,,3,5,53,14,,,,,,,,,,,,,,,,,,,,,1599.6752779000672,80,none,0,,,1604.6820275000064,,,,,,,,28,D,2023-12-14_13h36.13.425,gca_avoidance_task,2022.2.4,143.8468088880569,
positions.xlsx,stimuli.xlsx,stimuli/Social2.png,stimuli/Social1.png,stimuli/Nonsocial2.png,stimuli/Nonsocial1.png,,"(-0.7, 0.5)",cs_plus_s,,,,,0,0,0,0,,,,,,,,,3,6,54,0,,,,,,,,,,,,,,,,,,,,,1614.1608283000533,80,none,0,,,1619.1676097000018,,,,,,,,28,D,2023-12-14_13h36.13.425,gca_avoidance_task,2022.2.4,143.8468088880569,
positions.xlsx,stimuli.xlsx,stimuli/Social2.png,stimuli/Social1.png,stimuli/Nonsocial2.png,stimuli/Nonsocial1.png,,"(-0.7, -0.5)",cs_plus_ns,,,,,0,0,0,0,,,,,,,,,3,7,55,9,,,,,,,,,,,,,,,,,,,,,1628.6741483000806,80,none,0,,,1633.6809401999926,,,,,,,,28,D,2023-12-14_13h36.13.425,gca_avoidance_task,2022.2.4,143.8468088880569,
positions.xlsx,stimuli.xlsx,stimuli/Social2.png,stimuli/Social1.png,stimuli/Nonsocial2.png,stimuli/Nonsocial1.png,,"(0.7, 0.5)",cs_plus_s,,,,,0,0,0,0,,,,,,,,,3,8,56,2,,,,,,,,,,,,,,,,,,,,,1643.2569494000636,80,none,0,,,1648.263701000018,,,,,,,,28,D,2023-12-14_13h36.13.425,gca_avoidance_task,2022.2.4,143.8468088880569,
positions.xlsx,stimuli.xlsx,stimuli/Social2.png,stimuli/Social1.png,stimuli/Nonsocial2.png,stimuli/Nonsocial1.png,,"(-0.7, 0.5)",cs_minus_s,,,,,0,0,0,0,,,,,,,,,3,9,57,4,,,,,,,,,,,,,,,,,,,,,1658.2910832000198,80,none,0,,,1663.297808000003,,,,,,,,28,D,2023-12-14_13h36.13.425,gca_avoidance_task,2022.2.4,143.8468088880569,
positions.xlsx,stimuli.xlsx,stimuli/Social2.png,stimuli/Social1.png,stimuli/Nonsocial2.png,stimuli/Nonsocial1.png,,"(-0.7, -0.5)",cs_plus_s,,,,,0,0,0,0,,,,,,,,,3,10,58,1,,,,,,,,,,,,,,,,,,,,,1672.3043997000204,80,none,0,,,1677.3111390999984,,,,,,,,28,D,2023-12-14_13h36.13.425,gca_avoidance_task,2022.2.4,143.8468088880569,
positions.xlsx,stimuli.xlsx,stimuli/Social2.png,stimuli/Social1.png,stimuli/Nonsocial2.png,stimuli/Nonsocial1.png,,"(0.7, 0.5)",cs_plus_ns,,,,,0,0,0,0,,,,,,,,,3,11,59,10,,,,,,,,,,,,,,,,,,,,,1686.3385901000584,80,none,0,,,1691.3453335000668,,,,,,,,28,D,2023-12-14_13h36.13.425,gca_avoidance_task,2022.2.4,143.8468088880569,
positions.xlsx,stimuli.xlsx,stimuli/Social2.png,stimuli/Social1.png,stimuli/Nonsocial2.png,stimuli/Nonsocial1.png,,"(-0.7, -0.5)",cs_minus_s,,,,,0,0,0,0,,,,,,,,,3,12,60,5,,,,,,,,,,,,,,,,,,,,,1701.094939300092,80,none,0,,,1706.1017010000069,,,,,,,,28,D,2023-12-14_13h36.13.425,gca_avoidance_task,2022.2.4,143.8468088880569,
positions.xlsx,stimuli.xlsx,stimuli/Social2.png,stimuli/Social1.png,stimuli/Nonsocial2.png,stimuli/Nonsocial1.png,,"(-0.7, 0.5)",cs_plus_ns,,,,,0,0,0,0,,,,,,,,,3,13,61,8,,,,,,,,,,,,,,,,,,,,,1715.3860723000253,80,none,0,,,1720.3928851000965,,,,,,,,28,D,2023-12-14_13h36.13.425,gca_avoidance_task,2022.2.4,143.8468088880569,
positions.xlsx,stimuli.xlsx,stimuli/Social2.png,stimuli/Social1.png,stimuli/Nonsocial2.png,stimuli/Nonsocial1.png,,"(0.7, -0.5)",cs_plus_ns,,,,,0,0,0,0,,,,,,,,,3,14,62,11,,,,,,,,,,,,,,,,,,,,,1730.052158500068,80,none,0,,,1735.0589088000124,,,,,,,,28,D,2023-12-14_13h36.13.425,gca_avoidance_task,2022.2.4,143.8468088880569,
positions.xlsx,stimuli.xlsx,stimuli/Social2.png,stimuli/Social1.png,stimuli/Nonsocial2.png,stimuli/Nonsocial1.png,,"(0.7, -0.5)",cs_plus_s,,,,,0,0,0,0,,,,,,,,,3,15,63,3,,,,,,,,,,,,,,,,,,,,,1744.4752796000103,80,none,0,,,1749.4820206000004,,,,,,,,28,D,2023-12-14_13h36.13.425,gca_avoidance_task,2022.2.4,143.8468088880569,
positions.xlsx,stimuli.xlsx,stimuli/Social2.png,stimuli/Social1.png,stimuli/Nonsocial2.png,stimuli/Nonsocial1.png,,"(-0.7, -0.5)",cs_minus_s,,,,,0,0,0,0,,,,,,,,,4,0,64,5,,,,,,,,,,,,,,,,,,,,,1758.8982496000826,80,none,0,,,1763.905012000003,,,,,,,,28,D,2023-12-14_13h36.13.425,gca_avoidance_task,2022.2.4,143.8468088880569,
positions.xlsx,stimuli.xlsx,stimuli/Social2.png,stimuli/Social1.png,stimuli/Nonsocial2.png,stimuli/Nonsocial1.png,,"(-0.7, 0.5)",cs_plus_ns,,,,,0,0,0,0,,,,,,,,,4,1,65,8,,,,,,,,,,,,,,,,,,,,,1773.1685452000238,80,none,0,,,1778.1752774000634,,,,,,,,28,D,2023-12-14_13h36.13.425,gca_avoidance_task,2022.2.4,143.8468088880569,
positions.xlsx,stimuli.xlsx,stimuli/Social2.png,stimuli/Social1.png,stimuli/Nonsocial2.png,stimuli/Nonsocial1.png,,"(-0.7, 0.5)",cs_minus_s,,,,,0,0,0,0,,,,,,,,,4,2,66,4,,,,,,,,,,,,,,,,,,,,,1787.0568647000473,80,none,0,,,1792.0636532000499,,,,,,,,28,D,2023-12-14_13h36.13.425,gca_avoidance_task,2022.2.4,143.8468088880569,
positions.xlsx,stimuli.xlsx,stimuli/Social2.png,stimuli/Social1.png,stimuli/Nonsocial2.png,stimuli/Nonsocial1.png,,"(-0.7, -0.5)",cs_plus_s,,,,,0,0,0,0,,,,,,,,,4,3,67,1,,,,,,,,,,,,,,,,,,,,,1801.8202192999888,80,none,0,,,1806.8269371000351,,,,,,,,28,D,2023-12-14_13h36.13.425,gca_avoidance_task,2022.2.4,143.8468088880569,
positions.xlsx,stimuli.xlsx,stimuli/Social2.png,stimuli/Social1.png,stimuli/Nonsocial2.png,stimuli/Nonsocial1.png,,"(0.7, -0.5)",cs_plus_ns,,,,,0,0,0,0,,,,,,,,,4,4,68,11,,,,,,,,,,,,,,,,,,,,,1815.6877272999845,80,none,0,,,1820.6944976000814,,,,,,,,28,D,2023-12-14_13h36.13.425,gca_avoidance_task,2022.2.4,143.8468088880569,
positions.xlsx,stimuli.xlsx,stimuli/Social2.png,stimuli/Social1.png,stimuli/Nonsocial2.png,stimuli/Nonsocial1.png,,"(0.7, -0.5)",cs_minus_ns,,,,,0,0,0,0,,,,,,,,,4,5,69,15,,,,,,,,,,,,,,,,,,,,,1830.9995996000944,80,none,0,,,1836.00638720009,,,,,,,,28,D,2023-12-14_13h36.13.425,gca_avoidance_task,2022.2.4,143.8468088880569,
positions.xlsx,stimuli.xlsx,stimuli/Social2.png,stimuli/Social1.png,stimuli/Nonsocial2.png,stimuli/Nonsocial1.png,,"(-0.7, -0.5)",cs_minus_ns,,,,,0,0,0,0,,,,,,,,,4,6,70,13,,,,,,,,,,,,,,,,,,,,,1846.0337585000088,80,none,0,,,1851.0405116000911,,,,,,,,28,D,2023-12-14_13h36.13.425,gca_avoidance_task,2022.2.4,143.8468088880569,
positions.xlsx,stimuli.xlsx,stimuli/Social2.png,stimuli/Social1.png,stimuli/Nonsocial2.png,stimuli/Nonsocial1.png,,"(-0.7, 0.5)",cs_minus_ns,,,,,0,0,0,0,,,,,,,,,4,7,71,12,,,,,,,,,,,,,,,,,,,,,1861.248444100027,80,none,0,,,1866.2551651000977,,,,,,,,28,D,2023-12-14_13h36.13.425,gca_avoidance_task,2022.2.4,143.8468088880569,
positions.xlsx,stimuli.xlsx,stimuli/Social2.png,stimuli/Social1.png,stimuli/Nonsocial2.png,stimuli/Nonsocial1.png,,"(-0.7, 0.5)",cs_plus_s,,,,,0,0,0,0,,,,,,,,,4,8,72,0,,,,,,,,,,,,,,,,,,,,,1876.1714372000424,80,none,0,,,1881.1782561000437,,,,,,,,28,D,2023-12-14_13h36.13.425,gca_avoidance_task,2022.2.4,143.8468088880569,
positions.xlsx,stimuli.xlsx,stimuli/Social2.png,stimuli/Social1.png,stimuli/Nonsocial2.png,stimuli/Nonsocial1.png,,"(0.7, 0.5)",cs_plus_ns,,,,,0,0,0,0,,,,,,,,,4,9,73,10,,,,,,,,,,,,,,,,,,,,,1890.365377200069,80,none,0,,,1895.3790846000193,,,,,,,,28,D,2023-12-14_13h36.13.425,gca_avoidance_task,2022.2.4,143.8468088880569,
positions.xlsx,stimuli.xlsx,stimuli/Social2.png,stimuli/Social1.png,stimuli/Nonsocial2.png,stimuli/Nonsocial1.png,,"(0.7, 0.5)",cs_minus_ns,,,,,0,0,0,0,,,,,,,,,4,10,74,14,,,,,,,,,,,,,,,,,,,,,1905.3994992000517,80,none,0,,,1910.4062385000288,,,,,,,,28,D,2023-12-14_13h36.13.425,gca_avoidance_task,2022.2.4,143.8468088880569,
positions.xlsx,stimuli.xlsx,stimuli/Social2.png,stimuli/Social1.png,stimuli/Nonsocial2.png,stimuli/Nonsocial1.png,,"(-0.7, -0.5)",cs_plus_ns,,,,,0,0,0,0,,,,,,,,,4,11,75,9,,,,,,,,,,,,,,,,,,,,,1920.2739364000736,80,none,0,,,1925.2806925000623,,,,,,,,28,D,2023-12-14_13h36.13.425,gca_avoidance_task,2022.2.4,143.8468088880569,
positions.xlsx,stimuli.xlsx,stimuli/Social2.png,stimuli/Social1.png,stimuli/Nonsocial2.png,stimuli/Nonsocial1.png,,"(0.7, -0.5)",cs_plus_s,,,,,0,0,0,0,,,,,,,,,4,12,76,3,,,,,,,,,,,,,,,,,,,,,1934.8775125000393,80,none,0,,,1939.8842936999863,,,,,,,,28,D,2023-12-14_13h36.13.425,gca_avoidance_task,2022.2.4,143.8468088880569,
positions.xlsx,stimuli.xlsx,stimuli/Social2.png,stimuli/Social1.png,stimuli/Nonsocial2.png,stimuli/Nonsocial1.png,,"(0.7, -0.5)",cs_minus_s,,,,,0,0,0,0,,,,,,,,,4,13,77,7,,,,,,,,,,,,,,,,,,,,,1949.0019701999845,80,none,0,,,1954.0087279999861,,,,,,,,28,D,2023-12-14_13h36.13.425,gca_avoidance_task,2022.2.4,143.8468088880569,
positions.xlsx,stimuli.xlsx,stimuli/Social2.png,stimuli/Social1.png,stimuli/Nonsocial2.png,stimuli/Nonsocial1.png,,"(0.7, 0.5)",cs_minus_s,,,,,0,0,0,0,,,,,,,,,4,14,78,6,,,,,,,,,,,,,,,,,,,,,1962.9597579000983,80,none,0,,,1967.9665054000216,,,,,,,,28,D,2023-12-14_13h36.13.425,gca_avoidance_task,2022.2.4,143.8468088880569,
positions.xlsx,stimuli.xlsx,stimuli/Social2.png,stimuli/Social1.png,stimuli/Nonsocial2.png,stimuli/Nonsocial1.png,,"(0.7, 0.5)",cs_plus_s,,,,,0,0,0,0,,,,,,,,,4,15,79,2,,,,,,,,,,,,,,,,,,,,,1977.9383462000405,80,none,0,,,1982.9451067000628,,,,,,,,28,D,2023-12-14_13h36.13.425,gca_avoidance_task,2022.2.4,143.8468088880569,
positions.xlsx,stimuli.xlsx,stimuli/Social2.png,stimuli/Social1.png,stimuli/Nonsocial2.png,stimuli/Nonsocial1.png,cs_plus_ns,,,,,,,0,0,0,0,,,,,,,,,,,,,0,0,0,1,,,,,,,,,,,,,2004.3956807000795,4.0,4.821532199974172,,,,,,,,,6.0,13.173719700076617,,,,,,28,D,2023-12-14_13h36.13.425,gca_avoidance_task,2022.2.4,143.8468088880569,
positions.xlsx,stimuli.xlsx,stimuli/Social2.png,stimuli/Social1.png,stimuli/Nonsocial2.png,stimuli/Nonsocial1.png,cs_minus_s,,,,,,,0,0,0,0,,,,,,,,,,,,,0,1,1,2,,,,,,,,,,,,,2009.8538124000188,7.0,1.5629144000122324,,,,,,,,,,,,,,,,28,D,2023-12-14_13h36.13.425,gca_avoidance_task,2022.2.4,143.8468088880569,
positions.xlsx,stimuli.xlsx,stimuli/Social2.png,stimuli/Social1.png,stimuli/Nonsocial2.png,stimuli/Nonsocial1.png,cs_minus_ns,,,,,,,0,0,0,0,,,,,,,,,,,,,0,2,2,3,,,,,,,,,,,,,2012.3397849000758,7.0,1.7915812999708578,,,,,,,,,,,,,,,,28,D,2023-12-14_13h36.13.425,gca_avoidance_task,2022.2.4,143.8468088880569,
positions.xlsx,stimuli.xlsx,stimuli/Social2.png,stimuli/Social1.png,stimuli/Nonsocial2.png,stimuli/Nonsocial1.png,cs_plus_s,,,,,,,0,0,0,0,,,,,,,,,,,,,0,3,3,0,,,,,,,,,,,,,2014.7216942000668,3.0,1.611192399985157,,,,,,,,,,,,,,,,28,D,2023-12-14_13h36.13.425,gca_avoidance_task,2022.2.4,143.8468088880569,
positions.xlsx,stimuli.xlsx,stimuli/Social2.png,stimuli/Social1.png,stimuli/Nonsocial2.png,stimuli/Nonsocial1.png,cs_minus_ns,,,,,,,0,0,0,0,,,,,,,,,,,,,,,,,0,0,0,3,,,,,,,,,,,,,,,,,,,,,,2016.8952004000312,2021.0686251000734,4,0.022964100004173815,4.465069100027904,28,D,2023-12-14_13h36.13.425,gca_avoidance_task,2022.2.4,143.8468088880569,
positions.xlsx,stimuli.xlsx,stimuli/Social2.png,stimuli/Social1.png,stimuli/Nonsocial2.png,stimuli/Nonsocial1.png,cs_plus_ns,,,,,,,0,0,0,0,,,,,,,,,,,,,,,,,0,1,1,1,,,,,,,,,,,,,,,,,,,,,,,2035.6166777000763,5,0.015357099939137697,1.194563900004141,28,D,2023-12-14_13h36.13.425,gca_avoidance_task,2022.2.4,143.8468088880569,
positions.xlsx,stimuli.xlsx,stimuli/Social2.png,stimuli/Social1.png,stimuli/Nonsocial2.png,stimuli/Nonsocial1.png,cs_minus_s,,,,,,,0,0,0,0,,,,,,,,,,,,,,,,,0,2,2,2,,,,,,,,,,,,,,,,,,,,,,,2051.0188624000875,5,0.013898000004701316,4.902828399906866,28,D,2023-12-14_13h36.13.425,gca_avoidance_task,2022.2.4,143.8468088880569,
positions.xlsx,stimuli.xlsx,stimuli/Social2.png,stimuli/Social1.png,stimuli/Nonsocial2.png,stimuli/Nonsocial1.png,cs_plus_s,,,,,,,0,0,0,0,,,,,,,,,,,,,,,,,0,3,3,0,,,,,,,,,,,,,,,,,,,,,,,2065.539160000044,4,0.013377800001762807,1.7712591000599787,28,D,2023-12-14_13h36.13.425,gca_avoidance_task,2022.2.4,143.8468088880569,
positions.xlsx,stimuli.xlsx,stimuli/Social2.png,stimuli/Social1.png,stimuli/Nonsocial2.png,stimuli/Nonsocial1.png,cs_minus_s,,,,,,,0,0,0,0,,,,,,,,,,,,,,,,,1,0,4,2,,,,,,,,,,,,,,,,,,,,,,,2080.5871770000085,4,0.01390210003592074,2.7501148000592366,28,D,2023-12-14_13h36.13.425,gca_avoidance_task,2022.2.4,143.8468088880569,
positions.xlsx,stimuli.xlsx,stimuli/Social2.png,stimuli/Social1.png,stimuli/Nonsocial2.png,stimuli/Nonsocial1.png,cs_minus_ns,,,,,,,0,0,0,0,,,,,,,,,,,,,,,,,1,1,5,3,,,,,,,,,,,,,,,,,,,,,,,2095.63520540006,9,0.013950400054454803,0.7640896999510005,28,D,2023-12-14_13h36.13.425,gca_avoidance_task,2022.2.4,143.8468088880569,
positions.xlsx,stimuli.xlsx,stimuli/Social2.png,stimuli/Social1.png,stimuli/Nonsocial2.png,stimuli/Nonsocial1.png,cs_plus_ns,,,,,,,0,0,0,0,,,,,,,,,,,,,,,,,1,2,6,1,,,,,,,,,,,,,,,,,,,,,,,2111.0998435000656,6,0.014097800012677908,0.6461766000138596,28,D,2023-12-14_13h36.13.425,gca_avoidance_task,2022.2.4,143.8468088880569,
positions.xlsx,stimuli.xlsx,stimuli/Social2.png,stimuli/Social1.png,stimuli/Nonsocial2.png,stimuli/Nonsocial1.png,cs_plus_s,,,,,,,0,0,0,0,,,,,,,,,,,,,,,,,1,3,7,0,,,,,,,,,,,,,,,,,,,,,,,2125.9326323000714,5,0.013720799935981631,0.6323602999327704,28,D,2023-12-14_13h36.13.425,gca_avoidance_task,2022.2.4,143.8468088880569,
positions.xlsx,stimuli.xlsx,stimuli/Social2.png,stimuli/Social1.png,stimuli/Nonsocial2.png,stimuli/Nonsocial1.png,cs_minus_s,,,,,,,0,0,0,0,,,,,,,,,,,,,,,,,2,0,8,2,,,,,,,,,,,,,,,,,,,,,,,2141.237576000043,5,0.01445729995612055,0.5697363000363111,28,D,2023-12-14_13h36.13.425,gca_avoidance_task,2022.2.4,143.8468088880569,
positions.xlsx,stimuli.xlsx,stimuli/Social2.png,stimuli/Social1.png,stimuli/Nonsocial2.png,stimuli/Nonsocial1.png,cs_plus_s,,,,,,,0,0,0,0,,,,,,,,,,,,,,,,,2,1,9,0,,,,,,,,,,,,,,,,,,,,,,,2156.2092621000484,5,0.013517700019292533,2.3753200999926776,28,D,2023-12-14_13h36.13.425,gca_avoidance_task,2022.2.4,143.8468088880569,
positions.xlsx,stimuli.xlsx,stimuli/Social2.png,stimuli/Social1.png,stimuli/Nonsocial2.png,stimuli/Nonsocial1.png,cs_plus_ns,,,,,,,0,0,0,0,,,,,,,,,,,,,,,,,2,2,10,1,,,,,,,,,,,,,,,,,,,,,,,2171.236399000045,11,0.014061000081710517,0.8683295000810176,28,D,2023-12-14_13h36.13.425,gca_avoidance_task,2022.2.4,143.8468088880569,
positions.xlsx,stimuli.xlsx,stimuli/Social2.png,stimuli/Social1.png,stimuli/Nonsocial2.png,stimuli/Nonsocial1.png,cs_minus_ns,,,,,,,0,0,0,0,,,,,,,,,,,,,,,,,2,3,11,3,,,,,,,,,,,,,,,,,,,,,,,2186.2636143000564,6,0.013977100024931133,0.6253109000390396,28,D,2023-12-14_13h36.13.425,gca_avoidance_task,2022.2.4,143.8468088880569,
positions.xlsx,stimuli.xlsx,stimuli/Social2.png,stimuli/Social1.png,stimuli/Nonsocial2.png,stimuli/Nonsocial1.png,cs_plus_s,,,,,,,0,0,0,0,,,,,,,,,,,,,,,,,3,0,12,0,,,,,,,,,,,,,,,,,,,,,,,2201.346349200001,7,0.013505600043572485,0.7710142000578344,28,D,2023-12-14_13h36.13.425,gca_avoidance_task,2022.2.4,143.8468088880569,
positions.xlsx,stimuli.xlsx,stimuli/Social2.png,stimuli/Social1.png,stimuli/Nonsocial2.png,stimuli/Nonsocial1.png,cs_minus_s,,,,,,,0,0,0,0,,,,,,,,,,,,,,,,,3,1,13,2,,,,,,,,,,,,,,,,,,,,,,,2216.686028700089,6,0.013475100044161081,0.7501356001012027,28,D,2023-12-14_13h36.13.425,gca_avoidance_task,2022.2.4,143.8468088880569,
positions.xlsx,stimuli.xlsx,stimuli/Social2.png,stimuli/Social1.png,stimuli/Nonsocial2.png,stimuli/Nonsocial1.png,cs_minus_ns,,,,,,,0,0,0,0,,,,,,,,,,,,,,,,,3,2,14,3,,,,,,,,,,,,,,,,,,,,,,,2232.0396000000183,7,0.014684699941426516,0.5418997999513522,28,D,2023-12-14_13h36.13.425,gca_avoidance_task,2022.2.4,143.8468088880569,
positions.xlsx,stimuli.xlsx,stimuli/Social2.png,stimuli/Social1.png,stimuli/Nonsocial2.png,stimuli/Nonsocial1.png,cs_plus_ns,,,,,,,0,0,0,0,,,,,,,,,,,,,,,,,3,3,15,1,,,,,,,,,,,,,,,,,,,,,,,2246.5598852999974,5,0.015320000005885959,1.7295697999652475,28,D,2023-12-14_13h36.13.425,gca_avoidance_task,2022.2.4,143.8468088880569,
positions.xlsx,stimuli.xlsx,stimuli/Social2.png,stimuli/Social1.png,stimuli/Nonsocial2.png,stimuli/Nonsocial1.png,cs_plus_s,,,,,,,0,0,0,0,,,,,,,,,,,,,,,,,4,0,16,0,,,,,,,,,,,,,,,,,,,,,,,2261.2607628999976,5,0.1261726999655366,2.6042348999762908,28,D,2023-12-14_13h36.13.425,gca_avoidance_task,2022.2.4,143.8468088880569,
positions.xlsx,stimuli.xlsx,stimuli/Social2.png,stimuli/Social1.png,stimuli/Nonsocial2.png,stimuli/Nonsocial1.png,cs_minus_ns,,,,,,,0,0,0,0,,,,,,,,,,,,,,,,,4,1,17,3,,,,,,,,,,,,,,,,,,,,,,,2276.1142757000634,7,0.01440880005247891,1.6461711000883952,28,D,2023-12-14_13h36.13.425,gca_avoidance_task,2022.2.4,143.8468088880569,
positions.xlsx,stimuli.xlsx,stimuli/Social2.png,stimuli/Social1.png,stimuli/Nonsocial2.png,stimuli/Nonsocial1.png,cs_minus_s,,,,,,,0,0,0,0,,,,,,,,,,,,,,,,,4,2,18,2,,,,,,,,,,,,,,,,,,,,,,,2290.849812300061,7,0.014023900032043457,0.5350494999438524,28,D,2023-12-14_13h36.13.425,gca_avoidance_task,2022.2.4,143.8468088880569,
positions.xlsx,stimuli.xlsx,stimuli/Social2.png,stimuli/Social1.png,stimuli/Nonsocial2.png,stimuli/Nonsocial1.png,cs_plus_ns,,,,,,,0,0,0,0,,,,,,,,,,,,,,,,,4,3,19,1,,,,,,,,,,,,,,,,,,,,,,,2305.9673045000527,8,0.01404099992942065,0.7851165999891236,28,D,2023-12-14_13h36.13.425,gca_avoidance_task,2022.2.4,143.8468088880569,
positions.xlsx,stimuli.xlsx,stimuli/Social2.png,stimuli/Social1.png,stimuli/Nonsocial2.png,stimuli/Nonsocial1.png,cs_plus_s,,,,,,,0,0,0,0,,,,,,,,,,,,,,,,,5,0,20,0,,,,,,,,,,,,,,,,,,,,,,,2321.2236512000673,12,0.013905899948440492,0.2569696999853477,28,D,2023-12-14_13h36.13.425,gca_avoidance_task,2022.2.4,143.8468088880569,
positions.xlsx,stimuli.xlsx,stimuli/Social2.png,stimuli/Social1.png,stimuli/Nonsocial2.png,stimuli/Nonsocial1.png,cs_plus_ns,,,,,,,0,0,0,0,,,,,,,,,,,,,,,,,5,1,21,1,,,,,,,,,,,,,,,,,,,,,,,2336.67446270003,15,0.01422040001489222,2.1532610999420285,28,D,2023-12-14_13h36.13.425,gca_avoidance_task,2022.2.4,143.8468088880569,
positions.xlsx,stimuli.xlsx,stimuli/Social2.png,stimuli/Social1.png,stimuli/Nonsocial2.png,stimuli/Nonsocial1.png,cs_minus_ns,,,,,,,0,0,0,0,,,,,,,,,,,,,,,,,5,2,22,3,,,,,,,,,,,,,,,,,,,,,,,2351.937725700089,11,0.014136899961158633,0.5767454999731854,28,D,2023-12-14_13h36.13.425,gca_avoidance_task,2022.2.4,143.8468088880569,
positions.xlsx,stimuli.xlsx,stimuli/Social2.png,stimuli/Social1.png,stimuli/Nonsocial2.png,stimuli/Nonsocial1.png,cs_minus_s,,,,,,,0,0,0,0,,,,,,,,,,,,,,,,,5,3,23,2,,,,,,,,,,,,,,,,,,,,,,,2367.1246591000818,8,0.013914700015448034,0.5628497999859974,28,D,2023-12-14_13h36.13.425,gca_avoidance_task,2022.2.4,143.8468088880569,
positions.xlsx,stimuli.xlsx,stimuli/Social2.png,stimuli/Social1.png,stimuli/Nonsocial2.png,stimuli/Nonsocial1.png,cs_minus_ns,,,,,,,0,0,0,0,,,,,,,,,,,,,,,,,6,0,24,3,,,,,,,,,,,,,,,,,,,,,,,2382.617100900039,6,0.014028500067070127,0.514168499968946,28,D,2023-12-14_13h36.13.425,gca_avoidance_task,2022.2.4,143.8468088880569,
positions.xlsx,stimuli.xlsx,stimuli/Social2.png,stimuli/Social1.png,stimuli/Nonsocial2.png,stimuli/Nonsocial1.png,cs_minus_s,,,,,,,0,0,0,0,,,,,,,,,,,,,,,,,6,1,25,2,,,,,,,,,,,,,,,,,,,,,,,2397.6304422999965,5,0.013474300038069487,0.798865900025703,28,D,2023-12-14_13h36.13.425,gca_avoidance_task,2022.2.4,143.8468088880569,
positions.xlsx,stimuli.xlsx,stimuli/Social2.png,stimuli/Social1.png,stimuli/Nonsocial2.png,stimuli/Nonsocial1.png,cs_plus_s,,,,,,,0,0,0,0,,,,,,,,,,,,,,,,,6,2,26,0,,,,,,,,,,,,,,,,,,,,,,,2412.5325938999886,3,0.015067900065332651,0.16694969998206943,28,D,2023-12-14_13h36.13.425,gca_avoidance_task,2022.2.4,143.8468088880569,
positions.xlsx,stimuli.xlsx,stimuli/Social2.png,stimuli/Social1.png,stimuli/Nonsocial2.png,stimuli/Nonsocial1.png,cs_plus_ns,,,,,,,0,0,0,0,,,,,,,,,,,,,,,,,6,3,27,1,,,,,,,,,,,,,,,,,,,,,,,2427.3236846000655,4,0.015261500026099384,1.7087671000044793,28,D,2023-12-14_13h36.13.425,gca_avoidance_task,2022.2.4,143.8468088880569,
positions.xlsx,stimuli.xlsx,stimuli/Social2.png,stimuli/Social1.png,stimuli/Nonsocial2.png,stimuli/Nonsocial1.png,cs_plus_s,,,,,,,0,0,0,0,,,,,,,,,,,,,,,,,7,0,28,0,,,,,,,,,,,,,,,,,,,,,,,2442.212018500082,4,0.013631600071676075,2.3544582000467926,28,D,2023-12-14_13h36.13.425,gca_avoidance_task,2022.2.4,143.8468088880569,
positions.xlsx,stimuli.xlsx,stimuli/Social2.png,stimuli/Social1.png,stimuli/Nonsocial2.png,stimuli/Nonsocial1.png,cs_minus_ns,,,,,,,0,0,0,0,,,,,,,,,,,,,,,,,7,1,29,3,,,,,,,,,,,,,,,,,,,,,,,2457.2044662000844,13,0.014770700014196336,0.45177329995203763,28,D,2023-12-14_13h36.13.425,gca_avoidance_task,2022.2.4,143.8468088880569,
positions.xlsx,stimuli.xlsx,stimuli/Social2.png,stimuli/Social1.png,stimuli/Nonsocial2.png,stimuli/Nonsocial1.png,cs_plus_ns,,,,,,,0,0,0,0,,,,,,,,,,,,,,,,,7,2,30,1,,,,,,,,,,,,,,,,,,,,,,,2472.3983235000633,8,0.049103799974545836,0.13241709989961237,28,D,2023-12-14_13h36.13.425,gca_avoidance_task,2022.2.4,143.8468088880569,
positions.xlsx,stimuli.xlsx,stimuli/Social2.png,stimuli/Social1.png,stimuli/Nonsocial2.png,stimuli/Nonsocial1.png,cs_minus_s,,,,,,,0,0,0,0,,,,,,,,,,,,,,,,,7,3,31,2,,,,,,,,,,,,,,,,,,,,,,,2487.3005172000267,7,0.013940899982117116,1.0210476000793278,28,D,2023-12-14_13h36.13.425,gca_avoidance_task,2022.2.4,143.8468088880569,
positions.xlsx,stimuli.xlsx,stimuli/Social2.png,stimuli/Social1.png,stimuli/Nonsocial2.png,stimuli/Nonsocial1.png,cs_plus_s,,,,,,,0,0,0,0,,,,,,,,,,,,,,,,,8,0,32,0,,,,,,,,,,,,,,,,,,,,,,,2502.5568919000216,5,0.013726200093515217,2.368724000058137,28,D,2023-12-14_13h36.13.425,gca_avoidance_task,2022.2.4,143.8468088880569,
positions.xlsx,stimuli.xlsx,stimuli/Social2.png,stimuli/Social1.png,stimuli/Nonsocial2.png,stimuli/Nonsocial1.png,cs_minus_s,,,,,,,0,0,0,0,,,,,,,,,,,,,,,,,8,1,33,2,,,,,,,,,,,,,,,,,,,,,,,2517.7021549000638,1,0.013513400102965534,10.00000350002665,28,D,2023-12-14_13h36.13.425,gca_avoidance_task,2022.2.4,143.8468088880569,
positions.xlsx,stimuli.xlsx,stimuli/Social2.png,stimuli/Social1.png,stimuli/Nonsocial2.png,stimuli/Nonsocial1.png,cs_minus_ns,,,,,,,0,0,0,0,,,,,,,,,,,,,,,,,8,2,34,3,,,,,,,,,,,,,,,,,,,,,,,2532.2363171000034,5,0.01408880006056279,0.479481500107795,28,D,2023-12-14_13h36.13.425,gca_avoidance_task,2022.2.4,143.8468088880569,
positions.xlsx,stimuli.xlsx,stimuli/Social2.png,stimuli/Social1.png,stimuli/Nonsocial2.png,stimuli/Nonsocial1.png,cs_plus_ns,,,,,,,0,0,0,0,,,,,,,,,,,,,,,,,8,3,35,1,,,,,,,,,,,,,,,,,,,,,,,2547.5551615000004,5,0.01402810006402433,0.7087593000615016,28,D,2023-12-14_13h36.13.425,gca_avoidance_task,2022.2.4,143.8468088880569,
positions.xlsx,stimuli.xlsx,stimuli/Social2.png,stimuli/Social1.png,stimuli/Nonsocial2.png,stimuli/Nonsocial1.png,cs_plus_s,,,,,,,0,0,0,0,,,,,,,,,,,,,,,,,9,0,36,0,,,,,,,,,,,,,,,,,,,,,,,2562.290683600004,4,0.013648900086991489,0.472641900065355,28,D,2023-12-14_13h36.13.425,gca_avoidance_task,2022.2.4,143.8468088880569,
positions.xlsx,stimuli.xlsx,stimuli/Social2.png,stimuli/Social1.png,stimuli/Nonsocial2.png,stimuli/Nonsocial1.png,cs_plus_ns,,,,,,,0,0,0,0,,,,,,,,,,,,,,,,,9,1,37,1,,,,,,,,,,,,,,,,,,,,,,,2577.4012217000127,6,0.014254900044761598,0.12548210006207228,28,D,2023-12-14_13h36.13.425,gca_avoidance_task,2022.2.4,143.8468088880569,
positions.xlsx,stimuli.xlsx,stimuli/Social2.png,stimuli/Social1.png,stimuli/Nonsocial2.png,stimuli/Nonsocial1.png,cs_minus_s,,,,,,,0,0,0,0,,,,,,,,,,,,,,,,,9,2,38,2,,,,,,,,,,,,,,,,,,,,,,,2592.8867196000647,7,0.013880899990908802,0.7850687999743968,28,D,2023-12-14_13h36.13.425,gca_avoidance_task,2022.2.4,143.8468088880569,
positions.xlsx,stimuli.xlsx,stimuli/Social2.png,stimuli/Social1.png,stimuli/Nonsocial2.png,stimuli/Nonsocial1.png,cs_minus_ns,,,,,,,0,0,0,0,,,,,,,,,,,,,,,,,9,3,39,3,,,,,,,,,,,,,,,,,,,,,,,2607.8375293000136,6,0.014174200012348592,0.7154429999645799,28,D,2023-12-14_13h36.13.425,gca_avoidance_task,2022.2.4,143.8468088880569,
positions.xlsx,stimuli.xlsx,stimuli/Social2.png,stimuli/Social1.png,stimuli/Nonsocial2.png,stimuli/Nonsocial1.png,cs_plus_ns,,,,,,,0,0,0,0,,,,,,,,,,,,,,,,,,,,,0,0,0,1,,,,,2621.830078600091,4.0,6.986661599949002,,,,,,,,,,,,,,,,28,D,2023-12-14_13h36.13.425,gca_avoidance_task,2022.2.4,143.8468088880569,
positions.xlsx,stimuli.xlsx,stimuli/Social2.png,stimuli/Social1.png,stimuli/Nonsocial2.png,stimuli/Nonsocial1.png,cs_minus_s,,,,,,,0,0,0,0,,,,,,,,,,,,,,,,,,,,,0,1,1,2,,,,,2630.170023899991,6.0,1.973374400055036,,,,,,,,,,,,,,,,28,D,2023-12-14_13h36.13.425,gca_avoidance_task,2022.2.4,143.8468088880569,
positions.xlsx,stimuli.xlsx,stimuli/Social2.png,stimuli/Social1.png,stimuli/Nonsocial2.png,stimuli/Nonsocial1.png,cs_minus_ns,,,,,,,0,0,0,0,,,,,,,,,,,,,,,,,,,,,0,2,2,3,,,,,2632.8921375999926,7.0,1.4717181000160053,,,,,,,,,,,,,,,,28,D,2023-12-14_13h36.13.425,gca_avoidance_task,2022.2.4,143.8468088880569,
positions.xlsx,stimuli.xlsx,stimuli/Social2.png,stimuli/Social1.png,stimuli/Nonsocial2.png,stimuli/Nonsocial1.png,cs_plus_s,,,,,,,0,0,0,0,,,,,,,,,,,,,,,,,,,,,0,3,3,0,,,,,2635.0725696000736,2.0,2.1125081999925897,,,,,,,,,,,,,,,,28,D,2023-12-14_13h36.13.425,gca_avoidance_task,2022.2.4,143.8468088880569,
