posFile,stimFile,cs_plus_s,cs_minus_s,cs_plus_ns,cs_minus_ns,stimtype,position,trialtype,trials_threshold.thisRepN,trials_threshold.thisTrialN,trials_threshold.thisN,trials_threshold.thisIndex,blocks.thisRepN,blocks.thisTrialN,blocks.thisN,blocks.thisIndex,ratingtrials1.thisRepN,ratingtrials1.thisTrialN,ratingtrials1.thisN,ratingtrials1.thisIndex,learning_trials.thisRepN,learning_trials.thisTrialN,learning_trials.thisN,learning_trials.thisIndex,trials.thisRepN,trials.thisTrialN,trials.thisN,trials.thisIndex,ratingtrials2.thisRepN,ratingtrials2.thisTrialN,ratingtrials2.thisN,ratingtrials2.thisIndex,testtrials.thisRepN,testtrials.thisTrialN,testtrials.thisN,testtrials.thisIndex,ratingtrials3.thisRepN,ratingtrials3.thisTrialN,ratingtrials3.thisN,ratingtrials3.thisIndex,textStart.started,sliderPainT.response,sliderPainT.rt,textStartExp.started,imageRating.started,sliderStim.response,sliderStim.rt,textStartTask.started,image.started,score,outcome,roi.numLooks,roi.timesOn,roi.timesOff,imageFeedback.started,sliderPain.response,sliderPain.rt,textTestInstr.started,imageTest.started,roiTest.numLooks,roiTest.timesOn,roiTest.timesOff,participant,group,date,expName,psychopyVersion,frameRate,
,,,,,,,,,0,0,0,0,,,,,,,,,,,,,,,,,,,,,,,,,,,,,16.798642300069332,None,None,,,,,,,,,,,,,,,,,,,,49,C,2024-01-12_12h45.41.397,gca_avoidance_task,2022.2.4,144.06585510694552,
,,,,,,,,,1,0,1,0,,,,,,,,,,,,,,,,,,,,,,,,,,,,,,1.0,4.220820699818432,,,,,,,,,,,,,,,,,,,,49,C,2024-01-12_12h45.41.397,gca_avoidance_task,2022.2.4,144.06585510694552,
,,,,,,,,,2,0,2,0,,,,,,,,,,,,,,,,,,,,,,,,,,,,,,2.0,1.3139597000554204,,,,,,,,,,,,,,,,,,,,49,C,2024-01-12_12h45.41.397,gca_avoidance_task,2022.2.4,144.06585510694552,
,,,,,,,,,3,0,3,0,,,,,,,,,,,,,,,,,,,,,,,,,,,,,,3.0,2.161837900057435,,,,,,,,,,,,,,,,,,,,49,C,2024-01-12_12h45.41.397,gca_avoidance_task,2022.2.4,144.06585510694552,
,,,,,,,,,4,0,4,0,,,,,,,,,,,,,,,,,,,,,,,,,,,,,,3.0,3.074321100022644,,,,,,,,,,,,,,,,,,,,49,C,2024-01-12_12h45.41.397,gca_avoidance_task,2022.2.4,144.06585510694552,
,,,,,,,,,5,0,5,0,,,,,,,,,,,,,,,,,,,,,,,,,,,,,,3.0,3.9223023999948055,,,,,,,,,,,,,,,,,,,,49,C,2024-01-12_12h45.41.397,gca_avoidance_task,2022.2.4,144.06585510694552,
,,,,,,,,,6,0,6,0,,,,,,,,,,,,,,,,,,,,,,,,,,,,,,4.0,1.489550500176847,,,,,,,,,,,,,,,,,,,,49,C,2024-01-12_12h45.41.397,gca_avoidance_task,2022.2.4,144.06585510694552,
,,,,,,,,,7,0,7,0,,,,,,,,,,,,,,,,,,,,,,,,,,,,,,5.0,2.5114621999673545,,,,,,,,,,,,,,,,,,,,49,C,2024-01-12_12h45.41.397,gca_avoidance_task,2022.2.4,144.06585510694552,
,,,,,,,,,8,0,8,0,,,,,,,,,,,,,,,,,,,,,,,,,,,,,,5.0,3.6183076999150217,,,,,,,,,,,,,,,,,,,,49,C,2024-01-12_12h45.41.397,gca_avoidance_task,2022.2.4,144.06585510694552,
,,,,,,,,,9,0,9,0,,,,,,,,,,,,,,,,,,,,,,,,,,,,,,6.0,2.348871599882841,,,,,,,,,,,,,,,,,,,,49,C,2024-01-12_12h45.41.397,gca_avoidance_task,2022.2.4,144.06585510694552,
,,,,,,,,,10,0,10,0,,,,,,,,,,,,,,,,,,,,,,,,,,,,,,6.0,2.041981799993664,,,,,,,,,,,,,,,,,,,,49,C,2024-01-12_12h45.41.397,gca_avoidance_task,2022.2.4,144.06585510694552,
,,,,,,,,,11,0,11,0,,,,,,,,,,,,,,,,,,,,,,,,,,,,,,6.0,1.9513981000054628,,,,,,,,,,,,,,,,,,,,49,C,2024-01-12_12h45.41.397,gca_avoidance_task,2022.2.4,144.06585510694552,
,,,,,,,,,12,0,12,0,,,,,,,,,,,,,,,,,,,,,,,,,,,,,,None,None,,,,,,,,,,,,,,,,,,,,49,C,2024-01-12_12h45.41.397,gca_avoidance_task,2022.2.4,144.06585510694552,
,,,,,,,,,13,0,13,0,,,,,,,,,,,,,,,,,,,,,,,,,,,,,,5.0,1.401166900061071,,,,,,,,,,,,,,,,,,,,49,C,2024-01-12_12h45.41.397,gca_avoidance_task,2022.2.4,144.06585510694552,
,,,,,,,,,14,0,14,0,,,,,,,,,,,,,,,,,,,,,,,,,,,,,,7.0,2.674367800122127,,,,,,,,,,,,,,,,,,,,49,C,2024-01-12_12h45.41.397,gca_avoidance_task,2022.2.4,144.06585510694552,
,,,,,,,,,15,0,15,0,,,,,,,,,,,,,,,,,,,,,,,,,,,,,,7.0,1.1682535000145435,,,,,,,,,,,,,,,,,,,,49,C,2024-01-12_12h45.41.397,gca_avoidance_task,2022.2.4,144.06585510694552,
,,,,,,,,,16,0,16,0,,,,,,,,,,,,,,,,,,,,,,,,,,,,,,7.0,2.0188768000807613,,,,,,,,,,,,,,,,,,,,49,C,2024-01-12_12h45.41.397,gca_avoidance_task,2022.2.4,144.06585510694552,
,,,,,,,,,17,0,17,0,,,,,,,,,,,,,,,,,,,,,,,,,,,,,,6.0,3.6726702998857945,,,,,,,,,,,,,,,,,,,,49,C,2024-01-12_12h45.41.397,gca_avoidance_task,2022.2.4,144.06585510694552,
positions.xlsx,stimuli.xlsx,stimuli/Social1.png,stimuli/Social2.png,stimuli/Nonsocial2.png,stimuli/Nonsocial1.png,cs_plus_ns,,,,,,,0,0,0,0,0,0,0,1,,,,,,,,,,,,,,,,,,,,,,,,2525.060337400064,2600.7799352,3.0,16.681614300003275,,,,,,,,,,,,,,,,49,C,2024-01-12_12h45.41.397,gca_avoidance_task,2022.2.4,144.06585510694552,
positions.xlsx,stimuli.xlsx,stimuli/Social1.png,stimuli/Social2.png,stimuli/Nonsocial2.png,stimuli/Nonsocial1.png,cs_minus_ns,,,,,,,0,0,0,0,0,1,1,3,,,,,,,,,,,,,,,,,,,,,,,,,2619.7791758000385,6.0,13.818959800060838,,,,,,,,,,,,,,,,49,C,2024-01-12_12h45.41.397,gca_avoidance_task,2022.2.4,144.06585510694552,
positions.xlsx,stimuli.xlsx,stimuli/Social1.png,stimuli/Social2.png,stimuli/Nonsocial2.png,stimuli/Nonsocial1.png,cs_minus_s,,,,,,,0,0,0,0,0,2,2,2,,,,,,,,,,,,,,,,,,,,,,,,,2634.479967800202,9.0,10.785794300027192,,,,,,,,,,,,,,,,49,C,2024-01-12_12h45.41.397,gca_avoidance_task,2022.2.4,144.06585510694552,
positions.xlsx,stimuli.xlsx,stimuli/Social1.png,stimuli/Social2.png,stimuli/Nonsocial2.png,stimuli/Nonsocial1.png,cs_plus_s,,,,,,,0,0,0,0,0,3,3,0,,,,,,,,,,,,,,,,,,,,,,,,,2647.326683800202,8.0,3.4311478999443352,,,,,,,,,,,,,,,,49,C,2024-01-12_12h45.41.397,gca_avoidance_task,2022.2.4,144.06585510694552,
positions.xlsx,stimuli.xlsx,stimuli/Social1.png,stimuli/Social2.png,stimuli/Nonsocial2.png,stimuli/Nonsocial1.png,,"(0.7, 0.5)",cs_plus_s,,,,,0,0,0,0,,,,,0,0,0,2,,,,,,,,,,,,,,,,,,,,,,,,2652.118189400062,2708.4770783002023,0,shock,1,0.19507259991951287,0.19507679995149374,2708.678417999996,,,,,,,,49,C,2024-01-12_12h45.41.397,gca_avoidance_task,2022.2.4,144.06585510694552,
positions.xlsx,stimuli.xlsx,stimuli/Social1.png,stimuli/Social2.png,stimuli/Nonsocial2.png,stimuli/Nonsocial1.png,,"(-0.7, -0.5)",cs_minus_ns,,,,,0,0,0,0,,,,,0,1,1,13,,,,,,,,,,,,,,,,,,,,,,,,,2717.5877976000775,5,reward,1,1.069488300010562,1.069492399925366,2718.664157500025,,,,,,,,49,C,2024-01-12_12h45.41.397,gca_avoidance_task,2022.2.4,144.06585510694552,
positions.xlsx,stimuli.xlsx,stimuli/Social1.png,stimuli/Social2.png,stimuli/Nonsocial2.png,stimuli/Nonsocial1.png,,"(0.7, -0.5)",cs_plus_ns,,,,,0,0,0,0,,,,,0,2,2,11,,,,,,,,,,,,,,,,,,,,,,,,,2727.837394400034,5,shock,1,1.0979488999582827,1.0979530999902636,2728.941500400193,,,,,,,,49,C,2024-01-12_12h45.41.397,gca_avoidance_task,2022.2.4,144.06585510694552,
positions.xlsx,stimuli.xlsx,stimuli/Social1.png,stimuli/Social2.png,stimuli/Nonsocial2.png,stimuli/Nonsocial1.png,,"(0.7, 0.5)",cs_plus_ns,,,,,0,0,0,0,,,,,0,3,3,10,,,,,,,,,,,,,,,,,,,,,,,,,2738.267538300017,5,none,0,,,2743.274265800137,,,,,,,,49,C,2024-01-12_12h45.41.397,gca_avoidance_task,2022.2.4,144.06585510694552,
positions.xlsx,stimuli.xlsx,stimuli/Social1.png,stimuli/Social2.png,stimuli/Nonsocial2.png,stimuli/Nonsocial1.png,,"(-0.7, 0.5)",cs_minus_ns,,,,,0,0,0,0,,,,,0,4,4,12,,,,,,,,,,,,,,,,,,,,,,,,,2753.0516743001062,5,none,0,,,2758.0584064000286,,,,,,,,49,C,2024-01-12_12h45.41.397,gca_avoidance_task,2022.2.4,144.06585510694552,
positions.xlsx,stimuli.xlsx,stimuli/Social1.png,stimuli/Social2.png,stimuli/Nonsocial2.png,stimuli/Nonsocial1.png,,"(0.7, 0.5)",cs_minus_ns,,,,,0,0,0,0,,,,,0,5,5,14,,,,,,,,,,,,,,,,,,,,,,,,,2767.203870800091,5,none,0,,,2772.2106419000775,,,,,,,,49,C,2024-01-12_12h45.41.397,gca_avoidance_task,2022.2.4,144.06585510694552,
positions.xlsx,stimuli.xlsx,stimuli/Social1.png,stimuli/Social2.png,stimuli/Nonsocial2.png,stimuli/Nonsocial1.png,,"(0.7, -0.5)",cs_minus_ns,,,,,0,0,0,0,,,,,0,6,6,15,,,,,,,,,,,,,,,,,,,,,,,,,2781.120027200086,5,none,0,,,2786.1267694002017,,,,,,,,49,C,2024-01-12_12h45.41.397,gca_avoidance_task,2022.2.4,144.06585510694552,
positions.xlsx,stimuli.xlsx,stimuli/Social1.png,stimuli/Social2.png,stimuli/Nonsocial2.png,stimuli/Nonsocial1.png,,"(-0.7, 0.5)",cs_plus_s,,,,,0,0,0,0,,,,,0,7,7,0,,,,,,,,,,,,,,,,,,,,,,,,,2795.5499927001074,5,none,0,,,2800.5567472002003,,,,,,,,49,C,2024-01-12_12h45.41.397,gca_avoidance_task,2022.2.4,144.06585510694552,
positions.xlsx,stimuli.xlsx,stimuli/Social1.png,stimuli/Social2.png,stimuli/Nonsocial2.png,stimuli/Nonsocial1.png,,"(-0.7, 0.5)",cs_minus_s,,,,,0,0,0,0,,,,,0,8,8,4,,,,,,,,,,,,,,,,,,,,,,,,,2810.424365800107,5,none,0,,,2815.43115700013,,,,,,,,49,C,2024-01-12_12h45.41.397,gca_avoidance_task,2022.2.4,144.06585510694552,
positions.xlsx,stimuli.xlsx,stimuli/Social1.png,stimuli/Social2.png,stimuli/Nonsocial2.png,stimuli/Nonsocial1.png,,"(-0.7, -0.5)",cs_minus_s,,,,,0,0,0,0,,,,,0,9,9,5,,,,,,,,,,,,,,,,,,,,,,,,,2824.896014700178,5,none,0,,,2829.9027830001432,,,,,,,,49,C,2024-01-12_12h45.41.397,gca_avoidance_task,2022.2.4,144.06585510694552,
positions.xlsx,stimuli.xlsx,stimuli/Social1.png,stimuli/Social2.png,stimuli/Nonsocial2.png,stimuli/Nonsocial1.png,,"(0.7, -0.5)",cs_minus_s,,,,,0,0,0,0,,,,,0,10,10,7,,,,,,,,,,,,,,,,,,,,,,,,,2839.221848400077,5,none,0,,,2844.228644200135,,,,,,,,49,C,2024-01-12_12h45.41.397,gca_avoidance_task,2022.2.4,144.06585510694552,
positions.xlsx,stimuli.xlsx,stimuli/Social1.png,stimuli/Social2.png,stimuli/Nonsocial2.png,stimuli/Nonsocial1.png,,"(-0.7, 0.5)",cs_plus_ns,,,,,0,0,0,0,,,,,0,11,11,8,,,,,,,,,,,,,,,,,,,,,,,,,2853.575454500038,5,none,0,,,2858.5822454001755,,,,,,,,49,C,2024-01-12_12h45.41.397,gca_avoidance_task,2022.2.4,144.06585510694552,
positions.xlsx,stimuli.xlsx,stimuli/Social1.png,stimuli/Social2.png,stimuli/Nonsocial2.png,stimuli/Nonsocial1.png,,"(-0.7, -0.5)",cs_plus_ns,,,,,0,0,0,0,,,,,0,12,12,9,,,,,,,,,,,,,,,,,,,,,,,,,2867.8943141000345,5,shock,1,1.9583548000082374,1.9583592000417411,2869.859552500071,,,,,,,,49,C,2024-01-12_12h45.41.397,gca_avoidance_task,2022.2.4,144.06585510694552,
positions.xlsx,stimuli.xlsx,stimuli/Social1.png,stimuli/Social2.png,stimuli/Nonsocial2.png,stimuli/Nonsocial1.png,,"(0.7, 0.5)",cs_minus_s,,,,,0,0,0,0,,,,,0,13,13,6,,,,,,,,,,,,,,,,,,,,,,,,,2879.5396772001404,5,none,0,,,2884.5464236000553,,,,,,,,49,C,2024-01-12_12h45.41.397,gca_avoidance_task,2022.2.4,144.06585510694552,
positions.xlsx,stimuli.xlsx,stimuli/Social1.png,stimuli/Social2.png,stimuli/Nonsocial2.png,stimuli/Nonsocial1.png,,"(-0.7, -0.5)",cs_plus_s,,,,,0,0,0,0,,,,,0,14,14,1,,,,,,,,,,,,,,,,,,,,,,,,,2893.934944699984,5,none,0,,,2898.9416889999993,,,,,,,,49,C,2024-01-12_12h45.41.397,gca_avoidance_task,2022.2.4,144.06585510694552,
positions.xlsx,stimuli.xlsx,stimuli/Social1.png,stimuli/Social2.png,stimuli/Nonsocial2.png,stimuli/Nonsocial1.png,,"(0.7, -0.5)",cs_plus_s,,,,,0,0,0,0,,,,,0,15,15,3,,,,,,,,,,,,,,,,,,,,,,,,,2909.149617600022,5,none,0,,,2914.1563948001713,,,,,,,,49,C,2024-01-12_12h45.41.397,gca_avoidance_task,2022.2.4,144.06585510694552,
positions.xlsx,stimuli.xlsx,stimuli/Social1.png,stimuli/Social2.png,stimuli/Nonsocial2.png,stimuli/Nonsocial1.png,,"(0.7, -0.5)",cs_minus_ns,,,,,0,0,0,0,,,,,1,0,16,15,,,,,,,,,,,,,,,,,,,,,,,,,2923.593489000108,5,none,0,,,2928.600257900078,,,,,,,,49,C,2024-01-12_12h45.41.397,gca_avoidance_task,2022.2.4,144.06585510694552,
positions.xlsx,stimuli.xlsx,stimuli/Social1.png,stimuli/Social2.png,stimuli/Nonsocial2.png,stimuli/Nonsocial1.png,,"(-0.7, 0.5)",cs_plus_ns,,,,,0,0,0,0,,,,,1,1,17,8,,,,,,,,,,,,,,,,,,,,,,,,,2938.099855700042,5,none,0,,,2943.1066603001673,,,,,,,,49,C,2024-01-12_12h45.41.397,gca_avoidance_task,2022.2.4,144.06585510694552,
positions.xlsx,stimuli.xlsx,stimuli/Social1.png,stimuli/Social2.png,stimuli/Nonsocial2.png,stimuli/Nonsocial1.png,,"(-0.7, 0.5)",cs_minus_ns,,,,,0,0,0,0,,,,,1,2,18,12,,,,,,,,,,,,,,,,,,,,,,,,,2952.9743002001196,5,none,0,,,2957.9810154000297,,,,,,,,49,C,2024-01-12_12h45.41.397,gca_avoidance_task,2022.2.4,144.06585510694552,
positions.xlsx,stimuli.xlsx,stimuli/Social1.png,stimuli/Social2.png,stimuli/Nonsocial2.png,stimuli/Nonsocial1.png,,"(-0.7, -0.5)",cs_minus_s,,,,,0,0,0,0,,,,,1,3,19,5,,,,,,,,,,,,,,,,,,,,,,,,,2967.1125969002023,10,reward,1,1.5277859000489116,1.5277900001965463,2968.6473145000637,,,,,,,,49,C,2024-01-12_12h45.41.397,gca_avoidance_task,2022.2.4,144.06585510694552,
positions.xlsx,stimuli.xlsx,stimuli/Social1.png,stimuli/Social2.png,stimuli/Nonsocial2.png,stimuli/Nonsocial1.png,,"(0.7, 0.5)",cs_plus_s,,,,,0,0,0,0,,,,,1,4,20,2,,,,,,,,,,,,,,,,,,,,,,,,,2978.2094078999944,10,shock,1,0.21532069984823465,0.2153251999989152,2978.4316411002073,,,,,,,,49,C,2024-01-12_12h45.41.397,gca_avoidance_task,2022.2.4,144.06585510694552,
positions.xlsx,stimuli.xlsx,stimuli/Social1.png,stimuli/Social2.png,stimuli/Nonsocial2.png,stimuli/Nonsocial1.png,,"(-0.7, 0.5)",cs_plus_s,,,,,0,0,0,0,,,,,1,5,21,0,,,,,,,,,,,,,,,,,,,,,,,,,2988.0631540000904,10,none,0,,,2993.069931300124,,,,,,,,49,C,2024-01-12_12h45.41.397,gca_avoidance_task,2022.2.4,144.06585510694552,
positions.xlsx,stimuli.xlsx,stimuli/Social1.png,stimuli/Social2.png,stimuli/Nonsocial2.png,stimuli/Nonsocial1.png,,"(0.7, 0.5)",cs_minus_ns,,,,,0,0,0,0,,,,,1,6,22,14,,,,,,,,,,,,,,,,,,,,,,,,,3003.368111200165,15,reward,1,0.3059368000831455,0.30594120011664927,3003.680595500162,,,,,,,,49,C,2024-01-12_12h45.41.397,gca_avoidance_task,2022.2.4,144.06585510694552,
positions.xlsx,stimuli.xlsx,stimuli/Social1.png,stimuli/Social2.png,stimuli/Nonsocial2.png,stimuli/Nonsocial1.png,,"(0.7, 0.5)",cs_plus_ns,,,,,0,0,0,0,,,,,1,7,23,10,,,,,,,,,,,,,,,,,,,,,,,,,3012.645535200136,15,shock,1,0.5834861998446286,0.5834903998766094,3013.2357825001236,,,,,,,,49,C,2024-01-12_12h45.41.397,gca_avoidance_task,2022.2.4,144.06585510694552,
positions.xlsx,stimuli.xlsx,stimuli/Social1.png,stimuli/Social2.png,stimuli/Nonsocial2.png,stimuli/Nonsocial1.png,,"(-0.7, -0.5)",cs_plus_ns,,,,,0,0,0,0,,,,,1,8,24,9,,,,,,,,,,,,,,,,,,,,,,,,,3022.5965182001237,15,shock,1,0.22234439989551902,0.22234870004467666,3022.8256435000803,,,,,,,,49,C,2024-01-12_12h45.41.397,gca_avoidance_task,2022.2.4,144.06585510694552,
positions.xlsx,stimuli.xlsx,stimuli/Social1.png,stimuli/Social2.png,stimuli/Nonsocial2.png,stimuli/Nonsocial1.png,,"(0.7, 0.5)",cs_minus_s,,,,,0,0,0,0,,,,,1,9,25,6,,,,,,,,,,,,,,,,,,,,,,,,,3032.672496000072,20,reward,1,0.9583897998090833,0.9653352999594063,3033.644678700017,,,,,,,,49,C,2024-01-12_12h45.41.397,gca_avoidance_task,2022.2.4,144.06585510694552,
positions.xlsx,stimuli.xlsx,stimuli/Social1.png,stimuli/Social2.png,stimuli/Nonsocial2.png,stimuli/Nonsocial1.png,,"(0.7, -0.5)",cs_minus_s,,,,,0,0,0,0,,,,,1,10,26,7,,,,,,,,,,,,,,,,,,,,,,,,,3043.699833900202,25,reward,1,0.4931260999292135,0.5002230000682175,3044.2067698000465,,,,,,,,49,C,2024-01-12_12h45.41.397,gca_avoidance_task,2022.2.4,144.06585510694552,
positions.xlsx,stimuli.xlsx,stimuli/Social1.png,stimuli/Social2.png,stimuli/Nonsocial2.png,stimuli/Nonsocial1.png,,"(-0.7, -0.5)",cs_minus_ns,,,,,0,0,0,0,,,,,1,11,27,13,,,,,,,,,,,,,,,,,,,,,,,,,3054.248041599989,30,reward,1,0.9311379999853671,0.9311422000173479,3055.185525200097,,,,,,,,49,C,2024-01-12_12h45.41.397,gca_avoidance_task,2022.2.4,144.06585510694552,
positions.xlsx,stimuli.xlsx,stimuli/Social1.png,stimuli/Social2.png,stimuli/Nonsocial2.png,stimuli/Nonsocial1.png,,"(0.7, -0.5)",cs_plus_s,,,,,0,0,0,0,,,,,1,12,28,3,,,,,,,,,,,,,,,,,,,,,,,,,3064.699004900176,30,none,0,,,3069.7057592000347,,,,,,,,49,C,2024-01-12_12h45.41.397,gca_avoidance_task,2022.2.4,144.06585510694552,
positions.xlsx,stimuli.xlsx,stimuli/Social1.png,stimuli/Social2.png,stimuli/Nonsocial2.png,stimuli/Nonsocial1.png,,"(0.7, -0.5)",cs_plus_ns,,,,,0,0,0,0,,,,,1,13,29,11,,,,,,,,,,,,,,,,,,,,,,,,,3080.1150886001997,30,none,0,,,3085.1218564000446,,,,,,,,49,C,2024-01-12_12h45.41.397,gca_avoidance_task,2022.2.4,144.06585510694552,
positions.xlsx,stimuli.xlsx,stimuli/Social1.png,stimuli/Social2.png,stimuli/Nonsocial2.png,stimuli/Nonsocial1.png,,"(-0.7, -0.5)",cs_plus_s,,,,,0,0,0,0,,,,,1,14,30,1,,,,,,,,,,,,,,,,,,,,,,,,,3094.7603474000935,30,none,0,,,3099.767064000014,,,,,,,,49,C,2024-01-12_12h45.41.397,gca_avoidance_task,2022.2.4,144.06585510694552,
positions.xlsx,stimuli.xlsx,stimuli/Social1.png,stimuli/Social2.png,stimuli/Nonsocial2.png,stimuli/Nonsocial1.png,,"(-0.7, 0.5)",cs_minus_s,,,,,0,0,0,0,,,,,1,15,31,4,,,,,,,,,,,,,,,,,,,,,,,,,3109.106995600043,35,reward,1,0.5001246999017894,0.5001286999322474,3109.6139397001825,,,,,,,,49,C,2024-01-12_12h45.41.397,gca_avoidance_task,2022.2.4,144.06585510694552,
positions.xlsx,stimuli.xlsx,stimuli/Social1.png,stimuli/Social2.png,stimuli/Nonsocial2.png,stimuli/Nonsocial1.png,,"(-0.7, 0.5)",cs_minus_ns,,,,,0,0,0,0,,,,,,,,,0,0,0,12,,,,,,,,,,,,,,,,,,,,,3139.2933432001155,40,reward,1,0.7437421998474747,0.7437462999951094,3140.0432452000678,,,,,,,,49,C,2024-01-12_12h45.41.397,gca_avoidance_task,2022.2.4,144.06585510694552,
positions.xlsx,stimuli.xlsx,stimuli/Social1.png,stimuli/Social2.png,stimuli/Nonsocial2.png,stimuli/Nonsocial1.png,,"(-0.7, 0.5)",cs_plus_ns,,,,,0,0,0,0,,,,,,,,,0,1,1,8,,,,,,,,,,,,,,,,,,,,,3149.9942636999767,40,none,0,,,3155.0009987000376,,,,,,,,49,C,2024-01-12_12h45.41.397,gca_avoidance_task,2022.2.4,144.06585510694552,
positions.xlsx,stimuli.xlsx,stimuli/Social1.png,stimuli/Social2.png,stimuli/Nonsocial2.png,stimuli/Nonsocial1.png,,"(-0.7, -0.5)",cs_minus_s,,,,,0,0,0,0,,,,,,,,,0,2,2,5,,,,,,,,,,,,,,,,,,,,,3164.368697400205,45,reward,1,0.5141241999808699,0.5141284998971969,3164.889502100181,,,,,,,,49,C,2024-01-12_12h45.41.397,gca_avoidance_task,2022.2.4,144.06585510694552,
positions.xlsx,stimuli.xlsx,stimuli/Social1.png,stimuli/Social2.png,stimuli/Nonsocial2.png,stimuli/Nonsocial1.png,,"(0.7, 0.5)",cs_minus_ns,,,,,0,0,0,0,,,,,,,,,0,3,3,14,,,,,,,,,,,,,,,,,,,,,3174.3682896001264,50,reward,1,0.5901864999905229,0.5901905000209808,3174.965512700146,,,,,,,,49,C,2024-01-12_12h45.41.397,gca_avoidance_task,2022.2.4,144.06585510694552,
positions.xlsx,stimuli.xlsx,stimuli/Social1.png,stimuli/Social2.png,stimuli/Nonsocial2.png,stimuli/Nonsocial1.png,,"(0.7, -0.5)",cs_minus_ns,,,,,0,0,0,0,,,,,,,,,0,4,4,15,,,,,,,,,,,,,,,,,,,,,3184.3956568001304,55,reward,1,0.6255552000366151,0.625559699954465,3185.0276013000403,,,,,,,,49,C,2024-01-12_12h45.41.397,gca_avoidance_task,2022.2.4,144.06585510694552,
positions.xlsx,stimuli.xlsx,stimuli/Social1.png,stimuli/Social2.png,stimuli/Nonsocial2.png,stimuli/Nonsocial1.png,,"(-0.7, -0.5)",cs_plus_ns,,,,,0,0,0,0,,,,,,,,,0,5,5,9,,,,,,,,,,,,,,,,,,,,,3194.145270799985,55,none,0,,,3199.152075200109,,,,,,,,49,C,2024-01-12_12h45.41.397,gca_avoidance_task,2022.2.4,144.06585510694552,
positions.xlsx,stimuli.xlsx,stimuli/Social1.png,stimuli/Social2.png,stimuli/Nonsocial2.png,stimuli/Nonsocial1.png,,"(-0.7, 0.5)",cs_minus_s,,,,,0,0,0,0,,,,,,,,,0,6,6,4,,,,,,,,,,,,,,,,,,,,,3208.700289900182,60,reward,1,0.5000150001142174,0.5000194001477212,3209.207210100023,,,,,,,,49,C,2024-01-12_12h45.41.397,gca_avoidance_task,2022.2.4,144.06585510694552,
positions.xlsx,stimuli.xlsx,stimuli/Social1.png,stimuli/Social2.png,stimuli/Nonsocial2.png,stimuli/Nonsocial1.png,,"(0.7, 0.5)",cs_plus_ns,,,,,0,0,0,0,,,,,,,,,0,7,7,10,,,,,,,,,,,,,,,,,,,,,3219.0540220001712,60,shock,1,0.3958573001436889,0.395861400058493,3219.456796400016,,,,,,,,49,C,2024-01-12_12h45.41.397,gca_avoidance_task,2022.2.4,144.06585510694552,
positions.xlsx,stimuli.xlsx,stimuli/Social1.png,stimuli/Social2.png,stimuli/Nonsocial2.png,stimuli/Nonsocial1.png,,"(-0.7, 0.5)",cs_plus_s,,,,,0,0,0,0,,,,,,,,,0,8,8,0,,,,,,,,,,,,,,,,,,,,,3228.935573300114,60,none,0,,,3233.9423146999907,,,,,,,,49,C,2024-01-12_12h45.41.397,gca_avoidance_task,2022.2.4,144.06585510694552,
positions.xlsx,stimuli.xlsx,stimuli/Social1.png,stimuli/Social2.png,stimuli/Nonsocial2.png,stimuli/Nonsocial1.png,,"(0.7, -0.5)",cs_plus_ns,,,,,0,0,0,0,,,,,,,,,0,9,9,11,,,,,,,,,,,,,,,,,,,,,3244.122467700159,60,none,0,,,3249.1292212000117,,,,,,,,49,C,2024-01-12_12h45.41.397,gca_avoidance_task,2022.2.4,144.06585510694552,
positions.xlsx,stimuli.xlsx,stimuli/Social1.png,stimuli/Social2.png,stimuli/Nonsocial2.png,stimuli/Nonsocial1.png,,"(0.7, 0.5)",cs_plus_s,,,,,0,0,0,0,,,,,,,,,0,10,10,2,,,,,,,,,,,,,,,,,,,,,3258.6288637002,60,none,0,,,3263.6356377999764,,,,,,,,49,C,2024-01-12_12h45.41.397,gca_avoidance_task,2022.2.4,144.06585510694552,
positions.xlsx,stimuli.xlsx,stimuli/Social1.png,stimuli/Social2.png,stimuli/Nonsocial2.png,stimuli/Nonsocial1.png,,"(0.7, -0.5)",cs_plus_s,,,,,0,0,0,0,,,,,,,,,0,11,11,3,,,,,,,,,,,,,,,,,,,,,3272.9754900999833,60,none,0,,,3277.982262799982,,,,,,,,49,C,2024-01-12_12h45.41.397,gca_avoidance_task,2022.2.4,144.06585510694552,
positions.xlsx,stimuli.xlsx,stimuli/Social1.png,stimuli/Social2.png,stimuli/Nonsocial2.png,stimuli/Nonsocial1.png,,"(0.7, -0.5)",cs_minus_s,,,,,0,0,0,0,,,,,,,,,0,12,12,7,,,,,,,,,,,,,,,,,,,,,3287.488860400161,65,reward,1,0.5557285000104457,0.5557329000439495,3288.0513083999977,,,,,,,,49,C,2024-01-12_12h45.41.397,gca_avoidance_task,2022.2.4,144.06585510694552,
positions.xlsx,stimuli.xlsx,stimuli/Social1.png,stimuli/Social2.png,stimuli/Nonsocial2.png,stimuli/Nonsocial1.png,,"(0.7, 0.5)",cs_minus_s,,,,,0,0,0,0,,,,,,,,,0,13,13,6,,,,,,,,,,,,,,,,,,,,,3297.0301016999874,70,reward,1,0.7919058999978006,0.7919102001469582,3297.8287134000566,,,,,,,,49,C,2024-01-12_12h45.41.397,gca_avoidance_task,2022.2.4,144.06585510694552,
positions.xlsx,stimuli.xlsx,stimuli/Social1.png,stimuli/Social2.png,stimuli/Nonsocial2.png,stimuli/Nonsocial1.png,,"(-0.7, -0.5)",cs_minus_ns,,,,,0,0,0,0,,,,,,,,,0,14,14,13,,,,,,,,,,,,,,,,,,,,,3307.085274600191,75,reward,1,0.6460760999470949,0.6460802000947297,3307.7380325000267,,,,,,,,49,C,2024-01-12_12h45.41.397,gca_avoidance_task,2022.2.4,144.06585510694552,
positions.xlsx,stimuli.xlsx,stimuli/Social1.png,stimuli/Social2.png,stimuli/Nonsocial2.png,stimuli/Nonsocial1.png,,"(-0.7, -0.5)",cs_plus_s,,,,,0,0,0,0,,,,,,,,,0,15,15,1,,,,,,,,,,,,,,,,,,,,,3316.60575290001,75,none,0,,,3321.612448200118,,,,,,,,49,C,2024-01-12_12h45.41.397,gca_avoidance_task,2022.2.4,144.06585510694552,
positions.xlsx,stimuli.xlsx,stimuli/Social1.png,stimuli/Social2.png,stimuli/Nonsocial2.png,stimuli/Nonsocial1.png,,"(-0.7, 0.5)",cs_minus_s,,,,,0,0,0,0,,,,,,,,,1,0,16,4,,,,,,,,,,,,,,,,,,,,,3330.987082900014,80,reward,1,0.5764881998766214,0.5764923000242561,3331.5704256000463,,,,,,,,49,C,2024-01-12_12h45.41.397,gca_avoidance_task,2022.2.4,144.06585510694552,
positions.xlsx,stimuli.xlsx,stimuli/Social1.png,stimuli/Social2.png,stimuli/Nonsocial2.png,stimuli/Nonsocial1.png,,"(0.7, -0.5)",cs_plus_ns,,,,,0,0,0,0,,,,,,,,,1,1,17,11,,,,,,,,,,,,,,,,,,,,,3340.528377600014,80,none,0,,,3345.535151200136,,,,,,,,49,C,2024-01-12_12h45.41.397,gca_avoidance_task,2022.2.4,144.06585510694552,
positions.xlsx,stimuli.xlsx,stimuli/Social1.png,stimuli/Social2.png,stimuli/Nonsocial2.png,stimuli/Nonsocial1.png,,"(0.7, 0.5)",cs_plus_s,,,,,0,0,0,0,,,,,,,,,1,2,18,2,,,,,,,,,,,,,,,,,,,,,3355.5763844000176,80,shock,1,0.18740010005421937,0.18740410008467734,3355.7708640000783,,,,,,,,49,C,2024-01-12_12h45.41.397,gca_avoidance_task,2022.2.4,144.06585510694552,
positions.xlsx,stimuli.xlsx,stimuli/Social1.png,stimuli/Social2.png,stimuli/Nonsocial2.png,stimuli/Nonsocial1.png,,"(-0.7, -0.5)",cs_minus_ns,,,,,0,0,0,0,,,,,,,,,1,3,19,13,,,,,,,,,,,,,,,,,,,,,3365.6107450001873,85,reward,1,0.6602095998823643,0.660213999915868,3366.2774220001884,,,,,,,,49,C,2024-01-12_12h45.41.397,gca_avoidance_task,2022.2.4,144.06585510694552,
positions.xlsx,stimuli.xlsx,stimuli/Social1.png,stimuli/Social2.png,stimuli/Nonsocial2.png,stimuli/Nonsocial1.png,,"(-0.7, 0.5)",cs_plus_s,,,,,0,0,0,0,,,,,,,,,1,4,20,0,,,,,,,,,,,,,,,,,,,,,3375.2770270002075,85,none,0,,,3380.2837589001283,,,,,,,,49,C,2024-01-12_12h45.41.397,gca_avoidance_task,2022.2.4,144.06585510694552,
positions.xlsx,stimuli.xlsx,stimuli/Social1.png,stimuli/Social2.png,stimuli/Nonsocial2.png,stimuli/Nonsocial1.png,,"(-0.7, 0.5)",cs_plus_ns,,,,,0,0,0,0,,,,,,,,,1,5,21,8,,,,,,,,,,,,,,,,,,,,,3388.9639940999914,85,none,0,,,3393.970722200116,,,,,,,,49,C,2024-01-12_12h45.41.397,gca_avoidance_task,2022.2.4,144.06585510694552,
positions.xlsx,stimuli.xlsx,stimuli/Social1.png,stimuli/Social2.png,stimuli/Nonsocial2.png,stimuli/Nonsocial1.png,,"(0.7, 0.5)",cs_minus_s,,,,,0,0,0,0,,,,,,,,,1,6,22,6,,,,,,,,,,,,,,,,,,,,,3403.748119600117,90,reward,1,0.5835492999758571,0.5835534001234919,3404.338419900043,,,,,,,,49,C,2024-01-12_12h45.41.397,gca_avoidance_task,2022.2.4,144.06585510694552,
positions.xlsx,stimuli.xlsx,stimuli/Social1.png,stimuli/Social2.png,stimuli/Nonsocial2.png,stimuli/Nonsocial1.png,,"(-0.7, -0.5)",cs_plus_s,,,,,0,0,0,0,,,,,,,,,1,7,23,1,,,,,,,,,,,,,,,,,,,,,3413.9490933001507,90,shock,1,0.17413820000365376,0.18106980016455054,3414.1365588000044,,,,,,,,49,C,2024-01-12_12h45.41.397,gca_avoidance_task,2022.2.4,144.06585510694552,
positions.xlsx,stimuli.xlsx,stimuli/Social1.png,stimuli/Social2.png,stimuli/Nonsocial2.png,stimuli/Nonsocial1.png,,"(0.7, -0.5)",cs_minus_ns,,,,,0,0,0,0,,,,,,,,,1,8,24,15,,,,,,,,,,,,,,,,,,,,,3423.9001857000403,95,reward,1,0.680379900150001,0.6803841001819819,3424.5875992001966,,,,,,,,49,C,2024-01-12_12h45.41.397,gca_avoidance_task,2022.2.4,144.06585510694552,
positions.xlsx,stimuli.xlsx,stimuli/Social1.png,stimuli/Social2.png,stimuli/Nonsocial2.png,stimuli/Nonsocial1.png,,"(0.7, 0.5)",cs_minus_ns,,,,,0,0,0,0,,,,,,,,,1,9,25,14,,,,,,,,,,,,,,,,,,,,,3433.851122000022,100,reward,1,0.6256721999961883,0.6256765001453459,3434.483025800204,,,,,,,,49,C,2024-01-12_12h45.41.397,gca_avoidance_task,2022.2.4,144.06585510694552,
positions.xlsx,stimuli.xlsx,stimuli/Social1.png,stimuli/Social2.png,stimuli/Nonsocial2.png,stimuli/Nonsocial1.png,,"(-0.7, -0.5)",cs_plus_ns,,,,,0,0,0,0,,,,,,,,,1,10,26,9,,,,,,,,,,,,,,,,,,,,,3444.5728939000983,100,none,0,,,3449.586547400104,,,,,,,,49,C,2024-01-12_12h45.41.397,gca_avoidance_task,2022.2.4,144.06585510694552,
positions.xlsx,stimuli.xlsx,stimuli/Social1.png,stimuli/Social2.png,stimuli/Nonsocial2.png,stimuli/Nonsocial1.png,,"(0.7, -0.5)",cs_minus_s,,,,,0,0,0,0,,,,,,,,,1,11,27,7,,,,,,,,,,,,,,,,,,,,,3459.5237304000184,105,reward,1,0.5974721999373287,0.5974762998521328,3460.127846100135,,,,,,,,49,C,2024-01-12_12h45.41.397,gca_avoidance_task,2022.2.4,144.06585510694552,
positions.xlsx,stimuli.xlsx,stimuli/Social1.png,stimuli/Social2.png,stimuli/Nonsocial2.png,stimuli/Nonsocial1.png,,"(0.7, 0.5)",cs_plus_ns,,,,,0,0,0,0,,,,,,,,,1,12,28,10,,,,,,,,,,,,,,,,,,,,,3469.3288559999783,105,none,0,,,3474.3356210000347,,,,,,,,49,C,2024-01-12_12h45.41.397,gca_avoidance_task,2022.2.4,144.06585510694552,
positions.xlsx,stimuli.xlsx,stimuli/Social1.png,stimuli/Social2.png,stimuli/Nonsocial2.png,stimuli/Nonsocial1.png,,"(0.7, -0.5)",cs_plus_s,,,,,0,0,0,0,,,,,,,,,1,13,29,3,,,,,,,,,,,,,,,,,,,,,3483.7727286000736,105,none,0,,,3488.7795006001834,,,,,,,,49,C,2024-01-12_12h45.41.397,gca_avoidance_task,2022.2.4,144.06585510694552,
positions.xlsx,stimuli.xlsx,stimuli/Social1.png,stimuli/Social2.png,stimuli/Nonsocial2.png,stimuli/Nonsocial1.png,,"(-0.7, 0.5)",cs_minus_ns,,,,,0,0,0,0,,,,,,,,,1,14,30,12,,,,,,,,,,,,,,,,,,,,,3498.1749290002044,110,reward,1,0.687681799987331,0.6876861001364887,3498.86936160014,,,,,,,,49,C,2024-01-12_12h45.41.397,gca_avoidance_task,2022.2.4,144.06585510694552,
positions.xlsx,stimuli.xlsx,stimuli/Social1.png,stimuli/Social2.png,stimuli/Nonsocial2.png,stimuli/Nonsocial1.png,,"(-0.7, -0.5)",cs_minus_s,,,,,0,0,0,0,,,,,,,,,1,15,31,5,,,,,,,,,,,,,,,,,,,,,3508.3273893001024,115,reward,1,0.22940670000389218,0.23634920013137162,3508.570383500075,,,,,,,,49,C,2024-01-12_12h45.41.397,gca_avoidance_task,2022.2.4,144.06585510694552,
positions.xlsx,stimuli.xlsx,stimuli/Social1.png,stimuli/Social2.png,stimuli/Nonsocial2.png,stimuli/Nonsocial1.png,,"(0.7, -0.5)",cs_plus_s,,,,,0,0,0,0,,,,,,,,,2,0,32,3,,,,,,,,,,,,,,,,,,,,,3517.5630765000824,115,none,0,,,3522.5698508000933,,,,,,,,49,C,2024-01-12_12h45.41.397,gca_avoidance_task,2022.2.4,144.06585510694552,
positions.xlsx,stimuli.xlsx,stimuli/Social1.png,stimuli/Social2.png,stimuli/Nonsocial2.png,stimuli/Nonsocial1.png,,"(0.7, 0.5)",cs_minus_ns,,,,,0,0,0,0,,,,,,,,,2,1,33,14,,,,,,,,,,,,,,,,,,,,,3531.4375273000915,120,reward,1,0.6331919999793172,0.6393917000386864,3532.0833401000127,,,,,,,,49,C,2024-01-12_12h45.41.397,gca_avoidance_task,2022.2.4,144.06585510694552,
positions.xlsx,stimuli.xlsx,stimuli/Social1.png,stimuli/Social2.png,stimuli/Nonsocial2.png,stimuli/Nonsocial1.png,,"(0.7, -0.5)",cs_minus_ns,,,,,0,0,0,0,,,,,,,,,2,2,34,15,,,,,,,,,,,,,,,,,,,,,3541.937123300042,125,reward,1,0.5906211000401527,0.5906257000751793,3542.534321299987,,,,,,,,49,C,2024-01-12_12h45.41.397,gca_avoidance_task,2022.2.4,144.06585510694552,
positions.xlsx,stimuli.xlsx,stimuli/Social1.png,stimuli/Social2.png,stimuli/Nonsocial2.png,stimuli/Nonsocial1.png,,"(-0.7, -0.5)",cs_plus_ns,,,,,0,0,0,0,,,,,,,,,2,3,35,9,,,,,,,,,,,,,,,,,,,,,3551.554806700209,125,none,0,,,3556.568505699979,,,,,,,,49,C,2024-01-12_12h45.41.397,gca_avoidance_task,2022.2.4,144.06585510694552,
positions.xlsx,stimuli.xlsx,stimuli/Social1.png,stimuli/Social2.png,stimuli/Nonsocial2.png,stimuli/Nonsocial1.png,,"(-0.7, 0.5)",cs_minus_s,,,,,0,0,0,0,,,,,,,,,2,4,36,4,,,,,,,,,,,,,,,,,,,,,3566.3875332002062,130,reward,1,0.5417969000991434,0.5486055000219494,3566.9431112001184,,,,,,,,49,C,2024-01-12_12h45.41.397,gca_avoidance_task,2022.2.4,144.06585510694552,
positions.xlsx,stimuli.xlsx,stimuli/Social1.png,stimuli/Social2.png,stimuli/Nonsocial2.png,stimuli/Nonsocial1.png,,"(-0.7, -0.5)",cs_plus_s,,,,,0,0,0,0,,,,,,,,,2,5,37,1,,,,,,,,,,,,,,,,,,,,,3576.4565714001656,130,none,0,,,3581.4702731000725,,,,,,,,49,C,2024-01-12_12h45.41.397,gca_avoidance_task,2022.2.4,144.06585510694552,
positions.xlsx,stimuli.xlsx,stimuli/Social1.png,stimuli/Social2.png,stimuli/Nonsocial2.png,stimuli/Nonsocial1.png,,"(-0.7, 0.5)",cs_minus_ns,,,,,0,0,0,0,,,,,,,,,2,6,38,12,,,,,,,,,,,,,,,,,,,,,3590.9768374999985,135,reward,1,0.6877005000133067,0.6877045999281108,3591.6712691001594,,,,,,,,49,C,2024-01-12_12h45.41.397,gca_avoidance_task,2022.2.4,144.06585510694552,
positions.xlsx,stimuli.xlsx,stimuli/Social1.png,stimuli/Social2.png,stimuli/Nonsocial2.png,stimuli/Nonsocial1.png,,"(0.7, 0.5)",cs_plus_s,,,,,0,0,0,0,,,,,,,,,2,7,39,2,,,,,,,,,,,,,,,,,,,,,3601.156995100202,135,none,0,,,3606.163753000088,,,,,,,,49,C,2024-01-12_12h45.41.397,gca_avoidance_task,2022.2.4,144.06585510694552,
positions.xlsx,stimuli.xlsx,stimuli/Social1.png,stimuli/Social2.png,stimuli/Nonsocial2.png,stimuli/Nonsocial1.png,,"(-0.7, -0.5)",cs_minus_ns,,,,,0,0,0,0,,,,,,,,,2,8,40,13,,,,,,,,,,,,,,,,,,,,,3615.3717446001247,140,reward,1,0.6738275000825524,0.673844400094822,3616.052220700076,,,,,,,,49,C,2024-01-12_12h45.41.397,gca_avoidance_task,2022.2.4,144.06585510694552,
positions.xlsx,stimuli.xlsx,stimuli/Social1.png,stimuli/Social2.png,stimuli/Nonsocial2.png,stimuli/Nonsocial1.png,,"(0.7, -0.5)",cs_plus_ns,,,,,0,0,0,0,,,,,,,,,2,9,41,11,,,,,,,,,,,,,,,,,,,,,3625.926825000206,140,none,0,,,3630.940554100089,,,,,,,,49,C,2024-01-12_12h45.41.397,gca_avoidance_task,2022.2.4,144.06585510694552,
positions.xlsx,stimuli.xlsx,stimuli/Social1.png,stimuli/Social2.png,stimuli/Nonsocial2.png,stimuli/Nonsocial1.png,,"(0.7, 0.5)",cs_minus_s,,,,,0,0,0,0,,,,,,,,,2,10,42,6,,,,,,,,,,,,,,,,,,,,,3639.8221497000195,145,reward,1,0.7572741999756545,0.7572784000076354,3640.5859729000367,,,,,,,,49,C,2024-01-12_12h45.41.397,gca_avoidance_task,2022.2.4,144.06585510694552,
positions.xlsx,stimuli.xlsx,stimuli/Social1.png,stimuli/Social2.png,stimuli/Nonsocial2.png,stimuli/Nonsocial1.png,,"(-0.7, 0.5)",cs_plus_ns,,,,,0,0,0,0,,,,,,,,,2,11,43,8,,,,,,,,,,,,,,,,,,,,,3649.9328548000194,145,none,0,,,3654.9396135001443,,,,,,,,49,C,2024-01-12_12h45.41.397,gca_avoidance_task,2022.2.4,144.06585510694552,
positions.xlsx,stimuli.xlsx,stimuli/Social1.png,stimuli/Social2.png,stimuli/Nonsocial2.png,stimuli/Nonsocial1.png,,"(-0.7, -0.5)",cs_minus_s,,,,,0,0,0,0,,,,,,,,,2,12,44,5,,,,,,,,,,,,,,,,,,,,,3664.876718300162,150,reward,1,0.23672769987024367,0.23673209990374744,3665.1197721001226,,,,,,,,49,C,2024-01-12_12h45.41.397,gca_avoidance_task,2022.2.4,144.06585510694552,
positions.xlsx,stimuli.xlsx,stimuli/Social1.png,stimuli/Social2.png,stimuli/Nonsocial2.png,stimuli/Nonsocial1.png,,"(-0.7, 0.5)",cs_plus_s,,,,,0,0,0,0,,,,,,,,,2,13,45,0,,,,,,,,,,,,,,,,,,,,,3675.077701700153,150,none,0,,,3680.0844400001224,,,,,,,,49,C,2024-01-12_12h45.41.397,gca_avoidance_task,2022.2.4,144.06585510694552,
positions.xlsx,stimuli.xlsx,stimuli/Social1.png,stimuli/Social2.png,stimuli/Nonsocial2.png,stimuli/Nonsocial1.png,,"(0.7, -0.5)",cs_minus_s,,,,,0,0,0,0,,,,,,,,,2,14,46,7,,,,,,,,,,,,,,,,,,,,,3690.0215485000517,155,reward,1,0.3473926999140531,0.34739749995060265,3690.375665000174,,,,,,,,49,C,2024-01-12_12h45.41.397,gca_avoidance_task,2022.2.4,144.06585510694552,
positions.xlsx,stimuli.xlsx,stimuli/Social1.png,stimuli/Social2.png,stimuli/Nonsocial2.png,stimuli/Nonsocial1.png,,"(0.7, 0.5)",cs_plus_ns,,,,,0,0,0,0,,,,,,,,,2,15,47,10,,,,,,,,,,,,,,,,,,,,,3700.0280983999837,155,none,0,,,3705.0348459000234,,,,,,,,49,C,2024-01-12_12h45.41.397,gca_avoidance_task,2022.2.4,144.06585510694552,
positions.xlsx,stimuli.xlsx,stimuli/Social1.png,stimuli/Social2.png,stimuli/Nonsocial2.png,stimuli/Nonsocial1.png,,"(0.7, -0.5)",cs_minus_s,,,,,0,0,0,0,,,,,,,,,3,0,48,7,,,,,,,,,,,,,,,,,,,,,3714.652518100105,160,reward,1,0.5767570999450982,0.576761799864471,3715.235863100039,,,,,,,,49,C,2024-01-12_12h45.41.397,gca_avoidance_task,2022.2.4,144.06585510694552,
positions.xlsx,stimuli.xlsx,stimuli/Social1.png,stimuli/Social2.png,stimuli/Nonsocial2.png,stimuli/Nonsocial1.png,,"(-0.7, -0.5)",cs_minus_ns,,,,,0,0,0,0,,,,,,,,,3,1,49,13,,,,,,,,,,,,,,,,,,,,,3724.749345800141,165,reward,1,0.7153613001573831,0.7153652999550104,3725.4715399001725,,,,,,,,49,C,2024-01-12_12h45.41.397,gca_avoidance_task,2022.2.4,144.06585510694552,
positions.xlsx,stimuli.xlsx,stimuli/Social1.png,stimuli/Social2.png,stimuli/Nonsocial2.png,stimuli/Nonsocial1.png,,"(0.7, -0.5)",cs_plus_ns,,,,,0,0,0,0,,,,,,,,,3,2,50,11,,,,,,,,,,,,,,,,,,,,,3735.15864420007,165,none,0,,,3740.165408000117,,,,,,,,49,C,2024-01-12_12h45.41.397,gca_avoidance_task,2022.2.4,144.06585510694552,
positions.xlsx,stimuli.xlsx,stimuli/Social1.png,stimuli/Social2.png,stimuli/Nonsocial2.png,stimuli/Nonsocial1.png,,"(0.7, -0.5)",cs_minus_ns,,,,,0,0,0,0,,,,,,,,,3,3,51,15,,,,,,,,,,,,,,,,,,,,,3749.310883300146,170,reward,1,0.6250499999150634,0.6250541000626981,3749.9427730001044,,,,,,,,49,C,2024-01-12_12h45.41.397,gca_avoidance_task,2022.2.4,144.06585510694552,
positions.xlsx,stimuli.xlsx,stimuli/Social1.png,stimuli/Social2.png,stimuli/Nonsocial2.png,stimuli/Nonsocial1.png,,"(0.7, 0.5)",cs_minus_s,,,,,0,0,0,0,,,,,,,,,3,4,52,6,,,,,,,,,,,,,,,,,,,,,3759.1646612000186,175,reward,1,0.45140479994006455,0.45140889985486865,3759.623017300153,,,,,,,,49,C,2024-01-12_12h45.41.397,gca_avoidance_task,2022.2.4,144.06585510694552,
positions.xlsx,stimuli.xlsx,stimuli/Social1.png,stimuli/Social2.png,stimuli/Nonsocial2.png,stimuli/Nonsocial1.png,,"(-0.7, 0.5)",cs_minus_ns,,,,,0,0,0,0,,,,,,,,,3,5,53,12,,,,,,,,,,,,,,,,,,,,,3769.455917300191,180,reward,1,0.5628317999653518,0.5697815997991711,3770.0322674000636,,,,,,,,49,C,2024-01-12_12h45.41.397,gca_avoidance_task,2022.2.4,144.06585510694552,
positions.xlsx,stimuli.xlsx,stimuli/Social1.png,stimuli/Social2.png,stimuli/Nonsocial2.png,stimuli/Nonsocial1.png,,"(-0.7, 0.5)",cs_plus_ns,,,,,0,0,0,0,,,,,,,,,3,6,54,8,,,,,,,,,,,,,,,,,,,,,3779.1430161001626,180,none,0,,,3784.1497814999893,,,,,,,,49,C,2024-01-12_12h45.41.397,gca_avoidance_task,2022.2.4,144.06585510694552,
positions.xlsx,stimuli.xlsx,stimuli/Social1.png,stimuli/Social2.png,stimuli/Nonsocial2.png,stimuli/Nonsocial1.png,,"(-0.7, -0.5)",cs_plus_s,,,,,0,0,0,0,,,,,,,,,3,7,55,1,,,,,,,,,,,,,,,,,,,,,3793.1702597001567,180,none,0,,,3798.1769886000548,,,,,,,,49,C,2024-01-12_12h45.41.397,gca_avoidance_task,2022.2.4,144.06585510694552,
positions.xlsx,stimuli.xlsx,stimuli/Social1.png,stimuli/Social2.png,stimuli/Nonsocial2.png,stimuli/Nonsocial1.png,,"(0.7, 0.5)",cs_minus_ns,,,,,0,0,0,0,,,,,,,,,3,8,56,14,,,,,,,,,,,,,,,,,,,,,3808.2738351000007,185,reward,1,0.5280079999938607,0.5280122999101877,3808.8085239999928,,,,,,,,49,C,2024-01-12_12h45.41.397,gca_avoidance_task,2022.2.4,144.06585510694552,
positions.xlsx,stimuli.xlsx,stimuli/Social1.png,stimuli/Social2.png,stimuli/Nonsocial2.png,stimuli/Nonsocial1.png,,"(0.7, 0.5)",cs_plus_s,,,,,0,0,0,0,,,,,,,,,3,9,57,2,,,,,,,,,,,,,,,,,,,,,3819.190043800045,185,shock,1,0.264099600026384,0.26410350017249584,3819.460870000068,,,,,,,,49,C,2024-01-12_12h45.41.397,gca_avoidance_task,2022.2.4,144.06585510694552,
positions.xlsx,stimuli.xlsx,stimuli/Social1.png,stimuli/Social2.png,stimuli/Nonsocial2.png,stimuli/Nonsocial1.png,,"(0.7, 0.5)",cs_plus_ns,,,,,0,0,0,0,,,,,,,,,3,10,58,10,,,,,,,,,,,,,,,,,,,,,3829.703517000191,185,none,0,,,3834.710218900116,,,,,,,,49,C,2024-01-12_12h45.41.397,gca_avoidance_task,2022.2.4,144.06585510694552,
positions.xlsx,stimuli.xlsx,stimuli/Social1.png,stimuli/Social2.png,stimuli/Nonsocial2.png,stimuli/Nonsocial1.png,,"(-0.7, 0.5)",cs_minus_s,,,,,0,0,0,0,,,,,,,,,3,11,59,4,,,,,,,,,,,,,,,,,,,,,3844.3626558000688,190,reward,1,0.7848606000188738,0.7848648000508547,3845.154316100059,,,,,,,,49,C,2024-01-12_12h45.41.397,gca_avoidance_task,2022.2.4,144.06585510694552,
positions.xlsx,stimuli.xlsx,stimuli/Social1.png,stimuli/Social2.png,stimuli/Nonsocial2.png,stimuli/Nonsocial1.png,,"(-0.7, 0.5)",cs_plus_s,,,,,0,0,0,0,,,,,,,,,3,12,60,0,,,,,,,,,,,,,,,,,,,,,3854.5289245999884,190,none,0,,,3859.535650399979,,,,,,,,49,C,2024-01-12_12h45.41.397,gca_avoidance_task,2022.2.4,144.06585510694552,
positions.xlsx,stimuli.xlsx,stimuli/Social1.png,stimuli/Social2.png,stimuli/Nonsocial2.png,stimuli/Nonsocial1.png,,"(0.7, -0.5)",cs_plus_s,,,,,0,0,0,0,,,,,,,,,3,13,61,3,,,,,,,,,,,,,,,,,,,,,3868.618653600104,190,none,0,,,3873.625456900103,,,,,,,,49,C,2024-01-12_12h45.41.397,gca_avoidance_task,2022.2.4,144.06585510694552,
positions.xlsx,stimuli.xlsx,stimuli/Social1.png,stimuli/Social2.png,stimuli/Nonsocial2.png,stimuli/Nonsocial1.png,,"(-0.7, -0.5)",cs_minus_s,,,,,0,0,0,0,,,,,,,,,3,14,62,5,,,,,,,,,,,,,,,,,,,,,3883.0069895000197,195,reward,1,0.625022399937734,0.6250267999712378,3883.6389007000253,,,,,,,,49,C,2024-01-12_12h45.41.397,gca_avoidance_task,2022.2.4,144.06585510694552,
positions.xlsx,stimuli.xlsx,stimuli/Social1.png,stimuli/Social2.png,stimuli/Nonsocial2.png,stimuli/Nonsocial1.png,,"(-0.7, -0.5)",cs_plus_ns,,,,,0,0,0,0,,,,,,,,,3,15,63,9,,,,,,,,,,,,,,,,,,,,,3893.5065623000264,195,none,0,,,3898.51332080015,,,,,,,,49,C,2024-01-12_12h45.41.397,gca_avoidance_task,2022.2.4,144.06585510694552,
positions.xlsx,stimuli.xlsx,stimuli/Social1.png,stimuli/Social2.png,stimuli/Nonsocial2.png,stimuli/Nonsocial1.png,,"(-0.7, -0.5)",cs_plus_s,,,,,0,0,0,0,,,,,,,,,4,0,64,1,,,,,,,,,,,,,,,,,,,,,3907.2421462000348,195,none,0,,,3912.2488796000835,,,,,,,,49,C,2024-01-12_12h45.41.397,gca_avoidance_task,2022.2.4,144.06585510694552,
positions.xlsx,stimuli.xlsx,stimuli/Social1.png,stimuli/Social2.png,stimuli/Nonsocial2.png,stimuli/Nonsocial1.png,,"(0.7, -0.5)",cs_plus_s,,,,,0,0,0,0,,,,,,,,,4,1,65,3,,,,,,,,,,,,,,,,,,,,,3921.81101220008,195,none,0,,,3926.8177970000543,,,,,,,,49,C,2024-01-12_12h45.41.397,gca_avoidance_task,2022.2.4,144.06585510694552,
positions.xlsx,stimuli.xlsx,stimuli/Social1.png,stimuli/Social2.png,stimuli/Nonsocial2.png,stimuli/Nonsocial1.png,,"(-0.7, 0.5)",cs_plus_ns,,,,,0,0,0,0,,,,,,,,,4,2,66,8,,,,,,,,,,,,,,,,,,,,,3936.240981800016,195,none,0,,,3941.247759900056,,,,,,,,49,C,2024-01-12_12h45.41.397,gca_avoidance_task,2022.2.4,144.06585510694552,
positions.xlsx,stimuli.xlsx,stimuli/Social1.png,stimuli/Social2.png,stimuli/Nonsocial2.png,stimuli/Nonsocial1.png,,"(0.7, 0.5)",cs_plus_ns,,,,,0,0,0,0,,,,,,,,,4,3,67,10,,,,,,,,,,,,,,,,,,,,,3950.8237474001944,195,shock,1,0.2917671001050621,0.2917715001385659,3951.1223567000125,,,,,,,,49,C,2024-01-12_12h45.41.397,gca_avoidance_task,2022.2.4,144.06585510694552,
positions.xlsx,stimuli.xlsx,stimuli/Social1.png,stimuli/Social2.png,stimuli/Nonsocial2.png,stimuli/Nonsocial1.png,,"(-0.7, -0.5)",cs_plus_ns,,,,,0,0,0,0,,,,,,,,,4,4,68,9,,,,,,,,,,,,,,,,,,,,,3960.573355300119,195,none,0,,,3965.580172999995,,,,,,,,49,C,2024-01-12_12h45.41.397,gca_avoidance_task,2022.2.4,144.06585510694552,
positions.xlsx,stimuli.xlsx,stimuli/Social1.png,stimuli/Social2.png,stimuli/Nonsocial2.png,stimuli/Nonsocial1.png,,"(0.7, -0.5)",cs_minus_s,,,,,0,0,0,0,,,,,,,,,4,5,69,7,,,,,,,,,,,,,,,,,,,,,3975.0797314001247,200,reward,1,0.6598050999455154,0.6598093998618424,3975.7464106001426,,,,,,,,49,C,2024-01-12_12h45.41.397,gca_avoidance_task,2022.2.4,144.06585510694552,
positions.xlsx,stimuli.xlsx,stimuli/Social1.png,stimuli/Social2.png,stimuli/Nonsocial2.png,stimuli/Nonsocial1.png,,"(0.7, 0.5)",cs_plus_s,,,,,0,0,0,0,,,,,,,,,4,6,70,2,,,,,,,,,,,,,,,,,,,,,3984.8988201001193,200,none,0,,,3989.9055564000737,,,,,,,,49,C,2024-01-12_12h45.41.397,gca_avoidance_task,2022.2.4,144.06585510694552,
positions.xlsx,stimuli.xlsx,stimuli/Social1.png,stimuli/Social2.png,stimuli/Nonsocial2.png,stimuli/Nonsocial1.png,,"(-0.7, 0.5)",cs_minus_s,,,,,0,0,0,0,,,,,,,,,4,7,71,4,,,,,,,,,,,,,,,,,,,,,3999.564878700068,205,reward,1,0.6108648998197168,0.6108692998532206,4000.1828823999967,,,,,,,,49,C,2024-01-12_12h45.41.397,gca_avoidance_task,2022.2.4,144.06585510694552,
positions.xlsx,stimuli.xlsx,stimuli/Social1.png,stimuli/Social2.png,stimuli/Nonsocial2.png,stimuli/Nonsocial1.png,,"(-0.7, -0.5)",cs_minus_s,,,,,0,0,0,0,,,,,,,,,4,8,72,5,,,,,,,,,,,,,,,,,,,,,4009.8075916001108,210,reward,0,,,4009.967277100077,,,,,,,,49,C,2024-01-12_12h45.41.397,gca_avoidance_task,2022.2.4,144.06585510694552,
positions.xlsx,stimuli.xlsx,stimuli/Social1.png,stimuli/Social2.png,stimuli/Nonsocial2.png,stimuli/Nonsocial1.png,,"(0.7, -0.5)",cs_minus_ns,,,,,0,0,0,0,,,,,,,,,4,9,73,15,,,,,,,,,,,,,,,,,,,,,4019.314095500158,215,reward,1,0.6459993999451399,0.6460037000942975,4019.9668400001246,,,,,,,,49,C,2024-01-12_12h45.41.397,gca_avoidance_task,2022.2.4,144.06585510694552,
positions.xlsx,stimuli.xlsx,stimuli/Social1.png,stimuli/Social2.png,stimuli/Nonsocial2.png,stimuli/Nonsocial1.png,,"(0.7, -0.5)",cs_plus_ns,,,,,0,0,0,0,,,,,,,,,4,10,74,11,,,,,,,,,,,,,,,,,,,,,4029.5914919001516,215,none,0,,,4034.605186100118,,,,,,,,49,C,2024-01-12_12h45.41.397,gca_avoidance_task,2022.2.4,144.06585510694552,
positions.xlsx,stimuli.xlsx,stimuli/Social1.png,stimuli/Social2.png,stimuli/Nonsocial2.png,stimuli/Nonsocial1.png,,"(0.7, 0.5)",cs_minus_s,,,,,0,0,0,0,,,,,,,,,4,11,75,6,,,,,,,,,,,,,,,,,,,,,4044.5561656001955,220,reward,1,0.48610829981043935,0.4861123999580741,4045.0492214001715,,,,,,,,49,C,2024-01-12_12h45.41.397,gca_avoidance_task,2022.2.4,144.06585510694552,
positions.xlsx,stimuli.xlsx,stimuli/Social1.png,stimuli/Social2.png,stimuli/Nonsocial2.png,stimuli/Nonsocial1.png,,"(-0.7, 0.5)",cs_plus_s,,,,,0,0,0,0,,,,,,,,,4,12,76,0,,,,,,,,,,,,,,,,,,,,,4054.409972100053,220,none,0,,,4059.416689099977,,,,,,,,49,C,2024-01-12_12h45.41.397,gca_avoidance_task,2022.2.4,144.06585510694552,
positions.xlsx,stimuli.xlsx,stimuli/Social1.png,stimuli/Social2.png,stimuli/Nonsocial2.png,stimuli/Nonsocial1.png,,"(0.7, 0.5)",cs_minus_ns,,,,,0,0,0,0,,,,,,,,,4,13,77,14,,,,,,,,,,,,,,,,,,,,,4069.6454837999772,225,reward,1,0.5486145000904799,0.548618600005284,4070.2009810002055,,,,,,,,49,C,2024-01-12_12h45.41.397,gca_avoidance_task,2022.2.4,144.06585510694552,
positions.xlsx,stimuli.xlsx,stimuli/Social1.png,stimuli/Social2.png,stimuli/Nonsocial2.png,stimuli/Nonsocial1.png,,"(-0.7, -0.5)",cs_minus_ns,,,,,0,0,0,0,,,,,,,,,4,14,78,13,,,,,,,,,,,,,,,,,,,,,4079.9367231000215,230,reward,1,0.6249474999494851,0.6249520999845117,4080.5686696001794,,,,,,,,49,C,2024-01-12_12h45.41.397,gca_avoidance_task,2022.2.4,144.06585510694552,
positions.xlsx,stimuli.xlsx,stimuli/Social1.png,stimuli/Social2.png,stimuli/Nonsocial2.png,stimuli/Nonsocial1.png,,"(-0.7, 0.5)",cs_minus_ns,,,,,0,0,0,0,,,,,,,,,4,15,79,12,,,,,,,,,,,,,,,,,,,,,4090.4987877001986,235,reward,1,0.5073736000340432,0.5073778999503702,4091.012680800166,,,,,,,,49,C,2024-01-12_12h45.41.397,gca_avoidance_task,2022.2.4,144.06585510694552,
positions.xlsx,stimuli.xlsx,stimuli/Social1.png,stimuli/Social2.png,stimuli/Nonsocial2.png,stimuli/Nonsocial1.png,cs_plus_ns,,,,,,,0,0,0,0,,,,,,,,,,,,,0,0,0,1,,,,,,,,,,,,,4112.852107200073,3.0,6.709887700155377,,,,,,,,,5.0,7.4310439000837505,,,,,,49,C,2024-01-12_12h45.41.397,gca_avoidance_task,2022.2.4,144.06585510694552,
positions.xlsx,stimuli.xlsx,stimuli/Social1.png,stimuli/Social2.png,stimuli/Nonsocial2.png,stimuli/Nonsocial1.png,cs_minus_ns,,,,,,,0,0,0,0,,,,,,,,,,,,,0,1,1,3,,,,,,,,,,,,,4121.115647000028,8.0,2.7359297000803053,,,,,,,,,,,,,,,,49,C,2024-01-12_12h45.41.397,gca_avoidance_task,2022.2.4,144.06585510694552,
positions.xlsx,stimuli.xlsx,stimuli/Social1.png,stimuli/Social2.png,stimuli/Nonsocial2.png,stimuli/Nonsocial1.png,cs_minus_s,,,,,,,0,0,0,0,,,,,,,,,,,,,0,2,2,2,,,,,,,,,,,,,4124.90717570018,9.0,2.104166300036013,,,,,,,,,,,,,,,,49,C,2024-01-12_12h45.41.397,gca_avoidance_task,2022.2.4,144.06585510694552,
positions.xlsx,stimuli.xlsx,stimuli/Social1.png,stimuli/Social2.png,stimuli/Nonsocial2.png,stimuli/Nonsocial1.png,cs_plus_s,,,,,,,0,0,0,0,,,,,,,,,,,,,0,3,3,0,,,,,,,,,,,,,4128.0042967000045,4.0,9.250657400116324,,,,,,,,,,,,,,,,49,C,2024-01-12_12h45.41.397,gca_avoidance_task,2022.2.4,144.06585510694552,
positions.xlsx,stimuli.xlsx,stimuli/Social1.png,stimuli/Social2.png,stimuli/Nonsocial2.png,stimuli/Nonsocial1.png,cs_plus_s,,,,,,,0,0,0,0,,,,,,,,,,,,,,,,,0,0,0,0,,,,,,,,,,,,,,,,,,,,,,4138.073328900151,4144.059161000187,3,0.022431799909099936,0.055557699874043465,49,C,2024-01-12_12h45.41.397,gca_avoidance_task,2022.2.4,144.06585510694552,
positions.xlsx,stimuli.xlsx,stimuli/Social1.png,stimuli/Social2.png,stimuli/Nonsocial2.png,stimuli/Nonsocial1.png,cs_plus_ns,,,,,,,0,0,0,0,,,,,,,,,,,,,,,,,0,1,1,1,,,,,,,,,,,,,,,,,,,,,,,4159.246137900045,1,0.014827199978753924,10.000008099945262,49,C,2024-01-12_12h45.41.397,gca_avoidance_task,2022.2.4,144.06585510694552,
positions.xlsx,stimuli.xlsx,stimuli/Social1.png,stimuli/Social2.png,stimuli/Nonsocial2.png,stimuli/Nonsocial1.png,cs_minus_s,,,,,,,0,0,0,0,,,,,,,,,,,,,,,,,0,2,2,2,,,,,,,,,,,,,,,,,,,,,,,4173.9816507999785,5,0.0144338000100106,1.7709780998993665,49,C,2024-01-12_12h45.41.397,gca_avoidance_task,2022.2.4,144.06585510694552,
positions.xlsx,stimuli.xlsx,stimuli/Social1.png,stimuli/Social2.png,stimuli/Nonsocial2.png,stimuli/Nonsocial1.png,cs_minus_ns,,,,,,,0,0,0,0,,,,,,,,,,,,,,,,,0,3,3,3,,,,,,,,,,,,,,,,,,,,,,,4188.578307700111,3,0.016068399883806705,4.173610100056976,49,C,2024-01-12_12h45.41.397,gca_avoidance_task,2022.2.4,144.06585510694552,
positions.xlsx,stimuli.xlsx,stimuli/Social1.png,stimuli/Social2.png,stimuli/Nonsocial2.png,stimuli/Nonsocial1.png,cs_plus_ns,,,,,,,0,0,0,0,,,,,,,,,,,,,,,,,1,0,4,1,,,,,,,,,,,,,,,,,,,,,,,4203.904083900154,5,0.15305869979783893,0.8267969000153244,49,C,2024-01-12_12h45.41.397,gca_avoidance_task,2022.2.4,144.06585510694552,
positions.xlsx,stimuli.xlsx,stimuli/Social1.png,stimuli/Social2.png,stimuli/Nonsocial2.png,stimuli/Nonsocial1.png,cs_plus_s,,,,,,,0,0,0,0,,,,,,,,,,,,,,,,,1,1,5,0,,,,,,,,,,,,,,,,,,,,,,,4218.854885700159,3,0.014385699992999434,0.7155925999395549,49,C,2024-01-12_12h45.41.397,gca_avoidance_task,2022.2.4,144.06585510694552,
positions.xlsx,stimuli.xlsx,stimuli/Social1.png,stimuli/Social2.png,stimuli/Nonsocial2.png,stimuli/Nonsocial1.png,cs_minus_ns,,,,,,,0,0,0,0,,,,,,,,,,,,,,,,,1,2,6,3,,,,,,,,,,,,,,,,,,,,,,,4234.340399699984,4,0.015428799903020263,2.4447844000533223,49,C,2024-01-12_12h45.41.397,gca_avoidance_task,2022.2.4,144.06585510694552,
positions.xlsx,stimuli.xlsx,stimuli/Social1.png,stimuli/Social2.png,stimuli/Nonsocial2.png,stimuli/Nonsocial1.png,cs_minus_s,,,,,,,0,0,0,0,,,,,,,,,,,,,,,,,1,3,7,2,,,,,,,,,,,,,,,,,,,,,,,4249.277293900028,1,0.01465749996714294,9.979151700157672,49,C,2024-01-12_12h45.41.397,gca_avoidance_task,2022.2.4,144.06585510694552,
positions.xlsx,stimuli.xlsx,stimuli/Social1.png,stimuli/Social2.png,stimuli/Nonsocial2.png,stimuli/Nonsocial1.png,cs_minus_s,,,,,,,0,0,0,0,,,,,,,,,,,,,,,,,2,0,8,2,,,,,,,,,,,,,,,,,,,,,,,4264.693334000185,4,0.01418210007250309,4.173782200086862,49,C,2024-01-12_12h45.41.397,gca_avoidance_task,2022.2.4,144.06585510694552,
positions.xlsx,stimuli.xlsx,stimuli/Social1.png,stimuli/Social2.png,stimuli/Nonsocial2.png,stimuli/Nonsocial1.png,cs_plus_ns,,,,,,,0,0,0,0,,,,,,,,,,,,,,,,,2,1,9,1,,,,,,,,,,,,,,,,,,,,,,,4279.6232922000345,1,0.014911700040102005,10.000245300121605,49,C,2024-01-12_12h45.41.397,gca_avoidance_task,2022.2.4,144.06585510694552,
positions.xlsx,stimuli.xlsx,stimuli/Social1.png,stimuli/Social2.png,stimuli/Nonsocial2.png,stimuli/Nonsocial1.png,cs_minus_ns,,,,,,,0,0,0,0,,,,,,,,,,,,,,,,,2,2,10,3,,,,,,,,,,,,,,,,,,,,,,,4294.324148700107,4,0.015276500023901463,3.6184147999156266,49,C,2024-01-12_12h45.41.397,gca_avoidance_task,2022.2.4,144.06585510694552,
positions.xlsx,stimuli.xlsx,stimuli/Social1.png,stimuli/Social2.png,stimuli/Nonsocial2.png,stimuli/Nonsocial1.png,cs_plus_s,,,,,,,0,0,0,0,,,,,,,,,,,,,,,,,2,3,11,0,,,,,,,,,,,,,,,,,,,,,,,4309.038795700064,2,0.014255200047045946,9.125123499892652,49,C,2024-01-12_12h45.41.397,gca_avoidance_task,2022.2.4,144.06585510694552,
positions.xlsx,stimuli.xlsx,stimuli/Social1.png,stimuli/Social2.png,stimuli/Nonsocial2.png,stimuli/Nonsocial1.png,cs_minus_s,,,,,,,0,0,0,0,,,,,,,,,,,,,,,,,3,0,12,2,,,,,,,,,,,,,,,,,,,,,,,4323.621558800107,3,0.014606300042942166,0.09743200009688735,49,C,2024-01-12_12h45.41.397,gca_avoidance_task,2022.2.4,144.06585510694552,
positions.xlsx,stimuli.xlsx,stimuli/Social1.png,stimuli/Social2.png,stimuli/Nonsocial2.png,stimuli/Nonsocial1.png,cs_minus_ns,,,,,,,0,0,0,0,,,,,,,,,,,,,,,,,3,1,13,3,,,,,,,,,,,,,,,,,,,,,,,4338.204338900046,6,0.014046099968254566,3.7994454000145197,49,C,2024-01-12_12h45.41.397,gca_avoidance_task,2022.2.4,144.06585510694552,
positions.xlsx,stimuli.xlsx,stimuli/Social1.png,stimuli/Social2.png,stimuli/Nonsocial2.png,stimuli/Nonsocial1.png,cs_plus_ns,,,,,,,0,0,0,0,,,,,,,,,,,,,,,,,3,2,14,1,,,,,,,,,,,,,,,,,,,,,,,4353.182879100088,6,0.013781500048935413,0.903104699915275,49,C,2024-01-12_12h45.41.397,gca_avoidance_task,2022.2.4,144.06585510694552,
positions.xlsx,stimuli.xlsx,stimuli/Social1.png,stimuli/Social2.png,stimuli/Nonsocial2.png,stimuli/Nonsocial1.png,cs_plus_s,,,,,,,0,0,0,0,,,,,,,,,,,,,,,,,3,3,15,0,,,,,,,,,,,,,,,,,,,,,,,4368.355896600056,1,0.4518546999897808,10.000029099872336,49,C,2024-01-12_12h45.41.397,gca_avoidance_task,2022.2.4,144.06585510694552,
positions.xlsx,stimuli.xlsx,stimuli/Social1.png,stimuli/Social2.png,stimuli/Nonsocial2.png,stimuli/Nonsocial1.png,cs_minus_s,,,,,,,0,0,0,0,,,,,,,,,,,,,,,,,4,0,16,2,,,,,,,,,,,,,,,,,,,,,,,4383.258146800101,1,0.013743599876761436,9.999980799853802,49,C,2024-01-12_12h45.41.397,gca_avoidance_task,2022.2.4,144.06585510694552,
positions.xlsx,stimuli.xlsx,stimuli/Social1.png,stimuli/Social2.png,stimuli/Nonsocial2.png,stimuli/Nonsocial1.png,cs_minus_ns,,,,,,,0,0,0,0,,,,,,,,,,,,,,,,,4,1,17,3,,,,,,,,,,,,,,,,,,,,,,,4397.945025000023,7,0.1879149000160396,2.5976621999870986,49,C,2024-01-12_12h45.41.397,gca_avoidance_task,2022.2.4,144.06585510694552,
positions.xlsx,stimuli.xlsx,stimuli/Social1.png,stimuli/Social2.png,stimuli/Nonsocial2.png,stimuli/Nonsocial1.png,cs_plus_s,,,,,,,0,0,0,0,,,,,,,,,,,,,,,,,4,2,18,0,,,,,,,,,,,,,,,,,,,,,,,4412.972223300021,3,0.2294774001929909,4.2846648001577705,49,C,2024-01-12_12h45.41.397,gca_avoidance_task,2022.2.4,144.06585510694552,
positions.xlsx,stimuli.xlsx,stimuli/Social1.png,stimuli/Social2.png,stimuli/Nonsocial2.png,stimuli/Nonsocial1.png,cs_plus_ns,,,,,,,0,0,0,0,,,,,,,,,,,,,,,,,4,3,19,1,,,,,,,,,,,,,,,,,,,,,,,4427.707737700082,4,0.18781790020875633,1.6670010001398623,49,C,2024-01-12_12h45.41.397,gca_avoidance_task,2022.2.4,144.06585510694552,
positions.xlsx,stimuli.xlsx,stimuli/Social1.png,stimuli/Social2.png,stimuli/Nonsocial2.png,stimuli/Nonsocial1.png,cs_minus_ns,,,,,,,0,0,0,0,,,,,,,,,,,,,,,,,5,0,20,3,,,,,,,,,,,,,,,,,,,,,,,4442.936308700126,9,0.014246199978515506,1.43779640016146,49,C,2024-01-12_12h45.41.397,gca_avoidance_task,2022.2.4,144.06585510694552,
positions.xlsx,stimuli.xlsx,stimuli/Social1.png,stimuli/Social2.png,stimuli/Nonsocial2.png,stimuli/Nonsocial1.png,cs_minus_s,,,,,,,0,0,0,0,,,,,,,,,,,,,,,,,5,1,21,2,,,,,,,,,,,,,,,,,,,,,,,4458.28289420018,4,0.014027399942278862,1.6183106999378651,49,C,2024-01-12_12h45.41.397,gca_avoidance_task,2022.2.4,144.06585510694552,
positions.xlsx,stimuli.xlsx,stimuli/Social1.png,stimuli/Social2.png,stimuli/Nonsocial2.png,stimuli/Nonsocial1.png,cs_plus_ns,,,,,,,0,0,0,0,,,,,,,,,,,,,,,,,5,2,22,1,,,,,,,,,,,,,,,,,,,,,,,4473.018436300103,4,0.014070299919694662,0.8685195001307875,49,C,2024-01-12_12h45.41.397,gca_avoidance_task,2022.2.4,144.06585510694552,
positions.xlsx,stimuli.xlsx,stimuli/Social1.png,stimuli/Social2.png,stimuli/Nonsocial2.png,stimuli/Nonsocial1.png,cs_plus_s,,,,,,,0,0,0,0,,,,,,,,,,,,,,,,,5,3,23,0,,,,,,,,,,,,,,,,,,,,,,,4488.156724800123,5,0.013395299902185798,3.909995599882677,49,C,2024-01-12_12h45.41.397,gca_avoidance_task,2022.2.4,144.06585510694552,
positions.xlsx,stimuli.xlsx,stimuli/Social1.png,stimuli/Social2.png,stimuli/Nonsocial2.png,stimuli/Nonsocial1.png,cs_minus_s,,,,,,,0,0,0,0,,,,,,,,,,,,,,,,,6,0,24,2,,,,,,,,,,,,,,,,,,,,,,,4502.836712800199,1,0.0768718000035733,10.000070500187576,49,C,2024-01-12_12h45.41.397,gca_avoidance_task,2022.2.4,144.06585510694552,
positions.xlsx,stimuli.xlsx,stimuli/Social1.png,stimuli/Social2.png,stimuli/Nonsocial2.png,stimuli/Nonsocial1.png,cs_minus_ns,,,,,,,0,0,0,0,,,,,,,,,,,,,,,,,6,1,25,3,,,,,,,,,,,,,,,,,,,,,,,4518.113879600074,4,0.014732099836692214,1.4169866000302136,49,C,2024-01-12_12h45.41.397,gca_avoidance_task,2022.2.4,144.06585510694552,
positions.xlsx,stimuli.xlsx,stimuli/Social1.png,stimuli/Social2.png,stimuli/Nonsocial2.png,stimuli/Nonsocial1.png,cs_plus_s,,,,,,,0,0,0,0,,,,,,,,,,,,,,,,,6,2,26,0,,,,,,,,,,,,,,,,,,,,,,,4533.606322400039,4,0.014660299988463521,3.6182610001415014,49,C,2024-01-12_12h45.41.397,gca_avoidance_task,2022.2.4,144.06585510694552,
positions.xlsx,stimuli.xlsx,stimuli/Social1.png,stimuli/Social2.png,stimuli/Nonsocial2.png,stimuli/Nonsocial1.png,cs_plus_ns,,,,,,,0,0,0,0,,,,,,,,,,,,,,,,,6,3,27,1,,,,,,,,,,,,,,,,,,,,,,,4548.244630500209,3,0.015059599885717034,1.6739778998307884,49,C,2024-01-12_12h45.41.397,gca_avoidance_task,2022.2.4,144.06585510694552,
positions.xlsx,stimuli.xlsx,stimuli/Social1.png,stimuli/Social2.png,stimuli/Nonsocial2.png,stimuli/Nonsocial1.png,cs_plus_s,,,,,,,0,0,0,0,,,,,,,,,,,,,,,,,7,0,28,0,,,,,,,,,,,,,,,,,,,,,,,4562.987119300058,2,0.01417310000397265,2.798660899978131,49,C,2024-01-12_12h45.41.397,gca_avoidance_task,2022.2.4,144.06585510694552,
positions.xlsx,stimuli.xlsx,stimuli/Social1.png,stimuli/Social2.png,stimuli/Nonsocial2.png,stimuli/Nonsocial1.png,cs_minus_ns,,,,,,,0,0,0,0,,,,,,,,,,,,,,,,,7,1,29,3,,,,,,,,,,,,,,,,,,,,,,,4578.333765699994,4,0.3753592998255044,5.319526699837297,49,C,2024-01-12_12h45.41.397,gca_avoidance_task,2022.2.4,144.06585510694552,
positions.xlsx,stimuli.xlsx,stimuli/Social1.png,stimuli/Social2.png,stimuli/Nonsocial2.png,stimuli/Nonsocial1.png,cs_minus_s,,,,,,,0,0,0,0,,,,,,,,,,,,,,,,,7,2,30,2,,,,,,,,,,,,,,,,,,,,,,,4593.826146200066,4,0.014247499871999025,1.979504199931398,49,C,2024-01-12_12h45.41.397,gca_avoidance_task,2022.2.4,144.06585510694552,
positions.xlsx,stimuli.xlsx,stimuli/Social1.png,stimuli/Social2.png,stimuli/Nonsocial2.png,stimuli/Nonsocial1.png,cs_plus_ns,,,,,,,0,0,0,0,,,,,,,,,,,,,,,,,7,3,31,1,,,,,,,,,,,,,,,,,,,,,,,4608.610318200197,3,0.015249500051140785,4.972596399951726,49,C,2024-01-12_12h45.41.397,gca_avoidance_task,2022.2.4,144.06585510694552,
positions.xlsx,stimuli.xlsx,stimuli/Social1.png,stimuli/Social2.png,stimuli/Nonsocial2.png,stimuli/Nonsocial1.png,cs_plus_ns,,,,,,,0,0,0,0,,,,,,,,,,,,,,,,,8,0,32,1,,,,,,,,,,,,,,,,,,,,,,,4623.672243300127,5,0.015094200149178505,3.2084071999415755,49,C,2024-01-12_12h45.41.397,gca_avoidance_task,2022.2.4,144.06585510694552,
positions.xlsx,stimuli.xlsx,stimuli/Social1.png,stimuli/Social2.png,stimuli/Nonsocial2.png,stimuli/Nonsocial1.png,cs_minus_s,,,,,,,0,0,0,0,,,,,,,,,,,,,,,,,8,1,33,2,,,,,,,,,,,,,,,,,,,,,,,4639.01883820002,4,0.18792579998262227,2.222477699862793,49,C,2024-01-12_12h45.41.397,gca_avoidance_task,2022.2.4,144.06585510694552,
positions.xlsx,stimuli.xlsx,stimuli/Social1.png,stimuli/Social2.png,stimuli/Nonsocial2.png,stimuli/Nonsocial1.png,cs_plus_s,,,,,,,0,0,0,0,,,,,,,,,,,,,,,,,8,2,34,0,,,,,,,,,,,,,,,,,,,,,,,4654.407133900095,3,0.014577900059521198,0.07689350005239248,49,C,2024-01-12_12h45.41.397,gca_avoidance_task,2022.2.4,144.06585510694552,
positions.xlsx,stimuli.xlsx,stimuli/Social1.png,stimuli/Social2.png,stimuli/Nonsocial2.png,stimuli/Nonsocial1.png,cs_minus_ns,,,,,,,0,0,0,0,,,,,,,,,,,,,,,,,8,3,35,3,,,,,,,,,,,,,,,,,,,,,,,4669.295411100145,2,0.013866200111806393,3.2988156001083553,49,C,2024-01-12_12h45.41.397,gca_avoidance_task,2022.2.4,144.06585510694552,
positions.xlsx,stimuli.xlsx,stimuli/Social1.png,stimuli/Social2.png,stimuli/Nonsocial2.png,stimuli/Nonsocial1.png,cs_plus_ns,,,,,,,0,0,0,0,,,,,,,,,,,,,,,,,9,0,36,1,,,,,,,,,,,,,,,,,,,,,,,4683.885137200123,3,0.014048599870875478,4.889079899992794,49,C,2024-01-12_12h45.41.397,gca_avoidance_task,2022.2.4,144.06585510694552,
positions.xlsx,stimuli.xlsx,stimuli/Social1.png,stimuli/Social2.png,stimuli/Nonsocial2.png,stimuli/Nonsocial1.png,cs_minus_ns,,,,,,,0,0,0,0,,,,,,,,,,,,,,,,,9,1,37,3,,,,,,,,,,,,,,,,,,,,,,,4698.578998700017,3,0.16026960010640323,3.125361999962479,49,C,2024-01-12_12h45.41.397,gca_avoidance_task,2022.2.4,144.06585510694552,
positions.xlsx,stimuli.xlsx,stimuli/Social1.png,stimuli/Social2.png,stimuli/Nonsocial2.png,stimuli/Nonsocial1.png,cs_plus_s,,,,,,,0,0,0,0,,,,,,,,,,,,,,,,,9,2,38,0,,,,,,,,,,,,,,,,,,,,,,,4713.328464300139,3,0.013406400103121996,2.777926699956879,49,C,2024-01-12_12h45.41.397,gca_avoidance_task,2022.2.4,144.06585510694552,
positions.xlsx,stimuli.xlsx,stimuli/Social1.png,stimuli/Social2.png,stimuli/Nonsocial2.png,stimuli/Nonsocial1.png,cs_minus_s,,,,,,,0,0,0,0,,,,,,,,,,,,,,,,,9,3,39,2,,,,,,,,,,,,,,,,,,,,,,,4728.383373100078,4,0.23644510004669428,3.0696592000313103,49,C,2024-01-12_12h45.41.397,gca_avoidance_task,2022.2.4,144.06585510694552,
positions.xlsx,stimuli.xlsx,stimuli/Social1.png,stimuli/Social2.png,stimuli/Nonsocial2.png,stimuli/Nonsocial1.png,cs_minus_ns,,,,,,,0,0,0,0,,,,,,,,,,,,,,,,,,,,,0,0,0,3,,,,,4742.841126300162,7.0,5.728960700100288,,,,,,,,,,,,,,,,49,C,2024-01-12_12h45.41.397,gca_avoidance_task,2022.2.4,144.06585510694552,
positions.xlsx,stimuli.xlsx,stimuli/Social1.png,stimuli/Social2.png,stimuli/Nonsocial2.png,stimuli/Nonsocial1.png,cs_plus_s,,,,,,,0,0,0,0,,,,,,,,,,,,,,,,,,,,,0,1,1,0,,,,,4751.042215600144,6.0,4.131736399838701,,,,,,,,,,,,,,,,49,C,2024-01-12_12h45.41.397,gca_avoidance_task,2022.2.4,144.06585510694552,
positions.xlsx,stimuli.xlsx,stimuli/Social1.png,stimuli/Social2.png,stimuli/Nonsocial2.png,stimuli/Nonsocial1.png,cs_minus_s,,,,,,,0,0,0,0,,,,,,,,,,,,,,,,,,,,,0,2,2,2,,,,,4756.764206700027,7.0,4.021267599891871,,,,,,,,,,,,,,,,49,C,2024-01-12_12h45.41.397,gca_avoidance_task,2022.2.4,144.06585510694552,
positions.xlsx,stimuli.xlsx,stimuli/Social1.png,stimuli/Social2.png,stimuli/Nonsocial2.png,stimuli/Nonsocial1.png,cs_plus_ns,,,,,,,0,0,0,0,,,,,,,,,,,,,,,,,,,,,0,3,3,1,,,,,4761.833441000199,6.0,2.4507222999818623,,,,,,,,,,,,,,,,49,C,2024-01-12_12h45.41.397,gca_avoidance_task,2022.2.4,144.06585510694552,
