posFile,stimFile,cs_plus_s,cs_minus_s,cs_plus_ns,cs_minus_ns,stimtype,position,trialtype,trials_threshold.thisRepN,trials_threshold.thisTrialN,trials_threshold.thisN,trials_threshold.thisIndex,blocks.thisRepN,blocks.thisTrialN,blocks.thisN,blocks.thisIndex,ratingtrials1.thisRepN,ratingtrials1.thisTrialN,ratingtrials1.thisN,ratingtrials1.thisIndex,learning_trials.thisRepN,learning_trials.thisTrialN,learning_trials.thisN,learning_trials.thisIndex,trials.thisRepN,trials.thisTrialN,trials.thisN,trials.thisIndex,ratingtrials2.thisRepN,ratingtrials2.thisTrialN,ratingtrials2.thisN,ratingtrials2.thisIndex,testtrials.thisRepN,testtrials.thisTrialN,testtrials.thisN,testtrials.thisIndex,ratingtrials3.thisRepN,ratingtrials3.thisTrialN,ratingtrials3.thisN,ratingtrials3.thisIndex,textStart.started,sliderPainT.response,sliderPainT.rt,textStartExp.started,imageRating.started,sliderStim.response,sliderStim.rt,textStartTask.started,image.started,score,outcome,roi.numLooks,roi.timesOn,roi.timesOff,imageFeedback.started,sliderPain.response,sliderPain.rt,textTestInstr.started,imageTest.started,roiTest.numLooks,roiTest.timesOn,roiTest.timesOff,participant,group,date,expName,psychopyVersion,frameRate,
,,,,,,,,,0,0,0,0,,,,,,,,,,,,,,,,,,,,,,,,,,,,,27.808402800001204,None,None,,,,,,,,,,,,,,,,,,,,38,C,2023-12-20_09h51.36.095,gca_avoidance_task,2022.2.4,144.0052760984392,
,,,,,,,,,1,0,1,0,,,,,,,,,,,,,,,,,,,,,,,,,,,,,,0.0,13.553807399934158,,,,,,,,,,,,,,,,,,,,38,C,2023-12-20_09h51.36.095,gca_avoidance_task,2022.2.4,144.0052760984392,
,,,,,,,,,2,0,2,0,,,,,,,,,,,,,,,,,,,,,,,,,,,,,,0.0,8.99678110005334,,,,,,,,,,,,,,,,,,,,38,C,2023-12-20_09h51.36.095,gca_avoidance_task,2022.2.4,144.0052760984392,
,,,,,,,,,3,0,3,0,,,,,,,,,,,,,,,,,,,,,,,,,,,,,,0.0,2.712883499916643,,,,,,,,,,,,,,,,,,,,38,C,2023-12-20_09h51.36.095,gca_avoidance_task,2022.2.4,144.0052760984392,
,,,,,,,,,4,0,4,0,,,,,,,,,,,,,,,,,,,,,,,,,,,,,,0.0,1.4670617000665516,,,,,,,,,,,,,,,,,,,,38,C,2023-12-20_09h51.36.095,gca_avoidance_task,2022.2.4,144.0052760984392,
,,,,,,,,,5,0,5,0,,,,,,,,,,,,,,,,,,,,,,,,,,,,,,1.0,2.3853426000569016,,,,,,,,,,,,,,,,,,,,38,C,2023-12-20_09h51.36.095,gca_avoidance_task,2022.2.4,144.0052760984392,
,,,,,,,,,6,0,6,0,,,,,,,,,,,,,,,,,,,,,,,,,,,,,,1.0,2.9230320998467505,,,,,,,,,,,,,,,,,,,,38,C,2023-12-20_09h51.36.095,gca_avoidance_task,2022.2.4,144.0052760984392,
,,,,,,,,,7,0,7,0,,,,,,,,,,,,,,,,,,,,,,,,,,,,,,2.0,1.3066259999759495,,,,,,,,,,,,,,,,,,,,38,C,2023-12-20_09h51.36.095,gca_avoidance_task,2022.2.4,144.0052760984392,
,,,,,,,,,8,0,8,0,,,,,,,,,,,,,,,,,,,,,,,,,,,,,,3.0,1.960725300014019,,,,,,,,,,,,,,,,,,,,38,C,2023-12-20_09h51.36.095,gca_avoidance_task,2022.2.4,144.0052760984392,
,,,,,,,,,9,0,9,0,,,,,,,,,,,,,,,,,,,,,,,,,,,,,,3.0,1.1963702000211924,,,,,,,,,,,,,,,,,,,,38,C,2023-12-20_09h51.36.095,gca_avoidance_task,2022.2.4,144.0052760984392,
,,,,,,,,,10,0,10,0,,,,,,,,,,,,,,,,,,,,,,,,,,,,,,3.0,0.746622399892658,,,,,,,,,,,,,,,,,,,,38,C,2023-12-20_09h51.36.095,gca_avoidance_task,2022.2.4,144.0052760984392,
,,,,,,,,,11,0,11,0,,,,,,,,,,,,,,,,,,,,,,,,,,,,,,3.0,0.9255240000784397,,,,,,,,,,,,,,,,,,,,38,C,2023-12-20_09h51.36.095,gca_avoidance_task,2022.2.4,144.0052760984392,
,,,,,,,,,12,0,12,0,,,,,,,,,,,,,,,,,,,,,,,,,,,,,,3.0,0.9001305000856519,,,,,,,,,,,,,,,,,,,,38,C,2023-12-20_09h51.36.095,gca_avoidance_task,2022.2.4,144.0052760984392,
,,,,,,,,,13,0,13,0,,,,,,,,,,,,,,,,,,,,,,,,,,,,,,3.0,0.6839882000349462,,,,,,,,,,,,,,,,,,,,38,C,2023-12-20_09h51.36.095,gca_avoidance_task,2022.2.4,144.0052760984392,
,,,,,,,,,14,0,14,0,,,,,,,,,,,,,,,,,,,,,,,,,,,,,,3.0,0.7444541999138892,,,,,,,,,,,,,,,,,,,,38,C,2023-12-20_09h51.36.095,gca_avoidance_task,2022.2.4,144.0052760984392,
,,,,,,,,,15,0,15,0,,,,,,,,,,,,,,,,,,,,,,,,,,,,,,4.0,1.626600099960342,,,,,,,,,,,,,,,,,,,,38,C,2023-12-20_09h51.36.095,gca_avoidance_task,2022.2.4,144.0052760984392,
,,,,,,,,,16,0,16,0,,,,,,,,,,,,,,,,,,,,,,,,,,,,,,4.0,0.6721198000013828,,,,,,,,,,,,,,,,,,,,38,C,2023-12-20_09h51.36.095,gca_avoidance_task,2022.2.4,144.0052760984392,
,,,,,,,,,17,0,17,0,,,,,,,,,,,,,,,,,,,,,,,,,,,,,,4.0,0.6037427000701427,,,,,,,,,,,,,,,,,,,,38,C,2023-12-20_09h51.36.095,gca_avoidance_task,2022.2.4,144.0052760984392,
,,,,,,,,,18,0,18,0,,,,,,,,,,,,,,,,,,,,,,,,,,,,,,4.0,0.5620413001161069,,,,,,,,,,,,,,,,,,,,38,C,2023-12-20_09h51.36.095,gca_avoidance_task,2022.2.4,144.0052760984392,
,,,,,,,,,19,0,19,0,,,,,,,,,,,,,,,,,,,,,,,,,,,,,,4.0,0.6591565997805446,,,,,,,,,,,,,,,,,,,,38,C,2023-12-20_09h51.36.095,gca_avoidance_task,2022.2.4,144.0052760984392,
,,,,,,,,,20,0,20,0,,,,,,,,,,,,,,,,,,,,,,,,,,,,,,4.0,0.06386470003053546,,,,,,,,,,,,,,,,,,,,38,C,2023-12-20_09h51.36.095,gca_avoidance_task,2022.2.4,144.0052760984392,
,,,,,,,,,21,0,21,0,,,,,,,,,,,,,,,,,,,,,,,,,,,,,,4.0,0.5474435000214726,,,,,,,,,,,,,,,,,,,,38,C,2023-12-20_09h51.36.095,gca_avoidance_task,2022.2.4,144.0052760984392,
,,,,,,,,,22,0,22,0,,,,,,,,,,,,,,,,,,,,,,,,,,,,,,5.0,1.956173000158742,,,,,,,,,,,,,,,,,,,,38,C,2023-12-20_09h51.36.095,gca_avoidance_task,2022.2.4,144.0052760984392,
,,,,,,,,,23,0,23,0,,,,,,,,,,,,,,,,,,,,,,,,,,,,,,5.0,0.6482796999625862,,,,,,,,,,,,,,,,,,,,38,C,2023-12-20_09h51.36.095,gca_avoidance_task,2022.2.4,144.0052760984392,
,,,,,,,,,24,0,24,0,,,,,,,,,,,,,,,,,,,,,,,,,,,,,,6.0,1.1051276999060065,,,,,,,,,,,,,,,,,,,,38,C,2023-12-20_09h51.36.095,gca_avoidance_task,2022.2.4,144.0052760984392,
,,,,,,,,,25,0,25,0,,,,,,,,,,,,,,,,,,,,,,,,,,,,,,6.0,0.9769304001238197,,,,,,,,,,,,,,,,,,,,38,C,2023-12-20_09h51.36.095,gca_avoidance_task,2022.2.4,144.0052760984392,
,,,,,,,,,26,0,26,0,,,,,,,,,,,,,,,,,,,,,,,,,,,,,,6.0,0.0375515001360327,,,,,,,,,,,,,,,,,,,,38,C,2023-12-20_09h51.36.095,gca_avoidance_task,2022.2.4,144.0052760984392,
,,,,,,,,,27,0,27,0,,,,,,,,,,,,,,,,,,,,,,,,,,,,,,6.0,1.1040376999881119,,,,,,,,,,,,,,,,,,,,38,C,2023-12-20_09h51.36.095,gca_avoidance_task,2022.2.4,144.0052760984392,
,,,,,,,,,28,0,28,0,,,,,,,,,,,,,,,,,,,,,,,,,,,,,,6.0,0.5402047000825405,,,,,,,,,,,,,,,,,,,,38,C,2023-12-20_09h51.36.095,gca_avoidance_task,2022.2.4,144.0052760984392,
,,,,,,,,,29,0,29,0,,,,,,,,,,,,,,,,,,,,,,,,,,,,,,6.0,0.5718653001822531,,,,,,,,,,,,,,,,,,,,38,C,2023-12-20_09h51.36.095,gca_avoidance_task,2022.2.4,144.0052760984392,
,,,,,,,,,30,0,30,0,,,,,,,,,,,,,,,,,,,,,,,,,,,,,,7.0,1.4878495999146253,,,,,,,,,,,,,,,,,,,,38,C,2023-12-20_09h51.36.095,gca_avoidance_task,2022.2.4,144.0052760984392,
,,,,,,,,,31,0,31,0,,,,,,,,,,,,,,,,,,,,,,,,,,,,,,7.0,1.5522789000533521,,,,,,,,,,,,,,,,,,,,38,C,2023-12-20_09h51.36.095,gca_avoidance_task,2022.2.4,144.0052760984392,
,,,,,,,,,32,0,32,0,,,,,,,,,,,,,,,,,,,,,,,,,,,,,,7.0,0.5559866998810321,,,,,,,,,,,,,,,,,,,,38,C,2023-12-20_09h51.36.095,gca_avoidance_task,2022.2.4,144.0052760984392,
,,,,,,,,,33,0,33,0,,,,,,,,,,,,,,,,,,,,,,,,,,,,,,7.0,0.6327161998488009,,,,,,,,,,,,,,,,,,,,38,C,2023-12-20_09h51.36.095,gca_avoidance_task,2022.2.4,144.0052760984392,
,,,,,,,,,34,0,34,0,,,,,,,,,,,,,,,,,,,,,,,,,,,,,,7.0,0.46111369994468987,,,,,,,,,,,,,,,,,,,,38,C,2023-12-20_09h51.36.095,gca_avoidance_task,2022.2.4,144.0052760984392,
,,,,,,,,,35,0,35,0,,,,,,,,,,,,,,,,,,,,,,,,,,,,,,7.0,0.8975591999478638,,,,,,,,,,,,,,,,,,,,38,C,2023-12-20_09h51.36.095,gca_avoidance_task,2022.2.4,144.0052760984392,
,,,,,,,,,36,0,36,0,,,,,,,,,,,,,,,,,,,,,,,,,,,,,,7.0,0.6201021999586374,,,,,,,,,,,,,,,,,,,,38,C,2023-12-20_09h51.36.095,gca_avoidance_task,2022.2.4,144.0052760984392,
,,,,,,,,,37,0,37,0,,,,,,,,,,,,,,,,,,,,,,,,,,,,,,6.0,0.9018584999721497,,,,,,,,,,,,,,,,,,,,38,C,2023-12-20_09h51.36.095,gca_avoidance_task,2022.2.4,144.0052760984392,
,,,,,,,,,38,0,38,0,,,,,,,,,,,,,,,,,,,,,,,,,,,,,,6.0,0.9479789000470191,,,,,,,,,,,,,,,,,,,,38,C,2023-12-20_09h51.36.095,gca_avoidance_task,2022.2.4,144.0052760984392,
,,,,,,,,,39,0,39,0,,,,,,,,,,,,,,,,,,,,,,,,,,,,,,6.0,0.5195086998865008,,,,,,,,,,,,,,,,,,,,38,C,2023-12-20_09h51.36.095,gca_avoidance_task,2022.2.4,144.0052760984392,
,,,,,,,,,40,0,40,0,,,,,,,,,,,,,,,,,,,,,,,,,,,,,,6.0,0.493943199981004,,,,,,,,,,,,,,,,,,,,38,C,2023-12-20_09h51.36.095,gca_avoidance_task,2022.2.4,144.0052760984392,
,,,,,,,,,41,0,41,0,,,,,,,,,,,,,,,,,,,,,,,,,,,,,,6.0,0.4280987000092864,,,,,,,,,,,,,,,,,,,,38,C,2023-12-20_09h51.36.095,gca_avoidance_task,2022.2.4,144.0052760984392,
,,,,,,,,,42,0,42,0,,,,,,,,,,,,,,,,,,,,,,,,,,,,,,6.0,3.4178720000199974,,,,,,,,,,,,,,,,,,,,38,C,2023-12-20_09h51.36.095,gca_avoidance_task,2022.2.4,144.0052760984392,
,,,,,,,,,43,0,43,0,,,,,,,,,,,,,,,,,,,,,,,,,,,,,,6.0,0.7784951000940055,,,,,,,,,,,,,,,,,,,,38,C,2023-12-20_09h51.36.095,gca_avoidance_task,2022.2.4,144.0052760984392,
,,,,,,,,,44,0,44,0,,,,,,,,,,,,,,,,,,,,,,,,,,,,,,4.0,2.805039100116119,,,,,,,,,,,,,,,,,,,,38,C,2023-12-20_09h51.36.095,gca_avoidance_task,2022.2.4,144.0052760984392,
,,,,,,,,,45,0,45,0,,,,,,,,,,,,,,,,,,,,,,,,,,,,,,6.0,2.0500960999634117,,,,,,,,,,,,,,,,,,,,38,C,2023-12-20_09h51.36.095,gca_avoidance_task,2022.2.4,144.0052760984392,
,,,,,,,,,46,0,46,0,,,,,,,,,,,,,,,,,,,,,,,,,,,,,,6.0,0.8497168000321835,,,,,,,,,,,,,,,,,,,,38,C,2023-12-20_09h51.36.095,gca_avoidance_task,2022.2.4,144.0052760984392,
,,,,,,,,,47,0,47,0,,,,,,,,,,,,,,,,,,,,,,,,,,,,,,6.0,0.4855249999091029,,,,,,,,,,,,,,,,,,,,38,C,2023-12-20_09h51.36.095,gca_avoidance_task,2022.2.4,144.0052760984392,
,,,,,,,,,48,0,48,0,,,,,,,,,,,,,,,,,,,,,,,,,,,,,,6.0,0.5006012001540512,,,,,,,,,,,,,,,,,,,,38,C,2023-12-20_09h51.36.095,gca_avoidance_task,2022.2.4,144.0052760984392,
,,,,,,,,,49,0,49,0,,,,,,,,,,,,,,,,,,,,,,,,,,,,,,6.0,0.5132708000019193,,,,,,,,,,,,,,,,,,,,38,C,2023-12-20_09h51.36.095,gca_avoidance_task,2022.2.4,144.0052760984392,
,,,,,,,,,50,0,50,0,,,,,,,,,,,,,,,,,,,,,,,,,,,,,,6.0,0.4603945000562817,,,,,,,,,,,,,,,,,,,,38,C,2023-12-20_09h51.36.095,gca_avoidance_task,2022.2.4,144.0052760984392,
,,,,,,,,,51,0,51,0,,,,,,,,,,,,,,,,,,,,,,,,,,,,,,6.0,0.16638890001922846,,,,,,,,,,,,,,,,,,,,38,C,2023-12-20_09h51.36.095,gca_avoidance_task,2022.2.4,144.0052760984392,
,,,,,,,,,52,0,52,0,,,,,,,,,,,,,,,,,,,,,,,,,,,,,,6.0,0.45239650015719235,,,,,,,,,,,,,,,,,,,,38,C,2023-12-20_09h51.36.095,gca_avoidance_task,2022.2.4,144.0052760984392,
,,,,,,,,,53,0,53,0,,,,,,,,,,,,,,,,,,,,,,,,,,,,,,5.0,1.6732408001553267,,,,,,,,,,,,,,,,,,,,38,C,2023-12-20_09h51.36.095,gca_avoidance_task,2022.2.4,144.0052760984392,
,,,,,,,,,54,0,54,0,,,,,,,,,,,,,,,,,,,,,,,,,,,,,,5.0,22.90565690002404,,,,,,,,,,,,,,,,,,,,38,C,2023-12-20_09h51.36.095,gca_avoidance_task,2022.2.4,144.0052760984392,
,,,,,,,,,55,0,55,0,,,,,,,,,,,,,,,,,,,,,,,,,,,,,,5.0,0.614269700134173,,,,,,,,,,,,,,,,,,,,38,C,2023-12-20_09h51.36.095,gca_avoidance_task,2022.2.4,144.0052760984392,
,,,,,,,,,56,0,56,0,,,,,,,,,,,,,,,,,,,,,,,,,,,,,,6.0,1.0163113998714834,,,,,,,,,,,,,,,,,,,,38,C,2023-12-20_09h51.36.095,gca_avoidance_task,2022.2.4,144.0052760984392,
,,,,,,,,,57,0,57,0,,,,,,,,,,,,,,,,,,,,,,,,,,,,,,6.0,1.0083592999726534,,,,,,,,,,,,,,,,,,,,38,C,2023-12-20_09h51.36.095,gca_avoidance_task,2022.2.4,144.0052760984392,
,,,,,,,,,58,0,58,0,,,,,,,,,,,,,,,,,,,,,,,,,,,,,,6.0,1.5232280001509935,,,,,,,,,,,,,,,,,,,,38,C,2023-12-20_09h51.36.095,gca_avoidance_task,2022.2.4,144.0052760984392,
,,,,,,,,,59,0,59,0,,,,,,,,,,,,,,,,,,,,,,,,,,,,,,6.0,1.3462160998024046,,,,,,,,,,,,,,,,,,,,38,C,2023-12-20_09h51.36.095,gca_avoidance_task,2022.2.4,144.0052760984392,
,,,,,,,,,60,0,60,0,,,,,,,,,,,,,,,,,,,,,,,,,,,,,,6.0,1.4865294999908656,,,,,,,,,,,,,,,,,,,,38,C,2023-12-20_09h51.36.095,gca_avoidance_task,2022.2.4,144.0052760984392,
,,,,,,,,,61,0,61,0,,,,,,,,,,,,,,,,,,,,,,,,,,,,,,7.0,1.5245701998937875,,,,,,,,,,,,,,,,,,,,38,C,2023-12-20_09h51.36.095,gca_avoidance_task,2022.2.4,144.0052760984392,
,,,,,,,,,62,0,62,0,,,,,,,,,,,,,,,,,,,,,,,,,,,,,,6.0,0.9104265999048948,,,,,,,,,,,,,,,,,,,,38,C,2023-12-20_09h51.36.095,gca_avoidance_task,2022.2.4,144.0052760984392,
positions.xlsx,stimuli.xlsx,stimuli/Social1.png,stimuli/Social2.png,stimuli/Nonsocial2.png,stimuli/Nonsocial1.png,cs_minus_ns,,,,,,,0,0,0,0,0,0,0,3,,,,,,,,,,,,,,,,,,,,,,,,820.4573311998975,849.6092805999797,9.0,14.566679999930784,,,,,,,,,,,,,,,,38,C,2023-12-20_09h51.36.095,gca_avoidance_task,2022.2.4,144.0052760984392,
positions.xlsx,stimuli.xlsx,stimuli/Social1.png,stimuli/Social2.png,stimuli/Nonsocial2.png,stimuli/Nonsocial1.png,cs_minus_s,,,,,,,0,0,0,0,0,1,1,2,,,,,,,,,,,,,,,,,,,,,,,,,865.6155749999452,6.0,5.885616399813443,,,,,,,,,,,,,,,,38,C,2023-12-20_09h51.36.095,gca_avoidance_task,2022.2.4,144.0052760984392,
positions.xlsx,stimuli.xlsx,stimuli/Social1.png,stimuli/Social2.png,stimuli/Nonsocial2.png,stimuli/Nonsocial1.png,cs_plus_ns,,,,,,,0,0,0,0,0,2,2,1,,,,,,,,,,,,,,,,,,,,,,,,,871.8167218000162,7.0,1.6059484998695552,,,,,,,,,,,,,,,,38,C,2023-12-20_09h51.36.095,gca_avoidance_task,2022.2.4,144.0052760984392,
positions.xlsx,stimuli.xlsx,stimuli/Social1.png,stimuli/Social2.png,stimuli/Nonsocial2.png,stimuli/Nonsocial1.png,cs_plus_s,,,,,,,0,0,0,0,0,3,3,0,,,,,,,,,,,,,,,,,,,,,,,,,873.6430297000334,8.0,2.225114200031385,,,,,,,,,,,,,,,,38,C,2023-12-20_09h51.36.095,gca_avoidance_task,2022.2.4,144.0052760984392,
positions.xlsx,stimuli.xlsx,stimuli/Social1.png,stimuli/Social2.png,stimuli/Nonsocial2.png,stimuli/Nonsocial1.png,,"(0.7, -0.5)",cs_plus_ns,,,,,0,0,0,0,,,,,0,0,0,11,,,,,,,,,,,,,,,,,,,,,,,,876.0317925000563,881.1149325000588,0,shock,1,0.3405906001571566,0.34059440018609166,881.4621623998974,,,,,,,,38,C,2023-12-20_09h51.36.095,gca_avoidance_task,2022.2.4,144.0052760984392,
positions.xlsx,stimuli.xlsx,stimuli/Social1.png,stimuli/Social2.png,stimuli/Nonsocial2.png,stimuli/Nonsocial1.png,,"(0.7, -0.5)",cs_plus_s,,,,,0,0,0,0,,,,,0,1,1,3,,,,,,,,,,,,,,,,,,,,,,,,,891.0173476999626,0,shock,1,0.3062581999693066,0.3062620998825878,891.3298140000552,,,,,,,,38,C,2023-12-20_09h51.36.095,gca_avoidance_task,2022.2.4,144.0052760984392,
positions.xlsx,stimuli.xlsx,stimuli/Social1.png,stimuli/Social2.png,stimuli/Nonsocial2.png,stimuli/Nonsocial1.png,,"(0.7, 0.5)",cs_minus_s,,,,,0,0,0,0,,,,,0,2,2,6,,,,,,,,,,,,,,,,,,,,,,,,,900.7461025998928,5,reward,1,0.2706278001423925,0.2706317000556737,901.0308433000464,,,,,,,,38,C,2023-12-20_09h51.36.095,gca_avoidance_task,2022.2.4,144.0052760984392,
positions.xlsx,stimuli.xlsx,stimuli/Social1.png,stimuli/Social2.png,stimuli/Nonsocial2.png,stimuli/Nonsocial1.png,,"(-0.7, -0.5)",cs_minus_s,,,,,0,0,0,0,,,,,0,3,3,5,,,,,,,,,,,,,,,,,,,,,,,,,910.7248694999143,10,reward,1,0.5558781998697668,0.5558819998987019,911.2873509000055,,,,,,,,38,C,2023-12-20_09h51.36.095,gca_avoidance_task,2022.2.4,144.0052760984392,
positions.xlsx,stimuli.xlsx,stimuli/Social1.png,stimuli/Social2.png,stimuli/Nonsocial2.png,stimuli/Nonsocial1.png,,"(-0.7, -0.5)",cs_plus_s,,,,,0,0,0,0,,,,,0,4,4,1,,,,,,,,,,,,,,,,,,,,,,,,,920.8286536000669,10,shock,1,0.6462592000607401,0.6462628000881523,921.4814220999833,,,,,,,,38,C,2023-12-20_09h51.36.095,gca_avoidance_task,2022.2.4,144.0052760984392,
positions.xlsx,stimuli.xlsx,stimuli/Social1.png,stimuli/Social2.png,stimuli/Nonsocial2.png,stimuli/Nonsocial1.png,,"(0.7, 0.5)",cs_minus_ns,,,,,0,0,0,0,,,,,0,5,5,14,,,,,,,,,,,,,,,,,,,,,,,,,930.5991026998963,15,reward,1,0.2014083000831306,0.20141209987923503,930.8074149000458,,,,,,,,38,C,2023-12-20_09h51.36.095,gca_avoidance_task,2022.2.4,144.0052760984392,
positions.xlsx,stimuli.xlsx,stimuli/Social1.png,stimuli/Social2.png,stimuli/Nonsocial2.png,stimuli/Nonsocial1.png,,"(0.7, 0.5)",cs_plus_s,,,,,0,0,0,0,,,,,0,6,6,2,,,,,,,,,,,,,,,,,,,,,,,,,940.6612394999247,15,shock,1,0.2433404999319464,0.24334400007501245,940.9111883998848,,,,,,,,38,C,2023-12-20_09h51.36.095,gca_avoidance_task,2022.2.4,144.0052760984392,
positions.xlsx,stimuli.xlsx,stimuli/Social1.png,stimuli/Social2.png,stimuli/Nonsocial2.png,stimuli/Nonsocial1.png,,"(0.7, 0.5)",cs_plus_ns,,,,,0,0,0,0,,,,,0,7,7,10,,,,,,,,,,,,,,,,,,,,,,,,,949.9316765998956,15,shock,1,0.1666935000102967,0.16669730003923178,950.1052641998976,,,,,,,,38,C,2023-12-20_09h51.36.095,gca_avoidance_task,2022.2.4,144.0052760984392,
positions.xlsx,stimuli.xlsx,stimuli/Social1.png,stimuli/Social2.png,stimuli/Nonsocial2.png,stimuli/Nonsocial1.png,,"(-0.7, 0.5)",cs_minus_ns,,,,,0,0,0,0,,,,,0,8,8,12,,,,,,,,,,,,,,,,,,,,,,,,,959.0701814000495,15,none,0,,,964.0838989999611,,,,,,,,38,C,2023-12-20_09h51.36.095,gca_avoidance_task,2022.2.4,144.0052760984392,
positions.xlsx,stimuli.xlsx,stimuli/Social1.png,stimuli/Social2.png,stimuli/Nonsocial2.png,stimuli/Nonsocial1.png,,"(0.7, -0.5)",cs_minus_ns,,,,,0,0,0,0,,,,,0,9,9,15,,,,,,,,,,,,,,,,,,,,,,,,,973.623552700039,20,reward,1,0.5349342999979854,0.5349382001440972,974.1686040998902,,,,,,,,38,C,2023-12-20_09h51.36.095,gca_avoidance_task,2022.2.4,144.0052760984392,
positions.xlsx,stimuli.xlsx,stimuli/Social1.png,stimuli/Social2.png,stimuli/Nonsocial2.png,stimuli/Nonsocial1.png,,"(0.7, -0.5)",cs_minus_s,,,,,0,0,0,0,,,,,0,10,10,7,,,,,,,,,,,,,,,,,,,,,,,,,982.9085874999873,25,reward,1,0.5411172998137772,0.541121399961412,983.4537416000385,,,,,,,,38,C,2023-12-20_09h51.36.095,gca_avoidance_task,2022.2.4,144.0052760984392,
positions.xlsx,stimuli.xlsx,stimuli/Social1.png,stimuli/Social2.png,stimuli/Nonsocial2.png,stimuli/Nonsocial1.png,,"(-0.7, 0.5)",cs_plus_s,,,,,0,0,0,0,,,,,0,11,11,0,,,,,,,,,,,,,,,,,,,,,,,,,992.7266387999989,25,shock,1,0.3126640000846237,0.31266790023073554,993.0432688000146,,,,,,,,38,C,2023-12-20_09h51.36.095,gca_avoidance_task,2022.2.4,144.0052760984392,
positions.xlsx,stimuli.xlsx,stimuli/Social1.png,stimuli/Social2.png,stimuli/Nonsocial2.png,stimuli/Nonsocial1.png,,"(-0.7, 0.5)",cs_minus_s,,,,,0,0,0,0,,,,,0,12,12,4,,,,,,,,,,,,,,,,,,,,,,,,,1002.6355913998559,30,reward,1,0.3339054000098258,0.3339096000418067,1002.9757141000591,,,,,,,,38,C,2023-12-20_09h51.36.095,gca_avoidance_task,2022.2.4,144.0052760984392,
positions.xlsx,stimuli.xlsx,stimuli/Social1.png,stimuli/Social2.png,stimuli/Nonsocial2.png,stimuli/Nonsocial1.png,,"(-0.7, 0.5)",cs_plus_ns,,,,,0,0,0,0,,,,,0,13,13,8,,,,,,,,,,,,,,,,,,,,,,,,,1012.2410154999234,30,shock,1,0.3544327998533845,0.35443699988536537,1012.5985653998796,,,,,,,,38,C,2023-12-20_09h51.36.095,gca_avoidance_task,2022.2.4,144.0052760984392,
positions.xlsx,stimuli.xlsx,stimuli/Social1.png,stimuli/Social2.png,stimuli/Nonsocial2.png,stimuli/Nonsocial1.png,,"(-0.7, -0.5)",cs_plus_ns,,,,,0,0,0,0,,,,,0,14,14,9,,,,,,,,,,,,,,,,,,,,,,,,,1021.9904745998792,30,shock,1,0.7987146999221295,0.805291999829933,1022.7985461000353,,,,,,,,38,C,2023-12-20_09h51.36.095,gca_avoidance_task,2022.2.4,144.0052760984392,
positions.xlsx,stimuli.xlsx,stimuli/Social1.png,stimuli/Social2.png,stimuli/Nonsocial2.png,stimuli/Nonsocial1.png,,"(-0.7, -0.5)",cs_minus_ns,,,,,0,0,0,0,,,,,0,15,15,13,,,,,,,,,,,,,,,,,,,,,,,,,1032.045091100037,35,reward,1,0.35414379998110235,0.3541478000115603,1032.4052478000522,,,,,,,,38,C,2023-12-20_09h51.36.095,gca_avoidance_task,2022.2.4,144.0052760984392,
positions.xlsx,stimuli.xlsx,stimuli/Social1.png,stimuli/Social2.png,stimuli/Nonsocial2.png,stimuli/Nonsocial1.png,,"(0.7, -0.5)",cs_plus_ns,,,,,0,0,0,0,,,,,1,0,16,11,,,,,,,,,,,,,,,,,,,,,,,,,1042.2255633999594,35,shock,1,0.8616134999319911,0.8616172999609262,1043.0906857999507,,,,,,,,38,C,2023-12-20_09h51.36.095,gca_avoidance_task,2022.2.4,144.0052760984392,
positions.xlsx,stimuli.xlsx,stimuli/Social1.png,stimuli/Social2.png,stimuli/Nonsocial2.png,stimuli/Nonsocial1.png,,"(-0.7, 0.5)",cs_plus_ns,,,,,0,0,0,0,,,,,1,1,17,8,,,,,,,,,,,,,,,,,,,,,,,,,1052.2593550998718,35,shock,1,0.4930447000078857,0.49304850003682077,1052.7553508998826,,,,,,,,38,C,2023-12-20_09h51.36.095,gca_avoidance_task,2022.2.4,144.0052760984392,
positions.xlsx,stimuli.xlsx,stimuli/Social1.png,stimuli/Social2.png,stimuli/Nonsocial2.png,stimuli/Nonsocial1.png,,"(-0.7, 0.5)",cs_minus_ns,,,,,0,0,0,0,,,,,1,2,18,12,,,,,,,,,,,,,,,,,,,,,,,,,1062.0097510998603,40,reward,1,0.24328269995748997,0.24328669998794794,1062.2604622000363,,,,,,,,38,C,2023-12-20_09h51.36.095,gca_avoidance_task,2022.2.4,144.0052760984392,
positions.xlsx,stimuli.xlsx,stimuli/Social1.png,stimuli/Social2.png,stimuli/Nonsocial2.png,stimuli/Nonsocial1.png,,"(0.7, 0.5)",cs_plus_s,,,,,0,0,0,0,,,,,1,3,19,2,,,,,,,,,,,,,,,,,,,,,,,,,1071.0782889998518,40,shock,1,0.34763019997626543,0.3476342000067234,1071.4287451999262,,,,,,,,38,C,2023-12-20_09h51.36.095,gca_avoidance_task,2022.2.4,144.0052760984392,
positions.xlsx,stimuli.xlsx,stimuli/Social1.png,stimuli/Social2.png,stimuli/Nonsocial2.png,stimuli/Nonsocial1.png,,"(0.7, 0.5)",cs_plus_ns,,,,,0,0,0,0,,,,,1,4,20,10,,,,,,,,,,,,,,,,,,,,,,,,,1080.7304996000603,40,shock,1,0.2707636000122875,0.2707674000412226,1081.0040954998694,,,,,,,,38,C,2023-12-20_09h51.36.095,gca_avoidance_task,2022.2.4,144.0052760984392,
positions.xlsx,stimuli.xlsx,stimuli/Social1.png,stimuli/Social2.png,stimuli/Nonsocial2.png,stimuli/Nonsocial1.png,,"(0.7, -0.5)",cs_minus_s,,,,,0,0,0,0,,,,,1,5,21,7,,,,,,,,,,,,,,,,,,,,,,,,,1090.5423691999167,45,reward,1,0.8821718001272529,0.882175900042057,1091.4302850998938,,,,,,,,38,C,2023-12-20_09h51.36.095,gca_avoidance_task,2022.2.4,144.0052760984392,
positions.xlsx,stimuli.xlsx,stimuli/Social1.png,stimuli/Social2.png,stimuli/Nonsocial2.png,stimuli/Nonsocial1.png,,"(-0.7, -0.5)",cs_minus_ns,,,,,0,0,0,0,,,,,1,6,22,13,,,,,,,,,,,,,,,,,,,,,,,,,1101.6046819998883,50,reward,1,2.1253385001327842,2.125342500163242,1103.7353709000163,,,,,,,,38,C,2023-12-20_09h51.36.095,gca_avoidance_task,2022.2.4,144.0052760984392,
positions.xlsx,stimuli.xlsx,stimuli/Social1.png,stimuli/Social2.png,stimuli/Nonsocial2.png,stimuli/Nonsocial1.png,,"(-0.7, -0.5)",cs_plus_s,,,,,0,0,0,0,,,,,1,7,23,1,,,,,,,,,,,,,,,,,,,,,,,,,1112.5900952999946,50,shock,1,0.45899850013665855,0.46561109996400774,1113.059697699966,,,,,,,,38,C,2023-12-20_09h51.36.095,gca_avoidance_task,2022.2.4,144.0052760984392,
positions.xlsx,stimuli.xlsx,stimuli/Social1.png,stimuli/Social2.png,stimuli/Nonsocial2.png,stimuli/Nonsocial1.png,,"(-0.7, -0.5)",cs_plus_ns,,,,,0,0,0,0,,,,,1,8,24,9,,,,,,,,,,,,,,,,,,,,,,,,,1123.0292513000313,50,shock,1,0.3331800999585539,0.333184199873358,1123.3639612998813,,,,,,,,38,C,2023-12-20_09h51.36.095,gca_avoidance_task,2022.2.4,144.0052760984392,
positions.xlsx,stimuli.xlsx,stimuli/Social1.png,stimuli/Social2.png,stimuli/Nonsocial2.png,stimuli/Nonsocial1.png,,"(-0.7, -0.5)",cs_minus_s,,,,,0,0,0,0,,,,,1,9,25,5,,,,,,,,,,,,,,,,,,,,,,,,,1132.51283459994,55,reward,1,0.6394140000920743,0.6394181000068784,1133.1566182000097,,,,,,,,38,C,2023-12-20_09h51.36.095,gca_avoidance_task,2022.2.4,144.0052760984392,
positions.xlsx,stimuli.xlsx,stimuli/Social1.png,stimuli/Social2.png,stimuli/Nonsocial2.png,stimuli/Nonsocial1.png,,"(-0.7, 0.5)",cs_plus_s,,,,,0,0,0,0,,,,,1,10,26,0,,,,,,,,,,,,,,,,,,,,,,,,,1142.456500499975,55,shock,1,0.4516880998853594,0.4583985998760909,1142.919392599957,,,,,,,,38,C,2023-12-20_09h51.36.095,gca_avoidance_task,2022.2.4,144.0052760984392,
positions.xlsx,stimuli.xlsx,stimuli/Social1.png,stimuli/Social2.png,stimuli/Nonsocial2.png,stimuli/Nonsocial1.png,,"(0.7, 0.5)",cs_minus_ns,,,,,0,0,0,0,,,,,1,11,27,14,,,,,,,,,,,,,,,,,,,,,,,,,1152.1104810000397,60,reward,1,0.8892317998688668,0.8892359000165015,1153.0050757999998,,,,,,,,38,C,2023-12-20_09h51.36.095,gca_avoidance_task,2022.2.4,144.0052760984392,
positions.xlsx,stimuli.xlsx,stimuli/Social1.png,stimuli/Social2.png,stimuli/Nonsocial2.png,stimuli/Nonsocial1.png,,"(0.7, 0.5)",cs_minus_s,,,,,0,0,0,0,,,,,1,12,28,6,,,,,,,,,,,,,,,,,,,,,,,,,1162.4835953000002,65,reward,1,1.0773357001598924,1.0836917001288384,1163.571702099871,,,,,,,,38,C,2023-12-20_09h51.36.095,gca_avoidance_task,2022.2.4,144.0052760984392,
positions.xlsx,stimuli.xlsx,stimuli/Social1.png,stimuli/Social2.png,stimuli/Nonsocial2.png,stimuli/Nonsocial1.png,,"(0.7, -0.5)",cs_plus_s,,,,,0,0,0,0,,,,,1,13,29,3,,,,,,,,,,,,,,,,,,,,,,,,,1173.3717582998797,65,shock,1,0.3958888999186456,0.40275199990719557,1173.7796459998935,,,,,,,,38,C,2023-12-20_09h51.36.095,gca_avoidance_task,2022.2.4,144.0052760984392,
positions.xlsx,stimuli.xlsx,stimuli/Social1.png,stimuli/Social2.png,stimuli/Nonsocial2.png,stimuli/Nonsocial1.png,,"(-0.7, 0.5)",cs_minus_s,,,,,0,0,0,0,,,,,1,14,30,4,,,,,,,,,,,,,,,,,,,,,,,,,1183.3717318999115,70,reward,1,0.27073360001668334,0.27073749992996454,1183.653044699924,,,,,,,,38,C,2023-12-20_09h51.36.095,gca_avoidance_task,2022.2.4,144.0052760984392,
positions.xlsx,stimuli.xlsx,stimuli/Social1.png,stimuli/Social2.png,stimuli/Nonsocial2.png,stimuli/Nonsocial1.png,,"(0.7, -0.5)",cs_minus_ns,,,,,0,0,0,0,,,,,1,15,31,15,,,,,,,,,,,,,,,,,,,,,,,,,1192.4142849000636,75,reward,1,0.6183513000141829,0.6183557000476867,1193.0392539000604,,,,,,,,38,C,2023-12-20_09h51.36.095,gca_avoidance_task,2022.2.4,144.0052760984392,
positions.xlsx,stimuli.xlsx,stimuli/Social1.png,stimuli/Social2.png,stimuli/Nonsocial2.png,stimuli/Nonsocial1.png,,"(0.7, -0.5)",cs_plus_ns,,,,,0,0,0,0,,,,,,,,,0,0,0,11,,,,,,,,,,,,,,,,,,,,,1258.6817592999432,75,shock,1,0.6458912999369204,0.6458952999673784,1259.3318205999676,,,,,,,,38,C,2023-12-20_09h51.36.095,gca_avoidance_task,2022.2.4,144.0052760984392,
positions.xlsx,stimuli.xlsx,stimuli/Social1.png,stimuli/Social2.png,stimuli/Nonsocial2.png,stimuli/Nonsocial1.png,,"(0.7, -0.5)",cs_minus_ns,,,,,0,0,0,0,,,,,,,,,0,1,1,15,,,,,,,,,,,,,,,,,,,,,1268.857310499996,75,none,0,,,1273.8643701998517,,,,,,,,38,C,2023-12-20_09h51.36.095,gca_avoidance_task,2022.2.4,144.0052760984392,
positions.xlsx,stimuli.xlsx,stimuli/Social1.png,stimuli/Social2.png,stimuli/Nonsocial2.png,stimuli/Nonsocial1.png,,"(-0.7, 0.5)",cs_plus_s,,,,,0,0,0,0,,,,,,,,,0,2,2,0,,,,,,,,,,,,,,,,,,,,,1283.6811605000403,75,shock,1,2.8961596000008285,2.8961638999171555,1286.5789850999136,,,,,,,,38,C,2023-12-20_09h51.36.095,gca_avoidance_task,2022.2.4,144.0052760984392,
positions.xlsx,stimuli.xlsx,stimuli/Social1.png,stimuli/Social2.png,stimuli/Nonsocial2.png,stimuli/Nonsocial1.png,,"(-0.7, 0.5)",cs_minus_s,,,,,0,0,0,0,,,,,,,,,0,3,3,4,,,,,,,,,,,,,,,,,,,,,1296.6510804998688,80,reward,1,0.29920220002532005,0.2992063001729548,1296.9567746999674,,,,,,,,38,C,2023-12-20_09h51.36.095,gca_avoidance_task,2022.2.4,144.0052760984392,
positions.xlsx,stimuli.xlsx,stimuli/Social1.png,stimuli/Social2.png,stimuli/Nonsocial2.png,stimuli/Nonsocial1.png,,"(-0.7, -0.5)",cs_plus_s,,,,,0,0,0,0,,,,,,,,,0,4,4,1,,,,,,,,,,,,,,,,,,,,,1306.42008489999,80,shock,1,0.0071113999001681805,0.007115399930626154,1306.42008489999,,,,,,,,38,C,2023-12-20_09h51.36.095,gca_avoidance_task,2022.2.4,144.0052760984392,
positions.xlsx,stimuli.xlsx,stimuli/Social1.png,stimuli/Social2.png,stimuli/Nonsocial2.png,stimuli/Nonsocial1.png,,"(0.7, -0.5)",cs_minus_s,,,,,0,0,0,0,,,,,,,,,0,5,5,7,,,,,,,,,,,,,,,,,,,,,1315.3664957999717,85,reward,1,0.2850866001099348,0.29187140008434653,1315.6641150999349,,,,,,,,38,C,2023-12-20_09h51.36.095,gca_avoidance_task,2022.2.4,144.0052760984392,
positions.xlsx,stimuli.xlsx,stimuli/Social1.png,stimuli/Social2.png,stimuli/Nonsocial2.png,stimuli/Nonsocial1.png,,"(0.7, 0.5)",cs_plus_s,,,,,0,0,0,0,,,,,,,,,0,6,6,2,,,,,,,,,,,,,,,,,,,,,1324.9214073000476,85,none,0,,,1329.930380600039,,,,,,,,38,C,2023-12-20_09h51.36.095,gca_avoidance_task,2022.2.4,144.0052760984392,
positions.xlsx,stimuli.xlsx,stimuli/Social1.png,stimuli/Social2.png,stimuli/Nonsocial2.png,stimuli/Nonsocial1.png,,"(-0.7, -0.5)",cs_plus_ns,,,,,0,0,0,0,,,,,,,,,0,7,7,9,,,,,,,,,,,,,,,,,,,,,1340.1922931999434,85,shock,1,0.5209020001348108,0.5209061000496149,1340.7166903999168,,,,,,,,38,C,2023-12-20_09h51.36.095,gca_avoidance_task,2022.2.4,144.0052760984392,
positions.xlsx,stimuli.xlsx,stimuli/Social1.png,stimuli/Social2.png,stimuli/Nonsocial2.png,stimuli/Nonsocial1.png,,"(-0.7, -0.5)",cs_minus_s,,,,,0,0,0,0,,,,,,,,,0,8,8,5,,,,,,,,,,,,,,,,,,,,,1350.3651670999825,90,reward,1,0.09041720000095665,0.09042100002989173,1350.46188359987,,,,,,,,38,C,2023-12-20_09h51.36.095,gca_avoidance_task,2022.2.4,144.0052760984392,
positions.xlsx,stimuli.xlsx,stimuli/Social1.png,stimuli/Social2.png,stimuli/Nonsocial2.png,stimuli/Nonsocial1.png,,"(-0.7, 0.5)",cs_minus_ns,,,,,0,0,0,0,,,,,,,,,0,9,9,12,,,,,,,,,,,,,,,,,,,,,1359.8228807998821,95,reward,1,2.68084349995479,2.680847499985248,1362.508908599848,,,,,,,,38,C,2023-12-20_09h51.36.095,gca_avoidance_task,2022.2.4,144.0052760984392,
positions.xlsx,stimuli.xlsx,stimuli/Social1.png,stimuli/Social2.png,stimuli/Nonsocial2.png,stimuli/Nonsocial1.png,,"(0.7, -0.5)",cs_plus_s,,,,,0,0,0,0,,,,,,,,,0,10,10,3,,,,,,,,,,,,,,,,,,,,,1372.0456320999656,95,shock,1,0.36107490002177656,0.36107899993658066,1372.4101293999702,,,,,,,,38,C,2023-12-20_09h51.36.095,gca_avoidance_task,2022.2.4,144.0052760984392,
positions.xlsx,stimuli.xlsx,stimuli/Social1.png,stimuli/Social2.png,stimuli/Nonsocial2.png,stimuli/Nonsocial1.png,,"(-0.7, -0.5)",cs_minus_ns,,,,,0,0,0,0,,,,,,,,,0,11,11,13,,,,,,,,,,,,,,,,,,,,,1381.7323521000799,95,none,0,,,1386.740492099896,,,,,,,,38,C,2023-12-20_09h51.36.095,gca_avoidance_task,2022.2.4,144.0052760984392,
positions.xlsx,stimuli.xlsx,stimuli/Social1.png,stimuli/Social2.png,stimuli/Nonsocial2.png,stimuli/Nonsocial1.png,,"(0.7, 0.5)",cs_minus_ns,,,,,0,0,0,0,,,,,,,,,0,12,12,14,,,,,,,,,,,,,,,,,,,,,1395.7387035998981,95,none,0,,,1400.7541163999122,,,,,,,,38,C,2023-12-20_09h51.36.095,gca_avoidance_task,2022.2.4,144.0052760984392,
positions.xlsx,stimuli.xlsx,stimuli/Social1.png,stimuli/Social2.png,stimuli/Nonsocial2.png,stimuli/Nonsocial1.png,,"(-0.7, 0.5)",cs_plus_ns,,,,,0,0,0,0,,,,,,,,,0,13,13,8,,,,,,,,,,,,,,,,,,,,,1410.0454116000328,95,shock,1,1.30581309995614,1.3128140999469906,1411.364916099934,,,,,,,,38,C,2023-12-20_09h51.36.095,gca_avoidance_task,2022.2.4,144.0052760984392,
positions.xlsx,stimuli.xlsx,stimuli/Social1.png,stimuli/Social2.png,stimuli/Nonsocial2.png,stimuli/Nonsocial1.png,,"(0.7, 0.5)",cs_minus_s,,,,,0,0,0,0,,,,,,,,,0,14,14,6,,,,,,,,,,,,,,,,,,,,,1420.4686332999263,100,reward,1,0.3539611999876797,0.3539654999040067,1420.829778400017,,,,,,,,38,C,2023-12-20_09h51.36.095,gca_avoidance_task,2022.2.4,144.0052760984392,
positions.xlsx,stimuli.xlsx,stimuli/Social1.png,stimuli/Social2.png,stimuli/Nonsocial2.png,stimuli/Nonsocial1.png,,"(0.7, 0.5)",cs_plus_ns,,,,,0,0,0,0,,,,,,,,,0,15,15,10,,,,,,,,,,,,,,,,,,,,,1430.4543643998913,100,shock,1,2.6668121002148837,2.666815800126642,1433.1278591998853,,,,,,,,38,C,2023-12-20_09h51.36.095,gca_avoidance_task,2022.2.4,144.0052760984392,
positions.xlsx,stimuli.xlsx,stimuli/Social1.png,stimuli/Social2.png,stimuli/Nonsocial2.png,stimuli/Nonsocial1.png,,"(0.7, 0.5)",cs_minus_ns,,,,,0,0,0,0,,,,,,,,,1,0,16,14,,,,,,,,,,,,,,,,,,,,,1442.703892200021,100,none,0,,,1447.7106397000607,,,,,,,,38,C,2023-12-20_09h51.36.095,gca_avoidance_task,2022.2.4,144.0052760984392,
positions.xlsx,stimuli.xlsx,stimuli/Social1.png,stimuli/Social2.png,stimuli/Nonsocial2.png,stimuli/Nonsocial1.png,,"(-0.7, -0.5)",cs_plus_ns,,,,,0,0,0,0,,,,,,,,,1,1,17,9,,,,,,,,,,,,,,,,,,,,,1457.432442399906,100,shock,1,0.2571793000679463,0.2571831999812275,1457.6963444000576,,,,,,,,38,C,2023-12-20_09h51.36.095,gca_avoidance_task,2022.2.4,144.0052760984392,
positions.xlsx,stimuli.xlsx,stimuli/Social1.png,stimuli/Social2.png,stimuli/Nonsocial2.png,stimuli/Nonsocial1.png,,"(0.7, -0.5)",cs_minus_ns,,,,,0,0,0,0,,,,,,,,,1,2,18,15,,,,,,,,,,,,,,,,,,,,,1466.452912800014,100,none,0,,,1471.4597048999276,,,,,,,,38,C,2023-12-20_09h51.36.095,gca_avoidance_task,2022.2.4,144.0052760984392,
positions.xlsx,stimuli.xlsx,stimuli/Social1.png,stimuli/Social2.png,stimuli/Nonsocial2.png,stimuli/Nonsocial1.png,,"(0.7, 0.5)",cs_minus_s,,,,,0,0,0,0,,,,,,,,,1,3,19,6,,,,,,,,,,,,,,,,,,,,,1481.7161737999413,100,none,0,,,1486.7229593000375,,,,,,,,38,C,2023-12-20_09h51.36.095,gca_avoidance_task,2022.2.4,144.0052760984392,
positions.xlsx,stimuli.xlsx,stimuli/Social1.png,stimuli/Social2.png,stimuli/Nonsocial2.png,stimuli/Nonsocial1.png,,"(0.7, -0.5)",cs_minus_s,,,,,0,0,0,0,,,,,,,,,1,4,20,7,,,,,,,,,,,,,,,,,,,,,1496.0072981999256,100,none,0,,,1501.0141125000082,,,,,,,,38,C,2023-12-20_09h51.36.095,gca_avoidance_task,2022.2.4,144.0052760984392,
positions.xlsx,stimuli.xlsx,stimuli/Social1.png,stimuli/Social2.png,stimuli/Nonsocial2.png,stimuli/Nonsocial1.png,,"(-0.7, -0.5)",cs_minus_ns,,,,,0,0,0,0,,,,,,,,,1,5,21,13,,,,,,,,,,,,,,,,,,,,,1510.5345085998997,100,none,0,,,1515.5412498998921,,,,,,,,38,C,2023-12-20_09h51.36.095,gca_avoidance_task,2022.2.4,144.0052760984392,
positions.xlsx,stimuli.xlsx,stimuli/Social1.png,stimuli/Social2.png,stimuli/Nonsocial2.png,stimuli/Nonsocial1.png,,"(-0.7, -0.5)",cs_minus_s,,,,,0,0,0,0,,,,,,,,,1,6,22,5,,,,,,,,,,,,,,,,,,,,,1524.7422913999762,105,reward,1,0.4723188001662493,0.4723227000795305,1525.221478200052,,,,,,,,38,C,2023-12-20_09h51.36.095,gca_avoidance_task,2022.2.4,144.0052760984392,
positions.xlsx,stimuli.xlsx,stimuli/Social1.png,stimuli/Social2.png,stimuli/Nonsocial2.png,stimuli/Nonsocial1.png,,"(-0.7, 0.5)",cs_plus_ns,,,,,0,0,0,0,,,,,,,,,1,7,23,8,,,,,,,,,,,,,,,,,,,,,1534.3877369998954,105,shock,1,0.2573547998908907,0.2573605999350548,1534.6516183998901,,,,,,,,38,C,2023-12-20_09h51.36.095,gca_avoidance_task,2022.2.4,144.0052760984392,
positions.xlsx,stimuli.xlsx,stimuli/Social1.png,stimuli/Social2.png,stimuli/Nonsocial2.png,stimuli/Nonsocial1.png,,"(0.7, 0.5)",cs_plus_s,,,,,0,0,0,0,,,,,,,,,1,8,24,2,,,,,,,,,,,,,,,,,,,,,1543.880414400017,105,none,0,,,1548.8872080000583,,,,,,,,38,C,2023-12-20_09h51.36.095,gca_avoidance_task,2022.2.4,144.0052760984392,
positions.xlsx,stimuli.xlsx,stimuli/Social1.png,stimuli/Social2.png,stimuli/Nonsocial2.png,stimuli/Nonsocial1.png,,"(0.7, -0.5)",cs_plus_ns,,,,,0,0,0,0,,,,,,,,,1,9,25,11,,,,,,,,,,,,,,,,,,,,,1557.8451393998694,105,none,0,,,1562.8518959998619,,,,,,,,38,C,2023-12-20_09h51.36.095,gca_avoidance_task,2022.2.4,144.0052760984392,
positions.xlsx,stimuli.xlsx,stimuli/Social1.png,stimuli/Social2.png,stimuli/Nonsocial2.png,stimuli/Nonsocial1.png,,"(-0.7, 0.5)",cs_minus_ns,,,,,0,0,0,0,,,,,,,,,1,10,26,12,,,,,,,,,,,,,,,,,,,,,1572.5112862000242,105,none,0,,,1577.5179944999982,,,,,,,,38,C,2023-12-20_09h51.36.095,gca_avoidance_task,2022.2.4,144.0052760984392,
positions.xlsx,stimuli.xlsx,stimuli/Social1.png,stimuli/Social2.png,stimuli/Nonsocial2.png,stimuli/Nonsocial1.png,,"(-0.7, 0.5)",cs_plus_s,,,,,0,0,0,0,,,,,,,,,1,11,27,0,,,,,,,,,,,,,,,,,,,,,1586.7676567998715,105,none,0,,,1591.7743968998548,,,,,,,,38,C,2023-12-20_09h51.36.095,gca_avoidance_task,2022.2.4,144.0052760984392,
positions.xlsx,stimuli.xlsx,stimuli/Social1.png,stimuli/Social2.png,stimuli/Nonsocial2.png,stimuli/Nonsocial1.png,,"(0.7, -0.5)",cs_plus_s,,,,,0,0,0,0,,,,,,,,,1,12,28,3,,,,,,,,,,,,,,,,,,,,,1601.7253584999125,105,shock,1,0.27096110000275075,0.27096490003168583,1602.00314419996,,,,,,,,38,C,2023-12-20_09h51.36.095,gca_avoidance_task,2022.2.4,144.0052760984392,
positions.xlsx,stimuli.xlsx,stimuli/Social1.png,stimuli/Social2.png,stimuli/Nonsocial2.png,stimuli/Nonsocial1.png,,"(-0.7, 0.5)",cs_minus_s,,,,,0,0,0,0,,,,,,,,,1,13,29,4,,,,,,,,,,,,,,,,,,,,,1611.6416625999846,110,reward,1,0.2636889999266714,0.26369239995256066,1611.9124996999744,,,,,,,,38,C,2023-12-20_09h51.36.095,gca_avoidance_task,2022.2.4,144.0052760984392,
positions.xlsx,stimuli.xlsx,stimuli/Social1.png,stimuli/Social2.png,stimuli/Nonsocial2.png,stimuli/Nonsocial1.png,,"(-0.7, -0.5)",cs_plus_s,,,,,0,0,0,0,,,,,,,,,1,14,30,1,,,,,,,,,,,,,,,,,,,,,1621.5579365999438,110,shock,1,0.20166270015761256,0.20166680007241666,1621.7662462000735,,,,,,,,38,C,2023-12-20_09h51.36.095,gca_avoidance_task,2022.2.4,144.0052760984392,
positions.xlsx,stimuli.xlsx,stimuli/Social1.png,stimuli/Social2.png,stimuli/Nonsocial2.png,stimuli/Nonsocial1.png,,"(0.7, 0.5)",cs_plus_ns,,,,,0,0,0,0,,,,,,,,,1,15,31,10,,,,,,,,,,,,,,,,,,,,,1631.1825598999858,110,none,0,,,1636.1893332998734,,,,,,,,38,C,2023-12-20_09h51.36.095,gca_avoidance_task,2022.2.4,144.0052760984392,
positions.xlsx,stimuli.xlsx,stimuli/Social1.png,stimuli/Social2.png,stimuli/Nonsocial2.png,stimuli/Nonsocial1.png,,"(0.7, -0.5)",cs_minus_ns,,,,,0,0,0,0,,,,,,,,,2,0,32,15,,,,,,,,,,,,,,,,,,,,,1645.5014362998772,115,reward,1,1.7778670000843704,1.7778708001133054,1647.286100700032,,,,,,,,38,C,2023-12-20_09h51.36.095,gca_avoidance_task,2022.2.4,144.0052760984392,
positions.xlsx,stimuli.xlsx,stimuli/Social1.png,stimuli/Social2.png,stimuli/Nonsocial2.png,stimuli/Nonsocial1.png,,"(-0.7, -0.5)",cs_plus_ns,,,,,0,0,0,0,,,,,,,,,2,1,33,9,,,,,,,,,,,,,,,,,,,,,1657.6815404000226,115,shock,1,0.17329029995016754,0.17329369997605681,1657.8620690000243,,,,,,,,38,C,2023-12-20_09h51.36.095,gca_avoidance_task,2022.2.4,144.0052760984392,
positions.xlsx,stimuli.xlsx,stimuli/Social1.png,stimuli/Social2.png,stimuli/Nonsocial2.png,stimuli/Nonsocial1.png,,"(-0.7, 0.5)",cs_plus_s,,,,,0,0,0,0,,,,,,,,,2,2,34,0,,,,,,,,,,,,,,,,,,,,,1666.9797942999285,115,none,0,,,1671.98651229986,,,,,,,,38,C,2023-12-20_09h51.36.095,gca_avoidance_task,2022.2.4,144.0052760984392,
positions.xlsx,stimuli.xlsx,stimuli/Social1.png,stimuli/Social2.png,stimuli/Nonsocial2.png,stimuli/Nonsocial1.png,,"(-0.7, 0.5)",cs_plus_ns,,,,,0,0,0,0,,,,,,,,,2,3,35,8,,,,,,,,,,,,,,,,,,,,,1681.4167015000712,115,none,0,,,1686.4234461998567,,,,,,,,38,C,2023-12-20_09h51.36.095,gca_avoidance_task,2022.2.4,144.0052760984392,
positions.xlsx,stimuli.xlsx,stimuli/Social1.png,stimuli/Social2.png,stimuli/Nonsocial2.png,stimuli/Nonsocial1.png,,"(0.7, -0.5)",cs_plus_ns,,,,,0,0,0,0,,,,,,,,,2,4,36,11,,,,,,,,,,,,,,,,,,,,,1695.6175327000674,115,none,0,,,1700.6242662000004,,,,,,,,38,C,2023-12-20_09h51.36.095,gca_avoidance_task,2022.2.4,144.0052760984392,
positions.xlsx,stimuli.xlsx,stimuli/Social1.png,stimuli/Social2.png,stimuli/Nonsocial2.png,stimuli/Nonsocial1.png,,"(-0.7, -0.5)",cs_plus_s,,,,,0,0,0,0,,,,,,,,,2,5,37,1,,,,,,,,,,,,,,,,,,,,,1709.7350446998607,115,shock,1,0.3545854000840336,0.3545892999973148,1710.0961452000774,,,,,,,,38,C,2023-12-20_09h51.36.095,gca_avoidance_task,2022.2.4,144.0052760984392,
positions.xlsx,stimuli.xlsx,stimuli/Social1.png,stimuli/Social2.png,stimuli/Nonsocial2.png,stimuli/Nonsocial1.png,,"(0.7, -0.5)",cs_minus_s,,,,,0,0,0,0,,,,,,,,,2,6,38,7,,,,,,,,,,,,,,,,,,,,,1719.6374367999379,115,none,0,,,1724.6441881000064,,,,,,,,38,C,2023-12-20_09h51.36.095,gca_avoidance_task,2022.2.4,144.0052760984392,
positions.xlsx,stimuli.xlsx,stimuli/Social1.png,stimuli/Social2.png,stimuli/Nonsocial2.png,stimuli/Nonsocial1.png,,"(-0.7, 0.5)",cs_minus_ns,,,,,0,0,0,0,,,,,,,,,2,7,39,12,,,,,,,,,,,,,,,,,,,,,1734.4562814999372,120,reward,1,0.45154729997739196,0.45155110000632703,1734.9146426999941,,,,,,,,38,C,2023-12-20_09h51.36.095,gca_avoidance_task,2022.2.4,144.0052760984392,
positions.xlsx,stimuli.xlsx,stimuli/Social1.png,stimuli/Social2.png,stimuli/Nonsocial2.png,stimuli/Nonsocial1.png,,"(0.7, 0.5)",cs_minus_ns,,,,,0,0,0,0,,,,,,,,,2,8,40,14,,,,,,,,,,,,,,,,,,,,,1744.7128256999422,125,reward,1,0.31980110006406903,0.31980479997582734,1745.0392245000694,,,,,,,,38,C,2023-12-20_09h51.36.095,gca_avoidance_task,2022.2.4,144.0052760984392,
positions.xlsx,stimuli.xlsx,stimuli/Social1.png,stimuli/Social2.png,stimuli/Nonsocial2.png,stimuli/Nonsocial1.png,,"(0.7, 0.5)",cs_plus_ns,,,,,0,0,0,0,,,,,,,,,2,9,41,10,,,,,,,,,,,,,,,,,,,,,1754.6013203000184,125,shock,1,0.9376084001269192,0.9376120001543313,1755.5457584999967,,,,,,,,38,C,2023-12-20_09h51.36.095,gca_avoidance_task,2022.2.4,144.0052760984392,
positions.xlsx,stimuli.xlsx,stimuli/Social1.png,stimuli/Social2.png,stimuli/Nonsocial2.png,stimuli/Nonsocial1.png,,"(0.7, -0.5)",cs_plus_s,,,,,0,0,0,0,,,,,,,,,2,10,42,3,,,,,,,,,,,,,,,,,,,,,1765.5870363998692,125,none,0,,,1770.5937477999832,,,,,,,,38,C,2023-12-20_09h51.36.095,gca_avoidance_task,2022.2.4,144.0052760984392,
positions.xlsx,stimuli.xlsx,stimuli/Social1.png,stimuli/Social2.png,stimuli/Nonsocial2.png,stimuli/Nonsocial1.png,,"(-0.7, -0.5)",cs_minus_ns,,,,,0,0,0,0,,,,,,,,,2,11,43,13,,,,,,,,,,,,,,,,,,,,,1780.1906133999582,125,none,0,,,1785.197353699943,,,,,,,,38,C,2023-12-20_09h51.36.095,gca_avoidance_task,2022.2.4,144.0052760984392,
positions.xlsx,stimuli.xlsx,stimuli/Social1.png,stimuli/Social2.png,stimuli/Nonsocial2.png,stimuli/Nonsocial1.png,,"(-0.7, 0.5)",cs_minus_s,,,,,0,0,0,0,,,,,,,,,2,12,44,4,,,,,,,,,,,,,,,,,,,,,1795.3566767999437,125,none,0,,,1800.363426099997,,,,,,,,38,C,2023-12-20_09h51.36.095,gca_avoidance_task,2022.2.4,144.0052760984392,
positions.xlsx,stimuli.xlsx,stimuli/Social1.png,stimuli/Social2.png,stimuli/Nonsocial2.png,stimuli/Nonsocial1.png,,"(0.7, 0.5)",cs_plus_s,,,,,0,0,0,0,,,,,,,,,2,13,45,2,,,,,,,,,,,,,,,,,,,,,1809.5228001999203,125,shock,1,0.27802129997871816,0.27802519989199936,1809.8005941000301,,,,,,,,38,C,2023-12-20_09h51.36.095,gca_avoidance_task,2022.2.4,144.0052760984392,
positions.xlsx,stimuli.xlsx,stimuli/Social1.png,stimuli/Social2.png,stimuli/Nonsocial2.png,stimuli/Nonsocial1.png,,"(0.7, 0.5)",cs_minus_s,,,,,0,0,0,0,,,,,,,,,2,14,46,6,,,,,,,,,,,,,,,,,,,,,1819.4182561000343,125,none,0,,,1824.4250344000757,,,,,,,,38,C,2023-12-20_09h51.36.095,gca_avoidance_task,2022.2.4,144.0052760984392,
positions.xlsx,stimuli.xlsx,stimuli/Social1.png,stimuli/Social2.png,stimuli/Nonsocial2.png,stimuli/Nonsocial1.png,,"(-0.7, -0.5)",cs_minus_s,,,,,0,0,0,0,,,,,,,,,2,15,47,5,,,,,,,,,,,,,,,,,,,,,1833.7023924000096,130,reward,1,1.5420961999334395,1.5420999999623746,1835.2509814000223,,,,,,,,38,C,2023-12-20_09h51.36.095,gca_avoidance_task,2022.2.4,144.0052760984392,
positions.xlsx,stimuli.xlsx,stimuli/Social1.png,stimuli/Social2.png,stimuli/Nonsocial2.png,stimuli/Nonsocial1.png,,"(0.7, -0.5)",cs_minus_s,,,,,0,0,0,0,,,,,,,,,3,0,48,7,,,,,,,,,,,,,,,,,,,,,1844.9797245999798,130,none,0,,,1849.9865256000776,,,,,,,,38,C,2023-12-20_09h51.36.095,gca_avoidance_task,2022.2.4,144.0052760984392,
positions.xlsx,stimuli.xlsx,stimuli/Social1.png,stimuli/Social2.png,stimuli/Nonsocial2.png,stimuli/Nonsocial1.png,,"(0.7, 0.5)",cs_plus_ns,,,,,0,0,0,0,,,,,,,,,3,1,49,10,,,,,,,,,,,,,,,,,,,,,1859.7083155999426,130,none,0,,,1864.7150924999733,,,,,,,,38,C,2023-12-20_09h51.36.095,gca_avoidance_task,2022.2.4,144.0052760984392,
positions.xlsx,stimuli.xlsx,stimuli/Social1.png,stimuli/Social2.png,stimuli/Nonsocial2.png,stimuli/Nonsocial1.png,,"(-0.7, -0.5)",cs_plus_s,,,,,0,0,0,0,,,,,,,,,3,2,50,1,,,,,,,,,,,,,,,,,,,,,1873.7424788000062,130,none,0,,,1878.7492486999836,,,,,,,,38,C,2023-12-20_09h51.36.095,gca_avoidance_task,2022.2.4,144.0052760984392,
positions.xlsx,stimuli.xlsx,stimuli/Social1.png,stimuli/Social2.png,stimuli/Nonsocial2.png,stimuli/Nonsocial1.png,,"(0.7, -0.5)",cs_plus_s,,,,,0,0,0,0,,,,,,,,,3,3,51,3,,,,,,,,,,,,,,,,,,,,,1888.4780464000069,130,shock,1,0.47919850004836917,0.4792019999586046,1888.9572048999835,,,,,,,,38,C,2023-12-20_09h51.36.095,gca_avoidance_task,2022.2.4,144.0052760984392,
positions.xlsx,stimuli.xlsx,stimuli/Social1.png,stimuli/Social2.png,stimuli/Nonsocial2.png,stimuli/Nonsocial1.png,,"(0.7, 0.5)",cs_minus_s,,,,,0,0,0,0,,,,,,,,,3,4,52,6,,,,,,,,,,,,,,,,,,,,,1898.7207166000735,130,none,0,,,1903.727443800075,,,,,,,,38,C,2023-12-20_09h51.36.095,gca_avoidance_task,2022.2.4,144.0052760984392,
positions.xlsx,stimuli.xlsx,stimuli/Social1.png,stimuli/Social2.png,stimuli/Nonsocial2.png,stimuli/Nonsocial1.png,,"(-0.7, 0.5)",cs_minus_s,,,,,0,0,0,0,,,,,,,,,3,5,53,4,,,,,,,,,,,,,,,,,,,,,1913.4007170998957,130,none,0,,,1918.4074371000752,,,,,,,,38,C,2023-12-20_09h51.36.095,gca_avoidance_task,2022.2.4,144.0052760984392,
positions.xlsx,stimuli.xlsx,stimuli/Social1.png,stimuli/Social2.png,stimuli/Nonsocial2.png,stimuli/Nonsocial1.png,,"(-0.7, 0.5)",cs_plus_ns,,,,,0,0,0,0,,,,,,,,,3,6,54,8,,,,,,,,,,,,,,,,,,,,,1927.5459624999203,130,none,0,,,1932.5527194000315,,,,,,,,38,C,2023-12-20_09h51.36.095,gca_avoidance_task,2022.2.4,144.0052760984392,
positions.xlsx,stimuli.xlsx,stimuli/Social1.png,stimuli/Social2.png,stimuli/Nonsocial2.png,stimuli/Nonsocial1.png,,"(0.7, 0.5)",cs_plus_s,,,,,0,0,0,0,,,,,,,,,3,7,55,2,,,,,,,,,,,,,,,,,,,,,1942.2051245998591,130,shock,1,0.3613978000357747,0.3614012999460101,1942.5731591999065,,,,,,,,38,C,2023-12-20_09h51.36.095,gca_avoidance_task,2022.2.4,144.0052760984392,
positions.xlsx,stimuli.xlsx,stimuli/Social1.png,stimuli/Social2.png,stimuli/Nonsocial2.png,stimuli/Nonsocial1.png,,"(-0.7, -0.5)",cs_minus_s,,,,,0,0,0,0,,,,,,,,,3,8,56,5,,,,,,,,,,,,,,,,,,,,,1951.9339075998869,135,reward,1,0.31284509995020926,0.31284879986196756,1952.253420899855,,,,,,,,38,C,2023-12-20_09h51.36.095,gca_avoidance_task,2022.2.4,144.0052760984392,
positions.xlsx,stimuli.xlsx,stimuli/Social1.png,stimuli/Social2.png,stimuli/Nonsocial2.png,stimuli/Nonsocial1.png,,"(-0.7, -0.5)",cs_minus_ns,,,,,0,0,0,0,,,,,,,,,3,9,57,13,,,,,,,,,,,,,,,,,,,,,1962.5029402999207,140,reward,1,1.0837215001229197,1.0837253001518548,1963.59315719991,,,,,,,,38,C,2023-12-20_09h51.36.095,gca_avoidance_task,2022.2.4,144.0052760984392,
positions.xlsx,stimuli.xlsx,stimuli/Social1.png,stimuli/Social2.png,stimuli/Nonsocial2.png,stimuli/Nonsocial1.png,,"(0.7, 0.5)",cs_minus_ns,,,,,0,0,0,0,,,,,,,,,3,10,58,14,,,,,,,,,,,,,,,,,,,,,1972.5164701999165,145,reward,1,0.6667063999921083,0.6667104000225663,1973.1900227000006,,,,,,,,38,C,2023-12-20_09h51.36.095,gca_avoidance_task,2022.2.4,144.0052760984392,
positions.xlsx,stimuli.xlsx,stimuli/Social1.png,stimuli/Social2.png,stimuli/Nonsocial2.png,stimuli/Nonsocial1.png,,"(0.7, -0.5)",cs_minus_ns,,,,,0,0,0,0,,,,,,,,,3,11,59,15,,,,,,,,,,,,,,,,,,,,,1983.3076897000428,150,reward,1,0.3127166999038309,0.31272009992972016,1983.627093899995,,,,,,,,38,C,2023-12-20_09h51.36.095,gca_avoidance_task,2022.2.4,144.0052760984392,
positions.xlsx,stimuli.xlsx,stimuli/Social1.png,stimuli/Social2.png,stimuli/Nonsocial2.png,stimuli/Nonsocial1.png,,"(-0.7, 0.5)",cs_minus_ns,,,,,0,0,0,0,,,,,,,,,3,12,60,12,,,,,,,,,,,,,,,,,,,,,1992.876747299917,155,reward,1,0.2642459999769926,0.2642498998902738,1993.1475629999768,,,,,,,,38,C,2023-12-20_09h51.36.095,gca_avoidance_task,2022.2.4,144.0052760984392,
positions.xlsx,stimuli.xlsx,stimuli/Social1.png,stimuli/Social2.png,stimuli/Nonsocial2.png,stimuli/Nonsocial1.png,,"(-0.7, -0.5)",cs_plus_ns,,,,,0,0,0,0,,,,,,,,,3,13,61,9,,,,,,,,,,,,,,,,,,,,,2002.9874605999794,155,shock,1,0.2640292001888156,0.2640327999833971,2003.2582936999388,,,,,,,,38,C,2023-12-20_09h51.36.095,gca_avoidance_task,2022.2.4,144.0052760984392,
positions.xlsx,stimuli.xlsx,stimuli/Social1.png,stimuli/Social2.png,stimuli/Nonsocial2.png,stimuli/Nonsocial1.png,,"(0.7, -0.5)",cs_plus_ns,,,,,0,0,0,0,,,,,,,,,3,14,62,11,,,,,,,,,,,,,,,,,,,,,2012.9454010999762,155,shock,1,0.2850893000140786,0.28509340016171336,2013.2370599999558,,,,,,,,38,C,2023-12-20_09h51.36.095,gca_avoidance_task,2022.2.4,144.0052760984392,
positions.xlsx,stimuli.xlsx,stimuli/Social1.png,stimuli/Social2.png,stimuli/Nonsocial2.png,stimuli/Nonsocial1.png,,"(-0.7, 0.5)",cs_plus_s,,,,,0,0,0,0,,,,,,,,,3,15,63,0,,,,,,,,,,,,,,,,,,,,,2022.882507900009,155,shock,1,0.5489592999219894,0.5560522999148816,2023.444991499884,,,,,,,,38,C,2023-12-20_09h51.36.095,gca_avoidance_task,2022.2.4,144.0052760984392,
positions.xlsx,stimuli.xlsx,stimuli/Social1.png,stimuli/Social2.png,stimuli/Nonsocial2.png,stimuli/Nonsocial1.png,,"(-0.7, 0.5)",cs_minus_ns,,,,,0,0,0,0,,,,,,,,,4,0,64,12,,,,,,,,,,,,,,,,,,,,,2032.6807480999269,160,reward,1,2.396328500006348,2.396332300035283,2035.083424499957,,,,,,,,38,C,2023-12-20_09h51.36.095,gca_avoidance_task,2022.2.4,144.0052760984392,
positions.xlsx,stimuli.xlsx,stimuli/Social1.png,stimuli/Social2.png,stimuli/Nonsocial2.png,stimuli/Nonsocial1.png,,"(-0.7, 0.5)",cs_plus_s,,,,,0,0,0,0,,,,,,,,,4,1,65,0,,,,,,,,,,,,,,,,,,,,,2044.5482977998909,160,shock,1,3.798759799916297,3.7987632998265326,2048.3537711000536,,,,,,,,38,C,2023-12-20_09h51.36.095,gca_avoidance_task,2022.2.4,144.0052760984392,
positions.xlsx,stimuli.xlsx,stimuli/Social1.png,stimuli/Social2.png,stimuli/Nonsocial2.png,stimuli/Nonsocial1.png,,"(-0.7, -0.5)",cs_plus_s,,,,,0,0,0,0,,,,,,,,,4,2,66,1,,,,,,,,,,,,,,,,,,,,,2058.4019563000184,160,shock,1,0.24293579999357462,0.2429396000225097,2058.645025699865,,,,,,,,38,C,2023-12-20_09h51.36.095,gca_avoidance_task,2022.2.4,144.0052760984392,
positions.xlsx,stimuli.xlsx,stimuli/Social1.png,stimuli/Social2.png,stimuli/Nonsocial2.png,stimuli/Nonsocial1.png,,"(0.7, 0.5)",cs_plus_ns,,,,,0,0,0,0,,,,,,,,,4,3,67,10,,,,,,,,,,,,,,,,,,,,,2068.8251614000183,160,shock,1,1.2710645999759436,1.2710684998892248,2070.1028878998477,,,,,,,,38,C,2023-12-20_09h51.36.095,gca_avoidance_task,2022.2.4,144.0052760984392,
positions.xlsx,stimuli.xlsx,stimuli/Social1.png,stimuli/Social2.png,stimuli/Nonsocial2.png,stimuli/Nonsocial1.png,,"(-0.7, -0.5)",cs_plus_ns,,,,,0,0,0,0,,,,,,,,,4,4,68,9,,,,,,,,,,,,,,,,,,,,,2079.484496799996,160,shock,1,1.236490299925208,1.2364938999526203,2080.727473099949,,,,,,,,38,C,2023-12-20_09h51.36.095,gca_avoidance_task,2022.2.4,144.0052760984392,
positions.xlsx,stimuli.xlsx,stimuli/Social1.png,stimuli/Social2.png,stimuli/Nonsocial2.png,stimuli/Nonsocial1.png,,"(0.7, 0.5)",cs_plus_s,,,,,0,0,0,0,,,,,,,,,4,5,69,2,,,,,,,,,,,,,,,,,,,,,2090.560417599976,160,none,0,,,2095.5671703000553,,,,,,,,38,C,2023-12-20_09h51.36.095,gca_avoidance_task,2022.2.4,144.0052760984392,
positions.xlsx,stimuli.xlsx,stimuli/Social1.png,stimuli/Social2.png,stimuli/Nonsocial2.png,stimuli/Nonsocial1.png,,"(-0.7, -0.5)",cs_minus_ns,,,,,0,0,0,0,,,,,,,,,4,6,70,13,,,,,,,,,,,,,,,,,,,,,2105.587608899921,165,reward,1,0.36114130006171763,0.36114489985629916,2105.9556497999,,,,,,,,38,C,2023-12-20_09h51.36.095,gca_avoidance_task,2022.2.4,144.0052760984392,
positions.xlsx,stimuli.xlsx,stimuli/Social1.png,stimuli/Social2.png,stimuli/Nonsocial2.png,stimuli/Nonsocial1.png,,"(0.7, 0.5)",cs_minus_ns,,,,,0,0,0,0,,,,,,,,,4,7,71,14,,,,,,,,,,,,,,,,,,,,,2115.4830525999423,170,reward,1,1.8616672998759896,1.8616713997907937,2117.3510592000093,,,,,,,,38,C,2023-12-20_09h51.36.095,gca_avoidance_task,2022.2.4,144.0052760984392,
positions.xlsx,stimuli.xlsx,stimuli/Social1.png,stimuli/Social2.png,stimuli/Nonsocial2.png,stimuli/Nonsocial1.png,,"(0.7, 0.5)",cs_minus_s,,,,,0,0,0,0,,,,,,,,,4,8,72,6,,,,,,,,,,,,,,,,,,,,,2127.5242480000015,175,reward,1,0.6179611999541521,0.6179649999830872,2128.1492427000776,,,,,,,,38,C,2023-12-20_09h51.36.095,gca_avoidance_task,2022.2.4,144.0052760984392,
positions.xlsx,stimuli.xlsx,stimuli/Social1.png,stimuli/Social2.png,stimuli/Nonsocial2.png,stimuli/Nonsocial1.png,,"(0.7, -0.5)",cs_plus_ns,,,,,0,0,0,0,,,,,,,,,4,9,73,11,,,,,,,,,,,,,,,,,,,,,2137.4058497999795,175,none,0,,,2142.412584699923,,,,,,,,38,C,2023-12-20_09h51.36.095,gca_avoidance_task,2022.2.4,144.0052760984392,
positions.xlsx,stimuli.xlsx,stimuli/Social1.png,stimuli/Social2.png,stimuli/Nonsocial2.png,stimuli/Nonsocial1.png,,"(0.7, -0.5)",cs_minus_ns,,,,,0,0,0,0,,,,,,,,,4,10,74,15,,,,,,,,,,,,,,,,,,,,,2152.09273439995,180,reward,1,0.8059356999583542,0.8059392999857664,2152.9052069999743,,,,,,,,38,C,2023-12-20_09h51.36.095,gca_avoidance_task,2022.2.4,144.0052760984392,
positions.xlsx,stimuli.xlsx,stimuli/Social1.png,stimuli/Social2.png,stimuli/Nonsocial2.png,stimuli/Nonsocial1.png,,"(-0.7, -0.5)",cs_minus_s,,,,,0,0,0,0,,,,,,,,,4,11,75,5,,,,,,,,,,,,,,,,,,,,,2162.5367475000676,185,reward,1,0.6742159000132233,0.6742197999265045,2163.217314600013,,,,,,,,38,C,2023-12-20_09h51.36.095,gca_avoidance_task,2022.2.4,144.0052760984392,
positions.xlsx,stimuli.xlsx,stimuli/Social1.png,stimuli/Social2.png,stimuli/Nonsocial2.png,stimuli/Nonsocial1.png,,"(0.7, -0.5)",cs_plus_s,,,,,0,0,0,0,,,,,,,,,4,12,76,3,,,,,,,,,,,,,,,,,,,,,2172.4808805999346,185,shock,1,0.3609515998978168,0.3678747999947518,2172.855865600053,,,,,,,,38,C,2023-12-20_09h51.36.095,gca_avoidance_task,2022.2.4,144.0052760984392,
positions.xlsx,stimuli.xlsx,stimuli/Social1.png,stimuli/Social2.png,stimuli/Nonsocial2.png,stimuli/Nonsocial1.png,,"(-0.7, 0.5)",cs_plus_ns,,,,,0,0,0,0,,,,,,,,,4,13,77,8,,,,,,,,,,,,,,,,,,,,,2182.5012725999113,185,shock,1,0.34756110003218055,0.34756499994546175,2182.855431600008,,,,,,,,38,C,2023-12-20_09h51.36.095,gca_avoidance_task,2022.2.4,144.0052760984392,
positions.xlsx,stimuli.xlsx,stimuli/Social1.png,stimuli/Social2.png,stimuli/Nonsocial2.png,stimuli/Nonsocial1.png,,"(0.7, -0.5)",cs_minus_s,,,,,0,0,0,0,,,,,,,,,4,14,78,7,,,,,,,,,,,,,,,,,,,,,2191.9175710999407,190,reward,1,1.4722245000302792,1.4722281999420375,2193.396705799969,,,,,,,,38,C,2023-12-20_09h51.36.095,gca_avoidance_task,2022.2.4,144.0052760984392,
positions.xlsx,stimuli.xlsx,stimuli/Social1.png,stimuli/Social2.png,stimuli/Nonsocial2.png,stimuli/Nonsocial1.png,,"(-0.7, 0.5)",cs_minus_s,,,,,0,0,0,0,,,,,,,,,4,15,79,4,,,,,,,,,,,,,,,,,,,,,2202.6810651998967,195,reward,1,0.5972877999302,0.5972913999576122,2203.2851879999507,,,,,,,,38,C,2023-12-20_09h51.36.095,gca_avoidance_task,2022.2.4,144.0052760984392,
positions.xlsx,stimuli.xlsx,stimuli/Social1.png,stimuli/Social2.png,stimuli/Nonsocial2.png,stimuli/Nonsocial1.png,cs_minus_ns,,,,,,,0,0,0,0,,,,,,,,,,,,,0,0,0,3,,,,,,,,,,,,,2218.1179478999693,6.0,4.355723099783063,,,,,,,,,5.0,6.722523200092837,,,,,,38,C,2023-12-20_09h51.36.095,gca_avoidance_task,2022.2.4,144.0052760984392,
positions.xlsx,stimuli.xlsx,stimuli/Social1.png,stimuli/Social2.png,stimuli/Nonsocial2.png,stimuli/Nonsocial1.png,cs_minus_s,,,,,,,0,0,0,0,,,,,,,,,,,,,0,1,1,2,,,,,,,,,,,,,2222.923316499917,6.0,1.653615899849683,,,,,,,,,,,,,,,,38,C,2023-12-20_09h51.36.095,gca_avoidance_task,2022.2.4,144.0052760984392,
positions.xlsx,stimuli.xlsx,stimuli/Social1.png,stimuli/Social2.png,stimuli/Nonsocial2.png,stimuli/Nonsocial1.png,cs_plus_s,,,,,,,0,0,0,0,,,,,,,,,,,,,0,2,2,0,,,,,,,,,,,,,2224.916308199987,1.0,6.104490900179371,,,,,,,,,,,,,,,,38,C,2023-12-20_09h51.36.095,gca_avoidance_task,2022.2.4,144.0052760984392,
positions.xlsx,stimuli.xlsx,stimuli/Social1.png,stimuli/Social2.png,stimuli/Nonsocial2.png,stimuli/Nonsocial1.png,cs_plus_ns,,,,,,,0,0,0,0,,,,,,,,,,,,,0,3,3,1,,,,,,,,,,,,,2231.346606799867,2.0,1.4933700000401586,,,,,,,,,,,,,,,,38,C,2023-12-20_09h51.36.095,gca_avoidance_task,2022.2.4,144.0052760984392,
positions.xlsx,stimuli.xlsx,stimuli/Social1.png,stimuli/Social2.png,stimuli/Nonsocial2.png,stimuli/Nonsocial1.png,cs_minus_s,,,,,,,0,0,0,0,,,,,,,,,,,,,,,,,0,0,0,2,,,,,,,,,,,,,,,,,,,,,,2233.1520760999992,2234.8464860999957,10,0.02254260005429387,0.6112591000273824,38,C,2023-12-20_09h51.36.095,gca_avoidance_task,2022.2.4,144.0052760984392,
positions.xlsx,stimuli.xlsx,stimuli/Social1.png,stimuli/Social2.png,stimuli/Nonsocial2.png,stimuli/Nonsocial1.png,cs_minus_ns,,,,,,,0,0,0,0,,,,,,,,,,,,,,,,,0,1,1,3,,,,,,,,,,,,,,,,,,,,,,,2249.3875760000665,8,0.013546100119128823,1.2293987001758069,38,C,2023-12-20_09h51.36.095,gca_avoidance_task,2022.2.4,144.0052760984392,
positions.xlsx,stimuli.xlsx,stimuli/Social1.png,stimuli/Social2.png,stimuli/Nonsocial2.png,stimuli/Nonsocial1.png,cs_plus_s,,,,,,,0,0,0,0,,,,,,,,,,,,,,,,,0,2,2,0,,,,,,,,,,,,,,,,,,,,,,,2264.067550800042,4,0.01328850002028048,0.07681829994544387,38,C,2023-12-20_09h51.36.095,gca_avoidance_task,2022.2.4,144.0052760984392,
positions.xlsx,stimuli.xlsx,stimuli/Social1.png,stimuli/Social2.png,stimuli/Nonsocial2.png,stimuli/Nonsocial1.png,cs_plus_ns,,,,,,,0,0,0,0,,,,,,,,,,,,,,,,,0,3,3,1,,,,,,,,,,,,,,,,,,,,,,,2279.066970200045,8,0.014889599988237023,2.1529827998019755,38,C,2023-12-20_09h51.36.095,gca_avoidance_task,2022.2.4,144.0052760984392,
positions.xlsx,stimuli.xlsx,stimuli/Social1.png,stimuli/Social2.png,stimuli/Nonsocial2.png,stimuli/Nonsocial1.png,cs_minus_ns,,,,,,,0,0,0,0,,,,,,,,,,,,,,,,,1,0,4,3,,,,,,,,,,,,,,,,,,,,,,,2293.6914286999963,12,0.01405279990285635,0.04907929990440607,38,C,2023-12-20_09h51.36.095,gca_avoidance_task,2022.2.4,144.0052760984392,
positions.xlsx,stimuli.xlsx,stimuli/Social1.png,stimuli/Social2.png,stimuli/Nonsocial2.png,stimuli/Nonsocial1.png,cs_plus_ns,,,,,,,0,0,0,0,,,,,,,,,,,,,,,,,1,1,5,1,,,,,,,,,,,,,,,,,,,,,,,2308.3644319998566,9,0.04947449988685548,0.5768248001113534,38,C,2023-12-20_09h51.36.095,gca_avoidance_task,2022.2.4,144.0052760984392,
positions.xlsx,stimuli.xlsx,stimuli/Social1.png,stimuli/Social2.png,stimuli/Nonsocial2.png,stimuli/Nonsocial1.png,cs_plus_s,,,,,,,0,0,0,0,,,,,,,,,,,,,,,,,1,2,6,0,,,,,,,,,,,,,,,,,,,,,,,2323.8082747000735,7,0.013670600019395351,0.7920467001385987,38,C,2023-12-20_09h51.36.095,gca_avoidance_task,2022.2.4,144.0052760984392,
positions.xlsx,stimuli.xlsx,stimuli/Social1.png,stimuli/Social2.png,stimuli/Nonsocial2.png,stimuli/Nonsocial1.png,cs_minus_s,,,,,,,0,0,0,0,,,,,,,,,,,,,,,,,1,3,7,2,,,,,,,,,,,,,,,,,,,,,,,2338.578592899954,14,0.013525799848139286,1.562825699802488,38,C,2023-12-20_09h51.36.095,gca_avoidance_task,2022.2.4,144.0052760984392,
positions.xlsx,stimuli.xlsx,stimuli/Social1.png,stimuli/Social2.png,stimuli/Nonsocial2.png,stimuli/Nonsocial1.png,cs_minus_ns,,,,,,,0,0,0,0,,,,,,,,,,,,,,,,,2,0,8,3,,,,,,,,,,,,,,,,,,,,,,,2353.1335435998626,11,0.013977800030261278,0.3407060999888927,38,C,2023-12-20_09h51.36.095,gca_avoidance_task,2022.2.4,144.0052760984392,
positions.xlsx,stimuli.xlsx,stimuli/Social1.png,stimuli/Social2.png,stimuli/Nonsocial2.png,stimuli/Nonsocial1.png,cs_plus_s,,,,,,,0,0,0,0,,,,,,,,,,,,,,,,,2,1,9,0,,,,,,,,,,,,,,,,,,,,,,,2367.737110399874,6,0.013529300224035978,4.021135900169611,38,C,2023-12-20_09h51.36.095,gca_avoidance_task,2022.2.4,144.0052760984392,
positions.xlsx,stimuli.xlsx,stimuli/Social1.png,stimuli/Social2.png,stimuli/Nonsocial2.png,stimuli/Nonsocial1.png,cs_minus_s,,,,,,,0,0,0,0,,,,,,,,,,,,,,,,,2,2,10,2,,,,,,,,,,,,,,,,,,,,,,,2382.583767999895,8,0.014731199946254492,0.8200226998887956,38,C,2023-12-20_09h51.36.095,gca_avoidance_task,2022.2.4,144.0052760984392,
positions.xlsx,stimuli.xlsx,stimuli/Social1.png,stimuli/Social2.png,stimuli/Nonsocial2.png,stimuli/Nonsocial1.png,cs_plus_ns,,,,,,,0,0,0,0,,,,,,,,,,,,,,,,,2,3,11,1,,,,,,,,,,,,,,,,,,,,,,,2397.81234269985,11,0.014891099883243442,1.1602661998476833,38,C,2023-12-20_09h51.36.095,gca_avoidance_task,2022.2.4,144.0052760984392,
positions.xlsx,stimuli.xlsx,stimuli/Social1.png,stimuli/Social2.png,stimuli/Nonsocial2.png,stimuli/Nonsocial1.png,cs_plus_ns,,,,,,,0,0,0,0,,,,,,,,,,,,,,,,,3,0,12,1,,,,,,,,,,,,,,,,,,,,,,,2413.040904100053,7,0.014960200060158968,0.3546378999017179,38,C,2023-12-20_09h51.36.095,gca_avoidance_task,2022.2.4,144.0052760984392,
positions.xlsx,stimuli.xlsx,stimuli/Social1.png,stimuli/Social2.png,stimuli/Nonsocial2.png,stimuli/Nonsocial1.png,cs_plus_s,,,,,,,0,0,0,0,,,,,,,,,,,,,,,,,3,1,13,0,,,,,,,,,,,,,,,,,,,,,,,2428.040347300004,8,0.04198549990542233,0.687885700026527,38,C,2023-12-20_09h51.36.095,gca_avoidance_task,2022.2.4,144.0052760984392,
positions.xlsx,stimuli.xlsx,stimuli/Social1.png,stimuli/Social2.png,stimuli/Nonsocial2.png,stimuli/Nonsocial1.png,cs_minus_ns,,,,,,,0,0,0,0,,,,,,,,,,,,,,,,,3,2,14,3,,,,,,,,,,,,,,,,,,,,,,,2442.8800301998854,10,0.01457739993929863,0.32013270002789795,38,C,2023-12-20_09h51.36.095,gca_avoidance_task,2022.2.4,144.0052760984392,
positions.xlsx,stimuli.xlsx,stimuli/Social1.png,stimuli/Social2.png,stimuli/Nonsocial2.png,stimuli/Nonsocial1.png,cs_minus_s,,,,,,,0,0,0,0,,,,,,,,,,,,,,,,,3,3,15,2,,,,,,,,,,,,,,,,,,,,,,,2457.962783599971,8,0.3197748998645693,0.4794832000043243,38,C,2023-12-20_09h51.36.095,gca_avoidance_task,2022.2.4,144.0052760984392,
positions.xlsx,stimuli.xlsx,stimuli/Social1.png,stimuli/Social2.png,stimuli/Nonsocial2.png,stimuli/Nonsocial1.png,cs_plus_s,,,,,,,0,0,0,0,,,,,,,,,,,,,,,,,4,0,16,0,,,,,,,,,,,,,,,,,,,,,,,2473.448282300029,11,0.013603899860754609,0.06282250001095235,38,C,2023-12-20_09h51.36.095,gca_avoidance_task,2022.2.4,144.0052760984392,
positions.xlsx,stimuli.xlsx,stimuli/Social1.png,stimuli/Social2.png,stimuli/Nonsocial2.png,stimuli/Nonsocial1.png,cs_minus_ns,,,,,,,0,0,0,0,,,,,,,,,,,,,,,,,4,1,17,3,,,,,,,,,,,,,,,,,,,,,,,2488.128242699895,13,0.014497499912977219,0.0976382999215275,38,C,2023-12-20_09h51.36.095,gca_avoidance_task,2022.2.4,144.0052760984392,
positions.xlsx,stimuli.xlsx,stimuli/Social1.png,stimuli/Social2.png,stimuli/Nonsocial2.png,stimuli/Nonsocial1.png,cs_minus_s,,,,,,,0,0,0,0,,,,,,,,,,,,,,,,,4,2,18,2,,,,,,,,,,,,,,,,,,,,,,,2503.1623867000453,9,0.013653700007125735,0.3337493999861181,38,C,2023-12-20_09h51.36.095,gca_avoidance_task,2022.2.4,144.0052760984392,
positions.xlsx,stimuli.xlsx,stimuli/Social1.png,stimuli/Social2.png,stimuli/Nonsocial2.png,stimuli/Nonsocial1.png,cs_plus_ns,,,,,,,0,0,0,0,,,,,,,,,,,,,,,,,4,3,19,1,,,,,,,,,,,,,,,,,,,,,,,2518.384032999864,10,0.014169400092214346,0.13254780019633472,38,C,2023-12-20_09h51.36.095,gca_avoidance_task,2022.2.4,144.0052760984392,
positions.xlsx,stimuli.xlsx,stimuli/Social1.png,stimuli/Social2.png,stimuli/Nonsocial2.png,stimuli/Nonsocial1.png,cs_plus_s,,,,,,,0,0,0,0,,,,,,,,,,,,,,,,,5,0,20,0,,,,,,,,,,,,,,,,,,,,,,,2533.834828400053,6,0.23643329995684326,1.7849515001289546,38,C,2023-12-20_09h51.36.095,gca_avoidance_task,2022.2.4,144.0052760984392,
positions.xlsx,stimuli.xlsx,stimuli/Social1.png,stimuli/Social2.png,stimuli/Nonsocial2.png,stimuli/Nonsocial1.png,cs_minus_s,,,,,,,0,0,0,0,,,,,,,,,,,,,,,,,5,1,21,2,,,,,,,,,,,,,,,,,,,,,,,2549.0078316999134,8,0.013526600087061524,0.3196227999869734,38,C,2023-12-20_09h51.36.095,gca_avoidance_task,2022.2.4,144.0052760984392,
positions.xlsx,stimuli.xlsx,stimuli/Social1.png,stimuli/Social2.png,stimuli/Nonsocial2.png,stimuli/Nonsocial1.png,cs_minus_ns,,,,,,,0,0,0,0,,,,,,,,,,,,,,,,,5,2,22,3,,,,,,,,,,,,,,,,,,,,,,,2563.8405955999624,11,1.0144281999673694,1.8059557999949902,38,C,2023-12-20_09h51.36.095,gca_avoidance_task,2022.2.4,144.0052760984392,
positions.xlsx,stimuli.xlsx,stimuli/Social1.png,stimuli/Social2.png,stimuli/Nonsocial2.png,stimuli/Nonsocial1.png,cs_plus_ns,,,,,,,0,0,0,0,,,,,,,,,,,,,,,,,5,3,23,1,,,,,,,,,,,,,,,,,,,,,,,2578.4927830998786,10,0.13925030012615025,0.6531947001349181,38,C,2023-12-20_09h51.36.095,gca_avoidance_task,2022.2.4,144.0052760984392,
positions.xlsx,stimuli.xlsx,stimuli/Social1.png,stimuli/Social2.png,stimuli/Nonsocial2.png,stimuli/Nonsocial1.png,cs_plus_s,,,,,,,0,0,0,0,,,,,,,,,,,,,,,,,6,0,24,0,,,,,,,,,,,,,,,,,,,,,,,2593.0686031999066,11,0.014412000076845288,1.5765534001402557,38,C,2023-12-20_09h51.36.095,gca_avoidance_task,2022.2.4,144.0052760984392,
positions.xlsx,stimuli.xlsx,stimuli/Social1.png,stimuli/Social2.png,stimuli/Nonsocial2.png,stimuli/Nonsocial1.png,cs_minus_s,,,,,,,0,0,0,0,,,,,,,,,,,,,,,,,6,1,25,2,,,,,,,,,,,,,,,,,,,,,,,2607.7833153998945,8,0.014494000002741814,0.7574255000799894,38,C,2023-12-20_09h51.36.095,gca_avoidance_task,2022.2.4,144.0052760984392,
positions.xlsx,stimuli.xlsx,stimuli/Social1.png,stimuli/Social2.png,stimuli/Nonsocial2.png,stimuli/Nonsocial1.png,cs_minus_ns,,,,,,,0,0,0,0,,,,,,,,,,,,,,,,,6,2,26,3,,,,,,,,,,,,,,,,,,,,,,,2622.477198699955,9,0.015239200089126825,0.5698541000019759,38,C,2023-12-20_09h51.36.095,gca_avoidance_task,2022.2.4,144.0052760984392,
positions.xlsx,stimuli.xlsx,stimuli/Social1.png,stimuli/Social2.png,stimuli/Nonsocial2.png,stimuli/Nonsocial1.png,cs_plus_ns,,,,,,,0,0,0,0,,,,,,,,,,,,,,,,,6,3,27,1,,,,,,,,,,,,,,,,,,,,,,,2637.8724306998774,7,0.014073700178414583,0.541983500123024,38,C,2023-12-20_09h51.36.095,gca_avoidance_task,2022.2.4,144.0052760984392,
positions.xlsx,stimuli.xlsx,stimuli/Social1.png,stimuli/Social2.png,stimuli/Nonsocial2.png,stimuli/Nonsocial1.png,cs_minus_s,,,,,,,0,0,0,0,,,,,,,,,,,,,,,,,7,0,28,2,,,,,,,,,,,,,,,,,,,,,,,2653.121826000046,9,0.013908500084653497,0.06983990012668073,38,C,2023-12-20_09h51.36.095,gca_avoidance_task,2022.2.4,144.0052760984392,
positions.xlsx,stimuli.xlsx,stimuli/Social1.png,stimuli/Social2.png,stimuli/Nonsocial2.png,stimuli/Nonsocial1.png,cs_plus_ns,,,,,,,0,0,0,0,,,,,,,,,,,,,,,,,7,1,29,1,,,,,,,,,,,,,,,,,,,,,,,2668.2948447000235,10,0.01512130000628531,0.5282455000560731,38,C,2023-12-20_09h51.36.095,gca_avoidance_task,2022.2.4,144.0052760984392,
positions.xlsx,stimuli.xlsx,stimuli/Social1.png,stimuli/Social2.png,stimuli/Nonsocial2.png,stimuli/Nonsocial1.png,cs_plus_s,,,,,,,0,0,0,0,,,,,,,,,,,,,,,,,7,2,30,0,,,,,,,,,,,,,,,,,,,,,,,2683.6831684999634,10,0.014803700149059296,0.02132210019044578,38,C,2023-12-20_09h51.36.095,gca_avoidance_task,2022.2.4,144.0052760984392,
positions.xlsx,stimuli.xlsx,stimuli/Social1.png,stimuli/Social2.png,stimuli/Nonsocial2.png,stimuli/Nonsocial1.png,cs_minus_ns,,,,,,,0,0,0,0,,,,,,,,,,,,,,,,,7,3,31,3,,,,,,,,,,,,,,,,,,,,,,,2698.4395008999854,9,0.01391809992492199,0.5209933000151068,38,C,2023-12-20_09h51.36.095,gca_avoidance_task,2022.2.4,144.0052760984392,
positions.xlsx,stimuli.xlsx,stimuli/Social1.png,stimuli/Social2.png,stimuli/Nonsocial2.png,stimuli/Nonsocial1.png,cs_plus_ns,,,,,,,0,0,0,0,,,,,,,,,,,,,,,,,8,0,32,1,,,,,,,,,,,,,,,,,,,,,,,2713.0986738000065,7,0.01383670000359416,0.6599465000908822,38,C,2023-12-20_09h51.36.095,gca_avoidance_task,2022.2.4,144.0052760984392,
positions.xlsx,stimuli.xlsx,stimuli/Social1.png,stimuli/Social2.png,stimuli/Nonsocial2.png,stimuli/Nonsocial1.png,cs_minus_s,,,,,,,0,0,0,0,,,,,,,,,,,,,,,,,8,1,33,2,,,,,,,,,,,,,,,,,,,,,,,2728.167506699916,9,0.013472700025886297,0.6598839999642223,38,C,2023-12-20_09h51.36.095,gca_avoidance_task,2022.2.4,144.0052760984392,
positions.xlsx,stimuli.xlsx,stimuli/Social1.png,stimuli/Social2.png,stimuli/Nonsocial2.png,stimuli/Nonsocial1.png,cs_plus_s,,,,,,,0,0,0,0,,,,,,,,,,,,,,,,,8,2,34,0,,,,,,,,,,,,,,,,,,,,,,,2742.9933446000796,6,0.056007100036367774,2.514329999918118,38,C,2023-12-20_09h51.36.095,gca_avoidance_task,2022.2.4,144.0052760984392,
positions.xlsx,stimuli.xlsx,stimuli/Social1.png,stimuli/Social2.png,stimuli/Nonsocial2.png,stimuli/Nonsocial1.png,cs_minus_ns,,,,,,,0,0,0,0,,,,,,,,,,,,,,,,,8,3,35,3,,,,,,,,,,,,,,,,,,,,,,,2757.638570100069,9,0.014062299858778715,0.6253581999335438,38,C,2023-12-20_09h51.36.095,gca_avoidance_task,2022.2.4,144.0052760984392,
positions.xlsx,stimuli.xlsx,stimuli/Social1.png,stimuli/Social2.png,stimuli/Nonsocial2.png,stimuli/Nonsocial1.png,cs_minus_s,,,,,,,0,0,0,0,,,,,,,,,,,,,,,,,9,0,36,2,,,,,,,,,,,,,,,,,,,,,,,2772.540810900042,8,0.013576600002124906,0.021198600064963102,38,C,2023-12-20_09h51.36.095,gca_avoidance_task,2022.2.4,144.0052760984392,
positions.xlsx,stimuli.xlsx,stimuli/Social1.png,stimuli/Social2.png,stimuli/Nonsocial2.png,stimuli/Nonsocial1.png,cs_plus_ns,,,,,,,0,0,0,0,,,,,,,,,,,,,,,,,9,1,37,1,,,,,,,,,,,,,,,,,,,,,,,2787.922145300079,7,0.014688500203192234,1.021006700117141,38,C,2023-12-20_09h51.36.095,gca_avoidance_task,2022.2.4,144.0052760984392,
positions.xlsx,stimuli.xlsx,stimuli/Social1.png,stimuli/Social2.png,stimuli/Nonsocial2.png,stimuli/Nonsocial1.png,cs_minus_ns,,,,,,,0,0,0,0,,,,,,,,,,,,,,,,,9,2,38,3,,,,,,,,,,,,,,,,,,,,,,,2802.845204999903,9,0.01477760006673634,0.319865700090304,38,C,2023-12-20_09h51.36.095,gca_avoidance_task,2022.2.4,144.0052760984392,
positions.xlsx,stimuli.xlsx,stimuli/Social1.png,stimuli/Social2.png,stimuli/Nonsocial2.png,stimuli/Nonsocial1.png,cs_plus_s,,,,,,,0,0,0,0,,,,,,,,,,,,,,,,,9,3,39,0,,,,,,,,,,,,,,,,,,,,,,,2818.2612358999904,5,0.014456499833613634,0.04907949990592897,38,C,2023-12-20_09h51.36.095,gca_avoidance_task,2022.2.4,144.0052760984392,
positions.xlsx,stimuli.xlsx,stimuli/Social1.png,stimuli/Social2.png,stimuli/Nonsocial2.png,stimuli/Nonsocial1.png,cs_minus_ns,,,,,,,0,0,0,0,,,,,,,,,,,,,,,,,,,,,0,0,0,3,,,,,2832.107910499908,5.0,7.722526099998504,,,,,,,,,,,,,,,,38,C,2023-12-20_09h51.36.095,gca_avoidance_task,2022.2.4,144.0052760984392,
positions.xlsx,stimuli.xlsx,stimuli/Social1.png,stimuli/Social2.png,stimuli/Nonsocial2.png,stimuli/Nonsocial1.png,cs_plus_ns,,,,,,,0,0,0,0,,,,,,,,,,,,,,,,,,,,,0,1,1,1,,,,,2840.795094900066,5.0,1.2431483999826014,,,,,,,,,,,,,,,,38,C,2023-12-20_09h51.36.095,gca_avoidance_task,2022.2.4,144.0052760984392,
positions.xlsx,stimuli.xlsx,stimuli/Social1.png,stimuli/Social2.png,stimuli/Nonsocial2.png,stimuli/Nonsocial1.png,cs_plus_s,,,,,,,0,0,0,0,,,,,,,,,,,,,,,,,,,,,0,2,2,0,,,,,2842.2741719998885,5.0,0.9802574999630451,,,,,,,,,,,,,,,,38,C,2023-12-20_09h51.36.095,gca_avoidance_task,2022.2.4,144.0052760984392,
positions.xlsx,stimuli.xlsx,stimuli/Social1.png,stimuli/Social2.png,stimuli/Nonsocial2.png,stimuli/Nonsocial1.png,cs_minus_s,,,,,,,0,0,0,0,,,,,,,,,,,,,,,,,,,,,0,3,3,2,,,,,2843.5102857998572,7.0,2.660910899983719,,,,,,,,,,,,,,,,38,C,2023-12-20_09h51.36.095,gca_avoidance_task,2022.2.4,144.0052760984392,
