posFile,stimFile,cs_plus_s,cs_minus_s,cs_plus_ns,cs_minus_ns,stimtype,position,trialtype,trials_threshold.thisRepN,trials_threshold.thisTrialN,trials_threshold.thisN,trials_threshold.thisIndex,blocks.thisRepN,blocks.thisTrialN,blocks.thisN,blocks.thisIndex,ratingtrials1.thisRepN,ratingtrials1.thisTrialN,ratingtrials1.thisN,ratingtrials1.thisIndex,learning_trials.thisRepN,learning_trials.thisTrialN,learning_trials.thisN,learning_trials.thisIndex,trials.thisRepN,trials.thisTrialN,trials.thisN,trials.thisIndex,ratingtrials2.thisRepN,ratingtrials2.thisTrialN,ratingtrials2.thisN,ratingtrials2.thisIndex,testtrials.thisRepN,testtrials.thisTrialN,testtrials.thisN,testtrials.thisIndex,ratingtrials3.thisRepN,ratingtrials3.thisTrialN,ratingtrials3.thisN,ratingtrials3.thisIndex,textStart.started,sliderPainT.response,sliderPainT.rt,textStartExp.started,imageRating.started,sliderStim.response,sliderStim.rt,textStartTask.started,image.started,score,outcome,roi.numLooks,roi.timesOn,roi.timesOff,imageFeedback.started,sliderPain.response,sliderPain.rt,textTestInstr.started,imageTest.started,roiTest.numLooks,roiTest.timesOn,roiTest.timesOff,participant,group,date,expName,psychopyVersion,frameRate,
,,,,,,,,,0,0,0,0,,,,,,,,,,,,,,,,,,,,,,,,,,,,,18.3167580999434,None,None,,,,,,,,,,,,,,,,,,,,51,A,2024-01-15_10h04.01.944,gca_avoidance_task,2022.2.4,143.96982364155627,
,,,,,,,,,1,0,1,0,,,,,,,,,,,,,,,,,,,,,,,,,,,,,,0.0,7.990657200105488,,,,,,,,,,,,,,,,,,,,51,A,2024-01-15_10h04.01.944,gca_avoidance_task,2022.2.4,143.96982364155627,
,,,,,,,,,2,0,2,0,,,,,,,,,,,,,,,,,,,,,,,,,,,,,,0.0,5.600340599892661,,,,,,,,,,,,,,,,,,,,51,A,2024-01-15_10h04.01.944,gca_avoidance_task,2022.2.4,143.96982364155627,
,,,,,,,,,3,0,3,0,,,,,,,,,,,,,,,,,,,,,,,,,,,,,,0.0,4.03043120005168,,,,,,,,,,,,,,,,,,,,51,A,2024-01-15_10h04.01.944,gca_avoidance_task,2022.2.4,143.96982364155627,
,,,,,,,,,4,0,4,0,,,,,,,,,,,,,,,,,,,,,,,,,,,,,,2.0,5.50430309982039,,,,,,,,,,,,,,,,,,,,51,A,2024-01-15_10h04.01.944,gca_avoidance_task,2022.2.4,143.96982364155627,
,,,,,,,,,5,0,5,0,,,,,,,,,,,,,,,,,,,,,,,,,,,,,,3.0,1.7778263001237065,,,,,,,,,,,,,,,,,,,,51,A,2024-01-15_10h04.01.944,gca_avoidance_task,2022.2.4,143.96982364155627,
,,,,,,,,,6,0,6,0,,,,,,,,,,,,,,,,,,,,,,,,,,,,,,5.0,3.9418642001692206,,,,,,,,,,,,,,,,,,,,51,A,2024-01-15_10h04.01.944,gca_avoidance_task,2022.2.4,143.96982364155627,
,,,,,,,,,7,0,7,0,,,,,,,,,,,,,,,,,,,,,,,,,,,,,,8.0,4.640904399799183,,,,,,,,,,,,,,,,,,,,51,A,2024-01-15_10h04.01.944,gca_avoidance_task,2022.2.4,143.96982364155627,
,,,,,,,,,8,0,8,0,,,,,,,,,,,,,,,,,,,,,,,,,,,,,,9.0,1.9504732000641525,,,,,,,,,,,,,,,,,,,,51,A,2024-01-15_10h04.01.944,gca_avoidance_task,2022.2.4,143.96982364155627,
,,,,,,,,,9,0,9,0,,,,,,,,,,,,,,,,,,,,,,,,,,,,,,10.0,1.433291899971664,,,,,,,,,,,,,,,,,,,,51,A,2024-01-15_10h04.01.944,gca_avoidance_task,2022.2.4,143.96982364155627,
,,,,,,,,,10,0,10,0,,,,,,,,,,,,,,,,,,,,,,,,,,,,,,None,None,,,,,,,,,,,,,,,,,,,,51,A,2024-01-15_10h04.01.944,gca_avoidance_task,2022.2.4,143.96982364155627,
,,,,,,,,,11,0,11,0,,,,,,,,,,,,,,,,,,,,,,,,,,,,,,6.0,2.594083199976012,,,,,,,,,,,,,,,,,,,,51,A,2024-01-15_10h04.01.944,gca_avoidance_task,2022.2.4,143.96982364155627,
,,,,,,,,,12,0,12,0,,,,,,,,,,,,,,,,,,,,,,,,,,,,,,7.0,3.1939721000380814,,,,,,,,,,,,,,,,,,,,51,A,2024-01-15_10h04.01.944,gca_avoidance_task,2022.2.4,143.96982364155627,
,,,,,,,,,13,0,13,0,,,,,,,,,,,,,,,,,,,,,,,,,,,,,,5.0,3.029080000007525,,,,,,,,,,,,,,,,,,,,51,A,2024-01-15_10h04.01.944,gca_avoidance_task,2022.2.4,143.96982364155627,
,,,,,,,,,14,0,14,0,,,,,,,,,,,,,,,,,,,,,,,,,,,,,,6.0,2.1102531999349594,,,,,,,,,,,,,,,,,,,,51,A,2024-01-15_10h04.01.944,gca_avoidance_task,2022.2.4,143.96982364155627,
,,,,,,,,,15,0,15,0,,,,,,,,,,,,,,,,,,,,,,,,,,,,,,7.0,0.734352899948135,,,,,,,,,,,,,,,,,,,,51,A,2024-01-15_10h04.01.944,gca_avoidance_task,2022.2.4,143.96982364155627,
,,,,,,,,,16,0,16,0,,,,,,,,,,,,,,,,,,,,,,,,,,,,,,7.0,1.945128400111571,,,,,,,,,,,,,,,,,,,,51,A,2024-01-15_10h04.01.944,gca_avoidance_task,2022.2.4,143.96982364155627,
,,,,,,,,,17,0,17,0,,,,,,,,,,,,,,,,,,,,,,,,,,,,,,4.0,3.547434499952942,,,,,,,,,,,,,,,,,,,,51,A,2024-01-15_10h04.01.944,gca_avoidance_task,2022.2.4,143.96982364155627,
,,,,,,,,,18,0,18,0,,,,,,,,,,,,,,,,,,,,,,,,,,,,,,6.0,2.692381300032139,,,,,,,,,,,,,,,,,,,,51,A,2024-01-15_10h04.01.944,gca_avoidance_task,2022.2.4,143.96982364155627,
positions.xlsx,stimuli.xlsx,stimuli/Social1.png,stimuli/Social2.png,stimuli/Nonsocial1.png,stimuli/Nonsocial2.png,cs_plus_s,,,,,,,0,0,0,0,0,0,0,0,,,,,,,,,,,,,,,,,,,,,,,,1973.2042076999787,2015.0992829999886,8.0,16.993905999930575,,,,,,,,,,,,,,,,51,A,2024-01-15_10h04.01.944,gca_avoidance_task,2022.2.4,143.96982364155627,
positions.xlsx,stimuli.xlsx,stimuli/Social1.png,stimuli/Social2.png,stimuli/Nonsocial1.png,stimuli/Nonsocial2.png,cs_minus_ns,,,,,,,0,0,0,0,0,1,1,3,,,,,,,,,,,,,,,,,,,,,,,,,2035.8970970001537,7.0,15.283801899990067,,,,,,,,,,,,,,,,51,A,2024-01-15_10h04.01.944,gca_avoidance_task,2022.2.4,143.96982364155627,
positions.xlsx,stimuli.xlsx,stimuli/Social1.png,stimuli/Social2.png,stimuli/Nonsocial1.png,stimuli/Nonsocial2.png,cs_plus_ns,,,,,,,0,0,0,0,0,2,2,1,,,,,,,,,,,,,,,,,,,,,,,,,2052.4797100001015,6.0,5.631518899928778,,,,,,,,,,,,,,,,51,A,2024-01-15_10h04.01.944,gca_avoidance_task,2022.2.4,143.96982364155627,
positions.xlsx,stimuli.xlsx,stimuli/Social1.png,stimuli/Social2.png,stimuli/Nonsocial1.png,stimuli/Nonsocial2.png,cs_minus_s,,,,,,,0,0,0,0,0,3,3,2,,,,,,,,,,,,,,,,,,,,,,,,,2059.1114241001196,7.0,4.6738256001845,,,,,,,,,,,,,,,,51,A,2024-01-15_10h04.01.944,gca_avoidance_task,2022.2.4,143.96982364155627,
positions.xlsx,stimuli.xlsx,stimuli/Social1.png,stimuli/Social2.png,stimuli/Nonsocial1.png,stimuli/Nonsocial2.png,,"(-0.7, -0.5)",cs_plus_ns,,,,,0,0,0,0,,,,,0,0,0,9,,,,,,,,,,,,,,,,,,,,,,,,2066.340303200064,2104.6790487000253,0,shock,1,0.5558255000505596,0.5558295000810176,2105.234608900035,,,,,,,,51,A,2024-01-15_10h04.01.944,gca_avoidance_task,2022.2.4,143.96982364155627,
positions.xlsx,stimuli.xlsx,stimuli/Social1.png,stimuli/Social2.png,stimuli/Nonsocial1.png,stimuli/Nonsocial2.png,,"(0.7, -0.5)",cs_plus_s,,,,,0,0,0,0,,,,,0,1,1,3,,,,,,,,,,,,,,,,,,,,,,,,,2114.5189354000613,0,shock,1,0.49343409994617105,0.4934378999751061,2115.0119886000175,,,,,,,,51,A,2024-01-15_10h04.01.944,gca_avoidance_task,2022.2.4,143.96982364155627,
positions.xlsx,stimuli.xlsx,stimuli/Social1.png,stimuli/Social2.png,stimuli/Nonsocial1.png,stimuli/Nonsocial2.png,,"(-0.7, -0.5)",cs_plus_s,,,,,0,0,0,0,,,,,0,2,2,1,,,,,,,,,,,,,,,,,,,,,,,,,2124.2616129999515,0,none,0,,,2129.2684076000005,,,,,,,,51,A,2024-01-15_10h04.01.944,gca_avoidance_task,2022.2.4,143.96982364155627,
positions.xlsx,stimuli.xlsx,stimuli/Social1.png,stimuli/Social2.png,stimuli/Nonsocial1.png,stimuli/Nonsocial2.png,,"(-0.7, 0.5)",cs_plus_s,,,,,0,0,0,0,,,,,0,3,3,0,,,,,,,,,,,,,,,,,,,,,,,,,2139.434636299964,0,none,0,,,2144.4413616000675,,,,,,,,51,A,2024-01-15_10h04.01.944,gca_avoidance_task,2022.2.4,143.96982364155627,
positions.xlsx,stimuli.xlsx,stimuli/Social1.png,stimuli/Social2.png,stimuli/Nonsocial1.png,stimuli/Nonsocial2.png,,"(0.7, 0.5)",cs_plus_s,,,,,0,0,0,0,,,,,0,4,4,2,,,,,,,,,,,,,,,,,,,,,,,,,2154.336792400107,0,none,0,,,2159.343511400046,,,,,,,,51,A,2024-01-15_10h04.01.944,gca_avoidance_task,2022.2.4,143.96982364155627,
positions.xlsx,stimuli.xlsx,stimuli/Social1.png,stimuli/Social2.png,stimuli/Nonsocial1.png,stimuli/Nonsocial2.png,,"(0.7, 0.5)",cs_minus_s,,,,,0,0,0,0,,,,,0,5,5,6,,,,,,,,,,,,,,,,,,,,,,,,,2169.002877000021,0,none,0,,,2174.0096158001106,,,,,,,,51,A,2024-01-15_10h04.01.944,gca_avoidance_task,2022.2.4,143.96982364155627,
positions.xlsx,stimuli.xlsx,stimuli/Social1.png,stimuli/Social2.png,stimuli/Nonsocial1.png,stimuli/Nonsocial2.png,,"(-0.7, -0.5)",cs_minus_ns,,,,,0,0,0,0,,,,,0,6,6,13,,,,,,,,,,,,,,,,,,,,,,,,,2183.67589329998,0,none,0,,,2188.682657000143,,,,,,,,51,A,2024-01-15_10h04.01.944,gca_avoidance_task,2022.2.4,143.96982364155627,
positions.xlsx,stimuli.xlsx,stimuli/Social1.png,stimuli/Social2.png,stimuli/Nonsocial1.png,stimuli/Nonsocial2.png,,"(0.7, -0.5)",cs_minus_s,,,,,0,0,0,0,,,,,0,7,7,7,,,,,,,,,,,,,,,,,,,,,,,,,2197.9808839999605,0,none,0,,,2202.9876687000506,,,,,,,,51,A,2024-01-15_10h04.01.944,gca_avoidance_task,2022.2.4,143.96982364155627,
positions.xlsx,stimuli.xlsx,stimuli/Social1.png,stimuli/Social2.png,stimuli/Nonsocial1.png,stimuli/Nonsocial2.png,,"(-0.7, 0.5)",cs_plus_ns,,,,,0,0,0,0,,,,,0,8,8,8,,,,,,,,,,,,,,,,,,,,,,,,,2212.5845272999723,0,none,0,,,2217.5912445001304,,,,,,,,51,A,2024-01-15_10h04.01.944,gca_avoidance_task,2022.2.4,143.96982364155627,
positions.xlsx,stimuli.xlsx,stimuli/Social1.png,stimuli/Social2.png,stimuli/Nonsocial1.png,stimuli/Nonsocial2.png,,"(0.7, -0.5)",cs_minus_ns,,,,,0,0,0,0,,,,,0,9,9,15,,,,,,,,,,,,,,,,,,,,,,,,,2227.333883699961,0,none,0,,,2232.3406376000494,,,,,,,,51,A,2024-01-15_10h04.01.944,gca_avoidance_task,2022.2.4,143.96982364155627,
positions.xlsx,stimuli.xlsx,stimuli/Social1.png,stimuli/Social2.png,stimuli/Nonsocial1.png,stimuli/Nonsocial2.png,,"(0.7, 0.5)",cs_minus_ns,,,,,0,0,0,0,,,,,0,10,10,14,,,,,,,,,,,,,,,,,,,,,,,,,2241.055587100098,5,reward,1,1.2707934000063688,1.2707974000368267,2242.3332923001144,,,,,,,,51,A,2024-01-15_10h04.01.944,gca_avoidance_task,2022.2.4,143.96982364155627,
positions.xlsx,stimuli.xlsx,stimuli/Social1.png,stimuli/Social2.png,stimuli/Nonsocial1.png,stimuli/Nonsocial2.png,,"(-0.7, -0.5)",cs_minus_s,,,,,0,0,0,0,,,,,0,11,11,5,,,,,,,,,,,,,,,,,,,,,,,,,2252.2079080000985,10,reward,1,4.409210300073028,4.409216600004584,2256.624412300065,,,,,,,,51,A,2024-01-15_10h04.01.944,gca_avoidance_task,2022.2.4,143.96982364155627,
positions.xlsx,stimuli.xlsx,stimuli/Social1.png,stimuli/Social2.png,stimuli/Nonsocial1.png,stimuli/Nonsocial2.png,,"(0.7, -0.5)",cs_plus_ns,,,,,0,0,0,0,,,,,0,12,12,11,,,,,,,,,,,,,,,,,,,,,,,,,2266.596231200034,10,shock,1,1.5208664999809116,1.5208703000098467,2268.1239746001083,,,,,,,,51,A,2024-01-15_10h04.01.944,gca_avoidance_task,2022.2.4,143.96982364155627,
positions.xlsx,stimuli.xlsx,stimuli/Social1.png,stimuli/Social2.png,stimuli/Nonsocial1.png,stimuli/Nonsocial2.png,,"(-0.7, 0.5)",cs_minus_ns,,,,,0,0,0,0,,,,,0,13,13,12,,,,,,,,,,,,,,,,,,,,,,,,,2278.3665973001625,10,none,0,,,2283.373392000096,,,,,,,,51,A,2024-01-15_10h04.01.944,gca_avoidance_task,2022.2.4,143.96982364155627,
positions.xlsx,stimuli.xlsx,stimuli/Social1.png,stimuli/Social2.png,stimuli/Nonsocial1.png,stimuli/Nonsocial2.png,,"(-0.7, 0.5)",cs_minus_s,,,,,0,0,0,0,,,,,0,14,14,4,,,,,,,,,,,,,,,,,,,,,,,,,2292.213299700059,15,reward,1,2.958462400129065,2.958466300042346,2295.1784312999807,,,,,,,,51,A,2024-01-15_10h04.01.944,gca_avoidance_task,2022.2.4,143.96982364155627,
positions.xlsx,stimuli.xlsx,stimuli/Social1.png,stimuli/Social2.png,stimuli/Nonsocial1.png,stimuli/Nonsocial2.png,,"(0.7, 0.5)",cs_plus_ns,,,,,0,0,0,0,,,,,0,15,15,10,,,,,,,,,,,,,,,,,,,,,,,,,2305.198861400131,15,none,0,,,2310.2056565000676,,,,,,,,51,A,2024-01-15_10h04.01.944,gca_avoidance_task,2022.2.4,143.96982364155627,
positions.xlsx,stimuli.xlsx,stimuli/Social1.png,stimuli/Social2.png,stimuli/Nonsocial1.png,stimuli/Nonsocial2.png,,"(-0.7, -0.5)",cs_minus_ns,,,,,0,0,0,0,,,,,1,0,16,13,,,,,,,,,,,,,,,,,,,,,,,,,2319.885790399974,20,reward,1,1.9236846000421792,1.9236887998413295,2321.816289199982,,,,,,,,51,A,2024-01-15_10h04.01.944,gca_avoidance_task,2022.2.4,143.96982364155627,
positions.xlsx,stimuli.xlsx,stimuli/Social1.png,stimuli/Social2.png,stimuli/Nonsocial1.png,stimuli/Nonsocial2.png,,"(-0.7, 0.5)",cs_plus_ns,,,,,0,0,0,0,,,,,1,1,17,8,,,,,,,,,,,,,,,,,,,,,,,,,2331.468687500106,20,shock,1,2.4028806001879275,2.4028844002168626,2333.8783024000004,,,,,,,,51,A,2024-01-15_10h04.01.944,gca_avoidance_task,2022.2.4,143.96982364155627,
positions.xlsx,stimuli.xlsx,stimuli/Social1.png,stimuli/Social2.png,stimuli/Nonsocial1.png,stimuli/Nonsocial2.png,,"(0.7, -0.5)",cs_minus_s,,,,,0,0,0,0,,,,,1,2,18,7,,,,,,,,,,,,,,,,,,,,,,,,,2343.558466500137,25,reward,1,0.23651940003037453,0.23652349994517863,2343.8015690001193,,,,,,,,51,A,2024-01-15_10h04.01.944,gca_avoidance_task,2022.2.4,143.96982364155627,
positions.xlsx,stimuli.xlsx,stimuli/Social1.png,stimuli/Social2.png,stimuli/Nonsocial1.png,stimuli/Nonsocial2.png,,"(0.7, -0.5)",cs_plus_s,,,,,0,0,0,0,,,,,1,3,19,3,,,,,,,,,,,,,,,,,,,,,,,,,2353.759426600067,25,shock,1,0.7427771999500692,0.7427809999790043,2354.509410599945,,,,,,,,51,A,2024-01-15_10h04.01.944,gca_avoidance_task,2022.2.4,143.96982364155627,
positions.xlsx,stimuli.xlsx,stimuli/Social1.png,stimuli/Social2.png,stimuli/Nonsocial1.png,stimuli/Nonsocial2.png,,"(0.7, 0.5)",cs_minus_s,,,,,0,0,0,0,,,,,1,4,20,6,,,,,,,,,,,,,,,,,,,,,,,,,2363.26599980006,30,reward,1,2.9168054999317974,2.9168092999607325,2366.1895059000235,,,,,,,,51,A,2024-01-15_10h04.01.944,gca_avoidance_task,2022.2.4,143.96982364155627,
positions.xlsx,stimuli.xlsx,stimuli/Social1.png,stimuli/Social2.png,stimuli/Nonsocial1.png,stimuli/Nonsocial2.png,,"(0.7, 0.5)",cs_minus_ns,,,,,0,0,0,0,,,,,1,5,21,14,,,,,,,,,,,,,,,,,,,,,,,,,2375.3280269999523,35,reward,1,1.9928796000313014,1.9928833001758903,2377.3279870001134,,,,,,,,51,A,2024-01-15_10h04.01.944,gca_avoidance_task,2022.2.4,143.96982364155627,
positions.xlsx,stimuli.xlsx,stimuli/Social1.png,stimuli/Social2.png,stimuli/Nonsocial1.png,stimuli/Nonsocial2.png,,"(0.7, -0.5)",cs_minus_ns,,,,,0,0,0,0,,,,,1,6,22,15,,,,,,,,,,,,,,,,,,,,,,,,,2386.7581183,40,reward,1,2.0353495001327246,2.0416188000235707,2388.8066525000613,,,,,,,,51,A,2024-01-15_10h04.01.944,gca_avoidance_task,2022.2.4,143.96982364155627,
positions.xlsx,stimuli.xlsx,stimuli/Social1.png,stimuli/Social2.png,stimuli/Nonsocial1.png,stimuli/Nonsocial2.png,,"(-0.7, -0.5)",cs_plus_s,,,,,0,0,0,0,,,,,1,7,23,1,,,,,,,,,,,,,,,,,,,,,,,,,2397.9938066999894,40,none,0,,,2403.000567600131,,,,,,,,51,A,2024-01-15_10h04.01.944,gca_avoidance_task,2022.2.4,143.96982364155627,
positions.xlsx,stimuli.xlsx,stimuli/Social1.png,stimuli/Social2.png,stimuli/Nonsocial1.png,stimuli/Nonsocial2.png,,"(-0.7, 0.5)",cs_minus_s,,,,,0,0,0,0,,,,,1,8,24,4,,,,,,,,,,,,,,,,,,,,,,,,,2412.548774700146,45,reward,1,1.0211066000629216,1.0211104999762028,2413.5765478000976,,,,,,,,51,A,2024-01-15_10h04.01.944,gca_avoidance_task,2022.2.4,143.96982364155627,
positions.xlsx,stimuli.xlsx,stimuli/Social1.png,stimuli/Social2.png,stimuli/Nonsocial1.png,stimuli/Nonsocial2.png,,"(0.7, -0.5)",cs_plus_ns,,,,,0,0,0,0,,,,,1,9,25,11,,,,,,,,,,,,,,,,,,,,,,,,,2422.492823299952,45,none,0,,,2427.4995671000797,,,,,,,,51,A,2024-01-15_10h04.01.944,gca_avoidance_task,2022.2.4,143.96982364155627,
positions.xlsx,stimuli.xlsx,stimuli/Social1.png,stimuli/Social2.png,stimuli/Nonsocial1.png,stimuli/Nonsocial2.png,,"(-0.7, -0.5)",cs_minus_s,,,,,0,0,0,0,,,,,1,10,26,5,,,,,,,,,,,,,,,,,,,,,,,,,2437.24225440016,50,reward,1,2.277993499999866,2.277997399913147,2439.5268616999965,,,,,,,,51,A,2024-01-15_10h04.01.944,gca_avoidance_task,2022.2.4,143.96982364155627,
positions.xlsx,stimuli.xlsx,stimuli/Social1.png,stimuli/Social2.png,stimuli/Nonsocial1.png,stimuli/Nonsocial2.png,,"(0.7, 0.5)",cs_plus_s,,,,,0,0,0,0,,,,,1,11,27,2,,,,,,,,,,,,,,,,,,,,,,,,,2448.9639988001436,50,none,0,,,2453.9777164999396,,,,,,,,51,A,2024-01-15_10h04.01.944,gca_avoidance_task,2022.2.4,143.96982364155627,
positions.xlsx,stimuli.xlsx,stimuli/Social1.png,stimuli/Social2.png,stimuli/Nonsocial1.png,stimuli/Nonsocial2.png,,"(0.7, 0.5)",cs_plus_ns,,,,,0,0,0,0,,,,,1,12,28,10,,,,,,,,,,,,,,,,,,,,,,,,,2463.532886300003,50,none,0,,,2468.5396356000565,,,,,,,,51,A,2024-01-15_10h04.01.944,gca_avoidance_task,2022.2.4,143.96982364155627,
positions.xlsx,stimuli.xlsx,stimuli/Social1.png,stimuli/Social2.png,stimuli/Nonsocial1.png,stimuli/Nonsocial2.png,,"(-0.7, 0.5)",cs_minus_ns,,,,,0,0,0,0,,,,,1,13,29,12,,,,,,,,,,,,,,,,,,,,,,,,,2477.8795307001565,55,reward,1,1.173588000005111,1.1805002000182867,2479.066959100077,,,,,,,,51,A,2024-01-15_10h04.01.944,gca_avoidance_task,2022.2.4,143.96982364155627,
positions.xlsx,stimuli.xlsx,stimuli/Social1.png,stimuli/Social2.png,stimuli/Nonsocial1.png,stimuli/Nonsocial2.png,,"(-0.7, 0.5)",cs_plus_s,,,,,0,0,0,0,,,,,1,14,30,0,,,,,,,,,,,,,,,,,,,,,,,,,2489.1082423999906,55,none,0,,,2494.114982899977,,,,,,,,51,A,2024-01-15_10h04.01.944,gca_avoidance_task,2022.2.4,143.96982364155627,
positions.xlsx,stimuli.xlsx,stimuli/Social1.png,stimuli/Social2.png,stimuli/Nonsocial1.png,stimuli/Nonsocial2.png,,"(-0.7, -0.5)",cs_plus_ns,,,,,0,0,0,0,,,,,1,15,31,9,,,,,,,,,,,,,,,,,,,,,,,,,2503.0382837001234,55,shock,1,0.2503616001922637,0.25036579999141395,2503.295207499992,,,,,,,,51,A,2024-01-15_10h04.01.944,gca_avoidance_task,2022.2.4,143.96982364155627,
positions.xlsx,stimuli.xlsx,stimuli/Social1.png,stimuli/Social2.png,stimuli/Nonsocial1.png,stimuli/Nonsocial2.png,,"(0.7, 0.5)",cs_plus_ns,,,,,0,0,0,0,,,,,,,,,0,0,0,10,,,,,,,,,,,,,,,,,,,,,2534.925881000003,55,none,0,,,2539.932663500076,,,,,,,,51,A,2024-01-15_10h04.01.944,gca_avoidance_task,2022.2.4,143.96982364155627,
positions.xlsx,stimuli.xlsx,stimuli/Social1.png,stimuli/Social2.png,stimuli/Nonsocial1.png,stimuli/Nonsocial2.png,,"(-0.7, 0.5)",cs_minus_ns,,,,,0,0,0,0,,,,,,,,,0,1,1,12,,,,,,,,,,,,,,,,,,,,,2548.800337099936,60,reward,1,0.7224846999160945,0.7224890000652522,2549.5295327000786,,,,,,,,51,A,2024-01-15_10h04.01.944,gca_avoidance_task,2022.2.4,143.96982364155627,
positions.xlsx,stimuli.xlsx,stimuli/Social1.png,stimuli/Social2.png,stimuli/Nonsocial1.png,stimuli/Nonsocial2.png,,"(0.7, 0.5)",cs_plus_s,,,,,0,0,0,0,,,,,,,,,0,2,2,2,,,,,,,,,,,,,,,,,,,,,2559.0013143001124,60,none,0,,,2564.008075900143,,,,,,,,51,A,2024-01-15_10h04.01.944,gca_avoidance_task,2022.2.4,143.96982364155627,
positions.xlsx,stimuli.xlsx,stimuli/Social1.png,stimuli/Social2.png,stimuli/Nonsocial1.png,stimuli/Nonsocial2.png,,"(0.7, -0.5)",cs_minus_s,,,,,0,0,0,0,,,,,,,,,0,3,3,7,,,,,,,,,,,,,,,,,,,,,2573.7507609000895,65,reward,1,0.8819792999420315,0.8819829998537898,2574.639663900016,,,,,,,,51,A,2024-01-15_10h04.01.944,gca_avoidance_task,2022.2.4,143.96982364155627,
positions.xlsx,stimuli.xlsx,stimuli/Social1.png,stimuli/Social2.png,stimuli/Nonsocial1.png,stimuli/Nonsocial2.png,,"(0.7, -0.5)",cs_plus_s,,,,,0,0,0,0,,,,,,,,,0,4,4,3,,,,,,,,,,,,,,,,,,,,,2584.3962314999662,65,none,0,,,2589.4029475999996,,,,,,,,51,A,2024-01-15_10h04.01.944,gca_avoidance_task,2022.2.4,143.96982364155627,
positions.xlsx,stimuli.xlsx,stimuli/Social1.png,stimuli/Social2.png,stimuli/Nonsocial1.png,stimuli/Nonsocial2.png,,"(-0.7, 0.5)",cs_plus_ns,,,,,0,0,0,0,,,,,,,,,0,5,5,8,,,,,,,,,,,,,,,,,,,,,2598.8122613001615,65,none,0,,,2603.8189928999636,,,,,,,,51,A,2024-01-15_10h04.01.944,gca_avoidance_task,2022.2.4,143.96982364155627,
positions.xlsx,stimuli.xlsx,stimuli/Social1.png,stimuli/Social2.png,stimuli/Nonsocial1.png,stimuli/Nonsocial2.png,,"(0.7, 0.5)",cs_minus_ns,,,,,0,0,0,0,,,,,,,,,0,6,6,14,,,,,,,,,,,,,,,,,,,,,2613.0200279001147,70,reward,1,1.1666180999018252,1.16662220004946,2614.193602300016,,,,,,,,51,A,2024-01-15_10h04.01.944,gca_avoidance_task,2022.2.4,143.96982364155627,
positions.xlsx,stimuli.xlsx,stimuli/Social1.png,stimuli/Social2.png,stimuli/Nonsocial1.png,stimuli/Nonsocial2.png,,"(-0.7, -0.5)",cs_plus_ns,,,,,0,0,0,0,,,,,,,,,0,7,7,9,,,,,,,,,,,,,,,,,,,,,2623.9362699999474,70,none,0,,,2628.9430136000738,,,,,,,,51,A,2024-01-15_10h04.01.944,gca_avoidance_task,2022.2.4,143.96982364155627,
positions.xlsx,stimuli.xlsx,stimuli/Social1.png,stimuli/Social2.png,stimuli/Nonsocial1.png,stimuli/Nonsocial2.png,,"(-0.7, -0.5)",cs_plus_s,,,,,0,0,0,0,,,,,,,,,0,8,8,1,,,,,,,,,,,,,,,,,,,,,2639.0121323999483,70,none,0,,,2644.0187842999585,,,,,,,,51,A,2024-01-15_10h04.01.944,gca_avoidance_task,2022.2.4,143.96982364155627,
positions.xlsx,stimuli.xlsx,stimuli/Social1.png,stimuli/Social2.png,stimuli/Nonsocial1.png,stimuli/Nonsocial2.png,,"(-0.7, 0.5)",cs_minus_s,,,,,0,0,0,0,,,,,,,,,0,9,9,4,,,,,,,,,,,,,,,,,,,,,2653.726770499954,75,reward,1,0.895946899894625,0.895950999809429,2654.6295109000057,,,,,,,,51,A,2024-01-15_10h04.01.944,gca_avoidance_task,2022.2.4,143.96982364155627,
positions.xlsx,stimuli.xlsx,stimuli/Social1.png,stimuli/Social2.png,stimuli/Nonsocial1.png,stimuli/Nonsocial2.png,,"(0.7, 0.5)",cs_minus_s,,,,,0,0,0,0,,,,,,,,,0,10,10,6,,,,,,,,,,,,,,,,,,,,,2663.8860778999515,80,reward,1,0.7576041000429541,0.7576084001921117,2664.649933699984,,,,,,,,51,A,2024-01-15_10h04.01.944,gca_avoidance_task,2022.2.4,143.96982364155627,
positions.xlsx,stimuli.xlsx,stimuli/Social1.png,stimuli/Social2.png,stimuli/Nonsocial1.png,stimuli/Nonsocial2.png,,"(-0.7, -0.5)",cs_minus_s,,,,,0,0,0,0,,,,,,,,,0,11,11,5,,,,,,,,,,,,,,,,,,,,,2673.4204341000877,85,reward,1,0.6322516000363976,0.6322556999512017,2674.059331400087,,,,,,,,51,A,2024-01-15_10h04.01.944,gca_avoidance_task,2022.2.4,143.96982364155627,
positions.xlsx,stimuli.xlsx,stimuli/Social1.png,stimuli/Social2.png,stimuli/Nonsocial1.png,stimuli/Nonsocial2.png,,"(-0.7, -0.5)",cs_minus_ns,,,,,0,0,0,0,,,,,,,,,0,12,12,13,,,,,,,,,,,,,,,,,,,,,2683.3505790999625,90,reward,1,0.7779209997970611,0.7779249998275191,2684.1352944001555,,,,,,,,51,A,2024-01-15_10h04.01.944,gca_avoidance_task,2022.2.4,143.96982364155627,
positions.xlsx,stimuli.xlsx,stimuli/Social1.png,stimuli/Social2.png,stimuli/Nonsocial1.png,stimuli/Nonsocial2.png,,"(0.7, -0.5)",cs_minus_ns,,,,,0,0,0,0,,,,,,,,,0,13,13,15,,,,,,,,,,,,,,,,,,,,,2693.3571530000772,95,reward,1,0.5560785999987274,0.5560822999104857,2693.9196337000467,,,,,,,,51,A,2024-01-15_10h04.01.944,gca_avoidance_task,2022.2.4,143.96982364155627,
positions.xlsx,stimuli.xlsx,stimuli/Social1.png,stimuli/Social2.png,stimuli/Nonsocial1.png,stimuli/Nonsocial2.png,,"(-0.7, 0.5)",cs_plus_s,,,,,0,0,0,0,,,,,,,,,0,14,14,0,,,,,,,,,,,,,,,,,,,,,2703.8845031000674,95,none,0,,,2708.891236399999,,,,,,,,51,A,2024-01-15_10h04.01.944,gca_avoidance_task,2022.2.4,143.96982364155627,
positions.xlsx,stimuli.xlsx,stimuli/Social1.png,stimuli/Social2.png,stimuli/Nonsocial1.png,stimuli/Nonsocial2.png,,"(0.7, -0.5)",cs_plus_ns,,,,,0,0,0,0,,,,,,,,,0,15,15,11,,,,,,,,,,,,,,,,,,,,,2718.44643380004,95,none,0,,,2723.453134099953,,,,,,,,51,A,2024-01-15_10h04.01.944,gca_avoidance_task,2022.2.4,143.96982364155627,
positions.xlsx,stimuli.xlsx,stimuli/Social1.png,stimuli/Social2.png,stimuli/Nonsocial1.png,stimuli/Nonsocial2.png,,"(0.7, -0.5)",cs_plus_ns,,,,,0,0,0,0,,,,,,,,,1,0,16,11,,,,,,,,,,,,,,,,,,,,,2732.9875096001197,95,none,0,,,2737.9942590999417,,,,,,,,51,A,2024-01-15_10h04.01.944,gca_avoidance_task,2022.2.4,143.96982364155627,
positions.xlsx,stimuli.xlsx,stimuli/Social1.png,stimuli/Social2.png,stimuli/Nonsocial1.png,stimuli/Nonsocial2.png,,"(-0.7, 0.5)",cs_plus_s,,,,,0,0,0,0,,,,,,,,,1,1,17,0,,,,,,,,,,,,,,,,,,,,,2747.3411411000416,95,none,0,,,2752.3478594000917,,,,,,,,51,A,2024-01-15_10h04.01.944,gca_avoidance_task,2022.2.4,143.96982364155627,
positions.xlsx,stimuli.xlsx,stimuli/Social1.png,stimuli/Social2.png,stimuli/Nonsocial1.png,stimuli/Nonsocial2.png,,"(-0.7, -0.5)",cs_plus_ns,,,,,0,0,0,0,,,,,,,,,1,2,18,9,,,,,,,,,,,,,,,,,,,,,2761.805807300145,95,none,0,,,2766.812560599996,,,,,,,,51,A,2024-01-15_10h04.01.944,gca_avoidance_task,2022.2.4,143.96982364155627,
positions.xlsx,stimuli.xlsx,stimuli/Social1.png,stimuli/Social2.png,stimuli/Nonsocial1.png,stimuli/Nonsocial2.png,,"(-0.7, 0.5)",cs_minus_ns,,,,,0,0,0,0,,,,,,,,,1,3,19,12,,,,,,,,,,,,,,,,,,,,,2776.221905000042,100,reward,1,1.007016200106591,1.0070201000198722,2777.2357481000945,,,,,,,,51,A,2024-01-15_10h04.01.944,gca_avoidance_task,2022.2.4,143.96982364155627,
positions.xlsx,stimuli.xlsx,stimuli/Social1.png,stimuli/Social2.png,stimuli/Nonsocial1.png,stimuli/Nonsocial2.png,,"(-0.7, 0.5)",cs_minus_s,,,,,0,0,0,0,,,,,,,,,1,4,20,4,,,,,,,,,,,,,,,,,,,,,2786.6034436000045,105,reward,1,0.7088894001208246,0.7158435001038015,2787.3256844000425,,,,,,,,51,A,2024-01-15_10h04.01.944,gca_avoidance_task,2022.2.4,143.96982364155627,
positions.xlsx,stimuli.xlsx,stimuli/Social1.png,stimuli/Social2.png,stimuli/Nonsocial1.png,stimuli/Nonsocial2.png,,"(0.7, -0.5)",cs_plus_s,,,,,0,0,0,0,,,,,,,,,1,5,21,3,,,,,,,,,,,,,,,,,,,,,2796.2211277000606,105,none,0,,,2801.2278587999754,,,,,,,,51,A,2024-01-15_10h04.01.944,gca_avoidance_task,2022.2.4,143.96982364155627,
positions.xlsx,stimuli.xlsx,stimuli/Social1.png,stimuli/Social2.png,stimuli/Nonsocial1.png,stimuli/Nonsocial2.png,,"(0.7, 0.5)",cs_minus_s,,,,,0,0,0,0,,,,,,,,,1,6,22,6,,,,,,,,,,,,,,,,,,,,,2811.1789275000338,110,reward,1,0.7155306001659483,0.7155348001979291,2811.9011039999314,,,,,,,,51,A,2024-01-15_10h04.01.944,gca_avoidance_task,2022.2.4,143.96982364155627,
positions.xlsx,stimuli.xlsx,stimuli/Social1.png,stimuli/Social2.png,stimuli/Nonsocial1.png,stimuli/Nonsocial2.png,,"(-0.7, -0.5)",cs_minus_s,,,,,0,0,0,0,,,,,,,,,1,7,23,5,,,,,,,,,,,,,,,,,,,,,2821.8798472001217,115,reward,1,0.7502552999649197,0.750258999876678,2822.636803700123,,,,,,,,51,A,2024-01-15_10h04.01.944,gca_avoidance_task,2022.2.4,143.96982364155627,
positions.xlsx,stimuli.xlsx,stimuli/Social1.png,stimuli/Social2.png,stimuli/Nonsocial1.png,stimuli/Nonsocial2.png,,"(0.7, -0.5)",cs_minus_s,,,,,0,0,0,0,,,,,,,,,1,8,24,7,,,,,,,,,,,,,,,,,,,,,2832.247510300018,120,reward,1,0.6672848002053797,0.667288800003007,2832.921065800125,,,,,,,,51,A,2024-01-15_10h04.01.944,gca_avoidance_task,2022.2.4,143.96982364155627,
positions.xlsx,stimuli.xlsx,stimuli/Social1.png,stimuli/Social2.png,stimuli/Nonsocial1.png,stimuli/Nonsocial2.png,,"(0.7, 0.5)",cs_plus_ns,,,,,0,0,0,0,,,,,,,,,1,9,25,10,,,,,,,,,,,,,,,,,,,,,2842.6845716000535,120,none,0,,,2847.691344999941,,,,,,,,51,A,2024-01-15_10h04.01.944,gca_avoidance_task,2022.2.4,143.96982364155627,
positions.xlsx,stimuli.xlsx,stimuli/Social1.png,stimuli/Social2.png,stimuli/Nonsocial1.png,stimuli/Nonsocial2.png,,"(-0.7, -0.5)",cs_minus_ns,,,,,0,0,0,0,,,,,,,,,1,10,26,13,,,,,,,,,,,,,,,,,,,,,2857.121526299976,125,reward,1,0.6528799999505281,0.6528839999809861,2857.781203899998,,,,,,,,51,A,2024-01-15_10h04.01.944,gca_avoidance_task,2022.2.4,143.96982364155627,
positions.xlsx,stimuli.xlsx,stimuli/Social1.png,stimuli/Social2.png,stimuli/Nonsocial1.png,stimuli/Nonsocial2.png,,"(-0.7, 0.5)",cs_plus_ns,,,,,0,0,0,0,,,,,,,,,1,11,27,8,,,,,,,,,,,,,,,,,,,,,2866.9752791000064,125,none,0,,,2871.9889957001433,,,,,,,,51,A,2024-01-15_10h04.01.944,gca_avoidance_task,2022.2.4,143.96982364155627,
positions.xlsx,stimuli.xlsx,stimuli/Social1.png,stimuli/Social2.png,stimuli/Nonsocial1.png,stimuli/Nonsocial2.png,,"(0.7, 0.5)",cs_plus_s,,,,,0,0,0,0,,,,,,,,,1,12,28,2,,,,,,,,,,,,,,,,,,,,,2881.4191342999693,125,shock,1,0.2779886999633163,0.2779928999952972,2881.7038748001214,,,,,,,,51,A,2024-01-15_10h04.01.944,gca_avoidance_task,2022.2.4,143.96982364155627,
positions.xlsx,stimuli.xlsx,stimuli/Social1.png,stimuli/Social2.png,stimuli/Nonsocial1.png,stimuli/Nonsocial2.png,,"(-0.7, -0.5)",cs_plus_s,,,,,0,0,0,0,,,,,,,,,1,13,29,1,,,,,,,,,,,,,,,,,,,,,2891.578510900028,125,none,0,,,2896.5852487999946,,,,,,,,51,A,2024-01-15_10h04.01.944,gca_avoidance_task,2022.2.4,143.96982364155627,
positions.xlsx,stimuli.xlsx,stimuli/Social1.png,stimuli/Social2.png,stimuli/Nonsocial1.png,stimuli/Nonsocial2.png,,"(0.7, -0.5)",cs_minus_ns,,,,,0,0,0,0,,,,,,,,,1,14,30,15,,,,,,,,,,,,,,,,,,,,,2905.4946091000456,130,reward,1,0.63229910004884,0.632303100079298,2906.1334761001635,,,,,,,,51,A,2024-01-15_10h04.01.944,gca_avoidance_task,2022.2.4,143.96982364155627,
positions.xlsx,stimuli.xlsx,stimuli/Social1.png,stimuli/Social2.png,stimuli/Nonsocial1.png,stimuli/Nonsocial2.png,,"(0.7, 0.5)",cs_minus_ns,,,,,0,0,0,0,,,,,,,,,1,15,31,14,,,,,,,,,,,,,,,,,,,,,2916.320555299986,135,reward,1,0.7637067998293787,0.7637104999739677,2917.0914007001556,,,,,,,,51,A,2024-01-15_10h04.01.944,gca_avoidance_task,2022.2.4,143.96982364155627,
positions.xlsx,stimuli.xlsx,stimuli/Social1.png,stimuli/Social2.png,stimuli/Nonsocial1.png,stimuli/Nonsocial2.png,,"(-0.7, -0.5)",cs_minus_ns,,,,,0,0,0,0,,,,,,,,,2,0,32,13,,,,,,,,,,,,,,,,,,,,,2926.3618324000854,140,reward,1,0.6320545000489801,0.6320584998466074,2927.0006947999354,,,,,,,,51,A,2024-01-15_10h04.01.944,gca_avoidance_task,2022.2.4,143.96982364155627,
positions.xlsx,stimuli.xlsx,stimuli/Social1.png,stimuli/Social2.png,stimuli/Nonsocial1.png,stimuli/Nonsocial2.png,,"(-0.7, 0.5)",cs_plus_s,,,,,0,0,0,0,,,,,,,,,2,1,33,0,,,,,,,,,,,,,,,,,,,,,2936.889191000024,140,none,0,,,2941.895960499998,,,,,,,,51,A,2024-01-15_10h04.01.944,gca_avoidance_task,2022.2.4,143.96982364155627,
positions.xlsx,stimuli.xlsx,stimuli/Social1.png,stimuli/Social2.png,stimuli/Nonsocial1.png,stimuli/Nonsocial2.png,,"(-0.7, 0.5)",cs_minus_s,,,,,0,0,0,0,,,,,,,,,2,2,34,4,,,,,,,,,,,,,,,,,,,,,2951.4094620000105,145,reward,1,0.7850497998297215,0.7919983000028878,2952.208047900116,,,,,,,,51,A,2024-01-15_10h04.01.944,gca_avoidance_task,2022.2.4,143.96982364155627,
positions.xlsx,stimuli.xlsx,stimuli/Social1.png,stimuli/Social2.png,stimuli/Nonsocial1.png,stimuli/Nonsocial2.png,,"(-0.7, -0.5)",cs_minus_s,,,,,0,0,0,0,,,,,,,,,2,3,35,5,,,,,,,,,,,,,,,,,,,,,2961.6382210000884,150,reward,1,0.6808159998618066,0.6808199000079185,2962.3256926999893,,,,,,,,51,A,2024-01-15_10h04.01.944,gca_avoidance_task,2022.2.4,143.96982364155627,
positions.xlsx,stimuli.xlsx,stimuli/Social1.png,stimuli/Social2.png,stimuli/Nonsocial1.png,stimuli/Nonsocial2.png,,"(0.7, 0.5)",cs_plus_ns,,,,,0,0,0,0,,,,,,,,,2,4,36,10,,,,,,,,,,,,,,,,,,,,,2971.2142062999774,150,none,0,,,2976.22792630014,,,,,,,,51,A,2024-01-15_10h04.01.944,gca_avoidance_task,2022.2.4,143.96982364155627,
positions.xlsx,stimuli.xlsx,stimuli/Social1.png,stimuli/Social2.png,stimuli/Nonsocial1.png,stimuli/Nonsocial2.png,,"(0.7, -0.5)",cs_minus_s,,,,,0,0,0,0,,,,,,,,,2,5,37,7,,,,,,,,,,,,,,,,,,,,,2985.755335499998,155,reward,1,0.5974356001242995,0.5974398001562804,2986.359444099944,,,,,,,,51,A,2024-01-15_10h04.01.944,gca_avoidance_task,2022.2.4,143.96982364155627,
positions.xlsx,stimuli.xlsx,stimuli/Social1.png,stimuli/Social2.png,stimuli/Nonsocial1.png,stimuli/Nonsocial2.png,,"(0.7, -0.5)",cs_plus_s,,,,,0,0,0,0,,,,,,,,,2,6,38,3,,,,,,,,,,,,,,,,,,,,,2996.497958800057,155,none,0,,,3001.5046945000067,,,,,,,,51,A,2024-01-15_10h04.01.944,gca_avoidance_task,2022.2.4,143.96982364155627,
positions.xlsx,stimuli.xlsx,stimuli/Social1.png,stimuli/Social2.png,stimuli/Nonsocial1.png,stimuli/Nonsocial2.png,,"(-0.7, -0.5)",cs_plus_ns,,,,,0,0,0,0,,,,,,,,,2,7,39,9,,,,,,,,,,,,,,,,,,,,,3010.344621700002,155,none,0,,,3015.351373899961,,,,,,,,51,A,2024-01-15_10h04.01.944,gca_avoidance_task,2022.2.4,143.96982364155627,
positions.xlsx,stimuli.xlsx,stimuli/Social1.png,stimuli/Social2.png,stimuli/Nonsocial1.png,stimuli/Nonsocial2.png,,"(0.7, -0.5)",cs_plus_ns,,,,,0,0,0,0,,,,,,,,,2,8,40,11,,,,,,,,,,,,,,,,,,,,,3025.739871799946,155,none,0,,,3030.746612200048,,,,,,,,51,A,2024-01-15_10h04.01.944,gca_avoidance_task,2022.2.4,143.96982364155627,
positions.xlsx,stimuli.xlsx,stimuli/Social1.png,stimuli/Social2.png,stimuli/Nonsocial1.png,stimuli/Nonsocial2.png,,"(0.7, 0.5)",cs_minus_s,,,,,0,0,0,0,,,,,,,,,2,9,41,6,,,,,,,,,,,,,,,,,,,,,3039.801813600119,160,reward,1,0.5835463998373598,0.5835505998693407,3040.3920680000447,,,,,,,,51,A,2024-01-15_10h04.01.944,gca_avoidance_task,2022.2.4,143.96982364155627,
positions.xlsx,stimuli.xlsx,stimuli/Social1.png,stimuli/Social2.png,stimuli/Nonsocial1.png,stimuli/Nonsocial2.png,,"(-0.7, -0.5)",cs_plus_s,,,,,0,0,0,0,,,,,,,,,2,10,42,1,,,,,,,,,,,,,,,,,,,,,3050.4958273000084,160,none,0,,,3055.5025599999353,,,,,,,,51,A,2024-01-15_10h04.01.944,gca_avoidance_task,2022.2.4,143.96982364155627,
positions.xlsx,stimuli.xlsx,stimuli/Social1.png,stimuli/Social2.png,stimuli/Nonsocial1.png,stimuli/Nonsocial2.png,,"(0.7, 0.5)",cs_minus_ns,,,,,0,0,0,0,,,,,,,,,2,11,43,14,,,,,,,,,,,,,,,,,,,,,3065.092467200011,165,reward,1,0.7434831999707967,0.7434874998871237,3065.842447400093,,,,,,,,51,A,2024-01-15_10h04.01.944,gca_avoidance_task,2022.2.4,143.96982364155627,
positions.xlsx,stimuli.xlsx,stimuli/Social1.png,stimuli/Social2.png,stimuli/Nonsocial1.png,stimuli/Nonsocial2.png,,"(-0.7, 0.5)",cs_plus_ns,,,,,0,0,0,0,,,,,,,,,2,12,44,8,,,,,,,,,,,,,,,,,,,,,3075.710145900026,165,none,0,,,3080.716857600026,,,,,,,,51,A,2024-01-15_10h04.01.944,gca_avoidance_task,2022.2.4,143.96982364155627,
positions.xlsx,stimuli.xlsx,stimuli/Social1.png,stimuli/Social2.png,stimuli/Nonsocial1.png,stimuli/Nonsocial2.png,,"(0.7, -0.5)",cs_minus_ns,,,,,0,0,0,0,,,,,,,,,2,13,45,15,,,,,,,,,,,,,,,,,,,,,3091.04977719998,170,reward,1,0.9376396001316607,0.9376435000449419,3091.9941891999915,,,,,,,,51,A,2024-01-15_10h04.01.944,gca_avoidance_task,2022.2.4,143.96982364155627,
positions.xlsx,stimuli.xlsx,stimuli/Social1.png,stimuli/Social2.png,stimuli/Nonsocial1.png,stimuli/Nonsocial2.png,,"(0.7, 0.5)",cs_plus_s,,,,,0,0,0,0,,,,,,,,,2,14,46,2,,,,,,,,,,,,,,,,,,,,,3101.479933799943,170,none,0,,,3106.4866859000176,,,,,,,,51,A,2024-01-15_10h04.01.944,gca_avoidance_task,2022.2.4,143.96982364155627,
positions.xlsx,stimuli.xlsx,stimuli/Social1.png,stimuli/Social2.png,stimuli/Nonsocial1.png,stimuli/Nonsocial2.png,,"(-0.7, 0.5)",cs_minus_ns,,,,,0,0,0,0,,,,,,,,,2,15,47,12,,,,,,,,,,,,,,,,,,,,,3116.7501491000876,175,reward,1,0.7157103999052197,0.7157143999356776,3117.4723807000555,,,,,,,,51,A,2024-01-15_10h04.01.944,gca_avoidance_task,2022.2.4,143.96982364155627,
positions.xlsx,stimuli.xlsx,stimuli/Social1.png,stimuli/Social2.png,stimuli/Nonsocial1.png,stimuli/Nonsocial2.png,,"(-0.7, -0.5)",cs_minus_ns,,,,,0,0,0,0,,,,,,,,,3,0,48,13,,,,,,,,,,,,,,,,,,,,,3126.4997849001084,180,reward,1,0.6530618001706898,0.6530657999683172,3127.159463000018,,,,,,,,51,A,2024-01-15_10h04.01.944,gca_avoidance_task,2022.2.4,143.96982364155627,
positions.xlsx,stimuli.xlsx,stimuli/Social1.png,stimuli/Social2.png,stimuli/Nonsocial1.png,stimuli/Nonsocial2.png,,"(-0.7, 0.5)",cs_minus_ns,,,,,0,0,0,0,,,,,,,,,3,1,49,12,,,,,,,,,,,,,,,,,,,,,3136.367446599994,185,reward,1,0.4167949000839144,0.41679910011589527,3136.7910535000265,,,,,,,,51,A,2024-01-15_10h04.01.944,gca_avoidance_task,2022.2.4,143.96982364155627,
positions.xlsx,stimuli.xlsx,stimuli/Social1.png,stimuli/Social2.png,stimuli/Nonsocial1.png,stimuli/Nonsocial2.png,,"(0.7, 0.5)",cs_plus_s,,,,,0,0,0,0,,,,,,,,,3,2,50,2,,,,,,,,,,,,,,,,,,,,,3146.20732460008,185,none,0,,,3151.214067599969,,,,,,,,51,A,2024-01-15_10h04.01.944,gca_avoidance_task,2022.2.4,143.96982364155627,
positions.xlsx,stimuli.xlsx,stimuli/Social1.png,stimuli/Social2.png,stimuli/Nonsocial1.png,stimuli/Nonsocial2.png,,"(0.7, -0.5)",cs_plus_ns,,,,,0,0,0,0,,,,,,,,,3,3,51,11,,,,,,,,,,,,,,,,,,,,,3160.4428695000242,185,none,0,,,3165.449634199962,,,,,,,,51,A,2024-01-15_10h04.01.944,gca_avoidance_task,2022.2.4,143.96982364155627,
positions.xlsx,stimuli.xlsx,stimuli/Social1.png,stimuli/Social2.png,stimuli/Nonsocial1.png,stimuli/Nonsocial2.png,,"(0.7, 0.5)",cs_minus_ns,,,,,0,0,0,0,,,,,,,,,3,4,52,14,,,,,,,,,,,,,,,,,,,,,3174.2617659999523,190,reward,1,0.6391062999609858,0.6391103998757899,3174.9075986000244,,,,,,,,51,A,2024-01-15_10h04.01.944,gca_avoidance_task,2022.2.4,143.96982364155627,
positions.xlsx,stimuli.xlsx,stimuli/Social1.png,stimuli/Social2.png,stimuli/Nonsocial1.png,stimuli/Nonsocial2.png,,"(0.7, -0.5)",cs_plus_s,,,,,0,0,0,0,,,,,,,,,3,5,53,3,,,,,,,,,,,,,,,,,,,,,3183.705836100038,190,shock,1,0.3062398999463767,0.30624409997835755,3184.018417299958,,,,,,,,51,A,2024-01-15_10h04.01.944,gca_avoidance_task,2022.2.4,143.96982364155627,
positions.xlsx,stimuli.xlsx,stimuli/Social1.png,stimuli/Social2.png,stimuli/Nonsocial1.png,stimuli/Nonsocial2.png,,"(-0.7, 0.5)",cs_plus_s,,,,,0,0,0,0,,,,,,,,,3,6,54,0,,,,,,,,,,,,,,,,,,,,,3193.6845921999775,190,none,0,,,3198.6913795000874,,,,,,,,51,A,2024-01-15_10h04.01.944,gca_avoidance_task,2022.2.4,143.96982364155627,
positions.xlsx,stimuli.xlsx,stimuli/Social1.png,stimuli/Social2.png,stimuli/Nonsocial1.png,stimuli/Nonsocial2.png,,"(-0.7, 0.5)",cs_plus_ns,,,,,0,0,0,0,,,,,,,,,3,7,55,8,,,,,,,,,,,,,,,,,,,,,3207.503518300131,190,none,0,,,3212.510272399988,,,,,,,,51,A,2024-01-15_10h04.01.944,gca_avoidance_task,2022.2.4,143.96982364155627,
positions.xlsx,stimuli.xlsx,stimuli/Social1.png,stimuli/Social2.png,stimuli/Nonsocial1.png,stimuli/Nonsocial2.png,,"(-0.7, -0.5)",cs_minus_s,,,,,0,0,0,0,,,,,,,,,3,8,56,5,,,,,,,,,,,,,,,,,,,,,3221.4821496000513,195,reward,1,1.1043434001039714,1.1043473000172526,3222.59322670009,,,,,,,,51,A,2024-01-15_10h04.01.944,gca_avoidance_task,2022.2.4,143.96982364155627,
positions.xlsx,stimuli.xlsx,stimuli/Social1.png,stimuli/Social2.png,stimuli/Nonsocial1.png,stimuli/Nonsocial2.png,,"(0.7, -0.5)",cs_minus_ns,,,,,0,0,0,0,,,,,,,,,3,9,57,15,,,,,,,,,,,,,,,,,,,,,3232.849728900008,200,reward,1,0.26407109992578626,0.2640750000718981,3233.120591300074,,,,,,,,51,A,2024-01-15_10h04.01.944,gca_avoidance_task,2022.2.4,143.96982364155627,
positions.xlsx,stimuli.xlsx,stimuli/Social1.png,stimuli/Social2.png,stimuli/Nonsocial1.png,stimuli/Nonsocial2.png,,"(0.7, 0.5)",cs_plus_ns,,,,,0,0,0,0,,,,,,,,,3,10,58,10,,,,,,,,,,,,,,,,,,,,,3242.842397399945,200,none,0,,,3247.856128100073,,,,,,,,51,A,2024-01-15_10h04.01.944,gca_avoidance_task,2022.2.4,143.96982364155627,
positions.xlsx,stimuli.xlsx,stimuli/Social1.png,stimuli/Social2.png,stimuli/Nonsocial1.png,stimuli/Nonsocial2.png,,"(-0.7, 0.5)",cs_minus_s,,,,,0,0,0,0,,,,,,,,,3,11,59,4,,,,,,,,,,,,,,,,,,,,,3257.2584760000464,205,reward,1,0.6182773001492023,0.6182813001796603,3257.8834621999413,,,,,,,,51,A,2024-01-15_10h04.01.944,gca_avoidance_task,2022.2.4,143.96982364155627,
positions.xlsx,stimuli.xlsx,stimuli/Social1.png,stimuli/Social2.png,stimuli/Nonsocial1.png,stimuli/Nonsocial2.png,,"(0.7, -0.5)",cs_minus_s,,,,,0,0,0,0,,,,,,,,,3,12,60,7,,,,,,,,,,,,,,,,,,,,,3267.0220344001427,210,reward,1,0.5908823998179287,0.5908859998453408,3267.6192427000497,,,,,,,,51,A,2024-01-15_10h04.01.944,gca_avoidance_task,2022.2.4,143.96982364155627,
positions.xlsx,stimuli.xlsx,stimuli/Social1.png,stimuli/Social2.png,stimuli/Nonsocial1.png,stimuli/Nonsocial2.png,,"(-0.7, -0.5)",cs_plus_s,,,,,0,0,0,0,,,,,,,,,3,13,61,1,,,,,,,,,,,,,,,,,,,,,3277.2646508000325,210,none,0,,,3282.2714271000586,,,,,,,,51,A,2024-01-15_10h04.01.944,gca_avoidance_task,2022.2.4,143.96982364155627,
positions.xlsx,stimuli.xlsx,stimuli/Social1.png,stimuli/Social2.png,stimuli/Nonsocial1.png,stimuli/Nonsocial2.png,,"(0.7, 0.5)",cs_minus_s,,,,,0,0,0,0,,,,,,,,,3,14,62,6,,,,,,,,,,,,,,,,,,,,,3291.278032900067,215,reward,1,0.680912199895829,0.6809163999278098,3291.9654521001503,,,,,,,,51,A,2024-01-15_10h04.01.944,gca_avoidance_task,2022.2.4,143.96982364155627,
positions.xlsx,stimuli.xlsx,stimuli/Social1.png,stimuli/Social2.png,stimuli/Nonsocial1.png,stimuli/Nonsocial2.png,,"(-0.7, -0.5)",cs_plus_ns,,,,,0,0,0,0,,,,,,,,,3,15,63,9,,,,,,,,,,,,,,,,,,,,,3301.0831275000237,215,none,0,,,3306.089897100115,,,,,,,,51,A,2024-01-15_10h04.01.944,gca_avoidance_task,2022.2.4,143.96982364155627,
positions.xlsx,stimuli.xlsx,stimuli/Social1.png,stimuli/Social2.png,stimuli/Nonsocial1.png,stimuli/Nonsocial2.png,,"(-0.7, 0.5)",cs_plus_s,,,,,0,0,0,0,,,,,,,,,4,0,64,0,,,,,,,,,,,,,,,,,,,,,3316.221438500099,215,none,0,,,3321.2282082000747,,,,,,,,51,A,2024-01-15_10h04.01.944,gca_avoidance_task,2022.2.4,143.96982364155627,
positions.xlsx,stimuli.xlsx,stimuli/Social1.png,stimuli/Social2.png,stimuli/Nonsocial1.png,stimuli/Nonsocial2.png,,"(-0.7, -0.5)",cs_minus_ns,,,,,0,0,0,0,,,,,,,,,4,1,65,13,,,,,,,,,,,,,,,,,,,,,3330.311186200008,220,reward,1,0.6179822001140565,0.6179863000288606,3330.9361591001507,,,,,,,,51,A,2024-01-15_10h04.01.944,gca_avoidance_task,2022.2.4,143.96982364155627,
positions.xlsx,stimuli.xlsx,stimuli/Social1.png,stimuli/Social2.png,stimuli/Nonsocial1.png,stimuli/Nonsocial2.png,,"(-0.7, 0.5)",cs_minus_ns,,,,,0,0,0,0,,,,,,,,,4,2,66,12,,,,,,,,,,,,,,,,,,,,,3340.4913530000485,225,reward,1,0.4651498000603169,0.4651540999766439,3340.9635803999845,,,,,,,,51,A,2024-01-15_10h04.01.944,gca_avoidance_task,2022.2.4,143.96982364155627,
positions.xlsx,stimuli.xlsx,stimuli/Social1.png,stimuli/Social2.png,stimuli/Nonsocial1.png,stimuli/Nonsocial2.png,,"(-0.7, -0.5)",cs_plus_s,,,,,0,0,0,0,,,,,,,,,4,3,67,1,,,,,,,,,,,,,,,,,,,,,3350.872885100078,225,none,0,,,3355.8796181001235,,,,,,,,51,A,2024-01-15_10h04.01.944,gca_avoidance_task,2022.2.4,143.96982364155627,
positions.xlsx,stimuli.xlsx,stimuli/Social1.png,stimuli/Social2.png,stimuli/Nonsocial1.png,stimuli/Nonsocial2.png,,"(0.7, -0.5)",cs_minus_ns,,,,,0,0,0,0,,,,,,,,,4,4,68,15,,,,,,,,,,,,,,,,,,,,,3365.344491200056,230,reward,1,0.24319720012135804,0.24320130003616214,3365.5944930000696,,,,,,,,51,A,2024-01-15_10h04.01.944,gca_avoidance_task,2022.2.4,143.96982364155627,
positions.xlsx,stimuli.xlsx,stimuli/Social1.png,stimuli/Social2.png,stimuli/Nonsocial1.png,stimuli/Nonsocial2.png,,"(0.7, 0.5)",cs_plus_s,,,,,0,0,0,0,,,,,,,,,4,5,69,2,,,,,,,,,,,,,,,,,,,,,3375.0246453001164,230,none,0,,,3380.031439000042,,,,,,,,51,A,2024-01-15_10h04.01.944,gca_avoidance_task,2022.2.4,143.96982364155627,
positions.xlsx,stimuli.xlsx,stimuli/Social1.png,stimuli/Social2.png,stimuli/Nonsocial1.png,stimuli/Nonsocial2.png,,"(-0.7, -0.5)",cs_plus_ns,,,,,0,0,0,0,,,,,,,,,4,6,70,9,,,,,,,,,,,,,,,,,,,,,3390.1282635000534,230,none,0,,,3395.1350100000855,,,,,,,,51,A,2024-01-15_10h04.01.944,gca_avoidance_task,2022.2.4,143.96982364155627,
positions.xlsx,stimuli.xlsx,stimuli/Social1.png,stimuli/Social2.png,stimuli/Nonsocial1.png,stimuli/Nonsocial2.png,,"(-0.7, 0.5)",cs_minus_s,,,,,0,0,0,0,,,,,,,,,4,7,71,4,,,,,,,,,,,,,,,,,,,,,3405.3290246999823,235,reward,1,0.6942096999846399,0.694213799899444,3406.030408400111,,,,,,,,51,A,2024-01-15_10h04.01.944,gca_avoidance_task,2022.2.4,143.96982364155627,
positions.xlsx,stimuli.xlsx,stimuli/Social1.png,stimuli/Social2.png,stimuli/Nonsocial1.png,stimuli/Nonsocial2.png,,"(0.7, -0.5)",cs_minus_s,,,,,0,0,0,0,,,,,,,,,4,8,72,7,,,,,,,,,,,,,,,,,,,,,3415.9188985000364,240,reward,1,0.6598662999458611,0.6598701998591423,3416.5855473000556,,,,,,,,51,A,2024-01-15_10h04.01.944,gca_avoidance_task,2022.2.4,143.96982364155627,
positions.xlsx,stimuli.xlsx,stimuli/Social1.png,stimuli/Social2.png,stimuli/Nonsocial1.png,stimuli/Nonsocial2.png,,"(0.7, 0.5)",cs_minus_ns,,,,,0,0,0,0,,,,,,,,,4,9,73,14,,,,,,,,,,,,,,,,,,,,,3426.9809565001633,245,reward,1,0.7504084999673069,0.750412599882111,3427.7378434999846,,,,,,,,51,A,2024-01-15_10h04.01.944,gca_avoidance_task,2022.2.4,143.96982364155627,
positions.xlsx,stimuli.xlsx,stimuli/Social1.png,stimuli/Social2.png,stimuli/Nonsocial1.png,stimuli/Nonsocial2.png,,"(0.7, 0.5)",cs_minus_s,,,,,0,0,0,0,,,,,,,,,4,10,74,6,,,,,,,,,,,,,,,,,,,,,3437.480552599998,250,reward,1,0.5277321001049131,0.5277361001353711,3438.015239899978,,,,,,,,51,A,2024-01-15_10h04.01.944,gca_avoidance_task,2022.2.4,143.96982364155627,
positions.xlsx,stimuli.xlsx,stimuli/Social1.png,stimuli/Social2.png,stimuli/Nonsocial1.png,stimuli/Nonsocial2.png,,"(-0.7, 0.5)",cs_plus_ns,,,,,0,0,0,0,,,,,,,,,4,11,75,8,,,,,,,,,,,,,,,,,,,,,3448.2926103000063,250,none,0,,,3453.306314599933,,,,,,,,51,A,2024-01-15_10h04.01.944,gca_avoidance_task,2022.2.4,143.96982364155627,
positions.xlsx,stimuli.xlsx,stimuli/Social1.png,stimuli/Social2.png,stimuli/Nonsocial1.png,stimuli/Nonsocial2.png,,"(0.7, 0.5)",cs_plus_ns,,,,,0,0,0,0,,,,,,,,,4,12,76,10,,,,,,,,,,,,,,,,,,,,,3463.0767547001597,250,none,0,,,3468.090477500111,,,,,,,,51,A,2024-01-15_10h04.01.944,gca_avoidance_task,2022.2.4,143.96982364155627,
positions.xlsx,stimuli.xlsx,stimuli/Social1.png,stimuli/Social2.png,stimuli/Nonsocial1.png,stimuli/Nonsocial2.png,,"(-0.7, -0.5)",cs_minus_s,,,,,0,0,0,0,,,,,,,,,4,13,77,5,,,,,,,,,,,,,,,,,,,,,3477.7915056999773,255,reward,1,0.7017614999786019,0.701765599893406,3478.499783199979,,,,,,,,51,A,2024-01-15_10h04.01.944,gca_avoidance_task,2022.2.4,143.96982364155627,
positions.xlsx,stimuli.xlsx,stimuli/Social1.png,stimuli/Social2.png,stimuli/Nonsocial1.png,stimuli/Nonsocial2.png,,"(0.7, -0.5)",cs_plus_ns,,,,,0,0,0,0,,,,,,,,,4,14,78,11,,,,,,,,,,,,,,,,,,,,,3487.8118994000833,255,none,0,,,3492.8255917001516,,,,,,,,51,A,2024-01-15_10h04.01.944,gca_avoidance_task,2022.2.4,143.96982364155627,
positions.xlsx,stimuli.xlsx,stimuli/Social1.png,stimuli/Social2.png,stimuli/Nonsocial1.png,stimuli/Nonsocial2.png,,"(0.7, -0.5)",cs_plus_s,,,,,0,0,0,0,,,,,,,,,4,15,79,3,,,,,,,,,,,,,,,,,,,,,3501.679401200032,255,none,0,,,3506.686158900149,,,,,,,,51,A,2024-01-15_10h04.01.944,gca_avoidance_task,2022.2.4,143.96982364155627,
positions.xlsx,stimuli.xlsx,stimuli/Social1.png,stimuli/Social2.png,stimuli/Nonsocial1.png,stimuli/Nonsocial2.png,cs_plus_s,,,,,,,0,0,0,0,,,,,,,,,,,,,0,0,0,0,,,,,,,,,,,,,3527.838126800023,8.0,8.981700900010765,,,,,,,,,6.0,5.7922955001704395,,,,,,51,A,2024-01-15_10h04.01.944,gca_avoidance_task,2022.2.4,143.96982364155627,
positions.xlsx,stimuli.xlsx,stimuli/Social1.png,stimuli/Social2.png,stimuli/Nonsocial1.png,stimuli/Nonsocial2.png,cs_minus_ns,,,,,,,0,0,0,0,,,,,,,,,,,,,0,1,1,3,,,,,,,,,,,,,3537.7474499000236,10.0,6.304498000070453,,,,,,,,,,,,,,,,51,A,2024-01-15_10h04.01.944,gca_avoidance_task,2022.2.4,143.96982364155627,
positions.xlsx,stimuli.xlsx,stimuli/Social1.png,stimuli/Social2.png,stimuli/Nonsocial1.png,stimuli/Nonsocial2.png,cs_minus_s,,,,,,,0,0,0,0,,,,,,,,,,,,,0,2,2,2,,,,,,,,,,,,,3545.066577000078,10.0,1.0278282000217587,,,,,,,,,,,,,,,,51,A,2024-01-15_10h04.01.944,gca_avoidance_task,2022.2.4,143.96982364155627,
positions.xlsx,stimuli.xlsx,stimuli/Social1.png,stimuli/Social2.png,stimuli/Nonsocial1.png,stimuli/Nonsocial2.png,cs_plus_ns,,,,,,,0,0,0,0,,,,,,,,,,,,,0,3,3,1,,,,,,,,,,,,,3546.920722699957,6.0,3.2231246000155807,,,,,,,,,,,,,,,,51,A,2024-01-15_10h04.01.944,gca_avoidance_task,2022.2.4,143.96982364155627,
positions.xlsx,stimuli.xlsx,stimuli/Social1.png,stimuli/Social2.png,stimuli/Nonsocial1.png,stimuli/Nonsocial2.png,cs_plus_ns,,,,,,,0,0,0,0,,,,,,,,,,,,,,,,,0,0,0,1,,,,,,,,,,,,,,,,,,,,,,3550.858014400117,3557.135548700113,2,0.02290099998936057,3.131703000050038,51,A,2024-01-15_10h04.01.944,gca_avoidance_task,2022.2.4,143.96982364155627,
positions.xlsx,stimuli.xlsx,stimuli/Social1.png,stimuli/Social2.png,stimuli/Nonsocial1.png,stimuli/Nonsocial2.png,cs_minus_ns,,,,,,,0,0,0,0,,,,,,,,,,,,,,,,,0,1,1,3,,,,,,,,,,,,,,,,,,,,,,,3572.2669301000424,1,0.014550599968060851,9.999964900081977,51,A,2024-01-15_10h04.01.944,gca_avoidance_task,2022.2.4,143.96982364155627,
positions.xlsx,stimuli.xlsx,stimuli/Social1.png,stimuli/Social2.png,stimuli/Nonsocial1.png,stimuli/Nonsocial2.png,cs_plus_s,,,,,,,0,0,0,0,,,,,,,,,,,,,,,,,0,2,2,0,,,,,,,,,,,,,,,,,,,,,,,3587.606572800083,2,0.01406800001859665,6.701134299859405,51,A,2024-01-15_10h04.01.944,gca_avoidance_task,2022.2.4,143.96982364155627,
positions.xlsx,stimuli.xlsx,stimuli/Social1.png,stimuli/Social2.png,stimuli/Nonsocial1.png,stimuli/Nonsocial2.png,cs_minus_s,,,,,,,0,0,0,0,,,,,,,,,,,,,,,,,0,3,3,2,,,,,,,,,,,,,,,,,,,,,,,3602.1268399001565,6,0.013902199920266867,1.0348515000659972,51,A,2024-01-15_10h04.01.944,gca_avoidance_task,2022.2.4,143.96982364155627,
positions.xlsx,stimuli.xlsx,stimuli/Social1.png,stimuli/Social2.png,stimuli/Nonsocial1.png,stimuli/Nonsocial2.png,cs_minus_s,,,,,,,0,0,0,0,,,,,,,,,,,,,,,,,1,0,4,2,,,,,,,,,,,,,,,,,,,,,,,3617.4943166000303,3,0.01324120000936091,4.097565999953076,51,A,2024-01-15_10h04.01.944,gca_avoidance_task,2022.2.4,143.96982364155627,
positions.xlsx,stimuli.xlsx,stimuli/Social1.png,stimuli/Social2.png,stimuli/Nonsocial1.png,stimuli/Nonsocial2.png,cs_plus_s,,,,,,,0,0,0,0,,,,,,,,,,,,,,,,,1,1,5,0,,,,,,,,,,,,,,,,,,,,,,,3632.8964889000636,1,0.013250400079414248,10.000049700029194,51,A,2024-01-15_10h04.01.944,gca_avoidance_task,2022.2.4,143.96982364155627,
positions.xlsx,stimuli.xlsx,stimuli/Social1.png,stimuli/Social2.png,stimuli/Nonsocial1.png,stimuli/Nonsocial2.png,cs_plus_ns,,,,,,,0,0,0,0,,,,,,,,,,,,,,,,,1,2,6,1,,,,,,,,,,,,,,,,,,,,,,,3647.888941799989,8,0.015072699869051576,2.250068600056693,51,A,2024-01-15_10h04.01.944,gca_avoidance_task,2022.2.4,143.96982364155627,
positions.xlsx,stimuli.xlsx,stimuli/Social1.png,stimuli/Social2.png,stimuli/Nonsocial1.png,stimuli/Nonsocial2.png,cs_minus_ns,,,,,,,0,0,0,0,,,,,,,,,,,,,,,,,1,3,7,3,,,,,,,,,,,,,,,,,,,,,,,3663.318894200027,14,0.014243500074371696,1.5836902000010014,51,A,2024-01-15_10h04.01.944,gca_avoidance_task,2022.2.4,143.96982364155627,
positions.xlsx,stimuli.xlsx,stimuli/Social1.png,stimuli/Social2.png,stimuli/Nonsocial1.png,stimuli/Nonsocial2.png,cs_minus_s,,,,,,,0,0,0,0,,,,,,,,,,,,,,,,,2,0,8,2,,,,,,,,,,,,,,,,,,,,,,,3678.318289200077,1,0.014284600038081408,9.99988740007393,51,A,2024-01-15_10h04.01.944,gca_avoidance_task,2022.2.4,143.96982364155627,
positions.xlsx,stimuli.xlsx,stimuli/Social1.png,stimuli/Social2.png,stimuli/Nonsocial1.png,stimuli/Nonsocial2.png,cs_plus_ns,,,,,,,0,0,0,0,,,,,,,,,,,,,,,,,2,1,9,1,,,,,,,,,,,,,,,,,,,,,,,3693.039999200031,7,0.015276799909770489,1.701745199970901,51,A,2024-01-15_10h04.01.944,gca_avoidance_task,2022.2.4,143.96982364155627,
positions.xlsx,stimuli.xlsx,stimuli/Social1.png,stimuli/Social2.png,stimuli/Nonsocial1.png,stimuli/Nonsocial2.png,cs_plus_s,,,,,,,0,0,0,0,,,,,,,,,,,,,,,,,2,2,10,0,,,,,,,,,,,,,,,,,,,,,,,3708.4490326000378,4,0.0139703000895679,0.08367369999177754,51,A,2024-01-15_10h04.01.944,gca_avoidance_task,2022.2.4,143.96982364155627,
positions.xlsx,stimuli.xlsx,stimuli/Social1.png,stimuli/Social2.png,stimuli/Nonsocial1.png,stimuli/Nonsocial2.png,cs_minus_ns,,,,,,,0,0,0,0,,,,,,,,,,,,,,,,,2,3,11,3,,,,,,,,,,,,,,,,,,,,,,,3723.434558799956,1,0.0152859000954777,10.000306700123474,51,A,2024-01-15_10h04.01.944,gca_avoidance_task,2022.2.4,143.96982364155627,
positions.xlsx,stimuli.xlsx,stimuli/Social1.png,stimuli/Social2.png,stimuli/Nonsocial1.png,stimuli/Nonsocial2.png,cs_plus_s,,,,,,,0,0,0,0,,,,,,,,,,,,,,,,,3,0,12,0,,,,,,,,,,,,,,,,,,,,,,,3738.83676620014,2,0.013530800119042397,1.5628545000217855,51,A,2024-01-15_10h04.01.944,gca_avoidance_task,2022.2.4,143.96982364155627,
positions.xlsx,stimuli.xlsx,stimuli/Social1.png,stimuli/Social2.png,stimuli/Nonsocial1.png,stimuli/Nonsocial2.png,cs_minus_s,,,,,,,0,0,0,0,,,,,,,,,,,,,,,,,3,1,13,2,,,,,,,,,,,,,,,,,,,,,,,3753.7597336999606,9,0.01370040001347661,0.813172500114888,51,A,2024-01-15_10h04.01.944,gca_avoidance_task,2022.2.4,143.96982364155627,
positions.xlsx,stimuli.xlsx,stimuli/Social1.png,stimuli/Social2.png,stimuli/Nonsocial1.png,stimuli/Nonsocial2.png,cs_plus_ns,,,,,,,0,0,0,0,,,,,,,,,,,,,,,,,3,2,14,1,,,,,,,,,,,,,,,,,,,,,,,3769.1480251001194,9,0.014182399958372116,1.63231740007177,51,A,2024-01-15_10h04.01.944,gca_avoidance_task,2022.2.4,143.96982364155627,
positions.xlsx,stimuli.xlsx,stimuli/Social1.png,stimuli/Social2.png,stimuli/Nonsocial1.png,stimuli/Nonsocial2.png,cs_minus_ns,,,,,,,0,0,0,0,,,,,,,,,,,,,,,,,3,3,15,3,,,,,,,,,,,,,,,,,,,,,,,3783.7725079001393,4,0.013829800067469478,1.639228800078854,51,A,2024-01-15_10h04.01.944,gca_avoidance_task,2022.2.4,143.96982364155627,
positions.xlsx,stimuli.xlsx,stimuli/Social1.png,stimuli/Social2.png,stimuli/Nonsocial1.png,stimuli/Nonsocial2.png,cs_minus_ns,,,,,,,0,0,0,0,,,,,,,,,,,,,,,,,4,0,16,3,,,,,,,,,,,,,,,,,,,,,,,3798.4940892001614,4,0.014252099907025695,1.0073543000034988,51,A,2024-01-15_10h04.01.944,gca_avoidance_task,2022.2.4,143.96982364155627,
positions.xlsx,stimuli.xlsx,stimuli/Social1.png,stimuli/Social2.png,stimuli/Nonsocial1.png,stimuli/Nonsocial2.png,cs_plus_ns,,,,,,,0,0,0,0,,,,,,,,,,,,,,,,,4,1,17,1,,,,,,,,,,,,,,,,,,,,,,,3813.7643069000915,3,0.014528200030326843,1.4932993000838906,51,A,2024-01-15_10h04.01.944,gca_avoidance_task,2022.2.4,143.96982364155627,
positions.xlsx,stimuli.xlsx,stimuli/Social1.png,stimuli/Social2.png,stimuli/Nonsocial1.png,stimuli/Nonsocial2.png,cs_minus_s,,,,,,,0,0,0,0,,,,,,,,,,,,,,,,,4,2,18,2,,,,,,,,,,,,,,,,,,,,,,,3829.0692541999742,4,0.015255100093781948,1.1947016001213342,51,A,2024-01-15_10h04.01.944,gca_avoidance_task,2022.2.4,143.96982364155627,
positions.xlsx,stimuli.xlsx,stimuli/Social1.png,stimuli/Social2.png,stimuli/Nonsocial1.png,stimuli/Nonsocial2.png,cs_plus_s,,,,,,,0,0,0,0,,,,,,,,,,,,,,,,,4,3,19,0,,,,,,,,,,,,,,,,,,,,,,,3843.943672399968,4,0.01379840006120503,2.0420049999374896,51,A,2024-01-15_10h04.01.944,gca_avoidance_task,2022.2.4,143.96982364155627,
positions.xlsx,stimuli.xlsx,stimuli/Social1.png,stimuli/Social2.png,stimuli/Nonsocial1.png,stimuli/Nonsocial2.png,cs_minus_s,,,,,,,0,0,0,0,,,,,,,,,,,,,,,,,5,0,20,2,,,,,,,,,,,,,,,,,,,,,,,3859.1791720001493,5,0.16017120005562901,2.243338300148025,51,A,2024-01-15_10h04.01.944,gca_avoidance_task,2022.2.4,143.96982364155627,
positions.xlsx,stimuli.xlsx,stimuli/Social1.png,stimuli/Social2.png,stimuli/Nonsocial1.png,stimuli/Nonsocial2.png,cs_minus_ns,,,,,,,0,0,0,0,,,,,,,,,,,,,,,,,5,1,21,3,,,,,,,,,,,,,,,,,,,,,,,3874.442504900042,5,0.014924899907782674,2.4098932000342757,51,A,2024-01-15_10h04.01.944,gca_avoidance_task,2022.2.4,143.96982364155627,
positions.xlsx,stimuli.xlsx,stimuli/Social1.png,stimuli/Social2.png,stimuli/Nonsocial1.png,stimuli/Nonsocial2.png,cs_plus_ns,,,,,,,0,0,0,0,,,,,,,,,,,,,,,,,5,2,22,1,,,,,,,,,,,,,,,,,,,,,,,3889.4835520000197,3,0.02809999999590218,1.7641006999183446,51,A,2024-01-15_10h04.01.944,gca_avoidance_task,2022.2.4,143.96982364155627,
positions.xlsx,stimuli.xlsx,stimuli/Social1.png,stimuli/Social2.png,stimuli/Nonsocial1.png,stimuli/Nonsocial2.png,cs_plus_s,,,,,,,0,0,0,0,,,,,,,,,,,,,,,,,5,3,23,0,,,,,,,,,,,,,,,,,,,,,,,3904.4204553000163,6,0.01337460009381175,2.3684370000846684,51,A,2024-01-15_10h04.01.944,gca_avoidance_task,2022.2.4,143.96982364155627,
positions.xlsx,stimuli.xlsx,stimuli/Social1.png,stimuli/Social2.png,stimuli/Nonsocial1.png,stimuli/Nonsocial2.png,cs_minus_s,,,,,,,0,0,0,0,,,,,,,,,,,,,,,,,6,0,24,2,,,,,,,,,,,,,,,,,,,,,,,3918.954598300159,5,4.632420600159094,6.465396499959752,51,A,2024-01-15_10h04.01.944,gca_avoidance_task,2022.2.4,143.96982364155627,
positions.xlsx,stimuli.xlsx,stimuli/Social1.png,stimuli/Social2.png,stimuli/Nonsocial1.png,stimuli/Nonsocial2.png,cs_plus_ns,,,,,,,0,0,0,0,,,,,,,,,,,,,,,,,6,1,25,1,,,,,,,,,,,,,,,,,,,,,,,3933.988722300157,2,0.14637640002183616,4.076555600157008,51,A,2024-01-15_10h04.01.944,gca_avoidance_task,2022.2.4,143.96982364155627,
positions.xlsx,stimuli.xlsx,stimuli/Social1.png,stimuli/Social2.png,stimuli/Nonsocial1.png,stimuli/Nonsocial2.png,cs_minus_ns,,,,,,,0,0,0,0,,,,,,,,,,,,,,,,,6,2,26,3,,,,,,,,,,,,,,,,,,,,,,,3949.4325769999996,4,0.01399499992839992,2.521896000020206,51,A,2024-01-15_10h04.01.944,gca_avoidance_task,2022.2.4,143.96982364155627,
positions.xlsx,stimuli.xlsx,stimuli/Social1.png,stimuli/Social2.png,stimuli/Nonsocial1.png,stimuli/Nonsocial2.png,cs_plus_s,,,,,,,0,0,0,0,,,,,,,,,,,,,,,,,6,3,27,0,,,,,,,,,,,,,,,,,,,,,,,3964.362589100143,3,0.014380999840795994,1.8960239998996258,51,A,2024-01-15_10h04.01.944,gca_avoidance_task,2022.2.4,143.96982364155627,
positions.xlsx,stimuli.xlsx,stimuli/Social1.png,stimuli/Social2.png,stimuli/Nonsocial1.png,stimuli/Nonsocial2.png,cs_minus_s,,,,,,,0,0,0,0,,,,,,,,,,,,,,,,,7,0,28,2,,,,,,,,,,,,,,,,,,,,,,,3979.4868974001147,5,0.014474499970674515,0.7850907000247389,51,A,2024-01-15_10h04.01.944,gca_avoidance_task,2022.2.4,143.96982364155627,
positions.xlsx,stimuli.xlsx,stimuli/Social1.png,stimuli/Social2.png,stimuli/Nonsocial1.png,stimuli/Nonsocial2.png,cs_minus_ns,,,,,,,0,0,0,0,,,,,,,,,,,,,,,,,7,1,29,3,,,,,,,,,,,,,,,,,,,,,,,3994.416919700103,5,0.01458449987694621,2.3405307000502944,51,A,2024-01-15_10h04.01.944,gca_avoidance_task,2022.2.4,143.96982364155627,
positions.xlsx,stimuli.xlsx,stimuli/Social1.png,stimuli/Social2.png,stimuli/Nonsocial1.png,stimuli/Nonsocial2.png,cs_plus_s,,,,,,,0,0,0,0,,,,,,,,,,,,,,,,,7,2,30,0,,,,,,,,,,,,,,,,,,,,,,,4008.971893500071,4,0.013261999934911728,1.0767158998642117,51,A,2024-01-15_10h04.01.944,gca_avoidance_task,2022.2.4,143.96982364155627,
positions.xlsx,stimuli.xlsx,stimuli/Social1.png,stimuli/Social2.png,stimuli/Nonsocial1.png,stimuli/Nonsocial2.png,cs_plus_ns,,,,,,,0,0,0,0,,,,,,,,,,,,,,,,,7,3,31,1,,,,,,,,,,,,,,,,,,,,,,,4024.0615799000952,5,0.014401399996131659,3.4863639001268893,51,A,2024-01-15_10h04.01.944,gca_avoidance_task,2022.2.4,143.96982364155627,
positions.xlsx,stimuli.xlsx,stimuli/Social1.png,stimuli/Social2.png,stimuli/Nonsocial1.png,stimuli/Nonsocial2.png,cs_minus_s,,,,,,,0,0,0,0,,,,,,,,,,,,,,,,,8,0,32,2,,,,,,,,,,,,,,,,,,,,,,,4038.672196800122,6,0.22255219984799623,1.5210676998831332,51,A,2024-01-15_10h04.01.944,gca_avoidance_task,2022.2.4,143.96982364155627,
positions.xlsx,stimuli.xlsx,stimuli/Social1.png,stimuli/Social2.png,stimuli/Nonsocial1.png,stimuli/Nonsocial2.png,cs_plus_ns,,,,,,,0,0,0,0,,,,,,,,,,,,,,,,,8,1,33,1,,,,,,,,,,,,,,,,,,,,,,,4054.0326304000337,3,0.014404100133106112,0.9864523001015186,51,A,2024-01-15_10h04.01.944,gca_avoidance_task,2022.2.4,143.96982364155627,
positions.xlsx,stimuli.xlsx,stimuli/Social1.png,stimuli/Social2.png,stimuli/Nonsocial1.png,stimuli/Nonsocial2.png,cs_minus_ns,,,,,,,0,0,0,0,,,,,,,,,,,,,,,,,8,2,34,3,,,,,,,,,,,,,,,,,,,,,,,4068.7820103999693,4,0.013841500040143728,0.9655605999287218,51,A,2024-01-15_10h04.01.944,gca_avoidance_task,2022.2.4,143.96982364155627,
positions.xlsx,stimuli.xlsx,stimuli/Social1.png,stimuli/Social2.png,stimuli/Nonsocial1.png,stimuli/Nonsocial2.png,cs_plus_s,,,,,,,0,0,0,0,,,,,,,,,,,,,,,,,8,3,35,0,,,,,,,,,,,,,,,,,,,,,,,4084.1911270001438,4,0.1253833998925984,0.7641916999127716,51,A,2024-01-15_10h04.01.944,gca_avoidance_task,2022.2.4,143.96982364155627,
positions.xlsx,stimuli.xlsx,stimuli/Social1.png,stimuli/Social2.png,stimuli/Nonsocial1.png,stimuli/Nonsocial2.png,cs_minus_ns,,,,,,,0,0,0,0,,,,,,,,,,,,,,,,,9,0,36,3,,,,,,,,,,,,,,,,,,,,,,,4099.218330400065,2,0.015060599893331528,3.29882699996233,51,A,2024-01-15_10h04.01.944,gca_avoidance_task,2022.2.4,143.96982364155627,
positions.xlsx,stimuli.xlsx,stimuli/Social1.png,stimuli/Social2.png,stimuli/Nonsocial1.png,stimuli/Nonsocial2.png,cs_plus_ns,,,,,,,0,0,0,0,,,,,,,,,,,,,,,,,9,1,37,1,,,,,,,,,,,,,,,,,,,,,,,4114.134399800096,7,0.24347190000116825,1.6252411000896245,51,A,2024-01-15_10h04.01.944,gca_avoidance_task,2022.2.4,143.96982364155627,
positions.xlsx,stimuli.xlsx,stimuli/Social1.png,stimuli/Social2.png,stimuli/Nonsocial1.png,stimuli/Nonsocial2.png,cs_plus_s,,,,,,,0,0,0,0,,,,,,,,,,,,,,,,,9,2,38,0,,,,,,,,,,,,,,,,,,,,,,,4128.842138299951,4,0.01375199994072318,4.923857599962503,51,A,2024-01-15_10h04.01.944,gca_avoidance_task,2022.2.4,143.96982364155627,
positions.xlsx,stimuli.xlsx,stimuli/Social1.png,stimuli/Social2.png,stimuli/Nonsocial1.png,stimuli/Nonsocial2.png,cs_minus_s,,,,,,,0,0,0,0,,,,,,,,,,,,,,,,,9,3,39,2,,,,,,,,,,,,,,,,,,,,,,,4143.640168600017,4,0.014301200164481997,1.2363623001147062,51,A,2024-01-15_10h04.01.944,gca_avoidance_task,2022.2.4,143.96982364155627,
positions.xlsx,stimuli.xlsx,stimuli/Social1.png,stimuli/Social2.png,stimuli/Nonsocial1.png,stimuli/Nonsocial2.png,cs_minus_s,,,,,,,0,0,0,0,,,,,,,,,,,,,,,,,,,,,0,0,0,2,,,,,4158.091003200039,9.0,10.17661159997806,,,,,,,,,,,,,,,,51,A,2024-01-15_10h04.01.944,gca_avoidance_task,2022.2.4,143.96982364155627,
positions.xlsx,stimuli.xlsx,stimuli/Social1.png,stimuli/Social2.png,stimuli/Nonsocial1.png,stimuli/Nonsocial2.png,cs_minus_ns,,,,,,,0,0,0,0,,,,,,,,,,,,,,,,,,,,,0,1,1,3,,,,,4169.625276100123,9.0,1.7923631998710334,,,,,,,,,,,,,,,,51,A,2024-01-15_10h04.01.944,gca_avoidance_task,2022.2.4,143.96982364155627,
positions.xlsx,stimuli.xlsx,stimuli/Social1.png,stimuli/Social2.png,stimuli/Nonsocial1.png,stimuli/Nonsocial2.png,cs_plus_s,,,,,,,0,0,0,0,,,,,,,,,,,,,,,,,,,,,0,2,2,0,,,,,4172.2432250001,7.0,3.7994059999473393,,,,,,,,,,,,,,,,51,A,2024-01-15_10h04.01.944,gca_avoidance_task,2022.2.4,143.96982364155627,
positions.xlsx,stimuli.xlsx,stimuli/Social1.png,stimuli/Social2.png,stimuli/Nonsocial1.png,stimuli/Nonsocial2.png,cs_plus_ns,,,,,,,0,0,0,0,,,,,,,,,,,,,,,,,,,,,0,3,3,1,,,,,4176.861069499981,6.0,2.131949200062081,,,,,,,,,,,,,,,,51,A,2024-01-15_10h04.01.944,gca_avoidance_task,2022.2.4,143.96982364155627,
