posFile,stimFile,cs_plus_s,cs_minus_s,cs_plus_ns,cs_minus_ns,stimtype,position,trialtype,trials_threshold.thisRepN,trials_threshold.thisTrialN,trials_threshold.thisN,trials_threshold.thisIndex,blocks.thisRepN,blocks.thisTrialN,blocks.thisN,blocks.thisIndex,ratingtrials1.thisRepN,ratingtrials1.thisTrialN,ratingtrials1.thisN,ratingtrials1.thisIndex,learning_trials.thisRepN,learning_trials.thisTrialN,learning_trials.thisN,learning_trials.thisIndex,trials.thisRepN,trials.thisTrialN,trials.thisN,trials.thisIndex,ratingtrials2.thisRepN,ratingtrials2.thisTrialN,ratingtrials2.thisN,ratingtrials2.thisIndex,testtrials.thisRepN,testtrials.thisTrialN,testtrials.thisN,testtrials.thisIndex,ratingtrials3.thisRepN,ratingtrials3.thisTrialN,ratingtrials3.thisN,ratingtrials3.thisIndex,textStart.started,sliderPainT.response,sliderPainT.rt,textStartExp.started,imageRating.started,sliderStim.response,sliderStim.rt,textStartTask.started,image.started,score,outcome,roi.numLooks,roi.timesOn,roi.timesOff,imageFeedback.started,sliderPain.response,sliderPain.rt,textTestInstr.started,imageTest.started,roiTest.numLooks,roiTest.timesOn,roiTest.timesOff,participant,group,date,expName,psychopyVersion,frameRate,
,,,,,,,,,0,0,0,0,,,,,,,,,,,,,,,,,,,,,,,,,,,,,17.23329750006087,None,None,,,,,,,,,,,,,,,,,,,,29,A,2023-12-14_15h17.54.253,gca_avoidance_task,2022.2.4,143.96650756436378,
,,,,,,,,,1,0,1,0,,,,,,,,,,,,,,,,,,,,,,,,,,,,,,1.0,47.214660099940374,,,,,,,,,,,,,,,,,,,,29,A,2023-12-14_15h17.54.253,gca_avoidance_task,2022.2.4,143.96650756436378,
,,,,,,,,,2,0,2,0,,,,,,,,,,,,,,,,,,,,,,,,,,,,,,1.0,1.7175355999497697,,,,,,,,,,,,,,,,,,,,29,A,2023-12-14_15h17.54.253,gca_avoidance_task,2022.2.4,143.96650756436378,
,,,,,,,,,3,0,3,0,,,,,,,,,,,,,,,,,,,,,,,,,,,,,,2.0,1.0512634000042453,,,,,,,,,,,,,,,,,,,,29,A,2023-12-14_15h17.54.253,gca_avoidance_task,2022.2.4,143.96650756436378,
,,,,,,,,,4,0,4,0,,,,,,,,,,,,,,,,,,,,,,,,,,,,,,2.0,4.029115300043486,,,,,,,,,,,,,,,,,,,,29,A,2023-12-14_15h17.54.253,gca_avoidance_task,2022.2.4,143.96650756436378,
,,,,,,,,,5,0,5,0,,,,,,,,,,,,,,,,,,,,,,,,,,,,,,3.0,1.1754549000179395,,,,,,,,,,,,,,,,,,,,29,A,2023-12-14_15h17.54.253,gca_avoidance_task,2022.2.4,143.96650756436378,
,,,,,,,,,6,0,6,0,,,,,,,,,,,,,,,,,,,,,,,,,,,,,,4.0,0.8285175000783056,,,,,,,,,,,,,,,,,,,,29,A,2023-12-14_15h17.54.253,gca_avoidance_task,2022.2.4,143.96650756436378,
,,,,,,,,,7,0,7,0,,,,,,,,,,,,,,,,,,,,,,,,,,,,,,5.0,1.4035635000327602,,,,,,,,,,,,,,,,,,,,29,A,2023-12-14_15h17.54.253,gca_avoidance_task,2022.2.4,143.96650756436378,
,,,,,,,,,8,0,8,0,,,,,,,,,,,,,,,,,,,,,,,,,,,,,,6.0,1.436175400041975,,,,,,,,,,,,,,,,,,,,29,A,2023-12-14_15h17.54.253,gca_avoidance_task,2022.2.4,143.96650756436378,
,,,,,,,,,9,0,9,0,,,,,,,,,,,,,,,,,,,,,,,,,,,,,,7.0,0.8019084999104962,,,,,,,,,,,,,,,,,,,,29,A,2023-12-14_15h17.54.253,gca_avoidance_task,2022.2.4,143.96650756436378,
,,,,,,,,,10,0,10,0,,,,,,,,,,,,,,,,,,,,,,,,,,,,,,7.0,1.8853470999747515,,,,,,,,,,,,,,,,,,,,29,A,2023-12-14_15h17.54.253,gca_avoidance_task,2022.2.4,143.96650756436378,
,,,,,,,,,11,0,11,0,,,,,,,,,,,,,,,,,,,,,,,,,,,,,,7.0,2.483126200037077,,,,,,,,,,,,,,,,,,,,29,A,2023-12-14_15h17.54.253,gca_avoidance_task,2022.2.4,143.96650756436378,
,,,,,,,,,12,0,12,0,,,,,,,,,,,,,,,,,,,,,,,,,,,,,,6.0,3.1356433000182733,,,,,,,,,,,,,,,,,,,,29,A,2023-12-14_15h17.54.253,gca_avoidance_task,2022.2.4,143.96650756436378,
,,,,,,,,,13,0,13,0,,,,,,,,,,,,,,,,,,,,,,,,,,,,,,2.0,1.9295038999989629,,,,,,,,,,,,,,,,,,,,29,A,2023-12-14_15h17.54.253,gca_avoidance_task,2022.2.4,143.96650756436378,
,,,,,,,,,14,0,14,0,,,,,,,,,,,,,,,,,,,,,,,,,,,,,,3.0,1.0026226000627503,,,,,,,,,,,,,,,,,,,,29,A,2023-12-14_15h17.54.253,gca_avoidance_task,2022.2.4,143.96650756436378,
,,,,,,,,,15,0,15,0,,,,,,,,,,,,,,,,,,,,,,,,,,,,,,4.0,3.5505812999326736,,,,,,,,,,,,,,,,,,,,29,A,2023-12-14_15h17.54.253,gca_avoidance_task,2022.2.4,143.96650756436378,
,,,,,,,,,16,0,16,0,,,,,,,,,,,,,,,,,,,,,,,,,,,,,,6.0,2.353826000005938,,,,,,,,,,,,,,,,,,,,29,A,2023-12-14_15h17.54.253,gca_avoidance_task,2022.2.4,143.96650756436378,
,,,,,,,,,17,0,17,0,,,,,,,,,,,,,,,,,,,,,,,,,,,,,,8.0,2.362669699941762,,,,,,,,,,,,,,,,,,,,29,A,2023-12-14_15h17.54.253,gca_avoidance_task,2022.2.4,143.96650756436378,
,,,,,,,,,18,0,18,0,,,,,,,,,,,,,,,,,,,,,,,,,,,,,,7.0,1.6961267999140546,,,,,,,,,,,,,,,,,,,,29,A,2023-12-14_15h17.54.253,gca_avoidance_task,2022.2.4,143.96650756436378,
,,,,,,,,,19,0,19,0,,,,,,,,,,,,,,,,,,,,,,,,,,,,,,5.0,2.9952469000127167,,,,,,,,,,,,,,,,,,,,29,A,2023-12-14_15h17.54.253,gca_avoidance_task,2022.2.4,143.96650756436378,
,,,,,,,,,20,0,20,0,,,,,,,,,,,,,,,,,,,,,,,,,,,,,,5.0,1.6415889000054449,,,,,,,,,,,,,,,,,,,,29,A,2023-12-14_15h17.54.253,gca_avoidance_task,2022.2.4,143.96650756436378,
,,,,,,,,,21,0,21,0,,,,,,,,,,,,,,,,,,,,,,,,,,,,,,6.0,1.3648654000135139,,,,,,,,,,,,,,,,,,,,29,A,2023-12-14_15h17.54.253,gca_avoidance_task,2022.2.4,143.96650756436378,
positions.xlsx,stimuli.xlsx,stimuli/Social1.png,stimuli/Social2.png,stimuli/Nonsocial1.png,stimuli/Nonsocial2.png,cs_minus_s,,,,,,,0,0,0,0,0,0,0,2,,,,,,,,,,,,,,,,,,,,,,,,375.7039405000396,415.7174243000336,8.0,6.1340853000292554,,,,,,,,,,,,,,,,29,A,2023-12-14_15h17.54.253,gca_avoidance_task,2022.2.4,143.96650756436378,
positions.xlsx,stimuli.xlsx,stimuli/Social1.png,stimuli/Social2.png,stimuli/Nonsocial1.png,stimuli/Nonsocial2.png,cs_plus_ns,,,,,,,0,0,0,0,0,1,1,1,,,,,,,,,,,,,,,,,,,,,,,,,423.28659490006976,8.0,6.264383299974725,,,,,,,,,,,,,,,,29,A,2023-12-14_15h17.54.253,gca_avoidance_task,2022.2.4,143.96650756436378,
positions.xlsx,stimuli.xlsx,stimuli/Social1.png,stimuli/Social2.png,stimuli/Nonsocial1.png,stimuli/Nonsocial2.png,cs_minus_ns,,,,,,,0,0,0,0,0,2,2,3,,,,,,,,,,,,,,,,,,,,,,,,,430.6196028999984,6.0,4.194823400001042,,,,,,,,,,,,,,,,29,A,2023-12-14_15h17.54.253,gca_avoidance_task,2022.2.4,143.96650756436378,
positions.xlsx,stimuli.xlsx,stimuli/Social1.png,stimuli/Social2.png,stimuli/Nonsocial1.png,stimuli/Nonsocial2.png,cs_plus_s,,,,,,,0,0,0,0,0,3,3,0,,,,,,,,,,,,,,,,,,,,,,,,,436.0638552000746,6.0,3.5704874999355525,,,,,,,,,,,,,,,,29,A,2023-12-14_15h17.54.253,gca_avoidance_task,2022.2.4,143.96650756436378,
positions.xlsx,stimuli.xlsx,stimuli/Social1.png,stimuli/Social2.png,stimuli/Nonsocial1.png,stimuli/Nonsocial2.png,,"(-0.7, 0.5)",cs_plus_s,,,,,0,0,0,0,,,,,0,0,0,0,,,,,,,,,,,,,,,,,,,,,,,,440.4594905000413,458.0074004000053,0,shock,1,0.3056753999553621,0.3056792999850586,458.3199539000634,,,,,,,,29,A,2023-12-14_15h17.54.253,gca_avoidance_task,2022.2.4,143.96650756436378,
positions.xlsx,stimuli.xlsx,stimuli/Social1.png,stimuli/Social2.png,stimuli/Nonsocial1.png,stimuli/Nonsocial2.png,,"(0.7, 0.5)",cs_minus_ns,,,,,0,0,0,0,,,,,0,1,1,14,,,,,,,,,,,,,,,,,,,,,,,,,468.04174180002883,5,reward,1,0.5910056000575423,0.5910093999700621,468.64584230002947,,,,,,,,29,A,2023-12-14_15h17.54.253,gca_avoidance_task,2022.2.4,143.96650756436378,
positions.xlsx,stimuli.xlsx,stimuli/Social1.png,stimuli/Social2.png,stimuli/Nonsocial1.png,stimuli/Nonsocial2.png,,"(0.7, -0.5)",cs_plus_ns,,,,,0,0,0,0,,,,,0,2,2,11,,,,,,,,,,,,,,,,,,,,,,,,,477.5274367000675,5,shock,1,0.3750542000634596,0.37505800009239465,477.90938680002,,,,,,,,29,A,2023-12-14_15h17.54.253,gca_avoidance_task,2022.2.4,143.96650756436378,
positions.xlsx,stimuli.xlsx,stimuli/Social1.png,stimuli/Social2.png,stimuli/Nonsocial1.png,stimuli/Nonsocial2.png,,"(-0.7, -0.5)",cs_plus_ns,,,,,0,0,0,0,,,,,0,3,3,9,,,,,,,,,,,,,,,,,,,,,,,,,487.2076372000156,5,shock,1,0.4030034999595955,0.403007399989292,487.617360400036,,,,,,,,29,A,2023-12-14_15h17.54.253,gca_avoidance_task,2022.2.4,143.96650756436378,
positions.xlsx,stimuli.xlsx,stimuli/Social1.png,stimuli/Social2.png,stimuli/Nonsocial1.png,stimuli/Nonsocial2.png,,"(0.7, -0.5)",cs_plus_s,,,,,0,0,0,0,,,,,0,4,4,3,,,,,,,,,,,,,,,,,,,,,,,,,497.7627516000066,5,none,0,,,502.7695234999992,,,,,,,,29,A,2023-12-14_15h17.54.253,gca_avoidance_task,2022.2.4,143.96650756436378,
positions.xlsx,stimuli.xlsx,stimuli/Social1.png,stimuli/Social2.png,stimuli/Nonsocial1.png,stimuli/Nonsocial2.png,,"(-0.7, -0.5)",cs_minus_ns,,,,,0,0,0,0,,,,,0,5,5,13,,,,,,,,,,,,,,,,,,,,,,,,,512.5608266000636,10,reward,1,0.28479320008773357,0.2847970000002533,512.8524547000416,,,,,,,,29,A,2023-12-14_15h17.54.253,gca_avoidance_task,2022.2.4,143.96650756436378,
positions.xlsx,stimuli.xlsx,stimuli/Social1.png,stimuli/Social2.png,stimuli/Nonsocial1.png,stimuli/Nonsocial2.png,,"(-0.7, -0.5)",cs_plus_s,,,,,0,0,0,0,,,,,0,6,6,1,,,,,,,,,,,,,,,,,,,,,,,,,521.9284700000426,10,none,0,,,526.9352334000869,,,,,,,,29,A,2023-12-14_15h17.54.253,gca_avoidance_task,2022.2.4,143.96650756436378,
positions.xlsx,stimuli.xlsx,stimuli/Social1.png,stimuli/Social2.png,stimuli/Nonsocial1.png,stimuli/Nonsocial2.png,,"(0.7, 0.5)",cs_minus_s,,,,,0,0,0,0,,,,,0,7,7,6,,,,,,,,,,,,,,,,,,,,,,,,,536.4487467000727,15,reward,1,0.8266632999293506,0.8266671999590471,537.2820890999865,,,,,,,,29,A,2023-12-14_15h17.54.253,gca_avoidance_task,2022.2.4,143.96650756436378,
positions.xlsx,stimuli.xlsx,stimuli/Social1.png,stimuli/Social2.png,stimuli/Nonsocial1.png,stimuli/Nonsocial2.png,,"(-0.7, -0.5)",cs_minus_s,,,,,0,0,0,0,,,,,0,8,8,5,,,,,,,,,,,,,,,,,,,,,,,,,546.1566795000108,20,reward,1,0.16713900002650917,0.16714280005544424,546.3302999000298,,,,,,,,29,A,2023-12-14_15h17.54.253,gca_avoidance_task,2022.2.4,143.96650756436378,
positions.xlsx,stimuli.xlsx,stimuli/Social1.png,stimuli/Social2.png,stimuli/Nonsocial1.png,stimuli/Nonsocial2.png,,"(-0.7, 0.5)",cs_minus_s,,,,,0,0,0,0,,,,,0,9,9,4,,,,,,,,,,,,,,,,,,,,,,,,,556.6840690000681,25,reward,1,0.5626613999484107,0.5626651999773458,557.2534766000463,,,,,,,,29,A,2023-12-14_15h17.54.253,gca_avoidance_task,2022.2.4,143.96650756436378,
positions.xlsx,stimuli.xlsx,stimuli/Social1.png,stimuli/Social2.png,stimuli/Nonsocial1.png,stimuli/Nonsocial2.png,,"(0.7, -0.5)",cs_minus_s,,,,,0,0,0,0,,,,,0,10,10,7,,,,,,,,,,,,,,,,,,,,,,,,,567.3086337000132,30,reward,1,0.5838314000284299,0.5838353000581264,567.898883100017,,,,,,,,29,A,2023-12-14_15h17.54.253,gca_avoidance_task,2022.2.4,143.96650756436378,
positions.xlsx,stimuli.xlsx,stimuli/Social1.png,stimuli/Social2.png,stimuli/Nonsocial1.png,stimuli/Nonsocial2.png,,"(-0.7, 0.5)",cs_plus_ns,,,,,0,0,0,0,,,,,0,11,11,8,,,,,,,,,,,,,,,,,,,,,,,,,577.9193279000465,30,none,0,,,582.9260542000411,,,,,,,,29,A,2023-12-14_15h17.54.253,gca_avoidance_task,2022.2.4,143.96650756436378,
positions.xlsx,stimuli.xlsx,stimuli/Social1.png,stimuli/Social2.png,stimuli/Nonsocial1.png,stimuli/Nonsocial2.png,,"(0.7, 0.5)",cs_plus_s,,,,,0,0,0,0,,,,,0,12,12,2,,,,,,,,,,,,,,,,,,,,,,,,,592.5715157000814,30,shock,1,1.1737729999003932,1.1737766999285668,593.7520085000433,,,,,,,,29,A,2023-12-14_15h17.54.253,gca_avoidance_task,2022.2.4,143.96650756436378,
positions.xlsx,stimuli.xlsx,stimuli/Social1.png,stimuli/Social2.png,stimuli/Nonsocial1.png,stimuli/Nonsocial2.png,,"(0.7, 0.5)",cs_plus_ns,,,,,0,0,0,0,,,,,0,13,13,10,,,,,,,,,,,,,,,,,,,,,,,,,603.7030254000565,30,shock,1,2.403394600027241,2.403398200054653,606.1126817000331,,,,,,,,29,A,2023-12-14_15h17.54.253,gca_avoidance_task,2022.2.4,143.96650756436378,
positions.xlsx,stimuli.xlsx,stimuli/Social1.png,stimuli/Social2.png,stimuli/Nonsocial1.png,stimuli/Nonsocial2.png,,"(-0.7, 0.5)",cs_minus_ns,,,,,0,0,0,0,,,,,0,14,14,12,,,,,,,,,,,,,,,,,,,,,,,,,615.4595388000598,35,reward,1,0.26411359990015626,0.26411739992909133,615.7303446000442,,,,,,,,29,A,2023-12-14_15h17.54.253,gca_avoidance_task,2022.2.4,143.96650756436378,
positions.xlsx,stimuli.xlsx,stimuli/Social1.png,stimuli/Social2.png,stimuli/Nonsocial1.png,stimuli/Nonsocial2.png,,"(0.7, -0.5)",cs_minus_ns,,,,,0,0,0,0,,,,,0,15,15,15,,,,,,,,,,,,,,,,,,,,,,,,,624.8549465000397,40,reward,1,0.22235950001049787,0.22236330003943294,625.0841269000666,,,,,,,,29,A,2023-12-14_15h17.54.253,gca_avoidance_task,2022.2.4,143.96650756436378,
positions.xlsx,stimuli.xlsx,stimuli/Social1.png,stimuli/Social2.png,stimuli/Nonsocial1.png,stimuli/Nonsocial2.png,,"(0.7, 0.5)",cs_plus_ns,,,,,0,0,0,0,,,,,1,0,16,10,,,,,,,,,,,,,,,,,,,,,,,,,635.1392702000448,40,none,0,,,640.1459841000615,,,,,,,,29,A,2023-12-14_15h17.54.253,gca_avoidance_task,2022.2.4,143.96650756436378,
positions.xlsx,stimuli.xlsx,stimuli/Social1.png,stimuli/Social2.png,stimuli/Nonsocial1.png,stimuli/Nonsocial2.png,,"(0.7, 0.5)",cs_minus_ns,,,,,0,0,0,0,,,,,1,1,17,14,,,,,,,,,,,,,,,,,,,,,,,,,649.3053898999933,45,reward,1,0.7082835999317467,0.7082872999599203,650.0206472000573,,,,,,,,29,A,2023-12-14_15h17.54.253,gca_avoidance_task,2022.2.4,143.96650756436378,
positions.xlsx,stimuli.xlsx,stimuli/Social1.png,stimuli/Social2.png,stimuli/Nonsocial1.png,stimuli/Nonsocial2.png,,"(-0.7, -0.5)",cs_minus_ns,,,,,0,0,0,0,,,,,1,2,18,13,,,,,,,,,,,,,,,,,,,,,,,,,658.7772214000579,50,reward,1,0.284998600021936,0.2850023000501096,659.0688928000163,,,,,,,,29,A,2023-12-14_15h17.54.253,gca_avoidance_task,2022.2.4,143.96650756436378,
positions.xlsx,stimuli.xlsx,stimuli/Social1.png,stimuli/Social2.png,stimuli/Nonsocial1.png,stimuli/Nonsocial2.png,,"(-0.7, -0.5)",cs_plus_ns,,,,,0,0,0,0,,,,,1,3,19,9,,,,,,,,,,,,,,,,,,,,,,,,,668.1101779000601,50,shock,1,0.47241290006786585,0.47242980008013546,668.5893462999957,,,,,,,,29,A,2023-12-14_15h17.54.253,gca_avoidance_task,2022.2.4,143.96650756436378,
positions.xlsx,stimuli.xlsx,stimuli/Social1.png,stimuli/Social2.png,stimuli/Nonsocial1.png,stimuli/Nonsocial2.png,,"(0.7, -0.5)",cs_minus_s,,,,,0,0,0,0,,,,,1,4,20,7,,,,,,,,,,,,,,,,,,,,,,,,,678.1167359000538,55,reward,1,0.5070460999850184,0.5070630999980494,678.6305914000841,,,,,,,,29,A,2023-12-14_15h17.54.253,gca_avoidance_task,2022.2.4,143.96650756436378,
positions.xlsx,stimuli.xlsx,stimuli/Social1.png,stimuli/Social2.png,stimuli/Nonsocial1.png,stimuli/Nonsocial2.png,,"(-0.7, -0.5)",cs_plus_s,,,,,0,0,0,0,,,,,1,5,21,1,,,,,,,,,,,,,,,,,,,,,,,,,688.0955030000769,55,none,0,,,693.1022376000183,,,,,,,,29,A,2023-12-14_15h17.54.253,gca_avoidance_task,2022.2.4,143.96650756436378,
positions.xlsx,stimuli.xlsx,stimuli/Social1.png,stimuli/Social2.png,stimuli/Nonsocial1.png,stimuli/Nonsocial2.png,,"(0.7, 0.5)",cs_minus_s,,,,,0,0,0,0,,,,,1,6,22,6,,,,,,,,,,,,,,,,,,,,,,,,,702.157470199978,60,reward,1,0.5558645999990404,0.5558684000279754,702.719970199978,,,,,,,,29,A,2023-12-14_15h17.54.253,gca_avoidance_task,2022.2.4,143.96650756436378,
positions.xlsx,stimuli.xlsx,stimuli/Social1.png,stimuli/Social2.png,stimuli/Nonsocial1.png,stimuli/Nonsocial2.png,,"(0.7, 0.5)",cs_plus_s,,,,,0,0,0,0,,,,,1,7,23,2,,,,,,,,,,,,,,,,,,,,,,,,,712.3306294999784,60,none,0,,,717.3373991000699,,,,,,,,29,A,2023-12-14_15h17.54.253,gca_avoidance_task,2022.2.4,143.96650756436378,
positions.xlsx,stimuli.xlsx,stimuli/Social1.png,stimuli/Social2.png,stimuli/Nonsocial1.png,stimuli/Nonsocial2.png,,"(0.7, -0.5)",cs_plus_ns,,,,,0,0,0,0,,,,,1,8,24,11,,,,,,,,,,,,,,,,,,,,,,,,,726.4967650000472,60,none,0,,,731.5035380000481,,,,,,,,29,A,2023-12-14_15h17.54.253,gca_avoidance_task,2022.2.4,143.96650756436378,
positions.xlsx,stimuli.xlsx,stimuli/Social1.png,stimuli/Social2.png,stimuli/Nonsocial1.png,stimuli/Nonsocial2.png,,"(-0.7, -0.5)",cs_minus_s,,,,,0,0,0,0,,,,,1,9,25,5,,,,,,,,,,,,,,,,,,,,,,,,,741.1628605000442,65,reward,1,0.6116528999991715,0.611656800028868,741.7808698000154,,,,,,,,29,A,2023-12-14_15h17.54.253,gca_avoidance_task,2022.2.4,143.96650756436378,
positions.xlsx,stimuli.xlsx,stimuli/Social1.png,stimuli/Social2.png,stimuli/Nonsocial1.png,stimuli/Nonsocial2.png,,"(-0.7, 0.5)",cs_plus_ns,,,,,0,0,0,0,,,,,1,10,26,8,,,,,,,,,,,,,,,,,,,,,,,,,750.6277807999868,65,none,0,,,755.6344901000848,,,,,,,,29,A,2023-12-14_15h17.54.253,gca_avoidance_task,2022.2.4,143.96650756436378,
positions.xlsx,stimuli.xlsx,stimuli/Social1.png,stimuli/Social2.png,stimuli/Nonsocial1.png,stimuli/Nonsocial2.png,,"(-0.7, 0.5)",cs_plus_s,,,,,0,0,0,0,,,,,1,11,27,0,,,,,,,,,,,,,,,,,,,,,,,,,765.5160457000602,65,none,0,,,770.5227857000427,,,,,,,,29,A,2023-12-14_15h17.54.253,gca_avoidance_task,2022.2.4,143.96650756436378,
positions.xlsx,stimuli.xlsx,stimuli/Social1.png,stimuli/Social2.png,stimuli/Nonsocial1.png,stimuli/Nonsocial2.png,,"(0.7, -0.5)",cs_minus_ns,,,,,0,0,0,0,,,,,1,12,28,15,,,,,,,,,,,,,,,,,,,,,,,,,779.8904759000288,70,reward,1,0.5694092999910936,0.5694129000185058,780.4668392000021,,,,,,,,29,A,2023-12-14_15h17.54.253,gca_avoidance_task,2022.2.4,143.96650756436378,
positions.xlsx,stimuli.xlsx,stimuli/Social1.png,stimuli/Social2.png,stimuli/Nonsocial1.png,stimuli/Nonsocial2.png,,"(-0.7, 0.5)",cs_minus_ns,,,,,0,0,0,0,,,,,1,13,29,12,,,,,,,,,,,,,,,,,,,,,,,,,789.4109551000874,75,reward,1,0.21564950002357364,0.2156533000525087,789.6332277000183,,,,,,,,29,A,2023-12-14_15h17.54.253,gca_avoidance_task,2022.2.4,143.96650756436378,
positions.xlsx,stimuli.xlsx,stimuli/Social1.png,stimuli/Social2.png,stimuli/Nonsocial1.png,stimuli/Nonsocial2.png,,"(-0.7, 0.5)",cs_minus_s,,,,,0,0,0,0,,,,,1,14,30,4,,,,,,,,,,,,,,,,,,,,,,,,,799.7577508999966,80,reward,1,0.6250251000747085,0.6250286999857053,800.3896802000236,,,,,,,,29,A,2023-12-14_15h17.54.253,gca_avoidance_task,2022.2.4,143.96650756436378,
positions.xlsx,stimuli.xlsx,stimuli/Social1.png,stimuli/Social2.png,stimuli/Nonsocial1.png,stimuli/Nonsocial2.png,,"(0.7, -0.5)",cs_plus_s,,,,,0,0,0,0,,,,,1,15,31,3,,,,,,,,,,,,,,,,,,,,,,,,,809.7573600000469,80,none,0,,,814.7641196000623,,,,,,,,29,A,2023-12-14_15h17.54.253,gca_avoidance_task,2022.2.4,143.96650756436378,
positions.xlsx,stimuli.xlsx,stimuli/Social1.png,stimuli/Social2.png,stimuli/Nonsocial1.png,stimuli/Nonsocial2.png,,"(0.7, -0.5)",cs_minus_s,,,,,0,0,0,0,,,,,,,,,0,0,0,7,,,,,,,,,,,,,,,,,,,,,844.9434971000301,85,reward,1,0.5071249000029638,0.5071283000288531,845.457358899992,,,,,,,,29,A,2023-12-14_15h17.54.253,gca_avoidance_task,2022.2.4,143.96650756436378,
positions.xlsx,stimuli.xlsx,stimuli/Social1.png,stimuli/Social2.png,stimuli/Nonsocial1.png,stimuli/Nonsocial2.png,,"(0.7, -0.5)",cs_minus_ns,,,,,0,0,0,0,,,,,,,,,0,1,1,15,,,,,,,,,,,,,,,,,,,,,855.2903013000032,90,reward,1,0.6387731999857351,0.6387767000123858,855.9361351000844,,,,,,,,29,A,2023-12-14_15h17.54.253,gca_avoidance_task,2022.2.4,143.96650756436378,
positions.xlsx,stimuli.xlsx,stimuli/Social1.png,stimuli/Social2.png,stimuli/Nonsocial1.png,stimuli/Nonsocial2.png,,"(-0.7, 0.5)",cs_minus_s,,,,,0,0,0,0,,,,,,,,,0,2,2,4,,,,,,,,,,,,,,,,,,,,,864.6719100000337,95,reward,1,0.583501199958846,0.583504999987781,865.2621437000344,,,,,,,,29,A,2023-12-14_15h17.54.253,gca_avoidance_task,2022.2.4,143.96650756436378,
positions.xlsx,stimuli.xlsx,stimuli/Social1.png,stimuli/Social2.png,stimuli/Nonsocial1.png,stimuli/Nonsocial2.png,,"(-0.7, -0.5)",cs_plus_ns,,,,,0,0,0,0,,,,,,,,,0,3,3,9,,,,,,,,,,,,,,,,,,,,,874.7339785000077,95,none,0,,,879.7407442000695,,,,,,,,29,A,2023-12-14_15h17.54.253,gca_avoidance_task,2022.2.4,143.96650756436378,
positions.xlsx,stimuli.xlsx,stimuli/Social1.png,stimuli/Social2.png,stimuli/Nonsocial1.png,stimuli/Nonsocial2.png,,"(-0.7, 0.5)",cs_minus_ns,,,,,0,0,0,0,,,,,,,,,0,4,4,12,,,,,,,,,,,,,,,,,,,,,888.7195295999991,100,reward,1,0.9236963998991996,0.9236999999266118,889.6500972000649,,,,,,,,29,A,2023-12-14_15h17.54.253,gca_avoidance_task,2022.2.4,143.96650756436378,
positions.xlsx,stimuli.xlsx,stimuli/Social1.png,stimuli/Social2.png,stimuli/Nonsocial1.png,stimuli/Nonsocial2.png,,"(0.7, 0.5)",cs_plus_s,,,,,0,0,0,0,,,,,,,,,0,5,5,2,,,,,,,,,,,,,,,,,,,,,898.4691506000236,100,none,0,,,903.4759455000749,,,,,,,,29,A,2023-12-14_15h17.54.253,gca_avoidance_task,2022.2.4,143.96650756436378,
positions.xlsx,stimuli.xlsx,stimuli/Social1.png,stimuli/Social2.png,stimuli/Nonsocial1.png,stimuli/Nonsocial2.png,,"(0.7, 0.5)",cs_plus_ns,,,,,0,0,0,0,,,,,,,,,0,6,6,10,,,,,,,,,,,,,,,,,,,,,912.8713721000822,100,none,0,,,917.8781545000384,,,,,,,,29,A,2023-12-14_15h17.54.253,gca_avoidance_task,2022.2.4,143.96650756436378,
positions.xlsx,stimuli.xlsx,stimuli/Social1.png,stimuli/Social2.png,stimuli/Nonsocial1.png,stimuli/Nonsocial2.png,,"(0.7, 0.5)",cs_minus_ns,,,,,0,0,0,0,,,,,,,,,0,7,7,14,,,,,,,,,,,,,,,,,,,,,927.1763467000565,105,reward,1,0.2985389999812469,0.29854260000865906,927.4819042000454,,,,,,,,29,A,2023-12-14_15h17.54.253,gca_avoidance_task,2022.2.4,143.96650756436378,
positions.xlsx,stimuli.xlsx,stimuli/Social1.png,stimuli/Social2.png,stimuli/Nonsocial1.png,stimuli/Nonsocial2.png,,"(-0.7, -0.5)",cs_plus_s,,,,,0,0,0,0,,,,,,,,,0,8,8,1,,,,,,,,,,,,,,,,,,,,,937.2870636000298,105,none,0,,,942.2938043000177,,,,,,,,29,A,2023-12-14_15h17.54.253,gca_avoidance_task,2022.2.4,143.96650756436378,
positions.xlsx,stimuli.xlsx,stimuli/Social1.png,stimuli/Social2.png,stimuli/Nonsocial1.png,stimuli/Nonsocial2.png,,"(0.7, 0.5)",cs_minus_s,,,,,0,0,0,0,,,,,,,,,0,9,9,6,,,,,,,,,,,,,,,,,,,,,952.1823107000673,110,reward,1,0.4587405000347644,0.45874400006141514,952.6475845000241,,,,,,,,29,A,2023-12-14_15h17.54.253,gca_avoidance_task,2022.2.4,143.96650756436378,
positions.xlsx,stimuli.xlsx,stimuli/Social1.png,stimuli/Social2.png,stimuli/Nonsocial1.png,stimuli/Nonsocial2.png,,"(-0.7, -0.5)",cs_minus_ns,,,,,0,0,0,0,,,,,,,,,0,10,10,13,,,,,,,,,,,,,,,,,,,,,962.459698199993,115,reward,1,0.41074820002540946,0.41076480003539473,962.8763325000182,,,,,,,,29,A,2023-12-14_15h17.54.253,gca_avoidance_task,2022.2.4,143.96650756436378,
positions.xlsx,stimuli.xlsx,stimuli/Social1.png,stimuli/Social2.png,stimuli/Nonsocial1.png,stimuli/Nonsocial2.png,,"(-0.7, 0.5)",cs_plus_s,,,,,0,0,0,0,,,,,,,,,0,11,11,0,,,,,,,,,,,,,,,,,,,,,972.1120930000907,115,none,0,,,977.1188299000496,,,,,,,,29,A,2023-12-14_15h17.54.253,gca_avoidance_task,2022.2.4,143.96650756436378,
positions.xlsx,stimuli.xlsx,stimuli/Social1.png,stimuli/Social2.png,stimuli/Nonsocial1.png,stimuli/Nonsocial2.png,,"(-0.7, -0.5)",cs_minus_s,,,,,0,0,0,0,,,,,,,,,0,12,12,5,,,,,,,,,,,,,,,,,,,,,987.1323245000094,120,reward,1,0.8055739999981597,0.8055777000263333,987.9448218999896,,,,,,,,29,A,2023-12-14_15h17.54.253,gca_avoidance_task,2022.2.4,143.96650756436378,
positions.xlsx,stimuli.xlsx,stimuli/Social1.png,stimuli/Social2.png,stimuli/Nonsocial1.png,stimuli/Nonsocial2.png,,"(0.7, -0.5)",cs_plus_s,,,,,0,0,0,0,,,,,,,,,0,13,13,3,,,,,,,,,,,,,,,,,,,,,997.8124604000477,120,shock,1,0.305750000057742,0.3127404999686405,998.1319206000771,,,,,,,,29,A,2023-12-14_15h17.54.253,gca_avoidance_task,2022.2.4,143.96650756436378,
positions.xlsx,stimuli.xlsx,stimuli/Social1.png,stimuli/Social2.png,stimuli/Nonsocial1.png,stimuli/Nonsocial2.png,,"(0.7, -0.5)",cs_plus_ns,,,,,0,0,0,0,,,,,,,,,0,14,14,11,,,,,,,,,,,,,,,,,,,,,1006.8746060000267,120,none,0,,,1011.8813732999843,,,,,,,,29,A,2023-12-14_15h17.54.253,gca_avoidance_task,2022.2.4,143.96650756436378,
positions.xlsx,stimuli.xlsx,stimuli/Social1.png,stimuli/Social2.png,stimuli/Nonsocial1.png,stimuli/Nonsocial2.png,,"(-0.7, 0.5)",cs_plus_ns,,,,,0,0,0,0,,,,,,,,,0,15,15,8,,,,,,,,,,,,,,,,,,,,,1021.4365055999951,120,shock,1,1.1254580999957398,1.1254620999097824,1022.5684514000313,,,,,,,,29,A,2023-12-14_15h17.54.253,gca_avoidance_task,2022.2.4,143.96650756436378,
positions.xlsx,stimuli.xlsx,stimuli/Social1.png,stimuli/Social2.png,stimuli/Nonsocial1.png,stimuli/Nonsocial2.png,,"(0.7, -0.5)",cs_plus_ns,,,,,0,0,0,0,,,,,,,,,1,0,16,11,,,,,,,,,,,,,,,,,,,,,1031.7347197000636,120,none,0,,,1036.7415181000251,,,,,,,,29,A,2023-12-14_15h17.54.253,gca_avoidance_task,2022.2.4,143.96650756436378,
positions.xlsx,stimuli.xlsx,stimuli/Social1.png,stimuli/Social2.png,stimuli/Nonsocial1.png,stimuli/Nonsocial2.png,,"(-0.7, 0.5)",cs_plus_ns,,,,,0,0,0,0,,,,,,,,,1,1,17,8,,,,,,,,,,,,,,,,,,,,,1046.7480622000294,120,none,0,,,1051.7547936000628,,,,,,,,29,A,2023-12-14_15h17.54.253,gca_avoidance_task,2022.2.4,143.96650756436378,
positions.xlsx,stimuli.xlsx,stimuli/Social1.png,stimuli/Social2.png,stimuli/Nonsocial1.png,stimuli/Nonsocial2.png,,"(0.7, -0.5)",cs_minus_ns,,,,,0,0,0,0,,,,,,,,,1,2,18,15,,,,,,,,,,,,,,,,,,,,,1061.2544331999961,125,reward,1,0.5625300999963656,0.5625340000260621,1061.8238439999986,,,,,,,,29,A,2023-12-14_15h17.54.253,gca_avoidance_task,2022.2.4,143.96650756436378,
positions.xlsx,stimuli.xlsx,stimuli/Social1.png,stimuli/Social2.png,stimuli/Nonsocial1.png,stimuli/Nonsocial2.png,,"(-0.7, 0.5)",cs_plus_s,,,,,0,0,0,0,,,,,,,,,1,3,19,0,,,,,,,,,,,,,,,,,,,,,1071.2123697000789,125,none,0,,,1076.219126900076,,,,,,,,29,A,2023-12-14_15h17.54.253,gca_avoidance_task,2022.2.4,143.96650756436378,
positions.xlsx,stimuli.xlsx,stimuli/Social1.png,stimuli/Social2.png,stimuli/Nonsocial1.png,stimuli/Nonsocial2.png,,"(0.7, -0.5)",cs_plus_s,,,,,0,0,0,0,,,,,,,,,1,4,20,3,,,,,,,,,,,,,,,,,,,,,1085.8992611999856,125,none,0,,,1090.9060652999906,,,,,,,,29,A,2023-12-14_15h17.54.253,gca_avoidance_task,2022.2.4,143.96650756436378,
positions.xlsx,stimuli.xlsx,stimuli/Social1.png,stimuli/Social2.png,stimuli/Nonsocial1.png,stimuli/Nonsocial2.png,,"(0.7, -0.5)",cs_minus_s,,,,,0,0,0,0,,,,,,,,,1,5,21,7,,,,,,,,,,,,,,,,,,,,,1100.8501050000777,130,reward,1,0.43792619998566806,0.43793000001460314,1101.294561900082,,,,,,,,29,A,2023-12-14_15h17.54.253,gca_avoidance_task,2022.2.4,143.96650756436378,
positions.xlsx,stimuli.xlsx,stimuli/Social1.png,stimuli/Social2.png,stimuli/Nonsocial1.png,stimuli/Nonsocial2.png,,"(0.7, 0.5)",cs_minus_ns,,,,,0,0,0,0,,,,,,,,,1,6,22,14,,,,,,,,,,,,,,,,,,,,,1110.7663869999815,135,reward,1,0.3132954000029713,0.313298900029622,1111.0858416000847,,,,,,,,29,A,2023-12-14_15h17.54.253,gca_avoidance_task,2022.2.4,143.96650756436378,
positions.xlsx,stimuli.xlsx,stimuli/Social1.png,stimuli/Social2.png,stimuli/Nonsocial1.png,stimuli/Nonsocial2.png,,"(-0.7, -0.5)",cs_plus_ns,,,,,0,0,0,0,,,,,,,,,1,7,23,9,,,,,,,,,,,,,,,,,,,,,1120.1201344000874,135,none,0,,,1125.126949400059,,,,,,,,29,A,2023-12-14_15h17.54.253,gca_avoidance_task,2022.2.4,143.96650756436378,
positions.xlsx,stimuli.xlsx,stimuli/Social1.png,stimuli/Social2.png,stimuli/Nonsocial1.png,stimuli/Nonsocial2.png,,"(-0.7, 0.5)",cs_minus_ns,,,,,0,0,0,0,,,,,,,,,1,8,24,12,,,,,,,,,,,,,,,,,,,,,1134.1335160000017,140,reward,1,0.646117499913089,0.6461213999427855,1134.7862659000093,,,,,,,,29,A,2023-12-14_15h17.54.253,gca_avoidance_task,2022.2.4,143.96650756436378,
positions.xlsx,stimuli.xlsx,stimuli/Social1.png,stimuli/Social2.png,stimuli/Nonsocial1.png,stimuli/Nonsocial2.png,,"(-0.7, -0.5)",cs_plus_s,,,,,0,0,0,0,,,,,,,,,1,9,25,1,,,,,,,,,,,,,,,,,,,,,1144.88311350008,140,none,0,,,1149.8898692000657,,,,,,,,29,A,2023-12-14_15h17.54.253,gca_avoidance_task,2022.2.4,143.96650756436378,
positions.xlsx,stimuli.xlsx,stimuli/Social1.png,stimuli/Social2.png,stimuli/Nonsocial1.png,stimuli/Nonsocial2.png,,"(0.7, 0.5)",cs_plus_s,,,,,0,0,0,0,,,,,,,,,1,10,26,2,,,,,,,,,,,,,,,,,,,,,1159.854748700047,140,none,0,,,1164.8615188000258,,,,,,,,29,A,2023-12-14_15h17.54.253,gca_avoidance_task,2022.2.4,143.96650756436378,
positions.xlsx,stimuli.xlsx,stimuli/Social1.png,stimuli/Social2.png,stimuli/Nonsocial1.png,stimuli/Nonsocial2.png,,"(-0.7, 0.5)",cs_minus_s,,,,,0,0,0,0,,,,,,,,,1,11,27,4,,,,,,,,,,,,,,,,,,,,,1174.5485982000828,145,reward,1,0.5627487000310794,0.5627523999428377,1175.1180084000807,,,,,,,,29,A,2023-12-14_15h17.54.253,gca_avoidance_task,2022.2.4,143.96650756436378,
positions.xlsx,stimuli.xlsx,stimuli/Social1.png,stimuli/Social2.png,stimuli/Nonsocial1.png,stimuli/Nonsocial2.png,,"(0.7, 0.5)",cs_plus_ns,,,,,0,0,0,0,,,,,,,,,1,12,28,10,,,,,,,,,,,,,,,,,,,,,1184.0968539000023,145,none,0,,,1189.103600100032,,,,,,,,29,A,2023-12-14_15h17.54.253,gca_avoidance_task,2022.2.4,143.96650756436378,
positions.xlsx,stimuli.xlsx,stimuli/Social1.png,stimuli/Social2.png,stimuli/Nonsocial1.png,stimuli/Nonsocial2.png,,"(-0.7, -0.5)",cs_minus_s,,,,,0,0,0,0,,,,,,,,,1,13,29,5,,,,,,,,,,,,,,,,,,,,,1199.019878800027,150,reward,1,0.5419544000178576,0.5419581000460312,1199.568488500081,,,,,,,,29,A,2023-12-14_15h17.54.253,gca_avoidance_task,2022.2.4,143.96650756436378,
positions.xlsx,stimuli.xlsx,stimuli/Social1.png,stimuli/Social2.png,stimuli/Nonsocial1.png,stimuli/Nonsocial2.png,,"(0.7, 0.5)",cs_minus_s,,,,,0,0,0,0,,,,,,,,,1,14,30,6,,,,,,,,,,,,,,,,,,,,,1209.0125462000724,155,reward,1,0.5068787999916822,0.5068827000213787,1209.5264308999758,,,,,,,,29,A,2023-12-14_15h17.54.253,gca_avoidance_task,2022.2.4,143.96650756436378,
positions.xlsx,stimuli.xlsx,stimuli/Social1.png,stimuli/Social2.png,stimuli/Nonsocial1.png,stimuli/Nonsocial2.png,,"(-0.7, -0.5)",cs_minus_ns,,,,,0,0,0,0,,,,,,,,,1,15,31,13,,,,,,,,,,,,,,,,,,,,,1218.4218840000685,160,reward,1,0.20175900007598102,0.20176289998926222,1218.630243099993,,,,,,,,29,A,2023-12-14_15h17.54.253,gca_avoidance_task,2022.2.4,143.96650756436378,
positions.xlsx,stimuli.xlsx,stimuli/Social1.png,stimuli/Social2.png,stimuli/Nonsocial1.png,stimuli/Nonsocial2.png,,"(0.7, -0.5)",cs_plus_s,,,,,0,0,0,0,,,,,,,,,2,0,32,3,,,,,,,,,,,,,,,,,,,,,1228.025679500075,160,none,0,,,1233.0323986000149,,,,,,,,29,A,2023-12-14_15h17.54.253,gca_avoidance_task,2022.2.4,143.96650756436378,
positions.xlsx,stimuli.xlsx,stimuli/Social1.png,stimuli/Social2.png,stimuli/Nonsocial1.png,stimuli/Nonsocial2.png,,"(0.7, -0.5)",cs_minus_s,,,,,0,0,0,0,,,,,,,,,2,1,33,7,,,,,,,,,,,,,,,,,,,,,1242.8861837000586,165,reward,1,0.6393276000162587,0.639331299928017,1243.5320457000053,,,,,,,,29,A,2023-12-14_15h17.54.253,gca_avoidance_task,2022.2.4,143.96650756436378,
positions.xlsx,stimuli.xlsx,stimuli/Social1.png,stimuli/Social2.png,stimuli/Nonsocial1.png,stimuli/Nonsocial2.png,,"(-0.7, 0.5)",cs_minus_s,,,,,0,0,0,0,,,,,,,,,2,2,34,4,,,,,,,,,,,,,,,,,,,,,1253.0524783000583,170,reward,1,0.5141618000343442,0.5141654000617564,1253.5732867000625,,,,,,,,29,A,2023-12-14_15h17.54.253,gca_avoidance_task,2022.2.4,143.96650756436378,
positions.xlsx,stimuli.xlsx,stimuli/Social1.png,stimuli/Social2.png,stimuli/Nonsocial1.png,stimuli/Nonsocial2.png,,"(-0.7, -0.5)",cs_minus_s,,,,,0,0,0,0,,,,,,,,,2,3,35,5,,,,,,,,,,,,,,,,,,,,,1262.9271088000387,175,reward,1,0.5415068999864161,0.5415106998989359,1263.4756735999836,,,,,,,,29,A,2023-12-14_15h17.54.253,gca_avoidance_task,2022.2.4,143.96650756436378,
positions.xlsx,stimuli.xlsx,stimuli/Social1.png,stimuli/Social2.png,stimuli/Nonsocial1.png,stimuli/Nonsocial2.png,,"(-0.7, -0.5)",cs_minus_ns,,,,,0,0,0,0,,,,,,,,,2,4,36,13,,,,,,,,,,,,,,,,,,,,,1272.6558906000573,180,reward,1,0.7152295000851154,0.7152335999999195,1273.3780899000121,,,,,,,,29,A,2023-12-14_15h17.54.253,gca_avoidance_task,2022.2.4,143.96650756436378,
positions.xlsx,stimuli.xlsx,stimuli/Social1.png,stimuli/Social2.png,stimuli/Nonsocial1.png,stimuli/Nonsocial2.png,,"(0.7, 0.5)",cs_plus_s,,,,,0,0,0,0,,,,,,,,,2,5,37,2,,,,,,,,,,,,,,,,,,,,,1283.0860830000602,180,none,0,,,1288.0928401000565,,,,,,,,29,A,2023-12-14_15h17.54.253,gca_avoidance_task,2022.2.4,143.96650756436378,
positions.xlsx,stimuli.xlsx,stimuli/Social1.png,stimuli/Social2.png,stimuli/Nonsocial1.png,stimuli/Nonsocial2.png,,"(-0.7, 0.5)",cs_plus_ns,,,,,0,0,0,0,,,,,,,,,2,6,38,8,,,,,,,,,,,,,,,,,,,,,1297.259134800057,180,none,0,,,1302.265855000005,,,,,,,,29,A,2023-12-14_15h17.54.253,gca_avoidance_task,2022.2.4,143.96650756436378,
positions.xlsx,stimuli.xlsx,stimuli/Social1.png,stimuli/Social2.png,stimuli/Nonsocial1.png,stimuli/Nonsocial2.png,,"(-0.7, 0.5)",cs_plus_s,,,,,0,0,0,0,,,,,,,,,2,7,39,0,,,,,,,,,,,,,,,,,,,,,1312.4876918999944,180,none,0,,,1317.4944526000181,,,,,,,,29,A,2023-12-14_15h17.54.253,gca_avoidance_task,2022.2.4,143.96650756436378,
positions.xlsx,stimuli.xlsx,stimuli/Social1.png,stimuli/Social2.png,stimuli/Nonsocial1.png,stimuli/Nonsocial2.png,,"(0.7, 0.5)",cs_plus_ns,,,,,0,0,0,0,,,,,,,,,2,8,40,10,,,,,,,,,,,,,,,,,,,,,1326.7440831999993,180,none,0,,,1331.7508465000428,,,,,,,,29,A,2023-12-14_15h17.54.253,gca_avoidance_task,2022.2.4,143.96650756436378,
positions.xlsx,stimuli.xlsx,stimuli/Social1.png,stimuli/Social2.png,stimuli/Nonsocial1.png,stimuli/Nonsocial2.png,,"(-0.7, -0.5)",cs_plus_s,,,,,0,0,0,0,,,,,,,,,2,9,41,1,,,,,,,,,,,,,,,,,,,,,1340.7018204000778,180,none,0,,,1345.7085985000012,,,,,,,,29,A,2023-12-14_15h17.54.253,gca_avoidance_task,2022.2.4,143.96650756436378,
positions.xlsx,stimuli.xlsx,stimuli/Social1.png,stimuli/Social2.png,stimuli/Nonsocial1.png,stimuli/Nonsocial2.png,,"(0.7, 0.5)",cs_minus_ns,,,,,0,0,0,0,,,,,,,,,2,10,42,14,,,,,,,,,,,,,,,,,,,,,1355.9026592000155,185,reward,1,0.7293266000924632,0.7293301000026986,1356.6387530000648,,,,,,,,29,A,2023-12-14_15h17.54.253,gca_avoidance_task,2022.2.4,143.96650756436378,
positions.xlsx,stimuli.xlsx,stimuli/Social1.png,stimuli/Social2.png,stimuli/Nonsocial1.png,stimuli/Nonsocial2.png,,"(0.7, -0.5)",cs_plus_ns,,,,,0,0,0,0,,,,,,,,,2,11,43,11,,,,,,,,,,,,,,,,,,,,,1365.8952864999883,185,shock,1,0.17442870000377297,0.17443770007230341,1366.0758744999766,,,,,,,,29,A,2023-12-14_15h17.54.253,gca_avoidance_task,2022.2.4,143.96650756436378,
positions.xlsx,stimuli.xlsx,stimuli/Social1.png,stimuli/Social2.png,stimuli/Nonsocial1.png,stimuli/Nonsocial2.png,,"(-0.7, -0.5)",cs_plus_ns,,,,,0,0,0,0,,,,,,,,,2,12,44,9,,,,,,,,,,,,,,,,,,,,,1376.0755013000453,185,none,0,,,1381.0822202999843,,,,,,,,29,A,2023-12-14_15h17.54.253,gca_avoidance_task,2022.2.4,143.96650756436378,
positions.xlsx,stimuli.xlsx,stimuli/Social1.png,stimuli/Social2.png,stimuli/Nonsocial1.png,stimuli/Nonsocial2.png,,"(0.7, -0.5)",cs_minus_ns,,,,,0,0,0,0,,,,,,,,,2,13,45,15,,,,,,,,,,,,,,,,,,,,,1389.7763544000918,190,reward,1,0.6946310000494123,0.6946346999611706,1390.4777029000688,,,,,,,,29,A,2023-12-14_15h17.54.253,gca_avoidance_task,2022.2.4,143.96650756436378,
positions.xlsx,stimuli.xlsx,stimuli/Social1.png,stimuli/Social2.png,stimuli/Nonsocial1.png,stimuli/Nonsocial2.png,,"(-0.7, 0.5)",cs_minus_ns,,,,,0,0,0,0,,,,,,,,,2,14,46,12,,,,,,,,,,,,,,,,,,,,,1399.8523387000896,195,reward,1,0.6323764999397099,0.6323801999678835,1400.491216500057,,,,,,,,29,A,2023-12-14_15h17.54.253,gca_avoidance_task,2022.2.4,143.96650756436378,
positions.xlsx,stimuli.xlsx,stimuli/Social1.png,stimuli/Social2.png,stimuli/Nonsocial1.png,stimuli/Nonsocial2.png,,"(0.7, 0.5)",cs_minus_s,,,,,0,0,0,0,,,,,,,,,2,15,47,6,,,,,,,,,,,,,,,,,,,,,1410.7060928000137,200,reward,1,0.48619010008405894,0.48619379999581724,1411.19911590009,,,,,,,,29,A,2023-12-14_15h17.54.253,gca_avoidance_task,2022.2.4,143.96650756436378,
positions.xlsx,stimuli.xlsx,stimuli/Social1.png,stimuli/Social2.png,stimuli/Nonsocial1.png,stimuli/Nonsocial2.png,,"(0.7, -0.5)",cs_plus_ns,,,,,0,0,0,0,,,,,,,,,3,0,48,11,,,,,,,,,,,,,,,,,,,,,1420.4210346000036,200,none,0,,,1425.427744799992,,,,,,,,29,A,2023-12-14_15h17.54.253,gca_avoidance_task,2022.2.4,143.96650756436378,
positions.xlsx,stimuli.xlsx,stimuli/Social1.png,stimuli/Social2.png,stimuli/Nonsocial1.png,stimuli/Nonsocial2.png,,"(-0.7, -0.5)",cs_plus_s,,,,,0,0,0,0,,,,,,,,,3,1,49,1,,,,,,,,,,,,,,,,,,,,,1434.232942600036,200,none,0,,,1439.2397044000681,,,,,,,,29,A,2023-12-14_15h17.54.253,gca_avoidance_task,2022.2.4,143.96650756436378,
positions.xlsx,stimuli.xlsx,stimuli/Social1.png,stimuli/Social2.png,stimuli/Nonsocial1.png,stimuli/Nonsocial2.png,,"(0.7, -0.5)",cs_minus_ns,,,,,0,0,0,0,,,,,,,,,3,2,50,15,,,,,,,,,,,,,,,,,,,,,1448.6837945000734,205,reward,1,0.6667930000694469,0.6667965000960976,1449.357397200074,,,,,,,,29,A,2023-12-14_15h17.54.253,gca_avoidance_task,2022.2.4,143.96650756436378,
positions.xlsx,stimuli.xlsx,stimuli/Social1.png,stimuli/Social2.png,stimuli/Nonsocial1.png,stimuli/Nonsocial2.png,,"(0.7, 0.5)",cs_minus_ns,,,,,0,0,0,0,,,,,,,,,3,3,51,14,,,,,,,,,,,,,,,,,,,,,1459.2319663000526,210,reward,1,0.6182498000562191,0.6252335000317544,1459.8638877000194,,,,,,,,29,A,2023-12-14_15h17.54.253,gca_avoidance_task,2022.2.4,143.96650756436378,
positions.xlsx,stimuli.xlsx,stimuli/Social1.png,stimuli/Social2.png,stimuli/Nonsocial1.png,stimuli/Nonsocial2.png,,"(0.7, -0.5)",cs_plus_s,,,,,0,0,0,0,,,,,,,,,3,4,52,3,,,,,,,,,,,,,,,,,,,,,1469.1551855000434,210,shock,1,0.2435846000444144,0.24358840007334948,1469.4051721000578,,,,,,,,29,A,2023-12-14_15h17.54.253,gca_avoidance_task,2022.2.4,143.96650756436378,
positions.xlsx,stimuli.xlsx,stimuli/Social1.png,stimuli/Social2.png,stimuli/Nonsocial1.png,stimuli/Nonsocial2.png,,"(0.7, 0.5)",cs_minus_s,,,,,0,0,0,0,,,,,,,,,3,5,53,6,,,,,,,,,,,,,,,,,,,,,1478.7242728000274,215,reward,1,0.6182478999253362,0.6182517999550328,1479.3492554000113,,,,,,,,29,A,2023-12-14_15h17.54.253,gca_avoidance_task,2022.2.4,143.96650756436378,
positions.xlsx,stimuli.xlsx,stimuli/Social1.png,stimuli/Social2.png,stimuli/Nonsocial1.png,stimuli/Nonsocial2.png,,"(-0.7, 0.5)",cs_minus_ns,,,,,0,0,0,0,,,,,,,,,3,6,54,12,,,,,,,,,,,,,,,,,,,,,1488.9877229999984,220,reward,1,0.6950533000053838,0.6950572000350803,1489.6891321000876,,,,,,,,29,A,2023-12-14_15h17.54.253,gca_avoidance_task,2022.2.4,143.96650756436378,
positions.xlsx,stimuli.xlsx,stimuli/Social1.png,stimuli/Social2.png,stimuli/Nonsocial1.png,stimuli/Nonsocial2.png,,"(-0.7, -0.5)",cs_minus_ns,,,,,0,0,0,0,,,,,,,,,3,7,55,13,,,,,,,,,,,,,,,,,,,,,1499.2304364000447,225,reward,1,0.6739244000054896,0.6739282000344247,1499.9109258999815,,,,,,,,29,A,2023-12-14_15h17.54.253,gca_avoidance_task,2022.2.4,143.96650756436378,
positions.xlsx,stimuli.xlsx,stimuli/Social1.png,stimuli/Social2.png,stimuli/Nonsocial1.png,stimuli/Nonsocial2.png,,"(-0.7, 0.5)",cs_minus_s,,,,,0,0,0,0,,,,,,,,,3,8,56,4,,,,,,,,,,,,,,,,,,,,,1509.306419700035,230,reward,1,0.6460214999970049,0.6460253000259399,1509.9591816000175,,,,,,,,29,A,2023-12-14_15h17.54.253,gca_avoidance_task,2022.2.4,143.96650756436378,
positions.xlsx,stimuli.xlsx,stimuli/Social1.png,stimuli/Social2.png,stimuli/Nonsocial1.png,stimuli/Nonsocial2.png,,"(-0.7, 0.5)",cs_plus_ns,,,,,0,0,0,0,,,,,,,,,3,9,57,8,,,,,,,,,,,,,,,,,,,,,1519.8129222000716,230,none,0,,,1524.819761199993,,,,,,,,29,A,2023-12-14_15h17.54.253,gca_avoidance_task,2022.2.4,143.96650756436378,
positions.xlsx,stimuli.xlsx,stimuli/Social1.png,stimuli/Social2.png,stimuli/Nonsocial1.png,stimuli/Nonsocial2.png,,"(-0.7, 0.5)",cs_plus_s,,,,,0,0,0,0,,,,,,,,,3,10,58,0,,,,,,,,,,,,,,,,,,,,,1534.8401259999955,230,none,0,,,1539.8469188000308,,,,,,,,29,A,2023-12-14_15h17.54.253,gca_avoidance_task,2022.2.4,143.96650756436378,
positions.xlsx,stimuli.xlsx,stimuli/Social1.png,stimuli/Social2.png,stimuli/Nonsocial1.png,stimuli/Nonsocial2.png,,"(-0.7, -0.5)",cs_plus_ns,,,,,0,0,0,0,,,,,,,,,3,11,59,9,,,,,,,,,,,,,,,,,,,,,1548.9715329000028,230,none,0,,,1553.9782714000903,,,,,,,,29,A,2023-12-14_15h17.54.253,gca_avoidance_task,2022.2.4,143.96650756436378,
positions.xlsx,stimuli.xlsx,stimuli/Social1.png,stimuli/Social2.png,stimuli/Nonsocial1.png,stimuli/Nonsocial2.png,,"(0.7, 0.5)",cs_plus_s,,,,,0,0,0,0,,,,,,,,,3,12,60,2,,,,,,,,,,,,,,,,,,,,,1563.4431811000686,230,none,0,,,1568.4499536000658,,,,,,,,29,A,2023-12-14_15h17.54.253,gca_avoidance_task,2022.2.4,143.96650756436378,
positions.xlsx,stimuli.xlsx,stimuli/Social1.png,stimuli/Social2.png,stimuli/Nonsocial1.png,stimuli/Nonsocial2.png,,"(0.7, -0.5)",cs_minus_s,,,,,0,0,0,0,,,,,,,,,3,13,61,7,,,,,,,,,,,,,,,,,,,,,1577.984283400001,235,reward,1,0.40964760002680123,0.4165966999717057,1578.4078779000556,,,,,,,,29,A,2023-12-14_15h17.54.253,gca_avoidance_task,2022.2.4,143.96650756436378,
positions.xlsx,stimuli.xlsx,stimuli/Social1.png,stimuli/Social2.png,stimuli/Nonsocial1.png,stimuli/Nonsocial2.png,,"(0.7, 0.5)",cs_plus_ns,,,,,0,0,0,0,,,,,,,,,3,14,62,10,,,,,,,,,,,,,,,,,,,,,1587.9908585000085,235,none,0,,,1592.9976157000056,,,,,,,,29,A,2023-12-14_15h17.54.253,gca_avoidance_task,2022.2.4,143.96650756436378,
positions.xlsx,stimuli.xlsx,stimuli/Social1.png,stimuli/Social2.png,stimuli/Nonsocial1.png,stimuli/Nonsocial2.png,,"(-0.7, -0.5)",cs_minus_s,,,,,0,0,0,0,,,,,,,,,3,15,63,5,,,,,,,,,,,,,,,,,,,,,1602.608349999995,240,reward,1,0.5903218000894412,0.5903255000011995,1603.205537400092,,,,,,,,29,A,2023-12-14_15h17.54.253,gca_avoidance_task,2022.2.4,143.96650756436378,
positions.xlsx,stimuli.xlsx,stimuli/Social1.png,stimuli/Social2.png,stimuli/Nonsocial1.png,stimuli/Nonsocial2.png,,"(-0.7, -0.5)",cs_plus_ns,,,,,0,0,0,0,,,,,,,,,4,0,64,9,,,,,,,,,,,,,,,,,,,,,1613.2745784000726,240,shock,1,0.30602900008670986,0.3060323999961838,1613.5870962000918,,,,,,,,29,A,2023-12-14_15h17.54.253,gca_avoidance_task,2022.2.4,143.96650756436378,
positions.xlsx,stimuli.xlsx,stimuli/Social1.png,stimuli/Social2.png,stimuli/Nonsocial1.png,stimuli/Nonsocial2.png,,"(0.7, 0.5)",cs_plus_s,,,,,0,0,0,0,,,,,,,,,4,1,65,2,,,,,,,,,,,,,,,,,,,,,1622.9547667000443,240,none,0,,,1627.9615201000124,,,,,,,,29,A,2023-12-14_15h17.54.253,gca_avoidance_task,2022.2.4,143.96650756436378,
positions.xlsx,stimuli.xlsx,stimuli/Social1.png,stimuli/Social2.png,stimuli/Nonsocial1.png,stimuli/Nonsocial2.png,,"(0.7, -0.5)",cs_minus_s,,,,,0,0,0,0,,,,,,,,,4,2,66,7,,,,,,,,,,,,,,,,,,,,,1637.280581100029,245,reward,1,0.6184661999577656,0.6184700999874622,1637.9055345000234,,,,,,,,29,A,2023-12-14_15h17.54.253,gca_avoidance_task,2022.2.4,143.96650756436378,
positions.xlsx,stimuli.xlsx,stimuli/Social1.png,stimuli/Social2.png,stimuli/Nonsocial1.png,stimuli/Nonsocial2.png,,"(0.7, -0.5)",cs_minus_ns,,,,,0,0,0,0,,,,,,,,,4,3,67,15,,,,,,,,,,,,,,,,,,,,,1647.7038133000024,250,reward,1,0.7503048999933526,0.7503088000230491,1648.4607697000029,,,,,,,,29,A,2023-12-14_15h17.54.253,gca_avoidance_task,2022.2.4,143.96650756436378,
positions.xlsx,stimuli.xlsx,stimuli/Social1.png,stimuli/Social2.png,stimuli/Nonsocial1.png,stimuli/Nonsocial2.png,,"(-0.7, 0.5)",cs_minus_s,,,,,0,0,0,0,,,,,,,,,4,4,68,4,,,,,,,,,,,,,,,,,,,,,1657.6061917000916,255,reward,1,0.5418784999055788,0.5418822999345139,1658.1547667999985,,,,,,,,29,A,2023-12-14_15h17.54.253,gca_avoidance_task,2022.2.4,143.96650756436378,
positions.xlsx,stimuli.xlsx,stimuli/Social1.png,stimuli/Social2.png,stimuli/Nonsocial1.png,stimuli/Nonsocial2.png,,"(0.7, 0.5)",cs_plus_ns,,,,,0,0,0,0,,,,,,,,,4,5,69,10,,,,,,,,,,,,,,,,,,,,,1667.6196954000043,255,none,0,,,1672.6264404000249,,,,,,,,29,A,2023-12-14_15h17.54.253,gca_avoidance_task,2022.2.4,143.96650756436378,
positions.xlsx,stimuli.xlsx,stimuli/Social1.png,stimuli/Social2.png,stimuli/Nonsocial1.png,stimuli/Nonsocial2.png,,"(0.7, 0.5)",cs_minus_s,,,,,0,0,0,0,,,,,,,,,4,6,70,6,,,,,,,,,,,,,,,,,,,,,1681.9385853999993,260,reward,1,0.5555426999926567,0.5555465000215918,1682.5010461000493,,,,,,,,29,A,2023-12-14_15h17.54.253,gca_avoidance_task,2022.2.4,143.96650756436378,
positions.xlsx,stimuli.xlsx,stimuli/Social1.png,stimuli/Social2.png,stimuli/Nonsocial1.png,stimuli/Nonsocial2.png,,"(-0.7, 0.5)",cs_minus_ns,,,,,0,0,0,0,,,,,,,,,4,7,71,12,,,,,,,,,,,,,,,,,,,,,1691.500676500029,265,reward,1,0.6460659999866039,0.6460698000155389,1692.1534538000124,,,,,,,,29,A,2023-12-14_15h17.54.253,gca_avoidance_task,2022.2.4,143.96650756436378,
positions.xlsx,stimuli.xlsx,stimuli/Social1.png,stimuli/Social2.png,stimuli/Nonsocial1.png,stimuli/Nonsocial2.png,,"(-0.7, -0.5)",cs_plus_s,,,,,0,0,0,0,,,,,,,,,4,8,72,1,,,,,,,,,,,,,,,,,,,,,1701.9864042000845,265,shock,1,0.2088604000164196,0.20886410004459321,1702.2016716999933,,,,,,,,29,A,2023-12-14_15h17.54.253,gca_avoidance_task,2022.2.4,143.96650756436378,
positions.xlsx,stimuli.xlsx,stimuli/Social1.png,stimuli/Social2.png,stimuli/Nonsocial1.png,stimuli/Nonsocial2.png,,"(-0.7, 0.5)",cs_plus_s,,,,,0,0,0,0,,,,,,,,,4,9,73,0,,,,,,,,,,,,,,,,,,,,,1712.0902567000594,265,none,0,,,1717.0969293999951,,,,,,,,29,A,2023-12-14_15h17.54.253,gca_avoidance_task,2022.2.4,143.96650756436378,
positions.xlsx,stimuli.xlsx,stimuli/Social1.png,stimuli/Social2.png,stimuli/Nonsocial1.png,stimuli/Nonsocial2.png,,"(-0.7, 0.5)",cs_plus_ns,,,,,0,0,0,0,,,,,,,,,4,10,74,8,,,,,,,,,,,,,,,,,,,,,1726.9507123000221,265,none,0,,,1731.957496899995,,,,,,,,29,A,2023-12-14_15h17.54.253,gca_avoidance_task,2022.2.4,143.96650756436378,
positions.xlsx,stimuli.xlsx,stimuli/Social1.png,stimuli/Social2.png,stimuli/Nonsocial1.png,stimuli/Nonsocial2.png,,"(0.7, 0.5)",cs_minus_ns,,,,,0,0,0,0,,,,,,,,,4,11,75,14,,,,,,,,,,,,,,,,,,,,,1740.9779636000749,270,reward,1,0.7014095999766141,0.7014133000047877,1741.6862518000416,,,,,,,,29,A,2023-12-14_15h17.54.253,gca_avoidance_task,2022.2.4,143.96650756436378,
positions.xlsx,stimuli.xlsx,stimuli/Social1.png,stimuli/Social2.png,stimuli/Nonsocial1.png,stimuli/Nonsocial2.png,,"(-0.7, -0.5)",cs_minus_ns,,,,,0,0,0,0,,,,,,,,,4,12,76,13,,,,,,,,,,,,,,,,,,,,,1751.0956118000904,275,reward,1,0.1944636000553146,0.19446699996478856,1751.2969807999907,,,,,,,,29,A,2023-12-14_15h17.54.253,gca_avoidance_task,2022.2.4,143.96650756436378,
positions.xlsx,stimuli.xlsx,stimuli/Social1.png,stimuli/Social2.png,stimuli/Nonsocial1.png,stimuli/Nonsocial2.png,,"(0.7, -0.5)",cs_plus_ns,,,,,0,0,0,0,,,,,,,,,4,13,77,11,,,,,,,,,,,,,,,,,,,,,1761.345214699977,275,none,0,,,1766.3519553000806,,,,,,,,29,A,2023-12-14_15h17.54.253,gca_avoidance_task,2022.2.4,143.96650756436378,
positions.xlsx,stimuli.xlsx,stimuli/Social1.png,stimuli/Social2.png,stimuli/Nonsocial1.png,stimuli/Nonsocial2.png,,"(0.7, -0.5)",cs_plus_s,,,,,0,0,0,0,,,,,,,,,4,14,78,3,,,,,,,,,,,,,,,,,,,,,1776.3584954000544,275,none,0,,,1781.3652782000136,,,,,,,,29,A,2023-12-14_15h17.54.253,gca_avoidance_task,2022.2.4,143.96650756436378,
positions.xlsx,stimuli.xlsx,stimuli/Social1.png,stimuli/Social2.png,stimuli/Nonsocial1.png,stimuli/Nonsocial2.png,,"(-0.7, -0.5)",cs_minus_s,,,,,0,0,0,0,,,,,,,,,4,15,79,5,,,,,,,,,,,,,,,,,,,,,1790.9898874000646,280,reward,1,0.5910262999823317,0.5910300000105053,1791.5870891000377,,,,,,,,29,A,2023-12-14_15h17.54.253,gca_avoidance_task,2022.2.4,143.96650756436378,
positions.xlsx,stimuli.xlsx,stimuli/Social1.png,stimuli/Social2.png,stimuli/Nonsocial1.png,stimuli/Nonsocial2.png,cs_minus_ns,,,,,,,0,0,0,0,,,,,,,,,,,,,0,0,0,3,,,,,,,,,,,,,1808.7113971000072,10.0,7.794034200021997,,,,,,,,,7.0,8.382161000045016,,,,,,29,A,2023-12-14_15h17.54.253,gca_avoidance_task,2022.2.4,143.96650756436378,
positions.xlsx,stimuli.xlsx,stimuli/Social1.png,stimuli/Social2.png,stimuli/Nonsocial1.png,stimuli/Nonsocial2.png,cs_plus_s,,,,,,,0,0,0,0,,,,,,,,,,,,,0,1,1,0,,,,,,,,,,,,,1817.9402795999777,1.0,3.0634754000930116,,,,,,,,,,,,,,,,29,A,2023-12-14_15h17.54.253,gca_avoidance_task,2022.2.4,143.96650756436378,
positions.xlsx,stimuli.xlsx,stimuli/Social1.png,stimuli/Social2.png,stimuli/Nonsocial1.png,stimuli/Nonsocial2.png,cs_plus_ns,,,,,,,0,0,0,0,,,,,,,,,,,,,0,2,2,1,,,,,,,,,,,,,1822.0512305999873,1.0,2.1529907000949606,,,,,,,,,,,,,,,,29,A,2023-12-14_15h17.54.253,gca_avoidance_task,2022.2.4,143.96650756436378,
positions.xlsx,stimuli.xlsx,stimuli/Social1.png,stimuli/Social2.png,stimuli/Nonsocial1.png,stimuli/Nonsocial2.png,cs_minus_s,,,,,,,0,0,0,0,,,,,,,,,,,,,0,3,3,2,,,,,,,,,,,,,1825.0788677000673,10.0,2.8903334999922663,,,,,,,,,,,,,,,,29,A,2023-12-14_15h17.54.253,gca_avoidance_task,2022.2.4,143.96650756436378,
positions.xlsx,stimuli.xlsx,stimuli/Social1.png,stimuli/Social2.png,stimuli/Nonsocial1.png,stimuli/Nonsocial2.png,cs_plus_s,,,,,,,0,0,0,0,,,,,,,,,,,,,,,,,0,0,0,0,,,,,,,,,,,,,,,,,,,,,,1828.7315097000683,1846.7307822000002,3,0.021403999999165535,4.805146900005639,29,A,2023-12-14_15h17.54.253,gca_avoidance_task,2022.2.4,143.96650756436378,
positions.xlsx,stimuli.xlsx,stimuli/Social1.png,stimuli/Social2.png,stimuli/Nonsocial1.png,stimuli/Nonsocial2.png,cs_minus_s,,,,,,,0,0,0,0,,,,,,,,,,,,,,,,,0,1,1,2,,,,,,,,,,,,,,,,,,,,,,,1861.514944100054,5,0.012993999989703298,1.4934555999934673,29,A,2023-12-14_15h17.54.253,gca_avoidance_task,2022.2.4,143.96650756436378,
positions.xlsx,stimuli.xlsx,stimuli/Social1.png,stimuli/Social2.png,stimuli/Nonsocial1.png,stimuli/Nonsocial2.png,cs_plus_ns,,,,,,,0,0,0,0,,,,,,,,,,,,,,,,,0,2,2,1,,,,,,,,,,,,,,,,,,,,,,,1876.847685100045,4,0.014726000023074448,1.8962100999196991,29,A,2023-12-14_15h17.54.253,gca_avoidance_task,2022.2.4,143.96650756436378,
positions.xlsx,stimuli.xlsx,stimuli/Social1.png,stimuli/Social2.png,stimuli/Nonsocial1.png,stimuli/Nonsocial2.png,cs_minus_ns,,,,,,,0,0,0,0,,,,,,,,,,,,,,,,,0,3,3,3,,,,,,,,,,,,,,,,,,,,,,,1891.8887843000703,6,0.24346979998517781,3.8474549000384286,29,A,2023-12-14_15h17.54.253,gca_avoidance_task,2022.2.4,143.96650756436378,
positions.xlsx,stimuli.xlsx,stimuli/Social1.png,stimuli/Social2.png,stimuli/Nonsocial1.png,stimuli/Nonsocial2.png,cs_minus_ns,,,,,,,0,0,0,0,,,,,,,,,,,,,,,,,1,0,4,3,,,,,,,,,,,,,,,,,,,,,,,1907.3881541000446,8,0.014415699988603592,1.889193999930285,29,A,2023-12-14_15h17.54.253,gca_avoidance_task,2022.2.4,143.96650756436378,
positions.xlsx,stimuli.xlsx,stimuli/Social1.png,stimuli/Social2.png,stimuli/Nonsocial1.png,stimuli/Nonsocial2.png,cs_plus_s,,,,,,,0,0,0,0,,,,,,,,,,,,,,,,,1,1,5,0,,,,,,,,,,,,,,,,,,,,,,,1922.339001000044,5,0.013978000031784177,1.7225743000162765,29,A,2023-12-14_15h17.54.253,gca_avoidance_task,2022.2.4,143.96650756436378,
positions.xlsx,stimuli.xlsx,stimuli/Social1.png,stimuli/Social2.png,stimuli/Nonsocial1.png,stimuli/Nonsocial2.png,cs_plus_ns,,,,,,,0,0,0,0,,,,,,,,,,,,,,,,,1,2,6,1,,,,,,,,,,,,,,,,,,,,,,,1937.7481475999812,4,0.014229699969291687,8.49989320000168,29,A,2023-12-14_15h17.54.253,gca_avoidance_task,2022.2.4,143.96650756436378,
positions.xlsx,stimuli.xlsx,stimuli/Social1.png,stimuli/Social2.png,stimuli/Nonsocial1.png,stimuli/Nonsocial2.png,cs_minus_s,,,,,,,0,0,0,0,,,,,,,,,,,,,,,,,1,3,7,2,,,,,,,,,,,,,,,,,,,,,,,1952.3656121999957,3,0.013747600023634732,3.118102899985388,29,A,2023-12-14_15h17.54.253,gca_avoidance_task,2022.2.4,143.96650756436378,
positions.xlsx,stimuli.xlsx,stimuli/Social1.png,stimuli/Social2.png,stimuli/Nonsocial1.png,stimuli/Nonsocial2.png,cs_plus_ns,,,,,,,0,0,0,0,,,,,,,,,,,,,,,,,2,0,8,1,,,,,,,,,,,,,,,,,,,,,,,1967.3927625999786,8,0.013843500055372715,3.513956700102426,29,A,2023-12-14_15h17.54.253,gca_avoidance_task,2022.2.4,143.96650756436378,
positions.xlsx,stimuli.xlsx,stimuli/Social1.png,stimuli/Social2.png,stimuli/Nonsocial1.png,stimuli/Nonsocial2.png,cs_minus_s,,,,,,,0,0,0,0,,,,,,,,,,,,,,,,,2,1,9,2,,,,,,,,,,,,,,,,,,,,,,,1982.2671886000317,5,0.013678999966941774,0.9377153000095859,29,A,2023-12-14_15h17.54.253,gca_avoidance_task,2022.2.4,143.96650756436378,
positions.xlsx,stimuli.xlsx,stimuli/Social1.png,stimuli/Social2.png,stimuli/Nonsocial1.png,stimuli/Nonsocial2.png,cs_minus_ns,,,,,,,0,0,0,0,,,,,,,,,,,,,,,,,2,2,10,3,,,,,,,,,,,,,,,,,,,,,,,1996.9402365999995,4,0.14629689999856055,0.31280299997888505,29,A,2023-12-14_15h17.54.253,gca_avoidance_task,2022.2.4,143.96650756436378,
positions.xlsx,stimuli.xlsx,stimuli/Social1.png,stimuli/Social2.png,stimuli/Nonsocial1.png,stimuli/Nonsocial2.png,cs_plus_s,,,,,,,0,0,0,0,,,,,,,,,,,,,,,,,2,3,11,0,,,,,,,,,,,,,,,,,,,,,,,2012.0924158000853,5,0.013546700007282197,1.8680610000155866,29,A,2023-12-14_15h17.54.253,gca_avoidance_task,2022.2.4,143.96650756436378,
positions.xlsx,stimuli.xlsx,stimuli/Social1.png,stimuli/Social2.png,stimuli/Nonsocial1.png,stimuli/Nonsocial2.png,cs_plus_ns,,,,,,,0,0,0,0,,,,,,,,,,,,,,,,,3,0,12,1,,,,,,,,,,,,,,,,,,,,,,,2027.4737807000056,5,0.01534789998549968,2.5281378000508994,29,A,2023-12-14_15h17.54.253,gca_avoidance_task,2022.2.4,143.96650756436378,
positions.xlsx,stimuli.xlsx,stimuli/Social1.png,stimuli/Social2.png,stimuli/Nonsocial1.png,stimuli/Nonsocial2.png,cs_minus_s,,,,,,,0,0,0,0,,,,,,,,,,,,,,,,,3,1,13,2,,,,,,,,,,,,,,,,,,,,,,,2042.382929100073,3,0.01350619993172586,1.8265330999856815,29,A,2023-12-14_15h17.54.253,gca_avoidance_task,2022.2.4,143.96650756436378,
positions.xlsx,stimuli.xlsx,stimuli/Social1.png,stimuli/Social2.png,stimuli/Nonsocial1.png,stimuli/Nonsocial2.png,cs_plus_s,,,,,,,0,0,0,0,,,,,,,,,,,,,,,,,3,2,14,0,,,,,,,,,,,,,,,,,,,,,,,2057.8823138000444,6,0.014076799969188869,1.4307165000354871,29,A,2023-12-14_15h17.54.253,gca_avoidance_task,2022.2.4,143.96650756436378,
positions.xlsx,stimuli.xlsx,stimuli/Social1.png,stimuli/Social2.png,stimuli/Nonsocial1.png,stimuli/Nonsocial2.png,cs_minus_ns,,,,,,,0,0,0,0,,,,,,,,,,,,,,,,,3,3,15,3,,,,,,,,,,,,,,,,,,,,,,,2072.87478120008,1,0.014162299921736121,10.000045399996452,29,A,2023-12-14_15h17.54.253,gca_avoidance_task,2022.2.4,143.96650756436378,
positions.xlsx,stimuli.xlsx,stimuli/Social1.png,stimuli/Social2.png,stimuli/Nonsocial1.png,stimuli/Nonsocial2.png,cs_plus_s,,,,,,,0,0,0,0,,,,,,,,,,,,,,,,,4,0,16,0,,,,,,,,,,,,,,,,,,,,,,,2087.728404500056,5,0.013557899976149201,1.1320433999644592,29,A,2023-12-14_15h17.54.253,gca_avoidance_task,2022.2.4,143.96650756436378,
positions.xlsx,stimuli.xlsx,stimuli/Social1.png,stimuli/Social2.png,stimuli/Nonsocial1.png,stimuli/Nonsocial2.png,cs_minus_ns,,,,,,,0,0,0,0,,,,,,,,,,,,,,,,,4,1,17,3,,,,,,,,,,,,,,,,,,,,,,,2103.1166853000177,3,0.1532092000124976,3.979425600031391,29,A,2023-12-14_15h17.54.253,gca_avoidance_task,2022.2.4,143.96650756436378,
positions.xlsx,stimuli.xlsx,stimuli/Social1.png,stimuli/Social2.png,stimuli/Nonsocial1.png,stimuli/Nonsocial2.png,cs_minus_s,,,,,,,0,0,0,0,,,,,,,,,,,,,,,,,4,2,18,2,,,,,,,,,,,,,,,,,,,,,,,2118.2341595999897,6,0.015280199935659766,1.2640241999179125,29,A,2023-12-14_15h17.54.253,gca_avoidance_task,2022.2.4,143.96650756436378,
positions.xlsx,stimuli.xlsx,stimuli/Social1.png,stimuli/Social2.png,stimuli/Nonsocial1.png,stimuli/Nonsocial2.png,cs_plus_ns,,,,,,,0,0,0,0,,,,,,,,,,,,,,,,,4,3,19,1,,,,,,,,,,,,,,,,,,,,,,,2133.0530202999944,9,0.3406306999968365,0.8544845000142232,29,A,2023-12-14_15h17.54.253,gca_avoidance_task,2022.2.4,143.96650756436378,
positions.xlsx,stimuli.xlsx,stimuli/Social1.png,stimuli/Social2.png,stimuli/Nonsocial1.png,stimuli/Nonsocial2.png,cs_minus_s,,,,,,,0,0,0,0,,,,,,,,,,,,,,,,,5,0,20,2,,,,,,,,,,,,,,,,,,,,,,,2147.614972500014,4,0.013448699959553778,3.0417978999903426,29,A,2023-12-14_15h17.54.253,gca_avoidance_task,2022.2.4,143.96650756436378,
positions.xlsx,stimuli.xlsx,stimuli/Social1.png,stimuli/Social2.png,stimuli/Nonsocial1.png,stimuli/Nonsocial2.png,cs_plus_ns,,,,,,,0,0,0,0,,,,,,,,,,,,,,,,,5,1,21,1,,,,,,,,,,,,,,,,,,,,,,,2163.010194799979,13,0.014195700059644878,1.00707729998976,29,A,2023-12-14_15h17.54.253,gca_avoidance_task,2022.2.4,143.96650756436378,
positions.xlsx,stimuli.xlsx,stimuli/Social1.png,stimuli/Social2.png,stimuli/Nonsocial1.png,stimuli/Nonsocial2.png,cs_plus_s,,,,,,,0,0,0,0,,,,,,,,,,,,,,,,,5,2,22,0,,,,,,,,,,,,,,,,,,,,,,,2178.3082412000513,5,0.07693239999935031,1.5834549000719562,29,A,2023-12-14_15h17.54.253,gca_avoidance_task,2022.2.4,143.96650756436378,
positions.xlsx,stimuli.xlsx,stimuli/Social1.png,stimuli/Social2.png,stimuli/Nonsocial1.png,stimuli/Nonsocial2.png,cs_minus_ns,,,,,,,0,0,0,0,,,,,,,,,,,,,,,,,5,3,23,3,,,,,,,,,,,,,,,,,,,,,,,2193.4048361000605,5,0.014089400065131485,0.42416850000154227,29,A,2023-12-14_15h17.54.253,gca_avoidance_task,2022.2.4,143.96650756436378,
positions.xlsx,stimuli.xlsx,stimuli/Social1.png,stimuli/Social2.png,stimuli/Nonsocial1.png,stimuli/Nonsocial2.png,cs_minus_s,,,,,,,0,0,0,0,,,,,,,,,,,,,,,,,6,0,24,2,,,,,,,,,,,,,,,,,,,,,,,2208.688980999985,8,0.013684700010344386,0.8056293000699952,29,A,2023-12-14_15h17.54.253,gca_avoidance_task,2022.2.4,143.96650756436378,
positions.xlsx,stimuli.xlsx,stimuli/Social1.png,stimuli/Social2.png,stimuli/Nonsocial1.png,stimuli/Nonsocial2.png,cs_plus_s,,,,,,,0,0,0,0,,,,,,,,,,,,,,,,,6,1,25,0,,,,,,,,,,,,,,,,,,,,,,,2223.702270300011,2,0.013979300041683018,8.965188000001945,29,A,2023-12-14_15h17.54.253,gca_avoidance_task,2022.2.4,143.96650756436378,
positions.xlsx,stimuli.xlsx,stimuli/Social1.png,stimuli/Social2.png,stimuli/Nonsocial1.png,stimuli/Nonsocial2.png,cs_minus_ns,,,,,,,0,0,0,0,,,,,,,,,,,,,,,,,6,2,26,3,,,,,,,,,,,,,,,,,,,,,,,2238.98640709999,11,0.01439530006609857,2.896074300049804,29,A,2023-12-14_15h17.54.253,gca_avoidance_task,2022.2.4,143.96650756436378,
positions.xlsx,stimuli.xlsx,stimuli/Social1.png,stimuli/Social2.png,stimuli/Nonsocial1.png,stimuli/Nonsocial2.png,cs_plus_ns,,,,,,,0,0,0,0,,,,,,,,,,,,,,,,,6,3,27,1,,,,,,,,,,,,,,,,,,,,,,,2253.60388770001,6,0.09772419999353588,2.042009000084363,29,A,2023-12-14_15h17.54.253,gca_avoidance_task,2022.2.4,143.96650756436378,
positions.xlsx,stimuli.xlsx,stimuli/Social1.png,stimuli/Social2.png,stimuli/Nonsocial1.png,stimuli/Nonsocial2.png,cs_minus_ns,,,,,,,0,0,0,0,,,,,,,,,,,,,,,,,7,0,28,3,,,,,,,,,,,,,,,,,,,,,,,2268.5824565000366,3,0.01383670000359416,2.0417686000000685,29,A,2023-12-14_15h17.54.253,gca_avoidance_task,2022.2.4,143.96650756436378,
positions.xlsx,stimuli.xlsx,stimuli/Social1.png,stimuli/Social2.png,stimuli/Nonsocial1.png,stimuli/Nonsocial2.png,cs_plus_s,,,,,,,0,0,0,0,,,,,,,,,,,,,,,,,7,1,29,0,,,,,,,,,,,,,,,,,,,,,,,2283.7763274000026,1,0.013889100053347647,10.00023110001348,29,A,2023-12-14_15h17.54.253,gca_avoidance_task,2022.2.4,143.96650756436378,
positions.xlsx,stimuli.xlsx,stimuli/Social1.png,stimuli/Social2.png,stimuli/Nonsocial1.png,stimuli/Nonsocial2.png,cs_plus_ns,,,,,,,0,0,0,0,,,,,,,,,,,,,,,,,7,2,30,1,,,,,,,,,,,,,,,,,,,,,,,2299.164650300052,10,0.014482300030067563,0.13931380002759397,29,A,2023-12-14_15h17.54.253,gca_avoidance_task,2022.2.4,143.96650756436378,
positions.xlsx,stimuli.xlsx,stimuli/Social1.png,stimuli/Social2.png,stimuli/Nonsocial1.png,stimuli/Nonsocial2.png,cs_minus_s,,,,,,,0,0,0,0,,,,,,,,,,,,,,,,,7,3,31,2,,,,,,,,,,,,,,,,,,,,,,,2314.4349011000013,3,0.2087642999831587,2.639192400034517,29,A,2023-12-14_15h17.54.253,gca_avoidance_task,2022.2.4,143.96650756436378,
positions.xlsx,stimuli.xlsx,stimuli/Social1.png,stimuli/Social2.png,stimuli/Nonsocial1.png,stimuli/Nonsocial2.png,cs_minus_ns,,,,,,,0,0,0,0,,,,,,,,,,,,,,,,,8,0,32,3,,,,,,,,,,,,,,,,,,,,,,,2329.7884644999867,5,0.014096300001256168,0.03502339997794479,29,A,2023-12-14_15h17.54.253,gca_avoidance_task,2022.2.4,143.96650756436378,
positions.xlsx,stimuli.xlsx,stimuli/Social1.png,stimuli/Social2.png,stimuli/Nonsocial1.png,stimuli/Nonsocial2.png,cs_plus_s,,,,,,,0,0,0,0,,,,,,,,,,,,,,,,,8,1,33,0,,,,,,,,,,,,,,,,,,,,,,,2345.0309332000325,6,0.013378300005570054,2.417134699993767,29,A,2023-12-14_15h17.54.253,gca_avoidance_task,2022.2.4,143.96650756436378,
positions.xlsx,stimuli.xlsx,stimuli/Social1.png,stimuli/Social2.png,stimuli/Nonsocial1.png,stimuli/Nonsocial2.png,cs_minus_s,,,,,,,0,0,0,0,,,,,,,,,,,,,,,,,8,2,34,2,,,,,,,,,,,,,,,,,,,,,,,2359.884503600071,3,0.014275999972596765,0.09061189997009933,29,A,2023-12-14_15h17.54.253,gca_avoidance_task,2022.2.4,143.96650756436378,
positions.xlsx,stimuli.xlsx,stimuli/Social1.png,stimuli/Social2.png,stimuli/Nonsocial1.png,stimuli/Nonsocial2.png,cs_plus_ns,,,,,,,0,0,0,0,,,,,,,,,,,,,,,,,8,3,35,1,,,,,,,,,,,,,,,,,,,,,,,2374.696478500031,2,0.014487399952486157,6.770952599938028,29,A,2023-12-14_15h17.54.253,gca_avoidance_task,2022.2.4,143.96650756436378,
positions.xlsx,stimuli.xlsx,stimuli/Social1.png,stimuli/Social2.png,stimuli/Nonsocial1.png,stimuli/Nonsocial2.png,cs_plus_s,,,,,,,0,0,0,0,,,,,,,,,,,,,,,,,9,0,36,0,,,,,,,,,,,,,,,,,,,,,,,2389.265298000071,6,0.01455520000308752,0.03512410004623234,29,A,2023-12-14_15h17.54.253,gca_avoidance_task,2022.2.4,143.96650756436378,
positions.xlsx,stimuli.xlsx,stimuli/Social1.png,stimuli/Social2.png,stimuli/Nonsocial1.png,stimuli/Nonsocial2.png,cs_minus_ns,,,,,,,0,0,0,0,,,,,,,,,,,,,,,,,9,1,37,3,,,,,,,,,,,,,,,,,,,,,,,2404.431408000062,12,0.20178389991633594,1.2780931999441236,29,A,2023-12-14_15h17.54.253,gca_avoidance_task,2022.2.4,143.96650756436378,
positions.xlsx,stimuli.xlsx,stimuli/Social1.png,stimuli/Social2.png,stimuli/Nonsocial1.png,stimuli/Nonsocial2.png,cs_plus_ns,,,,,,,0,0,0,0,,,,,,,,,,,,,,,,,9,2,38,1,,,,,,,,,,,,,,,,,,,,,,,2419.8127234000713,10,0.014120699954219162,0.6044785999692976,29,A,2023-12-14_15h17.54.253,gca_avoidance_task,2022.2.4,143.96650756436378,
positions.xlsx,stimuli.xlsx,stimuli/Social1.png,stimuli/Social2.png,stimuli/Nonsocial1.png,stimuli/Nonsocial2.png,cs_minus_s,,,,,,,0,0,0,0,,,,,,,,,,,,,,,,,9,3,39,2,,,,,,,,,,,,,,,,,,,,,,,2435.0343938000733,5,0.015031200018711388,1.6945287000853568,29,A,2023-12-14_15h17.54.253,gca_avoidance_task,2022.2.4,143.96650756436378,
positions.xlsx,stimuli.xlsx,stimuli/Social1.png,stimuli/Social2.png,stimuli/Nonsocial1.png,stimuli/Nonsocial2.png,cs_plus_ns,,,,,,,0,0,0,0,,,,,,,,,,,,,,,,,,,,,0,0,0,1,,,,,2449.353245200007,9.0,4.870277300011367,,,,,,,,,,,,,,,,29,A,2023-12-14_15h17.54.253,gca_avoidance_task,2022.2.4,143.96650756436378,
positions.xlsx,stimuli.xlsx,stimuli/Social1.png,stimuli/Social2.png,stimuli/Nonsocial1.png,stimuli/Nonsocial2.png,cs_plus_s,,,,,,,0,0,0,0,,,,,,,,,,,,,,,,,,,,,0,1,1,0,,,,,2455.9849393999903,9.0,3.2993351999903098,,,,,,,,,,,,,,,,29,A,2023-12-14_15h17.54.253,gca_avoidance_task,2022.2.4,143.96650756436378,
positions.xlsx,stimuli.xlsx,stimuli/Social1.png,stimuli/Social2.png,stimuli/Nonsocial1.png,stimuli/Nonsocial2.png,cs_minus_ns,,,,,,,0,0,0,0,,,,,,,,,,,,,,,,,,,,,0,2,2,3,,,,,2460.3389386000345,7.0,4.472680700011551,,,,,,,,,,,,,,,,29,A,2023-12-14_15h17.54.253,gca_avoidance_task,2022.2.4,143.96650756436378,
positions.xlsx,stimuli.xlsx,stimuli/Social1.png,stimuli/Social2.png,stimuli/Nonsocial1.png,stimuli/Nonsocial2.png,cs_minus_s,,,,,,,0,0,0,0,,,,,,,,,,,,,,,,,,,,,0,3,3,2,,,,,2465.665137200034,7.0,1.194735600030981,,,,,,,,,,,,,,,,29,A,2023-12-14_15h17.54.253,gca_avoidance_task,2022.2.4,143.96650756436378,
