posFile,stimFile,cs_plus_s,cs_minus_s,cs_plus_ns,cs_minus_ns,stimtype,position,trialtype,trials_threshold.thisRepN,trials_threshold.thisTrialN,trials_threshold.thisN,trials_threshold.thisIndex,blocks.thisRepN,blocks.thisTrialN,blocks.thisN,blocks.thisIndex,ratingtrials1.thisRepN,ratingtrials1.thisTrialN,ratingtrials1.thisN,ratingtrials1.thisIndex,learning_trials.thisRepN,learning_trials.thisTrialN,learning_trials.thisN,learning_trials.thisIndex,trials.thisRepN,trials.thisTrialN,trials.thisN,trials.thisIndex,ratingtrials2.thisRepN,ratingtrials2.thisTrialN,ratingtrials2.thisN,ratingtrials2.thisIndex,testtrials.thisRepN,testtrials.thisTrialN,testtrials.thisN,testtrials.thisIndex,ratingtrials3.thisRepN,ratingtrials3.thisTrialN,ratingtrials3.thisN,ratingtrials3.thisIndex,textStart.started,sliderPainT.response,sliderPainT.rt,textStartExp.started,imageRating.started,sliderStim.response,sliderStim.rt,textStartTask.started,image.started,score,outcome,roi.numLooks,roi.timesOn,roi.timesOff,imageFeedback.started,sliderPain.response,sliderPain.rt,textTestInstr.started,imageTest.started,roiTest.numLooks,roiTest.timesOn,roiTest.timesOff,participant,group,date,expName,psychopyVersion,frameRate,
,,,,,,,,,0,0,0,0,,,,,,,,,,,,,,,,,,,,,,,,,,,,,21.487917999969795,None,None,,,,,,,,,,,,,,,,,,,,41,D,2023-12-21_08h38.18.964,gca_avoidance_task,2022.2.4,143.98682217205422,
,,,,,,,,,1,0,1,0,,,,,,,,,,,,,,,,,,,,,,,,,,,,,,0.0,14.084623200120404,,,,,,,,,,,,,,,,,,,,41,D,2023-12-21_08h38.18.964,gca_avoidance_task,2022.2.4,143.98682217205422,
,,,,,,,,,2,0,2,0,,,,,,,,,,,,,,,,,,,,,,,,,,,,,,1.0,3.566037700045854,,,,,,,,,,,,,,,,,,,,41,D,2023-12-21_08h38.18.964,gca_avoidance_task,2022.2.4,143.98682217205422,
,,,,,,,,,3,0,3,0,,,,,,,,,,,,,,,,,,,,,,,,,,,,,,1.0,3.481623400002718,,,,,,,,,,,,,,,,,,,,41,D,2023-12-21_08h38.18.964,gca_avoidance_task,2022.2.4,143.98682217205422,
,,,,,,,,,4,0,4,0,,,,,,,,,,,,,,,,,,,,,,,,,,,,,,2.0,2.532866399968043,,,,,,,,,,,,,,,,,,,,41,D,2023-12-21_08h38.18.964,gca_avoidance_task,2022.2.4,143.98682217205422,
,,,,,,,,,5,0,5,0,,,,,,,,,,,,,,,,,,,,,,,,,,,,,,2.0,3.7595041999593377,,,,,,,,,,,,,,,,,,,,41,D,2023-12-21_08h38.18.964,gca_avoidance_task,2022.2.4,143.98682217205422,
,,,,,,,,,6,0,6,0,,,,,,,,,,,,,,,,,,,,,,,,,,,,,,3.0,2.363357200054452,,,,,,,,,,,,,,,,,,,,41,D,2023-12-21_08h38.18.964,gca_avoidance_task,2022.2.4,143.98682217205422,
,,,,,,,,,7,0,7,0,,,,,,,,,,,,,,,,,,,,,,,,,,,,,,3.0,3.850636500166729,,,,,,,,,,,,,,,,,,,,41,D,2023-12-21_08h38.18.964,gca_avoidance_task,2022.2.4,143.98682217205422,
,,,,,,,,,8,0,8,0,,,,,,,,,,,,,,,,,,,,,,,,,,,,,,3.0,3.7678635001648217,,,,,,,,,,,,,,,,,,,,41,D,2023-12-21_08h38.18.964,gca_avoidance_task,2022.2.4,143.98682217205422,
,,,,,,,,,9,0,9,0,,,,,,,,,,,,,,,,,,,,,,,,,,,,,,3.0,4.321103000082076,,,,,,,,,,,,,,,,,,,,41,D,2023-12-21_08h38.18.964,gca_avoidance_task,2022.2.4,143.98682217205422,
,,,,,,,,,10,0,10,0,,,,,,,,,,,,,,,,,,,,,,,,,,,,,,3.0,3.937524899840355,,,,,,,,,,,,,,,,,,,,41,D,2023-12-21_08h38.18.964,gca_avoidance_task,2022.2.4,143.98682217205422,
,,,,,,,,,11,0,11,0,,,,,,,,,,,,,,,,,,,,,,,,,,,,,,4.0,2.5425760000944138,,,,,,,,,,,,,,,,,,,,41,D,2023-12-21_08h38.18.964,gca_avoidance_task,2022.2.4,143.98682217205422,
,,,,,,,,,12,0,12,0,,,,,,,,,,,,,,,,,,,,,,,,,,,,,,4.0,4.380578099982813,,,,,,,,,,,,,,,,,,,,41,D,2023-12-21_08h38.18.964,gca_avoidance_task,2022.2.4,143.98682217205422,
,,,,,,,,,13,0,13,0,,,,,,,,,,,,,,,,,,,,,,,,,,,,,,5.0,2.3941737001296133,,,,,,,,,,,,,,,,,,,,41,D,2023-12-21_08h38.18.964,gca_avoidance_task,2022.2.4,143.98682217205422,
,,,,,,,,,14,0,14,0,,,,,,,,,,,,,,,,,,,,,,,,,,,,,,6.0,3.203114799922332,,,,,,,,,,,,,,,,,,,,41,D,2023-12-21_08h38.18.964,gca_avoidance_task,2022.2.4,143.98682217205422,
,,,,,,,,,15,0,15,0,,,,,,,,,,,,,,,,,,,,,,,,,,,,,,6.0,3.165169700048864,,,,,,,,,,,,,,,,,,,,41,D,2023-12-21_08h38.18.964,gca_avoidance_task,2022.2.4,143.98682217205422,
,,,,,,,,,16,0,16,0,,,,,,,,,,,,,,,,,,,,,,,,,,,,,,6.0,3.9796601000707597,,,,,,,,,,,,,,,,,,,,41,D,2023-12-21_08h38.18.964,gca_avoidance_task,2022.2.4,143.98682217205422,
,,,,,,,,,17,0,17,0,,,,,,,,,,,,,,,,,,,,,,,,,,,,,,7.0,2.4852650000248104,,,,,,,,,,,,,,,,,,,,41,D,2023-12-21_08h38.18.964,gca_avoidance_task,2022.2.4,143.98682217205422,
,,,,,,,,,18,0,18,0,,,,,,,,,,,,,,,,,,,,,,,,,,,,,,7.0,1.5571041000075638,,,,,,,,,,,,,,,,,,,,41,D,2023-12-21_08h38.18.964,gca_avoidance_task,2022.2.4,143.98682217205422,
,,,,,,,,,19,0,19,0,,,,,,,,,,,,,,,,,,,,,,,,,,,,,,7.0,2.8776861999649554,,,,,,,,,,,,,,,,,,,,41,D,2023-12-21_08h38.18.964,gca_avoidance_task,2022.2.4,143.98682217205422,
,,,,,,,,,20,0,20,0,,,,,,,,,,,,,,,,,,,,,,,,,,,,,,7.0,2.9560046999249607,,,,,,,,,,,,,,,,,,,,41,D,2023-12-21_08h38.18.964,gca_avoidance_task,2022.2.4,143.98682217205422,
,,,,,,,,,21,0,21,0,,,,,,,,,,,,,,,,,,,,,,,,,,,,,,7.0,2.1602890000212938,,,,,,,,,,,,,,,,,,,,41,D,2023-12-21_08h38.18.964,gca_avoidance_task,2022.2.4,143.98682217205422,
,,,,,,,,,22,0,22,0,,,,,,,,,,,,,,,,,,,,,,,,,,,,,,7.0,2.4692037000786513,,,,,,,,,,,,,,,,,,,,41,D,2023-12-21_08h38.18.964,gca_avoidance_task,2022.2.4,143.98682217205422,
,,,,,,,,,23,0,23,0,,,,,,,,,,,,,,,,,,,,,,,,,,,,,,7.0,3.427857799921185,,,,,,,,,,,,,,,,,,,,41,D,2023-12-21_08h38.18.964,gca_avoidance_task,2022.2.4,143.98682217205422,
,,,,,,,,,24,0,24,0,,,,,,,,,,,,,,,,,,,,,,,,,,,,,,4.0,2.6925605998840183,,,,,,,,,,,,,,,,,,,,41,D,2023-12-21_08h38.18.964,gca_avoidance_task,2022.2.4,143.98682217205422,
,,,,,,,,,25,0,25,0,,,,,,,,,,,,,,,,,,,,,,,,,,,,,,2.0,2.6236489999573678,,,,,,,,,,,,,,,,,,,,41,D,2023-12-21_08h38.18.964,gca_avoidance_task,2022.2.4,143.98682217205422,
,,,,,,,,,26,0,26,0,,,,,,,,,,,,,,,,,,,,,,,,,,,,,,2.0,4.91538090002723,,,,,,,,,,,,,,,,,,,,41,D,2023-12-21_08h38.18.964,gca_avoidance_task,2022.2.4,143.98682217205422,
,,,,,,,,,27,0,27,0,,,,,,,,,,,,,,,,,,,,,,,,,,,,,,3.0,5.678794499952346,,,,,,,,,,,,,,,,,,,,41,D,2023-12-21_08h38.18.964,gca_avoidance_task,2022.2.4,143.98682217205422,
,,,,,,,,,28,0,28,0,,,,,,,,,,,,,,,,,,,,,,,,,,,,,,3.0,4.35589940007776,,,,,,,,,,,,,,,,,,,,41,D,2023-12-21_08h38.18.964,gca_avoidance_task,2022.2.4,143.98682217205422,
,,,,,,,,,29,0,29,0,,,,,,,,,,,,,,,,,,,,,,,,,,,,,,4.0,1.5584398000501096,,,,,,,,,,,,,,,,,,,,41,D,2023-12-21_08h38.18.964,gca_avoidance_task,2022.2.4,143.98682217205422,
,,,,,,,,,30,0,30,0,,,,,,,,,,,,,,,,,,,,,,,,,,,,,,6.0,2.504406599793583,,,,,,,,,,,,,,,,,,,,41,D,2023-12-21_08h38.18.964,gca_avoidance_task,2022.2.4,143.98682217205422,
,,,,,,,,,31,0,31,0,,,,,,,,,,,,,,,,,,,,,,,,,,,,,,6.0,1.8631802999880165,,,,,,,,,,,,,,,,,,,,41,D,2023-12-21_08h38.18.964,gca_avoidance_task,2022.2.4,143.98682217205422,
,,,,,,,,,32,0,32,0,,,,,,,,,,,,,,,,,,,,,,,,,,,,,,6.0,2.6861493000760674,,,,,,,,,,,,,,,,,,,,41,D,2023-12-21_08h38.18.964,gca_avoidance_task,2022.2.4,143.98682217205422,
,,,,,,,,,33,0,33,0,,,,,,,,,,,,,,,,,,,,,,,,,,,,,,7.0,1.4766024998389184,,,,,,,,,,,,,,,,,,,,41,D,2023-12-21_08h38.18.964,gca_avoidance_task,2022.2.4,143.98682217205422,
,,,,,,,,,34,0,34,0,,,,,,,,,,,,,,,,,,,,,,,,,,,,,,7.0,1.9439866000320762,,,,,,,,,,,,,,,,,,,,41,D,2023-12-21_08h38.18.964,gca_avoidance_task,2022.2.4,143.98682217205422,
,,,,,,,,,35,0,35,0,,,,,,,,,,,,,,,,,,,,,,,,,,,,,,7.0,1.3924982000607997,,,,,,,,,,,,,,,,,,,,41,D,2023-12-21_08h38.18.964,gca_avoidance_task,2022.2.4,143.98682217205422,
,,,,,,,,,36,0,36,0,,,,,,,,,,,,,,,,,,,,,,,,,,,,,,5.0,2.960606300039217,,,,,,,,,,,,,,,,,,,,41,D,2023-12-21_08h38.18.964,gca_avoidance_task,2022.2.4,143.98682217205422,
,,,,,,,,,37,0,37,0,,,,,,,,,,,,,,,,,,,,,,,,,,,,,,6.0,2.1124306998681277,,,,,,,,,,,,,,,,,,,,41,D,2023-12-21_08h38.18.964,gca_avoidance_task,2022.2.4,143.98682217205422,
,,,,,,,,,38,0,38,0,,,,,,,,,,,,,,,,,,,,,,,,,,,,,,6.0,3.7209609001874924,,,,,,,,,,,,,,,,,,,,41,D,2023-12-21_08h38.18.964,gca_avoidance_task,2022.2.4,143.98682217205422,
,,,,,,,,,39,0,39,0,,,,,,,,,,,,,,,,,,,,,,,,,,,,,,6.0,3.2329076000023633,,,,,,,,,,,,,,,,,,,,41,D,2023-12-21_08h38.18.964,gca_avoidance_task,2022.2.4,143.98682217205422,
,,,,,,,,,40,0,40,0,,,,,,,,,,,,,,,,,,,,,,,,,,,,,,7.0,1.2271602998953313,,,,,,,,,,,,,,,,,,,,41,D,2023-12-21_08h38.18.964,gca_avoidance_task,2022.2.4,143.98682217205422,
,,,,,,,,,41,0,41,0,,,,,,,,,,,,,,,,,,,,,,,,,,,,,,7.0,2.0811986001208425,,,,,,,,,,,,,,,,,,,,41,D,2023-12-21_08h38.18.964,gca_avoidance_task,2022.2.4,143.98682217205422,
,,,,,,,,,42,0,42,0,,,,,,,,,,,,,,,,,,,,,,,,,,,,,,7.0,2.0430542998947203,,,,,,,,,,,,,,,,,,,,41,D,2023-12-21_08h38.18.964,gca_avoidance_task,2022.2.4,143.98682217205422,
,,,,,,,,,43,0,43,0,,,,,,,,,,,,,,,,,,,,,,,,,,,,,,7.0,1.7211068000178784,,,,,,,,,,,,,,,,,,,,41,D,2023-12-21_08h38.18.964,gca_avoidance_task,2022.2.4,143.98682217205422,
,,,,,,,,,44,0,44,0,,,,,,,,,,,,,,,,,,,,,,,,,,,,,,7.0,2.242282599909231,,,,,,,,,,,,,,,,,,,,41,D,2023-12-21_08h38.18.964,gca_avoidance_task,2022.2.4,143.98682217205422,
,,,,,,,,,45,0,45,0,,,,,,,,,,,,,,,,,,,,,,,,,,,,,,6.0,2.360286300070584,,,,,,,,,,,,,,,,,,,,41,D,2023-12-21_08h38.18.964,gca_avoidance_task,2022.2.4,143.98682217205422,
positions.xlsx,stimuli.xlsx,stimuli/Social2.png,stimuli/Social1.png,stimuli/Nonsocial2.png,stimuli/Nonsocial1.png,cs_minus_ns,,,,,,,0,0,0,0,0,0,0,3,,,,,,,,,,,,,,,,,,,,,,,,858.1983211999759,909.4526653001085,4.0,7.955750799970701,,,,,,,,,,,,,,,,41,D,2023-12-21_08h38.18.964,gca_avoidance_task,2022.2.4,143.98682217205422,
positions.xlsx,stimuli.xlsx,stimuli/Social2.png,stimuli/Social1.png,stimuli/Nonsocial2.png,stimuli/Nonsocial1.png,cs_plus_s,,,,,,,0,0,0,0,0,1,1,0,,,,,,,,,,,,,,,,,,,,,,,,,920.2855752001051,5.0,6.589034900069237,,,,,,,,,,,,,,,,41,D,2023-12-21_08h38.18.964,gca_avoidance_task,2022.2.4,143.98682217205422,
positions.xlsx,stimuli.xlsx,stimuli/Social2.png,stimuli/Social1.png,stimuli/Nonsocial2.png,stimuli/Nonsocial1.png,cs_minus_s,,,,,,,0,0,0,0,0,2,2,2,,,,,,,,,,,,,,,,,,,,,,,,,928.5422118999995,4.0,6.037680899957195,,,,,,,,,,,,,,,,41,D,2023-12-21_08h38.18.964,gca_avoidance_task,2022.2.4,143.98682217205422,
positions.xlsx,stimuli.xlsx,stimuli/Social2.png,stimuli/Social1.png,stimuli/Nonsocial2.png,stimuli/Nonsocial1.png,cs_plus_ns,,,,,,,0,0,0,0,0,3,3,1,,,,,,,,,,,,,,,,,,,,,,,,,936.0349791001063,5.0,5.169813900021836,,,,,,,,,,,,,,,,41,D,2023-12-21_08h38.18.964,gca_avoidance_task,2022.2.4,143.98682217205422,
positions.xlsx,stimuli.xlsx,stimuli/Social2.png,stimuli/Social1.png,stimuli/Nonsocial2.png,stimuli/Nonsocial1.png,,"(-0.7, -0.5)",cs_plus_s,,,,,0,0,0,0,,,,,0,0,0,1,,,,,,,,,,,,,,,,,,,,,,,,943.5276995000895,976.0958765000105,0,shock,1,0.32659289985895157,0.3265965997707099,976.4361201000866,,,,,,,,41,D,2023-12-21_08h38.18.964,gca_avoidance_task,2022.2.4,143.98682217205422,
positions.xlsx,stimuli.xlsx,stimuli/Social2.png,stimuli/Social1.png,stimuli/Nonsocial2.png,stimuli/Nonsocial1.png,,"(-0.7, 0.5)",cs_minus_s,,,,,0,0,0,0,,,,,0,1,1,4,,,,,,,,,,,,,,,,,,,,,,,,,985.82462999993,5,reward,1,3.236593500012532,3.23659750004299,989.0745181001257,,,,,,,,41,D,2023-12-21_08h38.18.964,gca_avoidance_task,2022.2.4,143.98682217205422,
positions.xlsx,stimuli.xlsx,stimuli/Social2.png,stimuli/Social1.png,stimuli/Nonsocial2.png,stimuli/Nonsocial1.png,,"(0.7, 0.5)",cs_plus_s,,,,,0,0,0,0,,,,,0,2,2,2,,,,,,,,,,,,,,,,,,,,,,,,,998.824121600017,5,shock,1,4.625170499784872,4.625174199929461,1003.4559249000158,,,,,,,,41,D,2023-12-21_08h38.18.964,gca_avoidance_task,2022.2.4,143.98682217205422,
positions.xlsx,stimuli.xlsx,stimuli/Social2.png,stimuli/Social1.png,stimuli/Nonsocial2.png,stimuli/Nonsocial1.png,,"(0.7, -0.5)",cs_plus_ns,,,,,0,0,0,0,,,,,0,3,3,11,,,,,,,,,,,,,,,,,,,,,,,,,1012.0666662000585,5,shock,1,1.5349399000406265,1.5349443999584764,1013.6082703000866,,,,,,,,41,D,2023-12-21_08h38.18.964,gca_avoidance_task,2022.2.4,143.98682217205422,
positions.xlsx,stimuli.xlsx,stimuli/Social2.png,stimuli/Social1.png,stimuli/Nonsocial2.png,stimuli/Nonsocial1.png,,"(0.7, 0.5)",cs_plus_ns,,,,,0,0,0,0,,,,,0,4,4,10,,,,,,,,,,,,,,,,,,,,,,,,,1022.2329198999796,5,shock,1,0.5350782000459731,0.5350820000749081,1022.7745686999988,,,,,,,,41,D,2023-12-21_08h38.18.964,gca_avoidance_task,2022.2.4,143.98682217205422,
positions.xlsx,stimuli.xlsx,stimuli/Social2.png,stimuli/Social1.png,stimuli/Nonsocial2.png,stimuli/Nonsocial1.png,,"(0.7, -0.5)",cs_plus_s,,,,,0,0,0,0,,,,,0,5,5,3,,,,,,,,,,,,,,,,,,,,,,,,,1032.878326700069,5,shock,1,2.000399800017476,2.0004032999277115,1034.8852482000366,,,,,,,,41,D,2023-12-21_08h38.18.964,gca_avoidance_task,2022.2.4,143.98682217205422,
positions.xlsx,stimuli.xlsx,stimuli/Social2.png,stimuli/Social1.png,stimuli/Nonsocial2.png,stimuli/Nonsocial1.png,,"(0.7, 0.5)",cs_minus_s,,,,,0,0,0,0,,,,,0,6,6,6,,,,,,,,,,,,,,,,,,,,,,,,,1044.8153186000418,10,reward,1,2.437872000038624,2.445528900017962,1047.2666609999724,,,,,,,,41,D,2023-12-21_08h38.18.964,gca_avoidance_task,2022.2.4,143.98682217205422,
positions.xlsx,stimuli.xlsx,stimuli/Social2.png,stimuli/Social1.png,stimuli/Nonsocial2.png,stimuli/Nonsocial1.png,,"(0.7, 0.5)",cs_minus_ns,,,,,0,0,0,0,,,,,0,7,7,14,,,,,,,,,,,,,,,,,,,,,,,,,1056.8496079000179,15,reward,1,2.5144501999020576,2.5144539999309927,1059.3704095000867,,,,,,,,41,D,2023-12-21_08h38.18.964,gca_avoidance_task,2022.2.4,143.98682217205422,
positions.xlsx,stimuli.xlsx,stimuli/Social2.png,stimuli/Social1.png,stimuli/Nonsocial2.png,stimuli/Nonsocial1.png,,"(0.7, -0.5)",cs_minus_s,,,,,0,0,0,0,,,,,0,8,8,7,,,,,,,,,,,,,,,,,,,,,,,,,1069.1685699000955,20,reward,1,3.0073067999910563,3.0073104999028146,1072.1823476001155,,,,,,,,41,D,2023-12-21_08h38.18.964,gca_avoidance_task,2022.2.4,143.98682217205422,
positions.xlsx,stimuli.xlsx,stimuli/Social2.png,stimuli/Social1.png,stimuli/Nonsocial2.png,stimuli/Nonsocial1.png,,"(-0.7, -0.5)",cs_minus_ns,,,,,0,0,0,0,,,,,0,9,9,13,,,,,,,,,,,,,,,,,,,,,,,,,1080.7653214000165,25,reward,1,2.3751631998457015,2.3751668999902904,1083.1471939000767,,,,,,,,41,D,2023-12-21_08h38.18.964,gca_avoidance_task,2022.2.4,143.98682217205422,
positions.xlsx,stimuli.xlsx,stimuli/Social2.png,stimuli/Social1.png,stimuli/Nonsocial2.png,stimuli/Nonsocial1.png,,"(-0.7, -0.5)",cs_minus_s,,,,,0,0,0,0,,,,,0,10,10,5,,,,,,,,,,,,,,,,,,,,,,,,,1092.973147300072,30,reward,1,2.091006600065157,2.0978562000673264,1095.077250200091,,,,,,,,41,D,2023-12-21_08h38.18.964,gca_avoidance_task,2022.2.4,143.98682217205422,
positions.xlsx,stimuli.xlsx,stimuli/Social2.png,stimuli/Social1.png,stimuli/Nonsocial2.png,stimuli/Nonsocial1.png,,"(0.7, -0.5)",cs_minus_ns,,,,,0,0,0,0,,,,,0,11,11,15,,,,,,,,,,,,,,,,,,,,,,,,,1104.576913600089,35,reward,1,2.6182350998278707,2.618238699855283,1107.2018313000444,,,,,,,,41,D,2023-12-21_08h38.18.964,gca_avoidance_task,2022.2.4,143.98682217205422,
positions.xlsx,stimuli.xlsx,stimuli/Social2.png,stimuli/Social1.png,stimuli/Nonsocial2.png,stimuli/Nonsocial1.png,,"(-0.7, 0.5)",cs_minus_ns,,,,,0,0,0,0,,,,,0,12,12,12,,,,,,,,,,,,,,,,,,,,,,,,,1116.8958565001376,40,reward,1,2.076365099987015,2.0763687998987734,1118.9791039000265,,,,,,,,41,D,2023-12-21_08h38.18.964,gca_avoidance_task,2022.2.4,143.98682217205422,
positions.xlsx,stimuli.xlsx,stimuli/Social2.png,stimuli/Social1.png,stimuli/Nonsocial2.png,stimuli/Nonsocial1.png,,"(-0.7, 0.5)",cs_plus_s,,,,,0,0,0,0,,,,,0,13,13,0,,,,,,,,,,,,,,,,,,,,,,,,,1129.3328579000663,40,shock,1,1.903381000040099,1.9033846999518573,1131.2425067999866,,,,,,,,41,D,2023-12-21_08h38.18.964,gca_avoidance_task,2022.2.4,143.98682217205422,
positions.xlsx,stimuli.xlsx,stimuli/Social2.png,stimuli/Social1.png,stimuli/Nonsocial2.png,stimuli/Nonsocial1.png,,"(-0.7, -0.5)",cs_plus_ns,,,,,0,0,0,0,,,,,0,14,14,9,,,,,,,,,,,,,,,,,,,,,,,,,1140.7282370000612,40,shock,1,1.2639829001855105,1.270964200142771,1142.005970499944,,,,,,,,41,D,2023-12-21_08h38.18.964,gca_avoidance_task,2022.2.4,143.98682217205422,
positions.xlsx,stimuli.xlsx,stimuli/Social2.png,stimuli/Social1.png,stimuli/Nonsocial2.png,stimuli/Nonsocial1.png,,"(-0.7, 0.5)",cs_plus_ns,,,,,0,0,0,0,,,,,0,15,15,8,,,,,,,,,,,,,,,,,,,,,,,,,1151.2417113000993,40,shock,1,2.410351499915123,2.410355400061235,1153.658278200077,,,,,,,,41,D,2023-12-21_08h38.18.964,gca_avoidance_task,2022.2.4,143.98682217205422,
positions.xlsx,stimuli.xlsx,stimuli/Social2.png,stimuli/Social1.png,stimuli/Nonsocial2.png,stimuli/Nonsocial1.png,,"(-0.7, -0.5)",cs_minus_s,,,,,0,0,0,0,,,,,1,0,16,5,,,,,,,,,,,,,,,,,,,,,,,,,1162.7829490001313,45,reward,1,3.2844446999952197,3.2844487000256777,1166.074441100005,,,,,,,,41,D,2023-12-21_08h38.18.964,gca_avoidance_task,2022.2.4,143.98682217205422,
positions.xlsx,stimuli.xlsx,stimuli/Social2.png,stimuli/Social1.png,stimuli/Nonsocial2.png,stimuli/Nonsocial1.png,,"(0.7, 0.5)",cs_plus_s,,,,,0,0,0,0,,,,,1,1,17,2,,,,,,,,,,,,,,,,,,,,,,,,,1175.303260799963,45,shock,1,3.6394843000452965,3.639487999957055,1178.948976600077,,,,,,,,41,D,2023-12-21_08h38.18.964,gca_avoidance_task,2022.2.4,143.98682217205422,
positions.xlsx,stimuli.xlsx,stimuli/Social2.png,stimuli/Social1.png,stimuli/Nonsocial2.png,stimuli/Nonsocial1.png,,"(-0.7, 0.5)",cs_minus_s,,,,,0,0,0,0,,,,,1,2,18,4,,,,,,,,,,,,,,,,,,,,,,,,,1188.2194066001102,50,reward,1,3.389271300053224,3.389275100082159,1191.615108900005,,,,,,,,41,D,2023-12-21_08h38.18.964,gca_avoidance_task,2022.2.4,143.98682217205422,
positions.xlsx,stimuli.xlsx,stimuli/Social2.png,stimuli/Social1.png,stimuli/Nonsocial2.png,stimuli/Nonsocial1.png,,"(-0.7, 0.5)",cs_minus_ns,,,,,0,0,0,0,,,,,1,3,19,12,,,,,,,,,,,,,,,,,,,,,,,,,1200.6494643001352,55,reward,1,3.8681737000588328,3.8681770998518914,1204.524337900104,,,,,,,,41,D,2023-12-21_08h38.18.964,gca_avoidance_task,2022.2.4,143.98682217205422,
positions.xlsx,stimuli.xlsx,stimuli/Social2.png,stimuli/Social1.png,stimuli/Nonsocial2.png,stimuli/Nonsocial1.png,,"(0.7, -0.5)",cs_minus_ns,,,,,0,0,0,0,,,,,1,4,20,15,,,,,,,,,,,,,,,,,,,,,,,,,1214.3294850999955,60,reward,1,3.4166321998927742,3.416635900037363,1217.7530487000477,,,,,,,,41,D,2023-12-21_08h38.18.964,gca_avoidance_task,2022.2.4,143.98682217205422,
positions.xlsx,stimuli.xlsx,stimuli/Social2.png,stimuli/Social1.png,stimuli/Nonsocial2.png,stimuli/Nonsocial1.png,,"(0.7, -0.5)",cs_plus_ns,,,,,0,0,0,0,,,,,1,5,21,11,,,,,,,,,,,,,,,,,,,,,,,,,1226.5026624000166,60,shock,1,3.347167400177568,3.3471711000893265,1229.856730000116,,,,,,,,41,D,2023-12-21_08h38.18.964,gca_avoidance_task,2022.2.4,143.98682217205422,
positions.xlsx,stimuli.xlsx,stimuli/Social2.png,stimuli/Social1.png,stimuli/Nonsocial2.png,stimuli/Nonsocial1.png,,"(-0.7, 0.5)",cs_plus_s,,,,,0,0,0,0,,,,,1,6,22,0,,,,,,,,,,,,,,,,,,,,,,,,,1238.6896611000411,60,shock,1,0.8404409000650048,0.8404445999767631,1239.5368941000197,,,,,,,,41,D,2023-12-21_08h38.18.964,gca_avoidance_task,2022.2.4,143.98682217205422,
positions.xlsx,stimuli.xlsx,stimuli/Social2.png,stimuli/Social1.png,stimuli/Nonsocial2.png,stimuli/Nonsocial1.png,,"(-0.7, -0.5)",cs_minus_ns,,,,,0,0,0,0,,,,,1,7,23,13,,,,,,,,,,,,,,,,,,,,,,,,,1249.2517465001438,65,reward,1,4.451269699959084,4.451273699989542,1253.7099023000337,,,,,,,,41,D,2023-12-21_08h38.18.964,gca_avoidance_task,2022.2.4,143.98682217205422,
positions.xlsx,stimuli.xlsx,stimuli/Social2.png,stimuli/Social1.png,stimuli/Nonsocial2.png,stimuli/Nonsocial1.png,,"(0.7, 0.5)",cs_plus_ns,,,,,0,0,0,0,,,,,1,8,24,10,,,,,,,,,,,,,,,,,,,,,,,,,1263.4039767999202,65,shock,1,0.895784999942407,0.8957887999713421,1264.3066998999566,,,,,,,,41,D,2023-12-21_08h38.18.964,gca_avoidance_task,2022.2.4,143.98682217205422,
positions.xlsx,stimuli.xlsx,stimuli/Social2.png,stimuli/Social1.png,stimuli/Nonsocial2.png,stimuli/Nonsocial1.png,,"(0.7, 0.5)",cs_minus_s,,,,,0,0,0,0,,,,,1,9,25,6,,,,,,,,,,,,,,,,,,,,,,,,,1273.3827176000923,70,reward,1,4.37506669992581,4.375070299953222,1277.7714385001455,,,,,,,,41,D,2023-12-21_08h38.18.964,gca_avoidance_task,2022.2.4,143.98682217205422,
positions.xlsx,stimuli.xlsx,stimuli/Social2.png,stimuli/Social1.png,stimuli/Nonsocial2.png,stimuli/Nonsocial1.png,,"(0.7, -0.5)",cs_minus_s,,,,,0,0,0,0,,,,,1,10,26,7,,,,,,,,,,,,,,,,,,,,,,,,,1287.4516110001132,75,reward,1,3.1460362998768687,3.146039899904281,1290.604287999915,,,,,,,,41,D,2023-12-21_08h38.18.964,gca_avoidance_task,2022.2.4,143.98682217205422,
positions.xlsx,stimuli.xlsx,stimuli/Social2.png,stimuli/Social1.png,stimuli/Nonsocial2.png,stimuli/Nonsocial1.png,,"(-0.7, -0.5)",cs_plus_s,,,,,0,0,0,0,,,,,1,11,27,1,,,,,,,,,,,,,,,,,,,,,,,,,1300.5275159000885,75,shock,1,4.882084300043061,4.882087799953297,1305.4161748001352,,,,,,,,41,D,2023-12-21_08h38.18.964,gca_avoidance_task,2022.2.4,143.98682217205422,
positions.xlsx,stimuli.xlsx,stimuli/Social2.png,stimuli/Social1.png,stimuli/Nonsocial2.png,stimuli/Nonsocial1.png,,"(-0.7, 0.5)",cs_plus_ns,,,,,0,0,0,0,,,,,1,12,28,8,,,,,,,,,,,,,,,,,,,,,,,,,1314.290827800054,75,shock,1,3.6945233000442386,3.6945269000716507,1317.9921005999204,,,,,,,,41,D,2023-12-21_08h38.18.964,gca_avoidance_task,2022.2.4,143.98682217205422,
positions.xlsx,stimuli.xlsx,stimuli/Social2.png,stimuli/Social1.png,stimuli/Nonsocial2.png,stimuli/Nonsocial1.png,,"(0.7, -0.5)",cs_plus_s,,,,,0,0,0,0,,,,,1,13,29,3,,,,,,,,,,,,,,,,,,,,,,,,,1327.831972300075,75,none,0,,,1332.8456759999972,,,,,,,,41,D,2023-12-21_08h38.18.964,gca_avoidance_task,2022.2.4,143.98682217205422,
positions.xlsx,stimuli.xlsx,stimuli/Social2.png,stimuli/Social1.png,stimuli/Nonsocial2.png,stimuli/Nonsocial1.png,,"(-0.7, -0.5)",cs_plus_ns,,,,,0,0,0,0,,,,,1,14,30,9,,,,,,,,,,,,,,,,,,,,,,,,,1342.3591752001084,75,none,0,,,1347.3659314999823,,,,,,,,41,D,2023-12-21_08h38.18.964,gca_avoidance_task,2022.2.4,143.98682217205422,
positions.xlsx,stimuli.xlsx,stimuli/Social2.png,stimuli/Social1.png,stimuli/Nonsocial2.png,stimuli/Nonsocial1.png,,"(0.7, 0.5)",cs_minus_ns,,,,,0,0,0,0,,,,,1,15,31,14,,,,,,,,,,,,,,,,,,,,,,,,,1357.0183272999711,80,reward,1,3.0973575999960303,3.104305899934843,1360.1292852999177,,,,,,,,41,D,2023-12-21_08h38.18.964,gca_avoidance_task,2022.2.4,143.98682217205422,
positions.xlsx,stimuli.xlsx,stimuli/Social2.png,stimuli/Social1.png,stimuli/Nonsocial2.png,stimuli/Nonsocial1.png,,"(-0.7, 0.5)",cs_minus_ns,,,,,0,0,0,0,,,,,,,,,0,0,0,12,,,,,,,,,,,,,,,,,,,,,1382.600646100007,85,reward,1,2.2987188000697643,2.2987226000986993,1384.9061110001057,,,,,,,,41,D,2023-12-21_08h38.18.964,gca_avoidance_task,2022.2.4,143.98682217205422,
positions.xlsx,stimuli.xlsx,stimuli/Social2.png,stimuli/Social1.png,stimuli/Nonsocial2.png,stimuli/Nonsocial1.png,,"(-0.7, -0.5)",cs_minus_ns,,,,,0,0,0,0,,,,,,,,,0,1,1,13,,,,,,,,,,,,,,,,,,,,,1393.9335346000735,90,reward,1,0.7431232000235468,0.7431270000524819,1394.6835735000204,,,,,,,,41,D,2023-12-21_08h38.18.964,gca_avoidance_task,2022.2.4,143.98682217205422,
positions.xlsx,stimuli.xlsx,stimuli/Social2.png,stimuli/Social1.png,stimuli/Nonsocial2.png,stimuli/Nonsocial1.png,,"(-0.7, 0.5)",cs_minus_s,,,,,0,0,0,0,,,,,,,,,0,2,2,4,,,,,,,,,,,,,,,,,,,,,1404.2664663000032,95,reward,1,2.097091600066051,2.097095299977809,1406.3705526001286,,,,,,,,41,D,2023-12-21_08h38.18.964,gca_avoidance_task,2022.2.4,143.98682217205422,
positions.xlsx,stimuli.xlsx,stimuli/Social2.png,stimuli/Social1.png,stimuli/Nonsocial2.png,stimuli/Nonsocial1.png,,"(-0.7, -0.5)",cs_minus_s,,,,,0,0,0,0,,,,,,,,,0,3,3,5,,,,,,,,,,,,,,,,,,,,,1415.8076826999895,100,reward,1,0.7364193999674171,0.7431445999536663,1416.557697799988,,,,,,,,41,D,2023-12-21_08h38.18.964,gca_avoidance_task,2022.2.4,143.98682217205422,
positions.xlsx,stimuli.xlsx,stimuli/Social2.png,stimuli/Social1.png,stimuli/Nonsocial2.png,stimuli/Nonsocial1.png,,"(0.7, 0.5)",cs_plus_s,,,,,0,0,0,0,,,,,,,,,0,4,4,2,,,,,,,,,,,,,,,,,,,,,1425.9392415001057,100,none,0,,,1430.9459867000114,,,,,,,,41,D,2023-12-21_08h38.18.964,gca_avoidance_task,2022.2.4,143.98682217205422,
positions.xlsx,stimuli.xlsx,stimuli/Social2.png,stimuli/Social1.png,stimuli/Nonsocial2.png,stimuli/Nonsocial1.png,,"(0.7, -0.5)",cs_minus_s,,,,,0,0,0,0,,,,,,,,,0,5,5,7,,,,,,,,,,,,,,,,,,,,,1440.3831235000398,105,reward,1,0.937544799875468,0.9375481999013573,1441.327488699928,,,,,,,,41,D,2023-12-21_08h38.18.964,gca_avoidance_task,2022.2.4,143.98682217205422,
positions.xlsx,stimuli.xlsx,stimuli/Social2.png,stimuli/Social1.png,stimuli/Nonsocial2.png,stimuli/Nonsocial1.png,,"(0.7, -0.5)",cs_plus_ns,,,,,0,0,0,0,,,,,,,,,0,6,6,11,,,,,,,,,,,,,,,,,,,,,1450.7438091000076,105,none,0,,,1455.7505688001402,,,,,,,,41,D,2023-12-21_08h38.18.964,gca_avoidance_task,2022.2.4,143.98682217205422,
positions.xlsx,stimuli.xlsx,stimuli/Social2.png,stimuli/Social1.png,stimuli/Nonsocial2.png,stimuli/Nonsocial1.png,,"(-0.7, -0.5)",cs_plus_s,,,,,0,0,0,0,,,,,,,,,0,7,7,1,,,,,,,,,,,,,,,,,,,,,1464.472467900021,105,none,0,,,1469.4792073001154,,,,,,,,41,D,2023-12-21_08h38.18.964,gca_avoidance_task,2022.2.4,143.98682217205422,
positions.xlsx,stimuli.xlsx,stimuli/Social2.png,stimuli/Social1.png,stimuli/Nonsocial2.png,stimuli/Nonsocial1.png,,"(0.7, 0.5)",cs_minus_s,,,,,0,0,0,0,,,,,,,,,0,8,8,6,,,,,,,,,,,,,,,,,,,,,1478.8329801000655,110,reward,1,0.9863499000202864,0.9863537999335676,1479.826044500107,,,,,,,,41,D,2023-12-21_08h38.18.964,gca_avoidance_task,2022.2.4,143.98682217205422,
positions.xlsx,stimuli.xlsx,stimuli/Social2.png,stimuli/Social1.png,stimuli/Nonsocial2.png,stimuli/Nonsocial1.png,,"(0.7, -0.5)",cs_plus_s,,,,,0,0,0,0,,,,,,,,,0,9,9,3,,,,,,,,,,,,,,,,,,,,,1489.7353515999857,110,none,0,,,1494.7420860999264,,,,,,,,41,D,2023-12-21_08h38.18.964,gca_avoidance_task,2022.2.4,143.98682217205422,
positions.xlsx,stimuli.xlsx,stimuli/Social2.png,stimuli/Social1.png,stimuli/Nonsocial2.png,stimuli/Nonsocial1.png,,"(-0.7, 0.5)",cs_plus_s,,,,,0,0,0,0,,,,,,,,,0,10,10,0,,,,,,,,,,,,,,,,,,,,,1504.3667111000977,110,none,0,,,1509.3734679999761,,,,,,,,41,D,2023-12-21_08h38.18.964,gca_avoidance_task,2022.2.4,143.98682217205422,
positions.xlsx,stimuli.xlsx,stimuli/Social2.png,stimuli/Social1.png,stimuli/Nonsocial2.png,stimuli/Nonsocial1.png,,"(0.7, -0.5)",cs_minus_ns,,,,,0,0,0,0,,,,,,,,,0,11,11,15,,,,,,,,,,,,,,,,,,,,,1518.5606082000304,115,reward,1,0.7920166000258178,0.7920198999345303,1519.3592048999853,,,,,,,,41,D,2023-12-21_08h38.18.964,gca_avoidance_task,2022.2.4,143.98682217205422,
positions.xlsx,stimuli.xlsx,stimuli/Social2.png,stimuli/Social1.png,stimuli/Nonsocial2.png,stimuli/Nonsocial1.png,,"(0.7, 0.5)",cs_minus_ns,,,,,0,0,0,0,,,,,,,,,0,12,12,14,,,,,,,,,,,,,,,,,,,,,1528.7685122000985,120,reward,1,0.8127184000331908,0.8127221998292953,1529.5879931000527,,,,,,,,41,D,2023-12-21_08h38.18.964,gca_avoidance_task,2022.2.4,143.98682217205422,
positions.xlsx,stimuli.xlsx,stimuli/Social2.png,stimuli/Social1.png,stimuli/Nonsocial2.png,stimuli/Nonsocial1.png,,"(-0.7, -0.5)",cs_plus_ns,,,,,0,0,0,0,,,,,,,,,0,13,13,9,,,,,,,,,,,,,,,,,,,,,1538.9209438001271,120,none,0,,,1543.9276694001164,,,,,,,,41,D,2023-12-21_08h38.18.964,gca_avoidance_task,2022.2.4,143.98682217205422,
positions.xlsx,stimuli.xlsx,stimuli/Social2.png,stimuli/Social1.png,stimuli/Nonsocial2.png,stimuli/Nonsocial1.png,,"(-0.7, 0.5)",cs_plus_ns,,,,,0,0,0,0,,,,,,,,,0,14,14,8,,,,,,,,,,,,,,,,,,,,,1553.6981228999794,120,none,0,,,1558.7048756000586,,,,,,,,41,D,2023-12-21_08h38.18.964,gca_avoidance_task,2022.2.4,143.98682217205422,
positions.xlsx,stimuli.xlsx,stimuli/Social2.png,stimuli/Social1.png,stimuli/Nonsocial2.png,stimuli/Nonsocial1.png,,"(0.7, 0.5)",cs_plus_ns,,,,,0,0,0,0,,,,,,,,,0,15,15,10,,,,,,,,,,,,,,,,,,,,,1567.3365120000672,120,none,0,,,1572.343206099933,,,,,,,,41,D,2023-12-21_08h38.18.964,gca_avoidance_task,2022.2.4,143.98682217205422,
positions.xlsx,stimuli.xlsx,stimuli/Social2.png,stimuli/Social1.png,stimuli/Nonsocial2.png,stimuli/Nonsocial1.png,,"(-0.7, -0.5)",cs_minus_ns,,,,,0,0,0,0,,,,,,,,,1,0,16,13,,,,,,,,,,,,,,,,,,,,,1581.5720343000721,125,reward,1,0.979718100046739,0.9866170000750571,1582.565074800048,,,,,,,,41,D,2023-12-21_08h38.18.964,gca_avoidance_task,2022.2.4,143.98682217205422,
positions.xlsx,stimuli.xlsx,stimuli/Social2.png,stimuli/Social1.png,stimuli/Nonsocial2.png,stimuli/Nonsocial1.png,,"(0.7, 0.5)",cs_minus_ns,,,,,0,0,0,0,,,,,,,,,1,1,17,14,,,,,,,,,,,,,,,,,,,,,1592.2383068001363,130,reward,1,0.6391282000113279,0.6391318999230862,1592.8841222999617,,,,,,,,41,D,2023-12-21_08h38.18.964,gca_avoidance_task,2022.2.4,143.98682217205422,
positions.xlsx,stimuli.xlsx,stimuli/Social2.png,stimuli/Social1.png,stimuli/Nonsocial2.png,stimuli/Nonsocial1.png,,"(0.7, 0.5)",cs_minus_s,,,,,0,0,0,0,,,,,,,,,1,2,18,6,,,,,,,,,,,,,,,,,,,,,1602.272603499936,135,reward,1,0.6043581999838352,0.6043618000112474,1602.883714800002,,,,,,,,41,D,2023-12-21_08h38.18.964,gca_avoidance_task,2022.2.4,143.98682217205422,
positions.xlsx,stimuli.xlsx,stimuli/Social2.png,stimuli/Social1.png,stimuli/Nonsocial2.png,stimuli/Nonsocial1.png,,"(-0.7, -0.5)",cs_plus_ns,,,,,0,0,0,0,,,,,,,,,1,3,19,9,,,,,,,,,,,,,,,,,,,,,1612.272218799917,135,shock,1,1.7709906999953091,1.7778368999715894,1614.0568641000427,,,,,,,,41,D,2023-12-21_08h38.18.964,gca_avoidance_task,2022.2.4,143.98682217205422,
positions.xlsx,stimuli.xlsx,stimuli/Social2.png,stimuli/Social1.png,stimuli/Nonsocial2.png,stimuli/Nonsocial1.png,,"(0.7, -0.5)",cs_plus_ns,,,,,0,0,0,0,,,,,,,,,1,4,20,11,,,,,,,,,,,,,,,,,,,,,1624.084258100018,135,none,0,,,1629.0910273999907,,,,,,,,41,D,2023-12-21_08h38.18.964,gca_avoidance_task,2022.2.4,143.98682217205422,
positions.xlsx,stimuli.xlsx,stimuli/Social2.png,stimuli/Social1.png,stimuli/Nonsocial2.png,stimuli/Nonsocial1.png,,"(0.7, -0.5)",cs_minus_s,,,,,0,0,0,0,,,,,,,,,1,5,21,7,,,,,,,,,,,,,,,,,,,,,1638.687864500098,140,reward,1,0.8126825999934226,0.8126864000223577,1639.507290800102,,,,,,,,41,D,2023-12-21_08h38.18.964,gca_avoidance_task,2022.2.4,143.98682217205422,
positions.xlsx,stimuli.xlsx,stimuli/Social2.png,stimuli/Social1.png,stimuli/Nonsocial2.png,stimuli/Nonsocial1.png,,"(-0.7, 0.5)",cs_minus_s,,,,,0,0,0,0,,,,,,,,,1,6,22,4,,,,,,,,,,,,,,,,,,,,,1649.2291109999642,145,reward,1,0.7433160000946373,0.7433199000079185,1649.9791302999947,,,,,,,,41,D,2023-12-21_08h38.18.964,gca_avoidance_task,2022.2.4,143.98682217205422,
positions.xlsx,stimuli.xlsx,stimuli/Social2.png,stimuli/Social1.png,stimuli/Nonsocial2.png,stimuli/Nonsocial1.png,,"(0.7, -0.5)",cs_minus_ns,,,,,0,0,0,0,,,,,,,,,1,7,23,15,,,,,,,,,,,,,,,,,,,,,1659.4787129999604,150,reward,1,0.9170295000076294,0.9170329000335187,1660.402304300107,,,,,,,,41,D,2023-12-21_08h38.18.964,gca_avoidance_task,2022.2.4,143.98682217205422,
positions.xlsx,stimuli.xlsx,stimuli/Social2.png,stimuli/Social1.png,stimuli/Nonsocial2.png,stimuli/Nonsocial1.png,,"(-0.7, 0.5)",cs_plus_s,,,,,0,0,0,0,,,,,,,,,1,8,24,0,,,,,,,,,,,,,,,,,,,,,1669.7283308999613,150,none,0,,,1674.7350657000206,,,,,,,,41,D,2023-12-21_08h38.18.964,gca_avoidance_task,2022.2.4,143.98682217205422,
positions.xlsx,stimuli.xlsx,stimuli/Social2.png,stimuli/Social1.png,stimuli/Nonsocial2.png,stimuli/Nonsocial1.png,,"(0.7, -0.5)",cs_plus_s,,,,,0,0,0,0,,,,,,,,,1,9,25,3,,,,,,,,,,,,,,,,,,,,,1684.609670399921,150,none,0,,,1689.616425300017,,,,,,,,41,D,2023-12-21_08h38.18.964,gca_avoidance_task,2022.2.4,143.98682217205422,
positions.xlsx,stimuli.xlsx,stimuli/Social2.png,stimuli/Social1.png,stimuli/Nonsocial2.png,stimuli/Nonsocial1.png,,"(0.7, 0.5)",cs_plus_s,,,,,0,0,0,0,,,,,,,,,1,10,26,2,,,,,,,,,,,,,,,,,,,,,1699.7618549000472,150,none,0,,,1704.768595899921,,,,,,,,41,D,2023-12-21_08h38.18.964,gca_avoidance_task,2022.2.4,143.98682217205422,
positions.xlsx,stimuli.xlsx,stimuli/Social2.png,stimuli/Social1.png,stimuli/Nonsocial2.png,stimuli/Nonsocial1.png,,"(-0.7, 0.5)",cs_minus_ns,,,,,0,0,0,0,,,,,,,,,1,11,27,12,,,,,,,,,,,,,,,,,,,,,1714.004372100113,155,reward,1,0.7501270999200642,0.7501306000631303,1714.7612834000029,,,,,,,,41,D,2023-12-21_08h38.18.964,gca_avoidance_task,2022.2.4,143.98682217205422,
positions.xlsx,stimuli.xlsx,stimuli/Social2.png,stimuli/Social1.png,stimuli/Nonsocial2.png,stimuli/Nonsocial1.png,,"(-0.7, 0.5)",cs_plus_ns,,,,,0,0,0,0,,,,,,,,,1,12,28,8,,,,,,,,,,,,,,,,,,,,,1724.3720150999725,155,none,0,,,1729.3857223000377,,,,,,,,41,D,2023-12-21_08h38.18.964,gca_avoidance_task,2022.2.4,143.98682217205422,
positions.xlsx,stimuli.xlsx,stimuli/Social2.png,stimuli/Social1.png,stimuli/Nonsocial2.png,stimuli/Nonsocial1.png,,"(0.7, 0.5)",cs_plus_ns,,,,,0,0,0,0,,,,,,,,,1,13,29,10,,,,,,,,,,,,,,,,,,,,,1739.0936577999964,155,none,0,,,1744.1004385999404,,,,,,,,41,D,2023-12-21_08h38.18.964,gca_avoidance_task,2022.2.4,143.98682217205422,
positions.xlsx,stimuli.xlsx,stimuli/Social2.png,stimuli/Social1.png,stimuli/Nonsocial2.png,stimuli/Nonsocial1.png,,"(-0.7, -0.5)",cs_plus_s,,,,,0,0,0,0,,,,,,,,,1,14,30,1,,,,,,,,,,,,,,,,,,,,,1753.5514328000136,155,none,0,,,1758.558188199997,,,,,,,,41,D,2023-12-21_08h38.18.964,gca_avoidance_task,2022.2.4,143.98682217205422,
positions.xlsx,stimuli.xlsx,stimuli/Social2.png,stimuli/Social1.png,stimuli/Nonsocial2.png,stimuli/Nonsocial1.png,,"(-0.7, -0.5)",cs_minus_s,,,,,0,0,0,0,,,,,,,,,1,15,31,5,,,,,,,,,,,,,,,,,,,,,1767.641151000047,160,reward,1,1.0418555999640375,1.0418589999899268,1768.6897317999974,,,,,,,,41,D,2023-12-21_08h38.18.964,gca_avoidance_task,2022.2.4,143.98682217205422,
positions.xlsx,stimuli.xlsx,stimuli/Social2.png,stimuli/Social1.png,stimuli/Nonsocial2.png,stimuli/Nonsocial1.png,,"(0.7, 0.5)",cs_plus_ns,,,,,0,0,0,0,,,,,,,,,2,0,32,10,,,,,,,,,,,,,,,,,,,,,1778.5504783000797,160,none,0,,,1783.5641363000032,,,,,,,,41,D,2023-12-21_08h38.18.964,gca_avoidance_task,2022.2.4,143.98682217205422,
positions.xlsx,stimuli.xlsx,stimuli/Social2.png,stimuli/Social1.png,stimuli/Nonsocial2.png,stimuli/Nonsocial1.png,,"(0.7, -0.5)",cs_minus_ns,,,,,0,0,0,0,,,,,,,,,2,1,33,15,,,,,,,,,,,,,,,,,,,,,1793.0846237000078,165,reward,1,0.7016020999290049,0.7016056999564171,1793.792914699996,,,,,,,,41,D,2023-12-21_08h38.18.964,gca_avoidance_task,2022.2.4,143.98682217205422,
positions.xlsx,stimuli.xlsx,stimuli/Social2.png,stimuli/Social1.png,stimuli/Nonsocial2.png,stimuli/Nonsocial1.png,,"(0.7, 0.5)",cs_minus_ns,,,,,0,0,0,0,,,,,,,,,2,2,34,14,,,,,,,,,,,,,,,,,,,,,1803.5703243999742,170,reward,1,0.5977534002158791,0.5977571001276374,1804.1744713999797,,,,,,,,41,D,2023-12-21_08h38.18.964,gca_avoidance_task,2022.2.4,143.98682217205422,
positions.xlsx,stimuli.xlsx,stimuli/Social2.png,stimuli/Social1.png,stimuli/Nonsocial2.png,stimuli/Nonsocial1.png,,"(0.7, -0.5)",cs_plus_ns,,,,,0,0,0,0,,,,,,,,,2,3,35,11,,,,,,,,,,,,,,,,,,,,,1814.5767916999757,170,none,0,,,1819.5905597000383,,,,,,,,41,D,2023-12-21_08h38.18.964,gca_avoidance_task,2022.2.4,143.98682217205422,
positions.xlsx,stimuli.xlsx,stimuli/Social2.png,stimuli/Social1.png,stimuli/Nonsocial2.png,stimuli/Nonsocial1.png,,"(0.7, 0.5)",cs_plus_s,,,,,0,0,0,0,,,,,,,,,2,4,36,2,,,,,,,,,,,,,,,,,,,,,1828.5901289000176,170,none,0,,,1833.5969134999905,,,,,,,,41,D,2023-12-21_08h38.18.964,gca_avoidance_task,2022.2.4,143.98682217205422,
positions.xlsx,stimuli.xlsx,stimuli/Social2.png,stimuli/Social1.png,stimuli/Nonsocial2.png,stimuli/Nonsocial1.png,,"(-0.7, 0.5)",cs_plus_s,,,,,0,0,0,0,,,,,,,,,2,5,37,0,,,,,,,,,,,,,,,,,,,,,1843.0826721000485,170,none,0,,,1848.0894510000944,,,,,,,,41,D,2023-12-21_08h38.18.964,gca_avoidance_task,2022.2.4,143.98682217205422,
positions.xlsx,stimuli.xlsx,stimuli/Social2.png,stimuli/Social1.png,stimuli/Nonsocial2.png,stimuli/Nonsocial1.png,,"(-0.7, 0.5)",cs_minus_ns,,,,,0,0,0,0,,,,,,,,,2,6,38,12,,,,,,,,,,,,,,,,,,,,,1858.033451900119,175,reward,1,0.6602062999736518,0.6602099998854101,1858.700156700099,,,,,,,,41,D,2023-12-21_08h38.18.964,gca_avoidance_task,2022.2.4,143.98682217205422,
positions.xlsx,stimuli.xlsx,stimuli/Social2.png,stimuli/Social1.png,stimuli/Nonsocial2.png,stimuli/Nonsocial1.png,,"(0.7, 0.5)",cs_minus_s,,,,,0,0,0,0,,,,,,,,,2,7,39,6,,,,,,,,,,,,,,,,,,,,,1868.706646000035,180,reward,1,0.9169298999477178,0.9169336999766529,1869.6302328999154,,,,,,,,41,D,2023-12-21_08h38.18.964,gca_avoidance_task,2022.2.4,143.98682217205422,
positions.xlsx,stimuli.xlsx,stimuli/Social2.png,stimuli/Social1.png,stimuli/Nonsocial2.png,stimuli/Nonsocial1.png,,"(-0.7, 0.5)",cs_plus_ns,,,,,0,0,0,0,,,,,,,,,2,8,40,8,,,,,,,,,,,,,,,,,,,,,1878.8937729999889,180,none,0,,,1883.9005643001292,,,,,,,,41,D,2023-12-21_08h38.18.964,gca_avoidance_task,2022.2.4,143.98682217205422,
positions.xlsx,stimuli.xlsx,stimuli/Social2.png,stimuli/Social1.png,stimuli/Nonsocial2.png,stimuli/Nonsocial1.png,,"(0.7, -0.5)",cs_plus_s,,,,,0,0,0,0,,,,,,,,,2,9,41,3,,,,,,,,,,,,,,,,,,,,,1893.4695969000459,180,none,0,,,1898.4763543999288,,,,,,,,41,D,2023-12-21_08h38.18.964,gca_avoidance_task,2022.2.4,143.98682217205422,
positions.xlsx,stimuli.xlsx,stimuli/Social2.png,stimuli/Social1.png,stimuli/Nonsocial2.png,stimuli/Nonsocial1.png,,"(-0.7, 0.5)",cs_minus_s,,,,,0,0,0,0,,,,,,,,,2,10,42,4,,,,,,,,,,,,,,,,,,,,,1908.010697599966,185,reward,1,0.798725200118497,0.7987290001474321,1908.816202600021,,,,,,,,41,D,2023-12-21_08h38.18.964,gca_avoidance_task,2022.2.4,143.98682217205422,
positions.xlsx,stimuli.xlsx,stimuli/Social2.png,stimuli/Social1.png,stimuli/Nonsocial2.png,stimuli/Nonsocial1.png,,"(-0.7, -0.5)",cs_plus_s,,,,,0,0,0,0,,,,,,,,,2,11,43,1,,,,,,,,,,,,,,,,,,,,,1918.0033968000207,185,none,0,,,1923.0101366001181,,,,,,,,41,D,2023-12-21_08h38.18.964,gca_avoidance_task,2022.2.4,143.98682217205422,
positions.xlsx,stimuli.xlsx,stimuli/Social2.png,stimuli/Social1.png,stimuli/Nonsocial2.png,stimuli/Nonsocial1.png,,"(0.7, -0.5)",cs_minus_s,,,,,0,0,0,0,,,,,,,,,2,12,44,7,,,,,,,,,,,,,,,,,,,,,1932.6625129999593,190,reward,1,0.6807442000135779,0.680748000042513,1933.349983900087,,,,,,,,41,D,2023-12-21_08h38.18.964,gca_avoidance_task,2022.2.4,143.98682217205422,
positions.xlsx,stimuli.xlsx,stimuli/Social2.png,stimuli/Social1.png,stimuli/Nonsocial2.png,stimuli/Nonsocial1.png,,"(-0.7, -0.5)",cs_minus_s,,,,,0,0,0,0,,,,,,,,,2,13,45,5,,,,,,,,,,,,,,,,,,,,,1942.4051870000549,195,reward,1,0.6184228998608887,0.6184266000054777,1943.0301705000456,,,,,,,,41,D,2023-12-21_08h38.18.964,gca_avoidance_task,2022.2.4,143.98682217205422,
positions.xlsx,stimuli.xlsx,stimuli/Social2.png,stimuli/Social1.png,stimuli/Nonsocial2.png,stimuli/Nonsocial1.png,,"(-0.7, -0.5)",cs_minus_ns,,,,,0,0,0,0,,,,,,,,,2,14,46,13,,,,,,,,,,,,,,,,,,,,,1952.3839583999943,200,reward,1,0.6182021999265999,0.618205799954012,1953.0089887001086,,,,,,,,41,D,2023-12-21_08h38.18.964,gca_avoidance_task,2022.2.4,143.98682217205422,
positions.xlsx,stimuli.xlsx,stimuli/Social2.png,stimuli/Social1.png,stimuli/Nonsocial2.png,stimuli/Nonsocial1.png,,"(-0.7, -0.5)",cs_plus_ns,,,,,0,0,0,0,,,,,,,,,2,15,47,9,,,,,,,,,,,,,,,,,,,,,1962.8071606000885,200,none,0,,,1967.8139180999715,,,,,,,,41,D,2023-12-21_08h38.18.964,gca_avoidance_task,2022.2.4,143.98682217205422,
positions.xlsx,stimuli.xlsx,stimuli/Social2.png,stimuli/Social1.png,stimuli/Nonsocial2.png,stimuli/Nonsocial1.png,,"(0.7, -0.5)",cs_minus_ns,,,,,0,0,0,0,,,,,,,,,3,0,48,15,,,,,,,,,,,,,,,,,,,,,1976.9732717999723,205,reward,1,0.6735608000308275,0.6735644000582397,1977.6538005000912,,,,,,,,41,D,2023-12-21_08h38.18.964,gca_avoidance_task,2022.2.4,143.98682217205422,
positions.xlsx,stimuli.xlsx,stimuli/Social2.png,stimuli/Social1.png,stimuli/Nonsocial2.png,stimuli/Nonsocial1.png,,"(-0.7, -0.5)",cs_plus_ns,,,,,0,0,0,0,,,,,,,,,3,1,49,9,,,,,,,,,,,,,,,,,,,,,1987.604842599947,205,none,0,,,1992.6115514000412,,,,,,,,41,D,2023-12-21_08h38.18.964,gca_avoidance_task,2022.2.4,143.98682217205422,
positions.xlsx,stimuli.xlsx,stimuli/Social2.png,stimuli/Social1.png,stimuli/Nonsocial2.png,stimuli/Nonsocial1.png,,"(-0.7, 0.5)",cs_plus_ns,,,,,0,0,0,0,,,,,,,,,3,2,50,8,,,,,,,,,,,,,,,,,,,,,2002.708444399992,205,none,0,,,2007.715143600013,,,,,,,,41,D,2023-12-21_08h38.18.964,gca_avoidance_task,2022.2.4,143.98682217205422,
positions.xlsx,stimuli.xlsx,stimuli/Social2.png,stimuli/Social1.png,stimuli/Nonsocial2.png,stimuli/Nonsocial1.png,,"(0.7, 0.5)",cs_plus_ns,,,,,0,0,0,0,,,,,,,,,3,3,51,10,,,,,,,,,,,,,,,,,,,,,2017.596726699965,205,none,0,,,2022.6035138000734,,,,,,,,41,D,2023-12-21_08h38.18.964,gca_avoidance_task,2022.2.4,143.98682217205422,
positions.xlsx,stimuli.xlsx,stimuli/Social2.png,stimuli/Social1.png,stimuli/Nonsocial2.png,stimuli/Nonsocial1.png,,"(0.7, 0.5)",cs_minus_ns,,,,,0,0,0,0,,,,,,,,,3,4,52,14,,,,,,,,,,,,,,,,,,,,,2031.7489430001006,210,reward,1,0.7018369999714196,0.7018405999988317,2032.457244399935,,,,,,,,41,D,2023-12-21_08h38.18.964,gca_avoidance_task,2022.2.4,143.98682217205422,
positions.xlsx,stimuli.xlsx,stimuli/Social2.png,stimuli/Social1.png,stimuli/Nonsocial2.png,stimuli/Nonsocial1.png,,"(0.7, -0.5)",cs_minus_s,,,,,0,0,0,0,,,,,,,,,3,5,53,7,,,,,,,,,,,,,,,,,,,,,2042.7485341001302,215,reward,1,0.7153199000749737,0.715323599986732,2043.4707019999623,,,,,,,,41,D,2023-12-21_08h38.18.964,gca_avoidance_task,2022.2.4,143.98682217205422,
positions.xlsx,stimuli.xlsx,stimuli/Social2.png,stimuli/Social1.png,stimuli/Nonsocial2.png,stimuli/Nonsocial1.png,,"(-0.7, 0.5)",cs_plus_s,,,,,0,0,0,0,,,,,,,,,3,6,54,0,,,,,,,,,,,,,,,,,,,,,2052.7828860001173,215,none,0,,,2057.789571699919,,,,,,,,41,D,2023-12-21_08h38.18.964,gca_avoidance_task,2022.2.4,143.98682217205422,
positions.xlsx,stimuli.xlsx,stimuli/Social2.png,stimuli/Social1.png,stimuli/Nonsocial2.png,stimuli/Nonsocial1.png,,"(0.7, 0.5)",cs_plus_s,,,,,0,0,0,0,,,,,,,,,3,7,55,2,,,,,,,,,,,,,,,,,,,,,2066.678142900113,215,none,0,,,2071.684869799996,,,,,,,,41,D,2023-12-21_08h38.18.964,gca_avoidance_task,2022.2.4,143.98682217205422,
positions.xlsx,stimuli.xlsx,stimuli/Social2.png,stimuli/Social1.png,stimuli/Nonsocial2.png,stimuli/Nonsocial1.png,,"(0.7, -0.5)",cs_plus_ns,,,,,0,0,0,0,,,,,,,,,3,8,56,11,,,,,,,,,,,,,,,,,,,,,2081.8164471001364,215,none,0,,,2086.823167399969,,,,,,,,41,D,2023-12-21_08h38.18.964,gca_avoidance_task,2022.2.4,143.98682217205422,
positions.xlsx,stimuli.xlsx,stimuli/Social2.png,stimuli/Social1.png,stimuli/Nonsocial2.png,stimuli/Nonsocial1.png,,"(-0.7, -0.5)",cs_plus_s,,,,,0,0,0,0,,,,,,,,,3,9,57,1,,,,,,,,,,,,,,,,,,,,,2096.829704399919,215,none,0,,,2101.836476699915,,,,,,,,41,D,2023-12-21_08h38.18.964,gca_avoidance_task,2022.2.4,143.98682217205422,
positions.xlsx,stimuli.xlsx,stimuli/Social2.png,stimuli/Social1.png,stimuli/Nonsocial2.png,stimuli/Nonsocial1.png,,"(-0.7, 0.5)",cs_minus_ns,,,,,0,0,0,0,,,,,,,,,3,10,58,12,,,,,,,,,,,,,,,,,,,,,2111.6278192999307,220,reward,1,0.7432353000622243,0.7432387000881135,2112.3777991000097,,,,,,,,41,D,2023-12-21_08h38.18.964,gca_avoidance_task,2022.2.4,143.98682217205422,
positions.xlsx,stimuli.xlsx,stimuli/Social2.png,stimuli/Social1.png,stimuli/Nonsocial2.png,stimuli/Nonsocial1.png,,"(0.7, -0.5)",cs_plus_s,,,,,0,0,0,0,,,,,,,,,3,11,59,3,,,,,,,,,,,,,,,,,,,,,2121.0996433000546,220,none,0,,,2126.1063671999145,,,,,,,,41,D,2023-12-21_08h38.18.964,gca_avoidance_task,2022.2.4,143.98682217205422,
positions.xlsx,stimuli.xlsx,stimuli/Social2.png,stimuli/Social1.png,stimuli/Nonsocial2.png,stimuli/Nonsocial1.png,,"(-0.7, -0.5)",cs_minus_s,,,,,0,0,0,0,,,,,,,,,3,12,60,5,,,,,,,,,,,,,,,,,,,,,2135.557390900096,225,reward,1,0.5558120000641793,0.5558159002102911,2136.1198647001293,,,,,,,,41,D,2023-12-21_08h38.18.964,gca_avoidance_task,2022.2.4,143.98682217205422,
positions.xlsx,stimuli.xlsx,stimuli/Social2.png,stimuli/Social1.png,stimuli/Nonsocial2.png,stimuli/Nonsocial1.png,,"(-0.7, 0.5)",cs_minus_s,,,,,0,0,0,0,,,,,,,,,3,13,61,4,,,,,,,,,,,,,,,,,,,,,2145.2236703000963,230,reward,1,0.6807473998051137,0.6807510999497026,2145.91114760004,,,,,,,,41,D,2023-12-21_08h38.18.964,gca_avoidance_task,2022.2.4,143.98682217205422,
positions.xlsx,stimuli.xlsx,stimuli/Social2.png,stimuli/Social1.png,stimuli/Nonsocial2.png,stimuli/Nonsocial1.png,,"(-0.7, -0.5)",cs_minus_ns,,,,,0,0,0,0,,,,,,,,,3,14,62,13,,,,,,,,,,,,,,,,,,,,,2155.7510542999953,235,reward,1,0.6039428999647498,0.6039466001093388,2156.3621809000615,,,,,,,,41,D,2023-12-21_08h38.18.964,gca_avoidance_task,2022.2.4,143.98682217205422,
positions.xlsx,stimuli.xlsx,stimuli/Social2.png,stimuli/Social1.png,stimuli/Nonsocial2.png,stimuli/Nonsocial1.png,,"(0.7, 0.5)",cs_minus_s,,,,,0,0,0,0,,,,,,,,,3,15,63,6,,,,,,,,,,,,,,,,,,,,,2165.639558899915,240,reward,1,0.5834222000557929,0.5834258000832051,2166.2298459000885,,,,,,,,41,D,2023-12-21_08h38.18.964,gca_avoidance_task,2022.2.4,143.98682217205422,
positions.xlsx,stimuli.xlsx,stimuli/Social2.png,stimuli/Social1.png,stimuli/Nonsocial2.png,stimuli/Nonsocial1.png,,"(0.7, -0.5)",cs_plus_ns,,,,,0,0,0,0,,,,,,,,,4,0,64,11,,,,,,,,,,,,,,,,,,,,,2175.708625300089,240,none,0,,,2180.715363000054,,,,,,,,41,D,2023-12-21_08h38.18.964,gca_avoidance_task,2022.2.4,143.98682217205422,
positions.xlsx,stimuli.xlsx,stimuli/Social2.png,stimuli/Social1.png,stimuli/Nonsocial2.png,stimuli/Nonsocial1.png,,"(-0.7, -0.5)",cs_minus_s,,,,,0,0,0,0,,,,,,,,,4,1,65,5,,,,,,,,,,,,,,,,,,,,,2190.520533400122,245,reward,1,0.7436506000813097,0.7436544001102448,2191.270525699947,,,,,,,,41,D,2023-12-21_08h38.18.964,gca_avoidance_task,2022.2.4,143.98682217205422,
positions.xlsx,stimuli.xlsx,stimuli/Social2.png,stimuli/Social1.png,stimuli/Nonsocial2.png,stimuli/Nonsocial1.png,,"(0.7, 0.5)",cs_minus_ns,,,,,0,0,0,0,,,,,,,,,4,2,66,14,,,,,,,,,,,,,,,,,,,,,2200.8603938000742,250,reward,1,0.9865855001844466,0.9865892000962049,2201.8534572999924,,,,,,,,41,D,2023-12-21_08h38.18.964,gca_avoidance_task,2022.2.4,143.98682217205422,
positions.xlsx,stimuli.xlsx,stimuli/Social2.png,stimuli/Social1.png,stimuli/Nonsocial2.png,stimuli/Nonsocial1.png,,"(-0.7, -0.5)",cs_minus_ns,,,,,0,0,0,0,,,,,,,,,4,3,67,13,,,,,,,,,,,,,,,,,,,,,2210.8461227000225,255,reward,1,0.55583729990758,0.555841000052169,2211.4086104999296,,,,,,,,41,D,2023-12-21_08h38.18.964,gca_avoidance_task,2022.2.4,143.98682217205422,
positions.xlsx,stimuli.xlsx,stimuli/Social2.png,stimuli/Social1.png,stimuli/Nonsocial2.png,stimuli/Nonsocial1.png,,"(0.7, -0.5)",cs_minus_s,,,,,0,0,0,0,,,,,,,,,4,4,68,7,,,,,,,,,,,,,,,,,,,,,2220.7068467999343,260,reward,1,0.7085317000746727,0.7085354998707771,2221.422085999977,,,,,,,,41,D,2023-12-21_08h38.18.964,gca_avoidance_task,2022.2.4,143.98682217205422,
positions.xlsx,stimuli.xlsx,stimuli/Social2.png,stimuli/Social1.png,stimuli/Nonsocial2.png,stimuli/Nonsocial1.png,,"(-0.7, 0.5)",cs_minus_s,,,,,0,0,0,0,,,,,,,,,4,5,69,4,,,,,,,,,,,,,,,,,,,,,2231.1647681000177,265,reward,1,0.26386289997026324,0.2638662999961525,2231.4356376000214,,,,,,,,41,D,2023-12-21_08h38.18.964,gca_avoidance_task,2022.2.4,143.98682217205422,
positions.xlsx,stimuli.xlsx,stimuli/Social2.png,stimuli/Social1.png,stimuli/Nonsocial2.png,stimuli/Nonsocial1.png,,"(0.7, -0.5)",cs_plus_s,,,,,0,0,0,0,,,,,,,,,4,6,70,3,,,,,,,,,,,,,,,,,,,,,2240.9283304000273,265,none,0,,,2245.9350407000165,,,,,,,,41,D,2023-12-21_08h38.18.964,gca_avoidance_task,2022.2.4,143.98682217205422,
positions.xlsx,stimuli.xlsx,stimuli/Social2.png,stimuli/Social1.png,stimuli/Nonsocial2.png,stimuli/Nonsocial1.png,,"(0.7, 0.5)",cs_plus_s,,,,,0,0,0,0,,,,,,,,,4,7,71,2,,,,,,,,,,,,,,,,,,,,,2255.781875600107,265,none,0,,,2260.788613700075,,,,,,,,41,D,2023-12-21_08h38.18.964,gca_avoidance_task,2022.2.4,143.98682217205422,
positions.xlsx,stimuli.xlsx,stimuli/Social2.png,stimuli/Social1.png,stimuli/Nonsocial2.png,stimuli/Nonsocial1.png,,"(-0.7, -0.5)",cs_plus_ns,,,,,0,0,0,0,,,,,,,,,4,8,72,9,,,,,,,,,,,,,,,,,,,,,2270.4965785001405,265,none,0,,,2275.503312499961,,,,,,,,41,D,2023-12-21_08h38.18.964,gca_avoidance_task,2022.2.4,143.98682217205422,
positions.xlsx,stimuli.xlsx,stimuli/Social2.png,stimuli/Social1.png,stimuli/Nonsocial2.png,stimuli/Nonsocial1.png,,"(-0.7, 0.5)",cs_plus_s,,,,,0,0,0,0,,,,,,,,,4,9,73,0,,,,,,,,,,,,,,,,,,,,,2285.287691100035,265,none,0,,,2290.2944416000973,,,,,,,,41,D,2023-12-21_08h38.18.964,gca_avoidance_task,2022.2.4,143.98682217205422,
positions.xlsx,stimuli.xlsx,stimuli/Social2.png,stimuli/Social1.png,stimuli/Nonsocial2.png,stimuli/Nonsocial1.png,,"(0.7, 0.5)",cs_plus_ns,,,,,0,0,0,0,,,,,,,,,4,10,74,10,,,,,,,,,,,,,,,,,,,,,2299.231571200071,265,none,0,,,2304.238343199948,,,,,,,,41,D,2023-12-21_08h38.18.964,gca_avoidance_task,2022.2.4,143.98682217205422,
positions.xlsx,stimuli.xlsx,stimuli/Social2.png,stimuli/Social1.png,stimuli/Nonsocial2.png,stimuli/Nonsocial1.png,,"(-0.7, -0.5)",cs_plus_s,,,,,0,0,0,0,,,,,,,,,4,11,75,1,,,,,,,,,,,,,,,,,,,,,2314.0157202000264,265,none,0,,,2319.022452299949,,,,,,,,41,D,2023-12-21_08h38.18.964,gca_avoidance_task,2022.2.4,143.98682217205422,
positions.xlsx,stimuli.xlsx,stimuli/Social2.png,stimuli/Social1.png,stimuli/Nonsocial2.png,stimuli/Nonsocial1.png,,"(0.7, 0.5)",cs_minus_s,,,,,0,0,0,0,,,,,,,,,4,12,76,6,,,,,,,,,,,,,,,,,,,,,2327.855463600019,270,reward,1,0.6739142001606524,0.6739179999567568,2328.5359899001196,,,,,,,,41,D,2023-12-21_08h38.18.964,gca_avoidance_task,2022.2.4,143.98682217205422,
positions.xlsx,stimuli.xlsx,stimuli/Social2.png,stimuli/Social1.png,stimuli/Nonsocial2.png,stimuli/Nonsocial1.png,,"(-0.7, 0.5)",cs_minus_ns,,,,,0,0,0,0,,,,,,,,,4,13,77,12,,,,,,,,,,,,,,,,,,,,,2337.605078200111,275,reward,1,0.9375946999061853,0.93759880005382,2338.549498599954,,,,,,,,41,D,2023-12-21_08h38.18.964,gca_avoidance_task,2022.2.4,143.98682217205422,
positions.xlsx,stimuli.xlsx,stimuli/Social2.png,stimuli/Social1.png,stimuli/Nonsocial2.png,stimuli/Nonsocial1.png,,"(0.7, -0.5)",cs_minus_ns,,,,,0,0,0,0,,,,,,,,,4,14,78,15,,,,,,,,,,,,,,,,,,,,,2347.5491351000965,280,reward,1,0.5001397000160068,0.5001434001605958,2348.0560916000977,,,,,,,,41,D,2023-12-21_08h38.18.964,gca_avoidance_task,2022.2.4,143.98682217205422,
positions.xlsx,stimuli.xlsx,stimuli/Social2.png,stimuli/Social1.png,stimuli/Nonsocial2.png,stimuli/Nonsocial1.png,,"(-0.7, 0.5)",cs_plus_ns,,,,,0,0,0,0,,,,,,,,,4,15,79,8,,,,,,,,,,,,,,,,,,,,,2357.3057075999677,280,none,0,,,2362.3125070999376,,,,,,,,41,D,2023-12-21_08h38.18.964,gca_avoidance_task,2022.2.4,143.98682217205422,
positions.xlsx,stimuli.xlsx,stimuli/Social2.png,stimuli/Social1.png,stimuli/Nonsocial2.png,stimuli/Nonsocial1.png,cs_plus_s,,,,,,,0,0,0,0,,,,,,,,,,,,,0,0,0,0,,,,,,,,,,,,,2381.978386600036,4.0,5.100051699904725,,,,,,,,,4.0,10.784858300117776,,,,,,41,D,2023-12-21_08h38.18.964,gca_avoidance_task,2022.2.4,143.98682217205422,
positions.xlsx,stimuli.xlsx,stimuli/Social2.png,stimuli/Social1.png,stimuli/Nonsocial2.png,stimuli/Nonsocial1.png,cs_plus_ns,,,,,,,0,0,0,0,,,,,,,,,,,,,0,1,1,1,,,,,,,,,,,,,2389.1933919999283,3.0,4.827156600076705,,,,,,,,,,,,,,,,41,D,2023-12-21_08h38.18.964,gca_avoidance_task,2022.2.4,143.98682217205422,
positions.xlsx,stimuli.xlsx,stimuli/Social2.png,stimuli/Social1.png,stimuli/Nonsocial2.png,stimuli/Nonsocial1.png,cs_minus_s,,,,,,,0,0,0,0,,,,,,,,,,,,,0,2,2,2,,,,,,,,,,,,,2395.547312400071,6.0,3.786227900069207,,,,,,,,,,,,,,,,41,D,2023-12-21_08h38.18.964,gca_avoidance_task,2022.2.4,143.98682217205422,
positions.xlsx,stimuli.xlsx,stimuli/Social2.png,stimuli/Social1.png,stimuli/Nonsocial2.png,stimuli/Nonsocial1.png,cs_minus_ns,,,,,,,0,0,0,0,,,,,,,,,,,,,0,3,3,3,,,,,,,,,,,,,2401.1095879001077,6.0,2.139402899891138,,,,,,,,,,,,,,,,41,D,2023-12-21_08h38.18.964,gca_avoidance_task,2022.2.4,143.98682217205422,
positions.xlsx,stimuli.xlsx,stimuli/Social2.png,stimuli/Social1.png,stimuli/Nonsocial2.png,stimuli/Nonsocial1.png,cs_plus_ns,,,,,,,0,0,0,0,,,,,,,,,,,,,,,,,0,0,0,1,,,,,,,,,,,,,,,,,,,,,,2404.6441596001387,2408.588473699987,3,0.022105899872258306,2.367761799832806,41,D,2023-12-21_08h38.18.964,gca_avoidance_task,2022.2.4,143.98682217205422,
positions.xlsx,stimuli.xlsx,stimuli/Social2.png,stimuli/Social1.png,stimuli/Nonsocial2.png,stimuli/Nonsocial1.png,cs_minus_ns,,,,,,,0,0,0,0,,,,,,,,,,,,,,,,,0,1,1,3,,,,,,,,,,,,,,,,,,,,,,,2423.7753586999606,6,0.01501460000872612,0.8751427999231964,41,D,2023-12-21_08h38.18.964,gca_avoidance_task,2022.2.4,143.98682217205422,
positions.xlsx,stimuli.xlsx,stimuli/Social2.png,stimuli/Social1.png,stimuli/Nonsocial2.png,stimuli/Nonsocial1.png,cs_plus_s,,,,,,,0,0,0,0,,,,,,,,,,,,,,,,,0,2,2,0,,,,,,,,,,,,,,,,,,,,,,,2439.0247899000533,4,0.013454800006002188,1.5147432999219745,41,D,2023-12-21_08h38.18.964,gca_avoidance_task,2022.2.4,143.98682217205422,
positions.xlsx,stimuli.xlsx,stimuli/Social2.png,stimuli/Social1.png,stimuli/Nonsocial2.png,stimuli/Nonsocial1.png,cs_minus_s,,,,,,,0,0,0,0,,,,,,,,,,,,,,,,,0,3,3,2,,,,,,,,,,,,,,,,,,,,,,,2454.510312899947,7,0.013433600077405572,0.7291833001654595,41,D,2023-12-21_08h38.18.964,gca_avoidance_task,2022.2.4,143.98682217205422,
positions.xlsx,stimuli.xlsx,stimuli/Social2.png,stimuli/Social1.png,stimuli/Nonsocial2.png,stimuli/Nonsocial1.png,cs_minus_ns,,,,,,,0,0,0,0,,,,,,,,,,,,,,,,,1,0,4,3,,,,,,,,,,,,,,,,,,,,,,,2470.0027715999167,6,0.13936210004612803,3.9027440000791103,41,D,2023-12-21_08h38.18.964,gca_avoidance_task,2022.2.4,143.98682217205422,
positions.xlsx,stimuli.xlsx,stimuli/Social2.png,stimuli/Social1.png,stimuli/Nonsocial2.png,stimuli/Nonsocial1.png,cs_plus_s,,,,,,,0,0,0,0,,,,,,,,,,,,,,,,,1,1,5,0,,,,,,,,,,,,,,,,,,,,,,,2484.7590952001046,5,0.013475900050252676,0.5211616000160575,41,D,2023-12-21_08h38.18.964,gca_avoidance_task,2022.2.4,143.98682217205422,
positions.xlsx,stimuli.xlsx,stimuli/Social2.png,stimuli/Social1.png,stimuli/Nonsocial2.png,stimuli/Nonsocial1.png,cs_plus_ns,,,,,,,0,0,0,0,,,,,,,,,,,,,,,,,1,2,6,1,,,,,,,,,,,,,,,,,,,,,,,2500.050197100034,4,0.014562400057911873,0.48651250009424984,41,D,2023-12-21_08h38.18.964,gca_avoidance_task,2022.2.4,143.98682217205422,
positions.xlsx,stimuli.xlsx,stimuli/Social2.png,stimuli/Social1.png,stimuli/Nonsocial2.png,stimuli/Nonsocial1.png,cs_minus_s,,,,,,,0,0,0,0,,,,,,,,,,,,,,,,,1,3,7,2,,,,,,,,,,,,,,,,,,,,,,,2515.01490249997,3,0.013643200043588877,1.7364045998547226,41,D,2023-12-21_08h38.18.964,gca_avoidance_task,2022.2.4,143.98682217205422,
positions.xlsx,stimuli.xlsx,stimuli/Social2.png,stimuli/Social1.png,stimuli/Nonsocial2.png,stimuli/Nonsocial1.png,cs_minus_ns,,,,,,,0,0,0,0,,,,,,,,,,,,,,,,,2,0,8,3,,,,,,,,,,,,,,,,,,,,,,,2529.750438200077,5,0.014150300063192844,2.8752115999814123,41,D,2023-12-21_08h38.18.964,gca_avoidance_task,2022.2.4,143.98682217205422,
positions.xlsx,stimuli.xlsx,stimuli/Social2.png,stimuli/Social1.png,stimuli/Nonsocial2.png,stimuli/Nonsocial1.png,cs_minus_s,,,,,,,0,0,0,0,,,,,,,,,,,,,,,,,2,1,9,2,,,,,,,,,,,,,,,,,,,,,,,2544.6179064000025,4,0.08392000012099743,0.6393202999606729,41,D,2023-12-21_08h38.18.964,gca_avoidance_task,2022.2.4,143.98682217205422,
positions.xlsx,stimuli.xlsx,stimuli/Social2.png,stimuli/Social1.png,stimuli/Nonsocial2.png,stimuli/Nonsocial1.png,cs_plus_s,,,,,,,0,0,0,0,,,,,,,,,,,,,,,,,2,2,10,0,,,,,,,,,,,,,,,,,,,,,,,2559.936766800005,5,0.01376420003362,0.5004151000175625,41,D,2023-12-21_08h38.18.964,gca_avoidance_task,2022.2.4,143.98682217205422,
positions.xlsx,stimuli.xlsx,stimuli/Social2.png,stimuli/Social1.png,stimuli/Nonsocial2.png,stimuli/Nonsocial1.png,cs_plus_ns,,,,,,,0,0,0,0,,,,,,,,,,,,,,,,,2,3,11,1,,,,,,,,,,,,,,,,,,,,,,,2575.248692800058,6,0.015214300015941262,0.9795458000153303,41,D,2023-12-21_08h38.18.964,gca_avoidance_task,2022.2.4,143.98682217205422,
positions.xlsx,stimuli.xlsx,stimuli/Social2.png,stimuli/Social1.png,stimuli/Nonsocial2.png,stimuli/Nonsocial1.png,cs_minus_ns,,,,,,,0,0,0,0,,,,,,,,,,,,,,,,,3,0,12,3,,,,,,,,,,,,,,,,,,,,,,,2590.7549936000723,2,0.014355899998918176,4.673612599959597,41,D,2023-12-21_08h38.18.964,gca_avoidance_task,2022.2.4,143.98682217205422,
positions.xlsx,stimuli.xlsx,stimuli/Social2.png,stimuli/Social1.png,stimuli/Nonsocial2.png,stimuli/Nonsocial1.png,cs_plus_s,,,,,,,0,0,0,0,,,,,,,,,,,,,,,,,3,1,13,0,,,,,,,,,,,,,,,,,,,,,,,2606.073859099997,6,0.014221799792721868,3.014019099995494,41,D,2023-12-21_08h38.18.964,gca_avoidance_task,2022.2.4,143.98682217205422,
positions.xlsx,stimuli.xlsx,stimuli/Social2.png,stimuli/Social1.png,stimuli/Nonsocial2.png,stimuli/Nonsocial1.png,cs_plus_ns,,,,,,,0,0,0,0,,,,,,,,,,,,,,,,,3,2,14,1,,,,,,,,,,,,,,,,,,,,,,,2620.6149508000817,3,0.1530726000200957,0.840325300116092,41,D,2023-12-21_08h38.18.964,gca_avoidance_task,2022.2.4,143.98682217205422,
positions.xlsx,stimuli.xlsx,stimuli/Social2.png,stimuli/Social1.png,stimuli/Nonsocial2.png,stimuli/Nonsocial1.png,cs_minus_s,,,,,,,0,0,0,0,,,,,,,,,,,,,,,,,3,3,15,2,,,,,,,,,,,,,,,,,,,,,,,2635.8643583999947,5,0.16712150000967085,1.354564500041306,41,D,2023-12-21_08h38.18.964,gca_avoidance_task,2022.2.4,143.98682217205422,
positions.xlsx,stimuli.xlsx,stimuli/Social2.png,stimuli/Social1.png,stimuli/Nonsocial2.png,stimuli/Nonsocial1.png,cs_plus_ns,,,,,,,0,0,0,0,,,,,,,,,,,,,,,,,4,0,16,1,,,,,,,,,,,,,,,,,,,,,,,2651.3360003000125,5,0.01413429994136095,0.743726700078696,41,D,2023-12-21_08h38.18.964,gca_avoidance_task,2022.2.4,143.98682217205422,
positions.xlsx,stimuli.xlsx,stimuli/Social2.png,stimuli/Social1.png,stimuli/Nonsocial2.png,stimuli/Nonsocial1.png,cs_minus_s,,,,,,,0,0,0,0,,,,,,,,,,,,,,,,,4,1,17,2,,,,,,,,,,,,,,,,,,,,,,,2666.8353945999406,6,0.013269999995827675,2.6947298999875784,41,D,2023-12-21_08h38.18.964,gca_avoidance_task,2022.2.4,143.98682217205422,
positions.xlsx,stimuli.xlsx,stimuli/Social2.png,stimuli/Social1.png,stimuli/Nonsocial2.png,stimuli/Nonsocial1.png,cs_plus_s,,,,,,,0,0,0,0,,,,,,,,,,,,,,,,,4,2,18,0,,,,,,,,,,,,,,,,,,,,,,,2681.3903940001037,3,0.013459499925374985,3.7154415999539196,41,D,2023-12-21_08h38.18.964,gca_avoidance_task,2022.2.4,143.98682217205422,
positions.xlsx,stimuli.xlsx,stimuli/Social2.png,stimuli/Social1.png,stimuli/Nonsocial2.png,stimuli/Nonsocial1.png,cs_minus_ns,,,,,,,0,0,0,0,,,,,,,,,,,,,,,,,4,3,19,3,,,,,,,,,,,,,,,,,,,,,,,2696.077339099953,6,0.014560699928551912,1.1877999999560416,41,D,2023-12-21_08h38.18.964,gca_avoidance_task,2022.2.4,143.98682217205422,
positions.xlsx,stimuli.xlsx,stimuli/Social2.png,stimuli/Social1.png,stimuli/Nonsocial2.png,stimuli/Nonsocial1.png,cs_minus_s,,,,,,,0,0,0,0,,,,,,,,,,,,,,,,,5,0,20,2,,,,,,,,,,,,,,,,,,,,,,,2711.215626799967,6,0.013680199859663844,2.673709699884057,41,D,2023-12-21_08h38.18.964,gca_avoidance_task,2022.2.4,143.98682217205422,
positions.xlsx,stimuli.xlsx,stimuli/Social2.png,stimuli/Social1.png,stimuli/Nonsocial2.png,stimuli/Nonsocial1.png,cs_minus_ns,,,,,,,0,0,0,0,,,,,,,,,,,,,,,,,5,1,21,3,,,,,,,,,,,,,,,,,,,,,,,2726.4511367001105,8,0.014299000147730112,5.402818199945614,41,D,2023-12-21_08h38.18.964,gca_avoidance_task,2022.2.4,143.98682217205422,
positions.xlsx,stimuli.xlsx,stimuli/Social2.png,stimuli/Social1.png,stimuli/Nonsocial2.png,stimuli/Nonsocial1.png,cs_plus_s,,,,,,,0,0,0,0,,,,,,,,,,,,,,,,,5,2,22,0,,,,,,,,,,,,,,,,,,,,,,,2741.8394208999816,5,0.013547400012612343,0.9655709001235664,41,D,2023-12-21_08h38.18.964,gca_avoidance_task,2022.2.4,143.98682217205422,
positions.xlsx,stimuli.xlsx,stimuli/Social2.png,stimuli/Social1.png,stimuli/Nonsocial2.png,stimuli/Nonsocial1.png,cs_plus_ns,,,,,,,0,0,0,0,,,,,,,,,,,,,,,,,5,3,23,1,,,,,,,,,,,,,,,,,,,,,,,2756.7902482000645,8,0.014083300018683076,2.8127878000959754,41,D,2023-12-21_08h38.18.964,gca_avoidance_task,2022.2.4,143.98682217205422,
positions.xlsx,stimuli.xlsx,stimuli/Social2.png,stimuli/Social1.png,stimuli/Nonsocial2.png,stimuli/Nonsocial1.png,cs_plus_ns,,,,,,,0,0,0,0,,,,,,,,,,,,,,,,,6,0,24,1,,,,,,,,,,,,,,,,,,,,,,,2771.859092999948,6,0.014171699993312359,0.9239248000085354,41,D,2023-12-21_08h38.18.964,gca_avoidance_task,2022.2.4,143.98682217205422,
positions.xlsx,stimuli.xlsx,stimuli/Social2.png,stimuli/Social1.png,stimuli/Nonsocial2.png,stimuli/Nonsocial1.png,cs_plus_s,,,,,,,0,0,0,0,,,,,,,,,,,,,,,,,6,1,25,0,,,,,,,,,,,,,,,,,,,,,,,2786.434918300016,6,0.01362490002065897,1.1878682000096887,41,D,2023-12-21_08h38.18.964,gca_avoidance_task,2022.2.4,143.98682217205422,
positions.xlsx,stimuli.xlsx,stimuli/Social2.png,stimuli/Social1.png,stimuli/Nonsocial2.png,stimuli/Nonsocial1.png,cs_minus_s,,,,,,,0,0,0,0,,,,,,,,,,,,,,,,,6,2,26,2,,,,,,,,,,,,,,,,,,,,,,,2801.0940738001373,5,0.0132426000200212,1.4585088000167161,41,D,2023-12-21_08h38.18.964,gca_avoidance_task,2022.2.4,143.98682217205422,
positions.xlsx,stimuli.xlsx,stimuli/Social2.png,stimuli/Social1.png,stimuli/Nonsocial2.png,stimuli/Nonsocial1.png,cs_minus_ns,,,,,,,0,0,0,0,,,,,,,,,,,,,,,,,6,3,27,3,,,,,,,,,,,,,,,,,,,,,,,2816.135155899916,6,0.014790000161156058,0.23657359997741878,41,D,2023-12-21_08h38.18.964,gca_avoidance_task,2022.2.4,143.98682217205422,
positions.xlsx,stimuli.xlsx,stimuli/Social2.png,stimuli/Social1.png,stimuli/Nonsocial2.png,stimuli/Nonsocial1.png,cs_minus_ns,,,,,,,0,0,0,0,,,,,,,,,,,,,,,,,7,0,28,3,,,,,,,,,,,,,,,,,,,,,,,2831.1345742000267,8,0.014239099808037281,0.6529387999325991,41,D,2023-12-21_08h38.18.964,gca_avoidance_task,2022.2.4,143.98682217205422,
positions.xlsx,stimuli.xlsx,stimuli/Social2.png,stimuli/Social1.png,stimuli/Nonsocial2.png,stimuli/Nonsocial1.png,cs_minus_s,,,,,,,0,0,0,0,,,,,,,,,,,,,,,,,7,1,29,2,,,,,,,,,,,,,,,,,,,,,,,2845.8909622000065,6,0.013746700016781688,0.16004549991339445,41,D,2023-12-21_08h38.18.964,gca_avoidance_task,2022.2.4,143.98682217205422,
positions.xlsx,stimuli.xlsx,stimuli/Social2.png,stimuli/Social1.png,stimuli/Nonsocial2.png,stimuli/Nonsocial1.png,cs_plus_ns,,,,,,,0,0,0,0,,,,,,,,,,,,,,,,,7,2,30,1,,,,,,,,,,,,,,,,,,,,,,,2861.050081900088,3,0.014073000056669116,5.0627049000468105,41,D,2023-12-21_08h38.18.964,gca_avoidance_task,2022.2.4,143.98682217205422,
positions.xlsx,stimuli.xlsx,stimuli/Social2.png,stimuli/Social1.png,stimuli/Nonsocial2.png,stimuli/Nonsocial1.png,cs_plus_s,,,,,,,0,0,0,0,,,,,,,,,,,,,,,,,7,3,31,0,,,,,,,,,,,,,,,,,,,,,,,2875.889804800041,3,0.014066600007936358,0.555799099849537,41,D,2023-12-21_08h38.18.964,gca_avoidance_task,2022.2.4,143.98682217205422,
positions.xlsx,stimuli.xlsx,stimuli/Social2.png,stimuli/Social1.png,stimuli/Nonsocial2.png,stimuli/Nonsocial1.png,cs_minus_ns,,,,,,,0,0,0,0,,,,,,,,,,,,,,,,,8,0,32,3,,,,,,,,,,,,,,,,,,,,,,,2891.014210199937,5,0.015611599897965789,2.6043191999197006,41,D,2023-12-21_08h38.18.964,gca_avoidance_task,2022.2.4,143.98682217205422,
positions.xlsx,stimuli.xlsx,stimuli/Social2.png,stimuli/Social1.png,stimuli/Nonsocial2.png,stimuli/Nonsocial1.png,cs_plus_s,,,,,,,0,0,0,0,,,,,,,,,,,,,,,,,8,1,33,0,,,,,,,,,,,,,,,,,,,,,,,2905.631698400015,3,0.013442600145936012,5.437563200015575,41,D,2023-12-21_08h38.18.964,gca_avoidance_task,2022.2.4,143.98682217205422,
positions.xlsx,stimuli.xlsx,stimuli/Social2.png,stimuli/Social1.png,stimuli/Nonsocial2.png,stimuli/Nonsocial1.png,cs_plus_ns,,,,,,,0,0,0,0,,,,,,,,,,,,,,,,,8,2,34,1,,,,,,,,,,,,,,,,,,,,,,,2921.013063099934,4,0.014611200196668506,0.764275100082159,41,D,2023-12-21_08h38.18.964,gca_avoidance_task,2022.2.4,143.98682217205422,
positions.xlsx,stimuli.xlsx,stimuli/Social2.png,stimuli/Social1.png,stimuli/Nonsocial2.png,stimuli/Nonsocial1.png,cs_minus_s,,,,,,,0,0,0,0,,,,,,,,,,,,,,,,,8,3,35,2,,,,,,,,,,,,,,,,,,,,,,,2936.033268700121,4,0.25740120001137257,3.125107500003651,41,D,2023-12-21_08h38.18.964,gca_avoidance_task,2022.2.4,143.98682217205422,
positions.xlsx,stimuli.xlsx,stimuli/Social2.png,stimuli/Social1.png,stimuli/Nonsocial2.png,stimuli/Nonsocial1.png,cs_minus_ns,,,,,,,0,0,0,0,,,,,,,,,,,,,,,,,9,0,36,3,,,,,,,,,,,,,,,,,,,,,,,2950.6994103000034,8,0.6045806999318302,1.014104099944234,41,D,2023-12-21_08h38.18.964,gca_avoidance_task,2022.2.4,143.98682217205422,
positions.xlsx,stimuli.xlsx,stimuli/Social2.png,stimuli/Social1.png,stimuli/Nonsocial2.png,stimuli/Nonsocial1.png,cs_plus_s,,,,,,,0,0,0,0,,,,,,,,,,,,,,,,,9,1,37,0,,,,,,,,,,,,,,,,,,,,,,,2965.7196583000477,6,0.013411599909886718,1.3057926998008043,41,D,2023-12-21_08h38.18.964,gca_avoidance_task,2022.2.4,143.98682217205422,
positions.xlsx,stimuli.xlsx,stimuli/Social2.png,stimuli/Social1.png,stimuli/Nonsocial2.png,stimuli/Nonsocial1.png,cs_plus_ns,,,,,,,0,0,0,0,,,,,,,,,,,,,,,,,9,2,38,1,,,,,,,,,,,,,,,,,,,,,,,2980.253818999976,7,0.014144100015982985,2.0834252999629825,41,D,2023-12-21_08h38.18.964,gca_avoidance_task,2022.2.4,143.98682217205422,
positions.xlsx,stimuli.xlsx,stimuli/Social2.png,stimuli/Social1.png,stimuli/Nonsocial2.png,stimuli/Nonsocial1.png,cs_minus_s,,,,,,,0,0,0,0,,,,,,,,,,,,,,,,,9,3,39,2,,,,,,,,,,,,,,,,,,,,,,,2995.2393112999853,7,0.11849479982629418,2.5697945000138134,41,D,2023-12-21_08h38.18.964,gca_avoidance_task,2022.2.4,143.98682217205422,
positions.xlsx,stimuli.xlsx,stimuli/Social2.png,stimuli/Social1.png,stimuli/Nonsocial2.png,stimuli/Nonsocial1.png,cs_plus_ns,,,,,,,0,0,0,0,,,,,,,,,,,,,,,,,,,,,0,0,0,1,,,,,3009.3846271999646,4.0,7.113640199881047,,,,,,,,,,,,,,,,41,D,2023-12-21_08h38.18.964,gca_avoidance_task,2022.2.4,143.98682217205422,
positions.xlsx,stimuli.xlsx,stimuli/Social2.png,stimuli/Social1.png,stimuli/Nonsocial2.png,stimuli/Nonsocial1.png,cs_minus_ns,,,,,,,0,0,0,0,,,,,,,,,,,,,,,,,,,,,0,1,1,3,,,,,3018.828719299985,5.0,4.360625299857929,,,,,,,,,,,,,,,,41,D,2023-12-21_08h38.18.964,gca_avoidance_task,2022.2.4,143.98682217205422,
positions.xlsx,stimuli.xlsx,stimuli/Social2.png,stimuli/Social1.png,stimuli/Nonsocial2.png,stimuli/Nonsocial1.png,cs_minus_s,,,,,,,0,0,0,0,,,,,,,,,,,,,,,,,,,,,0,2,2,2,,,,,3024.328495700145,6.0,2.681957900058478,,,,,,,,,,,,,,,,41,D,2023-12-21_08h38.18.964,gca_avoidance_task,2022.2.4,143.98682217205422,
positions.xlsx,stimuli.xlsx,stimuli/Social2.png,stimuli/Social1.png,stimuli/Nonsocial2.png,stimuli/Nonsocial1.png,cs_plus_s,,,,,,,0,0,0,0,,,,,,,,,,,,,,,,,,,,,0,3,3,0,,,,,3027.9603097999934,3.0,8.785916900029406,,,,,,,,,,,,,,,,41,D,2023-12-21_08h38.18.964,gca_avoidance_task,2022.2.4,143.98682217205422,
