posFile,stimFile,cs_plus_s,cs_minus_s,cs_plus_ns,cs_minus_ns,stimtype,position,trialtype,trials_threshold.thisRepN,trials_threshold.thisTrialN,trials_threshold.thisN,trials_threshold.thisIndex,blocks.thisRepN,blocks.thisTrialN,blocks.thisN,blocks.thisIndex,ratingtrials1.thisRepN,ratingtrials1.thisTrialN,ratingtrials1.thisN,ratingtrials1.thisIndex,learning_trials.thisRepN,learning_trials.thisTrialN,learning_trials.thisN,learning_trials.thisIndex,trials.thisRepN,trials.thisTrialN,trials.thisN,trials.thisIndex,ratingtrials2.thisRepN,ratingtrials2.thisTrialN,ratingtrials2.thisN,ratingtrials2.thisIndex,testtrials.thisRepN,testtrials.thisTrialN,testtrials.thisN,testtrials.thisIndex,ratingtrials3.thisRepN,ratingtrials3.thisTrialN,ratingtrials3.thisN,ratingtrials3.thisIndex,textStart.started,sliderPainT.response,sliderPainT.rt,textStartExp.started,imageRating.started,sliderStim.response,sliderStim.rt,textStartTask.started,image.started,score,outcome,roi.numLooks,roi.timesOn,roi.timesOff,imageFeedback.started,sliderPain.response,sliderPain.rt,textTestInstr.started,imageTest.started,roiTest.numLooks,roiTest.timesOn,roiTest.timesOff,participant,group,date,expName,psychopyVersion,frameRate,
,,,,,,,,,0,0,0,0,,,,,,,,,,,,,,,,,,,,,,,,,,,,,11.371756999986246,None,None,,,,,,,,,,,,,,,,,,,,25,C,2023-12-13_17h29.30.859,gca_avoidance_task,2022.2.4,144.01792719300497,
,,,,,,,,,1,0,1,0,,,,,,,,,,,,,,,,,,,,,,,,,,,,,,None,None,,,,,,,,,,,,,,,,,,,,25,C,2023-12-13_17h29.30.859,gca_avoidance_task,2022.2.4,144.01792719300497,
,,,,,,,,,2,0,2,0,,,,,,,,,,,,,,,,,,,,,,,,,,,,,,1.0,4.376583799952641,,,,,,,,,,,,,,,,,,,,25,C,2023-12-13_17h29.30.859,gca_avoidance_task,2022.2.4,144.01792719300497,
,,,,,,,,,3,0,3,0,,,,,,,,,,,,,,,,,,,,,,,,,,,,,,3.0,3.367311800015159,,,,,,,,,,,,,,,,,,,,25,C,2023-12-13_17h29.30.859,gca_avoidance_task,2022.2.4,144.01792719300497,
,,,,,,,,,4,0,4,0,,,,,,,,,,,,,,,,,,,,,,,,,,,,,,3.0,2.9564616000279784,,,,,,,,,,,,,,,,,,,,25,C,2023-12-13_17h29.30.859,gca_avoidance_task,2022.2.4,144.01792719300497,
,,,,,,,,,5,0,5,0,,,,,,,,,,,,,,,,,,,,,,,,,,,,,,4.0,2.584921299945563,,,,,,,,,,,,,,,,,,,,25,C,2023-12-13_17h29.30.859,gca_avoidance_task,2022.2.4,144.01792719300497,
,,,,,,,,,6,0,6,0,,,,,,,,,,,,,,,,,,,,,,,,,,,,,,5.0,3.369171899976209,,,,,,,,,,,,,,,,,,,,25,C,2023-12-13_17h29.30.859,gca_avoidance_task,2022.2.4,144.01792719300497,
,,,,,,,,,7,0,7,0,,,,,,,,,,,,,,,,,,,,,,,,,,,,,,7.0,2.6242055000038818,,,,,,,,,,,,,,,,,,,,25,C,2023-12-13_17h29.30.859,gca_avoidance_task,2022.2.4,144.01792719300497,
,,,,,,,,,8,0,8,0,,,,,,,,,,,,,,,,,,,,,,,,,,,,,,7.0,1.569753900053911,,,,,,,,,,,,,,,,,,,,25,C,2023-12-13_17h29.30.859,gca_avoidance_task,2022.2.4,144.01792719300497,
,,,,,,,,,9,0,9,0,,,,,,,,,,,,,,,,,,,,,,,,,,,,,,8.0,2.340431099990383,,,,,,,,,,,,,,,,,,,,25,C,2023-12-13_17h29.30.859,gca_avoidance_task,2022.2.4,144.01792719300497,
,,,,,,,,,10,0,10,0,,,,,,,,,,,,,,,,,,,,,,,,,,,,,,8.0,1.5500694999936968,,,,,,,,,,,,,,,,,,,,25,C,2023-12-13_17h29.30.859,gca_avoidance_task,2022.2.4,144.01792719300497,
,,,,,,,,,11,0,11,0,,,,,,,,,,,,,,,,,,,,,,,,,,,,,,8.0,2.5266148999799043,,,,,,,,,,,,,,,,,,,,25,C,2023-12-13_17h29.30.859,gca_avoidance_task,2022.2.4,144.01792719300497,
,,,,,,,,,12,0,12,0,,,,,,,,,,,,,,,,,,,,,,,,,,,,,,7.0,2.088082299917005,,,,,,,,,,,,,,,,,,,,25,C,2023-12-13_17h29.30.859,gca_avoidance_task,2022.2.4,144.01792719300497,
,,,,,,,,,13,0,13,0,,,,,,,,,,,,,,,,,,,,,,,,,,,,,,7.0,1.4208771999692544,,,,,,,,,,,,,,,,,,,,25,C,2023-12-13_17h29.30.859,gca_avoidance_task,2022.2.4,144.01792719300497,
,,,,,,,,,14,0,14,0,,,,,,,,,,,,,,,,,,,,,,,,,,,,,,6.0,3.432286800001748,,,,,,,,,,,,,,,,,,,,25,C,2023-12-13_17h29.30.859,gca_avoidance_task,2022.2.4,144.01792719300497,
,,,,,,,,,15,0,15,0,,,,,,,,,,,,,,,,,,,,,,,,,,,,,,4.0,2.7128540999256074,,,,,,,,,,,,,,,,,,,,25,C,2023-12-13_17h29.30.859,gca_avoidance_task,2022.2.4,144.01792719300497,
,,,,,,,,,16,0,16,0,,,,,,,,,,,,,,,,,,,,,,,,,,,,,,6.0,3.2373295999132097,,,,,,,,,,,,,,,,,,,,25,C,2023-12-13_17h29.30.859,gca_avoidance_task,2022.2.4,144.01792719300497,
,,,,,,,,,17,0,17,0,,,,,,,,,,,,,,,,,,,,,,,,,,,,,,8.0,2.6278410999802873,,,,,,,,,,,,,,,,,,,,25,C,2023-12-13_17h29.30.859,gca_avoidance_task,2022.2.4,144.01792719300497,
,,,,,,,,,18,0,18,0,,,,,,,,,,,,,,,,,,,,,,,,,,,,,,9.0,3.258126800064929,,,,,,,,,,,,,,,,,,,,25,C,2023-12-13_17h29.30.859,gca_avoidance_task,2022.2.4,144.01792719300497,
,,,,,,,,,19,0,19,0,,,,,,,,,,,,,,,,,,,,,,,,,,,,,,9.0,2.23567369999364,,,,,,,,,,,,,,,,,,,,25,C,2023-12-13_17h29.30.859,gca_avoidance_task,2022.2.4,144.01792719300497,
,,,,,,,,,20,0,20,0,,,,,,,,,,,,,,,,,,,,,,,,,,,,,,9.0,1.8405411000130698,,,,,,,,,,,,,,,,,,,,25,C,2023-12-13_17h29.30.859,gca_avoidance_task,2022.2.4,144.01792719300497,
,,,,,,,,,21,0,21,0,,,,,,,,,,,,,,,,,,,,,,,,,,,,,,8.0,4.549166899989359,,,,,,,,,,,,,,,,,,,,25,C,2023-12-13_17h29.30.859,gca_avoidance_task,2022.2.4,144.01792719300497,
,,,,,,,,,22,0,22,0,,,,,,,,,,,,,,,,,,,,,,,,,,,,,,9.0,2.515434200060554,,,,,,,,,,,,,,,,,,,,25,C,2023-12-13_17h29.30.859,gca_avoidance_task,2022.2.4,144.01792719300497,
,,,,,,,,,23,0,23,0,,,,,,,,,,,,,,,,,,,,,,,,,,,,,,7.0,2.8150316999526694,,,,,,,,,,,,,,,,,,,,25,C,2023-12-13_17h29.30.859,gca_avoidance_task,2022.2.4,144.01792719300497,
,,,,,,,,,24,0,24,0,,,,,,,,,,,,,,,,,,,,,,,,,,,,,,8.0,4.031399799976498,,,,,,,,,,,,,,,,,,,,25,C,2023-12-13_17h29.30.859,gca_avoidance_task,2022.2.4,144.01792719300497,
,,,,,,,,,25,0,25,0,,,,,,,,,,,,,,,,,,,,,,,,,,,,,,6.0,1.9681800999678671,,,,,,,,,,,,,,,,,,,,25,C,2023-12-13_17h29.30.859,gca_avoidance_task,2022.2.4,144.01792719300497,
positions.xlsx,stimuli.xlsx,stimuli/Social1.png,stimuli/Social2.png,stimuli/Nonsocial2.png,stimuli/Nonsocial1.png,cs_plus_ns,,,,,,,0,0,0,0,0,0,0,1,,,,,,,,,,,,,,,,,,,,,,,,376.731483999989,387.30823109997436,2.0,7.827228600042872,,,,,,,,,,,,,,,,25,C,2023-12-13_17h29.30.859,gca_avoidance_task,2022.2.4,144.01792719300497,
positions.xlsx,stimuli.xlsx,stimuli/Social1.png,stimuli/Social2.png,stimuli/Nonsocial2.png,stimuli/Nonsocial1.png,cs_plus_s,,,,,,,0,0,0,0,0,1,1,0,,,,,,,,,,,,,,,,,,,,,,,,,396.3495285999961,3.0,7.229207600001246,,,,,,,,,,,,,,,,25,C,2023-12-13_17h29.30.859,gca_avoidance_task,2022.2.4,144.01792719300497,
positions.xlsx,stimuli.xlsx,stimuli/Social1.png,stimuli/Social2.png,stimuli/Nonsocial2.png,stimuli/Nonsocial1.png,cs_minus_s,,,,,,,0,0,0,0,0,2,2,2,,,,,,,,,,,,,,,,,,,,,,,,,404.5505814999342,5.0,4.8611325999954715,,,,,,,,,,,,,,,,25,C,2023-12-13_17h29.30.859,gca_avoidance_task,2022.2.4,144.01792719300497,
positions.xlsx,stimuli.xlsx,stimuli/Social1.png,stimuli/Social2.png,stimuli/Nonsocial2.png,stimuli/Nonsocial1.png,cs_minus_ns,,,,,,,0,0,0,0,0,3,3,3,,,,,,,,,,,,,,,,,,,,,,,,,410.4670270999195,1.0,4.868457000004128,,,,,,,,,,,,,,,,25,C,2023-12-13_17h29.30.859,gca_avoidance_task,2022.2.4,144.01792719300497,
positions.xlsx,stimuli.xlsx,stimuli/Social1.png,stimuli/Social2.png,stimuli/Nonsocial2.png,stimuli/Nonsocial1.png,,"(0.7, -0.5)",cs_minus_ns,,,,,0,0,0,0,,,,,0,0,0,15,,,,,,,,,,,,,,,,,,,,,,,,416.41816090000793,444.0698368999874,5,reward,1,0.4171046999981627,0.41710909991525114,444.50037479994353,,,,,,,,25,C,2023-12-13_17h29.30.859,gca_avoidance_task,2022.2.4,144.01792719300497,
positions.xlsx,stimuli.xlsx,stimuli/Social1.png,stimuli/Social2.png,stimuli/Nonsocial2.png,stimuli/Nonsocial1.png,,"(0.7, 0.5)",cs_minus_ns,,,,,0,0,0,0,,,,,0,1,1,14,,,,,,,,,,,,,,,,,,,,,,,,,453.50696809997316,10,reward,1,0.21541129995603114,0.21541489998344332,453.7292290999321,,,,,,,,25,C,2023-12-13_17h29.30.859,gca_avoidance_task,2022.2.4,144.01792719300497,
positions.xlsx,stimuli.xlsx,stimuli/Social1.png,stimuli/Social2.png,stimuli/Nonsocial2.png,stimuli/Nonsocial1.png,,"(-0.7, 0.5)",cs_minus_s,,,,,0,0,0,0,,,,,0,2,2,4,,,,,,,,,,,,,,,,,,,,,,,,,463.50657199998386,15,reward,1,0.2292030000826344,0.2360997999785468,463.74962499993853,,,,,,,,25,C,2023-12-13_17h29.30.859,gca_avoidance_task,2022.2.4,144.01792719300497,
positions.xlsx,stimuli.xlsx,stimuli/Social1.png,stimuli/Social2.png,stimuli/Nonsocial2.png,stimuli/Nonsocial1.png,,"(-0.7, 0.5)",cs_plus_s,,,,,0,0,0,0,,,,,0,3,3,0,,,,,,,,,,,,,,,,,,,,,,,,,472.7075923999073,15,shock,1,0.20836459996644408,0.20836839999537915,472.92289869999513,,,,,,,,25,C,2023-12-13_17h29.30.859,gca_avoidance_task,2022.2.4,144.01792719300497,
positions.xlsx,stimuli.xlsx,stimuli/Social1.png,stimuli/Social2.png,stimuli/Nonsocial2.png,stimuli/Nonsocial1.png,,"(0.7, -0.5)",cs_plus_s,,,,,0,0,0,0,,,,,0,4,4,3,,,,,,,,,,,,,,,,,,,,,,,,,482.33916400000453,15,shock,1,0.26428080000914633,0.26428450003731996,482.60998129996005,,,,,,,,25,C,2023-12-13_17h29.30.859,gca_avoidance_task,2022.2.4,144.01792719300497,
positions.xlsx,stimuli.xlsx,stimuli/Social1.png,stimuli/Social2.png,stimuli/Nonsocial2.png,stimuli/Nonsocial1.png,,"(-0.7, -0.5)",cs_minus_ns,,,,,0,0,0,0,,,,,0,5,5,13,,,,,,,,,,,,,,,,,,,,,,,,,491.9846168999793,20,reward,1,0.5352453000377864,0.5418576000956818,492.53322569990996,,,,,,,,25,C,2023-12-13_17h29.30.859,gca_avoidance_task,2022.2.4,144.01792719300497,
positions.xlsx,stimuli.xlsx,stimuli/Social1.png,stimuli/Social2.png,stimuli/Nonsocial2.png,stimuli/Nonsocial1.png,,"(0.7, -0.5)",cs_plus_ns,,,,,0,0,0,0,,,,,0,6,6,11,,,,,,,,,,,,,,,,,,,,,,,,,501.991170699941,20,shock,1,0.41684010007884353,0.4237845001043752,502.4217069000006,,,,,,,,25,C,2023-12-13_17h29.30.859,gca_avoidance_task,2022.2.4,144.01792719300497,
positions.xlsx,stimuli.xlsx,stimuli/Social1.png,stimuli/Social2.png,stimuli/Nonsocial2.png,stimuli/Nonsocial1.png,,"(0.7, 0.5)",cs_minus_s,,,,,0,0,0,0,,,,,0,7,7,6,,,,,,,,,,,,,,,,,,,,,,,,,512.0810476999031,25,reward,1,0.5489161000587046,0.5489198999712244,512.6365815999452,,,,,,,,25,C,2023-12-13_17h29.30.859,gca_avoidance_task,2022.2.4,144.01792719300497,
positions.xlsx,stimuli.xlsx,stimuli/Social1.png,stimuli/Social2.png,stimuli/Nonsocial2.png,stimuli/Nonsocial1.png,,"(-0.7, 0.5)",cs_minus_ns,,,,,0,0,0,0,,,,,0,8,8,12,,,,,,,,,,,,,,,,,,,,,,,,,521.8932090000017,30,reward,1,0.3822571999626234,0.3822607999900356,522.2820466000121,,,,,,,,25,C,2023-12-13_17h29.30.859,gca_avoidance_task,2022.2.4,144.01792719300497,
positions.xlsx,stimuli.xlsx,stimuli/Social1.png,stimuli/Social2.png,stimuli/Nonsocial2.png,stimuli/Nonsocial1.png,,"(-0.7, -0.5)",cs_plus_ns,,,,,0,0,0,0,,,,,0,9,9,9,,,,,,,,,,,,,,,,,,,,,,,,,531.8372393999016,30,none,1,1.7090169999282807,1.7155730999074876,536.8509346999926,,,,,,,,25,C,2023-12-13_17h29.30.859,gca_avoidance_task,2022.2.4,144.01792719300497,
positions.xlsx,stimuli.xlsx,stimuli/Social1.png,stimuli/Social2.png,stimuli/Nonsocial2.png,stimuli/Nonsocial1.png,,"(-0.7, 0.5)",cs_plus_ns,,,,,0,0,0,0,,,,,0,10,10,8,,,,,,,,,,,,,,,,,,,,,,,,,546.440770199988,30,none,0,,,551.4475465000141,,,,,,,,25,C,2023-12-13_17h29.30.859,gca_avoidance_task,2022.2.4,144.01792719300497,
positions.xlsx,stimuli.xlsx,stimuli/Social1.png,stimuli/Social2.png,stimuli/Nonsocial2.png,stimuli/Nonsocial1.png,,"(0.7, -0.5)",cs_minus_s,,,,,0,0,0,0,,,,,0,11,11,7,,,,,,,,,,,,,,,,,,,,,,,,,560.634746799944,35,reward,1,0.5000406999606639,0.5000445999903604,561.1416468999814,,,,,,,,25,C,2023-12-13_17h29.30.859,gca_avoidance_task,2022.2.4,144.01792719300497,
positions.xlsx,stimuli.xlsx,stimuli/Social1.png,stimuli/Social2.png,stimuli/Nonsocial2.png,stimuli/Nonsocial1.png,,"(-0.7, -0.5)",cs_minus_s,,,,,0,0,0,0,,,,,0,12,12,5,,,,,,,,,,,,,,,,,,,,,,,,,570.7731802999042,40,reward,1,0.4167526999954134,0.4167562999064103,571.1967608999694,,,,,,,,25,C,2023-12-13_17h29.30.859,gca_avoidance_task,2022.2.4,144.01792719300497,
positions.xlsx,stimuli.xlsx,stimuli/Social1.png,stimuli/Social2.png,stimuli/Nonsocial2.png,stimuli/Nonsocial1.png,,"(-0.7, -0.5)",cs_plus_s,,,,,0,0,0,0,,,,,0,13,13,1,,,,,,,,,,,,,,,,,,,,,,,,,581.147779699997,40,none,0,,,586.1545119999209,,,,,,,,25,C,2023-12-13_17h29.30.859,gca_avoidance_task,2022.2.4,144.01792719300497,
positions.xlsx,stimuli.xlsx,stimuli/Social1.png,stimuli/Social2.png,stimuli/Nonsocial2.png,stimuli/Nonsocial1.png,,"(0.7, 0.5)",cs_plus_ns,,,,,0,0,0,0,,,,,0,14,14,10,,,,,,,,,,,,,,,,,,,,,,,,,595.5916535999859,40,shock,1,0.402821300085634,0.4028249999973923,596.0013486999087,,,,,,,,25,C,2023-12-13_17h29.30.859,gca_avoidance_task,2022.2.4,144.01792719300497,
positions.xlsx,stimuli.xlsx,stimuli/Social1.png,stimuli/Social2.png,stimuli/Nonsocial2.png,stimuli/Nonsocial1.png,,"(0.7, 0.5)",cs_plus_s,,,,,0,0,0,0,,,,,0,15,15,2,,,,,,,,,,,,,,,,,,,,,,,,,606.0981778999558,40,none,0,,,611.104895299999,,,,,,,,25,C,2023-12-13_17h29.30.859,gca_avoidance_task,2022.2.4,144.01792719300497,
positions.xlsx,stimuli.xlsx,stimuli/Social1.png,stimuli/Social2.png,stimuli/Nonsocial2.png,stimuli/Nonsocial1.png,,"(-0.7, -0.5)",cs_minus_ns,,,,,0,0,0,0,,,,,1,0,16,13,,,,,,,,,,,,,,,,,,,,,,,,,621.1948070999933,45,reward,1,0.40333210001699626,0.41037490009330213,621.6115165000083,,,,,,,,25,C,2023-12-13_17h29.30.859,gca_avoidance_task,2022.2.4,144.01792719300497,
positions.xlsx,stimuli.xlsx,stimuli/Social1.png,stimuli/Social2.png,stimuli/Nonsocial2.png,stimuli/Nonsocial1.png,,"(0.7, 0.5)",cs_plus_ns,,,,,0,0,0,0,,,,,1,1,17,10,,,,,,,,,,,,,,,,,,,,,,,,,631.2082945000147,45,none,0,,,636.2150741999503,,,,,,,,25,C,2023-12-13_17h29.30.859,gca_avoidance_task,2022.2.4,144.01792719300497,
positions.xlsx,stimuli.xlsx,stimuli/Social1.png,stimuli/Social2.png,stimuli/Nonsocial2.png,stimuli/Nonsocial1.png,,"(-0.7, 0.5)",cs_minus_s,,,,,0,0,0,0,,,,,1,2,18,4,,,,,,,,,,,,,,,,,,,,,,,,,645.8674645000137,50,reward,1,0.6667903000488877,0.6667940000770614,646.5410673000151,,,,,,,,25,C,2023-12-13_17h29.30.859,gca_avoidance_task,2022.2.4,144.01792719300497,
positions.xlsx,stimuli.xlsx,stimuli/Social1.png,stimuli/Social2.png,stimuli/Nonsocial2.png,stimuli/Nonsocial1.png,,"(-0.7, 0.5)",cs_plus_ns,,,,,0,0,0,0,,,,,1,3,19,8,,,,,,,,,,,,,,,,,,,,,,,,,656.762860299903,50,none,0,,,661.7695912999334,,,,,,,,25,C,2023-12-13_17h29.30.859,gca_avoidance_task,2022.2.4,144.01792719300497,
positions.xlsx,stimuli.xlsx,stimuli/Social1.png,stimuli/Social2.png,stimuli/Nonsocial2.png,stimuli/Nonsocial1.png,,"(0.7, -0.5)",cs_minus_s,,,,,0,0,0,0,,,,,1,4,20,7,,,,,,,,,,,,,,,,,,,,,,,,,671.0470386999659,55,reward,1,0.5006058999570087,0.5006091999821365,671.5539494999684,,,,,,,,25,C,2023-12-13_17h29.30.859,gca_avoidance_task,2022.2.4,144.01792719300497,
positions.xlsx,stimuli.xlsx,stimuli/Social1.png,stimuli/Social2.png,stimuli/Nonsocial2.png,stimuli/Nonsocial1.png,,"(0.7, -0.5)",cs_plus_ns,,,,,0,0,0,0,,,,,1,5,21,11,,,,,,,,,,,,,,,,,,,,,,,,,680.810514899902,55,none,0,,,685.817240000004,,,,,,,,25,C,2023-12-13_17h29.30.859,gca_avoidance_task,2022.2.4,144.01792719300497,
positions.xlsx,stimuli.xlsx,stimuli/Social1.png,stimuli/Social2.png,stimuli/Nonsocial2.png,stimuli/Nonsocial1.png,,"(-0.7, -0.5)",cs_plus_s,,,,,0,0,0,0,,,,,1,6,22,1,,,,,,,,,,,,,,,,,,,,,,,,,695.0321962999878,55,none,0,,,700.0389540999895,,,,,,,,25,C,2023-12-13_17h29.30.859,gca_avoidance_task,2022.2.4,144.01792719300497,
positions.xlsx,stimuli.xlsx,stimuli/Social1.png,stimuli/Social2.png,stimuli/Nonsocial2.png,stimuli/Nonsocial1.png,,"(0.7, 0.5)",cs_minus_s,,,,,0,0,0,0,,,,,1,7,23,6,,,,,,,,,,,,,,,,,,,,,,,,,708.9344163999194,60,reward,1,0.5344679999398068,0.5344714999664575,709.4760570999933,,,,,,,,25,C,2023-12-13_17h29.30.859,gca_avoidance_task,2022.2.4,144.01792719300497,
positions.xlsx,stimuli.xlsx,stimuli/Social1.png,stimuli/Social2.png,stimuli/Nonsocial2.png,stimuli/Nonsocial1.png,,"(0.7, -0.5)",cs_plus_s,,,,,0,0,0,0,,,,,1,8,24,3,,,,,,,,,,,,,,,,,,,,,,,,,718.4618122999091,60,none,0,,,723.4685880999314,,,,,,,,25,C,2023-12-13_17h29.30.859,gca_avoidance_task,2022.2.4,144.01792719300497,
positions.xlsx,stimuli.xlsx,stimuli/Social1.png,stimuli/Social2.png,stimuli/Nonsocial2.png,stimuli/Nonsocial1.png,,"(0.7, 0.5)",cs_minus_ns,,,,,0,0,0,0,,,,,1,9,25,14,,,,,,,,,,,,,,,,,,,,,,,,,733.4612223999575,65,reward,1,0.6044884999282658,0.6112395999953151,734.0792629999341,,,,,,,,25,C,2023-12-13_17h29.30.859,gca_avoidance_task,2022.2.4,144.01792719300497,
positions.xlsx,stimuli.xlsx,stimuli/Social1.png,stimuli/Social2.png,stimuli/Nonsocial2.png,stimuli/Nonsocial1.png,,"(-0.7, -0.5)",cs_minus_s,,,,,0,0,0,0,,,,,1,10,26,5,,,,,,,,,,,,,,,,,,,,,,,,,743.6761236999882,70,reward,1,0.5348119999980554,0.5348155999090523,744.2177350999555,,,,,,,,25,C,2023-12-13_17h29.30.859,gca_avoidance_task,2022.2.4,144.01792719300497,
positions.xlsx,stimuli.xlsx,stimuli/Social1.png,stimuli/Social2.png,stimuli/Nonsocial2.png,stimuli/Nonsocial1.png,,"(-0.7, -0.5)",cs_plus_ns,,,,,0,0,0,0,,,,,1,11,27,9,,,,,,,,,,,,,,,,,,,,,,,,,753.8701377999969,70,none,0,,,758.8769400999881,,,,,,,,25,C,2023-12-13_17h29.30.859,gca_avoidance_task,2022.2.4,144.01792719300497,
positions.xlsx,stimuli.xlsx,stimuli/Social1.png,stimuli/Social2.png,stimuli/Nonsocial2.png,stimuli/Nonsocial1.png,,"(-0.7, 0.5)",cs_plus_s,,,,,0,0,0,0,,,,,1,12,28,0,,,,,,,,,,,,,,,,,,,,,,,,,768.9459598999238,70,shock,1,0.13214869995135814,0.13215239997953176,769.0848707999103,,,,,,,,25,C,2023-12-13_17h29.30.859,gca_avoidance_task,2022.2.4,144.01792719300497,
positions.xlsx,stimuli.xlsx,stimuli/Social1.png,stimuli/Social2.png,stimuli/Nonsocial2.png,stimuli/Nonsocial1.png,,"(0.7, 0.5)",cs_plus_s,,,,,0,0,0,0,,,,,1,13,29,2,,,,,,,,,,,,,,,,,,,,,,,,,779.4386181998998,70,none,0,,,784.4453449000139,,,,,,,,25,C,2023-12-13_17h29.30.859,gca_avoidance_task,2022.2.4,144.01792719300497,
positions.xlsx,stimuli.xlsx,stimuli/Social1.png,stimuli/Social2.png,stimuli/Nonsocial2.png,stimuli/Nonsocial1.png,,"(-0.7, 0.5)",cs_minus_ns,,,,,0,0,0,0,,,,,1,14,30,12,,,,,,,,,,,,,,,,,,,,,,,,,794.0213877999922,75,reward,1,0.5352417000103742,0.5352463000454009,794.5629783999175,,,,,,,,25,C,2023-12-13_17h29.30.859,gca_avoidance_task,2022.2.4,144.01792719300497,
positions.xlsx,stimuli.xlsx,stimuli/Social1.png,stimuli/Social2.png,stimuli/Nonsocial2.png,stimuli/Nonsocial1.png,,"(0.7, -0.5)",cs_minus_ns,,,,,0,0,0,0,,,,,1,15,31,15,,,,,,,,,,,,,,,,,,,,,,,,,803.5209772000089,80,reward,1,0.5904480000026524,0.5904526000376791,804.1181910999585,,,,,,,,25,C,2023-12-13_17h29.30.859,gca_avoidance_task,2022.2.4,144.01792719300497,
positions.xlsx,stimuli.xlsx,stimuli/Social1.png,stimuli/Social2.png,stimuli/Nonsocial2.png,stimuli/Nonsocial1.png,,"(0.7, -0.5)",cs_plus_s,,,,,0,0,0,0,,,,,,,,,0,0,0,3,,,,,,,,,,,,,,,,,,,,,845.9568368999753,80,shock,1,0.542414000025019,0.5424177000531927,846.5054192999378,,,,,,,,25,C,2023-12-13_17h29.30.859,gca_avoidance_task,2022.2.4,144.01792719300497,
positions.xlsx,stimuli.xlsx,stimuli/Social1.png,stimuli/Social2.png,stimuli/Nonsocial2.png,stimuli/Nonsocial1.png,,"(-0.7, 0.5)",cs_plus_s,,,,,0,0,0,0,,,,,,,,,0,1,1,0,,,,,,,,,,,,,,,,,,,,,855.9703517999733,80,none,0,,,860.9771408999804,,,,,,,,25,C,2023-12-13_17h29.30.859,gca_avoidance_task,2022.2.4,144.01792719300497,
positions.xlsx,stimuli.xlsx,stimuli/Social1.png,stimuli/Social2.png,stimuli/Nonsocial2.png,stimuli/Nonsocial1.png,,"(-0.7, 0.5)",cs_minus_s,,,,,0,0,0,0,,,,,,,,,0,2,2,4,,,,,,,,,,,,,,,,,,,,,870.3378401999362,85,reward,1,0.41687960003037006,0.4168833000585437,870.7614076999016,,,,,,,,25,C,2023-12-13_17h29.30.859,gca_avoidance_task,2022.2.4,144.01792719300497,
positions.xlsx,stimuli.xlsx,stimuli/Social1.png,stimuli/Social2.png,stimuli/Nonsocial2.png,stimuli/Nonsocial1.png,,"(0.7, 0.5)",cs_minus_ns,,,,,0,0,0,0,,,,,,,,,0,3,3,14,,,,,,,,,,,,,,,,,,,,,880.3652292999905,90,reward,1,0.39639809995424,0.3964016999816522,880.7679714999394,,,,,,,,25,C,2023-12-13_17h29.30.859,gca_avoidance_task,2022.2.4,144.01792719300497,
positions.xlsx,stimuli.xlsx,stimuli/Social1.png,stimuli/Social2.png,stimuli/Nonsocial2.png,stimuli/Nonsocial1.png,,"(0.7, 0.5)",cs_plus_ns,,,,,0,0,0,0,,,,,,,,,0,4,4,10,,,,,,,,,,,,,,,,,,,,,889.5454016999574,90,none,0,,,894.5521668000147,,,,,,,,25,C,2023-12-13_17h29.30.859,gca_avoidance_task,2022.2.4,144.01792719300497,
positions.xlsx,stimuli.xlsx,stimuli/Social1.png,stimuli/Social2.png,stimuli/Nonsocial2.png,stimuli/Nonsocial1.png,,"(0.7, -0.5)",cs_plus_ns,,,,,0,0,0,0,,,,,,,,,0,5,5,11,,,,,,,,,,,,,,,,,,,,,904.7253805999644,90,none,0,,,909.7321651999373,,,,,,,,25,C,2023-12-13_17h29.30.859,gca_avoidance_task,2022.2.4,144.01792719300497,
positions.xlsx,stimuli.xlsx,stimuli/Social1.png,stimuli/Social2.png,stimuli/Nonsocial2.png,stimuli/Nonsocial1.png,,"(0.7, -0.5)",cs_minus_s,,,,,0,0,0,0,,,,,,,,,0,6,6,7,,,,,,,,,,,,,,,,,,,,,919.8359018999618,95,reward,1,0.7218621000647545,0.7218661000952125,920.5650629999582,,,,,,,,25,C,2023-12-13_17h29.30.859,gca_avoidance_task,2022.2.4,144.01792719300497,
positions.xlsx,stimuli.xlsx,stimuli/Social1.png,stimuli/Social2.png,stimuli/Nonsocial2.png,stimuli/Nonsocial1.png,,"(-0.7, -0.5)",cs_plus_s,,,,,0,0,0,0,,,,,,,,,0,7,7,1,,,,,,,,,,,,,,,,,,,,,930.8354846999282,95,none,0,,,935.8422313999617,,,,,,,,25,C,2023-12-13_17h29.30.859,gca_avoidance_task,2022.2.4,144.01792719300497,
positions.xlsx,stimuli.xlsx,stimuli/Social1.png,stimuli/Social2.png,stimuli/Nonsocial2.png,stimuli/Nonsocial1.png,,"(-0.7, 0.5)",cs_plus_ns,,,,,0,0,0,0,,,,,,,,,0,8,8,8,,,,,,,,,,,,,,,,,,,,,945.5571326999925,95,none,0,,,950.5638833999401,,,,,,,,25,C,2023-12-13_17h29.30.859,gca_avoidance_task,2022.2.4,144.01792719300497,
positions.xlsx,stimuli.xlsx,stimuli/Social1.png,stimuli/Social2.png,stimuli/Nonsocial2.png,stimuli/Nonsocial1.png,,"(0.7, 0.5)",cs_minus_s,,,,,0,0,0,0,,,,,,,,,0,9,9,6,,,,,,,,,,,,,,,,,,,,,960.119062099955,100,reward,1,0.43124469998292625,0.4312485000118613,960.5565528000006,,,,,,,,25,C,2023-12-13_17h29.30.859,gca_avoidance_task,2022.2.4,144.01792719300497,
positions.xlsx,stimuli.xlsx,stimuli/Social1.png,stimuli/Social2.png,stimuli/Nonsocial2.png,stimuli/Nonsocial1.png,,"(0.7, -0.5)",cs_minus_ns,,,,,0,0,0,0,,,,,,,,,0,10,10,15,,,,,,,,,,,,,,,,,,,,,970.3825490999734,105,reward,1,0.6667669999878854,0.6667708000168204,971.0561435999116,,,,,,,,25,C,2023-12-13_17h29.30.859,gca_avoidance_task,2022.2.4,144.01792719300497,
positions.xlsx,stimuli.xlsx,stimuli/Social1.png,stimuli/Social2.png,stimuli/Nonsocial2.png,stimuli/Nonsocial1.png,,"(0.7, 0.5)",cs_plus_s,,,,,0,0,0,0,,,,,,,,,0,11,11,2,,,,,,,,,,,,,,,,,,,,,980.2502001000103,105,none,0,,,985.2569911999162,,,,,,,,25,C,2023-12-13_17h29.30.859,gca_avoidance_task,2022.2.4,144.01792719300497,
positions.xlsx,stimuli.xlsx,stimuli/Social1.png,stimuli/Social2.png,stimuli/Nonsocial2.png,stimuli/Nonsocial1.png,,"(-0.7, -0.5)",cs_minus_s,,,,,0,0,0,0,,,,,,,,,0,12,12,5,,,,,,,,,,,,,,,,,,,,,995.0204426000128,110,reward,1,0.5838809999404475,0.5838845999678597,995.6107516000047,,,,,,,,25,C,2023-12-13_17h29.30.859,gca_avoidance_task,2022.2.4,144.01792719300497,
positions.xlsx,stimuli.xlsx,stimuli/Social1.png,stimuli/Social2.png,stimuli/Nonsocial2.png,stimuli/Nonsocial1.png,,"(-0.7, -0.5)",cs_minus_ns,,,,,0,0,0,0,,,,,,,,,0,13,13,13,,,,,,,,,,,,,,,,,,,,,1004.742330399924,115,reward,1,0.36849429993890226,0.368497799965553,1005.1173338999506,,,,,,,,25,C,2023-12-13_17h29.30.859,gca_avoidance_task,2022.2.4,144.01792719300497,
positions.xlsx,stimuli.xlsx,stimuli/Social1.png,stimuli/Social2.png,stimuli/Nonsocial2.png,stimuli/Nonsocial1.png,,"(-0.7, -0.5)",cs_plus_ns,,,,,0,0,0,0,,,,,,,,,0,14,14,9,,,,,,,,,,,,,,,,,,,,,1014.6377683999017,115,none,0,,,1019.6514507000102,,,,,,,,25,C,2023-12-13_17h29.30.859,gca_avoidance_task,2022.2.4,144.01792719300497,
positions.xlsx,stimuli.xlsx,stimuli/Social1.png,stimuli/Social2.png,stimuli/Nonsocial2.png,stimuli/Nonsocial1.png,,"(-0.7, 0.5)",cs_minus_ns,,,,,0,0,0,0,,,,,,,,,0,15,15,12,,,,,,,,,,,,,,,,,,,,,1029.1996909999289,120,reward,1,0.5208707000128925,0.5208743000403047,1029.7274745999603,,,,,,,,25,C,2023-12-13_17h29.30.859,gca_avoidance_task,2022.2.4,144.01792719300497,
positions.xlsx,stimuli.xlsx,stimuli/Social1.png,stimuli/Social2.png,stimuli/Nonsocial2.png,stimuli/Nonsocial1.png,,"(0.7, 0.5)",cs_plus_s,,,,,0,0,0,0,,,,,,,,,1,0,16,2,,,,,,,,,,,,,,,,,,,,,1038.8521109999856,120,none,0,,,1043.8658135998994,,,,,,,,25,C,2023-12-13_17h29.30.859,gca_avoidance_task,2022.2.4,144.01792719300497,
positions.xlsx,stimuli.xlsx,stimuli/Social1.png,stimuli/Social2.png,stimuli/Nonsocial2.png,stimuli/Nonsocial1.png,,"(0.7, -0.5)",cs_minus_s,,,,,0,0,0,0,,,,,,,,,1,1,17,7,,,,,,,,,,,,,,,,,,,,,1053.7751324999845,125,reward,1,0.47253819997422397,0.4725417000008747,1054.2543134000152,,,,,,,,25,C,2023-12-13_17h29.30.859,gca_avoidance_task,2022.2.4,144.01792719300497,
positions.xlsx,stimuli.xlsx,stimuli/Social1.png,stimuli/Social2.png,stimuli/Nonsocial2.png,stimuli/Nonsocial1.png,,"(0.7, -0.5)",cs_plus_s,,,,,0,0,0,0,,,,,,,,,1,2,18,3,,,,,,,,,,,,,,,,,,,,,1064.0108661999693,125,none,0,,,1069.024560199934,,,,,,,,25,C,2023-12-13_17h29.30.859,gca_avoidance_task,2022.2.4,144.01792719300497,
positions.xlsx,stimuli.xlsx,stimuli/Social1.png,stimuli/Social2.png,stimuli/Nonsocial2.png,stimuli/Nonsocial1.png,,"(-0.7, 0.5)",cs_plus_ns,,,,,0,0,0,0,,,,,,,,,1,3,19,8,,,,,,,,,,,,,,,,,,,,,1078.1908736999612,125,none,0,,,1083.1976333999773,,,,,,,,25,C,2023-12-13_17h29.30.859,gca_avoidance_task,2022.2.4,144.01792719300497,
positions.xlsx,stimuli.xlsx,stimuli/Social1.png,stimuli/Social2.png,stimuli/Nonsocial2.png,stimuli/Nonsocial1.png,,"(0.7, 0.5)",cs_minus_ns,,,,,0,0,0,0,,,,,,,,,1,4,20,14,,,,,,,,,,,,,,,,,,,,,1093.2528011999093,130,reward,1,0.5483012000331655,0.5483049000613391,1093.80830959999,,,,,,,,25,C,2023-12-13_17h29.30.859,gca_avoidance_task,2022.2.4,144.01792719300497,
positions.xlsx,stimuli.xlsx,stimuli/Social1.png,stimuli/Social2.png,stimuli/Nonsocial2.png,stimuli/Nonsocial1.png,,"(-0.7, -0.5)",cs_minus_ns,,,,,0,0,0,0,,,,,,,,,1,5,21,13,,,,,,,,,,,,,,,,,,,,,1103.2107136999257,135,reward,1,0.5420954000437632,0.5420990999555215,1103.7592973000137,,,,,,,,25,C,2023-12-13_17h29.30.859,gca_avoidance_task,2022.2.4,144.01792719300497,
positions.xlsx,stimuli.xlsx,stimuli/Social1.png,stimuli/Social2.png,stimuli/Nonsocial2.png,stimuli/Nonsocial1.png,,"(-0.7, -0.5)",cs_minus_s,,,,,0,0,0,0,,,,,,,,,1,6,22,5,,,,,,,,,,,,,,,,,,,,,1113.6200276999734,140,reward,1,0.41703120002057403,0.41703670006245375,1114.0436679999111,,,,,,,,25,C,2023-12-13_17h29.30.859,gca_avoidance_task,2022.2.4,144.01792719300497,
positions.xlsx,stimuli.xlsx,stimuli/Social1.png,stimuli/Social2.png,stimuli/Nonsocial2.png,stimuli/Nonsocial1.png,,"(0.7, 0.5)",cs_minus_s,,,,,0,0,0,0,,,,,,,,,1,7,23,6,,,,,,,,,,,,,,,,,,,,,1123.9668601999292,145,reward,1,0.555823199916631,0.5558275999501348,1124.529341599904,,,,,,,,25,C,2023-12-13_17h29.30.859,gca_avoidance_task,2022.2.4,144.01792719300497,
positions.xlsx,stimuli.xlsx,stimuli/Social1.png,stimuli/Social2.png,stimuli/Nonsocial2.png,stimuli/Nonsocial1.png,,"(0.7, 0.5)",cs_plus_ns,,,,,0,0,0,0,,,,,,,,,1,8,24,10,,,,,,,,,,,,,,,,,,,,,1133.4386983999284,145,none,0,,,1138.4454477999825,,,,,,,,25,C,2023-12-13_17h29.30.859,gca_avoidance_task,2022.2.4,144.01792719300497,
positions.xlsx,stimuli.xlsx,stimuli/Social1.png,stimuli/Social2.png,stimuli/Nonsocial2.png,stimuli/Nonsocial1.png,,"(0.7, -0.5)",cs_minus_ns,,,,,0,0,0,0,,,,,,,,,1,9,25,15,,,,,,,,,,,,,,,,,,,,,1147.0978939000051,150,reward,1,0.5555427999934182,0.5555464000208303,1147.660398399923,,,,,,,,25,C,2023-12-13_17h29.30.859,gca_avoidance_task,2022.2.4,144.01792719300497,
positions.xlsx,stimuli.xlsx,stimuli/Social1.png,stimuli/Social2.png,stimuli/Nonsocial2.png,stimuli/Nonsocial1.png,,"(-0.7, 0.5)",cs_minus_ns,,,,,0,0,0,0,,,,,,,,,1,10,26,12,,,,,,,,,,,,,,,,,,,,,1156.6669845000142,155,reward,1,0.5072227999335155,0.5072264999616891,1157.1808398999274,,,,,,,,25,C,2023-12-13_17h29.30.859,gca_avoidance_task,2022.2.4,144.01792719300497,
positions.xlsx,stimuli.xlsx,stimuli/Social1.png,stimuli/Social2.png,stimuli/Nonsocial2.png,stimuli/Nonsocial1.png,,"(-0.7, 0.5)",cs_minus_s,,,,,0,0,0,0,,,,,,,,,1,11,27,4,,,,,,,,,,,,,,,,,,,,,1166.534674800001,160,reward,1,0.4517679000273347,0.4517716000555083,1166.9929801999824,,,,,,,,25,C,2023-12-13_17h29.30.859,gca_avoidance_task,2022.2.4,144.01792719300497,
positions.xlsx,stimuli.xlsx,stimuli/Social1.png,stimuli/Social2.png,stimuli/Nonsocial2.png,stimuli/Nonsocial1.png,,"(-0.7, 0.5)",cs_plus_s,,,,,0,0,0,0,,,,,,,,,1,12,28,0,,,,,,,,,,,,,,,,,,,,,1176.687021199963,160,none,0,,,1181.6938000000082,,,,,,,,25,C,2023-12-13_17h29.30.859,gca_avoidance_task,2022.2.4,144.01792719300497,
positions.xlsx,stimuli.xlsx,stimuli/Social1.png,stimuli/Social2.png,stimuli/Nonsocial2.png,stimuli/Nonsocial1.png,,"(-0.7, -0.5)",cs_plus_s,,,,,0,0,0,0,,,,,,,,,1,13,29,1,,,,,,,,,,,,,,,,,,,,,1191.2142317999387,160,none,0,,,1196.2210126999998,,,,,,,,25,C,2023-12-13_17h29.30.859,gca_avoidance_task,2022.2.4,144.01792719300497,
positions.xlsx,stimuli.xlsx,stimuli/Social1.png,stimuli/Social2.png,stimuli/Nonsocial2.png,stimuli/Nonsocial1.png,,"(0.7, -0.5)",cs_plus_ns,,,,,0,0,0,0,,,,,,,,,1,14,30,11,,,,,,,,,,,,,,,,,,,,,1205.713672599988,160,none,0,,,1210.720461799996,,,,,,,,25,C,2023-12-13_17h29.30.859,gca_avoidance_task,2022.2.4,144.01792719300497,
positions.xlsx,stimuli.xlsx,stimuli/Social1.png,stimuli/Social2.png,stimuli/Nonsocial2.png,stimuli/Nonsocial1.png,,"(-0.7, -0.5)",cs_plus_ns,,,,,0,0,0,0,,,,,,,,,1,15,31,9,,,,,,,,,,,,,,,,,,,,,1220.0048067999305,160,none,0,,,1225.0115581999999,,,,,,,,25,C,2023-12-13_17h29.30.859,gca_avoidance_task,2022.2.4,144.01792719300497,
positions.xlsx,stimuli.xlsx,stimuli/Social1.png,stimuli/Social2.png,stimuli/Nonsocial2.png,stimuli/Nonsocial1.png,,"(-0.7, 0.5)",cs_minus_s,,,,,0,0,0,0,,,,,,,,,2,0,32,4,,,,,,,,,,,,,,,,,,,,,1234.5598104000092,165,reward,1,0.5901032000547275,0.5901069999672472,1235.1569949999684,,,,,,,,25,C,2023-12-13_17h29.30.859,gca_avoidance_task,2022.2.4,144.01792719300497,
positions.xlsx,stimuli.xlsx,stimuli/Social1.png,stimuli/Social2.png,stimuli/Nonsocial2.png,stimuli/Nonsocial1.png,,"(0.7, 0.5)",cs_minus_s,,,,,0,0,0,0,,,,,,,,,2,1,33,6,,,,,,,,,,,,,,,,,,,,,1243.85803699994,170,reward,1,0.4865831999341026,0.48658699996303767,1244.3510921999114,,,,,,,,25,C,2023-12-13_17h29.30.859,gca_avoidance_task,2022.2.4,144.01792719300497,
positions.xlsx,stimuli.xlsx,stimuli/Social1.png,stimuli/Social2.png,stimuli/Nonsocial2.png,stimuli/Nonsocial1.png,,"(-0.7, 0.5)",cs_plus_ns,,,,,0,0,0,0,,,,,,,,,2,2,34,8,,,,,,,,,,,,,,,,,,,,,1253.5729452999076,170,none,0,,,1258.5797357999254,,,,,,,,25,C,2023-12-13_17h29.30.859,gca_avoidance_task,2022.2.4,144.01792719300497,
positions.xlsx,stimuli.xlsx,stimuli/Social1.png,stimuli/Social2.png,stimuli/Nonsocial2.png,stimuli/Nonsocial1.png,,"(0.7, 0.5)",cs_plus_ns,,,,,0,0,0,0,,,,,,,,,2,3,35,10,,,,,,,,,,,,,,,,,,,,,1267.5584900999675,170,none,0,,,1272.5652597999433,,,,,,,,25,C,2023-12-13_17h29.30.859,gca_avoidance_task,2022.2.4,144.01792719300497,
positions.xlsx,stimuli.xlsx,stimuli/Social1.png,stimuli/Social2.png,stimuli/Nonsocial2.png,stimuli/Nonsocial1.png,,"(0.7, -0.5)",cs_minus_s,,,,,0,0,0,0,,,,,,,,,2,4,36,7,,,,,,,,,,,,,,,,,,,,,1282.356549399905,175,reward,1,0.5139004999073222,0.513903999933973,1282.8773908999283,,,,,,,,25,C,2023-12-13_17h29.30.859,gca_avoidance_task,2022.2.4,144.01792719300497,
positions.xlsx,stimuli.xlsx,stimuli/Social1.png,stimuli/Social2.png,stimuli/Nonsocial2.png,stimuli/Nonsocial1.png,,"(-0.7, -0.5)",cs_plus_ns,,,,,0,0,0,0,,,,,,,,,2,5,37,9,,,,,,,,,,,,,,,,,,,,,1292.668646599981,175,none,0,,,1297.6759438998997,,,,,,,,25,C,2023-12-13_17h29.30.859,gca_avoidance_task,2022.2.4,144.01792719300497,
positions.xlsx,stimuli.xlsx,stimuli/Social1.png,stimuli/Social2.png,stimuli/Nonsocial2.png,stimuli/Nonsocial1.png,,"(-0.7, 0.5)",cs_plus_s,,,,,0,0,0,0,,,,,,,,,2,6,38,0,,,,,,,,,,,,,,,,,,,,,1307.3625415000133,175,none,0,,,1312.3692821000004,,,,,,,,25,C,2023-12-13_17h29.30.859,gca_avoidance_task,2022.2.4,144.01792719300497,
positions.xlsx,stimuli.xlsx,stimuli/Social1.png,stimuli/Social2.png,stimuli/Nonsocial2.png,stimuli/Nonsocial1.png,,"(0.7, 0.5)",cs_minus_ns,,,,,0,0,0,0,,,,,,,,,2,7,39,14,,,,,,,,,,,,,,,,,,,,,1322.0425068999175,180,reward,1,0.49977470003068447,0.4997784000588581,1322.5494672999484,,,,,,,,25,C,2023-12-13_17h29.30.859,gca_avoidance_task,2022.2.4,144.01792719300497,
positions.xlsx,stimuli.xlsx,stimuli/Social1.png,stimuli/Social2.png,stimuli/Nonsocial2.png,stimuli/Nonsocial1.png,,"(-0.7, -0.5)",cs_minus_ns,,,,,0,0,0,0,,,,,,,,,2,8,40,13,,,,,,,,,,,,,,,,,,,,,1332.2990740999812,185,reward,1,0.556068200035952,0.5560721000656486,1332.8615408999613,,,,,,,,25,C,2023-12-13_17h29.30.859,gca_avoidance_task,2022.2.4,144.01792719300497,
positions.xlsx,stimuli.xlsx,stimuli/Social1.png,stimuli/Social2.png,stimuli/Nonsocial2.png,stimuli/Nonsocial1.png,,"(0.7, -0.5)",cs_plus_ns,,,,,0,0,0,0,,,,,,,,,2,9,41,11,,,,,,,,,,,,,,,,,,,,,1342.5069919999223,185,none,0,,,1347.5137499999255,,,,,,,,25,C,2023-12-13_17h29.30.859,gca_avoidance_task,2022.2.4,144.01792719300497,
positions.xlsx,stimuli.xlsx,stimuli/Social1.png,stimuli/Social2.png,stimuli/Nonsocial2.png,stimuli/Nonsocial1.png,,"(-0.7, 0.5)",cs_minus_ns,,,,,0,0,0,0,,,,,,,,,2,10,42,12,,,,,,,,,,,,,,,,,,,,,1356.652272199979,190,reward,1,0.6328798999311402,0.6328840999631211,1357.291141499998,,,,,,,,25,C,2023-12-13_17h29.30.859,gca_avoidance_task,2022.2.4,144.01792719300497,
positions.xlsx,stimuli.xlsx,stimuli/Social1.png,stimuli/Social2.png,stimuli/Nonsocial2.png,stimuli/Nonsocial1.png,,"(-0.7, -0.5)",cs_plus_s,,,,,0,0,0,0,,,,,,,,,2,11,43,1,,,,,,,,,,,,,,,,,,,,,1366.3949992000125,190,none,0,,,1371.401724700001,,,,,,,,25,C,2023-12-13_17h29.30.859,gca_avoidance_task,2022.2.4,144.01792719300497,
positions.xlsx,stimuli.xlsx,stimuli/Social1.png,stimuli/Social2.png,stimuli/Nonsocial2.png,stimuli/Nonsocial1.png,,"(0.7, -0.5)",cs_plus_s,,,,,0,0,0,0,,,,,,,,,2,12,44,3,,,,,,,,,,,,,,,,,,,,,1381.4082557999063,190,none,0,,,1386.415042800014,,,,,,,,25,C,2023-12-13_17h29.30.859,gca_avoidance_task,2022.2.4,144.01792719300497,
positions.xlsx,stimuli.xlsx,stimuli/Social1.png,stimuli/Social2.png,stimuli/Nonsocial2.png,stimuli/Nonsocial1.png,,"(0.7, -0.5)",cs_minus_ns,,,,,0,0,0,0,,,,,,,,,2,13,45,15,,,,,,,,,,,,,,,,,,,,,1395.9771501999348,195,reward,1,0.618319800007157,0.6183235000353307,1396.6021384999622,,,,,,,,25,C,2023-12-13_17h29.30.859,gca_avoidance_task,2022.2.4,144.01792719300497,
positions.xlsx,stimuli.xlsx,stimuli/Social1.png,stimuli/Social2.png,stimuli/Nonsocial2.png,stimuli/Nonsocial1.png,,"(-0.7, -0.5)",cs_minus_s,,,,,0,0,0,0,,,,,,,,,2,14,46,5,,,,,,,,,,,,,,,,,,,,,1406.6989524000091,200,reward,1,0.7151857999851927,0.7151894000126049,1407.421160699916,,,,,,,,25,C,2023-12-13_17h29.30.859,gca_avoidance_task,2022.2.4,144.01792719300497,
positions.xlsx,stimuli.xlsx,stimuli/Social1.png,stimuli/Social2.png,stimuli/Nonsocial2.png,stimuli/Nonsocial1.png,,"(0.7, 0.5)",cs_plus_s,,,,,0,0,0,0,,,,,,,,,2,15,47,2,,,,,,,,,,,,,,,,,,,,,1417.2055150999222,200,none,0,,,1422.2191860999446,,,,,,,,25,C,2023-12-13_17h29.30.859,gca_avoidance_task,2022.2.4,144.01792719300497,
positions.xlsx,stimuli.xlsx,stimuli/Social1.png,stimuli/Social2.png,stimuli/Nonsocial2.png,stimuli/Nonsocial1.png,,"(0.7, -0.5)",cs_minus_s,,,,,0,0,0,0,,,,,,,,,3,0,48,7,,,,,,,,,,,,,,,,,,,,,1431.6632870999165,205,reward,1,0.569705200032331,0.5697090000612661,1432.2396245999262,,,,,,,,25,C,2023-12-13_17h29.30.859,gca_avoidance_task,2022.2.4,144.01792719300497,
positions.xlsx,stimuli.xlsx,stimuli/Social1.png,stimuli/Social2.png,stimuli/Nonsocial2.png,stimuli/Nonsocial1.png,,"(0.7, 0.5)",cs_minus_ns,,,,,0,0,0,0,,,,,,,,,3,1,49,14,,,,,,,,,,,,,,,,,,,,,1442.6281549999258,210,reward,1,0.5278534999815747,0.5278576000127941,1443.1628749999218,,,,,,,,25,C,2023-12-13_17h29.30.859,gca_avoidance_task,2022.2.4,144.01792719300497,
positions.xlsx,stimuli.xlsx,stimuli/Social1.png,stimuli/Social2.png,stimuli/Nonsocial2.png,stimuli/Nonsocial1.png,,"(-0.7, -0.5)",cs_plus_ns,,,,,0,0,0,0,,,,,,,,,3,2,50,9,,,,,,,,,,,,,,,,,,,,,1453.0722353999736,210,none,0,,,1458.085855399957,,,,,,,,25,C,2023-12-13_17h29.30.859,gca_avoidance_task,2022.2.4,144.01792719300497,
positions.xlsx,stimuli.xlsx,stimuli/Social1.png,stimuli/Social2.png,stimuli/Nonsocial2.png,stimuli/Nonsocial1.png,,"(0.7, -0.5)",cs_plus_s,,,,,0,0,0,0,,,,,,,,,3,3,51,3,,,,,,,,,,,,,,,,,,,,,1467.6549275999423,210,none,0,,,1472.6616988999303,,,,,,,,25,C,2023-12-13_17h29.30.859,gca_avoidance_task,2022.2.4,144.01792719300497,
positions.xlsx,stimuli.xlsx,stimuli/Social1.png,stimuli/Social2.png,stimuli/Nonsocial2.png,stimuli/Nonsocial1.png,,"(0.7, -0.5)",cs_minus_ns,,,,,0,0,0,0,,,,,,,,,3,4,52,15,,,,,,,,,,,,,,,,,,,,,1482.8557325999718,215,reward,1,0.5419190999818966,0.5419227000093088,1483.4043263999047,,,,,,,,25,C,2023-12-13_17h29.30.859,gca_avoidance_task,2022.2.4,144.01792719300497,
positions.xlsx,stimuli.xlsx,stimuli/Social1.png,stimuli/Social2.png,stimuli/Nonsocial2.png,stimuli/Nonsocial1.png,,"(0.7, 0.5)",cs_minus_s,,,,,0,0,0,0,,,,,,,,,3,5,53,6,,,,,,,,,,,,,,,,,,,,,1493.6191735999892,220,reward,1,0.5907209999859333,0.5907244000118226,1494.2163932999829,,,,,,,,25,C,2023-12-13_17h29.30.859,gca_avoidance_task,2022.2.4,144.01792719300497,
positions.xlsx,stimuli.xlsx,stimuli/Social1.png,stimuli/Social2.png,stimuli/Nonsocial2.png,stimuli/Nonsocial1.png,,"(-0.7, 0.5)",cs_minus_ns,,,,,0,0,0,0,,,,,,,,,3,6,54,12,,,,,,,,,,,,,,,,,,,,,1504.3826793999178,225,reward,1,0.5278157000429928,0.5278196000726894,1504.9173691999167,,,,,,,,25,C,2023-12-13_17h29.30.859,gca_avoidance_task,2022.2.4,144.01792719300497,
positions.xlsx,stimuli.xlsx,stimuli/Social1.png,stimuli/Social2.png,stimuli/Nonsocial2.png,stimuli/Nonsocial1.png,,"(-0.7, -0.5)",cs_minus_s,,,,,0,0,0,0,,,,,,,,,3,7,55,5,,,,,,,,,,,,,,,,,,,,,1513.9031367999269,230,reward,1,0.5765383000252768,0.5765419999370351,1514.4864636999555,,,,,,,,25,C,2023-12-13_17h29.30.859,gca_avoidance_task,2022.2.4,144.01792719300497,
positions.xlsx,stimuli.xlsx,stimuli/Social1.png,stimuli/Social2.png,stimuli/Nonsocial2.png,stimuli/Nonsocial1.png,,"(-0.7, -0.5)",cs_plus_s,,,,,0,0,0,0,,,,,,,,,3,8,56,1,,,,,,,,,,,,,,,,,,,,,1524.048603800009,230,none,0,,,1529.0553684999468,,,,,,,,25,C,2023-12-13_17h29.30.859,gca_avoidance_task,2022.2.4,144.01792719300497,
positions.xlsx,stimuli.xlsx,stimuli/Social1.png,stimuli/Social2.png,stimuli/Nonsocial2.png,stimuli/Nonsocial1.png,,"(0.7, -0.5)",cs_plus_ns,,,,,0,0,0,0,,,,,,,,,3,9,57,11,,,,,,,,,,,,,,,,,,,,,1538.2494637999916,230,none,0,,,1543.256224899902,,,,,,,,25,C,2023-12-13_17h29.30.859,gca_avoidance_task,2022.2.4,144.01792719300497,
positions.xlsx,stimuli.xlsx,stimuli/Social1.png,stimuli/Social2.png,stimuli/Nonsocial2.png,stimuli/Nonsocial1.png,,"(-0.7, 0.5)",cs_plus_s,,,,,0,0,0,0,,,,,,,,,3,10,58,0,,,,,,,,,,,,,,,,,,,,,1552.6863694000058,230,none,0,,,1557.69313099992,,,,,,,,25,C,2023-12-13_17h29.30.859,gca_avoidance_task,2022.2.4,144.01792719300497,
positions.xlsx,stimuli.xlsx,stimuli/Social1.png,stimuli/Social2.png,stimuli/Nonsocial2.png,stimuli/Nonsocial1.png,,"(-0.7, 0.5)",cs_minus_s,,,,,0,0,0,0,,,,,,,,,3,11,59,4,,,,,,,,,,,,,,,,,,,,,1567.5191551999887,235,reward,1,0.54174520005472,0.5417495000874624,1568.0677250999724,,,,,,,,25,C,2023-12-13_17h29.30.859,gca_avoidance_task,2022.2.4,144.01792719300497,
positions.xlsx,stimuli.xlsx,stimuli/Social1.png,stimuli/Social2.png,stimuli/Nonsocial2.png,stimuli/Nonsocial1.png,,"(0.7, 0.5)",cs_plus_ns,,,,,0,0,0,0,,,,,,,,,3,12,60,10,,,,,,,,,,,,,,,,,,,,,1577.3312482999172,235,none,0,,,1582.3380268999608,,,,,,,,25,C,2023-12-13_17h29.30.859,gca_avoidance_task,2022.2.4,144.01792719300497,
positions.xlsx,stimuli.xlsx,stimuli/Social1.png,stimuli/Social2.png,stimuli/Nonsocial2.png,stimuli/Nonsocial1.png,,"(-0.7, -0.5)",cs_minus_ns,,,,,0,0,0,0,,,,,,,,,3,13,61,13,,,,,,,,,,,,,,,,,,,,,1591.8237627999624,240,reward,1,0.5069251999957487,0.5069287999067456,1592.3376159999752,,,,,,,,25,C,2023-12-13_17h29.30.859,gca_avoidance_task,2022.2.4,144.01792719300497,
positions.xlsx,stimuli.xlsx,stimuli/Social1.png,stimuli/Social2.png,stimuli/Nonsocial2.png,stimuli/Nonsocial1.png,,"(-0.7, 0.5)",cs_plus_ns,,,,,0,0,0,0,,,,,,,,,3,14,62,8,,,,,,,,,,,,,,,,,,,,,1601.1150444999803,240,none,0,,,1606.1287312000059,,,,,,,,25,C,2023-12-13_17h29.30.859,gca_avoidance_task,2022.2.4,144.01792719300497,
positions.xlsx,stimuli.xlsx,stimuli/Social1.png,stimuli/Social2.png,stimuli/Nonsocial2.png,stimuli/Nonsocial1.png,,"(0.7, 0.5)",cs_plus_s,,,,,0,0,0,0,,,,,,,,,3,15,63,2,,,,,,,,,,,,,,,,,,,,,1615.1839761999436,240,none,0,,,1620.1907192999497,,,,,,,,25,C,2023-12-13_17h29.30.859,gca_avoidance_task,2022.2.4,144.01792719300497,
positions.xlsx,stimuli.xlsx,stimuli/Social1.png,stimuli/Social2.png,stimuli/Nonsocial2.png,stimuli/Nonsocial1.png,,"(-0.7, 0.5)",cs_plus_s,,,,,0,0,0,0,,,,,,,,,4,0,64,0,,,,,,,,,,,,,,,,,,,,,1628.88481269998,240,none,0,,,1633.891581999953,,,,,,,,25,C,2023-12-13_17h29.30.859,gca_avoidance_task,2022.2.4,144.01792719300497,
positions.xlsx,stimuli.xlsx,stimuli/Social1.png,stimuli/Social2.png,stimuli/Nonsocial2.png,stimuli/Nonsocial1.png,,"(-0.7, 0.5)",cs_minus_ns,,,,,0,0,0,0,,,,,,,,,4,1,65,12,,,,,,,,,,,,,,,,,,,,,1644.06479460001,245,reward,1,0.5070755000924692,0.5070793000049889,1644.5787016999675,,,,,,,,25,C,2023-12-13_17h29.30.859,gca_avoidance_task,2022.2.4,144.01792719300497,
positions.xlsx,stimuli.xlsx,stimuli/Social1.png,stimuli/Social2.png,stimuli/Nonsocial2.png,stimuli/Nonsocial1.png,,"(0.7, 0.5)",cs_plus_s,,,,,0,0,0,0,,,,,,,,,4,2,66,2,,,,,,,,,,,,,,,,,,,,,1654.772702199989,245,none,0,,,1659.7864438999677,,,,,,,,25,C,2023-12-13_17h29.30.859,gca_avoidance_task,2022.2.4,144.01792719300497,
positions.xlsx,stimuli.xlsx,stimuli/Social1.png,stimuli/Social2.png,stimuli/Nonsocial2.png,stimuli/Nonsocial1.png,,"(0.7, -0.5)",cs_minus_ns,,,,,0,0,0,0,,,,,,,,,4,3,67,15,,,,,,,,,,,,,,,,,,,,,1669.3138069999404,250,reward,1,0.5767275000689551,0.5767311999807134,1669.8971461999463,,,,,,,,25,C,2023-12-13_17h29.30.859,gca_avoidance_task,2022.2.4,144.01792719300497,
positions.xlsx,stimuli.xlsx,stimuli/Social1.png,stimuli/Social2.png,stimuli/Nonsocial2.png,stimuli/Nonsocial1.png,,"(0.7, -0.5)",cs_plus_s,,,,,0,0,0,0,,,,,,,,,4,4,68,3,,,,,,,,,,,,,,,,,,,,,1678.8968140999787,250,none,0,,,1683.903536699945,,,,,,,,25,C,2023-12-13_17h29.30.859,gca_avoidance_task,2022.2.4,144.01792719300497,
positions.xlsx,stimuli.xlsx,stimuli/Social1.png,stimuli/Social2.png,stimuli/Nonsocial2.png,stimuli/Nonsocial1.png,,"(-0.7, -0.5)",cs_plus_s,,,,,0,0,0,0,,,,,,,,,4,5,69,1,,,,,,,,,,,,,,,,,,,,,1693.9309207999613,250,none,0,,,1698.9377302000066,,,,,,,,25,C,2023-12-13_17h29.30.859,gca_avoidance_task,2022.2.4,144.01792719300497,
positions.xlsx,stimuli.xlsx,stimuli/Social1.png,stimuli/Social2.png,stimuli/Nonsocial2.png,stimuli/Nonsocial1.png,,"(-0.7, -0.5)",cs_minus_s,,,,,0,0,0,0,,,,,,,,,4,6,70,5,,,,,,,,,,,,,,,,,,,,,1708.4025667000096,255,reward,1,0.4796282999450341,0.47963209997396916,1708.888733599917,,,,,,,,25,C,2023-12-13_17h29.30.859,gca_avoidance_task,2022.2.4,144.01792719300497,
positions.xlsx,stimuli.xlsx,stimuli/Social1.png,stimuli/Social2.png,stimuli/Nonsocial2.png,stimuli/Nonsocial1.png,,"(-0.7, 0.5)",cs_minus_s,,,,,0,0,0,0,,,,,,,,,4,7,71,4,,,,,,,,,,,,,,,,,,,,,1718.416072599939,260,reward,1,0.5417746000457555,0.5417783000739291,1718.9646719999146,,,,,,,,25,C,2023-12-13_17h29.30.859,gca_avoidance_task,2022.2.4,144.01792719300497,
positions.xlsx,stimuli.xlsx,stimuli/Social1.png,stimuli/Social2.png,stimuli/Nonsocial2.png,stimuli/Nonsocial1.png,,"(0.7, 0.5)",cs_minus_s,,,,,0,0,0,0,,,,,,,,,4,8,72,6,,,,,,,,,,,,,,,,,,,,,1728.985116399941,265,reward,1,0.5143173999385908,0.514320999966003,1729.5059497999027,,,,,,,,25,C,2023-12-13_17h29.30.859,gca_avoidance_task,2022.2.4,144.01792719300497,
positions.xlsx,stimuli.xlsx,stimuli/Social1.png,stimuli/Social2.png,stimuli/Nonsocial2.png,stimuli/Nonsocial1.png,,"(0.7, 0.5)",cs_plus_ns,,,,,0,0,0,0,,,,,,,,,4,9,73,10,,,,,,,,,,,,,,,,,,,,,1739.116675499943,265,none,0,,,1744.1234436999075,,,,,,,,25,C,2023-12-13_17h29.30.859,gca_avoidance_task,2022.2.4,144.01792719300497,
positions.xlsx,stimuli.xlsx,stimuli/Social1.png,stimuli/Social2.png,stimuli/Nonsocial2.png,stimuli/Nonsocial1.png,,"(-0.7, 0.5)",cs_plus_ns,,,,,0,0,0,0,,,,,,,,,4,10,74,8,,,,,,,,,,,,,,,,,,,,,1754.0189002999105,265,none,0,,,1759.0256438999204,,,,,,,,25,C,2023-12-13_17h29.30.859,gca_avoidance_task,2022.2.4,144.01792719300497,
positions.xlsx,stimuli.xlsx,stimuli/Social1.png,stimuli/Social2.png,stimuli/Nonsocial2.png,stimuli/Nonsocial1.png,,"(-0.7, -0.5)",cs_plus_ns,,,,,0,0,0,0,,,,,,,,,4,11,75,9,,,,,,,,,,,,,,,,,,,,,1768.6919377999147,265,none,0,,,1773.6986991999438,,,,,,,,25,C,2023-12-13_17h29.30.859,gca_avoidance_task,2022.2.4,144.01792719300497,
positions.xlsx,stimuli.xlsx,stimuli/Social1.png,stimuli/Social2.png,stimuli/Nonsocial2.png,stimuli/Nonsocial1.png,,"(-0.7, -0.5)",cs_minus_ns,,,,,0,0,0,0,,,,,,,,,4,12,76,13,,,,,,,,,,,,,,,,,,,,,1783.3302780999802,270,reward,1,0.5007009000983089,0.5007048000115901,1783.8371925000101,,,,,,,,25,C,2023-12-13_17h29.30.859,gca_avoidance_task,2022.2.4,144.01792719300497,
positions.xlsx,stimuli.xlsx,stimuli/Social1.png,stimuli/Social2.png,stimuli/Nonsocial2.png,stimuli/Nonsocial1.png,,"(0.7, -0.5)",cs_plus_ns,,,,,0,0,0,0,,,,,,,,,4,13,77,11,,,,,,,,,,,,,,,,,,,,,1792.9548915999476,270,none,0,,,1797.968586999923,,,,,,,,25,C,2023-12-13_17h29.30.859,gca_avoidance_task,2022.2.4,144.01792719300497,
positions.xlsx,stimuli.xlsx,stimuli/Social1.png,stimuli/Social2.png,stimuli/Nonsocial2.png,stimuli/Nonsocial1.png,,"(0.7, -0.5)",cs_minus_s,,,,,0,0,0,0,,,,,,,,,4,14,78,7,,,,,,,,,,,,,,,,,,,,,1807.371020099963,275,reward,1,0.48603509995155036,0.4860385999782011,1807.8640209999867,,,,,,,,25,C,2023-12-13_17h29.30.859,gca_avoidance_task,2022.2.4,144.01792719300497,
positions.xlsx,stimuli.xlsx,stimuli/Social1.png,stimuli/Social2.png,stimuli/Nonsocial2.png,stimuli/Nonsocial1.png,,"(0.7, 0.5)",cs_minus_ns,,,,,0,0,0,0,,,,,,,,,4,15,79,14,,,,,,,,,,,,,,,,,,,,,1816.6761841999833,280,reward,1,0.4588482000399381,0.46572049998212606,1817.1484613999492,,,,,,,,25,C,2023-12-13_17h29.30.859,gca_avoidance_task,2022.2.4,144.01792719300497,
positions.xlsx,stimuli.xlsx,stimuli/Social1.png,stimuli/Social2.png,stimuli/Nonsocial2.png,stimuli/Nonsocial1.png,cs_plus_s,,,,,,,0,0,0,0,,,,,,,,,,,,,0,0,0,0,,,,,,,,,,,,,1830.9672769999597,1.0,4.135414800024591,,,,,,,,,7.0,5.7155723999021575,,,,,,25,C,2023-12-13_17h29.30.859,gca_avoidance_task,2022.2.4,144.01792719300497,
positions.xlsx,stimuli.xlsx,stimuli/Social1.png,stimuli/Social2.png,stimuli/Nonsocial2.png,stimuli/Nonsocial1.png,cs_plus_ns,,,,,,,0,0,0,0,,,,,,,,,,,,,0,1,1,1,,,,,,,,,,,,,1836.286536599975,1.0,2.131842300062999,,,,,,,,,,,,,,,,25,C,2023-12-13_17h29.30.859,gca_avoidance_task,2022.2.4,144.01792719300497,
positions.xlsx,stimuli.xlsx,stimuli/Social1.png,stimuli/Social2.png,stimuli/Nonsocial2.png,stimuli/Nonsocial1.png,cs_minus_s,,,,,,,0,0,0,0,,,,,,,,,,,,,0,2,2,2,,,,,,,,,,,,,1839.3975489999866,10.0,2.8976004000287503,,,,,,,,,,,,,,,,25,C,2023-12-13_17h29.30.859,gca_avoidance_task,2022.2.4,144.01792719300497,
positions.xlsx,stimuli.xlsx,stimuli/Social1.png,stimuli/Social2.png,stimuli/Nonsocial2.png,stimuli/Nonsocial1.png,cs_minus_ns,,,,,,,0,0,0,0,,,,,,,,,,,,,0,3,3,3,,,,,,,,,,,,,1843.2029544999823,10.0,2.327033399953507,,,,,,,,,,,,,,,,25,C,2023-12-13_17h29.30.859,gca_avoidance_task,2022.2.4,144.01792719300497,
positions.xlsx,stimuli.xlsx,stimuli/Social1.png,stimuli/Social2.png,stimuli/Nonsocial2.png,stimuli/Nonsocial1.png,cs_minus_s,,,,,,,0,0,0,0,,,,,,,,,,,,,,,,,0,0,0,2,,,,,,,,,,,,,,,,,,,,,,1846.2653236999176,1854.0914029999403,6,0.02168640005402267,2.388633699971251,25,C,2023-12-13_17h29.30.859,gca_avoidance_task,2022.2.4,144.01792719300497,
positions.xlsx,stimuli.xlsx,stimuli/Social1.png,stimuli/Social2.png,stimuli/Nonsocial2.png,stimuli/Nonsocial1.png,cs_plus_ns,,,,,,,0,0,0,0,,,,,,,,,,,,,,,,,0,1,1,1,,,,,,,,,,,,,,,,,,,,,,,1869.1533366999356,7,0.014462999999523163,0.8615408000769094,25,C,2023-12-13_17h29.30.859,gca_avoidance_task,2022.2.4,144.01792719300497,
positions.xlsx,stimuli.xlsx,stimuli/Social1.png,stimuli/Social2.png,stimuli/Nonsocial2.png,stimuli/Nonsocial1.png,cs_minus_ns,,,,,,,0,0,0,0,,,,,,,,,,,,,,,,,0,2,2,3,,,,,,,,,,,,,,,,,,,,,,,1884.3819175999379,5,0.10467020003125072,1.4447856999468058,25,C,2023-12-13_17h29.30.859,gca_avoidance_task,2022.2.4,144.01792719300497,
positions.xlsx,stimuli.xlsx,stimuli/Social1.png,stimuli/Social2.png,stimuli/Nonsocial2.png,stimuli/Nonsocial1.png,cs_plus_s,,,,,,,0,0,0,0,,,,,,,,,,,,,,,,,0,3,3,0,,,,,,,,,,,,,,,,,,,,,,,1899.131375099998,5,0.013698399998247623,1.215550799970515,25,C,2023-12-13_17h29.30.859,gca_avoidance_task,2022.2.4,144.01792719300497,
positions.xlsx,stimuli.xlsx,stimuli/Social1.png,stimuli/Social2.png,stimuli/Nonsocial2.png,stimuli/Nonsocial1.png,cs_plus_s,,,,,,,0,0,0,0,,,,,,,,,,,,,,,,,1,0,4,0,,,,,,,,,,,,,,,,,,,,,,,1913.804397800006,8,0.013437499990686774,0.5835978999966756,25,C,2023-12-13_17h29.30.859,gca_avoidance_task,2022.2.4,144.01792719300497,
positions.xlsx,stimuli.xlsx,stimuli/Social1.png,stimuli/Social2.png,stimuli/Nonsocial2.png,stimuli/Nonsocial1.png,cs_minus_s,,,,,,,0,0,0,0,,,,,,,,,,,,,,,,,1,1,5,2,,,,,,,,,,,,,,,,,,,,,,,1929.1440784999868,7,0.013994100037962198,1.2989980999846011,25,C,2023-12-13_17h29.30.859,gca_avoidance_task,2022.2.4,144.01792719300497,
positions.xlsx,stimuli.xlsx,stimuli/Social1.png,stimuli/Social2.png,stimuli/Nonsocial2.png,stimuli/Nonsocial1.png,cs_plus_ns,,,,,,,0,0,0,0,,,,,,,,,,,,,,,,,1,2,6,1,,,,,,,,,,,,,,,,,,,,,,,1944.365707699908,5,0.014068599906750023,0.9446959999622777,25,C,2023-12-13_17h29.30.859,gca_avoidance_task,2022.2.4,144.01792719300497,
positions.xlsx,stimuli.xlsx,stimuli/Social1.png,stimuli/Social2.png,stimuli/Nonsocial2.png,stimuli/Nonsocial1.png,cs_minus_ns,,,,,,,0,0,0,0,,,,,,,,,,,,,,,,,1,3,7,3,,,,,,,,,,,,,,,,,,,,,,,1959.55262829992,5,0.01573149999603629,1.243350000004284,25,C,2023-12-13_17h29.30.859,gca_avoidance_task,2022.2.4,144.01792719300497,
positions.xlsx,stimuli.xlsx,stimuli/Social1.png,stimuli/Social2.png,stimuli/Nonsocial2.png,stimuli/Nonsocial1.png,cs_plus_ns,,,,,,,0,0,0,0,,,,,,,,,,,,,,,,,2,0,8,1,,,,,,,,,,,,,,,,,,,,,,,1974.9339933999581,6,0.015279100043699145,0.9587700000265613,25,C,2023-12-13_17h29.30.859,gca_avoidance_task,2022.2.4,144.01792719300497,
positions.xlsx,stimuli.xlsx,stimuli/Social1.png,stimuli/Social2.png,stimuli/Nonsocial2.png,stimuli/Nonsocial1.png,cs_minus_s,,,,,,,0,0,0,0,,,,,,,,,,,,,,,,,2,1,9,2,,,,,,,,,,,,,,,,,,,,,,,1989.7389601999894,7,0.013609200017526746,2.0698179999599233,25,C,2023-12-13_17h29.30.859,gca_avoidance_task,2022.2.4,144.01792719300497,
positions.xlsx,stimuli.xlsx,stimuli/Social1.png,stimuli/Social2.png,stimuli/Nonsocial2.png,stimuli/Nonsocial1.png,cs_plus_s,,,,,,,0,0,0,0,,,,,,,,,,,,,,,,,2,2,10,0,,,,,,,,,,,,,,,,,,,,,,,2004.418952899985,5,0.013330899993889034,2.20879479998257,25,C,2023-12-13_17h29.30.859,gca_avoidance_task,2022.2.4,144.01792719300497,
positions.xlsx,stimuli.xlsx,stimuli/Social1.png,stimuli/Social2.png,stimuli/Nonsocial2.png,stimuli/Nonsocial1.png,cs_minus_ns,,,,,,,0,0,0,0,,,,,,,,,,,,,,,,,2,3,11,3,,,,,,,,,,,,,,,,,,,,,,,2019.79335729999,6,0.014349799952469766,1.285176399978809,25,C,2023-12-13_17h29.30.859,gca_avoidance_task,2022.2.4,144.01792719300497,
positions.xlsx,stimuli.xlsx,stimuli/Social1.png,stimuli/Social2.png,stimuli/Nonsocial2.png,stimuli/Nonsocial1.png,cs_minus_s,,,,,,,0,0,0,0,,,,,,,,,,,,,,,,,3,0,12,2,,,,,,,,,,,,,,,,,,,,,,,2034.480292399996,5,0.013571199961006641,2.5003437999403104,25,C,2023-12-13_17h29.30.859,gca_avoidance_task,2022.2.4,144.01792719300497,
positions.xlsx,stimuli.xlsx,stimuli/Social1.png,stimuli/Social2.png,stimuli/Nonsocial2.png,stimuli/Nonsocial1.png,cs_plus_ns,,,,,,,0,0,0,0,,,,,,,,,,,,,,,,,3,1,13,1,,,,,,,,,,,,,,,,,,,,,,,2049.264441599953,4,0.01383680000435561,1.5558391000377014,25,C,2023-12-13_17h29.30.859,gca_avoidance_task,2022.2.4,144.01792719300497,
positions.xlsx,stimuli.xlsx,stimuli/Social1.png,stimuli/Social2.png,stimuli/Nonsocial2.png,stimuli/Nonsocial1.png,cs_minus_ns,,,,,,,0,0,0,0,,,,,,,,,,,,,,,,,3,2,14,3,,,,,,,,,,,,,,,,,,,,,,,2064.3957882999675,6,0.014229200081899762,1.6462096000323072,25,C,2023-12-13_17h29.30.859,gca_avoidance_task,2022.2.4,144.01792719300497,
positions.xlsx,stimuli.xlsx,stimuli/Social1.png,stimuli/Social2.png,stimuli/Nonsocial2.png,stimuli/Nonsocial1.png,cs_plus_s,,,,,,,0,0,0,0,,,,,,,,,,,,,,,,,3,3,15,0,,,,,,,,,,,,,,,,,,,,,,,2079.5757679999806,5,0.013551100040785968,1.5074362000450492,25,C,2023-12-13_17h29.30.859,gca_avoidance_task,2022.2.4,144.01792719300497,
positions.xlsx,stimuli.xlsx,stimuli/Social1.png,stimuli/Social2.png,stimuli/Nonsocial2.png,stimuli/Nonsocial1.png,cs_minus_ns,,,,,,,0,0,0,0,,,,,,,,,,,,,,,,,4,0,16,3,,,,,,,,,,,,,,,,,,,,,,,2094.262686699978,6,0.014028199948370457,0.05598940001800656,25,C,2023-12-13_17h29.30.859,gca_avoidance_task,2022.2.4,144.01792719300497,
positions.xlsx,stimuli.xlsx,stimuli/Social1.png,stimuli/Social2.png,stimuli/Nonsocial2.png,stimuli/Nonsocial1.png,cs_minus_s,,,,,,,0,0,0,0,,,,,,,,,,,,,,,,,4,1,17,2,,,,,,,,,,,,,,,,,,,,,,,2109.3732916999143,7,0.013894799980334938,1.8822013000026345,25,C,2023-12-13_17h29.30.859,gca_avoidance_task,2022.2.4,144.01792719300497,
positions.xlsx,stimuli.xlsx,stimuli/Social1.png,stimuli/Social2.png,stimuli/Nonsocial2.png,stimuli/Nonsocial1.png,cs_plus_s,,,,,,,0,0,0,0,,,,,,,,,,,,,,,,,4,2,18,0,,,,,,,,,,,,,,,,,,,,,,,2124.0254830999766,7,0.013393300003372133,1.382280399906449,25,C,2023-12-13_17h29.30.859,gca_avoidance_task,2022.2.4,144.01792719300497,
positions.xlsx,stimuli.xlsx,stimuli/Social1.png,stimuli/Social2.png,stimuli/Nonsocial2.png,stimuli/Nonsocial1.png,cs_plus_ns,,,,,,,0,0,0,0,,,,,,,,,,,,,,,,,4,3,19,1,,,,,,,,,,,,,,,,,,,,,,,2139.337353699957,5,0.01426029996946454,4.4724642999935895,25,C,2023-12-13_17h29.30.859,gca_avoidance_task,2022.2.4,144.01792719300497,
positions.xlsx,stimuli.xlsx,stimuli/Social1.png,stimuli/Social2.png,stimuli/Nonsocial2.png,stimuli/Nonsocial1.png,cs_plus_s,,,,,,,0,0,0,0,,,,,,,,,,,,,,,,,5,0,20,0,,,,,,,,,,,,,,,,,,,,,,,2153.8506847999524,3,0.24357109994161874,3.0351140999700874,25,C,2023-12-13_17h29.30.859,gca_avoidance_task,2022.2.4,144.01792719300497,
positions.xlsx,stimuli.xlsx,stimuli/Social1.png,stimuli/Social2.png,stimuli/Nonsocial2.png,stimuli/Nonsocial1.png,cs_minus_s,,,,,,,0,0,0,0,,,,,,,,,,,,,,,,,5,1,21,2,,,,,,,,,,,,,,,,,,,,,,,2168.745943099959,4,0.013607900007627904,0.6880170999793336,25,C,2023-12-13_17h29.30.859,gca_avoidance_task,2022.2.4,144.01792719300497,
positions.xlsx,stimuli.xlsx,stimuli/Social1.png,stimuli/Social2.png,stimuli/Nonsocial2.png,stimuli/Nonsocial1.png,cs_plus_ns,,,,,,,0,0,0,0,,,,,,,,,,,,,,,,,5,2,22,1,,,,,,,,,,,,,,,,,,,,,,,2184.2175898000132,9,0.014053900027647614,1.604422300006263,25,C,2023-12-13_17h29.30.859,gca_avoidance_task,2022.2.4,144.01792719300497,
positions.xlsx,stimuli.xlsx,stimuli/Social1.png,stimuli/Social2.png,stimuli/Nonsocial2.png,stimuli/Nonsocial1.png,cs_minus_ns,,,,,,,0,0,0,0,,,,,,,,,,,,,,,,,5,3,23,3,,,,,,,,,,,,,,,,,,,,,,,2199.3072690999834,5,0.014453400042839348,1.8197512000333518,25,C,2023-12-13_17h29.30.859,gca_avoidance_task,2022.2.4,144.01792719300497,
positions.xlsx,stimuli.xlsx,stimuli/Social1.png,stimuli/Social2.png,stimuli/Nonsocial2.png,stimuli/Nonsocial1.png,cs_minus_s,,,,,,,0,0,0,0,,,,,,,,,,,,,,,,,6,0,24,2,,,,,,,,,,,,,,,,,,,,,,,2214.2858715999173,5,0.01357589999679476,3.951485599973239,25,C,2023-12-13_17h29.30.859,gca_avoidance_task,2022.2.4,144.01792719300497,
positions.xlsx,stimuli.xlsx,stimuli/Social1.png,stimuli/Social2.png,stimuli/Nonsocial2.png,stimuli/Nonsocial1.png,cs_plus_s,,,,,,,0,0,0,0,,,,,,,,,,,,,,,,,6,1,25,0,,,,,,,,,,,,,,,,,,,,,,,2228.8477830999764,6,0.013974800007417798,1.2989230999955907,25,C,2023-12-13_17h29.30.859,gca_avoidance_task,2022.2.4,144.01792719300497,
positions.xlsx,stimuli.xlsx,stimuli/Social1.png,stimuli/Social2.png,stimuli/Nonsocial2.png,stimuli/Nonsocial1.png,cs_plus_ns,,,,,,,0,0,0,0,,,,,,,,,,,,,,,,,6,2,26,1,,,,,,,,,,,,,,,,,,,,,,,2243.784720099997,7,0.014376700040884316,3.118352900026366,25,C,2023-12-13_17h29.30.859,gca_avoidance_task,2022.2.4,144.01792719300497,
positions.xlsx,stimuli.xlsx,stimuli/Social1.png,stimuli/Social2.png,stimuli/Nonsocial2.png,stimuli/Nonsocial1.png,cs_minus_ns,,,,,,,0,0,0,0,,,,,,,,,,,,,,,,,6,3,27,3,,,,,,,,,,,,,,,,,,,,,,,2259.131331899902,5,0.013956499984487891,5.201577799976803,25,C,2023-12-13_17h29.30.859,gca_avoidance_task,2022.2.4,144.01792719300497,
positions.xlsx,stimuli.xlsx,stimuli/Social1.png,stimuli/Social2.png,stimuli/Nonsocial2.png,stimuli/Nonsocial1.png,cs_plus_s,,,,,,,0,0,0,0,,,,,,,,,,,,,,,,,7,0,28,0,,,,,,,,,,,,,,,,,,,,,,,2274.4640968999593,7,0.014003399992361665,3.069782199920155,25,C,2023-12-13_17h29.30.859,gca_avoidance_task,2022.2.4,144.01792719300497,
positions.xlsx,stimuli.xlsx,stimuli/Social1.png,stimuli/Social2.png,stimuli/Nonsocial2.png,stimuli/Nonsocial1.png,cs_plus_ns,,,,,,,0,0,0,0,,,,,,,,,,,,,,,,,7,1,29,1,,,,,,,,,,,,,,,,,,,,,,,2289.26215580001,9,0.015174200059846044,0.9725752000231296,25,C,2023-12-13_17h29.30.859,gca_avoidance_task,2022.2.4,144.01792719300497,
positions.xlsx,stimuli.xlsx,stimuli/Social1.png,stimuli/Social2.png,stimuli/Nonsocial2.png,stimuli/Nonsocial1.png,cs_minus_s,,,,,,,0,0,0,0,,,,,,,,,,,,,,,,,7,2,30,2,,,,,,,,,,,,,,,,,,,,,,,2303.9560176999075,7,0.013658300042152405,2.208659900003113,25,C,2023-12-13_17h29.30.859,gca_avoidance_task,2022.2.4,144.01792719300497,
positions.xlsx,stimuli.xlsx,stimuli/Social1.png,stimuli/Social2.png,stimuli/Nonsocial2.png,stimuli/Nonsocial1.png,cs_minus_ns,,,,,,,0,0,0,0,,,,,,,,,,,,,,,,,7,3,31,3,,,,,,,,,,,,,,,,,,,,,,,2318.941545199952,5,0.013877299963496625,2.8754894000012428,25,C,2023-12-13_17h29.30.859,gca_avoidance_task,2022.2.4,144.01792719300497,
positions.xlsx,stimuli.xlsx,stimuli/Social1.png,stimuli/Social2.png,stimuli/Nonsocial2.png,stimuli/Nonsocial1.png,cs_plus_ns,,,,,,,0,0,0,0,,,,,,,,,,,,,,,,,8,0,32,1,,,,,,,,,,,,,,,,,,,,,,,2333.552107299911,9,0.014506199979223311,0.5420034000417218,25,C,2023-12-13_17h29.30.859,gca_avoidance_task,2022.2.4,144.01792719300497,
positions.xlsx,stimuli.xlsx,stimuli/Social1.png,stimuli/Social2.png,stimuli/Nonsocial2.png,stimuli/Nonsocial1.png,cs_minus_ns,,,,,,,0,0,0,0,,,,,,,,,,,,,,,,,8,1,33,3,,,,,,,,,,,,,,,,,,,,,,,2348.7390213999897,5,0.014438800048083067,2.542021100060083,25,C,2023-12-13_17h29.30.859,gca_avoidance_task,2022.2.4,144.01792719300497,
positions.xlsx,stimuli.xlsx,stimuli/Social1.png,stimuli/Social2.png,stimuli/Nonsocial2.png,stimuli/Nonsocial1.png,cs_plus_s,,,,,,,0,0,0,0,,,,,,,,,,,,,,,,,8,2,34,0,,,,,,,,,,,,,,,,,,,,,,,2363.8703666999936,3,0.013484399998560548,7.187588099972345,25,C,2023-12-13_17h29.30.859,gca_avoidance_task,2022.2.4,144.01792719300497,
positions.xlsx,stimuli.xlsx,stimuli/Social1.png,stimuli/Social2.png,stimuli/Nonsocial2.png,stimuli/Nonsocial1.png,cs_minus_s,,,,,,,0,0,0,0,,,,,,,,,,,,,,,,,8,3,35,2,,,,,,,,,,,,,,,,,,,,,,,2379.0433861999772,5,0.013163299998268485,1.9169611999532208,25,C,2023-12-13_17h29.30.859,gca_avoidance_task,2022.2.4,144.01792719300497,
positions.xlsx,stimuli.xlsx,stimuli/Social1.png,stimuli/Social2.png,stimuli/Nonsocial2.png,stimuli/Nonsocial1.png,cs_plus_ns,,,,,,,0,0,0,0,,,,,,,,,,,,,,,,,9,0,36,1,,,,,,,,,,,,,,,,,,,,,,,2393.6053670999827,6,0.014501000056043267,1.3198254000162706,25,C,2023-12-13_17h29.30.859,gca_avoidance_task,2022.2.4,144.01792719300497,
positions.xlsx,stimuli.xlsx,stimuli/Social1.png,stimuli/Social2.png,stimuli/Nonsocial2.png,stimuli/Nonsocial1.png,cs_minus_ns,,,,,,,0,0,0,0,,,,,,,,,,,,,,,,,9,1,37,3,,,,,,,,,,,,,,,,,,,,,,,2408.847798099974,4,0.014170599984936416,2.486571199959144,25,C,2023-12-13_17h29.30.859,gca_avoidance_task,2022.2.4,144.01792719300497,
positions.xlsx,stimuli.xlsx,stimuli/Social1.png,stimuli/Social2.png,stimuli/Nonsocial2.png,stimuli/Nonsocial1.png,cs_plus_s,,,,,,,0,0,0,0,,,,,,,,,,,,,,,,,9,2,38,0,,,,,,,,,,,,,,,,,,,,,,,2424.215250600013,9,0.18780680000782013,1.0904580999631435,25,C,2023-12-13_17h29.30.859,gca_avoidance_task,2022.2.4,144.01792719300497,
positions.xlsx,stimuli.xlsx,stimuli/Social1.png,stimuli/Social2.png,stimuli/Nonsocial2.png,stimuli/Nonsocial1.png,cs_minus_s,,,,,,,0,0,0,0,,,,,,,,,,,,,,,,,9,3,39,2,,,,,,,,,,,,,,,,,,,,,,,2439.2355195999844,5,0.013693499960936606,1.722494799993001,25,C,2023-12-13_17h29.30.859,gca_avoidance_task,2022.2.4,144.01792719300497,
positions.xlsx,stimuli.xlsx,stimuli/Social1.png,stimuli/Social2.png,stimuli/Nonsocial2.png,stimuli/Nonsocial1.png,cs_minus_s,,,,,,,0,0,0,0,,,,,,,,,,,,,,,,,,,,,0,0,0,2,,,,,2453.4016453999793,10.0,5.556161200045608,,,,,,,,,,,,,,,,25,C,2023-12-13_17h29.30.859,gca_avoidance_task,2022.2.4,144.01792719300497,
positions.xlsx,stimuli.xlsx,stimuli/Social1.png,stimuli/Social2.png,stimuli/Nonsocial2.png,stimuli/Nonsocial1.png,cs_minus_ns,,,,,,,0,0,0,0,,,,,,,,,,,,,,,,,,,,,0,1,1,3,,,,,2459.9500313999597,10.0,1.6184265000047162,,,,,,,,,,,,,,,,25,C,2023-12-13_17h29.30.859,gca_avoidance_task,2022.2.4,144.01792719300497,
positions.xlsx,stimuli.xlsx,stimuli/Social1.png,stimuli/Social2.png,stimuli/Nonsocial2.png,stimuli/Nonsocial1.png,cs_plus_s,,,,,,,0,0,0,0,,,,,,,,,,,,,,,,,,,,,0,2,2,0,,,,,2462.449916100013,8.0,2.4594794999575242,,,,,,,,,,,,,,,,25,C,2023-12-13_17h29.30.859,gca_avoidance_task,2022.2.4,144.01792719300497,
positions.xlsx,stimuli.xlsx,stimuli/Social1.png,stimuli/Social2.png,stimuli/Nonsocial2.png,stimuli/Nonsocial1.png,cs_plus_ns,,,,,,,0,0,0,0,,,,,,,,,,,,,,,,,,,,,0,3,3,1,,,,,2465.8386508999392,6.0,2.3404871999518946,,,,,,,,,,,,,,,,25,C,2023-12-13_17h29.30.859,gca_avoidance_task,2022.2.4,144.01792719300497,
