posFile,stimFile,cs_plus_s,cs_minus_s,cs_plus_ns,cs_minus_ns,stimtype,position,trialtype,trials_threshold.thisRepN,trials_threshold.thisTrialN,trials_threshold.thisN,trials_threshold.thisIndex,blocks.thisRepN,blocks.thisTrialN,blocks.thisN,blocks.thisIndex,ratingtrials1.thisRepN,ratingtrials1.thisTrialN,ratingtrials1.thisN,ratingtrials1.thisIndex,learning_trials.thisRepN,learning_trials.thisTrialN,learning_trials.thisN,learning_trials.thisIndex,trials.thisRepN,trials.thisTrialN,trials.thisN,trials.thisIndex,ratingtrials2.thisRepN,ratingtrials2.thisTrialN,ratingtrials2.thisN,ratingtrials2.thisIndex,testtrials.thisRepN,testtrials.thisTrialN,testtrials.thisN,testtrials.thisIndex,ratingtrials3.thisRepN,ratingtrials3.thisTrialN,ratingtrials3.thisN,ratingtrials3.thisIndex,textStart.started,sliderPainT.response,sliderPainT.rt,textStartExp.started,imageRating.started,sliderStim.response,sliderStim.rt,textStartTask.started,image.started,score,outcome,roi.numLooks,roi.timesOn,roi.timesOff,imageFeedback.started,sliderPain.response,sliderPain.rt,textTestInstr.started,imageTest.started,roiTest.numLooks,roiTest.timesOn,roiTest.timesOff,participant,group,date,expName,psychopyVersion,frameRate,
,,,,,,,,,0,0,0,0,,,,,,,,,,,,,,,,,,,,,,,,,,,,,22.386234699981287,None,None,,,,,,,,,,,,,,,,,,,,33,D,2023-12-15_13h04.50.395,gca_avoidance_task,2022.2.4,143.98329799798734,
,,,,,,,,,1,0,1,0,,,,,,,,,,,,,,,,,,,,,,,,,,,,,,0.0,4.409774700063281,,,,,,,,,,,,,,,,,,,,33,D,2023-12-15_13h04.50.395,gca_avoidance_task,2022.2.4,143.98329799798734,
,,,,,,,,,2,0,2,0,,,,,,,,,,,,,,,,,,,,,,,,,,,,,,1.0,1.4204803999746218,,,,,,,,,,,,,,,,,,,,33,D,2023-12-15_13h04.50.395,gca_avoidance_task,2022.2.4,143.98329799798734,
,,,,,,,,,3,0,3,0,,,,,,,,,,,,,,,,,,,,,,,,,,,,,,2.0,1.314951999927871,,,,,,,,,,,,,,,,,,,,33,D,2023-12-15_13h04.50.395,gca_avoidance_task,2022.2.4,143.98329799798734,
,,,,,,,,,4,0,4,0,,,,,,,,,,,,,,,,,,,,,,,,,,,,,,3.0,2.600591800059192,,,,,,,,,,,,,,,,,,,,33,D,2023-12-15_13h04.50.395,gca_avoidance_task,2022.2.4,143.98329799798734,
,,,,,,,,,5,0,5,0,,,,,,,,,,,,,,,,,,,,,,,,,,,,,,3.0,14.787490699905902,,,,,,,,,,,,,,,,,,,,33,D,2023-12-15_13h04.50.395,gca_avoidance_task,2022.2.4,143.98329799798734,
,,,,,,,,,6,0,6,0,,,,,,,,,,,,,,,,,,,,,,,,,,,,,,4.0,1.086423399974592,,,,,,,,,,,,,,,,,,,,33,D,2023-12-15_13h04.50.395,gca_avoidance_task,2022.2.4,143.98329799798734,
,,,,,,,,,7,0,7,0,,,,,,,,,,,,,,,,,,,,,,,,,,,,,,6.0,3.200805600034073,,,,,,,,,,,,,,,,,,,,33,D,2023-12-15_13h04.50.395,gca_avoidance_task,2022.2.4,143.98329799798734,
,,,,,,,,,8,0,8,0,,,,,,,,,,,,,,,,,,,,,,,,,,,,,,6.0,2.697759100003168,,,,,,,,,,,,,,,,,,,,33,D,2023-12-15_13h04.50.395,gca_avoidance_task,2022.2.4,143.98329799798734,
,,,,,,,,,9,0,9,0,,,,,,,,,,,,,,,,,,,,,,,,,,,,,,6.0,1.5735244000097737,,,,,,,,,,,,,,,,,,,,33,D,2023-12-15_13h04.50.395,gca_avoidance_task,2022.2.4,143.98329799798734,
,,,,,,,,,10,0,10,0,,,,,,,,,,,,,,,,,,,,,,,,,,,,,,4.0,1.4001029999926686,,,,,,,,,,,,,,,,,,,,33,D,2023-12-15_13h04.50.395,gca_avoidance_task,2022.2.4,143.98329799798734,
,,,,,,,,,11,0,11,0,,,,,,,,,,,,,,,,,,,,,,,,,,,,,,4.0,1.461968700052239,,,,,,,,,,,,,,,,,,,,33,D,2023-12-15_13h04.50.395,gca_avoidance_task,2022.2.4,143.98329799798734,
,,,,,,,,,12,0,12,0,,,,,,,,,,,,,,,,,,,,,,,,,,,,,,6.0,1.2496760999783874,,,,,,,,,,,,,,,,,,,,33,D,2023-12-15_13h04.50.395,gca_avoidance_task,2022.2.4,143.98329799798734,
,,,,,,,,,13,0,13,0,,,,,,,,,,,,,,,,,,,,,,,,,,,,,,6.0,0.9414734999882057,,,,,,,,,,,,,,,,,,,,33,D,2023-12-15_13h04.50.395,gca_avoidance_task,2022.2.4,143.98329799798734,
,,,,,,,,,14,0,14,0,,,,,,,,,,,,,,,,,,,,,,,,,,,,,,7.0,1.0745928999967873,,,,,,,,,,,,,,,,,,,,33,D,2023-12-15_13h04.50.395,gca_avoidance_task,2022.2.4,143.98329799798734,
,,,,,,,,,15,0,15,0,,,,,,,,,,,,,,,,,,,,,,,,,,,,,,5.0,3.180088600027375,,,,,,,,,,,,,,,,,,,,33,D,2023-12-15_13h04.50.395,gca_avoidance_task,2022.2.4,143.98329799798734,
,,,,,,,,,16,0,16,0,,,,,,,,,,,,,,,,,,,,,,,,,,,,,,7.0,1.0940163999330252,,,,,,,,,,,,,,,,,,,,33,D,2023-12-15_13h04.50.395,gca_avoidance_task,2022.2.4,143.98329799798734,
,,,,,,,,,17,0,17,0,,,,,,,,,,,,,,,,,,,,,,,,,,,,,,5.0,1.5565475999610499,,,,,,,,,,,,,,,,,,,,33,D,2023-12-15_13h04.50.395,gca_avoidance_task,2022.2.4,143.98329799798734,
,,,,,,,,,18,0,18,0,,,,,,,,,,,,,,,,,,,,,,,,,,,,,,6.0,1.524900499964133,,,,,,,,,,,,,,,,,,,,33,D,2023-12-15_13h04.50.395,gca_avoidance_task,2022.2.4,143.98329799798734,
positions.xlsx,stimuli.xlsx,stimuli/Social2.png,stimuli/Social1.png,stimuli/Nonsocial2.png,stimuli/Nonsocial1.png,cs_plus_s,,,,,,,0,0,0,0,0,0,0,0,,,,,,,,,,,,,,,,,,,,,,,,918.1739626999479,966.3877764999634,9.0,8.378994400030933,,,,,,,,,,,,,,,,33,D,2023-12-15_13h04.50.395,gca_avoidance_task,2022.2.4,143.98329799798734,
positions.xlsx,stimuli.xlsx,stimuli/Social2.png,stimuli/Social1.png,stimuli/Nonsocial2.png,stimuli/Nonsocial1.png,cs_plus_ns,,,,,,,0,0,0,0,0,1,1,1,,,,,,,,,,,,,,,,,,,,,,,,,978.380329699954,8.0,6.275546099990606,,,,,,,,,,,,,,,,33,D,2023-12-15_13h04.50.395,gca_avoidance_task,2022.2.4,143.98329799798734,
positions.xlsx,stimuli.xlsx,stimuli/Social2.png,stimuli/Social1.png,stimuli/Nonsocial2.png,stimuli/Nonsocial1.png,cs_minus_s,,,,,,,0,0,0,0,0,2,2,2,,,,,,,,,,,,,,,,,,,,,,,,,985.5883858999005,10.0,2.727550799958408,,,,,,,,,,,,,,,,33,D,2023-12-15_13h04.50.395,gca_avoidance_task,2022.2.4,143.98329799798734,
positions.xlsx,stimuli.xlsx,stimuli/Social2.png,stimuli/Social1.png,stimuli/Nonsocial2.png,stimuli/Nonsocial1.png,cs_minus_ns,,,,,,,0,0,0,0,0,3,3,3,,,,,,,,,,,,,,,,,,,,,,,,,989.3243040998932,8.0,2.384257800062187,,,,,,,,,,,,,,,,33,D,2023-12-15_13h04.50.395,gca_avoidance_task,2022.2.4,143.98329799798734,
positions.xlsx,stimuli.xlsx,stimuli/Social2.png,stimuli/Social1.png,stimuli/Nonsocial2.png,stimuli/Nonsocial1.png,,"(0.7, -0.5)",cs_plus_ns,,,,,0,0,0,0,,,,,0,0,0,11,,,,,,,,,,,,,,,,,,,,,,,,992.2894878999796,1019.2884526998969,0,shock,1,0.31251269998028874,0.31251600000541657,1019.6077904999256,,,,,,,,33,D,2023-12-15_13h04.50.395,gca_avoidance_task,2022.2.4,143.98329799798734,
positions.xlsx,stimuli.xlsx,stimuli/Social2.png,stimuli/Social1.png,stimuli/Nonsocial2.png,stimuli/Nonsocial1.png,,"(-0.7, -0.5)",cs_minus_ns,,,,,0,0,0,0,,,,,0,1,1,13,,,,,,,,,,,,,,,,,,,,,,,,,1028.4755428999197,0,none,0,,,1033.4892329999711,,,,,,,,33,D,2023-12-15_13h04.50.395,gca_avoidance_task,2022.2.4,143.98329799798734,
positions.xlsx,stimuli.xlsx,stimuli/Social2.png,stimuli/Social1.png,stimuli/Nonsocial2.png,stimuli/Nonsocial1.png,,"(0.7, -0.5)",cs_minus_s,,,,,0,0,0,0,,,,,0,2,2,7,,,,,,,,,,,,,,,,,,,,,,,,,1043.2110464998987,5,reward,1,0.951729099964723,0.9517328999936581,1044.1762854999397,,,,,,,,33,D,2023-12-15_13h04.50.395,gca_avoidance_task,2022.2.4,143.98329799798734,
positions.xlsx,stimuli.xlsx,stimuli/Social2.png,stimuli/Social1.png,stimuli/Nonsocial2.png,stimuli/Nonsocial1.png,,"(0.7, -0.5)",cs_plus_s,,,,,0,0,0,0,,,,,0,3,3,3,,,,,,,,,,,,,,,,,,,,,,,,,1053.5439791999524,5,shock,1,0.4306021999800578,0.4306059000082314,1053.9814788999502,,,,,,,,33,D,2023-12-15_13h04.50.395,gca_avoidance_task,2022.2.4,143.98329799798734,
positions.xlsx,stimuli.xlsx,stimuli/Social2.png,stimuli/Social1.png,stimuli/Nonsocial2.png,stimuli/Nonsocial1.png,,"(-0.7, -0.5)",cs_plus_s,,,,,0,0,0,0,,,,,0,4,4,1,,,,,,,,,,,,,,,,,,,,,,,,,1062.9533498999663,5,shock,1,0.49340340006165206,0.49340669997036457,1063.4533455999335,,,,,,,,33,D,2023-12-15_13h04.50.395,gca_avoidance_task,2022.2.4,143.98329799798734,
positions.xlsx,stimuli.xlsx,stimuli/Social2.png,stimuli/Social1.png,stimuli/Nonsocial2.png,stimuli/Nonsocial1.png,,"(0.7, -0.5)",cs_minus_ns,,,,,0,0,0,0,,,,,0,5,5,15,,,,,,,,,,,,,,,,,,,,,,,,,1073.1264994998928,10,reward,1,0.653519699932076,0.6535229999572039,1073.7862505998928,,,,,,,,33,D,2023-12-15_13h04.50.395,gca_avoidance_task,2022.2.4,143.98329799798734,
positions.xlsx,stimuli.xlsx,stimuli/Social2.png,stimuli/Social1.png,stimuli/Nonsocial2.png,stimuli/Nonsocial1.png,,"(0.7, 0.5)",cs_plus_s,,,,,0,0,0,0,,,,,0,6,6,2,,,,,,,,,,,,,,,,,,,,,,,,,1082.8969911999302,10,none,0,,,1087.9037147999043,,,,,,,,33,D,2023-12-15_13h04.50.395,gca_avoidance_task,2022.2.4,143.98329799798734,
positions.xlsx,stimuli.xlsx,stimuli/Social2.png,stimuli/Social1.png,stimuli/Nonsocial2.png,stimuli/Nonsocial1.png,,"(0.7, 0.5)",cs_minus_ns,,,,,0,0,0,0,,,,,0,7,7,14,,,,,,,,,,,,,,,,,,,,,,,,,1097.5075522999978,15,reward,1,0.7500135999871418,0.7500173000153154,1098.264446999994,,,,,,,,33,D,2023-12-15_13h04.50.395,gca_avoidance_task,2022.2.4,143.98329799798734,
positions.xlsx,stimuli.xlsx,stimuli/Social2.png,stimuli/Social1.png,stimuli/Nonsocial2.png,stimuli/Nonsocial1.png,,"(-0.7, 0.5)",cs_minus_ns,,,,,0,0,0,0,,,,,0,8,8,12,,,,,,,,,,,,,,,,,,,,,,,,,1107.965427499963,20,reward,1,0.6044679000042379,0.611412400030531,1108.5834771000082,,,,,,,,33,D,2023-12-15_13h04.50.395,gca_avoidance_task,2022.2.4,143.98329799798734,
positions.xlsx,stimuli.xlsx,stimuli/Social2.png,stimuli/Social1.png,stimuli/Nonsocial2.png,stimuli/Nonsocial1.png,,"(0.7, 0.5)",cs_plus_ns,,,,,0,0,0,0,,,,,0,9,9,10,,,,,,,,,,,,,,,,,,,,,,,,,1118.1178200999275,20,none,0,,,1123.1245929999277,,,,,,,,33,D,2023-12-15_13h04.50.395,gca_avoidance_task,2022.2.4,143.98329799798734,
positions.xlsx,stimuli.xlsx,stimuli/Social2.png,stimuli/Social1.png,stimuli/Nonsocial2.png,stimuli/Nonsocial1.png,,"(0.7, 0.5)",cs_minus_s,,,,,0,0,0,0,,,,,0,10,10,6,,,,,,,,,,,,,,,,,,,,,,,,,1132.033910500002,25,reward,1,0.5486635999986902,0.5486674000276253,1132.589447199949,,,,,,,,33,D,2023-12-15_13h04.50.395,gca_avoidance_task,2022.2.4,143.98329799798734,
positions.xlsx,stimuli.xlsx,stimuli/Social2.png,stimuli/Social1.png,stimuli/Nonsocial2.png,stimuli/Nonsocial1.png,,"(-0.7, 0.5)",cs_plus_ns,,,,,0,0,0,0,,,,,0,11,11,8,,,,,,,,,,,,,,,,,,,,,,,,,1142.0613005999476,25,shock,1,0.8059329999377951,0.8059497999493033,1142.8737948999042,,,,,,,,33,D,2023-12-15_13h04.50.395,gca_avoidance_task,2022.2.4,143.98329799798734,
positions.xlsx,stimuli.xlsx,stimuli/Social2.png,stimuli/Social1.png,stimuli/Nonsocial2.png,stimuli/Nonsocial1.png,,"(-0.7, -0.5)",cs_minus_s,,,,,0,0,0,0,,,,,0,12,12,5,,,,,,,,,,,,,,,,,,,,,,,,,1152.2622569999658,30,reward,1,0.6739639999577776,0.6739673999836668,1152.9428037999896,,,,,,,,33,D,2023-12-15_13h04.50.395,gca_avoidance_task,2022.2.4,143.98329799798734,
positions.xlsx,stimuli.xlsx,stimuli/Social2.png,stimuli/Social1.png,stimuli/Nonsocial2.png,stimuli/Nonsocial1.png,,"(-0.7, 0.5)",cs_minus_s,,,,,0,0,0,0,,,,,0,13,13,4,,,,,,,,,,,,,,,,,,,,,,,,,1162.9701793999411,35,reward,1,0.6047571999952197,0.6047605000203475,1163.5813239999115,,,,,,,,33,D,2023-12-15_13h04.50.395,gca_avoidance_task,2022.2.4,143.98329799798734,
positions.xlsx,stimuli.xlsx,stimuli/Social2.png,stimuli/Social1.png,stimuli/Nonsocial2.png,stimuli/Nonsocial1.png,,"(-0.7, 0.5)",cs_plus_s,,,,,0,0,0,0,,,,,0,14,14,0,,,,,,,,,,,,,,,,,,,,,,,,,1173.0045162999304,35,none,0,,,1178.011299799895,,,,,,,,33,D,2023-12-15_13h04.50.395,gca_avoidance_task,2022.2.4,143.98329799798734,
positions.xlsx,stimuli.xlsx,stimuli/Social2.png,stimuli/Social1.png,stimuli/Nonsocial2.png,stimuli/Nonsocial1.png,,"(-0.7, -0.5)",cs_plus_ns,,,,,0,0,0,0,,,,,0,15,15,9,,,,,,,,,,,,,,,,,,,,,,,,,1188.3233303999295,35,none,0,,,1193.3301421999931,,,,,,,,33,D,2023-12-15_13h04.50.395,gca_avoidance_task,2022.2.4,143.98329799798734,
positions.xlsx,stimuli.xlsx,stimuli/Social2.png,stimuli/Social1.png,stimuli/Nonsocial2.png,stimuli/Nonsocial1.png,,"(0.7, 0.5)",cs_plus_s,,,,,0,0,0,0,,,,,1,0,16,2,,,,,,,,,,,,,,,,,,,,,,,,,1203.3713760999963,35,none,0,,,1208.3781222999096,,,,,,,,33,D,2023-12-15_13h04.50.395,gca_avoidance_task,2022.2.4,143.98329799798734,
positions.xlsx,stimuli.xlsx,stimuli/Social2.png,stimuli/Social1.png,stimuli/Nonsocial2.png,stimuli/Nonsocial1.png,,"(-0.7, 0.5)",cs_plus_s,,,,,0,0,0,0,,,,,1,1,17,0,,,,,,,,,,,,,,,,,,,,,,,,,1217.2458519999636,35,shock,1,0.7714486999902874,0.7714525000192225,1218.0236201999942,,,,,,,,33,D,2023-12-15_13h04.50.395,gca_avoidance_task,2022.2.4,143.98329799798734,
positions.xlsx,stimuli.xlsx,stimuli/Social2.png,stimuli/Social1.png,stimuli/Nonsocial2.png,stimuli/Nonsocial1.png,,"(-0.7, 0.5)",cs_minus_ns,,,,,0,0,0,0,,,,,1,2,18,12,,,,,,,,,,,,,,,,,,,,,,,,,1228.4467873999383,40,reward,1,0.6672032999340445,0.6672069999622181,1229.120363999973,,,,,,,,33,D,2023-12-15_13h04.50.395,gca_avoidance_task,2022.2.4,143.98329799798734,
positions.xlsx,stimuli.xlsx,stimuli/Social2.png,stimuli/Social1.png,stimuli/Nonsocial2.png,stimuli/Nonsocial1.png,,"(-0.7, 0.5)",cs_minus_s,,,,,0,0,0,0,,,,,1,3,19,4,,,,,,,,,,,,,,,,,,,,,,,,,1238.8492200999754,45,reward,1,0.6251853000139818,0.6251886000391096,1239.481098899967,,,,,,,,33,D,2023-12-15_13h04.50.395,gca_avoidance_task,2022.2.4,143.98329799798734,
positions.xlsx,stimuli.xlsx,stimuli/Social2.png,stimuli/Social1.png,stimuli/Nonsocial2.png,stimuli/Nonsocial1.png,,"(-0.7, -0.5)",cs_plus_s,,,,,0,0,0,0,,,,,1,4,20,1,,,,,,,,,,,,,,,,,,,,,,,,,1248.9668061999837,45,none,0,,,1253.9805638999678,,,,,,,,33,D,2023-12-15_13h04.50.395,gca_avoidance_task,2022.2.4,143.98329799798734,
positions.xlsx,stimuli.xlsx,stimuli/Social2.png,stimuli/Social1.png,stimuli/Nonsocial2.png,stimuli/Nonsocial1.png,,"(-0.7, -0.5)",cs_minus_s,,,,,0,0,0,0,,,,,1,5,21,5,,,,,,,,,,,,,,,,,,,,,,,,,1263.563464100007,50,reward,1,0.7081447999225929,0.708148599951528,1264.2787052999483,,,,,,,,33,D,2023-12-15_13h04.50.395,gca_avoidance_task,2022.2.4,143.98329799798734,
positions.xlsx,stimuli.xlsx,stimuli/Social2.png,stimuli/Social1.png,stimuli/Nonsocial2.png,stimuli/Nonsocial1.png,,"(0.7, 0.5)",cs_plus_ns,,,,,0,0,0,0,,,,,1,6,22,10,,,,,,,,,,,,,,,,,,,,,,,,,1273.910265799961,50,none,0,,,1278.917055399972,,,,,,,,33,D,2023-12-15_13h04.50.395,gca_avoidance_task,2022.2.4,143.98329799798734,
positions.xlsx,stimuli.xlsx,stimuli/Social2.png,stimuli/Social1.png,stimuli/Nonsocial2.png,stimuli/Nonsocial1.png,,"(0.7, -0.5)",cs_plus_ns,,,,,0,0,0,0,,,,,1,7,23,11,,,,,,,,,,,,,,,,,,,,,,,,,1288.2222160999663,50,shock,1,0.8334150000009686,0.8334182999096811,1289.0624509999761,,,,,,,,33,D,2023-12-15_13h04.50.395,gca_avoidance_task,2022.2.4,143.98329799798734,
positions.xlsx,stimuli.xlsx,stimuli/Social2.png,stimuli/Social1.png,stimuli/Nonsocial2.png,stimuli/Nonsocial1.png,,"(0.7, 0.5)",cs_minus_s,,,,,0,0,0,0,,,,,1,8,24,6,,,,,,,,,,,,,,,,,,,,,,,,,1299.2009223999921,55,reward,1,0.5972071000142023,0.597210600040853,1299.8051329998998,,,,,,,,33,D,2023-12-15_13h04.50.395,gca_avoidance_task,2022.2.4,143.98329799798734,
positions.xlsx,stimuli.xlsx,stimuli/Social2.png,stimuli/Social1.png,stimuli/Nonsocial2.png,stimuli/Nonsocial1.png,,"(0.7, -0.5)",cs_plus_s,,,,,0,0,0,0,,,,,1,9,25,3,,,,,,,,,,,,,,,,,,,,,,,,,1309.714433599962,55,none,0,,,1314.7211671998957,,,,,,,,33,D,2023-12-15_13h04.50.395,gca_avoidance_task,2022.2.4,143.98329799798734,
positions.xlsx,stimuli.xlsx,stimuli/Social2.png,stimuli/Social1.png,stimuli/Nonsocial2.png,stimuli/Nonsocial1.png,,"(-0.7, 0.5)",cs_plus_ns,,,,,0,0,0,0,,,,,1,10,26,8,,,,,,,,,,,,,,,,,,,,,,,,,1324.3180036999984,55,none,0,,,1329.32475229993,,,,,,,,33,D,2023-12-15_13h04.50.395,gca_avoidance_task,2022.2.4,143.98329799798734,
positions.xlsx,stimuli.xlsx,stimuli/Social2.png,stimuli/Social1.png,stimuli/Nonsocial2.png,stimuli/Nonsocial1.png,,"(0.7, -0.5)",cs_minus_s,,,,,0,0,0,0,,,,,1,11,27,7,,,,,,,,,,,,,,,,,,,,,,,,,1338.0535996999824,60,reward,1,0.5351397999329492,0.5351566999452189,1338.595238299924,,,,,,,,33,D,2023-12-15_13h04.50.395,gca_avoidance_task,2022.2.4,143.98329799798734,
positions.xlsx,stimuli.xlsx,stimuli/Social2.png,stimuli/Social1.png,stimuli/Nonsocial2.png,stimuli/Nonsocial1.png,,"(0.7, -0.5)",cs_minus_ns,,,,,0,0,0,0,,,,,1,12,28,15,,,,,,,,,,,,,,,,,,,,,,,,,1348.455942499917,65,reward,1,0.6042964999796823,0.6042998000048101,1349.067057399894,,,,,,,,33,D,2023-12-15_13h04.50.395,gca_avoidance_task,2022.2.4,143.98329799798734,
positions.xlsx,stimuli.xlsx,stimuli/Social2.png,stimuli/Social1.png,stimuli/Nonsocial2.png,stimuli/Nonsocial1.png,,"(-0.7, -0.5)",cs_minus_ns,,,,,0,0,0,0,,,,,1,13,29,13,,,,,,,,,,,,,,,,,,,,,,,,,1358.2125068999594,70,reward,1,0.8268964000744745,0.8269000999862328,1359.045810499927,,,,,,,,33,D,2023-12-15_13h04.50.395,gca_avoidance_task,2022.2.4,143.98329799798734,
positions.xlsx,stimuli.xlsx,stimuli/Social2.png,stimuli/Social1.png,stimuli/Nonsocial2.png,stimuli/Nonsocial1.png,,"(0.7, 0.5)",cs_minus_ns,,,,,0,0,0,0,,,,,1,14,30,14,,,,,,,,,,,,,,,,,,,,,,,,,1368.4621171999024,75,reward,1,0.4516305000288412,0.4516339000547305,1368.9204664999852,,,,,,,,33,D,2023-12-15_13h04.50.395,gca_avoidance_task,2022.2.4,143.98329799798734,
positions.xlsx,stimuli.xlsx,stimuli/Social2.png,stimuli/Social1.png,stimuli/Nonsocial2.png,stimuli/Nonsocial1.png,,"(-0.7, -0.5)",cs_plus_ns,,,,,0,0,0,0,,,,,1,15,31,9,,,,,,,,,,,,,,,,,,,,,,,,,1379.0172526999377,75,none,0,,,1384.0240043000085,,,,,,,,33,D,2023-12-15_13h04.50.395,gca_avoidance_task,2022.2.4,143.98329799798734,
positions.xlsx,stimuli.xlsx,stimuli/Social2.png,stimuli/Social1.png,stimuli/Nonsocial2.png,stimuli/Nonsocial1.png,,"(0.7, 0.5)",cs_plus_ns,,,,,0,0,0,0,,,,,,,,,0,0,0,10,,,,,,,,,,,,,,,,,,,,,1413.9881055000005,75,none,0,,,1418.9948855999392,,,,,,,,33,D,2023-12-15_13h04.50.395,gca_avoidance_task,2022.2.4,143.98329799798734,
positions.xlsx,stimuli.xlsx,stimuli/Social2.png,stimuli/Social1.png,stimuli/Nonsocial2.png,stimuli/Nonsocial1.png,,"(-0.7, -0.5)",cs_plus_s,,,,,0,0,0,0,,,,,,,,,0,1,1,1,,,,,,,,,,,,,,,,,,,,,1428.237566899974,75,none,0,,,1433.2442825000035,,,,,,,,33,D,2023-12-15_13h04.50.395,gca_avoidance_task,2022.2.4,143.98329799798734,
positions.xlsx,stimuli.xlsx,stimuli/Social2.png,stimuli/Social1.png,stimuli/Nonsocial2.png,stimuli/Nonsocial1.png,,"(-0.7, -0.5)",cs_minus_ns,,,,,0,0,0,0,,,,,,,,,0,2,2,13,,,,,,,,,,,,,,,,,,,,,1442.7925430999603,75,none,0,,,1447.7992772998987,,,,,,,,33,D,2023-12-15_13h04.50.395,gca_avoidance_task,2022.2.4,143.98329799798734,
positions.xlsx,stimuli.xlsx,stimuli/Social2.png,stimuli/Social1.png,stimuli/Nonsocial2.png,stimuli/Nonsocial1.png,,"(-0.7, 0.5)",cs_plus_ns,,,,,0,0,0,0,,,,,,,,,0,3,3,8,,,,,,,,,,,,,,,,,,,,,1456.9933849999215,75,none,0,,,1462.000089499983,,,,,,,,33,D,2023-12-15_13h04.50.395,gca_avoidance_task,2022.2.4,143.98329799798734,
positions.xlsx,stimuli.xlsx,stimuli/Social2.png,stimuli/Social1.png,stimuli/Nonsocial2.png,stimuli/Nonsocial1.png,,"(0.7, -0.5)",cs_plus_ns,,,,,0,0,0,0,,,,,,,,,0,4,4,11,,,,,,,,,,,,,,,,,,,,,1470.659498999943,75,none,0,,,1475.6662853999296,,,,,,,,33,D,2023-12-15_13h04.50.395,gca_avoidance_task,2022.2.4,143.98329799798734,
positions.xlsx,stimuli.xlsx,stimuli/Social2.png,stimuli/Social1.png,stimuli/Nonsocial2.png,stimuli/Nonsocial1.png,,"(-0.7, 0.5)",cs_plus_s,,,,,0,0,0,0,,,,,,,,,0,5,5,0,,,,,,,,,,,,,,,,,,,,,1485.4297473999904,75,none,0,,,1490.436525899917,,,,,,,,33,D,2023-12-15_13h04.50.395,gca_avoidance_task,2022.2.4,143.98329799798734,
positions.xlsx,stimuli.xlsx,stimuli/Social2.png,stimuli/Social1.png,stimuli/Nonsocial2.png,stimuli/Nonsocial1.png,,"(0.7, 0.5)",cs_plus_s,,,,,0,0,0,0,,,,,,,,,0,6,6,2,,,,,,,,,,,,,,,,,,,,,1500.1027856,75,none,0,,,1505.1095578999957,,,,,,,,33,D,2023-12-15_13h04.50.395,gca_avoidance_task,2022.2.4,143.98329799798734,
positions.xlsx,stimuli.xlsx,stimuli/Social2.png,stimuli/Social1.png,stimuli/Nonsocial2.png,stimuli/Nonsocial1.png,,"(-0.7, 0.5)",cs_minus_ns,,,,,0,0,0,0,,,,,,,,,0,7,7,12,,,,,,,,,,,,,,,,,,,,,1514.8799796999665,80,reward,1,0.6041922000003979,0.6041957000270486,1515.4910659999587,,,,,,,,33,D,2023-12-15_13h04.50.395,gca_avoidance_task,2022.2.4,143.98329799798734,
positions.xlsx,stimuli.xlsx,stimuli/Social2.png,stimuli/Social1.png,stimuli/Nonsocial2.png,stimuli/Nonsocial1.png,,"(-0.7, 0.5)",cs_minus_s,,,,,0,0,0,0,,,,,,,,,0,8,8,4,,,,,,,,,,,,,,,,,,,,,1525.2129081999883,85,reward,1,0.5140279999468476,0.5140312999719754,1525.7337387999287,,,,,,,,33,D,2023-12-15_13h04.50.395,gca_avoidance_task,2022.2.4,143.98329799798734,
positions.xlsx,stimuli.xlsx,stimuli/Social2.png,stimuli/Social1.png,stimuli/Nonsocial2.png,stimuli/Nonsocial1.png,,"(0.7, -0.5)",cs_plus_s,,,,,0,0,0,0,,,,,,,,,0,9,9,3,,,,,,,,,,,,,,,,,,,,,1534.6986708999611,85,none,0,,,1539.7053918999154,,,,,,,,33,D,2023-12-15_13h04.50.395,gca_avoidance_task,2022.2.4,143.98329799798734,
positions.xlsx,stimuli.xlsx,stimuli/Social2.png,stimuli/Social1.png,stimuli/Nonsocial2.png,stimuli/Nonsocial1.png,,"(0.7, 0.5)",cs_minus_ns,,,,,0,0,0,0,,,,,,,,,0,10,10,14,,,,,,,,,,,,,,,,,,,,,1549.3022457999177,90,reward,1,0.5138716000365093,0.5138756000669673,1549.823091999977,,,,,,,,33,D,2023-12-15_13h04.50.395,gca_avoidance_task,2022.2.4,143.98329799798734,
positions.xlsx,stimuli.xlsx,stimuli/Social2.png,stimuli/Social1.png,stimuli/Nonsocial2.png,stimuli/Nonsocial1.png,,"(-0.7, -0.5)",cs_minus_s,,,,,0,0,0,0,,,,,,,,,0,11,11,5,,,,,,,,,,,,,,,,,,,,,1559.6976635999745,95,reward,1,0.6391075999708846,0.6391113999998197,1560.3434811999323,,,,,,,,33,D,2023-12-15_13h04.50.395,gca_avoidance_task,2022.2.4,143.98329799798734,
positions.xlsx,stimuli.xlsx,stimuli/Social2.png,stimuli/Social1.png,stimuli/Nonsocial2.png,stimuli/Nonsocial1.png,,"(-0.7, -0.5)",cs_plus_ns,,,,,0,0,0,0,,,,,,,,,0,12,12,9,,,,,,,,,,,,,,,,,,,,,1569.5444988999516,95,none,0,,,1574.551267899922,,,,,,,,33,D,2023-12-15_13h04.50.395,gca_avoidance_task,2022.2.4,143.98329799798734,
positions.xlsx,stimuli.xlsx,stimuli/Social2.png,stimuli/Social1.png,stimuli/Nonsocial2.png,stimuli/Nonsocial1.png,,"(0.7, 0.5)",cs_minus_s,,,,,0,0,0,0,,,,,,,,,0,13,13,6,,,,,,,,,,,,,,,,,,,,,1583.7523057999788,100,reward,1,0.2710211999947205,0.27790300000924617,1584.037027399987,,,,,,,,33,D,2023-12-15_13h04.50.395,gca_avoidance_task,2022.2.4,143.98329799798734,
positions.xlsx,stimuli.xlsx,stimuli/Social2.png,stimuli/Social1.png,stimuli/Nonsocial2.png,stimuli/Nonsocial1.png,,"(0.7, -0.5)",cs_minus_ns,,,,,0,0,0,0,,,,,,,,,0,14,14,15,,,,,,,,,,,,,,,,,,,,,1593.9602100999327,105,reward,1,0.43770909996237606,0.43771269998978823,1594.4046649999218,,,,,,,,33,D,2023-12-15_13h04.50.395,gca_avoidance_task,2022.2.4,143.98329799798734,
positions.xlsx,stimuli.xlsx,stimuli/Social2.png,stimuli/Social1.png,stimuli/Nonsocial2.png,stimuli/Nonsocial1.png,,"(0.7, -0.5)",cs_minus_s,,,,,0,0,0,0,,,,,,,,,0,15,15,7,,,,,,,,,,,,,,,,,,,,,1603.7931556999683,110,reward,1,0.5001101000234485,0.5001136999344453,1604.300078399945,,,,,,,,33,D,2023-12-15_13h04.50.395,gca_avoidance_task,2022.2.4,143.98329799798734,
positions.xlsx,stimuli.xlsx,stimuli/Social2.png,stimuli/Social1.png,stimuli/Nonsocial2.png,stimuli/Nonsocial1.png,,"(-0.7, 0.5)",cs_minus_s,,,,,0,0,0,0,,,,,,,,,1,0,16,4,,,,,,,,,,,,,,,,,,,,,1613.042827099911,115,reward,1,0.5765335999894887,0.576537000015378,1613.6261126999743,,,,,,,,33,D,2023-12-15_13h04.50.395,gca_avoidance_task,2022.2.4,143.98329799798734,
positions.xlsx,stimuli.xlsx,stimuli/Social2.png,stimuli/Social1.png,stimuli/Nonsocial2.png,stimuli/Nonsocial1.png,,"(0.7, 0.5)",cs_minus_ns,,,,,0,0,0,0,,,,,,,,,1,1,17,14,,,,,,,,,,,,,,,,,,,,,1623.9104293999262,120,reward,1,0.6740383000578731,0.6740420000860468,1624.5909891999327,,,,,,,,33,D,2023-12-15_13h04.50.395,gca_avoidance_task,2022.2.4,143.98329799798734,
positions.xlsx,stimuli.xlsx,stimuli/Social2.png,stimuli/Social1.png,stimuli/Nonsocial2.png,stimuli/Nonsocial1.png,,"(-0.7, 0.5)",cs_plus_ns,,,,,0,0,0,0,,,,,,,,,1,2,18,8,,,,,,,,,,,,,,,,,,,,,1634.5975040999474,120,none,0,,,1639.6112084999913,,,,,,,,33,D,2023-12-15_13h04.50.395,gca_avoidance_task,2022.2.4,143.98329799798734,
positions.xlsx,stimuli.xlsx,stimuli/Social2.png,stimuli/Social1.png,stimuli/Nonsocial2.png,stimuli/Nonsocial1.png,,"(0.7, 0.5)",cs_plus_s,,,,,0,0,0,0,,,,,,,,,1,3,19,2,,,,,,,,,,,,,,,,,,,,,1649.47194269998,120,none,0,,,1654.4786557999905,,,,,,,,33,D,2023-12-15_13h04.50.395,gca_avoidance_task,2022.2.4,143.98329799798734,
positions.xlsx,stimuli.xlsx,stimuli/Social2.png,stimuli/Social1.png,stimuli/Nonsocial2.png,stimuli/Nonsocial1.png,,"(0.7, -0.5)",cs_minus_ns,,,,,0,0,0,0,,,,,,,,,1,4,20,15,,,,,,,,,,,,,,,,,,,,,1663.631094799959,125,reward,1,0.5139247999759391,0.5139283000025898,1664.151914499933,,,,,,,,33,D,2023-12-15_13h04.50.395,gca_avoidance_task,2022.2.4,143.98329799798734,
positions.xlsx,stimuli.xlsx,stimuli/Social2.png,stimuli/Social1.png,stimuli/Nonsocial2.png,stimuli/Nonsocial1.png,,"(-0.7, -0.5)",cs_plus_ns,,,,,0,0,0,0,,,,,,,,,1,5,21,9,,,,,,,,,,,,,,,,,,,,,1673.936264299904,125,none,0,,,1678.9499628999038,,,,,,,,33,D,2023-12-15_13h04.50.395,gca_avoidance_task,2022.2.4,143.98329799798734,
positions.xlsx,stimuli.xlsx,stimuli/Social2.png,stimuli/Social1.png,stimuli/Nonsocial2.png,stimuli/Nonsocial1.png,,"(0.7, -0.5)",cs_plus_ns,,,,,0,0,0,0,,,,,,,,,1,6,22,11,,,,,,,,,,,,,,,,,,,,,1688.8176030999748,125,none,0,,,1693.8243867999408,,,,,,,,33,D,2023-12-15_13h04.50.395,gca_avoidance_task,2022.2.4,143.98329799798734,
positions.xlsx,stimuli.xlsx,stimuli/Social2.png,stimuli/Social1.png,stimuli/Nonsocial2.png,stimuli/Nonsocial1.png,,"(0.7, 0.5)",cs_minus_s,,,,,0,0,0,0,,,,,,,,,1,7,23,6,,,,,,,,,,,,,,,,,,,,,1703.2545377999777,130,reward,1,0.6807622000342235,0.6807659999467432,1703.9420238999883,,,,,,,,33,D,2023-12-15_13h04.50.395,gca_avoidance_task,2022.2.4,143.98329799798734,
positions.xlsx,stimuli.xlsx,stimuli/Social2.png,stimuli/Social1.png,stimuli/Nonsocial2.png,stimuli/Nonsocial1.png,,"(-0.7, -0.5)",cs_plus_s,,,,,0,0,0,0,,,,,,,,,1,8,24,1,,,,,,,,,,,,,,,,,,,,,1713.2541581999976,130,none,0,,,1718.2609534999356,,,,,,,,33,D,2023-12-15_13h04.50.395,gca_avoidance_task,2022.2.4,143.98329799798734,
positions.xlsx,stimuli.xlsx,stimuli/Social2.png,stimuli/Social1.png,stimuli/Nonsocial2.png,stimuli/Nonsocial1.png,,"(0.7, -0.5)",cs_plus_s,,,,,0,0,0,0,,,,,,,,,1,9,25,3,,,,,,,,,,,,,,,,,,,,,1727.8022060999647,130,none,0,,,1732.808944099932,,,,,,,,33,D,2023-12-15_13h04.50.395,gca_avoidance_task,2022.2.4,143.98329799798734,
positions.xlsx,stimuli.xlsx,stimuli/Social2.png,stimuli/Social1.png,stimuli/Nonsocial2.png,stimuli/Nonsocial1.png,,"(-0.7, 0.5)",cs_minus_ns,,,,,0,0,0,0,,,,,,,,,1,10,26,12,,,,,,,,,,,,,,,,,,,,,1742.1002692999318,135,reward,1,0.6874943999573588,0.687497999984771,1742.794715899974,,,,,,,,33,D,2023-12-15_13h04.50.395,gca_avoidance_task,2022.2.4,143.98329799798734,
positions.xlsx,stimuli.xlsx,stimuli/Social2.png,stimuli/Social1.png,stimuli/Nonsocial2.png,stimuli/Nonsocial1.png,,"(-0.7, -0.5)",cs_minus_s,,,,,0,0,0,0,,,,,,,,,1,11,27,5,,,,,,,,,,,,,,,,,,,,,1751.7734879999189,140,reward,1,0.5906784000108019,0.5906817999202758,1752.3706551999785,,,,,,,,33,D,2023-12-15_13h04.50.395,gca_avoidance_task,2022.2.4,143.98329799798734,
positions.xlsx,stimuli.xlsx,stimuli/Social2.png,stimuli/Social1.png,stimuli/Nonsocial2.png,stimuli/Nonsocial1.png,,"(0.7, 0.5)",cs_plus_ns,,,,,0,0,0,0,,,,,,,,,1,12,28,10,,,,,,,,,,,,,,,,,,,,,1762.2452990999445,140,none,0,,,1767.2520644000033,,,,,,,,33,D,2023-12-15_13h04.50.395,gca_avoidance_task,2022.2.4,143.98329799798734,
positions.xlsx,stimuli.xlsx,stimuli/Social2.png,stimuli/Social1.png,stimuli/Nonsocial2.png,stimuli/Nonsocial1.png,,"(-0.7, -0.5)",cs_minus_ns,,,,,0,0,0,0,,,,,,,,,1,13,29,13,,,,,,,,,,,,,,,,,,,,,1776.4530852999305,145,reward,1,0.5903403999982402,0.5972141000675038,1777.0572605999187,,,,,,,,33,D,2023-12-15_13h04.50.395,gca_avoidance_task,2022.2.4,143.98329799798734,
positions.xlsx,stimuli.xlsx,stimuli/Social2.png,stimuli/Social1.png,stimuli/Nonsocial2.png,stimuli/Nonsocial1.png,,"(-0.7, 0.5)",cs_plus_s,,,,,0,0,0,0,,,,,,,,,1,14,30,0,,,,,,,,,,,,,,,,,,,,,1786.4457583999028,145,none,0,,,1791.4524714999134,,,,,,,,33,D,2023-12-15_13h04.50.395,gca_avoidance_task,2022.2.4,143.98329799798734,
positions.xlsx,stimuli.xlsx,stimuli/Social2.png,stimuli/Social1.png,stimuli/Nonsocial2.png,stimuli/Nonsocial1.png,,"(0.7, -0.5)",cs_minus_s,,,,,0,0,0,0,,,,,,,,,1,15,31,7,,,,,,,,,,,,,,,,,,,,,1800.8757785999915,150,reward,1,0.5974763000849634,0.5974797001108527,1801.4798776999814,,,,,,,,33,D,2023-12-15_13h04.50.395,gca_avoidance_task,2022.2.4,143.98329799798734,
positions.xlsx,stimuli.xlsx,stimuli/Social2.png,stimuli/Social1.png,stimuli/Nonsocial2.png,stimuli/Nonsocial1.png,,"(0.7, 0.5)",cs_minus_ns,,,,,0,0,0,0,,,,,,,,,2,0,32,14,,,,,,,,,,,,,,,,,,,,,1811.4795368999476,155,reward,1,0.5626431000418961,0.5626463999506086,1812.0489635999547,,,,,,,,33,D,2023-12-15_13h04.50.395,gca_avoidance_task,2022.2.4,143.98329799798734,
positions.xlsx,stimuli.xlsx,stimuli/Social2.png,stimuli/Social1.png,stimuli/Nonsocial2.png,stimuli/Nonsocial1.png,,"(0.7, 0.5)",cs_plus_s,,,,,0,0,0,0,,,,,,,,,2,1,33,2,,,,,,,,,,,,,,,,,,,,,1822.506840899936,155,none,0,,,1827.5205579999601,,,,,,,,33,D,2023-12-15_13h04.50.395,gca_avoidance_task,2022.2.4,143.98329799798734,
positions.xlsx,stimuli.xlsx,stimuli/Social2.png,stimuli/Social1.png,stimuli/Nonsocial2.png,stimuli/Nonsocial1.png,,"(-0.7, -0.5)",cs_minus_ns,,,,,0,0,0,0,,,,,,,,,2,2,34,13,,,,,,,,,,,,,,,,,,,,,1837.214635899989,160,reward,1,0.7085484999697655,0.7085518999956548,1837.9298717000056,,,,,,,,33,D,2023-12-15_13h04.50.395,gca_avoidance_task,2022.2.4,143.98329799798734,
positions.xlsx,stimuli.xlsx,stimuli/Social2.png,stimuli/Social1.png,stimuli/Nonsocial2.png,stimuli/Nonsocial1.png,,"(-0.7, -0.5)",cs_plus_ns,,,,,0,0,0,0,,,,,,,,,2,3,35,9,,,,,,,,,,,,,,,,,,,,,1847.0058819999686,160,none,0,,,1852.0126744000008,,,,,,,,33,D,2023-12-15_13h04.50.395,gca_avoidance_task,2022.2.4,143.98329799798734,
positions.xlsx,stimuli.xlsx,stimuli/Social2.png,stimuli/Social1.png,stimuli/Nonsocial2.png,stimuli/Nonsocial1.png,,"(-0.7, 0.5)",cs_plus_s,,,,,0,0,0,0,,,,,,,,,2,4,36,0,,,,,,,,,,,,,,,,,,,,,1861.1303316999692,160,none,0,,,1866.1370917999884,,,,,,,,33,D,2023-12-15_13h04.50.395,gca_avoidance_task,2022.2.4,143.98329799798734,
positions.xlsx,stimuli.xlsx,stimuli/Social2.png,stimuli/Social1.png,stimuli/Nonsocial2.png,stimuli/Nonsocial1.png,,"(-0.7, 0.5)",cs_minus_ns,,,,,0,0,0,0,,,,,,,,,2,5,37,12,,,,,,,,,,,,,,,,,,,,,1875.4700970998965,165,reward,1,0.5905190999619663,0.5905223999870941,1876.0672328999499,,,,,,,,33,D,2023-12-15_13h04.50.395,gca_avoidance_task,2022.2.4,143.98329799798734,
positions.xlsx,stimuli.xlsx,stimuli/Social2.png,stimuli/Social1.png,stimuli/Nonsocial2.png,stimuli/Nonsocial1.png,,"(0.7, -0.5)",cs_minus_ns,,,,,0,0,0,0,,,,,,,,,2,6,38,15,,,,,,,,,,,,,,,,,,,,,1885.2960730999475,170,reward,1,1.0484680000226945,1.0484713999321684,1886.3516066999873,,,,,,,,33,D,2023-12-15_13h04.50.395,gca_avoidance_task,2022.2.4,143.98329799798734,
positions.xlsx,stimuli.xlsx,stimuli/Social2.png,stimuli/Social1.png,stimuli/Nonsocial2.png,stimuli/Nonsocial1.png,,"(-0.7, -0.5)",cs_plus_s,,,,,0,0,0,0,,,,,,,,,2,7,39,1,,,,,,,,,,,,,,,,,,,,,1895.5109741999768,170,none,0,,,1900.5176552999765,,,,,,,,33,D,2023-12-15_13h04.50.395,gca_avoidance_task,2022.2.4,143.98329799798734,
positions.xlsx,stimuli.xlsx,stimuli/Social2.png,stimuli/Social1.png,stimuli/Nonsocial2.png,stimuli/Nonsocial1.png,,"(-0.7, -0.5)",cs_minus_s,,,,,0,0,0,0,,,,,,,,,2,8,40,5,,,,,,,,,,,,,,,,,,,,,1910.1770281000063,175,reward,1,0.48614990001078695,0.4861532999202609,1910.670115099987,,,,,,,,33,D,2023-12-15_13h04.50.395,gca_avoidance_task,2022.2.4,143.98329799798734,
positions.xlsx,stimuli.xlsx,stimuli/Social2.png,stimuli/Social1.png,stimuli/Nonsocial2.png,stimuli/Nonsocial1.png,,"(0.7, -0.5)",cs_minus_s,,,,,0,0,0,0,,,,,,,,,2,9,41,7,,,,,,,,,,,,,,,,,,,,,1920.2599754999392,180,reward,1,0.2643742000218481,0.26437799993436784,1920.5308107999153,,,,,,,,33,D,2023-12-15_13h04.50.395,gca_avoidance_task,2022.2.4,143.98329799798734,
positions.xlsx,stimuli.xlsx,stimuli/Social2.png,stimuli/Social1.png,stimuli/Nonsocial2.png,stimuli/Nonsocial1.png,,"(0.7, 0.5)",cs_minus_s,,,,,0,0,0,0,,,,,,,,,2,10,42,6,,,,,,,,,,,,,,,,,,,,,1930.4192950999131,185,reward,1,0.6536040999926627,0.653607799904421,1931.0790372999618,,,,,,,,33,D,2023-12-15_13h04.50.395,gca_avoidance_task,2022.2.4,143.98329799798734,
positions.xlsx,stimuli.xlsx,stimuli/Social2.png,stimuli/Social1.png,stimuli/Nonsocial2.png,stimuli/Nonsocial1.png,,"(0.7, -0.5)",cs_plus_ns,,,,,0,0,0,0,,,,,,,,,2,11,43,11,,,,,,,,,,,,,,,,,,,,,1940.682785199955,185,none,0,,,1945.6964750000043,,,,,,,,33,D,2023-12-15_13h04.50.395,gca_avoidance_task,2022.2.4,143.98329799798734,
positions.xlsx,stimuli.xlsx,stimuli/Social2.png,stimuli/Social1.png,stimuli/Nonsocial2.png,stimuli/Nonsocial1.png,,"(0.7, -0.5)",cs_plus_s,,,,,0,0,0,0,,,,,,,,,2,12,44,3,,,,,,,,,,,,,,,,,,,,,1955.9808010999113,185,none,0,,,1960.987543099909,,,,,,,,33,D,2023-12-15_13h04.50.395,gca_avoidance_task,2022.2.4,143.98329799798734,
positions.xlsx,stimuli.xlsx,stimuli/Social2.png,stimuli/Social1.png,stimuli/Nonsocial2.png,stimuli/Nonsocial1.png,,"(0.7, 0.5)",cs_plus_ns,,,,,0,0,0,0,,,,,,,,,2,13,45,10,,,,,,,,,,,,,,,,,,,,,1970.4941195999272,185,none,0,,,1975.5078319999157,,,,,,,,33,D,2023-12-15_13h04.50.395,gca_avoidance_task,2022.2.4,143.98329799798734,
positions.xlsx,stimuli.xlsx,stimuli/Social2.png,stimuli/Social1.png,stimuli/Nonsocial2.png,stimuli/Nonsocial1.png,,"(-0.7, 0.5)",cs_minus_s,,,,,0,0,0,0,,,,,,,,,2,14,46,4,,,,,,,,,,,,,,,,,,,,,1985.042157699936,190,reward,1,0.2363384000491351,0.2363425000803545,1985.2852181999478,,,,,,,,33,D,2023-12-15_13h04.50.395,gca_avoidance_task,2022.2.4,143.98329799798734,
positions.xlsx,stimuli.xlsx,stimuli/Social2.png,stimuli/Social1.png,stimuli/Nonsocial2.png,stimuli/Nonsocial1.png,,"(-0.7, 0.5)",cs_plus_ns,,,,,0,0,0,0,,,,,,,,,2,15,47,8,,,,,,,,,,,,,,,,,,,,,1994.4793499999214,190,none,0,,,1999.4930062999483,,,,,,,,33,D,2023-12-15_13h04.50.395,gca_avoidance_task,2022.2.4,143.98329799798734,
positions.xlsx,stimuli.xlsx,stimuli/Social2.png,stimuli/Social1.png,stimuli/Nonsocial2.png,stimuli/Nonsocial1.png,,"(-0.7, -0.5)",cs_minus_s,,,,,0,0,0,0,,,,,,,,,3,0,48,5,,,,,,,,,,,,,,,,,,,,,2008.7704002999235,195,reward,1,0.49335989996325225,0.4933634999906644,2009.2703885999508,,,,,,,,33,D,2023-12-15_13h04.50.395,gca_avoidance_task,2022.2.4,143.98329799798734,
positions.xlsx,stimuli.xlsx,stimuli/Social2.png,stimuli/Social1.png,stimuli/Nonsocial2.png,stimuli/Nonsocial1.png,,"(-0.7, 0.5)",cs_minus_ns,,,,,0,0,0,0,,,,,,,,,3,1,49,12,,,,,,,,,,,,,,,,,,,,,2018.665856199921,200,reward,1,0.5699439999880269,0.5699474998982623,2019.2422720999457,,,,,,,,33,D,2023-12-15_13h04.50.395,gca_avoidance_task,2022.2.4,143.98329799798734,
positions.xlsx,stimuli.xlsx,stimuli/Social2.png,stimuli/Social1.png,stimuli/Nonsocial2.png,stimuli/Nonsocial1.png,,"(-0.7, 0.5)",cs_minus_s,,,,,0,0,0,0,,,,,,,,,3,2,50,4,,,,,,,,,,,,,,,,,,,,,2028.7696343999123,205,reward,1,0.4865304999984801,0.48653410002589226,2029.2626839999575,,,,,,,,33,D,2023-12-15_13h04.50.395,gca_avoidance_task,2022.2.4,143.98329799798734,
positions.xlsx,stimuli.xlsx,stimuli/Social2.png,stimuli/Social1.png,stimuli/Nonsocial2.png,stimuli/Nonsocial1.png,,"(0.7, 0.5)",cs_plus_ns,,,,,0,0,0,0,,,,,,,,,3,3,51,10,,,,,,,,,,,,,,,,,,,,,2039.637279999908,205,none,0,,,2044.6509552999632,,,,,,,,33,D,2023-12-15_13h04.50.395,gca_avoidance_task,2022.2.4,143.98329799798734,
positions.xlsx,stimuli.xlsx,stimuli/Social2.png,stimuli/Social1.png,stimuli/Nonsocial2.png,stimuli/Nonsocial1.png,,"(-0.7, -0.5)",cs_minus_ns,,,,,0,0,0,0,,,,,,,,,3,4,52,13,,,,,,,,,,,,,,,,,,,,,2053.754802499898,210,reward,1,0.4373520000372082,0.4373557000653818,2054.1992049999535,,,,,,,,33,D,2023-12-15_13h04.50.395,gca_avoidance_task,2022.2.4,143.98329799798734,
positions.xlsx,stimuli.xlsx,stimuli/Social2.png,stimuli/Social1.png,stimuli/Nonsocial2.png,stimuli/Nonsocial1.png,,"(0.7, 0.5)",cs_minus_s,,,,,0,0,0,0,,,,,,,,,3,5,53,6,,,,,,,,,,,,,,,,,,,,,2063.094677099958,215,reward,1,0.5215704999864101,0.5215742000145838,2063.6224824999226,,,,,,,,33,D,2023-12-15_13h04.50.395,gca_avoidance_task,2022.2.4,143.98329799798734,
positions.xlsx,stimuli.xlsx,stimuli/Social2.png,stimuli/Social1.png,stimuli/Nonsocial2.png,stimuli/Nonsocial1.png,,"(-0.7, 0.5)",cs_plus_ns,,,,,0,0,0,0,,,,,,,,,3,6,54,8,,,,,,,,,,,,,,,,,,,,,2073.1290159999626,215,none,0,,,2078.142727499944,,,,,,,,33,D,2023-12-15_13h04.50.395,gca_avoidance_task,2022.2.4,143.98329799798734,
positions.xlsx,stimuli.xlsx,stimuli/Social2.png,stimuli/Social1.png,stimuli/Nonsocial2.png,stimuli/Nonsocial1.png,,"(0.7, -0.5)",cs_minus_s,,,,,0,0,0,0,,,,,,,,,3,7,55,7,,,,,,,,,,,,,,,,,,,,,2087.67705389997,220,reward,1,0.46576379996258765,0.472789500025101,2088.1562029999914,,,,,,,,33,D,2023-12-15_13h04.50.395,gca_avoidance_task,2022.2.4,143.98329799798734,
positions.xlsx,stimuli.xlsx,stimuli/Social2.png,stimuli/Social1.png,stimuli/Nonsocial2.png,stimuli/Nonsocial1.png,,"(0.7, -0.5)",cs_minus_ns,,,,,0,0,0,0,,,,,,,,,3,8,56,15,,,,,,,,,,,,,,,,,,,,,2097.6141925998963,225,reward,1,0.458465600037016,0.45846940006595105,2098.0794579999056,,,,,,,,33,D,2023-12-15_13h04.50.395,gca_avoidance_task,2022.2.4,143.98329799798734,
positions.xlsx,stimuli.xlsx,stimuli/Social2.png,stimuli/Social1.png,stimuli/Nonsocial2.png,stimuli/Nonsocial1.png,,"(0.7, -0.5)",cs_plus_ns,,,,,0,0,0,0,,,,,,,,,3,9,57,11,,,,,,,,,,,,,,,,,,,,,2108.1693288999377,225,none,0,,,2113.183007799904,,,,,,,,33,D,2023-12-15_13h04.50.395,gca_avoidance_task,2022.2.4,143.98329799798734,
positions.xlsx,stimuli.xlsx,stimuli/Social2.png,stimuli/Social1.png,stimuli/Nonsocial2.png,stimuli/Nonsocial1.png,,"(0.7, 0.5)",cs_minus_ns,,,,,0,0,0,0,,,,,,,,,3,10,58,14,,,,,,,,,,,,,,,,,,,,,2122.217373899999,230,reward,1,0.5140464999713004,0.514050199999474,2122.7382112999912,,,,,,,,33,D,2023-12-15_13h04.50.395,gca_avoidance_task,2022.2.4,143.98329799798734,
positions.xlsx,stimuli.xlsx,stimuli/Social2.png,stimuli/Social1.png,stimuli/Nonsocial2.png,stimuli/Nonsocial1.png,,"(-0.7, 0.5)",cs_plus_s,,,,,0,0,0,0,,,,,,,,,3,11,59,0,,,,,,,,,,,,,,,,,,,,,2132.9600116999354,230,none,0,,,2137.966752599925,,,,,,,,33,D,2023-12-15_13h04.50.395,gca_avoidance_task,2022.2.4,143.98329799798734,
positions.xlsx,stimuli.xlsx,stimuli/Social2.png,stimuli/Social1.png,stimuli/Nonsocial2.png,stimuli/Nonsocial1.png,,"(-0.7, -0.5)",cs_plus_s,,,,,0,0,0,0,,,,,,,,,3,12,60,1,,,,,,,,,,,,,,,,,,,,,2147.792813399923,230,none,0,,,2152.7995699999155,,,,,,,,33,D,2023-12-15_13h04.50.395,gca_avoidance_task,2022.2.4,143.98329799798734,
positions.xlsx,stimuli.xlsx,stimuli/Social2.png,stimuli/Social1.png,stimuli/Nonsocial2.png,stimuli/Nonsocial1.png,,"(0.7, -0.5)",cs_plus_s,,,,,0,0,0,0,,,,,,,,,3,13,61,3,,,,,,,,,,,,,,,,,,,,,2162.7921873999294,230,none,0,,,2167.7989943999564,,,,,,,,33,D,2023-12-15_13h04.50.395,gca_avoidance_task,2022.2.4,143.98329799798734,
positions.xlsx,stimuli.xlsx,stimuli/Social2.png,stimuli/Social1.png,stimuli/Nonsocial2.png,stimuli/Nonsocial1.png,,"(-0.7, -0.5)",cs_plus_ns,,,,,0,0,0,0,,,,,,,,,3,14,62,9,,,,,,,,,,,,,,,,,,,,,2176.736106199911,230,none,0,,,2181.7428768998943,,,,,,,,33,D,2023-12-15_13h04.50.395,gca_avoidance_task,2022.2.4,143.98329799798734,
positions.xlsx,stimuli.xlsx,stimuli/Social2.png,stimuli/Social1.png,stimuli/Nonsocial2.png,stimuli/Nonsocial1.png,,"(0.7, 0.5)",cs_plus_s,,,,,0,0,0,0,,,,,,,,,3,15,63,2,,,,,,,,,,,,,,,,,,,,,2190.8258413999574,230,none,0,,,2195.832649399992,,,,,,,,33,D,2023-12-15_13h04.50.395,gca_avoidance_task,2022.2.4,143.98329799798734,
positions.xlsx,stimuli.xlsx,stimuli/Social2.png,stimuli/Social1.png,stimuli/Nonsocial2.png,stimuli/Nonsocial1.png,,"(0.7, -0.5)",cs_minus_ns,,,,,0,0,0,0,,,,,,,,,4,0,64,15,,,,,,,,,,,,,,,,,,,,,2205.0613776999526,235,reward,1,0.5554413000354543,0.5554448999464512,2205.623904399923,,,,,,,,33,D,2023-12-15_13h04.50.395,gca_avoidance_task,2022.2.4,143.98329799798734,
positions.xlsx,stimuli.xlsx,stimuli/Social2.png,stimuli/Social1.png,stimuli/Nonsocial2.png,stimuli/Nonsocial1.png,,"(-0.7, 0.5)",cs_plus_s,,,,,0,0,0,0,,,,,,,,,4,1,65,0,,,,,,,,,,,,,,,,,,,,,2214.706829899922,235,none,0,,,2219.7135947999777,,,,,,,,33,D,2023-12-15_13h04.50.395,gca_avoidance_task,2022.2.4,143.98329799798734,
positions.xlsx,stimuli.xlsx,stimuli/Social2.png,stimuli/Social1.png,stimuli/Nonsocial2.png,stimuli/Nonsocial1.png,,"(0.7, 0.5)",cs_minus_s,,,,,0,0,0,0,,,,,,,,,4,2,66,6,,,,,,,,,,,,,,,,,,,,,2229.5465347999707,240,reward,1,0.6114046999718994,0.6114079999970272,2230.164600799908,,,,,,,,33,D,2023-12-15_13h04.50.395,gca_avoidance_task,2022.2.4,143.98329799798734,
positions.xlsx,stimuli.xlsx,stimuli/Social2.png,stimuli/Social1.png,stimuli/Nonsocial2.png,stimuli/Nonsocial1.png,,"(0.7, 0.5)",cs_minus_ns,,,,,0,0,0,0,,,,,,,,,4,3,67,14,,,,,,,,,,,,,,,,,,,,,2239.3933988999343,245,reward,1,0.4797195000573993,0.4797231999691576,2239.879476399976,,,,,,,,33,D,2023-12-15_13h04.50.395,gca_avoidance_task,2022.2.4,143.98329799798734,
positions.xlsx,stimuli.xlsx,stimuli/Social2.png,stimuli/Social1.png,stimuli/Nonsocial2.png,stimuli/Nonsocial1.png,,"(0.7, 0.5)",cs_plus_s,,,,,0,0,0,0,,,,,,,,,4,4,68,2,,,,,,,,,,,,,,,,,,,,,2249.788812099956,245,none,0,,,2254.8025335998973,,,,,,,,33,D,2023-12-15_13h04.50.395,gca_avoidance_task,2022.2.4,143.98329799798734,
positions.xlsx,stimuli.xlsx,stimuli/Social2.png,stimuli/Social1.png,stimuli/Nonsocial2.png,stimuli/Nonsocial1.png,,"(0.7, 0.5)",cs_plus_ns,,,,,0,0,0,0,,,,,,,,,4,5,69,10,,,,,,,,,,,,,,,,,,,,,2264.072980499943,245,none,0,,,2269.0797274999786,,,,,,,,33,D,2023-12-15_13h04.50.395,gca_avoidance_task,2022.2.4,143.98329799798734,
positions.xlsx,stimuli.xlsx,stimuli/Social2.png,stimuli/Social1.png,stimuli/Nonsocial2.png,stimuli/Nonsocial1.png,,"(0.7, -0.5)",cs_minus_s,,,,,0,0,0,0,,,,,,,,,4,6,70,7,,,,,,,,,,,,,,,,,,,,,2277.9266126999864,250,reward,1,0.5491977999918163,0.5492016000207514,2278.4821548999753,,,,,,,,33,D,2023-12-15_13h04.50.395,gca_avoidance_task,2022.2.4,143.98329799798734,
positions.xlsx,stimuli.xlsx,stimuli/Social2.png,stimuli/Social1.png,stimuli/Nonsocial2.png,stimuli/Nonsocial1.png,,"(-0.7, -0.5)",cs_plus_ns,,,,,0,0,0,0,,,,,,,,,4,7,71,9,,,,,,,,,,,,,,,,,,,,,2287.86372699996,250,none,0,,,2292.8774358999217,,,,,,,,33,D,2023-12-15_13h04.50.395,gca_avoidance_task,2022.2.4,143.98329799798734,
positions.xlsx,stimuli.xlsx,stimuli/Social2.png,stimuli/Social1.png,stimuli/Nonsocial2.png,stimuli/Nonsocial1.png,,"(-0.7, 0.5)",cs_plus_ns,,,,,0,0,0,0,,,,,,,,,4,8,72,8,,,,,,,,,,,,,,,,,,,,,2301.828467699932,250,none,0,,,2306.835194599931,,,,,,,,33,D,2023-12-15_13h04.50.395,gca_avoidance_task,2022.2.4,143.98329799798734,
positions.xlsx,stimuli.xlsx,stimuli/Social2.png,stimuli/Social1.png,stimuli/Nonsocial2.png,stimuli/Nonsocial1.png,,"(-0.7, -0.5)",cs_plus_s,,,,,0,0,0,0,,,,,,,,,4,9,73,1,,,,,,,,,,,,,,,,,,,,,2316.5500881999033,250,none,0,,,2321.556895799935,,,,,,,,33,D,2023-12-15_13h04.50.395,gca_avoidance_task,2022.2.4,143.98329799798734,
positions.xlsx,stimuli.xlsx,stimuli/Social2.png,stimuli/Social1.png,stimuli/Nonsocial2.png,stimuli/Nonsocial1.png,,"(-0.7, 0.5)",cs_minus_s,,,,,0,0,0,0,,,,,,,,,4,10,74,4,,,,,,,,,,,,,,,,,,,,,2330.591238999972,255,reward,1,0.48624540003947914,0.4862492000684142,2331.084257499897,,,,,,,,33,D,2023-12-15_13h04.50.395,gca_avoidance_task,2022.2.4,143.98329799798734,
positions.xlsx,stimuli.xlsx,stimuli/Social2.png,stimuli/Social1.png,stimuli/Nonsocial2.png,stimuli/Nonsocial1.png,,"(0.7, -0.5)",cs_plus_ns,,,,,0,0,0,0,,,,,,,,,4,11,75,11,,,,,,,,,,,,,,,,,,,,,2340.5353027998935,255,none,0,,,2345.548986699898,,,,,,,,33,D,2023-12-15_13h04.50.395,gca_avoidance_task,2022.2.4,143.98329799798734,
positions.xlsx,stimuli.xlsx,stimuli/Social2.png,stimuli/Social1.png,stimuli/Nonsocial2.png,stimuli/Nonsocial1.png,,"(0.7, -0.5)",cs_plus_s,,,,,0,0,0,0,,,,,,,,,4,12,76,3,,,,,,,,,,,,,,,,,,,,,2355.2777325999923,255,none,0,,,2360.284538000007,,,,,,,,33,D,2023-12-15_13h04.50.395,gca_avoidance_task,2022.2.4,143.98329799798734,
positions.xlsx,stimuli.xlsx,stimuli/Social2.png,stimuli/Social1.png,stimuli/Nonsocial2.png,stimuli/Nonsocial1.png,,"(-0.7, -0.5)",cs_minus_s,,,,,0,0,0,0,,,,,,,,,4,13,77,5,,,,,,,,,,,,,,,,,,,,,2369.4855668999953,260,reward,1,0.4936257000081241,0.49362900003325194,2369.985588499927,,,,,,,,33,D,2023-12-15_13h04.50.395,gca_avoidance_task,2022.2.4,143.98329799798734,
positions.xlsx,stimuli.xlsx,stimuli/Social2.png,stimuli/Social1.png,stimuli/Nonsocial2.png,stimuli/Nonsocial1.png,,"(-0.7, -0.5)",cs_minus_ns,,,,,0,0,0,0,,,,,,,,,4,14,78,13,,,,,,,,,,,,,,,,,,,,,2379.7837539999746,265,reward,1,0.5210065999999642,0.5210101999109611,2380.311564899981,,,,,,,,33,D,2023-12-15_13h04.50.395,gca_avoidance_task,2022.2.4,143.98329799798734,
positions.xlsx,stimuli.xlsx,stimuli/Social2.png,stimuli/Social1.png,stimuli/Nonsocial2.png,stimuli/Nonsocial1.png,,"(-0.7, 0.5)",cs_minus_ns,,,,,0,0,0,0,,,,,,,,,4,15,79,12,,,,,,,,,,,,,,,,,,,,,2389.706978800008,270,reward,1,0.4442818999523297,0.44428749999497086,2390.1584046999924,,,,,,,,33,D,2023-12-15_13h04.50.395,gca_avoidance_task,2022.2.4,143.98329799798734,
positions.xlsx,stimuli.xlsx,stimuli/Social2.png,stimuli/Social1.png,stimuli/Nonsocial2.png,stimuli/Nonsocial1.png,cs_minus_s,,,,,,,0,0,0,0,,,,,,,,,,,,,0,0,0,2,,,,,,,,,,,,,2406.768817199976,10.0,4.350361000047997,,,,,,,,,5.0,7.277889899909496,,,,,,33,D,2023-12-15_13h04.50.395,gca_avoidance_task,2022.2.4,143.98329799798734,
positions.xlsx,stimuli.xlsx,stimuli/Social2.png,stimuli/Social1.png,stimuli/Nonsocial2.png,stimuli/Nonsocial1.png,cs_minus_ns,,,,,,,0,0,0,0,,,,,,,,,,,,,0,1,1,3,,,,,,,,,,,,,2411.9561337999767,9.0,2.9998080000514165,,,,,,,,,,,,,,,,33,D,2023-12-15_13h04.50.395,gca_avoidance_task,2022.2.4,143.98329799798734,
positions.xlsx,stimuli.xlsx,stimuli/Social2.png,stimuli/Social1.png,stimuli/Nonsocial2.png,stimuli/Nonsocial1.png,cs_plus_s,,,,,,,0,0,0,0,,,,,,,,,,,,,0,2,2,0,,,,,,,,,,,,,2415.3101370999357,8.0,4.172251199954189,,,,,,,,,,,,,,,,33,D,2023-12-15_13h04.50.395,gca_avoidance_task,2022.2.4,143.98329799798734,
positions.xlsx,stimuli.xlsx,stimuli/Social2.png,stimuli/Social1.png,stimuli/Nonsocial2.png,stimuli/Nonsocial1.png,cs_plus_ns,,,,,,,0,0,0,0,,,,,,,,,,,,,0,3,3,1,,,,,,,,,,,,,2420.122497699922,8.0,5.4511330999666825,,,,,,,,,,,,,,,,33,D,2023-12-15_13h04.50.395,gca_avoidance_task,2022.2.4,143.98329799798734,
positions.xlsx,stimuli.xlsx,stimuli/Social2.png,stimuli/Social1.png,stimuli/Nonsocial2.png,stimuli/Nonsocial1.png,cs_minus_ns,,,,,,,0,0,0,0,,,,,,,,,,,,,,,,,0,0,0,3,,,,,,,,,,,,,,,,,,,,,,2425.9278149999445,2432.351174099953,3,0.2151942999335006,4.423424799926579,33,D,2023-12-15_13h04.50.395,gca_avoidance_task,2022.2.4,143.98329799798734,
positions.xlsx,stimuli.xlsx,stimuli/Social2.png,stimuli/Social1.png,stimuli/Nonsocial2.png,stimuli/Nonsocial1.png,cs_minus_s,,,,,,,0,0,0,0,,,,,,,,,,,,,,,,,0,1,1,2,,,,,,,,,,,,,,,,,,,,,,,2447.218645799905,5,0.013972099986858666,1.979307199944742,33,D,2023-12-15_13h04.50.395,gca_avoidance_task,2022.2.4,143.98329799798734,
positions.xlsx,stimuli.xlsx,stimuli/Social2.png,stimuli/Social1.png,stimuli/Nonsocial2.png,stimuli/Nonsocial1.png,cs_plus_s,,,,,,,0,0,0,0,,,,,,,,,,,,,,,,,0,2,2,0,,,,,,,,,,,,,,,,,,,,,,,2461.8014110999648,8,0.013408200000412762,6.812591099995188,33,D,2023-12-15_13h04.50.395,gca_avoidance_task,2022.2.4,143.98329799798734,
positions.xlsx,stimuli.xlsx,stimuli/Social2.png,stimuli/Social1.png,stimuli/Nonsocial2.png,stimuli/Nonsocial1.png,cs_plus_ns,,,,,,,0,0,0,0,,,,,,,,,,,,,,,,,0,3,3,1,,,,,,,,,,,,,,,,,,,,,,,2477.182812999934,3,0.014898299938067794,3.1812393999425694,33,D,2023-12-15_13h04.50.395,gca_avoidance_task,2022.2.4,143.98329799798734,
positions.xlsx,stimuli.xlsx,stimuli/Social2.png,stimuli/Social1.png,stimuli/Nonsocial2.png,stimuli/Nonsocial1.png,cs_plus_ns,,,,,,,0,0,0,0,,,,,,,,,,,,,,,,,1,0,4,1,,,,,,,,,,,,,,,,,,,,,,,2491.8974834999535,6,0.01569630007725209,1.0835401000222191,33,D,2023-12-15_13h04.50.395,gca_avoidance_task,2022.2.4,143.98329799798734,
positions.xlsx,stimuli.xlsx,stimuli/Social2.png,stimuli/Social1.png,stimuli/Nonsocial2.png,stimuli/Nonsocial1.png,cs_minus_s,,,,,,,0,0,0,0,,,,,,,,,,,,,,,,,1,1,5,2,,,,,,,,,,,,,,,,,,,,,,,2507.0635433999123,7,0.014430499984882772,0.5768200000748038,33,D,2023-12-15_13h04.50.395,gca_avoidance_task,2022.2.4,143.98329799798734,
positions.xlsx,stimuli.xlsx,stimuli/Social2.png,stimuli/Social1.png,stimuli/Nonsocial2.png,stimuli/Nonsocial1.png,cs_plus_s,,,,,,,0,0,0,0,,,,,,,,,,,,,,,,,1,2,6,0,,,,,,,,,,,,,,,,,,,,,,,2521.9101983999135,4,0.015273199998773634,0.389137800084427,33,D,2023-12-15_13h04.50.395,gca_avoidance_task,2022.2.4,143.98329799798734,
positions.xlsx,stimuli.xlsx,stimuli/Social2.png,stimuli/Social1.png,stimuli/Nonsocial2.png,stimuli/Nonsocial1.png,cs_minus_ns,,,,,,,0,0,0,0,,,,,,,,,,,,,,,,,1,3,7,3,,,,,,,,,,,,,,,,,,,,,,,2536.8540573999053,4,0.015242599998600781,0.42402939999010414,33,D,2023-12-15_13h04.50.395,gca_avoidance_task,2022.2.4,143.98329799798734,
positions.xlsx,stimuli.xlsx,stimuli/Social2.png,stimuli/Social1.png,stimuli/Nonsocial2.png,stimuli/Nonsocial1.png,cs_plus_ns,,,,,,,0,0,0,0,,,,,,,,,,,,,,,,,2,0,8,1,,,,,,,,,,,,,,,,,,,,,,,2552.1312629999593,10,0.014715800061821938,6.826501599978656,33,D,2023-12-15_13h04.50.395,gca_avoidance_task,2022.2.4,143.98329799798734,
positions.xlsx,stimuli.xlsx,stimuli/Social2.png,stimuli/Social1.png,stimuli/Nonsocial2.png,stimuli/Nonsocial1.png,cs_plus_s,,,,,,,0,0,0,0,,,,,,,,,,,,,,,,,2,1,9,0,,,,,,,,,,,,,,,,,,,,,,,2567.3945319999475,3,0.013669500011019409,0.5765576000558212,33,D,2023-12-15_13h04.50.395,gca_avoidance_task,2022.2.4,143.98329799798734,
positions.xlsx,stimuli.xlsx,stimuli/Social2.png,stimuli/Social1.png,stimuli/Nonsocial2.png,stimuli/Nonsocial1.png,cs_minus_s,,,,,,,0,0,0,0,,,,,,,,,,,,,,,,,2,2,10,2,,,,,,,,,,,,,,,,,,,,,,,2582.0884015999036,1,0.014640299952588975,10.000038599944673,33,D,2023-12-15_13h04.50.395,gca_avoidance_task,2022.2.4,143.98329799798734,
positions.xlsx,stimuli.xlsx,stimuli/Social2.png,stimuli/Social1.png,stimuli/Nonsocial2.png,stimuli/Nonsocial1.png,cs_minus_ns,,,,,,,0,0,0,0,,,,,,,,,,,,,,,,,2,3,11,3,,,,,,,,,,,,,,,,,,,,,,,2597.067015599925,5,0.015164799988269806,1.2987881998997182,33,D,2023-12-15_13h04.50.395,gca_avoidance_task,2022.2.4,143.98329799798734,
positions.xlsx,stimuli.xlsx,stimuli/Social2.png,stimuli/Social1.png,stimuli/Nonsocial2.png,stimuli/Nonsocial1.png,cs_minus_s,,,,,,,0,0,0,0,,,,,,,,,,,,,,,,,3,0,12,2,,,,,,,,,,,,,,,,,,,,,,,2612.323352699983,6,0.013422899995930493,0.98625479999464,33,D,2023-12-15_13h04.50.395,gca_avoidance_task,2022.2.4,143.98329799798734,
positions.xlsx,stimuli.xlsx,stimuli/Social2.png,stimuli/Social1.png,stimuli/Nonsocial2.png,stimuli/Nonsocial1.png,cs_plus_ns,,,,,,,0,0,0,0,,,,,,,,,,,,,,,,,3,1,13,1,,,,,,,,,,,,,,,,,,,,,,,2626.9894221998984,3,0.014640799956396222,3.1944845999823883,33,D,2023-12-15_13h04.50.395,gca_avoidance_task,2022.2.4,143.98329799798734,
positions.xlsx,stimuli.xlsx,stimuli/Social2.png,stimuli/Social1.png,stimuli/Nonsocial2.png,stimuli/Nonsocial1.png,cs_minus_ns,,,,,,,0,0,0,0,,,,,,,,,,,,,,,,,3,2,14,3,,,,,,,,,,,,,,,,,,,,,,,2641.627790099941,8,0.014963800087571144,1.9516757000237703,33,D,2023-12-15_13h04.50.395,gca_avoidance_task,2022.2.4,143.98329799798734,
positions.xlsx,stimuli.xlsx,stimuli/Social2.png,stimuli/Social1.png,stimuli/Nonsocial2.png,stimuli/Nonsocial1.png,cs_plus_s,,,,,,,0,0,0,0,,,,,,,,,,,,,,,,,3,3,15,0,,,,,,,,,,,,,,,,,,,,,,,2656.634087399929,9,0.015345199964940548,3.035099499975331,33,D,2023-12-15_13h04.50.395,gca_avoidance_task,2022.2.4,143.98329799798734,
positions.xlsx,stimuli.xlsx,stimuli/Social2.png,stimuli/Social1.png,stimuli/Nonsocial2.png,stimuli/Nonsocial1.png,cs_plus_ns,,,,,,,0,0,0,0,,,,,,,,,,,,,,,,,4,0,16,1,,,,,,,,,,,,,,,,,,,,,,,2671.2446736999555,8,0.014802300021983683,1.528189199976623,33,D,2023-12-15_13h04.50.395,gca_avoidance_task,2022.2.4,143.98329799798734,
positions.xlsx,stimuli.xlsx,stimuli/Social2.png,stimuli/Social1.png,stimuli/Nonsocial2.png,stimuli/Nonsocial1.png,cs_minus_s,,,,,,,0,0,0,0,,,,,,,,,,,,,,,,,4,1,17,2,,,,,,,,,,,,,,,,,,,,,,,2685.855235399911,2,0.01472119998652488,6.076439999975264,33,D,2023-12-15_13h04.50.395,gca_avoidance_task,2022.2.4,143.98329799798734,
positions.xlsx,stimuli.xlsx,stimuli/Social2.png,stimuli/Social1.png,stimuli/Nonsocial2.png,stimuli/Nonsocial1.png,cs_plus_s,,,,,,,0,0,0,0,,,,,,,,,,,,,,,,,4,2,18,0,,,,,,,,,,,,,,,,,,,,,,,2701.146299099899,4,0.0771942000137642,2.3612503999611363,33,D,2023-12-15_13h04.50.395,gca_avoidance_task,2022.2.4,143.98329799798734,
positions.xlsx,stimuli.xlsx,stimuli/Social2.png,stimuli/Social1.png,stimuli/Nonsocial2.png,stimuli/Nonsocial1.png,cs_minus_ns,,,,,,,0,0,0,0,,,,,,,,,,,,,,,,,4,3,19,3,,,,,,,,,,,,,,,,,,,,,,,2715.9512660999317,6,0.01505739998538047,1.4728124999674037,33,D,2023-12-15_13h04.50.395,gca_avoidance_task,2022.2.4,143.98329799798734,
positions.xlsx,stimuli.xlsx,stimuli/Social2.png,stimuli/Social1.png,stimuli/Nonsocial2.png,stimuli/Nonsocial1.png,cs_minus_s,,,,,,,0,0,0,0,,,,,,,,,,,,,,,,,5,0,20,2,,,,,,,,,,,,,,,,,,,,,,,2730.659079899895,2,0.013650299981236458,3.0070134999696165,33,D,2023-12-15_13h04.50.395,gca_avoidance_task,2022.2.4,143.98329799798734,
positions.xlsx,stimuli.xlsx,stimuli/Social2.png,stimuli/Social1.png,stimuli/Nonsocial2.png,stimuli/Nonsocial1.png,cs_plus_ns,,,,,,,0,0,0,0,,,,,,,,,,,,,,,,,5,1,21,1,,,,,,,,,,,,,,,,,,,,,,,2745.443187099998,3,0.013968699960969388,4.159872099990025,33,D,2023-12-15_13h04.50.395,gca_avoidance_task,2022.2.4,143.98329799798734,
positions.xlsx,stimuli.xlsx,stimuli/Social2.png,stimuli/Social1.png,stimuli/Nonsocial2.png,stimuli/Nonsocial1.png,cs_plus_s,,,,,,,0,0,0,0,,,,,,,,,,,,,,,,,5,2,22,0,,,,,,,,,,,,,,,,,,,,,,,2760.1717883999227,1,0.013523500063456595,9.999971800018102,33,D,2023-12-15_13h04.50.395,gca_avoidance_task,2022.2.4,143.98329799798734,
positions.xlsx,stimuli.xlsx,stimuli/Social2.png,stimuli/Social1.png,stimuli/Nonsocial2.png,stimuli/Nonsocial1.png,cs_minus_ns,,,,,,,0,0,0,0,,,,,,,,,,,,,,,,,5,3,23,3,,,,,,,,,,,,,,,,,,,,,,,2775.136472199927,8,0.014864899916574359,0.6737241999944672,33,D,2023-12-15_13h04.50.395,gca_avoidance_task,2022.2.4,143.98329799798734,
positions.xlsx,stimuli.xlsx,stimuli/Social2.png,stimuli/Social1.png,stimuli/Nonsocial2.png,stimuli/Nonsocial1.png,cs_minus_ns,,,,,,,0,0,0,0,,,,,,,,,,,,,,,,,6,0,24,3,,,,,,,,,,,,,,,,,,,,,,,2789.7053786999313,4,0.014136800076812506,2.7571472000563517,33,D,2023-12-15_13h04.50.395,gca_avoidance_task,2022.2.4,143.98329799798734,
positions.xlsx,stimuli.xlsx,stimuli/Social2.png,stimuli/Social1.png,stimuli/Nonsocial2.png,stimuli/Nonsocial1.png,cs_minus_s,,,,,,,0,0,0,0,,,,,,,,,,,,,,,,,6,1,25,2,,,,,,,,,,,,,,,,,,,,,,,2804.933965799981,2,0.013748100027441978,0.02170529996510595,33,D,2023-12-15_13h04.50.395,gca_avoidance_task,2022.2.4,143.98329799798734,
positions.xlsx,stimuli.xlsx,stimuli/Social2.png,stimuli/Social1.png,stimuli/Nonsocial2.png,stimuli/Nonsocial1.png,cs_plus_ns,,,,,,,0,0,0,0,,,,,,,,,,,,,,,,,6,2,26,1,,,,,,,,,,,,,,,,,,,,,,,2819.5167122998973,4,0.014397899969480932,2.7430732999928296,33,D,2023-12-15_13h04.50.395,gca_avoidance_task,2022.2.4,143.98329799798734,
positions.xlsx,stimuli.xlsx,stimuli/Social2.png,stimuli/Social1.png,stimuli/Nonsocial2.png,stimuli/Nonsocial1.png,cs_plus_s,,,,,,,0,0,0,0,,,,,,,,,,,,,,,,,6,3,27,0,,,,,,,,,,,,,,,,,,,,,,,2834.2314177999506,2,0.01376420003362,6.138937000068836,33,D,2023-12-15_13h04.50.395,gca_avoidance_task,2022.2.4,143.98329799798734,
positions.xlsx,stimuli.xlsx,stimuli/Social2.png,stimuli/Social1.png,stimuli/Nonsocial2.png,stimuli/Nonsocial1.png,cs_minus_s,,,,,,,0,0,0,0,,,,,,,,,,,,,,,,,7,0,28,2,,,,,,,,,,,,,,,,,,,,,,,2849.4252638999606,1,0.013938999967649579,9.999980599968694,33,D,2023-12-15_13h04.50.395,gca_avoidance_task,2022.2.4,143.98329799798734,
positions.xlsx,stimuli.xlsx,stimuli/Social2.png,stimuli/Social1.png,stimuli/Nonsocial2.png,stimuli/Nonsocial1.png,cs_plus_s,,,,,,,0,0,0,0,,,,,,,,,,,,,,,,,7,1,29,0,,,,,,,,,,,,,,,,,,,,,,,2864.6746822999557,3,0.013536600046791136,2.9723093000939116,33,D,2023-12-15_13h04.50.395,gca_avoidance_task,2022.2.4,143.98329799798734,
positions.xlsx,stimuli.xlsx,stimuli/Social2.png,stimuli/Social1.png,stimuli/Nonsocial2.png,stimuli/Nonsocial1.png,cs_minus_ns,,,,,,,0,0,0,0,,,,,,,,,,,,,,,,,7,2,30,3,,,,,,,,,,,,,,,,,,,,,,,2879.382431899896,9,0.014729400048963726,0.6183132000733167,33,D,2023-12-15_13h04.50.395,gca_avoidance_task,2022.2.4,143.98329799798734,
positions.xlsx,stimuli.xlsx,stimuli/Social2.png,stimuli/Social1.png,stimuli/Nonsocial2.png,stimuli/Nonsocial1.png,cs_plus_ns,,,,,,,0,0,0,0,,,,,,,,,,,,,,,,,7,3,31,1,,,,,,,,,,,,,,,,,,,,,,,2894.2082741999766,3,0.015042199986055493,7.486042100004852,33,D,2023-12-15_13h04.50.395,gca_avoidance_task,2022.2.4,143.98329799798734,
positions.xlsx,stimuli.xlsx,stimuli/Social2.png,stimuli/Social1.png,stimuli/Nonsocial2.png,stimuli/Nonsocial1.png,cs_plus_ns,,,,,,,0,0,0,0,,,,,,,,,,,,,,,,,8,0,32,1,,,,,,,,,,,,,,,,,,,,,,,2909.3187661999837,4,0.015241799992509186,2.4930891999974847,33,D,2023-12-15_13h04.50.395,gca_avoidance_task,2022.2.4,143.98329799798734,
positions.xlsx,stimuli.xlsx,stimuli/Social2.png,stimuli/Social1.png,stimuli/Nonsocial2.png,stimuli/Nonsocial1.png,cs_minus_s,,,,,,,0,0,0,0,,,,,,,,,,,,,,,,,8,1,33,2,,,,,,,,,,,,,,,,,,,,,,,2924.4084605999524,4,0.30625429993961006,0.7779026000062004,33,D,2023-12-15_13h04.50.395,gca_avoidance_task,2022.2.4,143.98329799798734,
positions.xlsx,stimuli.xlsx,stimuli/Social2.png,stimuli/Social1.png,stimuli/Nonsocial2.png,stimuli/Nonsocial1.png,cs_plus_s,,,,,,,0,0,0,0,,,,,,,,,,,,,,,,,8,2,34,0,,,,,,,,,,,,,,,,,,,,,,,2939.685638099909,3,0.014152599964290857,2.687620099983178,33,D,2023-12-15_13h04.50.395,gca_avoidance_task,2022.2.4,143.98329799798734,
positions.xlsx,stimuli.xlsx,stimuli/Social2.png,stimuli/Social1.png,stimuli/Nonsocial2.png,stimuli/Nonsocial1.png,cs_minus_ns,,,,,,,0,0,0,0,,,,,,,,,,,,,,,,,8,3,35,3,,,,,,,,,,,,,,,,,,,,,,,2954.3170106000034,6,0.01567380002234131,0.5976171999936923,33,D,2023-12-15_13h04.50.395,gca_avoidance_task,2022.2.4,143.98329799798734,
positions.xlsx,stimuli.xlsx,stimuli/Social2.png,stimuli/Social1.png,stimuli/Nonsocial2.png,stimuli/Nonsocial1.png,cs_plus_s,,,,,,,0,0,0,0,,,,,,,,,,,,,,,,,9,0,36,0,,,,,,,,,,,,,,,,,,,,,,,2968.92072309996,2,0.015126100042834878,7.423489800072275,33,D,2023-12-15_13h04.50.395,gca_avoidance_task,2022.2.4,143.98329799798734,
positions.xlsx,stimuli.xlsx,stimuli/Social2.png,stimuli/Social1.png,stimuli/Nonsocial2.png,stimuli/Nonsocial1.png,cs_minus_ns,,,,,,,0,0,0,0,,,,,,,,,,,,,,,,,9,1,37,3,,,,,,,,,,,,,,,,,,,,,,,2983.9339340999722,2,0.015453799976967275,0.5696242999983951,33,D,2023-12-15_13h04.50.395,gca_avoidance_task,2022.2.4,143.98329799798734,
positions.xlsx,stimuli.xlsx,stimuli/Social2.png,stimuli/Social1.png,stimuli/Nonsocial2.png,stimuli/Nonsocial1.png,cs_minus_s,,,,,,,0,0,0,0,,,,,,,,,,,,,,,,,9,2,38,2,,,,,,,,,,,,,,,,,,,,,,,2998.495845199912,2,0.015148999984376132,8.430428600055166,33,D,2023-12-15_13h04.50.395,gca_avoidance_task,2022.2.4,143.98329799798734,
positions.xlsx,stimuli.xlsx,stimuli/Social2.png,stimuli/Social1.png,stimuli/Nonsocial2.png,stimuli/Nonsocial1.png,cs_plus_ns,,,,,,,0,0,0,0,,,,,,,,,,,,,,,,,9,3,39,1,,,,,,,,,,,,,,,,,,,,,,,3013.8424892999465,5,0.015499199973419309,0.6667440000455827,33,D,2023-12-15_13h04.50.395,gca_avoidance_task,2022.2.4,143.98329799798734,
positions.xlsx,stimuli.xlsx,stimuli/Social2.png,stimuli/Social1.png,stimuli/Nonsocial2.png,stimuli/Nonsocial1.png,cs_minus_ns,,,,,,,0,0,0,0,,,,,,,,,,,,,,,,,,,,,0,0,0,3,,,,,3027.925294799963,10.0,3.589854700025171,,,,,,,,,,,,,,,,33,D,2023-12-15_13h04.50.395,gca_avoidance_task,2022.2.4,143.98329799798734,
positions.xlsx,stimuli.xlsx,stimuli/Social2.png,stimuli/Social1.png,stimuli/Nonsocial2.png,stimuli/Nonsocial1.png,cs_minus_s,,,,,,,0,0,0,0,,,,,,,,,,,,,,,,,,,,,0,1,1,2,,,,,3037.7929636999033,10.0,1.443553699995391,,,,,,,,,,,,,,,,33,D,2023-12-15_13h04.50.395,gca_avoidance_task,2022.2.4,143.98329799798734,
positions.xlsx,stimuli.xlsx,stimuli/Social2.png,stimuli/Social1.png,stimuli/Nonsocial2.png,stimuli/Nonsocial1.png,cs_plus_s,,,,,,,0,0,0,0,,,,,,,,,,,,,,,,,,,,,0,2,2,0,,,,,3039.5776020999765,9.0,1.9723277000011876,,,,,,,,,,,,,,,,33,D,2023-12-15_13h04.50.395,gca_avoidance_task,2022.2.4,143.98329799798734,
positions.xlsx,stimuli.xlsx,stimuli/Social2.png,stimuli/Social1.png,stimuli/Nonsocial2.png,stimuli/Nonsocial1.png,cs_plus_ns,,,,,,,0,0,0,0,,,,,,,,,,,,,,,,,,,,,0,3,3,1,,,,,3041.924697999959,10.0,2.2426245000679046,,,,,,,,,,,,,,,,33,D,2023-12-15_13h04.50.395,gca_avoidance_task,2022.2.4,143.98329799798734,
